# Columns:
#   distance along LOS (in CHIMPs)
#   peculiar velocity  (in km/s)
#   temperature (K)
#   HI number density
# pos=(173.804,224.485,166.115), angles=(0.289468,2.07553)
  0.00475     54.3 1.112e+04 6.882e-10
  0.01595     54.3 1.110e+04 6.829e-10
  0.04178     54.2 1.098e+04 5.762e-10
  0.06216     55.5 1.103e+04 6.245e-10
  0.08354     55.0 1.082e+04 4.992e-10
  0.12430     54.2 1.058e+04 3.664e-10
  0.15526     53.0 1.048e+04 3.084e-10
  0.17564     52.7 1.030e+04 2.414e-10
  0.20582     51.6 1.027e+04 2.491e-10
  0.24657     50.9 1.027e+04 3.014e-10
  0.28733     50.7 1.026e+04 3.451e-10
  0.31495     50.7 1.023e+04 3.321e-10
  0.33317     51.1 9.984e+03 2.507e-10
  0.34631     51.3 1.001e+04 2.703e-10
  0.36885     51.4 9.858e+03 1.869e-10
  0.40961     50.9 9.726e+03 1.165e-10
  0.45037     49.8 9.678e+03 1.095e-10
  0.47464     48.8 9.706e+03 1.252e-10
  0.49502     49.9 9.649e+03 1.052e-10
  0.53188     49.0 9.914e+03 1.848e-10
  0.57264     48.1 1.047e+04 3.913e-10
  0.61008     46.9 1.118e+04 7.899e-10
  0.63046     47.2 1.094e+04 6.542e-10
  0.63433     45.8 1.150e+04 9.818e-10
  0.65470     46.8 1.169e+04 1.133e-09
  0.69491     45.1 1.175e+04 1.138e-09
  0.73567     44.0 1.149e+04 9.352e-10
  0.77364     43.3 1.103e+04 6.077e-10
  0.79401     43.9 1.124e+04 7.222e-10
  0.81719     43.2 1.084e+04 4.775e-10
  0.85795     42.9 1.064e+04 4.124e-10
  0.89423     43.2 1.059e+04 4.172e-10
  0.91461     43.0 1.034e+04 3.453e-10
  0.93332     43.8 1.035e+04 3.984e-10
  0.95370     44.2 1.053e+04 4.799e-10
  0.98022     45.3 1.061e+04 5.049e-10
  1.02098     46.5 1.061e+04 4.803e-10
  1.06174     47.7 1.056e+04 4.428e-10
  1.09301     49.1 1.058e+04 4.373e-10
  1.11339     49.4 1.050e+04 3.166e-10
  1.14325     50.2 1.061e+04 3.324e-10
  1.17838     50.5 1.101e+04 4.491e-10
  1.19876     50.4 1.097e+04 4.146e-10
  1.21448     50.4 1.111e+04 5.246e-10
  1.23477     50.5 1.129e+04 6.592e-10
  1.25251     50.5 1.149e+04 8.359e-10
  1.26270     50.6 1.130e+04 6.659e-10
  1.27552     50.6 1.151e+04 8.511e-10
  1.29590     50.7 1.174e+04 1.038e-09
  1.31628     50.8 1.200e+04 1.146e-09
  1.33045     50.8 1.214e+04 1.142e-09
  1.33633     50.7 1.238e+04 1.348e-09
  1.34254     50.7 1.234e+04 1.250e-09
  1.35704     50.4 1.264e+04 1.303e-09
  1.37742     49.8 1.292e+04 1.344e-09
  1.39780     49.2 1.315e+04 1.374e-09
  1.41220     48.6 1.319e+04 1.369e-09
  1.42238     48.4 1.318e+04 1.762e-09
  1.43856     48.2 1.316e+04 1.734e-09
  1.45894     48.1 1.312e+04 1.605e-09
  1.47253     47.9 1.321e+04 1.354e-09
  1.48272     47.5 1.365e+04 2.045e-09
  1.49204     46.5 1.384e+04 1.756e-09
  1.50223     46.5 1.378e+04 1.947e-09
  1.52007     45.2 1.376e+04 1.804e-09
  1.54045     43.8 1.365e+04 1.711e-09
  1.56083     43.3 1.357e+04 1.650e-09
  1.57198     42.5 1.338e+04 1.623e-09
  1.59246     42.8 1.353e+04 1.857e-09
  1.63235     42.9 1.295e+04 1.220e-09
  1.67311     43.1 1.241e+04 5.477e-10
  1.71139     42.3 1.216e+04 2.046e-10
  1.73177     42.4 1.214e+04 1.975e-10
  1.74668     41.1 1.152e+04 1.160e-10
  1.76706     41.0 1.134e+04 1.646e-10
  1.79539     41.6 1.114e+04 1.532e-10
  1.83614     42.6 1.111e+04 1.474e-10
  1.87108     43.6 1.113e+04 1.449e-10
  1.89146     43.8 1.108e+04 9.989e-11
  1.91766     44.5 1.110e+04 1.011e-10
  1.95842     44.9 1.121e+04 1.120e-10
  1.99918     44.7 1.127e+04 1.437e-10
  2.03077     44.7 1.144e+04 2.663e-10
  2.05115     46.2 1.102e+04 1.774e-10
  2.08069     46.5 1.116e+04 3.031e-10
  2.12145     47.3 1.138e+04 4.550e-10
  2.16221     47.8 1.137e+04 4.676e-10
  2.19046     48.4 1.128e+04 4.202e-10
  2.21083     49.0 1.106e+04 2.944e-10
  2.24373     49.2 1.098e+04 2.257e-10
  2.28448     49.1 1.081e+04 1.849e-10
  2.31498     48.9 1.078e+04 1.855e-10
  2.33536     50.2 1.079e+04 2.100e-10
  2.35014     49.9 1.079e+04 2.252e-10
  2.37052     50.3 1.071e+04 1.931e-10
  2.40676     50.0 1.076e+04 2.637e-10
  2.44752     50.0 1.080e+04 3.187e-10
  2.48828     50.2 1.073e+04 3.052e-10
  2.50983     50.7 1.055e+04 2.430e-10
  2.53021     51.5 1.053e+04 2.451e-10
  2.56979     51.6 1.047e+04 1.524e-10
  2.59913     51.1 1.044e+04 1.072e-10
  2.61951     52.3 1.042e+04 1.247e-10
  2.64914     51.7 1.039e+04 1.224e-10
  2.66952     52.3 1.044e+04 1.293e-10
  2.69207     51.7 1.038e+04 1.554e-10
  2.73283     51.4 1.033e+04 2.028e-10
  2.77358     51.2 1.035e+04 2.215e-10
  2.80883     50.6 1.033e+04 2.186e-10
  2.82921     51.1 1.030e+04 3.039e-10
  2.85510     50.4 1.023e+04 2.756e-10
  2.88328     49.6 1.014e+04 2.472e-10
  2.90366     50.7 1.015e+04 2.517e-10
  2.93662     50.0 1.007e+04 2.309e-10
  2.96852     49.6 1.003e+04 2.104e-10
  2.98890     49.6 9.966e+03 2.285e-10
  3.01813     49.5 9.909e+03 2.087e-10
  3.05889     49.6 9.844e+03 1.783e-10
  3.09965     49.7 9.754e+03 1.417e-10
  3.12821     50.2 9.790e+03 1.305e-10
  3.14859     50.1 9.778e+03 1.492e-10
  3.16743     49.7 9.953e+03 1.690e-10
  3.18781     50.3 9.941e+03 1.815e-10
  3.22192     49.9 1.030e+04 3.141e-10
  3.26268     50.1 1.077e+04 5.921e-10
  3.28790     50.3 1.098e+04 7.561e-10
  3.30828     50.4 1.079e+04 5.863e-10
  3.34420     50.6 1.052e+04 4.678e-10
  3.38496     50.6 1.003e+04 2.766e-10
  3.42571     50.3 9.567e+03 1.511e-10
  3.44759     50.1 9.147e+03 9.811e-11
  3.45308     49.6 8.927e+03 7.990e-11
  3.47196     49.9 8.904e+03 7.839e-11
  3.50723     50.6 8.646e+03 7.926e-11
  3.54799     52.0 8.608e+03 8.256e-11
  3.58690     53.4 8.556e+03 8.968e-11
  3.60728     53.7 8.631e+03 1.278e-10
  3.62951     55.3 8.648e+03 1.468e-10
  3.67026     56.8 8.666e+03 1.587e-10
  3.71102     58.3 8.663e+03 1.588e-10
  3.73574     59.8 8.609e+03 1.521e-10
  3.75092     60.1 8.479e+03 1.327e-10
  3.76696     60.3 8.590e+03 1.717e-10
  3.79254     61.8 8.429e+03 1.301e-10
  3.83330     62.9 8.300e+03 9.432e-11
  3.87406     63.7 8.128e+03 7.771e-11
  3.90627     64.8 8.067e+03 7.734e-11
  3.92665     64.8 8.063e+03 9.318e-11
  3.95557     66.2 8.027e+03 9.873e-11
  3.99633     67.6 8.052e+03 1.123e-10
  4.01989     69.0 8.125e+03 1.280e-10
  4.04027     69.3 7.965e+03 1.044e-10
  4.06596     70.6 8.006e+03 1.087e-10
  4.08634     70.6 7.995e+03 1.098e-10
  4.11860     71.6 8.001e+03 1.138e-10
  4.15936     72.5 8.048e+03 1.278e-10
  4.20012     73.3 8.218e+03 1.594e-10
  4.22565     74.2 8.485e+03 2.050e-10
  4.24603     73.7 8.889e+03 2.790e-10
  4.28164     74.5 9.251e+03 3.621e-10
  4.30404     75.2 9.468e+03 4.138e-10
  4.32442     76.1 8.391e+03 2.150e-10
  4.36315     76.7 8.558e+03 2.327e-10
  4.38534     77.2 8.706e+03 2.541e-10
  4.40572     76.2 8.866e+03 2.783e-10
  4.44467     76.7 8.899e+03 3.016e-10
  4.48543     77.3 8.901e+03 3.310e-10
  4.52465     78.2 8.871e+03 3.507e-10
  4.54503     77.7 8.721e+03 3.301e-10
  4.56694     78.7 8.586e+03 3.064e-10
  4.58819     79.6 8.448e+03 2.796e-10
  4.60857     80.9 8.856e+03 3.824e-10
  4.64846     81.7 8.677e+03 3.384e-10
  4.68434     82.3 8.472e+03 3.038e-10
  4.70472     81.4 8.236e+03 2.607e-10
  4.72998     82.3 8.087e+03 2.656e-10
  4.77074     83.5 8.044e+03 2.656e-10
  4.81149     84.8 7.991e+03 2.599e-10
  4.84403     86.1 7.906e+03 2.438e-10
  4.86411     85.8 7.673e+03 1.965e-10
  4.87234     86.3 7.791e+03 2.236e-10
  4.89301     87.5 7.611e+03 1.906e-10
  4.93377     88.7 7.500e+03 1.739e-10
  4.97453     90.0 7.503e+03 1.744e-10
  5.00372     91.2 7.568e+03 1.865e-10
  5.02410     91.1 7.467e+03 1.788e-10
  5.05604     92.1 8.157e+03 2.950e-10
  5.08346     91.9 8.822e+03 3.803e-10
  5.09356     91.4 9.271e+03 3.970e-10
  5.10680     88.0 1.292e+04 9.658e-10
  5.12717     84.1 1.660e+04 3.787e-09
  5.14241     83.5 1.719e+04 5.723e-09
  5.15110     81.2 1.933e+04 9.783e-09
  5.15624     85.1 1.703e+04 4.523e-09
  5.16279     76.8 2.390e+04 1.548e-08
  5.16821     69.2 2.585e+04 7.262e-08
  5.17330     65.1 2.513e+04 1.540e-07
  5.18312     61.0 2.304e+04 2.747e-07
  5.19331     59.0 2.244e+04 2.541e-07
  5.20303     58.7 2.207e+04 1.618e-07
  5.20813     57.5 2.145e+04 1.130e-07
  5.21369     56.6 2.101e+04 4.698e-08
  5.22214     54.2 2.090e+04 1.638e-08
  5.22723     56.3 2.152e+04 2.579e-08
  5.23407     52.7 2.209e+04 9.357e-09
  5.24296     48.3 2.072e+04 3.320e-09
  5.25320     45.2 1.805e+04 1.707e-09
  5.26983     36.1 1.262e+04 4.549e-10
  5.28818     33.2 1.001e+04 3.466e-10
  5.29837     33.1 1.015e+04 2.762e-10
  5.31059     32.6 9.707e+03 2.841e-10
  5.32300     34.4 9.950e+03 3.399e-10
  5.34347     32.4 9.433e+03 2.416e-10
  5.38211     31.8 9.787e+03 3.206e-10
  5.42026     31.6 1.019e+04 4.597e-10
  5.44064     31.6 9.814e+03 3.741e-10
  5.46240     31.4 9.906e+03 3.914e-10
  5.48278     30.0 9.813e+03 3.796e-10
  5.50438     29.4 9.894e+03 3.743e-10
  5.54514     29.0 9.920e+03 3.632e-10
  5.58590     29.0 9.894e+03 3.451e-10
  5.62209     29.5 9.794e+03 3.011e-10
  5.64247     29.2 9.574e+03 2.615e-10
  5.66742     30.2 9.478e+03 2.039e-10
  5.70441     31.0 9.437e+03 1.554e-10
  5.72479     31.9 9.423e+03 1.658e-10
  5.74893     32.6 9.350e+03 1.424e-10
  5.78178     33.4 9.169e+03 1.362e-10
  5.80216     33.3 9.028e+03 1.257e-10
  5.83045     34.2 8.973e+03 1.264e-10
  5.87121     35.2 8.925e+03 1.283e-10
  5.91197     36.1 8.912e+03 1.329e-10
  5.94147     36.3 8.916e+03 1.418e-10
  5.96185     36.9 8.773e+03 1.244e-10
  5.98856     36.4 9.018e+03 1.464e-10
  6.00894     37.1 8.819e+03 1.298e-10
  6.03424     35.9 9.171e+03 1.826e-10
  6.07500     34.4 9.868e+03 3.373e-10
  6.10116     33.0 1.031e+04 5.206e-10
  6.12154     32.8 1.021e+04 5.333e-10
  6.14073     30.9 1.097e+04 7.218e-10
  6.15082     31.0 1.085e+04 6.918e-10
  6.16651     27.4 1.222e+04 1.063e-09
  6.18081     23.9 1.303e+04 1.705e-09
  6.19100     23.2 1.305e+04 1.909e-09
  6.20727     20.0 1.408e+04 2.323e-09
  6.22765     10.8 1.884e+04 4.237e-09
  6.24803      2.9 1.898e+04 8.686e-09
  6.26065     -1.5 1.756e+04 1.220e-08
  6.27084     -4.2 1.718e+04 9.889e-09
  6.28270     -6.8 1.666e+04 9.676e-09
  6.29289     -8.8 1.639e+04 9.127e-09
  6.30916    -10.3 1.621e+04 9.357e-09
  6.32954    -11.4 1.677e+04 7.056e-09
  6.34050    -14.6 1.652e+04 3.246e-09
  6.35069    -14.9 1.680e+04 3.872e-09
  6.37030    -21.5 1.322e+04 1.492e-09
  6.39068    -23.5 1.179e+04 1.083e-09
  6.41015    -23.7 1.158e+04 9.686e-10
  6.42034    -24.2 1.163e+04 9.715e-10
  6.44172    -24.7 1.110e+04 7.337e-10
  6.48258    -23.6 1.068e+04 6.102e-10
  6.52334    -22.5 1.061e+04 5.566e-10
  6.55381    -21.6 1.042e+04 4.936e-10
  6.56685    -21.6 1.039e+04 4.985e-10
  6.57289    -21.2 1.027e+04 4.809e-10
  6.58023    -20.7 1.005e+04 3.964e-10
  6.60486    -19.7 1.013e+04 4.540e-10
  6.64561    -18.3 1.033e+04 5.393e-10
  6.68637    -17.0 1.051e+04 6.095e-10
  6.71954    -15.7 1.064e+04 6.514e-10
  6.73991    -15.1 1.069e+04 6.466e-10
  6.76789    -13.8 1.080e+04 6.831e-10
  6.80865    -12.7 1.096e+04 7.333e-10
  6.84101    -11.8 1.128e+04 8.463e-10
  6.86139    -11.1 1.064e+04 5.715e-10
  6.87922    -10.6 1.108e+04 6.739e-10
  6.89960    -10.2 1.127e+04 7.342e-10
  6.93092     -9.5 1.196e+04 1.039e-09
  6.97168     -8.6 1.234e+04 1.334e-09
  7.01244     -7.8 1.242e+04 1.445e-09
  7.03891     -7.4 1.237e+04 1.396e-09
  7.04901     -7.2 1.243e+04 1.418e-09
  7.06319     -7.7 1.282e+04 1.586e-09
  7.08357     -8.5 1.344e+04 1.882e-09
  7.10395     -9.5 1.372e+04 2.442e-09
  7.11856     -9.4 1.367e+04 3.084e-09
  7.12875     -9.4 1.374e+04 3.332e-09
  7.13516     -8.1 1.356e+04 3.562e-09
  7.14535     -7.6 1.436e+04 5.233e-09
  7.16509     -5.7 1.400e+04 4.732e-09
  7.18546     -4.1 1.363e+04 3.378e-09
  7.19841     -4.3 1.307e+04 1.949e-09
  7.20860     -4.2 1.306e+04 1.800e-09
  7.22622     -6.9 1.172e+04 1.088e-09
  7.25689     -8.4 1.077e+04 8.177e-10
  7.29774     -8.5 1.056e+04 7.476e-10
  7.32822     -9.1 1.085e+04 9.139e-10
  7.34791    -12.8 1.278e+04 1.548e-09
  7.35810    -12.1 1.225e+04 1.274e-09
  7.36888    -15.8 1.454e+04 2.843e-09
  7.38926    -18.1 1.553e+04 5.771e-09
  7.40912    -18.2 1.630e+04 9.053e-09
  7.41931    -18.0 1.632e+04 8.943e-09
  7.42775    -17.6 1.681e+04 1.040e-08
  7.43794    -16.8 1.645e+04 9.605e-09
  7.45039    -16.2 1.654e+04 9.190e-09
  7.47077    -15.8 1.565e+04 5.054e-09
  7.49115    -19.6 1.360e+04 2.333e-09
  7.50759    -21.8 1.203e+04 1.502e-09
  7.51778    -20.9 1.175e+04 1.257e-09
  7.53191    -21.2 1.134e+04 1.120e-09
  7.55119    -21.7 1.198e+04 1.148e-09
  7.56138    -22.7 1.198e+04 1.230e-09
  7.57267    -30.4 1.775e+04 2.436e-09
  7.58744    -37.6 2.335e+04 6.245e-09
  7.59763    -36.2 2.292e+04 5.696e-09
  7.60828    -41.3 2.525e+04 1.380e-08
  7.61842    -42.7 2.598e+04 1.772e-08
  7.62723    -44.0 2.702e+04 2.245e-08
  7.63232    -42.7 2.705e+04 9.184e-09
  7.63880    -46.7 2.764e+04 1.023e-08
  7.64899    -50.8 2.735e+04 1.098e-08
  7.65918    -55.6 2.620e+04 9.504e-09
  7.66723    -64.7 2.211e+04 6.704e-09
  7.67747    -63.9 2.392e+04 7.198e-09
  7.69327    -72.7 1.739e+04 3.388e-09
  7.70346    -71.7 1.454e+04 1.396e-09
  7.71532    -73.7 1.248e+04 1.080e-09
  7.73570    -74.0 1.203e+04 1.007e-09
  7.74713    -73.8 1.165e+04 9.343e-10
  7.75732    -74.2 1.129e+04 7.838e-10
  7.77646    -73.6 1.091e+04 7.483e-10
  7.79684    -72.7 1.063e+04 7.032e-10
  7.81678    -71.6 1.039e+04 6.324e-10
  7.82697    -71.4 1.028e+04 6.064e-10
  7.83534    -70.0 1.007e+04 5.332e-10
  7.84553    -69.5 9.751e+03 4.558e-10
  7.86826    -68.3 9.889e+03 4.569e-10
  7.90912    -65.9 9.666e+03 4.022e-10
  7.94988    -63.1 9.417e+03 3.513e-10
  7.97667    -60.2 9.209e+03 3.081e-10
  7.98402    -59.5 9.523e+03 3.807e-10
  7.99799    -58.9 8.750e+03 2.221e-10
  8.03139    -56.3 8.764e+03 2.174e-10
  8.07215    -53.9 8.806e+03 2.191e-10
  8.11291    -51.6 8.835e+03 2.217e-10
  8.13636    -49.4 8.844e+03 2.188e-10
  8.15673    -48.8 9.035e+03 2.532e-10
  8.19443    -46.6 8.996e+03 2.518e-10
  8.23518    -44.4 8.893e+03 2.306e-10
  8.26176    -42.2 8.765e+03 2.065e-10
  8.28187    -42.1 8.346e+03 1.558e-10
  8.29604    -41.5 8.442e+03 1.811e-10
  8.31670    -39.5 8.507e+03 1.917e-10
  8.35746    -37.5 8.595e+03 1.980e-10
  8.39822    -35.5 8.671e+03 2.010e-10
  8.43535    -33.6 8.743e+03 2.010e-10
  8.45573    -33.0 8.529e+03 1.719e-10
  8.47973    -31.1 8.520e+03 1.557e-10
  8.52049    -29.3 8.524e+03 1.434e-10
  8.54591    -27.7 8.593e+03 1.374e-10
  8.56629    -27.1 8.487e+03 1.330e-10
  8.59504    -25.4 8.567e+03 1.272e-10
  8.61542    -24.5 8.269e+03 1.045e-10
  8.64277    -22.6 8.320e+03 9.960e-11
  8.68352    -20.8 8.425e+03 9.943e-11
  8.72428    -19.1 8.658e+03 1.199e-10
  8.75473    -17.3 8.896e+03 1.623e-10
  8.77511    -16.1 8.594e+03 9.862e-11
  8.80580    -14.5 8.894e+03 1.407e-10
  8.83006    -12.9 9.171e+03 2.216e-10
  8.85044    -12.6 9.096e+03 1.998e-10
  8.88732    -11.2 9.463e+03 3.195e-10
  8.91442     -9.8 9.912e+03 4.737e-10
  8.93480     -9.5 9.874e+03 4.535e-10
  8.96883     -8.3 1.049e+04 7.134e-10
  9.00959     -7.5 1.087e+04 8.330e-10
  9.05035     -7.3 1.102e+04 7.045e-10
  9.07411     -8.4 1.097e+04 4.592e-10
  9.09449     -8.2 1.134e+04 6.797e-10
  9.11421    -10.8 1.136e+04 5.471e-10
  9.13459    -10.0 1.106e+04 5.013e-10
  9.17262    -14.0 1.232e+04 7.353e-10
  9.20309    -16.9 1.308e+04 1.677e-09
  9.22338    -18.0 1.349e+04 2.273e-09
  9.24375    -18.3 1.370e+04 2.934e-09
  9.25609    -19.1 1.348e+04 2.908e-09
  9.26628    -18.9 1.349e+04 2.892e-09
  9.28451    -19.2 1.282e+04 1.984e-09
  9.30326    -20.8 1.195e+04 9.763e-10
  9.31345    -20.9 1.174e+04 9.008e-10
  9.32527    -23.6 1.078e+04 4.188e-10
  9.34565    -26.2 1.011e+04 2.488e-10
  9.37301    -28.1 9.617e+03 1.886e-10
  9.39349    -27.0 9.574e+03 1.883e-10
  9.39837    -28.1 9.108e+03 1.514e-10
  9.41874    -27.4 9.133e+03 1.555e-10
  9.45793    -27.6 8.964e+03 1.490e-10
  9.49869    -27.5 8.918e+03 1.496e-10
  9.53280    -27.1 8.833e+03 1.504e-10
  9.55318    -26.4 8.776e+03 1.462e-10
  9.58020    -25.7 8.653e+03 1.331e-10
  9.62096    -25.0 8.548e+03 1.205e-10
  9.66172    -24.2 8.473e+03 1.169e-10
  9.68252    -23.2 8.433e+03 1.182e-10
  9.69290    -23.1 8.550e+03 1.424e-10
  9.71286    -22.1 8.559e+03 1.382e-10
  9.74324    -21.2 8.523e+03 1.409e-10
  9.78400    -20.2 8.480e+03 1.406e-10
  9.82475    -19.2 8.408e+03 1.344e-10
  9.85217    -18.4 8.335e+03 1.250e-10
  9.87255    -17.4 8.455e+03 1.506e-10
  9.90627    -16.5 8.396e+03 1.477e-10
  9.94629    -15.5 8.306e+03 1.393e-10
  9.96667    -15.9 8.219e+03 1.244e-10
  9.98779    -14.9 8.137e+03 1.159e-10
 10.01186    -13.9 8.130e+03 1.131e-10
 10.03224    -13.2 8.401e+03 1.363e-10
 10.06930    -12.7 8.496e+03 1.527e-10
 10.11006    -12.4 8.646e+03 1.946e-10
 10.15082    -11.8 8.875e+03 2.752e-10
 10.17155    -11.0 9.182e+03 3.921e-10
 10.19193    -10.1 9.325e+03 4.582e-10
 10.23044     -8.9 9.489e+03 5.029e-10
 10.25082     -9.1 9.327e+03 4.240e-10
 10.27309     -8.1 9.432e+03 4.218e-10
 10.31086     -7.3 9.553e+03 4.251e-10
 10.33124     -7.7 8.841e+03 2.109e-10
 10.35461     -7.1 8.903e+03 2.305e-10
 10.39537     -6.5 9.070e+03 2.838e-10
 10.43613     -5.7 9.282e+03 3.745e-10
 10.47055     -4.7 9.446e+03 4.952e-10
 10.49093     -3.7 8.891e+03 2.907e-10
 10.51459     -2.7 8.978e+03 3.129e-10
 10.53497     -2.7 8.767e+03 2.314e-10
 10.55840     -1.7 8.801e+03 2.617e-10
 10.59916     -0.5 8.732e+03 3.026e-10
 10.63024      1.0 8.581e+03 3.199e-10
 10.65062      1.0 8.392e+03 2.144e-10
 10.68068      2.8 8.352e+03 2.378e-10
 10.72143      4.6 8.210e+03 2.338e-10
 10.76219      6.2 8.017e+03 2.030e-10
 10.78993      7.7 7.886e+03 1.763e-10
 10.80609      8.4 7.888e+03 1.684e-10
 10.81912      8.5 8.140e+03 2.112e-10
 10.84371      9.6 8.067e+03 2.003e-10
 10.88447     10.7 8.021e+03 2.060e-10
 10.92523     12.0 8.068e+03 2.301e-10
 10.94962     13.6 8.137e+03 2.415e-10
 10.97000     14.1 8.345e+03 3.117e-10
 11.00674     15.5 8.440e+03 3.004e-10
 11.04750     16.1 8.486e+03 2.747e-10
 11.08289     16.3 8.623e+03 2.898e-10
 11.10327     16.2 8.567e+03 2.841e-10
 11.10931     17.0 8.759e+03 3.479e-10
 11.12969     17.7 8.660e+03 2.638e-10
 11.16977     18.6 8.770e+03 2.417e-10
 11.21053     19.1 8.795e+03 2.185e-10
 11.24862     19.3 8.681e+03 2.137e-10
 11.26899     19.3 8.515e+03 1.426e-10
 11.29205     20.4 8.327e+03 1.631e-10
 11.33281     22.6 8.217e+03 1.681e-10
 11.36704     24.7 8.275e+03 1.499e-10
 11.38742     25.1 8.427e+03 1.861e-10
 11.40830     26.7 8.554e+03 1.914e-10
 11.42868     27.3 8.483e+03 1.664e-10
 11.45508     28.7 8.678e+03 1.877e-10
 11.49584     30.3 8.990e+03 2.649e-10
 11.53660     32.1 9.408e+03 4.052e-10
 11.56707     33.1 9.762e+03 5.133e-10
 11.57799     33.8 1.012e+04 6.028e-10
 11.58818     33.8 1.006e+04 5.330e-10
 11.60773     33.6 1.053e+04 6.547e-10
 11.62811     33.3 1.091e+04 8.213e-10
 11.64764     33.3 1.118e+04 1.022e-09
 11.65783     32.6 1.136e+04 1.119e-09
 11.66118     33.2 1.158e+04 1.317e-09
 11.67137     33.2 1.154e+04 1.275e-09
 11.68925     33.8 1.180e+04 1.341e-09
 11.70963     34.0 1.193e+04 1.314e-09
 11.72749     33.2 1.247e+04 1.439e-09
 11.73768     33.1 1.174e+04 1.368e-09
 11.75038     31.3 1.268e+04 1.637e-09
 11.77076     30.1 1.317e+04 2.146e-09
 11.79114     30.2 1.341e+04 3.158e-09
 11.80326     27.6 1.680e+04 6.275e-09
 11.80926     27.8 1.676e+04 6.244e-09
 11.81752     28.6 1.659e+04 3.787e-09
 11.82676     19.4 2.435e+04 1.069e-08
 11.83690     15.1 2.529e+04 2.312e-08
 11.84709     13.9 2.273e+04 4.350e-08
 11.85225     12.9 2.110e+04 5.709e-08
 11.85735     12.3 2.095e+04 5.419e-08
 11.86747     11.8 2.004e+04 5.883e-08
 11.87420     12.5 1.918e+04 5.649e-08
 11.87929     13.0 1.920e+04 5.721e-08
 11.88708     13.7 1.869e+04 4.895e-08
 11.89217     13.3 1.941e+04 4.944e-08
 11.89803     14.0 1.970e+04 3.878e-08
 11.90822     14.3 2.035e+04 2.492e-08
 11.91841     12.8 2.126e+04 1.621e-08
 11.93375      5.7 1.924e+04 6.451e-09
 11.94533     -2.1 1.479e+04 2.261e-09
 11.95552     -2.5 1.540e+04 2.945e-09
 11.96702     -6.3 1.415e+04 2.354e-09
 11.97721     -4.8 1.687e+04 4.776e-09
 11.99493     -8.4 1.562e+04 4.278e-09
 12.01531     -9.6 1.465e+04 4.250e-09
 12.03569     -9.6 1.419e+04 4.445e-09
 12.04686     -9.3 1.379e+04 4.051e-09
 12.05705     -9.2 1.449e+04 4.323e-09
 12.07645     -9.8 1.351e+04 2.927e-09
 12.08741    -11.4 1.268e+04 1.855e-09
 12.09760    -13.6 1.242e+04 1.536e-09
 12.11652    -16.1 1.111e+04 9.775e-10
 12.12671    -18.0 1.080e+04 9.293e-10
 12.13759    -18.9 1.016e+04 7.754e-10
 12.15797    -19.1 9.889e+03 7.304e-10
 12.17835    -19.0 9.789e+03 6.939e-10
 12.19636    -19.3 9.715e+03 6.790e-10
 12.20655    -19.9 9.774e+03 7.259e-10
 12.21910    -21.0 9.903e+03 7.363e-10
 12.22948    -23.4 1.057e+04 8.883e-10
 12.23967    -25.2 1.069e+04 9.872e-10
 12.25986    -28.3 1.145e+04 1.454e-09
 12.27621    -31.5 1.261e+04 2.237e-09
 12.28640    -36.6 1.480e+04 3.279e-09
 12.29538    -38.2 1.579e+04 4.018e-09
 12.30042    -39.5 1.610e+04 4.256e-09
 12.30562    -42.5 1.821e+04 5.266e-09
 12.31581    -47.1 2.043e+04 7.061e-09
 12.32113    -50.7 2.144e+04 8.363e-09
 12.32622    -51.9 2.190e+04 9.267e-09
 12.34133    -53.9 2.161e+04 9.043e-09
 12.35605    -60.8 2.024e+04 9.743e-09
 12.36586    -66.6 1.843e+04 9.966e-09
 12.37156    -68.3 1.720e+04 7.774e-09
 12.38214    -69.9 1.549e+04 5.009e-09
 12.40252    -70.8 1.480e+04 3.312e-09
 12.42289    -71.5 1.374e+04 2.075e-09
 12.43590    -72.5 1.216e+04 1.217e-09
 12.44609    -77.1 9.886e+03 6.510e-10
 12.46365    -76.8 9.206e+03 4.789e-10
 12.48403    -76.2 8.877e+03 3.787e-10
 12.50345    -75.4 8.701e+03 3.247e-10
 12.51364    -75.1 8.513e+03 2.865e-10
 12.51574    -74.2 8.331e+03 2.466e-10
 12.52603    -75.3 8.361e+03 2.583e-10
 12.55555    -73.0 7.902e+03 1.835e-10
 12.59631    -71.0 7.801e+03 1.562e-10
 12.63707    -69.3 7.795e+03 1.518e-10
 12.66544    -68.1 7.947e+03 1.602e-10
 12.68582    -69.3 8.129e+03 1.840e-10
 12.71859    -68.4 8.655e+03 2.748e-10
 12.75935    -67.2 9.162e+03 4.242e-10
 12.78779    -65.8 9.564e+03 5.730e-10
 12.80817    -65.1 9.568e+03 5.726e-10
 12.82512    -63.9 9.784e+03 6.411e-10
 12.84550    -64.6 9.569e+03 5.449e-10
 12.88162    -63.6 9.611e+03 5.331e-10
 12.92238    -62.6 9.581e+03 4.786e-10
 12.96314    -61.8 9.579e+03 4.294e-10
 12.98481    -61.2 9.635e+03 4.089e-10
 13.00519    -61.7 9.617e+03 3.816e-10
 13.04465    -61.4 9.831e+03 3.979e-10
 13.07194    -61.5 1.007e+04 4.274e-10
 13.09232    -61.7 9.725e+03 3.155e-10
 13.12412    -62.2 9.994e+03 3.659e-10
 13.14450    -62.8 1.031e+04 4.608e-10
 13.16693    -63.5 1.041e+04 4.949e-10
 13.20769    -64.0 1.036e+04 4.906e-10
 13.24844    -64.1 1.015e+04 4.006e-10
 13.28381    -63.9 9.897e+03 2.827e-10
 13.30419    -63.8 9.859e+03 2.544e-10
 13.32996    -63.3 9.583e+03 1.612e-10
 13.35609    -62.5 9.399e+03 1.102e-10
 13.37647    -62.2 9.280e+03 8.655e-11
 13.41148    -61.3 9.205e+03 6.517e-11
 13.44350    -60.2 9.177e+03 6.028e-11
 13.46388    -59.7 9.181e+03 4.910e-11
 13.49299    -58.3 9.177e+03 4.860e-11
 13.53375    -57.0 9.210e+03 5.203e-11
 13.57451    -55.5 9.234e+03 5.839e-11
 13.60319    -54.0 9.253e+03 6.310e-11
 13.62357    -53.5 9.256e+03 5.781e-11
 13.64024    -51.9 9.294e+03 6.221e-11
 13.66062    -52.0 9.198e+03 4.708e-11
 13.69678    -50.5 9.256e+03 5.037e-11
 13.73754    -49.0 9.315e+03 5.389e-11
 13.76288    -47.6 9.380e+03 5.779e-11
 13.78326    -47.0 9.374e+03 5.781e-11
 13.81906    -45.5 9.437e+03 6.030e-11
 13.85982    -44.1 9.517e+03 6.234e-11
 13.90058    -42.8 9.653e+03 6.660e-11
 13.92257    -42.0 9.811e+03 8.299e-11
 13.92601    -41.3 9.880e+03 7.222e-11
 13.94477    -41.1 9.877e+03 7.280e-11
 13.98209    -40.8 1.003e+04 1.307e-10
 14.02285    -40.2 1.030e+04 2.861e-10
 14.06188    -39.2 1.077e+04 5.361e-10
 14.08226    -39.1 1.101e+04 6.619e-10
 14.10437    -38.7 1.150e+04 9.228e-10
 14.14512    -39.0 1.161e+04 9.740e-10
 14.18588    -39.5 1.148e+04 8.566e-10
 14.20845    -40.1 1.131e+04 7.429e-10
 14.21854    -40.3 1.161e+04 9.073e-10
 14.23156    -40.6 1.157e+04 8.759e-10
 14.24175    -41.3 1.162e+04 9.381e-10
 14.25701    -41.5 1.149e+04 8.883e-10
 14.27739    -41.6 1.137e+04 8.313e-10
 14.29777    -41.4 1.121e+04 7.580e-10
 14.31140    -41.1 1.107e+04 6.734e-10
 14.32159    -41.5 1.102e+04 6.410e-10
 14.33853    -41.2 1.086e+04 5.322e-10
 14.35042    -40.9 1.076e+04 4.437e-10
 14.36061    -41.0 1.085e+04 4.870e-10
 14.38116    -40.5 1.078e+04 3.989e-10
 14.40163    -41.4 1.080e+04 3.829e-10
 14.43043    -41.2 1.064e+04 3.260e-10
 14.47119    -40.6 1.030e+04 2.752e-10
 14.49269    -39.8 1.002e+04 2.392e-10
 14.51307    -39.4 1.022e+04 2.989e-10
 14.54094    -38.4 1.007e+04 2.669e-10
 14.56132    -38.5 9.961e+03 2.426e-10
 14.59346    -37.7 9.802e+03 2.183e-10
 14.63422    -37.1 9.644e+03 2.056e-10
 14.67498    -36.6 9.504e+03 1.997e-10
 14.70063    -36.0 9.403e+03 1.981e-10
 14.72101    -36.0 9.347e+03 2.112e-10
 14.75647    -35.3 9.304e+03 2.135e-10
 14.79722    -34.2 9.614e+03 3.018e-10
 14.83801    -34.1 9.703e+03 3.188e-10
 14.86032    -34.2 9.949e+03 3.703e-10
 14.88070    -34.1 9.877e+03 3.830e-10
 14.91953    -34.8 1.018e+04 4.721e-10
 14.94007    -35.3 1.051e+04 6.211e-10
 14.95016    -35.1 1.038e+04 5.807e-10
 14.97028    -35.3 1.047e+04 6.240e-10
 14.99066    -35.6 1.060e+04 7.085e-10
 15.00963    -35.8 1.065e+04 7.257e-10
 15.01981    -35.6 1.049e+04 6.608e-10
 15.03142    -35.9 1.048e+04 6.604e-10
 15.05061    -36.2 1.041e+04 6.123e-10
 15.06080    -36.0 1.053e+04 6.395e-10
 15.07218    -36.5 1.040e+04 5.626e-10
 15.08947    -36.9 1.034e+04 5.165e-10
 15.09966    -36.4 1.032e+04 5.279e-10
 15.12322    -37.3 1.018e+04 4.560e-10
 15.15932    -38.2 1.017e+04 4.415e-10
 15.17970    -37.0 9.816e+03 3.439e-10
 15.20484    -37.9 9.878e+03 3.646e-10
 15.24560    -38.9 1.046e+04 5.466e-10
 15.28635    -40.6 1.132e+04 8.888e-10
 15.31901    -43.4 1.209e+04 1.333e-09
 15.33704    -42.9 1.151e+04 9.349e-10
 15.34515    -42.5 1.159e+04 9.427e-10
 15.36787    -46.6 1.238e+04 1.661e-09
 15.39834    -50.5 1.271e+04 1.982e-09
 15.40885    -56.2 1.447e+04 2.172e-09
 15.41904    -54.6 1.421e+04 2.315e-09
 15.43900    -63.3 1.598e+04 2.525e-09
 15.45938    -73.6 1.578e+04 2.861e-09
 15.47684    -81.0 1.470e+04 3.178e-09
 15.48577    -79.4 1.438e+04 2.854e-09
 15.48869    -78.4 1.393e+04 2.509e-09
 15.50014    -82.4 1.335e+04 2.690e-09
 15.52052    -84.3 1.302e+04 2.638e-09
 15.54090    -85.8 1.236e+04 2.009e-09
 15.55835    -87.8 1.137e+04 1.296e-09
 15.56854    -87.1 1.127e+04 1.185e-09
 15.58166    -89.2 1.026e+04 7.833e-10
 15.60204    -90.7 9.641e+03 6.109e-10
 15.61891    -91.6 9.458e+03 5.625e-10
 15.62910    -90.6 9.267e+03 4.958e-10
 15.63819    -91.2 9.221e+03 4.804e-10
 15.64838    -91.1 9.099e+03 4.178e-10
 15.66317    -91.6 9.139e+03 4.206e-10
 15.69384    -92.0 9.373e+03 4.510e-10
 15.73469    -92.1 9.777e+03 5.854e-10
 15.77545    -92.4 1.032e+04 8.413e-10
 15.79807    -92.6 1.067e+04 1.069e-09
 15.81845    -92.5 1.032e+04 8.996e-10
 15.85697    -92.7 1.051e+04 1.024e-09
 15.89307    -93.3 1.058e+04 1.064e-09
 15.91345    -91.2 1.059e+04 1.062e-09
 15.93738    -92.0 1.060e+04 1.070e-09
 15.95776    -91.9 9.988e+03 7.807e-10
 15.97924    -92.5 9.678e+03 6.584e-10
 16.02000    -93.0 9.403e+03 5.428e-10
 16.06076    -93.4 9.358e+03 5.124e-10
 16.09707    -93.7 9.600e+03 5.504e-10
 16.11745    -93.6 9.487e+03 4.764e-10
 16.14228    -94.1 1.018e+04 7.036e-10
 16.17722    -94.6 1.072e+04 9.766e-10
 16.19760    -92.4 1.056e+04 8.594e-10
 16.22379    -93.2 1.129e+04 1.259e-09
 16.25426    -94.7 1.174e+04 1.546e-09
 16.26676    -94.9 1.182e+04 1.585e-09
 16.27695    -96.3 1.282e+04 2.484e-09
 16.29492    -96.9 1.292e+04 2.569e-09
 16.31530    -97.5 1.289e+04 2.539e-09
 16.32929    -98.0 1.259e+04 2.256e-09
 16.33948    -96.8 1.318e+04 3.010e-09
 16.34660    -97.2 1.275e+04 2.480e-09
 16.35679    -97.8 1.337e+04 3.248e-09
 16.37644    -98.5 1.291e+04 2.447e-09
 16.39682    -99.8 1.258e+04 1.907e-09
 16.41626   -101.4 1.252e+04 1.668e-09
 16.42645   -103.8 1.339e+04 2.263e-09
 16.43758   -105.5 1.336e+04 2.243e-09
 16.45796   -106.8 1.335e+04 2.415e-09
 16.47136   -107.6 1.345e+04 2.781e-09
 16.48155   -106.9 1.379e+04 3.083e-09
 16.49610   -107.4 1.394e+04 3.549e-09
 16.50629   -107.9 1.428e+04 4.334e-09
 16.51909   -108.1 1.429e+04 4.371e-09
 16.53947   -108.2 1.423e+04 4.231e-09
 16.55985   -108.4 1.413e+04 3.985e-09
 16.57594   -108.5 1.400e+04 3.694e-09
 16.58613   -108.9 1.382e+04 3.061e-09
 16.60061   -109.3 1.378e+04 2.894e-09
 16.61344   -109.6 1.378e+04 2.861e-09
 16.62363   -109.0 1.443e+04 3.670e-09
 16.64137   -109.2 1.444e+04 3.674e-09
 16.65579   -109.3 1.438e+04 3.690e-09
 16.66598   -110.1 1.416e+04 3.245e-09
 16.68213   -109.9 1.416e+04 3.392e-09
 16.70251   -109.6 1.412e+04 3.448e-09
 16.72289   -109.2 1.400e+04 3.382e-09
 16.73563   -108.7 1.387e+04 3.253e-09
 16.74582   -108.9 1.366e+04 3.183e-09
 16.75551   -108.3 1.360e+04 3.034e-09
 16.76570   -107.9 1.359e+04 3.026e-09
 16.78402   -107.3 1.350e+04 2.867e-09
 16.80440   -106.6 1.339e+04 2.700e-09
 16.81548   -106.0 1.327e+04 2.534e-09
 16.82567   -106.4 1.270e+04 1.998e-09
 16.84516   -105.8 1.256e+04 1.862e-09
 16.86554   -105.2 1.245e+04 1.768e-09
 16.88513   -104.6 1.242e+04 1.732e-09
 16.89532   -105.1 1.173e+04 1.242e-09
 16.89759   -104.6 1.175e+04 1.250e-09
 16.90778   -104.3 1.174e+04 1.246e-09
 16.92668   -103.9 1.187e+04 1.308e-09
 16.94706   -103.4 1.202e+04 1.384e-09
 16.96498   -103.0 1.213e+04 1.450e-09
 16.97517   -103.1 1.172e+04 1.117e-09
 16.98781   -102.8 1.181e+04 1.172e-09
 17.00819   -102.6 1.183e+04 1.203e-09
 17.02857   -102.3 1.183e+04 1.210e-09
 17.03966   -102.0 1.178e+04 1.191e-09
 17.04572   -101.7 1.181e+04 1.227e-09
 17.05501   -102.1 1.158e+04 1.079e-09
 17.06933   -101.9 1.158e+04 1.096e-09
 17.08971   -101.6 1.158e+04 1.100e-09
 17.11009   -101.2 1.156e+04 1.091e-09
 17.12467   -100.7 1.151e+04 1.063e-09
 17.13486   -101.1 1.142e+04 1.091e-09
 17.15085   -100.4 1.129e+04 1.056e-09
 17.17123    -99.5 1.110e+04 9.826e-10
 17.18174    -98.5 1.088e+04 8.727e-10
 17.19193    -98.1 1.093e+04 9.132e-10
 17.20451    -97.0 1.077e+04 7.773e-10
 17.21470    -97.0 1.056e+04 6.230e-10
 17.23236    -96.0 1.042e+04 5.009e-10
 17.25274    -95.2 1.035e+04 4.184e-10
 17.28341    -94.4 1.033e+04 3.617e-10
 17.31382    -92.4 1.035e+04 3.402e-10
 17.33420    -91.9 1.032e+04 3.502e-10
 17.35420    -90.1 1.042e+04 3.522e-10
 17.37458    -90.2 1.028e+04 3.251e-10
 17.40578    -88.2 1.046e+04 3.564e-10
 17.43395    -86.6 1.054e+04 3.686e-10
 17.44404    -86.5 1.057e+04 3.702e-10
 17.45570    -86.3 1.060e+04 3.876e-10
 17.46589    -86.3 1.071e+04 4.364e-10
 17.47691    -85.1 1.094e+04 5.077e-10
 17.49729    -84.2 1.120e+04 5.799e-10
 17.51380    -82.7 1.172e+04 7.436e-10
 17.53427    -82.5 1.107e+04 5.602e-10
 17.56881    -80.6 1.182e+04 7.873e-10
 17.59364    -79.4 1.276e+04 1.238e-09
 17.60232    -79.0 1.197e+04 8.859e-10
 17.60796    -79.3 1.187e+04 8.597e-10
 17.61957    -78.5 1.241e+04 1.075e-09
 17.63995    -77.7 1.300e+04 1.394e-09
 17.66032    -77.2 1.360e+04 1.821e-09
 17.67339    -76.1 1.415e+04 2.455e-09
 17.69386    -75.4 1.259e+04 1.219e-09
 17.73185    -73.4 1.300e+04 1.533e-09
 17.77261    -71.1 1.307e+04 1.674e-09
 17.81289    -68.6 1.293e+04 1.663e-09
 17.83327    -67.8 1.215e+04 1.072e-09
 17.85412    -65.1 1.226e+04 1.139e-09
 17.88212    -62.3 1.235e+04 1.220e-09
 17.90250    -62.4 1.128e+04 5.842e-10
 17.93564    -59.5 1.127e+04 5.960e-10
 17.97258    -56.7 1.122e+04 6.038e-10
 17.99296    -55.7 1.098e+04 5.081e-10
 18.01715    -52.8 1.110e+04 5.655e-10
 18.05791    -49.9 1.114e+04 6.002e-10
 18.09867    -47.1 1.113e+04 6.062e-10
 18.13227    -44.3 1.106e+04 5.951e-10
 18.15265    -43.2 1.108e+04 5.951e-10
 18.16627    -40.5 1.100e+04 5.911e-10
 18.18665    -40.3 1.013e+04 3.199e-10
 18.22095    -37.7 1.011e+04 3.409e-10
 18.26170    -35.0 1.006e+04 3.580e-10
 18.29196    -32.5 9.983e+03 3.611e-10
 18.31234    -31.5 1.035e+04 4.933e-10
 18.34322    -29.1 1.027e+04 4.913e-10
 18.38398    -26.5 1.003e+04 4.462e-10
 18.42474    -23.9 9.760e+03 3.741e-10
 18.45042    -21.4 9.500e+03 3.056e-10
 18.45695    -21.7 9.101e+03 2.389e-10
 18.47203    -21.1 9.119e+03 2.491e-10
 18.50625    -18.8 8.988e+03 2.164e-10
 18.54701    -16.5 8.880e+03 2.020e-10
 18.58777    -14.0 8.787e+03 1.866e-10
 18.61134    -11.4 8.706e+03 1.721e-10
 18.63172    -11.1 8.697e+03 1.709e-10
 18.66929     -8.5 8.633e+03 1.610e-10
 18.71004     -5.9 8.618e+03 1.582e-10
 18.73457     -3.4 8.666e+03 1.606e-10
 18.75479     -2.7 8.648e+03 1.616e-10
 18.79140     -0.0 8.958e+03 2.116e-10
 18.83232      2.3 9.201e+03 2.764e-10
 18.87308      4.9 9.547e+03 3.801e-10
 18.90355      7.4 9.876e+03 4.937e-10
 18.92033      8.0 9.865e+03 5.214e-10
 18.93052      8.3 9.941e+03 5.339e-10
 18.94421      9.7 1.005e+04 5.779e-10
 18.96459     10.7 1.014e+04 6.111e-10
 18.98497     11.2 1.039e+04 6.690e-10
 19.00017     10.9 1.087e+04 7.711e-10
 19.01036     10.6 1.119e+04 8.186e-10
 19.01853      9.3 1.183e+04 1.133e-09
 19.02872      9.4 1.202e+04 1.186e-09
 19.04610      8.7 1.214e+04 1.670e-09
 19.06648      9.2 1.222e+04 2.194e-09
 19.08002     10.7 1.229e+04 2.421e-09
 19.09021     11.2 1.233e+04 2.458e-09
 19.10724     12.5 1.228e+04 2.321e-09
 19.12762     13.2 1.201e+04 1.684e-09
 19.14800     11.5 1.158e+04 1.188e-09
 19.15986      9.2 1.075e+04 8.658e-10
 19.16228      9.6 1.043e+04 7.015e-10
 19.17079      9.7 1.041e+04 7.008e-10
 19.18876      8.6 1.014e+04 6.372e-10
 19.20914      7.7 1.020e+04 6.643e-10
 19.22952      5.1 1.141e+04 8.740e-10
 19.24475      3.7 1.249e+04 1.005e-09
 19.25489      0.5 1.492e+04 1.266e-09
 19.26508     -6.3 1.938e+04 3.271e-09
 19.27444    -11.9 2.185e+04 8.442e-09
 19.27953    -13.2 2.247e+04 1.049e-08
 19.28546    -16.4 2.227e+04 2.626e-08
 19.29565    -17.8 2.174e+04 4.754e-08
 19.30258    -17.6 2.152e+04 6.558e-08
 19.30767    -18.4 2.217e+04 7.514e-08
 19.31436    -17.7 2.226e+04 6.650e-08
 19.31945    -16.7 2.199e+04 1.043e-07
 19.32622    -16.4 2.282e+04 8.249e-08
 19.33641    -16.8 2.457e+04 5.105e-08
 19.34660    -18.1 2.726e+04 2.469e-08
 19.35428    -20.2 3.009e+04 9.942e-09
 19.35938    -19.6 3.116e+04 1.137e-08
 19.37212    -29.1 3.365e+04 2.097e-09
 19.38921    -41.6 1.714e+04 1.377e-09
 19.39940    -43.3 1.771e+04 1.448e-09
 19.41293    -48.2 1.270e+04 1.546e-09
 19.43331    -48.6 1.199e+04 1.507e-09
 19.44475    -48.1 1.178e+04 1.357e-09
 19.45494    -48.1 1.173e+04 1.298e-09
 19.46905    -47.6 1.165e+04 1.208e-09
 19.47924    -47.8 1.170e+04 1.182e-09
 19.49444    -47.2 1.169e+04 1.143e-09
 19.52511    -46.1 1.184e+04 1.217e-09
 19.54909    -44.7 1.172e+04 1.180e-09
 19.56947    -44.5 1.169e+04 1.130e-09
 19.58702    -43.2 1.176e+04 1.170e-09
 19.60740    -44.3 1.181e+04 1.105e-09
 19.62884    -43.4 1.194e+04 1.236e-09
 19.63893    -43.9 1.243e+04 1.419e-09
 19.65748    -44.5 1.323e+04 1.843e-09
 19.67786    -45.5 1.415e+04 2.529e-09
 19.69824    -46.9 1.488e+04 3.337e-09
 19.70858    -48.1 1.531e+04 4.020e-09
 19.71877    -48.3 1.622e+04 5.817e-09
 19.72890    -49.2 1.627e+04 5.867e-09
 19.73909    -49.8 1.645e+04 7.216e-09
 19.75937    -50.7 1.574e+04 5.042e-09
 19.77824    -52.4 1.463e+04 3.115e-09
 19.78843    -52.9 1.475e+04 3.289e-09
 19.80013    -55.8 1.347e+04 2.196e-09
 19.82051    -58.6 1.314e+04 1.983e-09
 19.84089    -62.3 1.457e+04 2.191e-09
 19.85808    -66.7 1.698e+04 4.186e-09
 19.86779    -67.8 1.725e+04 5.439e-09
 19.87098    -66.9 1.624e+04 3.948e-09
 19.88165    -70.6 1.758e+04 7.115e-09
 19.90203    -73.3 1.845e+04 1.050e-08
 19.92241    -76.3 1.901e+04 1.212e-08
 19.93793    -80.0 1.915e+04 1.243e-08
 19.94812    -84.8 2.142e+04 1.407e-08
 19.96316    -90.3 2.199e+04 1.266e-08
 19.98354    -95.2 2.098e+04 1.089e-08
 20.00286    -98.4 1.975e+04 9.247e-09
 20.01305    -98.5 1.982e+04 9.369e-09
 20.01777   -100.3 1.855e+04 7.698e-09
 20.02796   -103.9 1.870e+04 1.028e-08
 20.04468   -104.6 1.750e+04 7.514e-09
 20.06506   -105.3 1.641e+04 5.519e-09
 20.08544   -105.9 1.554e+04 4.254e-09
 20.09762   -106.2 1.491e+04 3.504e-09
 20.10781   -108.5 1.492e+04 3.626e-09
 20.12620   -108.4 1.448e+04 3.158e-09
 20.14494   -107.9 1.417e+04 2.892e-09
 20.15513   -107.1 1.406e+04 2.811e-09
 20.16695   -106.5 1.383e+04 2.591e-09
 20.17746   -105.8 1.364e+04 2.445e-09
 20.18765   -107.3 1.314e+04 2.385e-09
 20.20771   -106.5 1.305e+04 2.313e-09
 20.22809   -105.7 1.300e+04 2.249e-09
 20.24712   -105.0 1.295e+04 2.199e-09
 20.25730   -106.1 1.227e+04 1.823e-09
 20.26885   -105.4 1.225e+04 1.832e-09
 20.28701   -104.6 1.222e+04 1.861e-09
 20.29720   -104.1 1.220e+04 1.845e-09
 20.30961   -103.5 1.230e+04 1.952e-09
 20.32696   -103.1 1.249e+04 2.122e-09
 20.33715   -104.4 1.189e+04 1.487e-09
 20.35037   -104.5 1.220e+04 1.705e-09
 20.37075   -104.7 1.261e+04 2.019e-09
 20.39112   -104.9 1.309e+04 2.437e-09
 20.40680   -105.2 1.357e+04 2.897e-09
 20.41699   -106.5 1.272e+04 2.058e-09
 20.42909   -106.9 1.289e+04 2.246e-09
 20.43928   -106.6 1.255e+04 1.975e-09
 20.45226   -107.1 1.257e+04 2.004e-09
 20.47264   -107.6 1.246e+04 1.986e-09
 20.48665   -107.9 1.211e+04 1.807e-09
 20.49684   -108.3 1.156e+04 1.452e-09
 20.51340   -108.3 1.127e+04 1.272e-09
 20.53378   -108.4 1.096e+04 1.078e-09
 20.55416   -108.4 1.064e+04 9.066e-10
 20.56649   -108.3 1.037e+04 7.779e-10
 20.57331   -107.9 1.020e+04 7.068e-10
 20.58135   -107.3 1.028e+04 7.580e-10
 20.59492   -107.1 1.006e+04 6.586e-10
 20.61530   -106.8 9.944e+03 6.092e-10
 20.63567   -106.6 9.922e+03 5.992e-10
 20.64634   -106.4 1.000e+04 6.048e-10
 20.65653   -105.3 9.861e+03 5.731e-10
 20.67643   -105.2 1.012e+04 6.172e-10
 20.69681   -105.4 1.053e+04 7.413e-10
 20.71324   -105.8 1.091e+04 9.242e-10
 20.72223   -105.3 1.095e+04 9.183e-10
 20.72618   -103.8 1.080e+04 8.363e-10
 20.73757   -104.3 1.125e+04 1.091e-09
 20.75795   -104.7 1.154e+04 1.370e-09
 20.77833   -105.0 1.168e+04 1.549e-09
 20.79584   -105.4 1.177e+04 1.638e-09
 20.80603   -104.1 1.202e+04 1.749e-09
 20.81909   -105.2 1.222e+04 1.921e-09
 20.83947   -107.1 1.254e+04 2.075e-09
 20.85531   -110.1 1.311e+04 2.316e-09
 20.86550   -110.5 1.353e+04 2.741e-09
 20.87568   -114.7 1.466e+04 3.574e-09
 20.88587   -113.9 1.567e+04 5.259e-09
 20.90060   -118.6 1.690e+04 7.192e-09
 20.92098   -123.9 1.761e+04 8.622e-09
 20.94136   -129.4 1.774e+04 8.966e-09
 20.95553   -134.3 1.733e+04 8.402e-09
 20.96572   -134.4 1.794e+04 1.010e-08
 20.98212   -138.1 1.684e+04 7.230e-09
 20.99739   -140.6 1.566e+04 5.053e-09
 21.00758   -141.7 1.556e+04 4.849e-09
 21.02288   -143.3 1.486e+04 3.820e-09
 21.03537   -145.3 1.407e+04 2.791e-09
 21.04556   -145.1 1.423e+04 2.794e-09
 21.06364   -146.8 1.369e+04 2.172e-09
 21.08401   -147.6 1.357e+04 2.046e-09
 21.10439   -148.0 1.359e+04 2.053e-09
 21.11521   -148.2 1.384e+04 2.241e-09
 21.12540   -148.3 1.360e+04 1.821e-09
 21.13947   -148.4 1.374e+04 1.953e-09
 21.14965   -148.7 1.325e+04 1.319e-09
 21.16553   -148.6 1.327e+04 1.366e-09
 21.18487   -148.4 1.321e+04 1.363e-09
 21.19506   -148.4 1.290e+04 1.086e-09
 21.20629   -147.9 1.279e+04 1.048e-09
 21.23696   -147.3 1.275e+04 1.032e-09
 21.26491   -145.8 1.205e+04 5.590e-10
 21.27902   -145.7 1.191e+04 4.455e-10
 21.29193   -145.4 1.170e+04 4.201e-10
 21.31857   -143.7 1.145e+04 3.208e-10
 21.35933   -142.0 1.119e+04 2.530e-10
 21.40009   -139.8 1.091e+04 2.135e-10
 21.42460   -137.4 1.071e+04 1.930e-10
 21.44498   -136.7 1.097e+04 2.189e-10
 21.48160   -134.3 1.091e+04 2.141e-10
 21.52236   -132.0 1.089e+04 2.173e-10
 21.55570   -129.8 1.102e+04 2.367e-10
 21.57608   -129.4 1.144e+04 3.155e-10
 21.58429   -127.5 1.162e+04 3.542e-10
 21.60467   -126.8 1.179e+04 3.972e-10
 21.64464   -125.2 1.191e+04 4.335e-10
 21.67511   -123.8 1.199e+04 4.719e-10
 21.69539   -123.6 1.203e+04 5.252e-10
 21.70777   -122.9 1.215e+04 6.537e-10
 21.71796   -122.9 1.222e+04 7.771e-10
 21.73359   -122.1 1.233e+04 8.672e-10
 21.74378   -121.7 1.230e+04 8.225e-10
 21.75652   -120.9 1.242e+04 8.882e-10
 21.77690   -120.2 1.250e+04 9.356e-10
 21.79728   -119.6 1.254e+04 9.577e-10
 21.81343   -119.1 1.255e+04 9.640e-10
 21.82362   -118.9 1.246e+04 8.802e-10
 21.83804   -118.3 1.244e+04 8.823e-10
 21.84984   -117.7 1.236e+04 8.430e-10
 21.86003   -117.6 1.234e+04 8.231e-10
 21.87880   -117.0 1.223e+04 7.401e-10
 21.89328   -116.4 1.211e+04 6.595e-10
 21.90357   -116.5 1.211e+04 6.587e-10
 21.92994   -114.8 1.185e+04 5.180e-10
 21.97070   -113.0 1.162e+04 3.961e-10
 22.01146   -111.3 1.128e+04 2.819e-10
 22.04297   -109.6 1.105e+04 2.301e-10
 22.06335   -108.9 1.115e+04 2.399e-10
 22.09298   -107.1 1.099e+04 2.200e-10
 22.12400   -105.3 1.096e+04 2.178e-10
 22.14438   -105.3 1.085e+04 2.024e-10
 22.17449   -103.6 1.084e+04 2.047e-10
 22.20266   -102.0 1.087e+04 2.255e-10
 22.22304   -101.3 1.086e+04 2.213e-10
 22.25601    -99.8 1.090e+04 2.501e-10
 22.29677    -98.5 1.096e+04 2.866e-10
 22.33752    -97.4 1.104e+04 3.248e-10
 22.36235    -96.6 1.116e+04 3.702e-10
 22.38273    -95.6 1.111e+04 3.540e-10
 22.40815    -94.8 1.124e+04 4.025e-10
 22.42853    -94.5 1.111e+04 3.653e-10
 22.45980    -94.0 1.130e+04 4.523e-10
 22.50056    -93.6 1.146e+04 5.489e-10
 22.52204    -93.4 1.153e+04 6.185e-10
 22.54242    -92.0 1.142e+04 5.563e-10
 22.58207    -92.0 1.142e+04 5.853e-10
 22.62283    -92.1 1.127e+04 5.790e-10
 22.66135    -92.1 1.088e+04 4.709e-10
 22.68173    -90.5 1.101e+04 5.061e-10
 22.69230    -90.5 1.073e+04 3.859e-10
 22.71268    -90.4 1.102e+04 4.429e-10
 22.74511    -90.6 1.066e+04 3.377e-10
 22.78587    -90.6 1.031e+04 2.618e-10
 22.82104    -90.3 1.004e+04 2.252e-10
 22.84142    -89.3 1.035e+04 2.874e-10
 22.86738    -88.7 1.026e+04 2.761e-10
 22.90814    -88.0 1.033e+04 2.941e-10
 22.94890    -87.3 1.056e+04 3.826e-10
 22.97645    -86.4 1.061e+04 4.490e-10
 22.98790    -87.0 1.109e+04 6.474e-10
 23.00111    -86.8 1.147e+04 9.160e-10
 23.03041    -85.7 1.145e+04 1.003e-09
 23.07117    -84.7 1.147e+04 1.054e-09
 23.11193    -83.8 1.162e+04 1.145e-09
 23.14042    -83.1 1.199e+04 1.372e-09
 23.16080    -83.3 1.204e+04 1.319e-09
 23.19345    -83.1 1.250e+04 1.669e-09
 23.23421    -83.2 1.308e+04 2.336e-09
 23.26050    -83.5 1.349e+04 3.161e-09
 23.27059    -84.0 1.326e+04 2.653e-09
 23.28496    -84.0 1.345e+04 2.930e-09
 23.29991    -84.0 1.354e+04 3.085e-09
 23.31010    -84.0 1.329e+04 2.800e-09
 23.32572    -84.0 1.322e+04 2.666e-09
 23.35638    -84.3 1.254e+04 1.766e-09
 23.39724    -84.2 1.188e+04 1.280e-09
 23.43800    -83.9 1.115e+04 9.041e-10
 23.45979    -82.9 1.057e+04 6.845e-10
 23.48017    -82.1 1.051e+04 6.379e-10
 23.51951    -80.5 1.035e+04 5.655e-10
 23.54475    -79.4 1.036e+04 5.609e-10
 23.56513    -79.8 1.010e+04 3.947e-10
 23.59910    -80.0 1.094e+04 6.691e-10
 23.61948    -80.4 1.109e+04 6.361e-10
 23.63150    -81.7 1.222e+04 1.238e-09
 23.65178    -82.7 1.348e+04 2.131e-09
 23.67216    -83.5 1.476e+04 3.849e-09
 23.68663    -84.5 1.656e+04 7.866e-09
 23.69322    -84.9 1.630e+04 7.021e-09
 23.69913    -85.2 1.625e+04 6.690e-09
 23.71292    -85.7 1.759e+04 1.082e-08
 23.73330    -86.6 1.834e+04 1.380e-08
 23.75368    -87.9 1.847e+04 1.439e-08
 23.76879    -88.9 1.810e+04 1.231e-08
 23.77898    -89.8 1.706e+04 6.380e-09
 23.79444    -91.0 1.627e+04 4.407e-09
 23.81481    -92.2 1.545e+04 3.233e-09
 23.82870    -92.9 1.488e+04 2.706e-09
 23.83889    -92.5 1.436e+04 1.717e-09
 23.84863    -92.7 1.416e+04 1.593e-09
 23.85882    -93.3 1.316e+04 9.171e-10
 23.87595    -93.1 1.320e+04 8.897e-10
 23.89633    -92.9 1.321e+04 8.918e-10
 23.91671    -92.5 1.316e+04 9.095e-10
 23.92848    -91.9 1.309e+04 9.157e-10
 23.93867    -92.0 1.254e+04 6.385e-10
 23.95747    -91.4 1.249e+04 6.291e-10
 23.97078    -90.7 1.240e+04 6.009e-10
 23.98097    -90.3 1.217e+04 5.077e-10
 23.99813    -89.6 1.208e+04 4.942e-10
 24.01851    -89.1 1.179e+04 4.192e-10
 24.03898    -88.4 1.178e+04 4.184e-10
 24.05936    -88.1 1.184e+04 4.221e-10
 24.07798    -88.1 1.263e+04 4.297e-10
 24.08816    -87.7 1.193e+04 4.069e-10
 24.10012    -88.1 1.275e+04 5.020e-10
 24.11286    -88.6 1.360e+04 7.626e-10
 24.12304    -87.6 1.290e+04 6.120e-10
 24.14088    -88.3 1.376e+04 9.478e-10
 24.15782    -88.8 1.455e+04 1.649e-09
 24.16801    -87.7 1.343e+04 1.179e-09
 24.18164    -88.1 1.402e+04 1.583e-09
 24.20202    -88.6 1.453e+04 2.488e-09
 24.22240    -89.0 1.489e+04 3.351e-09
 24.23766    -89.4 1.502e+04 4.117e-09
 24.24785    -88.6 1.421e+04 2.636e-09
 24.25493    -89.0 1.427e+04 2.955e-09
 24.26512    -88.7 1.407e+04 2.594e-09
 24.28353    -89.1 1.406e+04 2.719e-09
 24.30391    -89.6 1.402e+04 2.749e-09
 24.31751    -90.0 1.367e+04 2.606e-09
 24.32770    -89.3 1.308e+04 1.894e-09
 24.34467    -89.5 1.297e+04 1.808e-09
 24.36505    -89.9 1.267e+04 1.690e-09
 24.38543    -90.2 1.256e+04 1.676e-09
 24.39701    -90.7 1.240e+04 1.686e-09
 24.39874    -90.4 1.233e+04 1.458e-09
 24.41783    -89.2 1.199e+04 1.085e-09
 24.45695    -89.3 1.162e+04 1.051e-09
 24.48742    -88.3 1.134e+04 1.004e-09
 24.50770    -88.1 1.125e+04 1.003e-09
 24.52808    -87.9 1.096e+04 9.760e-10
 24.53908    -87.5 1.076e+04 8.753e-10
 24.54766    -87.3 1.075e+04 8.225e-10
 24.55704    -86.3 1.075e+04 7.277e-10
 24.56884    -85.9 1.058e+04 6.778e-10
 24.58922    -85.3 1.047e+04 6.186e-10
 24.61989    -84.4 1.038e+04 5.569e-10
 24.66074    -83.8 1.029e+04 5.398e-10
 24.68135    -82.8 1.015e+04 5.533e-10
 24.69678    -82.7 1.026e+04 5.530e-10
 24.71693    -81.4 1.022e+04 4.574e-10
 24.74226    -80.3 1.011e+04 4.729e-10
 24.78302    -79.1 1.008e+04 4.952e-10
 24.82378    -77.7 1.002e+04 5.121e-10
 24.85624    -76.3 9.920e+03 5.137e-10
 24.87661    -74.6 9.608e+03 3.619e-10
 24.90529    -73.0 9.509e+03 3.674e-10
 24.94512    -71.4 9.295e+03 3.625e-10
 24.96550    -71.3 9.399e+03 3.744e-10
 24.98681    -69.7 9.221e+03 3.329e-10
 25.01592    -68.0 9.060e+03 2.776e-10
 25.03630    -66.1 9.080e+03 2.981e-10
 25.06832    -64.3 9.026e+03 2.604e-10
 25.10908    -62.6 8.993e+03 2.424e-10
 25.14984    -60.8 9.003e+03 2.351e-10
 25.17561    -59.2 9.083e+03 2.402e-10
 25.19599    -57.3 9.142e+03 2.679e-10
 25.22927    -55.8 9.401e+03 2.996e-10
 25.24965    -56.0 9.636e+03 3.677e-10
 25.27212    -54.7 1.003e+04 4.949e-10
 25.30259    -53.4 1.018e+04 5.758e-10
 25.32287    -53.1 1.031e+04 7.054e-10
 25.33511    -52.2 1.049e+04 8.911e-10
 25.34530    -51.5 1.052e+04 8.429e-10
 25.36363    -50.5 1.067e+04 9.599e-10
 25.38134    -49.7 1.078e+04 1.016e-09
 25.39153    -50.1 1.070e+04 9.594e-10
 25.40438    -49.5 1.069e+04 8.895e-10
 25.43505    -48.7 1.076e+04 8.652e-10
 25.47461    -47.7 1.051e+04 6.989e-10
 25.49499    -45.8 1.062e+04 7.896e-10
 25.51342    -44.9 9.975e+03 5.229e-10
 25.53380    -45.6 9.471e+03 3.169e-10
 25.55742    -45.1 9.435e+03 2.390e-10
 25.59818    -44.6 9.427e+03 2.522e-10
 25.63430    -43.8 9.492e+03 4.133e-10
 25.65468    -42.4 9.572e+03 2.785e-10
 25.67970    -41.1 9.981e+03 5.536e-10
 25.72046    -39.3 1.021e+04 7.340e-10
 25.76121    -37.8 1.018e+04 7.526e-10
 25.79399    -36.5 9.896e+03 6.309e-10
 25.80997    -35.1 1.029e+04 7.711e-10
 25.81795    -34.5 9.981e+03 5.780e-10
 25.84273    -33.2 9.907e+03 5.835e-10
 25.88349    -31.8 9.785e+03 5.363e-10
 25.92425    -30.4 9.642e+03 4.765e-10
 25.95368    -28.9 9.476e+03 3.980e-10
 25.97406    -28.2 9.932e+03 5.219e-10
 26.00576    -27.0 9.850e+03 4.537e-10
 26.04652    -25.8 9.795e+03 4.111e-10
 26.08172    -24.7 9.779e+03 4.015e-10
 26.10210    -24.0 9.662e+03 3.477e-10
 26.11337    -22.8 9.679e+03 3.454e-10
 26.13375    -22.9 1.007e+04 4.238e-10
 26.16880    -21.8 9.945e+03 3.787e-10
 26.20955    -20.6 9.842e+03 3.362e-10
 26.25031    -19.5 9.786e+03 3.065e-10
 26.27306    -18.6 9.782e+03 3.004e-10
 26.29343    -18.2 9.652e+03 2.767e-10
 26.33183    -17.1 9.761e+03 2.900e-10
 26.36587    -16.3 1.004e+04 3.613e-10
 26.38625    -16.2 1.030e+04 4.947e-10
 26.41237    -15.7 1.061e+04 6.207e-10
 26.43274    -14.4 1.040e+04 4.501e-10
 26.45410    -14.0 1.065e+04 5.606e-10
 26.49486    -13.7 1.089e+04 7.007e-10
 26.53562    -13.1 1.102e+04 7.926e-10
 26.57205    -12.6 1.102e+04 7.960e-10
 26.59243    -11.5 1.117e+04 9.121e-10
 26.61714    -10.7 1.114e+04 8.118e-10
 26.65003     -9.6 1.105e+04 5.810e-10
 26.67040    -10.1 1.111e+04 5.889e-10
 26.69865     -8.8 1.106e+04 4.473e-10
 26.73174     -7.3 1.106e+04 3.635e-10
 26.75212     -6.6 1.120e+04 4.191e-10
 26.78017     -4.9 1.121e+04 3.553e-10
 26.82093     -3.0 1.123e+04 3.172e-10
 26.86169     -1.2 1.126e+04 3.044e-10
 26.89143      0.7 1.134e+04 3.078e-10
 26.91181      1.6 1.128e+04 3.205e-10
 26.93418      3.5 1.127e+04 3.308e-10
 26.95455      3.2 1.139e+04 4.171e-10
 26.98396      5.4 1.145e+04 4.620e-10
 27.02472      7.8 1.157e+04 4.931e-10
 27.05112     10.2 1.165e+04 4.800e-10
 27.07150     11.0 1.142e+04 4.399e-10
 27.10624     13.4 1.144e+04 4.241e-10
 27.14699     15.8 1.145e+04 4.142e-10
 27.18775     18.1 1.148e+04 4.192e-10
 27.21081     20.5 1.151e+04 4.562e-10
 27.22100     21.6 1.134e+04 4.113e-10
 27.23871     21.4 1.148e+04 4.770e-10
 27.26927     24.2 1.147e+04 5.228e-10
 27.31003     27.1 1.150e+04 5.529e-10
 27.35012     29.9 1.163e+04 5.641e-10
 27.37050     30.6 1.143e+04 4.842e-10
 27.39154     32.8 1.166e+04 5.701e-10
 27.43230     35.2 1.201e+04 8.064e-10
 27.46277     37.0 1.193e+04 9.382e-10
 27.48305     38.7 1.183e+04 1.041e-09
 27.50228     40.1 1.195e+04 1.085e-09
 27.51247     40.3 1.210e+04 1.269e-09
 27.51980     41.3 1.246e+04 1.260e-09
 27.52999     41.2 1.238e+04 1.141e-09
 27.54419     40.8 1.277e+04 1.299e-09
 27.56457     39.9 1.308e+04 1.727e-09
 27.58495     39.1 1.370e+04 2.623e-09
 27.59965     39.3 1.546e+04 3.968e-09
 27.60984     40.0 1.374e+04 3.803e-09
 27.62571     40.8 1.469e+04 4.531e-09
 27.64436     40.5 1.624e+04 4.951e-09
 27.65455     41.1 1.613e+04 5.032e-09
 27.66647     39.2 1.809e+04 4.925e-09
 27.67949     36.6 1.820e+04 5.659e-09
 27.68968     37.5 1.579e+04 2.813e-09
 27.70722     35.1 1.713e+04 3.795e-09
 27.72760     34.2 1.711e+04 5.940e-09
 27.74798     35.1 1.596e+04 9.826e-09
 27.75934     36.7 1.576e+04 1.199e-08
 27.76952     36.9 1.562e+04 8.367e-09
 27.78643     38.2 1.565e+04 9.860e-09
 27.79662     38.2 1.574e+04 9.507e-09
 27.80912     39.3 1.593e+04 1.012e-08
 27.82899     40.2 1.608e+04 1.040e-08
 27.83918     40.0 1.601e+04 1.099e-08
 27.84988     41.3 1.600e+04 1.184e-08
 27.87026     43.4 1.565e+04 9.571e-09
 27.89064     44.9 1.533e+04 6.774e-09
 27.90883     45.4 1.504e+04 4.203e-09
 27.91902     46.9 1.576e+04 7.677e-09
 27.92851     46.8 1.558e+04 5.054e-09
 27.93870     47.5 1.647e+04 7.299e-09
 27.95177     47.1 1.590e+04 5.086e-09
 27.97215     46.8 1.440e+04 3.417e-09
 27.98868     46.8 1.343e+04 2.803e-09
 27.99887     47.8 1.452e+04 3.985e-09
 28.01291     48.1 1.373e+04 3.263e-09
 28.03329     48.9 1.327e+04 2.790e-09
 28.05367     49.8 1.298e+04 2.394e-09
 28.06852     50.7 1.275e+04 2.004e-09
 28.07525     51.1 1.301e+04 2.401e-09
 28.08077     50.7 1.396e+04 3.750e-09
 28.09443     51.4 1.366e+04 3.254e-09
 28.11481     52.3 1.336e+04 2.804e-09
 28.13518     53.1 1.317e+04 2.402e-09
 28.14837     53.2 1.309e+04 2.115e-09
 28.15856     53.9 1.312e+04 2.329e-09
 28.17594     54.1 1.300e+04 2.079e-09
 28.19632     54.2 1.285e+04 1.970e-09
 28.21266     54.6 1.271e+04 1.920e-09
 28.22285     53.7 1.468e+04 4.180e-09
 28.22821     54.1 1.448e+04 4.184e-09
 28.23840     54.8 1.450e+04 4.005e-09
 28.25746     55.3 1.419e+04 3.864e-09
 28.27784     56.3 1.372e+04 3.470e-09
 28.29787     57.6 1.329e+04 2.851e-09
 28.30806     58.0 1.349e+04 3.113e-09
 28.31860     59.2 1.314e+04 2.515e-09
 28.33898     59.7 1.308e+04 2.073e-09
 28.35473     60.6 1.281e+04 1.636e-09
 28.36492     60.2 1.326e+04 1.956e-09
 28.37771     60.1 1.313e+04 1.745e-09
 28.38790     60.9 1.348e+04 2.067e-09
 28.41040     61.6 1.304e+04 1.589e-09
 28.44756     63.0 1.270e+04 1.379e-09
 28.46794     63.9 1.343e+04 2.083e-09
 28.49201     65.6 1.329e+04 2.006e-09
 28.53277     67.5 1.293e+04 1.661e-09
 28.57353     69.7 1.232e+04 1.083e-09
 28.60725     71.5 1.189e+04 6.990e-10
 28.62763     72.1 1.252e+04 1.284e-09
 28.63908     74.0 1.206e+04 8.281e-10
 28.65946     73.7 1.206e+04 7.798e-10
 28.69581     75.6 1.181e+04 5.498e-10
 28.73656     77.6 1.166e+04 4.288e-10
 28.76694     79.8 1.155e+04 3.713e-10
 28.78732     80.2 1.177e+04 4.812e-10
 28.81808     82.7 1.164e+04 4.331e-10
 28.85884     85.3 1.155e+04 4.061e-10
 28.89960     88.0 1.148e+04 3.875e-10
 28.92323     90.7 1.140e+04 3.707e-10
 28.92988     90.2 1.138e+04 3.700e-10
 28.94701     90.7 1.148e+04 3.875e-10
 28.98111     93.5 1.143e+04 3.684e-10
 29.02187     96.2 1.136e+04 3.343e-10
 29.06263     99.0 1.130e+04 2.953e-10
 29.08632    101.6 1.125e+04 2.613e-10
 29.10670    102.2 1.130e+04 2.878e-10
 29.14415    104.9 1.126e+04 2.683e-10
 29.18490    107.6 1.126e+04 2.636e-10
 29.20738    110.2 1.128e+04 2.639e-10
 29.22772    110.0 1.128e+04 2.701e-10
 29.26638    113.2 1.135e+04 3.014e-10
 29.30718    115.7 1.137e+04 3.004e-10
 29.34794    118.2 1.140e+04 3.021e-10
 29.38532    120.7 1.145e+04 3.045e-10
 29.40569    121.3 1.150e+04 3.251e-10
 29.42945    123.8 1.151e+04 3.179e-10
 29.47021    126.3 1.154e+04 3.190e-10
 29.49153    128.6 1.157e+04 3.252e-10
 29.51191    128.2 1.168e+04 3.723e-10
 29.54500    130.3 1.169e+04 3.879e-10
 29.56538    131.1 1.170e+04 4.218e-10
 29.59249    133.4 1.171e+04 4.182e-10
 29.63324    135.7 1.175e+04 4.109e-10
 29.66372    137.3 1.180e+04 4.184e-10
 29.68400    138.4 1.192e+04 4.342e-10
 29.70438    139.5 1.205e+04 4.824e-10
 29.71469    140.5 1.218e+04 5.640e-10
 29.72488    141.2 1.205e+04 4.665e-10
 29.74513    142.3 1.220e+04 5.279e-10
 29.76530    143.2 1.235e+04 6.281e-10
 29.77548    142.6 1.242e+04 8.247e-10
 29.78434    143.4 1.258e+04 1.068e-09
 29.79453    144.3 1.240e+04 7.642e-10
 29.80627    145.3 1.260e+04 9.868e-10
 29.82665    146.2 1.291e+04 1.344e-09
 29.84703    146.9 1.336e+04 1.932e-09
 29.86419    147.4 1.405e+04 2.960e-09
 29.87438    148.1 1.365e+04 1.898e-09
 29.88779    148.3 1.460e+04 3.347e-09
 29.90737    148.3 1.561e+04 5.758e-09
 29.91756    147.6 1.560e+04 6.658e-09
 29.92855    147.2 1.668e+04 1.018e-08
 29.94403    146.3 1.802e+04 1.590e-08
 29.95417    146.0 1.820e+04 1.752e-08
 29.96411    145.3 1.885e+04 2.164e-08
 29.97430    144.6 1.945e+04 2.591e-08
 29.98341    143.6 2.014e+04 3.031e-08
 29.98786    143.1 1.994e+04 2.602e-08
 29.98895    143.1 2.031e+04 3.402e-08
 29.99468    142.2 2.073e+04 3.601e-08
 30.00487    141.3 2.085e+04 3.528e-08
 30.01506    140.2 2.086e+04 3.134e-08
 30.02378    139.1 2.061e+04 2.662e-08
 30.02887    139.6 2.123e+04 4.078e-08
 30.03544    138.6 2.087e+04 3.167e-08
 30.04563    137.3 2.034e+04 2.350e-08
 30.05444    136.5 1.987e+04 1.816e-08
 30.05959    137.2 1.966e+04 1.054e-08
 30.07120    134.2 1.792e+04 4.918e-09
 30.09158    131.6 1.524e+04 3.020e-09
 30.10372    130.8 1.341e+04 2.163e-09
 30.11391    129.3 1.328e+04 2.113e-09
 30.13234    129.4 1.277e+04 1.775e-09
 30.16300    131.4 1.255e+04 1.508e-09
 30.18376    133.6 1.219e+04 1.289e-09
 30.20414    132.6 1.243e+04 1.489e-09
 30.24462    135.5 1.220e+04 1.416e-09
 30.28538    138.4 1.206e+04 1.352e-09
 30.32307    141.1 1.200e+04 1.310e-09
 30.34092    140.7 1.249e+04 1.724e-09
 30.34398    139.7 1.252e+04 1.695e-09
 30.36689    142.4 1.254e+04 1.669e-09
 30.40765    145.0 1.251e+04 1.606e-09
 30.44841    147.7 1.240e+04 1.498e-09
 30.48276    150.4 1.232e+04 1.425e-09
 30.50304    149.8 1.272e+04 1.642e-09
 30.51954    151.7 1.254e+04 1.513e-09
 30.53992    152.9 1.242e+04 1.449e-09
 30.56030    154.6 1.234e+04 1.397e-09
 30.57260    155.7 1.231e+04 1.378e-09
 30.58279    155.3 1.236e+04 1.374e-09
 30.60106    156.7 1.228e+04 1.317e-09
 30.61775    158.1 1.223e+04 1.284e-09
 30.62803    156.9 1.232e+04 1.349e-09
 30.64245    159.5 1.235e+04 1.337e-09
 30.66273    159.3 1.247e+04 1.399e-09
 30.68257    160.6 1.246e+04 1.394e-09
 30.70295    161.7 1.247e+04 1.400e-09
 30.72210    163.0 1.251e+04 1.428e-09
 30.73229    162.5 1.303e+04 1.761e-09
 30.74371    163.6 1.306e+04 1.814e-09
 30.75982    164.8 1.306e+04 1.872e-09
 30.77001    163.9 1.339e+04 2.363e-09
 30.78447    165.4 1.337e+04 2.438e-09
 30.80194    166.8 1.339e+04 2.517e-09
 30.81213    166.5 1.377e+04 3.095e-09
 30.82523    167.7 1.377e+04 3.041e-09
 30.84561    169.0 1.379e+04 3.035e-09
 30.86599    170.4 1.385e+04 3.063e-09
 30.88178    171.6 1.396e+04 3.132e-09
 30.89197    171.0 1.392e+04 3.048e-09
 30.90190    172.3 1.398e+04 3.046e-09
 30.91209    171.7 1.363e+04 2.412e-09
 30.92712    172.8 1.363e+04 2.328e-09
 30.94750    173.8 1.360e+04 2.209e-09
 30.96163    174.9 1.358e+04 2.096e-09
 30.98211    174.5 1.272e+04 1.022e-09
 31.01902    176.6 1.241e+04 8.668e-10
 31.05978    178.7 1.200e+04 7.232e-10
 31.10054    180.6 1.162e+04 6.251e-10
 31.12151    182.8 1.154e+04 6.117e-10
 31.14189    182.9 1.105e+04 4.265e-10
 31.17605    185.4 1.125e+04 4.697e-10
 31.19643    185.2 1.061e+04 2.852e-10
 31.22281    187.8 1.095e+04 3.407e-10
 31.25329    189.0 1.106e+04 3.719e-10
 31.27082    190.0 1.119e+04 4.361e-10
 31.28110    190.8 1.097e+04 3.529e-10
 31.29404    191.7 1.117e+04 4.345e-10
 31.31433    192.9 1.126e+04 5.350e-10
 31.32812    194.3 1.131e+04 6.551e-10
 31.33831    194.1 1.123e+04 5.452e-10
 31.35066    195.5 1.130e+04 6.627e-10
 31.36085    195.9 1.112e+04 5.512e-10
 31.37546    197.2 1.126e+04 6.667e-10
 31.39584    198.4 1.139e+04 7.913e-10
 31.41622    199.4 1.151e+04 9.212e-10
 31.43051    200.4 1.159e+04 1.057e-09
 31.44070    200.7 1.153e+04 9.351e-10
 31.45698    201.6 1.166e+04 1.094e-09
 31.47020    202.4 1.178e+04 1.280e-09
 31.48039    202.3 1.157e+04 1.079e-09
 31.49774    203.0 1.171e+04 1.286e-09
 31.51035    203.8 1.188e+04 1.539e-09
 31.52054    203.9 1.186e+04 1.415e-09
 31.53850    204.7 1.211e+04 1.693e-09
 31.55887    205.5 1.240e+04 1.997e-09
 31.57925    206.2 1.267e+04 2.283e-09
 31.59020    206.6 1.287e+04 2.442e-09
 31.60038    206.2 1.272e+04 2.204e-09
 31.61227    206.2 1.278e+04 2.267e-09
 31.62246    205.7 1.299e+04 2.400e-09
 31.64039    205.6 1.302e+04 2.424e-09
 31.65985    205.4 1.299e+04 2.381e-09
 31.67004    204.8 1.296e+04 2.324e-09
 31.68115    204.7 1.291e+04 2.291e-09
 31.70153    204.8 1.273e+04 2.158e-09
 31.72191    204.9 1.252e+04 1.962e-09
 31.73979    205.9 1.214e+04 1.693e-09
 31.75195    205.0 1.223e+04 1.633e-09
 31.76473    202.6 1.173e+04 1.074e-09
 31.79343    202.5 1.047e+04 5.280e-10
 31.83419    202.4 9.059e+03 2.900e-10
 31.87495    202.5 8.308e+03 2.152e-10
 31.89958    203.5 8.237e+03 2.142e-10
 31.91996    202.9 8.322e+03 2.150e-10
 31.95646    205.0 8.294e+03 2.433e-10
 31.99722    207.4 8.583e+03 2.910e-10
 32.02850    209.8 8.839e+03 3.443e-10
 32.04888    208.9 8.587e+03 2.891e-10
 32.05927    211.1 8.853e+03 3.543e-10
 32.07965    211.1 8.978e+03 3.774e-10
 32.11950    213.1 9.254e+03 4.504e-10
 32.16025    215.0 9.533e+03 5.370e-10
 32.19858    216.5 9.876e+03 6.534e-10
 32.21886    216.2 1.001e+04 6.823e-10
 32.23139    216.7 1.021e+04 7.626e-10
 32.25176    217.0 1.038e+04 8.362e-10
 32.27214    217.2 1.056e+04 9.101e-10
 32.28842    217.4 1.069e+04 9.694e-10
 32.29861    217.2 1.070e+04 9.574e-10
 32.31246    217.3 1.084e+04 1.029e-09
 32.33294    216.0 1.081e+04 9.670e-10
 32.35827    215.1 1.081e+04 9.286e-10
 32.37855    215.0 1.100e+04 1.010e-09
 32.39442    214.2 1.093e+04 9.425e-10
 32.41480    213.4 1.076e+04 8.500e-10
 32.43518    212.2 1.049e+04 7.102e-10
 32.44810    211.1 1.018e+04 5.966e-10
 32.45727    211.6 1.042e+04 7.112e-10
 32.46472    210.6 1.015e+04 5.909e-10
 32.47593    209.4 9.819e+03 4.932e-10
 32.49631    208.3 9.568e+03 4.546e-10
 32.51669    207.6 9.553e+03 4.538e-10
 32.52795    207.0 9.559e+03 4.604e-10
 32.53814    207.1 9.686e+03 4.966e-10
 32.55745    206.7 9.739e+03 5.225e-10
 32.57783    206.4 9.913e+03 5.872e-10
 32.59661    206.3 1.017e+04 6.884e-10
 32.60619    206.0 9.998e+03 6.084e-10
 32.60779    206.0 1.006e+04 6.226e-10
 32.61859    205.9 1.038e+04 7.618e-10
 32.63897    206.1 1.072e+04 9.373e-10
 32.65935    206.3 1.109e+04 1.147e-09
 32.67745    206.7 1.145e+04 1.376e-09
 32.68764    206.7 1.160e+04 1.474e-09
 32.70010    207.1 1.204e+04 1.777e-09
 32.72048    207.5 1.252e+04 2.140e-09
 32.73869    207.6 1.299e+04 2.560e-09
 32.74887    207.0 1.308e+04 2.583e-09
 32.75729    206.9 1.367e+04 3.166e-09
 32.76748    207.0 1.393e+04 3.564e-09
 32.78162    206.9 1.453e+04 4.369e-09
 32.80200    206.7 1.507e+04 5.228e-09
 32.82238    206.5 1.551e+04 6.030e-09
 32.83714    206.2 1.586e+04 6.616e-09
 32.84733    206.3 1.588e+04 6.580e-09
 32.86314    205.7 1.601e+04 6.544e-09
 32.88076    204.4 1.626e+04 6.283e-09
 32.89095    203.2 1.598e+04 4.849e-09
 32.90390    200.5 1.623e+04 4.892e-09
 32.91698    196.7 1.699e+04 5.424e-09
 32.92717    198.1 1.644e+04 4.729e-09
 32.94465    194.2 1.733e+04 6.343e-09
 32.96503    190.8 1.765e+04 8.577e-09
 32.98541    188.1 1.752e+04 8.975e-09
 32.99683    186.0 1.727e+04 8.550e-09
 33.00702    186.8 1.727e+04 8.363e-09
 33.02284    185.0 1.657e+04 6.863e-09
 33.03303    185.0 1.681e+04 7.579e-09
 33.04655    183.6 1.554e+04 4.589e-09
 33.06648    182.2 1.375e+04 2.331e-09
 33.07667    182.4 1.402e+04 2.660e-09
 33.09759    180.3 1.140e+04 1.067e-09
 33.13633    178.0 7.899e+03 3.424e-10
 33.15671    178.2 8.151e+03 4.065e-10
 33.16511    177.9 8.749e+03 1.869e-10
 33.18549    178.3 8.778e+03 1.884e-10
 33.21997    178.9 8.720e+03 1.613e-10
 33.26073    180.3 8.616e+03 1.464e-10
 33.29602    182.0 8.527e+03 1.287e-10
 33.31640    182.5 8.567e+03 1.626e-10
 33.34224    184.3 8.543e+03 1.411e-10
 33.38300    185.9 8.565e+03 1.249e-10
 33.42376    187.6 8.588e+03 1.218e-10
 33.44926    189.1 8.605e+03 1.229e-10
 33.46083    190.0 8.498e+03 1.071e-10
 33.47609    190.5 8.552e+03 1.227e-10
 33.50527    191.9 8.603e+03 1.242e-10
 33.54603    193.3 8.767e+03 1.308e-10
 33.58679    194.6 8.972e+03 1.402e-10
 33.61540    196.0 9.100e+03 1.445e-10
 33.63578    196.3 9.072e+03 1.477e-10
 33.66831    197.7 9.090e+03 1.466e-10
 33.70907    199.1 9.091e+03 1.404e-10
 33.73341    200.6 9.042e+03 1.271e-10
 33.75379    201.4 9.017e+03 1.259e-10
 33.77509    202.9 8.935e+03 1.102e-10
 33.79547    203.3 8.956e+03 1.208e-10
 33.83134    204.7 8.846e+03 9.960e-11
 33.87210    206.1 8.735e+03 7.746e-11
 33.91286    207.4 8.629e+03 5.977e-11
 33.93477    208.7 8.533e+03 4.853e-11
 33.95515    209.0 8.545e+03 5.314e-11
 33.99437    210.2 8.410e+03 4.753e-11
 34.01756    211.5 8.370e+03 4.757e-11
 34.03794    212.1 8.318e+03 4.737e-11
 34.07408    213.4 8.301e+03 4.744e-11
 34.09446    213.7 8.331e+03 5.142e-11
 34.11665    215.1 8.327e+03 5.177e-11
 34.15741    216.6 8.313e+03 5.419e-11
 34.19816    218.1 8.315e+03 6.184e-11
 34.23377    219.6 8.366e+03 7.469e-11
 34.25415    219.9 8.418e+03 7.987e-11
 34.27968    221.4 8.524e+03 9.802e-11
 34.30171    222.6 8.647e+03 1.155e-10
 34.32209    223.0 8.612e+03 1.048e-10
 34.36120    223.9 8.706e+03 1.166e-10
 34.39346    224.7 8.722e+03 1.179e-10
 34.41384    224.7 8.836e+03 1.354e-10
 34.44271    225.3 8.827e+03 1.348e-10
 34.48347    226.0 8.786e+03 1.309e-10
 34.52423    226.8 8.725e+03 1.263e-10
 34.55315    227.7 8.707e+03 1.259e-10
 34.57353    227.4 8.853e+03 1.484e-10
 34.58586    228.3 8.869e+03 1.515e-10
 34.60624    228.4 8.970e+03 1.638e-10
 34.64650    229.0 9.169e+03 1.918e-10
 34.68726    229.3 9.465e+03 2.411e-10
 34.71284    229.2 9.759e+03 3.076e-10
 34.73322    227.4 1.003e+04 3.677e-10
 34.75849    227.4 1.014e+04 4.169e-10
 34.77877    227.7 1.028e+04 4.631e-10
 34.79249    227.5 1.055e+04 5.576e-10
 34.80268    226.9 1.066e+04 5.954e-10
 34.81953    226.4 1.095e+04 7.053e-10
 34.84953    226.5 1.120e+04 7.923e-10
 34.87001    225.5 1.156e+04 9.477e-10
 34.87253    224.0 1.180e+04 1.013e-09
 34.88262    222.8 1.198e+04 1.103e-09
 34.90105    222.2 1.200e+04 1.105e-09
 34.92143    221.4 1.196e+04 1.076e-09
 34.94181    220.8 1.188e+04 1.022e-09
 34.97247    219.8 1.161e+04 8.490e-10
 35.01184    219.5 1.106e+04 5.852e-10
 35.03212    218.2 1.087e+04 4.979e-10
 35.04370    218.1 1.056e+04 4.092e-10
 35.06408    218.1 1.034e+04 3.677e-10
 35.08446    218.2 1.017e+04 3.507e-10
 35.10168    218.4 1.016e+04 3.513e-10
 35.11187    218.0 1.033e+04 3.787e-10
 35.12522    218.4 1.032e+04 3.825e-10
 35.14377    218.7 1.034e+04 3.964e-10
 35.15406    218.9 1.015e+04 3.427e-10
 35.16607    219.0 1.029e+04 3.926e-10
 35.18152    219.3 1.044e+04 4.455e-10
 35.19171    218.7 1.076e+04 5.618e-10
 35.20673    218.8 1.087e+04 6.307e-10
 35.22711    219.0 1.097e+04 6.995e-10
 35.24749    219.2 1.107e+04 7.598e-10
 35.26137    219.3 1.120e+04 8.153e-10
 35.27156    217.9 1.172e+04 9.780e-10
 35.28585    217.4 1.213e+04 1.108e-09
 35.29604    216.9 1.232e+04 1.197e-09
 35.30863    215.9 1.289e+04 1.509e-09
 35.32901    215.1 1.338e+04 1.987e-09
 35.34121    214.6 1.370e+04 2.616e-09
 35.35140    213.5 1.394e+04 3.514e-09
 35.36977    213.7 1.389e+04 3.547e-09
 35.39015    213.9 1.374e+04 3.360e-09
 35.41783    213.5 1.322e+04 2.296e-09
 35.43831    213.6 1.299e+04 1.869e-09
 35.46167    213.2 1.215e+04 8.231e-10
 35.49090    212.5 1.118e+04 3.085e-10
 35.51128    208.9 9.571e+03 8.361e-11
 35.54319    208.6 9.271e+03 7.940e-11
 35.58394    209.8 9.210e+03 8.184e-11
 35.62470    211.5 9.180e+03 9.324e-11
 35.65059    213.0 9.330e+03 1.133e-10
 35.67097    213.4 9.320e+03 1.051e-10
 35.70208    214.5 9.532e+03 1.321e-10
 35.72246    214.7 9.387e+03 9.822e-11
 35.74698    215.7 9.566e+03 1.238e-10
 35.78773    216.5 9.764e+03 1.553e-10
 35.81028    217.2 9.983e+03 1.934e-10
 35.83066    217.2 9.929e+03 1.907e-10
 35.86925    217.7 1.015e+04 2.386e-10
 35.91001    217.9 1.031e+04 2.798e-10
 35.94959    217.8 1.045e+04 2.928e-10
 35.96997    218.0 1.036e+04 2.815e-10
 35.98623    217.6 1.037e+04 2.732e-10
 36.00661    218.4 1.039e+04 2.800e-10
 36.03228    217.6 1.040e+04 2.564e-10
 36.07304    216.6 1.032e+04 2.040e-10
 36.10928    215.4 1.017e+04 1.480e-10
 36.12966    216.2 1.002e+04 1.225e-10
 36.15456    215.3 9.750e+03 9.432e-11
 36.19532    214.8 9.624e+03 9.131e-11
 36.23607    214.9 9.616e+03 9.159e-11
 36.26897    215.0 9.612e+03 9.541e-11
 36.28290    216.7 9.490e+03 9.491e-11
 36.29076    217.6 9.490e+03 9.827e-11
 36.31759    217.8 9.580e+03 1.168e-10
 36.35835    217.8 9.927e+03 1.640e-10
 36.39911    217.6 1.040e+04 2.495e-10
 36.42866    217.1 1.081e+04 3.470e-10
 36.44904    219.1 1.061e+04 3.217e-10
 36.47034    218.4 1.096e+04 4.140e-10
 36.49062    217.6 1.136e+04 5.649e-10
 36.50831    216.5 1.171e+04 7.680e-10
 36.51850    217.6 1.153e+04 6.968e-10
 36.53138    216.5 1.182e+04 8.706e-10
 36.55176    215.4 1.210e+04 9.327e-10
 36.56453    214.0 1.214e+04 9.288e-10
 36.57472    214.8 1.216e+04 9.431e-10
 36.58815    213.2 1.216e+04 9.141e-10
 36.59834    214.3 1.209e+04 9.153e-10
 36.61289    212.7 1.204e+04 8.498e-10
 36.63327    211.1 1.186e+04 7.302e-10
 36.65365    209.5 1.158e+04 5.982e-10
 36.66800    207.8 1.122e+04 4.833e-10
 36.67819    209.2 1.132e+04 5.226e-10
 36.69441    207.6 1.099e+04 4.422e-10
 36.70660    206.3 1.063e+04 4.154e-10
 36.71679    206.9 1.065e+04 4.067e-10
 36.73517    205.6 1.044e+04 4.051e-10
 36.74784    204.6 1.044e+04 4.055e-10
 36.75803    205.6 1.047e+04 4.195e-10
 36.77593    204.5 1.048e+04 4.222e-10
 36.79630    203.5 1.050e+04 4.328e-10
 36.81668    202.4 1.053e+04 4.510e-10
 36.82769    201.3 1.054e+04 4.697e-10
 36.83787    202.0 1.053e+04 4.660e-10
 36.84868    200.8 1.052e+04 4.784e-10
 36.85887    201.4 1.043e+04 4.501e-10
 36.87782    200.4 1.041e+04 4.590e-10
 36.89734    199.4 1.040e+04 4.731e-10
 36.90753    200.0 1.038e+04 4.657e-10
 36.91858    198.9 1.041e+04 4.936e-10
 36.93896    197.8 1.053e+04 5.491e-10
 36.95934    196.7 1.076e+04 6.484e-10
 36.97718    195.3 1.113e+04 8.185e-10
 36.98737    195.8 1.112e+04 8.114e-10
 36.99075    194.3 1.163e+04 1.103e-09
 37.00094    194.9 1.170e+04 1.125e-09
 37.02048    193.1 1.238e+04 1.638e-09
 37.04085    191.2 1.299e+04 2.262e-09
 37.05703    189.4 1.357e+04 2.743e-09
 37.06722    189.5 1.376e+04 2.935e-09
 37.08161    187.4 1.401e+04 2.966e-09
 37.10199    184.9 1.403e+04 2.868e-09
 37.12237    182.3 1.395e+04 2.412e-09
 37.13283    179.5 1.360e+04 1.733e-09
 37.13714    179.6 1.399e+04 2.147e-09
 37.14706    179.5 1.406e+04 2.063e-09
 37.16313    176.2 1.341e+04 1.287e-09
 37.18351    172.7 1.256e+04 8.414e-10
 37.20389    169.4 1.173e+04 6.657e-10
 37.21672    167.2 1.142e+04 6.402e-10
 37.22691    166.4 1.134e+04 5.747e-10
 37.24465    165.1 1.134e+04 5.858e-10
 37.26471    164.0 1.143e+04 6.421e-10
 37.27490    163.3 1.159e+04 6.858e-10
 37.28540    162.3 1.177e+04 7.831e-10
 37.29656    161.3 1.201e+04 9.305e-10
 37.30675    160.7 1.212e+04 9.835e-10
 37.32616    159.8 1.246e+04 1.208e-09
 37.34654    159.0 1.285e+04 1.449e-09
 37.36622    158.2 1.327e+04 1.655e-09
 37.37641    157.4 1.344e+04 1.689e-09
 37.38730    156.3 1.375e+04 1.827e-09
 37.40679    154.5 1.413e+04 2.011e-09
 37.41698    152.7 1.413e+04 2.030e-09
 37.42806    149.4 1.517e+04 2.564e-09
 37.44606    144.0 1.704e+04 3.910e-09
 37.45625    140.8 1.844e+04 5.540e-09
 37.46882    136.2 1.985e+04 8.896e-09
 37.48287    134.2 2.065e+04 1.073e-08
 37.48792    133.8 2.046e+04 1.071e-08
 37.49098    131.7 2.123e+04 1.260e-08
 37.49608    131.8 2.080e+04 1.366e-08
 37.50438    129.9 2.171e+04 1.690e-08
 37.51457    127.7 2.298e+04 2.201e-08
 37.52476    125.0 2.406e+04 2.995e-08
 37.53090    122.0 2.475e+04 4.072e-08
 37.53600    123.9 2.609e+04 4.983e-08
 37.54514    119.3 2.689e+04 7.443e-08
 37.55386    112.7 2.736e+04 9.002e-08
 37.55896    111.5 2.544e+04 9.155e-08
 37.56552    105.8 2.614e+04 9.187e-08
 37.57083    100.7 2.587e+04 8.595e-08
 37.57592     95.9 2.662e+04 1.633e-07
 37.58590     92.7 2.686e+04 1.086e-07
 37.59609     92.1 2.850e+04 5.157e-08
 37.60565     92.5 2.744e+04 2.298e-08
 37.61075     89.5 3.009e+04 3.868e-08
 37.61647     90.2 2.851e+04 1.738e-08
 37.62490     90.3 2.459e+04 1.024e-08
 37.62999     91.8 2.622e+04 1.383e-08
 37.63685     92.3 2.344e+04 8.563e-09
 37.65218     90.9 1.828e+04 4.035e-09
 37.67261     89.7 1.256e+04 1.569e-09
 37.68559     90.3 1.174e+04 1.128e-09
 37.69374     90.2 1.253e+04 1.333e-09
 37.70113     91.3 1.324e+04 1.427e-09
 37.71336     91.8 1.175e+04 1.044e-09
 37.73374     92.8 1.120e+04 9.169e-10
 37.75412     94.6 1.107e+04 8.350e-10
 37.76544     96.3 1.105e+04 7.500e-10
 37.77563     96.0 1.111e+04 7.453e-10
 37.79488     97.6 1.110e+04 6.564e-10
 37.81526     99.2 1.106e+04 5.585e-10
 37.83301    100.5 1.104e+04 4.867e-10
 37.84266    100.5 1.102e+04 4.994e-10
 37.84528    100.5 1.116e+04 4.893e-10
 37.85602    101.8 1.116e+04 4.300e-10
 37.87640    102.7 1.120e+04 4.000e-10
 37.90706    104.2 1.114e+04 3.548e-10
 37.94792    106.1 1.096e+04 3.077e-10
 37.97528    107.9 1.087e+04 2.707e-10
 37.99177    107.6 1.095e+04 2.695e-10
 38.00517    107.4 1.086e+04 2.488e-10
 38.02944    109.1 1.077e+04 2.116e-10
 38.07019    110.6 1.074e+04 1.828e-10
 38.11095    111.9 1.074e+04 1.757e-10
 38.14448    113.2 1.077e+04 1.786e-10
 38.16486    112.8 1.078e+04 1.834e-10
 38.19247    113.2 1.098e+04 2.101e-10
 38.23323    113.0 1.130e+04 3.019e-10
 38.25944    112.7 1.168e+04 4.854e-10
 38.27981    112.7 1.162e+04 4.741e-10
 38.30417    112.4 1.193e+04 6.596e-10
 38.32455    111.7 1.191e+04 5.894e-10
 38.35550    110.9 1.191e+04 6.051e-10
 38.39626    110.1 1.179e+04 5.800e-10
 38.43702    109.8 1.151e+04 4.937e-10
 38.46386    109.7 1.121e+04 3.873e-10
 38.48423    109.7 1.109e+04 3.464e-10
 38.51853    110.2 1.095e+04 3.040e-10
 38.54359    110.8 1.083e+04 2.712e-10
 38.56396    111.6 1.071e+04 2.232e-10
 38.60005    112.5 1.059e+04 1.904e-10
 38.62354    113.5 1.047e+04 1.664e-10
 38.64392    114.2 1.048e+04 1.547e-10
 38.68157    115.3 1.035e+04 1.329e-10
 38.72233    116.5 1.019e+04 1.224e-10
 38.76285    117.9 1.015e+04 1.223e-10
 38.78323    118.3 1.012e+04 1.027e-10
 38.80384    119.8 1.008e+04 1.085e-10
 38.82774    121.3 1.007e+04 1.204e-10
 38.84811    122.5 1.009e+04 1.202e-10
 38.88536    124.1 1.009e+04 1.382e-10
 38.92254    125.8 1.014e+04 1.644e-10
 38.94292    126.3 1.007e+04 1.489e-10
 38.96687    127.9 1.015e+04 1.789e-10
 39.00763    129.4 1.032e+04 2.251e-10
 39.04839    130.9 1.049e+04 2.903e-10
 39.08223    132.1 1.070e+04 3.524e-10
 39.10261    132.5 1.059e+04 3.217e-10
 39.11189    133.6 1.067e+04 3.515e-10
 39.13227    134.4 1.087e+04 3.859e-10
 39.17067    135.2 1.091e+04 4.049e-10
 39.21142    135.9 1.087e+04 3.864e-10
 39.24192    136.6 1.073e+04 3.401e-10
 39.26230    137.5 1.071e+04 3.327e-10
 39.29294    138.1 1.054e+04 2.889e-10
 39.33370    138.6 1.046e+04 2.787e-10
 39.36417    138.9 1.049e+04 2.866e-10
 39.38445    139.2 1.054e+04 3.059e-10
 39.39584    139.3 1.079e+04 3.633e-10
 39.40261    139.2 1.121e+04 4.764e-10
 39.41160    139.9 1.092e+04 4.203e-10
 39.42521    139.7 1.142e+04 5.635e-10
 39.44559    139.4 1.211e+04 8.113e-10
 39.46597    138.8 1.289e+04 1.236e-09
 39.48126    138.1 1.366e+04 1.918e-09
 39.49145    139.2 1.324e+04 1.552e-09
 39.50673    138.5 1.398e+04 2.325e-09
 39.52711    137.9 1.460e+04 3.306e-09
 39.53792    137.5 1.508e+04 4.203e-09
 39.54811    136.8 1.487e+04 3.570e-09
 39.56110    136.2 1.498e+04 3.642e-09
 39.57129    136.9 1.487e+04 3.483e-09
 39.58824    136.1 1.487e+04 3.471e-09
 39.60862    135.4 1.477e+04 3.386e-09
 39.62900    134.9 1.453e+04 3.211e-09
 39.64095    134.5 1.427e+04 3.013e-09
 39.65114    134.9 1.430e+04 2.971e-09
 39.66976    134.6 1.411e+04 2.832e-09
 39.69014    133.7 1.390e+04 2.636e-09
 39.71052    133.8 1.371e+04 2.404e-09
 39.74118    134.2 1.302e+04 1.602e-09
 39.77175    134.1 1.271e+04 1.326e-09
 39.79045    134.0 1.249e+04 1.138e-09
 39.80064    134.3 1.237e+04 1.079e-09
 39.81188    134.0 1.201e+04 8.915e-10
 39.82207    133.5 1.182e+04 7.675e-10
 39.83279    133.0 1.140e+04 6.735e-10
 39.85317    132.6 1.119e+04 6.723e-10
 39.87029    132.6 1.115e+04 6.796e-10
 39.88048    133.4 1.088e+04 5.438e-10
 39.89393    133.5 1.086e+04 5.881e-10
 39.91431    133.6 1.087e+04 6.370e-10
 39.93469    134.0 1.095e+04 7.101e-10
 39.95013    134.3 1.100e+04 7.582e-10
 39.95921    135.0 1.078e+04 6.668e-10
 39.96414    134.8 1.083e+04 6.902e-10
 39.97545    135.1 1.093e+04 7.611e-10
 39.99582    135.4 1.100e+04 8.160e-10
 40.01989    135.7 1.118e+04 9.130e-10
 40.04027    136.3 1.101e+04 8.626e-10
 40.05696    136.4 1.108e+04 9.146e-10
 40.07734    136.3 1.110e+04 9.414e-10
 40.09603    136.3 1.109e+04 9.653e-10
 40.10622    136.2 1.128e+04 1.041e-09
 40.10982    136.1 1.125e+04 1.061e-09
 40.12001    136.5 1.123e+04 1.047e-09
 40.13848    136.4 1.121e+04 1.066e-09
 40.15886    136.3 1.120e+04 1.084e-09
 40.17924    136.2 1.122e+04 1.111e-09
 40.18967    136.1 1.126e+04 1.149e-09
 40.19986    136.2 1.115e+04 1.098e-09
 40.21999    136.0 1.119e+04 1.131e-09
 40.23810    135.8 1.119e+04 1.124e-09
 40.24829    135.7 1.163e+04 1.420e-09
 40.25932    135.4 1.162e+04 1.416e-09
 40.26951    135.3 1.146e+04 1.301e-09
 40.28113    134.9 1.141e+04 1.267e-09
 40.30151    134.3 1.140e+04 1.239e-09
 40.32189    133.4 1.145e+04 1.248e-09
 40.33917    131.6 1.172e+04 1.335e-09
 40.34936    131.2 1.158e+04 1.255e-09
 40.36265    128.2 1.236e+04 1.634e-09
 40.38018    124.8 1.354e+04 2.542e-09
 40.39037    125.0 1.423e+04 3.117e-09
 40.40341    121.6 1.528e+04 4.622e-09
 40.41901    118.2 1.544e+04 4.818e-09
 40.42920    119.0 1.509e+04 4.344e-09
 40.44416    116.0 1.485e+04 3.955e-09
 40.46454    113.3 1.399e+04 2.696e-09
 40.48492    109.8 1.267e+04 1.460e-09
 40.49886    105.3 1.106e+04 8.276e-10
 40.50905    107.2 1.111e+04 8.706e-10
 40.52225    103.9 1.028e+04 7.358e-10
 40.53244    104.0 1.015e+04 6.859e-10
 40.54606    102.2 1.010e+04 6.882e-10
 40.56644    101.4 1.020e+04 7.471e-10
 40.57870    101.1 1.046e+04 8.694e-10
 40.58889    102.3 1.048e+04 8.672e-10
 40.60720    101.9 1.078e+04 1.010e-09
 40.62758    101.4 1.115e+04 1.196e-09
 40.64796    100.7 1.156e+04 1.454e-09
 40.65854    100.3 1.185e+04 1.723e-09
 40.66473    101.4 1.191e+04 1.645e-09
 40.67452    101.7 1.183e+04 1.559e-09
 40.68871    100.8 1.233e+04 1.993e-09
 40.70909    100.1 1.269e+04 2.330e-09
 40.72820     99.5 1.296e+04 2.366e-09
 40.73839    100.3 1.335e+04 2.887e-09
 40.74985     99.4 1.350e+04 2.825e-09
 40.77023     98.4 1.348e+04 2.534e-09
 40.79061     97.4 1.302e+04 1.964e-09
 40.80640     96.1 1.213e+04 1.362e-09
 40.81365     96.8 1.284e+04 1.746e-09
 40.81823     98.1 1.383e+04 2.642e-09
 40.83137     96.5 1.258e+04 1.340e-09
 40.85175     95.2 1.155e+04 9.224e-10
 40.88241     93.8 1.075e+04 6.038e-10
 40.92327     92.8 1.009e+04 4.228e-10
 40.95774     93.0 1.001e+04 4.004e-10
 40.97812     92.8 1.035e+04 4.506e-10
 41.00479     93.3 1.030e+04 4.335e-10
 41.04554     94.0 1.039e+04 4.552e-10
 41.08056     94.7 1.079e+04 5.467e-10
 41.10094     94.0 9.708e+03 2.532e-10
 41.11743     94.5 9.859e+03 3.072e-10
 41.13781     93.8 9.885e+03 3.129e-10
 41.16782     93.7 1.024e+04 4.383e-10
 41.20858     93.4 1.108e+04 6.873e-10
 41.24933     93.0 1.198e+04 1.093e-09
 41.27712     93.0 1.265e+04 1.576e-09
 41.29750     92.7 1.232e+04 1.419e-09
 41.33085     92.6 1.228e+04 1.370e-09
 41.36471     92.4 1.193e+04 1.061e-09
 41.38509     93.8 1.149e+04 7.992e-10
 41.41237     93.6 1.108e+04 5.533e-10
 41.43681     93.0 1.065e+04 4.145e-10
 41.45718     92.9 1.035e+04 3.672e-10
 41.49388     92.8 1.003e+04 3.112e-10
 41.53464     93.1 9.752e+03 2.601e-10
 41.57540     93.6 9.516e+03 2.070e-10
 41.59649     93.9 9.370e+03 1.650e-10
 41.61687     94.2 9.231e+03 1.378e-10
 41.64886     94.5 9.149e+03 1.251e-10
 41.66924     96.3 9.245e+03 1.425e-10
 41.69768     96.7 9.157e+03 1.297e-10
 41.73580     97.5 9.137e+03 1.311e-10
 41.75618     98.1 8.999e+03 1.131e-10
 41.77919     99.2 9.025e+03 1.149e-10
 41.81995    100.3 9.082e+03 1.146e-10
 41.86071    101.3 9.131e+03 1.143e-10
 41.89549    102.2 9.190e+03 1.159e-10
 41.91587    102.9 9.034e+03 1.046e-10
 41.93301    103.8 9.106e+03 1.109e-10
 41.95339    105.6 9.082e+03 1.140e-10
 41.98298    106.4 9.139e+03 1.234e-10
 42.02374    107.5 9.216e+03 1.413e-10
 42.05518    108.7 9.300e+03 1.611e-10
 42.07556    109.5 9.264e+03 1.717e-10
 42.10526    110.9 9.439e+03 1.878e-10
 42.14602    112.3 9.472e+03 1.870e-10
 42.18677    113.5 9.500e+03 1.803e-10
 42.21487    114.5 9.520e+03 1.693e-10
 42.22488    115.4 9.484e+03 1.701e-10
 42.23754    116.9 9.547e+03 1.895e-10
 42.26829    117.8 9.546e+03 1.630e-10
 42.30905    118.5 9.530e+03 1.526e-10
 42.34981    119.3 9.527e+03 1.564e-10
 42.37456    120.1 9.552e+03 1.728e-10
 42.39494    121.0 9.501e+03 1.543e-10
 42.43132    121.9 9.567e+03 1.729e-10
 42.47208    122.9 9.659e+03 1.836e-10
 42.50131    123.9 9.688e+03 1.813e-10
 42.52169    125.1 9.585e+03 1.669e-10
 42.53425    126.2 9.585e+03 1.600e-10
 42.55463    127.2 9.525e+03 1.353e-10
 42.59436    128.3 9.541e+03 1.244e-10
 42.63511    129.5 9.544e+03 1.235e-10
 42.67356    130.5 9.590e+03 1.284e-10
 42.69394    131.6 9.463e+03 1.151e-10
 42.71663    132.4 9.658e+03 1.359e-10
 42.75739    133.1 1.006e+04 2.154e-10
 42.78546    134.0 1.049e+04 3.531e-10
 42.80584    135.6 1.021e+04 2.720e-10
 42.83325    136.3 1.057e+04 3.772e-10
 42.85363    137.6 1.038e+04 3.404e-10
 42.87966    138.1 1.054e+04 3.792e-10
 42.92042    138.6 1.052e+04 3.710e-10
 42.96118    139.2 1.045e+04 3.356e-10
 42.99294    139.8 1.034e+04 2.869e-10
 43.01331    141.5 1.032e+04 2.930e-10
 43.04270    142.2 1.016e+04 2.568e-10
 43.06961    143.1 1.010e+04 2.511e-10
 43.08999    144.8 1.014e+04 2.702e-10
 43.12421    145.8 1.014e+04 2.720e-10
 43.15262    146.9 1.018e+04 2.843e-10
 43.17300    148.4 1.017e+04 2.850e-10
 43.20573    149.6 1.023e+04 3.107e-10
 43.24649    150.4 1.040e+04 3.426e-10
 43.28725    150.7 1.118e+04 4.743e-10
 43.31231    150.5 1.246e+04 7.647e-10
 43.33269    152.3 1.229e+04 7.165e-10
 43.35367    151.9 1.283e+04 8.843e-10
 43.37405    154.9 1.196e+04 4.759e-10
 43.40952    154.5 1.320e+04 8.512e-10
 43.43999    153.8 1.420e+04 1.833e-09
 43.46027    153.3 1.508e+04 3.203e-09
 43.47181    152.2 1.670e+04 5.302e-09
 43.48200    152.8 1.725e+04 5.798e-09
 43.49564    150.4 1.926e+04 9.321e-09
 43.50583    153.1 1.760e+04 5.685e-09
 43.52141    150.6 1.960e+04 1.021e-08
 43.54146    148.2 2.080e+04 1.427e-08
 43.55165    148.6 2.155e+04 1.754e-08
 43.55702    145.6 2.265e+04 2.032e-08
 43.56658    143.7 2.282e+04 2.125e-08
 43.57168    145.5 2.270e+04 2.179e-08
 43.57735    144.0 2.281e+04 2.233e-08
 43.58638    142.9 2.220e+04 1.647e-08
 43.59148    142.8 2.232e+04 1.632e-08
 43.59773    139.8 2.112e+04 8.595e-09
 43.60792    135.7 1.861e+04 4.265e-09
 43.61811    130.6 1.602e+04 2.458e-09
 43.62630    128.0 1.481e+04 2.053e-09
 43.63140    126.5 1.458e+04 2.005e-09
 43.63767    122.5 1.378e+04 1.846e-09
 43.64276    124.4 1.414e+04 1.933e-09
 43.64868    123.8 1.390e+04 1.900e-09
 43.66401    121.7 1.335e+04 1.808e-09
 43.68444    118.9 1.236e+04 1.618e-09
 43.70115    117.8 1.176e+04 1.482e-09
 43.71134    118.0 1.206e+04 1.707e-09
 43.72520    117.8 1.177e+04 1.511e-09
 43.74558    117.5 1.153e+04 1.295e-09
 43.76596    116.9 1.128e+04 1.092e-09
 43.77979    115.8 1.121e+04 9.677e-10
 43.78464    117.1 1.133e+04 1.114e-09
 43.79118    116.0 1.189e+04 1.283e-09
 43.80672    114.1 1.217e+04 1.327e-09
 43.82710    112.2 1.243e+04 1.474e-09
 43.84748    111.0 1.242e+04 1.661e-09
 43.86084    110.8 1.230e+04 1.781e-09
 43.87103    110.1 1.239e+04 2.021e-09
 43.88823    110.4 1.206e+04 1.738e-09
 43.90861    110.4 1.171e+04 1.363e-09
 43.92187    109.9 1.139e+04 9.234e-10
 43.93206    110.9 1.156e+04 1.079e-09
 43.94068    109.5 1.115e+04 6.544e-10
 43.95087    106.6 1.067e+04 4.073e-10
 43.96975    104.2 9.822e+03 3.014e-10
 43.99013    103.6 9.536e+03 2.919e-10
 44.02080    103.8 9.505e+03 3.284e-10
 44.06165    104.1 9.710e+03 4.348e-10
 44.09038    104.1 9.838e+03 4.823e-10
 44.11076    103.4 9.820e+03 4.794e-10
 44.14317    103.5 9.700e+03 4.349e-10
 44.18393    103.2 9.421e+03 3.397e-10
 44.20622    102.5 9.338e+03 3.071e-10
 44.22659    103.9 9.403e+03 3.202e-10
 44.25007    102.3 9.641e+03 3.425e-10
 44.27045    101.0 9.863e+03 3.797e-10
 44.29591     99.3 1.013e+04 4.879e-10
 44.31619     98.3 1.027e+04 6.234e-10
 44.32972     97.9 1.036e+04 7.233e-10
 44.33991     97.8 1.031e+04 7.167e-10
 44.34809     97.5 1.035e+04 7.201e-10
 44.35828     98.1 1.042e+04 7.501e-10
 44.37733     97.6 1.040e+04 7.166e-10
 44.39771     96.7 1.025e+04 6.324e-10
 44.40956     95.4 1.000e+04 5.309e-10
 44.41975     94.2 9.850e+03 4.224e-10
 44.43847     93.1 9.627e+03 3.782e-10
 44.45885     91.2 9.584e+03 3.641e-10
 44.47922     90.6 9.494e+03 3.586e-10
 44.49016     89.4 9.514e+03 3.774e-10
 44.50036     89.5 9.504e+03 3.772e-10
 44.51999     88.1 9.640e+03 4.214e-10
 44.54036     86.8 9.832e+03 4.819e-10
 44.55906     85.4 1.007e+04 5.589e-10
 44.56925     85.3 1.016e+04 5.849e-10
 44.58112     83.3 1.059e+04 7.266e-10
 44.60150     81.4 1.097e+04 9.116e-10
 44.62188     79.9 1.128e+04 1.104e-09
 44.63225     77.9 1.158e+04 1.288e-09
 44.63908     77.6 1.145e+04 1.199e-09
 44.64909     77.3 1.150e+04 1.259e-09
 44.67293     76.2 1.147e+04 1.231e-09
 44.70875     73.9 1.093e+04 9.166e-10
 44.72913     73.8 1.088e+04 8.620e-10
 44.74425     72.3 1.026e+04 5.943e-10
 44.76413     69.7 9.723e+03 4.620e-10
 44.77432     69.8 9.697e+03 4.408e-10
 44.79520     67.7 9.172e+03 3.129e-10
 44.83606     65.9 9.225e+03 2.699e-10
 44.86653     63.4 9.723e+03 3.400e-10
 44.87844     61.2 1.032e+04 4.722e-10
 44.88863     61.2 1.019e+04 4.806e-10
 44.90621     60.3 1.019e+04 7.446e-10
 44.91640     59.8 1.054e+04 9.365e-10
 44.92757     60.8 1.078e+04 1.174e-09
 44.94795     61.8 1.117e+04 1.295e-09
 44.95828     62.0 1.136e+04 1.055e-09
 44.96847     61.4 1.114e+04 9.306e-10
 44.98871     59.2 1.077e+04 6.561e-10
 45.00908     58.0 1.037e+04 5.563e-10
 45.02794     56.5 1.010e+04 4.373e-10
 45.03813     56.7 1.004e+04 4.150e-10
 45.04828     56.3 9.893e+03 3.929e-10
 45.05847     55.8 9.897e+03 3.977e-10
 45.08051     55.6 9.839e+03 3.709e-10
 45.12136     56.0 9.814e+03 3.642e-10
 45.16212     56.9 9.834e+03 3.662e-10
 45.18782     58.2 9.902e+03 3.789e-10
 45.20820     58.5 9.799e+03 3.615e-10
 45.24364     60.0 9.911e+03 3.750e-10
 45.26757     60.9 1.017e+04 4.264e-10
 45.27766     61.1 1.009e+04 4.090e-10
 45.29439     61.6 1.026e+04 4.446e-10
 45.31477     62.3 1.045e+04 5.288e-10
 45.33243     62.8 1.085e+04 6.214e-10
 45.34262     62.4 1.129e+04 8.124e-10
 45.34731     62.3 1.206e+04 1.180e-09
 45.35750     61.7 1.216e+04 1.153e-09
 45.37591     59.9 1.359e+04 1.861e-09
 45.39629     58.3 1.482e+04 3.468e-09
 45.41667     57.2 1.589e+04 5.986e-09
 45.42716     57.0 1.707e+04 9.418e-09
 45.43735     57.3 1.619e+04 7.118e-09
 45.45742     56.8 1.717e+04 7.975e-09
 45.47451     55.0 1.780e+04 7.732e-09
 45.48470     53.9 1.779e+04 7.940e-09
 45.49681     51.1 1.684e+04 6.152e-09
 45.50700     50.1 1.523e+04 3.523e-09
 45.51856     48.1 1.354e+04 2.539e-09
 45.53894     47.5 1.262e+04 1.862e-09
 45.55932     46.8 1.198e+04 1.208e-09
 45.57666     43.7 1.178e+04 7.503e-10
 45.58685     43.6 1.164e+04 7.402e-10
 45.60008     42.3 1.122e+04 6.656e-10
 45.61658     40.7 1.114e+04 5.788e-10
 45.62687     41.5 1.131e+04 6.144e-10
 45.64093     40.1 1.105e+04 5.485e-10
 45.65650     40.1 1.101e+04 5.398e-10
 45.66679     40.6 1.083e+04 5.091e-10
 45.69198     40.8 1.078e+04 4.111e-10
 45.73274     41.4 1.032e+04 2.669e-10
 45.77350     42.1 9.812e+03 1.818e-10
 45.80620     42.9 9.592e+03 1.630e-10
 45.82658     43.1 9.683e+03 1.692e-10
 45.85501     44.3 9.568e+03 1.693e-10
 45.89074     45.7 9.528e+03 1.705e-10
 45.91112     46.2 9.523e+03 1.716e-10
 45.93653     47.9 9.383e+03 1.579e-10
 45.96589     49.4 9.281e+03 1.258e-10
 45.98626     49.5 9.308e+03 1.251e-10
 46.01805     50.3 9.231e+03 1.022e-10
 46.05880     50.9 9.163e+03 9.755e-11
 46.09956     51.7 9.089e+03 1.121e-10
 46.12557     53.0 9.036e+03 1.391e-10
 46.14595     53.4 9.147e+03 1.563e-10
 46.17489     55.2 9.170e+03 1.686e-10
 46.19527     55.5 9.184e+03 1.712e-10
 46.22184     56.9 9.197e+03 1.582e-10
 46.26259     57.9 9.200e+03 1.488e-10
 46.28526     58.8 9.280e+03 1.701e-10
 46.30564     58.9 9.338e+03 1.852e-10
 46.34411     60.4 9.479e+03 2.583e-10
 46.38487     62.3 9.618e+03 3.086e-10
 46.42457     64.1 9.622e+03 3.189e-10
 46.44495     64.0 9.624e+03 3.412e-10
 46.45904     65.9 9.501e+03 2.876e-10
 46.47942     66.0 9.702e+03 3.403e-10
 46.50714     67.7 9.434e+03 2.673e-10
 46.54790     68.8 9.315e+03 2.123e-10
 46.58426     70.2 9.135e+03 1.789e-10
 46.60464     70.0 9.084e+03 1.710e-10
 46.62942     71.9 8.949e+03 1.543e-10
 46.67018     74.0 8.877e+03 1.374e-10
 46.71094     76.2 8.811e+03 1.169e-10
 46.74319     78.2 8.786e+03 9.877e-11
 46.75583     78.2 8.787e+03 1.011e-10
 46.76433     78.2 8.782e+03 1.005e-10
 46.79245     80.0 8.739e+03 9.101e-11
 46.83321     82.0 8.743e+03 9.125e-11
 46.87397     83.8 8.824e+03 9.756e-11
 46.90364     85.6 8.947e+03 1.173e-10
 46.92402     85.7 9.032e+03 1.300e-10
 46.95548     87.5 9.197e+03 1.673e-10
 46.99624     89.5 9.371e+03 2.101e-10
 47.02734     91.5 9.481e+03 2.438e-10
 47.04772     91.7 9.487e+03 2.440e-10
 47.06333     93.6 9.542e+03 2.609e-10
 47.08371     93.4 9.687e+03 2.937e-10
 47.11852     95.2 9.630e+03 2.802e-10
 47.15928     97.0 9.604e+03 2.776e-10
 47.20003     98.7 9.653e+03 2.913e-10
 47.22302    100.3 9.797e+03 3.439e-10
 47.24340     99.5 9.686e+03 3.229e-10
 47.28155    100.9 1.028e+04 4.920e-10
 47.31149    102.3 1.126e+04 8.540e-10
 47.33187    101.6 1.182e+04 1.103e-09
 47.35278    100.9 1.242e+04 1.518e-09
 47.37232    100.5 1.302e+04 2.097e-09
 47.38261    100.3 1.280e+04 1.905e-09
 47.39354    100.5 1.329e+04 2.519e-09
 47.41382    100.7 1.358e+04 2.721e-09
 47.43420    100.6 1.358e+04 2.610e-09
 47.45217    100.0 1.356e+04 2.394e-09
 47.46115     99.4 1.298e+04 1.892e-09
 47.46356     98.7 1.296e+04 1.834e-09
 47.47496     97.5 1.285e+04 1.684e-09
 47.49534     96.0 1.280e+04 1.602e-09
 47.51571     94.9 1.285e+04 1.642e-09
 47.53201     93.6 1.288e+04 1.658e-09
 47.54230     94.3 1.246e+04 1.310e-09
 47.56686     92.4 1.252e+04 1.321e-09
 47.59564     90.2 1.223e+04 1.235e-09
 47.61602     90.0 1.165e+04 9.088e-10
 47.64837     87.4 1.181e+04 9.991e-10
 47.67884     84.7 1.220e+04 1.320e-09
 47.69170     83.9 1.224e+04 1.636e-09
 47.70189     84.1 1.208e+04 1.525e-09
 47.71951     83.3 1.229e+04 1.747e-09
 47.73752     82.6 1.224e+04 1.716e-09
 47.74771     82.8 1.213e+04 1.645e-09
 47.76026     82.5 1.169e+04 1.331e-09
 47.77154     82.2 1.160e+04 1.275e-09
 47.78173     82.5 1.142e+04 1.177e-09
 47.81131     81.5 1.081e+04 7.867e-10
 47.84139     79.5 9.684e+03 4.137e-10
 47.86177     80.2 9.633e+03 4.047e-10
 47.87979     79.1 8.784e+03 2.603e-10
 47.90017     80.1 8.774e+03 2.602e-10
 47.93368     80.6 8.409e+03 2.037e-10
 47.97444     81.6 8.210e+03 1.718e-10
 48.00108     82.8 8.123e+03 1.548e-10
 48.02146     83.2 8.143e+03 1.590e-10
 48.05596     84.4 8.180e+03 1.622e-10
 48.09671     85.6 8.257e+03 1.738e-10
 48.13747     86.8 8.424e+03 2.000e-10
 48.16077     87.7 8.731e+03 2.583e-10
 48.16686     87.6 8.789e+03 2.743e-10
 48.18432     89.0 8.591e+03 2.373e-10
 48.21899     90.0 8.980e+03 3.226e-10
 48.25975     91.1 9.416e+03 4.454e-10
 48.30008     92.3 9.792e+03 5.787e-10
 48.32046     92.2 9.449e+03 4.681e-10
 48.34126     93.2 9.662e+03 5.423e-10
 48.38202     94.1 9.796e+03 5.954e-10
 48.42278     94.3 1.002e+04 6.613e-10
 48.44809     94.4 1.045e+04 8.076e-10
 48.46470     96.6 1.044e+04 8.360e-10
 48.48015     96.3 1.058e+04 8.384e-10
 48.49401     96.0 1.101e+04 1.029e-09
 48.51429     95.6 1.130e+04 1.200e-09
 48.53467     94.5 1.175e+04 1.449e-09
 48.54961     89.4 1.409e+04 2.578e-09
 48.55980     86.1 1.525e+04 3.482e-09
 48.57543     80.4 1.630e+04 6.204e-09
 48.58948     81.0 1.536e+04 6.298e-09
 48.59379     81.0 1.513e+04 5.975e-09
 48.59497     81.5 1.538e+04 6.621e-09
 48.60080     81.1 1.533e+04 6.500e-09
 48.61099     80.9 1.487e+04 5.063e-09
 48.62118     80.7 1.482e+04 4.887e-09
 48.62940     76.2 1.786e+04 4.141e-09
 48.63964     76.2 1.680e+04 2.523e-09
 48.65694     64.0 1.542e+04 1.156e-09
 48.67732     53.5 1.165e+04 1.026e-09
 48.69770     51.8 1.205e+04 1.524e-09
 48.70930     51.6 1.220e+04 1.854e-09
 48.71949     51.9 1.177e+04 1.503e-09
 48.73205     51.9 1.198e+04 1.645e-09
 48.74224     51.4 1.197e+04 1.609e-09
 48.75884     50.9 1.205e+04 1.420e-09
 48.77895     49.7 1.173e+04 1.037e-09
 48.78914     50.9 1.187e+04 1.209e-09
 48.79960     49.4 1.122e+04 8.476e-10
 48.81998     48.1 1.046e+04 6.002e-10
 48.84036     47.5 1.005e+04 4.501e-10
 48.85880     47.1 9.782e+03 3.439e-10
 48.86899     48.0 9.986e+03 4.246e-10
 48.87412     47.2 9.750e+03 3.453e-10
 48.88431     45.6 9.849e+03 3.011e-10
 48.90149     42.9 1.060e+04 3.772e-10
 48.92187     38.9 1.170e+04 6.521e-10
 48.93864     36.0 1.228e+04 1.234e-09
 48.94883     36.2 1.288e+04 1.371e-09
 48.96263     34.7 1.323e+04 2.288e-09
 48.98301     34.6 1.358e+04 2.842e-09
 49.00339     34.0 1.401e+04 2.608e-09
 49.01620     31.6 1.417e+04 1.481e-09
 49.02110     28.3 1.321e+04 8.650e-10
 49.02867     28.7 1.398e+04 1.139e-09
 49.04415     21.1 1.151e+04 5.449e-10
 49.07481     16.1 1.020e+04 4.755e-10
 49.09852     14.1 1.014e+04 5.129e-10
 49.11890     12.7 1.093e+04 7.321e-10
 49.15643     11.1 1.072e+04 6.835e-10
 49.19719      9.1 1.036e+04 5.363e-10
 49.23783      6.8 1.001e+04 4.082e-10
 49.27859      2.9 1.046e+04 5.161e-10
 49.30054      1.5 1.025e+04 4.497e-10
 49.32092      2.3 9.930e+03 3.689e-10
 49.36022      1.2 9.909e+03 3.785e-10
 49.39752      0.4 9.971e+03 4.073e-10
 49.41790     -0.8 1.017e+04 4.295e-10
 49.43145     -0.9 1.031e+04 4.493e-10
 49.44242     -1.2 1.045e+04 4.776e-10
 49.45261     -0.6 1.044e+04 5.044e-10
 49.47211     -1.2 1.076e+04 5.987e-10
 49.48736     -2.0 1.125e+04 7.500e-10
 49.49755     -3.3 1.158e+04 8.302e-10
 49.51287     -4.7 1.220e+04 1.159e-09
 49.53325     -5.9 1.275e+04 1.599e-09
 49.55362     -6.9 1.322e+04 2.033e-09
 49.56721     -7.9 1.349e+04 2.258e-09
 49.57740     -9.0 1.343e+04 2.161e-09
 49.58450    -10.1 1.342e+04 2.163e-09
 49.59469     -9.8 1.355e+04 2.316e-09
 49.61476    -10.9 1.324e+04 1.990e-09
 49.63514    -12.4 1.263e+04 1.453e-09
 49.64705    -14.3 1.190e+04 1.018e-09
 49.65724    -15.5 1.132e+04 8.096e-10
 49.68619    -16.3 1.123e+04 7.584e-10
 49.71648    -18.3 1.053e+04 5.668e-10
 49.72657    -18.1 1.055e+04 5.890e-10
 49.73704    -19.3 1.017e+04 4.642e-10
 49.76770    -20.9 9.991e+03 4.615e-10
 49.80856    -22.0 9.929e+03 4.839e-10
 49.84847    -23.4 9.708e+03 4.516e-10
 49.86884    -22.9 9.527e+03 4.053e-10
 49.87659    -24.3 9.155e+03 3.236e-10
 49.89697    -23.4 9.016e+03 2.886e-10
 49.93083    -24.5 8.811e+03 2.576e-10
 49.97159    -25.5 8.789e+03 2.568e-10
 50.01235    -26.2 8.954e+03 3.116e-10
 50.03628    -26.5 9.198e+03 3.928e-10
 50.05666    -25.2 9.137e+03 3.729e-10
 50.09387    -25.3 9.419e+03 4.615e-10
 50.13262    -25.3 9.528e+03 4.956e-10
 50.15300    -24.4 9.495e+03 4.838e-10
 50.17538    -24.5 9.472e+03 4.806e-10
 50.19597    -24.5 9.344e+03 4.479e-10
 50.21635    -23.8 9.582e+03 4.901e-10
 50.25690    -23.8 9.424e+03 4.476e-10
 50.29766    -23.8 9.333e+03 4.292e-10
 50.33528    -23.7 9.340e+03 4.299e-10
 50.35566    -24.3 9.505e+03 4.426e-10
 50.37917    -24.7 9.847e+03 5.120e-10
 50.41677    -25.2 1.031e+04 6.358e-10
 50.43715    -24.1 9.890e+03 5.136e-10
 50.46069    -24.8 1.038e+04 6.425e-10
 50.49497    -25.8 1.075e+04 7.595e-10
 50.51534    -27.2 1.022e+04 5.609e-10
 50.54221    -28.4 1.014e+04 5.043e-10
 50.58297    -29.6 1.007e+04 4.463e-10
 50.62372    -31.0 1.009e+04 4.204e-10
 50.65465    -32.5 1.013e+04 4.100e-10
 50.67503    -33.3 1.001e+04 3.455e-10
 50.69495    -33.6 1.014e+04 3.900e-10
 50.71091    -34.1 1.017e+04 4.114e-10
 50.72120    -33.7 1.029e+04 4.550e-10
 50.73440    -34.4 1.027e+04 4.643e-10
 50.74449    -34.7 1.029e+04 4.761e-10
 50.75599    -35.0 1.029e+04 4.783e-10
 50.78666    -35.3 1.018e+04 4.422e-10
 50.81434    -35.5 9.977e+03 3.717e-10
 50.82444    -35.6 1.017e+04 4.267e-10
 50.83751    -35.8 1.012e+04 3.944e-10
 50.86817    -36.0 9.992e+03 3.403e-10
 50.90903    -36.0 9.717e+03 2.569e-10
 50.94979    -36.0 9.491e+03 1.940e-10
 50.97403    -36.0 9.351e+03 1.608e-10
 50.98893    -36.4 9.627e+03 2.124e-10
 51.00545    -36.5 9.292e+03 1.517e-10
 51.03131    -36.2 9.208e+03 1.406e-10
 51.07206    -35.7 9.161e+03 1.418e-10
 51.11282    -34.9 9.187e+03 1.650e-10
 51.13372    -33.6 9.277e+03 1.951e-10
 51.15410    -33.6 9.489e+03 2.196e-10
 51.19434    -31.8 9.627e+03 2.477e-10
 51.23510    -29.3 9.820e+03 2.604e-10
 51.26922    -26.0 1.011e+04 2.627e-10
 51.28677    -25.2 9.944e+03 2.615e-10
 51.29341    -26.2 1.123e+04 4.133e-10
 51.30633    -22.6 1.060e+04 3.307e-10
 51.32661    -20.5 1.037e+04 3.156e-10
 51.34699    -20.2 1.182e+04 3.196e-10
 51.36287    -36.2 3.842e+04 4.418e-10
 51.37306    -32.1 2.814e+04 1.434e-09
 51.38260    -48.4 5.588e+04 2.387e-09
 51.39274    -57.9 4.489e+04 1.659e-08
 51.40269    -65.2 2.526e+04 5.156e-07
 51.40779    -57.6 3.185e+04 1.025e-07
 51.41312    -68.3 3.245e+04 2.230e-07
 51.42074    -78.4 3.128e+04 5.193e-07
 51.42369    -86.4 3.126e+04 5.716e-07
 51.42558    -88.2 2.381e+04 2.194e-06
 51.42770    -87.4 3.872e+04 1.728e-07
 51.43090    -96.2 3.728e+04 1.600e-07
 51.43600   -103.6 3.456e+04 1.280e-07
 51.44109   -107.9 3.176e+04 1.140e-07
 51.44511   -109.7 3.093e+04 1.076e-07
 51.44769   -106.3 3.029e+04 8.585e-08
 51.45388   -109.9 2.786e+04 7.630e-08
 51.46407   -111.3 2.702e+04 5.726e-08
 51.47426   -111.8 2.660e+04 4.212e-08
 51.48254   -111.8 2.579e+04 3.319e-08
 51.48763   -110.4 2.430e+04 2.843e-08
 51.49223   -110.8 2.355e+04 2.411e-08
 51.49732   -111.5 2.436e+04 3.020e-08
 51.50483   -111.6 2.378e+04 2.697e-08
 51.51502   -111.7 2.343e+04 2.521e-08
 51.52246   -112.1 2.325e+04 2.477e-08
 51.52756   -111.4 2.241e+04 2.051e-08
 51.53540   -111.8 2.239e+04 2.054e-08
 51.54558   -112.3 2.240e+04 2.249e-08
 51.55577   -112.8 2.268e+04 2.648e-08
 51.56238   -113.3 2.299e+04 3.136e-08
 51.56478   -112.4 2.319e+04 1.730e-08
 51.56836   -113.4 2.353e+04 2.623e-08
 51.57615   -114.1 2.367e+04 2.677e-08
 51.58634   -114.7 2.376e+04 2.599e-08
 51.59653   -115.3 2.365e+04 2.221e-08
 51.60230   -115.9 2.331e+04 1.709e-08
 51.60740   -116.3 2.318e+04 7.928e-09
 51.61691   -117.3 2.198e+04 6.045e-09
 51.62710   -118.6 2.037e+04 4.545e-09
 51.63430   -119.7 1.884e+04 3.527e-09
 51.63924   -120.1 1.896e+04 3.927e-09
 51.64223   -120.4 1.774e+04 3.046e-09
 51.65262   -120.6 1.768e+04 2.860e-09
 51.67206   -121.1 1.627e+04 2.011e-09
 51.68225   -120.7 1.333e+04 1.204e-09
 51.69343   -121.7 1.190e+04 8.226e-10
 51.70544   -122.4 1.121e+04 6.019e-10
 51.71563   -122.8 1.122e+04 6.054e-10
 51.73419   -122.7 1.085e+04 5.235e-10
 51.75190   -122.0 1.060e+04 4.684e-10
 51.76209   -120.5 1.031e+04 3.893e-10
 51.77495   -119.6 1.020e+04 3.443e-10
 51.80561   -118.8 1.014e+04 3.110e-10
 51.83752   -117.9 1.004e+04 2.869e-10
 51.85790   -117.8 1.011e+04 3.068e-10
 51.88723   -116.5 9.953e+03 2.865e-10
 51.91179   -115.5 9.910e+03 2.792e-10
 51.93216   -114.1 9.642e+03 2.299e-10
 51.96874   -113.7 9.645e+03 2.288e-10
 52.00950   -113.5 9.766e+03 2.374e-10
 52.05026   -113.4 9.878e+03 2.504e-10
 52.07147   -113.5 9.938e+03 2.594e-10
 52.09185   -112.6 9.882e+03 2.449e-10
 52.12167   -113.0 9.995e+03 2.637e-10
 52.14205   -113.2 1.020e+04 2.936e-10
 52.17254   -113.8 1.020e+04 2.902e-10
 52.21078   -114.3 1.012e+04 2.689e-10
 52.23116   -113.8 1.040e+04 3.091e-10
 52.25405   -114.3 1.028e+04 2.755e-10
 52.29481   -114.8 1.014e+04 2.376e-10
 52.33557   -115.3 1.004e+04 2.110e-10
 52.37047   -115.6 1.001e+04 2.000e-10
 52.39085   -115.5 1.043e+04 2.487e-10
 52.40582   -115.8 1.037e+04 2.448e-10
 52.42620   -116.4 1.044e+04 2.457e-10
 52.45784   -116.5 1.038e+04 2.443e-10
 52.49860   -116.4 1.038e+04 2.465e-10
 52.53016   -116.2 1.038e+04 2.439e-10
 52.55054   -116.7 1.051e+04 2.654e-10
 52.58012   -116.5 1.040e+04 2.375e-10
 52.62088   -116.2 1.028e+04 2.102e-10
 52.66163   -115.7 1.017e+04 1.911e-10
 52.68985   -115.0 1.010e+04 1.803e-10
 52.71023   -115.7 1.012e+04 1.871e-10
 52.74315   -114.8 1.012e+04 1.892e-10
 52.78391   -113.9 1.015e+04 1.955e-10
 52.82467   -112.9 1.024e+04 2.109e-10
 52.84954   -111.9 1.037e+04 2.381e-10
 52.86992   -112.4 1.039e+04 2.459e-10
 52.90618   -111.3 1.055e+04 2.836e-10
 52.94694   -110.3 1.066e+04 3.196e-10
 52.97412   -109.5 1.071e+04 3.384e-10
 52.99450   -110.2 1.069e+04 3.441e-10
 53.00923   -109.4 1.053e+04 3.146e-10
 53.02961   -110.4 1.061e+04 3.248e-10
 53.06922   -109.6 1.033e+04 2.717e-10
 53.10997   -108.4 1.001e+04 2.169e-10
 53.14854   -106.9 9.736e+03 1.732e-10
 53.16892   -107.7 9.782e+03 1.813e-10
 53.19149   -105.9 9.562e+03 1.499e-10
 53.23225   -104.0 9.460e+03 1.329e-10
 53.25827   -102.2 9.442e+03 1.274e-10
 53.27865   -102.0 9.432e+03 1.267e-10
 53.30823   -100.3 9.453e+03 1.272e-10
 53.32861   -100.5 9.533e+03 1.455e-10
 53.35452    -99.3 9.794e+03 1.683e-10
 53.39528    -98.2 1.021e+04 2.434e-10
 53.43604    -97.0 1.062e+04 3.582e-10
 53.46651    -97.4 1.103e+04 5.207e-10
 53.47791    -97.3 1.117e+04 6.133e-10
 53.48810    -98.0 1.137e+04 6.701e-10
 53.50717    -98.1 1.145e+04 7.370e-10
 53.52755    -98.1 1.145e+04 7.556e-10
 53.54232    -97.6 1.142e+04 7.539e-10
 53.56280    -98.0 1.142e+04 7.920e-10
 53.58879    -96.7 1.133e+04 7.566e-10
 53.60907    -96.7 1.133e+04 7.458e-10
 53.62741    -96.8 1.132e+04 7.253e-10
 53.63760    -97.1 1.133e+04 7.501e-10
 53.64983    -97.3 1.136e+04 7.374e-10
 53.67020    -97.5 1.136e+04 7.192e-10
 53.68430    -97.8 1.129e+04 6.999e-10
 53.69449    -98.5 1.122e+04 6.837e-10
 53.72125    -98.3 1.111e+04 6.689e-10
 53.76211    -97.6 1.079e+04 5.896e-10
 53.78729    -96.6 1.037e+04 4.755e-10
 53.80767    -97.5 1.057e+04 5.351e-10
 53.82657    -96.3 1.016e+04 4.188e-10
 53.84695    -96.8 1.004e+04 3.938e-10
 53.88438    -95.4 9.771e+03 3.299e-10
 53.92514    -93.7 9.650e+03 3.107e-10
 53.94698    -91.8 9.626e+03 3.090e-10
 53.96736    -92.5 9.768e+03 3.544e-10
 54.00665    -90.3 9.754e+03 3.687e-10
 54.04741    -88.1 9.848e+03 3.939e-10
 54.08629    -86.0 9.927e+03 4.195e-10
 54.10667    -86.4 1.004e+04 4.455e-10
 54.11072    -84.5 1.012e+04 4.872e-10
 54.13110    -84.4 1.011e+04 4.954e-10
 54.16969    -82.4 1.042e+04 5.937e-10
 54.21045    -80.8 1.115e+04 8.211e-10
 54.24092    -80.8 1.200e+04 1.251e-09
 54.25260    -81.0 1.271e+04 1.819e-09
 54.25757    -81.0 1.280e+04 1.840e-09
 54.26616    -81.5 1.353e+04 2.519e-09
 54.28158    -81.2 1.435e+04 3.585e-09
 54.30196    -80.9 1.508e+04 4.746e-09
 54.32234    -80.4 1.569e+04 5.896e-09
 54.33582    -79.9 1.614e+04 6.750e-09
 54.34601    -80.7 1.705e+04 7.449e-09
 54.36309    -80.3 1.713e+04 7.552e-09
 54.38347    -79.8 1.717e+04 7.495e-09
 54.39468    -79.3 1.698e+04 6.932e-09
 54.40487    -79.5 1.681e+04 7.392e-09
 54.41566    -78.9 1.647e+04 6.348e-09
 54.42585    -79.8 1.722e+04 6.941e-09
 54.44461    -79.2 1.672e+04 5.942e-09
 54.46499    -78.5 1.620e+04 5.112e-09
 54.48532    -77.6 1.569e+04 4.422e-09
 54.50570    -77.1 1.550e+04 4.328e-09
 54.52613    -75.8 1.508e+04 3.778e-09
 54.53675    -74.4 1.466e+04 3.296e-09
 54.54694    -74.5 1.467e+04 3.272e-09
 54.56516    -72.9 1.426e+04 2.877e-09
 54.57535    -73.5 1.465e+04 3.339e-09
 54.58726    -71.8 1.441e+04 3.048e-09
 54.60764    -70.2 1.420e+04 2.815e-09
 54.62802    -68.4 1.401e+04 2.637e-09
 54.64501    -66.5 1.393e+04 2.533e-09
 54.65520    -66.8 1.383e+04 2.844e-09
 54.66864    -64.8 1.386e+04 2.814e-09
 54.67883    -65.1 1.469e+04 3.287e-09
 54.68916    -63.3 1.477e+04 3.286e-09
 54.70954    -61.4 1.484e+04 3.281e-09
 54.72485    -59.3 1.497e+04 3.317e-09
 54.73504    -59.5 1.448e+04 3.430e-09
 54.75030    -57.4 1.471e+04 3.577e-09
 54.77068    -55.4 1.503e+04 3.815e-09
 54.79106    -53.5 1.532e+04 4.067e-09
 54.80470    -51.3 1.563e+04 4.354e-09
 54.81417    -51.4 1.487e+04 3.785e-09
 54.82090    -51.8 1.597e+04 5.081e-09
 54.83181    -49.5 1.644e+04 5.601e-09
 54.85219    -47.4 1.694e+04 6.134e-09
 54.87257    -45.2 1.736e+04 6.502e-09
 54.88454    -42.7 1.769e+04 6.710e-09
 54.89473    -43.5 1.694e+04 6.444e-09
 54.91333    -41.0 1.721e+04 6.962e-09
 54.93371    -38.6 1.743e+04 7.267e-09
 54.95279    -36.2 1.767e+04 7.262e-09
 54.96298    -37.2 1.866e+04 8.743e-09
 54.96439    -35.5 2.010e+04 8.311e-09
 54.96943    -36.5 1.920e+04 8.572e-09
 54.97946    -35.6 1.930e+04 8.902e-09
 54.98965    -34.8 1.939e+04 9.486e-09
 54.99911    -34.7 2.054e+04 1.068e-08
 55.00421    -37.6 2.149e+04 1.046e-08
 55.01003    -39.1 2.449e+04 1.374e-08
 55.02022    -41.3 2.692e+04 2.314e-08
 55.02882    -43.8 2.743e+04 4.870e-08
 55.03392    -46.4 2.634e+04 1.477e-07
 55.03803    -46.2 2.653e+04 1.434e-07
 55.04154    -46.4 2.636e+04 1.635e-07
 55.04408    -49.2 2.595e+04 1.540e-07
 55.04819    -49.5 2.574e+04 1.977e-07
 55.05329    -50.2 2.549e+04 2.448e-07
 55.05838    -51.2 2.521e+04 3.377e-07
 55.06150    -53.2 2.476e+04 5.276e-07
 55.06404    -55.8 2.514e+04 4.642e-07
 55.06684    -59.8 2.438e+04 8.125e-07
 55.06939    -62.3 2.210e+04 2.226e-06
 55.07367    -67.9 2.100e+04 3.831e-06
 55.07876    -74.1 2.031e+04 5.490e-06
 55.08146    -81.1 2.004e+04 6.563e-06
 55.08401    -85.4 2.134e+04 3.083e-06
 55.08895    -92.1 2.123e+04 3.518e-06
 55.09405   -101.3 2.147e+04 4.343e-06
 55.09887   -114.0 2.153e+04 5.968e-06
 55.10142   -112.3 2.290e+04 3.324e-06
 55.10236   -126.3 2.240e+04 5.106e-06
 55.10491   -128.9 2.187e+04 4.997e-06
 55.10933   -142.5 2.125e+04 5.691e-06
 55.11443   -156.3 2.025e+04 5.773e-06
 55.11883   -168.6 2.040e+04 4.096e-06
 55.12138   -164.7 2.001e+04 4.992e-06
 55.12462   -175.3 2.049e+04 3.497e-06
 55.12971   -185.4 2.238e+04 1.621e-06
 55.13481   -195.4 2.599e+04 4.939e-07
 55.13788   -204.9 3.104e+04 1.223e-07
 55.13932   -204.5 3.150e+04 1.030e-07
 55.14134   -203.6 3.103e+04 1.276e-07
 55.14500   -212.8 3.416e+04 4.004e-08
 55.15266   -223.0 3.428e+04 1.647e-08
 55.15880   -240.2 2.363e+04 4.779e-09
 55.16390   -237.4 2.772e+04 5.652e-09
 55.17090   -244.1 1.937e+04 3.443e-09
 55.17599   -244.0 1.702e+04 3.224e-09
 55.18326   -244.8 1.639e+04 3.124e-09
 55.19344   -244.8 1.622e+04 3.334e-09
 55.19873   -244.9 1.630e+04 3.610e-09
 55.20382   -244.4 1.657e+04 3.212e-09
 55.21382   -244.1 1.656e+04 3.242e-09
 55.22401   -244.0 1.647e+04 3.256e-09
 55.23689   -244.0 1.640e+04 3.313e-09
 55.24713   -241.7 1.574e+04 3.005e-09
 55.25977   -240.8 1.531e+04 3.048e-09
 55.27357   -239.7 1.483e+04 2.938e-09
 55.28376   -239.0 1.476e+04 2.519e-09
 55.30053   -237.9 1.427e+04 2.321e-09
 55.32091   -236.5 1.376e+04 2.017e-09
 55.34129   -235.0 1.321e+04 1.674e-09
 55.35342   -233.3 1.266e+04 1.370e-09
 55.36361   -232.7 1.259e+04 1.362e-09
 55.37901   -230.9 1.209e+04 1.124e-09
 55.38920   -229.4 1.193e+04 1.072e-09
 55.40243   -227.5 1.148e+04 8.673e-10
 55.42281   -225.4 1.107e+04 6.974e-10
 55.43326   -223.0 1.072e+04 5.625e-10
 55.44345   -222.2 1.065e+04 5.646e-10
 55.46357   -219.8 1.044e+04 4.640e-10
 55.48394   -217.7 1.038e+04 4.039e-10
 55.50301   -216.4 1.040e+04 3.720e-10
 55.51320   -215.0 1.034e+04 3.730e-10
 55.52109   -213.6 1.029e+04 3.531e-10
 55.53138   -213.8 1.029e+04 3.547e-10
 55.55547   -210.4 1.006e+04 3.242e-10
 55.59623   -206.4 9.698e+03 2.927e-10
 55.63698   -202.6 9.448e+03 2.673e-10
 55.66280   -199.1 9.311e+03 2.449e-10
 55.68318   -197.8 9.336e+03 2.518e-10
 55.71850   -194.7 9.210e+03 2.286e-10
 55.75926   -191.6 9.106e+03 2.078e-10
 55.79525   -188.6 9.023e+03 1.920e-10
 55.81562   -187.5 9.137e+03 2.224e-10
 55.82249   -184.6 9.103e+03 2.165e-10
 55.84287   -183.6 9.115e+03 2.201e-10
 55.88153   -180.9 9.102e+03 2.177e-10
 55.92229   -178.2 9.103e+03 2.180e-10
 55.96180   -175.7 9.162e+03 2.278e-10
 55.98218   -174.7 9.220e+03 2.492e-10
 56.00381   -172.4 9.288e+03 2.675e-10
 56.04457   -170.0 9.370e+03 2.902e-10
 56.07940   -167.6 9.460e+03 3.142e-10
 56.09978   -167.5 9.731e+03 3.873e-10
 56.12149   -165.2 9.808e+03 4.067e-10
 56.14187   -164.4 9.684e+03 3.728e-10
 56.16684   -162.1 9.631e+03 3.553e-10
 56.20760   -159.7 9.582e+03 3.315e-10
 56.24836   -157.5 9.517e+03 3.016e-10
 56.28118   -155.3 9.423e+03 2.736e-10
 56.30156   -154.6 9.139e+03 2.204e-10
 56.32987   -152.3 9.090e+03 2.148e-10
 56.36355   -149.9 9.074e+03 2.135e-10
 56.38393   -150.5 9.069e+03 2.149e-10
 56.41139   -148.1 9.065e+03 2.146e-10
 56.44087   -145.6 9.033e+03 2.198e-10
 56.46125   -144.8 9.057e+03 2.244e-10
 56.49291   -142.4 9.100e+03 2.376e-10
 56.53366   -139.9 9.214e+03 2.592e-10
 56.57442   -137.5 9.380e+03 2.901e-10
 56.60055   -135.1 9.602e+03 3.337e-10
 56.62093   -134.4 9.398e+03 2.943e-10
 56.64770   -132.1 9.504e+03 3.164e-10
 56.66808   -132.8 9.508e+03 3.179e-10
 56.69670   -130.6 9.658e+03 3.456e-10
 56.73746   -128.6 9.986e+03 4.001e-10
 56.76024   -126.7 1.067e+04 5.288e-10
 56.78062   -124.8 9.575e+03 2.995e-10
 56.81897   -122.8 1.050e+04 4.212e-10
 56.85973   -121.0 1.160e+04 6.757e-10
 56.89020   -120.2 1.209e+04 8.869e-10
 56.90955   -120.5 1.251e+04 1.224e-09
 56.91974   -119.5 1.222e+04 1.112e-09
 56.93086   -119.4 1.271e+04 1.523e-09
 56.94184   -119.2 1.310e+04 1.916e-09
 56.95203   -121.1 1.306e+04 1.976e-09
 56.97162   -121.0 1.326e+04 2.179e-09
 56.98939   -121.1 1.337e+04 2.260e-09
 56.99958   -119.8 1.387e+04 2.662e-09
 57.01238   -120.3 1.393e+04 2.705e-09
 57.03276   -121.2 1.389e+04 2.655e-09
 57.05314   -122.8 1.375e+04 2.540e-09
 57.06924   -125.8 1.372e+04 2.503e-09
 57.07943   -127.6 1.659e+04 3.619e-09
 57.08392   -134.3 1.853e+04 4.666e-09
 57.09411   -138.8 1.835e+04 4.514e-09
 57.11427   -145.3 1.875e+04 6.196e-09
 57.13465   -151.1 1.847e+04 7.077e-09
 57.14908   -155.9 1.767e+04 7.288e-09
 57.15927   -158.4 1.732e+04 7.442e-09
 57.17541   -162.0 1.571e+04 4.645e-09
 57.19579   -166.0 1.428e+04 2.452e-09
 57.21580   -170.7 1.305e+04 1.347e-09
 57.22599   -172.9 1.248e+04 1.032e-09
 57.22893   -177.4 1.200e+04 8.637e-10
 57.23911   -180.8 1.194e+04 8.918e-10
 57.25693   -183.6 1.195e+04 9.422e-10
 57.27731   -185.7 1.305e+04 1.580e-09
 57.29769   -186.8 1.439e+04 2.869e-09
 57.30877   -187.6 1.541e+04 4.468e-09
 57.31896   -188.4 1.524e+04 4.194e-09
 57.33844   -189.5 1.581e+04 5.282e-09
 57.35788   -190.9 1.601e+04 5.716e-09
 57.36807   -191.1 1.556e+04 5.069e-09
 57.37842   -192.6 1.559e+04 5.160e-09
 57.38861   -193.1 1.479e+04 3.616e-09
 57.39958   -194.3 1.468e+04 3.520e-09
 57.41996   -195.4 1.443e+04 3.216e-09
 57.44034   -196.4 1.417e+04 2.866e-09
 57.45827   -197.4 1.391e+04 2.545e-09
 57.46846   -198.1 1.339e+04 1.881e-09
 57.48110   -198.8 1.329e+04 1.814e-09
 57.49995   -199.4 1.313e+04 1.721e-09
 57.51014   -200.0 1.338e+04 1.842e-09
 57.52186   -200.4 1.306e+04 1.677e-09
 57.53811   -200.7 1.270e+04 1.489e-09
 57.54830   -201.4 1.260e+04 1.570e-09
 57.56261   -201.5 1.234e+04 1.403e-09
 57.58299   -201.4 1.202e+04 1.186e-09
 57.60337   -201.1 1.169e+04 9.582e-10
 57.61796   -200.8 1.137e+04 7.599e-10
 57.62815   -200.8 1.160e+04 9.274e-10
 57.64203   -200.5 1.125e+04 7.288e-10
 57.65222   -201.3 1.109e+04 6.870e-10
 57.66451   -200.8 1.074e+04 5.604e-10
 57.68489   -200.3 1.049e+04 4.803e-10
 57.69780   -199.6 1.037e+04 4.320e-10
 57.70799   -199.7 1.037e+04 4.243e-10
 57.72565   -198.9 1.030e+04 3.959e-10
 57.75631   -198.1 1.027e+04 3.777e-10
 57.78430   -196.0 1.014e+04 3.426e-10
 57.80468   -196.5 1.003e+04 3.089e-10
 57.83731   -194.5 9.948e+03 2.774e-10
 57.85769   -194.6 9.660e+03 2.136e-10
 57.87868   -193.0 9.642e+03 1.989e-10
 57.91944   -191.4 9.641e+03 1.925e-10
 57.96020   -189.9 9.632e+03 1.894e-10
 57.99700   -188.4 9.632e+03 1.889e-10
 58.01738   -187.9 9.681e+03 1.963e-10
 58.04172   -186.6 9.888e+03 2.202e-10
 58.06845   -185.4 1.017e+04 2.854e-10
 58.08883   -185.2 1.028e+04 3.210e-10
 58.11295   -184.2 1.044e+04 3.761e-10
 58.13323   -184.0 1.054e+04 4.193e-10
 58.15361   -183.9 1.069e+04 4.870e-10
 58.16668   -184.0 1.082e+04 5.506e-10
 58.17687   -184.1 1.107e+04 6.654e-10
 58.19437   -184.2 1.139e+04 7.911e-10
 58.21033   -184.4 1.173e+04 9.093e-10
 58.22052   -184.7 1.210e+04 1.066e-09
 58.23512   -185.2 1.244e+04 1.226e-09
 58.24652   -185.8 1.263e+04 1.350e-09
 58.25671   -187.3 1.374e+04 2.077e-09
 58.27588   -188.1 1.394e+04 2.215e-09
 58.29626   -188.8 1.414e+04 2.254e-09
 58.31618   -189.4 1.427e+04 2.242e-09
 58.32637   -191.0 1.534e+04 3.602e-09
 58.33702   -191.3 1.536e+04 3.358e-09
 58.35240   -191.5 1.530e+04 3.140e-09
 58.36259   -193.5 1.591e+04 4.786e-09
 58.37778   -193.7 1.572e+04 4.814e-09
 58.39602   -193.5 1.551e+04 4.885e-09
 58.40621   -193.0 1.520e+04 5.137e-09
 58.41854   -192.5 1.512e+04 5.063e-09
 58.43892   -191.7 1.511e+04 5.066e-09
 58.45929   -190.8 1.519e+04 5.193e-09
 58.47587   -189.8 1.531e+04 5.309e-09
 58.48606   -189.5 1.498e+04 4.531e-09
 58.49448   -188.6 1.510e+04 4.296e-09
 58.50467   -189.6 1.470e+04 2.284e-09
 58.52043   -188.9 1.467e+04 1.838e-09
 58.54081   -188.3 1.455e+04 1.430e-09
 58.55571   -187.8 1.431e+04 1.095e-09
 58.56590   -188.4 1.341e+04 8.453e-10
 58.58157   -187.9 1.300e+04 7.030e-10
 58.60195   -187.3 1.257e+04 6.169e-10
 58.62233   -186.6 1.221e+04 5.733e-10
 58.63556   -185.7 1.201e+04 5.534e-10
 58.63959   -185.0 1.189e+04 5.828e-10
 58.64674   -185.5 1.150e+04 4.672e-10
 58.66309   -184.3 1.157e+04 4.824e-10
 58.68346   -183.2 1.165e+04 5.058e-10
 58.70384   -182.1 1.175e+04 5.382e-10
 58.71540   -181.0 1.186e+04 5.830e-10
 58.72559   -180.5 1.201e+04 6.304e-10
 58.74460   -179.5 1.213e+04 6.986e-10
 58.76498   -178.5 1.225e+04 7.834e-10
 58.77863   -177.4 1.240e+04 8.815e-10
 58.78851   -177.9 1.228e+04 8.451e-10
 58.79524   -177.3 1.240e+04 9.433e-10
 58.80574   -176.2 1.259e+04 1.090e-09
 58.82612   -175.1 1.280e+04 1.234e-09
 58.84650   -174.0 1.302e+04 1.352e-09
 58.86490   -173.0 1.320e+04 1.416e-09
 58.87509   -172.6 1.367e+04 1.968e-09
 58.88726   -171.7 1.393e+04 2.121e-09
 58.90763   -170.8 1.405e+04 2.161e-09
 58.92071   -170.0 1.407e+04 2.150e-09
 58.93089   -170.7 1.365e+04 1.802e-09
 58.94474   -169.8 1.358e+04 1.715e-09
 58.95493   -169.3 1.444e+04 2.769e-09
 58.96877   -168.4 1.439e+04 2.632e-09
 58.98915   -167.5 1.419e+04 2.353e-09
 59.00953   -166.5 1.389e+04 2.033e-09
 59.02459   -165.5 1.356e+04 1.745e-09
 59.03478   -165.1 1.451e+04 2.901e-09
 59.05029   -164.1 1.423e+04 2.473e-09
 59.06278   -163.2 1.398e+04 2.136e-09
 59.07297   -164.1 1.383e+04 1.890e-09
 59.09105   -163.2 1.368e+04 1.748e-09
 59.10443   -162.3 1.352e+04 1.632e-09
 59.11462   -162.3 1.422e+04 2.201e-09
 59.13180   -161.4 1.405e+04 2.014e-09
 59.15218   -160.4 1.393e+04 1.876e-09
 59.17256   -159.3 1.391e+04 1.814e-09
 59.18428   -158.2 1.392e+04 1.806e-09
 59.19447   -158.8 1.449e+04 2.223e-09
 59.20486   -158.4 1.459e+04 2.233e-09
 59.21505   -160.2 1.429e+04 2.040e-09
 59.23370   -160.5 1.479e+04 2.115e-09
 59.25393   -161.3 1.571e+04 2.756e-09
 59.26412   -161.9 1.558e+04 2.867e-09
 59.27446   -162.4 1.635e+04 4.066e-09
 59.29484   -162.6 1.726e+04 6.290e-09
 59.31522   -162.6 1.823e+04 9.454e-09
 59.33378   -162.6 1.913e+04 1.266e-08
 59.34397   -164.2 1.854e+04 6.566e-09
 59.34693   -165.3 1.920e+04 7.047e-09
 59.35712   -167.2 1.746e+04 4.486e-09
 59.37635   -168.6 1.753e+04 4.438e-09
 59.39673   -170.0 1.738e+04 3.969e-09
 59.41362   -171.4 1.683e+04 3.338e-09
 59.42381   -174.1 1.504e+04 2.707e-09
 59.43749   -175.1 1.463e+04 2.598e-09
 59.45787   -175.7 1.422e+04 2.430e-09
 59.47825   -175.8 1.383e+04 2.266e-09
 59.48901   -175.9 1.352e+04 2.111e-09
 59.49403   -175.0 1.370e+04 2.188e-09
 59.50365   -175.2 1.352e+04 2.165e-09
 59.51901   -175.1 1.328e+04 2.001e-09
 59.53939   -174.9 1.303e+04 1.818e-09
 59.55977   -174.4 1.280e+04 1.637e-09
 59.57331   -173.9 1.259e+04 1.470e-09
 59.58350   -173.5 1.211e+04 1.169e-09
 59.60052   -172.8 1.192e+04 1.051e-09
 59.62089   -172.0 1.174e+04 9.476e-10
 59.64127   -170.6 1.171e+04 9.618e-10
 59.65315   -169.6 1.148e+04 8.427e-10
 59.66334   -169.1 1.109e+04 6.355e-10
 59.68204   -168.0 1.096e+04 5.581e-10
 59.70242   -166.6 1.084e+04 4.867e-10
 59.72280   -165.3 1.078e+04 4.361e-10
 59.75288   -164.1 1.039e+04 3.053e-10
 59.77335   -163.5 1.069e+04 3.684e-10
 59.79432   -161.2 1.050e+04 3.289e-10
 59.83508   -158.9 1.032e+04 2.914e-10
 59.87250   -156.6 1.016e+04 2.575e-10
 59.89288   -155.8 9.884e+03 2.120e-10
 59.91660   -153.4 9.800e+03 1.972e-10
 59.95735   -150.9 9.710e+03 1.839e-10
 59.99811   -148.4 9.613e+03 1.740e-10
 60.03219   -145.8 9.545e+03 1.678e-10
 60.05082   -145.1 9.446e+03 1.699e-10
 60.05750   -144.9 9.544e+03 1.837e-10
 60.07963   -142.4 9.482e+03 1.750e-10
 60.12039   -139.9 9.439e+03 1.688e-10
 60.16114   -137.4 9.412e+03 1.650e-10
 60.19188   -134.9 9.402e+03 1.628e-10
 60.21226   -134.2 9.288e+03 1.568e-10
 60.24266   -131.7 9.282e+03 1.502e-10
 60.28342   -129.2 9.286e+03 1.443e-10
 60.32127   -126.7 9.288e+03 1.377e-10
 60.34165   -126.9 9.411e+03 1.554e-10
 60.35157   -124.5 9.400e+03 1.491e-10
 60.37195   -123.8 9.297e+03 1.287e-10
 60.40569   -121.3 9.292e+03 1.210e-10
 60.44645   -118.9 9.288e+03 1.148e-10
 60.48721   -116.4 9.292e+03 1.109e-10
 60.51126   -113.9 9.299e+03 1.097e-10
 60.53164   -113.4 9.303e+03 1.088e-10
 60.56873   -111.0 9.396e+03 1.119e-10
 60.60542   -108.7 9.430e+03 1.235e-10
 60.62580   -109.2 9.621e+03 1.921e-10
 60.65024   -106.8 9.691e+03 2.249e-10
 60.67095   -104.5 9.772e+03 2.617e-10
 60.69133   -104.2 9.928e+03 2.851e-10
 60.73176   -101.8 1.004e+04 3.301e-10
 60.77252    -99.4 1.020e+04 3.709e-10
 60.81026    -97.1 1.040e+04 4.224e-10
 60.83064    -96.9 1.050e+04 4.292e-10
 60.85403    -94.8 1.071e+04 4.943e-10
 60.88957    -92.9 1.094e+04 5.712e-10
 60.90995    -93.4 1.067e+04 4.326e-10
 60.93555    -92.1 1.099e+04 5.404e-10
 60.96995    -90.9 1.140e+04 7.325e-10
 60.99033    -90.9 1.125e+04 5.342e-10
 61.01707    -90.0 1.181e+04 8.159e-10
 61.05783    -89.3 1.242e+04 1.216e-09
 61.09858    -88.7 1.292e+04 1.610e-09
 61.12905    -88.5 1.308e+04 1.672e-09
 61.13963    -88.3 1.310e+04 1.693e-09
 61.14982    -88.9 1.352e+04 2.070e-09
 61.16972    -88.6 1.346e+04 2.066e-09
 61.18372    -88.0 1.315e+04 1.860e-09
 61.19391    -87.9 1.291e+04 1.553e-09
 61.20928    -87.4 1.275e+04 1.356e-09
 61.21947    -89.1 1.407e+04 2.305e-09
 61.23085    -89.8 1.459e+04 2.401e-09
 61.25123    -91.1 1.514e+04 2.765e-09
 61.27161    -92.3 1.564e+04 3.504e-09
 61.28913    -92.9 1.591e+04 4.609e-09
 61.29932    -93.3 1.615e+04 8.014e-09
 61.31237    -92.4 1.600e+04 8.218e-09
 61.32579    -91.3 1.542e+04 7.348e-09
 61.33084    -91.5 1.585e+04 8.124e-09
 61.33405    -91.0 1.574e+04 7.575e-09
 61.33914    -90.9 1.577e+04 7.515e-09
 61.35308    -90.1 1.560e+04 6.690e-09
 61.36897    -88.5 1.513e+04 4.852e-09
 61.37916    -88.5 1.467e+04 2.725e-09
 61.39389    -88.1 1.461e+04 1.590e-09
 61.41426    -88.5 1.448e+04 9.067e-10
 61.43464    -89.3 1.392e+04 5.520e-10
 61.44882    -90.2 1.287e+04 3.891e-10
 61.45901    -91.7 1.130e+04 3.577e-10
 61.46787    -90.9 1.126e+04 3.418e-10
 61.47806    -91.2 1.130e+04 3.454e-10
 61.49578    -90.1 1.126e+04 3.369e-10
 61.51616    -89.1 1.124e+04 3.317e-10
 61.52866    -88.0 1.121e+04 3.267e-10
 61.53885    -88.1 1.108e+04 3.182e-10
 61.55692    -87.4 1.114e+04 3.216e-10
 61.57730    -86.5 1.120e+04 3.306e-10
 61.59768    -85.9 1.130e+04 3.469e-10
 61.60851    -85.3 1.142e+04 3.758e-10
 61.61059    -85.8 1.129e+04 3.582e-10
 61.62013    -86.9 1.172e+04 4.992e-10
 61.63843    -86.6 1.187e+04 5.945e-10
 61.65881    -86.3 1.197e+04 7.146e-10
 61.67816    -85.9 1.203e+04 8.504e-10
 61.68835    -86.5 1.203e+04 8.024e-10
 61.69957    -86.0 1.202e+04 9.282e-10
 61.71995    -85.3 1.194e+04 1.023e-09
 61.74033    -84.6 1.188e+04 1.059e-09
 61.75202    -83.8 1.184e+04 1.059e-09
 61.75951    -84.9 1.214e+04 1.047e-09
 61.76820    -85.0 1.208e+04 1.122e-09
 61.78109    -84.3 1.201e+04 9.749e-10
 61.80147    -83.7 1.194e+04 8.475e-10
 61.82185    -83.1 1.180e+04 7.471e-10
 61.83785    -82.5 1.164e+04 6.750e-10
 61.84804    -82.2 1.165e+04 7.264e-10
 61.86260    -81.4 1.152e+04 6.763e-10
 61.88298    -80.5 1.139e+04 6.350e-10
 61.89410    -79.4 1.126e+04 5.905e-10
 61.90428    -80.4 1.126e+04 5.378e-10
 61.91769    -79.2 1.114e+04 4.755e-10
 61.92788    -78.8 1.110e+04 4.885e-10
 61.94412    -77.4 1.097e+04 4.148e-10
 61.96450    -76.2 1.090e+04 3.676e-10
 61.99517    -75.0 1.090e+04 3.342e-10
 62.02618    -73.1 1.063e+04 2.602e-10
 62.04656    -74.2 1.033e+04 2.255e-10
 62.06739    -71.8 1.003e+04 1.687e-10
 62.08777    -71.4 9.771e+03 1.625e-10
 62.11754    -69.5 9.694e+03 1.384e-10
 62.15830    -67.8 9.693e+03 1.340e-10
 62.19906    -66.5 9.747e+03 1.394e-10
 62.22708    -65.4 9.836e+03 1.730e-10
 62.24746    -64.5 9.794e+03 1.882e-10
 62.28057    -63.2 9.862e+03 2.343e-10
 62.31033    -61.8 9.915e+03 2.585e-10
 62.33071    -61.8 9.709e+03 2.285e-10
 62.36209    -60.5 9.850e+03 2.648e-10
 62.38677    -59.0 9.916e+03 2.864e-10
 62.40715    -57.6 9.877e+03 2.826e-10
 62.44360    -56.1 9.951e+03 2.962e-10
 62.48436    -54.7 1.003e+04 3.116e-10
 62.52512    -53.3 1.009e+04 3.307e-10
 62.54646    -51.8 1.014e+04 3.508e-10
 62.56683    -50.4 1.023e+04 3.907e-10
 62.59448    -48.9 1.031e+04 4.249e-10
 62.61486    -48.7 1.027e+04 4.242e-10
 62.64740    -47.4 1.023e+04 3.636e-10
 62.68577    -46.8 1.031e+04 3.272e-10
 62.70614    -45.3 1.048e+04 4.178e-10
 62.72891    -45.0 1.053e+04 4.108e-10
 62.76967    -45.5 1.105e+04 4.785e-10
 62.81043    -46.5 1.209e+04 9.828e-10
 62.84090    -46.6 1.282e+04 1.743e-09
 62.85545    -46.8 1.344e+04 2.443e-09
 62.86564    -46.3 1.345e+04 2.796e-09
 62.87843    -46.2 1.399e+04 3.727e-09
 62.88862    -45.6 1.356e+04 3.251e-09
 62.90194    -45.4 1.398e+04 4.037e-09
 62.92232    -44.7 1.423e+04 4.479e-09
 62.93529    -44.0 1.429e+04 4.572e-09
 62.94548    -43.5 1.420e+04 4.491e-09
 62.96308    -42.9 1.426e+04 4.171e-09
 62.98346    -42.4 1.424e+04 3.227e-09
 63.00383    -42.3 1.411e+04 2.158e-09
 63.01514    -43.1 1.356e+04 1.374e-09
 63.02162    -42.3 1.409e+04 1.721e-09
 63.03070    -41.6 1.472e+04 3.372e-09
 63.04459    -41.6 1.511e+04 2.536e-09
 63.06497    -42.5 1.500e+04 1.823e-09
 63.08479    -43.1 1.434e+04 1.320e-09
 63.09498    -42.8 1.518e+04 1.904e-09
 63.10573    -43.2 1.476e+04 1.525e-09
 63.12611    -43.4 1.421e+04 1.252e-09
 63.14649    -43.4 1.370e+04 1.068e-09
 63.16258    -43.5 1.324e+04 9.477e-10
 63.17054    -43.8 1.516e+04 2.304e-09
 63.17483    -43.1 1.533e+04 3.747e-09
 63.18725    -43.1 1.541e+04 3.114e-09
 63.20763    -43.6 1.588e+04 2.668e-09
 63.22800    -44.6 1.631e+04 2.515e-09
 63.24448    -46.0 1.691e+04 2.544e-09
 63.25467    -44.9 1.686e+04 2.813e-09
 63.26876    -47.0 1.760e+04 2.935e-09
 63.28914    -49.2 1.784e+04 3.717e-09
 63.30466    -51.2 1.770e+04 5.098e-09
 63.31485    -51.0 1.934e+04 9.003e-09
 63.32432    -52.4 1.893e+04 1.000e-08
 63.33451    -51.7 1.913e+04 1.021e-08
 63.35028    -52.2 1.860e+04 1.069e-08
 63.37066    -52.5 1.805e+04 1.092e-08
 63.39104    -52.5 1.752e+04 1.033e-08
 63.40417    -52.3 1.682e+04 8.275e-09
 63.41436    -51.3 1.643e+04 6.669e-09
 63.43180    -50.9 1.546e+04 4.215e-09
 63.44673    -50.8 1.434e+04 2.377e-09
 63.45692    -51.1 1.391e+04 2.430e-09
 63.47255    -51.5 1.300e+04 1.376e-09
 63.48401    -52.7 1.215e+04 8.644e-10
 63.50449    -52.4 1.185e+04 7.284e-10
 63.54408    -52.5 1.106e+04 5.108e-10
 63.57455    -51.9 1.063e+04 4.348e-10
 63.58881    -51.6 1.051e+04 4.144e-10
 63.59900    -51.5 1.052e+04 4.070e-10
 63.62342    -51.4 1.036e+04 3.906e-10
 63.64390    -50.4 1.029e+04 3.344e-10
 63.66635    -49.8 1.003e+04 2.710e-10
 63.70711    -49.4 9.713e+03 1.841e-10
 63.73108    -49.3 9.456e+03 1.277e-10
 63.75146    -49.0 9.488e+03 1.369e-10
 63.78321    -49.1 9.320e+03 1.165e-10
 63.80359    -48.0 9.346e+03 1.197e-10
 63.82938    -47.9 9.317e+03 1.181e-10
 63.87014    -48.0 9.364e+03 1.493e-10
 63.91090    -47.9 9.522e+03 2.149e-10
 63.94290    -47.8 9.690e+03 2.747e-10
 63.96328    -46.5 9.913e+03 3.041e-10
 63.99242    -46.7 9.981e+03 3.180e-10
 64.01523    -47.4 9.975e+03 3.045e-10
 64.03561    -47.2 1.023e+04 3.976e-10
 64.07393    -48.7 1.024e+04 3.923e-10
 64.10259    -50.4 1.025e+04 4.056e-10
 64.12296    -49.2 1.011e+04 3.515e-10
 64.15545    -50.9 1.005e+04 3.557e-10
 64.19621    -52.2 9.763e+03 3.301e-10
 64.23697    -53.3 9.516e+03 2.756e-10
 64.26227    -55.0 9.426e+03 2.454e-10
 64.28265    -53.7 9.380e+03 2.399e-10
 64.29938    -55.8 9.405e+03 2.386e-10
 64.31976    -55.3 9.357e+03 2.468e-10
 64.35924    -58.2 9.809e+03 2.747e-10
 64.40000    -61.0 1.090e+04 5.353e-10
 64.42196    -62.9 1.155e+04 9.619e-10
 64.44234    -61.2 1.083e+04 5.938e-10
 64.48152    -62.6 1.111e+04 8.181e-10
 64.52227    -63.7 1.112e+04 8.663e-10
 64.56127    -64.3 1.070e+04 7.107e-10
 64.58165    -62.7 1.051e+04 5.984e-10
 64.60379    -63.0 9.943e+03 4.311e-10
 64.64455    -63.3 9.662e+03 3.374e-10
 64.68531    -63.5 9.577e+03 3.161e-10
 64.72096    -63.5 9.554e+03 3.127e-10
 64.74134    -62.6 9.645e+03 3.198e-10
 64.76682    -62.7 9.660e+03 3.232e-10
 64.80758    -62.6 9.681e+03 3.152e-10
 64.84730    -62.4 9.590e+03 2.787e-10
 64.86768    -61.5 9.415e+03 2.516e-10
 64.88065    -60.7 9.260e+03 2.131e-10
 64.90103    -60.3 9.280e+03 2.119e-10
 64.92986    -59.4 9.219e+03 1.974e-10
 64.97061    -58.3 9.221e+03 1.975e-10
 65.01137    -57.3 9.367e+03 2.289e-10
 65.04034    -56.2 9.551e+03 2.795e-10
 65.06072    -55.7 9.550e+03 2.719e-10
 65.09289    -54.5 9.683e+03 3.146e-10
 65.13145    -53.3 9.787e+03 3.409e-10
 65.15183    -52.1 9.601e+03 2.960e-10
 65.17440    -50.9 9.706e+03 3.190e-10
 65.20003    -49.9 9.869e+03 3.410e-10
 65.22041    -49.9 1.031e+04 4.463e-10
 65.25592    -49.3 1.082e+04 5.813e-10
 65.27977    -48.9 1.091e+04 5.958e-10
 65.28709    -49.7 1.134e+04 8.274e-10
 65.29371    -48.9 1.120e+04 7.239e-10
 65.30667    -49.1 1.149e+04 9.286e-10
 65.32705    -48.9 1.176e+04 1.202e-09
 65.34743    -48.6 1.197e+04 1.405e-09
 65.35952    -48.3 1.208e+04 1.563e-09
 65.36971    -48.1 1.244e+04 1.902e-09
 65.38819    -47.7 1.240e+04 1.795e-09
 65.40857    -47.2 1.206e+04 1.497e-09
 65.42560    -46.8 1.169e+04 1.169e-09
 65.43579    -46.2 1.224e+04 1.672e-09
 65.43937    -45.9 1.188e+04 1.275e-09
 65.44956    -46.2 1.177e+04 1.038e-09
 65.46971    -46.3 1.136e+04 7.972e-10
 65.49893    -45.8 1.120e+04 7.230e-10
 65.51941    -46.2 1.069e+04 5.328e-10
 65.54123    -45.9 9.877e+03 3.725e-10
 65.58199    -44.8 9.717e+03 3.468e-10
 65.62275    -43.6 9.722e+03 3.536e-10
 65.65872    -42.6 9.947e+03 4.117e-10
 65.67909    -42.4 9.713e+03 3.529e-10
 65.69975    -41.2 9.882e+03 3.987e-10
 65.72013    -40.7 1.031e+04 5.333e-10
 65.74502    -39.7 1.051e+04 6.063e-10
 65.78578    -38.9 1.072e+04 6.888e-10
 65.81840    -38.1 1.088e+04 7.522e-10
 65.83878    -37.6 1.077e+04 7.022e-10
 65.86729    -37.0 1.096e+04 8.043e-10
 65.90805    -36.6 1.107e+04 8.663e-10
 65.94881    -36.1 1.111e+04 8.535e-10
 65.97809    -35.8 1.078e+04 7.245e-10
 65.99281    -35.7 1.114e+04 9.106e-10
 66.00418    -35.6 1.129e+04 1.006e-09
 66.01994    -35.9 1.105e+04 9.029e-10
 66.04032    -36.1 1.098e+04 8.724e-10
 66.05774    -36.2 1.089e+04 8.454e-10
 66.06793    -36.3 1.094e+04 8.893e-10
 66.08108    -36.3 1.098e+04 8.962e-10
 66.10146    -36.4 1.099e+04 9.127e-10
 66.12184    -36.7 1.117e+04 9.820e-10
 66.13597    -37.0 1.136e+04 1.096e-09
 66.14153    -38.1 1.199e+04 1.419e-09
 66.14778    -38.3 1.195e+04 1.371e-09
 66.16260    -38.4 1.203e+04 1.461e-09
 66.18298    -38.4 1.205e+04 1.524e-09
 66.20335    -38.5 1.204e+04 1.574e-09
 66.21743    -38.5 1.199e+04 1.620e-09
 66.22762    -39.2 1.167e+04 1.423e-09
 66.24411    -39.2 1.161e+04 1.472e-09
 66.26449    -39.2 1.157e+04 1.498e-09
 66.27805    -39.0 1.149e+04 1.509e-09
 66.28824    -39.3 1.176e+04 1.710e-09
 66.29728    -39.0 1.152e+04 1.581e-09
 66.30746    -39.2 1.113e+04 1.356e-09
 66.32563    -38.9 1.089e+04 1.173e-09
 66.34601    -38.9 1.062e+04 9.833e-10
 66.36639    -39.1 1.034e+04 8.154e-10
 66.37712    -39.7 1.009e+04 6.934e-10
 66.38731    -40.2 9.875e+03 6.293e-10
 66.40715    -40.7 9.731e+03 5.926e-10
 66.42012    -41.1 9.695e+03 5.858e-10
 66.43031    -41.2 9.676e+03 5.851e-10
 66.44677    -41.3 9.675e+03 5.898e-10
 66.45696    -41.5 9.610e+03 5.867e-10
 66.46828    -41.6 9.803e+03 6.463e-10
 66.48866    -41.6 1.003e+04 7.344e-10
 66.50904    -41.6 1.029e+04 8.464e-10
 66.52662    -41.7 1.083e+04 1.011e-09
 66.53681    -43.9 1.216e+04 1.380e-09
 66.54980    -45.7 1.374e+04 2.129e-09
 66.56220    -48.3 1.544e+04 3.713e-09
 66.57239    -50.2 1.582e+04 6.159e-09
 66.59056    -52.1 1.731e+04 9.893e-09
 66.60646    -54.6 1.930e+04 1.651e-08
 66.61665    -56.8 2.058e+04 1.646e-08
 66.62617    -57.9 2.143e+04 2.531e-08
 66.63314    -59.3 2.240e+04 3.258e-08
 66.63823    -61.6 2.381e+04 2.578e-08
 66.64629    -63.5 2.539e+04 2.847e-08
 66.65138    -66.2 2.588e+04 2.285e-08
 66.65669    -68.9 2.613e+04 2.293e-08
 66.66688    -72.3 2.528e+04 2.138e-08
 66.67707    -76.4 2.319e+04 1.827e-08
 66.68621    -80.7 2.094e+04 1.552e-08
 66.69130    -82.3 2.000e+04 1.225e-08
 66.69745    -86.0 1.901e+04 1.050e-08
 66.70422    -89.5 1.841e+04 9.006e-09
 66.71446    -91.4 1.705e+04 5.999e-09
 66.73321    -94.8 1.650e+04 4.949e-09
 66.75359    -97.8 1.573e+04 4.202e-09
 66.76615   -100.2 1.470e+04 3.560e-09
 66.77634   -102.8 1.217e+04 2.050e-09
 66.79435   -103.9 1.165e+04 1.731e-09
 66.81473   -104.8 1.126e+04 1.389e-09
 66.83511   -105.8 1.088e+04 1.086e-09
 66.84600   -106.6 1.054e+04 8.736e-10
 66.84705   -107.3 1.042e+04 7.965e-10
 66.85654   -106.8 1.046e+04 7.722e-10
 66.87586   -106.9 1.033e+04 7.283e-10
 66.89624   -106.8 1.024e+04 6.952e-10
 66.91565   -106.5 1.015e+04 6.591e-10
 66.92584   -106.7 1.010e+04 6.199e-10
 66.93700   -106.2 1.002e+04 5.841e-10
 66.95738   -105.7 9.916e+03 5.440e-10
 66.97776   -105.2 9.798e+03 5.030e-10
 66.98842   -104.5 9.684e+03 4.660e-10
 66.99597   -104.3 9.669e+03 4.508e-10
 67.00569   -104.5 9.576e+03 4.034e-10
 67.01852   -103.7 9.501e+03 3.745e-10
 67.03890   -102.9 9.456e+03 3.514e-10
 67.05928   -102.0 9.438e+03 3.350e-10
 67.07534   -101.0 9.437e+03 3.300e-10
 67.09582   -101.6 9.463e+03 3.354e-10
 67.12050    -99.8 9.587e+03 3.540e-10
 67.14088    -99.6 9.657e+03 3.375e-10
 67.17156    -98.1 9.874e+03 4.030e-10
 67.21232    -96.6 1.012e+04 5.032e-10
 67.23522    -94.9 1.032e+04 6.101e-10
 67.25560    -95.1 9.691e+03 4.018e-10
 67.29383    -93.1 9.711e+03 4.147e-10
 67.33459    -91.1 9.734e+03 4.265e-10
 67.37453    -89.0 9.776e+03 4.436e-10
 67.39491    -89.2 8.875e+03 2.150e-10
 67.40466    -87.4 9.001e+03 2.322e-10
 67.42503    -87.9 9.080e+03 1.817e-10
 67.45686    -86.8 9.530e+03 2.539e-10
 67.49762    -85.8 9.976e+03 3.934e-10
 67.53422    -84.8 1.036e+04 5.660e-10
 67.55460    -85.9 1.022e+04 5.365e-10
 67.56885    -84.8 1.042e+04 6.298e-10
 67.58913    -84.7 1.042e+04 6.335e-10
 67.61980    -84.2 1.035e+04 6.309e-10
 67.66066    -82.7 1.016e+04 5.601e-10
 67.68881    -81.4 1.017e+04 4.543e-10
 67.70168    -83.7 1.064e+04 5.428e-10
 67.71429    -84.7 1.006e+04 3.662e-10
 67.74217    -83.5 9.805e+03 3.236e-10
 67.78293    -82.1 9.854e+03 3.189e-10
 67.82369    -80.3 1.086e+04 4.209e-10
 67.85350    -77.2 9.801e+03 3.586e-10
 67.87388    -79.2 1.041e+04 4.760e-10
 67.89492    -77.7 1.061e+04 5.386e-10
 67.91520    -77.5 1.083e+04 5.842e-10
 67.93325    -77.5 1.112e+04 6.267e-10
 67.94344    -77.6 1.107e+04 6.193e-10
 67.95596    -77.2 1.123e+04 6.500e-10
 67.97276    -76.6 1.138e+04 6.788e-10
 67.98295    -77.1 1.129e+04 5.979e-10
 67.99672    -76.4 1.127e+04 6.255e-10
 68.01309    -75.7 1.127e+04 6.596e-10
 68.02328    -75.4 1.154e+04 7.775e-10
 68.03747    -74.8 1.167e+04 8.441e-10
 68.05785    -74.1 1.179e+04 9.102e-10
 68.07823    -73.4 1.193e+04 9.773e-10
 68.09294    -72.6 1.213e+04 1.054e-09
 68.10313    -72.5 1.247e+04 1.329e-09
 68.11484    -71.7 1.260e+04 1.417e-09
 68.12503    -71.1 1.220e+04 1.116e-09
 68.13937    -70.3 1.224e+04 1.141e-09
 68.15975    -69.6 1.230e+04 1.198e-09
 68.17278    -68.8 1.237e+04 1.296e-09
 68.18297    -68.7 1.260e+04 1.559e-09
 68.20051    -67.8 1.266e+04 1.636e-09
 68.22089    -66.9 1.274e+04 1.715e-09
 68.24126    -65.9 1.283e+04 1.776e-09
 68.25263    -64.9 1.288e+04 1.801e-09
 68.25808    -64.8 1.290e+04 1.693e-09
 68.26710    -64.6 1.219e+04 1.325e-09
 68.28202    -63.5 1.220e+04 1.238e-09
 68.30240    -62.3 1.220e+04 1.090e-09
 68.32228    -61.2 1.218e+04 9.052e-10
 68.33247    -61.2 1.219e+04 7.366e-10
 68.34316    -60.2 1.208e+04 5.523e-10
 68.36354    -59.5 1.186e+04 4.077e-10
 68.39421    -58.9 1.145e+04 2.904e-10
 68.43506    -56.4 1.095e+04 1.911e-10
 68.47198    -54.0 1.077e+04 1.627e-10
 68.49236    -53.6 1.049e+04 1.233e-10
 68.51658    -50.8 1.051e+04 1.176e-10
 68.54126    -48.3 1.064e+04 1.179e-10
 68.56164    -49.0 1.099e+04 1.434e-10
 68.59809    -47.0 1.102e+04 2.296e-10
 68.63167    -44.7 1.112e+04 4.176e-10
 68.65204    -44.4 1.101e+04 3.570e-10
 68.67961    -41.9 1.132e+04 6.287e-10
 68.72037    -39.5 1.171e+04 8.407e-10
 68.76113    -37.6 1.182e+04 8.872e-10
 68.79135    -35.6 1.170e+04 7.650e-10
 68.81173    -35.6 1.168e+04 7.894e-10
 68.82541    -33.3 1.129e+04 4.887e-10
 68.84579    -33.2 1.081e+04 3.858e-10
 68.88340    -31.3 1.055e+04 2.589e-10
 68.92416    -29.4 1.034e+04 1.968e-10
 68.95104    -27.5 1.019e+04 1.762e-10
 68.97142    -27.3 1.004e+04 1.671e-10
 69.00568    -25.1 9.955e+03 1.633e-10
 69.04643    -22.8 9.923e+03 1.631e-10
 69.08719    -20.8 9.866e+03 1.681e-10
 69.10956    -18.7 9.912e+03 1.754e-10
 69.11272    -18.4 1.017e+04 1.272e-10
 69.13111    -17.6 9.983e+03 1.216e-10
 69.16871    -15.4 9.997e+03 1.347e-10
 69.20947    -13.2 9.974e+03 1.481e-10
 69.25004    -11.0 9.962e+03 1.523e-10
 69.29080     -7.9 9.762e+03 1.498e-10
 69.33174     -5.9 9.676e+03 1.377e-10
 69.37250     -4.2 9.684e+03 1.273e-10
 69.39371     -2.8 9.680e+03 1.255e-10
 69.41056     -2.4 9.740e+03 1.088e-10
 69.43011     -1.0 9.678e+03 1.172e-10
 69.45402      0.5 9.655e+03 1.216e-10
 69.49478      2.3 9.635e+03 1.283e-10
 69.53553      4.2 9.619e+03 1.272e-10
 69.56942      6.2 9.586e+03 1.128e-10
 69.58980      7.4 9.700e+03 1.203e-10
 69.61705      9.2 9.627e+03 1.052e-10
 69.65748     11.0 9.470e+03 9.683e-11
 69.67786     11.6 9.192e+03 1.160e-10
 69.69857     13.8 9.116e+03 1.023e-10
 69.72911     15.8 9.110e+03 8.716e-11
 69.74949     16.5 9.213e+03 1.214e-10
 69.78008     18.6 9.060e+03 1.211e-10
 69.82084     21.2 8.983e+03 1.138e-10
 69.86160     23.3 9.194e+03 8.726e-11
 69.88880     24.5 9.316e+03 8.181e-11
 69.90918     25.1 9.776e+03 1.181e-10
 69.94163     25.8 9.875e+03 1.404e-10
 69.96201     26.9 9.322e+03 1.231e-10
 69.98387     28.7 9.302e+03 1.560e-10
 70.02463     30.7 9.628e+03 1.650e-10
 70.04849     32.0 9.936e+03 1.568e-10
 70.06886     32.2 1.029e+04 2.574e-10
 70.10615     33.5 1.019e+04 2.507e-10
 70.14691     35.0 1.004e+04 2.313e-10
 70.18766     36.5 9.996e+03 2.133e-10
 70.22578     38.5 1.016e+04 2.599e-10
 70.24616     39.8 1.026e+04 2.981e-10
 70.26918     41.3 1.020e+04 2.990e-10
 70.30994     42.9 1.021e+04 3.030e-10
 70.34748     44.4 1.020e+04 3.127e-10
 70.36786     44.4 1.034e+04 3.295e-10
 70.39146     45.9 1.035e+04 3.619e-10
 70.43221     47.5 1.033e+04 4.047e-10
 70.47297     49.2 1.022e+04 3.942e-10
 70.50717     51.1 1.003e+04 3.460e-10
 70.52375     51.1 1.025e+04 4.234e-10
 70.53031     51.6 9.993e+03 3.033e-10
 70.55449     53.5 9.788e+03 2.447e-10
 70.59525     55.5 9.648e+03 1.883e-10
 70.63601     57.3 9.560e+03 1.465e-10
 70.66686     59.0 9.472e+03 1.248e-10
 70.68724     59.4 9.460e+03 1.323e-10
 70.71752     61.1 9.345e+03 1.153e-10
 70.75828     63.0 9.214e+03 1.044e-10
 70.79408     65.0 9.091e+03 9.434e-11
 70.81446     65.3 9.008e+03 7.064e-11
 70.82655     67.4 8.902e+03 7.082e-11
 70.84693     67.7 8.901e+03 6.946e-11
 70.88055     69.7 8.827e+03 6.870e-11
 70.92131     71.8 8.788e+03 6.697e-11
 70.96207     73.8 8.763e+03 6.401e-11
 70.98624     75.7 8.732e+03 6.046e-11
 71.00662     75.8 8.758e+03 6.429e-11
 71.04359     77.6 8.755e+03 6.489e-11
 71.07823     79.2 8.766e+03 6.892e-11
 71.09861     80.0 8.772e+03 7.356e-11
 71.12510     81.5 8.809e+03 8.138e-11
 71.14593     83.0 8.857e+03 9.156e-11
 71.16631     82.8 8.971e+03 1.149e-10
 71.20662     84.1 8.986e+03 1.171e-10
 71.24738     85.3 8.972e+03 1.121e-10
 71.28524     86.3 8.914e+03 9.918e-11
 71.30562     85.9 8.913e+03 1.005e-10
 71.32889     86.6 8.797e+03 8.352e-11
 71.36238     87.3 8.679e+03 7.477e-11
 71.38276     87.7 8.702e+03 7.855e-11
 71.41041     88.6 8.602e+03 7.033e-11
 71.44493     89.6 8.525e+03 6.026e-11
 71.46531     89.3 8.527e+03 6.032e-11
 71.49193     90.3 8.463e+03 4.898e-11
 71.53269     91.2 8.400e+03 3.956e-11
 71.57344     91.9 8.295e+03 3.515e-11
 71.60462     92.8 8.276e+03 3.502e-11
 71.62499     92.6 8.338e+03 3.812e-11
 71.64653     93.5 8.355e+03 4.173e-11
 71.66691     93.5 8.341e+03 4.345e-11
 71.69572     94.3 8.402e+03 5.207e-11
 71.73648     94.9 8.490e+03 6.299e-11
 71.76430     95.4 8.616e+03 7.598e-11
 71.78468     94.7 8.794e+03 1.013e-10
 71.81799     94.3 9.049e+03 1.302e-10
 71.85875     93.6 9.428e+03 1.716e-10
 71.89951     91.9 9.942e+03 2.212e-10
 71.92390     86.6 1.149e+04 5.455e-10
 71.93399     85.1 1.191e+04 7.575e-10
 71.94068     83.9 1.239e+04 1.452e-09
 71.95087     83.3 1.259e+04 1.830e-09
 71.97064     83.0 1.261e+04 1.890e-09
 71.99102     82.7 1.253e+04 1.778e-09
 72.00364     81.4 1.226e+04 1.152e-09
 72.01383     80.9 1.249e+04 1.240e-09
 72.03178     79.3 1.236e+04 8.555e-10
 72.06244     74.8 1.161e+04 3.731e-10
 72.08368     69.0 9.713e+03 2.421e-10
 72.10406     66.3 9.839e+03 3.373e-10
 72.14406     65.7 9.707e+03 3.058e-10
 72.18482     65.6 9.747e+03 2.887e-10
 72.21483     65.6 9.713e+03 2.832e-10
 72.23263     64.1 9.831e+03 3.207e-10
 72.24337     62.1 1.008e+04 3.910e-10
 72.26633     63.0 9.986e+03 4.248e-10
 72.30709     64.2 9.911e+03 4.184e-10
 72.34785     65.6 9.778e+03 3.720e-10
 72.38268     66.8 9.630e+03 2.919e-10
 72.40306     65.8 1.015e+04 4.427e-10
 72.42937     66.8 9.810e+03 3.346e-10
 72.47012     67.9 9.639e+03 3.099e-10
 72.49898     69.4 9.634e+03 3.113e-10
 72.51936     69.1 9.504e+03 2.185e-10
 72.54237     70.8 9.491e+03 2.157e-10
 72.56275     70.4 9.533e+03 2.137e-10
 72.59240     72.3 9.522e+03 2.091e-10
 72.63316     74.1 9.467e+03 1.963e-10
 72.67392     75.8 9.353e+03 1.725e-10
 72.70206     77.4 9.212e+03 1.419e-10
 72.72244     77.3 9.249e+03 1.488e-10
 72.75543     78.8 9.091e+03 1.257e-10
 72.78313     80.2 9.038e+03 1.202e-10
 72.80351     80.3 9.225e+03 1.359e-10
 72.83695     81.4 9.325e+03 1.465e-10
 72.86175     82.4 9.690e+03 1.869e-10
 72.88213     82.8 9.823e+03 1.906e-10
 72.90818     82.9 9.981e+03 2.230e-10
 72.92501     83.0 1.006e+04 2.429e-10
 72.93520     82.5 1.025e+04 2.607e-10
 72.94140     81.9 1.069e+04 3.596e-10
 72.95159     81.9 1.089e+04 4.014e-10
 72.96922     81.1 1.162e+04 6.547e-10
 72.98960     80.3 1.239e+04 1.128e-09
 73.00998     79.6 1.310e+04 1.910e-09
 73.02124     79.2 1.392e+04 3.032e-09
 73.03143     79.7 1.446e+04 3.551e-09
 73.05073     79.0 1.544e+04 4.942e-09
 73.06111     77.7 1.615e+04 5.760e-09
 73.06616     77.7 1.643e+04 6.045e-09
 73.07209     75.9 1.746e+04 7.224e-09
 73.07718     74.6 1.799e+04 7.612e-09
 73.08630     72.9 1.810e+04 8.949e-09
 73.09589     71.7 1.794e+04 9.106e-09
 73.10099     70.9 1.835e+04 1.131e-08
 73.10668     70.6 1.804e+04 1.110e-08
 73.11687     70.4 1.779e+04 1.064e-08
 73.13220     70.6 1.783e+04 1.184e-08
 73.15263     71.2 1.705e+04 8.086e-09
 73.17074     70.4 1.626e+04 3.954e-09
 73.18093     71.8 1.765e+04 6.425e-09
 73.19339     68.1 1.688e+04 2.284e-09
 73.20916     61.2 1.378e+04 1.324e-09
 73.21935     59.8 1.353e+04 1.524e-09
 73.23415     57.2 1.301e+04 1.531e-09
 73.25058     56.4 1.296e+04 1.711e-09
 73.26077     55.7 1.322e+04 1.921e-09
 73.27490     55.7 1.319e+04 2.291e-09
 73.29528     55.8 1.311e+04 2.340e-09
 73.31566     56.1 1.292e+04 2.219e-09
 73.33043     56.3 1.257e+04 1.854e-09
 73.34062     56.4 1.299e+04 2.431e-09
 73.35124     56.3 1.271e+04 1.928e-09
 73.37172     56.5 1.220e+04 1.329e-09
 73.40756     56.0 1.111e+04 6.497e-10
 73.44832     55.2 1.029e+04 4.108e-10
 73.47879     55.0 1.026e+04 4.118e-10
 73.49012     55.1 1.025e+04 4.169e-10
 73.49455     55.2 1.057e+04 4.328e-10
 73.50350     55.2 1.015e+04 3.805e-10
 73.51945     55.4 1.009e+04 3.803e-10
 73.53983     55.6 1.007e+04 3.858e-10
 73.55977     55.7 1.008e+04 4.037e-10
 73.56996     55.7 1.015e+04 4.066e-10
 73.58059     55.8 1.020e+04 4.345e-10
 73.60097     55.9 1.026e+04 4.690e-10
 73.62135     56.2 1.033e+04 5.030e-10
 73.63539     56.5 1.041e+04 5.279e-10
 73.64347     56.8 1.032e+04 4.988e-10
 73.64981     56.7 1.047e+04 5.269e-10
 73.66211     57.1 1.053e+04 5.333e-10
 73.68249     57.5 1.053e+04 5.300e-10
 73.70287     57.9 1.050e+04 5.127e-10
 73.71946     58.3 1.043e+04 4.809e-10
 73.72965     58.2 1.052e+04 4.859e-10
 73.74362     58.6 1.043e+04 4.475e-10
 73.76400     58.9 1.028e+04 4.054e-10
 73.77747     59.3 1.013e+04 3.634e-10
 73.78766     59.6 1.032e+04 3.803e-10
 73.79940     60.1 1.007e+04 3.231e-10
 73.80959     59.8 1.013e+04 3.514e-10
 73.82514     60.0 1.008e+04 3.400e-10
 73.84552     60.6 9.947e+03 3.096e-10
 73.86590     60.9 9.906e+03 2.972e-10
 73.87915     61.5 9.784e+03 2.727e-10
 73.88934     61.5 9.854e+03 3.341e-10
 73.90666     61.9 9.788e+03 3.137e-10
 73.91954     62.3 9.746e+03 2.930e-10
 73.92973     62.6 9.974e+03 3.109e-10
 73.94741     62.7 1.003e+04 3.040e-10
 73.95899     62.5 1.007e+04 3.101e-10
 73.96918     62.0 1.027e+04 3.644e-10
 73.98817     61.5 1.044e+04 3.958e-10
 74.01884     59.5 1.128e+04 7.498e-10
 74.05969     59.5 1.146e+04 1.034e-09
 74.09850     59.6 1.142e+04 1.071e-09
 74.11888     57.7 1.204e+04 1.515e-09
 74.14121     58.0 1.159e+04 1.030e-09
 74.18197     58.2 1.102e+04 5.998e-10
 74.20389     58.2 1.043e+04 3.540e-10
 74.22427     59.7 1.069e+04 5.430e-10
 74.25819     60.4 1.017e+04 3.679e-10
 74.27857     59.0 1.012e+04 3.837e-10
 74.30424     60.5 9.781e+03 3.054e-10
 74.34500     62.3 9.614e+03 2.708e-10
 74.38576     64.3 9.538e+03 2.445e-10
 74.41788     66.3 9.481e+03 2.219e-10
 74.43826     65.3 9.278e+03 1.727e-10
 74.46728     67.3 9.260e+03 1.759e-10
 74.48804     69.2 9.271e+03 1.954e-10
 74.50842     70.1 9.310e+03 2.007e-10
 74.54879     72.0 9.450e+03 2.630e-10
 74.57757     74.1 9.717e+03 3.731e-10
 74.59795     73.8 9.815e+03 4.346e-10
 74.63031     76.1 1.018e+04 5.620e-10
 74.67107     78.3 1.049e+04 6.584e-10
 74.71183     80.2 1.066e+04 6.775e-10
 74.73725     82.0 1.066e+04 6.586e-10
 74.75686     81.6 1.035e+04 4.660e-10
 74.77219     82.5 1.067e+04 6.680e-10
 74.79334     84.4 1.040e+04 4.698e-10
 74.83410     86.3 1.006e+04 3.012e-10
 74.87486     87.9 9.759e+03 1.981e-10
 74.89694     89.5 9.506e+03 1.533e-10
 74.91732     88.5 8.962e+03 1.012e-10
 74.95638     90.7 8.875e+03 1.008e-10
 74.99713     93.1 8.853e+03 1.019e-10
 75.03596     95.5 8.806e+03 1.089e-10
 75.05470     96.1 8.875e+03 1.126e-10
 75.05663     96.0 8.649e+03 1.108e-10
 75.07865     98.5 8.661e+03 1.213e-10
 75.11941    101.0 8.702e+03 1.352e-10
 75.16017    103.6 8.776e+03 1.523e-10
 75.19594    106.2 8.907e+03 1.737e-10
 75.21632    106.2 8.696e+03 1.506e-10
 75.24168    108.7 8.818e+03 1.732e-10
 75.28244    111.3 9.096e+03 2.155e-10
 75.32011    113.8 9.496e+03 2.826e-10
 75.34049    114.0 9.516e+03 2.703e-10
 75.35563    115.5 9.670e+03 3.186e-10
 75.37601    115.7 9.604e+03 3.245e-10
 75.39443    116.6 9.759e+03 3.810e-10
 75.41471    117.5 9.973e+03 4.605e-10
 75.43509    118.5 1.032e+04 5.931e-10
 75.44547    119.5 1.082e+04 8.003e-10
 75.45566    119.2 1.077e+04 7.333e-10
 75.47218    119.9 1.127e+04 9.614e-10
 75.48237    119.9 1.150e+04 1.017e-09
 75.49623    120.2 1.235e+04 1.450e-09
 75.51512    120.5 1.321e+04 2.063e-09
 75.53560    120.9 1.185e+04 1.222e-09
 75.55746    121.1 1.273e+04 1.732e-09
 75.57774    121.3 1.296e+04 1.960e-09
 75.60416    121.1 1.222e+04 1.445e-09
 75.62464    122.4 1.264e+04 1.827e-09
 75.64927    122.8 1.212e+04 1.482e-09
 75.67501    123.5 1.139e+04 1.017e-09
 75.69539    123.5 1.087e+04 7.396e-10
 75.73078    125.0 1.058e+04 6.450e-10
 75.75476    125.8 1.039e+04 5.813e-10
 75.76002    125.8 1.042e+04 6.034e-10
 75.76652    125.9 1.037e+04 5.765e-10
 75.78153    126.7 1.022e+04 5.225e-10
 75.80191    127.6 1.008e+04 4.831e-10
 75.82229    128.5 9.957e+03 4.531e-10
 75.83450    129.3 9.867e+03 4.374e-10
 75.84469    129.7 1.009e+04 5.482e-10
 75.86305    130.7 1.008e+04 5.503e-10
 75.88343    131.7 1.008e+04 5.641e-10
 75.89840    132.7 1.010e+04 5.895e-10
 75.90859    133.3 9.856e+03 4.195e-10
 75.91435    134.3 9.906e+03 4.477e-10
 75.92454    134.4 1.004e+04 5.537e-10
 75.94457    135.4 1.014e+04 6.273e-10
 75.96495    136.5 1.026e+04 7.002e-10
 75.98400    137.4 1.040e+04 7.740e-10
 75.99419    137.8 1.057e+04 9.238e-10
 76.00570    138.8 1.076e+04 1.014e-09
 76.02608    139.6 1.089e+04 1.052e-09
 76.05675    141.5 1.107e+04 1.101e-09
 76.09761    143.5 1.101e+04 1.043e-09
 76.13370    145.6 1.071e+04 8.290e-10
 76.15407    145.7 1.065e+04 7.824e-10
 76.17256    147.8 1.009e+04 5.329e-10
 76.19294    149.2 1.083e+04 8.469e-10
 76.21988    151.0 1.028e+04 5.719e-10
 76.26064    152.8 9.667e+03 3.653e-10
 76.29338    154.4 9.179e+03 2.563e-10
 76.31376    154.5 9.283e+03 2.945e-10
 76.34215    156.7 9.263e+03 2.860e-10
 76.38291    159.1 9.296e+03 2.905e-10
 76.42367    161.7 9.414e+03 3.086e-10
 76.45307    164.2 9.586e+03 3.385e-10
 76.46317    163.2 9.837e+03 4.054e-10
 76.46671    164.5 9.881e+03 4.114e-10
 76.47699    164.8 9.853e+03 3.728e-10
 76.49490    166.1 9.868e+03 3.785e-10
 76.51518    167.3 9.885e+03 3.900e-10
 76.53272    168.7 9.956e+03 4.198e-10
 76.54291    169.1 1.034e+04 5.506e-10
 76.55594    170.3 1.045e+04 6.032e-10
 76.57632    171.5 1.055e+04 6.657e-10
 76.59670    172.6 1.067e+04 7.410e-10
 76.60878    173.6 1.078e+04 8.290e-10
 76.61446    173.7 1.037e+04 6.315e-10
 76.62276    174.2 1.093e+04 8.037e-10
 76.63746    175.1 1.104e+04 8.969e-10
 76.65784    175.9 1.117e+04 1.011e-09
 76.67821    176.7 1.131e+04 1.147e-09
 76.69241    177.5 1.145e+04 1.296e-09
 76.70260    177.0 1.312e+04 2.125e-09
 76.71897    177.8 1.322e+04 2.328e-09
 76.73935    178.7 1.326e+04 2.496e-09
 76.75086    179.6 1.327e+04 2.605e-09
 76.76105    180.0 1.271e+04 2.191e-09
 76.77226    180.9 1.285e+04 2.464e-09
 76.78245    180.9 1.452e+04 4.046e-09
 76.80049    181.9 1.449e+04 4.020e-09
 76.82087    182.7 1.440e+04 3.937e-09
 76.84125    183.3 1.428e+04 3.864e-09
 76.85210    183.6 1.425e+04 3.816e-09
 76.85715    183.3 1.527e+04 4.610e-09
 76.86662    183.4 1.517e+04 4.486e-09
 76.87681    183.3 1.508e+04 4.386e-09
 76.88683    183.1 1.501e+04 4.317e-09
 76.89192    182.1 1.762e+04 6.199e-09
 76.89283    182.1 1.736e+04 5.924e-09
 76.89793    182.7 1.725e+04 5.936e-09
 76.90738    182.6 1.700e+04 5.772e-09
 76.91757    182.5 1.676e+04 5.687e-09
 76.92675    182.1 1.666e+04 5.710e-09
 76.93185    180.6 1.999e+04 9.817e-09
 76.93795    180.4 1.963e+04 9.494e-09
 76.94814    180.0 1.926e+04 9.194e-09
 76.95833    179.7 1.889e+04 8.984e-09
 76.96387    179.2 1.845e+04 9.029e-09
 76.96712    179.8 1.913e+04 1.021e-08
 76.97177    179.1 2.001e+04 1.515e-08
 76.97871    178.7 1.976e+04 1.518e-08
 76.98890    178.2 1.941e+04 1.518e-08
 76.99909    177.8 1.908e+04 1.533e-08
 77.00660    177.5 1.902e+04 1.546e-08
 77.01169    177.3 1.999e+04 2.078e-08
 77.01947    176.7 2.024e+04 2.080e-08
 77.02966    176.1 2.060e+04 2.115e-08
 77.03491    175.4 2.112e+04 2.169e-08
 77.04000    176.2 2.058e+04 2.814e-08
 77.04652    175.7 2.102e+04 2.911e-08
 77.05161    175.2 2.191e+04 2.939e-08
 77.06023    174.6 2.273e+04 2.973e-08
 77.07041    174.1 2.357e+04 3.111e-08
 77.08060    173.5 2.418e+04 3.321e-08
 77.08644    172.8 2.528e+04 3.278e-08
 77.09154    171.1 2.568e+04 1.936e-08
 77.10085    169.4 2.549e+04 1.617e-08
 77.10595    171.9 2.675e+04 3.360e-08
 77.11117    170.3 2.746e+04 2.857e-08
 77.12127    168.3 2.781e+04 2.314e-08
 77.12636    165.6 2.297e+04 1.097e-08
 77.13155    163.5 2.138e+04 9.470e-09
 77.14174    161.5 2.010e+04 8.507e-09
 77.15193    159.5 1.907e+04 7.331e-09
 77.16119    160.0 2.117e+04 7.086e-09
 77.17101    155.8 1.432e+04 3.886e-09
 77.17708    156.1 1.754e+04 6.001e-09
 77.18769    154.2 1.685e+04 5.652e-09
 77.20807    152.9 1.555e+04 4.815e-09
 77.22845    152.2 1.417e+04 3.967e-09
 77.24113    152.2 1.344e+04 3.366e-09
 77.25132    152.7 1.328e+04 2.928e-09
 77.26921    153.1 1.288e+04 2.419e-09
 77.28959    153.7 1.236e+04 1.897e-09
 77.30897    154.3 1.177e+04 1.441e-09
 77.31916    154.4 1.230e+04 1.854e-09
 77.32098    155.1 1.177e+04 1.426e-09
 77.33117    154.7 1.069e+04 9.591e-10
 77.35073    154.8 1.014e+04 7.333e-10
 77.37110    155.0 9.691e+03 5.946e-10
 77.39063    155.4 9.435e+03 5.372e-10
 77.40082    155.3 9.143e+03 4.806e-10
 77.41186    156.3 9.157e+03 4.841e-10
 77.43224    157.2 9.243e+03 5.068e-10
 77.45104    158.1 9.432e+03 5.589e-10
 77.46123    158.2 9.656e+03 6.284e-10
 77.47048    158.9 9.950e+03 7.161e-10
 77.48067    158.8 1.006e+04 7.282e-10
 77.49338    159.4 1.055e+04 8.996e-10
 77.51376    160.1 1.113e+04 1.139e-09
 77.53414    160.7 1.175e+04 1.445e-09
 77.55032    161.4 1.235e+04 1.793e-09
 77.56051    161.0 1.282e+04 2.303e-09
 77.57490    161.7 1.337e+04 2.769e-09
 77.59312    162.4 1.382e+04 3.139e-09
 77.60331    162.3 1.440e+04 3.391e-09
 77.61565    162.7 1.479e+04 3.661e-09
 77.63017    163.0 1.505e+04 3.790e-09
 77.64035    162.7 1.528e+04 4.997e-09
 77.65641    162.8 1.552e+04 5.209e-09
 77.67679    162.9 1.570e+04 5.420e-09
 77.69717    162.9 1.584e+04 5.683e-09
 77.71001    162.8 1.597e+04 6.033e-09
 77.72020    162.7 1.598e+04 6.940e-09
 77.73519    162.8 1.619e+04 7.511e-09
 77.74538    162.4 1.703e+04 9.879e-09
 77.75831    162.5 1.699e+04 9.845e-09
 77.77869    162.6 1.673e+04 9.342e-09
 77.78985    163.0 1.624e+04 8.348e-09
 77.80004    163.7 1.634e+04 7.917e-09
 77.81944    164.5 1.582e+04 6.088e-09
 77.83982    165.3 1.534e+04 4.575e-09
 77.85951    165.8 1.509e+04 3.483e-09
 77.86970    164.0 1.465e+04 1.894e-09
 77.87727    163.5 1.365e+04 1.396e-09
 77.88746    163.4 1.443e+04 1.722e-09
 77.90096    163.0 1.365e+04 1.358e-09
 77.92134    162.7 1.285e+04 1.138e-09
 77.93935    162.7 1.226e+04 1.033e-09
 77.94954    161.4 1.144e+04 8.868e-10
 77.96210    162.1 1.145e+04 8.976e-10
 77.98248    162.9 1.153e+04 9.387e-10
 78.00286    163.9 1.164e+04 9.957e-10
 78.01920    165.0 1.174e+04 1.049e-09
 78.02549    164.2 1.243e+04 1.309e-09
 78.02953    163.6 1.286e+04 1.470e-09
 78.04361    164.9 1.290e+04 1.471e-09
 78.06399    166.4 1.299e+04 1.471e-09
 78.08437    168.1 1.310e+04 1.471e-09
 78.09904    169.7 1.336e+04 1.488e-09
 78.10923    167.8 1.556e+04 2.657e-09
 78.12513    169.2 1.581e+04 2.833e-09
 78.14551    170.7 1.594e+04 3.011e-09
 78.16142    172.4 1.607e+04 3.243e-09
 78.17161    170.5 1.840e+04 5.551e-09
 78.17889    172.4 1.867e+04 6.389e-09
 78.18393    170.9 1.883e+04 7.612e-09
 78.19127    171.8 1.892e+04 8.199e-09
 78.20146    172.7 1.904e+04 8.986e-09
 78.21164    173.6 1.919e+04 9.917e-09
 78.21871    174.5 1.934e+04 1.103e-08
 78.22381    174.1 1.917e+04 1.245e-08
 78.23202    175.1 1.939e+04 1.333e-08
 78.23745    175.9 1.958e+04 1.432e-08
 78.24255    175.5 1.916e+04 1.802e-08
 78.25240    176.5 1.924e+04 1.926e-08
 78.25863    177.5 1.926e+04 2.039e-08
 78.26373    177.7 1.908e+04 1.697e-08
 78.27278    178.8 1.916e+04 1.732e-08
 78.28297    179.9 1.925e+04 1.761e-08
 78.29316    181.2 1.937e+04 1.787e-08
 78.29856    182.4 1.952e+04 1.818e-08
 78.30365    181.7 1.969e+04 1.065e-08
 78.31354    182.4 2.027e+04 1.055e-08
 78.32373    183.0 2.057e+04 1.032e-08
 78.33338    183.6 2.085e+04 1.008e-08
 78.33848    181.2 1.852e+04 5.535e-09
 78.34411    181.7 1.843e+04 5.285e-09
 78.35430    182.1 1.834e+04 5.117e-09
 78.36449    182.6 1.824e+04 4.980e-09
 78.37331    183.0 1.813e+04 4.971e-09
 78.37816    181.9 1.734e+04 4.138e-09
 78.37953    180.8 1.669e+04 3.600e-09
 78.38487    181.3 1.673e+04 3.657e-09
 78.39506    181.7 1.673e+04 3.721e-09
 78.40525    182.1 1.675e+04 3.898e-09
 78.41323    182.5 1.673e+04 4.044e-09
 78.41837    180.7 1.476e+04 3.064e-09
 78.43082    181.7 1.500e+04 3.470e-09
 78.44557    183.0 1.514e+04 3.917e-09
 78.45576    182.5 1.452e+04 3.309e-09
 78.47158    183.9 1.474e+04 3.612e-09
 78.48807    185.4 1.485e+04 3.919e-09
 78.49826    184.4 1.470e+04 4.230e-09
 78.51233    185.9 1.494e+04 4.584e-09
 78.53271    187.2 1.511e+04 4.814e-09
 78.55309    188.6 1.520e+04 4.922e-09
 78.56792    190.1 1.531e+04 5.014e-09
 78.57811    188.9 1.547e+04 5.127e-09
 78.58764    190.3 1.561e+04 5.114e-09
 78.59783    188.8 1.525e+04 4.134e-09
 78.61423    189.8 1.549e+04 4.555e-09
 78.63461    190.8 1.576e+04 4.960e-09
 78.64776    191.7 1.607e+04 5.346e-09
 78.65795    189.5 1.547e+04 4.126e-09
 78.67537    190.1 1.582e+04 4.367e-09
 78.69575    190.2 1.621e+04 4.509e-09
 78.71613    189.4 1.626e+04 4.476e-09
 78.72761    188.3 1.632e+04 4.276e-09
 78.73101    184.1 1.489e+04 2.661e-09
 78.73991    183.3 1.477e+04 2.596e-09
 78.75688    181.0 1.444e+04 2.226e-09
 78.77726    178.1 1.391e+04 1.830e-09
 78.79726    174.8 1.333e+04 1.495e-09
 78.80745    171.8 1.262e+04 1.215e-09
 78.81802    168.9 1.230e+04 1.090e-09
 78.83840    165.9 1.208e+04 1.011e-09
 78.85878    162.8 1.195e+04 9.592e-10
 78.87179    159.6 1.186e+04 9.057e-10
 78.87993    159.3 1.198e+04 9.870e-10
 78.88730    158.1 1.149e+04 7.700e-10
 78.89954    155.2 1.135e+04 7.040e-10
 78.91992    152.1 1.117e+04 6.365e-10
 78.94030    148.9 1.099e+04 5.789e-10
 78.95695    145.9 1.083e+04 5.340e-10
 78.96714    146.1 1.046e+04 4.240e-10
 78.98105    143.7 1.043e+04 4.125e-10
 79.00143    141.7 1.040e+04 4.031e-10
 79.01397    139.3 1.038e+04 3.705e-10
 79.02416    140.4 1.042e+04 4.143e-10
 79.03680    139.0 1.035e+04 3.897e-10
 79.04699    140.4 1.026e+04 3.621e-10
 79.07286    138.5 1.032e+04 3.596e-10
 79.10665    137.4 1.020e+04 3.347e-10
 79.12703    140.2 1.003e+04 3.156e-10
 79.15447    139.9 1.007e+04 3.245e-10
 79.19523    140.3 1.020e+04 3.544e-10
 79.22570    141.4 1.019e+04 3.661e-10
 79.24598    142.3 1.020e+04 3.892e-10
 79.26614    143.0 1.029e+04 4.444e-10
 79.27633    144.1 1.020e+04 4.097e-10
 79.28674    144.9 1.028e+04 4.642e-10
 79.29802    145.7 1.043e+04 5.519e-10
 79.30821    146.8 1.029e+04 4.172e-10
 79.32750    147.4 1.042e+04 5.111e-10
 79.34598    148.3 1.057e+04 6.149e-10
 79.35617    149.5 1.035e+04 5.156e-10
 79.36826    150.4 1.046e+04 5.962e-10
 79.38864    151.3 1.056e+04 6.547e-10
 79.40901    152.3 1.065e+04 6.879e-10
 79.42583    153.4 1.072e+04 7.095e-10
 79.43602    154.5 1.050e+04 6.391e-10
 79.44010    155.5 1.058e+04 6.660e-10
 79.45028    156.5 1.056e+04 6.613e-10
 79.47015    157.6 1.068e+04 6.994e-10
 79.49053    158.6 1.080e+04 7.430e-10
 79.50567    159.8 1.091e+04 7.933e-10
 79.51586    160.7 1.075e+04 7.368e-10
 79.53129    161.8 1.089e+04 7.986e-10
 79.55167    163.0 1.103e+04 8.721e-10
 79.57198    164.2 1.119e+04 9.636e-10
 79.58545    166.1 1.151e+04 1.099e-09
 79.59571    166.8 1.139e+04 1.042e-09
 79.61281    167.8 1.164e+04 1.197e-09
 79.63318    168.8 1.194e+04 1.404e-09
 79.65356    169.9 1.230e+04 1.688e-09
 79.66536    171.0 1.272e+04 2.076e-09
 79.67555    171.5 1.254e+04 1.897e-09
 79.69432    172.6 1.300e+04 2.325e-09
 79.71406    173.7 1.350e+04 2.835e-09
 79.72425    174.0 1.351e+04 2.797e-09
 79.73502    174.9 1.397e+04 3.266e-09
 79.75540    175.7 1.421e+04 3.244e-09
 79.77584    175.9 1.422e+04 3.230e-09
 79.79622    176.0 1.416e+04 3.113e-09
 79.81486    176.2 1.394e+04 2.815e-09
 79.82505    176.1 1.390e+04 2.762e-09
 79.83698    176.3 1.352e+04 2.376e-09
 79.85613    176.4 1.311e+04 2.022e-09
 79.86632    176.2 1.297e+04 1.892e-09
 79.87773    176.1 1.265e+04 1.648e-09
 79.89471    175.8 1.241e+04 1.474e-09
 79.90489    176.4 1.245e+04 1.526e-09
 79.91849    176.3 1.227e+04 1.402e-09
 79.93887    176.3 1.214e+04 1.304e-09
 79.95925    176.3 1.201e+04 1.210e-09
 79.97455    176.3 1.187e+04 1.108e-09
 79.98474    177.3 1.192e+04 1.157e-09
 79.99821    177.4 1.174e+04 1.042e-09
 80.00840    177.3 1.165e+04 1.004e-09
 80.02039    177.3 1.142e+04 8.952e-10
 80.04077    177.3 1.117e+04 7.888e-10
 80.05439    177.2 1.092e+04 6.873e-10
 80.06458    178.7 1.103e+04 7.228e-10
 80.08153    178.5 1.075e+04 6.205e-10
 80.10190    178.4 1.047e+04 5.378e-10
 80.12228    178.2 1.020e+04 4.845e-10
 80.13424    178.0 1.006e+04 4.744e-10
 80.14205    179.3 1.011e+04 4.923e-10
 80.15047    179.7 1.022e+04 5.143e-10
 80.16304    179.6 1.020e+04 5.143e-10
 80.18342    179.6 1.020e+04 5.194e-10
 80.20380    179.7 1.023e+04 5.447e-10
 80.22418    180.9 1.037e+04 6.173e-10
 80.24456    181.2 1.054e+04 7.074e-10
 80.26494    181.4 1.075e+04 8.288e-10
 80.28236    181.7 1.102e+04 9.755e-10
 80.29097    181.6 1.114e+04 9.626e-10
 80.29393    182.8 1.118e+04 1.028e-09
 80.30570    182.8 1.164e+04 1.290e-09
 80.32607    182.4 1.237e+04 1.730e-09
 80.34645    181.4 1.354e+04 2.604e-09
 80.36358    180.2 1.507e+04 4.413e-09
 80.37377    182.0 1.499e+04 4.735e-09
 80.38721    181.3 1.665e+04 8.226e-09
 80.40759    180.6 1.817e+04 1.299e-08
 80.42443    179.4 1.910e+04 1.471e-08
 80.43462    179.4 1.810e+04 1.045e-08
 80.44343    177.9 1.812e+04 9.318e-09
 80.45362    180.3 1.950e+04 1.679e-08
 80.46873    178.8 1.932e+04 1.230e-08
 80.48911    177.4 1.808e+04 5.948e-09
 80.50949    175.5 1.545e+04 2.117e-09
 80.52327    171.7 1.231e+04 8.694e-10
 80.53346    175.1 1.284e+04 1.096e-09
 80.55024    170.7 9.946e+03 4.909e-10
 80.58091    171.0 1.015e+04 4.141e-10
 80.62177    172.0 9.880e+03 3.732e-10
 80.66252    173.4 9.743e+03 3.507e-10
 80.68316    175.0 9.648e+03 3.266e-10
 80.69884    175.7 9.417e+03 2.702e-10
 80.71897    176.3 9.341e+03 2.430e-10
 80.74404    177.9 9.293e+03 2.280e-10
 80.78480    179.6 9.263e+03 2.124e-10
 80.82246    181.3 9.265e+03 1.972e-10
 80.84284    181.8 9.009e+03 1.628e-10
 80.86632    183.5 8.974e+03 1.511e-10
 80.90707    185.3 8.970e+03 1.502e-10
 80.94783    187.1 8.983e+03 1.512e-10
 80.98215    188.8 9.062e+03 1.545e-10
 80.99668    189.4 8.962e+03 1.537e-10
 81.00312    190.0 8.925e+03 1.554e-10
 81.02935    191.7 9.045e+03 1.650e-10
 81.07011    193.4 9.171e+03 1.767e-10
 81.11087    194.9 9.274e+03 1.910e-10
 81.14184    196.3 9.344e+03 2.073e-10
 81.16222    197.2 9.300e+03 2.388e-10
 81.19238    198.5 9.421e+03 2.569e-10
 81.23314    199.5 9.584e+03 2.836e-10
 81.26689    200.0 9.752e+03 3.152e-10
 81.28727    200.6 9.766e+03 3.295e-10
 81.30153    200.6 9.859e+03 3.508e-10
 81.32191    201.7 9.868e+03 3.377e-10
 81.35541    201.6 9.917e+03 3.323e-10
 81.39617    201.4 9.993e+03 3.140e-10
 81.43693    200.6 1.003e+04 2.877e-10
 81.46122    199.3 1.010e+04 2.781e-10
 81.48160    199.5 9.758e+03 2.384e-10
 81.51845    198.2 9.818e+03 2.504e-10
 81.55104    197.1 9.984e+03 2.889e-10
 81.57142    197.9 9.575e+03 2.119e-10
 81.59996    197.1 9.653e+03 2.334e-10
 81.62091    196.6 9.717e+03 2.594e-10
 81.64129    198.2 9.684e+03 2.722e-10
 81.68148    198.3 9.700e+03 2.714e-10
 81.72224    198.7 9.720e+03 2.609e-10
 81.76022    199.3 9.716e+03 2.393e-10
 81.78060    200.7 9.786e+03 2.788e-10
 81.80375    201.5 9.728e+03 2.511e-10
 81.83519    202.6 9.733e+03 2.342e-10
 81.85557    203.4 9.720e+03 2.334e-10
 81.88527    204.5 9.731e+03 2.347e-10
 81.91991    205.9 9.819e+03 2.440e-10
 81.94029    206.3 1.006e+04 2.877e-10
 81.96679    207.0 1.015e+04 3.038e-10
 82.00755    207.8 1.029e+04 3.373e-10
 82.04830    208.6 1.053e+04 4.039e-10
 82.07960    209.4 1.083e+04 5.062e-10
 82.09988    209.0 1.095e+04 5.690e-10
 82.11915    209.1 1.110e+04 6.311e-10
 82.12933    209.4 1.109e+04 6.303e-10
 82.13981    209.5 1.120e+04 6.883e-10
 82.15925    209.7 1.133e+04 7.502e-10
 82.16943    209.6 1.151e+04 7.903e-10
 82.18057    209.8 1.161e+04 8.483e-10
 82.20095    210.0 1.169e+04 8.832e-10
 82.22133    210.1 1.171e+04 8.861e-10
 82.23909    210.0 1.168e+04 8.739e-10
 82.24928    210.1 1.178e+04 9.360e-10
 82.26122    210.0 1.171e+04 9.118e-10
 82.27141    210.4 1.187e+04 9.672e-10
 82.28247    210.3 1.171e+04 9.023e-10
 82.30285    210.1 1.145e+04 8.052e-10
 82.33351    210.4 1.119e+04 6.922e-10
 82.37437    210.5 1.081e+04 5.455e-10
 82.39897    210.7 1.048e+04 4.087e-10
 82.40772    210.1 1.077e+04 4.879e-10
 82.41358    209.8 1.102e+04 5.741e-10
 82.42512    209.7 1.087e+04 5.106e-10
 82.45579    209.8 1.093e+04 4.624e-10
 82.49664    209.8 1.056e+04 3.223e-10
 82.53740    210.1 1.020e+04 2.192e-10
 82.55866    210.2 9.980e+03 1.735e-10
 82.57904    209.0 1.028e+04 2.278e-10
 82.61892    209.0 1.026e+04 2.283e-10
 82.65968    209.5 1.024e+04 2.371e-10
 82.68764    209.7 1.029e+04 2.628e-10
 82.70556    207.8 1.058e+04 3.134e-10
 82.71835    206.6 1.150e+04 5.638e-10
 82.74119    206.3 1.171e+04 6.845e-10
 82.78195    206.2 1.151e+04 7.787e-10
 82.82271    205.9 1.144e+04 8.128e-10
 82.85766    205.7 1.140e+04 8.104e-10
 82.87804    204.5 1.180e+04 1.006e-09
 82.90423    204.0 1.157e+04 8.298e-10
 82.94498    203.1 1.137e+04 7.134e-10
 82.97179    202.4 1.112e+04 6.737e-10
 82.99217    202.0 1.085e+04 6.395e-10
 83.01735    201.9 1.088e+04 6.517e-10
 83.03773    200.5 1.124e+04 7.744e-10
 83.06726    201.0 1.145e+04 9.423e-10
 83.10802    201.8 1.167e+04 1.113e-09
 83.14878    202.8 1.187e+04 1.255e-09
 83.17704    203.7 1.211e+04 1.428e-09
 83.19742    202.8 1.245e+04 1.652e-09
 83.23029    203.8 1.286e+04 1.918e-09
 83.25584    203.8 1.302e+04 2.016e-09
 83.27622    203.3 1.274e+04 1.697e-09
 83.31181    203.9 1.273e+04 1.666e-09
 83.33673    204.2 1.263e+04 1.561e-09
 83.35711    203.1 1.196e+04 1.243e-09
 83.39333    203.9 1.166e+04 1.101e-09
 83.43408    204.8 1.130e+04 9.643e-10
 83.47484    205.9 1.094e+04 8.210e-10
 83.49642    207.1 1.058e+04 6.827e-10
 83.51680    207.7 1.053e+04 6.215e-10
 83.54009    209.1 1.019e+04 5.076e-10
 83.56047    208.7 9.667e+03 3.493e-10
 83.59712    209.8 9.484e+03 3.191e-10
 83.63573    211.0 9.474e+03 3.184e-10
 83.65611    211.6 9.303e+03 2.550e-10
 83.67863    212.7 9.322e+03 2.599e-10
 83.71939    213.8 9.446e+03 2.866e-10
 83.76015    214.1 9.620e+03 3.247e-10
 83.79062    213.9 9.571e+03 3.302e-10
 83.80541    214.0 9.583e+03 3.456e-10
 83.81560    214.5 9.606e+03 3.109e-10
 83.82405    214.3 9.998e+03 3.674e-10
 83.83424    213.8 9.611e+03 2.797e-10
 83.85166    212.9 1.077e+04 4.019e-10
 83.87204    208.0 1.394e+04 1.188e-09
 83.88525    200.5 1.840e+04 4.951e-09
 83.89030    197.7 1.955e+04 4.638e-09
 83.89499    195.0 2.054e+04 7.933e-09
 83.90008    194.1 2.064e+04 7.777e-09
 83.90760    191.5 2.143e+04 1.254e-08
 83.91779    189.0 2.208e+04 1.766e-08
 83.92508    186.5 2.229e+04 1.978e-08
 83.93017    184.8 2.271e+04 2.397e-08
 83.93817    182.7 2.255e+04 2.321e-08
 83.95351    180.5 2.194e+04 1.679e-08
 83.96510    176.6 2.055e+04 8.975e-09
 83.96748    175.7 2.079e+04 6.737e-09
 83.97631    177.1 2.070e+04 7.825e-09
 83.99431    171.7 1.811e+04 2.502e-09
 84.01469    166.1 1.298e+04 1.235e-09
 84.04536    161.4 1.165e+04 1.047e-09
 84.08621    161.0 1.109e+04 8.574e-10
 84.10839    161.9 1.092e+04 7.938e-10
 84.11659    163.0 1.089e+04 8.077e-10
 84.13517    162.1 1.106e+04 8.763e-10
 84.16773    163.8 1.110e+04 8.837e-10
 84.20849    165.3 1.113e+04 8.856e-10
 84.24925    166.6 1.109e+04 8.664e-10
 84.27448    168.0 1.092e+04 7.770e-10
 84.29486    166.8 1.092e+04 7.680e-10
 84.33076    168.3 1.054e+04 5.968e-10
 84.37152    169.8 1.006e+04 4.290e-10
 84.39254    171.2 9.616e+03 3.175e-10
 84.41292    171.1 9.616e+03 3.121e-10
 84.43417    172.4 9.387e+03 2.706e-10
 84.45455    171.7 9.494e+03 2.822e-10
 84.49380    173.3 9.371e+03 2.670e-10
 84.53456    175.0 9.327e+03 2.642e-10
 84.57348    176.5 9.282e+03 2.594e-10
 84.59386    176.3 9.341e+03 2.615e-10
 84.61607    177.7 9.169e+03 2.326e-10
 84.65632    179.1 8.974e+03 1.979e-10
 84.67669    178.8 8.619e+03 1.246e-10
 84.69759    180.2 8.407e+03 1.016e-10
 84.73317    181.7 8.196e+03 8.413e-11
 84.75355    181.8 8.073e+03 7.232e-11
 84.77910    183.4 7.856e+03 6.465e-11
 84.81986    185.3 7.842e+03 6.358e-11
 84.86062    187.1 7.846e+03 6.385e-11
 84.89286    189.0 7.851e+03 6.615e-11
 84.91324    189.2 7.903e+03 6.686e-11
 84.94047    190.9 7.955e+03 7.318e-11
 84.96085    191.6 7.831e+03 7.068e-11
 84.98290    193.4 7.889e+03 8.010e-11
 85.02365    195.2 7.976e+03 9.465e-11
 85.05255    197.2 8.148e+03 1.183e-10
 85.07293    197.5 8.485e+03 1.595e-10
 85.10517    199.7 8.781e+03 2.079e-10
 85.14593    202.0 9.044e+03 2.566e-10
 85.18669    204.4 9.285e+03 3.009e-10
 85.21224    206.8 9.500e+03 3.365e-10
 85.22979    207.2 9.670e+03 3.558e-10
 85.24500    207.6 9.679e+03 3.820e-10
 85.25792    208.5 9.717e+03 3.847e-10
 85.27820    209.4 9.714e+03 3.874e-10
 85.29188    210.8 9.692e+03 3.991e-10
 85.30207    211.4 9.692e+03 3.979e-10
 85.31896    213.5 9.744e+03 4.205e-10
 85.33933    215.8 9.873e+03 4.523e-10
 85.35971    217.9 1.003e+04 4.860e-10
 85.37173    219.9 1.021e+04 5.217e-10
 85.37851    220.9 1.011e+04 4.518e-10
 85.38688    220.9 1.101e+04 7.788e-10
 85.40047    222.8 1.139e+04 8.885e-10
 85.42085    224.5 1.211e+04 1.112e-09
 85.44123    225.3 1.321e+04 1.583e-09
 85.45157    226.0 1.484e+04 2.547e-09
 85.46176    228.7 1.677e+04 2.476e-09
 85.47684    227.9 1.750e+04 4.423e-09
 85.48630    228.0 1.829e+04 6.530e-09
 85.49140    230.0 1.864e+04 6.129e-09
 85.49717    230.4 1.905e+04 9.235e-09
 85.50736    230.5 1.925e+04 1.322e-08
 85.51755    229.2 2.001e+04 1.787e-08
 85.52376    225.6 2.105e+04 2.268e-08
 85.52733    222.4 2.091e+04 2.640e-08
 85.53132    215.7 4.450e+04 2.680e-08
 85.53793    207.5 4.880e+04 2.617e-08
 85.54812    198.7 4.276e+04 3.539e-08
 85.55831    188.2 3.815e+04 3.998e-08
 85.56615    176.8 3.564e+04 3.914e-08
 85.57124    166.8 3.896e+04 4.858e-08
 85.57869    159.1 3.090e+04 4.676e-08
 85.58888    155.9 2.693e+04 4.001e-08
 85.59480    155.7 2.544e+04 3.355e-08
 85.59989    159.3 2.519e+04 2.611e-08
 85.60607    159.7 2.489e+04 2.375e-08
 85.61116    158.2 2.481e+04 2.458e-08
 85.61945    159.4 2.437e+04 2.230e-08
 85.62964    160.7 2.380e+04 1.999e-08
 85.64497    160.9 2.224e+04 1.552e-08
 85.66084    163.0 2.059e+04 1.118e-08
 85.67103    165.1 2.021e+04 1.083e-08
 85.68092    166.2 1.848e+04 7.648e-09
 85.69111    164.6 1.623e+04 3.906e-09
 85.70616    165.6 1.502e+04 2.518e-09
 85.72654    166.3 1.404e+04 1.693e-09
 85.74692    166.9 1.322e+04 1.198e-09
 85.76076    167.6 1.251e+04 9.120e-10
 85.77095    166.4 1.139e+04 5.963e-10
 85.78767    167.2 1.117e+04 5.480e-10
 85.80291    168.2 1.091e+04 5.525e-10
 85.81310    169.0 1.120e+04 6.040e-10
 85.82843    170.4 1.116e+04 6.095e-10
 85.84061    171.6 1.115e+04 6.224e-10
 85.85089    171.2 1.106e+04 5.431e-10
 85.86929    172.5 1.111e+04 5.732e-10
 85.88957    173.4 1.109e+04 5.857e-10
 85.90995    174.3 1.104e+04 5.990e-10
 85.92045    175.1 1.099e+04 6.216e-10
 85.93064    174.5 1.056e+04 5.242e-10
 85.94499    175.3 1.063e+04 5.718e-10
 85.95518    176.4 1.102e+04 6.770e-10
 85.97109    177.2 1.111e+04 7.375e-10
 85.99011    178.0 1.126e+04 8.124e-10
 86.00029    177.7 1.100e+04 7.361e-10
 86.01184    178.5 1.118e+04 8.184e-10
 86.03222    179.3 1.136e+04 9.140e-10
 86.05260    180.0 1.155e+04 1.031e-09
 86.06995    180.6 1.178e+04 1.178e-09
 86.08014    180.5 1.139e+04 9.832e-10
 86.08706    181.2 1.160e+04 1.086e-09
 86.09725    182.1 1.225e+04 1.412e-09
 86.11374    182.6 1.252e+04 1.568e-09
 86.13412    183.0 1.274e+04 1.642e-09
 86.14979    183.0 1.274e+04 1.633e-09
 86.15998    182.6 1.185e+04 1.171e-09
 86.17488    182.6 1.172e+04 1.107e-09
 86.19526    182.5 1.144e+04 9.745e-10
 86.21564    182.4 1.105e+04 8.008e-10
 86.22914    182.4 1.059e+04 6.235e-10
 86.23295    183.2 1.157e+04 9.333e-10
 86.23983    182.8 1.068e+04 6.735e-10
 86.25639    183.0 1.025e+04 5.232e-10
 86.27677    183.0 9.907e+03 4.090e-10
 86.29715    183.0 9.681e+03 3.363e-10
 86.30948    183.0 9.528e+03 2.970e-10
 86.32996    183.4 9.396e+03 2.861e-10
 86.36122    184.6 9.298e+03 2.839e-10
 86.38150    184.8 9.324e+03 3.009e-10
 86.38933    185.7 9.304e+03 3.029e-10
 86.39952    186.0 9.280e+03 3.022e-10
 86.41943    186.5 9.278e+03 3.049e-10
 86.43981    187.6 9.259e+03 3.111e-10
 86.45898    188.2 9.262e+03 3.154e-10
 86.46927    189.0 9.243e+03 3.178e-10
 86.49095    190.8 9.235e+03 3.246e-10
 86.53171    192.6 9.246e+03 3.338e-10
 86.57247    194.0 9.242e+03 3.424e-10
 86.60294    195.6 9.218e+03 3.493e-10
 86.61867    196.7 9.259e+03 3.641e-10
 86.62896    196.8 9.250e+03 3.467e-10
 86.64369    197.8 9.257e+03 3.632e-10
 86.65536    199.2 9.379e+03 3.999e-10
 86.66555    199.9 9.703e+03 4.880e-10
 86.68436    200.8 9.963e+03 5.609e-10
 86.69852    201.5 1.020e+04 6.361e-10
 86.70870    202.1 9.971e+03 5.668e-10
 86.72511    202.8 1.017e+04 6.295e-10
 86.74549    203.4 1.035e+04 6.841e-10
 86.76587    203.9 1.049e+04 7.295e-10
 86.77836    204.4 1.060e+04 7.624e-10
 86.78855    205.0 1.049e+04 7.166e-10
 86.79744    205.5 1.058e+04 7.426e-10
 86.80763    205.8 1.083e+04 8.453e-10
 86.82701    206.3 1.083e+04 8.417e-10
 86.84739    206.7 1.079e+04 8.214e-10
 86.85820    207.2 1.072e+04 7.917e-10
 86.86839    207.6 1.083e+04 8.221e-10
 86.88815    208.0 1.078e+04 8.022e-10
 86.90853    208.5 1.072e+04 7.785e-10
 86.92786    208.9 1.064e+04 7.506e-10
 86.93805    209.2 1.075e+04 7.871e-10
 86.93951    209.6 1.061e+04 7.456e-10
 86.94970    209.9 1.061e+04 7.463e-10
 86.96966    210.4 1.047e+04 7.072e-10
 86.99004    211.1 1.044e+04 6.971e-10
 87.00770    211.8 1.046e+04 6.998e-10
 87.01789    211.7 1.054e+04 7.207e-10
 87.03080    212.0 1.073e+04 7.613e-10
 87.05118    211.7 1.125e+04 8.957e-10
 87.07140    211.3 1.205e+04 1.208e-09
 87.08159    211.9 1.161e+04 1.062e-09
 87.08755    211.7 1.249e+04 1.443e-09
 87.09774    210.7 1.302e+04 1.847e-09
 87.11232    210.7 1.398e+04 2.689e-09
 87.13270    210.9 1.491e+04 3.835e-09
 87.15307    211.4 1.580e+04 5.210e-09
 87.16739    211.8 1.657e+04 6.620e-09
 87.17758    211.0 1.672e+04 7.014e-09
 87.19383    211.2 1.766e+04 8.504e-09
 87.20727    211.2 1.805e+04 9.128e-09
 87.21231    210.8 1.809e+04 9.149e-09
 87.21847    210.6 1.855e+04 9.950e-09
 87.22361    209.8 1.789e+04 8.545e-09
 87.23459    208.6 1.960e+04 1.130e-08
 87.24719    207.1 2.122e+04 1.439e-08
 87.25223    204.0 2.228e+04 1.546e-08
 87.25997    199.2 2.502e+04 3.066e-08
 87.27016    193.4 2.770e+04 5.497e-08
 87.28035    187.4 3.200e+04 4.970e-08
 87.28706    180.7 3.383e+04 3.998e-08
 87.29113    174.7 3.075e+04 4.892e-08
 87.29460    173.3 3.243e+04 2.133e-08
 87.30073    166.5 3.212e+04 1.412e-08
 87.31092    160.3 3.027e+04 8.757e-09
 87.32110    154.4 2.787e+04 5.559e-09
 87.32703    146.5 2.618e+04 3.158e-09
 87.33727    144.8 2.176e+04 2.025e-09
 87.35555    133.4 1.322e+04 7.829e-10
 87.36574    137.1 1.220e+04 9.918e-10
 87.37724    134.6 1.136e+04 5.609e-10
 87.39674    134.4 1.123e+04 3.977e-10
 87.40693    134.4 1.167e+04 4.574e-10
 87.41800    134.6 1.176e+04 4.971e-10
 87.43838    134.9 1.191e+04 5.545e-10
 87.45876    135.1 1.204e+04 6.405e-10
 87.47658    135.3 1.217e+04 7.744e-10
 87.48677    135.3 1.246e+04 9.858e-10
 87.49762    135.6 1.259e+04 1.143e-09
 87.50781    136.5 1.206e+04 8.138e-10
 87.51990    136.8 1.225e+04 9.981e-10
 87.54028    137.2 1.248e+04 1.170e-09
 87.55642    137.5 1.266e+04 1.246e-09
 87.56661    137.3 1.272e+04 1.250e-09
 87.58104    137.4 1.273e+04 1.205e-09
 87.60142    137.3 1.262e+04 1.089e-09
 87.62179    137.1 1.246e+04 9.256e-10
 87.63627    136.9 1.218e+04 7.579e-10
 87.64399    136.8 1.199e+04 6.969e-10
 87.64989    138.3 1.206e+04 7.572e-10
 87.66255    138.2 1.178e+04 6.195e-10
 87.68293    137.9 1.147e+04 5.072e-10
 87.70331    137.4 1.120e+04 4.179e-10
 87.71611    137.1 1.094e+04 3.517e-10
 87.72630    137.2 1.085e+04 3.421e-10
 87.75436    137.3 1.050e+04 2.868e-10
 87.78197    137.6 1.019e+04 2.675e-10
 87.80235    138.9 1.022e+04 2.722e-10
 87.83597    138.9 1.018e+04 2.737e-10
 87.86581    138.6 1.017e+04 2.937e-10
 87.88619    138.6 9.995e+03 2.770e-10
 87.91749    137.9 1.014e+04 3.265e-10
 87.94555    137.4 1.021e+04 3.659e-10
 87.95565    137.3 1.020e+04 3.644e-10
 87.96824    137.1 1.032e+04 4.244e-10
 87.98862    136.8 1.052e+04 5.227e-10
 88.00900    136.4 1.077e+04 6.385e-10
 88.02530    135.8 1.104e+04 7.562e-10
 88.03549    135.6 1.103e+04 7.567e-10
 88.04976    134.9 1.128e+04 8.700e-10
 88.06593    134.1 1.150e+04 9.869e-10
 88.07612    134.2 1.158e+04 1.030e-09
 88.09051    133.3 1.179e+04 1.148e-09
 88.10515    132.3 1.200e+04 1.280e-09
 88.11534    132.1 1.191e+04 1.219e-09
 88.13127    131.2 1.214e+04 1.361e-09
 88.15165    130.1 1.238e+04 1.514e-09
 88.17203    128.8 1.260e+04 1.661e-09
 88.18499    127.3 1.280e+04 1.795e-09
 88.19518    127.3 1.253e+04 1.627e-09
 88.20800    125.7 1.268e+04 1.707e-09
 88.21819    124.8 1.290e+04 1.847e-09
 88.23317    122.4 1.329e+04 2.075e-09
 88.25355    119.6 1.384e+04 2.436e-09
 88.26483    116.7 1.430e+04 2.779e-09
 88.27502    116.6 1.442e+04 2.916e-09
 88.29430    113.6 1.460e+04 3.080e-09
 88.31468    110.7 1.453e+04 3.001e-09
 88.33449    107.9 1.424e+04 2.603e-09
 88.34468    108.1 1.452e+04 3.022e-09
 88.35008    104.7 1.407e+04 2.282e-09
 88.36027    104.0 1.391e+04 2.240e-09
 88.37582     99.2 1.388e+04 2.019e-09
 88.39620     91.8 1.477e+04 2.311e-09
 88.41433     77.7 1.908e+04 4.739e-09
 88.42391     73.5 2.039e+04 7.338e-09
 88.42611     73.2 2.029e+04 7.749e-09
 88.43177     68.4 2.114e+04 1.152e-08
 88.44196     63.8 2.203e+04 1.633e-08
 88.45215     58.8 2.304e+04 2.165e-08
 88.45925     53.0 2.423e+04 2.752e-08
 88.46435     52.1 2.392e+04 2.571e-08
 88.47252     45.0 2.559e+04 2.622e-08
 88.48271     38.1 2.588e+04 2.390e-08
 88.49205     31.6 2.528e+04 1.920e-08
 88.49715     31.1 2.436e+04 1.554e-08
 88.49918     27.5 2.304e+04 1.323e-08
 88.50432     28.7 2.325e+04 1.076e-08
 88.51847     17.7 1.908e+04 6.196e-09
 88.53885     11.1 1.508e+04 3.780e-09
 88.55923      8.2 1.356e+04 2.514e-09
 88.57402      6.5 1.312e+04 1.809e-09
 88.58421      6.7 1.299e+04 1.706e-09
 88.59999      3.3 1.263e+04 1.276e-09
 88.62037      2.8 1.236e+04 1.177e-09
 88.63423      0.7 1.234e+04 1.173e-09
 88.64442      1.9 1.235e+04 1.171e-09
 88.65387     -0.4 1.240e+04 1.244e-09
 88.66406     -0.5 1.211e+04 1.125e-09
 88.68151     -2.9 1.241e+04 1.396e-09
 88.70189     -3.8 1.254e+04 1.735e-09
 88.72227     -4.5 1.283e+04 2.060e-09
 88.73371     -6.4 1.370e+04 2.367e-09
 88.74390     -8.0 1.410e+04 2.602e-09
 88.76302    -11.2 1.484e+04 2.807e-09
 88.77630    -13.7 1.384e+04 2.591e-09
 88.78649    -13.4 1.398e+04 2.941e-09
 88.80337    -14.6 1.284e+04 2.125e-09
 88.81356    -14.2 1.288e+04 2.150e-09
 88.82416    -15.0 1.227e+04 1.376e-09
 88.84454    -16.6 1.155e+04 7.769e-10
 88.86492    -18.9 1.054e+04 4.624e-10
 88.89559    -21.3 9.771e+03 2.916e-10
 88.91857    -22.1 9.319e+03 2.251e-10
 88.93895    -22.5 9.133e+03 1.986e-10
 88.96325    -22.9 8.818e+03 1.448e-10
 88.98363    -22.6 8.745e+03 1.336e-10
 89.01796    -22.8 8.531e+03 1.034e-10
 89.05872    -22.9 8.351e+03 8.820e-11
 89.09947    -22.7 8.295e+03 8.341e-11
 89.12294    -22.9 8.454e+03 9.070e-11
 89.14332    -22.6 8.452e+03 9.033e-11
 89.18099    -23.5 8.638e+03 1.262e-10
 89.20272    -23.8 8.800e+03 1.990e-10
 89.22310    -24.0 8.855e+03 2.274e-10
 89.26225    -23.4 8.986e+03 2.615e-10
 89.28263    -23.1 8.886e+03 2.310e-10
 89.30327    -23.0 8.912e+03 2.256e-10
 89.34402    -23.6 8.944e+03 1.798e-10
 89.38478    -25.4 8.905e+03 1.552e-10
 89.42194    -26.4 8.702e+03 1.645e-10
 89.44232    -25.7 8.948e+03 2.072e-10
 89.46630    -26.0 8.953e+03 2.174e-10
 89.50706    -25.9 8.914e+03 2.017e-10
 89.54782    -26.3 8.825e+03 1.751e-10
 89.58163    -26.7 8.734e+03 1.531e-10
 89.60201    -26.4 8.856e+03 1.793e-10
 89.62933    -26.7 8.849e+03 1.533e-10
 89.67009    -27.6 8.847e+03 1.412e-10
 89.71085    -28.2 8.810e+03 1.522e-10
 89.74132    -28.3 8.889e+03 1.805e-10
 89.76073    -28.2 8.947e+03 1.895e-10
 89.77102    -27.6 9.037e+03 2.154e-10
 89.79236    -27.1 9.164e+03 2.236e-10
 89.83312    -27.3 9.205e+03 1.675e-10
 89.87388    -28.8 9.082e+03 1.307e-10
 89.90100    -30.4 9.155e+03 1.275e-10
 89.92138    -31.1 9.632e+03 1.795e-10
 89.95540    -32.7 9.849e+03 2.664e-10
 89.99616    -33.3 1.022e+04 4.002e-10
 90.03479    -33.5 1.059e+04 5.029e-10
 90.05517    -33.4 1.079e+04 5.551e-10
 90.06069    -34.4 1.086e+04 5.362e-10
 90.08107    -35.2 1.098e+04 5.777e-10
 90.11843    -36.0 1.070e+04 4.724e-10
 90.15919    -36.3 1.042e+04 3.927e-10
 90.19995    -35.9 1.016e+04 3.230e-10
 90.24070    -35.3 9.628e+03 1.817e-10
 90.28146    -34.5 9.432e+03 1.383e-10
 90.31895    -33.7 9.283e+03 1.056e-10
 90.33932    -33.5 9.214e+03 1.073e-10
 90.35969    -32.7 9.125e+03 8.227e-11
 90.38007    -32.3 9.086e+03 7.411e-11
 90.40374    -31.6 9.060e+03 6.349e-11
 90.44450    -31.1 9.023e+03 5.982e-11
 90.48525    -30.5 8.999e+03 5.897e-11
 90.51938    -29.6 9.006e+03 5.918e-11
 90.53976    -29.0 9.046e+03 6.791e-11
 90.56677    -27.9 8.996e+03 6.060e-11
 90.60310    -27.0 9.014e+03 5.058e-11
 90.62347    -26.4 9.049e+03 5.303e-11
 90.64829    -26.0 8.996e+03 4.445e-11
 90.67907    -25.4 8.863e+03 4.111e-11
 90.69945    -24.6 8.896e+03 3.933e-11
 90.72980    -23.6 8.833e+03 3.641e-11
 90.77056    -22.3 8.835e+03 3.349e-11
 90.81132    -21.3 8.954e+03 2.952e-11
 90.83876    -20.9 8.997e+03 2.811e-11
 90.85914    -20.2 9.022e+03 2.729e-11
 90.88725    -19.9 8.945e+03 3.292e-11
 90.90763    -19.4 9.046e+03 3.165e-11
 90.93359    -19.0 8.906e+03 4.733e-11
 90.97435    -18.1 8.978e+03 6.648e-11
 90.99845    -16.8 9.088e+03 8.916e-11
 91.01883    -16.4 9.156e+03 1.062e-10
 91.05587    -15.8 9.382e+03 1.137e-10
 91.09663    -16.0 9.453e+03 1.190e-10
 91.13739    -16.5 9.459e+03 1.371e-10
 91.15814    -17.1 9.437e+03 1.713e-10
 91.17177    -16.9 9.408e+03 1.712e-10
 91.19178    -16.4 9.548e+03 1.852e-10
 91.21890    -16.6 9.557e+03 2.715e-10
 91.25966    -15.5 9.627e+03 3.554e-10
 91.29745    -15.3 9.715e+03 3.353e-10
 91.31782    -14.9 9.399e+03 2.736e-10
 91.34118    -15.7 9.614e+03 2.641e-10
 91.38193    -15.8 9.615e+03 3.178e-10
 91.42269    -14.9 9.389e+03 3.361e-10
 91.45555    -13.7 9.054e+03 2.716e-10
 91.46961    -13.5 9.269e+03 3.095e-10
 91.47751    -12.3 9.243e+03 3.058e-10
 91.50421    -11.3 8.858e+03 2.026e-10
 91.54497    -10.9 8.572e+03 1.359e-10
 91.58573    -10.7 8.439e+03 1.190e-10
 91.61682    -10.7 8.700e+03 1.473e-10
 91.63720     -8.8 8.667e+03 1.422e-10
 91.66724     -8.5 9.221e+03 2.434e-10
 91.70800     -8.2 9.618e+03 4.003e-10
 91.73970     -6.7 1.010e+04 5.732e-10
 91.75998     -6.0 1.014e+04 5.910e-10
 91.77632     -5.3 1.058e+04 6.985e-10
 91.78651     -4.8 1.081e+04 8.140e-10
 91.79951     -4.7 1.121e+04 9.525e-10
 91.81989     -5.0 1.181e+04 1.198e-09
 91.84027     -5.5 1.241e+04 1.486e-09
 91.85616     -5.9 1.288e+04 1.880e-09
 91.86635     -5.8 1.349e+04 2.242e-09
 91.88103    -18.6 2.675e+04 3.593e-09
 91.89172    -32.3 3.290e+04 8.448e-09
 91.89654    -31.7 3.508e+04 7.459e-09
 91.90108    -35.1 3.601e+04 9.769e-09
 91.90640    -39.9 2.841e+04 2.933e-08
 91.91659    -42.2 2.377e+04 6.283e-08
 91.92678    -43.3 2.200e+04 8.435e-08
 91.93591    -43.8 2.176e+04 8.792e-08
 91.94100    -45.4 2.145e+04 9.355e-08
 91.94716    -45.0 2.201e+04 6.708e-08
 91.95735    -45.4 2.457e+04 2.730e-08
 91.96271    -57.0 2.769e+04 6.489e-09
 91.96780    -54.3 2.914e+04 8.306e-09
 91.97583    -74.4 1.965e+04 1.645e-09
 91.98092    -75.4 1.830e+04 1.552e-09
 91.98792    -81.8 1.230e+04 1.033e-09
 92.00325    -82.7 1.143e+04 9.304e-10
 92.01585    -84.4 1.104e+04 8.890e-10
 92.02601    -83.2 1.093e+04 8.429e-10
 92.04403    -86.1 1.138e+04 1.055e-09
 92.06444    -85.9 1.162e+04 1.220e-09
 92.08482    -85.1 1.183e+04 1.382e-09
 92.09569    -84.3 1.195e+04 1.489e-09
 92.10588    -83.1 1.189e+04 1.487e-09
 92.12558    -82.4 1.196e+04 1.550e-09
 92.14596    -81.7 1.196e+04 1.563e-09
 92.16535    -80.9 1.173e+04 1.439e-09
 92.17493    -79.8 1.172e+04 1.440e-09
 92.17592    -80.3 1.218e+04 1.703e-09
 92.18671    -79.7 1.175e+04 1.364e-09
 92.20709    -79.4 1.126e+04 1.064e-09
 92.23510    -79.5 1.061e+04 7.818e-10
 92.25558    -77.3 1.057e+04 7.691e-10
 92.27862    -76.5 9.871e+03 5.390e-10
 92.30800    -75.0 9.283e+03 3.785e-10
 92.32838    -75.4 9.637e+03 4.520e-10
 92.36013    -73.5 9.150e+03 3.158e-10
 92.39489    -72.0 8.890e+03 2.415e-10
 92.41527    -70.8 9.111e+03 2.980e-10
 92.44165    -69.4 8.912e+03 2.458e-10
 92.48241    -68.1 8.819e+03 2.225e-10
 92.52316    -67.1 8.817e+03 2.194e-10
 92.55458    -66.3 8.949e+03 2.464e-10
 92.57496    -64.9 9.123e+03 2.799e-10
 92.59215    -64.1 9.232e+03 3.119e-10
 92.61253    -64.5 9.490e+03 3.815e-10
 92.64544    -63.5 9.485e+03 3.876e-10
 92.68620    -62.7 9.437e+03 3.438e-10
 92.71427    -62.4 9.316e+03 2.787e-10
 92.73464    -61.1 9.511e+03 3.151e-10
 92.76771    -61.2 9.444e+03 2.739e-10
 92.80847    -61.3 9.433e+03 2.676e-10
 92.84923    -61.6 9.616e+03 3.116e-10
 92.87395    -61.6 9.976e+03 4.181e-10
 92.88064    -60.8 1.049e+04 5.851e-10
 92.89668    -61.5 1.060e+04 6.035e-10
 92.93075    -61.4 1.085e+04 7.060e-10
 92.95370    -61.1 1.086e+04 7.109e-10
 92.96379    -60.8 1.094e+04 7.537e-10
 92.98150    -60.7 1.095e+04 7.529e-10
 93.00188    -60.5 1.091e+04 7.291e-10
 93.01818    -60.4 1.088e+04 7.093e-10
 93.02837    -60.6 1.092e+04 7.190e-10
 93.03345    -60.4 1.083e+04 6.767e-10
 93.04364    -60.0 1.091e+04 7.074e-10
 93.06302    -59.8 1.086e+04 6.826e-10
 93.08339    -59.6 1.076e+04 6.412e-10
 93.10310    -59.1 1.070e+04 6.220e-10
 93.11329    -58.9 1.073e+04 6.287e-10
 93.13444    -58.3 1.051e+04 5.446e-10
 93.16045    -57.0 1.031e+04 4.621e-10
 93.17849    -56.9 1.058e+04 5.515e-10
 93.19333    -56.0 1.079e+04 6.523e-10
 93.21605    -54.6 1.050e+04 5.276e-10
 93.25681    -53.3 1.018e+04 4.116e-10
 93.29757    -52.0 9.950e+03 3.388e-10
 93.33264    -50.8 9.889e+03 3.182e-10
 93.35302    -49.5 9.985e+03 3.429e-10
 93.37909    -48.5 9.999e+03 3.397e-10
 93.41985    -47.9 1.040e+04 4.403e-10
 93.44460    -46.9 1.101e+04 6.510e-10
 93.46498    -45.6 1.103e+04 6.555e-10
 93.49233    -44.1 1.170e+04 9.581e-10
 93.51271    -43.8 1.207e+04 1.165e-09
 93.54212    -42.8 1.245e+04 1.312e-09
 93.58288    -42.0 1.256e+04 1.275e-09
 93.61335    -41.9 1.262e+04 1.180e-09
 93.63363    -41.7 1.267e+04 1.130e-09
 93.65182    -41.9 1.266e+04 1.086e-09
 93.66201    -43.2 1.280e+04 1.114e-09
 93.67439    -44.1 1.315e+04 1.177e-09
 93.69477    -44.9 1.345e+04 1.368e-09
 93.71515    -45.5 1.364e+04 1.648e-09
 93.72856    -45.7 1.375e+04 1.932e-09
 93.73489    -46.3 1.422e+04 2.427e-09
 93.74186    -48.1 1.461e+04 3.005e-09
 93.75591    -49.1 1.508e+04 3.299e-09
 93.77628    -51.4 1.583e+04 3.681e-09
 93.79666    -55.2 1.653e+04 4.438e-09
 93.81151    -59.8 1.734e+04 5.956e-09
 93.82170    -60.8 1.666e+04 5.106e-09
 93.83742    -64.8 1.794e+04 6.670e-09
 93.85780    -69.6 1.989e+04 9.098e-09
 93.87058    -73.0 2.031e+04 8.461e-09
 93.88077    -72.8 2.005e+04 5.956e-09
 93.89136    -79.6 2.289e+04 8.056e-09
 93.90155    -77.1 2.000e+04 5.096e-09
 93.91894    -82.5 2.210e+04 8.471e-09
 93.93123    -86.2 2.359e+04 1.798e-08
 93.93628    -84.4 2.242e+04 1.214e-08
 93.94157    -85.7 2.316e+04 1.674e-08
 93.94667    -85.0 2.302e+04 1.429e-08
 93.95450    -86.7 2.323e+04 2.312e-08
 93.96469    -87.8 2.277e+04 3.657e-08
 93.97110    -88.1 2.219e+04 5.418e-08
 93.97620    -87.3 2.242e+04 3.459e-08
 93.98507    -87.4 2.195e+04 5.217e-08
 93.99526    -87.1 2.152e+04 7.555e-08
 94.00545    -86.7 2.151e+04 9.355e-08
 94.01103    -86.4 2.168e+04 9.949e-08
 94.01309    -86.2 2.169e+04 8.686e-08
 94.01770    -85.3 2.284e+04 1.146e-07
 94.02583    -86.5 2.294e+04 1.231e-07
 94.03602    -87.2 2.240e+04 1.010e-07
 94.04585    -86.9 2.138e+04 6.242e-08
 94.05095    -85.9 2.123e+04 6.536e-08
 94.05640    -85.5 2.037e+04 3.930e-08
 94.06659    -85.2 1.981e+04 2.332e-08
 94.07678    -85.4 1.921e+04 1.462e-08
 94.08365    -85.7 1.855e+04 1.067e-08
 94.08755    -85.3 1.906e+04 1.277e-08
 94.09087    -84.5 1.920e+04 1.405e-08
 94.10230    -85.4 1.805e+04 8.836e-09
 94.12070    -84.9 1.651e+04 4.935e-09
 94.13089    -83.1 1.719e+04 7.190e-09
 94.14311    -83.2 1.552e+04 3.838e-09
 94.15478    -84.4 1.366e+04 2.131e-09
 94.16497    -84.2 1.526e+04 3.326e-09
 94.18387    -85.4 1.417e+04 2.344e-09
 94.20055    -85.7 1.417e+04 2.070e-09
 94.21074    -84.1 1.441e+04 2.649e-09
 94.22462    -84.6 1.454e+04 2.456e-09
 94.24500    -85.5 1.398e+04 2.208e-09
 94.26538    -86.8 1.357e+04 2.104e-09
 94.28039    -88.2 1.343e+04 2.083e-09
 94.29058    -86.8 1.386e+04 2.482e-09
 94.29686    -88.3 1.376e+04 2.445e-09
 94.30190    -88.5 1.407e+04 2.880e-09
 94.31114    -89.0 1.430e+04 2.996e-09
 94.32021    -90.2 1.454e+04 3.156e-09
 94.32531    -89.9 1.448e+04 3.139e-09
 94.33152    -90.3 1.480e+04 3.267e-09
 94.34171    -91.2 1.520e+04 3.498e-09
 94.35190    -91.5 1.544e+04 3.629e-09
 94.36014    -92.1 1.571e+04 3.890e-09
 94.36523    -91.0 1.550e+04 3.690e-09
 94.36780    -91.2 1.570e+04 3.838e-09
 94.37289    -92.4 1.655e+04 4.975e-09
 94.38761    -92.2 1.613e+04 4.604e-09
 94.40804    -92.2 1.578e+04 4.605e-09
 94.42842    -92.2 1.533e+04 4.396e-09
 94.43893    -92.3 1.474e+04 3.799e-09
 94.44040    -94.0 1.478e+04 3.848e-09
 94.45027    -93.0 1.451e+04 3.402e-09
 94.46917    -92.6 1.376e+04 2.722e-09
 94.48955    -91.8 1.313e+04 2.208e-09
 94.50973    -91.0 1.259e+04 1.742e-09
 94.51992    -90.0 1.240e+04 1.633e-09
 94.53031    -89.0 1.196e+04 1.257e-09
 94.55069    -88.1 1.160e+04 9.154e-10
 94.57082    -87.7 1.126e+04 6.527e-10
 94.58101    -89.6 1.068e+04 3.762e-10
 94.58968    -90.1 1.009e+04 2.657e-10
 94.61015    -87.4 1.019e+04 2.986e-10
 94.64259    -86.2 9.595e+03 2.143e-10
 94.68335    -85.8 9.337e+03 1.928e-10
 94.72411    -85.9 9.644e+03 2.719e-10
 94.74946    -85.8 1.029e+04 4.278e-10
 94.76984    -82.8 9.721e+03 2.928e-10
 94.79534    -83.6 1.012e+04 4.113e-10
 94.81562    -84.1 1.052e+04 5.289e-10
 94.82911    -84.9 1.111e+04 7.601e-10
 94.83930    -83.6 1.095e+04 6.476e-10
 94.85497    -84.7 1.169e+04 9.456e-10
 94.86516    -85.7 1.203e+04 1.135e-09
 94.87676    -86.6 1.270e+04 1.608e-09
 94.89713    -87.4 1.311e+04 1.996e-09
 94.90896    -88.2 1.322e+04 2.117e-09
 94.91915    -87.3 1.335e+04 2.393e-09
 94.93789    -87.8 1.331e+04 2.399e-09
 94.95827    -88.3 1.285e+04 2.010e-09
 94.97861    -90.1 1.267e+04 1.503e-09
 94.99700    -95.1 1.404e+04 1.674e-09
 95.00723    -98.3 1.369e+04 1.413e-09
 95.01941   -109.1 1.660e+04 1.738e-09
 95.03979   -116.9 1.779e+04 4.256e-09
 95.05845   -121.4 1.853e+04 8.224e-09
 95.06864   -121.7 1.874e+04 1.010e-08
 95.08055   -125.3 1.917e+04 1.180e-08
 95.10093   -129.5 1.911e+04 1.159e-08
 95.12131   -133.7 1.787e+04 7.718e-09
 95.13830   -137.8 1.557e+04 4.016e-09
 95.14592   -138.5 1.531e+04 3.696e-09
 95.14931   -140.9 1.474e+04 3.605e-09
 95.16206   -143.3 1.275e+04 2.199e-09
 95.18244   -144.2 1.191e+04 1.545e-09
 95.20282   -144.5 1.149e+04 1.176e-09
 95.21814   -144.9 1.112e+04 9.347e-10
 95.22833   -144.4 1.103e+04 1.016e-09
 95.24358   -144.5 1.070e+04 8.432e-10
 95.26396   -144.5 1.048e+04 7.326e-10
 95.28119   -144.2 1.036e+04 6.677e-10
 95.29138   -145.2 1.031e+04 6.161e-10
 95.29799   -144.6 1.029e+04 6.069e-10
 95.30818   -143.9 1.003e+04 5.675e-10
 95.32510   -143.2 1.003e+04 5.544e-10
 95.34548   -142.6 1.004e+04 5.511e-10
 95.36585   -141.9 1.005e+04 5.500e-10
 95.37783   -141.1 1.006e+04 5.476e-10
 95.38802   -139.9 9.557e+03 4.237e-10
 95.41318   -138.8 9.550e+03 4.120e-10
 95.43365   -139.2 9.589e+03 4.239e-10
 95.45776   -137.5 9.557e+03 4.195e-10
 95.49851   -135.6 9.440e+03 4.001e-10
 95.52753   -133.6 9.279e+03 3.624e-10
 95.54791   -132.7 9.157e+03 3.437e-10
 95.58003   -130.7 9.054e+03 3.228e-10
 95.62079   -128.7 8.885e+03 2.823e-10
 95.66155   -126.6 8.684e+03 2.365e-10
 95.68722   -124.4 8.465e+03 1.956e-10
 95.70271   -123.6 8.460e+03 2.034e-10
 95.71780   -123.7 8.478e+03 2.085e-10
 95.74306   -121.4 8.279e+03 1.747e-10
 95.78382   -119.2 8.169e+03 1.525e-10
 95.82458   -116.9 8.166e+03 1.405e-10
 95.84690   -114.7 8.199e+03 1.346e-10
 95.86728   -114.2 8.034e+03 1.314e-10
 95.90610   -112.1 8.057e+03 1.281e-10
 95.94685   -110.1 8.098e+03 1.269e-10
 95.98157   -108.2 8.159e+03 1.285e-10
 96.00056   -108.3 8.131e+03 1.155e-10
 96.00659   -107.5 8.027e+03 1.123e-10
 96.02837   -105.7 8.051e+03 1.109e-10
 96.06913   -104.3 8.129e+03 1.116e-10
 96.10989   -103.9 8.329e+03 1.270e-10
 96.14590   -103.8 9.076e+03 2.078e-10
 96.16628   -103.1 9.317e+03 2.676e-10
 96.19140   -103.0 1.045e+04 5.147e-10
 96.23216   -103.4 1.161e+04 9.387e-10
 96.26573   -104.5 1.249e+04 1.449e-09
 96.28610   -102.9 1.195e+04 1.089e-09
 96.30559   -104.1 1.270e+04 1.583e-09
 96.32597   -102.9 1.282e+04 1.668e-09
 96.35444   -104.6 1.306e+04 1.822e-09
 96.39519   -106.4 1.304e+04 1.769e-09
 96.41789   -108.6 1.256e+04 1.329e-09
 96.42798   -107.5 1.295e+04 1.646e-09
 96.44595   -108.4 1.285e+04 1.525e-09
 96.46509   -109.7 1.265e+04 1.345e-09
 96.47528   -110.0 1.267e+04 1.310e-09
 96.48671   -111.6 1.250e+04 1.162e-09
 96.50708   -113.5 1.224e+04 1.015e-09
 96.52746   -115.5 1.196e+04 9.041e-10
 96.54493   -117.3 1.166e+04 8.278e-10
 96.55512   -118.2 1.185e+04 9.326e-10
 96.55987   -119.7 1.151e+04 8.487e-10
 96.57006   -118.6 1.230e+04 1.236e-09
 96.58860   -119.8 1.184e+04 1.053e-09
 96.60898   -120.8 1.136e+04 8.489e-10
 96.62477   -121.9 1.087e+04 6.553e-10
 96.63496   -122.7 1.088e+04 6.647e-10
 96.64974   -124.0 1.028e+04 4.850e-10
 96.67012   -125.3 9.859e+03 3.848e-10
 96.69050   -126.6 9.769e+03 3.534e-10
 96.70195   -127.9 9.792e+03 3.486e-10
 96.70588   -126.4 9.892e+03 3.960e-10
 96.71481   -127.3 9.741e+03 3.637e-10
 96.73125   -129.2 9.871e+03 3.643e-10
 96.75163   -132.4 1.100e+04 4.680e-10
 96.77201   -135.9 1.230e+04 8.282e-10
 96.78446   -139.0 1.328e+04 1.449e-09
 96.79465   -141.1 1.361e+04 1.452e-09
 96.81277   -144.0 1.429e+04 2.278e-09
 96.83315   -146.7 1.459e+04 2.811e-09
 96.84402   -149.6 1.464e+04 2.923e-09
 96.85421   -149.8 1.514e+04 3.412e-09
 96.86431   -152.6 1.478e+04 3.255e-09
 96.87450   -154.1 1.484e+04 3.425e-09
 96.89429   -156.8 1.405e+04 2.624e-09
 96.91467   -159.5 1.320e+04 1.919e-09
 96.93396   -162.2 1.253e+04 1.483e-09
 96.94415   -163.9 1.293e+04 1.563e-09
 96.95542   -166.1 1.259e+04 1.354e-09
 96.97580   -167.9 1.237e+04 1.232e-09
 96.98610   -169.3 1.219e+04 1.157e-09
 96.99629   -170.9 1.250e+04 1.380e-09
 97.01381   -172.4 1.245e+04 1.365e-09
 97.02400   -173.4 1.232e+04 1.465e-09
 97.03694   -174.6 1.232e+04 1.466e-09
 97.05732   -176.2 1.262e+04 1.576e-09
 97.07770   -178.0 1.314e+04 1.898e-09
 97.09365   -179.5 1.360e+04 2.350e-09
 97.10384   -179.2 1.332e+04 2.087e-09
 97.11798   -180.4 1.365e+04 2.479e-09
 97.12817   -182.4 1.377e+04 2.576e-09
 97.13884   -183.3 1.375e+04 2.641e-09
 97.15922   -184.0 1.362e+04 2.636e-09
 97.17350   -184.2 1.315e+04 2.359e-09
 97.18369   -183.7 1.270e+04 1.957e-09
 97.19997   -183.7 1.227e+04 1.664e-09
 97.22035   -183.8 1.181e+04 1.335e-09
 97.24073   -183.9 1.137e+04 1.056e-09
 97.25334   -184.6 1.098e+04 8.538e-10
 97.26248   -183.7 1.078e+04 7.414e-10
 97.27025   -185.4 1.029e+04 5.369e-10
 97.28149   -186.1 1.010e+04 4.832e-10
 97.30187   -186.9 1.004e+04 4.697e-10
 97.32225   -187.6 1.003e+04 4.794e-10
 97.33318   -188.2 1.026e+04 5.656e-10
 97.34337   -187.1 9.926e+03 4.484e-10
 97.36301   -187.5 1.020e+04 5.371e-10
 97.38339   -187.8 1.057e+04 6.862e-10
 97.40213   -187.8 1.094e+04 8.840e-10
 97.41140   -188.6 1.141e+04 1.145e-09
 97.41303   -187.5 1.104e+04 8.641e-10
 97.42414   -187.4 1.146e+04 1.129e-09
 97.44452   -187.1 1.183e+04 1.420e-09
 97.46490   -186.5 1.214e+04 1.699e-09
 97.48268   -185.9 1.236e+04 1.916e-09
 97.49287   -185.2 1.198e+04 1.588e-09
 97.50566   -184.6 1.215e+04 1.760e-09
 97.52604   -184.1 1.221e+04 1.822e-09
 97.54421   -183.5 1.220e+04 1.824e-09
 97.55440   -184.0 1.223e+04 1.843e-09
 97.56253   -183.2 1.198e+04 1.665e-09
 97.57272   -182.2 1.184e+04 1.533e-09
 97.58718   -181.6 1.163e+04 1.394e-09
 97.60756   -180.9 1.135e+04 1.205e-09
 97.62794   -180.0 1.103e+04 1.014e-09
 97.64237   -179.2 1.072e+04 8.436e-10
 97.65256   -178.5 1.074e+04 8.597e-10
 97.66869   -177.7 1.047e+04 7.231e-10
 97.68628   -176.9 1.023e+04 6.079e-10
 97.69647   -177.6 1.010e+04 4.979e-10
 97.70945   -177.2 1.002e+04 4.226e-10
 97.72222   -177.0 9.998e+03 3.738e-10
 97.74269   -175.2 9.878e+03 3.526e-10
 97.78097   -174.2 9.821e+03 3.163e-10
 97.82173   -172.7 9.760e+03 2.903e-10
 97.86172   -171.1 9.696e+03 2.807e-10
 97.88210   -168.8 9.624e+03 2.623e-10
 97.90325   -167.0 9.553e+03 2.345e-10
 97.94401   -165.2 9.474e+03 2.172e-10
 97.97063   -163.4 9.406e+03 2.070e-10
 97.99101   -164.5 9.145e+03 1.845e-10
 98.02141   -163.3 9.143e+03 1.847e-10
 98.04179   -161.3 9.148e+03 1.712e-10
 98.06628   -160.9 9.494e+03 2.270e-10
 98.10704   -160.7 1.027e+04 3.562e-10
 98.14780   -161.1 1.136e+04 6.256e-10
 98.18110   -161.9 1.234e+04 1.077e-09
 98.20148   -159.1 1.234e+04 1.159e-09
 98.22931   -160.1 1.310e+04 1.690e-09
 98.25468   -161.8 1.352e+04 2.210e-09
 98.26477   -162.4 1.367e+04 2.445e-09
 98.27094   -162.6 1.369e+04 2.519e-09
 98.28113   -161.4 1.367e+04 2.455e-09
 98.30045   -161.6 1.362e+04 2.459e-09
 98.32082   -161.5 1.331e+04 2.239e-09
 98.34059   -161.2 1.282e+04 1.795e-09
 98.35078   -160.0 1.286e+04 1.799e-09
 98.36158   -159.5 1.237e+04 1.378e-09
 98.38196   -158.9 1.196e+04 1.085e-09
 98.39666   -158.3 1.153e+04 8.266e-10
 98.40685   -158.4 1.127e+04 6.818e-10
 98.42044   -157.5 1.094e+04 5.123e-10
 98.43063   -156.5 1.086e+04 5.086e-10
 98.44310   -155.4 1.061e+04 3.904e-10
 98.46348   -154.3 1.046e+04 3.138e-10
 98.48386   -153.3 1.049e+04 2.866e-10
 98.50028   -152.5 1.051e+04 2.827e-10
 98.52076   -151.4 1.040e+04 2.729e-10
 98.53893   -149.2 1.035e+04 2.505e-10
 98.55931   -149.3 1.049e+04 2.537e-10
 98.59614   -147.2 1.066e+04 2.730e-10
 98.63690   -145.2 1.095e+04 3.628e-10
 98.66017   -143.2 1.130e+04 5.039e-10
 98.68055   -141.4 1.080e+04 3.628e-10
 98.71841   -139.6 1.117e+04 5.051e-10
 98.75917   -137.7 1.143e+04 6.369e-10
 98.79948   -135.8 1.153e+04 7.132e-10
 98.81986   -134.2 1.134e+04 6.590e-10
 98.82308   -132.4 1.139e+04 7.093e-10
 98.83317   -132.7 1.160e+04 7.549e-10
 98.85068   -131.9 1.157e+04 7.502e-10
 98.87106   -130.8 1.154e+04 7.446e-10
 98.88931   -129.9 1.151e+04 7.317e-10
 98.89950   -129.3 1.146e+04 7.356e-10
 98.91182   -128.2 1.145e+04 7.323e-10
 98.93220   -127.3 1.145e+04 7.308e-10
 98.95907   -126.0 1.147e+04 7.439e-10
 98.97945   -124.4 1.144e+04 7.512e-10
 98.99334   -123.1 1.151e+04 7.949e-10
 99.01371   -122.3 1.160e+04 8.337e-10
 99.03409   -121.2 1.176e+04 9.058e-10
 99.04900   -120.4 1.185e+04 9.572e-10
 99.05919   -119.7 1.186e+04 9.675e-10
 99.07485   -118.9 1.199e+04 1.044e-09
 99.09523   -118.2 1.213e+04 1.130e-09
 99.10713   -117.4 1.233e+04 1.242e-09
 99.12047   -117.5 1.174e+04 8.668e-10
 99.13923   -116.1 1.189e+04 9.948e-10
 99.16675   -114.8 1.199e+04 1.020e-09
 99.20751   -113.5 1.203e+04 1.017e-09
 99.24827   -112.3 1.203e+04 1.005e-09
 99.27854   -111.1 1.217e+04 1.015e-09
 99.29892   -110.1 1.241e+04 1.170e-09
 99.31950   -109.8 1.246e+04 1.135e-09
 99.33978   -109.7 1.267e+04 1.238e-09
 99.35819   -109.5 1.290e+04 1.391e-09
 99.36838   -109.3 1.321e+04 1.648e-09
 99.38054   -109.1 1.344e+04 1.877e-09
 99.39118   -108.9 1.358e+04 2.059e-09
 99.40137   -109.3 1.316e+04 1.801e-09
 99.42130   -109.0 1.318e+04 1.842e-09
 99.43804   -108.6 1.315e+04 1.838e-09
 99.44823   -108.1 1.330e+04 1.950e-09
 99.46205   -107.4 1.305e+04 1.696e-09
 99.48243   -106.8 1.280e+04 1.434e-09
 99.50281   -106.3 1.258e+04 1.230e-09
 99.51788   -106.0 1.243e+04 1.108e-09
 99.52795   -105.3 1.235e+04 8.732e-10
 99.53326   -106.3 1.146e+04 5.239e-10
 99.54357   -106.2 1.142e+04 5.087e-10
 99.56395   -106.0 1.155e+04 5.673e-10
 99.58433   -105.7 1.194e+04 7.559e-10
 99.59782   -105.3 1.239e+04 1.042e-09
 99.61830   -104.7 1.207e+04 6.535e-10
 99.65515   -103.9 1.278e+04 1.110e-09
 99.67553   -103.8 1.114e+04 4.290e-10
 99.69661   -103.5 1.149e+04 5.921e-10
 99.73723   -103.3 1.172e+04 7.333e-10
 99.76770   -102.8 1.286e+04 1.125e-09
 99.78812   -102.7 1.288e+04 1.204e-09
 99.80722   -102.6 1.268e+04 1.187e-09
 99.81741   -102.5 1.214e+04 9.895e-10
 99.82707   -102.4 1.232e+04 1.100e-09
 99.83726   -102.2 1.251e+04 1.205e-09
 99.84926   -102.2 1.264e+04 1.327e-09
 99.86964   -102.2 1.280e+04 1.468e-09
 99.89002   -102.2 1.287e+04 1.580e-09
 99.90691   -102.3 1.291e+04 1.683e-09
 99.91710   -102.7 1.310e+04 1.928e-09
 99.93077   -102.8 1.307e+04 1.994e-09
 99.94930   -102.9 1.305e+04 2.006e-09
 99.95949   -103.0 1.312e+04 2.039e-09
 99.97153   -103.0 1.288e+04 1.958e-09
 99.98676   -103.0 1.263e+04 1.717e-09
 99.99695   -103.5 1.290e+04 1.919e-09
