# Columns:
#   distance along LOS (in CHIMPs)
#   peculiar velocity  (in km/s)
#   temperature (K)
#   HI number density
# pos=(179.336,165.933,84.1551), angles=(1.12131,1.46459)
  0.00603   -105.9 1.035e+04 5.500e-10
  0.02330   -105.3 1.033e+04 5.495e-10
  0.04511   -106.6 1.073e+04 7.379e-10
  0.07749   -106.8 1.072e+04 7.283e-10
  0.11186   -107.6 1.084e+04 7.418e-10
  0.13367   -109.0 1.107e+04 9.069e-10
  0.15372   -110.6 1.110e+04 9.991e-10
  0.16686   -113.7 1.213e+04 1.298e-09
  0.17776   -113.8 1.207e+04 1.380e-09
  0.19724   -117.2 1.296e+04 1.848e-09
  0.21114   -121.0 1.417e+04 2.513e-09
  0.22204   -119.6 1.356e+04 2.330e-09
  0.24086   -123.2 1.442e+04 2.900e-09
  0.25542   -126.6 1.504e+04 3.505e-09
  0.26370   -124.6 1.491e+04 2.998e-09
  0.27094   -127.9 1.601e+04 4.250e-09
  0.28447   -130.4 1.603e+04 4.821e-09
  0.29971   -132.0 1.590e+04 5.188e-09
  0.31061   -130.3 1.594e+04 5.362e-09
  0.32809   -131.6 1.617e+04 6.016e-09
  0.34399   -132.7 1.647e+04 6.338e-09
  0.35489   -132.0 1.714e+04 7.875e-09
  0.37171   -133.0 1.759e+04 8.512e-09
  0.38827   -134.3 1.785e+04 8.991e-09
  0.39918   -133.2 1.876e+04 1.206e-08
  0.41532   -134.5 1.884e+04 1.206e-08
  0.43256   -135.7 1.842e+04 1.082e-08
  0.44346   -134.5 1.922e+04 1.423e-08
  0.45894   -135.3 1.862e+04 1.140e-08
  0.47136   -136.0 1.784e+04 9.040e-09
  0.47836   -136.5 1.578e+04 3.990e-09
  0.48774   -135.9 1.668e+04 4.660e-09
  0.50256   -136.6 1.572e+04 3.376e-09
  0.52112   -137.1 1.478e+04 2.481e-09
  0.53203   -137.1 1.528e+04 3.103e-09
  0.54617   -137.2 1.433e+04 2.274e-09
  0.56541   -137.1 1.343e+04 1.630e-09
  0.57631   -136.7 1.394e+04 2.310e-09
  0.58979   -136.4 1.314e+04 1.653e-09
  0.60969   -135.8 1.236e+04 1.169e-09
  0.62059   -135.1 1.305e+04 1.793e-09
  0.63340   -134.4 1.241e+04 1.303e-09
  0.65397   -133.8 1.179e+04 9.627e-10
  0.66488   -133.0 1.272e+04 1.545e-09
  0.67178   -132.3 1.219e+04 1.186e-09
  0.68269   -132.9 1.155e+04 8.261e-10
  0.69826   -132.2 1.103e+04 6.857e-10
  0.70916   -131.4 1.218e+04 1.152e-09
  0.72064   -130.6 1.177e+04 9.642e-10
  0.74244   -129.9 1.140e+04 8.397e-10
  0.76425   -128.6 1.227e+04 1.227e-09
  0.78606   -128.0 1.203e+04 1.113e-09
  0.79773   -127.6 1.182e+04 1.033e-09
  0.80863   -127.1 1.292e+04 1.655e-09
  0.82968   -126.9 1.267e+04 1.493e-09
  0.84201   -126.6 1.240e+04 1.345e-09
  0.85291   -125.8 1.343e+04 2.096e-09
  0.87220   -125.8 1.304e+04 1.777e-09
  0.88311   -126.8 1.244e+04 1.469e-09
  0.88629   -126.7 1.199e+04 1.227e-09
  0.89720   -126.0 1.263e+04 1.618e-09
  0.91691   -126.1 1.199e+04 1.258e-09
  0.93058   -126.1 1.138e+04 9.859e-10
  0.94148   -125.5 1.165e+04 1.140e-09
  0.96053   -125.6 1.102e+04 8.875e-10
  0.97486   -125.5 1.057e+04 7.281e-10
  0.98576   -125.0 1.065e+04 7.865e-10
  1.00414   -124.8 1.032e+04 6.688e-10
  1.01914   -124.6 1.011e+04 5.926e-10
  1.03005   -123.9 1.011e+04 6.062e-10
  1.04776   -123.6 9.996e+03 5.499e-10
  1.06343   -123.4 9.931e+03 5.026e-10
  1.07433   -122.6 9.934e+03 5.077e-10
  1.08353   -122.5 9.906e+03 4.630e-10
  1.09443   -123.3 9.827e+03 4.005e-10
  1.10771   -123.6 9.817e+03 3.760e-10
  1.11861   -122.8 9.791e+03 3.796e-10
  1.13499   -122.9 9.719e+03 3.594e-10
  1.16780   -123.2 9.685e+03 3.623e-10
  1.19647   -123.1 9.643e+03 3.565e-10
  1.20728   -121.5 9.631e+03 3.616e-10
  1.22222   -121.3 9.588e+03 3.561e-10
  1.24056   -121.1 9.497e+03 3.429e-10
  1.25146   -120.7 9.569e+03 3.613e-10
  1.26584   -120.5 9.510e+03 3.469e-10
  1.28395   -120.4 9.407e+03 3.261e-10
  1.29205   -122.0 9.547e+03 3.796e-10
  1.29575   -121.9 9.730e+03 4.473e-10
  1.30946   -122.1 9.746e+03 4.435e-10
  1.32913   -122.9 1.012e+04 4.524e-10
  1.34003   -123.4 1.054e+04 5.756e-10
  1.35307   -124.9 1.104e+04 6.899e-10
  1.37341   -126.3 1.138e+04 8.712e-10
  1.38431   -126.6 1.188e+04 1.179e-09
  1.39669   -127.6 1.210e+04 1.443e-09
  1.41769   -128.2 1.225e+04 1.672e-09
  1.42860   -128.7 1.302e+04 2.198e-09
  1.44031   -129.2 1.301e+04 2.273e-09
  1.46198   -129.6 1.293e+04 2.278e-09
  1.47288   -130.0 1.321e+04 2.587e-09
  1.48392   -130.3 1.273e+04 2.220e-09
  1.49527   -130.5 1.228e+04 1.885e-09
  1.50618   -133.4 1.239e+04 1.800e-09
  1.51716   -133.9 1.214e+04 1.606e-09
  1.52807   -134.4 1.236e+04 1.665e-09
  1.54935   -134.7 1.218e+04 1.536e-09
  1.56145   -134.8 1.200e+04 1.461e-09
  1.57235   -135.4 1.200e+04 1.467e-09
  1.59296   -135.3 1.172e+04 1.402e-09
  1.60573   -134.9 1.148e+04 1.353e-09
  1.61664   -135.0 1.130e+04 1.312e-09
  1.63658   -134.4 1.120e+04 1.292e-09
  1.65001   -133.8 1.119e+04 1.290e-09
  1.66092   -133.7 1.108e+04 1.231e-09
  1.68020   -133.4 1.128e+04 1.273e-09
  1.69430   -133.4 1.171e+04 1.396e-09
  1.69889   -133.7 1.176e+04 1.312e-09
  1.70660   -136.2 1.241e+04 1.682e-09
  1.72381   -136.5 1.254e+04 1.849e-09
  1.73858   -136.8 1.254e+04 1.996e-09
  1.74949   -137.4 1.223e+04 1.784e-09
  1.76743   -137.4 1.212e+04 1.836e-09
  1.78286   -137.2 1.206e+04 1.847e-09
  1.79377   -137.7 1.185e+04 1.696e-09
  1.81104   -137.4 1.177e+04 1.674e-09
  1.82715   -137.1 1.168e+04 1.608e-09
  1.83805   -137.6 1.156e+04 1.505e-09
  1.85466   -137.5 1.147e+04 1.423e-09
  1.87143   -137.5 1.134e+04 1.319e-09
  1.88234   -138.2 1.134e+04 1.291e-09
  1.89611   -138.1 1.119e+04 1.199e-09
  1.90702   -139.5 1.109e+04 1.144e-09
  1.91571   -139.3 1.090e+04 1.058e-09
  1.92672   -140.5 1.081e+04 1.036e-09
  1.95299   -139.6 1.052e+04 9.124e-10
  1.99357   -138.4 1.033e+04 8.461e-10
  2.01528   -137.4 1.008e+04 7.556e-10
  2.02913   -136.7 1.007e+04 7.518e-10
  2.04856   -136.2 1.007e+04 7.519e-10
  2.05947   -136.1 9.772e+03 6.233e-10
  2.07274   -135.6 9.877e+03 6.531e-10
  2.09285   -135.2 1.006e+04 7.152e-10
  2.10375   -135.3 9.872e+03 6.059e-10
  2.10744   -134.9 1.009e+04 6.869e-10
  2.11834   -135.5 1.038e+04 8.086e-10
  2.13713   -135.0 1.058e+04 8.937e-10
  2.14804   -135.3 1.057e+04 8.683e-10
  2.15998   -134.8 1.076e+04 9.713e-10
  2.18141   -134.4 1.095e+04 1.070e-09
  2.19242   -134.6 1.057e+04 8.444e-10
  2.21469   -133.6 1.091e+04 1.020e-09
  2.25831   -133.1 1.101e+04 1.068e-09
  2.28108   -132.7 1.096e+04 1.039e-09
  2.29811   -131.6 1.064e+04 9.033e-10
  2.31896   -131.5 1.100e+04 1.123e-09
  2.34554   -130.9 1.062e+04 8.854e-10
  2.36965   -130.8 1.008e+04 6.419e-10
  2.39146   -129.2 1.002e+04 6.355e-10
  2.43277   -129.6 9.624e+03 4.933e-10
  2.45812   -129.5 9.318e+03 4.129e-10
  2.46892   -128.6 9.478e+03 4.491e-10
  2.48710   -128.7 9.379e+03 4.214e-10
  2.50230   -128.9 9.311e+03 4.042e-10
  2.51258   -127.8 9.592e+03 4.634e-10
  2.51918   -127.4 9.697e+03 5.040e-10
  2.53071   -127.5 9.681e+03 4.957e-10
  2.54659   -127.7 9.681e+03 4.945e-10
  2.55749   -126.5 9.925e+03 5.584e-10
  2.57433   -127.0 9.957e+03 5.638e-10
  2.59087   -127.8 1.014e+04 6.231e-10
  2.60177   -127.6 1.112e+04 8.039e-10
  2.61795   -129.0 1.145e+04 9.811e-10
  2.63515   -130.1 1.162e+04 1.178e-09
  2.64606   -131.3 1.398e+04 2.364e-09
  2.66156   -131.9 1.390e+04 2.424e-09
  2.67944   -132.1 1.334e+04 2.439e-09
  2.69034   -131.9 1.588e+04 5.294e-09
  2.70518   -131.3 1.468e+04 3.923e-09
  2.71960   -131.0 1.343e+04 2.729e-09
  2.72724   -130.4 1.390e+04 3.193e-09
  2.73462   -129.6 1.526e+04 4.696e-09
  2.74880   -129.3 1.396e+04 3.080e-09
  2.76800   -129.4 1.292e+04 2.124e-09
  2.77891   -128.8 1.408e+04 2.830e-09
  2.79241   -129.4 1.301e+04 1.967e-09
  2.81229   -130.3 1.234e+04 1.591e-09
  2.82319   -129.6 1.288e+04 1.877e-09
  2.83603   -130.6 1.259e+04 1.731e-09
  2.85657   -131.8 1.258e+04 1.727e-09
  2.86747   -131.2 1.304e+04 2.054e-09
  2.87964   -133.4 1.370e+04 2.479e-09
  2.90085   -135.4 1.476e+04 3.698e-09
  2.91176   -135.8 1.562e+04 4.710e-09
  2.92002   -137.7 1.619e+04 6.463e-09
  2.93092   -138.3 1.629e+04 6.073e-09
  2.94507   -140.2 1.631e+04 6.837e-09
  2.96688   -142.0 1.688e+04 1.006e-08
  2.98869   -142.3 1.591e+04 8.411e-09
  3.00032   -141.8 1.473e+04 5.750e-09
  3.01123   -141.3 1.473e+04 5.704e-09
  3.03230   -140.6 1.345e+04 3.573e-09
  3.04461   -140.4 1.243e+04 2.333e-09
  3.05551   -140.7 1.267e+04 2.298e-09
  3.07592   -140.6 1.168e+04 1.481e-09
  3.08889   -140.4 1.098e+04 1.058e-09
  3.09979   -141.4 1.113e+04 1.100e-09
  3.11953   -140.7 1.067e+04 8.553e-10
  3.13134   -139.8 1.031e+04 6.795e-10
  3.13408   -139.9 1.048e+04 7.985e-10
  3.14408   -140.8 1.081e+04 9.393e-10
  3.16315   -139.6 1.048e+04 7.929e-10
  3.17746   -138.3 1.018e+04 6.595e-10
  3.18836   -138.7 1.082e+04 9.525e-10
  3.20677   -137.2 1.052e+04 7.978e-10
  3.22174   -135.8 1.024e+04 6.628e-10
  3.23264   -135.9 1.100e+04 1.040e-09
  3.25038   -134.4 1.087e+04 9.167e-10
  3.26602   -133.2 1.095e+04 8.531e-10
  3.27693   -135.3 1.329e+04 2.130e-09
  3.29400   -135.3 1.437e+04 2.720e-09
  3.31031   -135.4 1.587e+04 3.765e-09
  3.32116   -135.5 1.699e+04 6.759e-09
  3.33167   -135.2 1.761e+04 8.154e-09
  3.34262   -134.3 1.683e+04 7.174e-09
  3.35459   -133.9 1.828e+04 1.081e-08
  3.36549   -133.6 1.850e+04 1.235e-08
  3.37573   -133.5 1.952e+04 2.156e-08
  3.38209   -133.4 1.964e+04 2.682e-08
  3.38754   -133.0 1.964e+04 2.691e-08
  3.39749   -132.6 1.958e+04 3.454e-08
  3.40423   -132.0 1.949e+04 4.320e-08
  3.40968   -131.5 1.952e+04 3.832e-08
  3.41930   -130.9 1.959e+04 4.708e-08
  3.42637   -130.6 1.969e+04 5.345e-08
  3.43182   -130.4 1.965e+04 3.776e-08
  3.43733   -130.2 1.953e+04 4.056e-08
  3.44278   -130.0 1.966e+04 3.438e-08
  3.44851   -129.6 1.948e+04 3.698e-08
  3.45401   -130.2 1.989e+04 1.539e-08
  3.46296   -129.9 1.971e+04 2.384e-08
  3.47065   -129.6 1.962e+04 2.647e-08
  3.47610   -129.8 1.997e+04 1.476e-08
  3.48472   -129.3 1.996e+04 1.649e-08
  3.49279   -128.8 1.991e+04 2.001e-08
  3.49830   -130.5 2.074e+04 5.358e-09
  3.51208   -129.7 2.084e+04 7.465e-09
  3.53172   -129.3 2.098e+04 9.780e-09
  3.54092   -132.8 1.823e+04 1.417e-09
  3.54309   -131.1 2.083e+04 1.782e-09
  3.55570   -130.5 2.219e+04 2.305e-09
  3.57601   -130.5 2.217e+04 2.938e-09
  3.58691   -134.9 1.173e+04 8.480e-10
  3.59931   -134.9 1.236e+04 8.953e-10
  3.62029   -134.9 1.293e+04 9.753e-10
  3.63119   -134.5 1.016e+04 6.359e-10
  3.64293   -134.4 1.021e+04 6.390e-10
  3.66457   -134.2 1.049e+04 6.526e-10
  3.67548   -133.1 9.957e+03 5.499e-10
  3.68655   -132.8 9.986e+03 5.502e-10
  3.70835   -132.6 1.024e+04 5.696e-10
  3.71976   -132.5 1.112e+04 6.984e-10
  3.73066   -131.0 9.810e+03 4.943e-10
  3.74351   -130.9 1.038e+04 5.767e-10
  3.75441   -130.9 1.071e+04 7.340e-10
  3.76404   -130.8 1.154e+04 1.002e-09
  3.77495   -129.3 1.059e+04 7.364e-10
  3.79559   -129.1 1.116e+04 9.285e-10
  3.80833   -128.7 1.161e+04 1.171e-09
  3.83023   -126.2 1.058e+04 7.509e-10
  3.85271   -125.8 1.128e+04 1.112e-09
  3.86351   -124.7 1.084e+04 8.943e-10
  3.88282   -124.5 1.104e+04 9.906e-10
  3.89689   -124.1 1.116e+04 1.066e-09
  3.91880   -122.0 1.061e+04 8.475e-10
  3.94412   -121.1 1.081e+04 9.740e-10
  3.96593   -121.6 1.124e+04 1.276e-09
  3.98566   -121.1 1.144e+04 1.419e-09
  4.00746   -118.6 1.118e+04 1.212e-09
  4.04658   -118.5 1.153e+04 1.444e-09
  4.07422   -118.6 1.184e+04 1.544e-09
  4.09603   -116.6 1.209e+04 1.671e-09
  4.11841   -117.3 1.215e+04 1.720e-09
  4.12921   -116.7 1.249e+04 1.906e-09
  4.14435   -117.3 1.260e+04 1.961e-09
  4.15525   -118.2 1.273e+04 1.912e-09
  4.16259   -118.9 1.291e+04 1.911e-09
  4.17350   -119.4 1.350e+04 2.336e-09
  4.18813   -120.5 1.350e+04 2.350e-09
  4.20688   -121.1 1.321e+04 2.323e-09
  4.21778   -121.1 1.342e+04 2.746e-09
  4.23175   -121.2 1.275e+04 2.352e-09
  4.25116   -120.9 1.202e+04 1.872e-09
  4.26206   -120.2 1.194e+04 1.751e-09
  4.27537   -119.4 1.118e+04 1.225e-09
  4.29544   -118.6 1.062e+04 8.320e-10
  4.30635   -118.4 1.045e+04 6.074e-10
  4.31898   -118.5 9.956e+03 3.859e-10
  4.33973   -118.6 9.511e+03 2.797e-10
  4.35471   -118.8 8.999e+03 1.899e-10
  4.36677   -121.3 8.511e+03 1.488e-10
  4.39551   -119.7 8.141e+03 1.115e-10
  4.42849   -117.8 7.985e+03 9.409e-11
  4.45030   -117.7 7.960e+03 9.527e-11
  4.48274   -116.0 7.958e+03 9.341e-11
  4.51706   -114.7 8.023e+03 9.448e-11
  4.53886   -114.8 8.204e+03 1.213e-10
  4.56997   -113.7 8.524e+03 1.648e-10
  4.60562   -112.7 8.841e+03 2.314e-10
  4.62743   -112.4 9.204e+03 3.062e-10
  4.65721   -111.5 9.512e+03 3.786e-10
  4.69419   -110.8 9.847e+03 4.654e-10
  4.71590   -111.3 1.010e+04 5.522e-10
  4.73334   -111.1 1.030e+04 6.280e-10
  4.74918   -111.0 1.047e+04 6.907e-10
  4.76009   -111.3 1.050e+04 7.125e-10
  4.76742   -111.1 1.063e+04 7.548e-10
  4.77832   -111.2 1.086e+04 8.629e-10
  4.79346   -111.0 1.100e+04 8.994e-10
  4.80437   -111.1 1.087e+04 8.477e-10
  4.82057   -111.0 1.090e+04 8.466e-10
  4.83775   -110.9 1.093e+04 8.160e-10
  4.84865   -110.8 1.073e+04 7.215e-10
  4.86419   -110.6 1.072e+04 6.738e-10
  4.88203   -110.5 1.071e+04 6.268e-10
  4.89294   -110.6 1.052e+04 5.482e-10
  4.90780   -110.5 1.049e+04 5.058e-10
  4.92631   -110.4 1.047e+04 4.699e-10
  4.93722   -110.6 1.027e+04 4.084e-10
  4.95142   -110.6 1.030e+04 3.944e-10
  4.96784   -110.4 1.033e+04 3.933e-10
  4.97611   -110.3 1.039e+04 4.180e-10
  4.98160   -110.6 1.012e+04 3.569e-10
  5.00614   -110.1 1.019e+04 3.431e-10
  5.04846   -109.5 1.026e+04 3.458e-10
  5.07026   -109.8 9.823e+03 2.509e-10
  5.09337   -109.4 9.842e+03 2.485e-10
  5.13698   -108.9 9.980e+03 2.552e-10
  5.16845   -109.1 9.938e+03 2.564e-10
  5.19026   -109.6 1.017e+04 2.994e-10
  5.22422   -109.1 1.029e+04 3.553e-10
  5.24740   -108.4 1.042e+04 4.303e-10
  5.26921   -109.0 1.027e+04 4.148e-10
  5.31145   -108.2 1.043e+04 4.981e-10
  5.33596   -107.5 1.058e+04 5.737e-10
  5.35777   -108.1 1.037e+04 4.938e-10
  5.39868   -107.7 1.039e+04 5.117e-10
  5.42453   -107.4 1.033e+04 5.107e-10
  5.44634   -108.1 1.020e+04 4.716e-10
  5.48592   -107.7 1.005e+04 4.684e-10
  5.51310   -107.1 9.975e+03 4.503e-10
  5.53491   -107.8 1.003e+04 4.861e-10
  5.56929   -107.3 1.003e+04 4.858e-10
  5.59110   -107.4 1.053e+04 6.217e-10
  5.60166   -106.8 1.060e+04 6.769e-10
  5.62347   -108.2 1.056e+04 6.423e-10
  5.66038   -107.6 1.064e+04 6.752e-10
  5.69023   -107.0 1.074e+04 7.066e-10
  5.71204   -109.1 1.052e+04 6.227e-10
  5.74761   -108.4 1.038e+04 5.868e-10
  5.77880   -107.5 1.032e+04 5.381e-10
  5.80061   -109.0 1.006e+04 3.943e-10
  5.82298   -108.2 1.026e+04 4.250e-10
  5.83379   -109.8 1.032e+04 3.323e-10
  5.84555   -109.9 1.038e+04 3.220e-10
  5.86717   -110.1 1.045e+04 3.199e-10
  5.88908   -112.6 1.004e+04 3.188e-10
  5.92208   -113.3 1.074e+04 4.512e-10
  5.95469   -116.5 1.234e+04 9.666e-10
  5.96664   -116.8 1.292e+04 1.275e-09
  5.97754   -119.6 1.405e+04 2.168e-09
  5.99175   -120.0 1.452e+04 3.094e-09
  6.00265   -122.0 1.556e+04 5.944e-09
  6.01092   -122.1 1.567e+04 7.045e-09
  6.02183   -122.2 1.538e+04 6.536e-09
  6.04183   -122.1 1.553e+04 6.485e-09
  6.05521   -122.6 1.584e+04 6.053e-09
  6.06611   -124.8 1.595e+04 4.361e-09
  6.08544   -129.5 1.759e+04 3.913e-09
  6.09949   -137.5 1.857e+04 3.642e-09
  6.11039   -143.4 1.678e+04 3.096e-09
  6.12906   -150.0 1.609e+04 3.763e-09
  6.14377   -154.6 1.566e+04 4.822e-09
  6.15468   -154.8 1.548e+04 4.461e-09
  6.17268   -158.0 1.551e+04 4.553e-09
  6.18806   -161.2 1.543e+04 4.168e-09
  6.19664   -162.3 1.458e+04 2.846e-09
  6.20307   -162.5 1.415e+04 2.687e-09
  6.21629   -165.7 1.368e+04 2.168e-09
  6.23234   -168.8 1.305e+04 1.672e-09
  6.24324   -169.1 1.224e+04 1.209e-09
  6.25991   -171.4 1.180e+04 9.809e-10
  6.27662   -173.1 1.143e+04 8.484e-10
  6.28753   -172.7 1.113e+04 6.754e-10
  6.30353   -173.8 1.083e+04 6.226e-10
  6.32091   -174.6 1.060e+04 5.939e-10
  6.33181   -173.7 1.032e+04 4.790e-10
  6.34714   -174.0 1.019e+04 4.696e-10
  6.36519   -174.1 1.012e+04 4.683e-10
  6.37609   -173.0 9.902e+03 3.832e-10
  6.39076   -173.0 9.878e+03 3.837e-10
  6.40349   -172.9 9.863e+03 3.861e-10
  6.41130   -172.7 9.872e+03 3.873e-10
  6.42048   -171.4 9.773e+03 3.212e-10
  6.44547   -171.1 9.768e+03 3.207e-10
  6.48733   -170.6 9.719e+03 3.289e-10
  6.50914   -168.6 9.285e+03 2.520e-10
  6.53271   -167.5 9.279e+03 2.650e-10
  6.57590   -166.2 9.389e+03 3.177e-10
  6.59771   -164.2 9.035e+03 2.453e-10
  6.61994   -162.8 9.174e+03 2.885e-10
  6.66356   -161.3 9.273e+03 3.390e-10
  6.68627   -159.7 9.307e+03 3.765e-10
  6.70808   -157.8 8.936e+03 2.695e-10
  6.75079   -156.2 8.921e+03 2.901e-10
  6.77484   -154.5 8.906e+03 2.947e-10
  6.79587   -153.0 8.665e+03 2.190e-10
  6.81543   -153.1 8.504e+03 1.978e-10
  6.83802   -151.3 8.479e+03 2.001e-10
  6.86341   -149.4 8.339e+03 1.999e-10
  6.88521   -147.9 8.270e+03 1.624e-10
  6.92525   -145.9 8.118e+03 1.567e-10
  6.95197   -143.9 7.987e+03 1.449e-10
  6.97378   -142.4 7.939e+03 1.290e-10
  7.01249   -140.4 7.870e+03 1.207e-10
  7.04054   -138.5 7.818e+03 1.151e-10
  7.06235   -137.1 7.833e+03 1.146e-10
  7.09972   -135.2 7.811e+03 1.128e-10
  7.12911   -133.3 7.805e+03 1.123e-10
  7.15091   -132.3 7.920e+03 1.205e-10
  7.18695   -130.6 7.946e+03 1.270e-10
  7.21627   -128.8 7.976e+03 1.366e-10
  7.22518   -128.8 7.883e+03 1.224e-10
  7.23948   -127.9 8.032e+03 1.535e-10
  7.27418   -126.0 8.026e+03 1.589e-10
  7.30624   -124.0 8.021e+03 1.637e-10
  7.32805   -122.9 8.120e+03 1.854e-10
  7.36142   -120.9 8.088e+03 1.790e-10
  7.39481   -118.8 8.060e+03 1.738e-10
  7.41661   -117.8 8.059e+03 1.681e-10
  7.44865   -115.7 8.063e+03 1.646e-10
  7.48337   -113.8 8.078e+03 1.628e-10
  7.50518   -113.3 8.212e+03 1.646e-10
  7.53588   -111.7 8.316e+03 1.813e-10
  7.57194   -110.3 8.437e+03 2.032e-10
  7.59375   -110.1 8.821e+03 2.931e-10
  7.61711   -108.6 8.962e+03 3.460e-10
  7.63892   -108.6 8.863e+03 3.225e-10
  7.66051   -106.9 8.912e+03 3.470e-10
  7.68231   -106.3 9.107e+03 4.093e-10
  7.71035   -104.6 9.047e+03 3.915e-10
  7.74907   -102.9 9.039e+03 3.742e-10
  7.77088   -102.3 8.942e+03 3.438e-10
  7.79758   -100.8 8.940e+03 3.298e-10
  7.83764    -99.5 8.951e+03 3.267e-10
  7.85945    -98.8 8.885e+03 2.989e-10
  7.88481    -97.5 9.009e+03 3.182e-10
  7.92621    -96.3 9.137e+03 3.440e-10
  7.94801    -95.2 9.139e+03 3.455e-10
  7.97205    -93.9 9.297e+03 3.822e-10
  8.01477    -92.8 9.486e+03 4.227e-10
  8.03658    -91.5 9.534e+03 4.422e-10
  8.03976    -90.3 9.718e+03 4.746e-10
  8.06157    -89.5 9.450e+03 4.237e-10
  8.10289    -88.3 9.609e+03 4.668e-10
  8.12515    -87.2 9.727e+03 4.826e-10
  8.14696    -85.8 9.688e+03 4.737e-10
  8.19013    -84.7 9.703e+03 4.686e-10
  8.21371    -83.4 9.568e+03 4.030e-10
  8.23552    -81.9 9.560e+03 4.039e-10
  8.27736    -80.5 9.379e+03 3.342e-10
  8.30228    -79.1 9.231e+03 2.806e-10
  8.32409    -77.8 9.269e+03 2.873e-10
  8.36459    -76.3 9.171e+03 2.499e-10
  8.39085    -74.7 9.128e+03 2.286e-10
  8.41266    -73.6 9.148e+03 2.325e-10
  8.44060    -71.9 9.130e+03 2.193e-10
  8.46241    -71.8 8.985e+03 1.915e-10
  8.47941    -70.2 8.986e+03 1.835e-10
  8.50122    -69.2 9.031e+03 1.924e-10
  8.53906    -67.5 9.028e+03 1.894e-10
  8.56798    -65.8 9.116e+03 1.959e-10
  8.58979    -64.9 9.222e+03 2.312e-10
  8.62629    -63.3 9.423e+03 2.721e-10
  8.65655    -61.7 9.652e+03 3.367e-10
  8.67836    -60.7 9.948e+03 4.362e-10
  8.71352    -59.1 1.019e+04 5.167e-10
  8.74511    -57.7 1.039e+04 5.734e-10
  8.76692    -56.9 1.053e+04 6.179e-10
  8.80076    -55.8 1.070e+04 6.532e-10
  8.83368    -55.0 1.086e+04 6.749e-10
  8.85256    -54.1 1.091e+04 6.836e-10
  8.86325    -54.2 1.134e+04 9.779e-10
  8.88799    -53.7 1.163e+04 1.115e-09
  8.92225    -53.4 1.181e+04 1.195e-09
  8.94406    -52.3 1.185e+04 1.213e-09
  8.97522    -52.1 1.190e+04 1.236e-09
  9.01081    -51.8 1.174e+04 1.101e-09
  9.03262    -50.5 1.173e+04 1.083e-09
  9.06245    -49.9 1.136e+04 7.900e-10
  9.09938    -49.0 1.088e+04 5.114e-10
  9.12119    -47.7 1.095e+04 5.192e-10
  9.14969    -46.8 1.050e+04 3.258e-10
  9.18795    -45.8 1.015e+04 2.134e-10
  9.20976    -44.6 1.023e+04 2.268e-10
  9.23692    -43.4 9.982e+03 1.690e-10
  9.26409    -42.1 9.900e+03 1.555e-10
  9.28188    -42.0 9.818e+03 1.325e-10
  9.29832    -40.7 9.855e+03 1.287e-10
  9.32415    -39.2 9.822e+03 1.255e-10
  9.36508    -37.7 9.870e+03 1.359e-10
  9.38689    -36.3 9.895e+03 1.271e-10
  9.41138    -34.9 9.942e+03 1.542e-10
  9.45365    -33.4 9.941e+03 1.794e-10
  9.47546    -32.0 9.951e+03 1.718e-10
  9.49862    -30.5 9.920e+03 1.902e-10
  9.54221    -28.9 9.906e+03 1.940e-10
  9.58583    -25.9 9.825e+03 1.906e-10
  9.62947    -24.1 9.652e+03 1.701e-10
  9.65259    -22.3 9.497e+03 1.385e-10
  9.66624    -20.9 9.554e+03 1.433e-10
  9.68674    -20.4 9.558e+03 1.437e-10
  9.71670    -18.7 9.441e+03 1.250e-10
  9.74116    -17.0 9.320e+03 1.094e-10
  9.76296    -15.6 9.400e+03 1.210e-10
  9.80393    -13.9 9.292e+03 1.154e-10
  9.82972    -12.3 9.191e+03 1.108e-10
  9.85153    -10.9 9.288e+03 1.355e-10
  9.89116     -9.2 9.217e+03 1.363e-10
  9.91829     -7.6 9.157e+03 1.346e-10
  9.94010     -6.1 9.343e+03 1.790e-10
  9.97840     -4.6 9.277e+03 1.787e-10
 10.00686     -3.0 9.191e+03 1.720e-10
 10.02866     -1.4 9.500e+03 2.385e-10
 10.06563      0.1 9.359e+03 2.112e-10
 10.09542      2.2 9.148e+03 1.744e-10
 10.11723      3.4 9.441e+03 2.354e-10
 10.15286      5.0 9.180e+03 1.829e-10
 10.18399      6.8 8.990e+03 1.507e-10
 10.20580      7.7 9.230e+03 2.015e-10
 10.24009      9.6 9.136e+03 1.868e-10
 10.27256     11.7 9.136e+03 1.858e-10
 10.29436     12.2 9.390e+03 2.506e-10
 10.32733     14.2 9.464e+03 2.744e-10
 10.36112     16.0 9.651e+03 3.499e-10
 10.38293     16.4 9.796e+03 4.085e-10
 10.41456     18.2 1.007e+04 5.206e-10
 10.44969     20.1 1.040e+04 6.491e-10
 10.47150     20.4 1.037e+04 6.140e-10
 10.48842     22.1 1.053e+04 6.674e-10
 10.49922     21.8 1.099e+04 1.013e-09
 10.50468     22.7 1.104e+04 1.068e-09
 10.51559     22.7 1.098e+04 1.024e-09
 10.53816     24.3 1.125e+04 1.161e-09
 10.56006     24.5 1.096e+04 9.610e-10
 10.58903     26.8 1.060e+04 7.582e-10
 10.62682     29.1 1.007e+04 5.040e-10
 10.64863     29.2 9.737e+03 3.610e-10
 10.67626     31.3 9.443e+03 2.802e-10
 10.71539     33.4 9.324e+03 2.611e-10
 10.73720     34.1 9.198e+03 2.382e-10
 10.76349     36.3 9.424e+03 2.745e-10
 10.80396     37.9 9.855e+03 3.831e-10
 10.82576     38.4 9.862e+03 3.483e-10
 10.83972     38.4 1.026e+04 5.572e-10
 10.85895     38.8 1.064e+04 7.667e-10
 10.86985     39.0 1.051e+04 7.093e-10
 10.88324     39.7 1.084e+04 9.694e-10
 10.89997     40.4 1.114e+04 1.256e-09
 10.90905     39.9 1.118e+04 1.251e-09
 10.91414     40.0 1.116e+04 1.239e-09
 10.92686     40.6 1.141e+04 1.460e-09
 10.94752     41.2 1.168e+04 1.592e-09
 10.95842     41.6 1.171e+04 1.625e-09
 10.97047     41.8 1.183e+04 1.631e-09
 10.99180     41.7 1.193e+04 1.535e-09
 11.00270     42.5 1.201e+04 1.602e-09
 11.01409     42.1 1.209e+04 1.431e-09
 11.03590     41.1 1.188e+04 1.278e-09
 11.06871     40.9 1.176e+04 1.276e-09
 11.09146     40.8 1.176e+04 1.452e-09
 11.11327     42.6 1.164e+04 1.302e-09
 11.15604     43.5 1.192e+04 1.769e-09
 11.17993     45.1 1.189e+04 1.777e-09
 11.20174     46.8 1.207e+04 1.957e-09
 11.24327     48.8 1.149e+04 1.289e-09
 11.26860     49.6 1.046e+04 6.291e-10
 11.29041     51.7 1.074e+04 7.501e-10
 11.31181     51.7 9.958e+03 4.115e-10
 11.31590     51.3 1.005e+04 4.302e-10
 11.32359     52.3 1.027e+04 4.867e-10
 11.34121     52.2 9.772e+03 4.002e-10
 11.35707     52.8 9.520e+03 3.319e-10
 11.36797     53.6 9.649e+03 3.590e-10
 11.38483     53.7 9.546e+03 3.429e-10
 11.41764     56.6 9.426e+03 3.504e-10
 11.44573     58.8 9.189e+03 2.502e-10
 11.46754     60.4 9.468e+03 3.227e-10
 11.50497     62.5 9.332e+03 2.326e-10
 11.53430     64.1 9.120e+03 1.768e-10
 11.55611     65.6 9.333e+03 2.198e-10
 11.59220     67.4 9.104e+03 1.752e-10
 11.62286     69.3 8.999e+03 1.561e-10
 11.64467     70.9 9.126e+03 1.698e-10
 11.67943     72.8 9.046e+03 1.510e-10
 11.71143     74.9 9.002e+03 1.477e-10
 11.72294     76.3 9.183e+03 1.605e-10
 11.73455     76.0 9.814e+03 2.907e-10
 11.76667     78.1 9.693e+03 2.799e-10
 11.80000     80.3 9.548e+03 2.687e-10
 11.82181     81.9 9.979e+03 3.600e-10
 11.85390     84.2 9.818e+03 3.332e-10
 11.88856     86.4 9.673e+03 3.017e-10
 11.91037     87.4 1.002e+04 3.903e-10
 11.94113     89.6 9.924e+03 3.605e-10
 11.97713     91.8 9.836e+03 3.269e-10
 11.99884     92.3 1.005e+04 3.863e-10
 12.02827     94.5 1.002e+04 3.767e-10
 12.06570     96.4 9.988e+03 3.559e-10
 12.08741     97.0 1.040e+04 4.905e-10
 12.10450     98.4 1.034e+04 4.736e-10
 12.12069     98.8 1.035e+04 4.748e-10
 12.12958     99.3 1.062e+04 5.987e-10
 12.13530     98.8 1.038e+04 4.784e-10
 12.15426    100.6 1.037e+04 4.675e-10
 12.17607    101.5 1.087e+04 6.558e-10
 12.20283    103.5 1.086e+04 6.166e-10
 12.24283    105.6 1.083e+04 5.715e-10
 12.26464    106.2 1.119e+04 6.854e-10
 12.29006    108.3 1.134e+04 6.589e-10
 12.33140    110.5 1.143e+04 6.637e-10
 12.35321    110.0 1.160e+04 6.874e-10
 12.37729    111.6 1.201e+04 7.607e-10
 12.40991    112.1 1.220e+04 8.285e-10
 12.43067    112.4 1.251e+04 9.559e-10
 12.44158    111.7 1.248e+04 9.116e-10
 12.45343    111.6 1.320e+04 1.283e-09
 12.47496    111.3 1.395e+04 2.047e-09
 12.48586    110.5 1.378e+04 1.743e-09
 12.49704    110.7 1.443e+04 2.748e-09
 12.51885    111.1 1.489e+04 3.881e-09
 12.53014    111.7 1.502e+04 4.323e-09
 12.53643    111.3 1.434e+04 2.985e-09
 12.54694    111.9 1.392e+04 2.574e-09
 12.56247    112.4 1.400e+04 2.605e-09
 12.57443    112.7 1.385e+04 2.318e-09
 12.58533    112.5 1.335e+04 1.753e-09
 12.60609    112.8 1.330e+04 1.630e-09
 12.61871    113.0 1.326e+04 1.546e-09
 12.62962    113.2 1.292e+04 1.348e-09
 12.64970    113.4 1.285e+04 1.248e-09
 12.66299    113.8 1.286e+04 1.197e-09
 12.67390    114.3 1.247e+04 1.018e-09
 12.69332    114.7 1.253e+04 9.973e-10
 12.70728    115.5 1.253e+04 9.968e-10
 12.71818    116.1 1.221e+04 8.244e-10
 12.73646    116.7 1.217e+04 8.104e-10
 12.74736    117.4 1.214e+04 8.054e-10
 12.76974    118.9 1.171e+04 6.604e-10
 12.79604    121.0 1.120e+04 5.348e-10
 12.81785    121.8 1.101e+04 4.005e-10
 12.85707    124.3 1.059e+04 2.952e-10
 12.88461    127.1 1.033e+04 2.178e-10
 12.90641    127.9 1.036e+04 1.854e-10
 12.93708    130.5 1.013e+04 1.388e-10
 12.95888    131.3 1.025e+04 1.901e-10
 12.97317    134.1 9.997e+03 1.643e-10
 12.99498    134.6 9.997e+03 1.634e-10
 13.03154    137.5 9.885e+03 1.623e-10
 13.06174    140.5 9.877e+03 1.632e-10
 13.08355    141.0 9.915e+03 1.661e-10
 13.11877    144.0 9.883e+03 1.724e-10
 13.15031    146.9 9.874e+03 1.880e-10
 13.17211    147.6 1.004e+04 2.044e-10
 13.20600    150.5 1.011e+04 2.323e-10
 13.23887    153.4 1.028e+04 2.747e-10
 13.26068    153.9 1.057e+04 3.195e-10
 13.29324    156.3 1.073e+04 3.788e-10
 13.32744    157.9 1.079e+04 4.297e-10
 13.34915    158.7 1.084e+04 4.739e-10
 13.35953    160.3 1.098e+04 5.394e-10
 13.37043    160.4 1.098e+04 5.184e-10
 13.38243    161.6 1.116e+04 5.740e-10
 13.39334    162.0 1.118e+04 5.695e-10
 13.41299    162.8 1.128e+04 6.049e-10
 13.42672    163.4 1.134e+04 6.550e-10
 13.43762    163.6 1.132e+04 6.328e-10
 13.45660    164.2 1.142e+04 7.041e-10
 13.47100    164.6 1.152e+04 8.084e-10
 13.48190    164.7 1.161e+04 8.188e-10
 13.50022    164.9 1.181e+04 9.863e-10
 13.51528    165.0 1.200e+04 1.203e-09
 13.52619    165.1 1.225e+04 1.363e-09
 13.54384    165.5 1.247e+04 1.714e-09
 13.55957    165.9 1.252e+04 1.929e-09
 13.56477    166.2 1.290e+04 2.254e-09
 13.57085    166.3 1.267e+04 1.895e-09
 13.58745    166.5 1.265e+04 1.889e-09
 13.60385    166.6 1.249e+04 1.801e-09
 13.61475    166.8 1.280e+04 1.922e-09
 13.63107    166.9 1.246e+04 1.730e-09
 13.64813    166.8 1.203e+04 1.468e-09
 13.65904    166.6 1.232e+04 1.620e-09
 13.67468    166.4 1.195e+04 1.422e-09
 13.69242    166.2 1.163e+04 1.234e-09
 13.70332    165.8 1.216e+04 1.630e-09
 13.71830    165.6 1.201e+04 1.522e-09
 13.73670    165.4 1.187e+04 1.379e-09
 13.74760    165.1 1.271e+04 2.111e-09
 13.76037    164.7 1.280e+04 2.083e-09
 13.77127    164.1 1.317e+04 2.471e-09
 13.78098    163.2 1.350e+04 2.672e-09
 13.79189    162.2 1.449e+04 4.054e-09
 13.80553    161.0 1.496e+04 4.741e-09
 13.82527    159.7 1.544e+04 5.607e-09
 13.83617    158.9 1.616e+04 7.158e-09
 13.84915    157.7 1.628e+04 7.237e-09
 13.86955    156.6 1.618e+04 6.660e-09
 13.88045    155.6 1.614e+04 6.228e-09
 13.89277    154.2 1.554e+04 4.639e-09
 13.91383    152.5 1.465e+04 3.116e-09
 13.92474    150.5 1.403e+04 2.323e-09
 13.93638    148.3 1.280e+04 1.464e-09
 13.95812    146.4 1.176e+04 9.875e-10
 13.97162    143.6 1.087e+04 6.620e-10
 13.98260    142.7 1.084e+04 6.494e-10
 14.00181    142.3 1.087e+04 5.790e-10
 14.01330    142.0 1.103e+04 5.463e-10
 14.02421    140.8 1.100e+04 5.808e-10
 14.04542    140.0 1.121e+04 6.141e-10
 14.05759    138.8 1.169e+04 7.585e-10
 14.06849    135.1 1.291e+04 1.261e-09
 14.08904    134.0 1.367e+04 1.854e-09
 14.10187    133.6 1.412e+04 2.506e-09
 14.11277    130.6 1.503e+04 3.800e-09
 14.13266    131.0 1.496e+04 3.771e-09
 14.14615    131.4 1.471e+04 3.392e-09
 14.15706    128.5 1.465e+04 3.236e-09
 14.17211    128.7 1.411e+04 2.542e-09
 14.18302    127.8 1.382e+04 2.284e-09
 14.19044    128.0 1.310e+04 1.698e-09
 14.20134    125.8 1.270e+04 1.295e-09
 14.21989    126.3 1.217e+04 1.015e-09
 14.23482    127.8 1.181e+04 8.633e-10
 14.25672    124.3 1.077e+04 4.520e-10
 14.29641    126.2 1.036e+04 3.992e-10
 14.32348    128.5 1.016e+04 3.813e-10
 14.34529    126.8 9.057e+03 1.751e-10
 14.38365    129.0 9.045e+03 1.798e-10
 14.41205    131.2 9.046e+03 2.013e-10
 14.43386    130.2 8.184e+03 9.609e-11
 14.47088    132.5 8.378e+03 1.215e-10
 14.50061    134.7 8.642e+03 1.622e-10
 14.52242    134.3 8.058e+03 8.772e-11
 14.55811    136.6 8.249e+03 1.149e-10
 14.58405    138.8 8.407e+03 1.453e-10
 14.59332    139.1 8.415e+03 1.530e-10
 14.61099    139.4 8.257e+03 1.331e-10
 14.64534    141.8 8.385e+03 1.587e-10
 14.67775    144.4 8.484e+03 1.780e-10
 14.69956    144.8 8.493e+03 1.808e-10
 14.73258    147.4 8.546e+03 1.950e-10
 14.76631    150.1 8.600e+03 2.053e-10
 14.78812    149.7 8.758e+03 2.439e-10
 14.81981    152.2 8.881e+03 2.650e-10
 14.85488    154.8 9.091e+03 2.942e-10
 14.87669    153.3 9.490e+03 3.685e-10
 14.90704    155.5 9.751e+03 3.977e-10
 14.94345    157.3 9.909e+03 4.251e-10
 14.96516    155.4 1.013e+04 5.108e-10
 14.98317    156.0 1.026e+04 5.657e-10
 14.99560    156.5 1.043e+04 6.263e-10
 14.99996    155.9 1.052e+04 6.317e-10
 15.00934    153.3 1.054e+04 6.441e-10
 15.02679    153.4 1.074e+04 7.005e-10
 15.04272    153.2 1.100e+04 7.736e-10
 15.05363    149.9 1.096e+04 7.620e-10
 15.07041    149.0 1.121e+04 8.341e-10
 15.08701    147.4 1.159e+04 9.229e-10
 15.09791    143.6 1.138e+04 8.876e-10
 15.11402    140.9 1.176e+04 9.973e-10
 15.13129    137.4 1.212e+04 1.138e-09
 15.14219    133.9 1.185e+04 1.101e-09
 15.15764    130.2 1.196e+04 1.177e-09
 15.17557    126.6 1.191e+04 1.159e-09
 15.18648    124.8 1.176e+04 1.094e-09
 15.19602    121.0 1.175e+04 1.065e-09
 15.20693    119.6 1.142e+04 8.816e-10
 15.21986    114.4 1.144e+04 8.725e-10
 15.23076    113.7 1.128e+04 8.360e-10
 15.24487    108.1 1.119e+04 8.383e-10
 15.26414    102.3 1.118e+04 8.492e-10
 15.27504    103.0 1.101e+04 8.226e-10
 15.28849     97.5 1.115e+04 8.861e-10
 15.30842     90.8 1.193e+04 1.167e-09
 15.31933     92.6 1.182e+04 1.153e-09
 15.33211     85.8 1.354e+04 2.036e-09
 15.35271     80.6 1.474e+04 3.555e-09
 15.36361     82.7 1.490e+04 3.763e-09
 15.37572     79.6 1.530e+04 4.755e-09
 15.39644     77.2 1.522e+04 4.598e-09
 15.40681     77.4 1.434e+04 3.166e-09
 15.40789     79.7 1.461e+04 3.520e-09
 15.41934     77.3 1.426e+04 3.011e-09
 15.44115     74.6 1.341e+04 2.070e-09
 15.45218     71.4 1.232e+04 1.378e-09
 15.46308     73.5 1.243e+04 1.424e-09
 15.48476     70.5 1.140e+04 1.001e-09
 15.49646     68.4 1.086e+04 7.955e-10
 15.50737     70.3 1.076e+04 7.659e-10
 15.52838     68.9 1.060e+04 7.126e-10
 15.54074     67.0 1.089e+04 7.915e-10
 15.55165     69.1 1.065e+04 7.143e-10
 15.57200     66.1 1.176e+04 9.975e-10
 15.58503     63.3 1.324e+04 1.876e-09
 15.59593     66.1 1.254e+04 1.342e-09
 15.60777     64.7 1.334e+04 2.235e-09
 15.61867     65.4 1.278e+04 1.701e-09
 15.62931     65.1 1.319e+04 2.461e-09
 15.64022     67.0 1.276e+04 1.963e-09
 15.65923     67.0 1.291e+04 2.320e-09
 15.67359     67.3 1.290e+04 2.239e-09
 15.68450     68.9 1.269e+04 2.100e-09
 15.70284     69.0 1.271e+04 1.928e-09
 15.71788     68.7 1.277e+04 1.516e-09
 15.72878     70.5 1.247e+04 1.671e-09
 15.74646     70.0 1.240e+04 1.303e-09
 15.76216     69.7 1.201e+04 1.017e-09
 15.77307     71.5 1.208e+04 1.187e-09
 15.79008     71.6 1.172e+04 9.804e-10
 15.80644     72.1 1.160e+04 8.626e-10
 15.81365     73.5 1.176e+04 1.023e-09
 15.81909     74.7 1.163e+04 1.026e-09
 15.83369     75.4 1.141e+04 9.081e-10
 15.85073     76.3 1.133e+04 8.402e-10
 15.86163     77.5 1.161e+04 1.016e-09
 15.87731     78.3 1.147e+04 9.422e-10
 15.89501     79.9 1.143e+04 9.117e-10
 15.90592     80.6 1.177e+04 1.072e-09
 15.92093     81.1 1.160e+04 1.012e-09
 15.93939     82.7 1.168e+04 1.046e-09
 15.96130     84.7 1.228e+04 1.413e-09
 15.99745     86.4 1.214e+04 1.300e-09
 16.02806     88.7 1.192e+04 1.115e-09
 16.04986     89.6 1.222e+04 1.259e-09
 16.08468     91.7 1.172e+04 9.810e-10
 16.11662     94.1 1.137e+04 7.819e-10
 16.13843     94.4 1.126e+04 8.007e-10
 16.17191     96.9 1.091e+04 6.613e-10
 16.20519     99.6 1.065e+04 5.559e-10
 16.22069     99.7 1.047e+04 5.476e-10
 16.23103    101.0 1.090e+04 6.984e-10
 16.25915    103.6 1.062e+04 5.823e-10
 16.29376    106.1 1.045e+04 5.038e-10
 16.31556    106.1 1.005e+04 4.486e-10
 16.34638    108.5 9.922e+03 4.100e-10
 16.38232    111.0 9.880e+03 3.966e-10
 16.40413    111.1 9.523e+03 3.566e-10
 16.43361    113.5 9.456e+03 3.407e-10
 16.47089    115.9 9.459e+03 3.381e-10
 16.49270    116.1 9.101e+03 2.826e-10
 16.52085    118.4 8.997e+03 2.638e-10
 16.55946    120.7 8.929e+03 2.596e-10
 16.58126    121.0 8.550e+03 1.919e-10
 16.60808    123.2 8.404e+03 1.863e-10
 16.63187    125.5 8.419e+03 1.948e-10
 16.65001    125.7 7.874e+03 1.199e-10
 16.66983    126.0 7.917e+03 9.160e-11
 16.69531    128.3 7.885e+03 9.455e-11
 16.73659    130.7 7.904e+03 1.088e-10
 16.75840    131.0 7.812e+03 9.081e-11
 16.78254    133.3 7.890e+03 1.005e-10
 16.82516    135.7 8.021e+03 1.216e-10
 16.84696    135.8 7.846e+03 1.025e-10
 16.86978    138.1 7.933e+03 1.172e-10
 16.91339    140.4 8.067e+03 1.426e-10
 16.93553    142.7 8.223e+03 1.768e-10
 16.95734    142.5 8.030e+03 1.500e-10
 17.00063    144.7 8.160e+03 1.788e-10
 17.02410    147.0 8.295e+03 2.114e-10
 17.03438    146.6 8.218e+03 1.998e-10
 17.05452    147.1 8.114e+03 1.856e-10
 17.08786    149.1 8.200e+03 2.068e-10
 17.11266    151.0 8.241e+03 2.195e-10
 17.13447    150.5 8.353e+03 2.417e-10
 17.17509    152.1 8.351e+03 2.439e-10
 17.20123    153.7 8.332e+03 2.427e-10
 17.22304    152.9 8.417e+03 2.557e-10
 17.26232    154.2 8.312e+03 2.390e-10
 17.28980    155.5 8.216e+03 2.211e-10
 17.31161    154.5 8.099e+03 1.980e-10
 17.34956    155.6 7.922e+03 1.667e-10
 17.37836    156.4 7.763e+03 1.408e-10
 17.40017    155.3 7.511e+03 1.118e-10
 17.43355    155.7 7.359e+03 9.862e-11
 17.45536    156.3 7.292e+03 9.244e-11
 17.46693    156.7 7.290e+03 9.285e-11
 17.48874    155.9 7.211e+03 8.877e-11
 17.52402    156.3 7.257e+03 9.401e-11
 17.55550    156.3 7.491e+03 1.181e-10
 17.57731    155.8 7.501e+03 1.196e-10
 17.61125    154.8 8.036e+03 1.801e-10
 17.64406    153.9 8.394e+03 2.363e-10
 17.65578    152.8 8.615e+03 2.723e-10
 17.66649    153.1 8.550e+03 2.704e-10
 17.68739    151.6 9.010e+03 3.887e-10
 17.69906    148.4 1.032e+04 7.392e-10
 17.70996    147.6 1.074e+04 8.490e-10
 17.73100    143.0 1.302e+04 1.974e-09
 17.74334    138.1 1.527e+04 4.492e-09
 17.75424    137.7 1.515e+04 4.515e-09
 17.77462    133.3 1.667e+04 7.181e-09
 17.78762    128.3 1.725e+04 7.504e-09
 17.79853    128.3 1.681e+04 6.703e-09
 17.81824    123.2 1.670e+04 6.053e-09
 17.83191    118.0 1.586e+04 4.398e-09
 17.84281    118.0 1.548e+04 3.983e-09
 17.85600    112.7 1.415e+04 2.809e-09
 17.86691    113.1 1.362e+04 2.239e-09
 17.87619    107.7 1.267e+04 1.740e-09
 17.88709    107.9 1.284e+04 1.862e-09
 17.90547    103.0 1.294e+04 1.908e-09
 17.92047     98.6 1.309e+04 2.184e-09
 17.93138     99.2 1.312e+04 2.260e-09
 17.94908     96.0 1.290e+04 2.398e-09
 17.96476     93.5 1.271e+04 2.321e-09
 17.97566     93.7 1.262e+04 2.184e-09
 17.99270     91.2 1.209e+04 1.748e-09
 18.00904     88.3 1.144e+04 1.165e-09
 18.01994     88.2 1.115e+04 1.026e-09
 18.03632     83.6 1.062e+04 7.278e-10
 18.05332     78.8 1.005e+04 6.362e-10
 18.06253     79.1 9.898e+03 6.214e-10
 18.06733     80.4 9.948e+03 6.264e-10
 18.07993     76.3 9.961e+03 6.657e-10
 18.09761     73.5 9.982e+03 7.633e-10
 18.10851     73.8 1.016e+04 8.297e-10
 18.12355     71.9 1.047e+04 9.952e-10
 18.14189     70.1 1.059e+04 1.019e-09
 18.15279     70.4 1.086e+04 1.168e-09
 18.16717     69.2 1.058e+04 1.042e-09
 18.18617     68.0 1.002e+04 7.863e-10
 18.19708     68.3 1.032e+04 9.181e-10
 18.21078     66.0 9.868e+03 6.357e-10
 18.23046     62.1 9.737e+03 4.775e-10
 18.24136     61.4 1.031e+04 6.228e-10
 18.25440     57.1 9.874e+03 5.619e-10
 18.26775     54.5 9.745e+03 5.785e-10
 18.27719     55.5 9.470e+03 4.692e-10
 18.28564     54.9 9.769e+03 6.066e-10
 18.29802     53.2 9.828e+03 6.974e-10
 18.31902     51.7 1.026e+04 7.801e-10
 18.32993     51.3 1.054e+04 8.554e-10
 18.35250     49.0 1.067e+04 7.949e-10
 18.39621     41.7 1.035e+04 7.731e-10
 18.43996     40.2 1.043e+04 8.283e-10
 18.46297     39.4 1.015e+04 6.088e-10
 18.48478     38.3 1.009e+04 5.920e-10
 18.52720     37.0 9.392e+03 4.196e-10
 18.55154     37.1 9.206e+03 3.729e-10
 18.57335     36.8 9.228e+03 3.789e-10
 18.61443     37.6 9.141e+03 3.396e-10
 18.64011     38.4 9.173e+03 3.311e-10
 18.66175     38.4 9.000e+03 2.838e-10
 18.70150     40.8 9.089e+03 2.702e-10
 18.72867     40.9 9.622e+03 3.342e-10
 18.75048     41.3 9.333e+03 2.438e-10
 18.78889     40.9 9.985e+03 4.510e-10
 18.81724     41.7 1.074e+04 9.144e-10
 18.83905     42.0 1.042e+04 6.959e-10
 18.87613     44.3 1.130e+04 1.202e-09
 18.90581     46.4 1.171e+04 1.412e-09
 18.92761     46.5 1.130e+04 1.065e-09
 18.96336     47.9 1.112e+04 8.855e-10
 18.99437     49.2 1.053e+04 5.193e-10
 19.01618     49.3 1.033e+04 4.819e-10
 19.05059     50.9 9.812e+03 3.096e-10
 19.08053     52.7 9.454e+03 2.063e-10
 19.09107     53.8 9.466e+03 1.848e-10
 19.10475     54.2 9.437e+03 1.973e-10
 19.13782     55.6 9.186e+03 1.554e-10
 19.17151     57.7 9.069e+03 1.466e-10
 19.19331     58.3 9.065e+03 1.581e-10
 19.22506     60.6 8.960e+03 1.575e-10
 19.26007     63.2 8.841e+03 1.514e-10
 19.28188     63.8 8.831e+03 1.435e-10
 19.31229     66.3 8.760e+03 1.264e-10
 19.34864     68.6 8.733e+03 1.083e-10
 19.37045     68.7 8.708e+03 1.076e-10
 19.39952     70.9 8.735e+03 1.057e-10
 19.43721     72.9 8.783e+03 1.110e-10
 19.45901     72.8 8.787e+03 1.268e-10
 19.48137     74.8 8.919e+03 1.523e-10
 19.50318     76.3 8.867e+03 1.380e-10
 19.52577     78.1 9.018e+03 1.687e-10
 19.54758     78.3 9.081e+03 2.079e-10
 19.57399     80.2 9.223e+03 2.571e-10
 19.61434     82.1 9.389e+03 3.029e-10
 19.63615     82.5 9.219e+03 2.826e-10
 19.66122     84.5 9.216e+03 2.731e-10
 19.70291     86.2 9.199e+03 2.476e-10
 19.72471     86.6 8.794e+03 1.629e-10
 19.74845     88.0 8.717e+03 1.490e-10
 19.79147     89.3 8.744e+03 1.566e-10
 19.81328     89.6 8.522e+03 1.268e-10
 19.83569     91.0 8.753e+03 1.783e-10
 19.87930     92.6 9.141e+03 2.695e-10
 19.90185     94.0 9.681e+03 4.222e-10
 19.90476     94.8 9.569e+03 3.866e-10
 19.92583     95.1 9.629e+03 4.162e-10
 19.96654     96.3 1.006e+04 5.562e-10
 19.99041     97.3 1.024e+04 6.092e-10
 20.01222     97.9 9.947e+03 4.763e-10
 20.05377     98.8 9.990e+03 4.834e-10
 20.07898     99.7 9.891e+03 4.559e-10
 20.10079    100.1 9.705e+03 3.754e-10
 20.14100    101.1 9.718e+03 4.150e-10
 20.16755    102.5 9.694e+03 4.370e-10
 20.18936    102.9 9.804e+03 4.868e-10
 20.22823    104.5 9.860e+03 5.221e-10
 20.25611    106.3 9.793e+03 4.814e-10
 20.27792    106.7 1.003e+04 5.990e-10
 20.30486    108.3 9.963e+03 5.522e-10
 20.32667    108.8 9.735e+03 4.632e-10
 20.34468    110.5 9.571e+03 3.770e-10
 20.36649    110.8 9.847e+03 5.079e-10
 20.40270    112.6 9.615e+03 3.877e-10
 20.43325    114.3 9.394e+03 2.850e-10
 20.45506    114.7 9.523e+03 3.431e-10
 20.48993    116.4 9.319e+03 2.492e-10
 20.52181    118.1 9.182e+03 1.895e-10
 20.54362    118.7 9.200e+03 2.015e-10
 20.57716    120.2 9.092e+03 1.509e-10
 20.61038    121.7 8.991e+03 1.208e-10
 20.63219    122.3 8.981e+03 1.224e-10
 20.66440    123.9 8.851e+03 1.122e-10
 20.69895    125.6 8.836e+03 1.126e-10
 20.71844    126.4 8.839e+03 1.144e-10
 20.72751    126.6 8.708e+03 8.772e-11
 20.75163    128.4 8.713e+03 9.054e-11
 20.78751    130.2 8.776e+03 1.022e-10
 20.80932    130.8 8.789e+03 1.056e-10
 20.83886    132.5 8.897e+03 1.251e-10
 20.87608    134.1 9.028e+03 1.480e-10
 20.89789    134.7 9.056e+03 1.597e-10
 20.92609    136.2 9.175e+03 1.729e-10
 20.96465    137.5 9.255e+03 1.737e-10
 20.98646    138.1 9.313e+03 2.022e-10
 21.01333    139.3 9.328e+03 1.854e-10
 21.05322    140.4 9.336e+03 1.740e-10
 21.07502    141.0 9.393e+03 1.945e-10
 21.10056    142.1 9.418e+03 1.845e-10
 21.12835    143.1 9.516e+03 1.964e-10
 21.14776    144.2 9.536e+03 1.991e-10
 21.16359    144.8 9.579e+03 2.091e-10
 21.18779    145.7 9.785e+03 2.304e-10
 21.23035    146.7 1.003e+04 2.708e-10
 21.25216    147.1 1.004e+04 2.761e-10
 21.27502    147.9 1.025e+04 3.181e-10
 21.31864    148.8 1.045e+04 3.570e-10
 21.34063    149.3 1.051e+04 3.787e-10
 21.36243    149.8 1.052e+04 3.829e-10
 21.38491    150.3 1.064e+04 4.213e-10
 21.39572    150.6 1.062e+04 4.216e-10
 21.41658    151.1 1.075e+04 4.479e-10
 21.42909    151.5 1.086e+04 4.583e-10
 21.44000    152.0 1.085e+04 4.607e-10
 21.46020    152.4 1.090e+04 4.578e-10
 21.47338    152.7 1.096e+04 4.449e-10
 21.48428    153.3 1.096e+04 4.491e-10
 21.50382    153.5 1.100e+04 4.249e-10
 21.51766    153.7 1.104e+04 4.175e-10
 21.52857    154.2 1.105e+04 4.102e-10
 21.53990    154.3 1.107e+04 4.135e-10
 21.55080    154.8 1.130e+04 5.168e-10
 21.56194    154.6 1.134e+04 5.402e-10
 21.57285    155.3 1.134e+04 5.165e-10
 21.59105    155.0 1.141e+04 5.646e-10
 21.60623    154.9 1.154e+04 6.535e-10
 21.61713    155.4 1.152e+04 6.198e-10
 21.63466    155.3 1.168e+04 7.447e-10
 21.65051    155.4 1.186e+04 8.785e-10
 21.66142    155.7 1.187e+04 8.656e-10
 21.67828    155.8 1.205e+04 1.005e-09
 21.69479    155.8 1.204e+04 1.044e-09
 21.70570    156.0 1.225e+04 1.076e-09
 21.72190    155.8 1.225e+04 1.072e-09
 21.73908    155.4 1.207e+04 1.010e-09
 21.74659    155.4 1.229e+04 1.022e-09
 21.75122    155.8 1.227e+04 1.033e-09
 21.76551    155.4 1.202e+04 8.926e-10
 21.78336    155.0 1.166e+04 7.163e-10
 21.79427    154.7 1.191e+04 7.430e-10
 21.80913    154.1 1.161e+04 6.181e-10
 21.82764    153.4 1.154e+04 5.801e-10
 21.83855    152.8 1.167e+04 6.275e-10
 21.85275    152.0 1.171e+04 6.426e-10
 21.87193    151.0 1.194e+04 7.191e-10
 21.88283    150.0 1.210e+04 7.819e-10
 21.89636    149.2 1.232e+04 9.066e-10
 21.91621    148.7 1.244e+04 9.787e-10
 21.92712    147.9 1.250e+04 1.011e-09
 21.93998    147.5 1.248e+04 9.979e-10
 21.95174    147.7 1.238e+04 8.927e-10
 21.96135    148.7 1.244e+04 9.316e-10
 21.97140    148.0 1.245e+04 9.586e-10
 21.98359    147.8 1.236e+04 8.947e-10
 22.01640    148.3 1.216e+04 7.586e-10
 22.04926    148.1 1.162e+04 4.997e-10
 22.07106    147.4 1.160e+04 5.329e-10
 22.10373    146.9 1.102e+04 3.491e-10
 22.13782    146.4 1.054e+04 2.682e-10
 22.15963    146.4 1.050e+04 2.792e-10
 22.19097    146.5 1.019e+04 2.293e-10
 22.22639    146.9 1.002e+04 1.918e-10
 22.24820    147.2 9.943e+03 1.913e-10
 22.27820    147.7 9.753e+03 1.497e-10
 22.31496    147.9 9.603e+03 1.137e-10
 22.33676    148.8 9.554e+03 1.122e-10
 22.35268    149.1 9.535e+03 9.235e-11
 22.37448    150.2 9.525e+03 9.954e-11
 22.40352    150.4 9.521e+03 1.010e-10
 22.42533    151.4 9.381e+03 8.897e-11
 22.45267    151.5 9.445e+03 9.642e-11
 22.49209    151.6 9.524e+03 1.214e-10
 22.51390    152.7 9.420e+03 1.115e-10
 22.53990    152.7 9.519e+03 1.531e-10
 22.58066    152.3 9.785e+03 2.183e-10
 22.60246    153.2 9.878e+03 2.420e-10
 22.62713    151.9 1.048e+04 4.048e-10
 22.65975    151.4 1.077e+04 5.195e-10
 22.67993    150.6 1.105e+04 6.487e-10
 22.69093    151.1 1.135e+04 8.030e-10
 22.70336    149.9 1.150e+04 9.367e-10
 22.72422    148.9 1.156e+04 1.028e-09
 22.73512    149.1 1.183e+04 1.169e-09
 22.74688    148.0 1.189e+04 1.240e-09
 22.76422    146.9 1.202e+04 1.292e-09
 22.77494    147.3 1.191e+04 1.261e-09
 22.77940    147.2 1.204e+04 1.287e-09
 22.79050    146.1 1.213e+04 1.341e-09
 22.81230    145.1 1.215e+04 1.339e-09
 22.82369    144.3 1.206e+04 1.286e-09
 22.83459    144.1 1.203e+04 1.272e-09
 22.85592    143.5 1.180e+04 1.113e-09
 22.86797    142.9 1.155e+04 8.568e-10
 22.87887    142.8 1.148e+04 9.023e-10
 22.89954    141.9 1.133e+04 6.899e-10
 22.93235    141.2 1.108e+04 5.490e-10
 22.95673    139.3 1.063e+04 4.183e-10
 22.97854    140.0 1.080e+04 4.846e-10
 23.01968    138.5 1.044e+04 4.006e-10
 23.04530    137.4 1.008e+04 3.150e-10
 23.06711    137.9 1.026e+04 3.534e-10
 23.10691    137.0 9.819e+03 2.427e-10
 23.13386    136.1 9.477e+03 1.680e-10
 23.15567    136.0 9.539e+03 1.843e-10
 23.17616    135.3 9.325e+03 1.491e-10
 23.19797    135.2 9.261e+03 1.480e-10
 23.22243    134.9 9.183e+03 1.288e-10
 23.24424    135.0 9.302e+03 1.550e-10
 23.28138    135.0 9.215e+03 1.203e-10
 23.31100    135.0 9.225e+03 8.243e-11
 23.33281    134.9 9.363e+03 9.007e-11
 23.36861    134.1 9.431e+03 5.825e-11
 23.39957    133.4 9.360e+03 5.548e-11
 23.42137    132.9 9.432e+03 6.260e-11
 23.45584    132.7 9.385e+03 6.550e-11
 23.48813    132.9 9.375e+03 7.304e-11
 23.50994    132.4 9.477e+03 8.633e-11
 23.54307    132.6 9.516e+03 9.781e-11
 23.57670    132.7 9.550e+03 1.116e-10
 23.58882    131.6 9.776e+03 1.472e-10
 23.59881    131.7 9.714e+03 1.476e-10
 23.63031    131.0 9.866e+03 1.912e-10
 23.66527    130.3 1.007e+04 2.586e-10
 23.68707    129.0 1.032e+04 3.210e-10
 23.71754    128.3 1.040e+04 3.280e-10
 23.75383    127.4 1.025e+04 3.005e-10
 23.77564    125.6 1.034e+04 2.816e-10
 23.80477    124.3 1.012e+04 2.620e-10
 23.84240    122.7 1.012e+04 2.809e-10
 23.86421    120.6 1.027e+04 3.146e-10
 23.89200    119.0 1.052e+04 4.702e-10
 23.93097    117.7 1.074e+04 5.990e-10
 23.95277    116.1 1.079e+04 6.011e-10
 23.97784    114.8 1.065e+04 5.244e-10
 23.99965    113.4 1.053e+04 4.570e-10
 24.01953    111.7 1.006e+04 2.890e-10
 24.04134    109.9 9.758e+03 1.917e-10
 24.06647    108.2 9.196e+03 1.582e-10
 24.10810    107.5 9.112e+03 1.685e-10
 24.12991    106.5 9.138e+03 1.680e-10
 24.15370    106.4 9.233e+03 2.017e-10
 24.19667    106.1 9.566e+03 2.654e-10
 24.21847    105.0 9.914e+03 3.228e-10
 24.22993    104.7 1.003e+04 3.826e-10
 24.25164    104.6 1.012e+04 4.141e-10
 24.27345    103.4 1.064e+04 6.307e-10
 24.29526    103.0 1.085e+04 7.364e-10
 24.30684    102.6 1.104e+04 8.136e-10
 24.31775    101.9 1.140e+04 8.973e-10
 24.33888    101.1 1.159e+04 9.404e-10
 24.35113    100.1 1.174e+04 9.881e-10
 24.36203     98.9 1.192e+04 9.891e-10
 24.38249     97.4 1.200e+04 1.060e-09
 24.39551     97.1 1.180e+04 1.000e-09
 24.40251     94.7 1.178e+04 9.481e-10
 24.42230     93.1 1.182e+04 9.679e-10
 24.45902     91.0 1.140e+04 6.952e-10
 24.48417     88.7 1.090e+04 4.636e-10
 24.50598     86.4 1.053e+04 3.167e-10
 24.54625     84.6 1.000e+04 2.799e-10
 24.57274     82.9 9.951e+03 2.923e-10
 24.59455     80.6 1.045e+04 4.066e-10
 24.63348     79.0 1.115e+04 7.661e-10
 24.66131     78.3 1.158e+04 1.105e-09
 24.68311     77.0 1.183e+04 1.199e-09
 24.72071     75.6 1.173e+04 1.068e-09
 24.74987     73.7 1.136e+04 8.169e-10
 24.77168     71.9 1.100e+04 6.403e-10
 24.80133     70.9 1.035e+04 4.730e-10
 24.82314     69.3 9.942e+03 3.825e-10
 24.83844     69.6 9.534e+03 2.926e-10
 24.86025     69.2 9.474e+03 2.486e-10
 24.89518     69.5 9.320e+03 1.875e-10
 24.92701     69.6 9.134e+03 1.618e-10
 24.94881     69.2 9.027e+03 1.471e-10
 24.98241     69.6 9.022e+03 1.568e-10
 25.01557     70.3 9.055e+03 1.838e-10
 25.03738     70.3 8.953e+03 1.700e-10
 25.06965     71.2 9.025e+03 1.888e-10
 25.10414     72.0 9.038e+03 1.899e-10
 25.12595     72.1 8.891e+03 1.681e-10
 25.15688     73.1 8.857e+03 1.629e-10
 25.19271     74.2 8.828e+03 1.476e-10
 25.21451     74.5 8.661e+03 1.197e-10
 25.22398     75.5 8.747e+03 1.094e-10
 25.24579     75.5 8.876e+03 1.386e-10
 25.28127     76.1 8.956e+03 1.425e-10
 25.30308     76.4 8.776e+03 1.068e-10
 25.33134     76.6 8.924e+03 1.258e-10
 25.36984     77.3 9.047e+03 1.723e-10
 25.39165     77.4 9.000e+03 1.697e-10
 25.41858     78.4 9.184e+03 2.163e-10
 25.45841     79.0 9.217e+03 2.184e-10
 25.48021     79.2 9.293e+03 2.401e-10
 25.50581     79.5 9.254e+03 2.312e-10
 25.54697     79.6 9.246e+03 2.315e-10
 25.56878     79.5 9.380e+03 2.692e-10
 25.59304     79.4 9.544e+03 3.214e-10
 25.62482     79.7 9.783e+03 4.093e-10
 25.64551     80.3 1.001e+04 4.755e-10
 25.65735     80.1 1.011e+04 5.171e-10
 25.68027     80.5 1.006e+04 5.029e-10
 25.72389     81.2 9.837e+03 4.180e-10
 25.74592     81.7 9.481e+03 2.865e-10
 25.76772     81.7 9.473e+03 2.922e-10
 25.81112     81.7 9.122e+03 1.948e-10
 25.83448     81.9 8.869e+03 1.723e-10
 25.85629     82.2 8.907e+03 1.854e-10
 25.89836     83.1 8.912e+03 1.980e-10
 25.92305     84.5 8.979e+03 2.313e-10
 25.94486     84.8 9.136e+03 2.669e-10
 25.98559     86.3 9.203e+03 2.832e-10
 26.01162     87.8 9.180e+03 2.743e-10
 26.02988     87.7 9.263e+03 2.885e-10
 26.04747     88.0 9.397e+03 3.177e-10
 26.07282     89.3 9.284e+03 2.943e-10
 26.10018     90.6 9.270e+03 2.907e-10
 26.12199     90.3 9.272e+03 2.906e-10
 26.16005     91.3 9.376e+03 3.134e-10
 26.18875     92.0 9.746e+03 4.076e-10
 26.21056     91.8 9.676e+03 3.956e-10
 26.24729     92.9 1.012e+04 5.352e-10
 26.27732     93.9 1.042e+04 6.274e-10
 26.29912     94.1 9.820e+03 4.227e-10
 26.33452     95.1 9.798e+03 4.146e-10
 26.36588     96.2 9.678e+03 3.762e-10
 26.38769     96.9 9.149e+03 2.503e-10
 26.42175     98.2 9.082e+03 2.306e-10
 26.44831     99.5 9.032e+03 2.144e-10
 26.45920     98.7 8.908e+03 1.872e-10
 26.47626     99.9 8.826e+03 1.835e-10
 26.50898    101.5 8.928e+03 1.941e-10
 26.54302    103.3 9.266e+03 2.289e-10
 26.56482    105.0 9.624e+03 2.726e-10
 26.58521    105.0 9.814e+03 3.006e-10
 26.59801    105.2 9.826e+03 3.131e-10
 26.60891    106.3 9.894e+03 3.433e-10
 26.62873    106.5 9.962e+03 3.974e-10
 26.64229    106.7 1.028e+04 4.966e-10
 26.65119    108.0 1.099e+04 6.792e-10
 26.65944    106.0 1.105e+04 6.315e-10
 26.66438    102.4 1.312e+04 8.942e-10
 26.66979    102.2 1.412e+04 9.614e-10
 26.67770     94.6 2.064e+04 1.759e-09
 26.68648     84.6 2.499e+04 5.676e-09
 26.69193     79.3 2.532e+04 1.247e-08
 26.69951     76.0 2.273e+04 2.561e-08
 26.70862     74.2 2.129e+04 4.308e-08
 26.71407     72.9 2.182e+04 6.944e-08
 26.72132     70.1 2.356e+04 1.036e-07
 26.73076     66.7 2.688e+04 1.000e-07
 26.73621     65.3 2.759e+04 9.208e-08
 26.74313     58.8 3.285e+04 4.102e-08
 26.75290     50.9 3.015e+04 1.661e-08
 26.75835     46.6 2.704e+04 1.027e-08
 26.75955     34.3 1.893e+04 6.552e-09
 26.76500     32.0 1.696e+04 7.954e-09
 26.77509     30.0 1.643e+04 5.958e-09
 26.78604     25.8 1.509e+04 3.844e-09
 26.80320     26.1 1.455e+04 2.603e-09
 26.81942     25.7 1.351e+04 1.710e-09
 26.83033     23.7 1.296e+04 1.675e-09
 26.84905     23.9 1.236e+04 1.219e-09
 26.87096     23.6 1.209e+04 8.821e-10
 26.89728     24.3 1.114e+04 3.909e-10
 26.91909     23.1 1.107e+04 3.697e-10
 26.94515     23.0 1.077e+04 2.742e-10
 26.98585     23.5 1.086e+04 3.294e-10
 27.00766     22.6 1.071e+04 3.086e-10
 27.03238     23.7 1.080e+04 4.576e-10
 27.07442     25.4 1.126e+04 5.619e-10
 27.09622     23.7 1.106e+04 4.617e-10
 27.11961     23.4 1.129e+04 4.619e-10
 27.16298     23.2 1.103e+04 4.596e-10
 27.18479     22.3 1.108e+04 4.798e-10
 27.20684     22.4 1.088e+04 4.360e-10
 27.24999     22.7 1.066e+04 3.884e-10
 27.27180     23.7 1.047e+04 3.627e-10
 27.27336     24.3 1.047e+04 3.434e-10
 27.29516     23.1 1.049e+04 3.459e-10
 27.33769     23.5 1.041e+04 2.823e-10
 27.36192     23.7 1.036e+04 2.457e-10
 27.38373     22.2 1.029e+04 2.267e-10
 27.42493     22.5 1.019e+04 2.165e-10
 27.45049     23.1 1.003e+04 2.285e-10
 27.47230     22.6 9.647e+03 1.721e-10
 27.51216     23.6 9.599e+03 1.441e-10
 27.53906     24.2 9.512e+03 1.253e-10
 27.56086     23.4 9.276e+03 7.925e-11
 27.59939     24.2 9.024e+03 7.672e-11
 27.62762     25.4 8.938e+03 6.613e-11
 27.64943     25.2 8.902e+03 5.974e-11
 27.67264     26.1 8.892e+03 5.659e-11
 27.69445     26.5 8.992e+03 6.380e-11
 27.71619     27.1 8.920e+03 6.432e-11
 27.73800     27.3 8.904e+03 7.088e-11
 27.77386     28.1 8.891e+03 8.226e-11
 27.80476     28.9 8.969e+03 1.028e-10
 27.82656     29.6 9.033e+03 1.208e-10
 27.86109     30.3 9.213e+03 1.582e-10
 27.89332     30.9 9.326e+03 2.174e-10
 27.91513     31.6 9.468e+03 2.403e-10
 27.94832     32.0 9.675e+03 3.189e-10
 27.98189     32.3 9.794e+03 3.861e-10
 28.00370     32.4 1.020e+04 4.749e-10
 28.02455     32.4 1.009e+04 4.647e-10
 28.03688     32.2 1.017e+04 4.743e-10
 28.04779     31.9 1.040e+04 5.753e-10
 28.06807     31.6 1.036e+04 5.493e-10
 28.08117     31.3 1.029e+04 5.185e-10
 28.08638     31.1 1.045e+04 6.630e-10
 28.09509     30.6 1.065e+04 7.158e-10
 28.11169     30.6 1.021e+04 5.948e-10
 28.12545     30.8 9.902e+03 5.118e-10
 28.13635     31.2 9.987e+03 5.695e-10
 28.15893     30.8 9.907e+03 3.693e-10
 28.18073     29.7 1.005e+04 3.171e-10
 28.20992     27.2 9.957e+03 2.301e-10
 28.24759     26.3 9.502e+03 2.044e-10
 28.26940     24.3 9.643e+03 2.526e-10
 28.29725     24.3 9.603e+03 2.915e-10
 28.33616     25.0 9.632e+03 3.168e-10
 28.35797     23.9 9.777e+03 3.234e-10
 28.38449     24.2 9.818e+03 2.943e-10
 28.42472     24.3 9.851e+03 2.890e-10
 28.44653     23.4 9.767e+03 2.427e-10
 28.47172     23.5 9.785e+03 2.532e-10
 28.49613     24.0 9.769e+03 2.834e-10
 28.51589     22.6 9.672e+03 2.227e-10
 28.53510     22.6 9.575e+03 1.432e-10
 28.55895     22.8 9.874e+03 1.391e-10
 28.60186     22.1 9.959e+03 1.500e-10
 28.62367     21.7 9.794e+03 1.394e-10
 28.64618     22.1 9.645e+03 1.935e-10
 28.68980     23.2 9.687e+03 2.413e-10
 28.71223     24.2 9.789e+03 2.553e-10
 28.73404     24.5 9.934e+03 2.596e-10
 28.77703     24.9 1.015e+04 2.654e-10
 28.80080     24.6 1.045e+04 3.102e-10
 28.82261     23.8 1.084e+04 4.111e-10
 28.86427     24.3 1.095e+04 5.903e-10
 28.88937     25.1 1.117e+04 6.344e-10
 28.90026     24.9 1.166e+04 9.902e-10
 28.91878     24.9 1.158e+04 8.945e-10
 28.95150     25.1 1.174e+04 9.505e-10
 28.97793     25.4 1.168e+04 1.023e-09
 28.99974     25.5 1.166e+04 1.021e-09
 29.03873     26.6 1.132e+04 8.952e-10
 29.06650     27.7 1.106e+04 7.311e-10
 29.08831     27.6 1.076e+04 5.350e-10
 29.12596     28.4 1.077e+04 5.392e-10
 29.15507     28.9 1.091e+04 6.541e-10
 29.17687     29.6 1.051e+04 4.642e-10
 29.21320     30.2 1.114e+04 7.906e-10
 29.24363     30.8 1.214e+04 1.545e-09
 29.26544     30.5 1.163e+04 9.757e-10
 29.29781     31.3 1.219e+04 1.655e-09
 29.31962     31.5 1.203e+04 1.421e-09
 29.33220     32.8 1.184e+04 1.376e-09
 29.35401     33.2 1.161e+04 1.219e-09
 29.37638     34.8 1.114e+04 1.018e-09
 29.38719     34.7 1.118e+04 1.025e-09
 29.39837     35.3 1.097e+04 8.589e-10
 29.42018     36.7 1.048e+04 6.068e-10
 29.43147     36.9 1.029e+04 4.193e-10
 29.44238     36.9 1.027e+04 4.045e-10
 29.47480     37.8 1.006e+04 2.810e-10
 29.50933     38.6 9.616e+03 2.215e-10
 29.53114     39.0 9.632e+03 2.033e-10
 29.56213     40.2 9.615e+03 2.078e-10
 29.59790     41.3 9.797e+03 2.534e-10
 29.61971     41.5 9.702e+03 2.112e-10
 29.64936     42.4 9.912e+03 2.637e-10
 29.68647     43.3 1.007e+04 3.324e-10
 29.70827     42.9 9.955e+03 2.610e-10
 29.72046     43.6 1.005e+04 3.247e-10
 29.74227     43.3 1.019e+04 3.777e-10
 29.77503     44.2 1.037e+04 4.873e-10
 29.79684     44.0 1.025e+04 4.559e-10
 29.82382     45.0 1.033e+04 5.266e-10
 29.86360     45.9 1.031e+04 5.330e-10
 29.88541     45.6 1.053e+04 5.885e-10
 29.91106     46.6 1.052e+04 5.698e-10
 29.95217     47.8 1.041e+04 5.029e-10
 29.97397     46.5 1.107e+04 6.898e-10
 29.99829     47.5 1.093e+04 6.348e-10
 30.04073     48.6 1.076e+04 5.760e-10
 30.06254     47.7 1.078e+04 7.101e-10
 30.08552     49.2 1.048e+04 5.832e-10
 30.12130     50.8 1.022e+04 4.950e-10
 30.14311     50.5 1.016e+04 4.582e-10
 30.17275     51.4 9.693e+03 3.054e-10
 30.21637     53.1 9.782e+03 3.247e-10
 30.23967     54.9 1.011e+04 3.931e-10
 30.26148     53.1 9.650e+03 3.131e-10
 30.30360     54.5 1.001e+04 4.409e-10
 30.32824     55.7 1.035e+04 6.087e-10
 30.35005     54.7 1.006e+04 5.553e-10
 30.39084     56.3 1.028e+04 6.922e-10
 30.41681     57.6 1.043e+04 7.255e-10
 30.43861     56.7 9.905e+03 4.123e-10
 30.47807     57.3 9.907e+03 3.675e-10
 30.50537     57.5 9.820e+03 3.361e-10
 30.52718     56.1 9.611e+03 3.044e-10
 30.54395     57.0 9.621e+03 3.060e-10
 30.56575     56.9 9.480e+03 2.995e-10
 30.59394     57.8 9.491e+03 2.973e-10
 30.61575     56.7 9.845e+03 4.247e-10
 30.65253     57.6 9.891e+03 4.293e-10
 30.68251     58.4 9.937e+03 4.381e-10
 30.70432     58.0 1.060e+04 8.736e-10
 30.73977     59.1 1.062e+04 8.793e-10
 30.77107     60.4 1.058e+04 8.360e-10
 30.79288     60.5 1.095e+04 1.090e-09
 30.82700     61.3 1.078e+04 9.137e-10
 30.85964     61.7 1.062e+04 7.819e-10
 30.88145     61.0 1.080e+04 8.933e-10
 30.91423     61.3 1.066e+04 8.413e-10
 30.94479     61.5 1.051e+04 7.740e-10
 30.95695     60.3 1.000e+04 5.666e-10
 30.97002     59.9 1.011e+04 5.609e-10
 31.00147     59.9 9.826e+03 4.932e-10
 31.03677     59.8 9.600e+03 4.456e-10
 31.05858     59.8 9.584e+03 4.450e-10
 31.08870     60.0 9.433e+03 4.017e-10
 31.12534     60.1 9.216e+03 3.347e-10
 31.14715     60.6 9.164e+03 3.121e-10
 31.17593     60.5 8.891e+03 2.384e-10
 31.21391     60.3 8.624e+03 1.848e-10
 31.23572     60.7 8.691e+03 1.868e-10
 31.26316     60.5 8.491e+03 1.614e-10
 31.30247     60.3 8.482e+03 1.622e-10
 31.32428     60.9 8.694e+03 1.983e-10
 31.34563     60.6 8.765e+03 2.107e-10
 31.36744     60.5 8.983e+03 2.482e-10
 31.39104     60.1 9.163e+03 2.837e-10
 31.41285     60.5 9.364e+03 3.478e-10
 31.42663     59.9 9.536e+03 4.088e-10
 31.44603     59.4 9.785e+03 5.122e-10
 31.45694     59.7 9.927e+03 5.860e-10
 31.47015     59.7 1.027e+04 8.001e-10
 31.49032     60.0 1.058e+04 9.377e-10
 31.50122     60.2 1.072e+04 9.830e-10
 31.51376     60.3 1.075e+04 9.800e-10
 31.53460     60.6 1.070e+04 9.225e-10
 31.54550     60.5 1.081e+04 9.585e-10
 31.55676     60.6 1.066e+04 8.183e-10
 31.56766     60.1 1.087e+04 9.272e-10
 31.57888     59.8 1.081e+04 8.127e-10
 31.58979     59.1 1.116e+04 9.281e-10
 31.60099     58.7 1.100e+04 7.979e-10
 31.62280     58.3 1.061e+04 6.616e-10
 31.63407     58.2 1.008e+04 5.515e-10
 31.64497     58.5 1.024e+04 5.910e-10
 31.66642     58.5 9.702e+03 4.702e-10
 31.67835     58.8 9.676e+03 4.487e-10
 31.68926     58.3 9.930e+03 4.034e-10
 31.71004     57.6 1.019e+04 4.283e-10
 31.72264     54.1 1.200e+04 6.723e-10
 31.73354     52.3 1.207e+04 6.505e-10
 31.75365     45.4 1.545e+04 2.430e-09
 31.76687     41.5 1.739e+04 5.254e-09
 31.77040     39.4 1.788e+04 8.390e-09
 31.77898     40.6 1.808e+04 8.760e-09
 31.78901     39.1 1.962e+04 1.407e-08
 31.79442     39.1 1.935e+04 1.362e-08
 31.80262     37.4 2.080e+04 1.983e-08
 31.81111     35.1 2.238e+04 2.850e-08
 31.81656     34.6 2.179e+04 2.378e-08
 31.82443     32.5 2.292e+04 2.798e-08
 31.83325     30.3 2.352e+04 2.880e-08
 31.83870     29.1 2.334e+04 2.443e-08
 31.84624     26.6 2.300e+04 2.304e-08
 31.85539     24.1 2.212e+04 2.009e-08
 31.86634     21.5 2.044e+04 1.504e-08
 31.88450     18.0 1.784e+04 1.157e-08
 31.89977     17.3 1.643e+04 9.402e-09
 31.91067     18.2 1.592e+04 7.694e-09
 31.92812     19.0 1.546e+04 6.169e-09
 31.94405     18.9 1.511e+04 4.949e-09
 31.95496     19.6 1.539e+04 2.969e-09
 31.96850     18.6 1.470e+04 2.324e-09
 31.97940     18.5 1.499e+04 1.742e-09
 31.98834     17.2 1.416e+04 1.508e-09
 31.99924     14.2 1.171e+04 8.050e-10
 32.01535     13.9 1.160e+04 8.497e-10
 32.03262     14.0 1.176e+04 1.015e-09
 32.04352     13.4 1.089e+04 7.833e-10
 32.05897     13.9 1.150e+04 1.006e-09
 32.07690     14.0 1.217e+04 1.360e-09
 32.08781     13.9 1.185e+04 1.215e-09
 32.10258     14.0 1.227e+04 1.625e-09
 32.12119     14.7 1.260e+04 2.175e-09
 32.13209     15.1 1.237e+04 1.903e-09
 32.14620     16.2 1.284e+04 2.498e-09
 32.16547     17.5 1.328e+04 2.851e-09
 32.17637     17.4 1.315e+04 2.556e-09
 32.17982     18.6 1.336e+04 2.636e-09
 32.19073     18.0 1.346e+04 2.619e-09
 32.20975     19.1 1.337e+04 2.473e-09
 32.22066     18.3 1.379e+04 2.593e-09
 32.23343     19.3 1.361e+04 2.340e-09
 32.25404     20.2 1.338e+04 1.986e-09
 32.26494     18.9 1.476e+04 2.850e-09
 32.27705     19.4 1.472e+04 2.395e-09
 32.29832     19.9 1.449e+04 1.944e-09
 32.30922     18.4 1.600e+04 3.361e-09
 32.32066     18.9 1.570e+04 2.813e-09
 32.34247     19.5 1.518e+04 2.362e-09
 32.35351     20.4 1.452e+04 1.979e-09
 32.36441     19.8 1.544e+04 3.350e-09
 32.38024     21.0 1.501e+04 2.717e-09
 32.39115     20.0 1.495e+04 3.555e-09
 32.39779     20.9 1.486e+04 3.037e-09
 32.40869     20.9 1.508e+04 4.338e-09
 32.42970     21.4 1.524e+04 3.758e-09
 32.44207     21.6 1.535e+04 3.252e-09
 32.45298     21.1 1.544e+04 4.319e-09
 32.47332     21.3 1.538e+04 3.872e-09
 32.48636     21.8 1.526e+04 3.454e-09
 32.49726     21.6 1.532e+04 4.831e-09
 32.51694     22.5 1.515e+04 4.407e-09
 32.53064     23.4 1.495e+04 3.761e-09
 32.54154     23.9 1.525e+04 5.481e-09
 32.56055     24.9 1.507e+04 4.573e-09
 32.57492     25.5 1.478e+04 3.603e-09
 32.58413     26.3 1.504e+04 5.152e-09
 32.59157     25.5 1.494e+04 5.105e-09
 32.60417     25.9 1.454e+04 4.039e-09
 32.61921     26.3 1.407e+04 3.156e-09
 32.63011     27.1 1.443e+04 3.886e-09
 32.64779     27.5 1.400e+04 3.092e-09
 32.66349     27.9 1.355e+04 2.500e-09
 32.67439     28.7 1.380e+04 2.884e-09
 32.69140     29.4 1.340e+04 2.392e-09
 32.70777     30.0 1.315e+04 2.091e-09
 32.71868     30.8 1.333e+04 2.267e-09
 32.73502     31.6 1.315e+04 2.024e-09
 32.75206     32.4 1.305e+04 1.853e-09
 32.76296     33.1 1.316e+04 1.941e-09
 32.77864     34.0 1.306e+04 1.757e-09
 32.79199     34.5 1.298e+04 1.554e-09
 32.79879     32.2 1.301e+04 1.548e-09
 32.80724     32.3 1.343e+04 1.868e-09
 32.82225     31.6 1.398e+04 2.099e-09
 32.84062     30.9 1.433e+04 2.417e-09
 32.85153     31.7 1.447e+04 3.108e-09
 32.86587     31.3 1.426e+04 3.362e-09
 32.88491     30.9 1.412e+04 3.296e-09
 32.89581     32.7 1.450e+04 4.195e-09
 32.90948     32.5 1.417e+04 3.802e-09
 32.92919     31.9 1.372e+04 3.074e-09
 32.94009     34.3 1.416e+04 3.626e-09
 32.95310     31.8 1.478e+04 2.341e-09
 32.97347      3.5 4.432e+04 1.964e-09
 32.98433    -21.6 4.756e+04 5.571e-09
 32.99117    -31.1 2.962e+04 2.332e-08
 32.99776    -35.4 2.064e+04 5.368e-08
 33.00211    -35.6 2.038e+04 5.179e-08
 33.00642    -35.2 1.970e+04 6.157e-08
 33.01298    -33.3 1.925e+04 6.358e-08
 33.02311    -30.8 1.898e+04 5.949e-08
 33.02856    -29.1 1.993e+04 4.538e-08
 33.03478    -27.0 2.584e+04 1.572e-08
 33.04525    -30.0 4.189e+04 2.296e-09
 33.05071    -40.9 4.871e+04 6.824e-10
 33.06199    -67.0 2.184e+04 2.407e-10
 33.07294    -79.1 1.003e+04 2.038e-10
 33.08395    -79.1 8.678e+03 2.028e-10
 33.10576    -77.5 8.764e+03 2.116e-10
 33.11723    -76.4 8.925e+03 2.321e-10
 33.13913    -77.3 9.124e+03 2.785e-10
 33.18228    -74.6 9.153e+03 3.337e-10
 33.20599    -71.8 9.431e+03 4.280e-10
 33.22780    -72.0 9.654e+03 5.098e-10
 33.26951    -69.3 9.724e+03 5.390e-10
 33.29456    -66.8 9.721e+03 5.325e-10
 33.31637    -66.7 9.730e+03 5.350e-10
 33.35675    -64.6 9.635e+03 4.848e-10
 33.38312    -63.1 9.498e+03 4.361e-10
 33.39801    -63.1 9.476e+03 4.340e-10
 33.41525    -64.3 9.689e+03 4.796e-10
 33.44398    -62.9 9.619e+03 4.651e-10
 33.47169    -61.3 9.542e+03 4.526e-10
 33.49350    -61.0 9.556e+03 4.614e-10
 33.53121    -59.3 9.527e+03 4.544e-10
 33.56026    -57.7 9.485e+03 4.335e-10
 33.58207    -57.5 9.346e+03 4.064e-10
 33.61844    -56.1 9.301e+03 3.890e-10
 33.64882    -54.7 9.276e+03 3.854e-10
 33.67063    -54.3 8.915e+03 2.953e-10
 33.70568    -52.7 8.864e+03 2.944e-10
 33.73739    -50.7 8.735e+03 2.783e-10
 33.75920    -50.1 8.314e+03 1.825e-10
 33.79291    -48.1 8.178e+03 1.583e-10
 33.81609    -46.2 8.088e+03 1.334e-10
 33.82733    -47.0 8.167e+03 1.302e-10
 33.84777    -46.8 7.996e+03 1.063e-10
 33.88014    -45.1 8.041e+03 1.061e-10
 33.91452    -43.5 8.110e+03 1.174e-10
 33.93633    -43.3 8.091e+03 1.132e-10
 33.96738    -41.4 8.263e+03 1.436e-10
 34.00309    -39.5 8.441e+03 1.783e-10
 34.02490    -39.5 8.513e+03 1.880e-10
 34.05461    -37.7 8.811e+03 2.371e-10
 34.09166    -36.3 9.171e+03 2.922e-10
 34.11347    -36.8 9.264e+03 3.032e-10
 34.14184    -36.0 9.618e+03 3.993e-10
 34.18022    -35.4 1.007e+04 5.449e-10
 34.20203    -36.1 1.001e+04 5.438e-10
 34.21693    -35.2 1.036e+04 6.784e-10
 34.23874    -35.9 1.072e+04 8.295e-10
 34.26879    -35.1 1.087e+04 8.275e-10
 34.29060    -35.4 1.022e+04 4.940e-10
 34.31631    -35.1 1.022e+04 5.011e-10
 34.34892    -34.4 9.985e+03 4.055e-10
 34.36807    -34.4 9.935e+03 3.965e-10
 34.37907    -34.8 9.623e+03 3.070e-10
 34.40354    -33.7 9.611e+03 3.121e-10
 34.44592    -32.3 9.520e+03 2.800e-10
 34.46773    -31.6 9.057e+03 1.833e-10
 34.49077    -30.1 9.084e+03 1.568e-10
 34.53439    -28.6 9.132e+03 1.323e-10
 34.57800    -26.9 9.136e+03 1.133e-10
 34.61777    -25.5 9.170e+03 1.167e-10
 34.63958    -26.0 9.162e+03 1.159e-10
 34.64487    -24.7 9.257e+03 1.271e-10
 34.66667    -24.3 9.320e+03 1.415e-10
 34.70885    -23.1 9.381e+03 1.720e-10
 34.73343    -22.0 9.471e+03 2.146e-10
 34.75524    -21.6 9.531e+03 2.273e-10
 34.79609    -20.5 9.594e+03 2.604e-10
 34.82200    -19.3 9.584e+03 2.543e-10
 34.84381    -18.9 9.584e+03 2.440e-10
 34.88332    -17.6 9.485e+03 1.906e-10
 34.91057    -16.7 9.474e+03 1.378e-10
 34.93237    -16.5 9.523e+03 1.224e-10
 34.97055    -16.2 9.417e+03 9.825e-11
 34.99913    -16.0 9.433e+03 1.029e-10
 35.02094    -15.7 9.361e+03 9.862e-11
 35.04042    -15.4 9.439e+03 1.206e-10
 35.06223    -14.6 9.629e+03 1.240e-10
 35.08770    -14.5 9.717e+03 1.844e-10
 35.10951    -13.6 9.577e+03 1.525e-10
 35.14502    -13.6 9.930e+03 2.427e-10
 35.17627    -13.8 1.038e+04 3.872e-10
 35.19807    -13.2 1.035e+04 3.572e-10
 35.22045    -13.6 1.057e+04 4.880e-10
 35.23126    -13.2 1.053e+04 4.557e-10
 35.24065    -13.1 1.060e+04 5.884e-10
 35.25155    -13.1 1.068e+04 6.699e-10
 35.26464    -12.8 1.066e+04 6.733e-10
 35.27554    -12.3 1.068e+04 6.830e-10
 35.28657    -12.1 1.060e+04 6.414e-10
 35.30838    -12.2 1.048e+04 5.430e-10
 35.31982    -12.7 1.037e+04 4.306e-10
 35.33073    -12.0 1.038e+04 4.780e-10
 35.35200    -12.6 1.019e+04 3.874e-10
 35.36411    -13.2 9.963e+03 3.213e-10
 35.37501    -12.3 1.001e+04 3.664e-10
 35.39561    -12.8 9.930e+03 3.290e-10
 35.40839    -13.0 9.933e+03 3.118e-10
 35.41929    -11.9 9.857e+03 3.273e-10
 35.43923    -12.9 1.013e+04 3.555e-10
 35.45197    -13.4 1.028e+04 4.020e-10
 35.45451    -14.1 1.041e+04 4.964e-10
 35.46358    -12.7 1.034e+04 4.533e-10
 35.48285    -13.6 1.059e+04 5.942e-10
 35.49696    -13.3 1.062e+04 7.569e-10
 35.50786    -12.3 1.063e+04 7.024e-10
 35.52646    -11.9 1.070e+04 8.343e-10
 35.54124    -11.6 1.081e+04 9.146e-10
 35.55214    -10.7 1.088e+04 9.192e-10
 35.57008    -10.6 1.096e+04 9.747e-10
 35.58552    -10.6 1.099e+04 9.578e-10
 35.59643     -9.8 1.115e+04 1.051e-09
 35.61370    -10.2 1.143e+04 1.122e-09
 35.62981    -11.8 1.227e+04 1.354e-09
 35.64071    -10.3 1.210e+04 1.418e-09
 35.65239    -12.1 1.285e+04 1.833e-09
 35.66330    -11.8 1.259e+04 1.629e-09
 35.67409    -12.6 1.223e+04 1.767e-09
 35.68499    -11.0 1.258e+04 1.904e-09
 35.70093    -11.0 1.225e+04 1.798e-09
 35.71837    -10.9 1.183e+04 1.587e-09
 35.72928     -9.7 1.206e+04 1.678e-09
 35.74455     -9.1 1.125e+04 1.235e-09
 35.76266     -9.5 1.078e+04 9.038e-10
 35.77356     -8.5 1.090e+04 9.737e-10
 35.78816     -8.5 1.010e+04 5.890e-10
 35.80694     -9.8 9.846e+03 3.933e-10
 35.81784     -8.2 9.810e+03 4.393e-10
 35.83178     -9.4 9.538e+03 2.911e-10
 35.85122    -10.0 9.121e+03 2.469e-10
 35.86135     -9.2 9.202e+03 2.526e-10
 35.86381     -8.7 9.120e+03 2.338e-10
 35.88480     -9.5 8.109e+03 1.405e-10
 35.90661     -7.0 8.463e+03 1.687e-10
 35.93011     -6.5 7.670e+03 9.446e-11
 35.97337     -7.0 7.490e+03 6.497e-11
 35.99517     -5.2 7.793e+03 7.036e-11
 36.01734     -7.4 7.811e+03 8.035e-11
 36.06096     -7.1 7.763e+03 1.261e-10
 36.08374     -5.9 7.873e+03 1.443e-10
 36.10555     -6.0 8.443e+03 2.241e-10
 36.14819     -6.2 8.933e+03 2.564e-10
 36.17231     -6.4 9.168e+03 3.062e-10
 36.19412     -7.3 1.024e+04 6.552e-10
 36.23542     -5.8 1.005e+04 6.378e-10
 36.26087     -4.7 9.981e+03 5.514e-10
 36.26839     -5.7 1.104e+04 8.627e-10
 36.28656     -4.8 1.068e+04 8.048e-10
 36.32266     -4.6 1.072e+04 7.493e-10
 36.34944     -5.0 1.080e+04 7.655e-10
 36.36025     -6.4 1.117e+04 9.073e-10
 36.37698     -6.8 1.130e+04 9.428e-10
 36.39353     -7.3 1.152e+04 1.050e-09
 36.40443     -8.8 1.206e+04 1.298e-09
 36.42060     -9.6 1.238e+04 1.504e-09
 36.43781    -10.3 1.264e+04 1.767e-09
 36.44872    -11.0 1.274e+04 1.967e-09
 36.46421    -10.8 1.259e+04 2.017e-09
 36.47588    -10.0 1.233e+04 1.911e-09
 36.48286     -9.9 1.217e+04 1.743e-09
 36.49300     -9.7 1.207e+04 1.575e-09
 36.50783     -8.9 1.168e+04 1.268e-09
 36.52638     -7.7 1.114e+04 8.428e-10
 36.53728     -8.8 1.089e+04 6.417e-10
 36.55145     -9.4 1.065e+04 5.260e-10
 36.58426     -9.1 9.782e+03 2.635e-10
 36.61514     -9.1 9.085e+03 1.563e-10
 36.63695     -9.6 9.020e+03 1.597e-10
 36.66559     -7.5 8.771e+03 1.490e-10
 36.68740     -7.4 8.709e+03 1.444e-10
 36.70371     -5.3 8.729e+03 1.594e-10
 36.72552     -4.8 8.985e+03 2.197e-10
 36.75882     -2.9 9.067e+03 2.519e-10
 36.79227     -0.6 9.198e+03 3.183e-10
 36.81408     -0.2 9.770e+03 4.694e-10
 36.84605      2.2 9.796e+03 5.032e-10
 36.88084      4.7 9.735e+03 4.742e-10
 36.90265      5.1 1.035e+04 6.944e-10
 36.93329      7.5 1.019e+04 6.241e-10
 36.96941      9.8 9.969e+03 5.190e-10
 36.99122     10.4 1.078e+04 8.883e-10
 37.02052     12.8 1.059e+04 7.714e-10
 37.05797     15.1 1.030e+04 6.173e-10
 37.07978     16.0 1.148e+04 1.154e-09
 37.08824     18.0 1.119e+04 8.814e-10
 37.11005     19.0 1.174e+04 1.341e-09
 37.14654     20.7 1.161e+04 1.117e-09
 37.16825     21.2 1.221e+04 1.368e-09
 37.18388     21.3 1.213e+04 1.301e-09
 37.20153     21.4 1.207e+04 1.307e-09
 37.21244     21.7 1.280e+04 1.714e-09
 37.22750     21.8 1.268e+04 1.724e-09
 37.24582     22.1 1.257e+04 1.803e-09
 37.25672     22.8 1.305e+04 2.117e-09
 37.27112     23.4 1.280e+04 2.089e-09
 37.28846     24.3 1.258e+04 2.032e-09
 37.29654     24.6 1.311e+04 2.550e-09
 37.30100     25.7 1.317e+04 2.380e-09
 37.31473     26.4 1.285e+04 2.122e-09
 37.33438     27.0 1.256e+04 1.904e-09
 37.34529     27.2 1.217e+04 1.477e-09
 37.35835     27.2 1.176e+04 1.281e-09
 37.37867     27.4 1.145e+04 1.124e-09
 37.38957     26.3 1.127e+04 9.815e-10
 37.40197     24.6 1.157e+04 9.268e-10
 37.42295     23.7 1.166e+04 8.626e-10
 37.43385     19.9 1.399e+04 8.956e-10
 37.44558     16.3 1.634e+04 1.096e-09
 37.46723     12.4 1.790e+04 1.763e-09
 37.47814      5.9 1.852e+04 5.985e-09
 37.48888      4.9 1.802e+04 8.729e-09
 37.49979      5.3 1.884e+04 1.216e-08
 37.51101      5.6 1.840e+04 1.382e-08
 37.52242      6.5 1.846e+04 1.400e-08
 37.53332      3.3 1.950e+04 1.443e-08
 37.55462      1.8 2.029e+04 1.286e-08
 37.56670     -1.9 2.206e+04 1.054e-08
 37.57761    -17.4 2.265e+04 5.860e-09
 37.59824    -23.2 1.951e+04 5.253e-09
 37.61099    -28.3 1.843e+04 6.051e-09
 37.62189    -35.7 1.719e+04 5.912e-09
 37.64186    -40.5 1.941e+04 9.459e-09
 37.65522    -43.2 1.987e+04 1.087e-08
 37.66062    -45.8 1.892e+04 8.112e-09
 37.66902    -48.2 1.856e+04 7.934e-09
 37.67731    -53.1 1.889e+04 8.764e-09
 37.68277    -55.9 1.759e+04 6.008e-09
 37.69083    -59.1 1.806e+04 6.503e-09
 37.69946    -63.0 1.890e+04 7.400e-09
 37.70329    -64.2 1.717e+04 5.155e-09
 37.70556    -65.1 1.654e+04 4.512e-09
 37.71263    -66.2 1.678e+04 4.657e-09
 37.72904    -70.3 1.595e+04 4.220e-09
 37.74384    -74.4 1.504e+04 3.490e-09
 37.75474    -72.4 1.372e+04 2.446e-09
 37.77270    -75.0 1.301e+04 1.843e-09
 37.78812    -78.4 1.312e+04 1.563e-09
 37.79902    -76.6 1.235e+04 1.222e-09
 37.81632    -79.4 1.227e+04 1.175e-09
 37.83240    -81.3 1.234e+04 1.365e-09
 37.84331    -79.5 1.188e+04 1.086e-09
 37.85994    -80.6 1.244e+04 1.589e-09
 37.87669    -80.5 1.320e+04 2.375e-09
 37.88759    -79.5 1.260e+04 1.823e-09
 37.90063    -79.1 1.346e+04 2.748e-09
 37.91153    -79.2 1.409e+04 3.462e-09
 37.92097    -78.4 1.486e+04 4.671e-09
 37.93187    -77.6 1.404e+04 3.487e-09
 37.94717    -76.7 1.468e+04 4.565e-09
 37.96525    -76.0 1.532e+04 5.757e-09
 37.97616    -76.3 1.465e+04 4.133e-09
 37.99079    -77.5 1.640e+04 6.243e-09
 38.00954    -80.7 1.865e+04 9.929e-09
 38.02044    -83.3 1.820e+04 8.509e-09
 38.03440    -86.2 1.923e+04 1.362e-08
 38.05071    -88.1 1.938e+04 1.597e-08
 38.05917    -88.7 1.955e+04 1.671e-08
 38.06468    -89.3 1.873e+04 1.257e-08
 38.07252    -90.1 1.924e+04 1.409e-08
 38.08132    -90.7 1.941e+04 1.408e-08
 38.08677    -91.5 1.894e+04 1.155e-08
 38.09428    -93.5 1.928e+04 1.083e-08
 38.10346    -94.3 1.949e+04 1.028e-08
 38.10896    -95.7 1.867e+04 8.485e-09
 38.11195   -100.9 1.816e+04 6.449e-09
 38.11736   -103.0 1.701e+04 4.941e-09
 38.12560   -105.5 1.670e+04 4.544e-09
 38.13105   -106.0 1.635e+04 4.305e-09
 38.14234   -110.1 1.569e+04 3.838e-09
 38.15329   -112.3 1.517e+04 3.515e-09
 38.16525   -115.8 1.436e+04 3.175e-09
 38.18667   -117.6 1.352e+04 2.764e-09
 38.19757   -118.2 1.313e+04 2.516e-09
 38.20887   -118.9 1.231e+04 1.878e-09
 38.23068   -119.4 1.149e+04 1.213e-09
 38.24186   -120.7 1.058e+04 6.999e-10
 38.25276   -121.6 1.025e+04 5.787e-10
 38.27429   -123.9 9.343e+03 3.450e-10
 38.28614   -125.3 8.992e+03 2.806e-10
 38.29704   -125.6 8.938e+03 2.768e-10
 38.31247   -126.4 8.973e+03 2.716e-10
 38.32509   -127.3 8.825e+03 2.459e-10
 38.34152   -128.0 8.691e+03 2.377e-10
 38.37262   -130.3 8.640e+03 2.504e-10
 38.40828   -132.6 8.992e+03 3.038e-10
 38.43009   -132.5 8.922e+03 3.163e-10
 38.45986   -137.9 1.122e+04 4.030e-10
 38.49247   -147.6 1.950e+04 4.320e-10
 38.50756   -162.6 2.521e+04 2.905e-09
 38.51707   -160.3 2.253e+04 2.411e-09
 38.52370   -164.0 2.249e+04 4.816e-09
 38.52965   -168.1 2.226e+04 1.296e-08
 38.53505   -167.4 2.171e+04 1.190e-08
 38.54134   -168.5 2.168e+04 1.663e-08
 38.55174   -170.2 2.160e+04 2.571e-08
 38.55720   -169.7 2.118e+04 2.078e-08
 38.56315   -171.0 2.132e+04 2.434e-08
 38.57388   -172.9 2.128e+04 2.623e-08
 38.57934   -172.7 2.084e+04 2.162e-08
 38.58496   -174.3 2.064e+04 2.148e-08
 38.59586   -175.9 1.997e+04 1.678e-08
 38.60148   -178.1 1.924e+04 1.018e-08
 38.60693   -177.5 1.908e+04 1.030e-08
 38.61767   -180.6 1.769e+04 6.093e-09
 38.62362   -183.2 1.605e+04 4.049e-09
 38.62431   -182.5 1.617e+04 4.246e-09
 38.62926   -183.2 1.577e+04 3.907e-09
 38.64036   -185.0 1.481e+04 3.059e-09
 38.65131   -183.3 1.504e+04 3.395e-09
 38.66684   -186.6 1.306e+04 2.006e-09
 38.68469   -188.6 1.129e+04 1.261e-09
 38.69560   -187.4 1.164e+04 1.414e-09
 38.71046   -188.0 1.099e+04 1.077e-09
 38.72412   -188.3 1.073e+04 8.560e-10
 38.73173   -188.4 1.090e+04 9.399e-10
 38.73988   -187.5 1.125e+04 1.144e-09
 38.75407   -187.9 1.095e+04 9.205e-10
 38.77326   -188.6 1.056e+04 6.871e-10
 38.78416   -187.7 1.109e+04 9.533e-10
 38.79769   -188.5 1.061e+04 6.859e-10
 38.81754   -189.4 1.005e+04 4.711e-10
 38.82845   -188.5 1.075e+04 7.021e-10
 38.84130   -189.2 1.006e+04 4.644e-10
 38.86182   -189.7 9.480e+03 3.351e-10
 38.87273   -188.7 1.004e+04 4.567e-10
 38.88492   -189.1 9.397e+03 3.258e-10
 38.90611   -189.1 9.121e+03 2.781e-10
 38.91701   -188.6 9.300e+03 3.114e-10
 38.93954   -188.9 8.992e+03 2.508e-10
 38.98325   -187.2 8.870e+03 2.276e-10
 39.02687   -185.8 8.439e+03 1.632e-10
 39.05006   -184.4 8.094e+03 1.173e-10
 39.07187   -183.5 8.190e+03 1.268e-10
 39.11410   -181.9 8.009e+03 9.526e-11
 39.13862   -180.4 7.896e+03 7.519e-11
 39.16043   -179.2 7.900e+03 7.499e-11
 39.20133   -177.7 7.902e+03 7.417e-11
 39.22719   -176.6 8.028e+03 7.731e-11
 39.24900   -175.3 8.059e+03 7.726e-11
 39.28857   -174.6 8.398e+03 1.039e-10
 39.31576   -174.2 8.720e+03 1.544e-10
 39.33757   -173.0 8.756e+03 1.538e-10
 39.37580   -172.9 9.078e+03 2.217e-10
 39.40432   -173.6 9.482e+03 3.050e-10
 39.42613   -173.0 9.738e+03 3.379e-10
 39.46303   -174.8 1.036e+04 4.953e-10
 39.49289   -176.9 1.105e+04 7.194e-10
 39.51470   -178.1 1.186e+04 1.045e-09
 39.53690   -181.0 1.243e+04 1.472e-09
 39.55871   -182.3 1.252e+04 1.597e-09
 39.58146   -184.1 1.259e+04 1.692e-09
 39.59226   -184.7 1.301e+04 2.029e-09
 39.60459   -185.7 1.298e+04 2.034e-09
 39.62555   -186.5 1.284e+04 1.969e-09
 39.63645   -187.2 1.291e+04 2.050e-09
 39.64821   -187.5 1.262e+04 1.830e-09
 39.66993   -187.8 1.222e+04 1.542e-09
 39.69173   -188.4 1.198e+04 1.406e-09
 39.72463   -188.3 1.157e+04 1.139e-09
 39.75859   -187.4 1.086e+04 8.053e-10
 39.78030   -186.7 1.057e+04 6.513e-10
 39.81186   -186.2 1.026e+04 5.289e-10
 39.84716   -184.7 9.810e+03 4.144e-10
 39.86897   -184.7 9.848e+03 3.849e-10
 39.89920   -183.1 9.565e+03 3.455e-10
 39.93572   -181.5 9.450e+03 3.314e-10
 39.95246   -181.2 9.480e+03 3.321e-10
 39.95955   -180.7 9.507e+03 3.158e-10
 39.98643   -179.3 9.429e+03 3.078e-10
 40.02429   -177.8 9.367e+03 3.016e-10
 40.04610   -177.5 9.419e+03 3.123e-10
 40.07366   -176.1 9.279e+03 2.884e-10
 40.11286   -174.5 9.156e+03 2.630e-10
 40.13467   -174.1 9.112e+03 2.499e-10
 40.16089   -172.4 9.011e+03 2.268e-10
 40.20142   -170.6 9.004e+03 2.159e-10
 40.22323   -170.1 8.941e+03 1.983e-10
 40.24813   -168.3 8.947e+03 1.956e-10
 40.28999   -166.6 8.982e+03 1.953e-10
 40.31180   -166.0 8.886e+03 1.763e-10
 40.33536   -164.2 8.955e+03 1.766e-10
 40.36039   -162.5 9.053e+03 1.820e-10
 40.38178   -162.3 9.204e+03 1.964e-10
 40.40037   -161.5 9.025e+03 1.558e-10
 40.42259   -160.1 9.250e+03 1.885e-10
 40.46621   -158.7 9.506e+03 2.601e-10
 40.48893   -157.3 9.855e+03 3.748e-10
 40.51074   -156.5 9.657e+03 3.021e-10
 40.55344   -155.0 1.004e+04 4.386e-10
 40.57750   -153.7 1.036e+04 5.657e-10
 40.59931   -152.9 1.021e+04 5.005e-10
 40.64067   -151.7 1.043e+04 5.788e-10
 40.66607   -150.7 1.046e+04 5.907e-10
 40.68787   -149.9 1.042e+04 5.675e-10
 40.72791   -148.8 1.039e+04 5.555e-10
 40.75463   -147.5 1.027e+04 4.931e-10
 40.76615   -146.8 1.038e+04 5.447e-10
 40.78304   -146.6 1.017e+04 4.717e-10
 40.81514   -145.2 1.004e+04 4.022e-10
 40.84320   -143.9 1.001e+04 3.708e-10
 40.86501   -143.5 1.002e+04 3.877e-10
 40.90237   -142.5 1.001e+04 3.792e-10
 40.93177   -141.5 1.011e+04 3.853e-10
 40.95357   -141.2 9.915e+03 3.819e-10
 40.98960   -140.1 9.915e+03 3.950e-10
 41.02033   -139.0 9.930e+03 4.114e-10
 41.04214   -138.4 9.685e+03 3.690e-10
 41.07684   -137.1 9.624e+03 3.659e-10
 41.10890   -135.7 9.607e+03 3.321e-10
 41.13071   -135.0 9.373e+03 2.806e-10
 41.16207   -133.6 9.297e+03 2.402e-10
 41.18388   -133.3 9.450e+03 2.959e-10
 41.19747   -132.0 9.449e+03 2.843e-10
 41.21927   -131.2 9.180e+03 2.297e-10
 41.25130   -129.8 9.157e+03 2.104e-10
 41.28603   -128.5 9.092e+03 1.788e-10
 41.30784   -127.4 8.890e+03 1.509e-10
 41.33853   -126.1 8.829e+03 1.265e-10
 41.37460   -124.8 8.744e+03 1.058e-10
 41.39641   -123.6 8.621e+03 9.457e-11
 41.42577   -122.3 8.587e+03 8.451e-11
 41.46317   -121.1 8.579e+03 8.106e-11
 41.48497   -119.9 8.516e+03 7.692e-11
 41.51300   -118.6 8.560e+03 8.417e-11
 41.55173   -117.2 8.628e+03 9.623e-11
 41.57354   -116.1 8.609e+03 9.694e-11
 41.58472   -114.7 8.689e+03 1.088e-10
 41.60652   -114.6 8.755e+03 1.247e-10
 41.64030   -113.3 8.772e+03 1.271e-10
 41.66211   -112.1 8.760e+03 1.293e-10
 41.68746   -110.7 8.723e+03 1.259e-10
 41.72887   -109.2 8.642e+03 1.148e-10
 41.75067   -108.0 8.599e+03 1.144e-10
 41.77470   -106.5 8.586e+03 1.076e-10
 41.81743   -105.2 8.600e+03 1.070e-10
 41.83924   -104.1 8.618e+03 1.099e-10
 41.86193   -103.0 8.765e+03 1.314e-10
 41.90555   -102.0 8.963e+03 1.666e-10
 41.92781   -101.1 9.158e+03 1.951e-10
 41.94962   -100.2 9.358e+03 2.570e-10
 41.98556    -99.4 9.451e+03 2.715e-10
 42.00736    -99.3 9.497e+03 2.899e-10
 42.01637    -98.6 9.542e+03 2.944e-10
 42.03818    -97.9 9.698e+03 3.577e-10
 42.08001    -97.1 9.651e+03 3.159e-10
 42.10494    -96.5 9.489e+03 2.525e-10
 42.12675    -95.7 9.583e+03 2.962e-10
 42.16724    -95.0 9.387e+03 2.421e-10
 42.19351    -94.2 9.232e+03 2.092e-10
 42.21532    -93.3 9.291e+03 2.309e-10
 42.25448    -92.3 9.134e+03 1.930e-10
 42.28207    -91.1 9.014e+03 1.647e-10
 42.30388    -90.4 9.064e+03 1.706e-10
 42.34171    -89.3 8.964e+03 1.465e-10
 42.37064    -88.1 8.895e+03 1.388e-10
 42.39245    -87.4 8.945e+03 1.492e-10
 42.40820    -86.0 8.892e+03 1.448e-10
 42.43001    -85.3 8.748e+03 1.151e-10
 42.45921    -83.9 8.802e+03 1.179e-10
 42.48102    -83.1 8.794e+03 1.189e-10
 42.51617    -81.8 8.921e+03 1.297e-10
 42.54777    -80.7 9.085e+03 1.442e-10
 42.56958    -80.2 9.086e+03 1.385e-10
 42.60341    -80.0 9.420e+03 1.737e-10
 42.63634    -79.9 9.871e+03 2.844e-10
 42.65815    -79.9 1.010e+04 3.096e-10
 42.69064    -79.1 1.048e+04 5.196e-10
 42.72491    -78.2 1.078e+04 6.374e-10
 42.74672    -78.0 1.114e+04 7.706e-10
 42.77787    -77.4 1.125e+04 7.573e-10
 42.80904    -77.2 1.122e+04 6.168e-10
 42.82284    -77.9 1.077e+04 4.098e-10
 42.83528    -78.3 1.141e+04 6.159e-10
 42.86511    -78.4 1.138e+04 5.840e-10
 42.90204    -78.2 1.137e+04 6.084e-10
 42.92385    -78.4 1.188e+04 9.269e-10
 42.95234    -77.7 1.164e+04 8.403e-10
 42.99061    -77.0 1.138e+04 7.301e-10
 43.01242    -77.3 1.136e+04 7.169e-10
 43.03957    -76.4 1.120e+04 6.445e-10
 43.07917    -75.6 1.126e+04 6.820e-10
 43.10098    -75.5 1.081e+04 4.304e-10
 43.12680    -75.0 1.133e+04 6.352e-10
 43.16774    -74.2 1.212e+04 1.228e-09
 43.18955    -74.2 1.148e+04 6.070e-10
 43.20989    -73.4 1.221e+04 1.195e-09
 43.22958    -73.4 1.312e+04 2.499e-09
 43.23364    -73.7 1.272e+04 1.779e-09
 43.24655    -72.5 1.321e+04 2.587e-09
 43.26702    -71.5 1.347e+04 3.061e-09
 43.27792    -71.7 1.301e+04 2.298e-09
 43.29017    -70.6 1.321e+04 2.583e-09
 43.31130    -70.0 1.311e+04 2.465e-09
 43.32220    -70.3 1.267e+04 1.945e-09
 43.34478    -69.5 1.285e+04 2.023e-09
 43.38849    -68.4 1.239e+04 1.646e-09
 43.43212    -67.3 1.210e+04 1.441e-09
 43.45525    -66.1 1.179e+04 1.207e-09
 43.47706    -65.8 1.187e+04 1.285e-09
 43.51935    -64.5 1.155e+04 1.054e-09
 43.54382    -63.1 1.114e+04 7.912e-10
 43.56562    -62.8 1.113e+04 7.929e-10
 43.60658    -61.4 1.078e+04 6.057e-10
 43.63238    -60.1 1.057e+04 5.182e-10
 43.65419    -60.9 1.053e+04 4.687e-10
 43.69382    -59.4 1.054e+04 5.032e-10
 43.72095    -57.7 1.052e+04 5.130e-10
 43.74276    -57.5 1.060e+04 5.446e-10
 43.78105    -55.6 1.054e+04 5.112e-10
 43.80952    -53.7 1.043e+04 4.313e-10
 43.83132    -54.0 1.057e+04 4.651e-10
 43.86828    -52.6 1.057e+04 4.288e-10
 43.89808    -51.2 1.070e+04 4.421e-10
 43.91989    -51.7 1.085e+04 5.342e-10
 43.95551    -50.0 1.096e+04 6.357e-10
 43.98665    -47.8 1.109e+04 8.049e-10
 44.00846    -48.1 1.111e+04 7.620e-10
 44.03337    -45.8 1.129e+04 8.678e-10
 44.05518    -46.3 1.129e+04 8.737e-10
 44.07522    -44.4 1.150e+04 9.789e-10
 44.09702    -47.6 1.237e+04 1.101e-09
 44.11898    -46.3 1.259e+04 1.250e-09
 44.13021    -46.4 1.297e+04 1.512e-09
 44.14111    -48.7 1.339e+04 1.969e-09
 44.16250    -48.6 1.371e+04 2.577e-09
 44.17449    -48.2 1.394e+04 3.267e-09
 44.18540    -48.9 1.394e+04 3.545e-09
 44.20611    -48.0 1.413e+04 3.946e-09
 44.21877    -46.9 1.397e+04 3.885e-09
 44.22968    -46.7 1.340e+04 2.357e-09
 44.24450    -46.2 1.330e+04 1.656e-09
 44.25541    -46.5 1.326e+04 1.847e-09
 44.26306    -47.2 1.314e+04 1.225e-09
 44.27396    -51.9 1.196e+04 5.317e-10
 44.29334    -54.5 1.098e+04 4.234e-10
 44.30734    -56.8 1.066e+04 4.234e-10
 44.31825    -59.0 1.049e+04 4.037e-10
 44.33696    -61.2 1.109e+04 5.365e-10
 44.35162    -63.4 1.158e+04 7.859e-10
 44.36253    -64.8 1.160e+04 9.039e-10
 44.38058    -66.2 1.167e+04 1.118e-09
 44.39591    -67.5 1.176e+04 1.192e-09
 44.40681    -68.6 1.179e+04 1.187e-09
 44.42419    -70.5 1.184e+04 1.044e-09
 44.44019    -73.1 1.164e+04 8.690e-10
 44.45002    -74.1 1.145e+04 8.555e-10
 44.45583    -75.4 1.161e+04 1.035e-09
 44.46781    -77.2 1.121e+04 8.750e-10
 44.48447    -78.3 1.087e+04 7.606e-10
 44.49538    -78.6 1.096e+04 8.107e-10
 44.51143    -79.4 1.073e+04 7.005e-10
 44.52876    -80.2 1.042e+04 5.962e-10
 44.53966    -80.4 1.060e+04 6.832e-10
 44.55504    -80.7 1.028e+04 5.845e-10
 44.57304    -80.9 1.002e+04 4.900e-10
 44.58395    -80.9 1.016e+04 5.622e-10
 44.59866    -81.0 9.878e+03 4.550e-10
 44.61732    -80.9 9.698e+03 3.888e-10
 44.62823    -80.8 9.772e+03 4.217e-10
 44.65328    -81.0 9.591e+03 3.566e-10
 44.69518    -80.5 9.383e+03 2.966e-10
 44.71699    -80.6 9.546e+03 3.301e-10
 44.74061    -80.0 9.531e+03 2.962e-10
 44.78375    -80.0 9.700e+03 3.022e-10
 44.80556    -80.7 1.001e+04 3.788e-10
 44.82784    -80.8 1.033e+04 4.967e-10
 44.85686    -80.4 1.056e+04 6.336e-10
 44.87867    -81.8 1.086e+04 8.215e-10
 44.89412    -81.4 1.074e+04 7.433e-10
 44.91593    -81.9 1.080e+04 7.584e-10
 44.95869    -82.1 1.048e+04 5.657e-10
 44.98269    -82.9 1.034e+04 5.060e-10
 45.00450    -82.8 1.036e+04 5.454e-10
 45.04592    -84.3 1.146e+04 7.128e-10
 45.06809    -88.0 1.317e+04 1.370e-09
 45.07152    -88.6 1.279e+04 1.371e-09
 45.08197    -88.0 1.294e+04 1.409e-09
 45.10025    -90.1 1.335e+04 2.423e-09
 45.11535    -90.5 1.362e+04 3.382e-09
 45.12625    -90.2 1.389e+04 3.671e-09
 45.14386    -90.2 1.417e+04 4.191e-09
 45.15963    -90.1 1.433e+04 4.023e-09
 45.17053    -89.8 1.453e+04 4.597e-09
 45.18748    -89.8 1.444e+04 2.873e-09
 45.20391    -93.1 1.356e+04 1.308e-09
 45.21482    -91.4 1.401e+04 1.549e-09
 45.23110    -96.5 1.205e+04 8.211e-10
 45.24820    -98.4 1.134e+04 7.129e-10
 45.25910    -97.9 1.147e+04 7.122e-10
 45.26841    -98.5 1.131e+04 7.154e-10
 45.27932    -98.2 1.126e+04 6.912e-10
 45.29248    -98.2 1.134e+04 7.672e-10
 45.30338    -98.0 1.153e+04 8.424e-10
 45.31833    -97.9 1.153e+04 8.882e-10
 45.33676    -97.6 1.137e+04 8.760e-10
 45.34767    -97.6 1.170e+04 1.045e-09
 45.36194    -97.0 1.131e+04 8.939e-10
 45.38105    -96.4 1.103e+04 6.458e-10
 45.39195    -96.5 1.124e+04 8.180e-10
 45.40556    -96.2 1.098e+04 5.685e-10
 45.42533    -96.1 1.082e+04 3.961e-10
 45.43623    -96.2 1.091e+04 5.150e-10
 45.44918    -96.0 1.082e+04 3.878e-10
 45.46883    -96.0 1.075e+04 3.333e-10
 45.47836    -96.2 1.089e+04 3.386e-10
 45.48052    -96.1 1.089e+04 3.894e-10
 45.49279    -96.1 1.085e+04 3.767e-10
 45.51390    -96.4 1.103e+04 3.796e-10
 45.52480    -95.6 1.081e+04 4.568e-10
 45.53641    -95.8 1.114e+04 4.869e-10
 45.55818    -96.5 1.151e+04 6.401e-10
 45.57999    -96.2 1.192e+04 9.484e-10
 45.60183    -96.5 1.248e+04 1.402e-09
 45.61337    -96.5 1.301e+04 1.971e-09
 45.62427    -95.6 1.276e+04 1.659e-09
 45.64545    -95.5 1.322e+04 2.131e-09
 45.65765    -95.4 1.342e+04 2.364e-09
 45.66855    -94.6 1.326e+04 2.068e-09
 45.68016    -94.6 1.336e+04 2.173e-09
 45.69106    -95.5 1.332e+04 2.134e-09
 45.70193    -95.5 1.304e+04 1.861e-09
 45.71284    -94.7 1.319e+04 1.981e-09
 45.73268    -94.8 1.305e+04 1.804e-09
 45.74622    -96.1 1.321e+04 1.781e-09
 45.75712    -94.7 1.352e+04 2.049e-09
 45.77630   -101.2 1.751e+04 2.627e-09
 45.79050   -110.4 2.069e+04 8.703e-09
 45.80140   -110.4 2.198e+04 1.084e-08
 45.81259   -115.0 2.142e+04 2.975e-08
 45.81800   -115.0 2.182e+04 3.374e-08
 45.82527   -116.3 2.206e+04 6.004e-08
 45.83469   -117.6 2.258e+04 7.886e-08
 45.84014   -117.8 2.263e+04 8.464e-08
 45.84708   -119.6 2.284e+04 8.845e-08
 45.85683   -121.9 2.334e+04 6.570e-08
 45.86228   -122.0 2.334e+04 6.697e-08
 45.86889   -125.4 2.308e+04 2.925e-08
 45.87897   -131.3 2.029e+04 1.007e-08
 45.88442   -131.6 2.032e+04 9.636e-09
 45.88593   -138.2 1.563e+04 3.738e-09
 45.89138   -138.0 1.578e+04 4.105e-09
 45.90111   -141.3 1.372e+04 2.576e-09
 45.90656   -141.8 1.358e+04 2.419e-09
 45.91250   -142.8 1.296e+04 2.014e-09
 45.92330   -143.7 1.267e+04 1.638e-09
 45.93425   -144.3 1.236e+04 1.447e-09
 45.95076   -146.6 1.103e+04 7.888e-10
 45.96763   -147.9 1.011e+04 5.428e-10
 45.97854   -147.7 9.921e+03 4.686e-10
 45.99438   -147.9 9.651e+03 4.037e-10
 46.01192   -147.8 9.507e+03 3.724e-10
 46.02282   -147.6 9.413e+03 3.290e-10
 46.04539   -147.6 9.420e+03 3.446e-10
 46.06730   -147.3 9.291e+03 2.853e-10
 46.08119   -146.9 9.402e+03 3.006e-10
 46.10300   -146.6 9.380e+03 2.987e-10
 46.13406   -146.2 9.659e+03 3.702e-10
 46.15587   -145.8 9.499e+03 3.102e-10
 46.16894   -145.5 9.849e+03 4.340e-10
 46.18905   -145.3 9.987e+03 5.553e-10
 46.19995   -145.1 9.903e+03 4.808e-10
 46.21246   -144.9 1.001e+04 6.255e-10
 46.23333   -145.9 1.044e+04 9.969e-10
 46.24424   -146.3 1.018e+04 8.496e-10
 46.25608   -150.1 1.316e+04 2.097e-09
 46.27762   -153.2 1.651e+04 5.731e-09
 46.28852   -154.6 1.692e+04 6.390e-09
 46.29232   -156.2 1.932e+04 1.514e-08
 46.30322   -157.5 1.932e+04 1.462e-08
 46.31600   -158.8 2.057e+04 2.440e-08
 46.32686   -159.9 2.104e+04 2.877e-08
 46.33271   -161.5 2.135e+04 3.119e-08
 46.33816   -162.0 2.138e+04 3.176e-08
 46.34867   -163.8 2.128e+04 3.162e-08
 46.35485   -164.7 2.074e+04 2.669e-08
 46.36030   -164.6 2.047e+04 2.623e-08
 46.37047   -165.5 1.979e+04 1.916e-08
 46.37699   -166.8 1.903e+04 1.394e-08
 46.38244   -166.8 1.876e+04 1.291e-08
 46.39228   -168.3 1.788e+04 9.460e-09
 46.40869   -170.2 1.678e+04 6.579e-09
 46.42137   -173.2 1.524e+04 4.052e-09
 46.43227   -173.3 1.537e+04 4.625e-09
 46.45235   -175.9 1.433e+04 3.291e-09
 46.46565   -177.1 1.372e+04 2.391e-09
 46.47656   -176.5 1.454e+04 3.716e-09
 46.49274   -177.5 1.385e+04 2.626e-09
 46.50364   -177.4 1.337e+04 2.349e-09
 46.50994   -178.3 1.268e+04 1.654e-09
 46.52084   -177.4 1.332e+04 2.424e-09
 46.53959   -178.3 1.251e+04 1.588e-09
 46.55422   -179.3 1.177e+04 1.085e-09
 46.56512   -178.4 1.220e+04 1.356e-09
 46.58320   -179.5 1.158e+04 9.575e-10
 46.59850   -180.4 1.115e+04 7.485e-10
 46.60941   -179.9 1.146e+04 8.449e-10
 46.62682   -180.7 1.111e+04 6.819e-10
 46.64279   -181.3 1.079e+04 5.591e-10
 46.65369   -181.0 1.114e+04 6.468e-10
 46.67043   -181.5 1.084e+04 5.208e-10
 46.68707   -181.9 1.054e+04 4.163e-10
 46.69797   -181.7 1.093e+04 5.291e-10
 46.70406   -181.9 1.060e+04 4.100e-10
 46.71497   -180.9 1.064e+04 4.071e-10
 46.73135   -181.1 1.036e+04 3.295e-10
 46.74226   -180.9 1.069e+04 4.160e-10
 46.75767   -181.1 1.036e+04 3.256e-10
 46.77573   -181.6 1.012e+04 2.812e-10
 46.78664   -180.6 1.044e+04 3.184e-10
 46.80128   -180.8 1.033e+04 2.908e-10
 46.83409   -181.1 1.032e+04 2.846e-10
 46.86440   -181.1 1.030e+04 2.850e-10
 46.88621   -180.6 1.064e+04 3.158e-10
 46.90468   -180.7 1.078e+04 3.681e-10
 46.92649   -177.9 1.050e+04 3.170e-10
 46.95297   -178.1 1.075e+04 3.779e-10
 46.97477   -177.4 1.092e+04 4.303e-10
 46.99715   -177.7 1.098e+04 4.657e-10
 47.00796   -177.8 1.101e+04 5.059e-10
 47.01936   -178.0 1.101e+04 5.092e-10
 47.04117   -178.2 1.096e+04 4.745e-10
 47.05224   -178.2 1.091e+04 4.189e-10
 47.06315   -177.7 1.094e+04 4.311e-10
 47.09579   -177.5 1.083e+04 3.765e-10
 47.13010   -177.6 1.055e+04 3.114e-10
 47.15191   -176.9 1.054e+04 2.929e-10
 47.18312   -177.0 1.021e+04 2.433e-10
 47.21867   -177.0 1.000e+04 2.071e-10
 47.24047   -176.2 9.946e+03 1.805e-10
 47.27035   -176.0 9.756e+03 1.554e-10
 47.30552   -175.6 9.658e+03 1.422e-10
 47.32059   -174.0 9.616e+03 1.272e-10
 47.32904   -173.3 9.627e+03 1.217e-10
 47.35759   -172.9 9.590e+03 1.202e-10
 47.39580   -172.5 9.620e+03 1.212e-10
 47.41761   -172.2 9.769e+03 1.383e-10
 47.44482   -171.9 9.711e+03 1.592e-10
 47.48437   -171.4 9.607e+03 1.715e-10
 47.50617   -171.2 9.596e+03 1.999e-10
 47.53205   -170.5 9.286e+03 1.837e-10
 47.57293   -169.8 8.941e+03 1.559e-10
 47.59474   -169.5 8.646e+03 1.406e-10
 47.61928   -168.7 8.283e+03 1.165e-10
 47.66150   -167.7 8.115e+03 1.107e-10
 47.68331   -167.3 7.952e+03 1.033e-10
 47.70636   -166.0 7.948e+03 1.030e-10
 47.74991   -163.9 8.160e+03 1.027e-10
 47.79368   -162.7 8.262e+03 1.136e-10
 47.83737   -162.1 8.662e+03 1.537e-10
 47.86044   -161.8 9.193e+03 2.308e-10
 47.88225   -161.7 9.340e+03 2.831e-10
 47.92460   -161.4 1.000e+04 4.434e-10
 47.94901   -161.3 1.063e+04 6.247e-10
 47.97082   -161.2 1.076e+04 7.066e-10
 48.01183   -161.5 1.120e+04 8.121e-10
 48.03757   -162.1 1.152e+04 8.738e-10
 48.05938   -162.2 1.125e+04 7.672e-10
 48.09906   -162.5 1.141e+04 7.537e-10
 48.12614   -162.7 1.160e+04 7.924e-10
 48.13428   -162.4 1.107e+04 5.877e-10
 48.15082   -161.3 1.118e+04 6.071e-10
 48.18630   -161.2 1.144e+04 6.292e-10
 48.21471   -160.9 1.178e+04 7.741e-10
 48.23652   -160.4 1.136e+04 5.663e-10
 48.25889   -160.3 1.159e+04 7.366e-10
 48.26970   -159.8 1.142e+04 6.148e-10
 48.28424   -159.8 1.149e+04 6.728e-10
 48.30308   -159.7 1.153e+04 7.254e-10
 48.31398   -159.3 1.134e+04 6.174e-10
 48.32785   -159.1 1.135e+04 6.359e-10
 48.34014   -158.9 1.134e+04 6.393e-10
 48.34874   -158.1 1.138e+04 6.580e-10
 48.35827   -157.8 1.124e+04 5.948e-10
 48.37147   -157.5 1.124e+04 5.993e-10
 48.39165   -157.3 1.118e+04 5.887e-10
 48.40255   -156.8 1.103e+04 5.137e-10
 48.41509   -156.4 1.092e+04 4.944e-10
 48.44790   -156.0 1.075e+04 4.526e-10
 48.48041   -154.7 1.053e+04 3.751e-10
 48.50222   -153.7 1.052e+04 3.704e-10
 48.52985   -152.5 1.031e+04 3.062e-10
 48.55166   -151.2 1.056e+04 3.776e-10
 48.56897   -150.0 1.038e+04 3.027e-10
 48.59078   -149.2 1.042e+04 3.119e-10
 48.62246   -148.1 1.031e+04 2.656e-10
 48.65754   -147.1 1.028e+04 2.501e-10
 48.67935   -146.6 1.035e+04 2.873e-10
 48.70969   -145.9 1.045e+04 3.121e-10
 48.74611   -145.3 1.084e+04 4.466e-10
 48.76792   -145.2 1.100e+04 5.331e-10
 48.79693   -144.7 1.134e+04 7.128e-10
 48.83467   -144.2 1.159e+04 8.681e-10
 48.85648   -144.4 1.148e+04 7.747e-10
 48.88416   -144.1 1.154e+04 7.782e-10
 48.92324   -143.8 1.158e+04 7.638e-10
 48.94505   -144.0 1.146e+04 6.841e-10
 48.95250   -144.0 1.161e+04 7.020e-10
 48.97431   -143.2 1.123e+04 4.441e-10
 49.01181   -142.9 1.137e+04 4.500e-10
 49.03362   -142.7 1.127e+04 4.251e-10
 49.04762   -143.6 1.143e+04 6.727e-10
 49.06680   -146.3 1.354e+04 1.176e-09
 49.07770   -145.2 1.304e+04 1.025e-09
 49.09114   -147.9 1.540e+04 2.095e-09
 49.11108   -151.0 1.799e+04 4.981e-09
 49.12199   -149.6 1.723e+04 3.918e-09
 49.13476   -152.4 1.868e+04 6.922e-09
 49.15272   -155.4 1.902e+04 8.932e-09
 49.16243   -154.8 2.015e+04 1.390e-08
 49.16627   -153.8 2.002e+04 1.146e-08
 49.17837   -156.9 2.016e+04 1.242e-08
 49.19965   -159.6 1.907e+04 1.070e-08
 49.21055   -159.4 1.914e+04 1.034e-08
 49.22199   -161.8 1.688e+04 7.228e-09
 49.24380   -163.4 1.486e+04 4.311e-09
 49.25484   -164.3 1.349e+04 2.600e-09
 49.26574   -164.1 1.383e+04 3.153e-09
 49.28741   -164.5 1.307e+04 2.113e-09
 49.29912   -164.7 1.268e+04 1.519e-09
 49.31002   -164.7 1.303e+04 1.788e-09
 49.33103   -164.9 1.265e+04 1.337e-09
 49.34340   -165.0 1.234e+04 1.042e-09
 49.35431   -165.4 1.262e+04 1.212e-09
 49.36405   -165.4 1.233e+04 9.929e-10
 49.37495   -165.4 1.219e+04 9.705e-10
 49.38769   -165.3 1.200e+04 8.294e-10
 49.39859   -165.7 1.218e+04 1.003e-09
 49.41826   -165.6 1.205e+04 9.080e-10
 49.43197   -165.5 1.192e+04 8.463e-10
 49.44287   -165.9 1.213e+04 1.061e-09
 49.46188   -165.7 1.203e+04 1.011e-09
 49.47625   -165.5 1.199e+04 9.840e-10
 49.48716   -165.8 1.212e+04 1.145e-09
 49.50550   -165.6 1.208e+04 1.092e-09
 49.52054   -165.5 1.208e+04 1.055e-09
 49.53144   -165.8 1.212e+04 1.079e-09
 49.54911   -165.7 1.204e+04 1.014e-09
 49.56447   -165.4 1.196e+04 9.576e-10
 49.56927   -165.1 1.216e+04 1.220e-09
 49.57572   -165.3 1.194e+04 1.043e-09
 49.59273   -165.0 1.184e+04 9.719e-10
 49.60910   -164.6 1.171e+04 9.016e-10
 49.62001   -164.5 1.143e+04 7.311e-10
 49.63634   -163.8 1.124e+04 6.548e-10
 49.65339   -163.0 1.107e+04 5.741e-10
 49.66429   -162.6 1.082e+04 4.458e-10
 49.67996   -161.8 1.070e+04 3.845e-10
 49.71277   -161.2 1.062e+04 3.394e-10
 49.74215   -160.0 1.048e+04 3.085e-10
 49.76165   -159.1 1.011e+04 2.462e-10
 49.77599   -159.0 1.038e+04 3.114e-10
 49.80010   -157.5 1.031e+04 3.063e-10
 49.83072   -156.1 1.028e+04 3.109e-10
 49.85252   -155.2 9.949e+03 2.473e-10
 49.88733   -154.0 9.954e+03 2.492e-10
 49.91928   -153.1 9.959e+03 2.488e-10
 49.94109   -151.9 9.786e+03 2.170e-10
 49.97457   -150.9 9.778e+03 2.021e-10
 50.00785   -149.9 9.760e+03 1.776e-10
 50.02966   -148.7 9.729e+03 1.725e-10
 50.06180   -147.6 9.717e+03 1.506e-10
 50.09642   -146.5 9.724e+03 1.371e-10
 50.11822   -145.1 9.774e+03 1.455e-10
 50.14903   -143.9 9.801e+03 1.406e-10
 50.17683   -142.6 9.809e+03 1.397e-10
 50.19097   -143.4 9.949e+03 1.551e-10
 50.20679   -142.0 9.948e+03 1.702e-10
 50.23626   -140.6 9.957e+03 1.694e-10
 50.27355   -139.1 1.006e+04 1.683e-10
 50.29536   -137.6 9.985e+03 1.902e-10
 50.32350   -136.2 1.022e+04 1.908e-10
 50.36212   -134.9 1.040e+04 2.174e-10
 50.38392   -133.3 1.031e+04 2.272e-10
 50.41073   -132.0 1.045e+04 2.833e-10
 50.45068   -130.7 1.066e+04 3.835e-10
 50.47249   -129.2 1.053e+04 3.804e-10
 50.49796   -127.8 1.079e+04 5.006e-10
 50.53925   -126.5 1.104e+04 6.409e-10
 50.56106   -125.2 1.085e+04 5.644e-10
 50.57767   -124.1 1.093e+04 6.174e-10
 50.59948   -125.0 1.102e+04 6.726e-10
 50.62782   -123.8 1.101e+04 6.821e-10
 50.64962   -122.6 1.071e+04 5.598e-10
 50.67243   -121.2 1.054e+04 5.071e-10
 50.71604   -119.7 1.036e+04 4.260e-10
 50.73819   -118.2 1.020e+04 3.526e-10
 50.76000   -117.3 1.009e+04 3.260e-10
 50.80328   -115.9 9.989e+03 2.843e-10
 50.82676   -114.5 9.941e+03 2.591e-10
 50.84857   -113.5 9.988e+03 2.811e-10
 50.89051   -112.2 9.968e+03 2.752e-10
 50.91532   -110.9 9.969e+03 2.756e-10
 50.93713   -109.8 9.951e+03 3.127e-10
 50.97774   -108.7 9.967e+03 3.066e-10
 51.00032   -107.6 1.002e+04 3.045e-10
 51.00466   -107.5 1.017e+04 3.748e-10
 51.02570   -106.2 1.001e+04 3.342e-10
 51.06497   -105.3 1.016e+04 3.671e-10
 51.09246   -104.5 1.028e+04 3.996e-10
 51.11427   -103.2 1.008e+04 3.070e-10
 51.15221   -102.5 1.015e+04 3.220e-10
 51.18102   -101.7 1.017e+04 3.282e-10
 51.20283   -100.6 1.002e+04 2.579e-10
 51.23944    -99.8 1.001e+04 2.728e-10
 51.26959    -98.8 9.987e+03 2.866e-10
 51.29140    -97.5 9.923e+03 2.862e-10
 51.32667    -96.4 9.954e+03 3.110e-10
 51.35816    -95.3 9.986e+03 3.353e-10
 51.37997    -94.0 9.957e+03 3.541e-10
 51.40116    -92.9 1.001e+04 3.809e-10
 51.42296    -93.3 9.903e+03 3.227e-10
 51.44672    -92.1 9.845e+03 2.901e-10
 51.46853    -90.7 9.810e+03 2.718e-10
 51.50114    -89.5 9.766e+03 2.302e-10
 51.53529    -88.4 9.744e+03 1.973e-10
 51.55710    -87.4 9.721e+03 1.864e-10
 51.58837    -86.3 9.694e+03 1.665e-10
 51.62386    -85.2 9.679e+03 1.567e-10
 51.64567    -84.2 9.711e+03 1.659e-10
 51.67560    -83.0 9.706e+03 1.648e-10
 51.71242    -81.7 9.703e+03 1.661e-10
 51.73423    -80.8 9.790e+03 1.970e-10
 51.76284    -79.5 9.799e+03 2.005e-10
 51.80099    -78.1 9.811e+03 2.059e-10
 51.81834    -77.0 9.929e+03 2.498e-10
 51.82380    -76.9 9.713e+03 1.654e-10
 51.85007    -75.4 9.749e+03 1.646e-10
 51.88956    -73.9 9.804e+03 1.645e-10
 51.91137    -72.9 9.921e+03 1.835e-10
 51.93730    -71.4 9.980e+03 1.758e-10
 51.97812    -69.9 1.001e+04 1.711e-10
 51.99993    -69.0 1.006e+04 1.743e-10
 52.02453    -67.4 1.007e+04 1.686e-10
 52.06669    -65.7 1.007e+04 1.640e-10
 52.08850    -64.9 1.017e+04 1.717e-10
 52.11177    -63.2 1.020e+04 1.715e-10
 52.15526    -61.5 1.026e+04 1.751e-10
 52.19887    -59.4 1.051e+04 2.102e-10
 52.22464    -58.2 1.068e+04 2.615e-10
 52.24645    -58.0 1.062e+04 2.596e-10
 52.26563    -56.9 1.086e+04 3.664e-10
 52.28744    -56.1 1.096e+04 4.049e-10
 52.32985    -55.1 1.128e+04 5.622e-10
 52.35420    -54.0 1.165e+04 7.829e-10
 52.37601    -53.3 1.150e+04 6.374e-10
 52.41708    -52.5 1.177e+04 7.588e-10
 52.44277    -51.9 1.193e+04 8.102e-10
 52.46457    -51.4 1.177e+04 6.362e-10
 52.50431    -50.9 1.186e+04 6.659e-10
 52.53133    -50.5 1.189e+04 6.392e-10
 52.55314    -49.7 1.186e+04 6.068e-10
 52.59155    -49.2 1.182e+04 5.425e-10
 52.61990    -48.7 1.173e+04 4.201e-10
 52.63203    -47.8 1.175e+04 4.447e-10
 52.64729    -47.3 1.173e+04 4.435e-10
 52.67878    -47.1 1.166e+04 3.608e-10
 52.70847    -47.0 1.165e+04 3.461e-10
 52.73027    -45.8 1.168e+04 3.857e-10
 52.76601    -45.9 1.173e+04 4.119e-10
 52.79703    -46.3 1.185e+04 4.981e-10
 52.81884    -45.2 1.184e+04 5.189e-10
 52.85324    -45.8 1.181e+04 5.422e-10
 52.88560    -46.3 1.143e+04 4.599e-10
 52.90741    -44.7 1.145e+04 4.714e-10
 52.94048    -45.2 1.105e+04 3.083e-10
 52.97417    -45.7 1.069e+04 2.205e-10
 52.99597    -44.2 1.074e+04 2.357e-10
 53.02633    -44.3 1.053e+04 1.951e-10
 53.04813    -43.7 1.055e+04 1.915e-10
 53.06273    -43.4 1.044e+04 1.789e-10
 53.08454    -42.0 1.046e+04 2.016e-10
 53.11494    -41.7 1.036e+04 1.926e-10
 53.15130    -41.0 1.021e+04 1.749e-10
 53.17311    -39.7 1.023e+04 1.994e-10
 53.20217    -38.8 1.008e+04 1.623e-10
 53.23987    -37.8 9.900e+03 1.237e-10
 53.26167    -36.7 9.900e+03 1.253e-10
 53.28941    -35.5 9.715e+03 9.923e-11
 53.32843    -34.2 9.608e+03 8.028e-11
 53.35024    -33.1 9.600e+03 7.978e-11
 53.37664    -31.6 9.575e+03 6.578e-11
 53.41700    -30.3 9.600e+03 5.766e-11
 53.43881    -29.1 9.562e+03 5.667e-11
 53.44897    -27.8 9.592e+03 5.453e-11
 53.47078    -27.1 9.591e+03 6.176e-11
 53.50557    -26.1 9.755e+03 6.530e-11
 53.52737    -24.8 9.721e+03 6.150e-11
 53.55110    -23.9 9.808e+03 8.142e-11
 53.59413    -22.9 9.818e+03 1.155e-10
 53.61594    -21.7 9.828e+03 1.067e-10
 53.63834    -20.5 9.859e+03 1.413e-10
 53.68195    -19.2 9.899e+03 1.540e-10
 53.70451    -18.1 9.879e+03 1.507e-10
 53.72632    -17.0 9.895e+03 1.689e-10
 53.76919    -15.8 9.832e+03 1.424e-10
 53.79307    -14.5 9.874e+03 1.037e-10
 53.81488    -13.3 9.867e+03 1.225e-10
 53.84981    -12.2 9.975e+03 8.636e-11
 53.87162    -11.9 1.004e+04 1.309e-10
 53.88164    -11.0 1.007e+04 1.136e-10
 53.90345    -10.1 1.010e+04 1.265e-10
 53.94365     -9.0 1.012e+04 1.233e-10
 53.97021     -7.9 1.026e+04 1.321e-10
 53.99202     -7.2 1.036e+04 1.594e-10
 54.03088     -6.3 1.051e+04 2.104e-10
 54.05877     -5.4 1.079e+04 3.067e-10
 54.08058     -5.3 1.101e+04 3.928e-10
 54.10296     -5.2 1.115e+04 5.245e-10
 54.11377     -5.3 1.120e+04 5.885e-10
 54.12883     -4.5 1.150e+04 8.113e-10
 54.14715     -3.7 1.191e+04 1.048e-09
 54.15805     -3.8 1.189e+04 1.012e-09
 54.17244     -3.3 1.224e+04 1.156e-09
 54.19143     -3.0 1.243e+04 1.211e-09
 54.20233     -3.8 1.170e+04 9.688e-10
 54.21606     -7.1 1.431e+04 1.022e-09
 54.23571    -14.6 1.708e+04 1.963e-09
 54.24662    -20.8 1.726e+04 3.205e-09
 54.25967    -24.0 1.709e+04 6.580e-09
 54.27227    -24.9 1.666e+04 8.950e-09
 54.28168    -24.7 1.712e+04 9.761e-09
 54.29090    -25.2 1.633e+04 9.197e-09
 54.30329    -25.1 1.561e+04 6.742e-09
 54.32428    -26.3 1.455e+04 3.199e-09
 54.33518    -30.2 1.357e+04 1.176e-09
 54.34691    -36.3 1.132e+04 3.777e-10
 54.36856    -40.0 9.514e+03 2.315e-10
 54.37947    -41.3 9.244e+03 2.224e-10
 54.39052    -40.5 9.200e+03 2.124e-10
 54.41294    -39.8 9.190e+03 2.068e-10
 54.43485    -40.4 9.012e+03 2.035e-10
 54.46705    -38.5 8.700e+03 1.792e-10
 54.50161    -36.6 8.608e+03 1.706e-10
 54.52342    -36.9 8.574e+03 1.713e-10
 54.55428    -34.9 8.494e+03 1.572e-10
 54.59017    -32.7 8.438e+03 1.395e-10
 54.61198    -33.0 8.439e+03 1.529e-10
 54.64151    -30.9 8.407e+03 1.423e-10
 54.67330    -28.7 8.400e+03 1.377e-10
 54.68872    -28.3 8.297e+03 1.244e-10
 54.70055    -28.4 8.407e+03 1.752e-10
 54.72875    -26.0 8.439e+03 1.801e-10
 54.76731    -23.5 8.528e+03 1.884e-10
 54.78912    -23.6 8.607e+03 2.151e-10
 54.81598    -21.5 8.804e+03 2.369e-10
 54.85587    -19.9 9.218e+03 2.974e-10
 54.87768    -21.0 9.354e+03 3.323e-10
 54.90321    -20.2 1.004e+04 5.318e-10
 54.94444    -19.2 1.083e+04 8.859e-10
 54.96625    -20.4 1.110e+04 1.140e-09
 54.99044    -19.3 1.141e+04 1.313e-09
 55.03301    -18.6 1.126e+04 1.111e-09
 55.05482    -19.3 1.120e+04 9.365e-10
 55.07414    -19.5 1.043e+04 4.722e-10
 55.09595    -18.8 1.154e+04 1.069e-09
 55.11029    -19.6 1.032e+04 5.142e-10
 55.13200    -18.9 1.003e+04 4.331e-10
 55.14319    -18.7 9.788e+03 3.629e-10
 55.15409    -18.9 9.905e+03 3.410e-10
 55.17562    -18.1 9.896e+03 3.259e-10
 55.20843    -17.5 9.787e+03 3.183e-10
 55.23195    -15.9 9.658e+03 2.904e-10
 55.25376    -16.5 9.640e+03 2.929e-10
 55.29576    -15.0 9.543e+03 3.364e-10
 55.32052    -13.0 9.498e+03 3.849e-10
 55.34232    -13.2 9.468e+03 3.675e-10
 55.38299    -11.1 9.276e+03 3.198e-10
 55.40908     -9.0 9.214e+03 2.622e-10
 55.43089    -10.3 9.195e+03 2.229e-10
 55.47022     -9.1 9.089e+03 2.186e-10
 55.49679     -7.9 9.019e+03 2.244e-10
 55.50241     -6.8 8.940e+03 2.055e-10
 55.51946     -7.8 9.227e+03 2.747e-10
 55.55746     -6.4 9.238e+03 3.005e-10
 55.58622     -4.8 9.357e+03 3.501e-10
 55.60802     -6.2 1.022e+04 7.142e-10
 55.64469     -4.8 1.035e+04 7.822e-10
 55.67478     -3.3 1.034e+04 7.945e-10
 55.69659     -4.5 1.022e+04 7.597e-10
 55.73192     -2.8 9.916e+03 6.210e-10
 55.76335     -1.2 9.784e+03 4.841e-10
 55.78516     -4.9 9.707e+03 3.383e-10
 55.81915     -4.6 9.471e+03 3.430e-10
 55.85192     -3.8 9.290e+03 3.654e-10
 55.87372     -5.7 9.101e+03 4.937e-10
 55.89763     -3.6 9.009e+03 4.982e-10
 55.91944     -2.6 9.350e+03 5.835e-10
 55.94048      0.0 9.090e+03 5.133e-10
 55.96229     -1.9 9.356e+03 5.337e-10
 55.99362     -0.3 9.416e+03 4.621e-10
 56.02905      0.1 9.591e+03 4.630e-10
 56.05086     -4.6 1.057e+04 7.605e-10
 56.08085     -3.5 1.193e+04 1.434e-09
 56.10886     -5.7 1.339e+04 2.478e-09
 56.11966     -4.9 1.338e+04 2.328e-09
 56.12832     -3.7 1.384e+04 2.826e-09
 56.13923     -6.4 1.267e+04 2.330e-09
 56.15698     -6.2 1.294e+04 2.570e-09
 56.17261     -6.9 1.335e+04 2.954e-09
 56.18351    -12.2 1.418e+04 2.903e-09
 56.20060    -15.2 1.533e+04 3.439e-09
 56.21689    -18.5 1.560e+04 3.317e-09
 56.22780    -25.8 1.323e+04 2.403e-09
 56.24422    -28.2 1.263e+04 2.129e-09
 56.26117    -30.5 1.250e+04 1.931e-09
 56.27208    -34.6 1.227e+04 1.639e-09
 56.28783    -42.8 1.330e+04 1.735e-09
 56.30546    -51.7 1.430e+04 2.838e-09
 56.31590    -53.4 1.392e+04 2.811e-09
 56.32008    -54.4 1.427e+04 3.117e-09
 56.33145    -58.7 1.525e+04 5.194e-09
 56.34974    -61.5 1.657e+04 6.808e-09
 56.36065    -61.3 1.640e+04 6.724e-09
 56.37507    -65.0 1.660e+04 6.569e-09
 56.39402    -69.1 1.510e+04 3.676e-09
 56.40493    -68.9 1.495e+04 3.674e-09
 56.41868    -72.5 1.233e+04 1.770e-09
 56.43831    -74.3 1.088e+04 1.061e-09
 56.44921    -73.4 1.086e+04 1.060e-09
 56.46230    -73.9 1.006e+04 6.852e-10
 56.48259    -73.9 9.451e+03 4.705e-10
 56.49350    -73.3 9.440e+03 4.622e-10
 56.50592    -73.1 8.985e+03 3.405e-10
 56.52050    -72.7 8.758e+03 2.872e-10
 56.53056    -72.9 8.709e+03 2.787e-10
 56.53778    -72.5 8.767e+03 2.808e-10
 56.56035    -72.0 8.624e+03 2.567e-10
 56.60407    -68.8 8.308e+03 2.159e-10
 56.64786    -66.5 8.233e+03 2.088e-10
 56.67082    -64.4 8.247e+03 2.101e-10
 56.69263    -64.7 8.816e+03 2.580e-10
 56.72112    -63.2 9.200e+03 3.449e-10
 56.74293    -63.1 9.242e+03 3.633e-10
 56.75939    -61.3 9.431e+03 4.138e-10
 56.78120    -61.4 1.037e+04 6.797e-10
 56.82233    -59.9 1.043e+04 7.307e-10
 56.84796    -58.4 1.040e+04 7.538e-10
 56.86977    -58.8 1.081e+04 8.711e-10
 56.90956    -57.5 1.072e+04 8.423e-10
 56.93652    -56.2 1.059e+04 8.316e-10
 56.95833    -56.8 1.064e+04 7.826e-10
 56.99679    -55.1 1.038e+04 7.208e-10
 57.02509    -53.2 9.977e+03 5.932e-10
 57.04690    -53.9 9.881e+03 4.885e-10
 57.08403    -52.1 9.549e+03 4.081e-10
 57.11366    -50.4 9.267e+03 3.443e-10
 57.12978    -51.0 9.205e+03 2.914e-10
 57.14377    -50.8 9.318e+03 3.082e-10
 57.17126    -49.0 9.258e+03 3.010e-10
 57.20222    -47.3 9.245e+03 3.073e-10
 57.22403    -47.6 9.211e+03 2.544e-10
 57.25849    -45.6 9.232e+03 2.614e-10
 57.29079    -43.5 9.254e+03 2.514e-10
 57.31260    -43.6 9.103e+03 1.938e-10
 57.34573    -41.7 9.112e+03 1.780e-10
 57.37936    -40.1 9.116e+03 1.697e-10
 57.40117    -40.6 9.080e+03 1.628e-10
 57.43296    -39.3 9.081e+03 1.709e-10
 57.46792    -38.0 8.970e+03 2.183e-10
 57.48973    -38.8 9.078e+03 2.734e-10
 57.52019    -36.8 9.214e+03 3.639e-10
 57.54461    -34.7 9.395e+03 4.239e-10
 57.55910    -34.5 9.529e+03 4.716e-10
 57.57830    -35.1 9.576e+03 4.876e-10
 57.60742    -33.4 9.650e+03 5.079e-10
 57.64506    -31.8 9.545e+03 4.748e-10
 57.66687    -32.7 9.119e+03 3.374e-10
 57.69466    -31.7 9.003e+03 2.979e-10
 57.73362    -31.5 9.157e+03 2.879e-10
 57.75543    -33.1 8.875e+03 2.053e-10
 57.78189    -33.5 9.095e+03 3.038e-10
 57.82219    -33.2 9.405e+03 4.234e-10
 57.84400    -35.3 9.419e+03 4.101e-10
 57.85812    -34.8 9.126e+03 4.822e-10
 57.87718    -34.9 9.557e+03 5.091e-10
 57.88809    -36.9 1.038e+04 6.015e-10
 57.90164    -37.6 1.058e+04 6.551e-10
 57.92147    -38.1 1.038e+04 6.988e-10
 57.93237    -39.4 1.067e+04 8.511e-10
 57.94525    -39.3 1.040e+04 8.128e-10
 57.96575    -40.0 1.049e+04 8.327e-10
 57.97665    -41.0 1.047e+04 8.257e-10
 57.99923    -40.8 1.021e+04 7.113e-10
 58.02113    -43.0 9.878e+03 5.212e-10
 58.04359    -42.4 9.163e+03 3.401e-10
 58.08720    -42.0 8.793e+03 2.532e-10
 58.10970    -41.3 8.536e+03 2.073e-10
 58.13151    -42.5 8.447e+03 1.852e-10
 58.17444    -41.3 8.269e+03 1.689e-10
 58.19827    -40.0 8.092e+03 1.421e-10
 58.22007    -41.6 8.393e+03 1.639e-10
 58.26167    -41.0 8.503e+03 1.726e-10
 58.28683    -41.1 9.081e+03 2.253e-10
 58.30864    -44.3 1.012e+04 4.784e-10
 58.34629    -45.5 1.123e+04 9.452e-10
 58.36810    -44.0 1.138e+04 1.026e-09
 58.37530    -46.3 1.225e+04 1.912e-09
 58.38611    -48.5 1.251e+04 2.180e-09
 58.40323    -49.0 1.326e+04 2.826e-09
 58.41949    -50.1 1.439e+04 3.966e-09
 58.43039    -51.5 1.361e+04 2.813e-09
 58.44684    -52.3 1.385e+04 2.691e-09
 58.46377    -53.3 1.353e+04 2.370e-09
 58.47467    -56.1 1.137e+04 9.424e-10
 58.49046    -58.3 1.055e+04 7.457e-10
 58.50805    -60.4 1.012e+04 6.320e-10
 58.51896    -62.0 9.463e+03 4.549e-10
 58.53407    -62.5 9.385e+03 4.957e-10
 58.55234    -62.5 9.547e+03 5.331e-10
 58.56324    -62.5 9.465e+03 4.703e-10
 58.56832    -62.5 9.514e+03 4.438e-10
 58.57923    -62.2 9.590e+03 4.745e-10
 58.61050    -63.1 9.614e+03 3.846e-10
 58.64110    -64.6 9.522e+03 3.078e-10
 58.66291    -65.6 9.497e+03 3.018e-10
 58.69783    -67.5 9.508e+03 2.858e-10
 58.72967    -69.2 9.633e+03 3.243e-10
 58.75147    -70.5 9.804e+03 3.734e-10
 58.76894    -72.2 1.017e+04 4.576e-10
 58.79075    -70.6 1.010e+04 4.310e-10
 58.81768    -73.2 1.056e+04 5.376e-10
 58.82894    -74.0 1.064e+04 5.619e-10
 58.83985    -75.2 1.083e+04 6.735e-10
 58.86120    -76.5 1.082e+04 7.204e-10
 58.87322    -77.3 1.080e+04 7.493e-10
 58.88413    -78.0 1.083e+04 8.144e-10
 58.90481    -78.6 1.059e+04 7.391e-10
 58.91751    -78.9 1.042e+04 6.496e-10
 58.92841    -79.4 1.031e+04 5.802e-10
 58.95943    -80.0 1.000e+04 4.149e-10
 58.99537    -80.3 9.730e+03 3.052e-10
 59.01717    -81.9 9.605e+03 2.602e-10
 59.04676    -81.7 9.336e+03 1.795e-10
 59.08393    -81.6 9.314e+03 1.358e-10
 59.10574    -83.7 9.908e+03 2.100e-10
 59.13399    -83.5 1.021e+04 2.659e-10
 59.16978    -83.1 1.043e+04 3.528e-10
 59.18648    -83.2 1.107e+04 6.607e-10
 59.19431    -84.5 1.151e+04 1.103e-09
 59.22123    -83.6 1.150e+04 1.150e-09
 59.26107    -82.6 1.133e+04 1.068e-09
 59.28287    -83.6 1.128e+04 1.080e-09
 59.30846    -82.0 1.100e+04 8.724e-10
 59.34963    -80.4 1.075e+04 6.311e-10
 59.37144    -80.7 1.043e+04 4.640e-10
 59.39569    -79.0 1.034e+04 3.795e-10
 59.43820    -77.3 1.031e+04 3.083e-10
 59.46001    -77.4 1.008e+04 2.450e-10
 59.48292    -75.6 1.015e+04 2.304e-10
 59.52654    -73.9 1.023e+04 2.295e-10
 59.54857    -72.6 1.053e+04 2.487e-10
 59.57038    -72.3 1.036e+04 2.234e-10
 59.59243    -71.9 1.080e+04 3.130e-10
 59.61423    -70.5 1.099e+04 2.765e-10
 59.63714    -70.9 1.136e+04 5.721e-10
 59.65895    -70.4 1.116e+04 4.816e-10
 59.70101    -70.0 1.184e+04 1.102e-09
 59.72571    -69.1 1.290e+04 1.879e-09
 59.74752    -69.1 1.254e+04 1.483e-09
 59.76989    -70.2 1.273e+04 1.647e-09
 59.78070    -70.3 1.262e+04 1.511e-09
 59.79265    -70.3 1.275e+04 1.504e-09
 59.80356    -69.9 1.298e+04 1.816e-09
 59.81408    -70.7 1.304e+04 1.586e-09
 59.82498    -70.7 1.299e+04 1.621e-09
 59.84256    -71.6 1.305e+04 1.442e-09
 59.85836    -73.0 1.286e+04 1.299e-09
 59.86927    -73.2 1.292e+04 1.397e-09
 59.88618    -74.0 1.298e+04 1.433e-09
 59.90265    -74.9 1.298e+04 1.538e-09
 59.91355    -75.4 1.319e+04 1.794e-09
 59.92980    -75.7 1.328e+04 1.935e-09
 59.94693    -76.0 1.328e+04 2.000e-09
 59.95783    -76.7 1.347e+04 2.274e-09
 59.97341    -76.8 1.342e+04 2.151e-09
 59.99121    -77.5 1.321e+04 1.932e-09
 59.99997    -78.2 1.330e+04 2.057e-09
 60.00398    -78.4 1.311e+04 1.772e-09
 60.01703    -78.6 1.305e+04 1.578e-09
 60.03550    -79.4 1.271e+04 1.355e-09
 60.04640    -80.3 1.272e+04 1.377e-09
 60.06065    -80.1 1.260e+04 1.278e-09
 60.07988    -79.9 1.236e+04 1.139e-09
 60.10178    -81.2 1.211e+04 9.641e-10
 60.13717    -80.2 1.190e+04 8.270e-10
 60.16844    -79.5 1.164e+04 6.320e-10
 60.19025    -79.7 1.148e+04 5.384e-10
 60.22440    -78.4 1.136e+04 4.432e-10
 60.25711    -76.9 1.120e+04 3.559e-10
 60.27892    -76.9 1.109e+04 3.217e-10
 60.31164    -75.1 1.105e+04 2.865e-10
 60.34567    -73.1 1.105e+04 2.356e-10
 60.36748    -73.1 1.103e+04 2.497e-10
 60.39411    -71.0 1.109e+04 2.096e-10
 60.41592    -70.4 1.108e+04 2.164e-10
 60.43424    -68.3 1.102e+04 1.755e-10
 60.45605    -68.2 1.100e+04 2.114e-10
 60.48610    -66.2 1.099e+04 1.744e-10
 60.52281    -64.3 1.093e+04 1.469e-10
 60.54462    -64.1 1.092e+04 1.653e-10
 60.57333    -62.3 1.088e+04 1.435e-10
 60.61137    -60.5 1.099e+04 1.338e-10
 60.63318    -60.4 1.096e+04 1.357e-10
 60.66057    -59.1 1.091e+04 1.599e-10
 60.69994    -57.3 1.097e+04 2.147e-10
 60.72175    -57.1 1.099e+04 1.917e-10
 60.74780    -54.9 1.093e+04 2.686e-10
 60.78851    -52.5 1.105e+04 3.008e-10
 60.81032    -52.3 1.107e+04 2.803e-10
 60.81676    -50.2 1.113e+04 2.976e-10
 60.83856    -49.7 1.110e+04 2.766e-10
 60.87707    -47.9 1.109e+04 2.835e-10
 60.89888    -47.8 1.127e+04 2.950e-10
 60.92226    -46.5 1.143e+04 3.648e-10
 60.96564    -45.0 1.160e+04 5.048e-10
 60.98745    -45.1 1.182e+04 6.561e-10
 61.00950    -43.9 1.227e+04 9.945e-10
 61.05311    -43.4 1.308e+04 1.695e-09
 61.07592    -44.2 1.362e+04 2.345e-09
 61.08672    -44.6 1.375e+04 2.546e-09
 61.10744    -45.0 1.399e+04 3.197e-09
 61.12010    -45.0 1.424e+04 3.898e-09
 61.13101    -45.2 1.420e+04 3.913e-09
 61.15105    -45.0 1.433e+04 4.185e-09
 61.16439    -45.2 1.461e+04 4.141e-09
 61.17529    -45.6 1.449e+04 3.546e-09
 61.19467    -46.8 1.482e+04 3.765e-09
 61.20867    -47.9 1.488e+04 4.081e-09
 61.21957    -48.4 1.456e+04 3.692e-09
 61.22830    -48.8 1.427e+04 3.932e-09
 61.23921    -48.8 1.399e+04 3.639e-09
 61.25295    -48.7 1.369e+04 3.354e-09
 61.26386    -48.4 1.338e+04 2.722e-09
 61.28190    -48.3 1.322e+04 2.264e-09
 61.29724    -48.6 1.313e+04 1.769e-09
 61.30814    -48.9 1.303e+04 1.355e-09
 61.32552    -49.4 1.283e+04 1.130e-09
 61.34162    -49.7 1.260e+04 9.397e-10
 61.36352    -50.2 1.244e+04 7.683e-10
 61.40204    -51.6 1.260e+04 7.397e-10
 61.43028    -53.6 1.279e+04 1.064e-09
 61.45209    -54.3 1.276e+04 1.369e-09
 61.48928    -53.6 1.290e+04 2.033e-09
 61.51885    -52.7 1.311e+04 2.141e-09
 61.54066    -53.2 1.311e+04 2.025e-09
 61.57651    -53.3 1.319e+04 1.940e-09
 61.60742    -53.5 1.323e+04 2.042e-09
 61.62754    -54.4 1.332e+04 2.226e-09
 61.64024    -54.4 1.326e+04 2.120e-09
 61.66374    -54.2 1.346e+04 2.558e-09
 61.69598    -54.1 1.336e+04 2.475e-09
 61.71779    -54.9 1.352e+04 2.758e-09
 61.75097    -54.0 1.293e+04 1.948e-09
 61.78455    -52.9 1.230e+04 1.034e-09
 61.80636    -53.9 1.232e+04 1.059e-09
 61.83821    -52.9 1.189e+04 5.198e-10
 61.87312    -52.6 1.175e+04 3.072e-10
 61.89492    -53.1 1.165e+04 3.321e-10
 61.92544    -51.9 1.150e+04 3.061e-10
 61.96168    -50.8 1.165e+04 3.397e-10
 61.98349    -51.5 1.174e+04 3.957e-10
 62.01267    -51.9 1.225e+04 7.220e-10
 62.04108    -51.8 1.276e+04 1.641e-09
 62.05685    -51.4 1.276e+04 1.603e-09
 62.07206    -52.3 1.276e+04 1.768e-09
 62.09990    -52.0 1.299e+04 2.237e-09
 62.13882    -50.8 1.251e+04 1.807e-09
 62.16062    -50.5 1.205e+04 1.239e-09
 62.18714    -49.7 1.164e+04 6.125e-10
 62.22738    -50.1 1.149e+04 3.036e-10
 62.24919    -50.7 1.135e+04 2.429e-10
 62.27437    -50.6 1.123e+04 2.090e-10
 62.31595    -50.0 1.111e+04 2.054e-10
 62.33776    -49.8 1.111e+04 2.208e-10
 62.36160    -49.2 1.111e+04 2.144e-10
 62.40452    -48.8 1.108e+04 1.958e-10
 62.42632    -48.8 1.111e+04 2.012e-10
 62.44193    -48.7 1.108e+04 1.710e-10
 62.46373    -48.5 1.108e+04 1.920e-10
 62.49245    -48.4 1.104e+04 1.934e-10
 62.51489    -48.0 1.102e+04 1.995e-10
 62.53670    -48.2 1.103e+04 2.109e-10
 62.57968    -47.8 1.107e+04 2.153e-10
 62.60346    -47.4 1.115e+04 2.218e-10
 62.62527    -47.7 1.115e+04 2.242e-10
 62.66692    -47.3 1.118e+04 2.399e-10
 62.69202    -46.8 1.108e+04 2.564e-10
 62.71383    -46.7 1.101e+04 2.304e-10
 62.75415    -45.8 1.105e+04 2.341e-10
 62.78059    -44.9 1.106e+04 2.310e-10
 62.80240    -44.7 1.105e+04 1.959e-10
 62.84138    -43.5 1.101e+04 1.880e-10
 62.86457    -42.1 1.092e+04 1.745e-10
 62.87054    -42.0 1.088e+04 1.468e-10
 62.89097    -41.6 1.080e+04 1.399e-10
 62.92861    -39.9 1.073e+04 1.267e-10
 62.95772    -38.2 1.072e+04 1.134e-10
 62.97953    -37.6 1.074e+04 1.112e-10
 63.01585    -35.8 1.072e+04 1.068e-10
 63.04629    -34.0 1.075e+04 1.085e-10
 63.06810    -34.0 1.098e+04 1.134e-10
 63.10308    -32.5 1.119e+04 1.391e-10
 63.13486    -30.9 1.130e+04 2.072e-10
 63.15667    -31.2 1.153e+04 3.984e-10
 63.19031    -29.3 1.170e+04 5.694e-10
 63.22342    -27.6 1.201e+04 7.873e-10
 63.24523    -28.6 1.242e+04 1.032e-09
 63.26541    -27.8 1.269e+04 1.245e-09
 63.28722    -27.8 1.239e+04 9.915e-10
 63.31199    -27.1 1.252e+04 1.178e-09
 63.33380    -29.7 1.240e+04 1.157e-09
 63.36478    -28.8 1.262e+04 1.355e-09
 63.39739    -29.2 1.261e+04 1.347e-09
 63.41127    -29.3 1.253e+04 1.284e-09
 63.42217    -31.1 1.243e+04 1.156e-09
 63.44091    -31.9 1.246e+04 1.154e-09
 63.45555    -33.1 1.264e+04 1.212e-09
 63.46645    -34.9 1.261e+04 1.145e-09
 63.47654    -36.3 1.284e+04 1.380e-09
 63.48745    -35.6 1.287e+04 1.455e-09
 63.49983    -36.9 1.302e+04 1.874e-09
 63.51074    -37.8 1.285e+04 1.656e-09
 63.52814    -38.5 1.297e+04 1.891e-09
 63.54412    -39.5 1.319e+04 1.964e-09
 63.55502    -40.3 1.295e+04 1.536e-09
 63.57176    -41.6 1.299e+04 1.471e-09
 63.58840    -43.1 1.287e+04 1.367e-09
 63.59930    -43.7 1.267e+04 1.084e-09
 63.61538    -45.0 1.239e+04 1.013e-09
 63.63268    -45.9 1.211e+04 9.711e-10
 63.64359    -46.2 1.195e+04 8.032e-10
 63.65899    -46.6 1.190e+04 8.075e-10
 63.67696    -47.0 1.196e+04 8.338e-10
 63.68787    -47.2 1.189e+04 7.635e-10
 63.70261    -47.7 1.207e+04 8.125e-10
 63.72125    -48.8 1.244e+04 9.837e-10
 63.73215    -49.2 1.231e+04 8.862e-10
 63.74623    -50.5 1.267e+04 1.275e-09
 63.76553    -52.0 1.327e+04 2.105e-09
 63.77644    -52.7 1.319e+04 2.013e-09
 63.78984    -53.9 1.366e+04 3.534e-09
 63.80982    -54.3 1.427e+04 5.169e-09
 63.82072    -54.5 1.396e+04 4.690e-09
 63.83346    -54.5 1.423e+04 4.861e-09
 63.85410    -54.7 1.429e+04 4.488e-09
 63.86500    -54.8 1.388e+04 3.764e-09
 63.87707    -55.4 1.370e+04 2.903e-09
 63.88829    -56.3 1.310e+04 2.046e-09
 63.89869    -56.2 1.329e+04 2.683e-09
 63.90929    -56.0 1.292e+04 2.475e-09
 63.92069    -56.6 1.254e+04 1.716e-09
 63.94250    -57.1 1.236e+04 1.324e-09
 63.95357    -57.1 1.207e+04 1.024e-09
 63.97548    -56.1 1.194e+04 9.853e-10
 63.99795    -56.3 1.196e+04 9.206e-10
 64.00876    -55.4 1.189e+04 9.163e-10
 64.02973    -54.7 1.172e+04 8.058e-10
 64.04214    -54.0 1.171e+04 7.731e-10
 64.05304    -53.3 1.163e+04 7.497e-10
 64.07335    -52.7 1.172e+04 7.700e-10
 64.08642    -52.4 1.198e+04 8.720e-10
 64.09088    -51.6 1.188e+04 8.298e-10
 64.09961    -51.8 1.201e+04 8.907e-10
 64.11696    -51.4 1.227e+04 1.117e-09
 64.13070    -50.9 1.255e+04 1.515e-09
 64.14161    -50.0 1.242e+04 1.405e-09
 64.16058    -49.3 1.289e+04 1.969e-09
 64.17499    -49.0 1.365e+04 2.942e-09
 64.18589    -48.0 1.342e+04 2.584e-09
 64.20420    -47.9 1.435e+04 3.987e-09
 64.21927    -47.9 1.524e+04 6.152e-09
 64.23017    -47.0 1.507e+04 5.518e-09
 64.24781    -47.0 1.588e+04 8.302e-09
 64.26355    -47.1 1.644e+04 1.091e-08
 64.27446    -46.2 1.648e+04 1.109e-08
 64.28913    -46.2 1.699e+04 1.302e-08
 64.30003    -46.1 1.757e+04 1.553e-08
 64.30784    -46.1 1.759e+04 1.507e-08
 64.31874    -45.1 1.825e+04 1.925e-08
 64.33505    -44.9 1.798e+04 1.672e-08
 64.35212    -44.7 1.713e+04 1.052e-08
 64.36302    -44.1 1.801e+04 1.556e-08
 64.37866    -44.3 1.701e+04 9.024e-09
 64.39640    -45.0 1.591e+04 4.118e-09
 64.40731    -44.6 1.692e+04 8.092e-09
 64.42228    -45.5 1.611e+04 4.135e-09
 64.44069    -46.9 1.539e+04 1.873e-09
 64.45159    -46.0 1.638e+04 4.904e-09
 64.46589    -47.0 1.554e+04 2.550e-09
 64.48497    -47.9 1.422e+04 1.592e-09
 64.49587    -47.1 1.581e+04 3.505e-09
 64.50045    -48.6 1.416e+04 2.254e-09
 64.51136    -47.8 1.591e+04 4.125e-09
 64.52925    -50.0 1.374e+04 2.376e-09
 64.54016    -48.9 1.578e+04 4.833e-09
 64.55313    -50.7 1.396e+04 3.101e-09
 64.57354    -51.1 1.336e+04 2.574e-09
 64.58444    -51.1 1.396e+04 3.400e-09
 64.59674    -51.1 1.329e+04 2.747e-09
 64.62955    -51.3 1.307e+04 2.091e-09
 64.66230    -51.2 1.241e+04 1.267e-09
 64.68411    -51.8 1.270e+04 1.441e-09
 64.71688    -51.7 1.214e+04 1.175e-09
 64.75087    -51.3 1.209e+04 1.239e-09
 64.77267    -51.6 1.228e+04 1.359e-09
 64.80412    -50.7 1.224e+04 1.406e-09
 64.83943    -49.5 1.217e+04 1.312e-09
 64.86124    -49.7 1.222e+04 1.346e-09
 64.89058    -48.7 1.211e+04 1.088e-09
 64.91239    -49.7 1.215e+04 1.032e-09
 64.92800    -49.2 1.196e+04 8.255e-10
 64.94981    -48.9 1.185e+04 6.872e-10
 64.97858    -48.2 1.183e+04 6.879e-10
 65.01657    -47.5 1.188e+04 7.896e-10
 65.03837    -47.2 1.185e+04 6.651e-10
 65.06581    -46.4 1.196e+04 8.666e-10
 65.10513    -45.4 1.201e+04 1.007e-09
 65.12694    -45.3 1.213e+04 1.058e-09
 65.15305    -44.6 1.232e+04 1.224e-09
 65.19370    -44.3 1.242e+04 1.240e-09
 65.21551    -44.4 1.278e+04 1.594e-09
 65.24028    -44.1 1.273e+04 1.533e-09
 65.28227    -43.5 1.249e+04 1.250e-09
 65.30407    -43.6 1.260e+04 1.453e-09
 65.31323    -42.8 1.223e+04 1.030e-09
 65.33504    -44.0 1.207e+04 8.683e-10
 65.37083    -43.0 1.169e+04 5.717e-10
 65.39264    -42.9 1.167e+04 5.284e-10
 65.41475    -41.4 1.141e+04 3.688e-10
 65.45836    -39.6 1.126e+04 2.635e-10
 65.48121    -38.0 1.116e+04 2.033e-10
 65.50302    -37.8 1.114e+04 2.009e-10
 65.54559    -36.0 1.099e+04 1.887e-10
 65.56977    -34.0 1.098e+04 1.907e-10
 65.59158    -33.7 1.098e+04 1.902e-10
 65.63283    -31.6 1.098e+04 1.976e-10
 65.65834    -29.5 1.097e+04 2.112e-10
 65.68015    -29.1 1.099e+04 2.022e-10
 65.71407    -26.9 1.100e+04 2.075e-10
 65.73588    -27.2 1.096e+04 1.848e-10
 65.74691    -25.1 1.095e+04 1.845e-10
 65.76872    -24.4 1.088e+04 1.746e-10
 65.80729    -22.3 1.087e+04 1.738e-10
 65.83547    -20.2 1.089e+04 1.723e-10
 65.85728    -19.7 1.090e+04 1.717e-10
 65.89452    -18.0 1.105e+04 1.770e-10
 65.92404    -16.7 1.123e+04 2.100e-10
 65.94585    -16.7 1.144e+04 3.514e-10
 65.98176    -15.3 1.161e+04 5.340e-10
 66.01261    -13.8 1.170e+04 7.260e-10
 66.03442    -13.7 1.194e+04 1.118e-09
 66.06899    -12.6 1.184e+04 1.107e-09
 66.10117    -11.4 1.160e+04 9.601e-10
 66.12298    -11.5 1.159e+04 9.747e-10
 66.13672     -9.9 1.113e+04 7.272e-10
 66.15853    -10.3 1.085e+04 5.130e-10
 66.18974     -8.8 1.060e+04 3.121e-10
 66.21155     -8.7 1.047e+04 2.062e-10
 66.24346     -7.7 1.038e+04 1.399e-10
 66.27831     -6.5 1.020e+04 1.177e-10
 66.30012     -6.4 9.985e+03 1.088e-10
 66.33069     -4.9 9.962e+03 1.116e-10
 66.36687     -3.3 9.964e+03 1.220e-10
 66.38868     -2.9 9.888e+03 1.272e-10
 66.41792     -1.3 9.928e+03 1.582e-10
 66.45544      0.3 1.001e+04 2.033e-10
 66.47725      0.8 9.963e+03 2.080e-10
 66.50515      2.4 1.009e+04 2.571e-10
 66.53756      4.1 1.014e+04 3.029e-10
 66.55461      4.1 1.009e+04 2.765e-10
 66.56582      4.8 9.947e+03 2.365e-10
 66.59239      6.3 9.959e+03 2.309e-10
 66.63257      7.7 9.983e+03 2.222e-10
 66.65438      8.3 9.924e+03 1.835e-10
 66.67962      9.6 9.945e+03 1.867e-10
 66.72114     10.8 9.989e+03 1.955e-10
 66.74295     11.5 9.927e+03 1.840e-10
 66.76685     12.8 9.972e+03 2.041e-10
 66.80971     14.1 1.007e+04 2.166e-10
 66.83152     14.9 1.004e+04 2.188e-10
 66.85408     16.1 1.009e+04 2.193e-10
 66.89770     17.4 1.010e+04 2.167e-10
 66.92008     18.6 1.011e+04 2.066e-10
 66.93898     19.3 1.014e+04 2.118e-10
 66.96021     19.2 1.024e+04 2.597e-10
 66.98493     20.3 1.027e+04 2.407e-10
 67.00865     21.4 1.027e+04 2.120e-10
 67.03046     21.9 1.029e+04 2.247e-10
 67.07217     22.9 1.025e+04 2.050e-10
 67.09722     24.0 1.024e+04 2.035e-10
 67.11902     24.4 1.021e+04 2.111e-10
 67.15940     25.5 1.024e+04 2.149e-10
 67.18578     26.3 1.034e+04 2.325e-10
 67.20759     26.5 1.032e+04 2.346e-10
 67.24663     26.8 1.052e+04 3.095e-10
 67.27435     26.8 1.096e+04 5.450e-10
 67.29616     26.6 1.106e+04 5.890e-10
 67.33386     26.3 1.168e+04 9.890e-10
 67.36095     25.1 1.233e+04 1.466e-09
 67.36810     25.6 1.198e+04 1.169e-09
 67.37363     25.1 1.209e+04 1.231e-09
 67.38819     23.8 1.275e+04 1.924e-09
 67.40700     22.6 1.337e+04 2.948e-09
 67.41791     22.2 1.331e+04 3.049e-09
 67.43180     21.3 1.380e+04 3.489e-09
 67.45129     20.0 1.388e+04 3.457e-09
 67.46219     19.5 1.378e+04 3.158e-09
 67.47542     17.9 1.372e+04 2.780e-09
 67.50823     16.0 1.345e+04 2.338e-09
 67.54005     13.8 1.290e+04 1.577e-09
 67.56186     13.2 1.288e+04 1.513e-09
 67.59556     10.9 1.241e+04 1.110e-09
 67.62862      9.8 1.213e+04 9.312e-10
 67.65042      9.3 1.217e+04 9.907e-10
 67.68279      9.0 1.202e+04 8.243e-10
 67.71718      8.9 1.190e+04 6.663e-10
 67.73899      8.2 1.195e+04 6.637e-10
 67.76189      8.0 1.190e+04 5.316e-10
 67.78370      8.8 1.186e+04 6.061e-10
 67.80575      9.0 1.177e+04 4.806e-10
 67.82756      8.4 1.184e+04 4.940e-10
 67.85726      8.9 1.182e+04 4.095e-10
 67.89432      9.1 1.190e+04 4.223e-10
 67.91612      8.0 1.259e+04 4.816e-10
 67.94449      6.1 1.393e+04 7.070e-10
 67.97312      3.0 1.510e+04 1.718e-09
 67.98392      4.9 1.458e+04 9.331e-10
 67.99359      3.4 1.507e+04 1.647e-09
 68.00450      2.5 1.551e+04 3.322e-09
 68.02063      2.6 1.582e+04 6.800e-09
 68.03788      3.3 1.601e+04 1.019e-08
 68.04878      3.7 1.636e+04 1.303e-08
 68.06424      4.4 1.624e+04 1.246e-08
 68.08216      5.3 1.586e+04 1.028e-08
 68.09306      5.8 1.581e+04 8.488e-09
 68.10786      6.0 1.526e+04 4.505e-09
 68.12644      4.8 1.459e+04 2.107e-09
 68.13735      3.5 1.410e+04 1.382e-09
 68.15147      1.4 1.269e+04 7.577e-10
 68.17073      0.4 1.182e+04 5.786e-10
 68.18163      0.5 1.163e+04 5.642e-10
 68.18434      0.9 1.152e+04 5.097e-10
 68.19525      1.4 1.164e+04 5.810e-10
 68.21501      1.6 1.162e+04 5.561e-10
 68.22591      1.9 1.162e+04 5.575e-10
 68.23871      2.8 1.162e+04 5.563e-10
 68.25929      3.1 1.164e+04 5.627e-10
 68.27029      3.3 1.165e+04 5.736e-10
 68.29342      5.3 1.143e+04 4.268e-10
 68.33704      6.9 1.126e+04 3.019e-10
 68.38066      9.0 1.115e+04 2.356e-10
 68.42427     10.6 1.106e+04 2.207e-10
 68.44752     12.5 1.103e+04 2.237e-10
 68.46933     13.3 1.107e+04 2.375e-10
 68.51150     15.2 1.105e+04 2.394e-10
 68.53609     17.0 1.102e+04 2.374e-10
 68.55790     17.8 1.104e+04 2.418e-10
 68.58538     19.5 1.099e+04 2.316e-10
 68.60719     19.7 1.100e+04 2.518e-10
 68.62466     21.3 1.094e+04 2.385e-10
 68.64647     21.9 1.101e+04 2.411e-10
 68.68597     23.5 1.097e+04 2.300e-10
 68.71322     24.9 1.096e+04 2.254e-10
 68.73503     25.5 1.101e+04 2.394e-10
 68.77320     27.0 1.098e+04 2.352e-10
 68.80179     28.4 1.094e+04 2.337e-10
 68.82360     29.0 1.093e+04 2.404e-10
 68.86043     30.5 1.089e+04 2.403e-10
 68.89036     31.9 1.087e+04 2.436e-10
 68.91217     32.6 1.083e+04 2.459e-10
 68.94767     34.0 1.080e+04 2.580e-10
 68.97892     35.3 1.082e+04 2.867e-10
 68.99567     36.0 1.081e+04 2.978e-10
 69.00803     36.1 1.081e+04 3.190e-10
 69.03490     37.4 1.094e+04 3.748e-10
 69.06749     38.6 1.116e+04 4.601e-10
 69.08930     39.5 1.121e+04 4.922e-10
 69.12213     40.7 1.146e+04 6.256e-10
 69.15606     41.5 1.162e+04 7.580e-10
 69.17787     42.1 1.165e+04 8.025e-10
 69.19745     42.2 1.169e+04 9.153e-10
 69.20825     42.2 1.177e+04 9.638e-10
 69.21105     42.7 1.197e+04 1.161e-09
 69.22195     43.1 1.206e+04 1.260e-09
 69.24188     43.5 1.227e+04 1.431e-09
 69.25533     43.7 1.241e+04 1.541e-09
 69.26624     44.0 1.249e+04 1.683e-09
 69.29650     44.1 1.258e+04 1.705e-09
 69.33319     43.8 1.272e+04 1.805e-09
 69.35500     44.6 1.301e+04 2.292e-09
 69.38383     44.4 1.298e+04 2.205e-09
 69.40887     44.4 1.275e+04 1.846e-09
 69.42499     44.0 1.319e+04 2.568e-09
 69.44357     44.7 1.334e+04 2.763e-09
 69.47106     44.9 1.290e+04 2.165e-09
 69.51032     45.2 1.259e+04 1.808e-09
 69.53213     45.8 1.266e+04 1.884e-09
 69.55830     46.1 1.267e+04 1.883e-09
 69.59889     46.3 1.282e+04 1.997e-09
 69.62070     46.6 1.298e+04 2.299e-09
 69.64553     46.4 1.326e+04 2.521e-09
 69.68746     45.9 1.325e+04 2.457e-09
 69.70927     46.0 1.331e+04 2.684e-09
 69.73276     45.8 1.297e+04 2.076e-09
 69.77602     46.2 1.231e+04 1.181e-09
 69.79783     46.7 1.208e+04 9.902e-10
 69.80971     47.0 1.129e+04 4.248e-10
 69.83152     46.4 1.115e+04 3.846e-10
 69.86361     46.8 1.083e+04 2.663e-10
 69.88640     48.0 1.081e+04 2.659e-10
 69.90821     48.5 1.078e+04 2.850e-10
 69.95084     50.2 1.082e+04 3.053e-10
 69.97497     51.9 1.093e+04 3.613e-10
 69.99677     52.2 1.093e+04 3.828e-10
 70.03808     53.6 1.107e+04 4.751e-10
 70.06353     55.2 1.129e+04 6.042e-10
 70.08534     55.2 1.129e+04 6.038e-10
 70.12531     55.8 1.151e+04 7.282e-10
 70.15200     55.7 1.154e+04 7.646e-10
 70.17381     55.5 1.150e+04 6.976e-10
 70.19629     55.5 1.145e+04 7.536e-10
 70.20709     55.2 1.145e+04 7.020e-10
 70.22126     55.2 1.142e+04 7.068e-10
 70.23216     55.7 1.140e+04 7.237e-10
 70.24047     55.6 1.134e+04 7.539e-10
 70.26238     55.3 1.139e+04 6.985e-10
 70.28485     55.0 1.137e+04 7.777e-10
 70.29566     54.9 1.139e+04 7.399e-10
 70.31048     54.8 1.140e+04 7.697e-10
 70.32904     54.7 1.148e+04 7.852e-10
 70.35094     54.9 1.150e+04 7.602e-10
 70.38701     55.0 1.152e+04 7.216e-10
 70.41780     55.2 1.148e+04 6.297e-10
 70.43961     56.1 1.134e+04 5.824e-10
 70.47424     56.6 1.132e+04 5.521e-10
 70.50637     57.4 1.135e+04 5.728e-10
 70.52817     58.1 1.124e+04 5.260e-10
 70.56147     59.0 1.136e+04 6.225e-10
 70.59493     59.6 1.149e+04 7.940e-10
 70.61674     60.2 1.139e+04 7.067e-10
 70.63320     61.4 1.162e+04 9.733e-10
 70.64400     60.7 1.145e+04 8.920e-10
 70.64993     61.3 1.164e+04 1.101e-09
 70.66083     61.2 1.155e+04 1.028e-09
 70.68122     61.9 1.200e+04 1.403e-09
 70.69421     62.1 1.239e+04 1.763e-09
 70.70511     62.2 1.222e+04 1.695e-09
 70.72484     62.3 1.263e+04 2.152e-09
 70.73849     62.2 1.303e+04 2.732e-09
 70.74940     62.4 1.280e+04 2.674e-09
 70.76845     62.3 1.325e+04 3.480e-09
 70.78278     62.1 1.385e+04 4.762e-09
 70.79368     62.4 1.349e+04 4.120e-09
 70.81207     62.2 1.412e+04 5.497e-09
 70.82706     61.8 1.469e+04 6.521e-09
 70.83751     62.1 1.421e+04 5.253e-09
 70.84432     61.6 1.401e+04 4.772e-09
 70.85569     60.9 1.425e+04 4.935e-09
 70.87134     60.2 1.424e+04 4.774e-09
 70.88225     60.1 1.382e+04 3.835e-09
 70.91030     59.5 1.355e+04 3.170e-09
 70.94920     59.1 1.298e+04 2.012e-09
 70.97101     59.7 1.266e+04 1.882e-09
 70.99763     60.1 1.201e+04 9.955e-10
 71.03404     60.8 1.132e+04 4.265e-10
 71.05236     60.4 1.148e+04 6.341e-10
 71.05957     61.4 1.130e+04 6.143e-10
 71.08487     62.5 1.093e+04 2.656e-10
 71.12633     63.4 1.074e+04 1.267e-10
 71.14814     64.5 1.076e+04 1.286e-10
 71.17210     65.6 1.052e+04 9.754e-11
 71.21490     67.0 1.040e+04 9.421e-11
 71.23671     68.1 1.040e+04 9.321e-11
 71.25933     69.8 1.037e+04 9.223e-11
 71.30295     71.7 1.036e+04 9.200e-11
 71.32527     73.5 1.037e+04 9.232e-11
 71.34708     74.5 1.038e+04 9.239e-11
 71.39018     76.2 1.040e+04 9.438e-11
 71.41384     77.9 1.044e+04 9.935e-11
 71.43565     78.8 1.048e+04 9.991e-11
 71.45668     80.4 1.052e+04 1.081e-10
 71.47849     80.1 1.057e+04 1.172e-10
 71.50241     81.6 1.063e+04 1.369e-10
 71.52422     82.4 1.068e+04 1.514e-10
 71.56465     83.8 1.076e+04 1.826e-10
 71.59097     85.3 1.083e+04 2.225e-10
 71.61278     86.1 1.086e+04 2.359e-10
 71.65188     87.5 1.091e+04 2.877e-10
 71.67954     89.0 1.095e+04 3.480e-10
 71.70135     89.5 1.095e+04 3.548e-10
 71.73911     90.9 1.097e+04 4.263e-10
 71.76811     92.2 1.102e+04 5.017e-10
 71.78992     92.7 1.098e+04 4.984e-10
 71.82634     93.9 1.104e+04 5.440e-10
 71.85667     95.0 1.110e+04 5.670e-10
 71.86605     95.5 1.098e+04 4.395e-10
 71.87933     95.0 1.102e+04 4.517e-10
 71.91358     95.8 1.104e+04 4.446e-10
 71.94524     96.4 1.105e+04 4.188e-10
 71.96705     96.9 1.098e+04 3.536e-10
 72.00081     97.6 1.095e+04 3.193e-10
 72.03381     98.3 1.089e+04 2.853e-10
 72.05562     99.2 1.084e+04 2.385e-10
 72.08804    100.2 1.081e+04 2.220e-10
 72.12237    101.2 1.081e+04 2.220e-10
 72.14418    102.2 1.077e+04 1.837e-10
 72.17528    103.2 1.079e+04 1.886e-10
 72.21094    104.1 1.083e+04 2.046e-10
 72.23275    105.2 1.078e+04 1.869e-10
 72.25837    106.1 1.083e+04 2.210e-10
 72.28017    106.0 1.086e+04 2.646e-10
 72.29951    106.9 1.093e+04 3.322e-10
 72.32132    108.2 1.093e+04 3.297e-10
 72.34974    109.0 1.102e+04 3.981e-10
 72.38807    109.6 1.112e+04 4.530e-10
 72.40988    110.8 1.119e+04 4.626e-10
 72.43697    111.2 1.126e+04 4.871e-10
 72.47664    111.6 1.132e+04 4.994e-10
 72.49845    112.5 1.144e+04 5.324e-10
 72.52421    112.8 1.152e+04 5.580e-10
 72.56521    113.0 1.165e+04 6.332e-10
 72.58702    113.6 1.173e+04 7.187e-10
 72.60044    113.2 1.179e+04 8.005e-10
 72.62020    113.1 1.188e+04 9.592e-10
 72.63110    113.4 1.196e+04 1.082e-09
 72.64396    113.4 1.217e+04 1.345e-09
 72.66448    113.3 1.239e+04 1.627e-09
 72.67539    113.7 1.251e+04 1.747e-09
 72.68092    113.8 1.282e+04 2.101e-09
 72.70282    112.7 1.276e+04 1.997e-09
 72.74229    111.8 1.288e+04 2.058e-09
 72.78590    110.7 1.283e+04 1.917e-09
 72.82952    109.1 1.260e+04 1.547e-09
 72.85272    107.6 1.224e+04 1.069e-09
 72.87452    108.2 1.219e+04 1.002e-09
 72.91675    107.1 1.176e+04 6.306e-10
 72.94128    106.3 1.141e+04 4.342e-10
 72.96309    107.5 1.138e+04 4.184e-10
 73.00399    107.5 1.119e+04 3.337e-10
 73.02985    107.7 1.110e+04 2.971e-10
 73.05166    108.9 1.110e+04 2.813e-10
 73.08185    109.2 1.103e+04 2.528e-10
 73.10366    108.6 1.109e+04 2.377e-10
 73.11842    109.0 1.100e+04 2.272e-10
 73.14022    110.1 1.097e+04 2.224e-10
 73.17845    110.7 1.095e+04 2.228e-10
 73.20698    111.4 1.092e+04 2.273e-10
 73.22879    112.5 1.093e+04 2.117e-10
 73.26568    113.1 1.091e+04 2.080e-10
 73.29555    113.8 1.087e+04 2.018e-10
 73.31736    114.9 1.084e+04 1.703e-10
 73.35292    115.5 1.080e+04 1.648e-10
 73.38412    116.3 1.080e+04 1.649e-10
 73.40592    117.3 1.079e+04 1.420e-10
 73.44015    118.1 1.078e+04 1.468e-10
 73.47268    118.9 1.079e+04 1.594e-10
 73.49342    120.1 1.073e+04 1.455e-10
 73.50450    120.0 1.068e+04 1.346e-10
 73.52738    121.0 1.068e+04 1.436e-10
 73.56125    122.1 1.069e+04 1.518e-10
 73.58306    123.4 1.066e+04 1.329e-10
 73.61461    124.6 1.065e+04 1.351e-10
 73.64982    125.8 1.065e+04 1.362e-10
 73.67162    127.2 1.065e+04 1.167e-10
 73.70185    128.5 1.066e+04 1.165e-10
 73.73838    129.8 1.069e+04 1.171e-10
 73.76019    131.2 1.069e+04 1.032e-10
 73.78908    132.5 1.073e+04 1.048e-10
 73.82695    133.8 1.077e+04 1.101e-10
 73.84876    135.2 1.072e+04 1.051e-10
 73.87631    136.5 1.077e+04 1.163e-10
 73.90534    137.7 1.083e+04 1.325e-10
 73.92274    137.7 1.075e+04 1.337e-10
 73.93732    139.2 1.074e+04 1.359e-10
 73.96354    140.4 1.083e+04 1.637e-10
 74.00408    141.4 1.092e+04 1.994e-10
 74.02589    142.9 1.091e+04 2.243e-10
 74.05078    143.7 1.103e+04 2.692e-10
 74.09265    144.3 1.111e+04 3.093e-10
 74.11446    145.7 1.116e+04 3.534e-10
 74.13801    146.1 1.120e+04 3.895e-10
 74.18122    146.4 1.119e+04 4.188e-10
 74.20302    147.5 1.127e+04 4.961e-10
 74.22524    147.7 1.127e+04 5.406e-10
 74.26886    147.8 1.130e+04 6.103e-10
 74.29159    147.8 1.142e+04 7.163e-10
 74.30711    148.9 1.154e+04 7.882e-10
 74.32789    149.0 1.164e+04 9.210e-10
 74.33568    148.9 1.175e+04 9.963e-10
 74.34658    149.1 1.172e+04 9.918e-10
 74.36680    148.9 1.184e+04 1.052e-09
 74.37996    148.7 1.196e+04 1.076e-09
 74.39087    148.9 1.189e+04 1.043e-09
 74.41042    148.5 1.190e+04 1.030e-09
 74.42425    148.1 1.191e+04 9.654e-10
 74.43515    148.3 1.187e+04 8.990e-10
 74.45403    147.8 1.184e+04 8.197e-10
 74.46853    147.3 1.178e+04 7.375e-10
 74.47943    147.4 1.176e+04 7.221e-10
 74.49765    147.0 1.168e+04 6.682e-10
 74.53046    146.7 1.167e+04 7.102e-10
 74.55729    146.5 1.162e+04 7.065e-10
 74.57910    147.2 1.150e+04 6.882e-10
 74.61779    147.2 1.139e+04 6.533e-10
 74.64586    147.2 1.129e+04 5.948e-10
 74.66767    147.8 1.117e+04 5.229e-10
 74.70502    147.9 1.103e+04 4.169e-10
 74.72883    148.0 1.093e+04 3.357e-10
 74.73643    147.8 1.094e+04 3.604e-10
 74.75623    148.3 1.078e+04 2.830e-10
 74.79225    148.8 1.074e+04 2.689e-10
 74.82299    149.4 1.074e+04 2.674e-10
 74.84480    150.7 1.068e+04 2.626e-10
 74.87949    151.5 1.069e+04 2.670e-10
 74.91156    152.3 1.071e+04 2.792e-10
 74.93337    153.8 1.071e+04 2.868e-10
 74.96672    154.5 1.075e+04 3.066e-10
 75.00012    155.1 1.078e+04 3.264e-10
 75.02193    156.5 1.084e+04 3.370e-10
 75.05395    157.0 1.089e+04 3.489e-10
 75.08869    157.3 1.094e+04 3.621e-10
 75.11050    158.7 1.096e+04 3.559e-10
 75.12967    158.8 1.101e+04 3.760e-10
 75.15148    159.1 1.096e+04 3.591e-10
 75.17726    159.1 1.106e+04 3.922e-10
 75.19907    160.5 1.102e+04 3.833e-10
 75.22842    160.2 1.120e+04 4.656e-10
 75.26582    159.5 1.151e+04 6.432e-10
 75.28763    161.0 1.142e+04 5.781e-10
 75.31565    159.9 1.178e+04 7.658e-10
 75.35439    158.4 1.213e+04 8.588e-10
 75.37620    160.0 1.205e+04 7.728e-10
 75.40288    158.2 1.211e+04 7.592e-10
 75.44296    156.2 1.213e+04 6.868e-10
 75.46477    157.9 1.213e+04 6.743e-10
 75.49012    156.1 1.209e+04 5.290e-10
 75.53051    154.2 1.196e+04 3.921e-10
 75.55011    154.2 1.207e+04 5.029e-10
 75.55333    155.4 1.218e+04 6.684e-10
 75.57735    153.7 1.201e+04 5.910e-10
 75.62009    152.4 1.186e+04 5.400e-10
 75.64190    153.6 1.214e+04 7.895e-10
 75.66458    152.4 1.208e+04 6.917e-10
 75.70820    151.4 1.199e+04 6.072e-10
 75.73047    150.5 1.187e+04 5.496e-10
 75.75227    151.1 1.236e+04 6.982e-10
 75.79543    150.2 1.218e+04 5.974e-10
 75.81903    149.4 1.200e+04 5.370e-10
 75.84084    149.7 1.233e+04 6.913e-10
 75.88266    149.2 1.213e+04 5.502e-10
 75.90760    148.7 1.196e+04 4.234e-10
 75.92941    149.4 1.196e+04 5.987e-10
 75.95316    148.9 1.178e+04 4.276e-10
 75.97497    148.0 1.180e+04 4.430e-10
 75.99617    147.4 1.154e+04 3.075e-10
 76.01797    148.6 1.173e+04 4.295e-10
 76.05713    148.4 1.142e+04 3.489e-10
 76.08473    148.6 1.131e+04 3.418e-10
 76.10654    149.6 1.154e+04 3.742e-10
 76.14436    149.8 1.153e+04 3.717e-10
 76.17330    150.4 1.155e+04 3.902e-10
 76.19511    150.9 1.159e+04 4.071e-10
 76.23159    151.4 1.168e+04 4.665e-10
 76.26187    151.6 1.182e+04 5.516e-10
 76.28367    151.8 1.185e+04 5.278e-10
 76.30605    151.7 1.200e+04 6.281e-10
 76.31686    151.7 1.197e+04 6.090e-10
 76.32953    151.6 1.211e+04 7.547e-10
 76.35024    151.5 1.234e+04 1.010e-09
 76.36114    151.3 1.226e+04 9.499e-10
 76.36471    151.3 1.253e+04 1.257e-09
 76.37561    151.1 1.235e+04 1.147e-09
 76.39452    151.1 1.275e+04 1.595e-09
 76.40543    151.0 1.264e+04 1.515e-09
 76.41677    151.0 1.302e+04 1.988e-09
 76.43858    151.0 1.344e+04 2.314e-09
 76.44971    151.0 1.389e+04 2.311e-09
 76.46061    150.8 1.395e+04 2.556e-09
 76.48219    150.6 1.420e+04 2.503e-09
 76.49399    149.9 1.432e+04 2.378e-09
 76.50490    149.6 1.464e+04 2.631e-09
 76.52581    148.7 1.475e+04 2.429e-09
 76.53828    147.6 1.471e+04 2.271e-09
 76.54918    148.0 1.424e+04 2.919e-09
 76.56513    147.0 1.420e+04 2.778e-09
 76.57603    147.0 1.510e+04 4.968e-09
 76.58256    145.6 1.519e+04 4.950e-09
 76.59346    146.3 1.493e+04 5.236e-09
 76.61304    144.7 1.505e+04 5.323e-09
 76.62684    142.9 1.551e+04 6.105e-09
 76.63775    143.6 1.532e+04 4.784e-09
 76.65666    141.7 1.576e+04 6.839e-09
 76.67113    140.0 1.677e+04 1.066e-08
 76.68203    140.0 1.595e+04 8.057e-09
 76.70027    138.2 1.695e+04 1.331e-08
 76.71541    136.3 1.830e+04 1.677e-08
 76.72631    135.5 1.750e+04 1.757e-08
 76.74389    133.3 1.855e+04 1.983e-08
 76.75969    130.3 1.870e+04 1.852e-08
 76.77045    130.4 1.821e+04 2.079e-08
 76.77645    130.4 1.776e+04 1.642e-08
 76.78751    127.9 1.772e+04 1.341e-08
 76.80398    125.3 1.734e+04 7.820e-09
 76.81488    126.4 1.704e+04 9.186e-09
 76.83112    123.8 1.634e+04 4.283e-09
 76.84826    119.5 1.512e+04 1.895e-09
 76.85916    120.3 1.549e+04 1.777e-09
 76.87474    116.0 1.386e+04 1.407e-09
 76.89254    113.0 1.309e+04 1.232e-09
 76.90345    113.4 1.322e+04 1.181e-09
 76.92936    111.5 1.301e+04 1.169e-09
 76.97040    109.8 1.268e+04 1.049e-09
 76.99221    110.4 1.291e+04 1.161e-09
 77.01669    109.8 1.263e+04 9.433e-10
 77.05897    109.5 1.239e+04 7.083e-10
 77.08077    110.6 1.257e+04 8.150e-10
 77.10392    110.5 1.226e+04 5.886e-10
 77.14753    110.3 1.192e+04 5.414e-10
 77.17749    111.8 1.207e+04 6.015e-10
 77.19930    112.1 1.223e+04 5.205e-10
 77.23477    112.1 1.206e+04 5.599e-10
 77.25791    112.2 1.196e+04 6.307e-10
 77.27972    113.6 1.243e+04 8.028e-10
 77.32200    113.5 1.229e+04 7.935e-10
 77.34647    113.3 1.212e+04 7.545e-10
 77.36828    114.0 1.260e+04 9.755e-10
 77.40923    114.2 1.226e+04 8.203e-10
 77.43504    114.5 1.186e+04 5.957e-10
 77.45685    115.6 1.204e+04 6.500e-10
 77.49647    115.9 1.151e+04 3.771e-10
 77.52361    116.0 1.101e+04 2.072e-10
 77.54542    116.8 1.098e+04 1.896e-10
 77.57833    116.7 1.024e+04 1.461e-10
 77.60014    117.4 1.029e+04 1.235e-10
 77.61217    117.7 1.004e+04 1.191e-10
 77.63398    118.8 1.012e+04 1.231e-10
 77.67093    119.4 1.007e+04 1.242e-10
 77.70074    120.5 9.978e+03 1.408e-10
 77.72255    121.3 1.008e+04 1.552e-10
 77.75816    122.3 1.011e+04 2.091e-10
 77.78931    123.2 1.031e+04 2.920e-10
 77.81112    124.1 1.039e+04 3.571e-10
 77.84540    125.1 1.064e+04 4.703e-10
 77.87787    125.8 1.083e+04 5.099e-10
 77.89968    126.5 1.079e+04 5.051e-10
 77.93263    126.9 1.078e+04 4.943e-10
 77.96644    127.4 1.074e+04 4.790e-10
 77.98825    128.2 1.038e+04 3.738e-10
 78.00098    128.8 1.037e+04 3.733e-10
 78.02279    129.9 1.027e+04 3.428e-10
 78.05501    130.5 1.030e+04 3.494e-10
 78.07682    131.3 9.951e+03 2.244e-10
 78.10710    131.9 1.006e+04 2.525e-10
 78.14357    132.4 1.026e+04 2.971e-10
 78.16538    133.2 9.948e+03 1.831e-10
 78.19433    133.8 1.009e+04 2.190e-10
 78.23214    134.4 1.025e+04 2.561e-10
 78.25395    135.1 9.983e+03 1.916e-10
 78.28156    135.6 1.022e+04 2.441e-10
 78.32071    136.2 1.062e+04 3.279e-10
 78.34252    136.8 1.036e+04 2.902e-10
 78.36879    137.0 1.073e+04 3.847e-10
 78.40141    137.1 1.089e+04 4.395e-10
 78.41253    137.1 1.106e+04 5.042e-10
 78.42030    137.8 1.126e+04 5.552e-10
 78.43099    138.2 1.115e+04 5.188e-10
 78.44502    137.9 1.137e+04 6.098e-10
 78.46427    137.6 1.165e+04 7.166e-10
 78.47517    137.6 1.156e+04 6.719e-10
 78.48854    137.0 1.190e+04 7.833e-10
 78.50855    136.0 1.236e+04 9.608e-10
 78.51955    136.8 1.177e+04 7.129e-10
 78.54326    134.0 1.286e+04 1.254e-09
 78.57587    132.0 1.329e+04 1.685e-09
 78.59712    130.8 1.348e+04 1.990e-09
 78.60812    132.0 1.304e+04 1.547e-09
 78.63049    129.6 1.336e+04 1.981e-09
 78.67411    127.5 1.315e+04 1.811e-09
 78.69678    126.1 1.238e+04 1.125e-09
 78.71859    126.2 1.218e+04 1.016e-09
 78.76134    125.2 1.132e+04 4.909e-10
 78.78535    123.9 1.031e+04 2.045e-10
 78.80486    124.6 1.054e+04 2.654e-10
 78.82447    124.9 1.098e+04 4.141e-10
 78.84857    123.8 1.046e+04 2.712e-10
 78.87392    123.1 1.039e+04 2.515e-10
 78.89572    123.7 1.067e+04 3.445e-10
 78.93581    123.0 1.063e+04 3.266e-10
 78.96248    122.5 1.063e+04 3.102e-10
 78.98429    122.8 1.084e+04 3.491e-10
 79.02304    122.3 1.078e+04 2.676e-10
 79.05105    121.6 1.073e+04 1.985e-10
 79.07286    121.6 1.085e+04 1.635e-10
 79.11027    120.8 1.047e+04 1.410e-10
 79.13962    120.5 1.042e+04 1.415e-10
 79.16142    120.8 1.043e+04 1.392e-10
 79.19750    120.9 1.035e+04 1.482e-10
 79.22531    121.1 1.033e+04 1.717e-10
 79.23418    121.2 1.038e+04 1.822e-10
 79.24999    121.8 1.047e+04 1.906e-10
 79.28474    122.0 1.068e+04 2.623e-10
 79.31675    122.0 1.090e+04 3.571e-10
 79.33856    122.6 1.104e+04 3.781e-10
 79.36094    122.5 1.100e+04 4.025e-10
 79.38265    122.6 1.105e+04 4.135e-10
 79.40449    122.4 1.108e+04 4.399e-10
 79.41603    122.2 1.108e+04 4.597e-10
 79.42703    122.9 1.127e+04 4.864e-10
 79.45920    122.5 1.135e+04 5.457e-10
 79.49388    121.7 1.142e+04 6.499e-10
 79.51569    122.1 1.165e+04 7.205e-10
 79.54643    121.4 1.194e+04 1.001e-09
 79.58245    120.9 1.232e+04 1.402e-09
 79.60426    121.3 1.269e+04 1.600e-09
 79.62615    120.6 1.297e+04 1.890e-09
 79.64796    120.8 1.278e+04 1.698e-09
 79.67102    120.0 1.296e+04 1.853e-09
 79.69282    120.3 1.275e+04 1.661e-09
 79.72090    119.4 1.263e+04 1.551e-09
 79.75958    118.4 1.219e+04 1.184e-09
 79.78139    119.0 1.179e+04 9.314e-10
 79.80813    118.0 1.116e+04 5.880e-10
 79.84815    116.8 1.051e+04 3.634e-10
 79.86996    117.7 1.037e+04 3.438e-10
 79.89536    116.6 1.002e+04 2.648e-10
 79.93672    115.8 9.787e+03 2.234e-10
 79.95852    117.3 9.835e+03 2.447e-10
 79.98260    116.8 9.625e+03 2.095e-10
 80.02528    116.5 9.437e+03 1.907e-10
 80.04709    117.8 9.456e+03 1.957e-10
 80.04880    117.6 9.402e+03 1.932e-10
 80.07060    117.9 9.411e+03 1.947e-10
 80.11345    117.5 9.410e+03 2.049e-10
 80.13566    117.0 9.529e+03 2.586e-10
 80.15747    117.5 9.689e+03 2.861e-10
 80.17984    117.2 9.756e+03 3.294e-10
 80.19065    117.2 9.863e+03 3.493e-10
 80.21139    116.8 1.005e+04 4.175e-10
 80.22403    116.2 1.030e+04 5.081e-10
 80.23493    115.7 1.052e+04 5.753e-10
 80.24902    114.9 1.078e+04 6.845e-10
 80.25992    114.5 1.079e+04 7.027e-10
 80.26831    113.3 1.108e+04 8.499e-10
 80.27922    112.2 1.133e+04 9.308e-10
 80.29862    110.0 1.178e+04 1.163e-09
 80.31260    106.3 1.257e+04 1.721e-09
 80.32350    104.9 1.257e+04 1.660e-09
 80.34224    100.1 1.349e+04 2.316e-09
 80.35688     93.4 1.562e+04 3.304e-09
 80.36778     93.5 1.398e+04 2.568e-09
 80.38585     87.0 1.498e+04 3.203e-09
 80.40116     80.7 1.513e+04 3.321e-09
 80.41207     82.7 1.398e+04 2.413e-09
 80.42947     77.9 1.391e+04 2.395e-09
 80.44545     74.5 1.351e+04 2.229e-09
 80.45451     75.7 1.310e+04 1.896e-09
 80.46034     75.5 1.293e+04 1.795e-09
 80.47309     73.0 1.262e+04 1.672e-09
 80.48973     71.1 1.235e+04 1.520e-09
 80.50063     72.2 1.234e+04 1.539e-09
 80.51670     70.7 1.216e+04 1.419e-09
 80.53401     69.0 1.194e+04 1.274e-09
 80.54492     70.2 1.205e+04 1.350e-09
 80.56032     68.1 1.177e+04 1.188e-09
 80.57830     65.9 1.143e+04 1.044e-09
 80.58920     67.0 1.147e+04 1.056e-09
 80.60393     64.6 1.109e+04 9.161e-10
 80.62258     62.9 1.061e+04 7.358e-10
 80.63348     63.4 1.057e+04 7.316e-10
 80.64755     61.6 1.008e+04 5.641e-10
 80.66696     60.1 9.457e+03 3.867e-10
 80.67786     60.5 9.495e+03 4.008e-10
 80.69117     60.1 9.367e+03 3.752e-10
 80.72398     59.2 8.776e+03 2.415e-10
 80.75562     57.2 8.385e+03 1.753e-10
 80.77743     58.2 8.405e+03 1.889e-10
 80.81131     56.8 8.439e+03 1.878e-10
 80.84419     54.9 8.640e+03 2.313e-10
 80.86155     56.2 8.616e+03 2.260e-10
 80.87228     55.5 8.633e+03 2.340e-10
 80.89854     54.3 8.794e+03 3.129e-10
 80.93276     53.7 8.986e+03 3.574e-10
 80.95457     54.9 8.727e+03 2.957e-10
 80.98577     53.2 9.200e+03 3.413e-10
 81.02133     51.2 9.435e+03 4.463e-10
 81.04313     52.2 9.305e+03 4.091e-10
 81.07301     51.9 9.287e+03 4.642e-10
 81.10989     52.7 8.960e+03 3.570e-10
 81.13170     54.1 9.003e+03 3.724e-10
 81.16024     53.5 8.828e+03 2.359e-10
 81.19846     52.4 8.489e+03 1.985e-10
 81.22027     53.7 8.505e+03 2.009e-10
 81.24747     53.6 8.348e+03 2.004e-10
 81.27312     54.2 8.232e+03 1.864e-10
 81.29087     53.9 8.243e+03 1.815e-10
 81.30883     54.8 8.269e+03 1.913e-10
 81.33470     55.1 8.284e+03 1.703e-10
 81.37559     54.8 8.469e+03 1.830e-10
 81.39740     55.4 8.757e+03 2.228e-10
 81.42194     52.5 9.715e+03 3.436e-10
 81.45455     50.3 1.009e+04 6.669e-10
 81.47335     50.9 1.000e+04 8.745e-10
 81.48286     50.7 1.010e+04 1.008e-09
 81.48577     51.0 1.027e+04 1.071e-09
 81.50907     51.9 1.039e+04 8.593e-10
 81.55273     50.5 1.009e+04 5.596e-10
 81.59634     46.6 9.915e+03 5.076e-10
 81.64002     45.4 1.009e+04 6.105e-10
 81.66310     45.0 1.040e+04 7.899e-10
 81.67524     44.4 1.066e+04 8.978e-10
 81.69577     43.8 1.055e+04 8.623e-10
 81.72725     44.4 1.040e+04 7.329e-10
 81.75167     44.6 1.019e+04 5.056e-10
 81.77347     43.7 9.893e+03 3.421e-10
 81.81448     42.9 9.545e+03 2.377e-10
 81.84023     42.9 9.166e+03 2.116e-10
 81.86204     42.7 8.996e+03 1.980e-10
 81.90172     43.9 8.881e+03 1.984e-10
 81.92880     45.7 8.780e+03 1.614e-10
 81.95061     45.7 8.853e+03 1.693e-10
 81.98895     46.7 8.837e+03 1.305e-10
 82.01737     47.5 8.788e+03 1.205e-10
 82.03917     47.6 8.832e+03 1.419e-10
 82.07481     48.7 8.801e+03 1.495e-10
 82.09661     48.1 8.849e+03 1.017e-10
 82.10593     49.0 8.892e+03 1.061e-10
 82.12774     49.0 8.987e+03 1.243e-10
 82.16341     49.9 9.069e+03 1.365e-10
 82.19450     50.8 9.169e+03 1.569e-10
 82.21631     50.7 9.291e+03 1.955e-10
 82.25065     51.7 9.301e+03 2.170e-10
 82.28307     53.0 9.246e+03 2.083e-10
 82.30487     53.3 9.232e+03 2.051e-10
 82.33788     54.9 9.190e+03 1.509e-10
 82.37163     56.0 9.381e+03 8.991e-11
 82.39344     55.6 9.570e+03 6.850e-11
 82.42511     55.2 9.415e+03 4.688e-11
 82.46020     55.3 9.051e+03 4.559e-11
 82.48201     55.3 9.149e+03 4.800e-11
 82.49745     55.8 9.197e+03 5.771e-11
 82.51926     55.7 9.026e+03 5.375e-11
 82.54877     55.9 9.308e+03 7.496e-11
 82.57057     56.4 9.417e+03 8.511e-11
 82.59958     56.1 9.707e+03 1.617e-10
 82.63733     56.3 9.985e+03 3.392e-10
 82.65914     56.7 1.014e+04 3.569e-10
 82.68681     57.4 1.047e+04 5.430e-10
 82.72590     57.7 1.080e+04 6.066e-10
 82.74771     57.6 1.083e+04 6.085e-10
 82.77404     57.0 1.111e+04 6.657e-10
 82.81447     55.7 1.147e+04 8.565e-10
 82.83627     55.5 1.138e+04 7.541e-10
 82.86127     54.4 1.147e+04 8.048e-10
 82.89829     53.4 1.133e+04 7.004e-10
 82.91815     51.7 1.110e+04 5.588e-10
 82.92465     51.3 1.086e+04 4.817e-10
 82.94841     49.9 1.070e+04 4.658e-10
 82.99160     48.4 1.067e+04 4.531e-10
 83.01341     47.8 1.087e+04 5.258e-10
 83.03574     46.6 1.080e+04 6.083e-10
 83.07936     46.2 1.073e+04 6.572e-10
 83.10197     45.8 1.082e+04 7.058e-10
 83.12378     45.5 1.118e+04 9.307e-10
 83.16659     43.6 1.167e+04 1.011e-09
 83.19054     42.1 1.197e+04 1.334e-09
 83.21235     41.6 1.161e+04 1.125e-09
 83.25382     41.3 1.103e+04 8.443e-10
 83.27901     41.8 1.044e+04 5.243e-10
 83.28982     41.5 1.024e+04 3.913e-10
 83.30815     40.0 1.071e+04 3.471e-10
 83.32075     33.8 1.322e+04 4.661e-10
 83.32489     28.9 1.501e+04 7.389e-10
 83.33410     25.7 1.627e+04 9.342e-10
 83.35176     20.7 1.533e+04 3.589e-09
 83.36748     20.1 1.529e+04 8.245e-09
 83.37838     19.1 1.617e+04 1.259e-08
 83.38957     22.4 1.668e+04 1.498e-08
 83.39498     22.0 1.710e+04 1.816e-08
 83.40073     23.5 1.746e+04 1.953e-08
 83.41164     24.7 1.803e+04 1.684e-08
 83.42259     24.6 1.934e+04 1.460e-08
 83.43900     19.8 1.909e+04 4.833e-09
 83.45605      8.4 1.266e+04 1.154e-09
 83.46695      7.5 1.236e+04 9.979e-10
 83.48261      5.5 1.081e+04 6.858e-10
 83.51542      5.0 1.038e+04 5.430e-10
 83.54481      5.0 1.018e+04 4.675e-10
 83.56662      5.4 1.002e+04 4.036e-10
 83.60275      5.2 1.007e+04 4.018e-10
 83.63338      4.9 1.035e+04 5.225e-10
 83.65518      6.1 9.939e+03 3.612e-10
 83.68998      5.9 1.027e+04 4.755e-10
 83.72178      5.4 1.060e+04 6.050e-10
 83.74359      6.2 9.796e+03 2.324e-10
 83.77722      5.0 9.888e+03 3.400e-10
 83.81051      4.5 9.938e+03 4.187e-10
 83.83232      5.8 9.932e+03 4.240e-10
 83.86445      5.7 9.969e+03 4.343e-10
 83.89908      4.6 9.582e+03 3.060e-10
 83.92088      6.1 9.825e+03 3.464e-10
 83.95168      3.7 9.585e+03 2.614e-10
 83.98764      1.8 9.538e+03 2.720e-10
 84.00945      2.0 9.850e+03 3.333e-10
 84.02791      0.9 9.833e+03 4.352e-10
 84.04263      0.7 9.877e+03 4.685e-10
 84.05354      0.7 1.008e+04 5.848e-10
 84.07143      0.5 1.005e+04 6.192e-10
 84.08692      0.4 9.933e+03 5.888e-10
 84.09782      0.6 1.007e+04 6.817e-10
 84.12253      1.1 9.893e+03 6.136e-10
 84.14443      1.0 9.686e+03 4.614e-10
 84.16478      1.7 8.914e+03 1.934e-10
 84.18658      2.1 8.811e+03 1.588e-10
 84.21338      1.5 8.239e+03 5.969e-11
 84.25334      1.1 7.997e+03 3.874e-11
 84.27515      1.5 7.984e+03 4.150e-11
 84.30061      1.9 7.865e+03 3.728e-11
 84.34191      2.4 7.868e+03 3.715e-11
 84.36372      3.0 7.931e+03 4.825e-11
 84.38785      3.4 8.030e+03 5.857e-11
 84.43048      3.9 8.147e+03 7.654e-11
 84.45228      4.3 8.314e+03 9.566e-11
 84.47508      4.5 8.539e+03 1.183e-10
 84.51870      4.5 8.778e+03 1.500e-10
 84.54085      4.2 8.999e+03 1.901e-10
 84.54562      3.9 9.149e+03 2.181e-10
 84.56708      2.7 9.286e+03 2.382e-10
 84.60593      2.2 9.557e+03 3.059e-10
 84.62942      1.6 9.766e+03 3.649e-10
 84.65122      1.4 9.681e+03 3.452e-10
 84.69316      0.8 9.696e+03 3.571e-10
 84.71798      0.3 9.601e+03 3.376e-10
 84.73979      0.4 9.491e+03 3.162e-10
 84.78039      0.0 9.328e+03 2.527e-10
 84.80655     -0.8 9.216e+03 1.901e-10
 84.82836     -1.0 9.326e+03 2.171e-10
 84.86763     -3.1 9.416e+03 2.233e-10
 84.89512     -4.6 9.741e+03 3.238e-10
 84.91692     -4.7 1.041e+04 5.388e-10
 84.93930     -5.3 1.032e+04 5.113e-10
 84.95011     -5.7 1.048e+04 6.159e-10
 84.95682     -6.2 1.051e+04 6.101e-10
 84.96782     -6.1 1.034e+04 4.866e-10
 84.98368     -7.3 1.035e+04 4.062e-10
 85.00549     -8.6 1.035e+04 3.700e-10
 85.04209    -11.7 9.609e+03 2.243e-10
 85.07225    -14.3 9.054e+03 1.693e-10
 85.09406    -15.9 8.870e+03 1.574e-10
 85.12932    -17.2 8.764e+03 1.462e-10
 85.16082    -18.4 8.753e+03 1.440e-10
 85.18262    -19.4 8.622e+03 1.312e-10
 85.21656    -20.5 8.638e+03 1.316e-10
 85.24938    -21.8 8.716e+03 1.464e-10
 85.27119    -23.0 8.526e+03 1.263e-10
 85.30379    -25.8 8.968e+03 1.957e-10
 85.33795    -30.3 1.013e+04 3.684e-10
 85.35931    -32.5 1.082e+04 5.488e-10
 85.36866    -36.5 1.208e+04 9.325e-10
 85.37992    -38.4 1.259e+04 1.483e-09
 85.39294    -40.6 1.339e+04 2.489e-09
 85.40385    -41.6 1.380e+04 3.100e-09
 85.42354    -43.4 1.416e+04 3.649e-09
 85.43723    -45.4 1.422e+04 3.696e-09
 85.44813    -46.8 1.454e+04 4.148e-09
 85.46715    -49.1 1.427e+04 3.604e-09
 85.48151    -51.3 1.374e+04 2.882e-09
 85.49241    -52.5 1.394e+04 3.412e-09
 85.51077    -54.1 1.337e+04 2.784e-09
 85.52579    -55.3 1.280e+04 2.255e-09
 85.53670    -55.7 1.302e+04 2.685e-09
 85.55439    -56.6 1.246e+04 2.171e-09
 85.56899    -57.2 1.200e+04 1.776e-09
 85.57377    -57.7 1.171e+04 1.485e-09
 85.58098    -58.0 1.194e+04 1.745e-09
 85.59800    -58.2 1.167e+04 1.487e-09
 85.61436    -58.5 1.140e+04 1.226e-09
 85.62526    -58.9 1.141e+04 1.207e-09
 85.64162    -59.4 1.109e+04 9.828e-10
 85.65864    -59.9 1.077e+04 8.169e-10
 85.66955    -60.6 1.057e+04 7.078e-10
 85.68524    -60.9 1.034e+04 6.302e-10
 85.70293    -60.7 1.023e+04 5.930e-10
 85.71383    -61.3 1.006e+04 5.115e-10
 85.72885    -61.2 1.010e+04 4.998e-10
 85.74721    -61.5 1.017e+04 4.915e-10
 85.75811    -62.2 1.003e+04 4.427e-10
 85.76950    -62.5 1.024e+04 4.902e-10
 85.78041    -63.5 1.064e+04 7.412e-10
 85.79149    -64.6 1.090e+04 9.202e-10
 85.80240    -65.6 1.114e+04 9.912e-10
 85.81609    -67.8 1.263e+04 1.579e-09
 85.83578    -70.1 1.478e+04 3.033e-09
 85.84668    -71.0 1.474e+04 2.866e-09
 85.85970    -72.8 1.658e+04 5.130e-09
 85.88006    -74.4 1.780e+04 8.224e-09
 85.89096    -75.4 1.688e+04 5.401e-09
 85.90332    -77.2 1.736e+04 6.762e-09
 85.92434    -79.3 1.738e+04 7.211e-09
 85.93525    -80.8 1.598e+04 4.549e-09
 85.94693    -82.7 1.573e+04 4.618e-09
 85.96863    -84.1 1.516e+04 4.348e-09
 85.97953    -85.0 1.467e+04 3.455e-09
 85.98073    -85.9 1.445e+04 3.471e-09
 85.99163    -86.6 1.448e+04 3.771e-09
 86.01236    -87.1 1.420e+04 3.401e-09
 86.02381    -87.7 1.393e+04 3.076e-09
 86.03472    -88.1 1.425e+04 3.579e-09
 86.05598    -88.5 1.407e+04 3.456e-09
 86.06810    -88.7 1.385e+04 3.228e-09
 86.07900    -88.8 1.417e+04 3.591e-09
 86.09959    -88.9 1.389e+04 3.144e-09
 86.11238    -89.0 1.362e+04 2.674e-09
 86.12328    -89.5 1.375e+04 2.605e-09
 86.14321    -89.9 1.338e+04 2.150e-09
 86.15666    -90.2 1.301e+04 1.775e-09
 86.16757    -91.0 1.304e+04 1.731e-09
 86.18115    -91.3 1.265e+04 1.414e-09
 86.19205    -91.0 1.255e+04 1.390e-09
 86.20095    -91.0 1.217e+04 1.114e-09
 86.21185    -91.7 1.213e+04 1.086e-09
 86.23044    -91.7 1.171e+04 8.285e-10
 86.24523    -91.6 1.130e+04 6.137e-10
 86.25613    -92.4 1.130e+04 6.331e-10
 86.27406    -92.5 1.095e+04 4.785e-10
 86.28951    -92.7 1.066e+04 3.738e-10
 86.30042    -93.2 1.078e+04 4.500e-10
 86.31767    -93.4 1.060e+04 3.906e-10
 86.33380    -93.7 1.054e+04 3.634e-10
 86.34470    -94.4 1.098e+04 5.586e-10
 86.36129    -94.8 1.102e+04 5.782e-10
 86.37808    -95.2 1.112e+04 6.215e-10
 86.38746    -95.2 1.125e+04 7.379e-10
 86.39247    -95.0 1.098e+04 6.001e-10
 86.40491    -95.4 1.102e+04 6.223e-10
 86.42246    -95.9 1.116e+04 6.557e-10
 86.43336    -96.3 1.154e+04 9.343e-10
 86.44852    -96.7 1.157e+04 9.390e-10
 86.46665    -97.3 1.161e+04 9.420e-10
 86.47755    -97.8 1.192e+04 1.081e-09
 86.49214    -98.6 1.213e+04 1.141e-09
 86.51093    -99.6 1.235e+04 1.244e-09
 86.52183   -100.4 1.253e+04 1.424e-09
 86.53575   -101.1 1.254e+04 1.510e-09
 86.55521   -101.7 1.257e+04 1.618e-09
 86.56612   -102.8 1.286e+04 1.729e-09
 86.57937   -103.9 1.318e+04 1.947e-09
 86.59289   -105.4 1.359e+04 2.248e-09
 86.60212   -104.2 1.328e+04 1.989e-09
 86.61040   -106.1 1.329e+04 1.960e-09
 86.62299   -107.5 1.360e+04 2.300e-09
 86.64378   -109.2 1.385e+04 2.645e-09
 86.65468   -110.6 1.356e+04 2.211e-09
 86.66660   -112.3 1.361e+04 2.225e-09
 86.68806   -114.3 1.381e+04 1.998e-09
 86.70997   -118.2 1.266e+04 9.775e-10
 86.74313   -123.8 1.197e+04 6.863e-10
 86.77683   -128.5 1.125e+04 5.816e-10
 86.79863   -129.8 1.083e+04 5.806e-10
 86.83036   -131.6 1.080e+04 5.903e-10
 86.86539   -132.5 1.043e+04 5.651e-10
 86.88720   -131.9 1.031e+04 5.972e-10
 86.91759   -132.3 9.853e+03 4.282e-10
 86.95396   -132.4 9.387e+03 2.879e-10
 86.97577   -131.5 9.325e+03 2.570e-10
 86.99393   -131.7 8.996e+03 1.735e-10
 87.01574   -130.9 8.927e+03 1.552e-10
 87.04253   -131.1 8.720e+03 1.102e-10
 87.06433   -130.4 8.812e+03 1.060e-10
 87.09206   -130.6 8.715e+03 8.884e-11
 87.13109   -130.6 8.700e+03 8.468e-11
 87.15290   -130.2 8.801e+03 8.710e-11
 87.17929   -130.3 8.798e+03 8.636e-11
 87.21966   -130.4 8.836e+03 8.718e-11
 87.24147   -129.9 8.887e+03 9.212e-11
 87.26652   -130.0 9.052e+03 9.421e-11
 87.30823   -130.4 9.350e+03 1.095e-10
 87.33003   -129.8 9.374e+03 1.078e-10
 87.35376   -130.4 9.649e+03 1.332e-10
 87.39477   -131.1 9.821e+03 1.693e-10
 87.41600   -130.6 9.800e+03 1.601e-10
 87.41860   -130.0 9.832e+03 1.673e-10
 87.44099   -130.4 9.918e+03 2.094e-10
 87.48461   -130.5 9.950e+03 2.480e-10
 87.50717   -130.4 9.932e+03 2.714e-10
 87.52897   -129.4 1.006e+04 3.195e-10
 87.57184   -129.3 1.006e+04 3.260e-10
 87.59573   -129.0 1.003e+04 3.252e-10
 87.61754   -128.0 1.012e+04 3.425e-10
 87.65907   -127.5 1.003e+04 3.253e-10
 87.68430   -126.8 9.937e+03 3.100e-10
 87.70611   -126.1 9.928e+03 2.803e-10
 87.74630   -125.2 9.849e+03 2.563e-10
 87.77287   -124.3 9.826e+03 2.453e-10
 87.79467   -123.8 9.758e+03 1.922e-10
 87.81742   -122.8 9.772e+03 1.877e-10
 87.83923   -122.4 9.856e+03 2.298e-10
 87.86143   -121.4 9.867e+03 2.283e-10
 87.88324   -121.0 9.769e+03 1.661e-10
 87.92077   -120.0 9.791e+03 1.657e-10
 87.95000   -119.3 1.008e+04 1.758e-10
 87.97181   -118.5 9.648e+03 1.290e-10
 88.00800   -118.0 9.982e+03 1.436e-10
 88.03857   -117.7 1.030e+04 2.086e-10
 88.06038   -116.9 1.001e+04 1.316e-10
 88.09523   -116.9 1.054e+04 2.606e-10
 88.12713   -116.8 1.112e+04 5.153e-10
 88.14894   -116.3 1.101e+04 4.656e-10
 88.18247   -116.0 1.164e+04 8.519e-10
 88.21570   -115.9 1.213e+04 1.214e-09
 88.22968   -115.3 1.191e+04 1.061e-09
 88.24007   -115.2 1.224e+04 1.285e-09
 88.26970   -115.4 1.259e+04 1.557e-09
 88.30427   -115.7 1.265e+04 1.608e-09
 88.32608   -115.0 1.228e+04 1.223e-09
 88.35693   -115.0 1.227e+04 1.227e-09
 88.39283   -114.8 1.204e+04 1.067e-09
 88.41464   -114.2 1.194e+04 9.377e-10
 88.44416   -113.9 1.181e+04 8.604e-10
 88.48140   -113.4 1.155e+04 6.925e-10
 88.50321   -112.8 1.164e+04 7.824e-10
 88.53140   -112.2 1.143e+04 6.741e-10
 88.56997   -111.2 1.112e+04 5.196e-10
 88.59178   -110.5 1.114e+04 5.856e-10
 88.61863   -109.2 1.091e+04 4.902e-10
 88.64091   -107.8 1.075e+04 4.195e-10
 88.65900   -107.5 1.067e+04 4.021e-10
 88.68034   -106.7 1.067e+04 4.125e-10
 88.70586   -105.4 1.066e+04 3.951e-10
 88.74710   -104.1 1.068e+04 3.939e-10
 88.76891   -103.3 1.052e+04 3.506e-10
 88.79309   -102.4 1.065e+04 3.552e-10
 88.83567   -101.8 1.079e+04 3.813e-10
 88.85748   -101.0 1.046e+04 2.659e-10
 88.88033   -100.7 1.063e+04 2.840e-10
 88.92394   -101.6 1.122e+04 4.014e-10
 88.94604   -103.7 1.220e+04 7.770e-10
 88.96785   -103.6 1.227e+04 6.814e-10
 89.01118   -106.0 1.320e+04 1.452e-09
 89.03451   -108.1 1.356e+04 1.895e-09
 89.04327   -108.5 1.334e+04 1.587e-09
 89.06356   -108.8 1.302e+04 1.384e-09
 89.09841   -111.9 1.296e+04 1.389e-09
 89.12318   -114.2 1.232e+04 9.152e-10
 89.14498   -113.3 1.216e+04 8.813e-10
 89.18564   -114.6 1.148e+04 4.532e-10
 89.21174   -115.2 1.096e+04 2.493e-10
 89.23355   -114.4 1.116e+04 2.990e-10
 89.27287   -114.7 1.094e+04 2.522e-10
 89.30031   -114.8 1.087e+04 2.442e-10
 89.32212   -114.2 1.120e+04 3.493e-10
 89.36011   -114.0 1.114e+04 3.663e-10
 89.38888   -113.6 1.110e+04 3.863e-10
 89.41068   -113.2 1.160e+04 5.976e-10
 89.44259   -112.4 1.151e+04 5.949e-10
 89.46440   -112.5 1.172e+04 6.662e-10
 89.47734   -111.7 1.170e+04 6.655e-10
 89.48815   -111.7 1.186e+04 8.074e-10
 89.50166   -111.2 1.175e+04 7.285e-10
 89.52153   -110.6 1.159e+04 6.331e-10
 89.53243   -110.5 1.168e+04 7.399e-10
 89.54528   -109.8 1.147e+04 6.207e-10
 89.56581   -108.9 1.127e+04 5.116e-10
 89.57672   -108.7 1.123e+04 5.463e-10
 89.58890   -107.9 1.110e+04 4.653e-10
 89.62171   -107.2 1.102e+04 4.141e-10
 89.65458   -106.1 1.086e+04 3.425e-10
 89.67638   -105.6 1.089e+04 3.403e-10
 89.70904   -104.0 1.071e+04 2.891e-10
 89.74314   -102.3 1.053e+04 2.548e-10
 89.76495   -102.0 1.066e+04 2.906e-10
 89.79627   -100.3 1.053e+04 2.739e-10
 89.83171    -98.6 1.044e+04 2.641e-10
 89.85352    -98.1 1.058e+04 3.227e-10
 89.86524    -96.4 1.051e+04 3.113e-10
 89.88704    -96.3 1.021e+04 2.686e-10
 89.92028    -94.6 1.020e+04 2.695e-10
 89.94208    -93.9 1.017e+04 2.669e-10
 89.97074    -92.3 1.017e+04 2.730e-10
 90.00884    -90.7 1.018e+04 2.921e-10
 90.03065    -89.8 1.012e+04 2.725e-10
 90.05797    -88.2 1.016e+04 3.051e-10
 90.09741    -86.7 1.018e+04 3.425e-10
 90.11922    -85.7 1.012e+04 2.967e-10
 90.14520    -84.2 1.013e+04 3.311e-10
 90.18598    -82.7 1.008e+04 3.486e-10
 90.20778    -81.7 9.991e+03 2.979e-10
 90.23243    -80.3 9.920e+03 3.170e-10
 90.26608    -78.8 9.800e+03 3.215e-10
 90.28638    -78.6 9.680e+03 2.595e-10
 90.29635    -77.6 9.641e+03 2.552e-10
 90.31967    -76.1 9.559e+03 2.684e-10
 90.36311    -74.6 9.493e+03 2.713e-10
 90.40673    -72.2 9.428e+03 3.003e-10
 90.45052    -70.6 9.162e+03 2.698e-10
 90.47348    -68.8 8.949e+03 2.175e-10
 90.49529    -68.4 9.169e+03 2.877e-10
 90.53775    -66.8 9.022e+03 2.457e-10
 90.56205    -65.3 8.917e+03 2.176e-10
 90.58386    -65.0 9.176e+03 3.318e-10
 90.62498    -63.4 9.092e+03 3.102e-10
 90.65062    -61.8 8.990e+03 2.878e-10
 90.67074    -61.6 9.044e+03 3.355e-10
 90.68872    -61.4 9.349e+03 4.429e-10
 90.71221    -59.8 9.143e+03 3.814e-10
 90.73918    -58.2 8.936e+03 3.173e-10
 90.76099    -58.2 8.852e+03 2.993e-10
 90.79945    -56.6 8.667e+03 2.552e-10
 90.82775    -54.8 8.570e+03 2.324e-10
 90.84956    -55.2 8.477e+03 2.240e-10
 90.88668    -53.8 8.494e+03 2.238e-10
 90.91632    -52.9 8.748e+03 2.628e-10
 90.93813    -54.2 9.004e+03 3.462e-10
 90.97391    -53.5 9.467e+03 5.170e-10
 91.00488    -52.8 9.886e+03 7.178e-10
 91.02669    -53.7 9.676e+03 6.644e-10
 91.06114    -53.4 9.733e+03 6.843e-10
 91.08957    -53.7 9.675e+03 6.006e-10
 91.10006    -52.9 9.036e+03 3.796e-10
 91.11526    -53.9 8.498e+03 2.625e-10
 91.14838    -55.0 8.498e+03 2.528e-10
 91.18202    -57.9 9.213e+03 3.521e-10
 91.20383    -58.4 9.236e+03 3.794e-10
 91.23561    -61.3 1.110e+04 9.592e-10
 91.26822    -64.3 1.236e+04 1.871e-09
 91.28129    -65.7 1.311e+04 2.518e-09
 91.29205    -66.6 1.368e+04 3.169e-09
 91.30069    -65.4 1.383e+04 3.196e-09
 91.31174    -67.0 1.442e+04 4.165e-09
 91.32558    -68.6 1.453e+04 4.411e-09
 91.33648    -68.8 1.494e+04 5.263e-09
 91.35536    -70.0 1.454e+04 4.813e-09
 91.36986    -71.0 1.354e+04 3.235e-09
 91.38076    -70.9 1.341e+04 2.948e-09
 91.39897    -72.0 1.220e+04 1.734e-09
 91.41414    -73.3 1.111e+04 1.045e-09
 91.42505    -73.6 1.063e+04 8.318e-10
 91.44259    -74.5 9.992e+03 5.866e-10
 91.45843    -74.9 9.697e+03 4.729e-10
 91.46933    -74.9 9.486e+03 3.934e-10
 91.48621    -74.9 9.477e+03 3.651e-10
 91.50111    -74.9 9.484e+03 3.581e-10
 91.50671    -74.5 9.497e+03 3.735e-10
 91.51361    -74.5 9.440e+03 3.506e-10
 91.53619    -74.5 9.572e+03 3.841e-10
 91.55809    -74.4 9.227e+03 2.837e-10
 91.58454    -74.8 9.872e+03 4.536e-10
 91.62485    -75.1 1.058e+04 7.599e-10
 91.64666    -75.2 1.019e+04 6.093e-10
 91.67177    -75.2 1.068e+04 8.854e-10
 91.70163    -75.5 1.061e+04 9.385e-10
 91.71244    -75.2 1.072e+04 9.926e-10
 91.72413    -75.6 1.075e+04 1.032e-09
 91.73503    -75.7 1.015e+04 7.265e-10
 91.74791    -75.9 1.010e+04 7.170e-10
 91.76841    -76.1 1.002e+04 7.000e-10
 91.77931    -76.3 9.861e+03 6.390e-10
 91.80189    -76.2 9.957e+03 6.926e-10
 91.82379    -75.5 9.208e+03 4.176e-10
 91.84624    -74.9 9.152e+03 4.197e-10
 91.88985    -73.8 8.901e+03 3.791e-10
 91.91236    -72.4 8.606e+03 3.113e-10
 91.91375    -71.4 8.362e+03 2.367e-10
 91.93486    -71.3 8.040e+03 1.929e-10
 91.97709    -69.9 7.914e+03 1.793e-10
 92.00093    -68.3 7.808e+03 1.668e-10
 92.02273    -67.3 7.851e+03 1.651e-10
 92.06432    -65.5 7.763e+03 1.590e-10
 92.08949    -63.6 7.730e+03 1.541e-10
 92.11130    -62.6 7.843e+03 1.620e-10
 92.15155    -60.9 7.847e+03 1.615e-10
 92.17806    -59.2 7.939e+03 1.695e-10
 92.19987    -58.5 8.133e+03 1.996e-10
 92.23878    -56.9 8.267e+03 2.360e-10
 92.26663    -55.2 8.422e+03 2.848e-10
 92.28843    -54.4 8.660e+03 3.495e-10
 92.31389    -52.6 8.804e+03 3.966e-10
 92.33570    -53.1 8.383e+03 2.871e-10
 92.35519    -51.2 8.328e+03 2.652e-10
 92.37700    -50.7 8.326e+03 2.588e-10
 92.41325    -48.9 8.197e+03 2.254e-10
 92.44376    -47.1 8.134e+03 2.111e-10
 92.46557    -46.9 8.111e+03 2.108e-10
 92.50048    -45.2 8.104e+03 2.090e-10
 92.53233    -43.9 8.210e+03 2.188e-10
 92.55413    -44.0 8.238e+03 2.260e-10
 92.58772    -43.4 8.929e+03 3.154e-10
 92.62089    -43.5 9.895e+03 5.398e-10
 92.64270    -43.7 9.661e+03 4.603e-10
 92.67495    -44.1 1.059e+04 7.668e-10
 92.70756    -45.2 1.116e+04 1.125e-09
 92.72017    -45.8 1.154e+04 1.489e-09
 92.72734    -45.4 1.085e+04 9.471e-10
 92.73644    -46.2 1.154e+04 1.361e-09
 92.75108    -46.8 1.221e+04 1.787e-09
 92.76445    -48.1 1.346e+04 2.565e-09
 92.77535    -47.7 1.277e+04 2.003e-09
 92.79470    -48.6 1.394e+04 2.861e-09
 92.80873    -49.4 1.492e+04 4.072e-09
 92.81964    -48.8 1.442e+04 3.344e-09
 92.83831    -49.1 1.508e+04 4.496e-09
 92.85302    -49.1 1.540e+04 5.550e-09
 92.86392    -48.5 1.511e+04 4.891e-09
 92.88193    -48.3 1.519e+04 5.391e-09
 92.89730    -48.2 1.516e+04 5.469e-09
 92.90820    -47.6 1.497e+04 4.970e-09
 92.92555    -47.3 1.465e+04 4.599e-09
 92.93677    -46.9 1.425e+04 3.611e-09
 92.94190    -47.9 1.317e+04 1.671e-09
 92.95249    -47.5 1.296e+04 1.576e-09
 92.96916    -47.9 1.221e+04 1.118e-09
 92.98587    -48.4 1.147e+04 8.161e-10
 92.99677    -47.7 1.143e+04 8.262e-10
 93.01278    -47.9 1.081e+04 6.559e-10
 93.03015    -47.7 1.046e+04 5.806e-10
 93.04105    -47.1 1.046e+04 5.993e-10
 93.05640    -46.4 1.035e+04 5.734e-10
 93.07443    -45.8 1.034e+04 5.701e-10
 93.08544    -44.6 1.100e+04 8.079e-10
 93.11111    -43.2 1.086e+04 7.527e-10
 93.13738    -41.9 1.099e+04 8.081e-10
 93.15676    -41.4 1.002e+04 4.582e-10
 93.17410    -40.0 9.862e+03 4.279e-10
 93.19834    -38.3 1.009e+04 4.751e-10
 93.24086    -36.7 1.068e+04 6.769e-10
 93.26267    -35.5 1.006e+04 4.160e-10
 93.28558    -33.7 1.079e+04 6.214e-10
 93.32919    -32.0 1.163e+04 1.032e-09
 93.35123    -30.4 1.231e+04 1.584e-09
 93.37304    -29.4 1.196e+04 9.746e-10
 93.39542    -28.4 1.242e+04 1.534e-09
 93.40623    -27.9 1.208e+04 1.076e-09
 93.42713    -27.1 1.259e+04 1.518e-09
 93.43960    -26.4 1.301e+04 2.060e-09
 93.45051    -26.0 1.261e+04 1.337e-09
 93.47075    -25.4 1.315e+04 1.970e-09
 93.48389    -24.7 1.363e+04 2.821e-09
 93.49479    -24.4 1.308e+04 1.787e-09
 93.51437    -23.6 1.362e+04 2.643e-09
 93.52817    -22.7 1.409e+04 3.530e-09
 93.53908    -22.4 1.351e+04 2.254e-09
 93.54893    -21.7 1.396e+04 2.970e-09
 93.55984    -21.5 1.328e+04 2.264e-09
 93.57245    -20.6 1.371e+04 2.903e-09
 93.58336    -20.5 1.303e+04 1.810e-09
 93.60160    -19.8 1.329e+04 2.119e-09
 93.61674    -19.2 1.348e+04 2.302e-09
 93.62764    -19.3 1.275e+04 1.362e-09
 93.64522    -19.0 1.293e+04 1.468e-09
 93.66102    -18.7 1.325e+04 1.617e-09
 93.67193    -18.9 1.246e+04 1.035e-09
 93.68883    -18.6 1.266e+04 1.125e-09
 93.70531    -18.5 1.284e+04 1.247e-09
 93.72721    -18.0 1.166e+04 7.440e-10
 93.76536    -17.6 1.193e+04 9.857e-10
 93.79407    -16.9 1.202e+04 1.316e-09
 93.81588    -16.6 1.145e+04 1.016e-09
 93.85259    -15.5 1.169e+04 1.332e-09
 93.88263    -14.2 1.175e+04 1.422e-09
 93.90444    -13.4 1.150e+04 1.273e-09
 93.93906    -12.1 1.142e+04 1.189e-09
 93.96087    -10.9 1.133e+04 1.115e-09
 93.97120     -9.6 1.121e+04 1.080e-09
 93.99301     -8.6 1.073e+04 7.702e-10
 94.02705     -7.2 1.033e+04 5.294e-10
 94.05977     -6.1 9.877e+03 3.219e-10
 94.08158     -5.1 9.634e+03 2.500e-10
 94.11429     -3.9 9.311e+03 1.775e-10
 94.14833     -2.5 9.153e+03 1.393e-10
 94.17014     -1.1 9.093e+03 1.392e-10
 94.20152      0.6 9.117e+03 1.282e-10
 94.23690      2.2 9.160e+03 1.270e-10
 94.25871      3.9 9.144e+03 1.286e-10
 94.28875      5.0 9.469e+03 1.492e-10
 94.32547      5.9 9.866e+03 2.958e-10
 94.34728      7.7 9.871e+03 2.939e-10
 94.36171      9.2 1.043e+04 5.848e-10
 94.38352     10.2 1.046e+04 5.078e-10
 94.40860     11.3 1.100e+04 8.064e-10
 94.42474     11.3 1.120e+04 9.519e-10
 94.43565     12.0 1.127e+04 1.013e-09
 94.45212     12.8 1.154e+04 1.205e-09
 94.46903     13.1 1.159e+04 1.229e-09
 94.47993     13.9 1.167e+04 1.282e-09
 94.49573     14.2 1.163e+04 1.207e-09
 94.51331     14.4 1.154e+04 9.928e-10
 94.52421     15.0 1.162e+04 1.013e-09
 94.53935     14.1 1.158e+04 8.536e-10
 94.55759     12.8 1.155e+04 8.044e-10
 94.56850     12.9 1.161e+04 8.217e-10
 94.57284     11.2 1.174e+04 8.383e-10
 94.58374     10.3 1.297e+04 1.150e-09
 94.60188      8.7 1.329e+04 1.517e-09
 94.61278      8.8 1.301e+04 1.492e-09
 94.62658      8.1 1.314e+04 1.916e-09
 94.64616      7.9 1.325e+04 2.229e-09
 94.65706      8.1 1.294e+04 2.033e-09
 94.67020      7.9 1.296e+04 2.076e-09
 94.69044      7.9 1.271e+04 1.822e-09
 94.70135      8.1 1.233e+04 1.486e-09
 94.71382      7.9 1.223e+04 1.131e-09
 94.73473      7.2 1.242e+04 8.824e-10
 94.74563      7.3 1.207e+04 7.403e-10
 94.75743      6.9 1.225e+04 6.837e-10
 94.77326      6.5 1.290e+04 6.844e-10
 94.78393      6.3 1.095e+04 4.007e-10
 94.78991      6.6 1.069e+04 3.668e-10
 94.80105      6.6 1.089e+04 3.679e-10
 94.82286      5.7 1.178e+04 4.613e-10
 94.83420      4.7 1.247e+04 7.410e-10
 94.84510      5.6 1.183e+04 6.413e-10
 94.86647      5.1 1.243e+04 1.033e-09
 94.87848      5.2 1.298e+04 1.597e-09
 94.88938      5.9 1.257e+04 1.359e-09
 94.91009      6.1 1.302e+04 1.826e-09
 94.92276      6.2 1.320e+04 2.035e-09
 94.93367      6.9 1.296e+04 1.890e-09
 94.95371      7.0 1.300e+04 1.931e-09
 94.96705      7.2 1.272e+04 1.715e-09
 94.97612      7.7 1.265e+04 1.714e-09
 94.98459      8.7 1.289e+04 1.892e-09
 94.99732      8.8 1.240e+04 1.545e-09
 95.01133      8.8 1.192e+04 1.222e-09
 95.02223      9.4 1.196e+04 1.285e-09
 95.04094      9.6 1.163e+04 1.073e-09
 95.05561     10.0 1.133e+04 9.216e-10
 95.06652     10.6 1.138e+04 9.869e-10
 95.08455     11.1 1.119e+04 8.990e-10
 95.09990     11.7 1.111e+04 8.720e-10
 95.11080     12.3 1.116e+04 9.269e-10
 95.12817     12.9 1.115e+04 9.267e-10
 95.14418     13.6 1.117e+04 9.395e-10
 95.15508     13.9 1.117e+04 9.467e-10
 95.17179     14.6 1.121e+04 9.592e-10
 95.18501     15.1 1.134e+04 1.016e-09
 95.19078     15.4 1.170e+04 1.312e-09
 95.19937     15.6 1.163e+04 1.285e-09
 95.21540     16.0 1.178e+04 1.362e-09
 95.23275     16.5 1.194e+04 1.454e-09
 95.24365     16.6 1.177e+04 1.352e-09
 95.25902     17.0 1.193e+04 1.455e-09
 95.27703     17.3 1.206e+04 1.544e-09
 95.28793     17.5 1.181e+04 1.382e-09
 95.30264     17.8 1.189e+04 1.469e-09
 95.32141     18.3 1.215e+04 1.671e-09
 95.34332     19.1 1.152e+04 1.208e-09
 95.37916     20.0 1.156e+04 1.241e-09
 95.41008     20.8 1.130e+04 1.105e-09
 95.43188     22.0 1.063e+04 7.161e-10
 95.46639     22.6 1.061e+04 6.897e-10
 95.49864     22.7 1.079e+04 7.521e-10
 95.52045     23.3 1.050e+04 6.319e-10
 95.55363     22.7 1.164e+04 1.156e-09
 95.58594     21.8 1.245e+04 1.749e-09
 95.59675     21.5 1.260e+04 1.669e-09
 95.59792     20.1 1.331e+04 2.757e-09
 95.60882     19.9 1.354e+04 3.317e-09
 95.62976     19.8 1.412e+04 4.397e-09
 95.64220     19.8 1.436e+04 4.718e-09
 95.65310     20.0 1.457e+04 5.305e-09
 95.67337     19.9 1.457e+04 4.385e-09
 95.68648     18.3 1.386e+04 2.634e-09
 95.69739     18.0 1.358e+04 2.191e-09
 95.71699     14.6 1.203e+04 1.230e-09
 95.73077     12.2 1.118e+04 9.059e-10
 95.74167     11.5 1.086e+04 7.817e-10
 95.76061     10.7 1.072e+04 7.371e-10
 95.77505     10.1 1.072e+04 7.322e-10
 95.78595      9.9 1.062e+04 6.980e-10
 95.79717      9.4 1.079e+04 7.448e-10
 95.80807     10.3 1.052e+04 5.981e-10
 95.81933      9.5 1.076e+04 6.874e-10
 95.83024      9.3 1.077e+04 6.940e-10
 95.85281      9.0 1.097e+04 8.181e-10
 95.87472      8.8 1.100e+04 8.533e-10
 95.90256      9.2 1.074e+04 7.924e-10
 95.94148      9.9 1.046e+04 5.568e-10
 95.96328      9.7 1.015e+04 4.188e-10
 95.98688     10.1 9.713e+03 2.554e-10
 96.00869     11.9 9.550e+03 2.690e-10
 96.03004     12.7 9.196e+03 1.758e-10
 96.05185     12.7 8.986e+03 1.509e-10
 96.07702     13.8 8.826e+03 1.212e-10
 96.11861     15.2 8.827e+03 1.100e-10
 96.14042     15.4 8.826e+03 1.109e-10
 96.16425     16.8 8.841e+03 1.066e-10
 96.20718     18.2 8.892e+03 1.059e-10
 96.22898     17.6 9.009e+03 1.247e-10
 96.25149     18.8 9.140e+03 1.392e-10
 96.29510     19.8 9.271e+03 1.636e-10
 96.31755     20.6 9.424e+03 2.084e-10
 96.33936     19.3 9.583e+03 2.870e-10
 96.38234     20.0 9.729e+03 3.451e-10
 96.40612     20.7 9.879e+03 3.921e-10
 96.41150     19.0 9.896e+03 4.174e-10
 96.43134     19.8 9.912e+03 4.278e-10
 96.46957     20.5 9.841e+03 4.032e-10
 96.49468     21.1 9.698e+03 3.525e-10
 96.51649     19.7 9.467e+03 3.069e-10
 96.55680     20.8 9.232e+03 2.251e-10
 96.58325     21.9 9.030e+03 1.596e-10
 96.60506     20.8 8.739e+03 1.106e-10
 96.64403     21.9 8.584e+03 8.223e-11
 96.67182     23.0 8.516e+03 7.521e-11
 96.69363     21.9 8.502e+03 7.638e-11
 96.73127     23.2 8.512e+03 7.735e-11
 96.76038     24.3 8.627e+03 8.726e-11
 96.78219     23.4 8.756e+03 1.264e-10
 96.81037     24.3 8.996e+03 1.721e-10
 96.83218     25.2 8.897e+03 1.518e-10
 96.84895     26.1 9.178e+03 2.161e-10
 96.87076     25.5 9.329e+03 2.947e-10
 96.90573     26.4 9.506e+03 3.523e-10
 96.93752     27.2 9.710e+03 4.045e-10
 96.95933     26.8 9.463e+03 3.477e-10
 96.99296     27.7 9.420e+03 3.086e-10
 97.02608     28.0 9.320e+03 2.658e-10
 97.04789     27.3 9.170e+03 2.468e-10
 97.08020     26.9 9.579e+03 2.933e-10
 97.11465     25.5 1.049e+04 5.530e-10
 97.13646     25.3 1.082e+04 7.566e-10
 97.16743     25.1 1.194e+04 1.580e-09
 97.20322     25.2 1.264e+04 2.156e-09
 97.22503     24.8 1.252e+04 1.991e-09
 97.25466     25.0 1.232e+04 1.667e-09
 97.29178     23.7 1.151e+04 9.910e-10
 97.31359     22.9 1.118e+04 8.557e-10
 97.34189     22.2 1.086e+04 7.207e-10
 97.38035     22.1 1.077e+04 7.048e-10
 97.40216     22.3 1.051e+04 6.146e-10
 97.42913     22.9 1.036e+04 5.407e-10
 97.46892     23.5 1.012e+04 4.362e-10
 97.49073     23.7 9.840e+03 3.548e-10
 97.51636     24.3 9.669e+03 3.087e-10
 97.55748     25.2 9.606e+03 2.970e-10
 97.57929     25.6 9.507e+03 2.835e-10
 97.60359     26.8 9.548e+03 2.901e-10
 97.63386     28.2 9.700e+03 3.173e-10
 97.65451     28.6 9.810e+03 3.571e-10
 97.66786     28.9 9.637e+03 3.053e-10
 97.69082     30.1 9.666e+03 3.138e-10
 97.73444     31.4 9.743e+03 3.231e-10
 97.77806     32.0 9.659e+03 2.781e-10
 97.82167     31.3 1.029e+04 3.389e-10
 97.84489     27.0 1.160e+04 6.456e-10
 97.86670     29.6 1.152e+04 4.674e-10
 97.88918     27.5 1.203e+04 9.083e-10
 97.89998     28.6 1.196e+04 6.965e-10
 97.91962     27.8 1.260e+04 1.360e-09
 97.93336     27.9 1.310e+04 2.384e-09
 97.94427     28.5 1.275e+04 1.907e-09
 97.96323     28.8 1.364e+04 3.306e-09
 97.97765     29.3 1.452e+04 4.535e-09
 97.98855     29.9 1.403e+04 3.950e-09
 98.00685     30.3 1.477e+04 4.690e-09
 98.02193     29.9 1.508e+04 4.852e-09
 98.03283     30.9 1.478e+04 4.501e-09
 98.04541     30.1 1.503e+04 4.306e-09
 98.05631     31.5 1.493e+04 4.547e-09
 98.06621     30.3 1.507e+04 4.014e-09
 98.07712     31.5 1.488e+04 4.051e-09
 98.09408     30.1 1.445e+04 3.122e-09
 98.11050     28.7 1.364e+04 2.380e-09
 98.12140     30.0 1.377e+04 2.481e-09
 98.13770     28.7 1.297e+04 1.901e-09
 98.15478     27.8 1.226e+04 1.475e-09
 98.16568     28.8 1.237e+04 1.522e-09
 98.18131     28.1 1.175e+04 1.215e-09
 98.19916     28.1 1.150e+04 1.048e-09
 98.22107     30.1 1.166e+04 1.127e-09
 98.25784     29.9 1.080e+04 7.625e-10
 98.28783     30.2 1.029e+04 5.945e-10
 98.30963     31.6 1.060e+04 6.931e-10
 98.34507     32.2 1.027e+04 5.974e-10
 98.37639     33.0 9.918e+03 4.930e-10
 98.39820     34.3 1.018e+04 5.689e-10
 98.43230     35.2 9.835e+03 4.472e-10
 98.45735     36.1 9.624e+03 3.717e-10
 98.46820     37.8 1.002e+04 5.105e-10
 98.48677     38.9 1.012e+04 5.258e-10
 98.51954     39.8 9.848e+03 4.244e-10
 98.55353     40.7 9.718e+03 3.677e-10
 98.57533     41.7 9.673e+03 3.372e-10
 98.60677     42.5 9.542e+03 2.948e-10
 98.64209     43.4 9.427e+03 2.686e-10
 98.66390     44.5 9.255e+03 2.210e-10
 98.69400     45.4 9.163e+03 2.058e-10
 98.73066     46.3 9.131e+03 1.972e-10
 98.75247     47.7 8.930e+03 1.521e-10
 98.78123     48.5 8.932e+03 1.500e-10
 98.81923     49.0 8.971e+03 1.530e-10
 98.84103     50.6 8.828e+03 1.343e-10
 98.85819     50.9 9.041e+03 1.717e-10
 98.88000     52.9 9.092e+03 1.816e-10
 98.90779     52.8 9.512e+03 2.423e-10
 98.92960     54.9 9.292e+03 2.253e-10
 98.95570     54.7 9.768e+03 2.975e-10
 98.99636     54.2 1.006e+04 3.832e-10
 99.01817     56.3 1.005e+04 3.602e-10
 99.04293     55.8 1.021e+04 4.208e-10
 99.08493     55.5 1.017e+04 4.271e-10
 99.10673     57.3 1.038e+04 4.453e-10
 99.13016     57.1 1.019e+04 4.101e-10
 99.17349     57.4 9.970e+03 2.918e-10
 99.19530     59.0 1.035e+04 4.004e-10
 99.21740     59.4 1.015e+04 2.788e-10
 99.25903     59.8 9.935e+03 2.151e-10
 99.28084     61.5 9.845e+03 1.977e-10
 99.28387     62.3 9.711e+03 1.729e-10
 99.30568     63.6 9.926e+03 2.236e-10
 99.34825     64.9 9.869e+03 2.150e-10
 99.37243     66.1 9.935e+03 2.182e-10
 99.39424     67.4 1.017e+04 2.953e-10
 99.43548     68.5 1.039e+04 3.235e-10
 99.46100     69.4 1.064e+04 3.508e-10
 99.48281     70.5 1.086e+04 4.438e-10
 99.50519     70.9 1.084e+04 4.230e-10
 99.51599     71.2 1.092e+04 4.866e-10
 99.53342     71.0 1.108e+04 5.724e-10
 99.54937     71.1 1.122e+04 6.664e-10
 99.56028     71.5 1.127e+04 7.346e-10
 99.57704     71.7 1.138e+04 8.213e-10
 99.59366     71.9 1.149e+04 8.697e-10
 99.60456     72.4 1.153e+04 9.027e-10
 99.62065     72.2 1.153e+04 8.755e-10
 99.63804     71.8 1.136e+04 7.711e-10
 99.65994     72.8 1.129e+04 7.823e-10
 99.68168     73.6 1.090e+04 5.901e-10
 99.70348     75.5 1.090e+04 5.832e-10
 99.72670     76.2 1.047e+04 4.199e-10
 99.74851     77.4 1.046e+04 4.400e-10
 99.78441     78.2 1.011e+04 3.295e-10
 99.81527     79.4 9.920e+03 2.696e-10
 99.83708     80.7 9.980e+03 3.078e-10
 99.87164     82.0 9.835e+03 2.652e-10
 99.90383     83.4 9.739e+03 2.357e-10
 99.92564     84.9 9.837e+03 2.780e-10
 99.95887     86.4 9.756e+03 2.434e-10
 99.99240     87.9 9.732e+03 2.200e-10
