# Columns:
#   distance along LOS (in CHIMPs)
#   peculiar velocity  (in km/s)
#   temperature (K)
#   HI number density
# pos=(156.858,162.635,157.47), angles=(1.31168,4.68636)
  0.00925     57.7 1.009e+04 3.473e-10
  0.02035     57.9 1.005e+04 3.487e-10
  0.04242     59.5 9.952e+03 3.194e-10
  0.08284     61.2 9.802e+03 2.654e-10
  0.12327     62.8 9.650e+03 2.057e-10
  0.15722     64.2 9.547e+03 1.826e-10
  0.17743     64.1 9.148e+03 1.381e-10
  0.20412     65.6 9.167e+03 1.428e-10
  0.24455     67.2 9.285e+03 1.757e-10
  0.28497     69.2 9.571e+03 2.568e-10
  0.31429     71.5 9.985e+03 3.775e-10
  0.33451     71.4 9.894e+03 3.613e-10
  0.35562     72.1 1.019e+04 4.724e-10
  0.37573     72.8 1.044e+04 5.932e-10
  0.39264     73.6 1.069e+04 7.336e-10
  0.40274     73.4 1.066e+04 7.302e-10
  0.41616     74.2 1.091e+04 8.545e-10
  0.43637     74.7 1.122e+04 9.819e-10
  0.45658     74.6 1.163e+04 1.157e-09
  0.47118     74.1 1.224e+04 1.531e-09
  0.48128     74.0 1.197e+04 1.382e-09
  0.49701     73.3 1.257e+04 1.863e-09
  0.51722     73.2 1.319e+04 2.580e-09
  0.53743     73.4 1.365e+04 3.255e-09
  0.54971     73.6 1.383e+04 3.416e-09
  0.55982     73.5 1.351e+04 2.902e-09
  0.57786     73.3 1.353e+04 2.846e-09
  0.59807     73.0 1.340e+04 2.535e-09
  0.61815     72.1 1.307e+04 2.042e-09
  0.62825     71.9 1.296e+04 1.976e-09
  0.63850     70.7 1.264e+04 1.602e-09
  0.65871     69.2 1.249e+04 1.391e-09
  0.67093     67.3 1.258e+04 1.417e-09
  0.68104     67.2 1.295e+04 1.603e-09
  0.69669     62.7 1.477e+04 2.376e-09
  0.70679     59.0 1.677e+04 4.355e-09
  0.71935     54.0 1.866e+04 9.570e-09
  0.73956     51.0 1.887e+04 1.504e-08
  0.75977     50.2 1.831e+04 1.429e-08
  0.77522     49.6 1.762e+04 1.126e-08
  0.78533     48.4 1.769e+04 8.847e-09
  0.80020     43.2 1.791e+04 5.448e-09
  0.82041     37.4 1.582e+04 3.434e-09
  0.84062     35.1 1.329e+04 2.404e-09
  0.85376     35.5 1.208e+04 1.753e-09
  0.86387     35.1 1.240e+04 2.149e-09
  0.88105     36.6 1.215e+04 1.382e-09
  0.90126     35.8 1.193e+04 7.924e-10
  0.92229     34.0 1.082e+04 4.055e-10
  0.94260     32.8 1.097e+04 4.555e-10
  0.97220     32.5 1.017e+04 3.617e-10
  1.01263     33.9 9.908e+03 3.417e-10
  1.05305     35.9 9.736e+03 3.122e-10
  1.07947     37.9 9.573e+03 2.778e-10
  1.09968     37.7 9.655e+03 2.857e-10
  1.13390     39.8 9.468e+03 2.567e-10
  1.17433     41.9 9.244e+03 2.297e-10
  1.21475     44.2 9.062e+03 2.013e-10
  1.23654     46.6 8.895e+03 1.670e-10
  1.25676     46.9 8.980e+03 2.003e-10
  1.29560     49.2 8.905e+03 1.709e-10
  1.33603     51.5 8.993e+03 1.753e-10
  1.37341     53.8 9.244e+03 2.096e-10
  1.39362     53.8 9.721e+03 2.921e-10
  1.40667     55.2 9.707e+03 3.057e-10
  1.42679     55.6 9.760e+03 3.302e-10
  1.44309     56.1 1.004e+04 4.357e-10
  1.45320     55.8 1.006e+04 4.344e-10
  1.46186     56.1 1.056e+04 6.319e-10
  1.47196     56.1 1.092e+04 8.184e-10
  1.48743     56.6 1.152e+04 1.175e-09
  1.50764     57.0 1.217e+04 1.665e-09
  1.52785     57.4 1.279e+04 2.255e-09
  1.54040     57.7 1.339e+04 2.894e-09
  1.55050     57.3 1.368e+04 3.187e-09
  1.56828     57.0 1.423e+04 3.702e-09
  1.58849     55.9 1.503e+04 4.615e-09
  1.60870     54.9 1.565e+04 5.842e-09
  1.61894     54.1 1.556e+04 5.924e-09
  1.62904     54.0 1.469e+04 3.784e-09
  1.64913     53.5 1.421e+04 3.220e-09
  1.66934     53.0 1.339e+04 2.445e-09
  1.68737     52.2 1.252e+04 1.737e-09
  1.69747     50.6 1.198e+04 1.425e-09
  1.70977     50.6 1.166e+04 1.276e-09
  1.72998     50.9 1.144e+04 1.128e-09
  1.75019     51.0 1.154e+04 1.029e-09
  1.76591     50.9 1.166e+04 1.030e-09
  1.77601     51.3 1.210e+04 1.426e-09
  1.79062     50.7 1.271e+04 1.608e-09
  1.81083     49.3 1.329e+04 2.097e-09
  1.83104     48.8 1.396e+04 3.096e-09
  1.84444     49.3 1.407e+04 3.417e-09
  1.85455     48.8 1.530e+04 6.172e-09
  1.87147     50.3 1.515e+04 5.762e-09
  1.89168     52.4 1.474e+04 4.202e-09
  1.91189     52.6 1.437e+04 2.347e-09
  1.92298     51.3 1.383e+04 1.051e-09
  1.93309     52.9 1.513e+04 1.741e-09
  1.95232     49.5 1.392e+04 6.455e-10
  1.97253     46.8 1.133e+04 3.501e-10
  1.99142     46.4 1.099e+04 3.394e-10
  2.00152     46.3 1.120e+04 3.564e-10
  2.02316     47.1 1.052e+04 2.798e-10
  2.06368     48.5 1.030e+04 2.416e-10
  2.10411     50.2 1.047e+04 2.537e-10
  2.13858     51.9 1.081e+04 3.144e-10
  2.15879     52.6 1.096e+04 3.355e-10
  2.18496     54.4 1.127e+04 4.404e-10
  2.21544     56.2 1.157e+04 5.890e-10
  2.23566     56.6 1.161e+04 6.074e-10
  2.26581     58.5 1.202e+04 7.995e-10
  2.29556     59.1 1.235e+04 9.921e-10
  2.30557     59.5 1.244e+04 1.060e-09
  2.31615     59.5 1.288e+04 1.340e-09
  2.33636     59.6 1.328e+04 1.712e-09
  2.35657     59.8 1.372e+04 2.288e-09
  2.37400     60.2 1.407e+04 3.019e-09
  2.38411     60.5 1.430e+04 3.181e-09
  2.39700     61.3 1.456e+04 3.784e-09
  2.41721     61.8 1.463e+04 3.865e-09
  2.43742     62.2 1.456e+04 3.694e-09
  2.45254     62.5 1.429e+04 3.106e-09
  2.46265     62.5 1.415e+04 2.833e-09
  2.47785     62.3 1.376e+04 2.280e-09
  2.50826     62.3 1.318e+04 1.707e-09
  2.54879     62.3 1.258e+04 1.245e-09
  2.58921     62.6 1.207e+04 9.262e-10
  2.60981     62.9 1.169e+04 7.057e-10
  2.63003     63.8 1.177e+04 7.581e-10
  2.67006     64.3 1.154e+04 6.601e-10
  2.70028     64.8 1.151e+04 6.757e-10
  2.72040     65.4 1.139e+04 6.368e-10
  2.74061     66.2 1.123e+04 5.636e-10
  2.75659     66.9 1.113e+04 4.788e-10
  2.76669     67.5 1.120e+04 5.390e-10
  2.78104     68.1 1.112e+04 4.472e-10
  2.80125     68.2 1.112e+04 4.003e-10
  2.82146     68.3 1.116e+04 4.044e-10
  2.83513     68.0 1.133e+04 4.445e-10
  2.84523     69.1 1.133e+04 4.633e-10
  2.86189     68.8 1.151e+04 5.649e-10
  2.88210     69.0 1.163e+04 7.558e-10
  2.90231     69.7 1.169e+04 1.005e-09
  2.91367     70.8 1.192e+04 1.249e-09
  2.92377     71.5 1.192e+04 1.230e-09
  2.94274     72.4 1.219e+04 1.341e-09
  2.96295     72.6 1.223e+04 1.332e-09
  2.98210     73.0 1.212e+04 1.223e-09
  2.99220     73.7 1.213e+04 1.228e-09
  2.99751     73.8 1.203e+04 1.151e-09
  3.00762     74.0 1.185e+04 1.017e-09
  3.03379     73.7 1.193e+04 1.072e-09
  3.06073     74.9 1.176e+04 9.623e-10
  3.08095     76.2 1.190e+04 1.032e-09
  3.10454     76.1 1.198e+04 9.948e-10
  3.12465     75.7 1.246e+04 1.074e-09
  3.13918     75.3 1.288e+04 1.352e-09
  3.14928     76.6 1.253e+04 1.151e-09
  3.16508     76.5 1.285e+04 1.397e-09
  3.18529     76.6 1.293e+04 1.557e-09
  3.20550     76.8 1.288e+04 1.535e-09
  3.21771     76.9 1.276e+04 1.373e-09
  3.22782     78.0 1.275e+04 1.328e-09
  3.24593     77.8 1.266e+04 1.121e-09
  3.26614     77.1 1.253e+04 9.217e-10
  3.28615     76.2 1.219e+04 8.072e-10
  3.29625     77.5 1.241e+04 8.761e-10
  3.30656     76.7 1.207e+04 8.606e-10
  3.32678     76.5 1.179e+04 8.694e-10
  3.34699     76.8 1.158e+04 8.474e-10
  3.36468     77.3 1.143e+04 7.767e-10
  3.37479     78.1 1.188e+04 1.086e-09
  3.38741     78.5 1.181e+04 1.003e-09
  3.40763     78.7 1.178e+04 8.337e-10
  3.42784     78.5 1.176e+04 6.677e-10
  3.44322     78.1 1.168e+04 5.503e-10
  3.45333     79.1 1.229e+04 9.290e-10
  3.46827     78.4 1.218e+04 7.960e-10
  3.48848     77.7 1.204e+04 7.830e-10
  3.50869     77.1 1.202e+04 8.207e-10
  3.52176     76.8 1.204e+04 9.426e-10
  3.53187     77.1 1.267e+04 1.354e-09
  3.54912     76.9 1.273e+04 1.540e-09
  3.56933     77.1 1.290e+04 1.772e-09
  3.58954     77.2 1.309e+04 1.918e-09
  3.60030     77.1 1.317e+04 1.933e-09
  3.61041     77.3 1.342e+04 2.141e-09
  3.64017     77.0 1.314e+04 1.943e-09
  3.66893     77.2 1.252e+04 1.353e-09
  3.68914     77.5 1.252e+04 1.324e-09
  3.72112     78.2 1.178e+04 7.983e-10
  3.75976     79.3 1.114e+04 4.327e-10
  3.77997     80.7 1.138e+04 5.474e-10
  3.80197     81.8 1.097e+04 3.419e-10
  3.82600     83.0 1.071e+04 2.112e-10
  3.84622     83.7 1.090e+04 2.837e-10
  3.88282     85.1 1.067e+04 1.849e-10
  3.92324     86.5 1.048e+04 1.433e-10
  3.96287     88.1 1.036e+04 1.309e-10
  3.98308     88.7 1.044e+04 1.335e-10
  4.00410     90.4 1.030e+04 1.253e-10
  4.04452     92.3 1.021e+04 1.233e-10
  4.08495     94.3 1.017e+04 1.216e-10
  4.11995     96.2 1.022e+04 1.155e-10
  4.14016     96.7 1.022e+04 1.109e-10
  4.16580     98.6 1.026e+04 1.049e-10
  4.20622    100.4 1.027e+04 1.046e-10
  4.24665    102.2 1.029e+04 1.070e-10
  4.27702    103.9 1.034e+04 1.156e-10
  4.29724    104.5 1.035e+04 1.149e-10
  4.32750    106.2 1.042e+04 1.315e-10
  4.36792    107.9 1.048e+04 1.415e-10
  4.40835    109.4 1.048e+04 1.406e-10
  4.43410    110.9 1.045e+04 1.343e-10
  4.45431    111.4 1.046e+04 1.411e-10
  4.48920    112.8 1.038e+04 1.259e-10
  4.52962    113.9 1.024e+04 1.126e-10
  4.57005    115.0 1.013e+04 1.108e-10
  4.59118    116.1 1.011e+04 1.124e-10
  4.61139    116.8 1.011e+04 1.135e-10
  4.65090    117.7 1.007e+04 1.218e-10
  4.69132    118.6 1.006e+04 1.398e-10
  4.72804    119.3 1.008e+04 1.648e-10
  4.74826    120.1 1.009e+04 1.661e-10
  4.77218    120.6 1.013e+04 1.952e-10
  4.81260    120.9 1.017e+04 2.284e-10
  4.85303    121.0 1.019e+04 2.674e-10
  4.88512    121.1 1.014e+04 2.852e-10
  4.90533    122.1 1.022e+04 3.033e-10
  4.93388    122.2 1.019e+04 3.039e-10
  4.97430    122.4 1.008e+04 2.868e-10
  5.01473    122.6 9.899e+03 2.339e-10
  5.04220    122.8 9.737e+03 1.732e-10
  5.06241    123.6 9.923e+03 2.288e-10
  5.09558    123.7 9.751e+03 1.647e-10
  5.13600    123.7 9.519e+03 1.372e-10
  5.17643    124.0 9.439e+03 1.370e-10
  5.19927    124.7 9.402e+03 1.394e-10
  5.21949    125.0 9.540e+03 1.573e-10
  5.25728    125.9 9.487e+03 1.703e-10
  5.29770    127.0 9.492e+03 1.921e-10
  5.32428    128.0 9.510e+03 2.067e-10
  5.34250    128.5 9.542e+03 2.133e-10
  5.35635    128.5 9.724e+03 2.465e-10
  5.37855    129.5 9.717e+03 2.464e-10
  5.41898    130.5 9.654e+03 2.381e-10
  5.45940    131.5 9.553e+03 2.160e-10
  5.49322    132.6 9.436e+03 1.849e-10
  5.51343    132.6 9.524e+03 1.920e-10
  5.54026    133.6 9.385e+03 1.565e-10
  5.58068    134.7 9.225e+03 1.315e-10
  5.62111    135.9 9.124e+03 1.262e-10
  5.65029    137.3 9.126e+03 1.270e-10
  5.67051    137.3 9.156e+03 1.293e-10
  5.70196    138.7 9.191e+03 1.360e-10
  5.74238    139.9 9.270e+03 1.517e-10
  5.78281    141.2 9.363e+03 1.728e-10
  5.80737    142.4 9.443e+03 1.961e-10
  5.82758    142.3 9.451e+03 1.921e-10
  5.86366    143.5 9.536e+03 2.089e-10
  5.90408    144.7 9.619e+03 2.195e-10
  5.94423    145.9 9.669e+03 2.202e-10
  5.96445    145.9 9.520e+03 1.647e-10
  5.98493    147.1 9.499e+03 1.461e-10
  6.02536    148.2 9.437e+03 1.264e-10
  6.06578    149.3 9.321e+03 1.122e-10
  6.10131    150.4 9.259e+03 1.101e-10
  6.12152    150.5 9.052e+03 8.456e-11
  6.14663    151.6 9.025e+03 9.821e-11
  6.18706    152.7 9.167e+03 1.292e-10
  6.22748    153.8 9.410e+03 1.811e-10
  6.25839    154.7 9.708e+03 2.542e-10
  6.27860    155.1 9.700e+03 2.537e-10
  6.30834    155.5 9.973e+03 3.351e-10
  6.34876    155.5 1.015e+04 3.943e-10
  6.38919    155.2 1.028e+04 4.240e-10
  6.41547    154.5 1.036e+04 4.301e-10
  6.43568    155.1 1.007e+04 3.501e-10
  6.47004    154.2 9.955e+03 3.067e-10
  6.51046    153.4 9.936e+03 2.998e-10
  6.55089    152.9 1.002e+04 3.121e-10
  6.57244    152.5 1.007e+04 3.187e-10
  6.58245    153.1 9.850e+03 2.683e-10
  6.60122    152.4 1.010e+04 3.164e-10
  6.62144    150.9 1.062e+04 4.614e-10
  6.64078    149.0 1.149e+04 8.181e-10
  6.65089    149.9 1.127e+04 6.794e-10
  6.66186    147.8 1.244e+04 1.371e-09
  6.68207    146.3 1.348e+04 2.548e-09
  6.70229    145.1 1.420e+04 3.582e-09
  6.71932    143.7 1.433e+04 3.630e-09
  6.72942    144.5 1.465e+04 4.165e-09
  6.74271    143.2 1.453e+04 3.862e-09
  6.76292    141.9 1.396e+04 2.722e-09
  6.78314    139.9 1.289e+04 1.439e-09
  6.79786    136.8 1.131e+04 6.607e-10
  6.80796    138.0 1.174e+04 7.312e-10
  6.82356    133.8 9.872e+03 3.754e-10
  6.84377    131.9 9.415e+03 3.439e-10
  6.86399    131.8 9.405e+03 3.438e-10
  6.87640    131.7 9.413e+03 3.474e-10
  6.88081    131.7 9.479e+03 3.756e-10
  6.88861    132.3 9.323e+03 3.432e-10
  6.90441    132.0 9.408e+03 3.593e-10
  6.92463    131.7 9.557e+03 3.907e-10
  6.94483    131.3 9.754e+03 4.477e-10
  6.96504    130.6 1.012e+04 6.022e-10
  6.98526    130.5 1.030e+04 7.040e-10
  7.00548    130.4 1.045e+04 8.046e-10
  7.02337    130.3 1.054e+04 8.648e-10
  7.03347    129.9 1.053e+04 8.548e-10
  7.04590    129.9 1.050e+04 8.364e-10
  7.06611    129.9 1.037e+04 7.729e-10
  7.08633    129.8 1.017e+04 6.730e-10
  7.10190    129.6 9.933e+03 5.655e-10
  7.11201    128.9 9.684e+03 4.925e-10
  7.12675    128.6 9.464e+03 4.297e-10
  7.14696    128.3 9.291e+03 4.064e-10
  7.16718    128.4 9.278e+03 4.062e-10
  7.18044    128.6 9.339e+03 4.155e-10
  7.19055    128.3 9.355e+03 4.214e-10
  7.20760    128.0 9.596e+03 4.738e-10
  7.22781    127.0 1.035e+04 6.689e-10
  7.24803    124.6 1.195e+04 1.221e-09
  7.25898    122.4 1.362e+04 2.508e-09
  7.26909    121.4 1.438e+04 3.438e-09
  7.28845    121.5 1.588e+04 6.726e-09
  7.30867    121.8 1.713e+04 1.064e-08
  7.32741    121.2 1.759e+04 1.131e-08
  7.33752    119.6 1.756e+04 1.101e-08
  7.34909    118.6 1.737e+04 9.909e-09
  7.36930    117.6 1.678e+04 7.297e-09
  7.38952    115.9 1.593e+04 4.952e-09
  7.40595    113.6 1.496e+04 3.674e-09
  7.41606    111.2 1.436e+04 3.244e-09
  7.42994    110.4 1.429e+04 3.269e-09
  7.45015    109.9 1.448e+04 3.497e-09
  7.47037    109.3 1.499e+04 4.101e-09
  7.48449    108.7 1.562e+04 5.088e-09
  7.49460    107.3 1.504e+04 4.244e-09
  7.51079    106.8 1.545e+04 4.904e-09
  7.53100    106.2 1.592e+04 5.356e-09
  7.55122    105.3 1.621e+04 5.284e-09
  7.56303    104.1 1.630e+04 4.751e-09
  7.57314    102.3 1.497e+04 4.044e-09
  7.59164    100.8 1.471e+04 3.489e-09
  7.61185     99.3 1.424e+04 2.669e-09
  7.63146     98.0 1.356e+04 1.920e-09
  7.64157     97.9 1.332e+04 1.840e-09
  7.65066     97.0 1.266e+04 1.369e-09
  7.66077     97.6 1.341e+04 2.092e-09
  7.68270     96.6 1.231e+04 1.171e-09
  7.72322     95.7 1.152e+04 8.001e-10
  7.76364     95.8 1.148e+04 7.634e-10
  7.78873     95.9 1.166e+04 8.056e-10
  7.80895     95.3 1.158e+04 8.058e-10
  7.83429     94.6 1.189e+04 8.891e-10
  7.85441     94.0 1.202e+04 9.450e-10
  7.86708     93.1 1.237e+04 1.126e-09
  7.87718     92.8 1.236e+04 1.151e-09
  7.89483     92.4 1.253e+04 1.293e-09
  7.91504     91.9 1.265e+04 1.317e-09
  7.93526     91.4 1.259e+04 1.289e-09
  7.94562     91.1 1.232e+04 1.123e-09
  7.96593     90.8 1.253e+04 1.185e-09
  8.00620     89.3 1.180e+04 7.319e-10
  8.04662     87.3 1.084e+04 4.155e-10
  8.08268     85.5 1.024e+04 2.822e-10
  8.10289     84.1 1.026e+04 3.082e-10
  8.12747     83.2 1.005e+04 2.477e-10
  8.16790     82.4 9.961e+03 1.877e-10
  8.20832     80.9 9.949e+03 1.577e-10
  8.23975     79.0 9.956e+03 1.638e-10
  8.25997     77.9 9.840e+03 1.625e-10
  8.28917     76.1 9.963e+03 2.148e-10
  8.32960     74.9 1.004e+04 2.784e-10
  8.37002     73.9 1.001e+04 2.777e-10
  8.39683     73.1 9.810e+03 2.338e-10
  8.41704     72.7 9.843e+03 2.377e-10
  8.43312     71.8 9.562e+03 1.500e-10
  8.45334     72.4 9.561e+03 1.490e-10
  8.49130     71.0 9.314e+03 1.003e-10
  8.53172     69.9 9.177e+03 9.857e-11
  8.55391     69.3 9.146e+03 1.119e-10
  8.57412     69.0 9.092e+03 9.823e-11
  8.61258     69.1 9.126e+03 1.212e-10
  8.65300     69.5 9.155e+03 1.251e-10
  8.69077     69.9 9.131e+03 1.172e-10
  8.71098     69.8 9.086e+03 9.137e-11
  8.73385     69.8 9.064e+03 7.509e-11
  8.77428     69.7 9.092e+03 6.605e-11
  8.81470     69.8 9.093e+03 6.852e-11
  8.84785     70.1 9.152e+03 7.916e-11
  8.86806     69.6 9.254e+03 8.643e-11
  8.89555     69.1 9.654e+03 1.494e-10
  8.93598     68.2 1.054e+04 3.697e-10
  8.97640     67.0 1.184e+04 9.070e-10
  9.00493     65.4 1.299e+04 1.713e-09
  9.02514     64.7 1.283e+04 1.580e-09
  9.05725     62.1 1.301e+04 1.767e-09
  9.08337     60.4 1.316e+04 1.879e-09
  9.09338     60.1 1.301e+04 1.776e-09
  9.10759     59.2 1.281e+04 1.654e-09
  9.12780     58.4 1.256e+04 1.482e-09
  9.14801     57.5 1.238e+04 1.283e-09
  9.16181     56.2 1.226e+04 1.122e-09
  9.17191     56.8 1.213e+04 1.054e-09
  9.18844     55.6 1.204e+04 1.026e-09
  9.20508     54.7 1.203e+04 1.053e-09
  9.21519     55.6 1.220e+04 1.210e-09
  9.22887     54.9 1.235e+04 1.344e-09
  9.24035     52.9 1.319e+04 1.781e-09
  9.25045     53.9 1.314e+04 1.773e-09
  9.26929     50.6 1.494e+04 3.192e-09
  9.28950     49.2 1.559e+04 5.495e-09
  9.30878     49.8 1.533e+04 5.447e-09
  9.31889     50.4 1.590e+04 6.540e-09
  9.32993     51.0 1.557e+04 5.768e-09
  9.35014     50.8 1.529e+04 4.094e-09
  9.37035     48.9 1.483e+04 2.541e-09
  9.38732     45.6 1.357e+04 1.593e-09
  9.39742     46.1 1.393e+04 1.897e-09
  9.41078     43.4 1.258e+04 1.387e-09
  9.43099     42.7 1.191e+04 1.246e-09
  9.45120     42.7 1.169e+04 1.184e-09
  9.46586     42.8 1.157e+04 1.140e-09
  9.47596     42.8 1.182e+04 1.283e-09
  9.49163     42.7 1.169e+04 1.179e-09
  9.51184     42.7 1.167e+04 1.171e-09
  9.54226     43.2 1.175e+04 1.208e-09
  9.58278     43.5 1.178e+04 1.135e-09
  9.61302     43.9 1.166e+04 1.043e-09
  9.63323     43.5 1.160e+04 1.005e-09
  9.66363     44.0 1.154e+04 9.732e-10
  9.70406     44.5 1.168e+04 1.039e-09
  9.74448     45.2 1.203e+04 1.208e-09
  9.77010     45.7 1.244e+04 1.411e-09
  9.79031     45.8 1.164e+04 8.961e-10
  9.82533     45.9 1.206e+04 1.140e-09
  9.86576     46.0 1.260e+04 1.541e-09
  9.89598     45.9 1.267e+04 1.562e-09
  9.91609     46.1 1.268e+04 1.625e-09
  9.92698     46.1 1.291e+04 1.703e-09
  9.93709     45.8 1.290e+04 1.772e-09
  9.95652     45.9 1.291e+04 1.837e-09
  9.97673     46.2 1.286e+04 1.780e-09
  9.98735     46.5 1.276e+04 1.725e-09
  9.99755     46.1 1.203e+04 1.186e-09
 10.02746     47.5 1.154e+04 9.317e-10
 10.06404     49.0 1.092e+04 5.861e-10
 10.08425     48.7 1.092e+04 5.373e-10
 10.10831     48.9 1.054e+04 3.223e-10
 10.14874     49.6 1.026e+04 2.733e-10
 10.18916     50.8 1.035e+04 2.906e-10
 10.22112     51.6 1.070e+04 3.940e-10
 10.24133     50.6 1.041e+04 2.458e-10
 10.27001     51.0 1.109e+04 4.437e-10
 10.31044     51.3 1.217e+04 9.116e-10
 10.35086     51.0 1.307e+04 1.538e-09
 10.37810     49.8 1.330e+04 1.724e-09
 10.39831     49.0 1.319e+04 1.491e-09
 10.42151     48.1 1.353e+04 1.538e-09
 10.44162     47.5 1.358e+04 1.449e-09
 10.45654     46.8 1.328e+04 1.192e-09
 10.46664     45.8 1.280e+04 1.032e-09
 10.48205     44.6 1.242e+04 8.429e-10
 10.50226     43.6 1.204e+04 6.640e-10
 10.52247     40.8 1.207e+04 5.559e-10
 10.53508     38.6 1.284e+04 6.462e-10
 10.54518     38.0 1.288e+04 6.216e-10
 10.56290     33.5 1.364e+04 7.846e-10
 10.58311     29.7 1.436e+04 1.227e-09
 10.60332     26.7 1.466e+04 3.311e-09
 10.61362     24.9 1.603e+04 7.154e-09
 10.62372     23.5 1.608e+04 7.294e-09
 10.64375     22.7 1.735e+04 1.109e-08
 10.66396     21.0 1.736e+04 1.131e-08
 10.68205     20.4 1.618e+04 7.221e-09
 10.69215     21.8 1.594e+04 7.939e-09
 10.70439     19.9 1.523e+04 3.807e-09
 10.72460     16.7 1.394e+04 1.705e-09
 10.74481     13.8 1.351e+04 8.626e-10
 10.75950     11.1 1.268e+04 5.633e-10
 10.76517      9.2 1.159e+04 4.659e-10
 10.77069      9.4 1.140e+04 4.556e-10
 10.79544      8.5 1.160e+04 4.438e-10
 10.82921      6.5 1.173e+04 4.827e-10
 10.84943      7.1 1.177e+04 4.950e-10
 10.86619      5.2 1.194e+04 6.467e-10
 10.88630      4.5 1.201e+04 8.039e-10
 10.90651      4.2 1.218e+04 9.320e-10
 10.91766      3.8 1.242e+04 9.677e-10
 10.92777      4.1 1.241e+04 1.007e-09
 10.94694      3.2 1.252e+04 9.727e-10
 10.96715      2.1 1.234e+04 8.635e-10
 10.98610      0.8 1.217e+04 8.158e-10
 10.99620      1.5 1.205e+04 8.068e-10
 11.00758      0.8 1.207e+04 7.971e-10
 11.02779      0.3 1.236e+04 8.476e-10
 11.04800     -0.2 1.260e+04 9.376e-10
 11.06463     -0.5 1.273e+04 1.050e-09
 11.07474     -0.1 1.264e+04 9.346e-10
 11.08843     -0.6 1.276e+04 1.085e-09
 11.10864     -1.5 1.315e+04 1.321e-09
 11.12885     -3.5 1.414e+04 1.825e-09
 11.14317     -6.1 1.525e+04 2.921e-09
 11.15328     -6.0 1.511e+04 2.900e-09
 11.16928     -7.5 1.587e+04 4.683e-09
 11.18949     -7.9 1.637e+04 6.888e-09
 11.20970     -8.0 1.682e+04 8.346e-09
 11.22171     -8.6 1.703e+04 8.587e-09
 11.23182     -9.6 1.674e+04 6.404e-09
 11.25013    -12.5 1.682e+04 5.616e-09
 11.27034    -15.9 1.604e+04 4.815e-09
 11.29014    -17.7 1.510e+04 4.428e-09
 11.30025    -17.7 1.477e+04 4.073e-09
 11.31077    -17.6 1.443e+04 3.770e-09
 11.33098    -17.0 1.411e+04 3.068e-09
 11.35119    -16.6 1.402e+04 2.067e-09
 11.36868    -17.4 1.400e+04 1.194e-09
 11.37879    -18.8 1.373e+04 8.312e-10
 11.40182    -19.7 1.323e+04 5.886e-10
 11.43214    -19.7 1.219e+04 4.463e-10
 11.44722    -19.8 1.150e+04 3.636e-10
 11.45733    -20.7 1.092e+04 3.223e-10
 11.47247    -21.0 1.043e+04 2.834e-10
 11.49268    -21.0 1.033e+04 2.672e-10
 11.52165    -21.1 1.027e+04 2.613e-10
 11.54186    -19.2 1.038e+04 2.792e-10
 11.55332    -19.1 1.038e+04 2.682e-10
 11.57353    -19.3 1.030e+04 2.581e-10
 11.59374    -19.5 1.031e+04 2.655e-10
 11.60430    -19.9 1.021e+04 2.733e-10
 11.61440    -20.3 1.017e+04 2.832e-10
 11.63417    -20.5 1.028e+04 3.602e-10
 11.65438    -20.2 1.048e+04 4.556e-10
 11.67273    -19.7 1.075e+04 5.564e-10
 11.68284    -19.9 1.096e+04 6.576e-10
 11.69481    -19.5 1.125e+04 7.900e-10
 11.71502    -19.1 1.147e+04 8.981e-10
 11.73523    -18.7 1.158e+04 9.615e-10
 11.75127    -18.4 1.160e+04 9.815e-10
 11.76137    -18.5 1.195e+04 1.225e-09
 11.77566    -18.2 1.193e+04 1.224e-09
 11.79587    -17.8 1.187e+04 1.176e-09
 11.81608    -17.4 1.187e+04 1.133e-09
 11.82981    -17.3 1.191e+04 1.122e-09
 11.83991    -17.6 1.206e+04 1.206e-09
 11.85651    -17.5 1.204e+04 1.161e-09
 11.87672    -17.5 1.213e+04 1.179e-09
 11.89693    -17.5 1.251e+04 1.311e-09
 11.90835    -17.8 1.322e+04 1.575e-09
 11.91845    -17.6 1.260e+04 1.150e-09
 11.93736    -18.2 1.344e+04 1.336e-09
 11.95757    -19.3 1.427e+04 1.762e-09
 11.97678    -20.1 1.473e+04 2.450e-09
 11.98688    -20.0 1.339e+04 1.400e-09
 11.99800    -20.3 1.375e+04 1.832e-09
 12.01821    -20.7 1.431e+04 2.264e-09
 12.03842    -21.3 1.574e+04 2.743e-09
 12.05532    -22.4 1.716e+04 3.472e-09
 12.06542    -24.4 1.750e+04 3.521e-09
 12.07885    -25.8 1.795e+04 4.708e-09
 12.09906    -26.9 1.798e+04 5.854e-09
 12.11927    -27.5 1.788e+04 6.834e-09
 12.13385    -27.5 1.790e+04 7.772e-09
 12.14396    -27.4 1.704e+04 9.025e-09
 12.15970    -27.5 1.750e+04 9.040e-09
 12.17991    -27.9 1.793e+04 9.405e-09
 12.20012    -28.6 1.850e+04 1.023e-08
 12.21239    -29.6 1.899e+04 1.159e-08
 12.22250    -29.5 1.797e+04 9.593e-09
 12.24055    -30.5 1.842e+04 1.087e-08
 12.26076    -31.2 1.884e+04 1.261e-08
 12.28083    -31.5 1.909e+04 1.417e-08
 12.29093    -31.7 1.794e+04 9.626e-09
 12.30119    -31.8 1.807e+04 1.080e-08
 12.31392    -31.7 1.808e+04 1.147e-08
 12.32403    -30.5 1.811e+04 1.076e-08
 12.34161    -30.5 1.807e+04 1.126e-08
 12.35936    -30.4 1.799e+04 1.130e-08
 12.36947    -30.0 1.680e+04 7.950e-09
 12.38204    -29.3 1.651e+04 7.486e-09
 12.40225    -28.4 1.624e+04 6.447e-09
 12.42246    -27.7 1.592e+04 5.314e-09
 12.43790    -27.0 1.549e+04 4.187e-09
 12.44801    -27.5 1.422e+04 2.127e-09
 12.46289    -27.1 1.382e+04 1.723e-09
 12.48310    -26.7 1.347e+04 1.468e-09
 12.50331    -26.2 1.314e+04 1.309e-09
 12.51644    -25.5 1.290e+04 1.221e-09
 12.52655    -25.9 1.226e+04 9.985e-10
 12.54374    -25.0 1.225e+04 1.045e-09
 12.56395    -24.1 1.226e+04 1.115e-09
 12.58416    -23.1 1.233e+04 1.191e-09
 12.59498    -22.0 1.243e+04 1.263e-09
 12.60509    -22.0 1.245e+04 1.272e-09
 12.62459    -21.0 1.252e+04 1.314e-09
 12.64480    -20.1 1.253e+04 1.325e-09
 12.66341    -19.2 1.251e+04 1.275e-09
 12.67352    -19.3 1.245e+04 1.206e-09
 12.68523    -18.5 1.238e+04 1.070e-09
 12.70544    -17.8 1.232e+04 9.327e-10
 12.72565    -17.2 1.223e+04 8.102e-10
 12.74195    -16.6 1.212e+04 7.165e-10
 12.75206    -17.1 1.191e+04 6.259e-10
 12.76608    -16.6 1.175e+04 5.803e-10
 12.78629    -16.0 1.165e+04 5.633e-10
 12.80650    -15.3 1.159e+04 5.579e-10
 12.82049    -14.3 1.165e+04 5.756e-10
 12.83060    -14.9 1.157e+04 5.568e-10
 12.84693    -13.9 1.163e+04 5.608e-10
 12.86714    -13.1 1.160e+04 5.526e-10
 12.88735    -12.1 1.167e+04 5.616e-10
 12.89903    -11.4 1.169e+04 5.661e-10
 12.90913    -12.5 1.167e+04 5.560e-10
 12.92778    -11.8 1.172e+04 5.670e-10
 12.94799    -11.2 1.187e+04 6.018e-10
 12.96746    -10.7 1.207e+04 6.625e-10
 12.97757    -12.7 1.215e+04 7.045e-10
 12.98841    -12.5 1.234e+04 8.180e-10
 13.00863    -12.4 1.254e+04 9.977e-10
 13.02884    -12.2 1.275e+04 1.244e-09
 13.04600    -12.0 1.307e+04 1.504e-09
 13.05611    -13.9 1.286e+04 1.425e-09
 13.06927    -13.7 1.300e+04 1.528e-09
 13.08608    -13.9 1.303e+04 1.525e-09
 13.09619    -12.6 1.316e+04 1.563e-09
 13.10969    -13.0 1.303e+04 1.472e-09
 13.12454    -13.4 1.282e+04 1.384e-09
 13.14485    -16.0 1.202e+04 9.893e-10
 13.18063    -16.9 1.157e+04 9.115e-10
 13.22106    -16.9 1.125e+04 8.575e-10
 13.26148    -16.1 1.087e+04 7.466e-10
 13.30191    -15.1 1.006e+04 4.594e-10
 13.34233    -13.4 9.652e+03 3.425e-10
 13.38276    -11.5 9.340e+03 2.636e-10
 13.41867     -9.4 9.127e+03 2.144e-10
 13.43889     -9.5 8.857e+03 1.643e-10
 13.46361     -7.2 8.749e+03 1.405e-10
 13.50403     -5.0 8.723e+03 1.295e-10
 13.54446     -2.8 8.768e+03 1.275e-10
 13.57575     -1.0 8.935e+03 1.473e-10
 13.59596     -1.2 8.682e+03 1.278e-10
 13.62531      0.5 8.863e+03 1.587e-10
 13.66573      2.4 9.085e+03 2.242e-10
 13.70616      4.7 9.352e+03 3.190e-10
 13.73283      7.1 9.621e+03 4.059e-10
 13.75304      6.7 9.215e+03 2.766e-10
 13.78701      8.6 9.373e+03 3.090e-10
 13.82743     10.2 9.505e+03 3.408e-10
 13.86786     11.8 9.643e+03 3.955e-10
 13.88991     13.5 9.733e+03 4.447e-10
 13.91012     13.2 9.473e+03 3.640e-10
 13.94871     14.8 9.781e+03 4.578e-10
 13.98914     16.5 1.009e+04 5.965e-10
 14.02677     18.5 1.036e+04 6.813e-10
 14.04698     18.3 1.019e+04 6.820e-10
 14.06999     20.2 1.031e+04 6.927e-10
 14.11041     21.7 1.032e+04 6.289e-10
 14.15084     22.5 1.048e+04 6.144e-10
 14.18385     22.8 1.078e+04 7.041e-10
 14.20406     23.0 1.055e+04 6.418e-10
 14.23169     24.1 1.086e+04 8.279e-10
 14.27211     25.5 1.084e+04 8.731e-10
 14.31254     27.5 1.045e+04 7.269e-10
 14.34092     29.5 9.851e+03 4.822e-10
 14.36114     30.1 9.686e+03 4.313e-10
 14.39339     31.3 9.228e+03 2.936e-10
 14.43381     32.5 8.790e+03 2.262e-10
 14.47424     34.3 8.459e+03 2.049e-10
 14.49800     36.7 8.293e+03 1.872e-10
 14.51821     37.4 8.537e+03 2.274e-10
 14.55509     40.1 8.514e+03 2.302e-10
 14.59551     43.0 8.451e+03 2.219e-10
 14.63059     46.0 8.495e+03 2.242e-10
 14.64973     45.0 8.886e+03 2.965e-10
 14.65508     46.2 9.385e+03 4.091e-10
 14.67637     48.7 9.711e+03 4.667e-10
 14.70659     51.2 9.761e+03 4.693e-10
 14.72332     52.3 9.886e+03 5.008e-10
 14.73342     52.9 1.000e+04 5.384e-10
 14.74691     54.3 1.025e+04 6.205e-10
 14.76713     55.8 1.054e+04 7.209e-10
 14.78734     57.1 1.084e+04 8.333e-10
 14.80185     58.3 1.121e+04 9.579e-10
 14.81196     59.6 1.120e+04 9.503e-10
 14.82776     60.4 1.148e+04 1.067e-09
 14.84798     58.9 1.415e+04 1.152e-09
 14.86819     31.8 4.444e+04 2.876e-09
 14.88034     15.6 3.664e+04 2.615e-08
 14.88535     19.1 4.092e+04 1.705e-08
 14.89336      9.0 2.487e+04 9.401e-08
 14.90346      4.5 2.293e+04 1.363e-07
 14.91357     -3.4 3.217e+04 4.950e-08
 14.91956    -21.0 5.586e+04 2.877e-09
 14.92462    -12.4 5.222e+04 6.369e-09
 14.93378    -39.3 4.819e+04 9.394e-10
 14.94878    -59.9 1.824e+04 5.846e-10
 14.95893    -52.8 3.799e+04 6.811e-10
 14.96925    -68.8 1.178e+04 7.007e-10
 14.98947    -70.3 1.085e+04 7.377e-10
 15.00968    -69.8 1.091e+04 7.908e-10
 15.02736    -69.3 1.119e+04 8.491e-10
 15.03747    -71.8 1.239e+04 1.199e-09
 15.05010    -71.8 1.302e+04 1.426e-09
 15.07032    -72.1 1.363e+04 1.793e-09
 15.09053    -72.4 1.407e+04 2.323e-09
 15.10590    -72.5 1.437e+04 2.987e-09
 15.11601    -73.3 1.477e+04 3.876e-09
 15.13095    -72.7 1.490e+04 4.441e-09
 15.15117    -72.2 1.508e+04 4.783e-09
 15.17138    -72.0 1.521e+04 4.889e-09
 15.18444    -72.2 1.540e+04 4.758e-09
 15.19455    -74.6 1.680e+04 5.718e-09
 15.21180    -75.9 1.673e+04 5.223e-09
 15.23202    -77.2 1.607e+04 4.538e-09
 15.25223    -77.9 1.514e+04 3.855e-09
 15.26298    -78.2 1.426e+04 3.272e-09
 15.27309    -78.9 1.455e+04 3.955e-09
 15.29265    -78.4 1.389e+04 3.318e-09
 15.31287    -77.7 1.334e+04 2.781e-09
 15.33141    -77.1 1.285e+04 2.330e-09
 15.34152    -77.3 1.292e+04 2.347e-09
 15.35329    -76.7 1.242e+04 1.932e-09
 15.37351    -76.1 1.202e+04 1.604e-09
 15.39372    -75.6 1.167e+04 1.350e-09
 15.40995    -75.0 1.142e+04 1.198e-09
 15.42015    -75.7 1.160e+04 1.270e-09
 15.44445    -73.6 1.109e+04 1.022e-09
 15.48487    -71.7 1.089e+04 9.065e-10
 15.51509    -69.7 1.099e+04 9.401e-10
 15.53521    -68.8 1.095e+04 9.229e-10
 15.55542    -68.0 1.097e+04 9.161e-10
 15.56703    -67.7 1.097e+04 9.829e-10
 15.57713    -68.5 1.132e+04 1.154e-09
 15.59584    -73.2 1.666e+04 2.328e-09
 15.60625    -76.2 1.863e+04 3.502e-09
 15.61125    -77.5 1.910e+04 4.115e-09
 15.62101    -79.6 2.099e+04 5.659e-09
 15.63112    -84.2 2.241e+04 1.188e-08
 15.64041    -87.1 2.296e+04 2.638e-08
 15.64547    -86.5 2.139e+04 3.634e-08
 15.65133    -87.4 2.169e+04 7.384e-08
 15.66144    -87.6 2.218e+04 1.211e-07
 15.67154    -89.0 2.243e+04 1.436e-07
 15.67968    -91.0 2.242e+04 1.478e-07
 15.68474    -90.0 2.194e+04 1.096e-07
 15.69176    -90.5 2.178e+04 8.784e-08
 15.70186    -90.4 2.202e+04 6.355e-08
 15.71197    -90.9 2.300e+04 4.307e-08
 15.71895    -92.4 2.365e+04 2.956e-08
 15.72401    -93.6 2.247e+04 1.597e-08
 15.73728    -97.0 2.059e+04 1.125e-08
 15.75755    -99.1 1.903e+04 9.769e-09
 15.77776   -100.1 1.853e+04 9.434e-09
 15.79254   -100.3 1.789e+04 1.041e-08
 15.80264   -100.8 1.687e+04 7.338e-09
 15.81818   -100.1 1.709e+04 8.329e-09
 15.83840    -99.4 1.719e+04 9.000e-09
 15.85861    -98.9 1.720e+04 9.420e-09
 15.87108    -98.4 1.720e+04 9.789e-09
 15.88118    -98.3 1.634e+04 5.154e-09
 15.89903    -98.0 1.639e+04 5.091e-09
 15.91925    -98.0 1.641e+04 5.072e-09
 15.93946    -99.2 1.748e+04 4.941e-09
 15.95967   -119.7 3.136e+04 6.323e-09
 15.97478   -122.9 2.898e+04 1.590e-08
 15.98373   -125.3 2.463e+04 3.812e-08
 15.98879   -125.9 2.212e+04 4.935e-08
 15.99495   -125.9 2.109e+04 8.321e-08
 16.00505   -125.3 2.103e+04 1.112e-07
 16.01516   -124.5 2.099e+04 1.236e-07
 16.02300   -123.8 2.097e+04 1.256e-07
 16.02805   -122.8 2.107e+04 1.126e-07
 16.03537   -121.8 2.135e+04 9.722e-08
 16.04548   -121.1 2.244e+04 6.617e-08
 16.05558   -121.0 2.492e+04 3.672e-08
 16.06227   -122.2 2.795e+04 1.856e-08
 16.06732   -129.5 2.793e+04 6.378e-09
 16.07580   -136.5 2.173e+04 2.857e-09
 16.08590   -141.8 1.499e+04 1.975e-09
 16.09601   -143.1 1.333e+04 1.841e-09
 16.10154   -143.4 1.318e+04 1.843e-09
 16.10664   -144.8 1.290e+04 1.667e-09
 16.12137   -145.3 1.318e+04 1.901e-09
 16.14159   -145.4 1.347e+04 2.134e-09
 16.16180   -145.5 1.369e+04 2.278e-09
 16.17512   -145.7 1.375e+04 2.311e-09
 16.18523   -146.8 1.346e+04 2.075e-09
 16.19492   -146.7 1.323e+04 1.885e-09
 16.20503   -146.3 1.320e+04 1.842e-09
 16.22244   -146.4 1.291e+04 1.544e-09
 16.24265   -146.6 1.260e+04 1.263e-09
 16.25366   -146.9 1.231e+04 1.048e-09
 16.26377   -147.7 1.184e+04 8.032e-10
 16.28307   -147.8 1.160e+04 6.685e-10
 16.30329   -147.8 1.140e+04 5.681e-10
 16.32209   -147.6 1.124e+04 4.929e-10
 16.33220   -147.8 1.071e+04 3.348e-10
 16.34371   -147.5 1.062e+04 3.099e-10
 16.37413   -147.0 1.054e+04 2.807e-10
 16.41465   -146.3 1.040e+04 2.491e-10
 16.45508   -145.4 1.026e+04 2.214e-10
 16.47937   -144.3 1.012e+04 1.985e-10
 16.49958   -144.2 9.542e+03 1.169e-10
 16.53593   -142.8 9.504e+03 1.100e-10
 16.57635   -141.4 9.497e+03 1.087e-10
 16.61623   -140.1 9.515e+03 1.105e-10
 16.63644   -139.6 9.343e+03 7.570e-11
 16.65720   -138.9 9.588e+03 9.463e-11
 16.69763   -138.2 1.006e+04 1.553e-10
 16.73805   -137.5 1.049e+04 2.447e-10
 16.77331   -136.7 1.082e+04 3.250e-10
 16.79352   -136.9 1.061e+04 2.655e-10
 16.81890   -136.3 1.078e+04 3.027e-10
 16.85933   -135.7 1.080e+04 3.083e-10
 16.89975   -135.0 1.063e+04 2.749e-10
 16.93038   -134.0 1.034e+04 2.090e-10
 16.95060   -133.8 1.039e+04 2.055e-10
 16.98061   -132.3 1.011e+04 1.576e-10
 17.02103   -130.3 1.002e+04 1.383e-10
 17.06146   -127.9 1.001e+04 1.352e-10
 17.08746   -126.4 1.012e+04 1.378e-10
 17.10767   -125.2 1.034e+04 1.500e-10
 17.14231   -124.6 1.141e+04 2.013e-10
 17.16590   -129.4 1.487e+04 3.919e-10
 17.17591   -127.3 1.412e+04 3.634e-10
 17.19264   -133.3 1.817e+04 1.729e-09
 17.21285   -135.9 1.965e+04 8.481e-09
 17.23307   -137.6 2.062e+04 1.842e-08
 17.24430   -139.0 2.076e+04 1.976e-08
 17.24930   -137.6 2.079e+04 2.034e-08
 17.25824   -138.6 2.101e+04 2.109e-08
 17.26834   -140.9 2.121e+04 2.115e-08
 17.27845   -143.8 2.157e+04 1.446e-08
 17.28855   -148.0 2.102e+04 7.415e-09
 17.29866   -154.0 1.872e+04 3.305e-09
 17.31273   -159.5 1.601e+04 2.002e-09
 17.32283   -161.1 1.574e+04 1.763e-09
 17.33408   -163.9 1.446e+04 1.464e-09
 17.35434   -166.1 1.287e+04 1.120e-09
 17.37456   -166.7 1.243e+04 1.002e-09
 17.39131   -166.3 1.228e+04 9.631e-10
 17.40142   -166.9 1.229e+04 9.937e-10
 17.41498   -165.6 1.215e+04 9.296e-10
 17.43519   -164.4 1.201e+04 8.584e-10
 17.45541   -163.2 1.190e+04 7.832e-10
 17.46985   -162.0 1.181e+04 7.111e-10
 17.47996   -162.3 1.175e+04 6.544e-10
 17.49583   -161.0 1.166e+04 5.791e-10
 17.51604   -159.8 1.159e+04 5.156e-10
 17.53626   -158.6 1.151e+04 4.587e-10
 17.54839   -157.3 1.141e+04 4.050e-10
 17.55850   -157.6 1.137e+04 3.792e-10
 17.57668   -156.3 1.128e+04 3.370e-10
 17.59689   -155.1 1.120e+04 3.057e-10
 17.61682   -154.1 1.118e+04 2.868e-10
 17.62693   -154.4 1.130e+04 2.975e-10
 17.63732   -153.3 1.126e+04 2.856e-10
 17.66774   -152.1 1.126e+04 2.786e-10
 17.69556   -149.8 1.122e+04 2.720e-10
 17.70557   -150.7 1.151e+04 3.749e-10
 17.71817   -149.8 1.158e+04 3.848e-10
 17.73838   -149.0 1.167e+04 4.089e-10
 17.74934   -148.3 1.176e+04 4.467e-10
 17.75945   -148.3 1.171e+04 4.116e-10
 17.77390   -147.7 1.176e+04 4.483e-10
 17.78401   -148.5 1.196e+04 6.674e-10
 17.79902   -147.9 1.203e+04 7.079e-10
 17.81923   -147.4 1.208e+04 7.409e-10
 17.83945   -147.0 1.209e+04 7.563e-10
 17.85244   -146.5 1.208e+04 7.570e-10
 17.86255   -147.3 1.218e+04 9.037e-10
 17.87987   -146.8 1.207e+04 8.307e-10
 17.90008   -146.3 1.198e+04 7.536e-10
 17.92030   -145.9 1.189e+04 6.780e-10
 17.93098   -145.6 1.182e+04 6.210e-10
 17.94108   -146.1 1.176e+04 6.170e-10
 17.96072   -145.7 1.174e+04 5.838e-10
 17.98940   -145.2 1.173e+04 5.592e-10
 18.00971   -145.6 1.185e+04 5.847e-10
 18.03166   -144.5 1.170e+04 5.105e-10
 18.07209   -143.4 1.165e+04 4.839e-10
 18.11251   -142.1 1.156e+04 4.502e-10
 18.14658   -140.5 1.149e+04 4.187e-10
 18.16679   -140.7 1.151e+04 3.555e-10
 18.19336   -138.9 1.132e+04 3.040e-10
 18.23379   -136.9 1.113e+04 2.617e-10
 18.27421   -135.1 1.098e+04 2.336e-10
 18.30365   -133.3 1.079e+04 2.123e-10
 18.32387   -133.0 1.065e+04 1.727e-10
 18.35506   -131.1 1.048e+04 1.657e-10
 18.39549   -129.3 1.034e+04 1.603e-10
 18.43591   -127.5 1.023e+04 1.564e-10
 18.46073   -125.7 1.014e+04 1.536e-10
 18.48094   -125.1 1.013e+04 1.469e-10
 18.51677   -123.3 1.005e+04 1.470e-10
 18.55719   -121.7 9.988e+03 1.465e-10
 18.59760   -120.3 9.945e+03 1.446e-10
 18.63802   -118.5 1.017e+04 1.678e-10
 18.67847   -117.5 1.016e+04 1.768e-10
 18.71889   -116.6 1.012e+04 1.786e-10
 18.75467   -116.0 1.008e+04 1.659e-10
 18.77489   -115.4 1.029e+04 2.758e-10
 18.79974   -115.2 1.021e+04 2.429e-10
 18.84017   -115.2 1.010e+04 2.188e-10
 18.88059   -115.4 1.004e+04 2.125e-10
 18.91175   -115.7 9.957e+03 2.177e-10
 18.93196   -115.6 1.022e+04 3.149e-10
 18.96144   -115.8 1.007e+04 3.106e-10
 19.00187   -115.8 9.879e+03 2.972e-10
 19.04229   -115.3 9.635e+03 2.590e-10
 19.06883   -114.6 9.392e+03 2.145e-10
 19.08904   -115.0 9.390e+03 2.059e-10
 19.12314   -114.4 9.201e+03 1.743e-10
 19.16357   -113.8 9.060e+03 1.568e-10
 19.20399   -113.0 8.924e+03 1.444e-10
 19.22590   -112.1 8.789e+03 1.315e-10
 19.24612   -112.6 8.793e+03 1.329e-10
 19.28374   -111.5 8.654e+03 1.148e-10
 19.30396   -111.1 8.644e+03 1.189e-10
 19.32527   -109.9 8.534e+03 1.021e-10
 19.36277   -108.7 8.490e+03 9.033e-11
 19.38298   -109.7 8.753e+03 1.109e-10
 19.40612   -108.6 8.760e+03 1.149e-10
 19.44655   -107.3 8.742e+03 1.286e-10
 19.48697   -105.8 8.704e+03 1.440e-10
 19.51985   -104.2 8.642e+03 1.554e-10
 19.54006   -104.6 8.712e+03 1.787e-10
 19.56782   -102.8 8.605e+03 1.693e-10
 19.60825   -101.0 8.485e+03 1.560e-10
 19.64867    -99.1 8.357e+03 1.371e-10
 19.67692    -97.1 8.227e+03 1.152e-10
 19.69714    -97.5 8.141e+03 8.833e-11
 19.72952    -95.5 8.025e+03 7.225e-11
 19.76995    -93.4 7.925e+03 5.870e-11
 19.81037    -91.4 7.843e+03 4.866e-11
 19.83400    -89.4 7.783e+03 4.256e-11
 19.85421    -89.6 7.784e+03 4.112e-11
 19.89122    -87.6 7.756e+03 3.913e-11
 19.93165    -85.7 7.760e+03 3.878e-11
 19.97086    -84.0 7.801e+03 3.905e-11
 19.99108    -85.2 8.317e+03 5.225e-11
 20.01250    -83.9 8.440e+03 7.147e-11
 20.05293    -82.5 8.553e+03 1.016e-10
 20.09335    -81.0 8.658e+03 1.380e-10
 20.12794    -79.4 8.751e+03 1.722e-10
 20.14815    -80.1 9.019e+03 2.416e-10
 20.17420    -78.5 8.982e+03 2.201e-10
 20.21463    -76.9 8.954e+03 1.963e-10
 20.25505    -75.4 8.976e+03 1.877e-10
 20.28502    -74.2 9.010e+03 1.866e-10
 20.30523    -75.5 9.003e+03 1.600e-10
 20.33590    -75.6 9.580e+03 1.984e-10
 20.37633    -76.0 1.045e+04 3.835e-10
 20.41675    -76.4 1.120e+04 7.308e-10
 20.44210    -77.1 1.174e+04 1.117e-09
 20.46231    -79.0 1.145e+04 1.018e-09
 20.49760    -80.4 1.149e+04 1.092e-09
 20.53803    -81.5 1.096e+04 8.858e-10
 20.56825    -81.9 1.015e+04 5.037e-10
 20.58836    -82.8 9.712e+03 3.573e-10
 20.59908    -83.6 9.419e+03 2.888e-10
 20.61939    -83.9 9.251e+03 2.461e-10
 20.65930    -84.2 8.909e+03 1.928e-10
 20.69973    -83.7 8.811e+03 1.825e-10
 20.73604    -82.9 8.833e+03 2.044e-10
 20.75625    -82.6 8.611e+03 1.582e-10
 20.78058    -81.6 8.800e+03 2.118e-10
 20.82101    -80.5 8.945e+03 2.644e-10
 20.84827    -79.4 8.988e+03 2.865e-10
 20.86848    -79.2 9.037e+03 3.071e-10
 20.89311    -78.1 9.055e+03 3.143e-10
 20.91333    -77.7 9.026e+03 2.982e-10
 20.94228    -76.6 8.996e+03 2.979e-10
 20.98271    -75.4 8.844e+03 2.661e-10
 21.02313    -74.2 8.717e+03 2.295e-10
 21.05019    -73.0 8.651e+03 2.080e-10
 21.07040    -72.7 8.975e+03 2.544e-10
 21.10398    -71.2 8.913e+03 2.299e-10
 21.14441    -69.9 8.912e+03 2.246e-10
 21.18483    -68.8 8.998e+03 2.632e-10
 21.20727    -68.1 9.601e+03 3.958e-10
 21.22748    -67.9 1.027e+04 5.404e-10
 21.26568    -67.2 1.094e+04 8.225e-10
 21.30611    -66.8 1.147e+04 1.167e-09
 21.33633    -66.3 1.193e+04 1.617e-09
 21.35404    -66.0 1.218e+04 1.760e-09
 21.36415    -65.6 1.248e+04 2.008e-09
 21.37666    -65.7 1.317e+04 2.303e-09
 21.39687    -68.0 1.517e+04 3.439e-09
 21.41708    -70.9 1.737e+04 6.677e-09
 21.43258    -72.8 1.907e+04 1.330e-08
 21.44264    -73.3 2.080e+04 2.132e-08
 21.45236    -73.6 2.119e+04 3.090e-08
 21.46246    -74.3 2.251e+04 4.259e-08
 21.47175    -75.4 2.380e+04 4.831e-08
 21.47681    -76.8 2.382e+04 1.225e-07
 21.48268    -79.2 2.412e+04 1.401e-07
 21.49278    -81.5 2.442e+04 1.257e-07
 21.50289    -82.7 2.433e+04 8.650e-08
 21.51102    -83.5 2.471e+04 4.540e-08
 21.51608    -85.0 2.264e+04 1.157e-07
 21.52310    -85.1 2.375e+04 4.010e-08
 21.53321    -87.0 2.383e+04 1.524e-08
 21.54331    -90.8 2.063e+04 6.933e-09
 21.55029    -93.9 1.651e+04 4.163e-09
 21.55535    -93.8 1.853e+04 5.536e-09
 21.56353    -95.0 1.595e+04 3.642e-09
 21.57873    -95.1 1.508e+04 2.738e-09
 21.58966    -94.8 1.443e+04 1.927e-09
 21.59977    -95.8 1.517e+04 2.715e-09
 21.61921    -95.5 1.417e+04 1.553e-09
 21.63034    -96.2 1.297e+04 9.840e-10
 21.64044    -97.6 1.208e+04 8.408e-10
 21.65809    -97.9 1.169e+04 8.008e-10
 21.66820    -98.5 1.206e+04 9.771e-10
 21.67985    -98.2 1.197e+04 9.648e-10
 21.70006    -97.6 1.195e+04 1.003e-09
 21.72027    -97.0 1.209e+04 1.101e-09
 21.73663    -96.5 1.228e+04 1.208e-09
 21.74674    -96.3 1.236e+04 1.382e-09
 21.76070    -96.0 1.258e+04 1.487e-09
 21.78091    -95.8 1.292e+04 1.687e-09
 21.80112    -96.1 1.354e+04 2.119e-09
 21.81517    -96.6 1.442e+04 2.960e-09
 21.82528    -95.9 1.409e+04 2.568e-09
 21.84155    -96.7 1.503e+04 3.774e-09
 21.86176    -97.5 1.602e+04 5.698e-09
 21.88197    -98.0 1.684e+04 8.139e-09
 21.89371    -98.2 1.735e+04 1.008e-08
 21.90381    -97.7 1.688e+04 8.404e-09
 21.92240    -97.9 1.728e+04 1.025e-08
 21.94261    -98.1 1.736e+04 1.067e-08
 21.96214    -98.1 1.686e+04 9.067e-09
 21.97225    -97.6 1.668e+04 8.547e-09
 21.98304    -97.5 1.610e+04 6.998e-09
 22.00325    -97.4 1.521e+04 4.686e-09
 22.02346    -97.8 1.438e+04 2.861e-09
 22.04068    -98.5 1.348e+04 1.756e-09
 22.05078    -97.3 1.392e+04 2.369e-09
 22.06389    -97.9 1.309e+04 1.466e-09
 22.08410    -98.7 1.220e+04 9.676e-10
 22.10921    -99.6 1.133e+04 6.626e-10
 22.12942    -97.5 1.132e+04 6.495e-10
 22.15494    -97.5 1.100e+04 5.217e-10
 22.19546    -96.9 1.076e+04 4.297e-10
 22.23589    -96.7 1.076e+04 3.885e-10
 22.26638    -96.3 1.081e+04 3.800e-10
 22.28660    -94.8 1.070e+04 3.176e-10
 22.31674    -94.7 1.059e+04 2.874e-10
 22.35717    -94.5 1.047e+04 2.649e-10
 22.39258    -93.9 1.040e+04 2.584e-10
 22.41280    -92.8 1.060e+04 3.219e-10
 22.42346    -92.0 1.050e+04 3.417e-10
 22.44367    -91.1 1.046e+04 2.809e-10
 22.47844    -90.2 1.042e+04 2.912e-10
 22.51887    -89.1 1.042e+04 3.203e-10
 22.55929    -88.0 1.042e+04 3.640e-10
 22.58054    -86.9 1.045e+04 4.205e-10
 22.60075    -85.9 1.060e+04 3.686e-10
 22.62994    -85.5 1.065e+04 4.144e-10
 22.64877    -85.0 1.067e+04 4.403e-10
 22.65888    -84.7 1.073e+04 4.138e-10
 22.67027    -84.2 1.082e+04 4.417e-10
 22.69048    -83.9 1.090e+04 4.625e-10
 22.71069    -83.6 1.095e+04 4.885e-10
 22.72731    -83.3 1.099e+04 5.241e-10
 22.73742    -83.5 1.120e+04 5.354e-10
 22.75112    -83.0 1.118e+04 5.842e-10
 22.77133    -82.4 1.123e+04 6.408e-10
 22.79154    -82.0 1.139e+04 7.085e-10
 22.80585    -81.8 1.167e+04 8.038e-10
 22.81596    -82.4 1.188e+04 8.101e-10
 22.83197    -82.9 1.218e+04 9.451e-10
 22.85218    -83.3 1.247e+04 1.179e-09
 22.87239    -83.5 1.276e+04 1.501e-09
 22.88439    -83.3 1.300e+04 1.815e-09
 22.89450    -83.8 1.296e+04 1.722e-09
 22.91282    -83.5 1.304e+04 1.788e-09
 22.93303    -83.4 1.303e+04 1.749e-09
 22.95282    -83.3 1.283e+04 1.409e-09
 22.96293    -84.0 1.269e+04 1.155e-09
 22.97345    -84.6 1.233e+04 8.652e-10
 22.99367    -85.5 1.193e+04 6.425e-10
 23.01388    -86.3 1.156e+04 4.870e-10
 23.03136    -87.0 1.137e+04 3.893e-10
 23.04147    -87.3 1.166e+04 4.052e-10
 23.05431    -87.9 1.169e+04 3.557e-10
 23.07452    -88.7 1.170e+04 3.430e-10
 23.09473    -89.8 1.230e+04 3.746e-10
 23.10990    -91.4 1.292e+04 5.435e-10
 23.12001    -90.3 1.247e+04 5.149e-10
 23.13516    -91.1 1.281e+04 7.979e-10
 23.15537    -91.4 1.330e+04 1.299e-09
 23.17465    -91.1 1.394e+04 2.049e-09
 23.18476    -91.7 1.431e+04 2.692e-09
 23.18844    -91.2 1.490e+04 3.580e-09
 23.19854    -89.6 1.413e+04 2.492e-09
 23.21601    -89.3 1.467e+04 3.014e-09
 23.23622    -89.6 1.524e+04 3.500e-09
 23.25643    -90.6 1.560e+04 3.991e-09
 23.26698    -91.7 1.573e+04 4.601e-09
 23.27708    -90.8 1.592e+04 3.863e-09
 23.29686    -92.1 1.627e+04 5.356e-09
 23.31707    -92.9 1.641e+04 6.697e-09
 23.33541    -93.4 1.641e+04 7.190e-09
 23.34552    -92.9 1.706e+04 8.002e-09
 23.35749    -93.1 1.707e+04 8.360e-09
 23.37771    -92.9 1.662e+04 7.203e-09
 23.39792    -92.3 1.555e+04 4.514e-09
 23.41395    -92.0 1.452e+04 2.344e-09
 23.42405    -91.7 1.525e+04 3.529e-09
 23.43835    -91.7 1.428e+04 1.749e-09
 23.45856    -92.6 1.340e+04 9.069e-10
 23.47877    -93.1 1.243e+04 5.666e-10
 23.49249    -93.1 1.165e+04 4.425e-10
 23.50259    -92.9 1.210e+04 6.032e-10
 23.51920    -92.8 1.164e+04 5.298e-10
 23.53941    -92.0 1.138e+04 5.056e-10
 23.55962    -90.8 1.127e+04 4.980e-10
 23.57102    -89.6 1.120e+04 4.923e-10
 23.58113    -89.7 1.119e+04 6.508e-10
 23.60005    -88.7 1.116e+04 6.062e-10
 23.62026    -87.9 1.106e+04 5.565e-10
 23.63955    -87.1 1.098e+04 5.313e-10
 23.64966    -86.3 1.109e+04 6.582e-10
 23.66068    -85.5 1.100e+04 5.870e-10
 23.69110    -84.7 1.094e+04 5.402e-10
 23.73162    -82.2 1.061e+04 4.060e-10
 23.77205    -79.7 1.031e+04 3.127e-10
 23.79673    -77.2 1.011e+04 2.644e-10
 23.81694    -77.2 1.022e+04 2.565e-10
 23.85290    -74.6 1.013e+04 2.410e-10
 23.89333    -72.0 1.009e+04 2.385e-10
 23.93359    -69.3 1.007e+04 2.463e-10
 23.95695    -66.6 1.026e+04 2.884e-10
 23.97732    -65.9 1.019e+04 2.722e-10
 24.01460    -63.1 1.027e+04 3.197e-10
 24.05503    -60.3 1.037e+04 3.730e-10
 24.09067    -57.5 1.053e+04 4.231e-10
 24.11088    -57.8 1.081e+04 3.930e-10
 24.13588    -55.1 1.094e+04 4.451e-10
 24.16610    -53.0 1.099e+04 4.633e-10
 24.17912    -52.3 1.097e+04 4.605e-10
 24.18923    -52.6 1.104e+04 4.683e-10
 24.20643    -50.8 1.115e+04 4.977e-10
 24.22664    -49.8 1.117e+04 5.012e-10
 24.24685    -48.6 1.117e+04 4.976e-10
 24.25766    -47.3 1.114e+04 4.960e-10
 24.26777    -47.5 1.102e+04 5.767e-10
 24.28728    -46.2 1.106e+04 5.847e-10
 24.30749    -45.1 1.110e+04 5.904e-10
 24.32609    -43.8 1.115e+04 6.019e-10
 24.33620    -43.8 1.117e+04 6.244e-10
 24.34791    -42.5 1.129e+04 6.555e-10
 24.36813    -41.1 1.140e+04 7.027e-10
 24.38834    -39.7 1.153e+04 7.463e-10
 24.40463    -38.7 1.196e+04 8.522e-10
 24.41474    -38.7 1.154e+04 6.625e-10
 24.42876    -39.3 1.260e+04 8.372e-10
 24.44898    -50.0 2.397e+04 2.151e-09
 24.46409    -56.0 2.466e+04 8.051e-09
 24.47415    -57.4 2.356e+04 2.747e-08
 24.48307    -57.9 2.268e+04 7.598e-08
 24.48812    -59.6 2.282e+04 3.930e-08
 24.49436    -59.6 2.251e+04 7.715e-08
 24.50446    -59.3 2.264e+04 1.115e-07
 24.51457    -59.2 2.292e+04 1.232e-07
 24.52234    -59.7 2.342e+04 1.137e-07
 24.52739    -59.7 2.250e+04 8.195e-08
 24.53478    -59.6 2.380e+04 5.248e-08
 24.54489    -62.3 2.492e+04 2.484e-08
 24.55500    -67.7 2.322e+04 1.063e-08
 24.56161    -72.6 1.932e+04 6.062e-09
 24.57176    -71.6 1.894e+04 4.720e-09
 24.59047    -76.2 1.486e+04 2.486e-09
 24.61068    -77.6 1.357e+04 2.070e-09
 24.63014    -77.8 1.337e+04 2.038e-09
 24.64025    -78.0 1.306e+04 1.780e-09
 24.65110    -78.0 1.320e+04 2.029e-09
 24.67132    -78.0 1.332e+04 2.180e-09
 24.69153    -78.0 1.329e+04 2.153e-09
 24.70868    -78.2 1.313e+04 1.987e-09
 24.71878    -78.1 1.308e+04 2.050e-09
 24.72907    -78.3 1.285e+04 1.790e-09
 24.73918    -77.9 1.339e+04 2.285e-09
 24.75217    -78.1 1.315e+04 1.981e-09
 24.77238    -78.3 1.285e+04 1.664e-09
 24.78722    -78.4 1.255e+04 1.396e-09
 24.79732    -78.7 1.243e+04 1.283e-09
 24.81280    -78.9 1.221e+04 1.099e-09
 24.83302    -79.0 1.208e+04 9.594e-10
 24.85323    -79.1 1.200e+04 8.443e-10
 24.86575    -79.2 1.191e+04 7.516e-10
 24.87586    -79.7 1.188e+04 8.092e-10
 24.89365    -79.7 1.168e+04 7.372e-10
 24.91387    -79.6 1.154e+04 6.945e-10
 24.93408    -79.3 1.150e+04 6.706e-10
 24.94429    -79.0 1.152e+04 6.578e-10
 24.95440    -79.2 1.154e+04 6.812e-10
 24.97451    -78.9 1.156e+04 6.647e-10
 24.99472    -78.6 1.156e+04 6.505e-10
 25.01273    -78.3 1.154e+04 6.319e-10
 25.02283    -78.6 1.152e+04 6.147e-10
 25.03514    -78.2 1.155e+04 5.785e-10
 25.05536    -78.0 1.154e+04 5.327e-10
 25.07557    -77.9 1.150e+04 4.843e-10
 25.09126    -78.1 1.144e+04 4.382e-10
 25.10137    -79.1 1.167e+04 4.693e-10
 25.11599    -79.4 1.151e+04 4.643e-10
 25.13621    -79.5 1.128e+04 4.601e-10
 25.15642    -79.2 1.107e+04 4.395e-10
 25.16990    -78.5 1.094e+04 4.157e-10
 25.18001    -79.0 1.125e+04 6.052e-10
 25.19684    -78.5 1.112e+04 5.212e-10
 25.22726    -78.1 1.101e+04 4.493e-10
 25.26778    -77.2 1.057e+04 3.001e-10
 25.30686    -76.0 1.006e+04 1.858e-10
 25.32708    -76.5 1.019e+04 1.902e-10
 25.34863    -75.3 9.859e+03 1.207e-10
 25.38906    -74.0 9.816e+03 1.039e-10
 25.42949    -72.6 9.813e+03 1.009e-10
 25.46394    -71.3 9.888e+03 1.024e-10
 25.48415    -72.1 9.888e+03 9.411e-11
 25.50142    -70.9 1.001e+04 1.054e-10
 25.52164    -69.9 9.737e+03 7.719e-11
 25.55076    -68.6 9.773e+03 9.234e-11
 25.59119    -67.1 9.778e+03 1.162e-10
 25.62102    -65.4 9.779e+03 1.430e-10
 25.64123    -65.8 9.718e+03 1.141e-10
 25.67204    -64.0 9.736e+03 1.266e-10
 25.71246    -62.2 9.759e+03 1.370e-10
 25.75289    -60.5 9.777e+03 1.461e-10
 25.77809    -58.8 9.780e+03 1.526e-10
 25.79831    -59.0 9.709e+03 1.347e-10
 25.83374    -57.1 9.710e+03 1.425e-10
 25.87416    -55.2 9.705e+03 1.441e-10
 25.91459    -53.3 9.661e+03 1.383e-10
 25.93517    -51.6 9.651e+03 1.241e-10
 25.95538    -51.4 9.716e+03 1.335e-10
 25.99544    -50.0 9.769e+03 1.301e-10
 26.03586    -49.1 9.917e+03 1.366e-10
 26.07204    -48.5 9.943e+03 1.816e-10
 26.09225    -48.5 1.015e+04 2.602e-10
 26.11671    -47.5 1.018e+04 3.478e-10
 26.15714    -46.4 1.016e+04 4.060e-10
 26.19757    -45.3 1.010e+04 4.171e-10
 26.22911    -44.0 9.752e+03 3.778e-10
 26.24933    -43.9 9.918e+03 4.314e-10
 26.27842    -42.4 9.561e+03 3.090e-10
 26.31884    -40.9 9.256e+03 2.075e-10
 26.35927    -39.5 9.019e+03 1.428e-10
 26.38619    -38.0 8.832e+03 1.122e-10
 26.40640    -37.8 8.906e+03 1.180e-10
 26.44012    -36.2 8.763e+03 1.027e-10
 26.48054    -34.4 8.718e+03 1.004e-10
 26.52097    -32.7 8.744e+03 1.071e-10
 26.54327    -31.0 8.798e+03 1.355e-10
 26.56348    -30.7 8.766e+03 1.332e-10
 26.60182    -28.7 8.846e+03 1.679e-10
 26.64224    -26.6 8.943e+03 1.966e-10
 26.68013    -24.5 9.017e+03 2.119e-10
 26.70034    -24.1 8.944e+03 1.990e-10
 26.72309    -22.1 8.918e+03 1.898e-10
 26.76352    -20.1 8.905e+03 1.663e-10
 26.80394    -18.2 8.848e+03 1.492e-10
 26.83721    -16.3 8.821e+03 1.456e-10
 26.85742    -15.6 8.831e+03 1.328e-10
 26.88479    -13.8 8.983e+03 1.435e-10
 26.92522    -11.9 8.978e+03 1.871e-10
 26.96565     -9.5 9.085e+03 2.454e-10
 26.99429     -6.7 9.227e+03 2.888e-10
 27.01450     -5.9 9.248e+03 2.543e-10
 27.04574     -3.5 9.281e+03 2.521e-10
 27.06595     -3.9 9.260e+03 2.561e-10
 27.08692     -1.6 9.225e+03 2.165e-10
 27.12735      0.2 9.150e+03 1.914e-10
 27.15136      1.9 9.117e+03 1.874e-10
 27.17158      2.4 9.221e+03 2.003e-10
 27.20820      4.2 9.303e+03 2.318e-10
 27.24862      6.1 9.457e+03 2.916e-10
 27.28823      8.1 9.604e+03 3.805e-10
 27.30844      8.8 9.710e+03 3.931e-10
 27.32947     11.1 9.868e+03 4.858e-10
 27.36990     13.2 1.005e+04 5.435e-10
 27.41032     14.9 1.019e+04 5.566e-10
 27.44530     16.4 1.027e+04 5.702e-10
 27.46552     16.9 1.017e+04 4.872e-10
 27.49117     18.2 1.033e+04 5.622e-10
 27.53160     19.6 1.056e+04 6.749e-10
 27.57202     21.0 1.066e+04 7.216e-10
 27.60238     22.6 1.056e+04 6.619e-10
 27.62259     22.7 1.070e+04 6.801e-10
 27.65287     24.2 1.059e+04 6.629e-10
 27.69330     25.7 1.034e+04 5.361e-10
 27.73373     26.9 1.005e+04 3.603e-10
 27.75946     27.9 9.671e+03 2.317e-10
 27.77967     28.8 1.031e+04 4.565e-10
 27.81458     30.1 9.957e+03 3.208e-10
 27.85500     31.5 9.606e+03 2.509e-10
 27.89543     33.1 9.338e+03 2.271e-10
 27.91654     34.9 9.271e+03 2.294e-10
 27.93675     35.3 9.800e+03 3.779e-10
 27.97628     37.3 9.709e+03 4.032e-10
 28.01670     39.3 9.670e+03 4.270e-10
 28.05340     41.3 9.679e+03 4.225e-10
 28.07361     41.6 1.011e+04 5.516e-10
 28.09755     43.4 1.010e+04 5.294e-10
 28.13798     44.9 1.018e+04 5.232e-10
 28.17840     46.2 1.034e+04 5.525e-10
 28.21048     47.5 1.054e+04 6.288e-10
 28.23069     46.8 1.101e+04 7.006e-10
 28.25925     48.1 1.106e+04 6.472e-10
 28.29968     49.3 1.095e+04 5.310e-10
 28.34010     50.0 1.070e+04 4.216e-10
 28.36755     50.6 1.039e+04 3.612e-10
 28.38777     49.5 1.017e+04 3.170e-10
 28.42095     50.7 9.970e+03 2.945e-10
 28.46138     52.2 9.789e+03 2.685e-10
 28.50181     53.8 9.635e+03 2.362e-10
 28.52463     55.5 9.502e+03 2.046e-10
 28.54484     55.8 9.489e+03 2.048e-10
 28.58266     57.9 9.366e+03 1.814e-10
 28.61026     60.2 9.304e+03 1.655e-10
 28.63048     60.3 9.311e+03 1.666e-10
 28.66150     62.6 9.374e+03 1.583e-10
 28.68171     63.3 9.577e+03 1.918e-10
 28.70393     65.7 9.679e+03 1.872e-10
 28.74436     68.1 9.726e+03 1.845e-10
 28.78478     70.9 9.757e+03 1.855e-10
 28.81857     73.3 9.897e+03 1.966e-10
 28.83869     75.1 1.012e+04 2.649e-10
 28.85533     76.4 1.024e+04 2.755e-10
 28.87554     77.5 1.032e+04 2.904e-10
 28.89576     78.5 1.036e+04 3.059e-10
 28.90702     79.5 1.043e+04 3.289e-10
 28.91713     79.9 1.057e+04 3.604e-10
 28.93618     81.1 1.069e+04 4.090e-10
 28.95639     82.4 1.086e+04 4.689e-10
 28.97546     84.0 1.109e+04 5.288e-10
 28.98556     84.1 1.162e+04 7.983e-10
 28.99682     85.9 1.181e+04 9.179e-10
 29.01703     87.9 1.227e+04 1.050e-09
 29.03724     88.8 1.322e+04 1.274e-09
 29.05399     89.0 1.491e+04 1.827e-09
 29.06410     90.4 1.556e+04 2.995e-09
 29.07257     91.0 1.680e+04 3.642e-09
 29.08263     91.1 1.778e+04 4.290e-09
 29.09273     90.6 1.978e+04 6.041e-09
 29.09822     90.3 2.051e+04 8.363e-09
 29.10327     90.6 2.146e+04 8.240e-09
 29.11294     90.6 2.309e+04 1.255e-08
 29.12305     91.3 2.356e+04 2.001e-08
 29.13243     91.9 2.372e+04 2.992e-08
 29.13749     93.0 2.640e+04 2.969e-08
 29.14326     93.5 2.579e+04 6.697e-08
 29.15337     92.8 2.396e+04 2.330e-07
 29.16348     89.6 2.175e+04 1.038e-06
 29.17103     87.4 1.730e+04 1.754e-05
 29.17418     82.0 1.528e+04 1.079e-04
 29.17671     83.5 1.238e+04 1.789e-03
 29.18111     71.4 1.285e+04 1.335e-03
 29.18617     65.8 1.451e+04 2.694e-04
 29.19122     67.3 1.757e+04 1.097e-05
 29.19382     68.8 2.256e+04 1.306e-06
 29.19634     68.3 2.231e+04 1.410e-06
 29.20388     67.2 2.761e+04 2.599e-07
 29.21097     63.2 3.697e+04 4.565e-08
 29.21603     58.6 2.566e+04 7.272e-08
 29.22411     56.3 2.710e+04 4.586e-08
 29.23422     55.9 3.003e+04 3.531e-08
 29.24433     56.4 3.423e+04 2.552e-08
 29.25024     56.6 3.852e+04 1.775e-08
 29.25530     56.0 2.878e+04 3.518e-08
 29.26454     55.8 3.393e+04 2.565e-08
 29.27465     55.4 3.894e+04 1.896e-08
 29.28446     54.2 4.160e+04 1.682e-08
 29.28951     54.6 3.170e+04 3.023e-08
 29.29486     53.2 3.805e+04 2.263e-08
 29.30496     51.7 4.420e+04 1.736e-08
 29.31507     50.3 4.858e+04 1.529e-08
 29.32373     49.6 5.085e+04 1.480e-08
 29.32878     49.0 3.205e+04 3.620e-08
 29.33528     48.2 3.553e+04 3.093e-08
 29.34539     48.1 3.982e+04 2.252e-08
 29.35550     48.9 4.484e+04 1.381e-08
 29.36300     49.6 4.723e+04 8.583e-09
 29.36805     46.1 3.161e+04 2.340e-08
 29.37571     46.9 3.551e+04 1.327e-08
 29.38581     46.9 3.584e+04 8.787e-09
 29.39223     45.5 2.974e+04 8.098e-09
 29.40239     46.8 2.914e+04 6.630e-09
 29.42128     44.7 2.292e+04 4.582e-09
 29.43658     44.1 1.961e+04 3.754e-09
 29.44669     44.1 1.575e+04 6.973e-09
 29.46171     44.7 1.475e+04 5.533e-09
 29.48192     45.7 1.428e+04 4.538e-09
 29.50214     46.9 1.406e+04 4.171e-09
 29.51512     48.2 1.431e+04 4.067e-09
 29.52522     49.2 1.409e+04 6.016e-09
 29.54256     50.5 1.428e+04 6.425e-09
 29.56277     51.8 1.457e+04 6.712e-09
 29.58299     53.0 1.469e+04 6.595e-09
 29.59366     54.2 1.476e+04 5.940e-09
 29.59866     53.4 1.454e+04 7.784e-09
 29.60815     53.9 1.451e+04 7.641e-09
 29.61826     54.6 1.447e+04 7.294e-09
 29.62778     55.4 1.461e+04 6.977e-09
 29.63283     55.7 1.477e+04 7.487e-09
 29.63847     56.2 1.496e+04 6.983e-09
 29.64858     56.1 1.508e+04 6.741e-09
 29.66204     56.8 1.507e+04 5.942e-09
 29.67215     56.8 1.534e+04 6.725e-09
 29.67890     57.1 1.520e+04 6.066e-09
 29.68900     57.1 1.519e+04 5.972e-09
 29.70421     57.5 1.506e+04 5.375e-09
 29.72447     58.0 1.449e+04 4.252e-09
 29.74063     58.3 1.392e+04 3.367e-09
 29.75073     58.3 1.395e+04 3.660e-09
 29.76490     58.5 1.336e+04 2.804e-09
 29.78511     58.8 1.285e+04 2.204e-09
 29.80532     58.9 1.252e+04 1.844e-09
 29.81917     58.9 1.264e+04 1.714e-09
 29.82927     57.0 1.274e+04 1.414e-09
 29.84575     56.6 1.264e+04 1.417e-09
 29.86596     56.5 1.259e+04 1.437e-09
 29.88618     56.6 1.246e+04 1.526e-09
 29.89771     56.8 1.240e+04 1.635e-09
 29.90781     54.7 1.197e+04 1.387e-09
 29.92660     55.0 1.212e+04 1.391e-09
 29.94681     55.0 1.210e+04 1.373e-09
 29.96614     55.0 1.201e+04 1.300e-09
 29.97624     52.9 1.171e+04 1.131e-09
 29.98724     52.8 1.134e+04 9.579e-10
 30.00745     52.6 1.092e+04 8.320e-10
 30.02766     52.6 1.051e+04 7.047e-10
 30.04468     52.3 1.012e+04 5.959e-10
 30.05488     52.5 1.012e+04 5.730e-10
 30.07839     53.0 9.493e+03 4.102e-10
 30.11882     53.6 9.037e+03 3.186e-10
 30.15458     54.3 8.770e+03 2.718e-10
 30.17479     52.3 8.508e+03 2.254e-10
 30.19184     53.2 8.325e+03 1.940e-10
 30.21205     53.9 8.011e+03 1.526e-10
 30.24009     55.1 7.974e+03 1.486e-10
 30.28052     56.4 7.974e+03 1.492e-10
 30.32094     57.6 8.027e+03 1.565e-10
 30.34892     58.8 8.252e+03 1.855e-10
 30.36913     60.3 8.455e+03 2.002e-10
 30.40179     61.0 8.804e+03 2.528e-10
 30.42736     61.5 8.955e+03 2.933e-10
 30.43737     61.6 8.996e+03 3.018e-10
 30.45213     61.9 9.192e+03 3.555e-10
 30.47234     62.2 9.492e+03 4.537e-10
 30.49255     62.8 9.803e+03 5.677e-10
 30.50580     63.2 1.015e+04 6.889e-10
 30.51591     64.0 1.021e+04 7.128e-10
 30.53298     64.3 1.044e+04 7.880e-10
 30.55319     64.4 1.068e+04 8.588e-10
 30.57340     64.4 1.093e+04 9.327e-10
 30.58434     64.2 1.114e+04 1.013e-09
 30.59445     65.2 1.094e+04 9.420e-10
 30.61383     65.0 1.114e+04 1.009e-09
 30.63404     64.8 1.129e+04 1.080e-09
 30.65277     64.4 1.138e+04 1.149e-09
 30.66288     65.5 1.137e+04 1.097e-09
 30.67447     65.1 1.148e+04 1.172e-09
 30.69468     64.5 1.161e+04 1.271e-09
 30.71489     63.8 1.179e+04 1.406e-09
 30.73131     62.8 1.204e+04 1.587e-09
 30.74142     63.7 1.215e+04 1.590e-09
 30.75532     62.6 1.249e+04 1.883e-09
 30.77553     61.4 1.286e+04 2.248e-09
 30.79574     60.4 1.313e+04 2.494e-09
 30.80985     59.2 1.314e+04 2.491e-09
 30.81996     60.4 1.334e+04 2.619e-09
 30.83617     59.4 1.323e+04 2.512e-09
 30.85638     58.4 1.285e+04 2.150e-09
 30.87659     57.2 1.234e+04 1.684e-09
 30.88839     55.8 1.185e+04 1.275e-09
 30.89849     56.8 1.176e+04 1.256e-09
 30.91702     55.1 1.128e+04 9.621e-10
 30.93665     53.4 1.104e+04 8.982e-10
 30.94675     51.6 1.109e+04 9.002e-10
 30.95682     49.6 1.142e+04 9.838e-10
 30.96693     51.6 1.096e+04 8.568e-10
 30.97766     48.8 1.191e+04 1.132e-09
 30.99787     45.3 1.343e+04 1.962e-09
 31.01808     42.5 1.429e+04 3.234e-09
 31.03536     40.4 1.463e+04 3.997e-09
 31.04546     41.1 1.493e+04 4.144e-09
 31.05851     38.7 1.503e+04 4.388e-09
 31.07872     35.9 1.477e+04 3.598e-09
 31.09893     31.2 1.389e+04 2.144e-09
 31.11390     20.2 1.560e+04 1.966e-09
 31.12400     18.8 1.719e+04 2.636e-09
 31.13936      4.3 1.739e+04 4.607e-09
 31.15312      1.0 1.659e+04 5.921e-09
 31.15812      0.8 1.660e+04 6.525e-09
 31.16453     -0.3 1.639e+04 6.745e-09
 31.17973     -1.5 1.594e+04 6.244e-09
 31.19244     -3.7 1.575e+04 3.804e-09
 31.20254     -3.8 1.556e+04 4.144e-09
 31.22021    -10.0 1.253e+04 1.399e-09
 31.24042    -11.0 1.112e+04 9.162e-10
 31.26063    -15.1 9.420e+03 5.980e-10
 31.27107    -16.2 9.742e+03 5.377e-10
 31.29138    -15.5 9.439e+03 4.994e-10
 31.33157    -14.8 8.897e+03 3.461e-10
 31.37200    -14.3 8.723e+03 2.887e-10
 31.40803    -13.3 8.725e+03 2.841e-10
 31.42825    -12.4 8.230e+03 1.879e-10
 31.45285    -11.3 8.283e+03 1.835e-10
 31.49327    -10.6 8.587e+03 2.203e-10
 31.53370    -10.3 9.045e+03 3.326e-10
 31.56511    -10.2 9.866e+03 5.810e-10
 31.58532    -10.1 9.955e+03 5.860e-10
 31.61455     -9.6 1.098e+04 1.126e-09
 31.65498     -8.4 1.164e+04 1.556e-09
 31.69540     -7.8 1.174e+04 1.552e-09
 31.71910     -7.6 1.104e+04 9.588e-10
 31.72568     -7.1 1.098e+04 9.385e-10
 31.74240     -6.9 1.121e+04 1.114e-09
 31.77625     -7.0 1.034e+04 6.135e-10
 31.81668     -7.2 9.777e+03 4.163e-10
 31.85710     -6.3 9.588e+03 3.437e-10
 31.87927     -5.3 9.536e+03 2.931e-10
 31.89948     -5.1 9.396e+03 2.846e-10
 31.93795     -4.4 9.411e+03 2.837e-10
 31.97838     -4.2 9.566e+03 3.316e-10
 32.01613     -3.7 9.784e+03 4.438e-10
 32.03634     -4.0 1.014e+04 6.098e-10
 32.05923     -3.2 1.026e+04 7.004e-10
 32.09965     -2.5 1.003e+04 6.487e-10
 32.14008     -2.0 9.649e+03 4.931e-10
 32.17321     -2.2 9.271e+03 3.591e-10
 32.19342     -2.3 8.762e+03 2.261e-10
 32.22093     -3.2 8.601e+03 1.949e-10
 32.26135     -3.8 8.782e+03 2.372e-10
 32.30178     -3.8 9.066e+03 3.469e-10
 32.33028     -2.7 9.227e+03 4.036e-10
 32.35050     -2.2 9.404e+03 4.928e-10
 32.38263     -0.9 9.519e+03 5.345e-10
 32.42306      0.1 9.467e+03 3.774e-10
 32.46348     -0.1 9.298e+03 2.426e-10
 32.48736     -1.8 9.389e+03 2.204e-10
 32.49483     -1.4 9.794e+03 3.540e-10
 32.50117     -1.5 9.708e+03 3.296e-10
 32.51382     -1.8 9.770e+03 3.413e-10
 32.53403     -2.9 9.998e+03 4.500e-10
 32.55424     -3.4 1.007e+04 4.932e-10
 32.58466     -2.6 1.080e+04 8.396e-10
 32.62423     -2.5 1.118e+04 9.846e-10
 32.64444     -2.4 1.109e+04 9.735e-10
 32.66561     -2.1 1.069e+04 6.780e-10
 32.70603     -2.5 1.011e+04 4.023e-10
 32.74646     -3.1 9.639e+03 2.607e-10
 32.78130     -3.3 9.419e+03 2.146e-10
 32.80152     -3.5 9.097e+03 2.090e-10
 32.82731     -2.0 9.180e+03 2.213e-10
 32.86773     -0.4 9.197e+03 2.127e-10
 32.90816      0.9 9.214e+03 1.899e-10
 32.93838      1.7 9.207e+03 1.831e-10
 32.95859      1.5 9.162e+03 2.033e-10
 32.98901      2.6 9.121e+03 2.411e-10
 33.02943      4.3 9.202e+03 2.795e-10
 33.06986      6.1 9.226e+03 3.120e-10
 33.09546      7.9 9.192e+03 3.217e-10
 33.11567      7.8 8.939e+03 2.658e-10
 33.15071      9.7 8.835e+03 2.515e-10
 33.19114     11.5 8.701e+03 2.225e-10
 33.23156     13.2 8.578e+03 2.004e-10
 33.25253     14.9 8.508e+03 1.927e-10
 33.26418     14.9 8.391e+03 1.816e-10
 33.28363     15.2 8.511e+03 2.044e-10
 33.31241     17.4 8.481e+03 2.101e-10
 33.35284     19.7 8.460e+03 2.039e-10
 33.38940     21.9 8.450e+03 1.912e-10
 33.40961     22.0 8.474e+03 1.968e-10
 33.43369     23.7 8.627e+03 2.037e-10
 33.47411     25.1 8.901e+03 2.442e-10
 33.51454     26.9 9.306e+03 3.443e-10
 33.54648     29.6 9.655e+03 4.510e-10
 33.56669     29.9 9.551e+03 4.314e-10
 33.59539     32.8 9.685e+03 4.699e-10
 33.63581     35.9 9.840e+03 4.769e-10
 33.66603     37.8 9.873e+03 4.623e-10
 33.68615     38.7 1.020e+04 4.969e-10
 33.70336     39.7 1.060e+04 5.816e-10
 33.71346     40.7 9.865e+03 4.080e-10
 33.72658     42.1 1.041e+04 5.016e-10
 33.74679     43.8 1.078e+04 6.277e-10
 33.76700     45.8 1.103e+04 7.778e-10
 33.78190     47.8 1.123e+04 9.516e-10
 33.79200     51.3 1.166e+04 9.091e-10
 33.80232     53.1 1.259e+04 1.104e-09
 33.81238     53.1 1.360e+04 1.203e-09
 33.82107     50.0 1.931e+04 1.443e-09
 33.82612     36.1 4.238e+04 2.749e-09
 33.83259     14.2 5.452e+04 1.044e-08
 33.84015      9.5 6.515e+04 1.218e-08
 33.84318      6.1 6.331e+04 1.932e-08
 33.84571      0.7 4.101e+04 1.070e-07
 33.85023      0.1 4.209e+04 1.661e-07
 33.85483     -3.9 3.626e+04 4.300e-07
 33.85735     -3.9 3.689e+04 4.213e-07
 33.86029    -15.2 2.383e+04 1.897e-06
 33.86281    -11.0 1.824e+04 1.483e-05
 33.86539     -8.8 1.651e+04 4.873e-05
 33.86917    -11.6 1.341e+04 8.418e-04
 33.87134    -11.9 1.158e+04 6.330e-03
 33.87260     -5.6 1.125e+04 8.732e-03
 33.87357    -15.2 1.382e+04 6.660e-04
 33.87483    -16.9 1.530e+04 1.990e-04
 33.87673    -28.1 1.667e+04 5.281e-05
 33.87926    -28.3 1.643e+04 4.157e-05
 33.88116    -25.3 1.871e+04 1.267e-05
 33.88242    -16.0 1.832e+04 1.202e-05
 33.88559    -17.6 1.907e+04 7.252e-06
 33.89321    -21.5 2.443e+04 4.179e-07
 33.89961    -17.6 3.583e+04 3.267e-08
 33.90466    -17.7 3.500e+04 3.055e-08
 33.91344    -27.4 4.682e+04 1.024e-09
 33.92865    -52.5 3.503e+04 5.475e-10
 33.93897    -66.2 1.149e+04 3.943e-10
 33.94908    -65.1 1.095e+04 4.900e-10
 33.96913    -62.4 1.033e+04 4.391e-10
 33.98934    -60.1 1.012e+04 4.308e-10
 34.00741    -58.0 1.002e+04 4.420e-10
 34.01751    -57.1 1.014e+04 4.441e-10
 34.02976    -55.5 1.009e+04 4.464e-10
 34.04549    -54.0 1.005e+04 4.533e-10
 34.05559    -54.1 9.980e+03 4.353e-10
 34.07019    -52.5 9.959e+03 4.398e-10
 34.08594    -51.0 9.908e+03 4.365e-10
 34.09605    -50.7 9.930e+03 4.285e-10
 34.12082    -49.4 9.921e+03 4.354e-10
 34.15457    -47.0 9.784e+03 4.284e-10
 34.17478    -46.4 9.929e+03 4.454e-10
 34.20177    -43.6 1.000e+04 4.845e-10
 34.24219    -41.1 1.019e+04 5.349e-10
 34.28262    -38.6 1.030e+04 5.666e-10
 34.31165    -36.2 1.037e+04 5.890e-10
 34.33186    -36.1 1.121e+04 9.675e-10
 34.36347    -33.8 1.156e+04 1.160e-09
 34.40389    -31.6 1.183e+04 1.342e-09
 34.44432    -29.4 1.203e+04 1.458e-09
 34.46863    -27.7 1.223e+04 1.703e-09
 34.47864    -27.4 1.218e+04 1.741e-09
 34.49466    -25.9 1.201e+04 1.693e-09
 34.51487    -24.4 1.187e+04 1.642e-09
 34.53508    -23.2 1.167e+04 1.541e-09
 34.54707    -21.9 1.148e+04 1.443e-09
 34.55718    -21.4 1.109e+04 1.059e-09
 34.57551    -20.2 1.095e+04 9.792e-10
 34.59572    -19.1 1.087e+04 9.304e-10
 34.61550    -18.0 1.081e+04 9.021e-10
 34.62561    -17.9 1.062e+04 4.748e-10
 34.63614    -17.0 1.065e+04 4.723e-10
 34.65636    -16.7 1.105e+04 5.334e-10
 34.67657    -17.1 1.161e+04 7.331e-10
 34.69404    -17.7 1.215e+04 1.116e-09
 34.70415    -18.3 1.166e+04 5.086e-10
 34.71699    -18.5 1.194e+04 8.835e-10
 34.73721    -17.9 1.223e+04 1.401e-09
 34.75742    -16.1 1.256e+04 1.911e-09
 34.77258    -14.2 1.287e+04 2.221e-09
 34.78268    -14.6 1.177e+04 1.297e-09
 34.79784    -12.9 1.201e+04 1.365e-09
 34.81764    -11.8 1.217e+04 1.197e-09
 34.82775    -12.1 1.251e+04 1.119e-09
 34.83827    -12.0 1.223e+04 7.793e-10
 34.85112    -12.6 1.187e+04 5.791e-10
 34.86122    -13.3 1.069e+04 4.563e-10
 34.87870    -13.3 1.040e+04 4.057e-10
 34.89891    -12.8 1.022e+04 3.882e-10
 34.91912    -11.9 1.017e+04 3.856e-10
 34.92966    -11.0 1.016e+04 3.981e-10
 34.93976    -11.0 1.002e+04 4.111e-10
 34.95955    -10.1 9.993e+03 4.364e-10
 34.97976     -9.2 9.984e+03 4.620e-10
 34.99809     -8.0 1.004e+04 4.863e-10
 35.00819     -8.1 1.000e+04 5.578e-10
 35.02018     -7.0 9.979e+03 6.024e-10
 35.04040     -5.7 1.005e+04 6.328e-10
 35.06061     -4.4 1.013e+04 6.328e-10
 35.07663     -3.2 1.029e+04 6.170e-10
 35.08673     -3.2 1.033e+04 7.798e-10
 35.10103     -2.0 1.036e+04 7.692e-10
 35.12125     -0.9 1.033e+04 7.057e-10
 35.14146      0.2 1.034e+04 6.514e-10
 35.15516      1.1 1.030e+04 6.022e-10
 35.16527      1.2 1.060e+04 7.680e-10
 35.18188      2.1 1.052e+04 6.948e-10
 35.20210      2.9 1.044e+04 6.521e-10
 35.22231      3.9 1.033e+04 6.224e-10
 35.23370      5.0 1.014e+04 5.974e-10
 35.24381      5.0 1.062e+04 7.365e-10
 35.26274      5.8 1.068e+04 7.010e-10
 35.28295      6.5 1.075e+04 7.198e-10
 35.30214      7.2 1.080e+04 7.167e-10
 35.31224      6.5 1.119e+04 9.045e-10
 35.32337      7.0 1.121e+04 9.820e-10
 35.34359      7.7 1.128e+04 1.048e-09
 35.36380      8.5 1.124e+04 1.021e-09
 35.38067      9.6 1.108e+04 9.615e-10
 35.39078      9.6 1.140e+04 1.369e-09
 35.40422     10.6 1.134e+04 1.192e-09
 35.42444     11.4 1.120e+04 1.055e-09
 35.44465     12.1 1.107e+04 8.320e-10
 35.45921     12.5 1.086e+04 7.165e-10
 35.46932     12.6 1.090e+04 9.158e-10
 35.49528     13.4 1.064e+04 5.781e-10
 35.52784     14.6 1.040e+04 3.883e-10
 35.54796     15.0 1.062e+04 5.221e-10
 35.56592     15.6 1.051e+04 4.168e-10
 35.58614     15.7 1.060e+04 3.948e-10
 35.59991     15.9 1.053e+04 4.123e-10
 35.60985     15.3 1.052e+04 4.094e-10
 35.61629     15.4 1.055e+04 4.258e-10
 35.62656     15.6 1.055e+04 4.381e-10
 35.64678     15.8 1.065e+04 5.023e-10
 35.66699     16.1 1.071e+04 5.837e-10
 35.68472     15.7 1.129e+04 7.738e-10
 35.69483     16.3 1.135e+04 6.270e-10
 35.70741     15.8 1.177e+04 8.103e-10
 35.72763     16.0 1.166e+04 1.009e-09
 35.74784     16.5 1.146e+04 1.084e-09
 35.77825     17.4 1.104e+04 9.669e-10
 35.81878     19.2 1.039e+04 6.817e-10
 35.84199     20.2 9.791e+03 3.881e-10
 35.86221     20.0 9.662e+03 3.779e-10
 35.89963     21.1 9.330e+03 2.881e-10
 35.94005     22.5 9.052e+03 2.054e-10
 35.97886     23.9 8.915e+03 1.480e-10
 35.99907     25.1 9.017e+03 2.155e-10
 36.02090     26.3 9.020e+03 1.672e-10
 36.06133     27.2 9.045e+03 1.584e-10
 36.10175     28.3 9.044e+03 1.648e-10
 36.13594     29.6 9.017e+03 1.800e-10
 36.15615     29.7 9.597e+03 3.487e-10
 36.18261     31.6 9.508e+03 3.261e-10
 36.22303     33.3 9.372e+03 2.870e-10
 36.26346     34.8 9.367e+03 2.719e-10
 36.29301     36.1 9.455e+03 2.800e-10
 36.31323     33.7 1.073e+04 5.317e-10
 36.34431     35.1 1.076e+04 5.947e-10
 36.37226     37.1 1.062e+04 5.937e-10
 36.39247     37.9 1.064e+04 6.303e-10
 36.42516     40.2 1.042e+04 5.898e-10
 36.45009     42.3 1.019e+04 4.898e-10
 36.47030     41.0 1.003e+04 4.188e-10
 36.50601     42.3 9.757e+03 3.188e-10
 36.54643     43.9 9.665e+03 3.085e-10
 36.58686     45.8 9.692e+03 3.186e-10
 36.62728     47.0 9.573e+03 3.176e-10
 36.66771     48.9 9.794e+03 3.504e-10
 36.70813     50.9 1.007e+04 4.011e-10
 36.73835     52.3 1.020e+04 4.520e-10
 36.75394     52.7 1.028e+04 4.836e-10
 36.76415     52.2 9.976e+03 4.341e-10
 36.77878     53.7 1.014e+04 4.854e-10
 36.79890     54.3 1.025e+04 5.092e-10
 36.81911     55.2 1.035e+04 5.456e-10
 36.83248     56.0 1.044e+04 5.826e-10
 36.84259     56.1 1.016e+04 5.336e-10
 36.85953     57.1 1.014e+04 5.418e-10
 36.87975     58.1 1.017e+04 5.516e-10
 36.89996     59.1 1.023e+04 5.513e-10
 36.91102     59.9 1.023e+04 5.442e-10
 36.92122     58.4 1.015e+04 3.732e-10
 36.95069     60.0 1.002e+04 3.328e-10
 36.99111     61.5 9.740e+03 2.820e-10
 37.03154     63.1 9.413e+03 2.322e-10
 37.05819     64.5 9.127e+03 1.953e-10
 37.07840     63.2 8.710e+03 1.394e-10
 37.11239     64.8 8.681e+03 1.427e-10
 37.15281     66.6 8.639e+03 1.496e-10
 37.19324     68.5 8.630e+03 1.495e-10
 37.21526     70.6 8.606e+03 1.438e-10
 37.23548     69.6 8.455e+03 9.797e-11
 37.27409     71.5 8.362e+03 8.145e-11
 37.31451     73.2 8.242e+03 6.509e-11
 37.35213     74.8 8.119e+03 5.334e-11
 37.37234     73.7 8.042e+03 5.006e-11
 37.39536     75.5 8.049e+03 5.010e-11
 37.43579     77.2 8.083e+03 5.259e-11
 37.47621     78.7 8.149e+03 6.353e-11
 37.50921     80.1 8.391e+03 9.613e-11
 37.52942     79.2 8.738e+03 1.568e-10
 37.55706     80.9 9.445e+03 2.748e-10
 37.58729     81.5 9.729e+03 3.436e-10
 37.59765     81.7 1.005e+04 4.299e-10
 37.60776     80.8 1.023e+04 5.009e-10
 37.62761     80.9 1.070e+04 7.145e-10
 37.64783     81.3 1.117e+04 9.619e-10
 37.66609     81.7 1.155e+04 1.134e-09
 37.67619     80.8 1.168e+04 1.154e-09
 37.68825     80.7 1.168e+04 1.143e-09
 37.70846     80.6 1.160e+04 1.071e-09
 37.72868     80.6 1.145e+04 9.415e-10
 37.75909     79.5 1.111e+04 6.790e-10
 37.79962     79.3 1.083e+04 5.478e-10
 37.82336     79.3 1.066e+04 4.938e-10
 37.84357     76.9 1.073e+04 5.280e-10
 37.88047     77.4 1.074e+04 5.292e-10
 37.91657     78.2 1.072e+04 5.078e-10
 37.93678     78.5 1.052e+04 4.397e-10
 37.96022     79.2 1.055e+04 4.312e-10
 37.98044     77.2 1.086e+04 5.118e-10
 37.99154     77.9 1.081e+04 4.939e-10
 38.01165     78.5 1.079e+04 4.777e-10
 38.03187     78.9 1.073e+04 4.644e-10
 38.04867     79.4 1.068e+04 4.602e-10
 38.05878     78.5 1.073e+04 4.843e-10
 38.07229     79.1 1.071e+04 4.649e-10
 38.09250     79.5 1.068e+04 4.622e-10
 38.11272     80.3 1.067e+04 4.497e-10
 38.12721     80.9 1.073e+04 4.456e-10
 38.13742     79.7 1.065e+04 3.744e-10
 38.16344     81.1 1.061e+04 3.264e-10
 38.20387     82.3 1.053e+04 2.952e-10
 38.24429     83.1 1.041e+04 2.803e-10
 38.27428     83.3 1.035e+04 2.836e-10
 38.28429     82.2 1.031e+04 2.809e-10
 38.29463     82.7 1.033e+04 3.160e-10
 38.31484     82.5 1.054e+04 4.030e-10
 38.33506     82.1 1.103e+04 5.692e-10
 38.35272     81.1 1.191e+04 9.061e-10
 38.36283     80.4 1.242e+04 1.236e-09
 38.37548     79.2 1.355e+04 2.147e-09
 38.39569     78.5 1.460e+04 3.617e-09
 38.41591     78.2 1.535e+04 5.117e-09
 38.43126     77.4 1.553e+04 5.372e-09
 38.44137     77.1 1.608e+04 6.599e-09
 38.45633     76.1 1.585e+04 6.128e-09
 38.47654     75.4 1.522e+04 4.768e-09
 38.49676     74.2 1.434e+04 3.255e-09
 38.50980     72.2 1.329e+04 2.101e-09
 38.51990     71.7 1.359e+04 2.461e-09
 38.53718     69.4 1.260e+04 1.679e-09
 38.55739     67.0 1.172e+04 1.276e-09
 38.57761     65.3 1.132e+04 1.195e-09
 38.58834     64.2 1.131e+04 1.200e-09
 38.59844     63.4 1.175e+04 1.433e-09
 38.61803     62.3 1.173e+04 1.463e-09
 38.63824     61.4 1.168e+04 1.512e-09
 38.65677     60.8 1.156e+04 1.477e-09
 38.66688     60.0 1.156e+04 1.493e-09
 38.67867     59.8 1.115e+04 1.282e-09
 38.69864     59.6 1.071e+04 1.060e-09
 38.70875     59.2 1.075e+04 1.056e-09
 38.71910     58.9 1.038e+04 8.742e-10
 38.73531     58.4 1.003e+04 7.212e-10
 38.74541     57.6 9.761e+03 6.038e-10
 38.75952     57.0 9.455e+03 5.124e-10
 38.77973     56.7 9.283e+03 4.799e-10
 38.79995     56.7 9.269e+03 4.800e-10
 38.81385     56.9 9.292e+03 4.887e-10
 38.82395     56.6 9.173e+03 4.427e-10
 38.84037     57.0 9.271e+03 4.706e-10
 38.86058     57.3 9.390e+03 5.057e-10
 38.88080     57.8 9.547e+03 5.632e-10
 38.89238     58.3 9.680e+03 6.193e-10
 38.90249     58.3 9.447e+03 5.263e-10
 38.92122     59.0 9.519e+03 5.403e-10
 38.94143     59.6 9.535e+03 5.394e-10
 38.96082     60.3 9.536e+03 5.212e-10
 38.97092     60.2 9.399e+03 4.503e-10
 38.98186     60.6 9.377e+03 4.363e-10
 39.01228     61.6 9.374e+03 4.291e-10
 39.03955     62.8 9.328e+03 4.007e-10
 39.05976     63.1 9.222e+03 3.545e-10
 39.09322     64.5 9.320e+03 3.704e-10
 39.13365     65.7 9.525e+03 4.210e-10
 39.16387     66.7 9.662e+03 4.721e-10
 39.18399     67.4 9.896e+03 5.831e-10
 39.19643     68.0 1.016e+04 7.302e-10
 39.20654     68.1 1.011e+04 7.122e-10
 39.22441     68.9 1.036e+04 8.563e-10
 39.24462     69.7 1.059e+04 9.776e-10
 39.26484     70.3 1.075e+04 1.062e-09
 39.28505     71.1 1.061e+04 9.796e-10
 39.30526     71.5 1.052e+04 9.117e-10
 39.32547     71.7 1.039e+04 8.203e-10
 39.34340     71.8 1.024e+04 7.323e-10
 39.35351     71.7 1.012e+04 6.741e-10
 39.36590     71.6 9.994e+03 6.066e-10
 39.38611     71.2 9.894e+03 5.569e-10
 39.40632     70.7 9.832e+03 5.270e-10
 39.42194     70.0 9.832e+03 5.240e-10
 39.43205     69.8 9.736e+03 4.892e-10
 39.44675     68.9 9.772e+03 5.032e-10
 39.46696     67.8 9.868e+03 5.473e-10
 39.48090     66.8 1.003e+04 6.265e-10
 39.49101     66.8 1.027e+04 7.002e-10
 39.50048     65.7 1.052e+04 8.489e-10
 39.51059     66.0 1.036e+04 8.116e-10
 39.52760     65.1 1.064e+04 9.879e-10
 39.54781     63.9 1.128e+04 1.265e-09
 39.56803     62.2 1.240e+04 1.723e-09
 39.57902     60.3 1.370e+04 2.437e-09
 39.58913     61.7 1.250e+04 1.702e-09
 39.60845     59.9 1.349e+04 2.282e-09
 39.62866     58.3 1.415e+04 2.931e-09
 39.64745     57.2 1.438e+04 3.455e-09
 39.65756     58.4 1.351e+04 2.498e-09
 39.66909     57.6 1.368e+04 2.784e-09
 39.68930     57.1 1.366e+04 2.837e-09
 39.70951     56.7 1.352e+04 2.674e-09
 39.72599     56.4 1.320e+04 2.229e-09
 39.73610     57.4 1.301e+04 2.050e-09
 39.74994     57.2 1.264e+04 1.701e-09
 39.77015     57.4 1.219e+04 1.370e-09
 39.79036     57.6 1.177e+04 1.055e-09
 39.80453     57.9 1.139e+04 7.894e-10
 39.81464     58.9 1.142e+04 8.641e-10
 39.83079     59.1 1.106e+04 6.605e-10
 39.85100     59.2 1.070e+04 5.236e-10
 39.87122     59.3 1.035e+04 4.678e-10
 39.88307     59.5 1.024e+04 4.664e-10
 39.89317     60.5 1.030e+04 5.045e-10
 39.91164     60.8 1.029e+04 5.092e-10
 39.93185     61.1 1.031e+04 5.446e-10
 39.95150     61.4 1.044e+04 6.282e-10
 39.96161     62.2 1.047e+04 6.549e-10
 39.97228     62.5 1.062e+04 7.654e-10
 39.99249     62.9 1.082e+04 8.950e-10
 40.01270     63.4 1.102e+04 1.017e-09
 40.03004     63.8 1.117e+04 1.076e-09
 40.04014     64.5 1.117e+04 1.094e-09
 40.05313     64.7 1.117e+04 1.087e-09
 40.07334     64.9 1.112e+04 1.053e-09
 40.09355     65.0 1.099e+04 9.749e-10
 40.10858     65.0 1.083e+04 8.730e-10
 40.11868     65.8 1.083e+04 8.733e-10
 40.13398     65.6 1.060e+04 7.562e-10
 40.15419     65.3 1.045e+04 6.975e-10
 40.17440     64.9 1.044e+04 6.899e-10
 40.18712     64.7 1.044e+04 7.052e-10
 40.19722     65.3 1.034e+04 6.664e-10
 40.21483     65.1 1.037e+04 6.921e-10
 40.23504     65.1 1.044e+04 7.005e-10
 40.25306     65.0 1.045e+04 6.974e-10
 40.26317     65.2 1.060e+04 8.150e-10
 40.26565     64.9 1.066e+04 7.664e-10
 40.27576     65.5 1.050e+04 7.423e-10
 40.29568     65.0 1.059e+04 6.821e-10
 40.31589     64.2 1.070e+04 6.757e-10
 40.33409     62.9 1.108e+04 7.145e-10
 40.34419     63.5 1.068e+04 6.259e-10
 40.35632     61.9 1.116e+04 6.713e-10
 40.37653     59.5 1.264e+04 8.799e-10
 40.39674     57.0 1.430e+04 1.349e-09
 40.41262     55.9 1.515e+04 2.015e-09
 40.42273     57.3 1.302e+04 9.807e-10
 40.43717     56.5 1.375e+04 1.280e-09
 40.45738     56.0 1.403e+04 1.533e-09
 40.47759     55.6 1.398e+04 1.635e-09
 40.49116     55.3 1.384e+04 1.643e-09
 40.50127     55.6 1.254e+04 9.770e-10
 40.51802     55.2 1.255e+04 1.006e-09
 40.53823     55.0 1.250e+04 1.024e-09
 40.55844     55.0 1.239e+04 1.040e-09
 40.56970     55.2 1.223e+04 1.057e-09
 40.57981     55.5 1.157e+04 7.455e-10
 40.59887     55.9 1.155e+04 7.717e-10
 40.61908     56.3 1.155e+04 8.139e-10
 40.63813     56.6 1.159e+04 8.810e-10
 40.64824     56.8 1.123e+04 6.769e-10
 40.65951     56.9 1.147e+04 8.041e-10
 40.67972     56.8 1.182e+04 1.025e-09
 40.69993     56.7 1.226e+04 1.379e-09
 40.71667     56.9 1.277e+04 1.886e-09
 40.72678     56.7 1.257e+04 1.840e-09
 40.74036     57.6 1.317e+04 2.497e-09
 40.76057     58.5 1.357e+04 2.813e-09
 40.78078     59.0 1.360e+04 2.761e-09
 40.79521     59.6 1.351e+04 2.429e-09
 40.80532     59.7 1.300e+04 2.110e-09
 40.82121     59.7 1.272e+04 1.568e-09
 40.84142     59.3 1.241e+04 1.128e-09
 40.86163     58.1 1.198e+04 8.393e-10
 40.87375     56.9 1.138e+04 6.748e-10
 40.88386     56.7 1.102e+04 6.111e-10
 40.90206     56.2 1.054e+04 5.749e-10
 40.92227     56.3 1.047e+04 5.763e-10
 40.94218     56.5 1.048e+04 5.842e-10
 40.95229     56.6 1.044e+04 5.764e-10
 40.96270     56.6 1.050e+04 6.137e-10
 40.98291     56.7 1.060e+04 6.826e-10
 41.00312     56.8 1.068e+04 7.661e-10
 41.02072     57.2 1.077e+04 8.406e-10
 41.03083     57.3 1.071e+04 8.067e-10
 41.03532     57.8 1.085e+04 8.355e-10
 41.04543     58.6 1.095e+04 9.832e-10
 41.06376     59.3 1.110e+04 9.868e-10
 41.08397     59.7 1.124e+04 9.811e-10
 41.09926     59.6 1.143e+04 9.521e-10
 41.10937     58.8 1.140e+04 9.151e-10
 41.12440     58.1 1.153e+04 9.111e-10
 41.14461     57.2 1.153e+04 8.910e-10
 41.16482     56.4 1.137e+04 8.439e-10
 41.17780     55.8 1.113e+04 7.921e-10
 41.18790     55.4 1.152e+04 1.034e-09
 41.20525     55.2 1.142e+04 9.691e-10
 41.22546     54.9 1.121e+04 8.373e-10
 41.24567     54.3 1.086e+04 6.882e-10
 41.25634     53.5 1.042e+04 5.684e-10
 41.26644     53.2 1.057e+04 6.172e-10
 41.28610     52.4 1.003e+04 4.976e-10
 41.30631     51.9 9.693e+03 4.386e-10
 41.32477     51.7 9.575e+03 4.121e-10
 41.33487     51.3 9.419e+03 3.520e-10
 41.35694     51.1 9.511e+03 3.157e-10
 41.39746     50.5 9.629e+03 3.118e-10
 41.42769     49.8 9.574e+03 2.924e-10
 41.44780     49.1 9.572e+03 2.919e-10
 41.46801     48.2 9.670e+03 3.165e-10
 41.48185     46.9 1.001e+04 3.958e-10
 41.49195     46.6 9.915e+03 3.712e-10
 41.50844     44.5 1.084e+04 5.803e-10
 41.52865     42.4 1.202e+04 1.038e-09
 41.54886     41.1 1.290e+04 1.756e-09
 41.56038     40.8 1.350e+04 2.558e-09
 41.57049     41.4 1.369e+04 2.820e-09
 41.58929     41.2 1.429e+04 3.429e-09
 41.60950     40.2 1.498e+04 3.735e-09
 41.62882     38.1 1.552e+04 3.778e-09
 41.63892     38.3 1.574e+04 4.087e-09
 41.64993     35.7 1.564e+04 3.952e-09
 41.67014     33.4 1.518e+04 3.757e-09
 41.69035     32.0 1.451e+04 3.459e-09
 41.70735     31.4 1.385e+04 3.099e-09
 41.71746     33.0 1.382e+04 3.030e-09
 41.73078     33.1 1.328e+04 2.481e-09
 41.75099     33.0 1.274e+04 1.869e-09
 41.77120     33.1 1.235e+04 1.492e-09
 41.78599     32.1 1.138e+04 8.999e-10
 41.80630     33.4 1.067e+04 5.528e-10
 41.84214     33.7 9.689e+03 3.758e-10
 41.88257     35.1 9.122e+03 2.827e-10
 41.92295     37.0 8.862e+03 2.352e-10
 41.96338     40.8 8.767e+03 2.000e-10
 42.00384     43.1 8.798e+03 2.025e-10
 42.04427     45.1 8.905e+03 2.138e-10
 42.08003     46.9 9.082e+03 2.471e-10
 42.10024     47.7 9.056e+03 2.330e-10
 42.12512     49.3 9.284e+03 2.979e-10
 42.16554     51.0 9.624e+03 3.956e-10
 42.20597     52.7 9.978e+03 5.012e-10
 42.23711     54.6 1.011e+04 5.156e-10
 42.25732     54.8 1.011e+04 5.309e-10
 42.27662     55.5 1.008e+04 5.283e-10
 42.29673     56.1 1.000e+04 5.124e-10
 42.31545     56.9 9.855e+03 4.791e-10
 42.32556     57.1 9.811e+03 4.731e-10
 42.33716     57.9 9.654e+03 4.310e-10
 42.35737     58.9 9.485e+03 3.839e-10
 42.37758     59.6 9.378e+03 3.543e-10
 42.39409     61.2 9.229e+03 3.145e-10
 42.41440     61.2 9.144e+03 2.955e-10
 42.44852     63.5 9.073e+03 2.753e-10
 42.48895     65.6 9.055e+03 2.753e-10
 42.52937     67.8 9.066e+03 2.799e-10
 42.55116     68.9 9.082e+03 2.942e-10
 42.57130     70.1 9.220e+03 3.189e-10
 42.61015     71.5 9.742e+03 4.781e-10
 42.64044     72.6 1.000e+04 5.818e-10
 42.66056     73.7 1.026e+04 6.975e-10
 42.68077     74.8 1.057e+04 8.534e-10
 42.69804     75.9 1.089e+04 1.036e-09
 42.70814     76.0 1.077e+04 9.670e-10
 42.72120     77.0 1.103e+04 1.103e-09
 42.74141     77.9 1.134e+04 1.206e-09
 42.76162     78.5 1.170e+04 1.257e-09
 42.77658     78.6 1.223e+04 1.302e-09
 42.78668     78.7 1.083e+04 8.588e-10
 42.80205     78.5 1.099e+04 7.639e-10
 42.82226     78.0 1.119e+04 7.864e-10
 42.84247     77.2 1.160e+04 9.267e-10
 42.85511     76.6 1.219e+04 1.203e-09
 42.86522     76.9 1.056e+04 7.620e-10
 42.88290     76.6 1.137e+04 1.006e-09
 42.90311     76.8 1.217e+04 1.319e-09
 42.92332     77.1 1.291e+04 1.701e-09
 42.93365     77.2 1.388e+04 2.253e-09
 42.94376     77.0 1.398e+04 2.202e-09
 42.96375     76.7 1.529e+04 3.221e-09
 42.98396     76.8 1.669e+04 4.786e-09
 42.99907     76.7 1.757e+04 6.183e-09
 43.00704     76.4 1.869e+04 8.112e-09
 43.01209     76.3 1.863e+04 9.786e-09
 43.01923     75.7 1.981e+04 1.339e-08
 43.02934     75.7 2.076e+04 1.845e-08
 43.03945     75.7 2.137e+04 2.542e-08
 43.04631     76.1 2.139e+04 3.933e-08
 43.05136     76.6 2.062e+04 4.575e-08
 43.05966     77.8 2.087e+04 7.361e-08
 43.06977     79.6 2.173e+04 1.241e-07
 43.07732     79.1 2.259e+04 1.581e-07
 43.08235     78.8 2.282e+04 1.681e-07
 43.08553     77.4 2.347e+04 2.010e-07
 43.09061     77.0 2.208e+04 2.363e-07
 43.10009     74.6 2.226e+04 2.381e-07
 43.11019     72.8 2.227e+04 1.988e-07
 43.11980     72.5 2.225e+04 1.242e-07
 43.12485     73.9 2.299e+04 5.727e-08
 43.13040     72.9 2.305e+04 3.391e-08
 43.14051     71.8 2.234e+04 1.982e-08
 43.15062     70.4 2.126e+04 1.402e-08
 43.15911     70.1 1.964e+04 1.020e-08
 43.16927     69.7 1.742e+04 5.844e-09
 43.18609     69.0 1.541e+04 3.861e-09
 43.20630     68.8 1.429e+04 3.056e-09
 43.22651     69.0 1.378e+04 2.742e-09
 43.23770     69.9 1.358e+04 2.642e-09
 43.24781     69.7 1.296e+04 1.980e-09
 43.26694     70.8 1.298e+04 2.065e-09
 43.28715     71.8 1.305e+04 2.162e-09
 43.30613     72.6 1.306e+04 2.194e-09
 43.31624     72.2 1.260e+04 1.768e-09
 43.32758     72.9 1.261e+04 1.808e-09
 43.34779     73.4 1.260e+04 1.814e-09
 43.36190     73.8 1.262e+04 1.798e-09
 43.37201     72.5 1.265e+04 1.743e-09
 43.38467     72.3 1.249e+04 1.612e-09
 43.39478     71.6 1.210e+04 1.413e-09
 43.40843     71.2 1.202e+04 1.365e-09
 43.42864     70.6 1.192e+04 1.311e-09
 43.44885     69.9 1.180e+04 1.244e-09
 43.46321     69.0 1.166e+04 1.154e-09
 43.47332     68.8 1.154e+04 1.085e-09
 43.48928     67.9 1.134e+04 9.348e-10
 43.50949     66.6 1.116e+04 7.954e-10
 43.52970     65.0 1.114e+04 7.579e-10
 43.54175     63.1 1.120e+04 7.709e-10
 43.55186     62.2 1.104e+04 6.942e-10
 43.57013     60.0 1.131e+04 7.973e-10
 43.59034     57.7 1.165e+04 1.002e-09
 43.61018     56.1 1.197e+04 1.310e-09
 43.62029     56.1 1.174e+04 1.252e-09
 43.63076     55.2 1.207e+04 1.471e-09
 43.65098     54.3 1.228e+04 1.503e-09
 43.67119     53.3 1.228e+04 1.457e-09
 43.68872     52.1 1.221e+04 1.262e-09
 43.69883     52.2 1.180e+04 1.050e-09
 43.71162     50.8 1.153e+04 8.227e-10
 43.73183     49.0 1.129e+04 6.643e-10
 43.75204     47.4 1.134e+04 6.644e-10
 43.76726     45.5 1.176e+04 7.510e-10
 43.77736     47.3 1.091e+04 5.518e-10
 43.79247     45.4 1.166e+04 7.059e-10
 43.81268     43.1 1.250e+04 1.142e-09
 43.83289     42.7 1.303e+04 1.973e-09
 43.84580     43.0 1.355e+04 3.141e-09
 43.85590     43.2 1.333e+04 2.460e-09
 43.87332     44.0 1.394e+04 3.722e-09
 43.89353     44.8 1.452e+04 4.390e-09
 43.91374     44.6 1.491e+04 4.278e-09
 43.92434     43.7 1.568e+04 3.858e-09
 43.93444     43.6 1.574e+04 4.411e-09
 43.95417     41.5 1.615e+04 3.993e-09
 43.97438     38.7 1.577e+04 3.234e-09
 43.99277     36.5 1.426e+04 2.511e-09
 44.00287     37.9 1.475e+04 2.800e-09
 44.01480     36.4 1.327e+04 1.969e-09
 44.03502     35.6 1.199e+04 1.433e-09
 44.05523     35.4 1.143e+04 1.144e-09
 44.07131     35.6 1.100e+04 8.943e-10
 44.08141     35.2 1.100e+04 8.262e-10
 44.10586     36.1 1.086e+04 6.935e-10
 44.13425     37.5 9.814e+03 4.211e-10
 44.15446     36.6 9.078e+03 3.517e-10
 44.18681     38.5 8.848e+03 2.986e-10
 44.21847     40.5 8.741e+03 2.776e-10
 44.23868     40.7 8.733e+03 2.701e-10
 44.26766     42.6 8.692e+03 2.650e-10
 44.30808     44.3 8.742e+03 2.726e-10
 44.34851     45.7 8.946e+03 3.103e-10
 44.37555     46.7 9.284e+03 3.769e-10
 44.39576     44.5 9.900e+03 4.789e-10
 44.42936     43.6 1.086e+04 8.055e-10
 44.46978     43.5 1.155e+04 1.294e-09
 44.51021     44.2 1.178e+04 1.585e-09
 44.53253     44.8 1.163e+04 1.458e-09
 44.55274     44.6 1.115e+04 1.129e-09
 44.59106     45.4 1.015e+04 5.604e-10
 44.63149     45.3 8.988e+03 2.400e-10
 44.66949     45.0 8.288e+03 1.456e-10
 44.68970     43.2 8.326e+03 1.472e-10
 44.71234     44.2 8.547e+03 1.804e-10
 44.75276     45.2 9.150e+03 3.144e-10
 44.79319     48.1 1.009e+04 5.980e-10
 44.82341     49.4 1.059e+04 8.315e-10
 44.83648     50.7 1.080e+04 9.825e-10
 44.84659     50.2 1.111e+04 1.171e-09
 44.86374     51.4 1.106e+04 1.188e-09
 44.88395     52.6 1.103e+04 1.181e-09
 44.90416     53.9 1.095e+04 1.146e-09
 44.91502     55.1 1.083e+04 1.074e-09
 44.91707     54.0 1.067e+04 9.634e-10
 44.92643     53.1 1.060e+04 8.549e-10
 44.94459     53.8 1.048e+04 7.773e-10
 44.96480     54.4 1.045e+04 7.532e-10
 44.98345     54.8 1.048e+04 7.581e-10
 44.99356     52.4 1.061e+04 7.962e-10
 45.00522     52.2 1.106e+04 9.380e-10
 45.02544     51.9 1.168e+04 1.225e-09
 45.04565     51.3 1.263e+04 1.764e-09
 45.06199     50.3 1.397e+04 2.784e-09
 45.07209     47.0 1.446e+04 3.904e-09
 45.08607     45.9 1.549e+04 5.379e-09
 45.10118     45.5 1.609e+04 6.336e-09
 45.11124     43.1 1.694e+04 7.653e-09
 45.12135     42.0 1.693e+04 8.694e-09
 45.13145     41.2 1.694e+04 8.229e-09
 45.14043     40.0 1.684e+04 7.365e-09
 45.15058     36.8 1.543e+04 4.733e-09
 45.16692     33.3 1.500e+04 3.673e-09
 45.18714     27.9 1.440e+04 2.477e-09
 45.20735     21.2 1.285e+04 1.449e-09
 45.21907     15.4 1.089e+04 9.624e-10
 45.22917     14.9 9.940e+03 7.409e-10
 45.24778     13.4 9.732e+03 6.604e-10
 45.26799     12.7 9.727e+03 6.051e-10
 45.28750     12.1 9.712e+03 5.408e-10
 45.29760     12.8 9.345e+03 4.602e-10
 45.30841     12.2 9.167e+03 3.879e-10
 45.32863     11.6 8.981e+03 3.373e-10
 45.34884     11.4 8.776e+03 3.147e-10
 45.36604     11.6 8.696e+03 3.142e-10
 45.37614     12.3 8.570e+03 2.796e-10
 45.38926     12.7 8.529e+03 2.792e-10
 45.40948     13.2 8.542e+03 2.881e-10
 45.42969     13.7 8.629e+03 3.095e-10
 45.44457     14.2 8.903e+03 3.544e-10
 45.45468     14.9 8.574e+03 2.905e-10
 45.47011     15.6 8.772e+03 3.266e-10
 45.49033     16.1 9.122e+03 3.904e-10
 45.51054     16.6 9.425e+03 4.642e-10
 45.52311     17.5 9.708e+03 5.815e-10
 45.53322     18.4 9.147e+03 4.092e-10
 45.55096     19.4 9.364e+03 4.847e-10
 45.57118     20.4 9.543e+03 5.644e-10
 45.59139     21.3 9.746e+03 6.595e-10
 45.60165     22.3 9.988e+03 7.804e-10
 45.61176     22.9 9.469e+03 5.562e-10
 45.63182     23.7 9.784e+03 6.676e-10
 45.65203     24.7 1.011e+04 8.160e-10
 45.67847     25.7 1.040e+04 8.168e-10
 45.69878     25.7 1.096e+04 1.153e-09
 45.72297     27.0 1.150e+04 1.496e-09
 45.74882     28.3 1.150e+04 1.482e-09
 45.76903     29.1 1.112e+04 1.244e-09
 45.80382     30.4 1.100e+04 1.147e-09
 45.84424     31.6 1.051e+04 8.528e-10
 45.88467     32.3 9.875e+03 5.827e-10
 45.90590     32.9 9.381e+03 4.431e-10
 45.92611     32.7 9.834e+03 5.598e-10
 45.96552     33.9 9.647e+03 5.164e-10
 46.00594     35.7 9.525e+03 4.866e-10
 46.04276     37.9 9.418e+03 4.424e-10
 46.06297     37.5 9.765e+03 5.193e-10
 46.08679     39.6 9.640e+03 4.681e-10
 46.12722     41.7 9.634e+03 4.483e-10
 46.16765     43.8 9.669e+03 4.521e-10
 46.19984     46.1 9.751e+03 4.635e-10
 46.22005     46.0 9.955e+03 5.125e-10
 46.24850     48.3 1.000e+04 5.184e-10
 46.28892     50.6 9.960e+03 5.047e-10
 46.32935     53.0 9.876e+03 4.635e-10
 46.35691     55.3 9.720e+03 4.142e-10
 46.37713     55.1 9.921e+03 4.439e-10
 46.41020     57.3 9.830e+03 3.863e-10
 46.45062     59.5 9.765e+03 3.562e-10
 46.49105     61.8 9.792e+03 3.506e-10
 46.51399     64.1 9.829e+03 3.516e-10
 46.53420     63.7 9.990e+03 3.738e-10
 46.57190     65.9 1.004e+04 3.779e-10
 46.61232     68.1 1.012e+04 3.924e-10
 46.65086     70.2 1.024e+04 4.237e-10
 46.67107     69.9 1.033e+04 4.406e-10
 46.68297     71.1 1.042e+04 4.796e-10
 46.70308     72.0 1.050e+04 5.225e-10
 46.72330     72.9 1.059e+04 5.837e-10
 46.73931     73.7 1.069e+04 6.556e-10
 46.74941     73.6 1.056e+04 5.552e-10
 46.76372     74.4 1.069e+04 5.864e-10
 46.78394     75.1 1.091e+04 6.275e-10
 46.80415     75.6 1.116e+04 6.876e-10
 46.81784     76.0 1.139e+04 7.754e-10
 46.82795     75.2 1.123e+04 6.057e-10
 46.84457     75.5 1.134e+04 7.160e-10
 46.86479     76.0 1.138e+04 8.497e-10
 46.88500     76.5 1.150e+04 1.001e-09
 46.89638     77.2 1.165e+04 1.104e-09
 46.90649     76.6 1.137e+04 8.825e-10
 46.92542     77.0 1.146e+04 8.879e-10
 46.94564     77.2 1.144e+04 8.709e-10
 46.96481     77.4 1.131e+04 7.814e-10
 46.98512     77.0 1.091e+04 6.444e-10
 47.01658     77.6 1.065e+04 5.510e-10
 47.05700     78.2 1.037e+04 4.178e-10
 47.09743     78.5 1.013e+04 3.140e-10
 47.12209     78.9 9.992e+03 2.596e-10
 47.14230     78.6 1.010e+04 2.634e-10
 47.17828     79.0 9.876e+03 2.567e-10
 47.21870     79.5 9.869e+03 2.573e-10
 47.24309     80.3 9.856e+03 2.612e-10
 47.26313     79.2 9.712e+03 2.256e-10
 47.29938     79.3 1.007e+04 3.084e-10
 47.33998     80.4 1.017e+04 3.470e-10
 47.38040     81.6 1.048e+04 4.444e-10
 47.41062     81.7 1.071e+04 5.506e-10
 47.42594     82.0 1.089e+04 6.653e-10
 47.43605     81.7 1.090e+04 7.032e-10
 47.45095     82.2 1.105e+04 8.176e-10
 47.47116     82.7 1.124e+04 9.157e-10
 47.49138     82.7 1.145e+04 9.825e-10
 47.50448     82.5 1.169e+04 1.029e-09
 47.51458     81.6 1.206e+04 1.155e-09
 47.53180     81.0 1.245e+04 1.275e-09
 47.55202     80.4 1.272e+04 1.396e-09
 47.57223     79.8 1.280e+04 1.492e-09
 47.58302     79.3 1.280e+04 1.548e-09
 47.59312     78.9 1.350e+04 2.290e-09
 47.61265     78.6 1.340e+04 2.180e-09
 47.63287     78.4 1.314e+04 1.953e-09
 47.65145     78.2 1.277e+04 1.704e-09
 47.66156     78.0 1.347e+04 2.208e-09
 47.67329     77.6 1.300e+04 1.793e-09
 47.69350     77.1 1.257e+04 1.527e-09
 47.71372     76.6 1.230e+04 1.387e-09
 47.72999     76.4 1.232e+04 1.325e-09
 47.74009     75.0 1.314e+04 1.615e-09
 47.75414     74.5 1.314e+04 1.655e-09
 47.77435     74.2 1.320e+04 1.775e-09
 47.79457     74.2 1.328e+04 1.960e-09
 47.80853     74.3 1.333e+04 2.195e-09
 47.81863     73.2 1.365e+04 3.070e-09
 47.83499     73.9 1.363e+04 3.255e-09
 47.85520     74.8 1.363e+04 3.370e-09
 47.87542     75.7 1.363e+04 3.400e-09
 47.88706     76.5 1.363e+04 3.345e-09
 47.89717     75.9 1.354e+04 3.274e-09
 47.91584     76.6 1.336e+04 2.866e-09
 47.93606     77.2 1.311e+04 2.333e-09
 47.95550     77.5 1.275e+04 1.810e-09
 47.96560     75.0 1.193e+04 1.041e-09
 47.97648     74.3 1.149e+04 8.500e-10
 47.99669     73.4 1.135e+04 7.815e-10
 48.01505     72.1 1.153e+04 8.567e-10
 48.02516     71.0 1.129e+04 8.068e-10
 48.03404     69.6 1.196e+04 1.047e-09
 48.04414     65.9 1.216e+04 1.239e-09
 48.05733     64.5 1.284e+04 1.847e-09
 48.07754     62.9 1.384e+04 2.701e-09
 48.09776     61.4 1.489e+04 4.037e-09
 48.11257     60.0 1.539e+04 4.764e-09
 48.12268     57.6 1.406e+04 2.939e-09
 48.13818     55.2 1.386e+04 2.493e-09
 48.15839     52.3 1.300e+04 1.865e-09
 48.17861     49.6 1.167e+04 1.250e-09
 48.19111     47.3 1.059e+04 8.171e-10
 48.20122     46.0 1.021e+04 7.147e-10
 48.21903     45.3 9.689e+03 5.187e-10
 48.23924     44.9 9.367e+03 4.216e-10
 48.26966     45.0 8.958e+03 3.025e-10
 48.31018     45.5 8.438e+03 2.037e-10
 48.33828     46.5 8.349e+03 1.879e-10
 48.35849     45.1 8.685e+03 2.161e-10
 48.39103     46.6 8.956e+03 2.327e-10
 48.43146     48.3 9.359e+03 2.690e-10
 48.46168     48.0 1.008e+04 3.909e-10
 48.48180     47.6 1.083e+04 6.020e-10
 48.49516     47.2 1.160e+04 9.590e-10
 48.50527     46.0 1.214e+04 1.433e-09
 48.52222     45.8 1.285e+04 2.045e-09
 48.54243     45.6 1.361e+04 2.828e-09
 48.56265     45.7 1.445e+04 3.865e-09
 48.57370     46.1 1.519e+04 5.160e-09
 48.58381     45.6 1.450e+04 3.936e-09
 48.60307     45.7 1.446e+04 3.713e-09
 48.62328     45.4 1.422e+04 3.101e-09
 48.64213     44.9 1.371e+04 2.291e-09
 48.65224     42.9 1.264e+04 1.482e-09
 48.66371     41.6 1.199e+04 1.089e-09
 48.68392     40.0 1.135e+04 8.201e-10
 48.70414     38.7 1.088e+04 6.768e-10
 48.72067     38.1 1.077e+04 6.370e-10
 48.73078     38.0 1.074e+04 6.382e-10
 48.74456     38.0 1.072e+04 6.285e-10
 48.76477     38.0 1.068e+04 6.140e-10
 48.78499     38.1 1.059e+04 5.741e-10
 48.79732     38.3 1.047e+04 5.150e-10
 48.80143     38.4 1.067e+04 6.128e-10
 48.80931     38.3 1.059e+04 5.710e-10
 48.82541     38.5 1.052e+04 5.140e-10
 48.84562     38.6 1.048e+04 4.708e-10
 48.86584     38.6 1.046e+04 4.563e-10
 48.87775     38.9 1.045e+04 4.570e-10
 48.88785     38.3 1.035e+04 4.048e-10
 48.90626     38.8 1.034e+04 4.097e-10
 48.92647     39.3 1.034e+04 4.308e-10
 48.94618     40.0 1.039e+04 4.623e-10
 48.95629     39.8 1.027e+04 4.148e-10
 48.96690     40.4 1.033e+04 4.341e-10
 48.98711     41.3 1.034e+04 4.386e-10
 49.00732     41.7 1.035e+04 4.393e-10
 49.03774     43.0 1.027e+04 4.291e-10
 49.07826     44.7 1.005e+04 3.743e-10
 49.10345     46.3 9.812e+03 3.149e-10
 49.12366     46.6 9.739e+03 2.801e-10
 49.15911     48.3 9.753e+03 2.813e-10
 49.19954     50.0 9.868e+03 3.026e-10
 49.23997     51.9 1.005e+04 3.496e-10
 49.26053     53.3 1.017e+04 3.949e-10
 49.27054     53.0 1.014e+04 3.757e-10
 49.29030     53.5 1.017e+04 3.921e-10
 49.31051     54.1 1.019e+04 4.143e-10
 49.32877     55.0 1.022e+04 4.444e-10
 49.33887     55.1 1.021e+04 4.419e-10
 49.35094     56.0 1.028e+04 4.710e-10
 49.37115     56.8 1.036e+04 4.997e-10
 49.39136     57.5 1.047e+04 5.306e-10
 49.40730     58.1 1.060e+04 5.724e-10
 49.41741     58.0 1.060e+04 5.707e-10
 49.43179     58.6 1.078e+04 6.279e-10
 49.45200     59.1 1.099e+04 7.067e-10
 49.47222     59.6 1.124e+04 8.060e-10
 49.48584     60.1 1.148e+04 9.222e-10
 49.49595     59.9 1.148e+04 9.152e-10
 49.51264     60.5 1.165e+04 1.014e-09
 49.53285     61.1 1.179e+04 1.102e-09
 49.55307     61.7 1.188e+04 1.163e-09
 49.56438     62.3 1.195e+04 1.211e-09
 49.57068     61.9 1.171e+04 1.076e-09
 49.57958     62.2 1.177e+04 1.110e-09
 49.59349     62.9 1.171e+04 1.082e-09
 49.61370     63.5 1.170e+04 1.078e-09
 49.63281     64.5 1.167e+04 1.052e-09
 49.64292     64.6 1.139e+04 8.955e-10
 49.65413     65.1 1.138e+04 8.772e-10
 49.67434     66.0 1.132e+04 8.451e-10
 49.69455     66.9 1.126e+04 8.055e-10
 49.71135     67.8 1.115e+04 7.560e-10
 49.72146     67.6 1.083e+04 6.412e-10
 49.73498     68.5 1.075e+04 6.246e-10
 49.75519     69.5 1.072e+04 6.221e-10
 49.77540     70.6 1.077e+04 6.340e-10
 49.78989     71.7 1.083e+04 6.486e-10
 49.80000     71.8 1.086e+04 6.619e-10
 49.81583     72.8 1.105e+04 7.192e-10
 49.84625     74.3 1.127e+04 7.685e-10
 49.86862     76.3 1.151e+04 8.308e-10
 49.88884     76.2 1.263e+04 1.450e-09
 49.91699     78.0 1.282e+04 1.549e-09
 49.93686     79.1 1.309e+04 1.730e-09
 49.94697     78.6 1.378e+04 2.495e-09
 49.95732     79.3 1.398e+04 2.695e-09
 49.97753     80.3 1.422e+04 3.072e-09
 49.99774     81.3 1.439e+04 3.367e-09
 50.01540     82.3 1.449e+04 3.598e-09
 50.02551     82.0 1.478e+04 4.252e-09
 50.03817     83.0 1.476e+04 4.245e-09
 50.05838     84.0 1.479e+04 4.285e-09
 50.07859     85.0 1.488e+04 4.368e-09
 50.09394     86.3 1.499e+04 4.454e-09
 50.10405     86.2 1.457e+04 3.986e-09
 50.11902     87.6 1.459e+04 3.784e-09
 50.13923     89.0 1.475e+04 3.572e-09
 50.15944     90.3 1.497e+04 3.470e-09
 50.17248     91.4 1.529e+04 3.471e-09
 50.18258     90.7 1.427e+04 2.127e-09
 50.19987     91.4 1.452e+04 2.135e-09
 50.22008     92.1 1.483e+04 2.205e-09
 50.24030     92.7 1.520e+04 2.348e-09
 50.25102     93.1 1.567e+04 2.604e-09
 50.26112     91.6 1.369e+04 1.541e-09
 50.28072     91.8 1.418e+04 1.777e-09
 50.30093     92.0 1.489e+04 2.089e-09
 50.31945     91.8 1.562e+04 2.539e-09
 50.32955     90.6 1.405e+04 1.802e-09
 50.34136     90.2 1.478e+04 2.325e-09
 50.35174     89.9 1.525e+04 3.038e-09
 50.36184     92.8 1.408e+04 2.227e-09
 50.38178     92.2 1.477e+04 2.809e-09
 50.39799     92.0 1.524e+04 3.663e-09
 50.40809     91.0 1.490e+04 3.510e-09
 50.42221     91.2 1.536e+04 4.732e-09
 50.44242     91.9 1.599e+04 6.425e-09
 50.46263     93.3 1.688e+04 8.530e-09
 50.47648     93.2 1.762e+04 9.415e-09
 50.48148     92.6 1.776e+04 9.410e-09
 50.48780     87.9 3.181e+04 1.093e-08
 50.49791     76.5 4.825e+04 2.648e-08
 50.50801     66.2 4.007e+04 1.160e-07
 50.51570     59.2 3.153e+04 2.883e-07
 50.52075     60.5 3.357e+04 1.998e-07
 50.52823     56.7 3.178e+04 2.136e-07
 50.53833     54.8 2.762e+04 2.299e-07
 50.54844     54.1 2.486e+04 1.739e-07
 50.55497     54.1 2.329e+04 9.165e-08
 50.56002     54.0 2.335e+04 7.948e-08
 50.56865     53.4 2.401e+04 2.821e-08
 50.57876     50.8 3.170e+04 5.178e-09
 50.58887     44.3 4.788e+04 5.333e-10
 50.59424     29.4 4.238e+04 1.120e-10
 50.59929     28.1 3.764e+04 1.223e-10
 50.60908     18.3 1.542e+04 1.566e-10
 50.61918     12.1 1.350e+04 1.634e-10
 50.62845     11.2 1.598e+04 1.456e-10
 50.63355     14.7 1.255e+04 1.918e-10
 50.64455    -18.5 7.023e+04 1.355e-10
 50.65966    -54.3 7.191e+04 1.027e-09
 50.66772    -60.4 4.657e+04 7.232e-09
 50.67277    -57.6 5.310e+04 3.758e-09
 50.67982    -63.3 2.686e+04 5.270e-08
 50.68993    -64.6 2.276e+04 1.307e-07
 50.70003    -62.4 2.471e+04 1.422e-07
 50.70699    -66.8 4.193e+04 2.443e-08
 50.71204    -67.6 3.791e+04 3.628e-08
 50.72025    -88.4 3.668e+04 1.780e-09
 50.73035   -108.1 1.430e+04 5.225e-10
 50.73772   -110.9 1.105e+04 4.287e-10
 50.74277   -110.4 1.150e+04 4.278e-10
 50.74626   -111.8 1.080e+04 3.645e-10
 50.75131   -111.2 1.093e+04 3.829e-10
 50.76577   -114.6 1.016e+04 2.665e-10
 50.78057   -117.5 9.473e+03 2.083e-10
 50.79068   -116.7 9.647e+03 2.323e-10
 50.80625   -117.8 9.622e+03 2.208e-10
 50.82646   -118.7 9.703e+03 2.226e-10
 50.85688   -120.4 9.916e+03 2.446e-10
 50.89740   -123.2 9.995e+03 2.592e-10
 50.92774   -125.6 1.034e+04 3.017e-10
 50.94785   -124.7 1.055e+04 3.636e-10
 50.96795   -127.1 1.109e+04 4.690e-10
 50.98816   -129.9 1.180e+04 6.705e-10
 51.00608   -132.6 1.243e+04 1.001e-09
 51.01619   -131.9 1.224e+04 9.500e-10
 51.02859   -133.7 1.265e+04 1.208e-09
 51.04880   -134.8 1.300e+04 1.470e-09
 51.06901   -135.6 1.324e+04 1.649e-09
 51.08462   -136.2 1.330e+04 1.699e-09
 51.09473   -135.8 1.282e+04 1.337e-09
 51.10944   -136.5 1.279e+04 1.301e-09
 51.12389   -137.3 1.260e+04 1.139e-09
 51.13400   -138.8 1.224e+04 9.148e-10
 51.14986   -139.9 1.198e+04 7.955e-10
 51.16316   -140.9 1.173e+04 7.143e-10
 51.17327   -140.2 1.162e+04 7.038e-10
 51.19029   -140.8 1.160e+04 7.044e-10
 51.21050   -141.2 1.165e+04 7.213e-10
 51.23071   -141.4 1.167e+04 7.260e-10
 51.24170   -141.6 1.165e+04 7.124e-10
 51.25180   -140.6 1.192e+04 8.404e-10
 51.27114   -140.8 1.188e+04 8.237e-10
 51.29135   -140.8 1.179e+04 7.891e-10
 51.31013   -140.9 1.169e+04 7.581e-10
 51.32024   -140.0 1.197e+04 8.960e-10
 51.33178   -140.0 1.191e+04 8.703e-10
 51.35199   -140.0 1.190e+04 8.634e-10
 51.37220   -140.2 1.199e+04 8.981e-10
 51.38867   -140.4 1.221e+04 9.984e-10
 51.39878   -139.6 1.224e+04 1.037e-09
 51.41263   -139.8 1.245e+04 1.143e-09
 51.43284   -140.1 1.266e+04 1.273e-09
 51.45305   -140.5 1.286e+04 1.419e-09
 51.46721   -140.9 1.306e+04 1.555e-09
 51.47731   -140.0 1.291e+04 1.469e-09
 51.49348   -140.5 1.306e+04 1.565e-09
 51.51369   -141.3 1.313e+04 1.594e-09
 51.53574   -142.4 1.302e+04 1.493e-09
 51.55595   -141.5 1.290e+04 1.466e-09
 51.57433   -142.2 1.267e+04 1.278e-09
 51.59454   -142.8 1.235e+04 1.061e-09
 51.62496   -143.2 1.200e+04 8.699e-10
 51.66548   -144.2 1.142e+04 6.517e-10
 51.69291   -144.5 1.097e+04 5.269e-10
 51.70292   -143.6 1.115e+04 5.873e-10
 51.71582   -143.6 1.109e+04 5.768e-10
 51.73603   -143.5 1.103e+04 5.732e-10
 51.75624   -143.4 1.099e+04 5.718e-10
 51.77126   -143.3 1.092e+04 5.690e-10
 51.78136   -142.7 1.117e+04 6.574e-10
 51.79667   -142.6 1.111e+04 6.372e-10
 51.81688   -142.2 1.100e+04 6.150e-10
 51.83709   -141.7 1.093e+04 5.964e-10
 51.84979   -141.2 1.085e+04 5.673e-10
 51.85990   -140.6 1.115e+04 6.850e-10
 51.87752   -140.2 1.107e+04 6.566e-10
 51.89605   -139.6 1.093e+04 6.049e-10
 51.90616   -139.9 1.087e+04 5.786e-10
 51.91794   -139.5 1.071e+04 5.244e-10
 51.94836   -138.8 1.065e+04 4.962e-10
 51.98685   -136.9 1.044e+04 4.492e-10
 52.00707   -136.8 1.081e+04 5.357e-10
 52.02931   -134.7 1.060e+04 4.840e-10
 52.06973   -132.6 1.045e+04 4.576e-10
 52.11016   -130.3 1.037e+04 4.498e-10
 52.14393   -128.1 1.036e+04 4.550e-10
 52.16414   -128.0 1.038e+04 4.534e-10
 52.19101   -125.6 1.052e+04 4.804e-10
 52.23143   -123.4 1.080e+04 5.313e-10
 52.27186   -121.3 1.118e+04 6.198e-10
 52.30101   -119.8 1.164e+04 7.830e-10
 52.32122   -120.7 1.144e+04 6.466e-10
 52.35271   -120.7 1.205e+04 9.839e-10
 52.37945   -119.9 1.288e+04 1.804e-09
 52.38946   -121.2 1.268e+04 1.533e-09
 52.40305   -121.4 1.337e+04 2.178e-09
 52.42326   -121.6 1.404e+04 2.605e-09
 52.44347   -123.6 1.499e+04 2.507e-09
 52.45789   -126.6 1.573e+04 2.900e-09
 52.46800   -127.2 1.408e+04 1.694e-09
 52.48390   -131.0 1.468e+04 1.855e-09
 52.50411   -134.1 1.544e+04 2.182e-09
 52.52432   -136.2 1.516e+04 2.514e-09
 52.53643   -137.5 1.498e+04 2.606e-09
 52.54653   -136.6 1.475e+04 2.461e-09
 52.56475   -137.1 1.478e+04 2.572e-09
 52.58496   -137.6 1.470e+04 2.463e-09
 52.60486   -138.2 1.458e+04 2.239e-09
 52.61497   -136.7 1.445e+04 2.243e-09
 52.62539   -137.3 1.433e+04 1.993e-09
 52.64560   -137.9 1.420e+04 1.805e-09
 52.66581   -138.5 1.408e+04 1.738e-09
 52.67831   -138.8 1.399e+04 1.752e-09
 52.68579   -136.6 1.421e+04 1.875e-09
 52.69351   -135.1 1.418e+04 1.845e-09
 52.70624   -135.4 1.416e+04 1.872e-09
 52.72645   -135.5 1.407e+04 2.023e-09
 52.74666   -135.5 1.407e+04 2.178e-09
 52.76194   -135.2 1.406e+04 2.254e-09
 52.77204   -133.9 1.425e+04 2.405e-09
 52.78709   -133.7 1.430e+04 2.511e-09
 52.80730   -133.7 1.417e+04 2.531e-09
 52.82751   -134.2 1.409e+04 2.422e-09
 52.84048   -135.2 1.408e+04 2.341e-09
 52.85058   -135.5 1.503e+04 3.251e-09
 52.86794   -137.1 1.509e+04 3.447e-09
 52.88815   -138.7 1.514e+04 3.748e-09
 52.90836   -139.9 1.519e+04 4.093e-09
 52.91902   -140.8 1.516e+04 4.334e-09
 52.92912   -141.0 1.516e+04 4.593e-09
 52.94879   -141.7 1.477e+04 4.029e-09
 52.96900   -142.4 1.450e+04 3.499e-09
 52.98745   -143.1 1.438e+04 3.117e-09
 52.99755   -143.8 1.325e+04 2.045e-09
 53.00943   -144.4 1.296e+04 1.719e-09
 53.02964   -144.7 1.287e+04 1.553e-09
 53.04985   -144.6 1.297e+04 1.479e-09
 53.06599   -144.1 1.309e+04 1.439e-09
 53.07609   -144.9 1.103e+04 7.672e-10
 53.09028   -144.2 1.106e+04 7.381e-10
 53.11049   -143.6 1.110e+04 7.289e-10
 53.13070   -142.9 1.119e+04 7.326e-10
 53.14452   -142.1 1.137e+04 7.758e-10
 53.15463   -142.1 1.028e+04 5.398e-10
 53.17113   -141.3 1.050e+04 5.934e-10
 53.19134   -140.3 1.076e+04 6.728e-10
 53.21155   -139.2 1.103e+04 7.760e-10
 53.22306   -137.9 1.131e+04 8.998e-10
 53.23317   -137.8 1.080e+04 7.379e-10
 53.25198   -136.6 1.106e+04 8.620e-10
 53.27219   -135.3 1.135e+04 1.002e-09
 53.29150   -133.9 1.169e+04 1.169e-09
 53.30160   -133.9 1.140e+04 1.064e-09
 53.31262   -132.7 1.177e+04 1.255e-09
 53.33283   -131.7 1.216e+04 1.486e-09
 53.35304   -130.8 1.257e+04 1.775e-09
 53.37003   -130.1 1.305e+04 2.169e-09
 53.38014   -130.2 1.273e+04 1.912e-09
 53.39347   -129.9 1.341e+04 2.467e-09
 53.41368   -129.7 1.425e+04 3.415e-09
 53.43389   -129.6 1.523e+04 4.783e-09
 53.44857   -129.4 1.635e+04 6.567e-09
 53.45504   -130.4 1.611e+04 6.333e-09
 53.46058   -130.4 1.700e+04 7.794e-09
 53.47432   -130.1 1.826e+04 1.171e-08
 53.48779   -129.5 1.889e+04 1.386e-08
 53.49280   -129.7 1.894e+04 1.378e-08
 53.49948   -129.9 1.905e+04 1.450e-08
 53.50959   -130.5 1.985e+04 1.871e-08
 53.51970   -131.3 2.018e+04 2.264e-08
 53.52701   -131.9 2.013e+04 2.462e-08
 53.53207   -132.0 1.962e+04 2.008e-08
 53.53991   -132.5 1.953e+04 2.063e-08
 53.55002   -132.7 1.939e+04 2.091e-08
 53.56012   -133.0 1.935e+04 2.084e-08
 53.56628   -133.3 1.939e+04 2.058e-08
 53.57134   -133.4 1.916e+04 1.583e-08
 53.58033   -133.7 1.926e+04 1.601e-08
 53.59044   -134.1 1.934e+04 1.619e-08
 53.60050   -134.5 1.935e+04 1.633e-08
 53.61061   -135.2 1.875e+04 1.353e-08
 53.62076   -135.5 1.877e+04 1.355e-08
 53.63087   -135.9 1.872e+04 1.317e-08
 53.63977   -136.2 1.858e+04 1.249e-08
 53.64482   -136.5 1.817e+04 1.132e-08
 53.65108   -136.7 1.811e+04 1.105e-08
 53.66119   -136.9 1.801e+04 1.054e-08
 53.67129   -137.3 1.777e+04 9.655e-09
 53.67904   -137.4 1.759e+04 8.988e-09
 53.68414   -137.7 1.772e+04 9.531e-09
 53.69666   -138.4 1.736e+04 8.740e-09
 53.71687   -139.3 1.708e+04 8.440e-09
 53.73708   -139.8 1.680e+04 7.904e-09
 53.75262   -140.1 1.659e+04 7.421e-09
 53.76273   -140.1 1.695e+04 8.555e-09
 53.77240   -140.1 1.647e+04 7.434e-09
 53.78246   -140.3 1.631e+04 6.999e-09
 53.79179   -140.4 1.607e+04 6.388e-09
 53.79685   -140.4 1.622e+04 6.763e-09
 53.80267   -140.6 1.602e+04 6.299e-09
 53.81278   -140.9 1.574e+04 5.707e-09
 53.82289   -141.1 1.561e+04 5.461e-09
 53.83106   -141.5 1.545e+04 5.125e-09
 53.83611   -141.7 1.555e+04 5.486e-09
 53.84150   -142.0 1.548e+04 5.389e-09
 53.84656   -142.4 1.626e+04 6.701e-09
 53.85321   -142.8 1.614e+04 6.578e-09
 53.86331   -143.1 1.612e+04 6.588e-09
 53.87033   -143.4 1.611e+04 6.576e-09
 53.87538   -143.6 1.613e+04 6.856e-09
 53.88352   -143.8 1.615e+04 6.934e-09
 53.89363   -143.9 1.615e+04 6.902e-09
 53.90374   -144.1 1.612e+04 6.782e-09
 53.90960   -144.4 1.604e+04 6.532e-09
 53.91465   -144.3 1.624e+04 7.306e-09
 53.92395   -144.5 1.611e+04 6.955e-09
 53.93406   -144.7 1.591e+04 6.542e-09
 53.94382   -144.7 1.567e+04 6.045e-09
 53.94887   -144.6 1.576e+04 6.346e-09
 53.95937   -144.9 1.529e+04 5.208e-09
 53.97813   -145.3 1.441e+04 3.684e-09
 53.98824   -144.5 1.470e+04 4.281e-09
 53.99984   -145.7 1.377e+04 3.012e-09
 54.02006   -147.3 1.306e+04 2.243e-09
 54.04027   -148.8 1.303e+04 1.891e-09
 54.05667   -149.9 1.349e+04 1.748e-09
 54.06677   -149.6 1.419e+04 2.035e-09
 54.08070   -150.6 1.385e+04 1.727e-09
 54.10091   -151.6 1.367e+04 1.535e-09
 54.12112   -152.1 1.347e+04 1.373e-09
 54.13521   -152.2 1.314e+04 1.201e-09
 54.14531   -151.9 1.366e+04 1.460e-09
 54.16155   -151.6 1.315e+04 1.257e-09
 54.18176   -151.3 1.245e+04 1.053e-09
 54.20197   -151.3 1.199e+04 9.482e-10
 54.21375   -151.5 1.193e+04 9.338e-10
 54.22385   -151.3 1.235e+04 1.181e-09
 54.23273   -151.3 1.237e+04 1.242e-09
 54.24284   -152.8 1.373e+04 2.461e-09
 54.26261   -152.6 1.361e+04 2.499e-09
 54.28218   -152.1 1.348e+04 2.524e-09
 54.29228   -151.5 1.371e+04 2.927e-09
 54.30303   -151.0 1.354e+04 2.856e-09
 54.32325   -150.5 1.333e+04 2.706e-09
 54.34346   -150.0 1.308e+04 2.491e-09
 54.36072   -149.5 1.282e+04 2.248e-09
 54.37082   -148.6 1.293e+04 2.346e-09
 54.38388   -148.1 1.264e+04 2.057e-09
 54.40410   -147.7 1.238e+04 1.808e-09
 54.42431   -147.2 1.214e+04 1.623e-09
 54.43925   -146.7 1.206e+04 1.478e-09
 54.44936   -146.2 1.200e+04 1.419e-09
 54.46474   -145.9 1.192e+04 1.343e-09
 54.48495   -145.7 1.190e+04 1.279e-09
 54.50516   -145.6 1.188e+04 1.213e-09
 54.51779   -145.7 1.187e+04 1.149e-09
 54.52790   -145.1 1.186e+04 1.169e-09
 54.54559   -145.5 1.185e+04 1.120e-09
 54.56580   -146.5 1.187e+04 1.091e-09
 54.58601   -147.8 1.259e+04 1.330e-09
 54.59633   -149.5 1.385e+04 2.043e-09
 54.60644   -149.9 1.429e+04 2.464e-09
 54.62644   -151.4 1.530e+04 4.085e-09
 54.64665   -152.5 1.593e+04 5.788e-09
 54.66476   -153.5 1.613e+04 6.676e-09
 54.67487   -153.7 1.588e+04 6.029e-09
 54.68707   -154.3 1.573e+04 5.979e-09
 54.70729   -154.7 1.531e+04 5.205e-09
 54.72750   -155.3 1.475e+04 4.040e-09
 54.74330   -156.0 1.409e+04 3.035e-09
 54.75341   -156.3 1.364e+04 2.383e-09
 54.76792   -156.8 1.303e+04 1.916e-09
 54.78814   -157.0 1.257e+04 1.635e-09
 54.80835   -156.8 1.227e+04 1.469e-09
 54.82184   -156.2 1.211e+04 1.369e-09
 54.83195   -156.0 1.204e+04 1.288e-09
 54.84878   -155.3 1.203e+04 1.274e-09
 54.86899   -154.5 1.203e+04 1.266e-09
 54.88920   -153.8 1.202e+04 1.251e-09
 54.90038   -153.1 1.200e+04 1.234e-09
 54.91049   -152.6 1.199e+04 1.225e-09
 54.92963   -151.9 1.195e+04 1.202e-09
 54.94984   -151.0 1.190e+04 1.161e-09
 54.96881   -150.1 1.183e+04 1.110e-09
 54.97892   -149.6 1.179e+04 1.048e-09
 54.99026   -148.7 1.173e+04 9.882e-10
 55.00489   -147.8 1.165e+04 9.062e-10
 55.01500   -148.3 1.158e+04 7.845e-10
 55.03069   -147.6 1.148e+04 6.640e-10
 55.04735   -147.0 1.134e+04 5.626e-10
 55.06766   -146.7 1.127e+04 5.069e-10
 55.10163   -145.0 1.105e+04 4.400e-10
 55.14205   -143.1 1.094e+04 4.139e-10
 55.18248   -141.4 1.090e+04 4.025e-10
 55.20462   -140.1 1.083e+04 3.742e-10
 55.21463   -139.2 1.097e+04 4.170e-10
 55.23282   -138.6 1.093e+04 3.908e-10
 55.26323   -137.8 1.091e+04 3.743e-10
 55.30375   -136.5 1.070e+04 2.954e-10
 55.34149   -135.3 1.046e+04 2.327e-10
 55.36170   -134.6 1.072e+04 2.584e-10
 55.38461   -133.5 1.051e+04 2.091e-10
 55.42503   -132.3 1.037e+04 1.949e-10
 55.46546   -131.0 1.035e+04 1.920e-10
 55.49856   -129.9 1.048e+04 1.973e-10
 55.51878   -129.9 1.087e+04 2.504e-10
 55.54631   -128.8 1.083e+04 2.782e-10
 55.58673   -127.6 1.074e+04 3.050e-10
 55.62716   -126.2 1.064e+04 3.173e-10
 55.65564   -124.6 1.051e+04 3.175e-10
 55.67585   -124.6 1.053e+04 3.501e-10
 55.70801   -123.0 1.037e+04 3.241e-10
 55.74843   -121.2 1.023e+04 2.976e-10
 55.78886   -119.3 1.011e+04 2.764e-10
 55.81272   -117.3 1.000e+04 2.581e-10
 55.83293   -117.2 9.845e+03 2.398e-10
 55.86971   -115.2 9.780e+03 2.254e-10
 55.91013   -113.2 9.754e+03 2.203e-10
 55.94958   -111.1 9.733e+03 2.185e-10
 55.96980   -111.1 9.580e+03 2.014e-10
 55.99098   -109.0 9.586e+03 2.025e-10
 56.03141   -107.0 9.590e+03 2.123e-10
 56.07183   -105.1 9.657e+03 2.372e-10
 56.10666   -103.2 9.768e+03 2.798e-10
 56.12687   -103.0 9.489e+03 2.202e-10
 56.15269   -101.0 9.602e+03 2.546e-10
 56.19311    -98.9 9.747e+03 3.061e-10
 56.23354    -96.8 9.910e+03 3.712e-10
 56.26374    -94.5 1.008e+04 4.420e-10
 56.28395    -94.3 9.715e+03 3.100e-10
 56.31439    -92.1 9.871e+03 3.673e-10
 56.35481    -89.8 1.004e+04 4.322e-10
 56.39524    -87.6 1.027e+04 5.208e-10
 56.42081    -85.5 1.066e+04 6.663e-10
 56.44103    -85.3 1.021e+04 4.765e-10
 56.47609    -83.3 1.081e+04 6.822e-10
 56.51651    -81.9 1.162e+04 1.043e-09
 56.54940    -81.0 1.263e+04 1.754e-09
 56.56961    -80.5 1.247e+04 1.629e-09
 56.57779    -80.1 1.324e+04 2.509e-09
 56.58780    -79.8 1.292e+04 2.091e-09
 56.60727    -79.4 1.359e+04 2.911e-09
 56.62749    -78.6 1.413e+04 3.820e-09
 56.64613    -78.0 1.440e+04 4.292e-09
 56.65624    -77.9 1.419e+04 3.744e-09
 56.66791    -77.4 1.431e+04 4.010e-09
 56.68812    -76.9 1.427e+04 4.018e-09
 56.70834    -76.3 1.404e+04 3.621e-09
 56.72467    -76.0 1.376e+04 3.103e-09
 56.73477    -75.9 1.355e+04 2.815e-09
 56.74876    -75.5 1.327e+04 2.429e-09
 56.76898    -75.1 1.302e+04 2.051e-09
 56.78919    -74.9 1.288e+04 1.841e-09
 56.80321    -74.4 1.272e+04 1.634e-09
 56.81331    -74.3 1.237e+04 1.456e-09
 56.83982    -73.6 1.218e+04 1.253e-09
 56.87183    -72.4 1.212e+04 1.163e-09
 56.89205    -72.0 1.156e+04 1.011e-09
 56.92077    -70.7 1.163e+04 1.012e-09
 56.96119    -69.8 1.188e+04 1.098e-09
 57.00162    -69.1 1.205e+04 1.188e-09
 57.02891    -68.6 1.226e+04 1.321e-09
 57.04912    -67.4 1.187e+04 1.185e-09
 57.08247    -66.8 1.213e+04 1.322e-09
 57.12289    -66.3 1.219e+04 1.354e-09
 57.16332    -65.7 1.195e+04 1.144e-09
 57.18599    -65.0 1.144e+04 7.824e-10
 57.20620    -63.8 1.174e+04 9.655e-10
 57.23396    -63.4 1.117e+04 6.007e-10
 57.25408    -63.2 1.108e+04 5.599e-10
 57.26433    -62.6 1.064e+04 3.800e-10
 57.27444    -62.1 1.077e+04 4.235e-10
 57.29450    -61.6 1.058e+04 3.592e-10
 57.32275    -61.0 1.028e+04 2.946e-10
 57.34306    -59.8 1.048e+04 3.320e-10
 57.36544    -58.5 1.034e+04 3.080e-10
 57.40587    -57.2 1.045e+04 3.169e-10
 57.44629    -56.3 1.085e+04 4.352e-10
 57.47993    -55.4 1.112e+04 5.778e-10
 57.50014    -54.5 1.123e+04 5.988e-10
 57.52714    -53.8 1.144e+04 7.379e-10
 57.56757    -53.0 1.145e+04 7.810e-10
 57.60799    -52.0 1.124e+04 6.934e-10
 57.63701    -50.8 1.095e+04 5.395e-10
 57.65722    -50.4 1.106e+04 5.257e-10
 57.68885    -49.4 1.080e+04 3.831e-10
 57.72927    -48.4 1.074e+04 3.075e-10
 57.76970    -47.5 1.073e+04 2.831e-10
 57.79408    -46.7 1.074e+04 2.770e-10
 57.81430    -46.5 1.084e+04 2.768e-10
 57.85055    -45.8 1.091e+04 2.903e-10
 57.89097    -45.0 1.104e+04 3.112e-10
 57.93095    -44.0 1.110e+04 3.212e-10
 57.95116    -43.4 1.108e+04 3.154e-10
 57.97182    -42.0 1.109e+04 2.922e-10
 58.01225    -40.7 1.092e+04 2.428e-10
 58.05267    -39.8 1.079e+04 2.034e-10
 58.08803    -39.3 1.076e+04 1.960e-10
 58.10824    -38.3 1.096e+04 2.197e-10
 58.11392    -37.7 1.094e+04 2.491e-10
 58.13414    -36.9 1.114e+04 3.047e-10
 58.17395    -36.4 1.096e+04 3.856e-10
 58.20417    -35.5 1.088e+04 4.372e-10
 58.22428    -35.5 1.084e+04 4.397e-10
 58.24500    -34.4 1.087e+04 4.852e-10
 58.26532    -33.4 1.088e+04 4.756e-10
 58.29522    -32.0 1.069e+04 3.744e-10
 58.33565    -31.4 1.060e+04 3.004e-10
 58.37607    -31.1 1.049e+04 2.748e-10
 58.40218    -30.7 1.045e+04 3.126e-10
 58.42239    -28.9 1.053e+04 2.774e-10
 58.45693    -28.3 1.056e+04 3.580e-10
 58.49735    -27.1 1.094e+04 4.450e-10
 58.52757    -26.5 1.116e+04 5.097e-10
 58.54769    -26.6 1.114e+04 5.113e-10
 58.55906    -25.9 1.132e+04 5.612e-10
 58.56917    -24.9 1.129e+04 5.507e-10
 58.58811    -24.8 1.127e+04 5.551e-10
 58.60832    -24.8 1.142e+04 6.105e-10
 58.62749    -25.0 1.156e+04 6.699e-10
 58.63760    -23.6 1.152e+04 6.223e-10
 58.64875    -23.7 1.167e+04 7.011e-10
 58.66896    -23.9 1.165e+04 7.949e-10
 58.68918    -23.9 1.166e+04 8.715e-10
 58.70603    -24.2 1.180e+04 9.858e-10
 58.71614    -23.1 1.207e+04 1.028e-09
 58.72960    -24.9 1.310e+04 1.402e-09
 58.74981    -28.3 1.463e+04 2.226e-09
 58.77003    -31.2 1.544e+04 3.483e-09
 58.78457    -32.4 1.575e+04 4.300e-09
 58.79468    -32.1 1.669e+04 7.165e-09
 58.81045    -32.4 1.699e+04 7.442e-09
 58.83066    -32.6 1.768e+04 4.667e-09
 58.85088    -40.2 1.663e+04 2.243e-09
 58.86311    -47.7 1.541e+04 2.086e-09
 58.87322    -47.9 1.629e+04 2.971e-09
 58.88589    -50.8 1.581e+04 4.182e-09
 58.89599    -50.7 1.591e+04 4.277e-09
 58.91151    -51.5 1.618e+04 6.163e-09
 58.93154    -51.6 1.663e+04 7.329e-09
 58.94165    -50.9 1.684e+04 7.855e-09
 58.95194    -52.0 1.721e+04 8.085e-09
 58.97215    -54.9 1.770e+04 7.761e-09
 58.99236    -59.8 1.868e+04 8.327e-09
 59.01008    -65.0 1.963e+04 1.084e-08
 59.02014    -67.0 2.099e+04 2.066e-08
 59.02764    -68.4 2.117e+04 2.593e-08
 59.03775    -69.7 2.143e+04 2.827e-08
 59.04785    -71.0 2.154e+04 2.844e-08
 59.05430    -72.5 2.160e+04 2.385e-08
 59.05936    -72.2 2.229e+04 3.797e-08
 59.06806    -74.2 2.200e+04 2.336e-08
 59.07817    -76.9 2.103e+04 1.434e-08
 59.08857    -81.0 1.890e+04 7.730e-09
 59.09872    -81.7 1.989e+04 9.988e-09
 59.11364    -87.4 1.634e+04 4.447e-09
 59.13385    -92.7 1.266e+04 1.757e-09
 59.15407    -94.4 1.116e+04 1.168e-09
 59.16716    -95.1 1.068e+04 9.698e-10
 59.17726    -96.1 1.048e+04 8.718e-10
 59.19449    -96.7 1.017e+04 7.296e-10
 59.21470    -97.2 9.871e+03 6.143e-10
 59.23492    -97.5 9.660e+03 5.463e-10
 59.24570    -97.8 9.592e+03 5.191e-10
 59.25580    -99.0 9.666e+03 5.389e-10
 59.27534   -100.9 1.006e+04 5.863e-10
 59.29555   -105.1 1.215e+04 1.026e-09
 59.31413   -108.7 1.404e+04 2.191e-09
 59.32423   -111.2 1.504e+04 3.730e-09
 59.33598   -112.3 1.581e+04 5.884e-09
 59.35619   -112.9 1.614e+04 7.176e-09
 59.37640   -113.4 1.618e+04 7.392e-09
 59.39267   -113.7 1.585e+04 6.272e-09
 59.40277   -115.2 1.519e+04 4.422e-09
 59.41683   -116.8 1.410e+04 2.510e-09
 59.43704   -119.4 1.275e+04 1.347e-09
 59.45726   -121.6 1.147e+04 8.160e-10
 59.47121   -122.7 1.067e+04 5.945e-10
 59.48131   -124.3 1.027e+04 4.895e-10
 59.49768   -124.0 1.015e+04 4.419e-10
 59.51789   -123.7 1.017e+04 4.254e-10
 59.53811   -123.9 1.020e+04 4.213e-10
 59.54974   -124.6 1.030e+04 4.224e-10
 59.55985   -127.5 1.121e+04 4.938e-10
 59.57853   -129.0 1.188e+04 7.233e-10
 59.59874   -129.6 1.230e+04 1.079e-09
 59.61818   -129.8 1.258e+04 1.453e-09
 59.62828   -130.8 1.315e+04 2.014e-09
 59.63917   -131.0 1.315e+04 2.021e-09
 59.65804   -131.3 1.295e+04 1.799e-09
 59.66815   -131.5 1.275e+04 1.658e-09
 59.67959   -132.3 1.262e+04 1.459e-09
 59.69671   -133.6 1.243e+04 1.258e-09
 59.70682   -135.7 1.208e+04 1.062e-09
 59.72002   -137.3 1.193e+04 9.879e-10
 59.74023   -138.8 1.189e+04 9.701e-10
 59.76044   -140.2 1.188e+04 9.654e-10
 59.77525   -141.6 1.187e+04 9.624e-10
 59.78536   -143.0 1.167e+04 9.092e-10
 59.80087   -144.1 1.159e+04 8.617e-10
 59.82108   -145.1 1.148e+04 7.700e-10
 59.84130   -146.2 1.134e+04 6.856e-10
 59.85379   -147.1 1.119e+04 6.296e-10
 59.86390   -147.7 1.103e+04 5.578e-10
 59.88172   -148.2 1.093e+04 5.397e-10
 59.90193   -148.6 1.091e+04 5.368e-10
 59.92215   -149.1 1.092e+04 5.388e-10
 59.94236   -151.4 1.152e+04 6.464e-10
 59.96257   -152.6 1.229e+04 9.992e-10
 59.98278   -153.6 1.307e+04 1.565e-09
 60.00076   -154.3 1.374e+04 2.277e-09
 60.01087   -155.2 1.391e+04 2.597e-09
 60.02321   -156.1 1.420e+04 3.064e-09
 60.04342   -157.0 1.425e+04 3.181e-09
 60.06363   -157.6 1.400e+04 3.116e-09
 60.07930   -157.9 1.342e+04 2.591e-09
 60.08941   -158.5 1.289e+04 2.047e-09
 60.10406   -158.8 1.227e+04 1.542e-09
 60.12427   -159.0 1.169e+04 1.160e-09
 60.14448   -158.8 1.113e+04 8.643e-10
 60.15784   -157.9 1.062e+04 6.388e-10
 60.16795   -157.9 1.019e+04 4.735e-10
 60.18491   -156.9 1.001e+04 3.819e-10
 60.20512   -156.2 1.001e+04 3.565e-10
 60.22637   -155.2 1.012e+04 3.532e-10
 60.24668   -155.8 9.944e+03 2.928e-10
 60.27606   -154.4 9.815e+03 2.516e-10
 60.31649   -152.5 9.702e+03 2.302e-10
 60.35691   -150.7 9.660e+03 2.245e-10
 60.38354   -148.9 9.710e+03 2.314e-10
 60.40376   -149.7 9.732e+03 2.370e-10
 60.43776   -148.3 9.972e+03 2.845e-10
 60.47819   -146.9 1.019e+04 3.384e-10
 60.51861   -145.6 1.035e+04 3.818e-10
 60.54052   -145.2 1.047e+04 4.280e-10
 60.55053   -146.1 1.054e+04 4.494e-10
 60.56895   -145.7 1.061e+04 4.623e-10
 60.58916   -145.3 1.071e+04 4.810e-10
 60.60886   -144.8 1.083e+04 5.000e-10
 60.61896   -145.7 1.108e+04 5.798e-10
 60.62959   -145.2 1.118e+04 6.145e-10
 60.64980   -144.6 1.127e+04 6.563e-10
 60.67001   -144.0 1.133e+04 6.985e-10
 60.68740   -143.2 1.136e+04 7.340e-10
 60.69750   -143.9 1.143e+04 7.944e-10
 60.71044   -143.0 1.141e+04 7.907e-10
 60.73065   -142.2 1.141e+04 7.797e-10
 60.75086   -141.3 1.138e+04 7.608e-10
 60.76594   -140.5 1.133e+04 7.172e-10
 60.77604   -141.1 1.119e+04 6.025e-10
 60.79129   -140.3 1.116e+04 5.465e-10
 60.81150   -139.5 1.116e+04 5.081e-10
 60.83171   -138.8 1.122e+04 4.855e-10
 60.84447   -138.3 1.127e+04 4.793e-10
 60.85458   -139.7 1.126e+04 4.174e-10
 60.87214   -139.8 1.152e+04 4.774e-10
 60.89235   -140.0 1.179e+04 5.841e-10
 60.91256   -140.0 1.203e+04 7.675e-10
 60.92301   -139.9 1.229e+04 1.047e-09
 60.93312   -140.7 1.215e+04 1.143e-09
 60.95299   -140.2 1.244e+04 1.425e-09
 60.97320   -139.7 1.269e+04 1.632e-09
 60.99144   -139.3 1.281e+04 1.706e-09
 61.00155   -139.9 1.264e+04 1.504e-09
 61.01363   -139.7 1.267e+04 1.366e-09
 61.03384   -139.7 1.262e+04 1.178e-09
 61.05405   -139.7 1.251e+04 1.021e-09
 61.06998   -139.8 1.240e+04 9.353e-10
 61.08009   -140.5 1.224e+04 8.022e-10
 61.09448   -140.6 1.224e+04 8.014e-10
 61.11469   -140.7 1.235e+04 8.813e-10
 61.13490   -140.6 1.242e+04 1.084e-09
 61.14852   -140.2 1.253e+04 1.354e-09
 61.15863   -140.6 1.256e+04 1.398e-09
 61.17533   -139.8 1.275e+04 1.720e-09
 61.19554   -139.0 1.291e+04 1.989e-09
 61.21246   -138.3 1.298e+04 2.105e-09
 61.22257   -138.3 1.310e+04 2.396e-09
 61.22706   -137.6 1.310e+04 2.437e-09
 61.23717   -137.8 1.295e+04 2.079e-09
 61.25618   -136.9 1.267e+04 1.903e-09
 61.27639   -136.0 1.232e+04 1.548e-09
 61.29549   -135.2 1.202e+04 1.219e-09
 61.30560   -135.4 1.178e+04 1.000e-09
 61.31682   -134.8 1.156e+04 8.404e-10
 61.33703   -134.2 1.134e+04 7.610e-10
 61.35724   -133.4 1.125e+04 7.302e-10
 61.37403   -132.6 1.123e+04 7.256e-10
 61.38414   -132.5 1.107e+04 6.063e-10
 61.39767   -131.8 1.113e+04 6.324e-10
 61.41788   -131.1 1.123e+04 7.115e-10
 61.43809   -130.3 1.136e+04 8.372e-10
 61.45257   -129.5 1.151e+04 1.005e-09
 61.46268   -129.4 1.133e+04 8.726e-10
 61.47852   -128.4 1.148e+04 1.053e-09
 61.49873   -127.4 1.160e+04 1.232e-09
 61.51894   -126.3 1.169e+04 1.371e-09
 61.53111   -125.2 1.172e+04 1.438e-09
 61.54121   -125.1 1.152e+04 1.263e-09
 61.55937   -124.0 1.152e+04 1.297e-09
 61.57958   -122.9 1.151e+04 1.309e-09
 61.59954   -121.9 1.145e+04 1.206e-09
 61.60965   -121.9 1.119e+04 1.091e-09
 61.62001   -120.8 1.116e+04 1.000e-09
 61.64022   -119.9 1.114e+04 9.007e-10
 61.66043   -118.9 1.105e+04 8.061e-10
 61.67808   -117.9 1.094e+04 7.326e-10
 61.68819   -117.9 1.084e+04 7.160e-10
 61.70086   -116.8 1.083e+04 6.865e-10
 61.72107   -116.0 1.084e+04 6.717e-10
 61.74128   -115.0 1.091e+04 6.753e-10
 61.75662   -114.2 1.099e+04 6.974e-10
 61.76672   -114.3 1.101e+04 7.073e-10
 61.78171   -113.4 1.105e+04 7.313e-10
 61.80192   -112.4 1.105e+04 7.363e-10
 61.82213   -111.0 1.091e+04 7.110e-10
 61.83516   -109.3 1.078e+04 6.246e-10
 61.84526   -109.2 1.075e+04 5.784e-10
 61.86256   -108.6 1.074e+04 5.435e-10
 61.89297   -107.2 1.074e+04 4.884e-10
 61.91389   -105.0 1.049e+04 4.090e-10
 61.93410   -104.8 1.033e+04 3.582e-10
 61.97392   -102.4 1.015e+04 3.123e-10
 62.01435    -99.8 1.006e+04 2.998e-10
 62.05075    -97.2 1.004e+04 3.031e-10
 62.07097    -97.2 9.884e+03 2.547e-10
 62.09520    -94.7 9.965e+03 2.724e-10
 62.13562    -92.4 1.010e+04 3.077e-10
 62.17605    -90.2 1.029e+04 3.656e-10
 62.20627    -88.7 1.050e+04 4.435e-10
 62.21774    -88.6 1.054e+04 4.861e-10
 62.22785    -88.8 1.055e+04 4.673e-10
 62.25680    -87.7 1.092e+04 6.351e-10
 62.29733    -86.8 1.172e+04 1.006e-09
 62.33775    -86.7 1.269e+04 1.720e-09
 62.36481    -87.3 1.332e+04 2.456e-09
 62.37482    -87.9 1.347e+04 2.674e-09
 62.38809    -87.8 1.371e+04 3.060e-09
 62.40830    -87.7 1.393e+04 3.409e-09
 62.42851    -87.8 1.402e+04 3.554e-09
 62.44325    -87.8 1.404e+04 3.538e-09
 62.45336    -88.3 1.413e+04 3.652e-09
 62.46894    -88.3 1.397e+04 3.196e-09
 62.48915    -88.5 1.366e+04 2.527e-09
 62.50936    -88.5 1.325e+04 1.894e-09
 62.52179    -88.4 1.278e+04 1.562e-09
 62.53190    -88.6 1.260e+04 1.410e-09
 62.54979    -88.0 1.231e+04 1.227e-09
 62.57000    -86.7 1.173e+04 8.608e-10
 62.59021    -85.6 1.145e+04 6.514e-10
 62.61043    -84.9 1.134e+04 5.301e-10
 62.63064    -84.2 1.124e+04 4.474e-10
 62.65875    -83.3 1.120e+04 4.219e-10
 62.67906    -83.4 1.167e+04 6.703e-10
 62.70158    -81.0 1.169e+04 6.870e-10
 62.74200    -78.9 1.188e+04 7.828e-10
 62.76708    -76.8 1.207e+04 8.938e-10
 62.78729    -75.9 1.153e+04 5.174e-10
 62.81593    -73.9 1.161e+04 5.461e-10
 62.83614    -74.3 1.218e+04 9.644e-10
 62.86328    -72.5 1.214e+04 9.786e-10
 62.90370    -70.6 1.190e+04 9.086e-10
 62.94413    -68.7 1.165e+04 8.299e-10
 62.97300    -66.3 1.153e+04 8.204e-10
 62.99322    -66.8 1.185e+04 9.999e-10
 63.01478    -64.6 1.155e+04 7.363e-10
 63.03489    -64.4 1.149e+04 7.197e-10
 63.05135    -62.7 1.143e+04 6.401e-10
 63.06145    -63.0 1.162e+04 7.070e-10
 63.07532    -62.4 1.147e+04 6.265e-10
 63.09553    -61.4 1.142e+04 5.735e-10
 63.11574    -61.2 1.136e+04 5.601e-10
 63.12998    -59.3 1.147e+04 5.743e-10
 63.14009    -59.8 1.143e+04 5.507e-10
 63.15617    -59.6 1.140e+04 5.463e-10
 63.17638    -58.4 1.148e+04 5.490e-10
 63.19659    -58.1 1.145e+04 5.338e-10
 63.20843    -57.3 1.164e+04 5.592e-10
 63.21853    -57.1 1.153e+04 5.305e-10
 63.23702    -56.8 1.146e+04 5.057e-10
 63.26685    -55.7 1.168e+04 5.442e-10
 63.28706    -55.4 1.146e+04 4.637e-10
 63.30786    -53.9 1.159e+04 4.376e-10
 63.34838    -51.9 1.162e+04 4.147e-10
 63.38881    -50.2 1.163e+04 3.941e-10
 63.42402    -48.0 1.165e+04 3.985e-10
 63.44424    -47.6 1.169e+04 3.963e-10
 63.46966    -45.7 1.163e+04 4.157e-10
 63.49988    -43.7 1.154e+04 4.905e-10
 63.51247    -43.4 1.156e+04 4.949e-10
 63.52258    -43.5 1.157e+04 4.957e-10
 63.53904    -41.6 1.147e+04 5.552e-10
 63.54915    -41.6 1.163e+04 5.992e-10
 63.56042    -40.7 1.175e+04 6.261e-10
 63.58063    -39.4 1.162e+04 6.673e-10
 63.59101    -38.3 1.161e+04 6.845e-10
 63.60112    -38.5 1.174e+04 6.851e-10
 63.62106    -37.1 1.165e+04 7.117e-10
 63.64127    -36.4 1.160e+04 7.382e-10
 63.65944    -35.2 1.173e+04 7.455e-10
 63.66955    -35.1 1.179e+04 7.209e-10
 63.68170    -34.6 1.189e+04 7.798e-10
 63.70191    -34.0 1.218e+04 9.129e-10
 63.72212    -33.4 1.242e+04 1.046e-09
 63.73798    -33.1 1.272e+04 1.360e-09
 63.74809    -33.6 1.278e+04 1.361e-09
 63.76255    -32.9 1.298e+04 1.734e-09
 63.78276    -32.0 1.316e+04 2.271e-09
 63.80297    -30.9 1.334e+04 2.754e-09
 63.81652    -29.9 1.350e+04 3.025e-09
 63.82663    -30.1 1.345e+04 2.787e-09
 63.84340    -29.3 1.342e+04 2.697e-09
 63.86361    -28.8 1.328e+04 2.425e-09
 63.88382    -28.5 1.295e+04 2.081e-09
 63.89506    -28.2 1.256e+04 1.753e-09
 63.90517    -28.8 1.223e+04 1.413e-09
 63.92425    -28.6 1.183e+04 1.201e-09
 63.94446    -28.0 1.148e+04 1.050e-09
 63.96349    -27.3 1.120e+04 9.294e-10
 63.97360    -27.4 1.093e+04 7.383e-10
 63.98488    -26.7 1.078e+04 6.651e-10
 64.00510    -25.9 1.066e+04 6.204e-10
 64.02531    -25.1 1.059e+04 6.028e-10
 64.04203    -24.3 1.051e+04 5.958e-10
 64.05214    -24.5 1.045e+04 5.179e-10
 64.06574    -23.6 1.042e+04 5.392e-10
 64.08595    -22.6 1.043e+04 5.616e-10
 64.10616    -21.7 1.048e+04 5.806e-10
 64.12057    -20.9 1.046e+04 5.946e-10
 64.13068    -21.1 1.054e+04 5.938e-10
 64.14659    -20.5 1.068e+04 6.107e-10
 64.16680    -20.0 1.078e+04 6.441e-10
 64.18701    -20.0 1.096e+04 7.141e-10
 64.19911    -20.7 1.156e+04 9.150e-10
 64.20921    -20.6 1.156e+04 9.148e-10
 64.22744    -21.6 1.230e+04 1.301e-09
 64.24765    -23.7 1.346e+04 2.045e-09
 64.26754    -26.5 1.490e+04 3.772e-09
 64.27765    -26.7 1.532e+04 4.030e-09
 64.28807    -26.6 1.628e+04 7.781e-09
 64.30829    -26.0 1.683e+04 1.015e-08
 64.32130    -26.0 1.680e+04 9.461e-09
 64.33141    -26.3 1.611e+04 7.478e-09
 64.34608    -27.3 1.630e+04 6.534e-09
 64.35618    -27.2 1.645e+04 7.006e-09
 64.36892    -29.2 1.647e+04 5.938e-09
 64.38914    -31.3 1.606e+04 5.279e-09
 64.40935    -32.7 1.562e+04 4.898e-09
 64.42462    -33.3 1.522e+04 4.568e-09
 64.43472    -32.6 1.515e+04 4.267e-09
 64.44978    -32.7 1.462e+04 3.618e-09
 64.46999    -32.6 1.407e+04 2.768e-09
 64.49020    -32.6 1.346e+04 1.962e-09
 64.50316    -32.4 1.310e+04 1.217e-09
 64.51326    -31.9 1.282e+04 1.103e-09
 64.53063    -32.1 1.232e+04 7.434e-10
 64.55084    -32.0 1.208e+04 4.046e-10
 64.57105    -32.5 1.174e+04 3.155e-10
 64.58169    -32.4 1.118e+04 2.556e-10
 64.59180    -31.8 1.108e+04 2.340e-10
 64.61148    -32.0 1.099e+04 2.315e-10
 64.63169    -32.0 1.101e+04 2.497e-10
 64.65013    -32.0 1.104e+04 2.562e-10
 64.66033    -31.1 1.100e+04 2.299e-10
 64.67221    -31.5 1.107e+04 3.050e-10
 64.69233    -31.8 1.126e+04 3.611e-10
 64.71254    -32.3 1.122e+04 5.189e-10
 64.72866    -32.0 1.136e+04 6.432e-10
 64.73877    -30.8 1.119e+04 5.593e-10
 64.75296    -30.6 1.157e+04 6.009e-10
 64.77318    -30.7 1.137e+04 6.143e-10
 64.79339    -30.3 1.134e+04 5.286e-10
 64.80720    -30.2 1.133e+04 4.937e-10
 64.81741    -29.2 1.131e+04 4.511e-10
 64.84412    -28.7 1.104e+04 3.126e-10
 64.88454    -28.1 1.074e+04 2.163e-10
 64.92497    -27.0 1.050e+04 2.097e-10
 64.95437    -25.6 1.086e+04 2.332e-10
 64.97458    -24.0 1.041e+04 1.996e-10
 65.00582    -22.5 1.109e+04 2.530e-10
 65.03281    -21.6 1.156e+04 3.477e-10
 65.04282    -20.4 1.131e+04 2.831e-10
 65.05615    -20.2 1.150e+04 3.354e-10
 65.07637    -19.8 1.165e+04 4.712e-10
 65.09346    -19.1 1.177e+04 6.321e-10
 65.10357    -18.9 1.170e+04 4.530e-10
 65.11125    -18.9 1.190e+04 6.554e-10
 65.12136    -18.0 1.176e+04 4.721e-10
 65.13700    -18.0 1.190e+04 7.016e-10
 65.15722    -18.1 1.225e+04 1.110e-09
 65.17743    -17.7 1.276e+04 1.722e-09
 65.18979    -17.0 1.342e+04 2.398e-09
 65.19990    -15.9 1.258e+04 1.567e-09
 65.21786    -15.2 1.317e+04 1.962e-09
 65.23807    -14.9 1.367e+04 2.214e-09
 65.25822    -14.7 1.398e+04 2.297e-09
 65.27843    -13.3 1.343e+04 1.665e-09
 65.29871    -13.2 1.340e+04 1.565e-09
 65.31892    -12.7 1.320e+04 1.397e-09
 65.33676    -12.5 1.297e+04 1.240e-09
 65.34687    -11.3 1.288e+04 1.130e-09
 65.35934    -10.8 1.261e+04 9.841e-10
 65.37956    -10.6 1.257e+04 8.602e-10
 65.39977    -10.4 1.257e+04 7.561e-10
 65.41530    -10.3 1.251e+04 7.089e-10
 65.42541     -8.6 1.251e+04 7.192e-10
 65.44019     -8.1 1.228e+04 6.832e-10
 65.46041     -7.5 1.225e+04 6.782e-10
 65.48062     -6.7 1.212e+04 6.558e-10
 65.49384     -6.5 1.212e+04 6.536e-10
 65.50394     -5.1 1.213e+04 6.662e-10
 65.52104     -4.4 1.190e+04 6.226e-10
 65.54126     -4.1 1.191e+04 6.135e-10
 65.56147     -3.3 1.177e+04 5.682e-10
 65.57238     -3.2 1.172e+04 5.318e-10
 65.58248     -2.0 1.170e+04 5.390e-10
 65.61210     -0.2 1.130e+04 4.374e-10
 65.65262      1.2 1.094e+04 3.036e-10
 65.69305      2.7 1.071e+04 2.106e-10
 65.71954      4.2 1.054e+04 1.516e-10
 65.73976      6.1 1.054e+04 1.489e-10
 65.77390      7.5 1.041e+04 1.121e-10
 65.81432      9.2 1.021e+04 9.701e-11
 65.85475     11.2 1.012e+04 9.690e-11
 65.87592     13.1 1.013e+04 1.015e-10
 65.87758     13.4 1.014e+04 1.090e-10
 65.89683     15.0 1.011e+04 9.960e-11
 65.93560     16.8 1.013e+04 1.117e-10
 65.97602     18.5 1.010e+04 1.348e-10
 66.01348     20.3 1.020e+04 1.822e-10
 66.03370     21.9 1.016e+04 1.592e-10
 66.05687     23.3 1.045e+04 2.246e-10
 66.09730     24.4 1.076e+04 3.026e-10
 66.13773     25.1 1.094e+04 3.834e-10
 66.17056     25.4 1.113e+04 4.996e-10
 66.19077     27.4 1.111e+04 4.767e-10
 66.21858     27.6 1.135e+04 6.151e-10
 66.25900     27.7 1.141e+04 6.527e-10
 66.29943     27.8 1.114e+04 5.670e-10
 66.32764     28.1 1.072e+04 4.105e-10
 66.34785     29.3 1.114e+04 5.224e-10
 66.38028     29.3 1.075e+04 3.318e-10
 66.42070     29.2 1.036e+04 2.445e-10
 66.46113     29.6 1.005e+04 2.312e-10
 66.48472     30.7 1.004e+04 2.313e-10
 66.50493     30.9 1.009e+04 2.323e-10
 66.54198     32.3 1.007e+04 2.332e-10
 66.58240     33.9 1.004e+04 2.390e-10
 66.62158     35.5 1.003e+04 2.398e-10
 66.64179     35.7 1.001e+04 1.926e-10
 66.66325     37.1 9.972e+03 1.741e-10
 66.70368     38.3 9.923e+03 1.639e-10
 66.74410     39.5 9.881e+03 1.607e-10
 66.77866     40.7 9.812e+03 1.613e-10
 66.79887     40.7 9.786e+03 1.574e-10
 66.82495     42.2 9.731e+03 1.559e-10
 66.86538     43.7 9.613e+03 1.459e-10
 66.90581     45.2 9.588e+03 1.433e-10
 66.93573     46.3 9.655e+03 1.508e-10
 66.95595     46.1 9.902e+03 1.840e-10
 66.98666     46.6 1.025e+04 2.472e-10
 67.02708     46.5 1.066e+04 3.504e-10
 67.05730     45.7 1.097e+04 4.724e-10
 67.07742     45.2 1.113e+04 5.948e-10
 67.09262     44.7 1.129e+04 6.556e-10
 67.11293     44.6 1.125e+04 6.544e-10
 67.14836     44.1 1.107e+04 5.600e-10
 67.18878     43.4 1.067e+04 3.815e-10
 67.22921     42.7 1.025e+04 2.363e-10
 67.24989     42.2 9.903e+03 1.506e-10
 67.27010     43.1 9.839e+03 1.471e-10
 67.31006     43.3 9.645e+03 1.045e-10
 67.35048     43.8 9.364e+03 8.273e-11
 67.38675     44.4 9.206e+03 8.322e-11
 67.40697     45.9 9.110e+03 6.598e-11
 67.42023     46.7 9.055e+03 6.683e-11
 67.44044     46.3 9.040e+03 6.710e-11
 67.47176     47.5 9.035e+03 7.237e-11
 67.51218     48.7 9.110e+03 8.530e-11
 67.54383     50.0 9.254e+03 1.100e-10
 67.56404     51.3 9.164e+03 8.684e-11
 67.59303     52.6 9.364e+03 1.270e-10
 67.63346     54.0 9.645e+03 1.929e-10
 67.67389     55.4 9.989e+03 2.905e-10
 67.70091     56.8 1.035e+04 4.207e-10
 67.72112     58.2 1.024e+04 3.684e-10
 67.75474     59.6 1.056e+04 5.054e-10
 67.79516     61.0 1.085e+04 6.501e-10
 67.83559     62.6 1.105e+04 7.432e-10
 67.85798     64.2 1.112e+04 7.576e-10
 67.87820     65.2 1.111e+04 7.219e-10
 67.91644     67.1 1.115e+04 7.498e-10
 67.95686     69.2 1.115e+04 7.498e-10
 67.99485     71.6 1.117e+04 7.516e-10
 68.01506     72.2 1.117e+04 6.983e-10
 68.03771     74.9 1.129e+04 7.936e-10
 68.07814     77.9 1.163e+04 9.591e-10
 68.11856     81.2 1.227e+04 1.260e-09
 68.15193     83.8 1.279e+04 1.591e-09
 68.17204     84.0 1.322e+04 1.885e-09
 68.18911     85.3 1.368e+04 2.321e-09
 68.20230     86.4 1.435e+04 3.122e-09
 68.21241     86.3 1.357e+04 2.299e-09
 68.22954     87.2 1.421e+04 3.101e-09
 68.24038     87.9 1.522e+04 4.627e-09
 68.25048     87.9 1.553e+04 4.678e-09
 68.26996     88.9 1.688e+04 7.750e-09
 68.29018     89.4 1.808e+04 1.233e-08
 68.30881     89.6 1.918e+04 1.769e-08
 68.31891     89.4 1.994e+04 1.375e-08
 68.33060     89.1 2.130e+04 1.577e-08
 68.35081     88.5 2.225e+04 1.393e-08
 68.37103     87.3 2.338e+04 8.101e-09
 68.38735     85.5 2.329e+04 4.890e-09
 68.39745     85.6 2.575e+04 6.699e-09
 68.40635     84.0 2.639e+04 1.063e-08
 68.41641     83.5 2.655e+04 1.061e-08
 68.42651     82.2 2.648e+04 9.143e-09
 68.43662     81.8 2.683e+04 1.191e-08
 68.45183     79.7 2.517e+04 5.061e-09
 68.46588     77.8 2.127e+04 4.165e-09
 68.47089     77.9 2.525e+04 2.447e-08
 68.47704     76.6 2.442e+04 1.676e-08
 68.48715     75.7 2.263e+04 1.432e-08
 68.49726     75.5 2.097e+04 1.502e-08
 68.50506     75.7 2.068e+04 1.571e-08
 68.51011     75.5 2.196e+04 3.043e-08
 68.51747     75.6 2.161e+04 3.287e-08
 68.52758     75.7 2.148e+04 3.658e-08
 68.53768     75.6 2.136e+04 3.894e-08
 68.54433     75.5 2.123e+04 3.851e-08
 68.54938     75.4 2.229e+04 7.119e-08
 68.55789     75.3 2.199e+04 6.293e-08
 68.56800     75.4 2.171e+04 5.109e-08
 68.57811     75.7 2.138e+04 3.944e-08
 68.58360     76.0 2.101e+04 2.951e-08
 68.58865     75.9 2.131e+04 3.222e-08
 68.59333     76.3 2.073e+04 2.361e-08
 68.59839     76.4 2.017e+04 2.000e-08
 68.61281     77.2 1.936e+04 1.417e-08
 68.62296     77.1 1.923e+04 1.211e-08
 68.63379     77.6 1.760e+04 6.346e-09
 68.65400     77.7 1.622e+04 3.773e-09
 68.67422     77.5 1.515e+04 2.596e-09
 68.69139     77.7 1.433e+04 2.042e-09
 68.70150     76.8 1.323e+04 1.359e-09
 68.71464     77.8 1.285e+04 1.275e-09
 68.73485     79.6 1.271e+04 1.262e-09
 68.75507     81.5 1.271e+04 1.269e-09
 68.76993     83.2 1.269e+04 1.280e-09
 68.78004     83.6 1.236e+04 1.075e-09
 68.79549     85.1 1.240e+04 1.109e-09
 68.81570     86.6 1.242e+04 1.154e-09
 68.83592     87.9 1.249e+04 1.240e-09
 68.84847     89.1 1.261e+04 1.362e-09
 68.85858     89.3 1.243e+04 1.262e-09
 68.87634     90.2 1.264e+04 1.451e-09
 68.89655     91.0 1.286e+04 1.680e-09
 68.91677     91.6 1.311e+04 1.944e-09
 68.92701     92.1 1.334e+04 2.218e-09
 68.93712     92.0 1.324e+04 2.142e-09
 68.95719     92.3 1.346e+04 2.420e-09
 68.97446     92.7 1.364e+04 2.663e-09
 68.98456     93.4 1.363e+04 2.642e-09
 68.99544     93.7 1.381e+04 2.911e-09
 69.00555     93.2 1.379e+04 2.896e-09
 69.01783     93.4 1.384e+04 3.033e-09
 69.03804     93.6 1.378e+04 2.926e-09
 69.05826     93.7 1.360e+04 2.678e-09
 69.07398     93.8 1.332e+04 2.336e-09
 69.08409     93.6 1.332e+04 2.494e-09
 69.09868     93.8 1.296e+04 2.050e-09
 69.11889     93.9 1.258e+04 1.670e-09
 69.13911     94.0 1.221e+04 1.393e-09
 69.15252     94.1 1.193e+04 1.226e-09
 69.16263     94.0 1.186e+04 1.138e-09
 69.17953     94.0 1.167e+04 1.074e-09
 69.19974     94.2 1.166e+04 1.080e-09
 69.21996     94.4 1.167e+04 1.125e-09
 69.23106     94.6 1.182e+04 1.235e-09
 69.24116     95.0 1.160e+04 1.111e-09
 69.26038     95.2 1.189e+04 1.298e-09
 69.28059     95.4 1.230e+04 1.553e-09
 69.29949     95.5 1.272e+04 1.815e-09
 69.30960     95.9 1.272e+04 1.867e-09
 69.32102     96.1 1.321e+04 2.222e-09
 69.34123     96.1 1.340e+04 2.272e-09
 69.36144     96.1 1.336e+04 2.182e-09
 69.37803     96.1 1.311e+04 1.865e-09
 69.38814     96.6 1.356e+04 2.399e-09
 69.40187     96.7 1.312e+04 1.882e-09
 69.42208     96.8 1.254e+04 1.383e-09
 69.44230     96.6 1.194e+04 1.018e-09
 69.45657     96.5 1.142e+04 7.955e-10
 69.46667     97.2 1.161e+04 8.573e-10
 69.48272     97.1 1.112e+04 6.845e-10
 69.50293     97.2 1.086e+04 6.097e-10
 69.52315     97.5 1.080e+04 5.846e-10
 69.53511     98.0 1.077e+04 5.764e-10
 69.54521     98.5 1.060e+04 5.213e-10
 69.56357     99.1 1.057e+04 5.087e-10
 69.58378     99.8 1.055e+04 4.924e-10
 69.60354    100.7 1.049e+04 4.623e-10
 69.61364    101.2 1.037e+04 4.179e-10
 69.62421    101.8 1.032e+04 3.943e-10
 69.65463    103.0 1.018e+04 3.695e-10
 69.68227    105.1 9.997e+03 3.262e-10
 69.70248    106.0 9.917e+03 2.964e-10
 69.73557    108.4 9.792e+03 2.782e-10
 69.77600    110.8 9.816e+03 2.811e-10
 69.81642    113.1 9.923e+03 2.959e-10
 69.83925    114.4 9.921e+03 3.098e-10
 69.85946    116.2 9.756e+03 2.672e-10
 69.88707    117.1 9.834e+03 3.089e-10
 69.90719    117.9 9.910e+03 3.747e-10
 69.91769    118.0 1.058e+04 5.276e-10
 69.92780    119.1 9.986e+03 3.388e-10
 69.94761    118.7 1.102e+04 5.429e-10
 69.96782    117.0 1.286e+04 1.178e-09
 69.98612    115.4 1.443e+04 2.833e-09
 69.99623    116.9 1.359e+04 1.585e-09
 70.00825    116.4 1.493e+04 3.721e-09
 70.02846    117.1 1.593e+04 7.020e-09
 70.04867    117.8 1.644e+04 9.044e-09
 70.06466    118.4 1.646e+04 8.732e-09
 70.07477    119.2 1.590e+04 7.392e-09
 70.08910    119.8 1.591e+04 6.859e-09
 70.10931    120.2 1.582e+04 5.002e-09
 70.12952    120.2 1.557e+04 2.852e-09
 70.14320    119.0 1.491e+04 1.371e-09
 70.15331    120.9 1.495e+04 1.985e-09
 70.16995    119.5 1.432e+04 9.939e-10
 70.19016    117.7 1.256e+04 6.105e-10
 70.21038    117.2 1.102e+04 5.801e-10
 70.22174    117.8 1.100e+04 5.803e-10
 70.23185    118.5 1.118e+04 5.882e-10
 70.25080    119.0 1.112e+04 6.065e-10
 70.27101    119.7 1.112e+04 6.718e-10
 70.29017    120.4 1.132e+04 7.810e-10
 70.30028    121.0 1.124e+04 7.516e-10
 70.31144    121.6 1.156e+04 9.555e-10
 70.33165    122.1 1.202e+04 1.245e-09
 70.35186    122.5 1.250e+04 1.644e-09
 70.36871    123.0 1.292e+04 2.135e-09
 70.37882    123.6 1.278e+04 2.070e-09
 70.39229    124.4 1.325e+04 2.643e-09
 70.41250    125.1 1.362e+04 2.941e-09
 70.43271    125.5 1.365e+04 2.927e-09
 70.44725    125.8 1.358e+04 2.681e-09
 70.45736    126.6 1.388e+04 2.870e-09
 70.47314    126.8 1.369e+04 2.438e-09
 70.49335    127.0 1.321e+04 1.822e-09
 70.51356    126.8 1.255e+04 1.308e-09
 70.52579    126.6 1.196e+04 1.022e-09
 70.53099    126.8 1.250e+04 1.135e-09
 70.53898    127.1 1.341e+04 1.466e-09
 70.55399    127.0 1.260e+04 1.090e-09
 70.57420    127.2 1.193e+04 8.711e-10
 70.59422    127.6 1.152e+04 7.302e-10
 70.60433    127.4 1.283e+04 1.002e-09
 70.61463    127.7 1.224e+04 8.454e-10
 70.63484    128.3 1.189e+04 7.470e-10
 70.65505    129.2 1.173e+04 6.767e-10
 70.67276    130.2 1.169e+04 6.249e-10
 70.68287    129.6 1.199e+04 9.454e-10
 70.69548    130.4 1.188e+04 8.838e-10
 70.71569    131.3 1.175e+04 8.304e-10
 70.73590    132.2 1.165e+04 8.021e-10
 70.75130    133.1 1.168e+04 8.202e-10
 70.76140    132.9 1.193e+04 1.079e-09
 70.77633    133.7 1.198e+04 1.126e-09
 70.79654    134.6 1.209e+04 1.219e-09
 70.81675    135.6 1.227e+04 1.360e-09
 70.82984    136.6 1.247e+04 1.538e-09
 70.83994    136.2 1.253e+04 1.534e-09
 70.85718    137.2 1.268e+04 1.681e-09
 70.87739    138.3 1.276e+04 1.815e-09
 70.89760    139.5 1.269e+04 1.814e-09
 70.90837    140.9 1.264e+04 1.706e-09
 70.91848    140.3 1.237e+04 1.348e-09
 70.93803    141.2 1.268e+04 1.310e-09
 70.95824    140.8 1.297e+04 1.391e-09
 70.97681    138.4 1.598e+04 1.529e-09
 70.98691    136.1 1.731e+04 1.588e-09
 70.99867    133.0 1.973e+04 3.603e-09
 71.01888    130.8 2.046e+04 7.965e-09
 71.03399    130.2 2.056e+04 9.649e-09
 71.04405    129.0 2.083e+04 1.504e-08
 71.05415    128.2 2.097e+04 2.357e-08
 71.06030    128.0 2.106e+04 3.713e-08
 71.06535    127.7 2.109e+04 4.184e-08
 71.07437    128.0 2.131e+04 6.057e-08
 71.08447    128.3 2.179e+04 7.855e-08
 71.09452    128.2 2.228e+04 8.757e-08
 71.09957    127.6 2.217e+04 6.359e-08
 71.10469    126.9 2.231e+04 5.714e-08
 71.11479    126.1 2.228e+04 3.742e-08
 71.12490    124.8 2.165e+04 2.171e-08
 71.13384    124.2 2.056e+04 1.195e-08
 71.14399    123.1 1.924e+04 7.320e-09
 71.16037    121.6 1.690e+04 2.772e-09
 71.18058    118.8 1.334e+04 1.077e-09
 71.20079    117.1 1.157e+04 7.521e-10
 71.21242    117.3 1.136e+04 7.101e-10
 71.22253    117.1 1.145e+04 7.137e-10
 71.24122    118.3 1.142e+04 7.022e-10
 71.26143    119.6 1.142e+04 6.906e-10
 71.28085    120.8 1.140e+04 6.740e-10
 71.29096    120.3 1.158e+04 7.769e-10
 71.30103    121.5 1.151e+04 7.683e-10
 71.31114    121.7 1.190e+04 9.571e-10
 71.32207    122.7 1.176e+04 9.106e-10
 71.34228    123.7 1.163e+04 8.635e-10
 71.35939    124.7 1.153e+04 8.269e-10
 71.36950    124.2 1.173e+04 9.372e-10
 71.38271    125.0 1.170e+04 9.025e-10
 71.40292    125.9 1.169e+04 8.987e-10
 71.42313    126.8 1.168e+04 8.982e-10
 71.43793    127.7 1.164e+04 8.899e-10
 71.44804    127.2 1.168e+04 9.006e-10
 71.46356    128.3 1.161e+04 8.648e-10
 71.48377    129.5 1.153e+04 8.138e-10
 71.50398    130.4 1.145e+04 7.619e-10
 71.51647    131.2 1.137e+04 7.292e-10
 71.52658    130.7 1.137e+04 7.183e-10
 71.54441    131.4 1.138e+04 7.241e-10
 71.56462    132.0 1.143e+04 7.568e-10
 71.58483    132.4 1.155e+04 8.489e-10
 71.60505    132.3 1.186e+04 1.129e-09
 71.62526    132.8 1.213e+04 1.382e-09
 71.64547    133.5 1.241e+04 1.661e-09
 71.66344    134.1 1.267e+04 1.879e-09
 71.67355    133.9 1.284e+04 1.897e-09
 71.68590    134.3 1.287e+04 1.888e-09
 71.70611    134.7 1.288e+04 1.829e-09
 71.72632    134.9 1.283e+04 1.693e-09
 71.74198    134.9 1.272e+04 1.531e-09
 71.75209    134.3 1.254e+04 1.367e-09
 71.76675    134.1 1.239e+04 1.271e-09
 71.78696    133.9 1.237e+04 1.266e-09
 71.80717    133.7 1.238e+04 1.284e-09
 71.82052    133.5 1.244e+04 1.355e-09
 71.83062    133.3 1.235e+04 1.319e-09
 71.84760    133.0 1.255e+04 1.477e-09
 71.86781    132.6 1.285e+04 1.715e-09
 71.88802    132.0 1.322e+04 2.025e-09
 71.89906    131.1 1.362e+04 2.356e-09
 71.90916    130.8 1.411e+04 2.819e-09
 71.92845    129.6 1.445e+04 3.116e-09
 71.94866    128.2 1.444e+04 3.091e-09
 71.96749    126.9 1.424e+04 2.836e-09
 71.97760    126.4 1.487e+04 3.599e-09
 71.98909    125.5 1.415e+04 2.693e-09
 72.00930    124.9 1.325e+04 1.755e-09
 72.02951    124.0 1.238e+04 1.081e-09
 72.04603    122.5 1.174e+04 7.144e-10
 72.05613    122.0 1.163e+04 6.006e-10
 72.06994    120.1 1.126e+04 4.731e-10
 72.08330    119.1 1.111e+04 4.568e-10
 72.09340    119.9 1.114e+04 4.571e-10
 72.11036    119.2 1.108e+04 4.465e-10
 72.12457    118.7 1.105e+04 4.454e-10
 72.13467    117.4 1.088e+04 3.615e-10
 72.15079    117.1 1.084e+04 3.735e-10
 72.17100    117.0 1.082e+04 3.859e-10
 72.19121    117.0 1.081e+04 4.049e-10
 72.20310    117.0 1.083e+04 4.170e-10
 72.21321    116.7 1.076e+04 3.843e-10
 72.23164    116.7 1.077e+04 3.837e-10
 72.25185    116.6 1.078e+04 3.840e-10
 72.27154    116.5 1.081e+04 3.847e-10
 72.28164    116.3 1.077e+04 3.665e-10
 72.29228    116.2 1.081e+04 3.709e-10
 72.31249    116.1 1.088e+04 3.859e-10
 72.33270    115.9 1.103e+04 4.244e-10
 72.35008    115.7 1.120e+04 4.779e-10
 72.36018    115.7 1.113e+04 4.660e-10
 72.37313    115.6 1.128e+04 5.236e-10
 72.39334    115.5 1.141e+04 5.723e-10
 72.41355    115.2 1.160e+04 6.334e-10
 72.42861    114.2 1.211e+04 7.930e-10
 72.43872    114.4 1.206e+04 7.574e-10
 72.45398    112.5 1.299e+04 1.151e-09
 72.47419    110.4 1.415e+04 2.073e-09
 72.49440    108.8 1.521e+04 3.698e-09
 72.50715    107.8 1.598e+04 5.192e-09
 72.51726    108.1 1.552e+04 4.356e-09
 72.53483    106.7 1.574e+04 4.551e-09
 72.55504    105.4 1.560e+04 4.020e-09
 72.57525    104.4 1.501e+04 2.671e-09
 72.58579    101.7 1.385e+04 8.315e-10
 72.60610    102.4 1.350e+04 8.101e-10
 72.64619     98.3 1.089e+04 2.274e-10
 72.68662     96.6 9.679e+03 1.682e-10
 72.72275     97.1 9.478e+03 1.581e-10
 72.74296     98.6 9.381e+03 1.491e-10
 72.76747     99.8 9.324e+03 1.487e-10
 72.80789    101.5 9.324e+03 1.524e-10
 72.84832    103.3 9.429e+03 1.699e-10
 72.87983    104.7 9.767e+03 2.173e-10
 72.90004    106.2 9.619e+03 2.052e-10
 72.92917    106.4 9.946e+03 2.655e-10
 72.95827    105.6 1.033e+04 3.611e-10
 72.96828    106.1 1.026e+04 3.500e-10
 72.97951    105.5 1.083e+04 5.214e-10
 72.99972    104.6 1.163e+04 8.737e-10
 73.01993    103.8 1.241e+04 1.427e-09
 73.03671    103.1 1.295e+04 2.002e-09
 73.04682    103.7 1.293e+04 1.945e-09
 73.06036    102.7 1.303e+04 2.064e-09
 73.08057    101.6 1.292e+04 1.976e-09
 73.10078    100.7 1.248e+04 1.587e-09
 73.11525     99.6 1.173e+04 1.005e-09
 73.12536     99.8 1.171e+04 9.738e-10
 73.14121     97.8 1.100e+04 5.995e-10
 73.16142     94.5 1.110e+04 5.931e-10
 73.18163     89.0 1.200e+04 7.788e-10
 73.19379     82.9 1.394e+04 1.905e-09
 73.20389     82.5 1.424e+04 2.351e-09
 73.22206     81.1 1.593e+04 5.800e-09
 73.24227     80.6 1.732e+04 1.062e-08
 73.26222     78.9 1.826e+04 1.217e-08
 73.27233     78.6 1.781e+04 1.025e-08
 73.28270     75.5 1.782e+04 9.672e-09
 73.30291     71.7 1.740e+04 7.969e-09
 73.32312     67.7 1.631e+04 6.028e-09
 73.34076     64.4 1.498e+04 4.448e-09
 73.35086     64.4 1.475e+04 4.313e-09
 73.36355     62.5 1.403e+04 3.346e-09
 73.38376     60.1 1.365e+04 2.742e-09
 73.40397     57.3 1.350e+04 2.690e-09
 73.41930     54.9 1.332e+04 2.687e-09
 73.42940     55.6 1.304e+04 2.441e-09
 73.44440     53.8 1.286e+04 2.439e-09
 73.46461     53.4 1.264e+04 2.365e-09
 73.48482     53.6 1.228e+04 2.080e-09
 73.49784     53.7 1.184e+04 1.544e-09
 73.50794     53.6 1.178e+04 1.560e-09
 73.52525     53.4 1.142e+04 1.102e-09
 73.54546     52.2 1.105e+04 7.035e-10
 73.56567     50.2 1.045e+04 4.534e-10
 73.57637     48.6 9.658e+03 3.543e-10
 73.58648     49.4 1.009e+04 4.027e-10
 73.60610     48.4 9.514e+03 3.484e-10
 73.62631     48.3 9.394e+03 3.464e-10
 73.63772     48.4 9.389e+03 3.516e-10
 73.64611     48.6 9.480e+03 3.840e-10
 73.65491     48.8 9.670e+03 4.151e-10
 73.66674     48.8 9.687e+03 4.263e-10
 73.68695     48.8 9.799e+03 4.650e-10
 73.70716     48.7 9.998e+03 5.334e-10
 73.72334     48.7 1.032e+04 6.437e-10
 73.73345     48.6 1.046e+04 7.046e-10
 73.74759     48.2 1.099e+04 9.033e-10
 73.76780     47.5 1.178e+04 1.249e-09
 73.78801     46.7 1.269e+04 1.805e-09
 73.80188     46.1 1.340e+04 2.530e-09
 73.81199     45.9 1.382e+04 3.025e-09
 73.82844     46.1 1.407e+04 3.636e-09
 73.84865     46.4 1.427e+04 4.038e-09
 73.86886     46.5 1.436e+04 4.113e-09
 73.88042     46.5 1.434e+04 3.943e-09
 73.89053     47.1 1.426e+04 3.943e-09
 73.90929     47.0 1.412e+04 3.523e-09
 73.92950     46.5 1.384e+04 3.040e-09
 73.94885     45.8 1.346e+04 2.643e-09
 73.95896     46.6 1.322e+04 2.341e-09
 73.96992     46.2 1.297e+04 2.190e-09
 73.99014     46.2 1.278e+04 2.199e-09
 74.01035     46.5 1.274e+04 2.214e-09
 74.02739     46.9 1.273e+04 2.239e-09
 74.03750     47.7 1.256e+04 1.989e-09
 74.05078     48.1 1.262e+04 2.082e-09
 74.07099     48.5 1.272e+04 2.144e-09
 74.09120     48.7 1.281e+04 2.159e-09
 74.10593     48.7 1.290e+04 2.163e-09
 74.11604     48.9 1.296e+04 2.200e-09
 74.13163     48.3 1.338e+04 2.470e-09
 74.15184     46.8 1.421e+04 3.142e-09
 74.17205     45.2 1.532e+04 4.370e-09
 74.18442     43.7 1.631e+04 5.730e-09
 74.18943     42.2 1.728e+04 7.754e-09
 74.19722     39.6 1.914e+04 1.166e-08
 74.20733     36.4 2.116e+04 1.897e-08
 74.21743     33.5 2.249e+04 3.136e-08
 74.22364     31.5 2.292e+04 4.961e-08
 74.22869     30.8 2.331e+04 6.409e-08
 74.23764     29.6 2.315e+04 8.006e-08
 74.24775     28.9 2.297e+04 9.169e-08
 74.25786     28.4 2.330e+04 8.233e-08
 74.26796     25.5 2.435e+04 3.351e-08
 74.27807     23.2 2.375e+04 2.107e-08
 74.28818     20.8 2.213e+04 1.376e-08
 74.29713     17.2 1.997e+04 9.335e-09
 74.30218     14.2 1.811e+04 6.703e-09
 74.31349     14.4 1.837e+04 6.022e-09
 74.33144     10.8 1.512e+04 3.740e-09
 74.34155      8.7 1.333e+04 2.516e-09
 74.35396      8.9 1.262e+04 2.247e-09
 74.37418     10.1 1.233e+04 2.107e-09
 74.39439     11.6 1.207e+04 1.926e-09
 74.40987     13.1 1.178e+04 1.680e-09
 74.41536     11.9 1.209e+04 1.930e-09
 74.42009     12.2 1.201e+04 1.894e-09
 74.43482     13.7 1.166e+04 1.616e-09
 74.45503     15.1 1.131e+04 1.344e-09
 74.47524     16.4 1.100e+04 1.095e-09
 74.48852     17.6 1.068e+04 8.896e-10
 74.49862     18.2 1.074e+04 9.870e-10
 74.51567     19.4 1.049e+04 8.340e-10
 74.53588     20.7 1.033e+04 7.385e-10
 74.55609     21.9 1.022e+04 6.814e-10
 74.56706     23.1 1.011e+04 6.403e-10
 74.57716     23.7 1.024e+04 7.276e-10
 74.59652     25.0 1.020e+04 7.124e-10
 74.61673     26.2 1.025e+04 7.245e-10
 74.63549     27.4 1.043e+04 7.794e-10
 74.64559     28.0 1.056e+04 8.787e-10
 74.65715     28.9 1.083e+04 9.855e-10
 74.67737     29.9 1.108e+04 1.124e-09
 74.69758     31.0 1.139e+04 1.313e-09
 74.71403     32.0 1.177e+04 1.567e-09
 74.72413     32.4 1.193e+04 1.708e-09
 74.73800     33.3 1.231e+04 1.992e-09
 74.75822     34.3 1.271e+04 2.318e-09
 74.77843     35.3 1.322e+04 2.766e-09
 74.79257     36.1 1.373e+04 3.305e-09
 74.80267     36.4 1.336e+04 2.888e-09
 74.81886     37.3 1.374e+04 3.276e-09
 74.83907     38.0 1.430e+04 3.840e-09
 74.85928     38.0 1.506e+04 4.694e-09
 74.87110     37.6 1.612e+04 6.189e-09
 74.88121     37.9 1.529e+04 4.635e-09
 74.89971     37.1 1.658e+04 6.589e-09
 74.91992     36.7 1.788e+04 1.003e-08
 74.93954     36.6 1.875e+04 1.409e-08
 74.94964     36.5 1.773e+04 9.681e-09
 74.96034     36.5 1.811e+04 1.181e-08
 74.98056     36.6 1.799e+04 1.166e-08
 75.00077     37.0 1.736e+04 1.010e-08
 75.01807     37.5 1.637e+04 7.429e-09
 75.02818     37.4 1.621e+04 7.093e-09
 75.04119     38.0 1.533e+04 5.255e-09
 75.06141     38.3 1.442e+04 3.770e-09
 75.08162     38.4 1.358e+04 2.616e-09
 75.09661     38.8 1.271e+04 1.761e-09
 75.10672     39.4 1.253e+04 1.547e-09
 75.12204     39.8 1.193e+04 1.166e-09
 75.14226     41.2 1.118e+04 7.202e-10
 75.16247     41.7 1.084e+04 5.663e-10
 75.17525     43.5 1.037e+04 3.848e-10
 75.18480     44.0 1.017e+04 3.251e-10
 75.20244     43.5 1.016e+04 3.205e-10
 75.23341     45.4 9.550e+03 1.938e-10
 75.27383     47.8 9.269e+03 1.658e-10
 75.31221     50.8 9.185e+03 1.628e-10
 75.33242     51.2 9.185e+03 1.675e-10
 75.35469     54.3 9.174e+03 1.696e-10
 75.39511     57.5 9.170e+03 1.741e-10
 75.43554     60.6 9.200e+03 1.840e-10
 75.46929     63.6 9.285e+03 2.020e-10
 75.48950     64.2 9.384e+03 2.267e-10
 75.51639     67.3 9.477e+03 2.415e-10
 75.55681     70.3 9.677e+03 2.676e-10
 75.59724     73.2 9.956e+03 3.017e-10
 75.62637     75.6 1.020e+04 3.416e-10
 75.64658     76.3 1.019e+04 3.412e-10
 75.67809     78.5 1.030e+04 3.652e-10
 75.71851     80.8 1.030e+04 3.692e-10
 75.74873     83.0 1.030e+04 3.621e-10
 75.76885     83.8 1.036e+04 3.817e-10
 75.78325     85.0 1.043e+04 4.192e-10
 75.79335     85.2 1.044e+04 4.381e-10
 75.80927     86.4 1.061e+04 5.055e-10
 75.82949     87.6 1.082e+04 5.823e-10
 75.84970     88.8 1.102e+04 6.465e-10
 75.86179     89.9 1.115e+04 6.727e-10
 75.87189     90.1 1.116e+04 7.143e-10
 75.89012     90.9 1.119e+04 7.142e-10
 75.91034     91.5 1.122e+04 7.186e-10
 75.93022     92.0 1.119e+04 7.106e-10
 75.94042     92.0 1.138e+04 8.287e-10
 75.96106     93.5 1.116e+04 7.642e-10
 76.00149     95.2 1.115e+04 7.680e-10
 76.04191     97.0 1.128e+04 8.226e-10
 76.07214     97.8 1.145e+04 9.468e-10
 76.08730     98.8 1.159e+04 1.023e-09
 76.09740     99.4 1.158e+04 1.026e-09
 76.11246    100.2 1.170e+04 1.126e-09
 76.13268    101.1 1.184e+04 1.262e-09
 76.15289    101.9 1.204e+04 1.449e-09
 76.16583    102.8 1.231e+04 1.707e-09
 76.17594    103.5 1.236e+04 1.751e-09
 76.19331    104.5 1.272e+04 2.142e-09
 76.21353    105.5 1.320e+04 2.627e-09
 76.23374    106.5 1.377e+04 3.190e-09
 76.24437    107.3 1.434e+04 3.769e-09
 76.25448    108.4 1.460e+04 4.248e-09
 76.27416    108.5 1.516e+04 4.978e-09
 76.28928    108.5 1.537e+04 5.066e-09
 76.29933    108.5 1.562e+04 5.335e-09
 76.30944    108.4 1.627e+04 6.126e-09
 76.31776    108.4 1.652e+04 6.433e-09
 76.32281    108.6 1.717e+04 8.145e-09
 76.32965    108.6 1.761e+04 8.854e-09
 76.33976    108.5 1.769e+04 9.174e-09
 76.34986    108.4 1.775e+04 9.615e-09
 76.35533    108.3 1.772e+04 9.704e-09
 76.35744    108.3 1.839e+04 1.174e-08
 76.36208    108.6 1.868e+04 1.351e-08
 76.37518    108.4 1.823e+04 1.150e-08
 76.39134    108.6 1.775e+04 9.420e-09
 76.40145    109.6 1.865e+04 1.459e-08
 76.41565    109.9 1.794e+04 1.018e-08
 76.43587    109.9 1.669e+04 5.568e-09
 76.45608    109.2 1.485e+04 2.757e-09
 76.46988    108.1 1.267e+04 1.464e-09
 76.47999    109.5 1.394e+04 2.083e-09
 76.49650    108.4 1.195e+04 1.163e-09
 76.51672    108.2 1.060e+04 7.904e-10
 76.53693    108.6 1.010e+04 6.319e-10
 76.54842    109.6 9.960e+03 5.471e-10
 76.55853    109.9 1.010e+04 5.926e-10
 76.57735    111.1 9.918e+03 5.157e-10
 76.59757    112.5 9.760e+03 4.512e-10
 76.61685    113.4 9.633e+03 4.103e-10
 76.62696    113.6 9.645e+03 4.201e-10
 76.64820    114.9 9.353e+03 3.531e-10
 76.68548    117.1 9.210e+03 3.361e-10
 76.70569    117.7 9.196e+03 3.315e-10
 76.72654    120.1 9.158e+03 3.293e-10
 76.74665    120.9 9.363e+03 3.719e-10
 76.75927    122.4 9.370e+03 3.740e-10
 76.77393    123.1 9.383e+03 3.770e-10
 76.78404    123.2 9.364e+03 3.746e-10
 76.79969    124.4 9.406e+03 3.849e-10
 76.81991    125.0 9.449e+03 3.936e-10
 76.84012    126.0 9.495e+03 4.079e-10
 76.85247    126.7 9.558e+03 4.220e-10
 76.86258    127.2 9.699e+03 4.635e-10
 76.88054    128.0 9.776e+03 4.891e-10
 76.90076    128.7 9.815e+03 5.089e-10
 76.92090    129.4 9.824e+03 5.202e-10
 76.94111    129.9 9.986e+03 5.762e-10
 76.96139    129.9 9.965e+03 5.706e-10
 76.98161    129.8 9.928e+03 5.565e-10
 76.99944    129.5 9.926e+03 5.497e-10
 77.00955    129.3 9.942e+03 5.413e-10
 77.02203    128.6 9.966e+03 5.444e-10
 77.04224    127.6 1.004e+04 5.568e-10
 77.06246    126.3 1.013e+04 5.786e-10
 77.07798    124.6 1.031e+04 6.201e-10
 77.08808    123.9 1.011e+04 5.550e-10
 77.10288    120.8 1.052e+04 6.526e-10
 77.12310    116.2 1.122e+04 9.482e-10
 77.14331    108.6 1.356e+04 1.806e-09
 77.15647    103.6 1.566e+04 2.621e-09
 77.16657    103.9 1.470e+04 2.397e-09
 77.17863     99.3 1.800e+04 3.520e-09
 77.18869     95.2 2.044e+04 5.045e-09
 77.19569     89.6 2.410e+04 7.676e-09
 77.20074     91.2 2.084e+04 5.864e-09
 77.20890     85.9 2.265e+04 8.136e-09
 77.21901     80.8 2.374e+04 1.067e-08
 77.22911     77.5 2.281e+04 1.208e-08
 77.23501     73.7 2.246e+04 1.388e-08
 77.24006     77.8 2.338e+04 1.258e-08
 77.24933     75.2 2.258e+04 1.456e-08
 77.25943     72.6 2.258e+04 1.739e-08
 77.26917     71.1 2.239e+04 1.966e-08
 77.27423     73.2 2.203e+04 1.864e-08
 77.27965     71.7 2.267e+04 2.289e-08
 77.28975     70.4 2.329e+04 2.859e-08
 77.29986     68.9 2.450e+04 3.431e-08
 77.30844     67.6 2.593e+04 3.438e-08
 77.31350     69.8 2.468e+04 5.259e-08
 77.32007     68.3 2.656e+04 5.393e-08
 77.33018     66.1 2.702e+04 5.202e-08
 77.34028     63.6 2.769e+04 4.637e-08
 77.34771     60.4 2.754e+04 3.795e-08
 77.35277     63.7 2.790e+04 7.070e-08
 77.36050     60.2 2.844e+04 5.314e-08
 77.37060     56.4 2.738e+04 3.586e-08
 77.38071     52.1 2.487e+04 2.460e-08
 77.38698     47.7 2.573e+04 1.784e-08
 77.39203     46.4 3.201e+04 2.776e-08
 77.40092     24.3 4.462e+04 3.506e-08
 77.41103      7.0 3.198e+04 1.783e-07
 77.42113     -1.9 2.417e+04 3.591e-07
 77.42625     -4.8 2.172e+04 3.461e-07
 77.43130     -4.8 2.179e+04 2.282e-07
 77.44135     -7.0 2.439e+04 1.198e-07
 77.45145    -11.6 3.197e+04 4.214e-08
 77.46047    -21.7 3.776e+04 9.770e-09
 77.46552    -22.8 3.105e+04 6.547e-09
 77.47167    -38.4 2.171e+04 3.855e-09
 77.48687    -44.5 1.956e+04 3.320e-09
 77.50714    -50.9 1.665e+04 3.722e-09
 77.51871    -52.7 1.588e+04 3.614e-09
 77.52882    -53.5 1.594e+04 4.367e-09
 77.53910    -54.0 1.634e+04 4.464e-09
 77.54921    -55.7 1.707e+04 6.711e-09
 77.56777    -56.1 1.676e+04 6.580e-09
 77.58799    -56.5 1.616e+04 5.480e-09
 77.60754    -57.1 1.536e+04 4.411e-09
 77.61764    -57.3 1.570e+04 5.553e-09
 77.62841    -57.8 1.512e+04 4.604e-09
 77.64862    -58.2 1.494e+04 4.125e-09
 77.66884    -58.7 1.496e+04 4.008e-09
 77.68607    -59.5 1.545e+04 4.089e-09
 77.69618    -60.9 1.544e+04 3.691e-09
 77.70926    -61.9 1.576e+04 3.748e-09
 77.72947    -62.7 1.607e+04 3.835e-09
 77.74969    -63.2 1.621e+04 3.835e-09
 77.76461    -63.6 1.618e+04 3.582e-09
 77.77472    -66.8 1.406e+04 2.123e-09
 77.79011    -67.8 1.374e+04 1.809e-09
 77.81032    -69.0 1.327e+04 1.527e-09
 77.83054    -70.4 1.272e+04 1.327e-09
 77.84315    -71.4 1.224e+04 1.228e-09
 77.85326    -73.3 1.210e+04 1.199e-09
 77.87096    -73.5 1.200e+04 1.188e-09
 77.89118    -73.5 1.192e+04 1.204e-09
 77.91139    -73.5 1.194e+04 1.279e-09
 77.92169    -73.2 1.218e+04 1.363e-09
 77.94200    -74.6 1.218e+04 1.299e-09
 77.98233    -74.7 1.225e+04 1.291e-09
 78.02275    -75.4 1.217e+04 1.108e-09
 78.05297    -78.6 1.238e+04 1.086e-09
 78.06866    -79.8 1.263e+04 1.096e-09
 78.07877    -81.9 1.373e+04 1.628e-09
 78.09330    -84.0 1.425e+04 2.069e-09
 78.11351    -85.5 1.459e+04 2.729e-09
 78.13373    -86.2 1.470e+04 3.437e-09
 78.14720    -86.4 1.466e+04 3.873e-09
 78.15731    -87.1 1.530e+04 5.137e-09
 78.17415    -86.7 1.478e+04 4.561e-09
 78.19436    -86.2 1.423e+04 3.551e-09
 78.21458    -86.2 1.347e+04 2.522e-09
 78.22574    -86.5 1.266e+04 1.682e-09
 78.23584    -87.6 1.242e+04 1.401e-09
 78.25500    -88.4 1.148e+04 8.870e-10
 78.27522    -88.9 1.073e+04 5.995e-10
 78.29087    -89.0 1.017e+04 4.326e-10
 78.29972    -91.4 9.675e+03 3.145e-10
 78.30428    -92.1 9.455e+03 2.819e-10
 78.31564    -91.7 9.334e+03 2.684e-10
 78.34606    -90.8 9.262e+03 2.603e-10
 78.37290    -89.4 9.080e+03 2.495e-10
 78.39312    -89.8 8.950e+03 2.222e-10
 78.42701    -88.3 8.928e+03 2.200e-10
 78.46743    -87.4 9.068e+03 2.453e-10
 78.50786    -87.0 9.470e+03 3.276e-10
 78.52998    -86.8 9.936e+03 4.636e-10
 78.55019    -86.9 1.029e+04 5.836e-10
 78.58871    -86.4 1.071e+04 8.093e-10
 78.62913    -85.9 1.095e+04 9.537e-10
 78.65935    -85.5 1.106e+04 1.033e-09
 78.67676    -85.4 1.103e+04 1.011e-09
 78.68686    -85.2 1.114e+04 1.076e-09
 78.70988    -85.1 1.091e+04 9.446e-10
 78.75041    -84.6 1.030e+04 6.100e-10
 78.79083    -84.6 9.688e+03 3.700e-10
 78.82392    -84.9 9.105e+03 2.325e-10
 78.84414    -84.7 9.129e+03 2.359e-10
 78.87168    -84.9 8.756e+03 1.779e-10
 78.91211    -84.4 8.532e+03 1.480e-10
 78.95253    -83.9 8.395e+03 1.266e-10
 78.98100    -83.3 8.341e+03 1.134e-10
 79.00121    -82.7 8.342e+03 1.129e-10
 79.03338    -82.1 8.346e+03 1.062e-10
 79.07381    -81.5 8.365e+03 1.056e-10
 79.11423    -81.1 8.541e+03 1.175e-10
 79.13808    -80.6 8.752e+03 1.480e-10
 79.15829    -79.7 8.681e+03 1.321e-10
 79.19509    -79.1 8.913e+03 1.733e-10
 79.23551    -78.4 9.185e+03 2.257e-10
 79.27494    -77.6 9.438e+03 2.781e-10
 79.29515    -76.7 9.345e+03 2.494e-10
 79.31636    -76.0 9.491e+03 2.809e-10
 79.35679    -75.2 9.517e+03 2.892e-10
 79.39721    -74.2 9.484e+03 2.872e-10
 79.43202    -73.1 9.404e+03 2.738e-10
 79.45223    -72.6 9.357e+03 2.624e-10
 79.47806    -71.5 9.351e+03 2.642e-10
 79.51849    -70.4 9.417e+03 2.762e-10
 79.55891    -69.2 9.516e+03 2.967e-10
 79.58910    -68.0 9.621e+03 3.225e-10
 79.60931    -68.3 9.636e+03 3.474e-10
 79.63976    -67.6 9.762e+03 3.796e-10
 79.68019    -67.5 9.986e+03 4.299e-10
 79.72061    -68.2 1.057e+04 5.732e-10
 79.74617    -70.0 1.157e+04 9.232e-10
 79.76639    -71.4 1.139e+04 8.871e-10
 79.80146    -73.6 1.233e+04 1.481e-09
 79.82461    -76.0 1.283e+04 1.972e-09
 79.83462    -76.4 1.260e+04 1.847e-09
 79.84529    -77.0 1.269e+04 1.972e-09
 79.85549    -78.5 1.246e+04 1.763e-09
 79.87211    -80.1 1.229e+04 1.736e-09
 79.89223    -81.0 1.212e+04 1.637e-09
 79.90305    -82.6 1.187e+04 1.450e-09
 79.91316    -83.3 1.162e+04 1.311e-09
 79.93265    -85.0 1.147e+04 1.230e-09
 79.95286    -86.5 1.143e+04 1.213e-09
 79.97149    -87.7 1.144e+04 1.242e-09
 79.98159    -88.0 1.121e+04 1.137e-09
 79.99329    -88.8 1.123e+04 1.150e-09
 80.01350    -89.3 1.117e+04 1.132e-09
 80.03371    -89.7 1.095e+04 1.021e-09
 80.05003    -89.9 1.062e+04 8.461e-10
 80.06013    -90.2 1.020e+04 6.671e-10
 80.07414    -90.5 9.811e+03 5.075e-10
 80.09435    -91.0 9.471e+03 3.930e-10
 80.12477    -91.6 9.217e+03 3.178e-10
 80.16529    -91.8 8.924e+03 2.545e-10
 80.19719    -91.0 8.536e+03 1.936e-10
 80.21740    -91.0 8.271e+03 1.617e-10
 80.24614    -89.6 8.130e+03 1.378e-10
 80.28657    -87.9 8.054e+03 1.209e-10
 80.32699    -86.2 8.039e+03 1.052e-10
 80.35427    -84.8 8.108e+03 1.001e-10
 80.37448    -85.2 8.330e+03 1.304e-10
 80.40784    -84.3 8.728e+03 1.701e-10
 80.44827    -83.4 9.137e+03 2.381e-10
 80.48869    -82.5 9.414e+03 3.088e-10
 80.51135    -81.6 9.507e+03 3.394e-10
 80.53156    -81.6 9.782e+03 4.284e-10
 80.56954    -80.7 9.533e+03 3.517e-10
 80.60997    -79.9 9.245e+03 2.671e-10
 80.64821    -79.4 9.022e+03 2.110e-10
 80.66842    -79.3 9.001e+03 2.042e-10
 80.69082    -79.1 8.860e+03 1.762e-10
 80.73125    -78.8 8.860e+03 1.755e-10
 80.77167    -78.5 8.940e+03 1.942e-10
 80.80529    -78.0 9.032e+03 2.188e-10
 80.82550    -79.6 9.281e+03 2.432e-10
 80.85252    -78.7 9.494e+03 2.952e-10
 80.89295    -77.6 9.530e+03 3.131e-10
 80.93337    -76.2 9.460e+03 3.052e-10
 80.96236    -74.8 9.325e+03 2.798e-10
 80.98258    -75.8 9.461e+03 3.056e-10
 81.01422    -74.3 9.289e+03 2.644e-10
 81.05465    -72.8 9.242e+03 2.567e-10
 81.09507    -71.3 9.295e+03 2.708e-10
 81.11944    -69.7 9.464e+03 3.039e-10
 81.13965    -69.7 9.286e+03 2.454e-10
 81.17592    -68.2 9.445e+03 2.724e-10
 81.21635    -67.0 9.597e+03 2.962e-10
 81.25631    -66.4 9.729e+03 3.147e-10
 81.27652    -65.7 9.731e+03 3.076e-10
 81.29720    -65.5 9.877e+03 3.429e-10
 81.33762    -65.9 1.023e+04 4.129e-10
 81.36785    -66.6 1.074e+04 5.235e-10
 81.38796    -67.5 1.100e+04 5.945e-10
 81.39971    -68.5 1.123e+04 6.851e-10
 81.40982    -69.0 1.143e+04 7.495e-10
 81.42329    -70.1 1.160e+04 8.326e-10
 81.43340    -69.8 1.191e+04 9.791e-10
 81.44860    -71.4 1.216e+04 1.187e-09
 81.46881    -72.8 1.233e+04 1.348e-09
 81.48902    -74.3 1.236e+04 1.430e-09
 81.50183    -75.5 1.227e+04 1.425e-09
 81.51194    -75.2 1.251e+04 1.589e-09
 81.52945    -76.2 1.217e+04 1.336e-09
 81.54966    -77.6 1.179e+04 1.030e-09
 81.56987    -79.6 1.144e+04 8.201e-10
 81.58037    -81.8 1.130e+04 7.508e-10
 81.59048    -82.8 1.142e+04 8.082e-10
 81.61030    -84.7 1.141e+04 8.080e-10
 81.63051    -86.1 1.160e+04 9.074e-10
 81.64880    -87.0 1.180e+04 1.060e-09
 81.65891    -87.9 1.176e+04 1.061e-09
 81.67094    -88.3 1.183e+04 1.134e-09
 81.69115    -88.6 1.191e+04 1.193e-09
 81.71136    -88.8 1.201e+04 1.250e-09
 81.72734    -88.9 1.211e+04 1.308e-09
 81.73745    -89.8 1.164e+04 1.024e-09
 81.75179    -89.8 1.167e+04 1.036e-09
 81.77200    -89.9 1.170e+04 1.058e-09
 81.79221    -89.8 1.172e+04 1.091e-09
 81.80588    -89.8 1.173e+04 1.126e-09
 81.81599    -90.4 1.130e+04 8.698e-10
 81.83264    -90.2 1.133e+04 9.179e-10
 81.85285    -89.9 1.135e+04 9.474e-10
 81.87306    -89.7 1.135e+04 9.554e-10
 81.88442    -89.6 1.134e+04 9.409e-10
 81.89453    -90.0 1.107e+04 8.309e-10
 81.91349    -89.9 1.108e+04 8.332e-10
 81.93370    -90.3 1.130e+04 8.552e-10
 81.95285    -91.1 1.156e+04 9.785e-10
 81.96296    -91.0 1.130e+04 8.692e-10
 81.97413    -91.3 1.155e+04 1.069e-09
 81.99434    -91.3 1.175e+04 1.320e-09
 82.01455    -90.9 1.186e+04 1.514e-09
 82.03139    -90.1 1.189e+04 1.576e-09
 82.04150    -89.9 1.180e+04 1.516e-09
 82.05498    -89.2 1.181e+04 1.550e-09
 82.07519    -88.7 1.174e+04 1.272e-09
 82.09540    -88.5 1.143e+04 9.917e-10
 82.10993    -88.8 1.110e+04 7.620e-10
 82.12003    -88.3 1.120e+04 8.614e-10
 82.13583    -88.6 1.079e+04 6.650e-10
 82.15604    -88.6 1.039e+04 5.359e-10
 82.17187    -88.4 1.008e+04 4.536e-10
 82.18197    -87.4 1.017e+04 4.696e-10
 82.18847    -87.0 9.898e+03 3.996e-10
 82.19857    -86.4 9.933e+03 3.977e-10
 82.22688    -86.0 9.747e+03 3.211e-10
 82.26741    -85.1 9.598e+03 2.811e-10
 82.30783    -83.7 9.482e+03 2.555e-10
 82.33563    -82.1 9.388e+03 2.401e-10
 82.35585    -81.2 9.026e+03 1.829e-10
 82.38868    -79.3 8.890e+03 1.651e-10
 82.42911    -77.2 8.771e+03 1.531e-10
 82.46953    -75.2 8.679e+03 1.441e-10
 82.49271    -73.1 8.627e+03 1.391e-10
 82.51292    -72.3 8.595e+03 1.352e-10
 82.55038    -70.3 8.581e+03 1.356e-10
 82.59081    -68.4 8.605e+03 1.407e-10
 82.62957    -66.6 8.671e+03 1.547e-10
 82.64979    -66.3 8.701e+03 1.668e-10
 82.67166    -64.7 8.859e+03 2.038e-10
 82.71208    -63.0 9.094e+03 2.560e-10
 82.75251    -61.5 9.414e+03 3.173e-10
 82.78273    -60.3 9.681e+03 3.680e-10
 82.79656    -60.2 9.690e+03 3.692e-10
 82.80677    -60.2 9.707e+03 3.828e-10
 82.82316    -60.0 9.827e+03 4.034e-10
 82.84327    -60.3 1.019e+04 4.893e-10
 82.86348    -61.0 1.077e+04 6.663e-10
 82.87510    -61.7 1.131e+04 9.617e-10
 82.88521    -61.6 1.117e+04 9.179e-10
 82.90391    -61.7 1.163e+04 1.284e-09
 82.92412    -61.3 1.191e+04 1.600e-09
 82.94353    -60.7 1.196e+04 1.686e-09
 82.95333    -60.7 1.163e+04 1.391e-09
 82.95413    -61.0 1.160e+04 1.383e-09
 82.96455    -60.5 1.147e+04 1.343e-09
 82.98476    -60.1 1.132e+04 1.095e-09
 83.00497    -60.2 1.104e+04 8.011e-10
 83.02207    -60.9 1.070e+04 6.010e-10
 83.03218    -61.0 1.038e+04 4.791e-10
 83.04540    -61.4 1.008e+04 3.950e-10
 83.06561    -61.5 9.963e+03 3.585e-10
 83.08582    -61.5 9.916e+03 3.491e-10
 83.10061    -61.4 9.917e+03 3.440e-10
 83.12092    -61.6 9.854e+03 3.087e-10
 83.15676    -61.7 1.001e+04 3.681e-10
 83.17925    -61.8 1.013e+04 4.721e-10
 83.18926    -61.9 1.009e+04 4.567e-10
 83.20710    -61.9 1.023e+04 5.327e-10
 83.22731    -61.9 1.032e+04 5.935e-10
 83.24752    -61.8 1.032e+04 6.089e-10
 83.26774    -61.4 1.013e+04 5.830e-10
 83.28795    -61.1 9.922e+03 4.820e-10
 83.31836    -61.2 9.689e+03 3.718e-10
 83.35889    -61.4 9.213e+03 2.364e-10
 83.39475    -61.0 8.703e+03 1.553e-10
 83.41496    -60.8 8.546e+03 1.282e-10
 83.43974    -59.9 8.340e+03 9.650e-11
 83.48016    -58.9 8.297e+03 9.021e-11
 83.52059    -57.9 8.343e+03 9.086e-11
 83.55182    -57.2 8.617e+03 1.207e-10
 83.57204    -56.8 8.458e+03 9.465e-11
 83.60144    -55.9 8.733e+03 1.494e-10
 83.63027    -54.7 9.176e+03 2.282e-10
 83.64027    -54.6 9.100e+03 2.151e-10
 83.65178    -54.4 9.064e+03 2.159e-10
 83.67199    -54.3 9.765e+03 2.906e-10
 83.69220    -60.8 1.454e+04 5.329e-10
 83.70871    -67.3 1.665e+04 2.309e-09
 83.71881    -65.0 1.619e+04 1.442e-09
 83.72629    -68.2 1.637e+04 4.625e-09
 83.73639    -69.3 1.725e+04 4.758e-09
 83.75284    -69.5 1.727e+04 1.190e-08
 83.77305    -67.7 1.739e+04 1.617e-08
 83.78725    -65.5 1.736e+04 1.627e-08
 83.79735    -65.7 1.703e+04 1.349e-08
 83.81348    -64.0 1.684e+04 9.412e-09
 83.83369    -63.5 1.634e+04 3.070e-09
 83.85390    -70.3 1.438e+04 5.655e-10
 83.86578    -77.2 9.637e+03 2.230e-10
 83.87589    -75.6 1.044e+04 2.722e-10
 83.89433    -76.9 9.073e+03 2.120e-10
 83.92474    -76.8 8.856e+03 1.957e-10
 83.96527    -76.1 8.833e+03 1.799e-10
 84.00284    -75.9 8.881e+03 1.723e-10
 84.02306    -74.9 9.043e+03 2.073e-10
 84.04612    -74.9 9.068e+03 2.004e-10
 84.08654    -75.6 9.348e+03 2.250e-10
 84.12697    -76.6 9.717e+03 3.129e-10
 84.15992    -77.3 1.008e+04 4.392e-10
 84.18013    -75.7 9.838e+03 3.353e-10
 84.20782    -76.1 1.007e+04 4.299e-10
 84.24824    -76.3 1.021e+04 4.742e-10
 84.28867    -76.1 1.024e+04 4.803e-10
 84.31700    -75.7 1.024e+04 4.313e-10
 84.33721    -74.2 1.028e+04 4.595e-10
 84.36952    -73.6 1.022e+04 4.134e-10
 84.39544    -73.2 1.015e+04 3.792e-10
 84.40545    -72.8 1.014e+04 3.786e-10
 84.41986    -72.7 1.018e+04 3.808e-10
 84.44007    -72.6 1.036e+04 4.150e-10
 84.46028    -72.8 1.061e+04 4.885e-10
 84.47388    -72.9 1.103e+04 6.629e-10
 84.48399    -71.6 1.105e+04 6.795e-10
 84.49844    -71.6 1.140e+04 8.444e-10
 84.50865    -71.0 1.074e+04 5.730e-10
 84.53122    -70.6 1.128e+04 8.715e-10
 84.57165    -70.0 1.178e+04 1.191e-09
 84.61094    -69.5 1.208e+04 1.340e-09
 84.63115    -68.0 1.195e+04 1.319e-09
 84.64229    -68.1 1.209e+04 1.412e-09
 84.66241    -67.9 1.208e+04 1.372e-09
 84.68262    -67.8 1.209e+04 1.350e-09
 84.69939    -69.0 1.273e+04 1.406e-09
 84.70950    -68.3 1.260e+04 1.404e-09
 84.72304    -70.6 1.381e+04 1.944e-09
 84.74326    -72.7 1.473e+04 3.006e-09
 84.76347    -74.0 1.518e+04 4.363e-09
 84.77793    -74.8 1.539e+04 5.361e-09
 84.78803    -74.1 1.535e+04 4.580e-09
 84.80390    -75.6 1.548e+04 4.775e-09
 84.82411    -77.7 1.546e+04 4.429e-09
 84.84432    -80.3 1.477e+04 3.654e-09
 84.85647    -82.7 1.387e+04 3.084e-09
 84.86657    -82.9 1.364e+04 2.813e-09
 84.88475    -83.9 1.301e+04 2.622e-09
 84.90496    -84.1 1.266e+04 2.494e-09
 84.92490    -84.0 1.237e+04 2.329e-09
 84.93500    -83.4 1.193e+04 1.759e-09
 84.94538    -83.4 1.164e+04 1.557e-09
 84.96560    -83.4 1.135e+04 1.378e-09
 84.98581    -83.3 1.107e+04 1.235e-09
 85.00344    -83.1 1.082e+04 1.114e-09
 85.01354    -82.9 1.024e+04 7.137e-10
 85.02623    -82.4 1.007e+04 6.567e-10
 85.04645    -82.0 9.940e+03 6.067e-10
 85.06666    -81.6 9.858e+03 5.662e-10
 85.08198    -81.3 9.815e+03 5.393e-10
 85.10229    -79.8 9.262e+03 3.263e-10
 85.13760    -78.9 9.334e+03 3.424e-10
 85.16061    -79.4 9.596e+03 4.633e-10
 85.17062    -78.4 9.392e+03 3.627e-10
 85.18794    -78.0 9.516e+03 4.140e-10
 85.20815    -77.7 9.578e+03 4.754e-10
 85.22836    -77.3 9.670e+03 5.308e-10
 85.23905    -76.7 9.699e+03 5.739e-10
 85.25936    -75.1 9.562e+03 4.891e-10
 85.28080    -74.9 9.702e+03 5.801e-10
 85.29081    -74.3 9.622e+03 5.482e-10
 85.30748    -73.5 9.671e+03 5.521e-10
 85.31759    -72.9 9.677e+03 5.608e-10
 85.32942    -72.2 9.720e+03 5.602e-10
 85.34964    -71.8 9.731e+03 4.844e-10
 85.37601    -71.7 9.539e+03 3.816e-10
 85.39623    -69.7 9.650e+03 4.417e-10
 85.42048    -69.3 9.532e+03 3.842e-10
 85.46100    -68.5 9.311e+03 3.261e-10
 85.50143    -67.5 9.245e+03 3.042e-10
 85.53319    -66.7 9.543e+03 3.662e-10
 85.55340    -64.9 9.056e+03 2.653e-10
 85.58228    -64.0 9.233e+03 2.722e-10
 85.62270    -63.6 9.738e+03 3.506e-10
 85.66313    -63.8 1.061e+04 5.622e-10
 85.69027    -64.3 1.159e+04 9.839e-10
 85.71048    -63.5 1.043e+04 4.905e-10
 85.74398    -64.0 1.145e+04 1.039e-09
 85.76871    -64.2 1.233e+04 1.830e-09
 85.77872    -63.3 1.182e+04 1.495e-09
 85.79431    -63.6 1.216e+04 1.813e-09
 85.81453    -63.9 1.241e+04 2.002e-09
 85.83474    -64.6 1.247e+04 2.035e-09
 85.84715    -65.3 1.253e+04 1.977e-09
 85.86746    -64.9 1.211e+04 1.506e-09
 85.90568    -66.1 1.207e+04 1.411e-09
 85.94610    -66.9 1.205e+04 1.396e-09
 85.98421    -67.4 1.202e+04 1.393e-09
 86.00442    -66.4 1.144e+04 9.989e-10
 86.02695    -66.4 1.165e+04 1.151e-09
 86.05306    -66.2 1.167e+04 1.166e-09
 86.07327    -66.2 1.155e+04 1.068e-09
 86.10781    -65.3 1.112e+04 7.186e-10
 86.14129    -64.3 1.057e+04 3.761e-10
 86.16150    -63.7 1.056e+04 4.089e-10
 86.18866    -62.8 1.016e+04 2.016e-10
 86.22908    -62.1 9.938e+03 1.183e-10
 86.26951    -61.2 9.830e+03 9.537e-11
 86.29836    -60.0 9.809e+03 9.083e-11
 86.31858    -60.3 1.035e+04 1.673e-10
 86.35036    -59.5 1.055e+04 1.854e-10
 86.39078    -58.6 1.057e+04 2.405e-10
 86.43121    -57.6 1.055e+04 3.190e-10
 86.45544    -56.4 1.062e+04 4.170e-10
 86.47565    -56.2 1.101e+04 6.949e-10
 86.51206    -55.1 1.097e+04 6.758e-10
 86.55248    -54.1 1.087e+04 6.457e-10
 86.59230    -53.0 1.069e+04 5.953e-10
 86.61252    -52.7 1.055e+04 5.222e-10
 86.63333    -51.4 1.029e+04 4.129e-10
 86.67376    -50.1 1.009e+04 3.316e-10
 86.71418    -48.9 9.996e+03 2.914e-10
 86.74938    -47.6 9.974e+03 2.835e-10
 86.76959    -48.0 9.939e+03 2.410e-10
 86.79503    -46.9 9.969e+03 2.885e-10
 86.83546    -45.5 1.005e+04 3.670e-10
 86.87589    -43.9 1.010e+04 4.330e-10
 86.90646    -42.4 1.011e+04 4.514e-10
 86.92667    -42.6 9.866e+03 4.158e-10
 86.95674    -41.1 9.723e+03 3.698e-10
 86.99716    -39.9 9.596e+03 3.283e-10
 87.03759    -38.6 9.542e+03 3.006e-10
 87.06354    -37.4 9.507e+03 2.771e-10
 87.08375    -37.5 9.309e+03 1.902e-10
 87.11844    -36.4 9.284e+03 1.726e-10
 87.15886    -35.4 9.229e+03 1.676e-10
 87.19929    -34.3 9.199e+03 1.692e-10
 87.22061    -33.3 9.206e+03 1.954e-10
 87.24083    -32.9 9.014e+03 1.920e-10
 87.28014    -31.6 9.095e+03 2.207e-10
 87.32056    -30.3 9.156e+03 2.549e-10
 87.35748    -28.9 9.188e+03 2.855e-10
 87.37769    -28.1 8.877e+03 2.088e-10
 87.40141    -26.6 8.883e+03 2.109e-10
 87.44184    -25.3 8.925e+03 1.947e-10
 87.48226    -24.3 9.016e+03 1.753e-10
 87.51455    -23.7 9.090e+03 1.680e-10
 87.53477    -23.0 8.924e+03 1.368e-10
 87.56311    -22.3 8.977e+03 1.725e-10
 87.59737    -21.3 9.159e+03 2.264e-10
 87.61759    -20.6 9.308e+03 2.622e-10
 87.64397    -19.6 9.420e+03 2.986e-10
 87.67163    -18.4 9.466e+03 3.353e-10
 87.69184    -17.1 9.341e+03 3.066e-10
 87.72482    -15.9 9.345e+03 3.254e-10
 87.76524    -14.7 9.282e+03 3.211e-10
 87.80567    -13.2 9.144e+03 2.628e-10
 87.82871    -12.2 9.031e+03 1.938e-10
 87.84892    -11.3 9.010e+03 2.130e-10
 87.88652    -10.6 8.843e+03 1.681e-10
 87.92694     -9.7 8.628e+03 1.434e-10
 87.96557     -8.6 8.479e+03 1.320e-10
 87.98579     -8.2 8.530e+03 1.418e-10
 88.00779     -7.2 8.477e+03 1.348e-10
 88.04822     -6.1 8.502e+03 1.341e-10
 88.08864     -5.1 8.469e+03 1.398e-10
 88.12265     -3.6 8.322e+03 1.537e-10
 88.14286     -2.9 8.214e+03 1.270e-10
 88.16949     -0.8 8.043e+03 1.149e-10
 88.20992      1.1 8.065e+03 8.484e-11
 88.25034      1.7 8.077e+03 6.431e-11
 88.27973      2.5 7.899e+03 6.571e-11
 88.29994      2.4 7.780e+03 5.952e-11
 88.33119      4.5 7.578e+03 7.562e-11
 88.37162      7.1 7.398e+03 7.730e-11
 88.41205     10.0 7.434e+03 6.011e-11
 88.43680     11.1 7.752e+03 4.486e-11
 88.45702     11.0 7.736e+03 4.495e-11
 88.49290     11.8 7.724e+03 4.640e-11
 88.53332     12.9 7.667e+03 5.955e-11
 88.57367     14.9 7.713e+03 7.917e-11
 88.61409     16.8 7.956e+03 1.032e-10
 88.65460     18.4 8.119e+03 1.118e-10
 88.69502     19.6 8.253e+03 1.268e-10
 88.73075     20.9 8.364e+03 1.543e-10
 88.75096     20.4 8.402e+03 1.757e-10
 88.77587     22.1 8.468e+03 1.961e-10
 88.81630     23.8 8.575e+03 2.159e-10
 88.85672     25.6 8.655e+03 2.311e-10
 88.88782     27.0 8.810e+03 2.588e-10
 88.90804     26.6 8.514e+03 2.139e-10
 88.93757     28.5 8.916e+03 2.938e-10
 88.97800     30.1 9.448e+03 4.143e-10
 89.00822     31.2 9.614e+03 4.938e-10
 89.02834     32.3 9.863e+03 5.907e-10
 89.04471     33.6 1.026e+04 7.246e-10
 89.05481     33.6 1.013e+04 6.709e-10
 89.06876     34.4 1.092e+04 8.787e-10
 89.08897     33.9 1.216e+04 1.287e-09
 89.10919     32.6 1.352e+04 2.083e-09
 89.12324     32.3 1.448e+04 3.416e-09
 89.13335     31.6 1.438e+04 3.757e-09
 89.14961     33.1 1.441e+04 4.973e-09
 89.16170     35.0 1.443e+04 5.420e-09
 89.17181     35.5 1.516e+04 6.755e-09
 89.19004     37.3 1.517e+04 7.094e-09
 89.20178     38.9 1.528e+04 6.785e-09
 89.21189     38.9 1.474e+04 4.441e-09
 89.23046     38.2 1.561e+04 3.259e-09
 89.25067     34.7 1.695e+04 2.316e-09
 89.27021     29.3 1.634e+04 1.829e-09
 89.28032     23.6 1.442e+04 1.883e-09
 89.29110     21.2 1.314e+04 1.856e-09
 89.31131     20.1 1.276e+04 1.776e-09
 89.33152     18.4 1.288e+04 1.806e-09
 89.34875     16.1 1.291e+04 1.889e-09
 89.35886     15.9 1.273e+04 1.784e-09
 89.37195     13.8 1.235e+04 1.837e-09
 89.39216     12.8 1.217e+04 2.109e-09
 89.41238     13.0 1.227e+04 2.484e-09
 89.42729     13.7 1.243e+04 2.740e-09
 89.43740     13.5 1.248e+04 2.486e-09
 89.45280     14.2 1.273e+04 2.632e-09
 89.47301     14.4 1.312e+04 2.673e-09
 89.49323     13.7 1.388e+04 2.816e-09
 89.50583     12.2 1.478e+04 3.124e-09
 89.51594      9.5 1.625e+04 4.811e-09
 89.53365      9.2 1.578e+04 4.926e-09
 89.55386      9.8 1.496e+04 4.511e-09
 89.57408     10.3 1.412e+04 3.753e-09
 89.58437     10.9 1.327e+04 2.921e-09
 89.59447     10.9 1.361e+04 2.724e-09
 89.61450     10.9 1.266e+04 1.719e-09
 89.63471     10.8 1.184e+04 1.157e-09
 89.65280     12.0 1.094e+04 6.532e-10
 89.66291      9.9 1.031e+04 3.764e-10
 89.67514      9.9 1.020e+04 3.265e-10
 89.70556     10.5 9.461e+03 1.684e-10
 89.74608     11.4 8.766e+03 8.861e-11
 89.78650     12.7 8.383e+03 7.126e-11
 89.81007     14.6 8.403e+03 7.235e-11
 89.83029     13.2 8.771e+03 8.406e-11
 89.86735     14.4 8.939e+03 1.237e-10
 89.90778     16.0 9.045e+03 1.967e-10
 89.94694     18.2 9.231e+03 2.943e-10
 89.96715     18.4 9.544e+03 4.498e-10
 89.98863     20.9 9.810e+03 4.457e-10
 90.02906     22.5 9.998e+03 4.329e-10
 90.05928     22.9 1.016e+04 4.289e-10
 90.07939     23.3 1.025e+04 4.300e-10
 90.09960     23.5 1.048e+04 4.842e-10
 90.11393     24.0 1.058e+04 5.281e-10
 90.12413     22.9 1.029e+04 4.401e-10
 90.15033     23.9 1.076e+04 6.702e-10
 90.19076     25.0 1.100e+04 7.493e-10
 90.23118     26.2 1.091e+04 6.754e-10
 90.26099     27.1 1.073e+04 5.565e-10
 90.28121     27.9 1.084e+04 6.056e-10
 90.30183     28.0 1.072e+04 5.037e-10
 90.32194     28.3 1.054e+04 4.451e-10
 90.33944     28.7 1.049e+04 4.386e-10
 90.34954     29.0 1.052e+04 4.413e-10
 90.36237     29.3 1.054e+04 4.546e-10
 90.38258     29.5 1.067e+04 5.000e-10
 90.40279     29.9 1.095e+04 5.853e-10
 90.41797     30.2 1.129e+04 7.198e-10
 90.42808     29.9 1.125e+04 6.867e-10
 90.44322     30.2 1.162e+04 9.021e-10
 90.46343     30.5 1.203e+04 1.192e-09
 90.48364     30.9 1.235e+04 1.515e-09
 90.49651     31.2 1.263e+04 1.772e-09
 90.50662     31.2 1.232e+04 1.789e-09
 90.52407     31.5 1.248e+04 1.859e-09
 90.54428     31.7 1.245e+04 1.833e-09
 90.56450     31.8 1.233e+04 1.749e-09
 90.57505     32.0 1.209e+04 1.493e-09
 90.59536     32.0 1.174e+04 1.229e-09
 90.62523     31.7 1.135e+04 9.946e-10
 90.64348     31.6 1.093e+04 7.874e-10
 90.65359     31.8 1.079e+04 7.271e-10
 90.66556     31.7 1.044e+04 5.665e-10
 90.68577     31.5 1.015e+04 4.605e-10
 90.70598     31.4 9.965e+03 4.239e-10
 90.72202     30.5 9.905e+03 3.951e-10
 90.73223     31.1 9.598e+03 3.265e-10
 90.75671     32.4 9.797e+03 3.822e-10
 90.78693     32.7 9.968e+03 4.636e-10
 90.80056     33.4 1.010e+04 5.554e-10
 90.81067     34.2 1.001e+04 5.050e-10
 90.82726     35.3 1.010e+04 5.896e-10
 90.84747     36.2 1.031e+04 6.873e-10
 90.86768     37.5 1.040e+04 7.513e-10
 90.87910     38.5 1.052e+04 7.929e-10
 90.88930     38.4 1.001e+04 5.982e-10
 90.91841     40.4 9.957e+03 5.785e-10
 90.95884     42.5 9.655e+03 4.581e-10
 90.99926     44.1 9.544e+03 2.748e-10
 91.02627     44.9 1.006e+04 2.509e-10
 91.04648     46.4 8.345e+03 1.383e-10
 91.08011     47.5 8.440e+03 1.250e-10
 91.12054     48.6 8.927e+03 1.427e-10
 91.16096     49.8 9.299e+03 2.041e-10
 91.18334     51.8 9.807e+03 3.539e-10
 91.20355     53.2 8.301e+03 1.706e-10
 91.24181     55.0 8.806e+03 2.547e-10
 91.28224     55.7 9.477e+03 3.619e-10
 91.32021     55.7 1.151e+04 7.190e-10
 91.34042     59.1 9.364e+03 3.574e-10
 91.36309     59.4 1.102e+04 5.568e-10
 91.40351     59.6 1.199e+04 8.431e-10
 91.44394     59.6 1.123e+04 1.025e-09
 91.47728     59.5 1.078e+04 9.074e-10
 91.49750     62.0 1.071e+04 6.999e-10
 91.52479     61.3 1.042e+04 6.926e-10
 91.56522     61.0 1.012e+04 6.469e-10
 91.60564     61.0 9.866e+03 5.755e-10
 91.63436     61.2 9.681e+03 4.772e-10
 91.65457     62.2 9.669e+03 4.671e-10
 91.68649     61.7 9.397e+03 3.343e-10
 91.72692     61.1 9.208e+03 2.588e-10
 91.76734     60.8 9.236e+03 2.592e-10
 91.79134     60.5 9.270e+03 2.666e-10
 91.80135     59.5 9.655e+03 3.521e-10
 91.81768     59.2 9.872e+03 4.061e-10
 91.83789     58.5 1.028e+04 5.492e-10
 91.85810     58.0 1.079e+04 8.324e-10
 91.86978     58.0 1.137e+04 1.313e-09
 91.87989     58.0 1.164e+04 1.499e-09
 91.89853     58.6 1.219e+04 2.095e-09
 91.91874     59.6 1.257e+04 2.585e-09
 91.93821     60.7 1.279e+04 2.653e-09
 91.94842     59.6 1.232e+04 1.768e-09
 91.96947     60.6 1.201e+04 1.478e-09
 92.00989     61.1 1.115e+04 9.190e-10
 92.05032     61.3 1.013e+04 5.291e-10
 92.08538     61.7 9.339e+03 3.358e-10
 92.10559     61.6 8.881e+03 2.104e-10
 92.13117     63.0 8.702e+03 1.982e-10
 92.17159     64.7 8.702e+03 2.000e-10
 92.21202     66.5 8.756e+03 2.159e-10
 92.24246     68.2 9.001e+03 2.663e-10
 92.26075     68.7 8.544e+03 1.575e-10
 92.27074     68.4 8.876e+03 1.983e-10
 92.29287     69.9 9.247e+03 2.603e-10
 92.33330     70.9 9.579e+03 3.345e-10
 92.36352     71.5 9.589e+03 3.536e-10
 92.38363     72.0 9.755e+03 4.173e-10
 92.39934     72.4 9.976e+03 5.257e-10
 92.40944     72.7 9.708e+03 4.045e-10
 92.42406     73.1 1.002e+04 5.300e-10
 92.44427     73.6 1.035e+04 6.944e-10
 92.46448     74.0 1.068e+04 8.837e-10
 92.47788     74.4 1.101e+04 1.097e-09
 92.48798     74.6 1.093e+04 9.705e-10
 92.50491     74.8 1.134e+04 1.247e-09
 92.52512     75.0 1.179e+04 1.584e-09
 92.54533     75.1 1.226e+04 1.998e-09
 92.55642     75.0 1.278e+04 2.491e-09
 92.56652     74.7 1.303e+04 2.717e-09
 92.58576     74.9 1.354e+04 3.467e-09
 92.60597     75.3 1.403e+04 4.196e-09
 92.62485     75.7 1.444e+04 4.597e-09
 92.63495     76.1 1.443e+04 4.497e-09
 92.64640     76.4 1.444e+04 4.459e-09
 92.66661     76.6 1.433e+04 4.151e-09
 92.68682     76.8 1.395e+04 3.481e-09
 92.70339     76.7 1.342e+04 2.724e-09
 92.71349     77.0 1.291e+04 2.119e-09
 92.72725     76.2 1.226e+04 1.574e-09
 92.74746     75.3 1.184e+04 1.279e-09
 92.76767     74.6 1.189e+04 1.284e-09
 92.78193     73.2 1.243e+04 1.451e-09
 92.79203     74.2 1.145e+04 1.030e-09
 92.80810     72.6 1.258e+04 1.363e-09
 92.82831     70.8 1.414e+04 2.326e-09
 92.84852     69.7 1.535e+04 4.232e-09
 92.86046     69.4 1.635e+04 7.296e-09
 92.87057     70.4 1.545e+04 4.117e-09
 92.88895     70.0 1.636e+04 6.462e-09
 92.90916     69.6 1.724e+04 9.168e-09
 92.92890     69.1 1.796e+04 1.180e-08
 92.93900     69.8 1.661e+04 6.791e-09
 92.94959     69.4 1.702e+04 8.251e-09
 92.96980     68.8 1.744e+04 9.690e-09
 92.99001     68.2 1.797e+04 1.138e-08
 93.00743     68.0 1.886e+04 1.283e-08
 93.01754     67.4 1.740e+04 8.676e-09
 93.03044     66.7 1.871e+04 9.568e-09
 93.04270     65.8 1.900e+04 9.203e-09
 93.05281     62.5 1.656e+04 4.240e-09
 93.07086     60.4 1.510e+04 3.051e-09
 93.08597     58.8 1.357e+04 2.266e-09
 93.09608     58.6 1.394e+04 2.432e-09
 93.11129     57.5 1.287e+04 1.828e-09
 93.13150     56.7 1.232e+04 1.454e-09
 93.15171     55.7 1.202e+04 1.203e-09
 93.16451     54.5 1.174e+04 1.042e-09
 93.17462     52.3 1.156e+04 1.120e-09
 93.19214     51.5 1.131e+04 1.093e-09
 93.21235     49.7 1.180e+04 1.209e-09
 93.23256     44.6 1.412e+04 1.895e-09
 93.24305     38.4 1.641e+04 3.727e-09
 93.25316     31.7 1.754e+04 6.484e-09
 93.27299     27.8 1.842e+04 8.236e-09
 93.29320     22.8 1.890e+04 7.909e-09
 93.31148     16.4 1.808e+04 5.910e-09
 93.32159      8.5 1.594e+04 4.132e-09
 93.33363      2.7 1.548e+04 4.109e-09
 93.35384     -3.4 1.846e+04 6.077e-09
 93.37405     -9.8 2.075e+04 1.127e-08
 93.39002    -15.9 2.067e+04 1.964e-08
 93.40008    -18.8 1.951e+04 2.448e-08
 93.40933    -19.4 1.885e+04 3.138e-08
 93.41943    -19.1 1.911e+04 3.504e-08
 93.42868    -19.3 1.956e+04 3.352e-08
 93.43339    -19.3 1.921e+04 3.102e-08
 93.43425    -20.2 1.947e+04 2.423e-08
 93.43964    -20.5 2.000e+04 2.117e-08
 93.44975    -21.1 2.030e+04 1.649e-08
 93.45986    -22.1 2.017e+04 1.169e-08
 93.46851    -24.1 1.955e+04 7.483e-09
 93.47867    -30.1 1.574e+04 2.960e-09
 93.49533    -34.2 1.346e+04 1.245e-09
 93.51554    -38.6 1.075e+04 5.744e-10
 93.53575    -40.1 9.794e+03 4.359e-10
 93.54710    -40.3 9.664e+03 4.055e-10
 93.55720    -40.8 9.532e+03 3.681e-10
 93.57618    -41.0 9.464e+03 3.502e-10
 93.59639    -41.2 9.429e+03 3.450e-10
 93.61553    -41.2 9.562e+03 3.524e-10
 93.63584    -42.0 9.283e+03 2.817e-10
 93.65713    -42.8 9.728e+03 3.482e-10
 93.67724    -43.9 1.012e+04 4.428e-10
 93.69407    -45.0 1.073e+04 6.376e-10
 93.70418    -45.6 1.015e+04 4.551e-10
 93.71767    -46.3 1.068e+04 6.307e-10
 93.73788    -46.9 1.119e+04 8.292e-10
 93.75809    -47.7 1.132e+04 9.155e-10
 93.77261    -48.9 1.156e+04 1.156e-09
 93.78271    -49.6 1.143e+04 1.064e-09
 93.79852    -50.8 1.168e+04 1.224e-09
 93.81486    -52.0 1.198e+04 1.363e-09
 93.82496    -51.3 1.194e+04 1.384e-09
 93.83894    -52.6 1.222e+04 1.510e-09
 93.85115    -54.0 1.246e+04 1.620e-09
 93.86125    -54.7 1.256e+04 1.795e-09
 93.87937    -56.0 1.258e+04 1.815e-09
 93.89958    -57.3 1.257e+04 1.795e-09
 93.91958    -58.5 1.251e+04 1.765e-09
 93.92968    -59.2 1.219e+04 1.545e-09
 93.94000    -60.5 1.195e+04 1.381e-09
 93.96022    -61.8 1.177e+04 1.253e-09
 93.98043    -63.6 1.178e+04 1.228e-09
 93.99812    -67.1 1.273e+04 1.354e-09
 94.00822    -67.1 1.179e+04 1.031e-09
 94.02086    -71.8 1.373e+04 1.565e-09
 94.04107    -76.1 1.517e+04 3.011e-09
 94.06128    -78.6 1.587e+04 5.288e-09
 94.07666    -79.9 1.627e+04 7.422e-09
 94.08676    -80.4 1.614e+04 6.859e-09
 94.10171    -81.4 1.645e+04 8.527e-09
 94.12192    -82.5 1.652e+04 8.878e-09
 94.14213    -83.9 1.639e+04 8.164e-09
 94.15519    -85.7 1.596e+04 5.934e-09
 94.16530    -85.6 1.614e+04 7.287e-09
 94.18256    -87.6 1.549e+04 5.079e-09
 94.20277    -89.8 1.466e+04 3.484e-09
 94.22298    -91.7 1.374e+04 2.498e-09
 94.23373    -93.0 1.297e+04 1.910e-09
 94.24384    -92.6 1.323e+04 2.269e-09
 94.26341    -93.3 1.262e+04 1.744e-09
 94.28362    -93.7 1.208e+04 1.337e-09
 94.30216    -94.0 1.149e+04 1.018e-09
 94.31227    -93.7 1.166e+04 1.081e-09
 94.32404    -94.1 1.109e+04 8.057e-10
 94.34426    -94.4 1.054e+04 6.299e-10
 94.36447    -94.7 1.022e+04 5.198e-10
 94.38070    -94.8 9.967e+03 4.521e-10
 94.39081    -95.5 1.038e+04 4.932e-10
 94.40490    -95.8 1.036e+04 4.760e-10
 94.42511    -96.1 1.047e+04 4.823e-10
 94.44532    -96.4 1.083e+04 5.403e-10
 94.45924    -96.7 1.123e+04 6.430e-10
 94.46935    -98.4 1.227e+04 1.194e-09
 94.48575    -98.3 1.244e+04 1.388e-09
 94.50596    -97.9 1.251e+04 1.545e-09
 94.52617    -97.3 1.246e+04 1.630e-09
 94.53778    -96.7 1.236e+04 1.639e-09
 94.54789    -97.2 1.263e+04 2.127e-09
 94.56660    -96.5 1.242e+04 1.920e-09
 94.58681    -96.0 1.226e+04 1.720e-09
 94.59712    -95.7 1.215e+04 1.557e-09
 94.60642    -97.0 1.233e+04 1.702e-09
 94.61632    -98.1 1.221e+04 1.587e-09
 94.62723    -98.0 1.196e+04 1.416e-09
 94.64745    -97.8 1.172e+04 1.285e-09
 94.66766    -97.5 1.144e+04 1.167e-09
 94.68475    -97.0 1.115e+04 1.046e-09
 94.69486    -98.1 1.071e+04 7.828e-10
 94.70808    -97.5 1.044e+04 6.651e-10
 94.72830    -97.0 1.021e+04 5.501e-10
 94.74851    -96.7 9.998e+03 4.531e-10
 94.76329    -96.3 9.810e+03 3.886e-10
 94.77340    -97.4 9.553e+03 3.127e-10
 94.78894    -96.9 9.430e+03 2.935e-10
 94.80915    -96.3 9.374e+03 2.894e-10
 94.83182    -94.6 9.442e+03 3.035e-10
 94.85213    -96.5 9.086e+03 2.648e-10
 94.88009    -95.1 8.939e+03 2.618e-10
 94.92051    -93.6 8.785e+03 2.594e-10
 94.96094    -91.9 8.671e+03 2.515e-10
 94.98899    -90.1 8.585e+03 2.430e-10
 95.00921    -91.7 8.678e+03 2.586e-10
 95.04179    -90.2 8.753e+03 2.708e-10
 95.08221    -89.0 8.988e+03 3.209e-10
 95.12264    -88.2 9.441e+03 4.412e-10
 95.14607    -87.2 1.009e+04 6.581e-10
 95.16628    -88.7 1.033e+04 7.600e-10
 95.20349    -87.7 1.087e+04 9.970e-10
 95.24391    -86.8 1.117e+04 1.112e-09
 95.28294    -86.4 1.120e+04 1.092e-09
 95.30315    -87.6 1.103e+04 9.869e-10
 95.32477    -87.2 1.091e+04 8.190e-10
 95.35937    -87.7 1.074e+04 6.920e-10
 95.37577    -86.3 1.052e+04 6.422e-10
 95.38149    -86.8 1.054e+04 6.389e-10
 95.39531    -87.2 1.049e+04 6.095e-10
 95.41553    -89.1 1.088e+04 6.388e-10
 95.43574    -92.1 1.173e+04 8.333e-10
 95.44992    -94.4 1.261e+04 1.338e-09
 95.46003    -97.3 1.405e+04 2.615e-09
 95.47616    -97.3 1.442e+04 3.569e-09
 95.49638    -97.1 1.462e+04 3.838e-09
 95.51659    -97.1 1.489e+04 3.597e-09
 95.52846    -97.6 1.499e+04 2.986e-09
 95.53857    -99.7 1.608e+04 3.682e-09
 95.55702   -101.6 1.516e+04 2.767e-09
 95.57723   -103.7 1.464e+04 2.410e-09
 95.59690   -107.9 1.548e+04 2.347e-09
 95.60700   -112.7 1.681e+04 2.687e-09
 95.61765   -122.3 2.095e+04 5.853e-09
 95.63787   -129.8 2.169e+04 1.490e-08
 95.65298   -133.7 2.109e+04 2.123e-08
 95.66303   -135.2 2.106e+04 2.322e-08
 95.67314   -136.8 2.096e+04 2.386e-08
 95.68039   -137.7 2.033e+04 2.273e-08
 95.68544   -138.6 2.013e+04 1.966e-08
 95.69335   -139.9 1.974e+04 1.439e-08
 95.70346   -142.1 1.925e+04 8.735e-09
 95.71357   -145.6 1.807e+04 4.832e-09
 95.71966   -149.0 1.641e+04 3.058e-09
 95.72471   -149.6 1.601e+04 2.977e-09
 95.73888   -151.6 1.491e+04 2.189e-09
 95.75397   -154.2 1.260e+04 1.240e-09
 95.76408   -154.4 1.216e+04 1.313e-09
 95.77935   -154.6 1.149e+04 1.020e-09
 95.79957   -154.1 1.122e+04 8.865e-10
 95.81978   -152.7 1.092e+04 7.601e-10
 95.83251   -151.4 1.068e+04 6.433e-10
 95.84262   -150.9 1.073e+04 7.542e-10
 95.86020   -149.7 1.052e+04 6.214e-10
 95.88042   -148.5 1.032e+04 5.011e-10
 95.90063   -147.3 1.013e+04 4.142e-10
 95.91105   -145.9 1.001e+04 3.710e-10
 95.93136   -144.4 1.002e+04 4.272e-10
 95.97157   -142.9 9.962e+03 3.675e-10
 96.01199   -140.8 9.904e+03 3.316e-10
 96.04811   -138.6 9.922e+03 3.284e-10
 96.06832   -137.7 9.841e+03 3.240e-10
 96.09285   -135.9 1.006e+04 3.502e-10
 96.13327   -134.7 1.053e+04 4.830e-10
 96.16349   -133.0 1.078e+04 6.229e-10
 96.18361   -132.2 1.109e+04 7.415e-10
 96.20382   -131.5 1.138e+04 8.233e-10
 96.21510   -131.0 1.150e+04 8.468e-10
 96.22520   -130.6 1.156e+04 8.760e-10
 96.24424   -130.3 1.158e+04 8.778e-10
 96.26446   -129.8 1.147e+04 7.959e-10
 96.28353   -129.4 1.123e+04 6.646e-10
 96.29364   -129.0 1.129e+04 6.873e-10
 96.30488   -128.6 1.107e+04 5.767e-10
 96.32510   -128.2 1.090e+04 4.998e-10
 96.34531   -127.8 1.080e+04 4.510e-10
 96.36207   -127.4 1.080e+04 4.266e-10
 96.37217   -127.1 1.085e+04 4.527e-10
 96.38573   -126.6 1.086e+04 4.497e-10
 96.40595   -126.4 1.094e+04 4.505e-10
 96.42616   -126.3 1.109e+04 4.732e-10
 96.44061   -126.3 1.122e+04 5.223e-10
 96.45071   -126.2 1.126e+04 5.503e-10
 96.46658   -126.2 1.140e+04 6.216e-10
 96.48680   -126.2 1.159e+04 7.125e-10
 96.50701   -126.2 1.180e+04 8.222e-10
 96.51915   -126.1 1.198e+04 9.353e-10
 96.52925   -126.1 1.183e+04 8.709e-10
 96.54743   -126.2 1.193e+04 9.288e-10
 96.56765   -126.2 1.199e+04 9.723e-10
 96.58758   -126.5 1.207e+04 1.015e-09
 96.59768   -126.6 1.177e+04 8.385e-10
 96.60807   -127.2 1.188e+04 8.698e-10
 96.62828   -128.3 1.212e+04 9.712e-10
 96.64850   -129.8 1.250e+04 1.213e-09
 96.66612   -131.3 1.302e+04 1.650e-09
 96.67622   -130.9 1.241e+04 1.226e-09
 96.68892   -131.9 1.287e+04 1.708e-09
 96.70914   -132.5 1.337e+04 2.249e-09
 96.72935   -133.0 1.378e+04 2.634e-09
 96.74465   -133.5 1.391e+04 2.738e-09
 96.75476   -132.4 1.353e+04 2.413e-09
 96.76977   -132.7 1.360e+04 2.434e-09
 96.78999   -133.0 1.344e+04 2.198e-09
 96.81020   -133.4 1.294e+04 1.772e-09
 96.82319   -133.7 1.230e+04 1.395e-09
 96.83330   -132.6 1.246e+04 1.396e-09
 96.85062   -132.9 1.187e+04 1.117e-09
 96.87084   -132.9 1.138e+04 9.055e-10
 96.89105   -132.8 1.101e+04 7.466e-10
 96.90173   -132.6 1.075e+04 6.295e-10
 96.91184   -131.7 1.087e+04 6.511e-10
 96.92370   -131.5 1.063e+04 5.599e-10
 96.93380   -131.4 1.096e+04 6.525e-10
 96.95169   -131.3 1.071e+04 5.709e-10
 96.97016   -131.0 1.061e+04 5.263e-10
 96.98027   -130.0 1.071e+04 5.311e-10
 96.99211   -129.6 1.057e+04 5.005e-10
 97.01232   -129.0 1.050e+04 4.749e-10
 97.03254   -128.1 1.045e+04 4.554e-10
 97.04870   -127.2 1.041e+04 4.437e-10
 97.05881   -126.6 1.065e+04 4.569e-10
 97.07296   -125.7 1.060e+04 4.549e-10
 97.09318   -124.8 1.059e+04 4.551e-10
 97.11339   -123.8 1.059e+04 4.569e-10
 97.12724   -122.9 1.061e+04 4.616e-10
 97.13735   -123.2 1.238e+04 5.715e-10
 97.15381   -122.1 1.223e+04 5.812e-10
 97.17403   -121.1 1.210e+04 6.043e-10
 97.19424   -120.0 1.196e+04 6.366e-10
 97.20578   -118.7 1.182e+04 6.720e-10
 97.21589   -118.7 1.326e+04 1.107e-09
 97.23466   -117.4 1.294e+04 1.071e-09
 97.25488   -116.0 1.274e+04 1.045e-09
 97.27421   -114.7 1.265e+04 1.034e-09
 97.28432   -114.9 1.341e+04 1.438e-09
 97.29530   -113.7 1.335e+04 1.410e-09
 97.31551   -112.6 1.331e+04 1.397e-09
 97.33573   -111.1 1.338e+04 1.430e-09
 97.35275   -109.9 1.349e+04 1.457e-09
 97.36286   -110.3 1.390e+04 1.941e-09
 97.37615   -109.3 1.401e+04 2.072e-09
 97.39636   -108.2 1.416e+04 2.265e-09
 97.41658   -107.1 1.439e+04 2.514e-09
 97.43129   -106.3 1.469e+04 2.823e-09
 97.44140   -106.9 1.474e+04 3.290e-09
 97.45700   -107.0 1.548e+04 3.849e-09
 97.47722   -109.2 1.739e+04 5.446e-09
 97.49743   -113.4 1.959e+04 8.884e-09
 97.50978   -118.2 2.056e+04 1.344e-08
 97.51989   -120.5 1.997e+04 1.289e-08
 97.53275   -124.0 2.057e+04 1.592e-08
 97.54281   -126.2 2.030e+04 1.610e-08
 97.54900   -128.1 1.943e+04 1.460e-08
 97.55405   -128.4 1.905e+04 1.303e-08
 97.56302   -130.5 1.819e+04 1.006e-08
 97.57313   -133.3 1.713e+04 7.279e-09
 97.58322   -136.4 1.622e+04 5.498e-09
 97.59842   -138.5 1.529e+04 4.203e-09
 97.61870   -141.8 1.501e+04 3.999e-09
 97.63892   -144.2 1.489e+04 4.016e-09
 97.65680   -145.3 1.500e+04 4.412e-09
 97.66690   -144.4 1.457e+04 3.924e-09
 97.67934   -144.8 1.491e+04 4.621e-09
 97.69585   -144.8 1.502e+04 4.723e-09
 97.70596   -145.3 1.449e+04 3.918e-09
 97.71977   -145.0 1.427e+04 3.869e-09
 97.73534   -144.5 1.379e+04 2.950e-09
 97.74544   -143.5 1.403e+04 3.526e-09
 97.76019   -143.0 1.345e+04 2.378e-09
 97.78040   -142.6 1.265e+04 1.374e-09
 97.80062   -142.9 1.172e+04 7.607e-10
 97.81388   -143.5 1.076e+04 4.562e-10
 97.82398   -142.2 1.136e+04 5.759e-10
 97.84104   -142.7 1.048e+04 3.662e-10
 97.86126   -142.6 9.949e+03 2.955e-10
 97.88147   -142.1 9.771e+03 2.819e-10
 97.89251   -141.0 9.762e+03 2.816e-10
 97.90262   -140.9 9.855e+03 2.843e-10
 97.92189   -140.0 9.832e+03 2.838e-10
 97.95231   -138.9 9.853e+03 2.880e-10
 97.99283   -137.1 9.886e+03 2.987e-10
 98.02947   -135.2 9.978e+03 3.206e-10
 98.04969   -134.3 9.948e+03 3.233e-10
 98.07368   -132.3 1.009e+04 3.449e-10
 98.11411   -130.3 1.022e+04 3.703e-10
 98.15453   -128.3 1.029e+04 3.866e-10
 98.18655   -126.5 1.030e+04 3.898e-10
 98.20676   -125.6 1.024e+04 3.481e-10
 98.23538   -123.9 1.017e+04 3.268e-10
 98.27581   -122.1 1.002e+04 2.931e-10
 98.31623   -120.1 9.828e+03 2.558e-10
 98.34363   -118.1 9.617e+03 2.229e-10
 98.36384   -117.1 9.603e+03 2.312e-10
 98.39709   -115.1 9.474e+03 2.200e-10
 98.43751   -113.1 9.415e+03 2.151e-10
 98.46821   -111.0 9.402e+03 2.150e-10
 98.48842   -111.0 9.336e+03 1.988e-10
 98.50071   -108.9 9.323e+03 1.986e-10
 98.52092   -108.1 9.285e+03 2.014e-10
 98.55879   -106.0 9.254e+03 2.048e-10
 98.59921   -104.0 9.305e+03 2.221e-10
 98.63757   -101.8 9.371e+03 2.455e-10
 98.65778   -101.1 9.285e+03 2.377e-10
 98.68006    -98.9 9.399e+03 2.689e-10
 98.72049    -96.6 9.491e+03 2.904e-10
 98.76091    -94.4 9.518e+03 2.960e-10
 98.79465    -92.2 9.489e+03 2.830e-10
 98.81486    -91.8 9.603e+03 3.318e-10
 98.84176    -89.6 9.527e+03 3.050e-10
 98.88219    -87.6 9.407e+03 2.634e-10
 98.92261    -85.6 9.343e+03 2.377e-10
 98.95172    -83.8 9.342e+03 2.307e-10
 98.97194    -83.5 9.295e+03 2.300e-10
 99.00346    -81.6 9.244e+03 2.209e-10
 99.04389    -79.5 9.248e+03 2.189e-10
 99.08431    -77.4 9.313e+03 2.236e-10
 99.10880    -76.0 9.585e+03 2.670e-10
 99.12901    -76.2 9.578e+03 2.655e-10
 99.16517    -76.4 1.066e+04 5.059e-10
 99.20559    -76.9 1.204e+04 1.204e-09
 99.23581    -77.1 1.328e+04 2.689e-09
 99.25027    -77.0 1.423e+04 4.274e-09
 99.26003    -76.7 1.394e+04 3.782e-09
 99.26568    -76.6 1.412e+04 3.843e-09
 99.27614    -76.2 1.483e+04 4.613e-09
 99.29635    -76.1 1.554e+04 4.980e-09
 99.31656    -76.6 1.615e+04 5.114e-09
 99.33412    -78.4 1.706e+04 4.485e-09
 99.34422    -79.6 1.666e+04 3.752e-09
 99.35699    -81.9 1.657e+04 3.235e-09
 99.37720    -84.1 1.594e+04 2.839e-09
 99.39742    -86.1 1.496e+04 2.533e-09
 99.41265    -87.5 1.394e+04 2.325e-09
 99.42276    -87.5 1.350e+04 2.339e-09
 99.43784    -87.8 1.316e+04 2.423e-09
 99.45805    -87.8 1.302e+04 2.459e-09
 99.47827    -87.7 1.279e+04 2.307e-09
 99.49119    -87.4 1.245e+04 1.808e-09
 99.50130    -87.0 1.259e+04 2.008e-09
 99.51869    -86.8 1.213e+04 1.391e-09
 99.53890    -86.9 1.163e+04 8.921e-10
 99.55912    -87.7 1.116e+04 5.829e-10
 99.56973    -88.3 1.082e+04 4.375e-10
 99.57984    -87.7 1.087e+04 4.449e-10
 99.59954    -88.1 1.067e+04 3.683e-10
 99.61975    -88.4 1.064e+04 3.507e-10
 99.63816    -88.7 1.068e+04 3.509e-10
 99.64827    -88.2 1.071e+04 3.531e-10
 99.66018    -89.1 1.098e+04 3.772e-10
 99.69060    -91.0 1.154e+04 4.881e-10
 99.71680    -93.1 1.277e+04 1.188e-09
 99.72681    -93.0 1.297e+04 1.305e-09
 99.74103    -93.7 1.372e+04 2.398e-09
 99.76124    -93.8 1.430e+04 3.726e-09
 99.78146    -93.7 1.466e+04 4.360e-09
 99.79524    -94.0 1.474e+04 4.439e-09
 99.80535    -93.4 1.463e+04 4.426e-09
 99.82188    -93.5 1.432e+04 3.517e-09
 99.84209    -94.5 1.375e+04 2.380e-09
 99.86231    -96.1 1.315e+04 1.715e-09
 99.87378    -97.4 1.267e+04 1.436e-09
 99.88389    -96.8 1.223e+04 1.139e-09
 99.90273    -97.4 1.197e+04 1.071e-09
 99.92294    -97.6 1.188e+04 1.054e-09
 99.94221    -97.5 1.178e+04 1.043e-09
 99.95232    -96.8 1.151e+04 8.492e-10
 99.96337    -96.6 1.142e+04 8.318e-10
 99.98358    -96.4 1.130e+04 7.967e-10
100.00379    -96.1 1.118e+04 7.553e-10
