# Columns:
#   distance along LOS (in CHIMPs)
#   peculiar velocity  (in km/s)
#   temperature (K)
#   HI number density
# pos=(182.353,74.3913,241.477), angles=(1.58068,3.35566)
  0.00846     16.5 8.277e+03 1.753e-10
  0.03691     18.5 8.091e+03 1.386e-10
  0.07689     20.4 7.866e+03 1.035e-10
  0.10058     22.0 7.665e+03 8.349e-11
  0.12057     21.8 7.589e+03 7.564e-11
  0.15684     23.7 7.577e+03 7.461e-11
  0.19682     25.7 7.600e+03 7.664e-11
  0.23680     27.7 7.693e+03 8.537e-11
  0.27248     29.6 7.847e+03 1.045e-10
  0.29247     29.5 7.877e+03 1.046e-10
  0.31675     31.2 8.164e+03 1.485e-10
  0.35673     32.9 8.521e+03 2.216e-10
  0.39670     34.8 8.884e+03 3.054e-10
  0.43668     36.6 9.095e+03 3.404e-10
  0.46437     38.0 9.099e+03 3.333e-10
  0.48435     37.7 9.108e+03 3.369e-10
  0.51664     39.0 9.024e+03 2.901e-10
  0.55661     40.1 8.987e+03 2.456e-10
  0.59659     41.1 9.011e+03 2.429e-10
  0.63626     42.0 9.106e+03 2.560e-10
  0.65625     42.0 9.067e+03 2.524e-10
  0.67654     43.1 9.191e+03 2.717e-10
  0.71652     44.3 9.229e+03 2.680e-10
  0.75650     45.5 9.220e+03 2.327e-10
  0.79647     46.5 9.198e+03 1.795e-10
  0.82815     47.2 9.227e+03 1.508e-10
  0.84813     47.7 9.244e+03 1.546e-10
  0.87643     48.4 9.282e+03 1.602e-10
  0.91640     49.1 9.447e+03 1.994e-10
  0.95638     50.1 9.685e+03 2.750e-10
  0.99636     51.3 9.942e+03 3.473e-10
  1.02003     52.6 1.011e+04 3.615e-10
  1.04002     52.9 1.024e+04 4.092e-10
  1.07631     53.9 1.027e+04 3.983e-10
  1.11629     54.9 1.029e+04 3.661e-10
  1.15627     56.0 1.026e+04 3.220e-10
  1.19193     57.3 1.020e+04 2.731e-10
  1.21191     57.1 1.026e+04 2.844e-10
  1.23622     58.3 1.017e+04 2.321e-10
  1.27620     59.6 1.008e+04 1.884e-10
  1.31617     60.9 1.001e+04 1.567e-10
  1.35615     62.3 9.962e+03 1.365e-10
  1.38381     63.8 9.919e+03 1.261e-10
  1.40380     63.4 9.916e+03 1.229e-10
  1.43610     65.0 9.919e+03 1.171e-10
  1.47608     66.7 9.944e+03 1.159e-10
  1.51606     68.5 9.979e+03 1.167e-10
  1.55571     70.2 1.005e+04 1.202e-10
  1.57570     69.8 1.008e+04 1.200e-10
  1.59601     71.4 1.019e+04 1.301e-10
  1.63599     73.0 1.030e+04 1.448e-10
  1.67597     74.7 1.041e+04 1.576e-10
  1.71594     76.4 1.051e+04 1.590e-10
  1.74759     78.0 1.055e+04 1.510e-10
  1.76758     77.9 1.060e+04 1.401e-10
  1.79590     79.5 1.065e+04 1.220e-10
  1.83587     81.1 1.073e+04 1.076e-10
  1.87585     82.7 1.083e+04 9.887e-11
  1.91583     84.4 1.087e+04 9.726e-11
  1.93948     86.0 1.088e+04 9.742e-11
  1.95946     86.6 1.087e+04 9.316e-11
  1.99578     88.3 1.088e+04 9.537e-11
  2.03576     90.0 1.084e+04 1.019e-10
  2.07574     91.7 1.075e+04 1.116e-10
  2.11137     93.4 1.067e+04 1.209e-10
  2.13136     94.3 1.068e+04 1.183e-10
  2.15569     96.1 1.065e+04 1.249e-10
  2.19567     97.8 1.065e+04 1.253e-10
  2.23564     99.4 1.064e+04 1.230e-10
  2.27562    101.0 1.061e+04 1.153e-10
  2.30326    102.7 1.056e+04 1.031e-10
  2.32325    103.7 1.060e+04 1.097e-10
  2.35557    105.4 1.051e+04 9.528e-11
  2.39555    107.2 1.041e+04 8.097e-11
  2.43553    109.0 1.032e+04 6.846e-11
  2.47515    110.8 1.022e+04 5.874e-11
  2.49514    111.7 1.025e+04 5.823e-11
  2.51548    113.6 1.010e+04 5.430e-11
  2.55546    115.7 1.008e+04 5.453e-11
  2.59544    117.8 1.006e+04 5.630e-11
  2.63541    119.9 1.004e+04 6.324e-11
  2.66704    122.0 1.009e+04 7.797e-11
  2.68703    122.1 1.031e+04 9.297e-11
  2.71537    124.3 1.033e+04 1.237e-10
  2.75534    126.4 1.036e+04 1.585e-10
  2.79532    128.5 1.038e+04 1.913e-10
  2.83530    130.5 1.037e+04 2.168e-10
  2.85892    132.4 1.035e+04 2.279e-10
  2.87891    132.5 1.045e+04 2.285e-10
  2.91525    134.4 1.038e+04 2.167e-10
  2.95523    136.3 1.029e+04 1.991e-10
  2.99520    138.1 1.022e+04 1.784e-10
  3.03082    140.0 1.015e+04 1.570e-10
  3.05081    140.2 1.016e+04 1.341e-10
  3.07516    142.0 1.005e+04 1.184e-10
  3.11513    143.9 9.922e+03 1.130e-10
  3.15511    146.0 9.902e+03 1.136e-10
  3.19509    148.1 9.877e+03 1.172e-10
  3.22270    150.1 9.851e+03 1.288e-10
  3.24269    150.5 9.892e+03 1.311e-10
  3.27504    152.5 9.944e+03 1.546e-10
  3.31502    154.4 1.001e+04 1.840e-10
  3.35500    156.1 1.011e+04 2.104e-10
  3.39460    157.6 1.022e+04 2.173e-10
  3.41459    158.0 1.023e+04 2.003e-10
  3.43495    159.3 1.025e+04 1.993e-10
  3.47493    160.4 1.027e+04 1.938e-10
  3.51490    161.5 1.026e+04 1.867e-10
  3.55488    162.4 1.025e+04 1.845e-10
  3.58444    163.2 1.026e+04 1.858e-10
  3.59606    163.4 1.029e+04 2.046e-10
  3.60647    163.8 1.055e+04 2.164e-10
  3.63483    164.4 1.076e+04 2.367e-10
  3.67481    164.6 1.095e+04 2.644e-10
  3.71479    164.4 1.106e+04 2.988e-10
  3.75477    164.4 1.109e+04 3.317e-10
  3.77837    164.4 1.108e+04 3.583e-10
  3.79836    164.3 1.157e+04 5.649e-10
  3.83472    164.4 1.157e+04 5.772e-10
  3.87470    164.7 1.155e+04 5.806e-10
  3.91467    165.3 1.151e+04 5.708e-10
  3.95026    166.1 1.145e+04 5.554e-10
  3.97015    165.4 1.173e+04 7.071e-10
  3.98444    165.8 1.162e+04 6.704e-10
  4.00443    166.3 1.153e+04 6.319e-10
  4.02441    166.9 1.145e+04 5.987e-10
  4.04440    167.6 1.139e+04 5.744e-10
  4.05600    168.2 1.135e+04 5.658e-10
  4.06600    168.2 1.139e+04 5.554e-10
  4.08438    169.0 1.140e+04 5.531e-10
  4.10437    169.7 1.142e+04 5.543e-10
  4.12436    170.3 1.147e+04 5.609e-10
  4.14195    170.9 1.157e+04 5.961e-10
  4.15195    171.1 1.154e+04 5.463e-10
  4.16433    171.5 1.159e+04 5.581e-10
  4.19441    172.9 1.167e+04 5.929e-10
  4.23449    174.4 1.191e+04 7.164e-10
  4.27447    175.6 1.226e+04 9.136e-10
  4.31404    176.1 1.260e+04 1.117e-09
  4.33403    177.3 1.263e+04 1.108e-09
  4.35442    177.7 1.311e+04 1.414e-09
  4.39440    177.9 1.334e+04 1.518e-09
  4.43437    177.5 1.331e+04 1.423e-09
  4.46426    176.9 1.329e+04 1.380e-09
  4.48415    176.6 1.324e+04 1.306e-09
  4.50414    176.1 1.302e+04 1.100e-09
  4.51573    175.6 1.286e+04 9.735e-10
  4.52582    176.8 1.335e+04 1.305e-09
  4.55430    175.8 1.273e+04 8.723e-10
  4.59428    175.8 1.225e+04 6.827e-10
  4.63426    176.0 1.202e+04 6.279e-10
  4.67423    176.4 1.200e+04 6.186e-10
  4.69781    176.9 1.202e+04 6.221e-10
  4.71780    177.6 1.191e+04 5.863e-10
  4.75419    177.7 1.206e+04 6.533e-10
  4.79417    177.4 1.253e+04 8.639e-10
  4.83414    176.7 1.317e+04 1.192e-09
  4.86403    175.5 1.397e+04 1.723e-09
  4.87951    174.4 1.430e+04 2.030e-09
  4.88950    173.8 1.478e+04 2.580e-09
  4.90391    171.9 1.486e+04 2.801e-09
  4.92389    170.1 1.479e+04 2.727e-09
  4.94388    168.7 1.453e+04 2.356e-09
  4.96387    167.3 1.425e+04 1.959e-09
  4.99395    164.5 1.362e+04 1.297e-09
  5.03403    161.8 1.278e+04 8.898e-10
  5.06159    160.3 1.210e+04 6.965e-10
  5.08158    159.7 1.197e+04 6.756e-10
  5.11398    159.5 1.175e+04 6.173e-10
  5.15396    159.5 1.162e+04 5.638e-10
  5.19393    159.8 1.146e+04 4.863e-10
  5.23349    160.4 1.124e+04 4.053e-10
  5.25348    160.3 1.129e+04 4.771e-10
  5.27389    161.3 1.105e+04 4.219e-10
  5.31387    162.7 1.095e+04 4.064e-10
  5.35384    164.2 1.095e+04 4.073e-10
  5.39382    165.6 1.099e+04 4.160e-10
  5.42537    166.9 1.103e+04 4.140e-10
  5.44536    166.8 1.098e+04 4.249e-10
  5.47377    168.0 1.098e+04 4.084e-10
  5.51375    169.4 1.088e+04 3.637e-10
  5.55373    170.8 1.066e+04 2.889e-10
  5.59370    172.2 1.040e+04 2.136e-10
  5.61726    173.6 1.014e+04 1.610e-10
  5.63725    173.9 1.011e+04 1.593e-10
  5.67366    175.6 9.992e+03 1.454e-10
  5.71363    177.4 9.990e+03 1.454e-10
  5.75361    179.4 1.002e+04 1.516e-10
  5.78915    181.4 1.019e+04 1.786e-10
  5.80914    181.6 1.022e+04 1.823e-10
  5.83357    183.3 1.051e+04 2.328e-10
  5.87354    184.1 1.072e+04 2.857e-10
  5.89499    184.5 1.094e+04 3.584e-10
  5.90489    184.5 1.099e+04 3.637e-10
  5.92332    184.8 1.142e+04 5.239e-10
  5.94331    184.8 1.201e+04 8.432e-10
  5.96329    184.8 1.274e+04 1.407e-09
  5.98084    184.8 1.351e+04 2.315e-09
  5.99084    185.1 1.336e+04 2.120e-09
  6.00327    185.1 1.398e+04 3.072e-09
  6.02326    184.8 1.442e+04 3.759e-09
  6.04325    184.1 1.450e+04 3.790e-09
  6.06324    183.4 1.443e+04 3.631e-09
  6.07679    182.8 1.414e+04 3.015e-09
  6.08678    182.8 1.393e+04 2.710e-09
  6.10321    182.1 1.351e+04 2.051e-09
  6.12320    181.1 1.292e+04 1.454e-09
  6.14319    180.1 1.227e+04 1.082e-09
  6.16273    179.4 1.181e+04 9.742e-10
  6.17273    179.9 1.191e+04 1.017e-09
  6.19326    180.5 1.183e+04 1.009e-09
  6.23333    181.0 1.186e+04 1.048e-09
  6.27331    181.2 1.208e+04 1.202e-09
  6.31329    181.3 1.232e+04 1.304e-09
  6.34482    181.3 1.234e+04 1.299e-09
  6.36471    180.8 1.298e+04 1.646e-09
  6.38305    180.8 1.288e+04 1.594e-09
  6.40304    180.9 1.269e+04 1.484e-09
  6.42303    181.2 1.255e+04 1.415e-09
  6.44057    181.6 1.242e+04 1.344e-09
  6.45056    181.6 1.282e+04 1.580e-09
  6.47310    182.1 1.212e+04 1.147e-09
  6.51317    182.7 1.169e+04 9.189e-10
  6.53670    183.6 1.123e+04 6.971e-10
  6.55669    183.9 1.145e+04 6.889e-10
  6.58303    184.3 1.126e+04 6.416e-10
  6.60293    184.8 1.106e+04 5.778e-10
  6.62246    185.4 1.085e+04 4.886e-10
  6.63245    185.3 1.092e+04 4.765e-10
  6.64290    185.8 1.068e+04 3.971e-10
  6.66289    186.2 1.047e+04 3.391e-10
  6.68288    186.5 1.069e+04 3.037e-10
  6.70287    186.8 1.076e+04 3.039e-10
  6.71840    187.1 1.086e+04 3.137e-10
  6.72839    186.5 1.117e+04 4.613e-10
  6.74284    186.9 1.121e+04 5.340e-10
  6.76283    187.4 1.126e+04 6.295e-10
  6.78282    188.1 1.134e+04 7.394e-10
  6.80281    188.9 1.143e+04 8.519e-10
  6.81434    189.8 1.155e+04 9.626e-10
  6.82434    189.8 1.171e+04 1.273e-09
  6.84279    190.7 1.182e+04 1.327e-09
  6.86278    191.3 1.202e+04 1.410e-09
  6.88276    191.5 1.238e+04 1.641e-09
  6.90029    191.5 1.294e+04 2.081e-09
  6.91028    191.8 1.254e+04 1.521e-09
  6.92274    191.8 1.307e+04 1.739e-09
  6.94273    191.7 1.369e+04 2.087e-09
  6.96272    191.3 1.417e+04 2.430e-09
  6.98271    190.7 1.426e+04 2.500e-09
  6.99623    189.8 1.420e+04 2.454e-09
  7.00623    188.7 1.250e+04 1.114e-09
  7.02268    188.5 1.245e+04 1.133e-09
  7.04267    188.6 1.243e+04 1.133e-09
  7.07228    189.5 1.236e+04 1.095e-09
  7.09237    189.0 1.123e+04 6.917e-10
  7.11283    189.4 1.091e+04 5.918e-10
  7.15280    190.2 1.049e+04 4.411e-10
  7.19278    191.3 1.007e+04 3.125e-10
  7.23276    192.5 9.699e+03 2.166e-10
  7.26427    194.0 9.406e+03 1.587e-10
  7.28425    195.0 9.537e+03 1.909e-10
  7.31271    196.6 9.291e+03 1.531e-10
  7.35269    198.5 9.221e+03 1.481e-10
  7.39266    200.6 9.219e+03 1.483e-10
  7.43264    202.6 9.226e+03 1.512e-10
  7.45615    204.5 9.269e+03 1.591e-10
  7.47614    205.3 9.271e+03 1.588e-10
  7.51260    207.0 9.348e+03 1.732e-10
  7.54040    208.5 9.444e+03 1.918e-10
  7.56038    208.9 9.556e+03 2.125e-10
  7.59255    210.3 9.652e+03 2.354e-10
  7.62805    211.6 9.739e+03 2.556e-10
  7.64803    212.2 9.841e+03 2.830e-10
  7.67250    213.1 9.995e+03 3.198e-10
  7.71248    213.9 1.014e+04 3.428e-10
  7.75246    214.5 1.026e+04 3.478e-10
  7.79243    215.1 1.028e+04 3.456e-10
  7.81993    215.7 1.029e+04 3.368e-10
  7.83992    215.5 1.032e+04 3.257e-10
  7.87239    216.0 1.029e+04 2.704e-10
  7.91236    216.7 1.020e+04 2.071e-10
  7.95234    217.5 1.005e+04 1.633e-10
  7.99183    218.6 9.931e+03 1.550e-10
  8.01182    218.7 9.781e+03 1.275e-10
  8.03230    220.3 9.760e+03 1.303e-10
  8.07227    222.0 9.731e+03 1.447e-10
  8.11225    223.7 9.790e+03 1.762e-10
  8.15223    225.5 9.924e+03 2.228e-10
  8.18371    227.3 1.009e+04 2.791e-10
  8.20370    227.8 9.992e+03 2.770e-10
  8.23218    229.5 1.017e+04 3.418e-10
  8.27216    231.2 1.031e+04 4.012e-10
  8.31213    232.9 1.043e+04 4.490e-10
  8.35211    234.5 1.050e+04 4.793e-10
  8.37560    236.1 1.052e+04 4.907e-10
  8.39558    236.2 1.049e+04 4.951e-10
  8.43206    237.6 1.046e+04 4.923e-10
  8.47204    239.1 1.038e+04 4.782e-10
  8.51202    240.6 1.028e+04 4.523e-10
  8.54749    242.1 1.018e+04 4.197e-10
  8.56748    242.2 9.928e+03 3.482e-10
  8.59197    243.7 9.806e+03 3.032e-10
  8.63195    245.1 9.684e+03 2.593e-10
  8.67193    246.4 9.558e+03 2.234e-10
  8.71190    247.5 9.442e+03 2.041e-10
  8.73938    248.5 9.373e+03 1.944e-10
  8.75937    248.3 9.059e+03 1.595e-10
  8.79186    249.3 9.052e+03 1.606e-10
  8.83183    250.4 9.050e+03 1.649e-10
  8.87181    251.6 9.031e+03 1.769e-10
  8.91127    252.8 9.089e+03 2.007e-10
  8.93126    253.6 8.894e+03 1.695e-10
  8.95176    255.1 8.979e+03 1.810e-10
  8.99174    256.6 9.086e+03 1.916e-10
  9.03172    258.3 9.181e+03 2.006e-10
  9.07170    260.0 9.264e+03 2.073e-10
  9.10316    261.7 9.336e+03 2.130e-10
  9.12315    262.7 9.040e+03 1.603e-10
  9.15165    264.5 9.131e+03 1.702e-10
  9.19163    266.3 9.218e+03 1.825e-10
  9.23160    268.0 9.313e+03 1.994e-10
  9.27158    269.7 9.414e+03 2.240e-10
  9.29504    271.4 9.523e+03 2.554e-10
  9.31503    272.2 9.396e+03 2.295e-10
  9.35153    273.8 9.536e+03 2.696e-10
  9.39151    275.2 9.644e+03 3.074e-10
  9.43149    276.4 9.689e+03 3.297e-10
  9.46694    277.3 9.669e+03 3.353e-10
  9.48693    277.9 9.566e+03 3.048e-10
  9.51144    278.5 9.515e+03 2.917e-10
  9.55142    279.0 9.464e+03 2.772e-10
  9.59139    279.5 9.426e+03 2.655e-10
  9.63137    280.1 9.421e+03 2.629e-10
  9.65882    280.6 9.442e+03 2.641e-10
  9.67881    281.2 9.255e+03 2.234e-10
  9.71133    281.9 9.341e+03 2.318e-10
  9.75130    282.8 9.545e+03 2.593e-10
  9.79128    284.0 9.746e+03 2.916e-10
  9.83072    285.5 9.910e+03 3.196e-10
  9.85071    285.9 9.997e+03 3.518e-10
  9.86114    286.6 9.995e+03 3.632e-10
  9.88103    287.3 1.001e+04 3.795e-10
  9.90102    288.1 1.007e+04 4.214e-10
  9.92101    288.7 1.032e+04 5.086e-10
  9.93646    288.9 1.085e+04 6.768e-10
  9.94645    288.5 1.116e+04 7.902e-10
  9.96099    288.3 1.215e+04 1.192e-09
  9.98097    288.0 1.332e+04 1.915e-09
 10.00096    287.8 1.445e+04 3.059e-09
 10.02095    287.5 1.530e+04 4.353e-09
 10.03235    287.1 1.567e+04 5.024e-09
 10.03730    286.9 1.593e+04 5.522e-09
 10.04584    286.4 1.652e+04 6.744e-09
 10.05583    285.7 1.715e+04 8.521e-09
 10.06583    285.2 1.752e+04 1.056e-08
 10.07528    284.9 1.776e+04 1.227e-08
 10.08028    284.5 1.798e+04 1.383e-08
 10.08582    284.4 1.814e+04 1.536e-08
 10.09581    284.1 1.842e+04 1.652e-08
 10.10580    283.4 1.884e+04 1.744e-08
 10.11580    282.1 1.947e+04 1.813e-08
 10.12325    279.9 2.040e+04 1.881e-08
 10.12825    278.1 2.132e+04 2.528e-08
 10.13579    274.5 2.251e+04 2.779e-08
 10.14578    270.1 2.342e+04 3.084e-08
 10.15578    265.4 2.375e+04 3.466e-08
 10.16577    260.7 2.346e+04 3.956e-08
 10.17122    256.6 2.290e+04 4.567e-08
 10.17622    256.1 2.256e+04 5.561e-08
 10.18576    253.0 2.255e+04 5.599e-08
 10.19575    250.0 2.259e+04 5.531e-08
 10.20575    246.9 2.279e+04 5.174e-08
 10.21419    243.6 2.310e+04 4.252e-08
 10.21919    243.0 2.325e+04 3.019e-08
 10.22574    238.8 2.329e+04 2.047e-08
 10.23573    234.2 2.270e+04 1.372e-08
 10.24572    229.3 2.135e+04 9.700e-09
 10.25572    224.6 1.955e+04 7.455e-09
 10.26217    220.4 1.776e+04 6.232e-09
 10.26716    219.4 1.652e+04 5.012e-09
 10.27571    216.7 1.581e+04 4.918e-09
 10.28570    214.9 1.571e+04 4.922e-09
 10.29570    213.4 1.568e+04 5.002e-09
 10.30514    212.4 1.566e+04 5.152e-09
 10.31019    213.8 1.541e+04 4.453e-09
 10.32078    212.1 1.555e+04 5.147e-09
 10.34077    211.7 1.586e+04 5.808e-09
 10.36076    210.9 1.612e+04 6.050e-09
 10.38074    209.5 1.612e+04 5.817e-09
 10.39618    208.1 1.581e+04 4.855e-09
 10.40618    207.9 1.520e+04 3.910e-09
 10.42072    206.3 1.441e+04 2.619e-09
 10.44071    204.5 1.320e+04 1.601e-09
 10.47079    202.7 1.165e+04 9.050e-10
 10.51086    202.2 1.019e+04 5.578e-10
 10.55084    202.6 9.963e+03 4.519e-10
 10.57817    202.6 1.002e+04 4.651e-10
 10.59816    204.2 9.908e+03 4.360e-10
 10.63079    205.3 9.966e+03 4.395e-10
 10.67077    206.6 1.003e+04 4.391e-10
 10.71075    208.3 1.015e+04 4.410e-10
 10.75016    210.4 1.029e+04 4.464e-10
 10.77015    210.4 1.019e+04 4.132e-10
 10.79070    212.7 1.025e+04 4.128e-10
 10.82059    213.4 1.030e+04 4.208e-10
 10.84048    214.1 1.033e+04 4.236e-10
 10.85591    215.0 1.035e+04 4.247e-10
 10.86590    215.4 1.037e+04 4.247e-10
 10.88046    216.4 1.041e+04 4.269e-10
 10.90044    217.0 1.058e+04 4.406e-10
 10.92043    217.1 1.087e+04 4.935e-10
 10.94042    216.9 1.149e+04 6.111e-10
 10.95185    216.5 1.239e+04 8.906e-10
 10.96184    216.3 1.267e+04 1.099e-09
 10.98040    216.4 1.365e+04 1.847e-09
 11.00039    216.9 1.467e+04 3.151e-09
 11.02037    217.9 1.566e+04 5.013e-09
 11.03780    218.7 1.651e+04 6.802e-09
 11.04779    219.3 1.649e+04 7.304e-09
 11.06035    219.4 1.704e+04 7.916e-09
 11.08034    219.2 1.704e+04 7.736e-09
 11.10033    219.3 1.682e+04 6.745e-09
 11.12032    219.3 1.627e+04 5.056e-09
 11.13374    219.1 1.547e+04 3.481e-09
 11.14373    219.8 1.514e+04 3.109e-09
 11.16029    219.2 1.427e+04 2.141e-09
 11.18028    218.4 1.338e+04 1.621e-09
 11.20027    218.2 1.270e+04 1.510e-09
 11.21969    218.6 1.260e+04 1.502e-09
 11.22968    218.9 1.238e+04 1.358e-09
 11.24025    219.4 1.239e+04 1.363e-09
 11.26024    219.9 1.242e+04 1.392e-09
 11.28022    220.4 1.254e+04 1.479e-09
 11.30021    220.9 1.276e+04 1.635e-09
 11.31563    221.2 1.310e+04 1.876e-09
 11.32562    220.8 1.303e+04 1.894e-09
 11.34019    221.1 1.338e+04 2.218e-09
 11.36018    221.5 1.387e+04 2.638e-09
 11.38017    221.8 1.452e+04 3.222e-09
 11.40016    222.2 1.525e+04 3.966e-09
 11.41157    222.6 1.594e+04 4.811e-09
 11.42156    222.4 1.513e+04 3.441e-09
 11.44013    222.6 1.600e+04 4.097e-09
 11.46012    222.8 1.671e+04 4.949e-09
 11.48011    223.0 1.725e+04 5.849e-09
 11.49615    223.1 1.760e+04 6.640e-09
 11.50357    223.0 1.693e+04 5.512e-09
 11.50751    222.1 1.541e+04 4.378e-09
 11.52009    222.2 1.606e+04 4.978e-09
 11.54007    222.2 1.685e+04 5.601e-09
 11.56006    222.3 1.755e+04 6.247e-09
 11.58005    222.3 1.819e+04 7.108e-09
 11.59346    222.4 1.883e+04 8.457e-09
 11.60345    221.1 1.787e+04 5.216e-09
 11.62003    221.1 1.924e+04 6.659e-09
 11.64002    221.1 2.059e+04 8.661e-09
 11.66000    221.1 2.177e+04 1.099e-08
 11.67941    221.0 2.277e+04 1.346e-08
 11.68940    217.8 2.196e+04 8.201e-09
 11.69998    217.5 2.335e+04 9.565e-09
 11.71997    217.3 2.421e+04 1.117e-08
 11.73996    217.0 2.465e+04 1.296e-08
 11.75995    216.8 2.460e+04 1.467e-08
 11.77535    216.7 2.462e+04 1.497e-08
 11.78535    212.6 2.132e+04 8.683e-09
 11.79992    213.0 2.169e+04 9.456e-09
 11.81991    213.7 2.177e+04 1.038e-08
 11.83990    214.7 2.164e+04 1.112e-08
 11.85989    215.7 2.197e+04 1.095e-08
 11.87129    216.8 2.206e+04 1.092e-08
 11.88129    213.5 1.819e+04 3.303e-09
 11.89987    214.7 1.942e+04 3.435e-09
 11.91985    216.1 2.094e+04 3.639e-09
 11.93984    217.5 2.232e+04 3.753e-09
 11.95724    218.9 2.482e+04 3.782e-09
 11.96724    211.7 1.495e+04 1.046e-09
 11.97982    212.2 1.609e+04 1.105e-09
 11.99981    212.1 1.732e+04 1.187e-09
 12.01016    211.3 1.817e+04 1.349e-09
 12.01511    210.6 1.652e+04 1.156e-09
 12.02470    208.9 1.483e+04 1.128e-09
 12.03469    207.0 1.450e+04 1.185e-09
 12.04469    205.8 1.434e+04 1.258e-09
 12.05309    204.3 1.447e+04 1.473e-09
 12.06313    206.1 1.369e+04 1.197e-09
 12.07976    204.6 1.429e+04 1.601e-09
 12.09975    204.1 1.464e+04 2.171e-09
 12.11974    204.6 1.490e+04 2.842e-09
 12.13913    205.2 1.506e+04 3.442e-09
 12.14913    207.1 1.450e+04 2.654e-09
 12.15972    207.6 1.498e+04 3.522e-09
 12.17970    208.4 1.537e+04 4.459e-09
 12.19969    209.7 1.554e+04 5.218e-09
 12.21968    210.9 1.566e+04 5.673e-09
 12.23507    211.8 1.568e+04 5.667e-09
 12.24507    212.4 1.520e+04 5.043e-09
 12.25966    212.9 1.523e+04 4.954e-09
 12.27965    213.3 1.517e+04 4.566e-09
 12.29964    213.5 1.494e+04 3.864e-09
 12.31962    213.6 1.455e+04 3.083e-09
 12.33102    213.5 1.399e+04 2.396e-09
 12.34101    214.7 1.372e+04 2.264e-09
 12.35960    214.5 1.310e+04 1.720e-09
 12.37959    214.4 1.240e+04 1.364e-09
 12.39958    214.6 1.179e+04 1.149e-09
 12.41696    215.0 1.134e+04 1.013e-09
 12.42696    215.9 1.119e+04 8.824e-10
 12.43955    216.6 1.088e+04 8.136e-10
 12.45954    217.6 1.069e+04 7.575e-10
 12.47953    218.9 1.057e+04 7.070e-10
 12.49952    220.1 1.046e+04 6.520e-10
 12.51291    221.3 1.035e+04 5.971e-10
 12.52290    222.1 1.020e+04 5.452e-10
 12.53950    223.3 1.010e+04 5.016e-10
 12.55949    224.4 1.001e+04 4.659e-10
 12.57947    225.5 9.969e+03 4.363e-10
 12.59885    226.4 9.973e+03 4.267e-10
 12.60895    226.9 9.977e+03 3.936e-10
 12.62964    229.1 9.975e+03 3.720e-10
 12.66962    231.8 1.004e+04 3.607e-10
 12.70959    234.5 1.008e+04 3.619e-10
 12.73948    236.1 1.006e+04 3.467e-10
 12.75937    237.4 1.008e+04 3.460e-10
 12.77936    239.0 1.017e+04 3.528e-10
 12.79074    240.2 1.025e+04 3.648e-10
 12.80083    240.6 1.001e+04 3.000e-10
 12.82953    243.4 1.016e+04 3.086e-10
 12.86950    245.4 1.023e+04 3.220e-10
 12.89939    247.3 1.021e+04 3.099e-10
 12.91928    248.4 1.032e+04 3.285e-10
 12.93927    249.5 1.041e+04 3.576e-10
 12.95925    250.7 1.054e+04 4.048e-10
 12.97263    251.9 1.079e+04 4.759e-10
 12.98262    252.4 1.033e+04 3.376e-10
 12.99923    253.6 1.057e+04 3.856e-10
 13.01922    254.4 1.100e+04 4.668e-10
 13.03921    254.7 1.159e+04 6.097e-10
 13.05858    254.9 1.230e+04 8.524e-10
 13.06857    256.2 1.144e+04 5.335e-10
 13.07919    256.4 1.215e+04 7.734e-10
 13.09917    256.6 1.292e+04 1.168e-09
 13.11916    256.8 1.367e+04 1.751e-09
 13.13915    257.1 1.439e+04 2.513e-09
 13.15452    257.3 1.509e+04 3.387e-09
 13.16451    258.4 1.459e+04 2.703e-09
 13.17913    258.5 1.550e+04 3.801e-09
 13.19912    258.3 1.645e+04 5.044e-09
 13.21910    257.6 1.736e+04 6.283e-09
 13.23909    256.4 1.821e+04 7.104e-09
 13.25046    254.6 1.857e+04 7.141e-09
 13.26046    256.0 1.915e+04 8.978e-09
 13.27907    253.8 1.930e+04 8.914e-09
 13.29906    251.0 1.924e+04 8.312e-09
 13.31905    248.1 1.864e+04 6.539e-09
 13.33641    245.5 1.748e+04 4.372e-09
 13.34640    246.8 1.823e+04 5.489e-09
 13.35902    244.4 1.670e+04 3.221e-09
 13.37901    241.8 1.492e+04 1.752e-09
 13.39900    239.2 1.311e+04 1.042e-09
 13.42908    239.4 1.278e+04 8.687e-10
 13.46916    237.9 1.136e+04 5.436e-10
 13.50850    236.5 1.033e+04 3.319e-10
 13.52849    236.7 1.066e+04 3.641e-10
 13.54911    235.4 9.454e+03 2.106e-10
 13.58909    234.2 9.298e+03 1.465e-10
 13.62906    233.2 9.305e+03 1.401e-10
 13.66904    232.2 9.332e+03 1.423e-10
 13.70039    231.2 9.375e+03 1.463e-10
 13.72037    231.2 9.618e+03 1.778e-10
 13.74899    230.1 9.606e+03 1.793e-10
 13.78897    229.0 9.580e+03 1.796e-10
 13.82895    227.9 9.583e+03 1.815e-10
 13.86892    226.8 9.630e+03 1.900e-10
 13.89227    225.8 9.913e+03 2.219e-10
 13.91226    226.3 9.986e+03 2.367e-10
 13.94888    226.3 1.047e+04 2.914e-10
 13.97812    225.8 1.085e+04 3.299e-10
 13.98802    226.0 1.078e+04 3.242e-10
 13.99865    224.7 1.138e+04 4.489e-10
 14.01864    222.6 1.182e+04 6.556e-10
 14.03863    220.7 1.204e+04 8.496e-10
 14.05862    219.0 1.223e+04 9.668e-10
 14.07397    217.1 1.244e+04 1.022e-09
 14.08396    218.1 1.220e+04 9.257e-10
 14.09860    215.9 1.239e+04 9.441e-10
 14.11859    212.8 1.293e+04 9.952e-10
 14.13857    209.1 1.356e+04 1.157e-09
 14.15856    205.3 1.407e+04 1.443e-09
 14.16991    201.9 1.435e+04 1.771e-09
 14.17990    203.8 1.424e+04 1.691e-09
 14.19854    200.8 1.448e+04 2.023e-09
 14.21853    198.1 1.458e+04 2.171e-09
 14.23852    195.1 1.466e+04 2.259e-09
 14.25586    190.8 1.499e+04 2.356e-09
 14.26585    192.9 1.527e+04 2.714e-09
 14.27849    187.0 1.609e+04 3.008e-09
 14.29848    179.8 1.694e+04 3.801e-09
 14.31847    173.0 1.728e+04 4.928e-09
 14.33846    167.1 1.733e+04 5.315e-09
 14.35175    162.1 1.739e+04 5.145e-09
 14.36174    164.3 1.741e+04 5.470e-09
 14.37844    159.1 1.720e+04 4.575e-09
 14.39842    152.1 1.667e+04 3.097e-09
 14.41841    142.7 1.624e+04 2.643e-09
 14.43775    132.0 1.633e+04 2.771e-09
 14.44774    136.8 1.594e+04 2.569e-09
 14.45839    127.0 1.652e+04 3.238e-09
 14.47838    119.1 1.722e+04 4.323e-09
 14.49837    113.0 1.718e+04 4.645e-09
 14.51835    107.9 1.681e+04 4.437e-09
 14.53369    103.8 1.631e+04 3.933e-09
 14.54368    107.5 1.639e+04 4.278e-09
 14.55833    103.9 1.561e+04 3.564e-09
 14.57832    101.1 1.507e+04 2.965e-09
 14.59831     98.9 1.486e+04 2.459e-09
 14.61830     97.2 1.460e+04 2.066e-09
 14.62963     95.7 1.417e+04 1.772e-09
 14.63962     98.6 1.378e+04 1.652e-09
 14.65827     97.4 1.344e+04 1.391e-09
 14.67826     96.5 1.313e+04 1.222e-09
 14.69825     95.8 1.320e+04 1.223e-09
 14.71558     95.1 1.341e+04 1.257e-09
 14.72557     97.9 1.292e+04 9.096e-10
 14.73823     97.2 1.310e+04 9.371e-10
 14.75822     96.5 1.307e+04 1.039e-09
 14.77820     96.0 1.284e+04 1.194e-09
 14.79819     95.8 1.260e+04 1.366e-09
 14.81152     96.1 1.251e+04 1.542e-09
 14.82151     97.4 1.244e+04 1.148e-09
 14.83817     97.7 1.236e+04 1.359e-09
 14.85816     98.1 1.242e+04 1.559e-09
 14.87815     98.7 1.261e+04 1.695e-09
 14.89747     99.3 1.274e+04 1.737e-09
 14.90746    100.3 1.259e+04 1.639e-09
 14.91812    100.7 1.282e+04 1.728e-09
 14.93811    100.9 1.298e+04 1.758e-09
 14.95810    100.8 1.316e+04 1.785e-09
 14.97809    100.5 1.318e+04 1.735e-09
 14.99341    100.2 1.312e+04 1.645e-09
 15.00341    101.5 1.340e+04 1.884e-09
 15.01807    101.2 1.336e+04 1.839e-09
 15.03805    101.0 1.319e+04 1.714e-09
 15.05804    100.9 1.290e+04 1.540e-09
 15.07803    101.0 1.255e+04 1.340e-09
 15.08935    101.2 1.218e+04 1.141e-09
 15.09935    102.1 1.257e+04 1.351e-09
 15.11801    102.3 1.218e+04 1.124e-09
 15.13800    102.3 1.184e+04 9.454e-10
 15.15798    102.4 1.157e+04 8.255e-10
 15.17530    102.6 1.143e+04 7.959e-10
 15.18530    103.2 1.159e+04 8.454e-10
 15.19796    103.5 1.156e+04 8.453e-10
 15.21795    103.9 1.159e+04 8.613e-10
 15.23794    104.2 1.171e+04 9.226e-10
 15.25793    104.6 1.198e+04 1.055e-09
 15.27124    104.9 1.238e+04 1.268e-09
 15.28124    105.7 1.230e+04 1.219e-09
 15.29790    105.9 1.279e+04 1.514e-09
 15.31789    106.0 1.335e+04 1.911e-09
 15.33788    106.0 1.392e+04 2.395e-09
 15.35719    105.9 1.444e+04 2.913e-09
 15.36719    106.6 1.436e+04 2.786e-09
 15.37786    106.3 1.478e+04 3.272e-09
 15.39785    106.1 1.502e+04 3.587e-09
 15.41783    105.8 1.514e+04 3.718e-09
 15.43782    105.6 1.528e+04 3.766e-09
 15.45211    105.1 1.538e+04 3.710e-09
 15.45742    105.9 1.533e+04 3.650e-09
 15.46313    106.6 1.544e+04 3.927e-09
 15.47780    106.1 1.590e+04 4.425e-09
 15.49779    105.7 1.629e+04 4.951e-09
 15.51778    105.4 1.652e+04 5.175e-09
 15.53777    105.1 1.640e+04 4.925e-09
 15.54908    104.8 1.622e+04 4.481e-09
 15.55907    105.6 1.785e+04 8.802e-09
 15.57270    105.4 1.756e+04 7.224e-09
 15.58264    105.2 1.736e+04 6.215e-09
 15.59195    104.8 1.716e+04 5.151e-09
 15.59695    105.5 1.792e+04 7.819e-09
 15.60263    105.1 1.783e+04 6.538e-09
 15.61262    104.3 1.731e+04 4.887e-09
 15.62262    104.0 1.699e+04 4.304e-09
 15.63498    103.7 1.630e+04 3.414e-09
 15.64497    103.5 1.687e+04 4.054e-09
 15.65260    103.1 1.633e+04 3.708e-09
 15.66260    102.9 1.617e+04 3.675e-09
 15.67764    103.3 1.579e+04 3.420e-09
 15.69767    103.1 1.525e+04 2.811e-09
 15.71766    102.8 1.458e+04 2.215e-09
 15.73097    102.7 1.403e+04 1.892e-09
 15.74096    103.3 1.543e+04 3.534e-09
 15.75764    103.5 1.506e+04 3.153e-09
 15.77763    103.9 1.481e+04 2.924e-09
 15.79762    104.5 1.464e+04 2.747e-09
 15.81691    104.9 1.447e+04 2.574e-09
 15.82691    105.5 1.560e+04 4.167e-09
 15.83759    105.7 1.542e+04 3.878e-09
 15.85758    105.8 1.517e+04 3.604e-09
 15.87757    105.9 1.489e+04 3.351e-09
 15.89756    106.1 1.459e+04 3.099e-09
 15.91286    106.5 1.429e+04 2.815e-09
 15.92285    106.7 1.497e+04 3.841e-09
 15.93753    107.2 1.456e+04 3.337e-09
 15.95752    107.8 1.416e+04 2.808e-09
 15.97751    108.2 1.381e+04 2.331e-09
 15.99750    108.2 1.355e+04 1.947e-09
 16.00880    107.9 1.339e+04 1.701e-09
 16.01879    108.1 1.362e+04 1.870e-09
 16.03748    107.9 1.351e+04 1.739e-09
 16.05747    107.5 1.354e+04 1.743e-09
 16.07745    107.0 1.368e+04 1.822e-09
 16.09475    106.2 1.403e+04 2.064e-09
 16.10474    106.8 1.406e+04 2.065e-09
 16.11743    105.9 1.456e+04 2.455e-09
 16.13742    104.8 1.511e+04 3.056e-09
 16.15741    103.7 1.563e+04 3.799e-09
 16.17740    102.4 1.619e+04 4.628e-09
 16.19069    100.6 1.682e+04 5.526e-09
 16.20068    101.0 1.760e+04 6.753e-09
 16.21737     99.1 1.819e+04 8.139e-09
 16.23736     97.1 1.862e+04 9.047e-09
 16.25735     95.1 1.872e+04 9.170e-09
 16.27664     93.5 1.838e+04 8.029e-09
 16.28663     93.5 1.940e+04 1.182e-08
 16.29733     92.5 1.859e+04 9.169e-09
 16.31732     91.7 1.745e+04 6.034e-09
 16.33730     90.6 1.611e+04 3.838e-09
 16.35729     89.2 1.488e+04 2.620e-09
 16.37258     88.1 1.436e+04 2.291e-09
 16.38257     88.0 1.484e+04 2.645e-09
 16.39727     87.6 1.493e+04 2.725e-09
 16.41726     87.2 1.534e+04 3.110e-09
 16.43725     86.8 1.600e+04 3.885e-09
 16.45723     86.5 1.664e+04 4.942e-09
 16.46852     86.2 1.716e+04 6.078e-09
 16.47852     86.3 1.794e+04 7.740e-09
 16.49721     86.3 1.828e+04 8.822e-09
 16.51720     86.1 1.850e+04 9.385e-09
 16.53719     85.5 1.866e+04 9.262e-09
 16.55447     84.4 1.883e+04 9.206e-09
 16.56446     84.8 1.861e+04 8.372e-09
 16.57717     83.2 1.890e+04 8.310e-09
 16.59715     80.8 1.937e+04 9.066e-09
 16.61714     78.2 1.948e+04 1.067e-08
 16.63713     76.3 1.929e+04 1.170e-08
 16.65036     75.2 1.921e+04 1.238e-08
 16.65531     75.0 1.900e+04 1.149e-08
 16.66202     74.7 1.888e+04 1.191e-08
 16.67201     74.4 1.877e+04 1.233e-08
 16.68201     74.3 1.863e+04 1.226e-08
 16.69200     74.5 1.838e+04 1.171e-08
 16.69829     74.5 1.830e+04 1.068e-08
 16.70328     74.5 1.827e+04 1.138e-08
 16.71199     74.5 1.824e+04 1.021e-08
 16.72198     74.1 1.832e+04 8.775e-09
 16.73198     72.9 1.839e+04 7.164e-09
 16.74126     71.3 1.798e+04 5.727e-09
 16.74626     72.0 1.827e+04 6.721e-09
 16.75197     69.8 1.791e+04 5.537e-09
 16.76196     68.1 1.714e+04 4.613e-09
 16.77196     65.7 1.646e+04 4.111e-09
 16.78195     63.8 1.599e+04 3.983e-09
 16.78923     58.4 1.863e+04 5.060e-09
 16.79423     59.8 1.816e+04 5.142e-09
 16.80194     51.1 2.267e+04 8.769e-09
 16.81193     44.6 2.331e+04 1.466e-08
 16.82193     41.4 2.123e+04 1.976e-08
 16.83192     40.3 2.020e+04 2.254e-08
 16.83720     39.7 2.011e+04 2.336e-08
 16.84220     39.4 1.997e+04 2.251e-08
 16.85695     39.3 2.062e+04 1.748e-08
 16.87699     36.4 2.109e+04 9.415e-09
 16.89698     29.2 2.011e+04 2.422e-09
 16.91697     17.8 1.309e+04 6.985e-10
 16.92824     12.3 1.003e+04 5.506e-10
 16.93824     12.3 1.020e+04 5.951e-10
 16.95695     11.6 1.000e+04 5.524e-10
 16.97693     11.2 1.008e+04 5.614e-10
 16.99692     10.3 1.029e+04 6.184e-10
 17.01419      9.5 1.048e+04 6.967e-10
 17.02419      9.2 1.049e+04 7.009e-10
 17.03690      8.8 1.060e+04 7.682e-10
 17.05689      8.6 1.069e+04 8.238e-10
 17.07688      8.8 1.074e+04 8.476e-10
 17.09687      9.0 1.075e+04 8.498e-10
 17.11013      9.0 1.069e+04 7.995e-10
 17.12013      8.2 1.054e+04 7.205e-10
 17.13684      7.8 1.033e+04 6.489e-10
 17.15683      7.4 1.001e+04 5.740e-10
 17.17682      7.2 9.772e+03 5.113e-10
 17.19608      7.4 9.626e+03 4.418e-10
 17.20608      6.2 9.689e+03 4.706e-10
 17.21680      6.2 9.718e+03 4.231e-10
 17.23678      6.0 9.675e+03 4.089e-10
 17.25677      5.2 9.552e+03 3.912e-10
 17.27676      5.0 9.546e+03 3.917e-10
 17.29203      4.5 9.467e+03 3.803e-10
 17.30202      3.5 9.744e+03 4.562e-10
 17.31674      2.9 9.995e+03 5.077e-10
 17.33673      2.1 1.029e+04 5.942e-10
 17.35672      1.7 1.058e+04 7.082e-10
 17.37670      1.6 1.079e+04 8.249e-10
 17.38797      2.0 1.096e+04 9.152e-10
 17.39796      1.5 1.105e+04 9.590e-10
 17.41668      2.2 1.112e+04 9.488e-10
 17.43008      2.6 1.101e+04 8.465e-10
 17.44008      2.0 1.112e+04 8.847e-10
 17.45666      1.9 1.053e+04 6.548e-10
 17.47392      2.2 1.027e+04 4.950e-10
 17.48391      1.3 9.877e+03 3.756e-10
 17.50673      0.9 9.610e+03 3.173e-10
 17.54680     -0.6 8.718e+03 2.059e-10
 17.57005     -1.0 8.661e+03 1.920e-10
 17.59004     -0.8 8.648e+03 1.922e-10
 17.62675      0.8 8.745e+03 2.097e-10
 17.66673      3.0 8.799e+03 2.174e-10
 17.70671      5.5 8.760e+03 2.047e-10
 17.74195      8.1 8.649e+03 1.733e-10
 17.76194      8.6 8.988e+03 2.206e-10
 17.78666     11.0 8.962e+03 1.997e-10
 17.82664     13.5 8.954e+03 1.936e-10
 17.86662     16.1 8.998e+03 1.972e-10
 17.90659     19.0 9.062e+03 2.117e-10
 17.93383     22.0 9.118e+03 2.159e-10
 17.95382     22.8 9.579e+03 2.679e-10
 17.98655     25.6 9.630e+03 2.647e-10
 18.02652     28.0 9.739e+03 2.806e-10
 18.06650     30.4 9.854e+03 2.967e-10
 18.10573     32.7 9.948e+03 3.113e-10
 18.12562     32.8 9.990e+03 3.251e-10
 18.13627     34.2 9.992e+03 3.189e-10
 18.15625     34.6 1.004e+04 3.217e-10
 18.17624     35.4 1.006e+04 3.344e-10
 18.19623     36.2 1.012e+04 3.656e-10
 18.21147     37.1 1.039e+04 4.570e-10
 18.22147     37.5 1.068e+04 5.066e-10
 18.23621     38.1 1.116e+04 6.605e-10
 18.25620     38.7 1.165e+04 8.593e-10
 18.27618     39.3 1.216e+04 1.105e-09
 18.29617     39.7 1.279e+04 1.436e-09
 18.30741     39.8 1.356e+04 1.885e-09
 18.31741     38.2 1.579e+04 3.119e-09
 18.33615     38.4 1.668e+04 4.225e-09
 18.35614     38.5 1.733e+04 5.264e-09
 18.37613     38.8 1.771e+04 5.931e-09
 18.39336     39.2 1.786e+04 6.212e-09
 18.40336     37.1 1.950e+04 1.013e-08
 18.41610     37.7 1.931e+04 9.571e-09
 18.43609     38.2 1.901e+04 8.584e-09
 18.45608     38.9 1.852e+04 7.393e-09
 18.47607     39.9 1.800e+04 6.397e-09
 18.48930     40.8 1.768e+04 5.799e-09
 18.49930     39.4 1.771e+04 5.608e-09
 18.51605     40.1 1.763e+04 5.206e-09
 18.53603     40.9 1.745e+04 4.964e-09
 18.55602     41.8 1.765e+04 5.075e-09
 18.57525     42.1 1.822e+04 5.452e-09
 18.58525     36.4 2.238e+04 8.459e-09
 18.59600     36.1 2.351e+04 1.107e-08
 18.61599     35.8 2.473e+04 1.514e-08
 18.62817     37.2 2.518e+04 1.522e-08
 18.63312     34.5 2.529e+04 2.026e-08
 18.64088     34.8 2.543e+04 2.336e-08
 18.65087     34.6 2.537e+04 2.691e-08
 18.66086     34.8 2.513e+04 2.907e-08
 18.67086     34.8 2.489e+04 3.141e-08
 18.67609     35.1 2.493e+04 3.154e-08
 18.68109     33.7 2.311e+04 2.751e-08
 18.69085     34.2 2.263e+04 2.436e-08
 18.70084     33.9 2.227e+04 2.210e-08
 18.71084     34.2 2.175e+04 1.941e-08
 18.71907     34.1 2.142e+04 1.766e-08
 18.72406     32.9 2.034e+04 1.179e-08
 18.73082     33.8 1.969e+04 9.209e-09
 18.74082     33.4 1.972e+04 7.884e-09
 18.75081     34.0 1.942e+04 5.823e-09
 18.76081     33.4 1.968e+04 4.739e-09
 18.76704     33.4 2.000e+04 3.473e-09
 18.77708     28.4 1.897e+04 9.591e-10
 18.79588     25.2 1.799e+04 5.656e-10
 18.81587     21.4 1.581e+04 3.863e-10
 18.83586     17.0 1.176e+04 3.318e-10
 18.85308     15.0 1.122e+04 3.783e-10
 18.86308     10.7 1.080e+04 3.513e-10
 18.87584      8.9 1.157e+04 4.645e-10
 18.89583      1.5 1.555e+04 1.058e-09
 18.90600     -2.3 1.634e+04 1.984e-09
 18.91095     -3.2 1.638e+04 2.117e-09
 18.92071     -7.8 2.070e+04 2.674e-09
 18.93071    -23.8 3.152e+04 1.037e-08
 18.94070    -36.0 3.151e+04 4.666e-08
 18.94893    -42.9 2.799e+04 1.253e-07
 18.95393    -46.7 2.683e+04 1.582e-07
 18.96069    -52.9 2.705e+04 1.123e-07
 18.97069    -60.3 2.940e+04 3.090e-08
 18.98068    -69.5 3.208e+04 6.467e-09
 18.99572    -77.7 3.198e+04 2.465e-09
 19.01576    -99.9 2.243e+04 9.902e-10
 19.03497   -111.8 1.268e+04 8.197e-10
 19.04497   -111.7 1.223e+04 7.823e-10
 19.05573   -112.9 1.243e+04 8.929e-10
 19.07572   -114.3 1.257e+04 9.483e-10
 19.09571   -115.6 1.258e+04 9.552e-10
 19.11570   -116.6 1.253e+04 9.486e-10
 19.13092   -117.4 1.239e+04 8.888e-10
 19.14091   -116.1 1.239e+04 8.942e-10
 19.15568   -116.7 1.223e+04 8.098e-10
 19.17566   -117.2 1.206e+04 7.181e-10
 19.19565   -117.7 1.187e+04 6.249e-10
 19.21564   -118.1 1.166e+04 5.377e-10
 19.22686   -118.5 1.145e+04 4.672e-10
 19.23685   -117.3 1.148e+04 4.740e-10
 19.25562   -117.6 1.127e+04 4.273e-10
 19.27561   -117.8 1.118e+04 4.142e-10
 19.29560   -118.2 1.119e+04 4.139e-10
 19.31281   -119.4 1.155e+04 4.458e-10
 19.32280   -118.2 1.151e+04 4.485e-10
 19.33557   -121.1 1.290e+04 6.114e-10
 19.35556   -124.6 1.461e+04 1.147e-09
 19.37555   -127.5 1.578e+04 2.213e-09
 19.39554   -128.8 1.647e+04 3.646e-09
 19.40801   -129.1 1.688e+04 4.738e-09
 19.41118   -129.8 1.728e+04 5.495e-09
 19.41365   -129.9 1.754e+04 6.000e-09
 19.42043   -130.4 1.800e+04 6.944e-09
 19.43042   -130.9 1.836e+04 7.808e-09
 19.44041   -131.5 1.845e+04 8.086e-09
 19.45041   -132.3 1.865e+04 7.453e-09
 19.45662   -133.4 1.844e+04 6.469e-09
 19.46162   -133.1 1.864e+04 6.851e-09
 19.47544   -135.4 1.793e+04 5.031e-09
 19.49470   -137.6 1.678e+04 3.251e-09
 19.50469   -138.9 1.660e+04 3.120e-09
 19.51547   -142.0 1.417e+04 1.642e-09
 19.53546   -144.2 1.230e+04 1.094e-09
 19.55545   -145.0 1.168e+04 9.610e-10
 19.57543   -145.1 1.158e+04 9.192e-10
 19.59064   -144.7 1.152e+04 9.000e-10
 19.60063   -145.3 1.139e+04 8.065e-10
 19.61541   -144.8 1.141e+04 8.056e-10
 19.63540   -144.4 1.148e+04 8.277e-10
 19.65539   -144.1 1.161e+04 8.707e-10
 19.67538   -143.9 1.179e+04 9.382e-10
 19.68658   -143.7 1.198e+04 1.035e-09
 19.69658   -144.8 1.178e+04 9.552e-10
 19.71535   -144.6 1.200e+04 1.100e-09
 19.73534   -144.1 1.222e+04 1.274e-09
 19.75533   -143.3 1.245e+04 1.459e-09
 19.77253   -142.3 1.269e+04 1.627e-09
 19.78252   -143.0 1.251e+04 1.527e-09
 19.79531   -142.0 1.267e+04 1.640e-09
 19.81530   -141.1 1.275e+04 1.687e-09
 19.83528   -140.2 1.275e+04 1.659e-09
 19.85527   -139.5 1.263e+04 1.559e-09
 19.86847   -138.8 1.247e+04 1.442e-09
 19.87847   -139.3 1.211e+04 1.253e-09
 19.89525   -138.6 1.193e+04 1.144e-09
 19.91524   -137.8 1.172e+04 1.018e-09
 19.93523   -137.1 1.154e+04 8.997e-10
 19.95442   -136.7 1.142e+04 8.244e-10
 19.96441   -137.1 1.105e+04 6.911e-10
 19.98530   -137.4 1.082e+04 6.036e-10
 20.02537   -136.1 1.054e+04 5.334e-10
 20.06535   -134.8 1.027e+04 4.751e-10
 20.10532   -133.4 1.009e+04 4.379e-10
 20.13651   -131.9 9.946e+03 4.098e-10
 20.15649   -131.8 9.904e+03 4.019e-10
 20.18528   -130.2 9.807e+03 3.805e-10
 20.22525   -128.8 9.624e+03 3.367e-10
 20.26523   -127.4 9.441e+03 2.906e-10
 20.30521   -126.1 9.316e+03 2.640e-10
 20.32839   -124.8 9.288e+03 2.587e-10
 20.34838   -125.0 9.274e+03 2.545e-10
 20.38516   -123.7 9.298e+03 2.600e-10
 20.42514   -122.3 9.401e+03 2.820e-10
 20.46512   -120.6 9.501e+03 3.066e-10
 20.50029   -118.8 9.575e+03 3.242e-10
 20.52027   -118.8 9.761e+03 3.659e-10
 20.54507   -116.8 9.790e+03 3.706e-10
 20.58505   -114.8 9.851e+03 3.737e-10
 20.62502   -113.2 1.001e+04 3.915e-10
 20.66500   -112.4 1.065e+04 4.787e-10
 20.69217   -113.0 1.172e+04 7.300e-10
 20.71216   -114.9 1.244e+04 1.049e-09
 20.73486   -115.0 1.273e+04 1.259e-09
 20.75475   -116.2 1.342e+04 1.635e-09
 20.77474   -119.7 1.636e+04 3.040e-09
 20.78792   -122.9 1.882e+04 6.639e-09
 20.79791   -124.5 1.986e+04 9.821e-09
 20.81472   -126.5 2.067e+04 1.606e-08
 20.83471   -128.5 2.087e+04 1.847e-08
 20.85470   -130.7 2.070e+04 1.744e-08
 20.87387   -132.9 2.005e+04 1.233e-08
 20.88386   -134.2 2.005e+04 1.134e-08
 20.89467   -137.5 1.833e+04 5.400e-09
 20.91466   -141.1 1.584e+04 2.490e-09
 20.93465   -144.2 1.380e+04 1.452e-09
 20.95464   -146.3 1.309e+04 1.181e-09
 20.96981   -148.1 1.301e+04 1.143e-09
 20.97980   -149.6 1.304e+04 1.104e-09
 20.99461   -151.5 1.341e+04 1.288e-09
 21.01460   -153.3 1.379e+04 1.588e-09
 21.03459   -155.0 1.424e+04 1.932e-09
 21.05458   -156.9 1.474e+04 2.273e-09
 21.06575   -158.9 1.512e+04 2.556e-09
 21.07574   -159.8 1.500e+04 2.468e-09
 21.09456   -161.6 1.511e+04 2.637e-09
 21.11455   -163.2 1.511e+04 2.862e-09
 21.13453   -164.2 1.514e+04 3.169e-09
 21.15170   -164.9 1.529e+04 3.548e-09
 21.16169   -165.5 1.533e+04 3.399e-09
 21.17451   -166.8 1.592e+04 3.924e-09
 21.19450   -168.6 1.667e+04 4.402e-09
 21.21449   -170.9 1.731e+04 4.935e-09
 21.23448   -173.2 1.767e+04 5.585e-09
 21.24764   -175.1 1.774e+04 6.279e-09
 21.25763   -177.5 1.780e+04 7.156e-09
 21.27445   -178.4 1.744e+04 6.943e-09
 21.28940   -178.3 1.716e+04 6.738e-09
 21.29551   -178.5 1.696e+04 6.482e-09
 21.30051   -179.2 1.672e+04 6.043e-09
 21.30933   -179.7 1.627e+04 5.259e-09
 21.31933   -179.8 1.606e+04 4.788e-09
 21.33354   -179.7 1.589e+04 4.375e-09
 21.34358   -182.3 1.569e+04 3.516e-09
 21.35441   -183.9 1.490e+04 2.499e-09
 21.37440   -185.1 1.391e+04 1.793e-09
 21.38604   -185.8 1.313e+04 1.424e-09
 21.39603   -185.5 1.362e+04 1.689e-09
 21.41437   -185.9 1.295e+04 1.417e-09
 21.42953   -185.4 1.254e+04 1.282e-09
 21.43953   -187.2 1.272e+04 1.333e-09
 21.45435   -186.0 1.270e+04 1.336e-09
 21.47434   -184.6 1.272e+04 1.369e-09
 21.49433   -183.1 1.276e+04 1.408e-09
 21.51431   -181.6 1.284e+04 1.450e-09
 21.52547   -180.1 1.292e+04 1.490e-09
 21.53547   -181.4 1.375e+04 2.090e-09
 21.55429   -179.8 1.381e+04 2.128e-09
 21.57428   -178.2 1.392e+04 2.181e-09
 21.59427   -176.9 1.405e+04 2.245e-09
 21.61142   -175.6 1.417e+04 2.321e-09
 21.62142   -176.9 1.472e+04 3.019e-09
 21.63425   -175.4 1.492e+04 3.209e-09
 21.65423   -174.0 1.524e+04 3.517e-09
 21.67422   -173.0 1.561e+04 3.900e-09
 21.69421   -171.9 1.599e+04 4.327e-09
 21.70736   -170.7 1.636e+04 4.792e-09
 21.71736   -171.7 1.685e+04 5.970e-09
 21.73419   -170.8 1.724e+04 6.612e-09
 21.75418   -170.0 1.747e+04 7.019e-09
 21.77416   -169.3 1.753e+04 7.136e-09
 21.79331   -168.6 1.749e+04 7.067e-09
 21.80331   -169.9 1.753e+04 7.331e-09
 21.81414   -169.0 1.715e+04 6.733e-09
 21.83413   -168.0 1.677e+04 6.033e-09
 21.85412   -167.0 1.640e+04 5.472e-09
 21.87411   -166.0 1.603e+04 4.959e-09
 21.88925   -165.2 1.563e+04 4.470e-09
 21.89925   -166.2 1.464e+04 3.350e-09
 21.91408   -165.3 1.428e+04 3.004e-09
 21.93407   -164.5 1.400e+04 2.747e-09
 21.95406   -163.9 1.380e+04 2.569e-09
 21.97405   -163.5 1.372e+04 2.468e-09
 21.98520   -163.2 1.371e+04 2.445e-09
 21.99519   -165.2 1.290e+04 1.820e-09
 22.01403   -165.4 1.311e+04 2.000e-09
 22.03401   -165.7 1.347e+04 2.276e-09
 22.05400   -166.1 1.388e+04 2.585e-09
 22.07114   -166.8 1.435e+04 2.901e-09
 22.08114   -168.4 1.421e+04 2.870e-09
 22.09398   -169.3 1.463e+04 3.189e-09
 22.11397   -170.4 1.489e+04 3.409e-09
 22.13396   -171.6 1.511e+04 3.567e-09
 22.15394   -172.8 1.525e+04 3.557e-09
 22.16709   -174.0 1.536e+04 3.481e-09
 22.17708   -175.3 1.526e+04 3.428e-09
 22.19392   -176.5 1.528e+04 3.261e-09
 22.21391   -177.3 1.529e+04 3.040e-09
 22.23390   -177.8 1.532e+04 2.937e-09
 22.25303   -178.0 1.556e+04 2.940e-09
 22.26303   -178.4 1.508e+04 2.636e-09
 22.27388   -178.6 1.535e+04 2.705e-09
 22.29386   -178.7 1.573e+04 2.999e-09
 22.31385   -178.4 1.598e+04 3.432e-09
 22.33384   -178.1 1.594e+04 3.953e-09
 22.34898   -178.0 1.570e+04 4.945e-09
 22.35897   -177.6 1.480e+04 4.070e-09
 22.37382   -177.5 1.574e+04 5.536e-09
 22.39381   -178.1 1.857e+04 7.736e-09
 22.41379   -179.6 2.265e+04 9.949e-09
 22.42874   -182.0 2.703e+04 1.084e-08
 22.43868   -185.0 3.180e+04 1.571e-08
 22.44482   -190.1 3.215e+04 4.090e-08
 22.44982   -190.7 3.179e+04 4.279e-08
 22.45867   -196.3 2.844e+04 1.344e-07
 22.46867   -201.1 2.503e+04 3.322e-07
 22.47866   -205.3 2.347e+04 5.130e-07
 22.48780   -209.3 2.325e+04 5.539e-07
 22.49279   -209.8 2.313e+04 5.382e-07
 22.49865   -213.1 2.299e+04 4.696e-07
 22.50864   -216.4 2.386e+04 2.118e-07
 22.51864   -220.5 2.594e+04 4.700e-08
 22.52863   -226.6 2.804e+04 5.289e-09
 22.53577   -234.1 2.479e+04 1.170e-09
 22.54076   -232.5 2.668e+04 1.233e-09
 22.55367   -235.7 2.391e+04 9.204e-10
 22.57370   -248.1 1.255e+04 5.086e-10
 22.59369   -253.2 1.078e+04 4.890e-10
 22.61368   -255.0 1.040e+04 6.029e-10
 22.62681   -257.9 1.264e+04 1.136e-09
 22.63680   -257.5 1.216e+04 1.002e-09
 22.65366   -260.7 1.468e+04 1.966e-09
 22.67364   -263.9 1.682e+04 3.900e-09
 22.69363   -267.5 1.840e+04 6.681e-09
 22.71276   -272.1 1.933e+04 8.939e-09
 22.72275   -271.6 1.932e+04 8.896e-09
 22.73361   -277.0 1.969e+04 1.012e-08
 22.75360   -283.1 1.965e+04 1.026e-08
 22.77359   -289.3 1.877e+04 8.771e-09
 22.79358   -295.6 1.723e+04 5.852e-09
 22.80870   -301.3 1.541e+04 3.621e-09
 22.81869   -300.7 1.567e+04 3.881e-09
 22.83355   -305.5 1.394e+04 2.322e-09
 22.85354   -309.0 1.284e+04 1.489e-09
 22.87353   -312.0 1.210e+04 1.025e-09
 22.89352   -314.8 1.148e+04 7.545e-10
 22.90464   -317.2 1.101e+04 5.805e-10
 22.91464   -316.9 1.111e+04 6.218e-10
 22.93349   -318.9 1.080e+04 5.008e-10
 22.95348   -320.5 1.056e+04 4.144e-10
 22.97347   -321.9 1.033e+04 3.569e-10
 22.99059   -323.0 1.011e+04 3.270e-10
 23.00058   -322.8 1.018e+04 3.317e-10
 23.02354   -324.8 9.936e+03 3.004e-10
 23.06362   -325.7 9.653e+03 2.494e-10
 23.08673   -327.1 9.383e+03 2.057e-10
 23.10672   -325.9 9.426e+03 2.167e-10
 23.14357   -326.7 9.164e+03 1.831e-10
 23.18355   -327.5 9.049e+03 1.635e-10
 23.22352   -327.9 8.991e+03 1.540e-10
 23.25862   -328.1 8.951e+03 1.500e-10
 23.27861   -326.2 8.945e+03 1.498e-10
 23.30348   -326.1 8.939e+03 1.488e-10
 23.34345   -326.2 8.943e+03 1.489e-10
 23.36421   -326.9 9.023e+03 1.534e-10
 23.38420   -325.8 9.094e+03 1.693e-10
 23.42341   -327.4 9.563e+03 2.140e-10
 23.45051   -329.9 1.129e+04 4.219e-10
 23.47050   -327.4 1.102e+04 4.095e-10
 23.50336   -330.5 1.244e+04 7.622e-10
 23.54334   -335.4 1.334e+04 1.228e-09
 23.57322   -338.4 1.350e+04 1.562e-09
 23.59311   -340.4 1.357e+04 1.674e-09
 23.61310   -343.0 1.360e+04 1.804e-09
 23.63220   -345.1 1.372e+04 1.900e-09
 23.64220   -344.7 1.346e+04 1.757e-09
 23.65308   -346.6 1.356e+04 1.824e-09
 23.67307   -348.4 1.371e+04 1.897e-09
 23.69306   -350.0 1.377e+04 1.916e-09
 23.71304   -351.5 1.378e+04 1.859e-09
 23.72815   -353.1 1.385e+04 1.875e-09
 23.73814   -352.4 1.355e+04 1.675e-09
 23.75302   -353.2 1.337e+04 1.488e-09
 23.78310   -354.4 1.289e+04 1.181e-09
 23.81429   -354.3 1.236e+04 9.228e-10
 23.83418   -353.7 1.227e+04 9.217e-10
 23.85296   -353.6 1.176e+04 7.726e-10
 23.87295   -353.5 1.148e+04 6.849e-10
 23.89294   -353.1 1.094e+04 5.548e-10
 23.91004   -352.2 1.076e+04 5.019e-10
 23.92003   -351.5 1.074e+04 5.098e-10
 23.93292   -350.5 1.070e+04 4.725e-10
 23.95291   -349.6 1.069e+04 4.399e-10
 23.98299   -349.2 1.065e+04 4.112e-10
 24.00617   -347.1 1.044e+04 3.746e-10
 24.02616   -345.5 1.041e+04 3.674e-10
 24.06304   -344.2 1.018e+04 3.312e-10
 24.10301   -342.7 1.000e+04 3.031e-10
 24.14299   -341.1 9.922e+03 2.865e-10
 24.17807   -339.5 9.906e+03 2.823e-10
 24.19806   -338.7 9.952e+03 2.832e-10
 24.22295   -337.3 9.952e+03 2.825e-10
 24.26292   -336.0 1.010e+04 3.019e-10
 24.30290   -334.9 1.045e+04 3.699e-10
 24.34288   -334.0 1.082e+04 4.660e-10
 24.36995   -333.2 1.109e+04 5.604e-10
 24.38994   -332.7 1.107e+04 5.434e-10
 24.42283   -332.1 1.117e+04 5.738e-10
 24.46281   -331.4 1.119e+04 5.695e-10
 24.49269   -330.3 1.098e+04 5.140e-10
 24.51258   -330.0 1.071e+04 4.536e-10
 24.53257   -329.1 1.046e+04 3.893e-10
 24.55165   -328.2 1.041e+04 3.753e-10
 24.56174   -328.7 1.032e+04 3.363e-10
 24.58274   -326.7 9.993e+03 2.879e-10
 24.62271   -324.9 9.738e+03 2.488e-10
 24.66269   -323.2 9.556e+03 2.213e-10
 24.70267   -321.3 9.443e+03 2.056e-10
 24.73373   -319.4 9.377e+03 1.963e-10
 24.75372   -318.6 9.199e+03 1.620e-10
 24.78262   -316.6 9.206e+03 1.640e-10
 24.82260   -314.8 9.273e+03 1.735e-10
 24.86258   -313.2 9.355e+03 1.880e-10
 24.90255   -311.8 9.417e+03 2.013e-10
 24.92562   -310.5 9.495e+03 2.120e-10
 24.94561   -310.0 9.591e+03 2.213e-10
 24.98251   -308.9 9.615e+03 2.254e-10
 25.02248   -307.8 9.612e+03 2.245e-10
 25.06246   -306.7 9.609e+03 2.207e-10
 25.09751   -305.6 9.645e+03 2.216e-10
 25.11750   -304.9 9.601e+03 2.160e-10
 25.14241   -303.7 9.650e+03 2.183e-10
 25.18239   -302.5 9.846e+03 2.412e-10
 25.22237   -301.3 1.009e+04 2.897e-10
 25.26235   -300.0 1.033e+04 3.478e-10
 25.28940   -298.9 1.050e+04 3.956e-10
 25.30939   -298.1 1.054e+04 3.989e-10
 25.34230   -297.1 1.066e+04 4.302e-10
 25.38228   -296.0 1.069e+04 4.365e-10
 25.42225   -294.9 1.066e+04 4.242e-10
 25.46130   -293.6 1.052e+04 3.695e-10
 25.48128   -293.1 1.061e+04 3.840e-10
 25.50221   -291.7 1.045e+04 3.243e-10
 25.54218   -290.2 1.030e+04 2.760e-10
 25.58216   -288.8 1.022e+04 2.473e-10
 25.62214   -287.5 1.021e+04 2.388e-10
 25.65318   -286.4 1.022e+04 2.389e-10
 25.67317   -286.4 1.049e+04 2.894e-10
 25.70209   -285.9 1.085e+04 3.668e-10
 25.74207   -285.6 1.122e+04 4.823e-10
 25.78205   -285.3 1.151e+04 6.001e-10
 25.82202   -285.2 1.168e+04 6.804e-10
 25.84506   -285.2 1.173e+04 7.057e-10
 25.86505   -285.7 1.173e+04 7.122e-10
 25.90198   -285.6 1.169e+04 7.045e-10
 25.94195   -285.2 1.157e+04 6.522e-10
 25.98193   -284.7 1.139e+04 5.560e-10
 26.01696   -283.9 1.117e+04 4.432e-10
 26.03695   -283.6 1.107e+04 3.892e-10
 26.06188   -282.6 1.089e+04 3.091e-10
 26.10186   -281.5 1.076e+04 2.457e-10
 26.14184   -280.2 1.070e+04 2.077e-10
 26.18181   -278.9 1.071e+04 1.966e-10
 26.20885   -277.9 1.072e+04 1.957e-10
 26.22883   -277.4 1.074e+04 1.930e-10
 26.26177   -277.0 1.087e+04 2.027e-10
 26.30175   -276.9 1.131e+04 2.838e-10
 26.34172   -276.9 1.181e+04 4.473e-10
 26.38074   -277.4 1.227e+04 6.542e-10
 26.40073   -277.3 1.260e+04 6.741e-10
 26.42168   -278.8 1.294e+04 9.009e-10
 26.46165   -280.6 1.297e+04 9.945e-10
 26.50163   -282.0 1.277e+04 9.976e-10
 26.54161   -282.4 1.214e+04 8.181e-10
 26.57263   -282.6 1.159e+04 6.032e-10
 26.59261   -283.0 1.172e+04 6.251e-10
 26.62156   -282.7 1.159e+04 5.321e-10
 26.66154   -282.0 1.158e+04 5.208e-10
 26.70151   -281.1 1.167e+04 5.320e-10
 26.74149   -280.2 1.182e+04 5.877e-10
 26.76451   -279.1 1.196e+04 6.714e-10
 26.78450   -279.0 1.195e+04 6.623e-10
 26.82144   -277.4 1.205e+04 7.377e-10
 26.86142   -275.5 1.225e+04 8.488e-10
 26.89131   -273.4 1.237e+04 9.019e-10
 26.91120   -272.7 1.247e+04 9.875e-10
 26.93119   -271.7 1.257e+04 1.096e-09
 26.94621   -271.4 1.254e+04 1.147e-09
 26.95630   -270.8 1.240e+04 9.259e-10
 26.97126   -270.0 1.258e+04 1.145e-09
 26.99115   -269.4 1.254e+04 1.178e-09
 27.01114   -268.7 1.244e+04 1.185e-09
 27.03113   -267.8 1.240e+04 1.164e-09
 27.04215   -267.0 1.234e+04 1.156e-09
 27.05214   -266.5 1.239e+04 1.178e-09
 27.07111   -265.6 1.239e+04 1.179e-09
 27.09109   -264.9 1.242e+04 1.205e-09
 27.11108   -264.1 1.248e+04 1.234e-09
 27.12810   -263.4 1.257e+04 1.265e-09
 27.13809   -263.0 1.276e+04 1.381e-09
 27.15106   -262.3 1.293e+04 1.483e-09
 27.17105   -261.7 1.311e+04 1.596e-09
 27.19104   -261.0 1.326e+04 1.707e-09
 27.21102   -260.4 1.336e+04 1.800e-09
 27.22404   -259.9 1.341e+04 1.860e-09
 27.23403   -259.5 1.368e+04 2.126e-09
 27.25100   -259.0 1.368e+04 2.166e-09
 27.27099   -258.4 1.367e+04 2.173e-09
 27.29098   -257.9 1.355e+04 2.116e-09
 27.30997   -257.4 1.336e+04 1.957e-09
 27.31997   -257.2 1.331e+04 1.792e-09
 27.33096   -256.7 1.310e+04 1.615e-09
 27.35094   -256.1 1.288e+04 1.433e-09
 27.37093   -255.5 1.266e+04 1.276e-09
 27.39092   -254.8 1.248e+04 1.155e-09
 27.40593   -254.0 1.232e+04 1.072e-09
 27.41592   -253.6 1.243e+04 1.091e-09
 27.43090   -252.8 1.231e+04 1.046e-09
 27.45089   -251.6 1.218e+04 1.001e-09
 27.47087   -250.8 1.214e+04 9.782e-10
 27.49086   -249.7 1.206e+04 9.471e-10
 27.50187   -248.8 1.204e+04 9.284e-10
 27.51196   -249.1 1.203e+04 9.713e-10
 27.54103   -247.0 1.194e+04 9.306e-10
 27.58101   -244.9 1.187e+04 8.963e-10
 27.62098   -242.8 1.182e+04 8.841e-10
 27.66096   -240.6 1.178e+04 8.828e-10
 27.68396   -238.2 1.178e+04 9.090e-10
 27.70394   -237.3 1.184e+04 8.827e-10
 27.74091   -235.2 1.176e+04 8.485e-10
 27.78089   -233.0 1.176e+04 8.135e-10
 27.82087   -231.2 1.175e+04 7.678e-10
 27.85585   -229.3 1.165e+04 7.100e-10
 27.87584   -228.3 1.123e+04 5.472e-10
 27.90082   -226.0 1.115e+04 5.022e-10
 27.94080   -223.4 1.114e+04 4.879e-10
 27.98078   -220.8 1.115e+04 4.856e-10
 28.02075   -218.3 1.131e+04 5.232e-10
 28.04774   -216.0 1.177e+04 7.000e-10
 28.06772   -215.0 1.105e+04 4.168e-10
 28.10071   -212.5 1.161e+04 6.172e-10
 28.14068   -209.9 1.232e+04 9.456e-10
 28.18066   -207.5 1.323e+04 1.493e-09
 28.21055   -205.4 1.367e+04 1.790e-09
 28.22943   -204.6 1.430e+04 2.525e-09
 28.23943   -204.2 1.357e+04 1.670e-09
 28.25042   -203.0 1.418e+04 2.297e-09
 28.27041   -202.1 1.482e+04 3.198e-09
 28.29040   -201.1 1.544e+04 4.392e-09
 28.31039   -200.2 1.616e+04 5.927e-09
 28.32537   -199.4 1.711e+04 8.040e-09
 28.33537   -199.1 1.571e+04 4.859e-09
 28.35037   -198.4 1.694e+04 7.108e-09
 28.37036   -197.9 1.855e+04 1.066e-08
 28.39034   -197.5 2.030e+04 1.629e-08
 28.40529   -197.3 2.134e+04 2.085e-08
 28.41523   -197.2 2.217e+04 2.714e-08
 28.42122   -197.2 2.301e+04 3.808e-08
 28.42622   -197.0 2.246e+04 2.810e-08
 28.43522   -197.4 2.316e+04 3.806e-08
 28.44521   -198.3 2.343e+04 4.988e-08
 28.45521   -199.1 2.324e+04 5.978e-08
 28.46419   -199.6 2.302e+04 6.422e-08
 28.46919   -199.0 2.274e+04 3.998e-08
 28.47520   -199.6 2.276e+04 4.040e-08
 28.48519   -200.4 2.307e+04 3.769e-08
 28.49519   -201.4 2.311e+04 3.074e-08
 28.50518   -202.6 2.286e+04 2.362e-08
 28.51216   -204.1 2.238e+04 1.786e-08
 28.51716   -203.7 2.259e+04 1.054e-08
 28.52517   -205.2 2.183e+04 9.987e-09
 28.53516   -206.5 2.112e+04 9.670e-09
 28.55020   -207.6 2.040e+04 1.011e-08
 28.57024   -208.4 1.929e+04 9.695e-09
 28.59023   -208.6 1.862e+04 8.271e-09
 28.60321   -208.7 1.791e+04 6.133e-09
 28.61320   -208.4 1.684e+04 4.798e-09
 28.63021   -208.7 1.633e+04 3.840e-09
 28.65019   -209.3 1.570e+04 3.030e-09
 28.67018   -210.3 1.511e+04 2.086e-09
 28.68915   -211.7 1.400e+04 1.361e-09
 28.69915   -209.7 1.666e+04 3.181e-09
 28.71016   -210.9 1.682e+04 2.343e-09
 28.73015   -212.4 1.662e+04 1.651e-09
 28.75014   -213.8 1.564e+04 1.270e-09
 28.77012   -214.7 1.440e+04 1.091e-09
 28.78510   -214.8 1.313e+04 9.656e-10
 28.79509   -214.3 1.699e+04 3.110e-09
 28.81010   -214.5 1.574e+04 2.205e-09
 28.83009   -214.4 1.428e+04 1.630e-09
 28.85008   -214.2 1.303e+04 1.305e-09
 28.87007   -213.9 1.222e+04 1.156e-09
 28.88104   -213.4 1.188e+04 1.092e-09
 28.89103   -213.2 1.308e+04 1.448e-09
 28.91004   -212.8 1.228e+04 1.191e-09
 28.94012   -211.9 1.178e+04 1.036e-09
 28.96718   -209.6 1.118e+04 8.165e-10
 28.97708   -210.2 1.230e+04 1.294e-09
 28.99000   -209.2 1.214e+04 1.223e-09
 29.00999   -208.2 1.208e+04 1.182e-09
 29.02997   -207.4 1.190e+04 1.097e-09
 29.04996   -205.7 1.149e+04 9.260e-10
 29.06293   -205.1 1.137e+04 8.686e-10
 29.07292   -205.1 1.144e+04 9.003e-10
 29.08994   -203.5 1.112e+04 7.726e-10
 29.10993   -202.9 1.103e+04 7.323e-10
 29.12992   -201.5 1.087e+04 6.701e-10
 29.14888   -200.8 1.083e+04 6.542e-10
 29.15887   -200.6 1.115e+04 7.718e-10
 29.16989   -199.8 1.107e+04 7.295e-10
 29.18988   -198.9 1.102e+04 6.995e-10
 29.20987   -198.2 1.101e+04 6.817e-10
 29.22986   -197.6 1.101e+04 6.635e-10
 29.25994   -196.9 1.100e+04 6.474e-10
 29.30001   -195.1 1.112e+04 6.774e-10
 29.33096   -194.5 1.133e+04 7.276e-10
 29.35095   -193.8 1.093e+04 5.714e-10
 29.37997   -193.2 1.112e+04 6.193e-10
 29.41994   -192.9 1.128e+04 6.906e-10
 29.45992   -192.5 1.135e+04 7.430e-10
 29.49990   -192.0 1.133e+04 7.538e-10
 29.52285   -191.1 1.129e+04 7.430e-10
 29.54284   -189.7 1.130e+04 7.629e-10
 29.57985   -188.6 1.120e+04 7.345e-10
 29.60870   -187.5 1.118e+04 7.191e-10
 29.61859   -187.0 1.120e+04 7.401e-10
 29.62963   -186.7 1.108e+04 7.064e-10
 29.64962   -186.2 1.087e+04 6.529e-10
 29.66960   -185.7 1.074e+04 6.309e-10
 29.68959   -184.8 1.071e+04 6.266e-10
 29.70454   -183.9 1.073e+04 6.341e-10
 29.71454   -183.3 1.069e+04 6.224e-10
 29.72957   -182.4 1.077e+04 6.417e-10
 29.74956   -181.6 1.094e+04 6.781e-10
 29.76955   -180.8 1.110e+04 7.222e-10
 29.78954   -180.1 1.122e+04 7.657e-10
 29.81962   -179.5 1.136e+04 8.217e-10
 29.85969   -177.9 1.166e+04 9.763e-10
 29.88663   -176.8 1.218e+04 1.263e-09
 29.90662   -175.4 1.210e+04 1.112e-09
 29.92955   -174.5 1.269e+04 1.536e-09
 29.94944   -174.6 1.314e+04 1.892e-09
 29.96943   -174.6 1.370e+04 2.588e-09
 29.98237   -174.5 1.403e+04 3.210e-09
 29.99237   -174.1 1.418e+04 3.379e-09
 30.00941   -173.7 1.440e+04 3.929e-09
 30.02940   -173.4 1.444e+04 4.086e-09
 30.04939   -173.0 1.436e+04 4.064e-09
 30.06832   -172.5 1.405e+04 3.488e-09
 30.07832   -171.9 1.442e+04 4.181e-09
 30.08936   -171.5 1.398e+04 3.402e-09
 30.10935   -171.3 1.360e+04 2.503e-09
 30.12934   -171.2 1.306e+04 1.880e-09
 30.14933   -171.5 1.259e+04 1.398e-09
 30.16427   -171.8 1.207e+04 1.088e-09
 30.17426   -171.4 1.226e+04 1.188e-09
 30.18930   -171.6 1.177e+04 9.697e-10
 30.21939   -171.4 1.160e+04 8.916e-10
 30.25041   -169.8 1.140e+04 7.974e-10
 30.27040   -169.2 1.168e+04 9.532e-10
 30.29944   -168.4 1.168e+04 9.400e-10
 30.33941   -168.5 1.189e+04 9.883e-10
 30.36930   -168.9 1.257e+04 1.386e-09
 30.38919   -169.3 1.342e+04 2.023e-09
 30.40918   -169.8 1.466e+04 3.398e-09
 30.42917   -170.3 1.594e+04 5.425e-09
 30.44210   -171.1 1.682e+04 7.580e-09
 30.45209   -170.7 1.728e+04 8.551e-09
 30.46914   -172.1 1.750e+04 9.371e-09
 30.48913   -173.7 1.745e+04 9.379e-09
 30.50912   -175.0 1.688e+04 7.482e-09
 30.52805   -176.5 1.594e+04 4.657e-09
 30.53804   -176.7 1.589e+04 4.550e-09
 30.54910   -178.9 1.480e+04 2.679e-09
 30.56909   -181.1 1.370e+04 1.639e-09
 30.58907   -182.6 1.275e+04 1.109e-09
 30.60906   -183.1 1.216e+04 8.276e-10
 30.62399   -183.3 1.184e+04 6.601e-10
 30.63398   -183.3 1.187e+04 6.441e-10
 30.64904   -183.4 1.162e+04 5.314e-10
 30.66903   -183.2 1.148e+04 4.549e-10
 30.68902   -182.5 1.144e+04 4.061e-10
 30.70900   -181.7 1.149e+04 3.817e-10
 30.71993   -180.9 1.151e+04 3.762e-10
 30.72992   -181.1 1.158e+04 4.027e-10
 30.74898   -180.2 1.159e+04 4.036e-10
 30.76897   -179.2 1.166e+04 4.137e-10
 30.78896   -178.2 1.174e+04 4.303e-10
 30.80588   -177.1 1.184e+04 4.479e-10
 30.81587   -177.1 1.198e+04 4.717e-10
 30.82894   -176.2 1.209e+04 4.901e-10
 30.85902   -174.9 1.219e+04 5.222e-10
 30.89909   -172.9 1.219e+04 5.628e-10
 30.93907   -171.0 1.213e+04 5.859e-10
 30.97797   -169.4 1.210e+04 5.896e-10
 30.99796   -169.5 1.206e+04 5.966e-10
 31.01902   -167.9 1.181e+04 5.625e-10
 31.05900   -166.1 1.162e+04 4.734e-10
 31.09897   -164.0 1.134e+04 3.718e-10
 31.13895   -161.8 1.101e+04 2.770e-10
 31.16985   -159.6 1.067e+04 2.204e-10
 31.18984   -159.2 1.053e+04 1.867e-10
 31.21891   -156.9 1.044e+04 1.749e-10
 31.25613   -154.6 1.043e+04 1.728e-10
 31.27612   -155.5 1.041e+04 1.742e-10
 31.29886   -153.2 1.041e+04 1.777e-10
 31.33884   -151.2 1.048e+04 2.123e-10
 31.36174   -149.3 1.060e+04 2.798e-10
 31.38173   -148.5 1.052e+04 2.346e-10
 31.41879   -146.6 1.074e+04 3.325e-10
 31.45877   -144.8 1.099e+04 4.431e-10
 31.49874   -143.1 1.117e+04 5.187e-10
 31.53363   -141.7 1.123e+04 5.363e-10
 31.55362   -140.7 1.137e+04 6.488e-10
 31.57870   -139.4 1.139e+04 6.465e-10
 31.61867   -138.0 1.128e+04 5.460e-10
 31.65865   -136.6 1.117e+04 4.097e-10
 31.69863   -135.7 1.096e+04 2.887e-10
 31.72552   -135.4 1.052e+04 2.211e-10
 31.74551   -135.3 1.178e+04 5.485e-10
 31.77858   -137.0 1.173e+04 5.123e-10
 31.80847   -138.6 1.198e+04 6.563e-10
 31.82127   -139.0 1.204e+04 8.431e-10
 31.83126   -139.3 1.305e+04 1.299e-09
 31.84835   -139.7 1.325e+04 1.782e-09
 31.86834   -139.4 1.345e+04 2.146e-09
 31.88832   -138.8 1.394e+04 2.507e-09
 31.90721   -138.4 1.493e+04 2.866e-09
 31.91721   -139.6 1.636e+04 3.136e-09
 31.92830   -140.1 1.791e+04 3.539e-09
 31.94829   -141.2 1.962e+04 4.435e-09
 31.96828   -142.7 2.106e+04 6.241e-09
 31.98827   -144.2 2.189e+04 9.476e-09
 32.00316   -145.4 2.228e+04 1.402e-08
 32.01315   -146.3 2.140e+04 1.399e-08
 32.02824   -146.7 2.149e+04 1.722e-08
 32.04823   -147.2 2.146e+04 1.863e-08
 32.06822   -147.8 2.141e+04 1.829e-08
 32.08821   -148.0 2.083e+04 1.643e-08
 32.09910   -148.0 2.010e+04 1.405e-08
 32.10909   -148.3 1.965e+04 1.560e-08
 32.12819   -148.3 1.855e+04 1.100e-08
 32.14817   -148.1 1.777e+04 7.939e-09
 32.16816   -147.6 1.742e+04 6.065e-09
 32.18310   -148.2 1.594e+04 3.844e-09
 32.18995   -148.2 1.571e+04 3.641e-09
 32.19494   -148.1 1.482e+04 2.860e-09
 32.20304   -148.8 1.467e+04 2.819e-09
 32.21304   -149.1 1.465e+04 2.842e-09
 32.22303   -150.1 1.461e+04 3.059e-09
 32.23292   -150.5 1.467e+04 3.190e-09
 32.23792   -150.6 1.464e+04 3.191e-09
 32.24302   -151.4 1.493e+04 3.769e-09
 32.25302   -151.7 1.513e+04 4.022e-09
 32.25982   -152.4 1.564e+04 4.938e-09
 32.26481   -153.4 1.637e+04 6.089e-09
 32.27300   -153.9 1.688e+04 7.645e-09
 32.28089   -154.2 1.732e+04 9.615e-09
 32.28589   -154.1 1.727e+04 9.583e-09
 32.29299   -154.0 1.761e+04 1.136e-08
 32.30299   -153.7 1.791e+04 1.284e-08
 32.31298   -153.3 1.821e+04 1.356e-08
 32.32297   -153.2 1.842e+04 1.352e-08
 32.32886   -153.1 1.825e+04 1.278e-08
 32.33386   -153.1 1.811e+04 1.162e-08
 32.34296   -153.1 1.794e+04 1.035e-08
 32.35296   -153.3 1.761e+04 8.912e-09
 32.36295   -153.6 1.713e+04 7.607e-09
 32.37184   -153.7 1.664e+04 6.599e-09
 32.37683   -153.9 1.640e+04 5.983e-09
 32.38799   -153.1 1.630e+04 5.660e-09
 32.40802   -152.0 1.610e+04 4.864e-09
 32.42801   -151.4 1.578e+04 3.976e-09
 32.44800   -151.2 1.553e+04 3.480e-09
 32.46288   -150.8 1.551e+04 3.198e-09
 32.47287   -150.7 1.528e+04 2.793e-09
 32.48798   -150.4 1.534e+04 2.704e-09
 32.50797   -150.5 1.566e+04 2.788e-09
 32.52795   -151.5 1.627e+04 3.308e-09
 32.54794   -152.8 1.684e+04 4.272e-09
 32.55882   -154.0 1.726e+04 5.558e-09
 32.56882   -153.9 1.701e+04 5.164e-09
 32.58792   -155.3 1.738e+04 6.314e-09
 32.60791   -157.2 1.767e+04 6.738e-09
 32.62790   -160.8 1.806e+04 6.112e-09
 32.64477   -167.2 1.817e+04 4.223e-09
 32.65476   -168.9 1.751e+04 3.873e-09
 32.66787   -178.0 1.594e+04 2.673e-09
 32.68786   -187.1 1.442e+04 2.419e-09
 32.70785   -193.7 1.417e+04 2.380e-09
 32.72784   -199.3 1.397e+04 2.385e-09
 32.74071   -203.1 1.367e+04 2.164e-09
 32.75071   -203.7 1.361e+04 2.057e-09
 32.76782   -206.7 1.317e+04 1.709e-09
 32.78780   -209.2 1.270e+04 1.441e-09
 32.80779   -211.1 1.236e+04 1.270e-09
 32.82666   -212.1 1.219e+04 1.195e-09
 32.83665   -212.8 1.230e+04 1.260e-09
 32.84777   -213.1 1.217e+04 1.224e-09
 32.86776   -213.1 1.201e+04 1.170e-09
 32.88775   -212.8 1.181e+04 1.088e-09
 32.90773   -212.2 1.163e+04 9.971e-10
 32.92260   -211.6 1.148e+04 9.213e-10
 32.93260   -211.8 1.162e+04 9.828e-10
 32.94771   -211.1 1.153e+04 9.281e-10
 32.96770   -210.3 1.146e+04 8.855e-10
 32.98769   -209.5 1.139e+04 8.502e-10
 33.00768   -208.6 1.132e+04 8.161e-10
 33.01854   -207.7 1.123e+04 7.816e-10
 33.02854   -208.0 1.140e+04 8.299e-10
 33.04765   -207.0 1.132e+04 8.041e-10
 33.06764   -206.0 1.122e+04 7.747e-10
 33.08763   -204.8 1.109e+04 7.405e-10
 33.10449   -203.7 1.095e+04 6.957e-10
 33.11449   -203.8 1.112e+04 7.407e-10
 33.12761   -202.6 1.097e+04 6.922e-10
 33.14760   -201.3 1.083e+04 6.361e-10
 33.16758   -200.1 1.069e+04 5.792e-10
 33.18757   -198.8 1.055e+04 5.252e-10
 33.20043   -197.4 1.044e+04 4.771e-10
 33.21043   -197.8 1.061e+04 5.350e-10
 33.22755   -196.5 1.053e+04 5.001e-10
 33.24390   -195.3 1.048e+04 4.723e-10
 33.25390   -195.0 1.058e+04 5.170e-10
 33.26753   -193.8 1.053e+04 4.934e-10
 33.28638   -192.5 1.051e+04 4.753e-10
 33.29638   -192.7 1.066e+04 5.519e-10
 33.30750   -191.4 1.072e+04 5.544e-10
 33.32749   -190.1 1.086e+04 5.547e-10
 33.34748   -189.0 1.090e+04 5.328e-10
 33.37243   -188.1 1.090e+04 5.132e-10
 33.39251   -188.7 1.140e+04 7.522e-10
 33.41764   -186.3 1.136e+04 7.735e-10
 33.45761   -184.1 1.139e+04 8.293e-10
 33.49759   -182.1 1.154e+04 9.307e-10
 33.53757   -180.5 1.172e+04 1.071e-09
 33.56441   -178.8 1.177e+04 1.130e-09
 33.58440   -178.6 1.187e+04 1.163e-09
 33.61752   -177.0 1.170e+04 1.099e-09
 33.64741   -175.1 1.170e+04 1.126e-09
 33.66016   -174.3 1.140e+04 9.734e-10
 33.67015   -174.3 1.138e+04 9.739e-10
 33.68728   -173.2 1.107e+04 8.176e-10
 33.70727   -172.1 1.072e+04 6.688e-10
 33.72726   -170.8 1.047e+04 5.571e-10
 33.74611   -169.4 1.036e+04 4.889e-10
 33.75610   -169.6 1.031e+04 4.536e-10
 33.77733   -168.6 1.015e+04 3.906e-10
 33.81740   -165.8 1.005e+04 3.667e-10
 33.85738   -163.8 1.000e+04 3.588e-10
 33.88727   -162.8 1.016e+04 4.034e-10
 33.90716   -162.5 1.027e+04 4.542e-10
 33.92715   -162.0 1.042e+04 5.318e-10
 33.93799   -161.5 1.054e+04 6.069e-10
 33.94798   -161.8 1.057e+04 6.027e-10
 33.96712   -161.2 1.070e+04 6.916e-10
 33.98711   -160.6 1.076e+04 7.496e-10
 34.00710   -160.0 1.078e+04 7.775e-10
 34.02394   -159.3 1.078e+04 7.820e-10
 34.03393   -159.5 1.080e+04 7.924e-10
 34.04708   -158.7 1.074e+04 7.839e-10
 34.06707   -157.8 1.058e+04 7.355e-10
 34.08705   -156.8 1.040e+04 6.657e-10
 34.10704   -155.8 1.023e+04 5.879e-10
 34.11988   -154.8 1.009e+04 5.158e-10
 34.12987   -155.0 1.012e+04 5.254e-10
 34.14702   -154.0 1.002e+04 4.772e-10
 34.16701   -153.0 9.985e+03 4.471e-10
 34.18700   -152.1 9.950e+03 4.336e-10
 34.20583   -151.1 9.935e+03 4.271e-10
 34.21582   -151.4 1.004e+04 4.388e-10
 34.22697   -150.7 1.007e+04 4.404e-10
 34.24696   -149.9 1.012e+04 4.545e-10
 34.26695   -149.2 1.013e+04 4.820e-10
 34.28694   -148.4 1.015e+04 5.290e-10
 34.30177   -147.7 1.023e+04 5.977e-10
 34.31176   -148.0 1.064e+04 7.046e-10
 34.32692   -147.4 1.105e+04 8.686e-10
 34.34690   -147.1 1.180e+04 1.174e-09
 34.36689   -146.6 1.267e+04 1.704e-09
 34.38688   -145.6 1.344e+04 2.466e-09
 34.39771   -144.8 1.412e+04 3.258e-09
 34.40266   -145.6 1.459e+04 3.793e-09
 34.41177   -145.7 1.500e+04 4.331e-09
 34.42176   -146.0 1.596e+04 5.681e-09
 34.43176   -146.7 1.723e+04 7.915e-09
 34.44059   -147.3 1.868e+04 1.161e-08
 34.44559   -148.1 1.956e+04 1.427e-08
 34.45175   -148.7 2.109e+04 2.091e-08
 34.46174   -149.6 2.251e+04 3.049e-08
 34.47173   -150.8 2.360e+04 4.299e-08
 34.48173   -152.2 2.435e+04 5.674e-08
 34.48856   -153.7 2.483e+04 6.808e-08
 34.49356   -155.2 2.489e+04 6.479e-08
 34.50172   -156.8 2.500e+04 6.551e-08
 34.51171   -158.4 2.491e+04 6.029e-08
 34.52171   -160.2 2.474e+04 5.150e-08
 34.53153   -161.9 2.430e+04 4.033e-08
 34.53653   -163.2 2.371e+04 3.351e-08
 34.54169   -164.8 2.277e+04 2.531e-08
 34.55169   -166.2 2.166e+04 1.947e-08
 34.56168   -167.1 2.070e+04 1.587e-08
 34.57168   -167.4 2.024e+04 1.386e-08
 34.57955   -167.0 2.038e+04 1.347e-08
 34.58960   -167.5 1.990e+04 1.196e-08
 34.60675   -168.1 1.868e+04 8.539e-09
 34.62674   -168.8 1.674e+04 5.754e-09
 34.64673   -168.8 1.512e+04 3.921e-09
 34.66555   -168.1 1.430e+04 2.688e-09
 34.67555   -168.2 1.407e+04 2.331e-09
 34.68671   -167.6 1.307e+04 1.588e-09
 34.70670   -167.2 1.202e+04 1.134e-09
 34.72668   -166.8 1.115e+04 8.878e-10
 34.74667   -166.0 1.074e+04 7.894e-10
 34.76149   -164.5 1.077e+04 7.844e-10
 34.77149   -164.6 1.099e+04 8.993e-10
 34.78665   -163.1 1.111e+04 9.181e-10
 34.80664   -161.5 1.116e+04 9.204e-10
 34.82663   -159.8 1.121e+04 9.064e-10
 34.84662   -158.2 1.122e+04 8.760e-10
 34.85744   -156.7 1.118e+04 8.349e-10
 34.86743   -156.7 1.149e+04 1.001e-09
 34.88659   -155.1 1.145e+04 9.562e-10
 34.90658   -153.5 1.140e+04 9.036e-10
 34.92657   -152.0 1.134e+04 8.418e-10
 34.94338   -150.6 1.123e+04 7.705e-10
 34.95338   -150.5 1.161e+04 9.671e-10
 34.96655   -148.9 1.150e+04 8.745e-10
 34.98653   -147.3 1.138e+04 7.836e-10
 35.00652   -145.9 1.123e+04 6.997e-10
 35.02651   -144.6 1.103e+04 6.260e-10
 35.03933   -143.3 1.083e+04 5.687e-10
 35.04932   -142.9 1.138e+04 6.559e-10
 35.06649   -141.5 1.117e+04 5.872e-10
 35.08648   -140.3 1.097e+04 5.384e-10
 35.10647   -139.0 1.082e+04 5.043e-10
 35.12527   -137.7 1.075e+04 4.760e-10
 35.13527   -137.4 1.139e+04 5.014e-10
 35.14644   -136.0 1.110e+04 4.658e-10
 35.16643   -134.6 1.091e+04 4.381e-10
 35.18642   -133.3 1.084e+04 4.098e-10
 35.20641   -131.8 1.080e+04 3.862e-10
 35.22122   -130.3 1.082e+04 3.684e-10
 35.22670   -130.2 1.128e+04 3.775e-10
 35.23188   -130.6 1.188e+04 4.296e-10
 35.24638   -129.2 1.162e+04 4.054e-10
 35.26637   -127.9 1.143e+04 3.939e-10
 35.28636   -126.5 1.137e+04 3.894e-10
 35.30635   -125.2 1.136e+04 3.982e-10
 35.31716   -124.0 1.140e+04 4.279e-10
 35.32715   -123.7 1.256e+04 5.012e-10
 35.34633   -122.5 1.245e+04 5.295e-10
 35.36632   -121.2 1.235e+04 5.675e-10
 35.38630   -119.9 1.238e+04 6.023e-10
 35.40311   -118.7 1.244e+04 6.180e-10
 35.41310   -118.3 1.357e+04 1.032e-09
 35.42628   -117.0 1.363e+04 1.018e-09
 35.44627   -115.8 1.362e+04 9.419e-10
 35.46626   -114.7 1.355e+04 8.615e-10
 35.48625   -113.6 1.341e+04 7.893e-10
 35.49905   -112.4 1.331e+04 6.946e-10
 35.50904   -111.9 1.449e+04 1.869e-09
 35.52622   -110.7 1.462e+04 1.742e-09
 35.54621   -109.6 1.490e+04 1.550e-09
 35.56620   -109.0 1.498e+04 1.173e-09
 35.58500   -109.6 1.526e+04 7.432e-10
 35.59499   -112.5 2.110e+04 6.446e-09
 35.60618   -117.3 2.348e+04 8.757e-09
 35.62617   -120.1 2.333e+04 1.308e-08
 35.63792   -119.0 2.224e+04 7.178e-09
 35.64286   -119.8 2.245e+04 2.445e-08
 35.65105   -119.8 2.197e+04 2.517e-08
 35.66609   -120.2 2.071e+04 1.747e-08
 35.68094   -119.7 1.958e+04 1.540e-08
 35.68589   -119.0 2.111e+04 2.620e-08
 35.69103   -119.3 2.050e+04 2.077e-08
 35.70607   -119.6 2.004e+04 1.620e-08
 35.72611   -118.2 1.851e+04 9.911e-09
 35.74610   -117.3 1.713e+04 5.255e-09
 35.76608   -117.4 1.597e+04 2.827e-09
 35.77688   -117.8 1.485e+04 1.632e-09
 35.78688   -120.3 1.357e+04 9.760e-10
 35.80606   -120.3 1.251e+04 7.495e-10
 35.82605   -119.7 1.181e+04 6.767e-10
 35.85613   -118.3 1.169e+04 5.864e-10
 35.89620   -115.7 1.153e+04 5.186e-10
 35.93618   -113.7 1.146e+04 4.783e-10
 35.95897   -112.0 1.159e+04 4.916e-10
 35.96886   -112.0 1.152e+04 4.488e-10
 35.98596   -111.8 1.155e+04 4.579e-10
 36.00595   -110.8 1.172e+04 4.958e-10
 36.02593   -110.1 1.184e+04 5.332e-10
 36.04472   -109.3 1.193e+04 5.660e-10
 36.05471   -109.4 1.199e+04 5.967e-10
 36.06591   -109.1 1.202e+04 6.052e-10
 36.09599   -108.4 1.205e+04 6.204e-10
 36.13086   -106.8 1.193e+04 5.894e-10
 36.15085   -108.2 1.200e+04 5.045e-10
 36.17604   -106.4 1.163e+04 3.923e-10
 36.21602   -104.6 1.136e+04 2.942e-10
 36.25600   -102.9 1.113e+04 2.282e-10
 36.29597   -101.1 1.087e+04 1.879e-10
 36.32275    -99.1 1.066e+04 1.709e-10
 36.34274    -99.4 1.040e+04 1.191e-10
 36.37593    -97.1 1.023e+04 1.156e-10
 36.41590    -94.7 1.018e+04 1.152e-10
 36.45588    -92.2 1.014e+04 1.174e-10
 36.49464    -89.7 1.009e+04 1.252e-10
 36.51463    -89.7 9.984e+03 9.203e-11
 36.53584    -87.3 9.972e+03 9.736e-11
 36.57581    -84.9 9.958e+03 1.014e-10
 36.61579    -82.6 9.924e+03 1.047e-10
 36.65577    -80.2 9.878e+03 1.089e-10
 36.68653    -77.8 9.832e+03 1.160e-10
 36.70652    -77.5 9.767e+03 9.464e-11
 36.73572    -75.1 9.737e+03 1.046e-10
 36.77570    -72.5 9.714e+03 1.173e-10
 36.81567    -69.8 9.701e+03 1.306e-10
 36.85565    -67.1 9.689e+03 1.403e-10
 36.87841    -64.4 9.677e+03 1.436e-10
 36.89840    -64.0 9.645e+03 1.242e-10
 36.93560    -61.3 9.622e+03 1.245e-10
 36.97558    -58.5 9.616e+03 1.167e-10
 37.01556    -55.7 9.597e+03 1.094e-10
 37.05031    -52.9 9.560e+03 1.052e-10
 37.07030    -52.5 9.583e+03 1.059e-10
 37.09551    -49.8 9.590e+03 1.052e-10
 37.13549    -47.1 9.644e+03 1.107e-10
 37.17547    -44.5 9.629e+03 1.280e-10
 37.21544    -41.7 9.615e+03 1.554e-10
 37.24219    -38.7 9.650e+03 1.847e-10
 37.26218    -38.4 9.873e+03 2.387e-10
 37.29540    -35.5 9.974e+03 2.637e-10
 37.33537    -32.8 1.005e+04 2.786e-10
 37.37535    -30.4 1.015e+04 3.006e-10
 37.41409    -28.1 1.014e+04 3.691e-10
 37.43408    -28.0 1.046e+04 4.496e-10
 37.45530    -25.0 1.059e+04 5.709e-10
 37.49528    -22.2 1.068e+04 6.141e-10
 37.53526    -19.7 1.070e+04 5.625e-10
 37.57523    -17.7 1.075e+04 5.548e-10
 37.60597    -16.0 1.084e+04 6.329e-10
 37.62596    -16.1 1.115e+04 7.629e-10
 37.65519    -13.7 1.118e+04 9.277e-10
 37.69517    -11.6 1.120e+04 9.516e-10
 37.73514     -9.0 1.098e+04 8.431e-10
 37.77512     -6.4 1.060e+04 6.346e-10
 37.79786     -3.9 1.023e+04 4.450e-10
 37.81785     -4.0 1.034e+04 4.757e-10
 37.85507     -1.6 1.010e+04 3.458e-10
 37.89505      0.6 9.904e+03 2.743e-10
 37.93503      3.0 9.719e+03 2.590e-10
 37.96975      5.6 9.684e+03 2.612e-10
 37.98974      5.6 9.804e+03 2.990e-10
 38.01498      8.3 9.763e+03 2.981e-10
 38.05496     11.0 9.743e+03 2.896e-10
 38.09493     13.6 9.697e+03 2.827e-10
 38.13491     16.2 9.647e+03 2.666e-10
 38.16164     18.9 9.603e+03 2.471e-10
 38.18163     18.7 9.578e+03 2.167e-10
 38.21487     21.1 9.540e+03 2.084e-10
 38.25484     23.5 9.520e+03 2.085e-10
 38.29482     25.9 9.484e+03 2.124e-10
 38.33354     28.2 9.468e+03 2.168e-10
 38.35352     27.9 9.563e+03 2.287e-10
 38.37477     30.3 9.578e+03 2.394e-10
 38.41475     32.5 9.599e+03 2.466e-10
 38.45473     34.7 9.601e+03 2.535e-10
 38.49470     36.8 9.621e+03 2.580e-10
 38.52542     38.9 9.631e+03 2.547e-10
 38.54541     38.8 9.652e+03 2.310e-10
 38.57466     40.8 9.620e+03 2.176e-10
 38.61463     42.8 9.565e+03 2.007e-10
 38.65461     44.9 9.497e+03 1.819e-10
 38.69459     46.9 9.384e+03 1.686e-10
 38.71730     48.9 9.332e+03 1.664e-10
 38.73729     48.7 9.473e+03 1.771e-10
 38.77454     50.7 9.516e+03 1.955e-10
 38.81452     52.9 9.729e+03 2.459e-10
 38.85450     55.0 1.011e+04 3.321e-10
 38.88920     56.6 1.037e+04 4.142e-10
 38.90909     56.0 1.061e+04 5.739e-10
 38.92426     56.6 1.075e+04 7.189e-10
 38.94425     57.4 1.094e+04 8.816e-10
 38.96424     58.3 1.115e+04 1.027e-09
 38.98423     59.2 1.138e+04 1.127e-09
 38.99494     59.8 1.154e+04 1.181e-09
 39.00494     59.6 1.157e+04 1.183e-09
 39.02420     60.1 1.164e+04 1.158e-09
 39.04419     60.4 1.170e+04 1.078e-09
 39.06418     60.6 1.168e+04 9.603e-10
 39.08089     60.7 1.162e+04 8.267e-10
 39.09088     60.2 1.154e+04 7.050e-10
 39.10416     60.1 1.140e+04 6.125e-10
 39.12415     60.0 1.126e+04 5.489e-10
 39.14413     59.8 1.115e+04 5.199e-10
 39.16412     59.7 1.112e+04 5.176e-10
 39.17683     59.5 1.116e+04 5.332e-10
 39.18055     59.2 1.129e+04 5.781e-10
 39.18783     59.1 1.116e+04 4.944e-10
 39.20410     59.0 1.133e+04 5.628e-10
 39.22409     58.9 1.149e+04 6.569e-10
 39.24408     58.8 1.167e+04 7.721e-10
 39.26278     58.7 1.185e+04 8.969e-10
 39.27277     58.6 1.206e+04 1.034e-09
 39.28405     58.7 1.223e+04 1.150e-09
 39.30404     58.7 1.234e+04 1.174e-09
 39.32403     58.7 1.234e+04 1.166e-09
 39.34402     58.7 1.232e+04 1.138e-09
 39.35872     58.7 1.227e+04 1.104e-09
 39.36872     58.4 1.255e+04 1.206e-09
 39.38399     58.5 1.247e+04 1.145e-09
 39.40398     58.5 1.245e+04 1.144e-09
 39.42397     58.7 1.248e+04 1.181e-09
 39.44396     58.7 1.263e+04 1.297e-09
 39.45466     58.8 1.286e+04 1.503e-09
 39.46466     58.5 1.272e+04 1.370e-09
 39.48394     58.7 1.293e+04 1.569e-09
 39.50393     59.1 1.321e+04 1.827e-09
 39.52391     59.5 1.354e+04 2.116e-09
 39.54061     59.9 1.389e+04 2.427e-09
 39.55061     59.9 1.328e+04 1.645e-09
 39.56389     60.4 1.345e+04 1.687e-09
 39.58388     60.7 1.352e+04 1.636e-09
 39.60387     60.9 1.359e+04 1.558e-09
 39.62386     60.9 1.363e+04 1.498e-09
 39.63655     61.0 1.366e+04 1.500e-09
 39.64655     60.9 1.290e+04 9.139e-10
 39.66383     61.1 1.299e+04 9.290e-10
 39.68382     61.1 1.321e+04 1.000e-09
 39.70381     61.1 1.352e+04 1.169e-09
 39.72250     60.9 1.391e+04 1.455e-09
 39.73250     61.1 1.326e+04 9.441e-10
 39.74379     60.9 1.364e+04 1.191e-09
 39.76378     60.6 1.404e+04 1.540e-09
 39.78376     60.0 1.446e+04 1.995e-09
 39.80375     59.3 1.484e+04 2.555e-09
 39.81844     58.4 1.520e+04 3.259e-09
 39.82844     58.9 1.424e+04 2.022e-09
 39.84373     57.7 1.462e+04 2.583e-09
 39.86372     56.5 1.498e+04 3.260e-09
 39.88371     55.2 1.537e+04 4.114e-09
 39.90369     54.0 1.572e+04 4.949e-09
 39.91439     52.8 1.587e+04 5.262e-09
 39.92438     53.6 1.498e+04 3.703e-09
 39.94367     52.4 1.500e+04 3.694e-09
 39.96366     51.4 1.480e+04 3.324e-09
 39.98365     50.5 1.433e+04 2.720e-09
 40.00034     50.0 1.381e+04 2.102e-09
 40.02042     50.3 1.312e+04 1.374e-09
 40.05380     49.5 1.243e+04 9.280e-10
 40.09378     49.8 1.184e+04 6.767e-10
 40.13376     50.4 1.146e+04 5.945e-10
 40.17243     51.6 1.132e+04 5.932e-10
 40.19242     52.5 1.100e+04 4.434e-10
 40.21371     53.7 1.097e+04 4.644e-10
 40.25369     54.7 1.092e+04 4.771e-10
 40.29367     55.8 1.086e+04 4.611e-10
 40.33364     56.9 1.067e+04 3.865e-10
 40.36431     58.1 1.046e+04 2.587e-10
 40.38430     59.0 1.030e+04 1.941e-10
 40.41360     60.0 1.023e+04 1.202e-10
 40.45357     60.9 9.947e+03 8.170e-11
 40.49355     62.0 9.585e+03 7.934e-11
 40.53353     63.7 9.570e+03 8.054e-11
 40.55620     65.6 9.608e+03 8.731e-11
 40.57618     66.7 9.586e+03 7.922e-11
 40.61348     68.7 9.654e+03 9.053e-11
 40.65346     70.6 9.734e+03 1.073e-10
 40.69343     72.5 9.834e+03 1.274e-10
 40.72809     74.3 9.947e+03 1.459e-10
 40.74808     75.1 9.904e+03 1.256e-10
 40.77339     76.7 1.000e+04 1.364e-10
 40.81336     78.2 1.009e+04 1.416e-10
 40.85334     79.5 1.014e+04 1.447e-10
 40.89332     80.8 1.019e+04 1.505e-10
 40.91998     82.1 1.026e+04 1.603e-10
 40.93996     82.8 1.026e+04 1.643e-10
 40.97327     84.0 1.037e+04 1.850e-10
 41.01325     85.3 1.048e+04 2.083e-10
 41.05323     86.4 1.059e+04 2.268e-10
 41.09187     87.5 1.065e+04 2.370e-10
 41.11186     88.3 1.061e+04 2.332e-10
 41.13318     89.2 1.063e+04 2.365e-10
 41.17316     90.1 1.062e+04 2.443e-10
 41.21313     90.9 1.065e+04 2.547e-10
 41.25311     91.8 1.067e+04 2.698e-10
 41.28376     92.7 1.066e+04 2.757e-10
 41.30375     93.5 1.062e+04 2.631e-10
 41.33306     94.5 1.058e+04 2.573e-10
 41.37304     95.6 1.051e+04 2.426e-10
 41.41302     96.9 1.049e+04 2.334e-10
 41.45300     98.3 1.053e+04 2.345e-10
 41.47564     99.6 1.069e+04 2.475e-10
 41.49563    100.4 1.051e+04 2.039e-10
 41.53295    101.6 1.070e+04 2.260e-10
 41.57293    102.6 1.092e+04 2.740e-10
 41.61290    103.0 1.114e+04 3.668e-10
 41.64754    103.4 1.149e+04 5.731e-10
 41.66753    104.2 1.127e+04 5.311e-10
 41.69286    104.6 1.179e+04 8.576e-10
 41.73283    104.9 1.226e+04 1.283e-09
 41.77281    104.9 1.256e+04 1.521e-09
 41.81279    104.7 1.256e+04 1.505e-09
 41.83942    104.9 1.240e+04 1.390e-09
 41.85941    105.7 1.193e+04 1.089e-09
 41.89274    106.3 1.165e+04 9.454e-10
 41.93272    107.4 1.139e+04 8.495e-10
 41.97270    108.7 1.125e+04 7.899e-10
 42.01132    110.2 1.114e+04 7.434e-10
 42.03131    111.2 1.109e+04 7.274e-10
 42.05265    112.8 1.110e+04 7.467e-10
 42.09263    114.4 1.106e+04 7.526e-10
 42.13260    116.0 1.103e+04 7.413e-10
 42.17258    117.3 1.092e+04 6.821e-10
 42.20320    118.5 1.069e+04 5.598e-10
 42.22319    119.4 1.100e+04 7.406e-10
 42.25253    120.4 1.073e+04 5.978e-10
 42.29251    121.4 1.037e+04 4.259e-10
 42.33249    122.4 9.916e+03 2.964e-10
 42.37246    123.6 9.628e+03 2.435e-10
 42.39509    125.3 9.602e+03 2.426e-10
 42.41508    126.2 9.912e+03 3.363e-10
 42.45242    128.2 9.906e+03 3.249e-10
 42.49240    130.3 9.951e+03 3.268e-10
 42.53237    132.5 1.001e+04 3.266e-10
 42.56698    134.7 1.002e+04 3.187e-10
 42.58697    135.3 1.009e+04 3.241e-10
 42.61233    137.5 1.004e+04 2.995e-10
 42.65230    139.7 9.958e+03 2.665e-10
 42.69228    142.0 9.858e+03 2.330e-10
 42.73226    144.4 9.805e+03 2.111e-10
 42.75887    147.0 9.821e+03 2.087e-10
 42.77886    147.4 1.002e+04 2.647e-10
 42.81221    149.9 1.014e+04 2.750e-10
 42.85219    152.3 1.032e+04 2.944e-10
 42.89216    154.2 1.049e+04 3.103e-10
 42.92205    155.3 1.064e+04 3.465e-10
 42.94056    156.3 1.080e+04 3.902e-10
 42.95056    156.5 1.113e+04 5.643e-10
 42.96193    157.3 1.137e+04 6.235e-10
 42.98192    157.9 1.161e+04 6.802e-10
 43.00191    158.3 1.187e+04 7.405e-10
 43.02189    158.6 1.216e+04 8.204e-10
 43.03650    158.5 1.249e+04 9.450e-10
 43.04650    157.9 1.307e+04 1.547e-09
 43.06187    157.6 1.358e+04 1.980e-09
 43.08186    157.3 1.420e+04 2.688e-09
 43.10185    157.2 1.484e+04 3.712e-09
 43.12184    157.2 1.538e+04 4.848e-09
 43.13245    157.4 1.565e+04 5.404e-09
 43.13441    157.1 1.658e+04 7.694e-09
 43.14378    156.4 1.669e+04 7.816e-09
 43.16181    156.3 1.660e+04 7.552e-09
 43.18180    156.5 1.623e+04 6.533e-09
 43.20179    157.0 1.571e+04 5.197e-09
 43.21840    157.2 1.517e+04 3.917e-09
 43.22839    156.4 1.510e+04 3.998e-09
 43.24177    156.1 1.449e+04 3.184e-09
 43.26176    156.0 1.401e+04 2.818e-09
 43.28174    156.2 1.394e+04 2.796e-09
 43.30173    156.5 1.403e+04 2.864e-09
 43.31434    156.6 1.445e+04 3.211e-09
 43.32433    156.1 1.473e+04 3.368e-09
 43.34171    155.6 1.581e+04 4.302e-09
 43.36170    154.8 1.696e+04 5.814e-09
 43.38169    153.9 1.786e+04 7.724e-09
 43.40029    153.1 1.835e+04 9.452e-09
 43.41028    152.0 1.828e+04 9.305e-09
 43.42166    151.5 1.826e+04 9.502e-09
 43.44165    151.3 1.806e+04 8.785e-09
 43.46164    151.0 1.764e+04 7.105e-09
 43.48163    150.6 1.730e+04 5.610e-09
 43.49623    150.2 1.698e+04 4.314e-09
 43.50622    149.1 1.628e+04 3.546e-09
 43.52161    148.8 1.570e+04 2.894e-09
 43.54159    148.6 1.498e+04 2.583e-09
 43.56158    148.7 1.443e+04 2.445e-09
 43.58157    149.1 1.429e+04 2.486e-09
 43.59217    149.3 1.431e+04 2.662e-09
 43.60216    148.8 1.469e+04 3.341e-09
 43.62155    148.8 1.529e+04 4.143e-09
 43.64154    148.7 1.590e+04 5.116e-09
 43.66152    148.6 1.641e+04 6.023e-09
 43.67812    148.3 1.673e+04 6.631e-09
 43.68811    148.4 1.755e+04 9.953e-09
 43.70150    147.6 1.756e+04 9.918e-09
 43.72149    146.7 1.743e+04 9.478e-09
 43.74148    145.6 1.710e+04 8.474e-09
 43.76147    144.4 1.662e+04 7.181e-09
 43.77406    143.3 1.605e+04 5.886e-09
 43.78405    143.5 1.607e+04 6.028e-09
 43.80144    142.6 1.540e+04 4.780e-09
 43.82143    141.9 1.474e+04 3.814e-09
 43.84142    141.3 1.412e+04 3.092e-09
 43.86001    140.9 1.359e+04 2.580e-09
 43.87000    141.7 1.327e+04 2.186e-09
 43.88140    141.7 1.292e+04 1.884e-09
 43.90139    141.8 1.267e+04 1.689e-09
 43.93147    143.2 1.227e+04 1.370e-09
 43.97154    144.1 1.180e+04 1.114e-09
 44.01152    145.3 1.129e+04 8.760e-10
 44.04209    146.8 1.088e+04 6.884e-10
 44.06208    149.0 1.062e+04 6.091e-10
 44.09147    150.6 1.037e+04 5.036e-10
 44.13145    152.6 1.014e+04 4.280e-10
 44.17143    154.9 9.952e+03 3.793e-10
 44.21140    157.6 9.956e+03 3.807e-10
 44.23398    160.5 9.996e+03 3.983e-10
 44.25397    161.7 9.973e+03 4.124e-10
 44.29136    164.3 1.005e+04 4.535e-10
 44.33133    166.9 1.012e+04 5.002e-10
 44.37131    170.2 1.034e+04 5.529e-10
 44.40120    171.8 1.057e+04 6.093e-10
 44.41567    173.1 1.054e+04 6.421e-10
 44.42567    173.5 1.050e+04 6.305e-10
 44.44107    174.8 1.040e+04 6.160e-10
 44.46106    176.1 1.026e+04 6.018e-10
 44.48105    177.4 1.015e+04 5.959e-10
 44.50104    178.6 1.012e+04 5.979e-10
 44.51162    179.7 1.009e+04 6.052e-10
 44.52161    180.0 1.008e+04 5.947e-10
 44.54102    181.1 1.005e+04 6.168e-10
 44.56101    182.2 1.005e+04 6.549e-10
 44.58099    183.1 1.011e+04 7.091e-10
 44.59756    183.9 1.024e+04 7.815e-10
 44.60756    184.0 1.032e+04 8.018e-10
 44.62097    184.7 1.049e+04 8.990e-10
 44.64096    185.1 1.065e+04 9.902e-10
 44.66095    185.0 1.077e+04 1.044e-09
 44.68094    184.5 1.095e+04 1.111e-09
 44.69351    182.3 1.226e+04 1.363e-09
 44.70350    179.3 1.522e+04 2.401e-09
 44.72091    175.0 1.791e+04 4.132e-09
 44.74090    170.8 1.894e+04 7.082e-09
 44.76089    167.9 1.889e+04 1.054e-08
 44.77583    166.9 1.862e+04 1.070e-08
 44.78435    166.1 1.838e+04 1.163e-08
 44.78935    165.5 1.818e+04 1.329e-08
 44.79577    164.9 1.799e+04 1.485e-08
 44.80577    164.5 1.798e+04 1.637e-08
 44.81576    164.2 1.787e+04 1.847e-08
 44.82575    164.0 1.795e+04 2.041e-08
 44.83232    163.9 1.828e+04 2.242e-08
 44.83732    163.7 1.861e+04 1.958e-08
 44.84574    163.2 1.945e+04 2.135e-08
 44.85574    162.6 2.047e+04 2.362e-08
 44.86573    162.0 2.177e+04 2.491e-08
 44.87530    161.0 2.268e+04 2.410e-08
 44.88030    159.0 2.367e+04 1.593e-08
 44.88572    157.1 2.421e+04 1.333e-08
 44.90076    153.8 2.245e+04 7.245e-09
 44.92080    152.2 2.039e+04 6.918e-09
 44.94079    151.2 1.838e+04 7.155e-09
 44.96077    150.9 1.797e+04 7.883e-09
 44.97134    151.1 1.789e+04 9.094e-09
 44.98133    150.7 1.778e+04 9.591e-09
 45.00075    151.9 1.800e+04 1.085e-08
 45.02074    153.1 1.843e+04 1.231e-08
 45.04073    154.1 1.893e+04 1.390e-08
 45.05729    154.8 1.928e+04 1.495e-08
 45.06728    154.9 1.938e+04 1.530e-08
 45.08071    155.3 1.941e+04 1.449e-08
 45.10069    156.0 1.930e+04 1.287e-08
 45.11177    156.3 1.920e+04 1.126e-08
 45.12176    155.1 1.684e+04 4.012e-09
 45.14067    155.3 1.631e+04 3.384e-09
 45.15323    155.4 1.565e+04 2.941e-09
 45.16322    155.0 1.381e+04 2.303e-09
 45.18065    155.3 1.331e+04 2.290e-09
 45.20064    155.6 1.315e+04 2.391e-09
 45.22062    155.9 1.321e+04 2.675e-09
 45.23918    155.9 1.358e+04 3.101e-09
 45.24917    156.2 1.348e+04 3.162e-09
 45.26060    156.3 1.409e+04 3.929e-09
 45.28059    156.3 1.487e+04 5.036e-09
 45.30058    156.4 1.572e+04 6.628e-09
 45.32057    156.5 1.660e+04 8.683e-09
 45.33512    156.3 1.747e+04 1.084e-08
 45.34511    156.8 1.740e+04 1.079e-08
 45.36054    156.1 1.777e+04 1.181e-08
 45.38053    155.3 1.810e+04 1.173e-08
 45.40052    154.4 1.807e+04 1.129e-08
 45.42051    153.3 1.795e+04 1.009e-08
 45.43106    151.9 1.769e+04 8.810e-09
 45.44106    151.9 1.724e+04 7.928e-09
 45.46049    150.5 1.709e+04 7.793e-09
 45.48047    149.1 1.714e+04 7.984e-09
 45.50046    147.9 1.736e+04 8.742e-09
 45.51701    146.9 1.764e+04 9.836e-09
 45.52700    148.0 1.738e+04 9.018e-09
 45.54044    146.8 1.745e+04 9.191e-09
 45.56043    145.4 1.734e+04 8.935e-09
 45.58042    144.5 1.681e+04 7.699e-09
 45.60041    144.1 1.595e+04 5.659e-09
 45.61295    143.9 1.493e+04 3.578e-09
 45.62295    144.6 1.482e+04 3.579e-09
 45.64038    144.2 1.391e+04 2.361e-09
 45.66037    143.6 1.326e+04 1.657e-09
 45.68036    143.1 1.302e+04 1.379e-09
 45.69890    142.8 1.299e+04 1.358e-09
 45.70889    143.8 1.315e+04 1.437e-09
 45.72034    143.6 1.323e+04 1.474e-09
 45.74032    143.1 1.348e+04 1.626e-09
 45.76031    142.5 1.383e+04 1.963e-09
 45.78030    141.8 1.421e+04 2.540e-09
 45.79484    141.3 1.454e+04 3.356e-09
 45.80484    141.6 1.518e+04 4.002e-09
 45.82028    141.6 1.542e+04 5.220e-09
 45.84027    141.8 1.557e+04 6.338e-09
 45.86026    142.2 1.566e+04 7.029e-09
 45.88024    142.7 1.560e+04 7.059e-09
 45.89078    143.2 1.542e+04 6.833e-09
 45.90078    143.6 1.550e+04 6.904e-09
 45.92022    144.3 1.522e+04 6.259e-09
 45.94021    145.0 1.487e+04 5.581e-09
 45.96020    145.8 1.442e+04 4.886e-09
 45.97673    146.8 1.397e+04 4.071e-09
 45.98673    146.9 1.383e+04 3.168e-09
 46.00017    147.7 1.349e+04 2.868e-09
 46.02016    148.5 1.312e+04 2.569e-09
 46.04015    149.3 1.286e+04 2.266e-09
 46.06014    150.0 1.261e+04 1.981e-09
 46.07267    150.8 1.236e+04 1.730e-09
 46.08267    151.0 1.212e+04 1.531e-09
 46.10012    151.8 1.195e+04 1.410e-09
 46.12010    152.7 1.178e+04 1.283e-09
 46.14009    153.6 1.161e+04 1.167e-09
 46.15862    154.4 1.145e+04 1.062e-09
 46.16862    154.9 1.136e+04 9.670e-10
 46.18007    155.9 1.124e+04 8.916e-10
 46.20006    156.9 1.116e+04 8.317e-10
 46.22005    157.8 1.111e+04 7.918e-10
 46.24004    158.6 1.108e+04 7.746e-10
 46.25456    159.4 1.108e+04 7.755e-10
 46.26456    159.9 1.107e+04 7.409e-10
 46.28001    160.7 1.111e+04 7.743e-10
 46.30000    161.4 1.119e+04 8.276e-10
 46.31999    162.1 1.128e+04 8.926e-10
 46.33998    162.7 1.139e+04 9.581e-10
 46.35051    163.3 1.149e+04 1.011e-09
 46.36050    163.7 1.170e+04 1.195e-09
 46.37995    164.2 1.184e+04 1.273e-09
 46.39994    164.5 1.195e+04 1.295e-09
 46.41993    164.6 1.198e+04 1.295e-09
 46.43646    164.6 1.198e+04 1.301e-09
 46.44645    164.9 1.225e+04 1.561e-09
 46.45991    164.8 1.224e+04 1.558e-09
 46.47990    164.5 1.226e+04 1.581e-09
 46.49989    164.1 1.235e+04 1.673e-09
 46.51987    163.4 1.260e+04 1.916e-09
 46.53240    162.6 1.306e+04 2.429e-09
 46.54239    162.9 1.300e+04 2.243e-09
 46.55985    162.2 1.360e+04 2.893e-09
 46.57984    161.6 1.423e+04 3.743e-09
 46.59983    160.8 1.477e+04 4.280e-09
 46.61835    159.4 1.485e+04 4.252e-09
 46.62834    158.9 1.448e+04 3.422e-09
 46.63980    157.1 1.445e+04 3.304e-09
 46.65979    155.3 1.423e+04 2.830e-09
 46.67978    153.3 1.372e+04 2.165e-09
 46.69977    151.3 1.309e+04 1.622e-09
 46.71429    149.4 1.255e+04 1.301e-09
 46.72428    149.2 1.278e+04 1.452e-09
 46.73975    148.0 1.236e+04 1.214e-09
 46.75974    147.4 1.211e+04 1.101e-09
 46.77972    147.3 1.198e+04 1.052e-09
 46.80033    147.4 1.192e+04 1.040e-09
 46.82042    147.6 1.164e+04 9.094e-10
 46.84988    147.8 1.147e+04 8.344e-10
 46.88986    148.3 1.128e+04 7.294e-10
 46.92983    148.8 1.105e+04 5.983e-10
 46.96981    149.6 1.075e+04 4.452e-10
 46.99232    150.7 1.043e+04 3.067e-10
 47.01230    150.8 1.057e+04 3.656e-10
 47.04976    152.2 1.032e+04 2.694e-10
 47.07994    153.8 1.014e+04 2.018e-10
 47.09993    153.2 1.048e+04 2.800e-10
 47.12972    155.2 1.031e+04 2.132e-10
 47.16421    157.3 1.018e+04 1.765e-10
 47.18420    157.6 1.035e+04 2.341e-10
 47.20967    159.9 1.022e+04 2.070e-10
 47.24965    162.2 1.001e+04 2.023e-10
 47.28963    164.5 9.908e+03 2.021e-10
 47.32960    166.7 9.849e+03 2.013e-10
 47.35610    168.9 9.789e+03 1.993e-10
 47.37608    169.4 1.000e+04 2.631e-10
 47.40956    171.4 9.940e+03 2.549e-10
 47.44953    173.1 9.932e+03 2.451e-10
 47.48951    174.5 9.818e+03 2.488e-10
 47.52799    175.7 9.836e+03 2.646e-10
 47.54788    175.9 1.024e+04 4.252e-10
 47.55927    176.6 1.023e+04 4.375e-10
 47.57926    177.0 1.023e+04 4.490e-10
 47.60934    177.7 1.028e+04 5.034e-10
 47.64942    178.9 1.014e+04 4.920e-10
 47.68939    180.1 9.921e+03 4.560e-10
 47.71988    181.3 9.708e+03 4.093e-10
 47.73987    180.7 9.812e+03 4.146e-10
 47.76935    181.8 9.412e+03 3.349e-10
 47.80932    183.0 9.155e+03 3.049e-10
 47.84930    184.4 9.035e+03 3.061e-10
 47.88928    185.9 9.038e+03 3.087e-10
 47.91176    187.4 9.028e+03 3.133e-10
 47.93175    186.9 8.942e+03 2.959e-10
 47.96923    188.6 8.888e+03 2.907e-10
 48.00921    190.2 8.816e+03 2.782e-10
 48.04919    191.8 8.713e+03 2.601e-10
 48.08366    193.5 8.587e+03 2.380e-10
 48.10365    193.4 8.538e+03 2.230e-10
 48.12914    195.2 8.416e+03 2.027e-10
 48.16912    197.1 8.297e+03 1.901e-10
 48.20909    199.1 8.290e+03 1.928e-10
 48.24907    201.2 8.326e+03 2.058e-10
 48.27554    203.4 8.439e+03 2.304e-10
 48.29553    203.5 8.426e+03 2.226e-10
 48.32902    205.6 8.598e+03 2.595e-10
 48.36900    207.6 8.800e+03 3.051e-10
 48.40898    209.6 9.045e+03 3.620e-10
 48.44744    211.6 9.311e+03 4.320e-10
 48.46743    211.5 9.386e+03 4.529e-10
 48.48893    213.4 9.614e+03 5.305e-10
 48.52891    215.2 9.802e+03 6.002e-10
 48.56889    217.0 9.941e+03 6.500e-10
 48.60886    218.8 1.005e+04 6.677e-10
 48.63932    220.6 1.009e+04 6.664e-10
 48.65931    220.2 9.963e+03 6.243e-10
 48.68882    221.8 9.945e+03 6.001e-10
 48.72879    223.4 9.885e+03 5.677e-10
 48.76877    224.9 9.896e+03 5.643e-10
 48.80875    226.4 9.937e+03 5.739e-10
 48.83121    227.7 1.009e+04 6.161e-10
 48.85120    227.5 1.008e+04 6.082e-10
 48.88870    228.9 1.035e+04 6.913e-10
 48.92868    230.1 1.061e+04 7.889e-10
 48.96866    231.0 1.078e+04 8.584e-10
 49.00310    231.9 1.073e+04 8.778e-10
 49.02309    232.0 1.034e+04 7.139e-10
 49.04861    233.0 1.017e+04 6.595e-10
 49.08859    233.9 9.881e+03 5.731e-10
 49.12856    234.8 9.530e+03 4.827e-10
 49.16854    235.5 9.195e+03 4.113e-10
 49.19499    236.1 8.981e+03 3.685e-10
 49.21498    236.6 8.720e+03 2.851e-10
 49.24849    237.3 8.705e+03 2.851e-10
 49.28847    237.8 8.681e+03 2.845e-10
 49.32845    238.4 8.629e+03 2.802e-10
 49.36688    238.9 8.568e+03 2.721e-10
 49.38687    239.9 8.466e+03 2.455e-10
 49.40840    240.6 8.479e+03 2.503e-10
 49.44838    241.2 8.525e+03 2.581e-10
 49.48836    241.5 8.688e+03 2.829e-10
 49.52833    241.8 9.077e+03 3.429e-10
 49.55877    241.7 9.535e+03 4.437e-10
 49.57876    242.5 9.646e+03 4.709e-10
 49.60829    241.7 1.061e+04 7.308e-10
 49.63817    240.5 1.114e+04 9.324e-10
 49.65452    239.1 1.179e+04 1.218e-09
 49.66451    239.7 1.170e+04 1.192e-09
 49.67805    238.3 1.219e+04 1.472e-09
 49.69804    236.5 1.260e+04 1.638e-09
 49.71803    234.3 1.273e+04 1.644e-09
 49.73802    232.2 1.272e+04 1.592e-09
 49.75056    228.6 1.285e+04 1.362e-09
 49.77064    230.3 1.283e+04 1.396e-09
 49.80817    225.8 1.215e+04 6.853e-10
 49.84815    221.9 1.091e+04 2.692e-10
 49.88812    218.8 9.628e+03 1.739e-10
 49.92255    218.1 9.497e+03 1.713e-10
 49.94254    219.6 9.405e+03 1.368e-10
 49.96808    219.7 9.396e+03 1.376e-10
 50.00806    219.9 9.413e+03 1.429e-10
 50.04803    220.0 9.521e+03 1.544e-10
 50.08801    220.0 9.712e+03 1.757e-10
 50.11443    220.0 9.988e+03 2.179e-10
 50.13442    221.3 9.948e+03 1.955e-10
 50.16796    221.2 1.028e+04 2.605e-10
 50.20794    221.2 1.060e+04 3.559e-10
 50.24792    221.2 1.092e+04 4.729e-10
 50.28633    221.2 1.111e+04 5.789e-10
 50.30632    222.4 1.094e+04 4.456e-10
 50.32787    222.2 1.089e+04 4.548e-10
 50.36785    222.1 1.082e+04 4.513e-10
 50.40782    222.3 1.076e+04 4.518e-10
 50.44780    222.7 1.076e+04 4.599e-10
 50.47821    222.9 1.081e+04 5.016e-10
 50.49820    223.9 1.047e+04 3.093e-10
 50.52776    224.2 1.047e+04 3.550e-10
 50.56773    224.5 1.050e+04 4.232e-10
 50.60771    224.9 1.053e+04 4.732e-10
 50.64769    225.2 1.053e+04 4.741e-10
 50.67010    225.7 1.048e+04 4.533e-10
 50.69009    227.6 1.019e+04 3.538e-10
 50.72764    228.1 1.018e+04 3.492e-10
 50.76762    228.5 1.013e+04 3.265e-10
 50.80759    228.9 1.013e+04 2.848e-10
 50.84199    229.0 1.010e+04 2.504e-10
 50.86198    231.0 1.008e+04 2.714e-10
 50.88755    231.3 1.001e+04 2.444e-10
 50.92752    231.7 9.898e+03 2.281e-10
 50.96750    232.2 9.866e+03 2.291e-10
 51.00748    232.9 9.831e+03 2.355e-10
 51.03388    233.7 9.814e+03 2.391e-10
 51.04231    235.4 9.645e+03 2.172e-10
 51.05589    236.2 9.449e+03 1.886e-10
 51.08743    237.0 9.439e+03 1.873e-10
 51.12741    237.9 9.415e+03 1.832e-10
 51.16739    238.8 9.355e+03 1.760e-10
 51.20578    239.8 9.300e+03 1.743e-10
 51.22576    240.9 9.247e+03 1.845e-10
 51.24734    241.8 9.273e+03 1.817e-10
 51.28732    242.8 9.274e+03 1.841e-10
 51.32729    243.7 9.323e+03 1.965e-10
 51.36727    244.5 9.478e+03 2.259e-10
 51.39766    245.2 9.637e+03 2.659e-10
 51.41765    245.9 9.519e+03 2.549e-10
 51.44722    246.5 9.708e+03 2.971e-10
 51.48720    247.0 9.794e+03 3.196e-10
 51.52718    247.5 9.790e+03 3.194e-10
 51.56715    248.0 9.740e+03 3.120e-10
 51.58954    248.6 9.648e+03 2.994e-10
 51.60953    249.0 9.814e+03 3.271e-10
 51.64711    249.7 9.658e+03 3.068e-10
 51.68709    250.3 9.650e+03 3.091e-10
 51.72706    250.8 9.737e+03 3.315e-10
 51.76144    251.4 9.954e+03 3.837e-10
 51.78143    251.3 9.909e+03 3.765e-10
 51.79692    251.1 1.014e+04 4.448e-10
 51.81682    251.2 1.031e+04 5.037e-10
 51.84690    251.9 1.050e+04 5.638e-10
 51.88697    252.4 1.074e+04 6.573e-10
 51.92695    252.9 1.090e+04 7.276e-10
 51.95332    253.2 1.103e+04 7.691e-10
 51.97331    253.3 1.125e+04 8.649e-10
 52.00690    253.3 1.132e+04 8.709e-10
 52.04688    253.2 1.134e+04 8.618e-10
 52.08685    253.0 1.132e+04 8.277e-10
 52.12522    252.6 1.126e+04 7.620e-10
 52.14521    252.1 1.079e+04 5.135e-10
 52.16681    251.3 1.052e+04 3.782e-10
 52.20679    250.1 1.023e+04 2.905e-10
 52.24676    248.9 1.004e+04 2.678e-10
 52.28674    247.9 1.003e+04 2.719e-10
 52.31711    246.9 1.008e+04 2.923e-10
 52.33709    245.8 1.007e+04 2.993e-10
 52.36669    245.0 1.021e+04 3.303e-10
 52.39658    244.1 1.027e+04 3.466e-10
 52.41285    243.1 1.035e+04 3.703e-10
 52.42285    242.7 1.038e+04 3.741e-10
 52.43646    241.3 1.047e+04 4.170e-10
 52.45645    240.0 1.060e+04 4.874e-10
 52.47643    238.7 1.085e+04 6.019e-10
 52.49642    237.3 1.124e+04 7.829e-10
 52.50879    235.9 1.173e+04 1.057e-09
 52.51879    234.7 1.205e+04 1.281e-09
 52.53640    233.3 1.257e+04 1.703e-09
 52.55639    231.9 1.305e+04 2.046e-09
 52.57638    230.4 1.325e+04 2.107e-09
 52.59474    227.9 1.324e+04 1.960e-09
 52.60474    226.9 1.318e+04 1.819e-09
 52.61635    225.9 1.293e+04 1.587e-09
 52.64643    224.0 1.276e+04 1.292e-09
 52.68089    220.5 1.187e+04 8.331e-10
 52.70087    217.8 1.109e+04 5.095e-10
 52.72649    213.2 1.094e+04 5.154e-10
 52.75637    211.2 1.081e+04 5.489e-10
 52.77626    209.8 1.082e+04 6.088e-10
 52.80634    206.5 1.118e+04 7.850e-10
 52.84642    203.7 1.124e+04 8.310e-10
 52.87277    201.1 1.112e+04 7.919e-10
 52.88267    201.1 1.124e+04 8.420e-10
 52.89619    199.8 1.111e+04 7.738e-10
 52.91618    198.6 1.088e+04 6.589e-10
 52.93617    197.5 1.061e+04 5.333e-10
 52.95616    196.4 1.031e+04 4.103e-10
 52.96852    194.9 1.004e+04 3.260e-10
 52.97851    193.4 1.028e+04 3.554e-10
 52.99613    191.7 1.036e+04 3.608e-10
 53.01368    190.1 1.041e+04 3.841e-10
 53.02367    189.0 1.037e+04 3.861e-10
 53.03611    187.5 1.063e+04 4.730e-10
 53.05447    186.5 1.083e+04 6.017e-10
 53.06456    186.0 1.109e+04 7.662e-10
 53.08628    184.9 1.157e+04 1.089e-09
 53.12625    183.8 1.198e+04 1.252e-09
 53.16623    182.5 1.204e+04 1.164e-09
 53.20621    180.7 1.180e+04 8.277e-10
 53.23655    178.4 1.116e+04 5.236e-10
 53.25654    174.0 9.996e+03 2.569e-10
 53.28616    172.5 9.873e+03 2.573e-10
 53.32614    171.0 9.937e+03 2.817e-10
 53.36612    169.5 1.020e+04 3.566e-10
 53.40609    167.8 1.068e+04 5.038e-10
 53.42844    166.0 1.124e+04 7.150e-10
 53.44842    162.1 1.157e+04 8.047e-10
 53.48605    159.6 1.173e+04 8.904e-10
 53.52602    156.9 1.167e+04 8.810e-10
 53.56600    154.4 1.136e+04 8.212e-10
 53.60033    152.4 1.085e+04 6.985e-10
 53.62032    150.0 1.028e+04 5.114e-10
 53.64595    149.5 9.794e+03 4.013e-10
 53.68593    149.1 9.414e+03 3.307e-10
 53.72591    149.1 9.136e+03 2.914e-10
 53.76589    149.4 8.951e+03 2.689e-10
 53.79222    149.9 8.815e+03 2.525e-10
 53.81220    149.3 8.687e+03 2.187e-10
 53.84584    150.1 8.625e+03 2.143e-10
 53.88582    150.7 8.560e+03 2.071e-10
 53.92579    151.2 8.503e+03 1.985e-10
 53.96411    151.6 8.436e+03 1.931e-10
 53.98410    151.3 8.562e+03 2.144e-10
 54.00575    151.7 8.583e+03 2.279e-10
 54.04572    152.1 8.651e+03 2.525e-10
 54.08570    152.6 8.794e+03 2.902e-10
 54.12568    153.1 8.987e+03 3.331e-10
 54.15600    153.2 9.130e+03 3.510e-10
 54.17599    152.9 9.364e+03 4.055e-10
 54.20563    152.7 9.365e+03 4.002e-10
 54.24561    152.3 9.330e+03 3.678e-10
 54.28559    151.7 9.167e+03 2.995e-10
 54.32556    150.7 8.921e+03 2.316e-10
 54.34788    149.5 8.770e+03 2.120e-10
 54.36787    148.8 9.126e+03 2.909e-10
 54.40552    147.9 9.130e+03 2.988e-10
 54.44549    146.9 9.228e+03 3.361e-10
 54.48547    145.9 9.432e+03 3.908e-10
 54.51978    144.8 9.556e+03 4.085e-10
 54.53977    144.7 9.852e+03 4.923e-10
 54.56542    143.4 9.814e+03 4.617e-10
 54.60540    141.9 9.610e+03 3.711e-10
 54.64538    140.1 9.290e+03 2.641e-10
 54.68535    137.8 9.109e+03 2.078e-10
 54.71166    135.3 9.129e+03 2.064e-10
 54.73165    136.1 9.317e+03 2.441e-10
 54.75522    134.9 9.330e+03 2.425e-10
 54.77511    133.9 9.412e+03 2.491e-10
 54.79510    131.9 9.750e+03 2.970e-10
 54.80741    128.6 1.051e+04 4.938e-10
 54.81740    127.6 1.119e+04 7.239e-10
 54.83507    123.3 1.310e+04 1.659e-09
 54.85506    118.5 1.561e+04 3.881e-09
 54.87505    113.4 1.787e+04 8.190e-09
 54.89336    108.4 1.900e+04 1.132e-08
 54.90335    107.9 1.981e+04 1.517e-08
 54.91503    103.1 1.966e+04 1.410e-08
 54.93501     98.5 1.883e+04 9.276e-09
 54.95500     92.5 1.750e+04 4.491e-09
 54.97499     84.5 1.554e+04 2.359e-09
 54.98930     77.2 1.377e+04 1.909e-09
 54.99597     76.9 1.340e+04 1.733e-09
 55.00165     79.0 1.348e+04 1.611e-09
 55.01497     74.5 1.293e+04 1.491e-09
 55.04505     71.7 1.277e+04 1.414e-09
 55.07544     68.4 1.220e+04 1.065e-09
 55.09543     69.1 1.178e+04 8.721e-10
 55.12510     66.4 1.112e+04 5.304e-10
 55.16508     63.6 1.080e+04 3.510e-10
 55.20505     60.8 1.098e+04 3.786e-10
 55.24503     58.6 1.141e+04 5.487e-10
 55.26733     57.3 1.157e+04 7.729e-10
 55.28732     58.9 1.177e+04 7.967e-10
 55.32498     57.8 1.187e+04 9.584e-10
 55.36496     57.0 1.168e+04 8.518e-10
 55.40494     55.9 1.122e+04 5.947e-10
 55.43922     54.6 1.070e+04 4.182e-10
 55.45921     56.2 1.117e+04 5.439e-10
 55.48489     54.9 1.053e+04 3.999e-10
 55.52487     54.6 1.018e+04 3.899e-10
 55.56485     54.9 9.960e+03 3.734e-10
 55.60482     55.5 9.784e+03 3.234e-10
 55.63111     56.1 9.576e+03 2.567e-10
 55.65110     56.6 9.709e+03 3.162e-10
 55.68478     57.4 9.459e+03 2.473e-10
 55.72475     58.1 9.188e+03 1.881e-10
 55.76473     58.8 8.959e+03 1.531e-10
 55.80300     59.6 8.895e+03 1.500e-10
 55.82299     60.2 8.898e+03 1.474e-10
 55.84468     60.9 8.917e+03 1.553e-10
 55.88466     61.5 9.012e+03 1.860e-10
 55.92464     62.0 9.229e+03 2.498e-10
 55.96462     62.4 9.551e+03 3.513e-10
 55.99489     62.9 9.900e+03 4.820e-10
 56.01488     63.4 9.795e+03 4.616e-10
 56.04457     63.5 9.898e+03 4.954e-10
 56.08455     63.5 9.857e+03 4.799e-10
 56.12452     63.8 9.660e+03 4.080e-10
 56.16450     64.0 9.348e+03 2.975e-10
 56.18677     64.0 9.025e+03 2.109e-10
 56.20676     64.1 8.885e+03 1.876e-10
 56.24445     64.0 8.691e+03 1.543e-10
 56.28443     64.2 8.602e+03 1.507e-10
 56.32441     64.7 8.590e+03 1.528e-10
 56.35867     65.3 8.600e+03 1.596e-10
 56.37866     65.6 8.510e+03 1.480e-10
 56.40436     66.2 8.502e+03 1.487e-10
 56.44434     66.8 8.513e+03 1.497e-10
 56.48432     67.5 8.551e+03 1.531e-10
 56.52429     68.0 8.651e+03 1.664e-10
 56.55055     68.5 8.833e+03 2.012e-10
 56.57054     68.8 8.807e+03 2.040e-10
 56.60425     69.3 9.073e+03 2.660e-10
 56.64422     69.9 9.325e+03 3.244e-10
 56.68420     70.5 9.413e+03 3.315e-10
 56.72245     70.9 9.418e+03 3.224e-10
 56.74244     70.7 9.350e+03 2.961e-10
 56.76415     70.8 9.384e+03 2.811e-10
 56.80413     70.8 9.424e+03 2.849e-10
 56.84411     70.5 9.617e+03 3.189e-10
 56.88408     70.4 9.899e+03 3.951e-10
 56.91433     70.6 1.010e+04 4.558e-10
 56.93432     70.0 1.010e+04 4.620e-10
 56.96404     70.3 1.002e+04 4.262e-10
 57.00402     70.4 9.821e+03 3.373e-10
 57.04399     70.2 9.754e+03 2.851e-10
 57.08397     70.0 9.848e+03 2.908e-10
 57.10612     69.2 9.865e+03 2.852e-10
 57.11602     68.0 9.759e+03 2.577e-10
 57.13374     67.5 1.001e+04 3.137e-10
 57.15373     66.7 1.043e+04 4.412e-10
 57.17372     65.9 1.104e+04 6.582e-10
 57.19197     65.2 1.168e+04 9.558e-10
 57.20197     63.6 1.190e+04 1.068e-09
 57.21370     62.9 1.237e+04 1.411e-09
 57.23369     62.2 1.277e+04 1.687e-09
 57.25368     61.2 1.311e+04 1.907e-09
 57.27366     59.2 1.473e+04 2.145e-09
 57.28791     52.5 2.052e+04 3.196e-09
 57.29791     51.2 1.925e+04 4.298e-09
 57.31364     43.0 2.241e+04 9.622e-09
 57.32858     36.1 2.333e+04 2.416e-08
 57.33579     34.4 2.203e+04 4.962e-08
 57.34078     35.2 2.205e+04 4.337e-08
 57.34852     35.1 2.162e+04 6.773e-08
 57.35852     35.1 2.174e+04 8.626e-08
 57.36851     35.0 2.167e+04 8.631e-08
 57.37851     35.2 2.128e+04 7.380e-08
 57.38376     35.7 2.085e+04 4.676e-08
 57.38876     35.8 2.081e+04 3.966e-08
 57.39849     35.4 2.054e+04 2.220e-08
 57.41353     34.0 1.978e+04 1.392e-08
 57.43357     31.9 1.772e+04 5.348e-09
 57.45356     28.5 1.474e+04 2.178e-09
 57.46980     25.5 1.221e+04 1.244e-09
 57.47980     25.2 1.208e+04 1.289e-09
 57.49354     24.9 1.198e+04 1.215e-09
 57.51353     25.0 1.200e+04 1.235e-09
 57.53351     25.1 1.195e+04 1.237e-09
 57.55350     25.3 1.178e+04 1.197e-09
 57.56575     25.7 1.147e+04 1.098e-09
 57.57574     25.7 1.165e+04 1.265e-09
 57.59348     26.3 1.116e+04 1.035e-09
 57.61347     27.2 1.062e+04 7.951e-10
 57.63346     28.2 1.012e+04 5.610e-10
 57.65169     28.7 9.824e+03 4.127e-10
 57.66169     28.7 9.837e+03 4.020e-10
 57.68353     29.3 9.425e+03 2.546e-10
 57.72360     29.9 8.894e+03 1.533e-10
 57.76358     30.9 8.601e+03 1.293e-10
 57.80355     32.6 8.600e+03 1.307e-10
 57.83378     34.4 8.670e+03 1.420e-10
 57.85377     34.7 8.661e+03 1.462e-10
 57.88351     36.5 8.890e+03 1.857e-10
 57.92348     38.2 9.180e+03 2.389e-10
 57.96346     39.9 9.449e+03 2.867e-10
 58.00344     41.5 9.644e+03 3.155e-10
 58.02566     43.0 9.820e+03 3.373e-10
 58.04565     42.5 9.953e+03 3.894e-10
 58.08339     43.4 1.001e+04 4.063e-10
 58.11151     44.1 1.006e+04 4.450e-10
 58.12141     43.8 1.013e+04 4.733e-10
 58.13317     44.3 1.025e+04 5.109e-10
 58.15316     44.7 1.032e+04 5.389e-10
 58.17314     45.1 1.033e+04 5.467e-10
 58.19313     45.6 1.032e+04 5.432e-10
 58.20736     46.0 1.030e+04 5.310e-10
 58.21735     45.3 1.012e+04 4.519e-10
 58.23311     45.5 1.013e+04 4.335e-10
 58.25310     45.7 1.013e+04 4.274e-10
 58.27309     45.7 1.019e+04 4.353e-10
 58.29308     45.7 1.030e+04 4.629e-10
 58.30330     45.5 1.051e+04 5.266e-10
 58.31330     44.6 1.037e+04 4.674e-10
 58.33305     44.6 1.050e+04 5.190e-10
 58.35304     44.2 1.091e+04 6.610e-10
 58.37303     44.1 1.109e+04 7.419e-10
 58.38925     43.8 1.143e+04 8.858e-10
 58.40934     43.3 1.139e+04 8.435e-10
 58.44318     42.7 1.135e+04 8.041e-10
 58.47307     41.9 1.104e+04 6.583e-10
 58.48519     41.2 1.075e+04 5.402e-10
 58.49519     40.9 1.065e+04 4.988e-10
 58.51295     40.1 1.041e+04 4.277e-10
 58.53294     39.4 1.026e+04 4.034e-10
 58.55293     38.9 1.026e+04 4.068e-10
 58.57114     38.5 1.032e+04 4.357e-10
 58.58113     38.2 1.025e+04 4.059e-10
 58.59290     38.0 1.041e+04 4.635e-10
 58.61289     37.9 1.060e+04 5.383e-10
 58.63288     37.9 1.078e+04 6.110e-10
 58.65287     37.9 1.090e+04 6.430e-10
 58.66708     37.6 1.102e+04 6.573e-10
 58.67708     37.2 1.099e+04 6.343e-10
 58.69284     35.8 1.168e+04 6.960e-10
 58.70779     30.5 1.555e+04 9.455e-10
 58.71496     21.8 2.462e+04 1.846e-09
 58.71995     27.0 1.852e+04 1.191e-09
 58.72773     16.0 2.603e+04 3.259e-09
 58.73772      9.4 2.374e+04 7.998e-09
 58.74772      9.2 1.991e+04 1.433e-08
 58.75771      9.7 1.873e+04 1.894e-08
 58.76293     10.2 1.890e+04 1.830e-08
 58.76792     10.2 1.884e+04 1.584e-08
 58.77770     10.0 1.896e+04 1.483e-08
 58.79274      8.8 1.907e+04 9.511e-09
 58.81278      1.2 1.963e+04 3.920e-09
 58.83276    -12.0 1.566e+04 1.966e-09
 58.84897    -18.6 1.352e+04 2.112e-09
 58.85897    -18.3 1.389e+04 2.307e-09
 58.87274    -20.9 1.412e+04 2.903e-09
 58.89273    -22.2 1.450e+04 3.497e-09
 58.91272    -23.7 1.466e+04 3.718e-09
 58.93271    -26.3 1.505e+04 3.751e-09
 58.94491    -30.7 1.599e+04 3.748e-09
 58.94982    -30.2 1.550e+04 3.779e-09
 58.95760    -31.5 1.553e+04 3.985e-09
 58.97268    -36.2 1.586e+04 4.008e-09
 58.99267    -40.7 1.543e+04 3.936e-09
 59.01266    -43.6 1.497e+04 3.844e-09
 59.03086    -45.6 1.485e+04 3.264e-09
 59.04086    -45.2 1.487e+04 3.753e-09
 59.05264    -47.5 1.463e+04 2.714e-09
 59.07263    -51.1 1.396e+04 1.421e-09
 59.09261    -56.1 1.233e+04 6.755e-10
 59.11260    -60.3 1.087e+04 4.518e-10
 59.12680    -62.2 1.048e+04 4.138e-10
 59.13680    -62.5 1.062e+04 4.219e-10
 59.15258    -63.8 1.053e+04 4.080e-10
 59.17257    -65.1 1.048e+04 4.262e-10
 59.19256    -66.3 1.043e+04 4.976e-10
 59.21254    -67.4 1.077e+04 5.926e-10
 59.22275    -68.4 1.133e+04 7.191e-10
 59.23274    -70.5 1.234e+04 1.068e-09
 59.25252    -71.8 1.296e+04 1.357e-09
 59.27251    -73.2 1.347e+04 1.677e-09
 59.29250    -74.8 1.388e+04 2.057e-09
 59.30870    -76.5 1.427e+04 2.576e-09
 59.31869    -78.1 1.470e+04 3.398e-09
 59.33248    -79.4 1.492e+04 3.791e-09
 59.35246    -80.7 1.503e+04 4.045e-09
 59.37245    -82.0 1.504e+04 4.113e-09
 59.39244    -83.2 1.473e+04 3.851e-09
 59.40464    -84.3 1.410e+04 3.039e-09
 59.41463    -85.9 1.346e+04 2.136e-09
 59.43242    -86.9 1.265e+04 1.485e-09
 59.45241    -87.8 1.190e+04 1.009e-09
 59.47239    -88.5 1.128e+04 6.907e-10
 59.49059    -89.1 1.081e+04 4.881e-10
 59.50058    -91.0 1.052e+04 3.634e-10
 59.51237    -92.1 1.050e+04 3.176e-10
 59.53236    -93.4 1.049e+04 3.071e-10
 59.55235    -94.9 1.089e+04 3.030e-10
 59.57234    -96.7 1.177e+04 3.613e-10
 59.58653    -98.0 1.216e+04 5.320e-10
 59.59652   -100.3 1.231e+04 8.738e-10
 59.61231   -100.3 1.239e+04 1.157e-09
 59.63230   -100.0 1.245e+04 1.358e-09
 59.65229    -99.6 1.253e+04 1.440e-09
 59.67228    -99.4 1.271e+04 1.462e-09
 59.68247   -100.4 1.340e+04 1.490e-09
 59.69246   -104.1 1.423e+04 1.415e-09
 59.71226   -110.5 1.665e+04 1.902e-09
 59.73224   -116.6 1.726e+04 3.409e-09
 59.75223   -120.5 1.710e+04 5.330e-09
 59.76842   -123.1 1.699e+04 6.055e-09
 59.77841   -125.4 1.656e+04 5.520e-09
 59.79221   -128.0 1.602e+04 4.402e-09
 59.81220   -131.9 1.464e+04 2.262e-09
 59.83219   -137.1 1.252e+04 1.079e-09
 59.85217   -141.0 1.133e+04 7.499e-10
 59.86436   -142.6 1.104e+04 6.848e-10
 59.87435   -142.7 1.074e+04 5.767e-10
 59.89215   -143.3 1.068e+04 5.602e-10
 59.91214   -143.9 1.064e+04 5.448e-10
 59.93213   -144.5 1.057e+04 5.281e-10
 59.95031   -144.8 1.050e+04 5.060e-10
 59.96030   -144.7 1.026e+04 4.166e-10
 59.97211   -144.9 1.021e+04 3.998e-10
 59.99209   -145.1 1.011e+04 3.682e-10
 60.01208   -145.2 1.006e+04 3.521e-10
 60.03635   -145.6 9.998e+03 3.300e-10
 60.05644   -145.3 9.768e+03 2.837e-10
 60.08224   -145.3 9.680e+03 2.694e-10
 60.12221   -145.4 9.718e+03 2.833e-10
 60.16219   -145.6 9.957e+03 3.499e-10
 60.20217   -145.7 1.027e+04 4.481e-10
 60.22834   -145.9 1.050e+04 5.278e-10
 60.24832   -146.2 1.047e+04 5.266e-10
 60.28212   -146.5 1.041e+04 5.206e-10
 60.32210   -146.5 1.017e+04 4.388e-10
 60.36208   -146.5 9.894e+03 3.467e-10
 60.40023   -146.6 9.690e+03 2.909e-10
 60.42022   -147.1 9.460e+03 2.465e-10
 60.44203   -147.4 9.439e+03 2.378e-10
 60.48201   -147.7 9.442e+03 2.372e-10
 60.52198   -147.9 9.451e+03 2.398e-10
 60.56196   -148.1 9.424e+03 2.395e-10
 60.59212   -148.1 9.327e+03 2.210e-10
 60.61211   -148.3 9.307e+03 2.237e-10
 60.64191   -148.0 9.151e+03 1.910e-10
 60.68189   -147.6 8.991e+03 1.549e-10
 60.72187   -147.3 8.860e+03 1.264e-10
 60.76185   -147.0 8.803e+03 1.118e-10
 60.78400   -146.8 8.796e+03 1.088e-10
 60.80399   -146.8 8.768e+03 1.028e-10
 60.84180   -146.7 8.790e+03 1.030e-10
 60.88178   -146.6 8.923e+03 1.167e-10
 60.92175   -146.6 9.061e+03 1.443e-10
 60.95590   -146.4 9.194e+03 1.747e-10
 60.97589   -146.4 9.097e+03 1.539e-10
 61.00171   -146.1 9.227e+03 1.811e-10
 61.04168   -145.7 9.341e+03 2.009e-10
 61.08166   -145.4 9.382e+03 2.066e-10
 61.12164   -145.0 9.384e+03 2.030e-10
 61.14778   -144.4 9.308e+03 1.785e-10
 61.16777   -144.1 9.305e+03 1.795e-10
 61.20159   -143.6 9.274e+03 1.600e-10
 61.24157   -143.4 9.271e+03 1.467e-10
 61.28154   -143.3 9.283e+03 1.423e-10
 61.31968   -143.5 9.398e+03 1.485e-10
 61.33967   -143.5 9.782e+03 2.193e-10
 61.36150   -143.8 1.005e+04 2.931e-10
 61.40148   -144.0 1.025e+04 3.795e-10
 61.44145   -144.2 1.033e+04 4.346e-10
 61.48143   -144.3 1.033e+04 4.475e-10
 61.51156   -144.3 1.025e+04 4.359e-10
 61.53155   -144.3 1.036e+04 4.785e-10
 61.56138   -144.1 1.026e+04 4.424e-10
 61.60136   -144.0 1.021e+04 4.198e-10
 61.64134   -144.1 1.017e+04 4.049e-10
 61.68131   -144.9 1.041e+04 4.183e-10
 61.70345   -146.9 1.132e+04 5.795e-10
 61.72344   -149.4 1.218e+04 9.591e-10
 61.75118   -151.0 1.248e+04 1.177e-09
 61.77107   -152.3 1.283e+04 1.545e-09
 61.78920   -153.2 1.311e+04 1.937e-09
 61.79919   -154.0 1.341e+04 2.241e-09
 61.81104   -155.0 1.377e+04 2.574e-09
 61.83103   -156.2 1.389e+04 2.691e-09
 61.85102   -157.4 1.382e+04 2.661e-09
 61.87101   -158.4 1.348e+04 2.286e-09
 61.88514   -159.5 1.304e+04 1.762e-09
 61.89514   -161.1 1.289e+04 1.577e-09
 61.91099   -162.2 1.242e+04 1.202e-09
 61.93097   -163.5 1.209e+04 9.838e-10
 61.96105   -165.2 1.175e+04 8.172e-10
 62.00113   -165.5 1.145e+04 7.034e-10
 62.04111   -166.1 1.133e+04 6.632e-10
 62.06723   -166.7 1.135e+04 6.747e-10
 62.08722   -169.5 1.152e+04 6.884e-10
 62.12106   -170.1 1.199e+04 8.708e-10
 62.16104   -170.1 1.241e+04 1.138e-09
 62.20101   -169.9 1.273e+04 1.388e-09
 62.23912   -169.9 1.289e+04 1.529e-09
 62.25911   -172.7 1.253e+04 1.307e-09
 62.28097   -172.6 1.262e+04 1.370e-09
 62.32094   -172.9 1.271e+04 1.415e-09
 62.34496   -173.0 1.267e+04 1.399e-09
 62.35486   -174.3 1.262e+04 1.381e-09
 62.37072   -174.5 1.259e+04 1.376e-09
 62.39071   -175.2 1.257e+04 1.386e-09
 62.41070   -175.6 1.253e+04 1.394e-09
 62.43069   -175.9 1.249e+04 1.398e-09
 62.44081   -176.2 1.240e+04 1.366e-09
 62.45080   -177.2 1.194e+04 1.081e-09
 62.47066   -177.2 1.169e+04 9.774e-10
 62.49065   -177.1 1.137e+04 8.321e-10
 62.51064   -176.9 1.098e+04 6.756e-10
 62.52676   -176.5 1.059e+04 5.379e-10
 62.53675   -176.8 1.008e+04 3.876e-10
 62.55062   -176.0 9.913e+03 3.389e-10
 62.57061   -175.4 9.850e+03 3.226e-10
 62.60069   -174.0 9.875e+03 3.231e-10
 62.62289   -172.5 9.900e+03 3.189e-10
 62.64288   -173.7 9.693e+03 2.686e-10
 62.68074   -172.3 9.806e+03 2.789e-10
 62.72071   -171.2 1.011e+04 3.263e-10
 62.75060   -171.3 1.040e+04 3.918e-10
 62.77049   -171.3 1.046e+04 4.116e-10
 62.79048   -171.4 1.077e+04 5.155e-10
 62.80459   -171.7 1.116e+04 6.339e-10
 62.81458   -173.4 1.135e+04 6.616e-10
 62.83046   -174.3 1.197e+04 8.581e-10
 62.85044   -175.1 1.261e+04 1.120e-09
 62.87043   -175.8 1.317e+04 1.450e-09
 62.89042   -176.4 1.359e+04 1.812e-09
 62.90053   -176.8 1.386e+04 2.124e-09
 62.90368   -179.1 1.414e+04 2.409e-09
 62.91356   -180.0 1.410e+04 2.420e-09
 62.93040   -181.1 1.443e+04 2.608e-09
 62.95039   -184.4 1.578e+04 3.068e-09
 62.97037   -189.5 1.840e+04 4.658e-09
 62.98648   -194.1 2.027e+04 8.644e-09
 62.99647   -195.0 1.924e+04 8.210e-09
 63.01035   -197.5 1.977e+04 1.233e-08
 63.02529   -198.1 2.000e+04 1.411e-08
 63.03435   -198.7 2.004e+04 1.432e-08
 63.03935   -198.7 1.953e+04 1.296e-08
 63.04523   -199.7 1.943e+04 1.258e-08
 63.05523   -200.4 1.936e+04 1.269e-08
 63.06522   -200.9 1.880e+04 1.239e-08
 63.07522   -201.2 1.832e+04 1.134e-08
 63.08232   -201.6 1.783e+04 9.782e-09
 63.08732   -202.0 1.764e+04 9.002e-09
 63.09520   -202.6 1.708e+04 7.702e-09
 63.10520   -203.3 1.644e+04 6.427e-09
 63.11519   -204.1 1.579e+04 5.454e-09
 63.13023   -204.8 1.526e+04 4.747e-09
 63.15027   -205.0 1.464e+04 3.836e-09
 63.16837   -204.9 1.361e+04 2.662e-09
 63.17836   -205.3 1.396e+04 3.113e-09
 63.19025   -205.0 1.310e+04 2.235e-09
 63.21024   -205.0 1.279e+04 1.762e-09
 63.23022   -205.8 1.290e+04 1.665e-09
 63.25021   -211.6 1.711e+04 1.602e-09
 63.26431   -219.8 2.267e+04 3.727e-09
 63.27430   -218.6 2.114e+04 3.647e-09
 63.29019   -223.6 2.196e+04 9.528e-09
 63.30513   -225.1 2.209e+04 1.518e-08
 63.31218   -225.7 2.237e+04 1.953e-08
 63.31718   -225.5 2.200e+04 1.684e-08
 63.32507   -226.5 2.228e+04 2.246e-08
 63.33507   -227.6 2.220e+04 2.654e-08
 63.34506   -229.0 2.208e+04 2.778e-08
 63.35505   -230.4 2.143e+04 2.717e-08
 63.36016   -231.8 2.058e+04 2.114e-08
 63.36515   -232.2 2.045e+04 1.971e-08
 63.37504   -233.9 1.951e+04 1.363e-08
 63.38504   -236.2 1.832e+04 8.591e-09
 63.39503   -238.9 1.677e+04 5.394e-09
 63.41007   -241.7 1.494e+04 3.636e-09
 63.43011   -243.3 1.415e+04 2.788e-09
 63.44620   -245.3 1.314e+04 1.763e-09
 63.45620   -245.1 1.354e+04 2.389e-09
 63.47009   -246.7 1.263e+04 1.612e-09
 63.49007   -248.0 1.196e+04 1.180e-09
 63.51006   -249.2 1.152e+04 9.563e-10
 63.53005   -250.3 1.121e+04 8.477e-10
 63.54214   -251.3 1.107e+04 8.124e-10
 63.55214   -251.1 1.118e+04 8.929e-10
 63.57003   -252.1 1.100e+04 8.437e-10
 63.59002   -253.0 1.093e+04 8.321e-10
 63.61000   -253.9 1.091e+04 8.303e-10
 63.62809   -254.8 1.089e+04 8.250e-10
 63.63809   -255.0 1.063e+04 7.170e-10
 63.64998   -255.9 1.055e+04 6.954e-10
 63.66997   -256.7 1.043e+04 6.633e-10
 63.68996   -257.5 1.029e+04 6.250e-10
 63.70995   -258.1 1.016e+04 5.889e-10
 63.72403   -258.6 1.007e+04 5.605e-10
 63.73403   -258.4 9.813e+03 4.813e-10
 63.74992   -258.7 9.788e+03 4.641e-10
 63.76991   -258.9 9.793e+03 4.594e-10
 63.78990   -259.2 9.802e+03 4.592e-10
 63.80989   -259.7 9.870e+03 4.611e-10
 63.82988   -259.5 9.769e+03 4.138e-10
 63.84987   -260.0 9.962e+03 4.439e-10
 63.86985   -260.6 1.019e+04 4.994e-10
 63.88984   -261.3 1.045e+04 5.841e-10
 63.90592   -262.1 1.071e+04 6.889e-10
 63.91592   -261.2 1.049e+04 5.841e-10
 63.92982   -262.0 1.081e+04 7.123e-10
 63.94981   -262.8 1.112e+04 8.451e-10
 63.96980   -263.6 1.143e+04 9.593e-10
 63.98979   -264.5 1.165e+04 1.042e-09
 64.00187   -265.5 1.178e+04 1.096e-09
 64.01186   -264.4 1.185e+04 1.154e-09
 64.02976   -265.4 1.194e+04 1.203e-09
 64.04975   -266.4 1.195e+04 1.211e-09
 64.06974   -267.3 1.192e+04 1.172e-09
 64.08781   -268.2 1.171e+04 1.054e-09
 64.09781   -267.1 1.196e+04 1.214e-09
 64.10972   -268.1 1.168e+04 1.041e-09
 64.12970   -269.0 1.131e+04 8.494e-10
 64.14969   -270.0 1.092e+04 6.869e-10
 64.16968   -270.9 1.058e+04 5.697e-10
 64.18376   -271.7 1.033e+04 4.998e-10
 64.19375   -271.2 1.055e+04 5.589e-10
 64.20966   -272.0 1.037e+04 5.092e-10
 64.22965   -272.7 1.027e+04 4.879e-10
 64.24964   -273.3 1.023e+04 4.819e-10
 64.26962   -273.7 1.020e+04 4.930e-10
 64.28961   -273.9 1.019e+04 4.894e-10
 64.30960   -274.3 1.020e+04 4.962e-10
 64.32959   -274.7 1.024e+04 5.131e-10
 64.34958   -275.1 1.034e+04 5.518e-10
 64.36565   -275.6 1.050e+04 6.178e-10
 64.37564   -275.7 1.037e+04 5.555e-10
 64.38955   -276.2 1.060e+04 6.568e-10
 64.40954   -276.5 1.086e+04 7.848e-10
 64.42953   -276.8 1.113e+04 9.220e-10
 64.44952   -277.0 1.137e+04 1.045e-09
 64.46159   -277.4 1.151e+04 1.124e-09
 64.47158   -277.4 1.138e+04 1.045e-09
 64.48950   -277.9 1.141e+04 1.054e-09
 64.50949   -278.5 1.140e+04 1.049e-09
 64.52947   -279.2 1.131e+04 9.967e-10
 64.54754   -279.9 1.116e+04 9.233e-10
 64.55753   -279.7 1.092e+04 8.122e-10
 64.56945   -280.3 1.078e+04 7.598e-10
 64.58944   -281.0 1.067e+04 7.226e-10
 64.60943   -281.5 1.059e+04 7.006e-10
 64.62942   -282.1 1.055e+04 6.888e-10
 64.64348   -282.8 1.055e+04 6.866e-10
 64.65347   -282.3 1.041e+04 6.383e-10
 64.66939   -282.9 1.043e+04 6.399e-10
 64.68938   -283.8 1.059e+04 6.677e-10
 64.70937   -284.9 1.089e+04 7.347e-10
 64.72936   -285.7 1.118e+04 8.122e-10
 64.75944   -286.8 1.143e+04 8.768e-10
 64.78942   -288.1 1.138e+04 8.407e-10
 64.80931   -289.3 1.178e+04 1.019e-09
 64.82537   -290.6 1.202e+04 1.200e-09
 64.83536   -289.7 1.188e+04 1.086e-09
 64.84929   -290.8 1.208e+04 1.280e-09
 64.86928   -292.0 1.218e+04 1.457e-09
 64.88154   -293.1 1.218e+04 1.542e-09
 64.89153   -293.0 1.233e+04 1.579e-09
 64.90925   -294.0 1.231e+04 1.579e-09
 64.92131   -295.1 1.213e+04 1.500e-09
 64.93131   -294.1 1.225e+04 1.587e-09
 64.94923   -295.0 1.197e+04 1.438e-09
 64.96922   -295.7 1.163e+04 1.237e-09
 64.98921   -296.3 1.127e+04 1.054e-09
 65.00726   -296.8 1.094e+04 8.948e-10
 65.01725   -296.0 1.106e+04 9.317e-10
 65.02919   -296.5 1.076e+04 7.721e-10
 65.04917   -296.9 1.047e+04 6.235e-10
 65.06916   -297.1 1.019e+04 4.951e-10
 65.08915   -297.0 9.936e+03 4.134e-10
 65.11923   -297.2 9.744e+03 3.700e-10
 65.15931   -297.4 9.524e+03 3.355e-10
 65.18935   -297.5 9.326e+03 3.086e-10
 65.20933   -296.1 9.320e+03 3.075e-10
 65.23926   -296.0 9.229e+03 2.948e-10
 65.27924   -295.8 9.199e+03 2.909e-10
 65.31921   -295.6 9.162e+03 2.859e-10
 65.35919   -295.3 9.090e+03 2.734e-10
 65.38123   -295.0 8.985e+03 2.499e-10
 65.40122   -294.3 9.161e+03 2.879e-10
 65.43914   -294.0 9.018e+03 2.551e-10
 65.47912   -293.4 8.860e+03 2.200e-10
 65.51910   -292.9 8.710e+03 1.887e-10
 65.55313   -292.3 8.584e+03 1.648e-10
 65.57311   -291.6 8.697e+03 1.880e-10
 65.59905   -291.0 8.587e+03 1.661e-10
 65.63903   -290.4 8.512e+03 1.518e-10
 65.67901   -289.8 8.476e+03 1.440e-10
 65.71898   -289.1 8.468e+03 1.418e-10
 65.74501   -288.5 8.493e+03 1.427e-10
 65.76500   -287.9 8.485e+03 1.430e-10
 65.79894   -287.2 8.500e+03 1.434e-10
 65.83891   -286.5 8.541e+03 1.484e-10
 65.87889   -285.7 8.600e+03 1.578e-10
 65.91691   -284.7 8.682e+03 1.708e-10
 65.93689   -284.2 8.659e+03 1.661e-10
 65.95884   -283.2 8.740e+03 1.778e-10
 65.99882   -282.2 8.834e+03 1.900e-10
 66.03880   -281.4 8.948e+03 2.035e-10
 66.07877   -280.7 9.070e+03 2.192e-10
 66.10879   -280.1 9.200e+03 2.392e-10
 66.12878   -279.9 9.150e+03 2.282e-10
 66.15873   -279.6 9.324e+03 2.622e-10
 66.19871   -279.3 9.488e+03 3.011e-10
 66.23868   -279.2 9.633e+03 3.397e-10
 66.27866   -279.1 9.749e+03 3.720e-10
 66.30068   -279.1 9.822e+03 3.910e-10
 66.32066   -278.8 9.807e+03 3.847e-10
 66.35861   -278.8 9.819e+03 3.869e-10
 66.39859   -278.8 9.812e+03 3.818e-10
 66.43857   -278.7 9.732e+03 3.446e-10
 66.47257   -278.4 9.616e+03 2.944e-10
 66.49256   -278.1 9.611e+03 2.923e-10
 66.51852   -277.7 9.515e+03 2.539e-10
 66.55850   -277.1 9.502e+03 2.319e-10
 66.59847   -276.4 9.525e+03 2.248e-10
 66.63845   -275.7 9.535e+03 2.239e-10
 66.66446   -275.0 9.681e+03 2.254e-10
 66.68444   -274.9 9.752e+03 2.412e-10
 66.71841   -274.4 9.931e+03 2.514e-10
 66.75838   -273.8 1.010e+04 2.751e-10
 66.79836   -273.3 1.027e+04 3.064e-10
 66.83635   -272.7 1.045e+04 3.401e-10
 66.85634   -272.5 1.051e+04 3.601e-10
 66.85971   -271.9 1.067e+04 3.906e-10
 66.87970   -273.3 1.106e+04 4.937e-10
 66.91829   -272.6 1.112e+04 5.126e-10
 66.95827   -271.7 1.113e+04 5.161e-10
 66.99824   -270.7 1.103e+04 4.818e-10
 67.02824   -269.6 1.088e+04 4.130e-10
 67.04823   -269.2 1.070e+04 3.541e-10
 67.07820   -267.9 1.053e+04 2.983e-10
 67.11817   -266.5 1.044e+04 2.710e-10
 67.15815   -265.2 1.043e+04 2.658e-10
 67.19813   -264.0 1.046e+04 2.713e-10
 67.22012   -263.2 1.081e+04 3.491e-10
 67.24011   -262.4 1.061e+04 2.866e-10
 67.27808   -261.7 1.092e+04 3.953e-10
 67.31806   -261.1 1.115e+04 5.074e-10
 67.35804   -260.6 1.131e+04 5.661e-10
 67.39202   -260.0 1.135e+04 5.706e-10
 67.41201   -259.2 1.102e+04 4.496e-10
 67.43799   -258.3 1.104e+04 4.423e-10
 67.47797   -257.3 1.092e+04 4.133e-10
 67.51794   -256.9 1.091e+04 4.058e-10
 67.54783   -256.2 1.099e+04 4.035e-10
 67.56772   -256.5 1.101e+04 4.169e-10
 67.58371   -256.8 1.108e+04 4.404e-10
 67.59370   -255.9 1.113e+04 4.260e-10
 67.60770   -256.3 1.124e+04 4.528e-10
 67.62768   -256.5 1.137e+04 4.937e-10
 67.64767   -256.7 1.153e+04 5.404e-10
 67.66766   -256.8 1.165e+04 5.925e-10
 67.67965   -256.9 1.177e+04 6.515e-10
 67.68964   -256.3 1.178e+04 6.670e-10
 67.70764   -256.3 1.191e+04 7.476e-10
 67.72763   -256.2 1.205e+04 8.375e-10
 67.74762   -256.1 1.218e+04 9.324e-10
 67.76560   -255.8 1.231e+04 1.026e-09
 67.77559   -255.2 1.235e+04 1.091e-09
 67.78759   -254.9 1.249e+04 1.183e-09
 67.80758   -254.6 1.260e+04 1.261e-09
 67.82757   -254.2 1.267e+04 1.319e-09
 67.84756   -253.9 1.270e+04 1.348e-09
 67.86154   -253.6 1.271e+04 1.355e-09
 67.87153   -253.1 1.284e+04 1.445e-09
 67.88753   -252.8 1.284e+04 1.448e-09
 67.90752   -252.6 1.273e+04 1.402e-09
 67.92751   -252.5 1.253e+04 1.276e-09
 67.94749   -252.3 1.230e+04 1.120e-09
 67.96748   -251.5 1.214e+04 1.039e-09
 67.98748   -251.3 1.190e+04 9.015e-10
 68.00747   -251.2 1.172e+04 8.087e-10
 68.02745   -251.0 1.163e+04 7.685e-10
 68.04343   -250.8 1.161e+04 7.618e-10
 68.05342   -250.2 1.162e+04 7.658e-10
 68.06743   -249.9 1.162e+04 7.641e-10
 68.08742   -249.7 1.166e+04 7.844e-10
 68.10741   -249.5 1.177e+04 8.485e-10
 68.12740   -249.3 1.193e+04 9.385e-10
 68.13937   -249.0 1.211e+04 1.038e-09
 68.14937   -248.5 1.202e+04 1.003e-09
 68.16737   -248.2 1.216e+04 1.100e-09
 68.18736   -247.9 1.229e+04 1.183e-09
 68.20735   -247.7 1.239e+04 1.242e-09
 68.22532   -247.5 1.246e+04 1.268e-09
 68.23531   -246.9 1.233e+04 1.230e-09
 68.24733   -246.7 1.235e+04 1.237e-09
 68.26732   -246.5 1.235e+04 1.232e-09
 68.28730   -246.1 1.229e+04 1.168e-09
 68.30729   -245.8 1.213e+04 1.063e-09
 68.32126   -245.5 1.188e+04 9.523e-10
 68.33126   -244.7 1.188e+04 9.614e-10
 68.34727   -244.3 1.162e+04 8.466e-10
 68.36726   -244.0 1.135e+04 7.300e-10
 68.38725   -243.6 1.106e+04 6.219e-10
 68.40721   -242.9 1.083e+04 5.343e-10
 68.43729   -241.3 1.066e+04 4.606e-10
 68.47739   -240.5 1.056e+04 4.298e-10
 68.50335   -239.2 1.035e+04 3.875e-10
 68.52334   -237.9 1.035e+04 3.794e-10
 68.55734   -236.3 1.015e+04 3.450e-10
 68.59732   -234.7 9.979e+03 3.111e-10
 68.63730   -233.1 9.815e+03 2.821e-10
 68.67524   -231.4 9.648e+03 2.605e-10
 68.69523   -230.3 9.707e+03 2.529e-10
 68.71725   -228.6 9.576e+03 2.386e-10
 68.75723   -226.8 9.470e+03 2.344e-10
 68.79720   -224.8 9.436e+03 2.336e-10
 68.83718   -222.9 9.347e+03 2.413e-10
 68.86713   -221.1 9.365e+03 2.573e-10
 68.88712   -220.2 9.441e+03 2.598e-10
 68.91714   -218.4 9.489e+03 2.773e-10
 68.95711   -216.6 9.496e+03 2.892e-10
 68.99709   -215.0 9.495e+03 2.921e-10
 69.03707   -213.4 9.429e+03 2.861e-10
 69.05901   -211.9 9.359e+03 2.659e-10
 69.07900   -211.3 9.619e+03 3.263e-10
 69.11702   -210.0 9.563e+03 3.082e-10
 69.15700   -208.8 9.481e+03 2.856e-10
 69.19697   -207.8 9.397e+03 2.604e-10
 69.23091   -207.0 9.306e+03 2.345e-10
 69.25090   -206.5 9.446e+03 2.772e-10
 69.27693   -205.7 9.296e+03 2.367e-10
 69.31690   -205.0 9.165e+03 2.017e-10
 69.35688   -204.3 9.057e+03 1.725e-10
 69.39686   -203.5 8.982e+03 1.497e-10
 69.42279   -202.6 8.977e+03 1.348e-10
 69.44278   -201.9 9.034e+03 1.410e-10
 69.47681   -201.0 9.058e+03 1.353e-10
 69.51679   -200.1 9.067e+03 1.346e-10
 69.55677   -199.5 9.174e+03 1.354e-10
 69.59469   -199.2 9.484e+03 1.546e-10
 69.61468   -198.6 9.512e+03 1.556e-10
 69.63672   -198.6 9.773e+03 2.042e-10
 69.67670   -198.6 1.001e+04 2.736e-10
 69.71667   -198.6 1.021e+04 3.406e-10
 69.75665   -198.8 1.032e+04 3.738e-10
 69.78657   -198.9 1.034e+04 3.792e-10
 69.80656   -198.2 1.044e+04 4.264e-10
 69.83660   -198.1 1.043e+04 4.164e-10
 69.87658   -198.0 1.037e+04 3.551e-10
 69.91656   -198.0 1.032e+04 2.948e-10
 69.95654   -198.2 1.035e+04 2.683e-10
 69.97846   -198.4 1.037e+04 2.642e-10
 69.99845   -197.5 1.050e+04 2.992e-10
 70.03649   -197.9 1.059e+04 3.006e-10
 70.07647   -198.4 1.068e+04 3.110e-10
 70.11644   -198.8 1.070e+04 3.149e-10
 70.15035   -199.2 1.064e+04 3.008e-10
 70.17034   -198.3 1.074e+04 3.275e-10
 70.19640   -198.4 1.062e+04 2.725e-10
 70.23637   -198.6 1.053e+04 2.101e-10
 70.27635   -198.8 1.055e+04 1.696e-10
 70.31633   -199.1 1.061e+04 1.579e-10
 70.34224   -199.5 1.064e+04 1.576e-10
 70.36223   -198.6 1.078e+04 1.816e-10
 70.39628   -199.1 1.075e+04 1.796e-10
 70.43626   -199.3 1.065e+04 1.787e-10
 70.47624   -199.3 1.048e+04 1.699e-10
 70.51413   -198.9 1.031e+04 1.498e-10
 70.53412   -197.9 1.023e+04 1.407e-10
 70.55619   -196.9 1.008e+04 1.180e-10
 70.59617   -195.7 9.997e+03 1.028e-10
 70.63614   -194.4 9.967e+03 9.673e-11
 70.67612   -193.2 9.956e+03 9.565e-11
 70.70602   -192.0 9.956e+03 9.582e-11
 70.72601   -190.6 9.905e+03 8.678e-11
 70.75607   -189.5 9.924e+03 9.039e-11
 70.79568   -188.4 9.965e+03 9.779e-11
 70.81567   -188.1 1.018e+04 1.293e-10
 70.83603   -187.1 1.021e+04 1.476e-10
 70.87600   -186.3 1.025e+04 1.585e-10
 70.89790   -185.8 1.033e+04 1.637e-10
 70.91789   -184.1 1.023e+04 1.780e-10
 70.95596   -183.8 1.037e+04 1.874e-10
 70.99594   -184.3 1.114e+04 2.296e-10
 71.03591   -185.7 1.212e+04 4.828e-10
 71.06980   -187.0 1.273e+04 1.025e-09
 71.08979   -184.5 1.245e+04 8.065e-10
 71.11587   -186.0 1.286e+04 1.323e-09
 71.15584   -187.7 1.291e+04 1.594e-09
 71.19582   -189.2 1.282e+04 1.620e-09
 71.23580   -189.9 1.214e+04 1.347e-09
 71.26168   -190.1 1.149e+04 9.262e-10
 71.28167   -187.9 1.173e+04 9.954e-10
 71.31575   -188.0 1.120e+04 7.240e-10
 71.35573   -187.9 1.080e+04 5.694e-10
 71.39570   -187.6 1.052e+04 4.958e-10
 71.43358   -187.1 1.026e+04 4.549e-10
 71.45357   -185.2 1.049e+04 4.830e-10
 71.47566   -184.7 1.021e+04 4.387e-10
 71.51564   -183.8 9.903e+03 3.795e-10
 71.55561   -182.5 9.585e+03 3.063e-10
 71.59559   -181.0 9.293e+03 2.364e-10
 71.62547   -179.4 9.072e+03 1.793e-10
 71.64545   -178.0 9.255e+03 2.205e-10
 71.67554   -176.3 9.108e+03 1.773e-10
 71.71552   -174.7 9.031e+03 1.448e-10
 71.75550   -173.1 8.984e+03 1.203e-10
 71.79547   -171.5 8.932e+03 1.025e-10
 71.81735   -169.8 8.866e+03 9.154e-11
 71.83734   -168.4 8.970e+03 1.189e-10
 71.87543   -166.7 8.896e+03 1.056e-10
 71.91540   -164.9 8.857e+03 9.960e-11
 71.95538   -163.1 8.849e+03 9.817e-11
 71.98925   -161.3 8.854e+03 9.884e-11
 72.00923   -160.0 8.911e+03 1.082e-10
 72.03533   -158.2 8.919e+03 1.067e-10
 72.07531   -156.5 8.918e+03 1.048e-10
 72.11529   -154.7 8.905e+03 1.009e-10
 72.15527   -152.9 8.876e+03 9.423e-11
 72.18113   -151.0 8.852e+03 8.575e-11
 72.20112   -150.1 8.904e+03 8.755e-11
 72.23522   -148.3 8.889e+03 7.843e-11
 72.27520   -146.5 8.902e+03 7.091e-11
 72.31517   -144.8 8.952e+03 6.700e-11
 72.35303   -143.1 8.971e+03 6.624e-11
 72.37301   -142.5 8.971e+03 6.602e-11
 72.39513   -141.0 9.036e+03 6.679e-11
 72.43510   -139.6 9.150e+03 7.284e-11
 72.47508   -138.3 9.240e+03 8.051e-11
 72.51506   -136.9 9.310e+03 8.552e-11
 72.54491   -135.6 9.359e+03 8.729e-11
 72.56490   -134.9 9.329e+03 8.486e-11
 72.59501   -133.6 9.380e+03 8.370e-11
 72.63499   -132.4 9.423e+03 8.285e-11
 72.67497   -131.8 9.532e+03 8.313e-11
 72.71494   -131.6 1.009e+04 9.473e-11
 72.73680   -131.6 1.037e+04 1.644e-10
 72.75678   -130.4 1.015e+04 1.198e-10
 72.79490   -130.2 1.020e+04 1.949e-10
 72.83487   -129.5 1.026e+04 2.832e-10
 72.87485   -128.6 1.030e+04 3.383e-10
 72.90869   -127.6 1.030e+04 3.501e-10
 72.92868   -126.7 1.014e+04 2.458e-10
 72.95480   -125.6 1.013e+04 2.465e-10
 72.99478   -124.5 1.011e+04 2.176e-10
 73.03476   -123.3 1.015e+04 1.823e-10
 73.07473   -122.2 1.023e+04 1.579e-10
 73.10058   -121.0 1.031e+04 1.431e-10
 73.12056   -120.4 1.017e+04 9.600e-11
 73.15469   -119.3 1.023e+04 9.208e-11
 73.19467   -118.1 1.025e+04 9.168e-11
 73.23464   -117.0 1.038e+04 9.800e-11
 73.27247   -115.9 1.046e+04 1.138e-10
 73.29246   -115.5 1.035e+04 1.035e-10
 73.31460   -114.5 1.049e+04 1.220e-10
 73.35457   -113.5 1.055e+04 1.377e-10
 73.39455   -112.6 1.055e+04 1.513e-10
 73.43453   -111.7 1.053e+04 1.667e-10
 73.46436   -110.6 1.059e+04 1.879e-10
 73.48435   -110.7 1.060e+04 1.741e-10
 73.51448   -110.0 1.067e+04 1.895e-10
 73.55446   -109.9 1.083e+04 2.213e-10
 73.59443   -110.3 1.113e+04 3.102e-10
 73.63441   -111.2 1.176e+04 5.456e-10
 73.65624   -112.2 1.250e+04 1.034e-09
 73.67623   -112.1 1.192e+04 8.894e-10
 73.71437   -112.7 1.223e+04 1.258e-09
 73.75434   -113.2 1.230e+04 1.374e-09
 73.79432   -113.4 1.213e+04 1.325e-09
 73.82814   -112.9 1.161e+04 8.964e-10
 73.84813   -112.5 1.094e+04 5.675e-10
 73.87427   -111.6 1.054e+04 3.416e-10
 73.91425   -110.3 1.028e+04 2.089e-10
 73.95423   -108.8 1.018e+04 1.397e-10
 73.99420   -107.0 1.013e+04 1.072e-10
 74.02002   -105.1 1.012e+04 9.613e-11
 74.04001   -104.8 1.018e+04 1.072e-10
 74.07416   -102.6 1.019e+04 1.056e-10
 74.11413   -100.5 1.029e+04 1.064e-10
 74.15411    -98.5 1.042e+04 1.245e-10
 74.19192    -96.5 1.040e+04 1.637e-10
 74.21191    -96.1 1.028e+04 1.990e-10
 74.23407    -93.8 1.036e+04 2.499e-10
 74.27404    -91.4 1.043e+04 3.062e-10
 74.31402    -88.9 1.050e+04 3.566e-10
 74.35400    -86.4 1.060e+04 3.954e-10
 74.38380    -83.9 1.074e+04 4.284e-10
 74.40379    -84.1 1.098e+04 3.508e-10
 74.43395    -82.0 1.120e+04 3.999e-10
 74.47393    -80.0 1.144e+04 4.721e-10
 74.51390    -78.2 1.176e+04 5.858e-10
 74.55388    -76.6 1.215e+04 7.753e-10
 74.57569    -75.3 1.260e+04 1.068e-09
 74.59568    -76.1 1.242e+04 1.113e-09
 74.63383    -74.7 1.295e+04 1.557e-09
 74.67381    -73.2 1.337e+04 1.990e-09
 74.71379    -71.9 1.348e+04 2.133e-09
 74.74758    -70.5 1.333e+04 2.012e-09
 74.76544    -70.4 1.260e+04 1.576e-09
 74.77162    -71.4 1.181e+04 8.355e-10
 74.79374    -69.5 1.139e+04 5.559e-10
 74.83372    -67.7 1.106e+04 3.929e-10
 74.87370    -65.7 1.084e+04 3.104e-10
 74.91367    -63.6 1.071e+04 2.705e-10
 74.93947    -61.4 1.064e+04 2.552e-10
 74.95946    -60.7 1.049e+04 2.411e-10
 74.99363    -58.5 1.039e+04 2.291e-10
 75.03360    -56.4 1.029e+04 2.173e-10
 75.07358    -54.2 1.024e+04 2.090e-10
 75.11136    -52.2 1.023e+04 2.071e-10
 75.13135    -51.5 9.956e+03 1.840e-10
 75.15353    -49.4 9.932e+03 1.822e-10
 75.19351    -47.5 9.927e+03 1.851e-10
 75.23349    -45.6 9.918e+03 1.928e-10
 75.27346    -43.8 9.912e+03 2.009e-10
 75.30325    -42.1 9.911e+03 2.091e-10
 75.32324    -40.9 9.771e+03 1.976e-10
 75.35342    -39.2 9.749e+03 1.995e-10
 75.39340    -37.5 9.731e+03 2.110e-10
 75.43337    -36.0 9.929e+03 2.426e-10
 75.47335    -34.6 1.027e+04 3.084e-10
 75.49513    -33.0 1.049e+04 4.018e-10
 75.51512    -31.6 9.997e+03 2.907e-10
 75.55330    -29.7 1.017e+04 3.728e-10
 75.59328    -27.6 1.016e+04 4.323e-10
 75.63326    -25.4 1.010e+04 4.432e-10
 75.66703    -23.6 1.005e+04 4.068e-10
 75.68702    -22.6 1.004e+04 4.411e-10
 75.71321    -21.1 1.000e+04 4.453e-10
 75.75319    -19.8 9.871e+03 4.157e-10
 75.79316    -18.1 9.706e+03 3.537e-10
 75.83314    -16.6 9.377e+03 2.555e-10
 75.85891    -15.1 9.060e+03 1.797e-10
 75.87890    -13.8 9.215e+03 2.089e-10
 75.91310    -12.7 8.797e+03 1.246e-10
 75.95307    -11.6 8.538e+03 8.659e-11
 75.99305    -10.6 8.363e+03 7.331e-11
 76.03081     -9.5 8.322e+03 7.234e-11
 76.05080     -9.2 8.321e+03 7.892e-11
 76.07300     -8.0 8.323e+03 1.046e-10
 76.11298     -6.1 8.433e+03 1.402e-10
 76.15296     -4.5 8.675e+03 1.737e-10
 76.19293     -3.3 8.916e+03 2.079e-10
 76.22269     -2.3 8.974e+03 2.391e-10
 76.24268     -2.5 9.106e+03 3.028e-10
 76.27289     -0.8 9.108e+03 3.368e-10
 76.31286      1.2 9.031e+03 2.982e-10
 76.35284      3.2 8.953e+03 2.123e-10
 76.39282      4.5 8.649e+03 1.490e-10
 76.41458      5.8 8.417e+03 1.320e-10
 76.43457      6.1 8.507e+03 1.531e-10
 76.47277      7.3 8.585e+03 1.764e-10
 76.51275      9.2 8.770e+03 2.611e-10
 76.55273     11.7 9.077e+03 3.949e-10
 76.58647     14.6 9.434e+03 4.965e-10
 76.60646     15.1 9.555e+03 5.153e-10
 76.63268     17.5 9.658e+03 5.163e-10
 76.67266     19.6 9.789e+03 4.995e-10
 76.71263     21.1 1.017e+04 5.557e-10
 76.73950     21.9 1.004e+04 5.258e-10
 76.74940     21.5 1.046e+04 6.346e-10
 76.76241     22.6 1.048e+04 6.558e-10
 76.77816     23.0 1.063e+04 7.210e-10
 76.78816     23.1 1.085e+04 7.943e-10
 76.80239     23.7 1.092e+04 9.041e-10
 76.82238     24.2 1.114e+04 1.091e-09
 76.84236     24.7 1.149e+04 1.342e-09
 76.86235     25.2 1.189e+04 1.593e-09
 76.87411     25.9 1.225e+04 1.800e-09
 76.88410     26.1 1.250e+04 2.356e-09
 76.90233     26.9 1.287e+04 2.440e-09
 76.92232     27.5 1.294e+04 2.403e-09
 76.94231     27.7 1.304e+04 2.252e-09
 76.96005     28.0 1.299e+04 2.156e-09
 76.97005     28.7 1.322e+04 2.445e-09
 76.98228     28.8 1.309e+04 2.239e-09
 77.00227     29.0 1.292e+04 2.126e-09
 77.03235     29.8 1.248e+04 1.834e-09
 77.07243     30.9 1.219e+04 1.698e-09
 77.11240     32.3 1.187e+04 1.501e-09
 77.14214     34.1 1.143e+04 1.170e-09
 77.16213     34.6 1.158e+04 1.268e-09
 77.19236     36.4 1.122e+04 1.007e-09
 77.23233     38.4 1.089e+04 7.363e-10
 77.27231     40.2 1.061e+04 5.539e-10
 77.31229     42.1 1.041e+04 4.441e-10
 77.33402     44.2 1.021e+04 3.811e-10
 77.35401     44.9 1.021e+04 3.958e-10
 77.39224     47.1 1.004e+04 3.388e-10
 77.43222     49.2 9.931e+03 2.966e-10
 77.47220     51.1 9.897e+03 2.681e-10
 77.50592     52.8 9.999e+03 2.568e-10
 77.52591     53.3 1.002e+04 2.997e-10
 77.55215     54.8 1.006e+04 3.061e-10
 77.59213     55.8 1.009e+04 3.157e-10
 77.63210     56.9 1.006e+04 3.387e-10
 77.67208     58.3 9.971e+03 3.615e-10
 77.69780     60.2 9.883e+03 3.734e-10
 77.71779     60.6 1.004e+04 4.139e-10
 77.75203     62.7 1.007e+04 4.071e-10
 77.79201     65.0 1.008e+04 4.048e-10
 77.83199     67.5 1.006e+04 4.041e-10
 77.86970     70.1 1.006e+04 4.026e-10
 77.88969     70.3 1.016e+04 4.016e-10
 77.91194     72.8 1.016e+04 3.972e-10
 77.95192     75.2 1.016e+04 3.896e-10
 77.99190     77.6 1.018e+04 3.799e-10
 78.03187     79.9 1.019e+04 3.760e-10
 78.06159     82.1 1.019e+04 3.736e-10
 78.08157     82.2 1.020e+04 3.717e-10
 78.11183     84.3 1.019e+04 3.695e-10
 78.15180     86.4 1.014e+04 3.656e-10
 78.19178     88.8 1.013e+04 3.673e-10
 78.23176     91.1 1.016e+04 3.802e-10
 78.25347     93.7 1.029e+04 4.187e-10
 78.27346     93.7 1.014e+04 4.023e-10
 78.31171     95.8 1.027e+04 4.376e-10
 78.35169     98.1 1.042e+04 4.795e-10
 78.38157     99.1 1.044e+04 4.882e-10
 78.40146    100.0 1.047e+04 4.983e-10
 78.42145    100.8 1.053e+04 5.200e-10
 78.43516    101.6 1.060e+04 5.483e-10
 78.44516    101.6 1.047e+04 5.036e-10
 78.46143    102.3 1.055e+04 5.361e-10
 78.48142    102.9 1.062e+04 5.706e-10
 78.50141    103.4 1.068e+04 6.029e-10
 78.52111    104.0 1.071e+04 6.342e-10
 78.53111    104.0 1.060e+04 6.006e-10
 78.54138    104.6 1.062e+04 6.278e-10
 78.56137    105.2 1.066e+04 6.531e-10
 78.58136    105.8 1.072e+04 6.764e-10
 78.60135    106.3 1.077e+04 6.965e-10
 78.61715    107.6 1.072e+04 6.725e-10
 78.63724    107.8 1.067e+04 6.639e-10
 78.67150    109.1 1.062e+04 6.410e-10
 78.70758    110.3 1.037e+04 5.269e-10
 78.72757    109.5 1.007e+04 4.116e-10
 78.75146    110.6 9.657e+03 2.468e-10
 78.78915    111.4 9.320e+03 1.320e-10
 78.80913    111.8 9.391e+03 1.597e-10
 78.83141    112.5 9.100e+03 9.599e-11
 78.87139    113.3 8.916e+03 8.161e-11
 78.91136    114.5 8.918e+03 8.214e-11
 78.95134    115.8 8.955e+03 8.658e-11
 78.98103    116.9 9.056e+03 1.047e-10
 79.00102    117.0 9.288e+03 1.698e-10
 79.03129    117.9 9.467e+03 2.280e-10
 79.07127    118.8 9.677e+03 3.060e-10
 79.11125    119.7 9.903e+03 3.923e-10
 79.15123    120.5 1.010e+04 4.634e-10
 79.17292    121.1 1.025e+04 4.916e-10
 79.19290    121.1 1.016e+04 3.948e-10
 79.23118    121.5 1.017e+04 3.387e-10
 79.27116    121.8 1.010e+04 2.773e-10
 79.31113    122.0 9.967e+03 2.405e-10
 79.34481    122.4 9.932e+03 2.410e-10
 79.36480    122.6 9.855e+03 2.281e-10
 79.39109    123.0 9.966e+03 2.741e-10
 79.43106    123.2 1.022e+04 3.697e-10
 79.47104    123.2 1.054e+04 5.041e-10
 79.51102    123.1 1.090e+04 6.599e-10
 79.53670    123.0 1.117e+04 7.676e-10
 79.55668    123.3 1.129e+04 7.839e-10
 79.59097    122.8 1.138e+04 7.848e-10
 79.63095    122.4 1.143e+04 7.747e-10
 79.67093    121.9 1.149e+04 7.671e-10
 79.70081    121.4 1.156e+04 7.808e-10
 79.71839    121.0 1.163e+04 7.947e-10
 79.72848    121.0 1.152e+04 7.201e-10
 79.75088    119.6 1.180e+04 8.297e-10
 79.79086    117.3 1.232e+04 1.119e-09
 79.83083    114.1 1.300e+04 1.625e-09
 79.87081    110.8 1.323e+04 1.777e-09
 79.90048    108.0 1.299e+04 1.576e-09
 79.92046    107.3 1.278e+04 1.369e-09
 79.95076    106.4 1.210e+04 8.623e-10
 79.99074    106.2 1.151e+04 4.783e-10
 80.03072    106.0 1.110e+04 2.786e-10
 80.07069    106.2 1.071e+04 2.272e-10
 80.09236    107.4 1.065e+04 2.270e-10
 80.11235    107.9 1.085e+04 3.457e-10
 80.15065    109.7 1.082e+04 3.525e-10
 80.19063    111.6 1.081e+04 3.613e-10
 80.23060    113.5 1.082e+04 3.687e-10
 80.26426    115.4 1.084e+04 3.751e-10
 80.28425    115.7 1.097e+04 3.973e-10
 80.31056    117.6 1.094e+04 3.816e-10
 80.35053    119.4 1.094e+04 3.875e-10
 80.39051    121.1 1.096e+04 4.029e-10
 80.43049    122.8 1.100e+04 4.033e-10
 80.45614    124.4 1.102e+04 3.983e-10
 80.47613    124.6 1.089e+04 2.887e-10
 80.51044    125.9 1.090e+04 2.650e-10
 80.55042    126.9 1.085e+04 2.354e-10
 80.59039    127.5 1.073e+04 2.101e-10
 80.62804    127.9 1.057e+04 1.996e-10
 80.64803    127.7 1.060e+04 2.053e-10
 80.67035    128.1 1.057e+04 2.186e-10
 80.71033    128.6 1.057e+04 2.394e-10
 80.75030    129.1 1.061e+04 2.633e-10
 80.79028    129.6 1.071e+04 2.964e-10
 80.81992    129.9 1.084e+04 3.349e-10
 80.83991    130.3 1.088e+04 3.481e-10
 80.87023    130.5 1.115e+04 4.288e-10
 80.90012    130.4 1.129e+04 5.000e-10
 80.91567    130.4 1.148e+04 5.933e-10
 80.92566    130.6 1.145e+04 5.850e-10
 80.94000    130.7 1.166e+04 7.172e-10
 80.95999    130.7 1.193e+04 8.844e-10
 80.97997    130.8 1.220e+04 1.074e-09
 80.99996    130.8 1.244e+04 1.271e-09
 81.01161    130.9 1.264e+04 1.446e-09
 81.02161    131.2 1.274e+04 1.548e-09
 81.03994    131.2 1.294e+04 1.700e-09
 81.05993    131.2 1.306e+04 1.716e-09
 81.07992    131.0 1.305e+04 1.696e-09
 81.09756    130.7 1.300e+04 1.601e-09
 81.10755    131.2 1.332e+04 1.916e-09
 81.11989    131.0 1.317e+04 1.737e-09
 81.13988    131.0 1.289e+04 1.440e-09
 81.15987    130.9 1.259e+04 1.128e-09
 81.17986    130.9 1.232e+04 8.738e-10
 81.19350    131.0 1.208e+04 6.668e-10
 81.20350    131.8 1.232e+04 8.694e-10
 81.21984    131.8 1.206e+04 6.668e-10
 81.23982    131.7 1.180e+04 5.437e-10
 81.25981    132.2 1.166e+04 5.293e-10
 81.27945    132.5 1.166e+04 5.311e-10
 81.28944    133.2 1.179e+04 5.701e-10
 81.30988    133.7 1.154e+04 5.378e-10
 81.34996    134.8 1.151e+04 5.698e-10
 81.37559    135.5 1.155e+04 5.832e-10
 81.39558    136.5 1.165e+04 5.939e-10
 81.42991    137.2 1.156e+04 5.731e-10
 81.46989    137.6 1.148e+04 5.150e-10
 81.50986    137.9 1.144e+04 4.363e-10
 81.54748    138.0 1.144e+04 3.663e-10
 81.56747    139.4 1.149e+04 3.866e-10
 81.58982    139.4 1.149e+04 3.302e-10
 81.62979    139.4 1.148e+04 2.912e-10
 81.66977    139.4 1.144e+04 2.603e-10
 81.70975    139.6 1.137e+04 2.313e-10
 81.73937    139.9 1.125e+04 2.056e-10
 81.75936    141.2 1.121e+04 2.457e-10
 81.78970    141.5 1.116e+04 2.477e-10
 81.82968    142.1 1.110e+04 2.615e-10
 81.86966    142.8 1.110e+04 3.097e-10
 81.90963    143.6 1.124e+04 4.052e-10
 81.93125    144.5 1.149e+04 5.483e-10
 81.95124    145.5 1.162e+04 6.832e-10
 81.98959    146.2 1.191e+04 8.519e-10
 82.02956    146.6 1.204e+04 8.921e-10
 82.06954    147.0 1.201e+04 8.660e-10
 82.10315    147.7 1.186e+04 7.424e-10
 82.12314    148.4 1.182e+04 7.427e-10
 82.14949    149.5 1.156e+04 5.622e-10
 82.18947    150.7 1.132e+04 3.919e-10
 82.22945    151.9 1.114e+04 2.790e-10
 82.26942    153.0 1.099e+04 2.230e-10
 82.29503    154.4 1.094e+04 2.049e-10
 82.31502    155.1 1.085e+04 2.069e-10
 82.34938    156.6 1.081e+04 2.040e-10
 82.38936    158.1 1.081e+04 2.020e-10
 82.42933    159.7 1.082e+04 1.997e-10
 82.46693    161.2 1.084e+04 1.971e-10
 82.48692    162.0 1.082e+04 2.230e-10
 82.50929    163.5 1.087e+04 2.416e-10
 82.54926    165.1 1.092e+04 2.638e-10
 82.58924    166.7 1.095e+04 2.879e-10
 82.62922    168.3 1.098e+04 3.156e-10
 82.65881    169.9 1.103e+04 3.533e-10
 82.67315    170.7 1.144e+04 5.637e-10
 82.68353    171.1 1.151e+04 5.919e-10
 82.70917    172.7 1.164e+04 6.425e-10
 82.74915    174.1 1.176e+04 6.902e-10
 82.78912    175.4 1.187e+04 7.269e-10
 82.82910    176.4 1.192e+04 7.360e-10
 82.85070    177.3 1.192e+04 7.158e-10
 82.87069    177.5 1.197e+04 7.384e-10
 82.90906    178.3 1.182e+04 6.348e-10
 82.94903    179.3 1.159e+04 5.159e-10
 82.98901    180.5 1.134e+04 4.048e-10
 83.02259    182.0 1.114e+04 3.290e-10
 83.04258    182.3 1.107e+04 3.163e-10
 83.06896    184.1 1.101e+04 3.029e-10
 83.10894    186.1 1.104e+04 3.057e-10
 83.14892    188.2 1.109e+04 3.177e-10
 83.18889    190.3 1.112e+04 3.310e-10
 83.21448    192.3 1.114e+04 3.414e-10
 83.23447    192.9 1.120e+04 4.240e-10
 83.26885    194.9 1.119e+04 4.271e-10
 83.30882    196.8 1.119e+04 4.294e-10
 83.34880    198.6 1.122e+04 4.362e-10
 83.38637    200.2 1.134e+04 4.575e-10
 83.40636    200.8 1.110e+04 4.056e-10
 83.42876    202.2 1.109e+04 3.816e-10
 83.46873    203.3 1.108e+04 3.612e-10
 83.50871    204.2 1.107e+04 3.500e-10
 83.54869    205.2 1.103e+04 3.423e-10
 83.57826    206.4 1.103e+04 3.464e-10
 83.59825    207.1 1.064e+04 2.739e-10
 83.62864    208.2 1.075e+04 2.992e-10
 83.66862    209.1 1.099e+04 3.478e-10
 83.69850    209.5 1.111e+04 3.775e-10
 83.71839    209.7 1.127e+04 4.230e-10
 83.73838    209.8 1.147e+04 4.918e-10
 83.75837    209.9 1.163e+04 5.665e-10
 83.76995    209.8 1.179e+04 6.205e-10
 83.77994    210.7 1.168e+04 5.884e-10
 83.79835    210.6 1.183e+04 6.276e-10
 83.81834    210.4 1.197e+04 6.405e-10
 83.83832    210.2 1.204e+04 6.414e-10
 83.85590    209.9 1.209e+04 6.424e-10
 83.86589    210.7 1.205e+04 6.393e-10
 83.87830    210.4 1.214e+04 6.462e-10
 83.89829    210.0 1.227e+04 6.661e-10
 83.91828    209.6 1.241e+04 7.044e-10
 83.93827    209.1 1.256e+04 7.609e-10
 83.95184    208.6 1.267e+04 8.278e-10
 83.96183    209.1 1.267e+04 8.224e-10
 83.97824    208.4 1.274e+04 8.860e-10
 83.99823    207.7 1.282e+04 9.382e-10
 84.01822    206.4 1.316e+04 1.022e-09
 84.03779    204.2 1.391e+04 1.259e-09
 84.04778    205.7 1.335e+04 1.066e-09
 84.05820    203.3 1.408e+04 1.353e-09
 84.07818    200.8 1.472e+04 1.931e-09
 84.09817    198.6 1.494e+04 2.651e-09
 84.11816    196.8 1.482e+04 2.866e-09
 84.13373    195.2 1.467e+04 2.641e-09
 84.14372    196.5 1.454e+04 2.444e-09
 84.15814    195.0 1.423e+04 2.179e-09
 84.17813    193.9 1.363e+04 1.343e-09
 84.19812    193.3 1.311e+04 9.146e-10
 84.21810    192.8 1.239e+04 4.995e-10
 84.22967    192.1 1.178e+04 3.180e-10
 84.23967    192.8 1.199e+04 3.711e-10
 84.26817    192.4 1.118e+04 2.232e-10
 84.30582    192.7 1.050e+04 1.841e-10
 84.32581    193.5 1.097e+04 2.430e-10
 84.34822    194.0 1.084e+04 2.409e-10
 84.38820    194.9 1.083e+04 2.490e-10
 84.42818    195.9 1.085e+04 2.880e-10
 84.46816    197.0 1.094e+04 3.655e-10
 84.49771    198.1 1.114e+04 4.821e-10
 84.51769    197.8 1.132e+04 5.295e-10
 84.54811    198.4 1.133e+04 5.541e-10
 84.58809    198.8 1.126e+04 5.345e-10
 84.62806    199.1 1.109e+04 4.640e-10
 84.66804    199.5 1.089e+04 3.640e-10
 84.68959    200.1 1.067e+04 2.695e-10
 84.70958    200.0 1.051e+04 2.262e-10
 84.74799    200.8 1.040e+04 1.824e-10
 84.78797    201.7 1.031e+04 1.557e-10
 84.82795    202.7 1.022e+04 1.391e-10
 84.86149    203.9 1.013e+04 1.267e-10
 84.88147    204.0 1.014e+04 1.297e-10
 84.90790    205.3 1.005e+04 1.164e-10
 84.94788    206.8 9.929e+03 1.035e-10
 84.98786    208.3 9.787e+03 9.579e-11
 85.02783    210.0 9.742e+03 9.520e-11
 85.05337    211.8 9.740e+03 9.630e-11
 85.07336    212.1 9.772e+03 9.777e-11
 85.10779    213.8 9.802e+03 1.051e-10
 85.14776    215.4 9.846e+03 1.203e-10
 85.18774    216.9 9.874e+03 1.400e-10
 85.22527    218.4 9.899e+03 1.611e-10
 85.24525    218.6 9.966e+03 1.711e-10
 85.26769    220.2 1.001e+04 1.931e-10
 85.30767    221.7 1.013e+04 2.204e-10
 85.34765    223.2 1.030e+04 2.556e-10
 85.38762    224.3 1.048e+04 2.955e-10
 85.41715    225.1 1.059e+04 3.314e-10
 85.43714    225.0 1.067e+04 3.565e-10
 85.45749    225.7 1.072e+04 3.863e-10
 85.47738    226.6 1.084e+04 4.201e-10
 85.49737    227.5 1.099e+04 4.600e-10
 85.51290    228.2 1.109e+04 4.892e-10
 85.52289    228.7 1.141e+04 6.043e-10
 85.53734    229.0 1.148e+04 6.219e-10
 85.55733    229.3 1.141e+04 6.371e-10
 85.57732    229.4 1.136e+04 6.448e-10
 85.59731    229.5 1.131e+04 6.450e-10
 85.60884    229.5 1.121e+04 6.409e-10
 85.61883    229.5 1.147e+04 7.471e-10
 85.63728    229.4 1.136e+04 7.344e-10
 85.65727    229.3 1.126e+04 7.085e-10
 85.67726    228.9 1.118e+04 6.694e-10
 85.69479    228.5 1.109e+04 6.127e-10
 85.70478    228.5 1.145e+04 7.993e-10
 85.71724    228.0 1.133e+04 7.293e-10
 85.73723    227.4 1.114e+04 6.389e-10
 85.75722    226.8 1.091e+04 5.475e-10
 85.77720    226.2 1.077e+04 4.932e-10
 85.79073    225.7 1.079e+04 4.892e-10
 85.80072    224.2 1.195e+04 8.141e-10
 85.81718    223.1 1.258e+04 9.614e-10
 85.83717    222.1 1.332e+04 1.270e-09
 85.85716    221.3 1.401e+04 1.794e-09
 85.87668    220.8 1.460e+04 2.562e-09
 85.88667    218.9 1.649e+04 6.025e-09
 85.89713    218.8 1.688e+04 7.488e-09
 85.91712    218.8 1.724e+04 8.536e-09
 85.93711    218.5 1.750e+04 8.883e-09
 85.95710    217.9 1.762e+04 8.656e-09
 85.97262    217.1 1.772e+04 7.610e-09
 85.98261    213.9 1.899e+04 7.749e-09
 85.99708    212.5 1.823e+04 6.041e-09
 86.01707    211.1 1.730e+04 4.695e-09
 86.03705    209.8 1.639e+04 3.708e-09
 86.05704    208.9 1.550e+04 3.200e-09
 86.06856    208.5 1.509e+04 3.133e-09
 86.07856    206.2 1.499e+04 3.179e-09
 86.09702    206.6 1.497e+04 3.237e-09
 86.11701    207.1 1.503e+04 3.538e-09
 86.13700    207.6 1.534e+04 4.162e-09
 86.15451    208.2 1.586e+04 5.119e-09
 86.16451    206.1 1.582e+04 4.945e-09
 86.17697    206.8 1.648e+04 6.119e-09
 86.19696    207.3 1.719e+04 7.477e-09
 86.21695    207.8 1.790e+04 8.798e-09
 86.23694    208.1 1.855e+04 9.780e-09
 86.25045    208.1 1.918e+04 1.021e-08
 86.26045    203.4 1.800e+04 5.722e-09
 86.27692    202.4 1.812e+04 5.233e-09
 86.29690    200.9 1.792e+04 4.688e-09
 86.31689    199.2 1.732e+04 4.098e-09
 86.33640    197.4 1.629e+04 3.559e-09
 86.34640    192.1 1.393e+04 2.709e-09
 86.35687    190.8 1.360e+04 2.462e-09
 86.37686    189.7 1.327e+04 2.237e-09
 86.39685    188.6 1.297e+04 2.048e-09
 86.41683    187.7 1.274e+04 1.902e-09
 86.43234    187.0 1.260e+04 1.789e-09
 86.44234    183.8 1.215e+04 1.599e-09
 86.45681    183.4 1.196e+04 1.527e-09
 86.47680    183.1 1.178e+04 1.470e-09
 86.49679    183.1 1.159e+04 1.420e-09
 86.51678    183.2 1.142e+04 1.377e-09
 86.52829    183.5 1.130e+04 1.345e-09
 86.53828    181.4 1.132e+04 1.396e-09
 86.55675    181.8 1.150e+04 1.469e-09
 86.57674    182.1 1.179e+04 1.589e-09
 86.59673    182.3 1.215e+04 1.764e-09
 86.61423    182.7 1.253e+04 1.984e-09
 86.62423    180.1 1.284e+04 2.244e-09
 86.62929    180.6 1.308e+04 2.312e-09
 86.63928    181.1 1.382e+04 2.945e-09
 86.65670    181.6 1.410e+04 2.990e-09
 86.67668    182.1 1.415e+04 2.934e-09
 86.69667    182.7 1.424e+04 2.637e-09
 86.71018    183.2 1.428e+04 2.081e-09
 86.72017    180.0 1.418e+04 1.251e-09
 86.73665    180.1 1.365e+04 8.423e-10
 86.75664    180.5 1.309e+04 5.989e-10
 86.78672    178.4 1.149e+04 3.699e-10
 86.82679    180.0 9.705e+03 2.967e-10
 86.85668    181.4 9.407e+03 2.882e-10
 86.87657    182.9 9.361e+03 2.870e-10
 86.89207    184.5 9.390e+03 2.888e-10
 86.90206    182.2 1.022e+04 3.806e-10
 86.91655    183.3 1.041e+04 4.141e-10
 86.93653    184.3 1.060e+04 4.648e-10
 86.95652    185.3 1.077e+04 5.374e-10
 86.97651    186.2 1.090e+04 6.343e-10
 86.98801    187.0 1.099e+04 7.533e-10
 86.99800    185.2 1.128e+04 1.179e-09
 87.01649    186.4 1.146e+04 1.344e-09
 87.03648    187.7 1.164e+04 1.488e-09
 87.05647    188.8 1.178e+04 1.624e-09
 87.07396    190.0 1.203e+04 1.670e-09
 87.08395    188.4 1.239e+04 1.786e-09
 87.09644    189.3 1.238e+04 1.701e-09
 87.11643    190.0 1.240e+04 1.542e-09
 87.13642    190.5 1.232e+04 1.338e-09
 87.15641    190.8 1.214e+04 1.130e-09
 87.16990    190.9 1.187e+04 9.456e-10
 87.17989    188.2 1.129e+04 7.989e-10
 87.19638    188.4 1.100e+04 7.239e-10
 87.21637    188.7 1.080e+04 6.574e-10
 87.23636    189.2 1.061e+04 6.027e-10
 87.25585    189.7 1.041e+04 5.658e-10
 87.26584    188.4 1.042e+04 6.394e-10
 87.27634    189.2 1.035e+04 6.102e-10
 87.29633    189.9 1.028e+04 5.771e-10
 87.31632    190.6 1.021e+04 5.419e-10
 87.33630    191.2 1.016e+04 5.082e-10
 87.35179    191.8 1.012e+04 4.813e-10
 87.36178    190.8 1.020e+04 5.153e-10
 87.37628    191.5 1.020e+04 5.079e-10
 87.39627    192.2 1.023e+04 5.100e-10
 87.41626    192.6 1.035e+04 5.241e-10
 87.43625    192.5 1.060e+04 5.703e-10
 87.44773    192.2 1.101e+04 6.704e-10
 87.45773    190.7 1.170e+04 9.121e-10
 87.47622    190.1 1.242e+04 1.243e-09
 87.49621    189.4 1.319e+04 1.760e-09
 87.51620    188.7 1.391e+04 2.484e-09
 87.53368    188.0 1.453e+04 3.373e-09
 87.54367    187.5 1.507e+04 4.555e-09
 87.55618    187.0 1.553e+04 5.198e-09
 87.57616    186.3 1.586e+04 5.551e-09
 87.59615    185.2 1.610e+04 5.726e-09
 87.61614    183.5 1.644e+04 5.884e-09
 87.62962    181.1 1.710e+04 6.184e-09
 87.63962    179.4 1.770e+04 6.717e-09
 87.65612    176.1 1.927e+04 8.779e-09
 87.67611    172.7 2.081e+04 1.244e-08
 87.69105    170.5 2.128e+04 1.750e-08
 87.70100    169.1 2.129e+04 2.091e-08
 87.71552    167.5 2.128e+04 1.202e-08
 87.72552    166.4 2.132e+04 2.011e-08
 87.73602    163.2 2.148e+04 8.618e-09
 87.75606    158.0 1.977e+04 4.366e-09
 87.77605    153.1 1.677e+04 4.154e-09
 87.79604    151.0 1.655e+04 4.202e-09
 87.81151    150.3 1.637e+04 4.555e-09
 87.82151    148.4 1.705e+04 6.436e-09
 87.83601    147.9 1.733e+04 7.561e-09
 87.85600    147.1 1.788e+04 9.301e-09
 87.87599    146.3 1.855e+04 1.182e-08
 87.89598    145.3 1.922e+04 1.480e-08
 87.90745    143.7 1.964e+04 1.652e-08
 87.91745    142.0 1.962e+04 1.683e-08
 87.93596    140.0 1.958e+04 1.649e-08
 87.95595    138.2 1.932e+04 1.479e-08
 87.97593    136.3 1.891e+04 1.199e-08
 87.99340    133.8 1.851e+04 1.003e-08
 88.00340    132.3 1.720e+04 6.256e-09
 88.01591    130.0 1.696e+04 6.186e-09
 88.03590    128.0 1.698e+04 6.529e-09
 88.05589    126.3 1.730e+04 8.173e-09
 88.07588    125.3 1.798e+04 1.140e-08
 88.08934    124.9 1.862e+04 1.512e-08
 88.09934    125.1 1.730e+04 8.589e-09
 88.11585    125.0 1.768e+04 9.811e-09
 88.13584    124.7 1.768e+04 9.716e-09
 88.15583    124.5 1.741e+04 8.683e-09
 88.17529    124.4 1.667e+04 6.315e-09
 88.18529    123.7 1.548e+04 4.250e-09
 88.19581    123.4 1.468e+04 3.183e-09
 88.21580    122.9 1.376e+04 2.189e-09
 88.23578    122.3 1.290e+04 1.496e-09
 88.25577    121.7 1.232e+04 1.090e-09
 88.27123    121.3 1.228e+04 9.617e-10
 88.28123    121.9 1.256e+04 1.349e-09
 88.29575    121.8 1.258e+04 1.320e-09
 88.31574    121.7 1.260e+04 1.329e-09
 88.33573    121.4 1.268e+04 1.391e-09
 88.35571    121.1 1.287e+04 1.581e-09
 88.36718    120.9 1.319e+04 1.933e-09
 88.37717    121.4 1.322e+04 2.173e-09
 88.39569    121.2 1.364e+04 2.598e-09
 88.41568    120.9 1.425e+04 3.236e-09
 88.43567    120.4 1.488e+04 3.928e-09
 88.45313    119.7 1.535e+04 4.288e-09
 88.46312    119.4 1.524e+04 4.275e-09
 88.47565    118.2 1.534e+04 4.289e-09
 88.49563    117.1 1.528e+04 4.136e-09
 88.51562    116.1 1.490e+04 3.598e-09
 88.53561    115.3 1.426e+04 2.781e-09
 88.54907    114.6 1.344e+04 1.962e-09
 88.55906    114.7 1.312e+04 1.703e-09
 88.57559    114.5 1.243e+04 1.169e-09
 88.59558    114.2 1.182e+04 8.196e-10
 88.62566    114.0 1.106e+04 5.254e-10
 88.66573    114.2 1.025e+04 2.741e-10
 88.70571    114.4 9.710e+03 1.554e-10
 88.73115    115.1 9.174e+03 1.144e-10
 88.75114    114.4 9.662e+03 1.966e-10
 88.78566    115.5 9.744e+03 2.174e-10
 88.82564    116.5 9.838e+03 2.536e-10
 88.86562    117.3 9.922e+03 2.948e-10
 88.90305    118.0 9.966e+03 3.242e-10
 88.92304    117.4 1.057e+04 5.063e-10
 88.94557    118.0 1.035e+04 4.449e-10
 88.98555    118.5 1.003e+04 3.631e-10
 89.02552    119.0 9.659e+03 2.799e-10
 89.06550    119.4 9.312e+03 2.182e-10
 89.09493    119.8 9.131e+03 1.928e-10
 89.11492    119.4 8.968e+03 1.652e-10
 89.14545    120.1 8.980e+03 1.671e-10
 89.18543    120.5 9.131e+03 1.803e-10
 89.22541    120.3 9.620e+03 2.250e-10
 89.26538    119.7 1.017e+04 3.015e-10
 89.28672    118.7 1.058e+04 4.180e-10
 89.29662    118.6 1.056e+04 4.207e-10
 89.31516    117.9 1.081e+04 5.727e-10
 89.33515    117.7 1.098e+04 7.097e-10
 89.35514    117.6 1.110e+04 7.265e-10
 89.37257    117.4 1.112e+04 7.133e-10
 89.38257    117.4 1.101e+04 6.531e-10
 89.39511    116.7 1.106e+04 5.813e-10
 89.41510    115.6 1.098e+04 4.810e-10
 89.43509    114.4 1.074e+04 3.961e-10
 89.45508    113.7 1.051e+04 3.402e-10
 89.46851    113.6 1.037e+04 3.183e-10
 89.47860    114.7 1.044e+04 3.242e-10
 89.50525    114.8 1.007e+04 2.657e-10
 89.54522    115.1 9.827e+03 2.237e-10
 89.58520    115.5 9.813e+03 2.008e-10
 89.62518    116.3 9.835e+03 2.001e-10
 89.65060    117.2 9.921e+03 2.059e-10
 89.67059    118.1 9.763e+03 1.785e-10
 89.70513    119.1 1.002e+04 2.068e-10
 89.74511    119.8 1.042e+04 2.762e-10
 89.78508    119.9 1.079e+04 3.845e-10
 89.82249    120.3 1.129e+04 5.833e-10
 89.84239    120.9 1.123e+04 6.044e-10
 89.85485    121.1 1.154e+04 7.581e-10
 89.87484    121.2 1.176e+04 8.871e-10
 89.89483    121.2 1.196e+04 1.012e-09
 89.91481    121.2 1.212e+04 1.128e-09
 89.92824    120.9 1.218e+04 1.172e-09
 89.93823    121.2 1.207e+04 1.112e-09
 89.95479    120.8 1.204e+04 1.098e-09
 89.97478    120.5 1.189e+04 1.028e-09
 89.99477    120.2 1.165e+04 8.854e-10
 90.01418    120.1 1.137e+04 7.226e-10
 90.02418    120.3 1.126e+04 6.806e-10
 90.03475    120.3 1.102e+04 5.572e-10
 90.05473    120.3 1.079e+04 4.394e-10
 90.07472    120.3 1.061e+04 3.737e-10
 90.09471    120.6 1.041e+04 3.149e-10
 90.11013    120.8 1.021e+04 2.685e-10
 90.12012    121.1 1.023e+04 2.700e-10
 90.14478    121.9 1.020e+04 2.677e-10
 90.18485    122.9 9.937e+03 2.191e-10
 90.20626    124.2 9.676e+03 1.802e-10
 90.22625    125.0 9.637e+03 1.739e-10
 90.26481    126.3 9.368e+03 1.416e-10
 90.30478    127.7 9.208e+03 1.232e-10
 90.34476    129.0 9.114e+03 1.188e-10
 90.37816    130.2 9.143e+03 1.201e-10
 90.39815    130.9 9.252e+03 1.268e-10
 90.42472    131.9 9.334e+03 1.457e-10
 90.46469    132.8 9.433e+03 1.755e-10
 90.50467    133.6 9.528e+03 2.108e-10
 90.54465    134.4 9.612e+03 2.462e-10
 90.57004    135.1 9.679e+03 2.779e-10
 90.58085    135.8 9.894e+03 3.455e-10
 90.59543    136.2 9.665e+03 2.651e-10
 90.62460    136.9 9.688e+03 2.827e-10
 90.66458    137.7 9.708e+03 2.982e-10
 90.70455    138.7 9.713e+03 3.101e-10
 90.74194    139.8 9.698e+03 3.084e-10
 90.76193    140.3 9.725e+03 3.181e-10
 90.78451    141.5 9.648e+03 2.999e-10
 90.82448    143.0 9.548e+03 2.701e-10
 90.86446    144.6 9.446e+03 2.353e-10
 90.90444    146.2 9.354e+03 2.054e-10
 90.93383    148.0 9.291e+03 1.850e-10
 90.95381    148.9 9.218e+03 1.652e-10
 90.98439    150.8 9.223e+03 1.659e-10
 91.02437    152.7 9.242e+03 1.699e-10
 91.06435    154.7 9.270e+03 1.771e-10
 91.10432    156.7 9.312e+03 1.877e-10
 91.12571    158.7 9.350e+03 1.987e-10
 91.14570    159.9 9.422e+03 2.061e-10
 91.18428    162.0 9.496e+03 2.211e-10
 91.22425    163.9 9.538e+03 2.296e-10
 91.26423    165.9 9.561e+03 2.327e-10
 91.29761    167.8 9.581e+03 2.351e-10
 91.31759    168.9 9.690e+03 2.489e-10
 91.34418    170.8 9.711e+03 2.517e-10
 91.38416    172.6 9.742e+03 2.558e-10
 91.42414    174.4 9.804e+03 2.650e-10
 91.46412    176.0 9.919e+03 2.814e-10
 91.48949    177.5 1.006e+04 3.049e-10
 91.50948    178.5 1.005e+04 2.957e-10
 91.54407    179.9 1.019e+04 3.189e-10
 91.58405    181.1 1.036e+04 3.544e-10
 91.62402    182.1 1.058e+04 4.094e-10
 91.66139    182.5 1.089e+04 5.035e-10
 91.68137    183.7 1.094e+04 5.322e-10
 91.70398    184.0 1.148e+04 7.640e-10
 91.74395    184.1 1.208e+04 1.109e-09
 91.78393    183.7 1.254e+04 1.367e-09
 91.82391    182.5 1.263e+04 1.369e-09
 91.85327    180.8 1.251e+04 1.177e-09
 91.87326    181.8 1.295e+04 1.332e-09
 91.90386    179.7 1.236e+04 7.573e-10
 91.94384    177.5 1.126e+04 3.058e-10
 91.98382    174.8 9.669e+03 1.206e-10
 92.02379    173.2 8.979e+03 8.827e-11
 92.04516    173.1 8.860e+03 8.135e-11
 92.06514    173.5 8.854e+03 8.208e-11
 92.10375    173.9 8.804e+03 7.797e-11
 92.14372    174.7 8.774e+03 7.398e-11
 92.18370    175.8 8.773e+03 7.298e-11
 92.21705    177.1 8.780e+03 7.356e-11
 92.23704    177.6 8.840e+03 8.753e-11
 92.26365    178.8 8.879e+03 9.613e-11
 92.30363    180.0 8.955e+03 1.138e-10
 92.34361    181.2 9.070e+03 1.420e-10
 92.38358    182.4 9.208e+03 1.806e-10
 92.40894    183.7 9.347e+03 2.244e-10
 92.42892    184.1 9.602e+03 3.007e-10
 92.46354    185.2 9.678e+03 3.177e-10
 92.50351    186.2 9.666e+03 3.137e-10
 92.54349    187.3 9.569e+03 2.862e-10
 92.58083    188.6 9.342e+03 2.333e-10
 92.60082    188.6 9.379e+03 2.303e-10
 92.62345    190.0 9.015e+03 1.721e-10
 92.66342    191.7 8.789e+03 1.534e-10
 92.70340    193.7 8.786e+03 1.538e-10
 92.74338    195.9 8.816e+03 1.604e-10
 92.77272    198.0 8.937e+03 1.834e-10
 92.79270    198.3 8.940e+03 1.803e-10
 92.82333    200.3 9.124e+03 2.175e-10
 92.86331    202.0 9.314e+03 2.623e-10
 92.90328    203.5 9.456e+03 3.055e-10
 92.94326    205.1 9.578e+03 3.458e-10
 92.96460    207.1 9.702e+03 3.860e-10
 92.98459    207.5 9.770e+03 3.944e-10
 93.01312    208.5 9.859e+03 4.275e-10
 93.03301    209.8 9.988e+03 4.697e-10
 93.05035    211.0 1.013e+04 5.235e-10
 93.06035    211.2 1.013e+04 5.311e-10
 93.07299    212.4 1.027e+04 5.925e-10
 93.09298    213.4 1.042e+04 6.548e-10
 93.11297    214.4 1.059e+04 7.267e-10
 93.13296    215.4 1.079e+04 8.161e-10
 93.14630    216.3 1.101e+04 9.245e-10
 93.15629    216.5 1.111e+04 9.539e-10
 93.17293    217.3 1.139e+04 1.100e-09
 93.19292    218.2 1.168e+04 1.265e-09
 93.21291    219.0 1.194e+04 1.432e-09
 93.23224    219.7 1.213e+04 1.568e-09
 93.24224    219.7 1.220e+04 1.626e-09
 93.25289    220.4 1.236e+04 1.769e-09
 93.27288    221.2 1.244e+04 1.852e-09
 93.29286    221.9 1.244e+04 1.859e-09
 93.31285    222.7 1.239e+04 1.821e-09
 93.32819    223.4 1.227e+04 1.722e-09
 93.33818    223.3 1.269e+04 2.104e-09
 93.35283    223.9 1.267e+04 2.082e-09
 93.37282    224.5 1.265e+04 2.078e-09
 93.39281    225.0 1.266e+04 2.090e-09
 93.41279    225.5 1.270e+04 2.142e-09
 93.42413    226.2 1.284e+04 2.242e-09
 93.43412    226.3 1.367e+04 3.041e-09
 93.45277    227.0 1.382e+04 3.025e-09
 93.47276    227.7 1.384e+04 2.966e-09
 93.49275    228.2 1.387e+04 2.698e-09
 93.51008    228.8 1.366e+04 2.269e-09
 93.52007    228.5 1.396e+04 2.186e-09
 93.53273    229.0 1.355e+04 1.551e-09
 93.55271    229.2 1.284e+04 1.018e-09
 93.57270    229.2 1.183e+04 6.292e-10
 93.59269    228.9 1.069e+04 3.975e-10
 93.60602    228.6 9.732e+03 2.712e-10
 93.61601    227.5 9.349e+03 2.368e-10
 93.63267    227.5 9.007e+03 1.955e-10
 93.66275    228.9 9.069e+03 1.784e-10
 93.69216    229.7 8.961e+03 1.714e-10
 93.71215    229.0 9.049e+03 1.817e-10
 93.74280    230.2 9.058e+03 1.845e-10
 93.78278    231.2 9.121e+03 1.963e-10
 93.82275    232.3 9.257e+03 2.226e-10
 93.85264    232.3 9.312e+03 2.406e-10
 93.87253    232.3 9.426e+03 2.662e-10
 93.88385    232.1 9.656e+03 3.201e-10
 93.89385    230.9 1.031e+04 4.983e-10
 93.91251    230.7 1.075e+04 6.631e-10
 93.93249    230.3 1.132e+04 9.186e-10
 93.95248    229.9 1.203e+04 1.301e-09
 93.96980    229.3 1.282e+04 1.831e-09
 93.97979    228.3 1.388e+04 2.829e-09
 93.99246    227.3 1.462e+04 3.599e-09
 94.01245    225.7 1.513e+04 3.963e-09
 94.03244    223.5 1.518e+04 3.946e-09
 94.05243    221.1 1.510e+04 3.728e-09
 94.06574    218.6 1.463e+04 3.136e-09
 94.07574    217.3 1.476e+04 3.283e-09
 94.09240    214.9 1.377e+04 2.396e-09
 94.11239    212.1 1.328e+04 2.062e-09
 94.13238    209.1 1.337e+04 2.101e-09
 94.15169    205.0 1.407e+04 2.451e-09
 94.16168    203.5 1.357e+04 1.899e-09
 94.17236    198.4 1.492e+04 2.743e-09
 94.19234    193.7 1.604e+04 4.141e-09
 94.21233    189.6 1.646e+04 4.924e-09
 94.23232    186.0 1.643e+04 4.811e-09
 94.24763    182.7 1.609e+04 3.988e-09
 94.25763    182.8 1.568e+04 3.696e-09
 94.27230    179.5 1.508e+04 2.373e-09
 94.29229    175.2 1.388e+04 1.270e-09
 94.31227    169.9 1.196e+04 8.478e-10
 94.33226    165.6 1.130e+04 8.370e-10
 94.34357    163.0 1.127e+04 8.638e-10
 94.35357    163.2 1.126e+04 8.689e-10
 94.37224    161.6 1.135e+04 9.782e-10
 94.39223    160.5 1.160e+04 1.089e-09
 94.41222    159.3 1.171e+04 1.106e-09
 94.42952    158.0 1.170e+04 1.082e-09
 94.43952    158.6 1.161e+04 1.028e-09
 94.45219    157.2 1.145e+04 8.902e-10
 94.47218    155.6 1.121e+04 7.180e-10
 94.49217    153.8 1.096e+04 5.738e-10
 94.51216    151.8 1.082e+04 5.090e-10
 94.52546    150.0 1.082e+04 5.072e-10
 94.53451    151.0 1.066e+04 4.680e-10
 94.54120    150.1 1.051e+04 4.442e-10
 94.55214    148.9 1.051e+04 4.456e-10
 94.57212    147.9 1.055e+04 4.576e-10
 94.59211    146.9 1.069e+04 5.021e-10
 94.61141    145.9 1.098e+04 5.972e-10
 94.62141    147.3 1.070e+04 5.248e-10
 94.63209    146.4 1.101e+04 6.276e-10
 94.65208    145.6 1.147e+04 7.921e-10
 94.67207    144.8 1.204e+04 1.031e-09
 94.69206    144.2 1.259e+04 1.330e-09
 94.70735    143.6 1.299e+04 1.638e-09
 94.71735    145.0 1.242e+04 1.228e-09
 94.73203    144.4 1.277e+04 1.479e-09
 94.75202    144.1 1.294e+04 1.694e-09
 94.77201    144.1 1.292e+04 1.834e-09
 94.79200    144.3 1.283e+04 1.871e-09
 94.80330    144.7 1.266e+04 1.862e-09
 94.81329    145.5 1.284e+04 1.899e-09
 94.83197    145.9 1.276e+04 1.915e-09
 94.85196    146.4 1.255e+04 1.884e-09
 94.87195    147.0 1.238e+04 1.788e-09
 94.88925    147.5 1.228e+04 1.680e-09
 94.89924    148.4 1.252e+04 1.867e-09
 94.91193    148.9 1.241e+04 1.744e-09
 94.93192    149.4 1.234e+04 1.630e-09
 94.95191    150.0 1.227e+04 1.540e-09
 94.97189    150.3 1.224e+04 1.471e-09
 94.98519    150.4 1.238e+04 1.411e-09
 94.99518    151.2 1.239e+04 1.481e-09
 95.01187    151.3 1.248e+04 1.375e-09
 95.03186    151.3 1.262e+04 1.335e-09
 95.05185    151.0 1.283e+04 1.345e-09
 95.07114    149.6 1.349e+04 1.433e-09
 95.08113    151.4 1.300e+04 1.340e-09
 95.09182    149.9 1.356e+04 1.419e-09
 95.11181    147.4 1.456e+04 1.759e-09
 95.13180    144.8 1.537e+04 2.643e-09
 95.15179    143.0 1.571e+04 3.871e-09
 95.16708    141.9 1.566e+04 4.417e-09
 95.17707    144.2 1.523e+04 3.676e-09
 95.19177    143.2 1.514e+04 3.893e-09
 95.21176    142.6 1.500e+04 3.699e-09
 95.23174    142.1 1.451e+04 2.907e-09
 95.25173    141.6 1.377e+04 1.883e-09
 95.26302    140.6 1.288e+04 1.066e-09
 95.27301    142.5 1.323e+04 1.405e-09
 95.30180    140.4 1.207e+04 7.088e-10
 95.33917    139.8 1.063e+04 4.726e-10
 95.35906    139.8 1.018e+04 4.113e-10
 95.37166    140.1 9.916e+03 3.918e-10
 95.39165    140.5 9.856e+03 3.868e-10
 95.41164    141.2 9.858e+03 3.877e-10
 95.43163    142.1 9.889e+03 3.960e-10
 95.44491    142.9 9.996e+03 4.227e-10
 95.45490    143.1 9.950e+03 4.163e-10
 95.47161    143.9 1.016e+04 4.650e-10
 95.49159    144.7 1.049e+04 5.490e-10
 95.51158    145.0 1.094e+04 7.013e-10
 95.53086    144.9 1.160e+04 9.679e-10
 95.54085    144.4 1.200e+04 1.253e-09
 95.55156    143.9 1.313e+04 1.970e-09
 95.57155    143.0 1.448e+04 3.300e-09
 95.59154    142.0 1.597e+04 5.887e-09
 95.61152    141.7 1.744e+04 1.075e-08
 95.62680    141.8 1.877e+04 1.796e-08
 95.63679    142.2 1.912e+04 2.034e-08
 95.65150    141.4 1.986e+04 2.396e-08
 95.67149    139.8 1.972e+04 2.282e-08
 95.69148    139.8 1.895e+04 1.752e-08
 95.71147    140.2 1.770e+04 1.012e-08
 95.72274    140.2 1.601e+04 4.803e-09
 95.73274    140.3 1.520e+04 2.992e-09
 95.75144    138.3 1.241e+04 1.095e-09
 95.77143    136.7 1.144e+04 7.529e-10
 95.79142    135.6 1.036e+04 5.131e-10
 95.82150    136.0 1.008e+04 4.142e-10
 95.86158    136.9 9.652e+03 3.018e-10
 95.89483    138.4 9.353e+03 2.339e-10
 95.91482    138.1 8.760e+03 1.703e-10
 95.94153    139.4 8.593e+03 1.485e-10
 95.98151    140.6 8.402e+03 1.388e-10
 96.02148    141.8 8.361e+03 1.390e-10
 96.06146    143.1 8.363e+03 1.418e-10
 96.08672    144.3 8.415e+03 1.547e-10
 96.10671    144.0 8.309e+03 1.493e-10
 96.14141    145.2 8.452e+03 1.765e-10
 96.18139    146.4 8.761e+03 2.258e-10
 96.22137    146.7 9.058e+03 2.850e-10
 96.25125    146.6 9.098e+03 3.015e-10
 96.26841    147.0 9.137e+03 3.103e-10
 96.27851    147.5 9.145e+03 2.868e-10
 96.29123    147.3 9.160e+03 2.982e-10
 96.31112    147.4 9.219e+03 3.151e-10
 96.33111    147.4 9.424e+03 3.703e-10
 96.35110    146.6 1.007e+04 5.140e-10
 96.36436    144.6 1.138e+04 8.581e-10
 96.37435    146.1 1.032e+04 5.554e-10
 96.39107    143.2 1.211e+04 1.042e-09
 96.41106    139.7 1.397e+04 2.130e-09
 96.43105    136.8 1.529e+04 3.969e-09
 96.45030    134.4 1.619e+04 5.845e-09
 96.46030    135.2 1.602e+04 5.577e-09
 96.47103    133.1 1.674e+04 6.862e-09
 96.49102    130.5 1.688e+04 6.783e-09
 96.50918    127.3 1.703e+04 5.940e-09
 96.51917    127.0 1.696e+04 5.501e-09
 96.53099    122.7 1.685e+04 3.684e-09
 96.54625    116.8 1.616e+04 2.339e-09
 96.55624    119.0 1.667e+04 2.715e-09
 96.57097    111.8 1.546e+04 1.814e-09
 96.59096    105.0 1.406e+04 1.458e-09
 96.61095     99.6 1.327e+04 1.294e-09
 96.63094     94.9 1.323e+04 1.279e-09
 96.64219     88.9 1.360e+04 1.363e-09
 96.65218     89.8 1.385e+04 1.607e-09
 96.67091     80.7 1.553e+04 2.125e-09
 96.69090     72.1 1.655e+04 3.696e-09
 96.71089     67.1 1.676e+04 6.018e-09
 96.72814     64.9 1.723e+04 7.315e-09
 96.73813     64.5 1.721e+04 6.253e-09
 96.75087     62.1 1.723e+04 5.996e-09
 96.77086     59.2 1.698e+04 4.743e-09
 96.79084     55.3 1.561e+04 3.013e-09
 96.81083     51.1 1.368e+04 1.951e-09
 96.82408     48.6 1.243e+04 1.489e-09
 96.83407     48.9 1.209e+04 1.352e-09
 96.86090     45.6 1.171e+04 9.912e-10
 96.90098     41.2 1.112e+04 7.198e-10
 96.94095     37.4 1.035e+04 5.168e-10
 96.98093     34.1 9.921e+03 4.291e-10
 97.00616     29.0 1.034e+04 5.138e-10
 97.02615     30.2 1.104e+04 7.141e-10
 97.06088     25.2 1.154e+04 1.078e-09
 97.10086     23.0 1.110e+04 9.455e-10
 97.14084     21.0 1.023e+04 5.837e-10
 97.17806     18.2 9.132e+03 3.174e-10
 97.19805     18.7 9.015e+03 2.741e-10
 97.22079     16.1 8.127e+03 1.648e-10
 97.26077     14.6 8.236e+03 1.744e-10
 97.30074     13.9 8.543e+03 2.282e-10
 97.34072     14.6 8.654e+03 2.791e-10
 97.36994     15.9 8.602e+03 2.769e-10
 97.38993     17.1 8.239e+03 2.019e-10
 97.42068     18.0 8.115e+03 1.582e-10
 97.46065     18.2 8.045e+03 1.386e-10
 97.50063     18.4 8.315e+03 1.644e-10
 97.54061     18.6 8.952e+03 2.661e-10
 97.56173     18.5 8.866e+03 2.944e-10
 97.58172     21.0 8.737e+03 2.396e-10
 97.61047     19.1 9.611e+03 3.724e-10
 97.63036     20.4 1.035e+04 4.746e-10
 97.64758     19.5 1.250e+04 8.816e-10
 97.65758     21.5 1.013e+04 4.469e-10
 97.67034     19.7 1.258e+04 8.512e-10
 97.69032     16.9 1.457e+04 1.757e-09
 97.71031     15.3 1.461e+04 2.694e-09
 97.73030     15.3 1.438e+04 3.587e-09
 97.74352     15.6 1.457e+04 4.447e-09
 97.75352     14.8 1.486e+04 4.975e-09
 97.77028     15.9 1.544e+04 6.110e-09
 97.79027     16.7 1.566e+04 5.987e-09
 97.81025     17.5 1.570e+04 4.830e-09
 97.82947     16.8 1.560e+04 3.377e-09
 97.83947     17.7 1.558e+04 4.061e-09
 97.85023     16.2 1.479e+04 2.396e-09
 97.87022     13.9 1.301e+04 1.447e-09
 97.89021     12.4 1.286e+04 1.374e-09
 97.91020     12.9 1.282e+04 1.306e-09
 97.92551     12.8 1.290e+04 1.294e-09
 97.93551     12.1 1.289e+04 1.224e-09
 97.95017     12.0 1.293e+04 1.191e-09
 97.97016     11.7 1.287e+04 1.208e-09
 97.99015     11.6 1.280e+04 1.279e-09
 98.01014     11.1 1.268e+04 1.415e-09
 98.02136     12.1 1.235e+04 1.439e-09
 98.03135     11.8 1.254e+04 1.450e-09
 98.05012     12.8 1.243e+04 1.423e-09
 98.07010     13.7 1.217e+04 1.316e-09
 98.09009     14.3 1.218e+04 1.261e-09
 98.10731     14.6 1.239e+04 1.282e-09
 98.11730     14.9 1.252e+04 1.294e-09
 98.13007     15.0 1.262e+04 1.296e-09
 98.15006     15.5 1.254e+04 1.236e-09
 98.17005     16.1 1.243e+04 1.182e-09
 98.19004     16.6 1.248e+04 1.168e-09
 98.20325     17.1 1.252e+04 1.148e-09
 98.21324     16.7 1.261e+04 1.054e-09
 98.23001     16.8 1.276e+04 1.082e-09
 98.25000     16.0 1.349e+04 1.266e-09
 98.26999     16.3 1.373e+04 1.402e-09
 98.28920     14.8 1.503e+04 1.779e-09
 98.29919     13.5 1.475e+04 1.666e-09
 98.30492     -2.8 3.625e+04 7.119e-10
 98.31487    -10.7 3.376e+04 7.285e-09
 98.32486    -29.4 2.961e+04 5.223e-08
 98.33485    -34.6 2.466e+04 2.227e-07
 98.34207    -42.8 2.533e+04 2.846e-07
 98.34706    -41.9 2.549e+04 2.519e-07
 98.35484    -58.2 3.347e+04 7.365e-08
 98.36484    -88.2 2.997e+04 4.211e-09
 98.37483   -104.7 1.520e+04 2.041e-09
 98.38483   -106.9 1.384e+04 1.943e-09
 98.39004   -107.5 1.372e+04 1.923e-09
 98.39503   -105.5 1.364e+04 1.851e-09
 98.40986   -106.3 1.353e+04 1.851e-09
 98.42990   -106.7 1.338e+04 1.888e-09
 98.44989   -106.6 1.346e+04 1.960e-09
 98.46987   -106.7 1.358e+04 1.996e-09
 98.48108   -107.3 1.384e+04 2.076e-09
 98.48837   -106.1 1.429e+04 2.348e-09
 98.49715   -105.2 1.471e+04 2.567e-09
 98.50985   -106.8 1.569e+04 3.124e-09
 98.52984   -108.8 1.663e+04 3.866e-09
 98.54983   -110.6 1.715e+04 4.499e-09
 98.56703   -111.9 1.724e+04 4.697e-09
 98.57702   -112.0 1.847e+04 6.915e-09
 98.58980   -112.8 1.832e+04 6.921e-09
 98.60979   -113.3 1.752e+04 5.924e-09
 98.62978   -114.1 1.635e+04 4.161e-09
 98.64977   -115.7 1.492e+04 2.721e-09
 98.66297   -118.5 1.398e+04 2.049e-09
 98.67296   -115.6 1.534e+04 2.820e-09
 98.68975   -119.1 1.457e+04 2.247e-09
 98.70974   -122.6 1.433e+04 2.159e-09
 98.72972   -125.3 1.418e+04 2.355e-09
 98.74892   -127.0 1.418e+04 2.654e-09
 98.75891   -125.6 1.473e+04 2.934e-09
 98.76970   -127.1 1.461e+04 3.017e-09
 98.78969   -127.9 1.412e+04 2.924e-09
 98.80968   -128.3 1.341e+04 2.229e-09
 98.82967   -129.0 1.259e+04 1.429e-09
 98.84486   -130.2 1.170e+04 8.719e-10
 98.85485   -129.1 1.216e+04 1.024e-09
 98.86964   -130.8 1.118e+04 6.299e-10
 98.88963   -132.4 1.055e+04 4.582e-10
 98.90962   -133.4 1.031e+04 4.011e-10
 98.92961   -133.9 1.026e+04 3.884e-10
 98.94080   -134.4 1.027e+04 3.874e-10
 98.95080   -133.3 1.036e+04 4.217e-10
 98.96959   -133.5 1.042e+04 4.350e-10
 98.98957   -133.9 1.062e+04 4.684e-10
 99.00956   -134.4 1.081e+04 5.077e-10
 99.02675   -134.9 1.107e+04 5.512e-10
 99.03674   -132.8 1.086e+04 5.464e-10
 99.04954   -133.2 1.102e+04 5.726e-10
 99.06953   -133.7 1.123e+04 6.255e-10
 99.08952   -134.3 1.151e+04 7.179e-10
 99.10950   -135.1 1.192e+04 8.587e-10
 99.12269   -135.9 1.257e+04 1.072e-09
 99.13269   -133.9 1.235e+04 9.276e-10
 99.14948   -134.9 1.333e+04 1.244e-09
 99.16947   -135.7 1.430e+04 1.684e-09
 99.18946   -135.9 1.493e+04 2.164e-09
 99.20864   -135.7 1.504e+04 2.530e-09
 99.21864   -134.2 1.499e+04 2.356e-09
 99.22944   -133.9 1.497e+04 2.513e-09
 99.24942   -133.6 1.485e+04 2.534e-09
 99.26941   -132.7 1.441e+04 2.491e-09
 99.28940   -131.4 1.403e+04 2.280e-09
 99.30458   -130.2 1.371e+04 2.000e-09
 99.31458   -129.1 1.343e+04 1.769e-09
 99.32938   -128.0 1.315e+04 1.519e-09
 99.34937   -127.2 1.298e+04 1.346e-09
 99.36935   -126.5 1.293e+04 1.275e-09
 99.38934   -126.0 1.293e+04 1.264e-09
 99.40053   -125.6 1.293e+04 1.283e-09
 99.41052   -124.1 1.270e+04 1.083e-09
 99.42932   -123.8 1.289e+04 1.149e-09
 99.44931   -123.6 1.308e+04 1.368e-09
 99.46930   -123.3 1.326e+04 1.689e-09
 99.48647   -122.8 1.342e+04 2.027e-09
 99.49647   -121.6 1.346e+04 1.795e-09
 99.50927   -121.0 1.370e+04 2.217e-09
 99.52926   -120.3 1.387e+04 2.515e-09
 99.54925   -119.7 1.387e+04 2.599e-09
 99.56924   -119.1 1.366e+04 2.490e-09
 99.58242   -118.4 1.316e+04 2.057e-09
 99.59241   -117.1 1.386e+04 2.658e-09
 99.60922   -116.5 1.331e+04 2.126e-09
 99.62920   -116.1 1.254e+04 1.536e-09
 99.64919   -115.8 1.164e+04 1.060e-09
 99.66836   -115.8 1.074e+04 7.296e-10
 99.67836   -114.1 1.166e+04 1.032e-09
 99.68917   -114.2 1.076e+04 7.141e-10
 99.70916   -114.3 1.003e+04 5.219e-10
 99.72915   -114.3 9.572e+03 4.166e-10
 99.74914   -114.2 9.379e+03 3.705e-10
 99.76431   -114.0 9.340e+03 3.584e-10
 99.77430   -112.6 9.491e+03 3.983e-10
 99.78911   -112.5 9.452e+03 3.914e-10
 99.80910   -112.5 9.480e+03 3.967e-10
 99.82909   -112.6 9.698e+03 4.477e-10
 99.84908   -112.6 1.005e+04 5.463e-10
 99.86025   -112.6 1.042e+04 6.710e-10
 99.87024   -111.2 1.062e+04 6.798e-10
 99.88905   -111.4 1.089e+04 7.939e-10
 99.90904   -111.8 1.110e+04 8.827e-10
 99.92903   -112.4 1.124e+04 9.210e-10
 99.94620   -113.5 1.128e+04 9.264e-10
 99.95619   -112.8 1.131e+04 9.259e-10
 99.96901   -114.4 1.131e+04 9.166e-10
 99.98900   -116.0 1.117e+04 8.721e-10
100.00899   -117.2 1.104e+04 8.421e-10
