# Columns:
#   distance along LOS (in CHIMPs)
#   peculiar velocity  (in km/s)
#   temperature (K)
#   HI number density
# pos=(126.389,66.5689,40.7114), angles=(1.52684,3.18876)
  0.01106     13.3 9.698e+03 2.598e-10
  0.04169     13.8 1.005e+04 3.266e-10
  0.08084     14.0 1.038e+04 4.027e-10
  0.11906     14.2 1.050e+04 5.133e-10
  0.13863     13.2 1.043e+04 5.761e-10
  0.15913     14.3 1.023e+04 5.196e-10
  0.19827     14.8 9.982e+03 3.966e-10
  0.22332     14.6 9.863e+03 3.530e-10
  0.24289     14.6 9.788e+03 3.197e-10
  0.27656     14.1 9.877e+03 3.679e-10
  0.31570     14.5 1.010e+04 4.802e-10
  0.35484     15.3 1.026e+04 5.409e-10
  0.39399     16.1 9.996e+03 4.459e-10
  0.43313     16.0 9.734e+03 3.182e-10
  0.47228     15.6 9.611e+03 2.661e-10
  0.51142     14.6 9.863e+03 3.217e-10
  0.55056     13.9 1.051e+04 5.937e-10
  0.58971     14.1 1.144e+04 1.149e-09
  0.62885     14.2 1.202e+04 1.520e-09
  0.65811     12.1 1.280e+04 1.918e-09
  0.67759     11.1 1.310e+04 2.140e-09
  0.69716     10.3 1.337e+04 2.517e-09
  0.71673      9.9 1.329e+04 2.519e-09
  0.73630      9.0 1.338e+04 2.410e-09
  0.75587      7.5 1.346e+04 2.202e-09
  0.77545      5.7 1.338e+04 2.164e-09
  0.79502      4.5 1.326e+04 2.188e-09
  0.81459      3.7 1.327e+04 2.285e-09
  0.83416      2.1 1.381e+04 2.480e-09
  0.85373     -0.7 1.495e+04 2.918e-09
  0.87330     -3.2 1.477e+04 3.041e-09
  0.89288     -3.1 1.362e+04 3.984e-09
  0.91245     -1.4 1.338e+04 3.314e-09
  0.93202     -1.4 1.361e+04 2.022e-09
  0.95159     -3.6 1.303e+04 1.354e-09
  0.98105     -5.6 1.194e+04 9.143e-10
  1.01371     -7.1 1.093e+04 6.199e-10
  1.03329     -7.8 1.060e+04 4.863e-10
  1.04884     -7.8 1.048e+04 4.364e-10
  1.06841     -9.0 1.031e+04 4.057e-10
  1.09858     -8.4 1.013e+04 3.394e-10
  1.13772     -7.9 1.009e+04 2.865e-10
  1.17686     -7.1 1.001e+04 2.802e-10
  1.21601     -6.2 9.993e+03 3.005e-10
  1.25515     -5.0 1.004e+04 3.135e-10
  1.29430     -3.8 1.004e+04 3.169e-10
  1.33344     -2.6 1.011e+04 3.087e-10
  1.37258     -1.9 1.043e+04 2.875e-10
  1.41173     -1.6 1.047e+04 2.927e-10
  1.45087     -0.6 1.017e+04 3.142e-10
  1.49002      1.7 9.771e+03 2.588e-10
  1.52916      3.9 9.355e+03 1.553e-10
  1.56830      5.1 9.235e+03 8.190e-11
  1.60745      5.2 9.198e+03 5.288e-11
  1.64659      5.9 9.181e+03 5.422e-11
  1.68573      5.9 9.299e+03 7.113e-11
  1.72488      6.6 9.354e+03 1.176e-10
  1.76402      7.8 9.539e+03 1.896e-10
  1.80317      9.0 9.738e+03 2.595e-10
  1.84231     10.1 9.756e+03 2.869e-10
  1.87455     10.8 9.838e+03 3.179e-10
  1.89412     10.5 9.775e+03 2.977e-10
  1.90837     11.0 9.948e+03 3.540e-10
  1.92794     10.4 9.707e+03 3.227e-10
  1.95974     11.6 9.815e+03 3.603e-10
  1.99888     13.0 9.869e+03 3.659e-10
  2.03803     14.3 9.869e+03 3.505e-10
  2.07717     15.3 9.942e+03 3.486e-10
  2.11632     15.7 1.010e+04 3.965e-10
  2.14558     16.2 1.022e+04 4.582e-10
  2.16505     16.7 1.035e+04 5.392e-10
  2.18462     17.3 1.048e+04 6.239e-10
  2.20419     18.0 1.058e+04 6.826e-10
  2.22377     18.7 1.070e+04 7.242e-10
  2.24334     19.4 1.072e+04 7.526e-10
  2.26291     20.1 1.079e+04 7.484e-10
  2.28248     20.5 1.082e+04 7.331e-10
  2.29695     20.9 1.085e+04 7.273e-10
  2.30674     20.8 1.077e+04 6.731e-10
  2.32163     21.2 1.084e+04 6.878e-10
  2.34120     21.6 1.091e+04 7.172e-10
  2.35550     22.1 1.101e+04 7.697e-10
  2.36529     22.0 1.081e+04 7.246e-10
  2.38034     22.6 1.092e+04 7.865e-10
  2.39991     23.2 1.103e+04 8.672e-10
  2.41949     23.9 1.121e+04 9.928e-10
  2.43906     24.5 1.145e+04 1.172e-09
  2.45863     25.3 1.171e+04 1.385e-09
  2.47820     26.2 1.209e+04 1.658e-09
  2.49777     27.1 1.257e+04 2.013e-09
  2.51734     27.9 1.304e+04 2.454e-09
  2.53692     28.5 1.373e+04 3.120e-09
  2.55649     28.3 1.479e+04 4.346e-09
  2.57606     27.7 1.642e+04 7.216e-09
  2.59563     27.3 1.845e+04 1.381e-08
  2.61026     26.0 2.019e+04 2.327e-08
  2.62000     25.0 2.101e+04 3.618e-08
  2.62979     25.2 2.143e+04 5.832e-08
  2.63957     25.9 2.205e+04 9.301e-08
  2.64936     25.6 2.253e+04 1.231e-07
  2.65914     24.7 2.250e+04 1.222e-07
  2.66893     24.3 2.225e+04 1.086e-07
  2.67872     24.3 2.174e+04 8.494e-08
  2.68850     24.4 2.162e+04 6.576e-08
  2.69829     23.7 2.201e+04 5.284e-08
  2.70807     22.2 2.232e+04 4.399e-08
  2.71455     20.5 2.246e+04 3.845e-08
  2.71945     20.9 2.235e+04 3.406e-08
  2.72764     18.1 2.256e+04 3.417e-08
  2.73743     15.7 2.229e+04 3.384e-08
  2.74722     13.2 2.238e+04 3.657e-08
  2.75700     10.7 2.275e+04 4.214e-08
  2.76679      8.5 2.272e+04 4.676e-08
  2.77657      7.0 2.247e+04 4.749e-08
  2.78636      6.3 2.209e+04 4.432e-08
  2.79615      5.5 2.159e+04 3.786e-08
  2.80273      5.2 2.087e+04 2.849e-08
  2.80762      5.7 2.117e+04 3.530e-08
  2.81572      5.3 2.026e+04 2.289e-08
  2.83045      5.5 1.910e+04 1.275e-08
  2.85007      3.4 1.684e+04 4.439e-09
  2.86964      0.1 1.371e+04 1.724e-09
  2.88921     -1.6 1.220e+04 8.588e-10
  2.90878     -1.3 1.163e+04 6.398e-10
  2.93824     -0.2 1.118e+04 4.487e-10
  2.97748      1.5 1.071e+04 3.527e-10
  3.01662      4.0 1.049e+04 2.957e-10
  3.05577      6.7 1.044e+04 2.467e-10
  3.09491      9.2 1.043e+04 2.106e-10
  3.13405     11.9 1.036e+04 2.035e-10
  3.17320     14.4 1.035e+04 2.133e-10
  3.21234     17.1 1.043e+04 2.540e-10
  3.25149     19.9 1.075e+04 3.330e-10
  3.28075     21.7 1.085e+04 3.925e-10
  3.30022     22.2 1.093e+04 4.192e-10
  3.31979     23.5 1.123e+04 5.504e-10
  3.33936     24.1 1.145e+04 6.399e-10
  3.35894     24.6 1.193e+04 9.021e-10
  3.37851     24.8 1.231e+04 1.173e-09
  3.39808     24.8 1.289e+04 1.739e-09
  3.41765     25.0 1.326e+04 2.211e-09
  3.43722     25.2 1.361e+04 2.862e-09
  3.45680     25.7 1.375e+04 2.943e-09
  3.47637     25.9 1.376e+04 2.623e-09
  3.49594     25.3 1.421e+04 2.038e-09
  3.51551     22.2 1.496e+04 2.017e-09
  3.53508     18.3 1.540e+04 2.337e-09
  3.54516     16.1 1.508e+04 2.847e-09
  3.55495     18.1 1.522e+04 3.101e-09
  3.57423     17.2 1.484e+04 3.205e-09
  3.59380     17.5 1.434e+04 2.949e-09
  3.61337     17.5 1.384e+04 2.326e-09
  3.63294     18.0 1.289e+04 1.517e-09
  3.65251     17.5 1.215e+04 9.963e-10
  3.67209     17.9 1.150e+04 5.803e-10
  3.68770     17.6 1.124e+04 3.570e-10
  3.69748     16.4 1.132e+04 3.516e-10
  3.72111     16.5 1.134e+04 2.573e-10
  3.76036     15.7 1.124e+04 1.992e-10
  3.79950     15.8 1.127e+04 2.619e-10
  3.83864     17.0 1.113e+04 3.821e-10
  3.87779     19.0 1.098e+04 4.571e-10
  3.91693     20.9 1.090e+04 4.249e-10
  3.95607     22.1 1.097e+04 3.795e-10
  3.99522     23.2 1.116e+04 3.586e-10
  4.03436     24.3 1.127e+04 3.497e-10
  4.06362     25.8 1.127e+04 3.433e-10
  4.08310     26.3 1.137e+04 3.525e-10
  4.10267     26.7 1.152e+04 3.746e-10
  4.12224     27.1 1.169e+04 4.305e-10
  4.13503     27.6 1.182e+04 5.294e-10
  4.14481     26.7 1.178e+04 5.333e-10
  4.16138     27.3 1.202e+04 6.886e-10
  4.18096     27.3 1.244e+04 9.487e-10
  4.20053     27.2 1.303e+04 1.407e-09
  4.22010     27.3 1.343e+04 2.198e-09
  4.23967     28.2 1.369e+04 3.011e-09
  4.25924     29.5 1.367e+04 3.021e-09
  4.27882     30.9 1.366e+04 2.725e-09
  4.29839     31.8 1.358e+04 2.002e-09
  4.31796     31.4 1.338e+04 1.332e-09
  4.34742     31.4 1.282e+04 1.156e-09
  4.37097     31.5 1.185e+04 6.366e-10
  4.39054     32.1 1.194e+04 4.873e-10
  4.42580     33.0 1.117e+04 3.751e-10
  4.46494     34.4 1.089e+04 3.195e-10
  4.50409     36.0 1.091e+04 2.976e-10
  4.54323     37.8 1.093e+04 2.678e-10
  4.57276     39.4 1.093e+04 2.430e-10
  4.59233     38.8 1.120e+04 2.879e-10
  4.62152     40.4 1.127e+04 3.035e-10
  4.66066     42.2 1.115e+04 3.367e-10
  4.69981     44.3 1.089e+04 3.710e-10
  4.73895     46.5 1.073e+04 3.855e-10
  4.77809     48.8 1.074e+04 3.939e-10
  4.81724     50.9 1.093e+04 4.090e-10
  4.85638     52.8 1.121e+04 4.331e-10
  4.89553     54.7 1.140e+04 4.547e-10
  4.93467     56.5 1.148e+04 4.631e-10
  4.97381     58.3 1.149e+04 4.456e-10
  5.01296     60.1 1.149e+04 4.178e-10
  5.05210     61.7 1.140e+04 4.046e-10
  5.09125     63.4 1.122e+04 3.664e-10
  5.13039     65.0 1.099e+04 3.221e-10
  5.16953     66.6 1.081e+04 2.858e-10
  5.19659     68.1 1.060e+04 2.677e-10
  5.21616     68.9 1.035e+04 2.293e-10
  5.24782     70.3 1.014e+04 2.103e-10
  5.28696     71.7 9.934e+03 2.020e-10
  5.32611     73.0 9.834e+03 2.074e-10
  5.36525     74.5 9.753e+03 2.208e-10
  5.40440     76.0 9.708e+03 2.423e-10
  5.44354     77.6 9.697e+03 2.700e-10
  5.46742     79.3 9.729e+03 3.016e-10
  5.48699     78.5 9.491e+03 2.812e-10
  5.52183     80.3 9.515e+03 3.041e-10
  5.56097     82.2 9.572e+03 3.276e-10
  5.60011     84.0 9.640e+03 3.523e-10
  5.63926     85.6 9.695e+03 3.778e-10
  5.66852     86.7 9.652e+03 3.884e-10
  5.68799     87.8 9.639e+03 4.012e-10
  5.70756     89.0 9.703e+03 4.414e-10
  5.72714     90.0 9.902e+03 5.061e-10
  5.74671     90.9 1.016e+04 5.893e-10
  5.76628     91.3 1.043e+04 6.850e-10
  5.78585     91.1 1.130e+04 9.137e-10
  5.80542     90.8 1.256e+04 1.463e-09
  5.82500     90.5 1.387e+04 2.519e-09
  5.84457     90.4 1.506e+04 4.224e-09
  5.86414     90.3 1.607e+04 6.546e-09
  5.88371     90.3 1.690e+04 9.267e-09
  5.90328     90.4 1.750e+04 1.172e-08
  5.91455     90.4 1.765e+04 1.238e-08
  5.92434     89.8 1.758e+04 1.223e-08
  5.94243     90.1 1.716e+04 1.003e-08
  5.95706     90.6 1.687e+04 8.717e-09
  5.96679     90.9 1.650e+04 7.265e-09
  5.98152     90.7 1.581e+04 4.713e-09
  6.00114     90.2 1.495e+04 2.697e-09
  6.02072     88.5 1.371e+04 1.408e-09
  6.03179     86.0 1.191e+04 7.976e-10
  6.04158     88.2 1.332e+04 1.223e-09
  6.05986     85.8 1.153e+04 7.703e-10
  6.07943     84.5 1.080e+04 6.992e-10
  6.09900     84.2 1.079e+04 7.377e-10
  6.11857     84.1 1.092e+04 8.455e-10
  6.13815     84.1 1.115e+04 1.002e-09
  6.15772     84.2 1.137e+04 1.191e-09
  6.17729     84.6 1.154e+04 1.341e-09
  6.19686     85.0 1.163e+04 1.388e-09
  6.21643     85.3 1.163e+04 1.346e-09
  6.23601     85.4 1.158e+04 1.234e-09
  6.25558     85.2 1.147e+04 1.103e-09
  6.27515     84.9 1.136e+04 1.017e-09
  6.29472     84.4 1.132e+04 1.005e-09
  6.31429     84.1 1.134e+04 1.023e-09
  6.33387     83.9 1.143e+04 1.086e-09
  6.35209     83.9 1.155e+04 1.168e-09
  6.36188     83.2 1.129e+04 1.063e-09
  6.37301     83.5 1.139e+04 1.106e-09
  6.39258     83.7 1.139e+04 1.102e-09
  6.41215     84.0 1.134e+04 1.077e-09
  6.43173     84.3 1.119e+04 1.012e-09
  6.44460     84.6 1.100e+04 9.306e-10
  6.45439     84.4 1.120e+04 1.029e-09
  6.47087     84.7 1.101e+04 9.408e-10
  6.49044     85.2 1.088e+04 8.789e-10
  6.51001     85.7 1.082e+04 8.342e-10
  6.52958     86.5 1.079e+04 7.880e-10
  6.54916     87.2 1.076e+04 7.293e-10
  6.56873     87.9 1.071e+04 6.650e-10
  6.58830     88.3 1.062e+04 6.134e-10
  6.60787     88.4 1.052e+04 5.905e-10
  6.62744     88.5 1.051e+04 5.957e-10
  6.64702     88.4 1.056e+04 6.340e-10
  6.66659     88.4 1.073e+04 7.256e-10
  6.68616     88.4 1.095e+04 8.408e-10
  6.70573     88.5 1.118e+04 9.529e-10
  6.72530     88.5 1.135e+04 1.001e-09
  6.74488     88.4 1.137e+04 9.949e-10
  6.76445     88.2 1.129e+04 9.409e-10
  6.78402     88.0 1.109e+04 8.153e-10
  6.79942     87.7 1.081e+04 6.567e-10
  6.80920     87.5 1.076e+04 6.316e-10
  6.82316     86.8 1.052e+04 4.828e-10
  6.84274     86.0 1.019e+04 3.464e-10
  6.85741     85.6 1.011e+04 3.217e-10
  6.86729     85.7 1.024e+04 3.759e-10
  6.89186     85.6 9.799e+03 2.576e-10
  6.93100     85.8 9.512e+03 2.170e-10
  6.97015     86.3 9.512e+03 2.187e-10
  7.00929     87.0 9.604e+03 2.372e-10
  7.04844     87.8 9.856e+03 2.936e-10
  7.08758     88.8 1.016e+04 3.770e-10
  7.12672     90.0 1.045e+04 4.475e-10
  7.16587     91.2 1.057e+04 4.560e-10
  7.20501     92.7 1.058e+04 4.475e-10
  7.23716     94.4 1.057e+04 4.193e-10
  7.25673     95.1 1.086e+04 5.396e-10
  7.28330     96.9 1.091e+04 5.266e-10
  7.32244     98.8 1.100e+04 5.300e-10
  7.36159    100.8 1.108e+04 5.452e-10
  7.40073    103.0 1.119e+04 5.746e-10
  7.43987    105.4 1.151e+04 6.319e-10
  7.47902    107.9 1.172e+04 6.654e-10
  7.50828    108.9 1.167e+04 5.953e-10
  7.52775    109.7 1.189e+04 6.581e-10
  7.54732    110.5 1.218e+04 8.181e-10
  7.56690    111.4 1.243e+04 9.875e-10
  7.58647    112.4 1.268e+04 1.147e-09
  7.60604    113.3 1.296e+04 1.299e-09
  7.62561    114.1 1.327e+04 1.449e-09
  7.64518    114.8 1.359e+04 1.603e-09
  7.66475    115.3 1.386e+04 1.767e-09
  7.68302    115.7 1.407e+04 1.940e-09
  7.69277    116.3 1.484e+04 2.942e-09
  7.70386    116.1 1.513e+04 3.879e-09
  7.72347    116.5 1.508e+04 3.638e-09
  7.74304    117.0 1.492e+04 3.298e-09
  7.76261    117.4 1.465e+04 2.960e-09
  7.78219    117.9 1.420e+04 2.479e-09
  7.80176    118.5 1.364e+04 2.001e-09
  7.82133    119.0 1.306e+04 1.597e-09
  7.84090    119.4 1.252e+04 1.288e-09
  7.86047    119.9 1.208e+04 1.077e-09
  7.88005    120.4 1.174e+04 9.484e-10
  7.89962    120.9 1.154e+04 8.944e-10
  7.91919    121.5 1.151e+04 8.943e-10
  7.93876    121.6 1.152e+04 8.993e-10
  7.95833    121.5 1.157e+04 9.180e-10
  7.97791    121.0 1.175e+04 9.869e-10
  7.99748    119.4 1.230e+04 1.223e-09
  8.01705    116.7 1.326e+04 1.783e-09
  8.03662    113.7 1.424e+04 2.800e-09
  8.05619    110.9 1.501e+04 4.090e-09
  8.07576    108.8 1.567e+04 4.945e-09
  8.09534    107.4 1.554e+04 4.875e-09
  8.10562    105.0 1.597e+04 4.623e-09
  8.11540    107.3 1.509e+04 4.029e-09
  8.13161    103.8 1.583e+04 3.977e-09
  8.14140    107.2 1.401e+04 2.594e-09
  8.15405    103.3 1.465e+04 2.598e-09
  8.17362     98.8 1.505e+04 2.818e-09
  8.19320     95.1 1.501e+04 3.341e-09
  8.21277     92.8 1.488e+04 4.061e-09
  8.23234     91.8 1.492e+04 4.799e-09
  8.25191     91.4 1.512e+04 5.315e-09
  8.27148     91.0 1.534e+04 5.591e-09
  8.29106     90.1 1.552e+04 5.699e-09
  8.31063     88.9 1.574e+04 5.883e-09
  8.33020     87.7 1.592e+04 6.085e-09
  8.34977     86.4 1.586e+04 6.017e-09
  8.36934     85.4 1.567e+04 5.784e-09
  8.38892     84.6 1.530e+04 5.260e-09
  8.40849     84.0 1.478e+04 4.317e-09
  8.42806     83.3 1.413e+04 3.157e-09
  8.44763     82.0 1.349e+04 2.161e-09
  8.46720     79.9 1.292e+04 1.499e-09
  8.48677     77.4 1.237e+04 1.158e-09
  8.50635     75.3 1.185e+04 1.064e-09
  8.51843     73.9 1.173e+04 1.069e-09
  8.52821     73.1 1.120e+04 8.086e-10
  8.54549     72.2 1.122e+04 9.003e-10
  8.56506     71.5 1.145e+04 1.073e-09
  8.57894     70.9 1.189e+04 1.323e-09
  8.58873     71.6 1.157e+04 1.140e-09
  8.61409     69.6 1.191e+04 1.244e-09
  8.65333     68.5 1.167e+04 1.106e-09
  8.69248     67.7 1.105e+04 7.787e-10
  8.73162     67.0 1.028e+04 4.455e-10
  8.77076     66.2 9.534e+03 2.197e-10
  8.80991     65.1 8.875e+03 1.156e-10
  8.84905     64.6 8.649e+03 1.055e-10
  8.88819     64.3 8.696e+03 1.143e-10
  8.92734     63.4 9.097e+03 1.662e-10
  8.96648     61.6 9.827e+03 2.812e-10
  8.99574     59.3 1.086e+04 6.585e-10
  9.01522     59.4 1.126e+04 9.655e-10
  9.02627     59.2 1.167e+04 1.126e-09
  9.03606     59.4 1.161e+04 1.065e-09
  9.05436     59.1 1.173e+04 1.122e-09
  9.08382     58.3 1.179e+04 1.070e-09
  9.12306     56.0 1.192e+04 1.012e-09
  9.16220     53.9 1.221e+04 1.081e-09
  9.19146     50.9 1.295e+04 1.405e-09
  9.21094     49.5 1.356e+04 2.107e-09
  9.23051     49.5 1.414e+04 3.122e-09
  9.25008     49.4 1.486e+04 4.175e-09
  9.26965     48.4 1.606e+04 5.479e-09
  9.28922     46.4 1.754e+04 7.619e-09
  9.30879     44.3 1.859e+04 1.092e-08
  9.32837     42.7 1.926e+04 1.398e-08
  9.34404     41.2 2.020e+04 1.644e-08
  9.35383     38.8 1.994e+04 1.414e-08
  9.36751     36.1 1.977e+04 1.398e-08
  9.38708     33.7 1.869e+04 1.280e-08
  9.40665     32.8 1.735e+04 1.071e-08
  9.42623     32.8 1.641e+04 8.617e-09
  9.44580     32.8 1.593e+04 6.714e-09
  9.46381     32.1 1.612e+04 5.086e-09
  9.47360     30.8 1.678e+04 5.945e-09
  9.48494     27.2 1.731e+04 6.006e-09
  9.50451     23.8 1.685e+04 5.959e-09
  9.52409     21.9 1.591e+04 5.850e-09
  9.54366     18.5 1.775e+04 6.143e-09
  9.56323      9.1 2.332e+04 8.310e-09
  9.58280      0.5 2.106e+04 8.671e-09
  9.59743     -4.1 1.875e+04 8.253e-09
  9.60717     -6.1 1.696e+04 6.569e-09
  9.62190     -8.0 1.545e+04 4.491e-09
  9.64152    -11.1 1.375e+04 2.472e-09
  9.66109    -16.6 1.307e+04 1.420e-09
  9.68066    -23.4 1.237e+04 1.120e-09
  9.70023    -27.9 1.212e+04 1.259e-09
  9.71980    -29.7 1.231e+04 1.897e-09
  9.73938    -29.7 1.274e+04 2.536e-09
  9.75685    -28.7 1.310e+04 2.841e-09
  9.76664    -28.9 1.329e+04 3.001e-09
  9.77852    -28.2 1.339e+04 2.979e-09
  9.79809    -28.0 1.291e+04 1.968e-09
  9.81766    -30.7 1.200e+04 1.250e-09
  9.83724    -32.8 1.098e+04 8.568e-10
  9.85681    -33.6 1.050e+04 6.903e-10
  9.87638    -33.9 1.025e+04 6.097e-10
  9.89595    -34.0 1.011e+04 5.813e-10
  9.91114    -34.0 1.009e+04 5.806e-10
  9.92092    -33.6 1.005e+04 5.537e-10
  9.93510    -33.8 1.026e+04 6.303e-10
  9.95467    -34.2 1.073e+04 7.812e-10
  9.97424    -34.9 1.141e+04 1.060e-09
  9.99381    -35.7 1.204e+04 1.480e-09
 10.01338    -35.7 1.268e+04 2.031e-09
 10.03296    -35.6 1.316e+04 2.519e-09
 10.05253    -35.3 1.341e+04 2.742e-09
 10.07210    -35.4 1.342e+04 2.733e-09
 10.09167    -35.4 1.322e+04 2.367e-09
 10.11124    -36.2 1.281e+04 1.912e-09
 10.13081    -37.1 1.237e+04 1.605e-09
 10.15039    -37.9 1.206e+04 1.459e-09
 10.16966    -38.5 1.197e+04 1.426e-09
 10.17944    -37.4 1.215e+04 1.520e-09
 10.18953    -37.9 1.211e+04 1.520e-09
 10.20910    -38.3 1.212e+04 1.622e-09
 10.22867    -38.7 1.217e+04 1.719e-09
 10.24825    -39.2 1.221e+04 1.753e-09
 10.26782    -40.5 1.259e+04 1.784e-09
 10.28739    -55.8 3.312e+04 1.723e-09
 10.30202    -75.4 4.253e+04 2.953e-09
 10.31176    -86.4 3.369e+04 1.376e-08
 10.32154    -92.8 2.675e+04 5.555e-08
 10.33133    -97.4 2.361e+04 1.201e-07
 10.34111   -100.3 2.343e+04 1.407e-07
 10.35090   -104.5 2.478e+04 1.135e-07
 10.35837   -113.1 2.725e+04 3.081e-08
 10.36326   -108.3 2.620e+04 5.381e-08
 10.37047   -122.0 2.654e+04 7.215e-09
 10.38026   -139.2 1.712e+04 1.520e-09
 10.38575   -146.3 1.353e+04 1.170e-09
 10.39064   -146.3 1.401e+04 1.227e-09
 10.40477   -149.6 1.436e+04 1.375e-09
 10.42439   -154.0 1.555e+04 1.986e-09
 10.44397   -157.8 1.698e+04 4.209e-09
 10.46354   -159.0 1.791e+04 7.705e-09
 10.48311   -159.4 1.844e+04 1.086e-08
 10.50268   -160.1 1.848e+04 1.163e-08
 10.52225   -161.2 1.811e+04 1.048e-08
 10.54182   -162.7 1.744e+04 8.390e-09
 10.56140   -164.3 1.661e+04 6.616e-09
 10.58097   -165.4 1.580e+04 5.382e-09
 10.59225   -165.8 1.515e+04 4.566e-09
 10.60204   -165.6 1.542e+04 4.937e-09
 10.62011   -165.9 1.480e+04 4.070e-09
 10.63968   -166.0 1.423e+04 3.306e-09
 10.65926   -165.8 1.359e+04 2.589e-09
 10.67883   -165.3 1.293e+04 1.978e-09
 10.69840   -164.7 1.237e+04 1.526e-09
 10.71797   -164.3 1.191e+04 1.207e-09
 10.73754   -164.0 1.150e+04 9.853e-10
 10.75712   -163.8 1.115e+04 8.405e-10
 10.77669   -163.7 1.087e+04 7.547e-10
 10.79601   -163.6 1.067e+04 7.101e-10
 10.80579   -164.0 1.044e+04 6.209e-10
 10.81583   -163.8 1.041e+04 6.217e-10
 10.83540   -163.6 1.040e+04 6.526e-10
 10.85498   -163.5 1.047e+04 6.956e-10
 10.87455   -163.5 1.053e+04 7.163e-10
 10.89412   -163.5 1.054e+04 7.183e-10
 10.91369   -163.6 1.047e+04 7.062e-10
 10.93326   -163.6 1.032e+04 6.576e-10
 10.95283   -163.6 1.014e+04 5.961e-10
 10.97241   -163.6 9.971e+03 5.403e-10
 10.99198   -163.6 9.837e+03 4.976e-10
 11.00506   -163.6 9.757e+03 4.716e-10
 11.01485   -163.9 9.743e+03 4.730e-10
 11.03112   -163.9 9.722e+03 4.666e-10
 11.05069   -164.0 9.730e+03 4.674e-10
 11.07027   -164.2 9.855e+03 4.915e-10
 11.08984   -164.7 1.018e+04 5.770e-10
 11.10941   -165.2 1.053e+04 7.116e-10
 11.12898   -165.6 1.083e+04 8.548e-10
 11.14855   -165.9 1.103e+04 9.756e-10
 11.16813   -166.1 1.113e+04 1.048e-09
 11.18770   -166.2 1.116e+04 1.079e-09
 11.20727   -166.4 1.122e+04 1.099e-09
 11.22684   -168.1 1.152e+04 1.160e-09
 11.24333   -171.8 1.284e+04 1.465e-09
 11.25312   -173.0 1.331e+04 1.551e-09
 11.26599   -177.1 1.497e+04 2.637e-09
 11.28556   -180.1 1.585e+04 4.249e-09
 11.30513   -182.6 1.606e+04 5.448e-09
 11.32470   -184.8 1.601e+04 5.701e-09
 11.34427   -186.3 1.525e+04 5.195e-09
 11.36384   -187.1 1.415e+04 3.524e-09
 11.38342   -187.9 1.298e+04 2.121e-09
 11.40299   -188.7 1.199e+04 1.317e-09
 11.41787   -189.3 1.133e+04 9.149e-10
 11.42765   -189.0 1.165e+04 1.113e-09
 11.44213   -189.2 1.127e+04 8.807e-10
 11.46170   -189.2 1.104e+04 7.476e-10
 11.48128   -189.0 1.084e+04 6.500e-10
 11.50085   -188.4 1.068e+04 5.694e-10
 11.52042   -187.8 1.056e+04 5.037e-10
 11.53999   -187.2 1.048e+04 4.514e-10
 11.55956   -186.6 1.045e+04 4.210e-10
 11.57914   -185.9 1.047e+04 4.068e-10
 11.59871   -185.5 1.048e+04 4.045e-10
 11.61828   -184.7 1.057e+04 4.034e-10
 11.63785   -184.2 1.066e+04 4.137e-10
 11.65742   -183.3 1.078e+04 4.283e-10
 11.67699   -182.7 1.083e+04 4.377e-10
 11.69066   -181.6 1.087e+04 4.445e-10
 11.71033   -180.8 1.079e+04 3.701e-10
 11.74569   -179.2 1.081e+04 3.720e-10
 11.78484   -177.6 1.075e+04 3.517e-10
 11.82108   -175.7 1.056e+04 3.064e-10
 11.84066   -175.2 1.078e+04 3.085e-10
 11.86312   -173.3 1.054e+04 2.623e-10
 11.90227   -171.2 1.030e+04 2.218e-10
 11.94141   -169.1 1.011e+04 1.936e-10
 11.98055   -166.9 1.004e+04 1.803e-10
 12.01970   -164.7 1.003e+04 1.777e-10
 12.05884   -162.6 1.005e+04 1.789e-10
 12.09799   -160.7 1.019e+04 1.930e-10
 12.13713   -158.8 1.036e+04 2.232e-10
 12.17627   -157.0 1.054e+04 2.698e-10
 12.21542   -155.2 1.074e+04 3.335e-10
 12.25456   -153.6 1.091e+04 4.072e-10
 12.28382   -152.0 1.090e+04 4.353e-10
 12.30330   -151.7 1.096e+04 4.732e-10
 12.32287   -151.0 1.101e+04 5.304e-10
 12.34244   -150.4 1.102e+04 5.621e-10
 12.36201   -149.7 1.102e+04 5.812e-10
 12.38158   -149.1 1.101e+04 5.890e-10
 12.40116   -148.4 1.099e+04 5.909e-10
 12.42073   -147.7 1.082e+04 5.603e-10
 12.45018   -146.8 1.067e+04 4.985e-10
 12.48942   -144.9 1.038e+04 4.025e-10
 12.52857   -143.5 1.021e+04 3.488e-10
 12.56594   -141.8 9.966e+03 3.020e-10
 12.58551   -141.2 1.001e+04 3.118e-10
 12.60686   -139.3 9.821e+03 2.873e-10
 12.64600   -137.4 9.735e+03 2.806e-10
 12.66627   -135.4 9.721e+03 2.800e-10
 12.68584   -135.3 9.801e+03 3.266e-10
 12.72429   -133.5 9.719e+03 3.600e-10
 12.76343   -131.7 9.858e+03 4.282e-10
 12.80257   -130.1 1.009e+04 5.270e-10
 12.84172   -128.6 1.032e+04 6.328e-10
 12.88086   -127.4 1.047e+04 6.971e-10
 12.92001   -126.5 1.050e+04 7.075e-10
 12.95915   -125.6 1.042e+04 6.608e-10
 12.99829   -124.6 1.018e+04 5.575e-10
 13.03744   -123.6 9.970e+03 4.765e-10
 13.07658   -122.7 9.855e+03 4.428e-10
 13.11573   -121.7 9.816e+03 4.343e-10
 13.15487   -120.7 9.819e+03 4.356e-10
 13.19401   -119.8 9.839e+03 4.377e-10
 13.23316   -119.0 9.875e+03 4.410e-10
 13.27230   -118.3 9.943e+03 4.583e-10
 13.31144   -117.5 1.008e+04 5.010e-10
 13.35059   -116.3 1.028e+04 5.611e-10
 13.38973   -115.3 1.042e+04 5.941e-10
 13.41899   -114.5 1.050e+04 6.062e-10
 13.43847   -114.6 1.039e+04 5.363e-10
 13.46050   -114.9 1.015e+04 4.321e-10
 13.48007   -113.9 1.030e+04 4.842e-10
 13.49169   -114.2 1.007e+04 3.980e-10
 13.50148   -114.3 1.016e+04 3.597e-10
 13.51675   -114.6 9.979e+03 3.247e-10
 13.54621   -114.7 9.902e+03 3.145e-10
 13.58545   -114.8 9.783e+03 2.987e-10
 13.62459   -114.9 9.729e+03 3.132e-10
 13.66374   -114.9 9.923e+03 3.954e-10
 13.70288   -114.9 1.009e+04 4.711e-10
 13.74203   -114.8 1.018e+04 5.091e-10
 13.78117   -114.8 1.020e+04 5.173e-10
 13.82031   -114.7 1.019e+04 4.911e-10
 13.85946   -114.7 1.021e+04 4.742e-10
 13.89860   -116.1 1.061e+04 4.844e-10
 13.92786   -121.6 1.274e+04 8.423e-10
 13.94734   -124.9 1.386e+04 1.450e-09
 13.96691   -128.1 1.492e+04 3.000e-09
 13.98648   -130.6 1.552e+04 4.617e-09
 14.00605   -133.3 1.569e+04 5.211e-09
 14.02562   -136.6 1.561e+04 5.059e-09
 14.04520   -140.6 1.483e+04 3.282e-09
 14.06477   -145.4 1.340e+04 1.692e-09
 14.08434   -150.0 1.191e+04 9.878e-10
 14.10391   -152.8 1.127e+04 7.648e-10
 14.12348   -154.2 1.108e+04 6.944e-10
 14.14305   -155.4 1.105e+04 6.525e-10
 14.16263   -156.7 1.104e+04 6.255e-10
 14.18220   -157.9 1.105e+04 6.183e-10
 14.20177   -159.0 1.109e+04 6.190e-10
 14.22134   -160.1 1.116e+04 6.377e-10
 14.24091   -161.1 1.118e+04 6.651e-10
 14.26049   -162.1 1.115e+04 6.904e-10
 14.28006   -162.9 1.112e+04 7.133e-10
 14.29963   -163.4 1.111e+04 7.317e-10
 14.31731   -163.8 1.113e+04 7.465e-10
 14.32709   -164.5 1.127e+04 8.390e-10
 14.33877   -164.9 1.133e+04 8.780e-10
 14.35506   -165.2 1.139e+04 9.265e-10
 14.36484   -165.1 1.117e+04 7.883e-10
 14.37792   -165.3 1.119e+04 8.234e-10
 14.39749   -165.5 1.120e+04 8.533e-10
 14.41706   -165.6 1.121e+04 8.740e-10
 14.43663   -165.8 1.123e+04 8.985e-10
 14.45621   -167.2 1.162e+04 9.891e-10
 14.47578   -170.2 1.315e+04 1.456e-09
 14.49535   -173.2 1.483e+04 2.813e-09
 14.51492   -175.2 1.600e+04 5.396e-09
 14.53449   -176.3 1.667e+04 8.404e-09
 14.55406   -177.5 1.685e+04 9.813e-09
 14.57364   -178.8 1.676e+04 9.861e-09
 14.59321   -179.7 1.605e+04 7.701e-09
 14.61278   -180.4 1.494e+04 4.380e-09
 14.63235   -181.4 1.359e+04 2.110e-09
 14.65192   -182.7 1.217e+04 9.875e-10
 14.67150   -183.7 1.106e+04 5.328e-10
 14.69107   -184.1 1.054e+04 3.702e-10
 14.71064   -184.1 1.036e+04 3.290e-10
 14.73012   -183.3 1.031e+04 3.252e-10
 14.75957   -182.1 1.040e+04 3.378e-10
 14.79891   -181.2 1.052e+04 3.634e-10
 14.83805   -179.6 1.064e+04 3.952e-10
 14.86731   -178.1 1.068e+04 4.007e-10
 14.88679   -177.6 1.070e+04 4.129e-10
 14.90636   -176.6 1.074e+04 4.255e-10
 14.92593   -176.1 1.076e+04 4.381e-10
 14.94550   -175.3 1.082e+04 4.611e-10
 14.96507   -175.0 1.089e+04 5.009e-10
 14.98465   -174.6 1.102e+04 5.855e-10
 15.00422   -174.4 1.122e+04 7.093e-10
 15.02379   -174.3 1.158e+04 9.306e-10
 15.04336   -174.2 1.209e+04 1.280e-09
 15.06293   -174.0 1.270e+04 1.776e-09
 15.08251   -173.8 1.332e+04 2.398e-09
 15.10208   -173.7 1.386e+04 3.059e-09
 15.12165   -173.7 1.427e+04 3.624e-09
 15.14122   -173.8 1.450e+04 3.991e-09
 15.15271   -174.0 1.457e+04 4.143e-09
 15.16250   -174.5 1.490e+04 4.727e-09
 15.18037   -174.5 1.488e+04 4.755e-09
 15.19994   -174.5 1.483e+04 4.715e-09
 15.21951   -174.4 1.473e+04 4.584e-09
 15.23908   -174.3 1.455e+04 4.245e-09
 15.24971   -174.1 1.430e+04 3.708e-09
 15.25950   -173.6 1.443e+04 4.109e-09
 15.27823   -173.4 1.410e+04 3.464e-09
 15.29780   -173.1 1.372e+04 2.789e-09
 15.31737   -172.9 1.334e+04 2.188e-09
 15.33694   -172.8 1.298e+04 1.717e-09
 15.35651   -172.7 1.267e+04 1.409e-09
 15.37608   -172.4 1.248e+04 1.259e-09
 15.39566   -171.9 1.240e+04 1.203e-09
 15.42511   -171.2 1.242e+04 1.205e-09
 15.46435   -169.5 1.242e+04 1.222e-09
 15.50350   -168.4 1.264e+04 1.327e-09
 15.54264   -167.6 1.291e+04 1.521e-09
 15.58178   -167.0 1.314e+04 1.737e-09
 15.62093   -166.3 1.329e+04 1.926e-09
 15.66007   -165.5 1.344e+04 2.072e-09
 15.69922   -164.8 1.355e+04 2.209e-09
 15.72848   -164.2 1.354e+04 2.311e-09
 15.74795   -163.8 1.361e+04 2.560e-09
 15.76752   -163.3 1.381e+04 3.073e-09
 15.78709   -162.7 1.425e+04 3.898e-09
 15.80667   -162.2 1.472e+04 4.943e-09
 15.82624   -161.7 1.511e+04 5.742e-09
 15.84581   -161.5 1.527e+04 5.970e-09
 15.86538   -161.5 1.538e+04 5.723e-09
 15.88495   -161.5 1.527e+04 4.633e-09
 15.90453   -161.7 1.489e+04 3.361e-09
 15.92410   -162.2 1.438e+04 2.316e-09
 15.94367   -162.5 1.383e+04 1.638e-09
 15.96324   -162.7 1.328e+04 1.235e-09
 15.97833   -162.7 1.278e+04 9.979e-10
 15.98811   -162.7 1.283e+04 1.548e-09
 16.00239   -162.7 1.243e+04 1.227e-09
 16.02196   -162.5 1.214e+04 1.056e-09
 16.04153   -162.2 1.194e+04 9.858e-10
 16.06110   -161.8 1.186e+04 9.704e-10
 16.08067   -161.3 1.185e+04 9.701e-10
 16.10024   -160.8 1.182e+04 9.914e-10
 16.11982   -160.3 1.180e+04 1.024e-09
 16.13458   -159.8 1.179e+04 1.041e-09
 16.14436   -159.4 1.166e+04 8.385e-10
 16.15896   -158.9 1.165e+04 8.446e-10
 16.17853   -158.5 1.163e+04 8.449e-10
 16.19810   -158.0 1.158e+04 8.254e-10
 16.21768   -157.6 1.158e+04 7.917e-10
 16.23725   -157.3 1.160e+04 7.599e-10
 16.25682   -157.0 1.163e+04 7.305e-10
 16.27639   -156.7 1.165e+04 7.029e-10
 16.29596   -156.5 1.167e+04 6.731e-10
 16.31554   -156.2 1.168e+04 6.441e-10
 16.33511   -155.9 1.168e+04 6.174e-10
 16.35468   -155.7 1.168e+04 5.968e-10
 16.37425   -155.4 1.169e+04 5.864e-10
 16.39113   -155.2 1.170e+04 5.837e-10
 16.40092   -155.0 1.168e+04 6.716e-10
 16.41340   -154.8 1.168e+04 6.673e-10
 16.43297   -154.6 1.178e+04 6.796e-10
 16.45254   -154.4 1.189e+04 7.465e-10
 16.47211   -154.2 1.197e+04 8.327e-10
 16.49168   -153.9 1.202e+04 9.104e-10
 16.51125   -153.6 1.200e+04 9.530e-10
 16.53083   -153.1 1.200e+04 9.634e-10
 16.55040   -152.5 1.187e+04 9.399e-10
 16.56997   -151.8 1.175e+04 8.044e-10
 16.58191   -151.2 1.163e+04 6.336e-10
 16.59169   -150.8 1.174e+04 7.706e-10
 16.60911   -150.4 1.160e+04 5.815e-10
 16.63857   -150.3 1.144e+04 4.339e-10
 16.67781   -149.0 1.114e+04 2.934e-10
 16.71696   -147.5 1.087e+04 1.952e-10
 16.75610   -145.8 1.081e+04 1.427e-10
 16.79435   -144.2 1.090e+04 1.258e-10
 16.81392   -143.6 1.090e+04 1.753e-10
 16.83439   -142.3 1.098e+04 1.683e-10
 16.87353   -141.6 1.120e+04 1.657e-10
 16.91267   -141.5 1.170e+04 1.965e-10
 16.95182   -141.4 1.185e+04 2.799e-10
 16.99096   -141.3 1.200e+04 3.806e-10
 17.01964   -141.2 1.207e+04 4.645e-10
 17.03922   -140.7 1.231e+04 6.417e-10
 17.06925   -140.8 1.230e+04 6.839e-10
 17.10839   -140.8 1.227e+04 6.859e-10
 17.14754   -140.4 1.204e+04 6.437e-10
 17.18668   -139.7 1.189e+04 5.836e-10
 17.22582   -138.9 1.188e+04 5.659e-10
 17.26497   -138.2 1.196e+04 5.908e-10
 17.30411   -137.6 1.211e+04 7.488e-10
 17.34326   -136.9 1.223e+04 9.525e-10
 17.38240   -136.0 1.225e+04 1.133e-09
 17.42154   -135.0 1.220e+04 1.230e-09
 17.46069   -133.9 1.216e+04 1.247e-09
 17.49983   -132.6 1.190e+04 1.218e-09
 17.53898   -131.2 1.159e+04 1.076e-09
 17.57812   -129.8 1.128e+04 9.113e-10
 17.61726   -128.3 1.096e+04 7.587e-10
 17.63954   -126.7 1.066e+04 6.251e-10
 17.65911   -126.4 1.074e+04 6.533e-10
 17.69555   -124.9 1.046e+04 5.466e-10
 17.73469   -123.3 1.018e+04 4.524e-10
 17.77384   -121.7 9.916e+03 3.721e-10
 17.81298   -120.1 9.671e+03 3.087e-10
 17.85213   -118.5 9.488e+03 2.644e-10
 17.89127   -116.8 9.374e+03 2.408e-10
 17.91430   -115.2 9.273e+03 2.283e-10
 17.93387   -114.9 8.970e+03 1.901e-10
 17.96956   -113.3 8.857e+03 1.687e-10
 18.00870   -111.6 8.771e+03 1.503e-10
 18.04784   -109.9 8.694e+03 1.328e-10
 18.08699   -108.2 8.626e+03 1.158e-10
 18.12613   -106.6 8.578e+03 9.945e-11
 18.16528   -105.0 8.560e+03 8.463e-11
 18.20442   -103.5 8.588e+03 7.299e-11
 18.24356   -102.1 8.660e+03 6.417e-11
 18.28271   -100.7 8.711e+03 6.065e-11
 18.32185    -99.5 8.728e+03 5.997e-11
 18.36100    -98.5 8.896e+03 6.057e-11
 18.40014    -97.7 8.966e+03 7.200e-11
 18.43928    -96.9 8.990e+03 9.438e-11
 18.46515    -95.9 9.070e+03 1.276e-10
 18.48473    -95.3 9.095e+03 1.269e-10
 18.51757    -94.5 9.241e+03 1.670e-10
 18.55671    -93.9 9.440e+03 2.132e-10
 18.59586    -93.7 9.669e+03 2.642e-10
 18.63500    -93.6 9.911e+03 3.211e-10
 18.67415    -93.6 1.013e+04 3.823e-10
 18.71329    -93.8 1.025e+04 4.288e-10
 18.75243    -94.1 1.028e+04 4.427e-10
 18.78938    -94.5 1.024e+04 4.393e-10
 18.80895    -93.6 1.030e+04 4.745e-10
 18.83072    -94.2 1.033e+04 4.784e-10
 18.86986    -95.6 1.045e+04 4.854e-10
 18.90901    -98.3 1.125e+04 6.445e-10
 18.94815   -101.6 1.214e+04 1.055e-09
 18.98730   -105.3 1.254e+04 1.370e-09
 19.02644   -109.5 1.252e+04 1.384e-09
 19.06558   -113.9 1.234e+04 1.225e-09
 19.10473   -119.3 1.242e+04 1.171e-09
 19.14387   -124.7 1.275e+04 1.384e-09
 19.17313   -128.8 1.262e+04 1.577e-09
 19.19261   -130.8 1.254e+04 1.657e-09
 19.21218   -132.6 1.244e+04 1.678e-09
 19.23175   -134.2 1.238e+04 1.685e-09
 19.24630   -137.6 1.256e+04 1.736e-09
 19.25609   -136.7 1.235e+04 1.740e-09
 19.27089   -141.7 1.332e+04 1.831e-09
 19.29047   -149.4 1.729e+04 3.288e-09
 19.30036   -156.4 1.967e+04 7.958e-09
 19.31015   -159.5 1.983e+04 7.884e-09
 19.32961   -165.0 2.004e+04 1.105e-08
 19.34918   -169.6 1.977e+04 1.167e-08
 19.36875   -173.0 1.852e+04 9.008e-09
 19.38832   -176.5 1.689e+04 4.329e-09
 19.40790   -180.5 1.487e+04 1.768e-09
 19.42747   -184.9 1.288e+04 8.985e-10
 19.44704   -188.5 1.185e+04 7.164e-10
 19.46661   -190.9 1.159e+04 6.918e-10
 19.48618   -192.9 1.151e+04 7.708e-10
 19.50576   -194.7 1.162e+04 9.185e-10
 19.52533   -196.6 1.170e+04 1.040e-09
 19.54490   -198.5 1.173e+04 1.119e-09
 19.56447   -200.3 1.173e+04 1.157e-09
 19.58404   -202.1 1.172e+04 1.165e-09
 19.60362   -203.6 1.158e+04 1.161e-09
 19.62319   -204.8 1.130e+04 1.088e-09
 19.64276   -205.7 1.100e+04 9.626e-10
 19.66233   -206.4 1.071e+04 8.276e-10
 19.68190   -207.0 1.044e+04 7.053e-10
 19.69363   -207.4 1.019e+04 6.076e-10
 19.70341   -207.9 1.023e+04 6.241e-10
 19.71317   -208.2 1.008e+04 5.803e-10
 19.72295   -209.0 1.033e+04 6.503e-10
 19.74062   -209.1 1.031e+04 6.417e-10
 19.76019   -209.1 1.030e+04 6.411e-10
 19.77976   -208.8 1.030e+04 6.455e-10
 19.79933   -208.5 1.036e+04 6.894e-10
 19.81891   -208.1 1.049e+04 7.675e-10
 19.83848   -207.8 1.062e+04 8.465e-10
 19.85805   -207.4 1.068e+04 8.986e-10
 19.87762   -207.1 1.068e+04 9.132e-10
 19.89719   -206.7 1.064e+04 9.107e-10
 19.91677   -206.2 1.053e+04 8.712e-10
 19.93634   -205.7 1.040e+04 8.192e-10
 19.95591   -205.1 1.028e+04 7.687e-10
 19.97548   -204.5 1.018e+04 7.244e-10
 19.99505   -203.9 1.011e+04 6.911e-10
 20.01463   -203.4 1.007e+04 6.649e-10
 20.03420   -202.9 1.004e+04 6.414e-10
 20.05377   -202.4 9.999e+03 6.174e-10
 20.07334   -202.0 9.951e+03 5.902e-10
 20.09291   -201.6 9.874e+03 5.586e-10
 20.11629   -201.1 9.757e+03 5.136e-10
 20.13497   -200.2 9.704e+03 4.775e-10
 20.14095   -200.1 9.610e+03 4.559e-10
 20.16151   -199.6 9.614e+03 4.412e-10
 20.20075   -198.8 9.461e+03 4.023e-10
 20.23990   -197.5 9.263e+03 3.552e-10
 20.27904   -196.2 9.116e+03 3.113e-10
 20.31819   -194.8 8.955e+03 2.700e-10
 20.35733   -193.3 8.832e+03 2.361e-10
 20.39647   -191.8 8.754e+03 2.141e-10
 20.43562   -190.3 8.741e+03 2.067e-10
 20.47476   -189.0 8.748e+03 2.062e-10
 20.51390   -188.0 8.857e+03 2.145e-10
 20.55305   -187.2 9.010e+03 2.330e-10
 20.57869   -186.6 9.125e+03 2.494e-10
 20.59826   -186.5 9.066e+03 2.390e-10
 20.63134   -186.1 9.119e+03 2.449e-10
 20.67048   -185.8 9.129e+03 2.431e-10
 20.70962   -185.3 9.117e+03 2.307e-10
 20.74877   -184.7 9.103e+03 2.152e-10
 20.78791   -184.0 9.113e+03 2.021e-10
 20.82705   -183.2 9.147e+03 1.944e-10
 20.86620   -182.3 9.168e+03 1.925e-10
 20.90534   -181.4 9.330e+03 1.926e-10
 20.94200   -180.6 9.446e+03 2.029e-10
 20.96157   -180.4 9.295e+03 1.621e-10
 20.98363   -179.4 9.366e+03 1.681e-10
 21.02277   -178.4 9.435e+03 1.745e-10
 21.06192   -177.3 9.463e+03 1.787e-10
 21.10106   -176.0 9.462e+03 1.803e-10
 21.14021   -174.4 9.446e+03 1.741e-10
 21.17935   -172.6 9.442e+03 1.592e-10
 21.21849   -170.7 9.465e+03 1.406e-10
 21.25764   -168.7 9.517e+03 1.237e-10
 21.29678   -166.8 9.599e+03 1.114e-10
 21.33592   -164.8 9.718e+03 1.049e-10
 21.37507   -162.8 9.782e+03 1.034e-10
 21.41421   -160.8 9.827e+03 1.033e-10
 21.45336   -159.0 9.936e+03 1.044e-10
 21.47335   -157.1 9.995e+03 1.089e-10
 21.49292   -156.3 1.000e+04 1.097e-10
 21.53164   -154.5 1.004e+04 1.205e-10
 21.57079   -152.6 1.010e+04 1.309e-10
 21.60993   -150.8 1.015e+04 1.352e-10
 21.64907   -149.1 1.028e+04 1.317e-10
 21.68822   -147.4 1.035e+04 1.248e-10
 21.72736   -145.8 1.053e+04 1.164e-10
 21.76651   -144.4 1.062e+04 1.143e-10
 21.78719   -143.1 1.071e+04 1.145e-10
 21.80676   -143.7 1.083e+04 1.636e-10
 21.84479   -142.5 1.114e+04 1.663e-10
 21.88394   -141.2 1.126e+04 1.892e-10
 21.92308   -139.9 1.122e+04 2.247e-10
 21.96223   -138.5 1.118e+04 2.583e-10
 22.00137   -136.9 1.116e+04 2.806e-10
 22.04051   -135.2 1.113e+04 2.893e-10
 22.07966   -133.5 1.112e+04 2.925e-10
 22.11880   -131.7 1.102e+04 2.874e-10
 22.15794   -129.7 1.091e+04 2.590e-10
 22.19709   -127.6 1.079e+04 2.207e-10
 22.23623   -125.5 1.067e+04 1.844e-10
 22.27538   -123.4 1.058e+04 1.570e-10
 22.31452   -121.4 1.054e+04 1.405e-10
 22.34843   -119.5 1.054e+04 1.336e-10
 22.36800   -118.5 1.049e+04 1.101e-10
 22.39281   -116.5 1.048e+04 1.108e-10
 22.43195   -114.5 1.048e+04 1.134e-10
 22.47109   -112.5 1.048e+04 1.187e-10
 22.51024   -110.7 1.050e+04 1.256e-10
 22.54938   -109.0 1.059e+04 1.372e-10
 22.58853   -107.4 1.074e+04 1.602e-10
 22.61280   -106.1 1.093e+04 2.003e-10
 22.63238   -106.8 1.105e+04 2.052e-10
 22.66681   -105.7 1.145e+04 2.970e-10
 22.70596   -104.7 1.180e+04 4.642e-10
 22.74510   -103.7 1.205e+04 6.925e-10
 22.78424   -102.6 1.222e+04 9.322e-10
 22.82339   -101.4 1.234e+04 1.123e-09
 22.86253   -100.2 1.236e+04 1.222e-09
 22.90168    -98.9 1.231e+04 1.228e-09
 22.94082    -97.5 1.220e+04 1.172e-09
 22.97996    -96.0 1.200e+04 1.014e-09
 23.01911    -94.5 1.178e+04 8.221e-10
 23.05825    -93.0 1.160e+04 6.728e-10
 23.09740    -91.7 1.154e+04 6.032e-10
 23.13654    -90.4 1.154e+04 6.008e-10
 23.17568    -89.2 1.150e+04 6.253e-10
 23.21483    -88.1 1.149e+04 6.509e-10
 23.24308    -87.1 1.143e+04 6.556e-10
 23.26266    -85.9 1.137e+04 6.384e-10
 23.29311    -84.9 1.133e+04 6.081e-10
 23.33226    -84.0 1.131e+04 6.012e-10
 23.37140    -83.4 1.147e+04 6.661e-10
 23.41055    -82.9 1.187e+04 8.830e-10
 23.43842    -82.5 1.229e+04 1.175e-09
 23.45799    -83.2 1.307e+04 2.228e-09
 23.48883    -83.0 1.322e+04 2.471e-09
 23.52798    -82.7 1.303e+04 2.361e-09
 23.56712    -82.0 1.263e+04 1.945e-09
 23.60626    -81.2 1.226e+04 1.617e-09
 23.64541    -80.3 1.194e+04 1.387e-09
 23.68455    -79.2 1.169e+04 1.196e-09
 23.72370    -78.0 1.150e+04 1.043e-09
 23.76284    -76.7 1.128e+04 8.776e-10
 23.80198    -75.2 1.105e+04 7.034e-10
 23.84113    -73.7 1.086e+04 5.610e-10
 23.88027    -72.2 1.072e+04 4.637e-10
 23.91942    -70.7 1.063e+04 4.074e-10
 23.95856    -69.2 1.057e+04 3.780e-10
 23.99770    -67.7 1.053e+04 3.596e-10
 24.03685    -66.0 1.050e+04 3.404e-10
 24.07599    -64.2 1.046e+04 3.149e-10
 24.11513    -62.3 1.037e+04 2.756e-10
 24.13774    -60.3 1.033e+04 2.312e-10
 24.15731    -59.7 1.036e+04 2.303e-10
 24.19342    -57.7 1.034e+04 1.947e-10
 24.23257    -55.7 1.032e+04 1.635e-10
 24.26404    -53.7 1.031e+04 1.384e-10
 24.28361    -53.8 1.032e+04 1.439e-10
 24.31085    -51.8 1.028e+04 1.175e-10
 24.35000    -49.6 1.024e+04 9.769e-11
 24.38914    -47.4 1.024e+04 8.126e-11
 24.42828    -45.2 1.023e+04 7.106e-11
 24.46743    -43.0 1.022e+04 6.815e-11
 24.50657    -40.6 1.022e+04 6.807e-11
 24.54572    -38.4 1.023e+04 7.268e-11
 24.58486    -36.1 1.020e+04 8.010e-11
 24.62400    -33.7 1.017e+04 8.741e-11
 24.66315    -31.2 1.016e+04 9.388e-11
 24.70229    -28.9 1.015e+04 9.969e-11
 24.74144    -26.5 1.015e+04 1.051e-10
 24.78058    -24.0 1.015e+04 1.093e-10
 24.81972    -21.6 1.015e+04 1.099e-10
 24.85887    -19.1 1.014e+04 1.032e-10
 24.89801    -16.7 1.021e+04 9.183e-11
 24.93715    -14.7 1.024e+04 8.647e-11
 24.97630    -12.8 1.034e+04 8.935e-11
 25.01282    -11.0 1.022e+04 1.079e-10
 25.03239    -10.5 1.022e+04 1.159e-10
 25.05459     -8.0 1.022e+04 1.404e-10
 25.08965     -5.7 1.027e+04 1.471e-10
 25.10922     -5.9 1.025e+04 1.644e-10
 25.13287     -3.5 1.019e+04 1.499e-10
 25.17202     -1.1 1.023e+04 1.193e-10
 25.21116      0.8 1.030e+04 9.984e-11
 25.25030      2.7 1.041e+04 9.123e-11
 25.28945      4.3 1.049e+04 9.732e-11
 25.32859      6.1 1.043e+04 1.213e-10
 25.36774      8.3 1.038e+04 1.482e-10
 25.40688     10.4 1.044e+04 1.546e-10
 25.44602     12.6 1.045e+04 1.464e-10
 25.48517     14.4 1.050e+04 1.338e-10
 25.52431     16.2 1.051e+04 1.326e-10
 25.56346     18.0 1.053e+04 1.388e-10
 25.60260     19.9 1.054e+04 1.571e-10
 25.64174     21.8 1.056e+04 1.888e-10
 25.68089     23.7 1.060e+04 2.340e-10
 25.72003     25.8 1.067e+04 2.835e-10
 25.75917     27.8 1.075e+04 3.210e-10
 25.79832     29.8 1.080e+04 3.360e-10
 25.83746     31.7 1.082e+04 3.408e-10
 25.87661     33.7 1.079e+04 3.289e-10
 25.90748     35.8 1.077e+04 3.027e-10
 25.92657     36.4 1.074e+04 2.963e-10
 25.93484     36.4 1.062e+04 2.254e-10
 25.95489     38.4 1.062e+04 1.966e-10
 25.99404     40.5 1.062e+04 1.798e-10
 26.03318     42.6 1.062e+04 1.763e-10
 26.07232     44.7 1.063e+04 1.841e-10
 26.11147     46.8 1.067e+04 2.071e-10
 26.15061     49.0 1.072e+04 2.415e-10
 26.18976     51.2 1.076e+04 2.827e-10
 26.22890     53.4 1.080e+04 3.239e-10
 26.26804     55.7 1.084e+04 3.598e-10
 26.30719     58.0 1.093e+04 3.602e-10
 26.34633     60.2 1.095e+04 3.572e-10
 26.38548     62.4 1.098e+04 3.473e-10
 26.42462     64.7 1.101e+04 3.376e-10
 26.46376     67.1 1.103e+04 3.353e-10
 26.50291     69.6 1.102e+04 3.374e-10
 26.54205     72.2 1.101e+04 3.413e-10
 26.58119     74.9 1.101e+04 3.538e-10
 26.62034     77.6 1.105e+04 3.949e-10
 26.65948     80.7 1.127e+04 4.883e-10
 26.69863     83.9 1.169e+04 6.132e-10
 26.73777     85.9 1.187e+04 7.012e-10
 26.76036     87.2 1.189e+04 7.991e-10
 26.77005     86.5 1.194e+04 8.732e-10
 26.78650     88.1 1.211e+04 1.076e-09
 26.80194     89.5 1.240e+04 1.363e-09
 26.81172     89.4 1.249e+04 1.411e-09
 26.82565     90.4 1.291e+04 1.855e-09
 26.84522     91.2 1.345e+04 2.590e-09
 26.86479     91.8 1.420e+04 3.863e-09
 26.88436     92.5 1.530e+04 6.147e-09
 26.90394     92.8 1.638e+04 9.223e-09
 26.91857     93.0 1.706e+04 1.147e-08
 26.92830     92.8 1.766e+04 1.368e-08
 26.93809     92.4 1.830e+04 1.688e-08
 26.94787     91.8 1.899e+04 2.031e-08
 26.95766     90.9 1.971e+04 2.356e-08
 26.96657     89.1 2.056e+04 2.672e-08
 26.97146     87.3 1.970e+04 1.884e-08
 26.97723     84.6 2.021e+04 2.023e-08
 26.98702     81.3 2.058e+04 2.185e-08
 26.99680     77.7 2.070e+04 2.436e-08
 27.00659     74.5 2.066e+04 2.773e-08
 27.01638     71.8 2.034e+04 3.086e-08
 27.02550     69.9 2.018e+04 3.115e-08
 27.03039     69.5 1.955e+04 2.802e-08
 27.03595     67.5 1.950e+04 2.913e-08
 27.04573     67.0 1.940e+04 2.911e-08
 27.06046     65.0 1.970e+04 3.341e-08
 27.08008     63.3 1.911e+04 2.313e-08
 27.09965     60.9 1.821e+04 1.534e-08
 27.11923     58.8 1.734e+04 1.382e-08
 27.13880     57.7 1.725e+04 1.402e-08
 27.15837     57.1 1.727e+04 1.489e-08
 27.17307     56.5 1.727e+04 1.500e-08
 27.18285     58.1 1.674e+04 1.206e-08
 27.19751     57.3 1.662e+04 1.113e-08
 27.21709     56.4 1.629e+04 9.420e-09
 27.23666     55.3 1.571e+04 7.190e-09
 27.24926     54.2 1.481e+04 4.973e-09
 27.25905     54.1 1.449e+04 4.692e-09
 27.27580     53.4 1.367e+04 3.197e-09
 27.29537     53.2 1.288e+04 1.930e-09
 27.32483     51.5 1.222e+04 7.631e-10
 27.36407     49.9 1.116e+04 4.244e-10
 27.40321     50.1 1.111e+04 4.277e-10
 27.44236     50.5 1.117e+04 4.977e-10
 27.48150     51.4 1.129e+04 6.434e-10
 27.52065     52.4 1.139e+04 7.694e-10
 27.55979     53.5 1.146e+04 8.089e-10
 27.58607     54.4 1.148e+04 7.821e-10
 27.60564     53.9 1.121e+04 6.048e-10
 27.63808     54.8 1.118e+04 5.329e-10
 27.67721     55.5 1.116e+04 4.847e-10
 27.71636     55.3 1.115e+04 4.855e-10
 27.75551     56.3 1.101e+04 4.196e-10
 27.79465     57.3 1.087e+04 3.459e-10
 27.83380     58.3 1.076e+04 2.736e-10
 27.87294     59.2 1.068e+04 2.311e-10
 27.91208     60.4 1.067e+04 2.297e-10
 27.95123     61.3 1.072e+04 2.508e-10
 27.99037     62.1 1.088e+04 3.432e-10
 28.02951     62.7 1.121e+04 5.475e-10
 28.06866     62.9 1.162e+04 8.132e-10
 28.09792     62.6 1.180e+04 9.294e-10
 28.11739     62.4 1.200e+04 1.042e-09
 28.13413     62.0 1.224e+04 1.170e-09
 28.14392     61.6 1.235e+04 1.244e-09
 28.15654     61.0 1.247e+04 1.326e-09
 28.17611     59.8 1.260e+04 1.372e-09
 28.19568     59.0 1.256e+04 1.352e-09
 28.22514     57.8 1.250e+04 1.277e-09
 28.26438     55.8 1.232e+04 1.081e-09
 28.30352     54.1 1.194e+04 7.265e-10
 28.34267     53.0 1.148e+04 4.065e-10
 28.38181     52.5 1.117e+04 2.235e-10
 28.41169     52.4 1.095e+04 1.516e-10
 28.43126     52.5 1.084e+04 1.429e-10
 28.46010     53.0 1.053e+04 1.271e-10
 28.49924     54.4 1.049e+04 1.267e-10
 28.53838     56.2 1.047e+04 1.333e-10
 28.57187     58.0 1.051e+04 1.501e-10
 28.59144     57.9 1.058e+04 1.808e-10
 28.61667     59.9 1.065e+04 2.187e-10
 28.65582     61.9 1.078e+04 2.546e-10
 28.69496     64.0 1.092e+04 2.771e-10
 28.73410     65.9 1.096e+04 2.749e-10
 28.77325     67.9 1.096e+04 2.607e-10
 28.81239     69.9 1.092e+04 2.292e-10
 28.85153     72.0 1.087e+04 1.958e-10
 28.89068     74.0 1.081e+04 1.713e-10
 28.92982     76.1 1.078e+04 1.572e-10
 28.96897     78.2 1.077e+04 1.499e-10
 29.00811     80.2 1.078e+04 1.461e-10
 29.04725     82.1 1.078e+04 1.452e-10
 29.08640     84.0 1.077e+04 1.440e-10
 29.12554     85.9 1.077e+04 1.443e-10
 29.16469     87.8 1.079e+04 1.474e-10
 29.20383     89.5 1.083e+04 1.572e-10
 29.23730     91.1 1.089e+04 1.838e-10
 29.25687     91.0 1.084e+04 1.963e-10
 29.28212     92.5 1.093e+04 2.489e-10
 29.32126     94.0 1.102e+04 3.301e-10
 29.36040     95.4 1.118e+04 4.213e-10
 29.39955     96.5 1.138e+04 4.868e-10
 29.43869     97.4 1.151e+04 4.913e-10
 29.46652     98.1 1.153e+04 4.770e-10
 29.48610     96.9 1.154e+04 4.755e-10
 29.51698     97.6 1.147e+04 4.053e-10
 29.55612     98.5 1.131e+04 3.050e-10
 29.59527     99.6 1.112e+04 2.072e-10
 29.63441    101.0 1.095e+04 1.350e-10
 29.67355    102.6 1.081e+04 9.283e-11
 29.71270    104.3 1.067e+04 7.481e-11
 29.75184    106.3 1.053e+04 7.042e-11
 29.79099    108.6 1.048e+04 6.894e-11
 29.83013    111.0 1.045e+04 6.808e-11
 29.86927    113.6 1.044e+04 6.698e-11
 29.90842    116.1 1.042e+04 6.528e-11
 29.94756    118.7 1.039e+04 6.314e-11
 29.98671    121.2 1.031e+04 6.165e-11
 30.02585    123.8 1.030e+04 6.141e-11
 30.06292    126.4 1.029e+04 6.164e-11
 30.08249    126.5 1.038e+04 6.277e-11
 30.10414    129.0 1.036e+04 6.533e-11
 30.14328    131.5 1.033e+04 7.328e-11
 30.18242    133.9 1.034e+04 8.819e-11
 30.22157    136.3 1.038e+04 1.109e-10
 30.26071    138.7 1.045e+04 1.412e-10
 30.29986    141.0 1.054e+04 1.784e-10
 30.33900    143.3 1.065e+04 2.221e-10
 30.36118    145.4 1.077e+04 2.738e-10
 30.38075    144.6 1.079e+04 2.759e-10
 30.41729    146.6 1.092e+04 3.278e-10
 30.45643    148.5 1.105e+04 3.868e-10
 30.49557    150.4 1.116e+04 4.404e-10
 30.53472    152.2 1.121e+04 4.697e-10
 30.57386    154.0 1.127e+04 4.698e-10
 30.61301    155.8 1.128e+04 4.657e-10
 30.65215    157.7 1.133e+04 4.589e-10
 30.69129    159.5 1.140e+04 4.609e-10
 30.73044    161.2 1.148e+04 4.791e-10
 30.76958    163.0 1.151e+04 5.179e-10
 30.80873    164.8 1.159e+04 5.990e-10
 30.84787    166.4 1.170e+04 7.019e-10
 30.88701    167.8 1.186e+04 7.947e-10
 30.90811    168.3 1.203e+04 8.223e-10
 30.92768    169.1 1.192e+04 7.669e-10
 30.96530    169.1 1.212e+04 7.820e-10
 31.00444    168.7 1.229e+04 7.371e-10
 31.04359    167.6 1.253e+04 6.106e-10
 31.08273    165.7 1.260e+04 4.435e-10
 31.12188    164.0 1.231e+04 3.259e-10
 31.16102    163.1 1.195e+04 3.054e-10
 31.20016    162.7 1.191e+04 3.241e-10
 31.23626    162.7 1.199e+04 3.905e-10
 31.25583    161.9 1.210e+04 4.156e-10
 31.26857    161.7 1.219e+04 4.606e-10
 31.28804    161.4 1.228e+04 5.416e-10
 31.30761    161.1 1.236e+04 6.697e-10
 31.32072    161.0 1.243e+04 8.084e-10
 31.33050    160.4 1.258e+04 9.151e-10
 31.34676    160.1 1.279e+04 1.074e-09
 31.36633    159.4 1.316e+04 1.344e-09
 31.38590    158.5 1.376e+04 1.869e-09
 31.40547    157.6 1.461e+04 2.863e-09
 31.42504    156.6 1.565e+04 4.603e-09
 31.44462    155.6 1.675e+04 7.427e-09
 31.46419    154.4 1.771e+04 1.163e-08
 31.48376    153.1 1.843e+04 1.709e-08
 31.50333    151.6 1.880e+04 2.138e-08
 31.52290    149.6 1.884e+04 2.160e-08
 31.54248    147.5 1.863e+04 2.017e-08
 31.56205    146.0 1.788e+04 1.523e-08
 31.58162    145.3 1.679e+04 9.267e-09
 31.60119    144.7 1.563e+04 4.825e-09
 31.62076    143.8 1.464e+04 2.348e-09
 31.64034    142.2 1.384e+04 1.248e-09
 31.65991    141.2 1.320e+04 8.099e-10
 31.67948    141.1 1.289e+04 7.277e-10
 31.70893    141.8 1.251e+04 5.303e-10
 31.73372    143.2 1.195e+04 3.280e-10
 31.75329    143.0 1.182e+04 2.990e-10
 31.78732    144.5 1.144e+04 1.897e-10
 31.82646    146.1 1.104e+04 1.593e-10
 31.86561    148.2 1.101e+04 1.585e-10
 31.90475    150.4 1.097e+04 1.641e-10
 31.94390    152.5 1.096e+04 1.916e-10
 31.98304    154.6 1.109e+04 2.507e-10
 32.02218    156.5 1.132e+04 3.344e-10
 32.06133    158.1 1.156e+04 4.225e-10
 32.10047    159.3 1.173e+04 4.901e-10
 32.13092    160.1 1.179e+04 5.245e-10
 32.15049    159.5 1.140e+04 4.052e-10
 32.17876    160.3 1.137e+04 4.269e-10
 32.21790    161.0 1.136e+04 4.569e-10
 32.25705    161.8 1.140e+04 4.672e-10
 32.29619    162.6 1.142e+04 4.616e-10
 32.33533    163.0 1.143e+04 4.490e-10
 32.36459    162.5 1.150e+04 4.790e-10
 32.38407    162.1 1.153e+04 5.243e-10
 32.40364    161.8 1.149e+04 5.896e-10
 32.42321    161.8 1.145e+04 6.749e-10
 32.44278    161.8 1.145e+04 7.689e-10
 32.46236    161.9 1.147e+04 8.615e-10
 32.48193    162.0 1.153e+04 9.570e-10
 32.50150    162.1 1.166e+04 1.077e-09
 32.52107    162.0 1.186e+04 1.233e-09
 32.54064    162.0 1.215e+04 1.446e-09
 32.55914    161.7 1.254e+04 1.736e-09
 32.56893    161.3 1.233e+04 1.613e-09
 32.57805    160.9 1.269e+04 1.932e-09
 32.58783    160.9 1.293e+04 2.310e-09
 32.59936    160.0 1.345e+04 2.913e-09
 32.61893    158.7 1.419e+04 3.892e-09
 32.63850    157.1 1.494e+04 5.232e-09
 32.65313    156.3 1.523e+04 6.029e-09
 32.66287    155.7 1.553e+04 6.728e-09
 32.67266    154.6 1.625e+04 8.325e-09
 32.68244    153.0 1.726e+04 1.122e-08
 32.69223    151.1 1.824e+04 1.547e-08
 32.70201    149.2 1.895e+04 2.079e-08
 32.71180    147.6 1.939e+04 2.677e-08
 32.72159    146.5 1.970e+04 3.321e-08
 32.73137    145.8 2.009e+04 3.975e-08
 32.74116    144.9 2.066e+04 4.311e-08
 32.75094    143.4 2.080e+04 4.272e-08
 32.76073    141.7 2.075e+04 3.953e-08
 32.77034    140.4 2.035e+04 3.161e-08
 32.77523    141.7 1.962e+04 2.447e-08
 32.78030    140.2 1.905e+04 1.755e-08
 32.79009    137.4 1.911e+04 1.377e-08
 32.79987    134.5 1.916e+04 1.354e-08
 32.80651    130.7 1.946e+04 1.442e-08
 32.81140    130.9 1.955e+04 1.393e-08
 32.81945    129.5 1.967e+04 1.489e-08
 32.83417    125.0 2.050e+04 2.296e-08
 32.85379    121.7 2.134e+04 2.970e-08
 32.86842    119.3 2.180e+04 3.792e-08
 32.87816    117.0 2.207e+04 3.905e-08
 32.88795    114.0 2.221e+04 3.504e-08
 32.89773    110.9 2.221e+04 2.757e-08
 32.91246    101.2 2.269e+04 1.066e-08
 32.93208     87.3 2.247e+04 6.647e-09
 32.95165     77.7 2.135e+04 7.094e-09
 32.97122     73.5 2.059e+04 8.864e-09
 32.98174     71.9 2.015e+04 1.141e-08
 32.99152     68.4 1.954e+04 1.454e-08
 33.01037     68.2 1.927e+04 1.444e-08
 33.02538     68.1 1.864e+04 1.405e-08
 33.03516     67.8 1.926e+04 2.126e-08
 33.04951     68.0 1.864e+04 1.529e-08
 33.06908     68.0 1.790e+04 1.015e-08
 33.08866     67.7 1.709e+04 6.161e-09
 33.10823     67.3 1.610e+04 3.618e-09
 33.12780     66.8 1.482e+04 2.196e-09
 33.14737     66.4 1.344e+04 1.473e-09
 33.16694     66.3 1.240e+04 1.138e-09
 33.18652     66.6 1.186e+04 9.744e-10
 33.20609     67.2 1.158e+04 8.781e-10
 33.22566     67.9 1.143e+04 8.239e-10
 33.24523     68.8 1.138e+04 7.969e-10
 33.26480     69.8 1.138e+04 7.732e-10
 33.28438     70.7 1.141e+04 7.414e-10
 33.30395     71.5 1.148e+04 7.135e-10
 33.32352     72.1 1.157e+04 7.019e-10
 33.34309     72.6 1.168e+04 7.125e-10
 33.36266     72.9 1.183e+04 7.492e-10
 33.38223     73.2 1.197e+04 8.101e-10
 33.39454     73.5 1.210e+04 8.824e-10
 33.40433     72.8 1.202e+04 9.023e-10
 33.42138     73.2 1.209e+04 9.988e-10
 33.44095     73.6 1.221e+04 1.069e-09
 33.46052     73.8 1.233e+04 1.115e-09
 33.47270     73.9 1.242e+04 1.150e-09
 33.48249     73.5 1.234e+04 1.124e-09
 33.49967     73.6 1.247e+04 1.210e-09
 33.51924     73.7 1.255e+04 1.324e-09
 33.53881     74.1 1.253e+04 1.471e-09
 33.55838     74.7 1.247e+04 1.557e-09
 33.57795     75.4 1.243e+04 1.520e-09
 33.59753     76.2 1.236e+04 1.403e-09
 33.61710     76.9 1.225e+04 1.213e-09
 33.63667     77.4 1.213e+04 9.986e-10
 33.65624     77.8 1.202e+04 7.922e-10
 33.67581     78.0 1.195e+04 6.369e-10
 33.69539     78.4 1.194e+04 5.093e-10
 33.71496     78.5 1.198e+04 4.391e-10
 33.74441     79.2 1.198e+04 3.716e-10
 33.78365     80.7 1.205e+04 3.603e-10
 33.82280     82.3 1.219e+04 3.757e-10
 33.85206     83.1 1.230e+04 4.110e-10
 33.87153     83.5 1.238e+04 4.862e-10
 33.89110     83.7 1.246e+04 6.279e-10
 33.91024     84.0 1.258e+04 8.468e-10
 33.92003     83.9 1.270e+04 9.714e-10
 33.93025     84.4 1.286e+04 1.220e-09
 33.94982     85.1 1.304e+04 1.496e-09
 33.96939     85.9 1.335e+04 1.638e-09
 33.98896     86.2 1.345e+04 1.627e-09
 34.00854     86.1 1.351e+04 1.563e-09
 34.02811     85.8 1.360e+04 1.509e-09
 34.04768     85.0 1.363e+04 1.517e-09
 34.06725     83.9 1.372e+04 1.593e-09
 34.08682     82.8 1.378e+04 1.801e-09
 34.10640     82.1 1.376e+04 1.998e-09
 34.12597     81.5 1.373e+04 2.003e-09
 34.14554     81.2 1.357e+04 1.845e-09
 34.16511     80.8 1.339e+04 1.458e-09
 34.18468     79.9 1.325e+04 1.013e-09
 34.20425     78.3 1.303e+04 7.587e-10
 34.22016     76.6 1.290e+04 7.438e-10
 34.22995     77.6 1.301e+04 7.971e-10
 34.25328     78.2 1.277e+04 7.762e-10
 34.29252     78.2 1.271e+04 8.209e-10
 34.33167     78.5 1.270e+04 8.558e-10
 34.37081     79.4 1.266e+04 8.428e-10
 34.40996     80.7 1.254e+04 7.850e-10
 34.44910     82.3 1.233e+04 6.633e-10
 34.48824     84.0 1.209e+04 5.528e-10
 34.52739     86.0 1.197e+04 4.971e-10
 34.56653     88.2 1.197e+04 4.957e-10
 34.60567     90.5 1.204e+04 5.098e-10
 34.64482     92.8 1.216e+04 5.510e-10
 34.68396     95.2 1.236e+04 6.377e-10
 34.72311     97.4 1.262e+04 7.702e-10
 34.75237     97.6 1.290e+04 9.466e-10
 34.77184     97.8 1.320e+04 1.209e-09
 34.79141     97.7 1.359e+04 1.674e-09
 34.80490     97.6 1.404e+04 2.424e-09
 34.81469     97.3 1.385e+04 2.331e-09
 34.83056     97.4 1.427e+04 3.234e-09
 34.85013     97.8 1.454e+04 3.940e-09
 34.86970     98.0 1.454e+04 3.889e-09
 34.88927     98.1 1.445e+04 3.536e-09
 34.90884     98.1 1.413e+04 2.754e-09
 34.92842     97.7 1.371e+04 1.899e-09
 34.94799     96.8 1.324e+04 1.240e-09
 34.96756     95.6 1.269e+04 8.754e-10
 34.98713     94.7 1.206e+04 8.049e-10
 35.00670     94.7 1.203e+04 7.987e-10
 35.02627     95.1 1.200e+04 8.031e-10
 35.04578     95.5 1.199e+04 8.355e-10
 35.06535     95.9 1.195e+04 8.251e-10
 35.08499     96.5 1.198e+04 8.550e-10
 35.10456     97.2 1.196e+04 8.721e-10
 35.12413     97.8 1.194e+04 8.716e-10
 35.14371     98.5 1.187e+04 8.645e-10
 35.16328     99.4 1.179e+04 8.468e-10
 35.18285    100.4 1.176e+04 8.203e-10
 35.20242    101.4 1.177e+04 7.754e-10
 35.22199    102.4 1.177e+04 7.034e-10
 35.24157    103.2 1.174e+04 6.235e-10
 35.25223    104.2 1.162e+04 5.570e-10
 35.26201    104.5 1.172e+04 7.052e-10
 35.28071    105.1 1.164e+04 6.136e-10
 35.31016    106.3 1.139e+04 5.070e-10
 35.34941    108.7 1.120e+04 4.322e-10
 35.38855    111.2 1.103e+04 3.766e-10
 35.42769    113.8 1.092e+04 3.521e-10
 35.46684    116.3 1.083e+04 3.577e-10
 35.50598    118.8 1.082e+04 3.724e-10
 35.54513    121.3 1.091e+04 4.184e-10
 35.58427    123.8 1.101e+04 4.818e-10
 35.62341    126.3 1.107e+04 5.277e-10
 35.66256    128.7 1.107e+04 5.224e-10
 35.68996    131.0 1.100e+04 4.998e-10
 35.70954    130.3 1.093e+04 4.673e-10
 35.74084    132.6 1.076e+04 4.336e-10
 35.77999    134.9 1.072e+04 4.307e-10
 35.81913    137.2 1.079e+04 4.606e-10
 35.85828    139.4 1.105e+04 5.435e-10
 35.88137    141.3 1.147e+04 6.801e-10
 35.89106    141.4 1.130e+04 5.951e-10
 35.90701    142.0 1.151e+04 6.974e-10
 35.92658    142.7 1.173e+04 8.345e-10
 35.94615    143.4 1.198e+04 1.004e-09
 35.96573    143.7 1.226e+04 1.185e-09
 35.98530    143.8 1.253e+04 1.364e-09
 36.00487    143.7 1.279e+04 1.541e-09
 36.02444    143.1 1.304e+04 1.713e-09
 36.04401    142.1 1.327e+04 1.877e-09
 36.06359    140.6 1.348e+04 2.045e-09
 36.08316    138.5 1.368e+04 2.253e-09
 36.10273    135.7 1.394e+04 2.544e-09
 36.12230    132.5 1.422e+04 2.829e-09
 36.13710    128.8 1.430e+04 2.860e-09
 36.14688    128.3 1.409e+04 2.580e-09
 36.16145    124.4 1.397e+04 2.466e-09
 36.18102    120.9 1.353e+04 2.108e-09
 36.20059    117.5 1.297e+04 1.634e-09
 36.22016    113.8 1.252e+04 1.318e-09
 36.23973    109.7 1.275e+04 1.307e-09
 36.25930    105.8 1.324e+04 1.475e-09
 36.27888    102.7 1.358e+04 1.926e-09
 36.29399    100.7 1.371e+04 2.514e-09
 36.30377     98.4 1.366e+04 2.803e-09
 36.31802     97.6 1.375e+04 3.100e-09
 36.33759     96.7 1.385e+04 2.959e-09
 36.35716     95.4 1.391e+04 2.561e-09
 36.37674     93.6 1.371e+04 2.014e-09
 36.39631     91.7 1.307e+04 1.524e-09
 36.41588     90.4 1.214e+04 1.134e-09
 36.43545     89.5 1.134e+04 8.261e-10
 36.45502     88.7 1.092e+04 5.829e-10
 36.47460     87.4 1.081e+04 4.116e-10
 36.49417     86.0 1.068e+04 3.063e-10
 36.51374     84.8 1.043e+04 2.956e-10
 36.53331     84.4 1.035e+04 2.930e-10
 36.55288     83.8 1.036e+04 3.084e-10
 36.57246     83.7 1.035e+04 3.140e-10
 36.58452     83.3 1.044e+04 3.613e-10
 36.60419     82.1 1.048e+04 3.639e-10
 36.64115     81.4 1.052e+04 3.867e-10
 36.68030     80.7 1.049e+04 3.811e-10
 36.70699     80.0 1.037e+04 3.547e-10
 36.72656     81.2 1.008e+04 2.863e-10
 36.75858     81.1 9.902e+03 2.502e-10
 36.79773     81.1 9.795e+03 2.223e-10
 36.83687     81.2 9.794e+03 2.138e-10
 36.87601     81.3 9.844e+03 2.184e-10
 36.91516     81.4 9.986e+03 2.389e-10
 36.95430     81.5 1.014e+04 2.701e-10
 36.99345     81.6 1.020e+04 2.938e-10
 37.03259     81.7 1.018e+04 3.071e-10
 37.07173     82.1 1.011e+04 3.052e-10
 37.11088     82.7 1.000e+04 2.939e-10
 37.15002     83.4 9.906e+03 2.791e-10
 37.18917     84.2 9.831e+03 2.594e-10
 37.22831     85.2 9.775e+03 2.342e-10
 37.26745     86.3 9.755e+03 2.068e-10
 37.30660     87.5 9.780e+03 1.832e-10
 37.34574     88.8 9.839e+03 1.672e-10
 37.38488     90.2 9.883e+03 1.659e-10
 37.42403     91.7 9.952e+03 1.687e-10
 37.45970     93.3 1.002e+04 1.807e-10
 37.47927     93.2 1.004e+04 1.926e-10
 37.50232     95.0 1.013e+04 2.262e-10
 37.53260     97.3 1.050e+04 2.923e-10
 37.55218     98.0 1.049e+04 3.131e-10
 37.58060     99.5 1.083e+04 3.715e-10
 37.60986    100.0 1.097e+04 4.174e-10
 37.62934    100.7 1.111e+04 4.877e-10
 37.64891    101.5 1.131e+04 6.021e-10
 37.66848    102.2 1.156e+04 7.460e-10
 37.68805    103.0 1.188e+04 9.346e-10
 37.70763    103.7 1.238e+04 1.216e-09
 37.72720    103.9 1.298e+04 1.627e-09
 37.74677    103.9 1.364e+04 2.193e-09
 37.76634    103.7 1.439e+04 2.964e-09
 37.78591    103.3 1.515e+04 3.984e-09
 37.80548    102.7 1.586e+04 5.218e-09
 37.82506    102.2 1.624e+04 6.514e-09
 37.84463    101.3 1.668e+04 7.271e-09
 37.86420    100.2 1.726e+04 7.635e-09
 37.87883     99.8 1.723e+04 7.162e-09
 37.88857     99.4 1.708e+04 6.571e-09
 37.89835     99.1 1.686e+04 5.813e-09
 37.90814     98.7 1.677e+04 5.092e-09
 37.91652     98.1 1.713e+04 4.470e-09
 37.92142     98.6 1.686e+04 4.463e-09
 37.92771     97.6 1.741e+04 4.101e-09
 37.93750     95.9 1.853e+04 4.193e-09
 37.94728     93.9 2.025e+04 4.961e-09
 37.95490     91.4 2.195e+04 7.021e-09
 37.95980     93.3 1.822e+04 2.907e-09
 37.96686     90.7 2.008e+04 3.871e-09
 37.97664     87.7 2.113e+04 6.035e-09
 37.98643     85.9 2.109e+04 8.977e-09
 38.00116     85.9 2.041e+04 1.090e-08
 38.02078     86.4 1.984e+04 1.336e-08
 38.04035     86.6 1.941e+04 1.268e-08
 38.05992     86.6 1.886e+04 9.491e-09
 38.07949     86.3 1.816e+04 6.524e-09
 38.09906     85.8 1.757e+04 4.450e-09
 38.11864     84.9 1.719e+04 2.910e-09
 38.13821     84.0 1.662e+04 1.922e-09
 38.15778     83.5 1.582e+04 1.358e-09
 38.17735     83.4 1.497e+04 1.119e-09
 38.19692     83.3 1.419e+04 1.024e-09
 38.21649     83.3 1.374e+04 1.077e-09
 38.23607     83.0 1.361e+04 1.244e-09
 38.25564     82.2 1.397e+04 1.626e-09
 38.27521     81.2 1.472e+04 2.458e-09
 38.29478     80.7 1.559e+04 3.915e-09
 38.31435     80.5 1.630e+04 5.452e-09
 38.33393     79.8 1.652e+04 5.668e-09
 38.35350     78.9 1.642e+04 5.359e-09
 38.36395     77.9 1.596e+04 4.330e-09
 38.36847     78.5 1.653e+04 5.461e-09
 38.37760     79.5 1.695e+04 5.857e-09
 38.39264     78.2 1.608e+04 3.870e-09
 38.41221     76.2 1.474e+04 2.361e-09
 38.43179     74.1 1.328e+04 1.588e-09
 38.45136     72.7 1.225e+04 1.269e-09
 38.48081     72.9 1.184e+04 1.115e-09
 38.52005     73.3 1.149e+04 1.062e-09
 38.55920     74.3 1.121e+04 9.802e-10
 38.59834     75.4 1.081e+04 8.123e-10
 38.63749     76.6 1.021e+04 5.816e-10
 38.67663     77.9 9.521e+03 3.865e-10
 38.71577     79.3 8.862e+03 2.437e-10
 38.75492     80.8 8.310e+03 1.574e-10
 38.79406     82.2 7.891e+03 1.153e-10
 38.83321     83.8 7.710e+03 1.044e-10
 38.87235     85.7 7.707e+03 1.050e-10
 38.91149     87.7 7.725e+03 1.087e-10
 38.95064     89.6 7.812e+03 1.217e-10
 38.98978     91.4 7.995e+03 1.468e-10
 39.02892     93.2 8.265e+03 1.863e-10
 39.06807     94.8 8.600e+03 2.404e-10
 39.10721     96.2 8.957e+03 3.050e-10
 39.14636     97.4 9.296e+03 3.741e-10
 39.18384     98.1 9.526e+03 4.330e-10
 39.20341     98.8 9.435e+03 4.178e-10
 39.21476     98.9 9.526e+03 4.487e-10
 39.23423     99.2 9.665e+03 4.862e-10
 39.24882     99.5 9.913e+03 5.530e-10
 39.25860     99.9 1.009e+04 6.246e-10
 39.27338     99.9 1.034e+04 7.029e-10
 39.29295     99.8 1.060e+04 7.896e-10
 39.31252     99.4 1.087e+04 8.902e-10
 39.33209     98.8 1.115e+04 1.007e-09
 39.35167     98.0 1.144e+04 1.142e-09
 39.37124     97.0 1.173e+04 1.291e-09
 39.39081     95.5 1.203e+04 1.448e-09
 39.41038     93.4 1.238e+04 1.659e-09
 39.42995     89.9 1.328e+04 2.164e-09
 39.44952     84.6 1.497e+04 3.291e-09
 39.46910     78.3 1.651e+04 4.801e-09
 39.48867     71.7 1.692e+04 5.178e-09
 39.50824     64.9 1.688e+04 4.865e-09
 39.52781     56.9 1.688e+04 4.373e-09
 39.54738     48.4 1.676e+04 4.508e-09
 39.56696     42.3 1.610e+04 4.910e-09
 39.58653     38.9 1.646e+04 5.476e-09
 39.60610     26.6 2.903e+04 7.464e-09
 39.61597     12.6 3.859e+04 1.674e-08
 39.62082     16.8 3.909e+04 1.267e-08
 39.63047      9.2 3.686e+04 2.533e-08
 39.64025      4.1 2.978e+04 5.379e-08
 39.65004     -0.2 2.482e+04 7.926e-08
 39.65983     -4.0 2.264e+04 9.438e-08
 39.66961     -6.1 2.225e+04 9.385e-08
 39.67940     -7.2 2.269e+04 8.069e-08
 39.68918     -8.0 2.345e+04 6.525e-08
 39.69605     -8.8 2.458e+04 4.748e-08
 39.70094    -10.0 2.667e+04 2.990e-08
 39.70875    -14.9 2.425e+04 1.472e-08
 39.72348    -20.1 1.899e+04 7.333e-09
 39.74310    -24.2 1.381e+04 3.847e-09
 39.76268    -23.4 1.326e+04 3.048e-09
 39.78225    -23.0 1.316e+04 2.475e-09
 39.80182    -23.7 1.275e+04 1.878e-09
 39.82139    -25.1 1.225e+04 1.490e-09
 39.84096    -26.2 1.188e+04 1.326e-09
 39.86053    -26.7 1.181e+04 1.311e-09
 39.88011    -27.1 1.168e+04 1.376e-09
 39.89968    -27.1 1.171e+04 1.413e-09
 39.91925    -26.7 1.177e+04 1.500e-09
 39.93882    -26.4 1.166e+04 1.437e-09
 39.95839    -25.6 1.143e+04 1.220e-09
 39.97797    -25.2 1.134e+04 1.058e-09
 39.99754    -25.5 1.062e+04 6.504e-10
 40.01711    -25.2 1.044e+04 5.596e-10
 40.02883    -25.8 9.757e+03 3.495e-10
 40.04850    -25.8 9.555e+03 3.021e-10
 40.08581    -25.0 9.179e+03 2.418e-10
 40.12409    -24.0 9.068e+03 2.171e-10
 40.14367    -25.5 9.204e+03 2.310e-10
 40.16409    -24.8 9.570e+03 2.637e-10
 40.20324    -24.5 1.003e+04 3.862e-10
 40.24238    -23.8 1.035e+04 5.620e-10
 40.27164    -21.8 1.065e+04 6.867e-10
 40.29112    -21.7 1.058e+04 6.842e-10
 40.31069    -20.5 1.061e+04 7.028e-10
 40.33026    -19.8 1.049e+04 6.163e-10
 40.35972    -19.4 1.038e+04 4.724e-10
 40.39896    -19.1 9.938e+03 2.784e-10
 40.43810    -19.6 9.783e+03 2.404e-10
 40.47724    -19.6 1.005e+04 3.531e-10
 40.51639    -18.1 1.033e+04 5.942e-10
 40.55553    -15.5 1.066e+04 7.528e-10
 40.59468    -13.6 1.069e+04 7.364e-10
 40.63382    -11.9 1.058e+04 5.642e-10
 40.67296    -10.9 1.037e+04 4.836e-10
 40.71211     -9.0 1.029e+04 4.924e-10
 40.75125     -7.0 1.041e+04 4.986e-10
 40.79040     -5.5 1.067e+04 4.988e-10
 40.82954     -4.1 1.070e+04 5.665e-10
 40.85464     -2.7 1.055e+04 5.987e-10
 40.87421     -2.7 1.051e+04 5.662e-10
 40.90783     -1.7 1.032e+04 5.322e-10
 40.93709     -1.7 1.082e+04 6.022e-10
 40.95656     -1.5 1.127e+04 6.713e-10
 40.97613     -0.2 1.143e+04 6.654e-10
 40.99571     -2.2 1.450e+04 9.533e-10
 41.01528     -5.5 1.765e+04 1.896e-09
 41.02834     -8.8 1.969e+04 4.115e-09
 41.03318    -11.2 2.236e+04 8.133e-09
 41.03964    -12.0 2.251e+04 1.246e-08
 41.04943    -13.0 2.420e+04 1.233e-08
 41.05922    -13.0 2.113e+04 3.181e-08
 41.06564    -13.0 2.039e+04 5.394e-08
 41.07054    -12.3 2.044e+04 5.745e-08
 41.07879    -11.5 2.005e+04 7.106e-08
 41.08857    -10.8 2.002e+04 6.656e-08
 41.09836    -10.4 1.993e+04 5.404e-08
 41.10815    -10.2 1.963e+04 4.374e-08
 41.11793    -10.1 1.950e+04 3.457e-08
 41.12772    -10.3 1.941e+04 2.634e-08
 41.13750    -10.8 1.929e+04 2.031e-08
 41.14729    -11.6 1.882e+04 1.524e-08
 41.15708    -12.2 1.842e+04 1.245e-08
 41.16686    -13.1 1.866e+04 1.013e-08
 41.17665    -14.0 1.879e+04 9.282e-09
 41.18643    -15.4 1.897e+04 8.416e-09
 41.19622    -16.6 1.874e+04 8.280e-09
 41.20601    -17.9 1.811e+04 8.217e-09
 41.21579    -18.6 1.749e+04 8.072e-09
 41.22558    -18.9 1.678e+04 8.248e-09
 41.23536    -18.6 1.638e+04 8.139e-09
 41.24515    -17.8 1.604e+04 8.134e-09
 41.25191    -17.1 1.579e+04 7.713e-09
 41.25680    -17.5 1.543e+04 6.468e-09
 41.26472    -16.5 1.525e+04 6.220e-09
 41.27205    -16.4 1.516e+04 5.848e-09
 41.27699    -16.5 1.465e+04 4.653e-09
 41.28928    -15.1 1.440e+04 3.884e-09
 41.30886    -14.6 1.389e+04 2.613e-09
 41.32843    -15.3 1.310e+04 1.783e-09
 41.34800    -16.3 1.243e+04 1.309e-09
 41.36757    -16.9 1.202e+04 1.104e-09
 41.38714    -16.6 1.182e+04 1.037e-09
 41.40671    -16.0 1.169e+04 1.002e-09
 41.42629    -15.0 1.157e+04 9.384e-10
 41.44586    -14.2 1.154e+04 8.396e-10
 41.46543    -13.9 1.151e+04 7.492e-10
 41.47567    -13.9 1.151e+04 6.952e-10
 41.48545    -13.6 1.130e+04 5.661e-10
 41.50457    -13.7 1.136e+04 5.740e-10
 41.52415    -14.0 1.153e+04 6.356e-10
 41.54372    -14.1 1.157e+04 7.761e-10
 41.56329    -13.8 1.176e+04 9.361e-10
 41.58286    -13.4 1.205e+04 1.070e-09
 41.60243    -13.1 1.226e+04 1.182e-09
 41.62201    -13.0 1.242e+04 1.192e-09
 41.64158    -13.0 1.235e+04 1.205e-09
 41.66115    -12.9 1.233e+04 1.182e-09
 41.68006    -12.8 1.210e+04 1.064e-09
 41.68985    -12.2 1.231e+04 1.247e-09
 41.70029    -11.8 1.218e+04 1.198e-09
 41.72975    -11.2 1.195e+04 1.055e-09
 41.76899    -10.2 1.137e+04 7.215e-10
 41.79825    -10.1 1.116e+04 4.416e-10
 41.81772    -10.2 1.095e+04 4.153e-10
 41.83730     -9.7 1.090e+04 3.746e-10
 41.85687     -9.7 1.089e+04 3.747e-10
 41.87644     -9.3 1.080e+04 3.977e-10
 41.89601     -9.0 1.094e+04 4.346e-10
 41.91321     -8.2 1.104e+04 5.388e-10
 41.92300     -7.7 1.095e+04 4.817e-10
 41.93516     -7.6 1.101e+04 4.926e-10
 41.96461     -6.5 1.088e+04 5.683e-10
 42.00385     -5.4 1.091e+04 6.355e-10
 42.03311     -5.1 1.093e+04 6.226e-10
 42.05259     -4.7 1.079e+04 5.990e-10
 42.07216     -4.2 1.075e+04 5.183e-10
 42.09173     -4.0 1.062e+04 4.886e-10
 42.10265     -3.8 1.064e+04 4.510e-10
 42.11244     -3.9 1.069e+04 4.965e-10
 42.13088     -3.9 1.067e+04 5.090e-10
 42.15045     -4.1 1.076e+04 5.383e-10
 42.17002     -4.2 1.077e+04 6.073e-10
 42.18959     -3.7 1.054e+04 6.753e-10
 42.20916     -2.8 1.038e+04 7.043e-10
 42.23862     -1.2 1.033e+04 5.630e-10
 42.27786      0.4 1.011e+04 3.946e-10
 42.31700      1.3 9.852e+03 2.561e-10
 42.35615      2.1 9.513e+03 1.952e-10
 42.39529      3.6 9.220e+03 1.720e-10
 42.43444      5.8 9.084e+03 1.547e-10
 42.47358      8.0 9.061e+03 1.394e-10
 42.50587     10.2 9.012e+03 1.269e-10
 42.52544      9.5 8.952e+03 1.127e-10
 42.55187     11.4 9.008e+03 1.171e-10
 42.59101     13.0 9.134e+03 1.466e-10
 42.63015     14.9 9.277e+03 2.176e-10
 42.66930     17.3 9.516e+03 2.984e-10
 42.70844     19.4 9.738e+03 3.068e-10
 42.74759     21.1 9.761e+03 2.839e-10
 42.78673     22.3 9.765e+03 2.450e-10
 42.80806     23.3 9.713e+03 2.162e-10
 42.82763     23.7 9.790e+03 2.224e-10
 42.86502     24.8 9.659e+03 1.985e-10
 42.90416     26.2 9.583e+03 1.848e-10
 42.94330     27.7 9.541e+03 1.720e-10
 42.98245     29.2 9.523e+03 1.596e-10
 43.02159     30.8 9.527e+03 1.491e-10
 43.06074     32.5 9.559e+03 1.419e-10
 43.09988     34.3 9.607e+03 1.367e-10
 43.13902     36.2 9.689e+03 1.285e-10
 43.17817     38.2 9.762e+03 1.225e-10
 43.21731     40.3 9.826e+03 1.108e-10
 43.25646     42.5 9.853e+03 9.573e-11
 43.29560     44.6 9.789e+03 8.456e-11
 43.33149     46.8 9.683e+03 8.310e-11
 43.35106     47.3 9.707e+03 7.982e-11
 43.37389     49.6 9.703e+03 8.107e-11
 43.41303     51.8 9.696e+03 8.796e-11
 43.45217     54.0 9.713e+03 1.059e-10
 43.49132     56.0 9.726e+03 1.432e-10
 43.53046     58.5 9.906e+03 2.218e-10
 43.56961     60.8 1.046e+04 3.828e-10
 43.60875     60.5 1.179e+04 7.255e-10
 43.63801     56.9 1.435e+04 2.214e-09
 43.65748     55.1 1.588e+04 5.704e-09
 43.67706     54.7 1.699e+04 1.085e-08
 43.69273     54.3 1.739e+04 1.294e-08
 43.70252     54.1 1.743e+04 1.320e-08
 43.71620     53.9 1.700e+04 1.094e-08
 43.73577     53.8 1.614e+04 6.069e-09
 43.75388     51.2 1.492e+04 2.554e-09
 43.76367     52.2 1.495e+04 2.755e-09
 43.77492     46.9 1.257e+04 1.062e-09
 43.80437     43.6 1.058e+04 6.850e-10
 43.84361     43.7 9.414e+03 4.665e-10
 43.88276     44.3 9.004e+03 3.358e-10
 43.92190     45.2 9.080e+03 3.039e-10
 43.96104     45.2 9.194e+03 3.220e-10
 44.00019     44.7 9.577e+03 4.104e-10
 44.02945     44.4 9.655e+03 4.930e-10
 44.04892     44.3 9.660e+03 5.791e-10
 44.06849     44.4 9.623e+03 6.031e-10
 44.08807     44.4 9.585e+03 5.923e-10
 44.11752     44.7 9.307e+03 4.638e-10
 44.15676     45.1 8.760e+03 2.599e-10
 44.17667     44.4 8.120e+03 1.192e-10
 44.19625     44.6 8.318e+03 1.400e-10
 44.23505     43.3 7.669e+03 8.926e-11
 44.27419     43.5 7.563e+03 8.855e-11
 44.31334     44.4 7.561e+03 9.465e-11
 44.35248     45.5 7.679e+03 1.168e-10
 44.39163     46.5 8.107e+03 1.685e-10
 44.43077     47.1 8.635e+03 2.563e-10
 44.46991     47.7 9.062e+03 3.750e-10
 44.50906     48.5 9.323e+03 4.806e-10
 44.54820     49.2 9.349e+03 4.915e-10
 44.57780     49.9 9.257e+03 4.637e-10
 44.59737     49.0 9.093e+03 4.247e-10
 44.62649     49.9 8.745e+03 3.415e-10
 44.66563     51.2 8.332e+03 2.546e-10
 44.70478     52.8 7.961e+03 1.803e-10
 44.74392     54.5 7.686e+03 1.237e-10
 44.78306     56.0 7.506e+03 8.716e-11
 44.82221     57.5 7.399e+03 6.973e-11
 44.86135     59.2 7.383e+03 6.638e-11
 44.90049     61.0 7.397e+03 6.734e-11
 44.93964     62.8 7.460e+03 7.079e-11
 44.97878     64.5 7.593e+03 7.786e-11
 45.00229     65.8 7.740e+03 8.968e-11
 45.02186     65.4 7.663e+03 7.674e-11
 45.05707     66.4 7.853e+03 9.382e-11
 45.09621     67.2 8.209e+03 1.379e-10
 45.13536     67.9 8.712e+03 2.194e-10
 45.17450     68.5 9.279e+03 3.310e-10
 45.21365     68.7 9.669e+03 4.235e-10
 45.24291     68.6 9.794e+03 4.715e-10
 45.26238     68.6 9.824e+03 4.803e-10
 45.28195     69.0 9.781e+03 4.510e-10
 45.30152     69.2 9.757e+03 4.227e-10
 45.32110     69.4 9.760e+03 3.995e-10
 45.34067     69.5 9.780e+03 4.003e-10
 45.36024     69.5 9.876e+03 4.211e-10
 45.37981     69.4 1.011e+04 4.872e-10
 45.39938     69.3 1.043e+04 6.116e-10
 45.41490     69.3 1.077e+04 8.128e-10
 45.42469     70.3 1.025e+04 5.060e-10
 45.43853     70.5 1.058e+04 6.712e-10
 45.45810     70.7 1.108e+04 9.250e-10
 45.47226     70.6 1.211e+04 1.347e-09
 45.48204     70.6 1.179e+04 1.142e-09
 45.49724     70.2 1.323e+04 1.769e-09
 45.51681     69.1 1.434e+04 2.747e-09
 45.53639     67.6 1.483e+04 4.285e-09
 45.55596     67.2 1.493e+04 6.565e-09
 45.57553     67.4 1.531e+04 9.818e-09
 45.59510     68.0 1.592e+04 1.278e-08
 45.61467     68.3 1.608e+04 1.299e-08
 45.63425     69.1 1.595e+04 1.157e-08
 45.65382     70.3 1.567e+04 7.653e-09
 45.67339     70.5 1.536e+04 3.621e-09
 45.69296     69.3 1.480e+04 1.444e-09
 45.71253     66.2 1.269e+04 6.513e-10
 45.73211     64.3 1.093e+04 4.622e-10
 45.75168     64.5 1.079e+04 4.127e-10
 45.77125     65.0 1.086e+04 3.891e-10
 45.80070     66.2 1.092e+04 3.717e-10
 45.82791     67.8 1.094e+04 3.469e-10
 45.84748     67.2 1.091e+04 2.856e-10
 45.87909     69.3 1.094e+04 2.847e-10
 45.91823     71.4 1.108e+04 2.941e-10
 45.95738     73.3 1.136e+04 3.359e-10
 45.99652     75.0 1.157e+04 4.082e-10
 46.03567     77.0 1.172e+04 5.004e-10
 46.07481     78.7 1.188e+04 6.346e-10
 46.11395     80.0 1.201e+04 8.067e-10
 46.15310     81.0 1.217e+04 1.041e-09
 46.19224     81.9 1.249e+04 1.391e-09
 46.23138     82.3 1.292e+04 1.820e-09
 46.27053     82.2 1.333e+04 1.963e-09
 46.30967     81.9 1.332e+04 1.864e-09
 46.34753     82.1 1.317e+04 1.487e-09
 46.36701     82.8 1.324e+04 1.545e-09
 46.37798     83.0 1.305e+04 1.128e-09
 46.39755     82.9 1.289e+04 7.830e-10
 46.42701     82.8 1.262e+04 5.248e-10
 46.46625     82.9 1.191e+04 2.990e-10
 46.50539     83.5 1.157e+04 2.589e-10
 46.54453     84.8 1.163e+04 2.652e-10
 46.57379     85.3 1.162e+04 2.664e-10
 46.59327     85.5 1.170e+04 2.954e-10
 46.61284     85.7 1.177e+04 3.704e-10
 46.63241     86.0 1.181e+04 4.917e-10
 46.65198     86.4 1.186e+04 6.542e-10
 46.66311     87.0 1.198e+04 8.481e-10
 46.67290     87.4 1.202e+04 7.825e-10
 46.69113     87.8 1.217e+04 9.875e-10
 46.71070     88.2 1.240e+04 1.210e-09
 46.73027     88.3 1.267e+04 1.397e-09
 46.74984     88.1 1.290e+04 1.543e-09
 46.76942     87.7 1.310e+04 1.624e-09
 46.78899     87.0 1.323e+04 1.662e-09
 46.80445     86.1 1.335e+04 1.695e-09
 46.81424     85.2 1.359e+04 1.905e-09
 46.82813     84.0 1.371e+04 1.939e-09
 46.84770     82.5 1.384e+04 2.001e-09
 46.86728     80.9 1.399e+04 2.142e-09
 46.88685     79.5 1.410e+04 2.318e-09
 46.90642     78.2 1.424e+04 2.538e-09
 46.92599     77.0 1.442e+04 2.832e-09
 46.94556     76.0 1.450e+04 3.119e-09
 46.96514     75.0 1.448e+04 3.131e-09
 46.98471     74.2 1.430e+04 3.016e-09
 47.00428     73.6 1.390e+04 2.568e-09
 47.02385     72.7 1.350e+04 1.946e-09
 47.04342     71.0 1.316e+04 1.386e-09
 47.06299     68.6 1.277e+04 1.072e-09
 47.07592     66.3 1.238e+04 1.026e-09
 47.08571     65.6 1.213e+04 1.031e-09
 47.10214     64.3 1.206e+04 1.058e-09
 47.12171     63.6 1.199e+04 1.185e-09
 47.14128     63.2 1.195e+04 1.323e-09
 47.16085     63.1 1.191e+04 1.330e-09
 47.18043     63.3 1.177e+04 1.282e-09
 47.20000     63.5 1.155e+04 1.130e-09
 47.21957     63.7 1.133e+04 9.207e-10
 47.23914     63.7 1.115e+04 7.116e-10
 47.25178     63.5 1.105e+04 5.450e-10
 47.26157     63.5 1.103e+04 4.318e-10
 47.27829     63.0 1.094e+04 3.443e-10
 47.29786     62.8 1.065e+04 3.184e-10
 47.31743     62.8 1.061e+04 3.199e-10
 47.33700     62.8 1.057e+04 3.337e-10
 47.35657     62.7 1.060e+04 3.852e-10
 47.37615     62.5 1.070e+04 4.735e-10
 47.39572     62.5 1.088e+04 6.056e-10
 47.41529     62.4 1.119e+04 7.995e-10
 47.43486     62.5 1.152e+04 1.042e-09
 47.45443     62.5 1.194e+04 1.300e-09
 47.47400     62.4 1.235e+04 1.512e-09
 47.48873     62.2 1.271e+04 1.657e-09
 47.49851     61.4 1.313e+04 1.624e-09
 47.51315     61.0 1.344e+04 1.862e-09
 47.53272     60.6 1.351e+04 2.043e-09
 47.55229     60.5 1.350e+04 2.185e-09
 47.57186     60.4 1.354e+04 2.296e-09
 47.59144     60.4 1.356e+04 2.328e-09
 47.61101     60.5 1.350e+04 2.344e-09
 47.63058     60.6 1.346e+04 2.388e-09
 47.65015     60.7 1.333e+04 2.501e-09
 47.66972     61.0 1.322e+04 2.688e-09
 47.68930     61.7 1.313e+04 2.909e-09
 47.70887     63.1 1.286e+04 2.600e-09
 47.72844     64.0 1.288e+04 2.711e-09
 47.74801     65.1 1.297e+04 2.723e-09
 47.76758     66.2 1.300e+04 2.682e-09
 47.78716     67.4 1.307e+04 2.467e-09
 47.80673     68.3 1.309e+04 2.076e-09
 47.83618     67.7 1.275e+04 1.280e-09
 47.87542     68.1 1.200e+04 9.692e-10
 47.91457     69.1 1.195e+04 9.620e-10
 47.94383     69.0 1.211e+04 9.850e-10
 47.96330     68.9 1.238e+04 1.068e-09
 47.98287     68.7 1.272e+04 1.215e-09
 48.00245     68.3 1.304e+04 1.428e-09
 48.02202     68.0 1.319e+04 1.670e-09
 48.04159     67.5 1.310e+04 1.726e-09
 48.06116     67.0 1.295e+04 1.691e-09
 48.08073     66.7 1.254e+04 1.527e-09
 48.10031     66.6 1.206e+04 1.260e-09
 48.11988     66.5 1.162e+04 9.810e-10
 48.13665     66.5 1.126e+04 7.517e-10
 48.14644     66.2 1.128e+04 7.506e-10
 48.15902     66.1 1.101e+04 5.986e-10
 48.17859     66.3 1.080e+04 4.940e-10
 48.19817     66.4 1.064e+04 4.445e-10
 48.21774     67.2 1.048e+04 4.117e-10
 48.23731     67.8 1.036e+04 3.976e-10
 48.25688     68.7 1.032e+04 3.911e-10
 48.27645     69.5 1.032e+04 3.908e-10
 48.29602     70.5 1.034e+04 3.921e-10
 48.31434     71.2 1.037e+04 3.979e-10
 48.32423     70.3 1.007e+04 2.967e-10
 48.34515     71.9 1.016e+04 2.987e-10
 48.38429     73.2 1.027e+04 3.130e-10
 48.41355     74.2 1.033e+04 3.450e-10
 48.43303     74.7 1.037e+04 3.734e-10
 48.45260     75.3 1.040e+04 4.115e-10
 48.47217     75.9 1.046e+04 4.542e-10
 48.49174     76.5 1.053e+04 4.975e-10
 48.51132     77.1 1.060e+04 5.187e-10
 48.53089     77.6 1.061e+04 5.184e-10
 48.55046     78.0 1.060e+04 5.118e-10
 48.57003     78.4 1.053e+04 4.950e-10
 48.58398     78.8 1.042e+04 4.781e-10
 48.59376     78.0 1.025e+04 4.000e-10
 48.60918     78.6 1.016e+04 3.992e-10
 48.62875     78.9 1.015e+04 4.005e-10
 48.64832     79.6 1.012e+04 4.157e-10
 48.66789     79.9 1.012e+04 4.301e-10
 48.68746     80.6 1.013e+04 4.649e-10
 48.70703     81.1 1.015e+04 4.932e-10
 48.72661     81.8 1.020e+04 5.376e-10
 48.73694     82.5 1.025e+04 5.739e-10
 48.74672     82.2 1.011e+04 5.135e-10
 48.76575     82.9 1.019e+04 5.557e-10
 48.78532     83.5 1.029e+04 5.972e-10
 48.80489     84.1 1.038e+04 6.342e-10
 48.82447     84.7 1.045e+04 6.670e-10
 48.84404     85.4 1.050e+04 6.957e-10
 48.86361     86.1 1.053e+04 7.252e-10
 48.88318     86.8 1.059e+04 7.601e-10
 48.90275     87.3 1.071e+04 8.121e-10
 48.92233     87.3 1.093e+04 9.182e-10
 48.94190     86.6 1.167e+04 1.239e-09
 48.96147     86.1 1.277e+04 1.975e-09
 48.97610     86.1 1.319e+04 2.428e-09
 48.98584     86.0 1.343e+04 2.734e-09
 48.99562     85.2 1.441e+04 3.258e-09
 49.00541     80.0 1.870e+04 5.378e-09
 49.01519     70.1 2.475e+04 1.848e-08
 49.02498     62.6 2.516e+04 6.804e-08
 49.03121     58.2 2.417e+04 1.522e-07
 49.03610     58.5 2.356e+04 1.756e-07
 49.04455     55.1 2.380e+04 1.885e-07
 49.05434     50.7 2.466e+04 1.564e-07
 49.06412     44.4 2.780e+04 7.338e-08
 49.07391     35.0 2.888e+04 2.529e-08
 49.08370     23.9 2.411e+04 1.206e-08
 49.09842     15.9 1.880e+04 8.436e-09
 49.11804     11.9 1.772e+04 7.066e-09
 49.13762      9.7 1.711e+04 5.570e-09
 49.14975      7.5 1.550e+04 4.494e-09
 49.15953      5.6 1.378e+04 3.468e-09
 49.17676      6.0 1.331e+04 3.142e-09
 49.19633      7.5 1.318e+04 2.627e-09
 49.21590      8.3 1.328e+04 2.046e-09
 49.23548      8.4 1.312e+04 1.348e-09
 49.25505      6.9 1.264e+04 8.533e-10
 49.27462      5.2 1.150e+04 6.120e-10
 49.29419      4.0 1.055e+04 5.502e-10
 49.32365      4.9 1.068e+04 6.422e-10
 49.36289      4.4 1.111e+04 8.720e-10
 49.40203      4.7 1.208e+04 1.397e-09
 49.44118      6.2 1.271e+04 1.991e-09
 49.46894      7.2 1.272e+04 1.739e-09
 49.47863      8.1 1.302e+04 2.352e-09
 49.48991      8.7 1.295e+04 2.119e-09
 49.51937      8.9 1.225e+04 1.075e-09
 49.54872      7.9 1.172e+04 9.013e-10
 49.56255      4.7 1.235e+04 1.003e-09
 49.57234      6.2 1.196e+04 8.406e-10
 49.58777      2.7 1.327e+04 1.103e-09
 49.60734     -3.5 1.551e+04 2.639e-09
 49.62691     -5.9 1.612e+04 5.203e-09
 49.64649     -6.1 1.649e+04 7.894e-09
 49.66606     -7.2 1.690e+04 8.871e-09
 49.68563    -10.2 1.717e+04 7.470e-09
 49.70520    -15.8 1.648e+04 5.248e-09
 49.72477    -23.1 1.441e+04 3.385e-09
 49.74435    -27.5 1.337e+04 2.689e-09
 49.76392    -29.9 1.231e+04 2.043e-09
 49.78349    -31.3 1.151e+04 1.509e-09
 49.80306    -32.6 1.097e+04 1.071e-09
 49.82263    -34.8 1.029e+04 7.250e-10
 49.84220    -36.9 9.704e+03 5.394e-10
 49.86178    -38.3 9.440e+03 4.736e-10
 49.88135    -39.2 9.343e+03 4.549e-10
 49.90092    -39.9 9.313e+03 4.500e-10
 49.91617    -40.9 9.396e+03 4.861e-10
 49.92596    -39.3 9.170e+03 4.367e-10
 49.94006    -41.7 1.013e+04 5.813e-10
 49.95964    -49.1 1.473e+04 1.542e-09
 49.97536    -55.9 1.735e+04 4.832e-09
 49.98515    -55.9 1.777e+04 5.213e-09
 49.99878    -60.3 1.838e+04 1.020e-08
 50.01835    -63.9 1.872e+04 1.162e-08
 50.03792    -69.9 1.905e+04 7.521e-09
 50.05750    -81.3 1.771e+04 1.879e-09
 50.07707    -95.7 1.117e+04 5.630e-10
 50.09664   -100.5 9.341e+03 4.435e-10
 50.11621   -101.5 9.360e+03 4.661e-10
 50.13578   -102.1 9.420e+03 4.830e-10
 50.15536   -102.6 9.426e+03 4.853e-10
 50.17493   -102.9 9.436e+03 4.860e-10
 50.19450   -103.0 9.446e+03 4.859e-10
 50.22395   -103.1 9.472e+03 4.823e-10
 50.26320   -102.3 9.465e+03 4.674e-10
 50.30234   -101.3 9.389e+03 4.264e-10
 50.34148   -100.1 9.306e+03 3.722e-10
 50.38063    -99.0 9.301e+03 3.439e-10
 50.41977    -98.3 9.374e+03 3.467e-10
 50.45892    -98.2 9.873e+03 4.395e-10
 50.49806    -98.4 1.071e+04 6.975e-10
 50.53720    -98.6 1.148e+04 1.089e-09
 50.57635    -98.9 1.183e+04 1.346e-09
 50.61549    -99.0 1.180e+04 1.361e-09
 50.64475    -98.4 1.132e+04 1.083e-09
 50.66422    -98.3 1.111e+04 9.488e-10
 50.68380    -98.3 1.070e+04 7.361e-10
 50.70337    -98.4 1.045e+04 6.074e-10
 50.73282    -98.7 1.002e+04 4.564e-10
 50.77207    -97.7 9.593e+03 3.552e-10
 50.80117    -96.2 9.477e+03 3.300e-10
 50.82074    -94.7 9.171e+03 2.694e-10
 50.85035    -93.1 9.113e+03 2.601e-10
 50.88950    -91.6 9.172e+03 2.704e-10
 50.92864    -90.2 9.280e+03 3.039e-10
 50.96778    -88.7 9.414e+03 3.523e-10
 51.00693    -87.2 9.542e+03 4.033e-10
 51.04607    -85.6 9.674e+03 4.567e-10
 51.08522    -84.1 9.771e+03 4.996e-10
 51.12436    -82.4 9.794e+03 5.201e-10
 51.16350    -80.3 9.716e+03 5.249e-10
 51.20265    -78.2 9.626e+03 4.787e-10
 51.24179    -76.2 9.512e+03 4.328e-10
 51.28094    -74.2 9.490e+03 4.177e-10
 51.32008    -72.3 9.524e+03 4.191e-10
 51.35922    -70.6 9.777e+03 4.712e-10
 51.39837    -69.0 1.011e+04 5.742e-10
 51.43751    -67.5 1.039e+04 6.581e-10
 51.47665    -66.1 1.049e+04 6.751e-10
 51.51580    -65.2 1.047e+04 6.249e-10
 51.55494    -64.7 1.029e+04 5.527e-10
 51.59409    -64.6 1.013e+04 5.329e-10
 51.62679    -64.6 9.975e+03 5.221e-10
 51.64636    -65.4 9.947e+03 5.289e-10
 51.67237    -65.1 9.860e+03 5.346e-10
 51.69589    -64.8 9.788e+03 4.294e-10
 51.71546    -62.2 1.015e+04 6.304e-10
 51.75066    -62.1 1.015e+04 5.270e-10
 51.78980    -63.8 1.035e+04 4.517e-10
 51.82895    -67.4 1.063e+04 4.573e-10
 51.86809    -70.8 1.162e+04 9.024e-10
 51.90724    -73.1 1.244e+04 1.607e-09
 51.94638    -76.0 1.286e+04 1.930e-09
 51.97564    -79.6 1.284e+04 1.928e-09
 51.99511    -81.8 1.275e+04 1.696e-09
 52.01469    -84.6 1.265e+04 1.521e-09
 52.03426    -88.2 1.268e+04 1.466e-09
 52.04919    -92.4 1.278e+04 1.474e-09
 52.05897    -92.0 1.246e+04 1.324e-09
 52.07340    -95.6 1.292e+04 1.514e-09
 52.09297    -99.0 1.317e+04 1.894e-09
 52.11255   -101.7 1.321e+04 2.256e-09
 52.13212   -103.6 1.312e+04 2.438e-09
 52.14302   -105.0 1.303e+04 2.489e-09
 52.15281   -105.2 1.323e+04 2.844e-09
 52.17126   -106.2 1.282e+04 2.490e-09
 52.19083   -107.0 1.233e+04 1.993e-09
 52.21041   -108.0 1.185e+04 1.523e-09
 52.22998   -109.0 1.133e+04 1.131e-09
 52.24955   -110.1 1.071e+04 8.224e-10
 52.26912   -111.1 1.007e+04 5.979e-10
 52.28869   -111.9 9.469e+03 4.403e-10
 52.30826   -112.5 8.971e+03 3.262e-10
 52.33772   -113.0 8.572e+03 2.311e-10
 52.37696   -112.8 8.382e+03 1.846e-10
 52.41611   -111.8 8.310e+03 1.464e-10
 52.45240   -110.4 8.370e+03 1.413e-10
 52.47198   -110.2 8.893e+03 2.141e-10
 52.49439   -109.0 9.265e+03 2.454e-10
 52.53354   -108.0 9.545e+03 2.927e-10
 52.57098   -106.9 9.818e+03 3.774e-10
 52.59055   -106.6 9.995e+03 4.457e-10
 52.61182   -106.0 1.029e+04 5.359e-10
 52.65097   -105.7 1.060e+04 6.356e-10
 52.69011   -105.7 1.090e+04 7.209e-10
 52.72926   -106.3 1.116e+04 7.699e-10
 52.76840   -107.3 1.124e+04 7.750e-10
 52.80754   -108.2 1.128e+04 7.730e-10
 52.84669   -108.9 1.162e+04 8.253e-10
 52.88583   -109.2 1.214e+04 9.993e-10
 52.92497   -109.0 1.254e+04 1.230e-09
 52.96412   -107.7 1.270e+04 1.411e-09
 53.00326   -106.3 1.275e+04 1.464e-09
 53.04241   -104.6 1.270e+04 1.466e-09
 53.08155   -102.8 1.261e+04 1.450e-09
 53.11081   -101.6 1.262e+04 1.457e-09
 53.13028   -101.5 1.318e+04 1.583e-09
 53.14986   -103.1 1.495e+04 2.114e-09
 53.16943   -105.9 1.716e+04 4.005e-09
 53.18900   -107.7 1.840e+04 7.730e-09
 53.20857   -108.6 1.941e+04 1.245e-08
 53.22814   -109.7 2.057e+04 1.553e-08
 53.24772   -111.7 2.124e+04 1.608e-08
 53.26729   -115.0 2.217e+04 1.376e-08
 53.28686   -119.8 2.143e+04 8.305e-09
 53.29740   -125.1 1.785e+04 5.131e-09
 53.30224   -120.6 2.158e+04 1.004e-08
 53.31123   -123.0 2.021e+04 8.255e-09
 53.32101   -126.2 1.791e+04 6.346e-09
 53.33080   -127.1 1.708e+04 5.688e-09
 53.34058   -128.5 1.577e+04 4.693e-09
 53.35037   -128.8 1.536e+04 4.324e-09
 53.36510   -129.6 1.461e+04 3.613e-09
 53.38472   -130.5 1.356e+04 2.543e-09
 53.40429   -131.0 1.268e+04 1.695e-09
 53.42386   -131.4 1.174e+04 1.085e-09
 53.44344   -131.7 1.086e+04 6.809e-10
 53.46301   -131.9 1.021e+04 4.424e-10
 53.47522   -132.0 9.807e+03 3.161e-10
 53.48501   -132.4 9.746e+03 2.977e-10
 53.51203   -132.5 9.634e+03 2.542e-10
 53.55128   -132.7 9.466e+03 2.225e-10
 53.59042   -132.4 9.383e+03 2.114e-10
 53.62956   -131.8 9.401e+03 2.148e-10
 53.66871   -131.5 9.504e+03 2.369e-10
 53.70785   -131.3 9.543e+03 2.521e-10
 53.74699   -131.0 9.536e+03 2.545e-10
 53.78614   -130.7 9.437e+03 2.451e-10
 53.82528   -130.6 9.261e+03 2.199e-10
 53.86443   -130.6 9.091e+03 1.928e-10
 53.90357   -130.9 8.978e+03 1.749e-10
 53.94271   -131.7 8.907e+03 1.680e-10
 53.98186   -132.7 8.868e+03 1.667e-10
 54.02100   -133.9 8.827e+03 1.680e-10
 54.06015   -135.4 8.850e+03 1.785e-10
 54.09929   -137.3 9.273e+03 2.181e-10
 54.12321   -139.6 1.005e+04 3.064e-10
 54.14278   -140.3 9.965e+03 2.965e-10
 54.17758   -142.6 1.072e+04 4.872e-10
 54.20684   -143.4 1.107e+04 6.373e-10
 54.22631   -144.9 1.151e+04 8.398e-10
 54.24588   -146.7 1.188e+04 1.147e-09
 54.26545   -147.9 1.209e+04 1.303e-09
 54.28503   -149.1 1.214e+04 1.336e-09
 54.30460   -150.2 1.208e+04 1.283e-09
 54.32417   -151.2 1.177e+04 1.029e-09
 54.34374   -152.4 1.133e+04 7.482e-10
 54.36009   -153.7 1.081e+04 5.286e-10
 54.36988   -152.0 1.121e+04 6.999e-10
 54.38289   -153.3 1.069e+04 4.940e-10
 54.40246   -154.4 1.020e+04 3.634e-10
 54.42203   -155.0 9.820e+03 2.909e-10
 54.44160   -155.2 9.597e+03 2.565e-10
 54.46117   -155.2 9.489e+03 2.434e-10
 54.49063   -155.0 9.387e+03 2.339e-10
 54.52987   -154.6 9.240e+03 2.233e-10
 54.56901   -154.4 9.219e+03 2.242e-10
 54.60816   -154.8 9.721e+03 3.314e-10
 54.64730   -155.9 1.156e+04 6.512e-10
 54.67656   -157.8 1.324e+04 1.447e-09
 54.69604   -158.7 1.410e+04 2.310e-09
 54.71561   -159.4 1.476e+04 3.619e-09
 54.73518   -159.7 1.515e+04 4.762e-09
 54.75475   -159.9 1.531e+04 5.334e-09
 54.77432   -160.3 1.531e+04 5.461e-09
 54.79390   -160.8 1.508e+04 5.132e-09
 54.80742   -161.4 1.488e+04 4.305e-09
 54.81720   -161.2 1.500e+04 4.304e-09
 54.83304   -161.9 1.483e+04 3.731e-09
 54.85261   -162.8 1.479e+04 3.290e-09
 54.87218   -163.7 1.473e+04 2.990e-09
 54.89176   -164.7 1.457e+04 2.826e-09
 54.91133   -165.5 1.430e+04 2.784e-09
 54.93090   -166.0 1.418e+04 2.785e-09
 54.94863   -166.1 1.389e+04 2.982e-09
 54.95841   -166.7 1.402e+04 3.534e-09
 54.97004   -166.2 1.379e+04 3.468e-09
 54.98962   -165.5 1.360e+04 3.295e-09
 55.00919   -164.8 1.347e+04 2.978e-09
 55.02876   -164.1 1.340e+04 2.538e-09
 55.04833   -163.5 1.336e+04 2.025e-09
 55.06790   -163.0 1.340e+04 1.528e-09
 55.08747   -162.8 1.343e+04 1.157e-09
 55.10705   -162.6 1.341e+04 9.132e-10
 55.12662   -162.5 1.320e+04 7.583e-10
 55.14619   -162.4 1.284e+04 6.631e-10
 55.16576   -162.3 1.246e+04 6.114e-10
 55.18533   -162.2 1.214e+04 5.964e-10
 55.20491   -162.0 1.195e+04 5.983e-10
 55.22448   -161.8 1.188e+04 6.033e-10
 55.24405   -161.7 1.173e+04 6.256e-10
 55.25484   -161.6 1.163e+04 6.477e-10
 55.26463   -161.0 1.174e+04 6.358e-10
 55.28319   -160.8 1.166e+04 6.622e-10
 55.31265   -160.8 1.161e+04 6.860e-10
 55.35189   -160.4 1.156e+04 7.170e-10
 55.39103   -159.8 1.126e+04 7.055e-10
 55.43018   -158.8 1.092e+04 6.050e-10
 55.46932   -157.6 1.062e+04 4.626e-10
 55.50847   -156.3 1.042e+04 3.613e-10
 55.54761   -155.0 1.032e+04 3.118e-10
 55.58675   -153.6 1.028e+04 2.995e-10
 55.62590   -152.0 1.027e+04 2.992e-10
 55.66504   -150.4 1.030e+04 3.249e-10
 55.70419   -148.9 1.037e+04 3.628e-10
 55.74333   -147.4 1.041e+04 3.863e-10
 55.77444   -146.1 1.042e+04 3.915e-10
 55.79401   -145.8 1.015e+04 3.441e-10
 55.82162   -144.3 1.002e+04 2.998e-10
 55.86076   -142.8 9.923e+03 2.378e-10
 55.89990   -141.3 9.876e+03 1.863e-10
 55.93905   -139.9 9.849e+03 1.528e-10
 55.97819   -138.5 9.822e+03 1.353e-10
 56.01734   -137.1 9.792e+03 1.284e-10
 56.05648   -135.6 9.785e+03 1.265e-10
 56.09562   -134.2 9.792e+03 1.263e-10
 56.13002   -133.2 9.896e+03 1.279e-10
 56.14959   -133.0 9.937e+03 1.218e-10
 56.17391   -132.6 1.033e+04 1.513e-10
 56.21305   -132.2 1.066e+04 2.742e-10
 56.25220   -131.3 1.104e+04 5.200e-10
 56.29134   -130.4 1.144e+04 8.448e-10
 56.33049   -129.6 1.177e+04 1.129e-09
 56.36963   -129.3 1.190e+04 1.234e-09
 56.40877   -129.0 1.190e+04 1.244e-09
 56.44792   -128.5 1.179e+04 1.182e-09
 56.48706   -127.7 1.169e+04 1.054e-09
 56.52621   -126.8 1.163e+04 9.258e-10
 56.56535   -126.0 1.166e+04 8.545e-10
 56.60005   -125.4 1.173e+04 8.419e-10
 56.61963   -125.4 1.154e+04 8.468e-10
 56.64364   -125.2 1.183e+04 9.509e-10
 56.68278   -125.3 1.202e+04 1.004e-09
 56.72192   -125.7 1.205e+04 1.013e-09
 56.76107   -126.3 1.180e+04 9.285e-10
 56.80021   -126.8 1.132e+04 7.248e-10
 56.83936   -127.4 1.101e+04 6.004e-10
 56.87850   -128.0 1.098e+04 5.753e-10
 56.91764   -128.8 1.108e+04 6.033e-10
 56.95679   -129.8 1.122e+04 6.928e-10
 56.99593   -130.9 1.122e+04 7.371e-10
 57.02468   -132.1 1.107e+04 7.205e-10
 57.04425   -131.6 1.113e+04 7.990e-10
 57.07422   -132.7 1.068e+04 6.122e-10
 57.11336   -133.7 1.029e+04 4.990e-10
 57.15251   -134.5 1.003e+04 4.571e-10
 57.19165   -135.1 9.931e+03 4.472e-10
 57.23079   -135.5 9.886e+03 4.448e-10
 57.26994   -135.9 9.853e+03 4.448e-10
 57.30908   -136.3 9.767e+03 4.458e-10
 57.34822   -136.7 9.724e+03 4.204e-10
 57.38737   -137.3 9.697e+03 3.828e-10
 57.42567   -137.9 9.707e+03 3.448e-10
 57.44524   -140.0 1.006e+04 4.442e-10
 57.46566   -140.4 1.002e+04 4.182e-10
 57.50480   -140.8 1.002e+04 4.066e-10
 57.54394   -141.2 1.014e+04 4.163e-10
 57.58309   -141.7 1.060e+04 5.082e-10
 57.62223   -142.2 1.143e+04 7.700e-10
 57.65149   -141.6 1.167e+04 9.131e-10
 57.67097   -141.8 1.201e+04 1.111e-09
 57.69054   -141.9 1.222e+04 1.294e-09
 57.71011   -141.9 1.233e+04 1.400e-09
 57.72968   -142.0 1.233e+04 1.469e-09
 57.74925   -141.9 1.232e+04 1.480e-09
 57.76883   -141.9 1.208e+04 1.446e-09
 57.78840   -141.7 1.187e+04 1.338e-09
 57.80797   -141.5 1.151e+04 1.174e-09
 57.82754   -141.2 1.117e+04 9.806e-10
 57.84711   -140.9 1.090e+04 7.922e-10
 57.85785   -140.7 1.067e+04 6.176e-10
 57.86764   -141.4 1.060e+04 5.367e-10
 57.89614   -141.0 1.035e+04 3.954e-10
 57.91933   -140.8 1.013e+04 3.082e-10
 57.92902   -139.4 1.053e+04 5.193e-10
 57.94497   -139.0 1.038e+04 4.514e-10
 57.97443   -138.2 1.018e+04 3.874e-10
 58.01367   -137.9 9.931e+03 3.059e-10
 58.05281   -136.8 9.758e+03 2.562e-10
 58.09196   -135.6 9.738e+03 2.464e-10
 58.13110   -134.3 9.741e+03 2.456e-10
 58.17024   -133.4 9.803e+03 2.785e-10
 58.20939   -133.1 1.047e+04 4.159e-10
 58.24853   -133.4 1.179e+04 7.754e-10
 58.27076   -135.7 1.324e+04 1.705e-09
 58.28045   -136.3 1.330e+04 1.845e-09
 58.29727   -136.6 1.432e+04 3.146e-09
 58.31684   -136.7 1.512e+04 4.891e-09
 58.33641   -136.6 1.565e+04 6.115e-09
 58.35598   -136.9 1.581e+04 6.399e-09
 58.36646   -137.5 1.582e+04 6.193e-09
 58.37625   -135.9 1.597e+04 6.528e-09
 58.39513   -136.4 1.578e+04 5.537e-09
 58.41470   -137.3 1.523e+04 3.969e-09
 58.43427   -138.7 1.456e+04 2.924e-09
 58.45384   -139.7 1.409e+04 2.526e-09
 58.47341   -139.9 1.396e+04 2.444e-09
 58.49299   -139.9 1.395e+04 2.438e-09
 58.51256   -140.1 1.393e+04 2.618e-09
 58.53213   -141.0 1.493e+04 3.520e-09
 58.55170   -142.3 1.678e+04 5.452e-09
 58.57127   -143.7 1.863e+04 9.851e-09
 58.58519   -144.6 1.973e+04 1.608e-08
 58.59003   -144.6 1.999e+04 1.916e-08
 58.59564   -144.8 2.050e+04 2.659e-08
 58.60543   -144.9 2.080e+04 4.049e-08
 58.61521   -144.9 2.119e+04 5.884e-08
 58.62500   -144.9 2.157e+04 8.037e-08
 58.63478   -145.3 2.185e+04 9.700e-08
 58.64457   -146.3 2.194e+04 1.017e-07
 58.65436   -147.3 2.196e+04 1.014e-07
 58.66414   -148.0 2.176e+04 9.057e-08
 58.67393   -148.7 2.141e+04 7.118e-08
 58.68337   -149.2 2.092e+04 5.302e-08
 58.68827   -149.5 2.043e+04 4.885e-08
 58.69350   -149.6 1.977e+04 3.848e-08
 58.70329   -149.6 1.932e+04 3.140e-08
 58.71307   -149.5 1.909e+04 2.688e-08
 58.72286   -149.2 1.893e+04 2.439e-08
 58.73264   -149.1 1.893e+04 2.308e-08
 58.74243   -149.1 1.900e+04 2.161e-08
 58.75222   -149.1 1.904e+04 1.995e-08
 58.76200   -149.0 1.909e+04 1.802e-08
 58.77179   -149.0 1.919e+04 1.595e-08
 58.78157   -149.1 1.927e+04 1.387e-08
 58.79136   -149.3 1.928e+04 1.198e-08
 58.80115   -149.8 1.915e+04 1.044e-08
 58.80880   -150.3 1.893e+04 9.292e-09
 58.81369   -149.5 2.044e+04 1.667e-08
 58.82072   -150.0 2.039e+04 1.499e-08
 58.83050   -150.5 2.014e+04 1.305e-08
 58.84029   -151.1 1.978e+04 1.194e-08
 58.85008   -151.3 1.947e+04 1.159e-08
 58.86480   -151.6 1.921e+04 1.145e-08
 58.88442   -152.4 1.827e+04 8.540e-09
 58.90400   -153.0 1.770e+04 7.010e-09
 58.92357   -153.4 1.714e+04 6.005e-09
 58.94314   -153.7 1.679e+04 5.402e-09
 58.96271   -153.7 1.647e+04 4.904e-09
 58.98228   -153.7 1.621e+04 4.388e-09
 59.00186   -153.6 1.592e+04 3.835e-09
 59.02143   -153.6 1.559e+04 3.306e-09
 59.04100   -153.5 1.518e+04 2.847e-09
 59.06057   -153.4 1.471e+04 2.464e-09
 59.08014   -153.2 1.418e+04 2.153e-09
 59.09628   -152.8 1.365e+04 1.913e-09
 59.10606   -152.5 1.417e+04 2.809e-09
 59.11929   -151.9 1.358e+04 2.336e-09
 59.13886   -151.3 1.310e+04 1.987e-09
 59.15843   -150.6 1.275e+04 1.745e-09
 59.17800   -149.8 1.252e+04 1.585e-09
 59.19757   -149.1 1.234e+04 1.485e-09
 59.21715   -148.3 1.224e+04 1.433e-09
 59.23672   -147.4 1.217e+04 1.390e-09
 59.25133   -146.5 1.208e+04 1.342e-09
 59.26112   -146.4 1.250e+04 1.767e-09
 59.27586   -145.5 1.237e+04 1.672e-09
 59.29543   -144.6 1.222e+04 1.565e-09
 59.31501   -143.6 1.206e+04 1.455e-09
 59.33458   -142.6 1.195e+04 1.365e-09
 59.35415   -141.6 1.195e+04 1.326e-09
 59.37372   -141.0 1.202e+04 1.320e-09
 59.39329   -140.8 1.238e+04 1.406e-09
 59.41287   -141.0 1.303e+04 1.674e-09
 59.43244   -141.6 1.385e+04 2.285e-09
 59.45201   -142.1 1.470e+04 3.390e-09
 59.47158   -142.2 1.553e+04 5.085e-09
 59.49115   -142.2 1.641e+04 7.297e-09
 59.50909   -142.7 1.737e+04 9.801e-09
 59.51887   -142.6 1.756e+04 9.853e-09
 59.53030   -143.3 1.832e+04 1.350e-08
 59.54987   -144.2 1.888e+04 1.682e-08
 59.56944   -145.2 1.927e+04 1.933e-08
 59.58901   -146.5 1.941e+04 2.015e-08
 59.60858   -148.1 1.926e+04 1.982e-08
 59.62816   -149.0 1.832e+04 1.503e-08
 59.64773   -149.2 1.701e+04 9.039e-09
 59.66730   -149.7 1.557e+04 4.885e-09
 59.68687   -150.8 1.424e+04 2.679e-09
 59.69866   -152.2 1.307e+04 1.628e-09
 59.70845   -151.3 1.362e+04 1.931e-09
 59.72602   -152.4 1.281e+04 1.295e-09
 59.74559   -153.3 1.208e+04 9.750e-10
 59.76516   -154.1 1.151e+04 8.190e-10
 59.78473   -155.2 1.117e+04 7.656e-10
 59.80430   -156.7 1.111e+04 7.588e-10
 59.82388   -158.7 1.152e+04 8.130e-10
 59.84345   -160.9 1.189e+04 9.755e-10
 59.86302   -163.1 1.229e+04 1.216e-09
 59.88259   -165.2 1.265e+04 1.516e-09
 59.90216   -167.3 1.297e+04 1.821e-09
 59.92173   -169.5 1.332e+04 2.105e-09
 59.93168   -171.9 1.370e+04 2.400e-09
 59.94147   -172.6 1.360e+04 2.401e-09
 59.96088   -175.1 1.373e+04 2.446e-09
 59.98045   -177.5 1.376e+04 2.445e-09
 60.00002   -179.9 1.376e+04 2.397e-09
 60.01959   -182.2 1.355e+04 2.250e-09
 60.03917   -184.3 1.319e+04 2.026e-09
 60.05874   -186.3 1.280e+04 1.823e-09
 60.07831   -188.0 1.257e+04 1.720e-09
 60.09788   -189.3 1.251e+04 1.705e-09
 60.11745   -190.5 1.253e+04 1.739e-09
 60.13620   -191.4 1.255e+04 1.787e-09
 60.14599   -190.8 1.242e+04 1.561e-09
 60.15660   -191.6 1.242e+04 1.588e-09
 60.17617   -192.2 1.237e+04 1.588e-09
 60.19574   -192.7 1.221e+04 1.487e-09
 60.21531   -193.0 1.197e+04 1.327e-09
 60.23489   -193.1 1.170e+04 1.142e-09
 60.25446   -193.1 1.142e+04 9.639e-10
 60.27403   -193.1 1.115e+04 7.972e-10
 60.29360   -192.9 1.087e+04 6.415e-10
 60.31317   -192.4 1.062e+04 5.110e-10
 60.33274   -192.0 1.050e+04 4.314e-10
 60.36220   -192.0 1.046e+04 3.886e-10
 60.40144   -191.2 1.038e+04 3.424e-10
 60.44059   -189.8 1.028e+04 3.004e-10
 60.47973   -188.2 1.024e+04 2.718e-10
 60.51887   -186.5 1.026e+04 2.529e-10
 60.55802   -184.9 1.031e+04 2.375e-10
 60.58373   -183.3 1.037e+04 2.209e-10
 60.60330   -182.9 1.034e+04 2.087e-10
 60.63630   -181.3 1.041e+04 1.958e-10
 60.67545   -179.6 1.048e+04 1.845e-10
 60.71459   -177.7 1.055e+04 1.778e-10
 60.74770   -175.7 1.058e+04 1.767e-10
 60.76728   -177.2 1.056e+04 1.589e-10
 60.79288   -175.3 1.087e+04 1.631e-10
 60.83202   -173.4 1.122e+04 1.880e-10
 60.87117   -171.5 1.151e+04 2.366e-10
 60.91031   -169.5 1.175e+04 3.072e-10
 60.94945   -167.5 1.195e+04 3.819e-10
 60.98860   -165.6 1.206e+04 4.486e-10
 61.02774   -163.6 1.207e+04 4.728e-10
 61.06689   -161.7 1.203e+04 4.732e-10
 61.10603   -159.7 1.192e+04 4.494e-10
 61.13529   -157.8 1.191e+04 4.737e-10
 61.15476   -156.7 1.180e+04 4.417e-10
 61.17010   -155.8 1.171e+04 4.137e-10
 61.17989   -155.8 1.156e+04 3.601e-10
 61.19391   -154.9 1.149e+04 3.432e-10
 61.21348   -153.4 1.145e+04 3.285e-10
 61.23305   -152.4 1.145e+04 3.198e-10
 61.25262   -151.0 1.149e+04 3.115e-10
 61.27220   -150.0 1.152e+04 3.087e-10
 61.29177   -148.6 1.154e+04 3.092e-10
 61.31134   -147.8 1.165e+04 3.089e-10
 61.33091   -146.5 1.181e+04 3.269e-10
 61.35048   -145.8 1.200e+04 3.572e-10
 61.37006   -144.7 1.225e+04 4.196e-10
 61.38963   -144.2 1.239e+04 5.010e-10
 61.40920   -143.1 1.259e+04 6.540e-10
 61.42877   -142.1 1.274e+04 8.381e-10
 61.44834   -141.1 1.288e+04 1.058e-09
 61.46792   -140.0 1.303e+04 1.292e-09
 61.47818   -139.0 1.318e+04 1.488e-09
 61.48797   -138.8 1.303e+04 1.233e-09
 61.50706   -137.9 1.315e+04 1.339e-09
 61.52663   -137.1 1.317e+04 1.380e-09
 61.54620   -136.3 1.311e+04 1.334e-09
 61.57322   -135.5 1.304e+04 1.283e-09
 61.59279   -134.0 1.310e+04 1.404e-09
 61.61480   -133.0 1.314e+04 1.410e-09
 61.65404   -131.2 1.313e+04 1.500e-09
 61.69319   -129.7 1.311e+04 1.521e-09
 61.73233   -128.1 1.294e+04 1.443e-09
 61.77147   -126.4 1.270e+04 1.272e-09
 61.81062   -124.5 1.243e+04 1.069e-09
 61.84976   -122.6 1.215e+04 8.758e-10
 61.88891   -120.5 1.187e+04 7.050e-10
 61.92805   -118.3 1.162e+04 5.677e-10
 61.96719   -115.9 1.134e+04 4.541e-10
 62.00634   -113.4 1.111e+04 3.601e-10
 62.04548   -110.8 1.095e+04 2.871e-10
 62.08463   -108.3 1.086e+04 2.351e-10
 62.12377   -105.7 1.078e+04 1.997e-10
 62.16291   -103.1 1.076e+04 1.802e-10
 62.20206   -100.7 1.076e+04 1.758e-10
 62.24120    -98.3 1.078e+04 1.793e-10
 62.28034    -96.1 1.089e+04 2.128e-10
 62.31949    -94.1 1.105e+04 2.784e-10
 62.35346    -92.0 1.124e+04 3.847e-10
 62.37304    -91.1 1.108e+04 3.058e-10
 62.39778    -89.1 1.127e+04 4.150e-10
 62.41851    -87.1 1.149e+04 5.566e-10
 62.43808    -87.2 1.113e+04 3.578e-10
 62.47606    -85.3 1.135e+04 4.873e-10
 62.51521    -83.4 1.160e+04 6.781e-10
 62.55435    -81.5 1.187e+04 9.324e-10
 62.59349    -79.7 1.216e+04 1.234e-09
 62.63264    -78.2 1.243e+04 1.538e-09
 62.67178    -76.8 1.261e+04 1.783e-09
 62.71093    -75.6 1.267e+04 1.889e-09
 62.75007    -74.3 1.261e+04 1.876e-09
 62.78921    -72.9 1.249e+04 1.747e-09
 62.82836    -71.4 1.236e+04 1.591e-09
 62.86750    -70.1 1.223e+04 1.412e-09
 62.90665    -68.8 1.201e+04 1.182e-09
 62.93591    -67.5 1.164e+04 8.899e-10
 62.95538    -66.9 1.156e+04 8.422e-10
 62.97495    -65.8 1.144e+04 7.293e-10
 62.99452    -65.3 1.141e+04 6.981e-10
 63.01410    -64.4 1.142e+04 6.732e-10
 63.03367    -64.2 1.149e+04 6.948e-10
 63.05324    -63.5 1.160e+04 7.525e-10
 63.07281    -63.1 1.169e+04 8.290e-10
 63.09238    -62.4 1.178e+04 9.381e-10
 63.11195    -61.9 1.183e+04 1.031e-09
 63.13153    -61.3 1.188e+04 1.112e-09
 63.15110    -60.8 1.187e+04 1.167e-09
 63.17067    -60.2 1.184e+04 1.208e-09
 63.19024    -59.5 1.176e+04 1.230e-09
 63.20981    -58.7 1.170e+04 1.226e-09
 63.22939    -57.9 1.164e+04 1.199e-09
 63.24393    -57.0 1.157e+04 1.144e-09
 63.25278    -55.9 1.151e+04 9.625e-10
 63.25781    -56.5 1.157e+04 1.077e-09
 63.26853    -55.7 1.154e+04 1.063e-09
 63.28810    -54.8 1.154e+04 1.022e-09
 63.30767    -54.2 1.152e+04 9.688e-10
 63.32725    -53.5 1.149e+04 9.035e-10
 63.34682    -52.8 1.148e+04 8.680e-10
 63.36639    -52.0 1.150e+04 8.657e-10
 63.38596    -51.4 1.150e+04 8.664e-10
 63.40553    -50.6 1.152e+04 8.890e-10
 63.42511    -49.7 1.160e+04 9.237e-10
 63.44468    -48.8 1.165e+04 9.484e-10
 63.46425    -47.9 1.164e+04 9.577e-10
 63.48382    -47.0 1.158e+04 9.454e-10
 63.50339    -46.1 1.155e+04 9.062e-10
 63.52296    -45.1 1.161e+04 8.859e-10
 63.54254    -44.3 1.163e+04 8.397e-10
 63.56211    -43.4 1.167e+04 8.212e-10
 63.58168    -42.4 1.165e+04 7.908e-10
 63.60125    -41.4 1.168e+04 8.046e-10
 63.62082    -40.8 1.170e+04 8.060e-10
 63.64040    -40.6 1.207e+04 8.757e-10
 63.65674    -41.1 1.263e+04 1.130e-09
 63.66652    -42.0 1.404e+04 2.861e-09
 63.67954    -42.5 1.470e+04 4.968e-09
 63.69525    -42.2 1.529e+04 8.103e-09
 63.70504    -42.2 1.588e+04 9.844e-09
 63.71868    -41.3 1.639e+04 1.423e-08
 63.73826    -40.3 1.655e+04 1.576e-08
 63.75783    -39.4 1.621e+04 1.395e-08
 63.77740    -38.9 1.542e+04 8.873e-09
 63.79697    -39.2 1.455e+04 5.278e-09
 63.81654    -40.0 1.385e+04 3.719e-09
 63.83612    -40.5 1.320e+04 2.891e-09
 63.85569    -40.4 1.290e+04 2.562e-09
 63.87526    -40.1 1.257e+04 2.240e-09
 63.89483    -39.8 1.241e+04 2.076e-09
 63.91440    -39.6 1.226e+04 1.889e-09
 63.93397    -39.3 1.223e+04 1.786e-09
 63.95355    -39.1 1.213e+04 1.667e-09
 63.97312    -38.9 1.195e+04 1.519e-09
 63.99269    -38.5 1.170e+04 1.327e-09
 64.01226    -37.9 1.150e+04 1.112e-09
 64.04172    -37.6 1.144e+04 8.865e-10
 64.06974    -37.4 1.137e+04 6.976e-10
 64.08931    -37.6 1.139e+04 6.983e-10
 64.12010    -37.0 1.108e+04 4.767e-10
 64.14277    -36.1 1.086e+04 3.322e-10
 64.16234    -35.4 1.100e+04 4.302e-10
 64.19839    -34.3 1.083e+04 3.162e-10
 64.23753    -33.2 1.075e+04 2.596e-10
 64.27668    -32.1 1.072e+04 2.437e-10
 64.31582    -31.1 1.074e+04 2.422e-10
 64.35497    -30.8 1.095e+04 2.918e-10
 64.39411    -30.9 1.140e+04 4.618e-10
 64.43325    -31.7 1.190e+04 8.890e-10
 64.46251    -32.1 1.214e+04 1.521e-09
 64.48199    -32.2 1.221e+04 1.678e-09
 64.49214    -31.7 1.243e+04 2.337e-09
 64.50192    -32.0 1.237e+04 2.372e-09
 64.52113    -31.3 1.240e+04 2.418e-09
 64.54070    -30.8 1.219e+04 1.996e-09
 64.56028    -30.7 1.190e+04 1.326e-09
 64.57985    -31.5 1.166e+04 8.885e-10
 64.58991    -32.1 1.154e+04 7.416e-10
 64.59969    -32.0 1.157e+04 7.523e-10
 64.62888    -32.6 1.154e+04 7.053e-10
 64.66812    -33.4 1.158e+04 7.861e-10
 64.69738    -33.8 1.164e+04 1.114e-09
 64.71685    -33.4 1.168e+04 1.198e-09
 64.73642    -32.9 1.170e+04 1.237e-09
 64.75599    -32.6 1.163e+04 1.157e-09
 64.78545    -32.3 1.155e+04 9.507e-10
 64.82469    -32.1 1.153e+04 9.024e-10
 64.86384    -31.4 1.155e+04 8.936e-10
 64.89536    -30.5 1.155e+04 8.383e-10
 64.91493    -30.4 1.156e+04 8.427e-10
 64.94212    -29.3 1.150e+04 7.332e-10
 64.98127    -28.1 1.133e+04 5.755e-10
 65.01786    -26.5 1.112e+04 4.121e-10
 65.03743    -26.3 1.112e+04 4.146e-10
 65.05955    -24.5 1.097e+04 2.812e-10
 65.09870    -22.8 1.083e+04 1.985e-10
 65.13784    -21.0 1.068e+04 1.730e-10
 65.17699    -19.0 1.063e+04 1.680e-10
 65.21613    -17.1 1.057e+04 1.863e-10
 65.25527    -14.9 1.055e+04 2.299e-10
 65.29442    -12.6 1.060e+04 2.677e-10
 65.33356    -10.4 1.068e+04 2.898e-10
 65.37270     -8.5 1.071e+04 2.933e-10
 65.41185     -6.8 1.072e+04 2.799e-10
 65.45099     -5.2 1.072e+04 2.621e-10
 65.49014     -3.6 1.065e+04 2.525e-10
 65.52928     -1.6 1.057e+04 2.573e-10
 65.56842      0.5 1.055e+04 2.398e-10
 65.60757      2.4 1.045e+04 2.081e-10
 65.64671      4.1 1.041e+04 1.829e-10
 65.68586      5.8 1.034e+04 1.698e-10
 65.72097      7.7 1.028e+04 1.544e-10
 65.74054      7.7 1.026e+04 1.419e-10
 65.76414      9.6 1.027e+04 1.246e-10
 65.80329     11.2 1.027e+04 1.142e-10
 65.84243     12.8 1.027e+04 1.140e-10
 65.88157     14.1 1.032e+04 1.236e-10
 65.91251     15.6 1.032e+04 1.432e-10
 65.93208     15.1 1.033e+04 1.469e-10
 65.95986     16.6 1.040e+04 1.785e-10
 65.99901     18.1 1.055e+04 2.044e-10
 66.03815     19.5 1.073e+04 2.219e-10
 66.07729     20.6 1.085e+04 2.418e-10
 66.11644     21.6 1.091e+04 2.729e-10
 66.15558     22.7 1.095e+04 2.998e-10
 66.19472     23.5 1.108e+04 3.154e-10
 66.23387     23.9 1.121e+04 3.250e-10
 66.27301     23.9 1.155e+04 4.140e-10
 66.31216     24.1 1.170e+04 5.642e-10
 66.35130     24.5 1.179e+04 6.803e-10
 66.39044     24.9 1.175e+04 6.788e-10
 66.42959     25.8 1.170e+04 5.992e-10
 66.46873     26.9 1.161e+04 4.457e-10
 66.50788     27.7 1.141e+04 3.313e-10
 66.54659     28.6 1.124e+04 2.918e-10
 66.56616     27.6 1.177e+04 4.371e-10
 66.58616     28.6 1.176e+04 5.106e-10
 66.62531     29.9 1.186e+04 6.749e-10
 66.66445     31.5 1.211e+04 9.032e-10
 66.69371     32.5 1.218e+04 9.966e-10
 66.71318     33.2 1.231e+04 1.142e-09
 66.73276     33.7 1.249e+04 1.442e-09
 66.75233     34.5 1.266e+04 1.800e-09
 66.77190     35.2 1.293e+04 2.193e-09
 66.79147     35.8 1.327e+04 2.674e-09
 66.80697     36.3 1.359e+04 3.242e-09
 66.81676     36.1 1.364e+04 3.329e-09
 66.83062     36.5 1.401e+04 3.956e-09
 66.85019     36.6 1.435e+04 4.728e-09
 66.86976     36.5 1.473e+04 5.499e-09
 66.88933     36.5 1.509e+04 6.167e-09
 66.90890     36.4 1.514e+04 6.225e-09
 66.92848     36.4 1.504e+04 5.960e-09
 66.94805     36.4 1.486e+04 5.216e-09
 66.96762     36.0 1.471e+04 4.358e-09
 66.97877     35.2 1.455e+04 4.121e-09
 66.98856     35.6 1.400e+04 3.121e-09
 67.00676     35.3 1.421e+04 3.459e-09
 67.02634     35.2 1.459e+04 4.458e-09
 67.04591     35.4 1.503e+04 6.014e-09
 67.06548     35.8 1.553e+04 7.676e-09
 67.08505     35.8 1.616e+04 9.956e-09
 67.10462     35.7 1.686e+04 1.268e-08
 67.12419     35.3 1.751e+04 1.455e-08
 67.14377     34.0 1.790e+04 1.446e-08
 67.16334     31.7 1.781e+04 1.258e-08
 67.18291     29.5 1.703e+04 9.428e-09
 67.20248     27.7 1.553e+04 6.035e-09
 67.22205     26.2 1.420e+04 3.514e-09
 67.24163     24.3 1.382e+04 2.331e-09
 67.25430     22.6 1.358e+04 1.746e-09
 67.26408     22.9 1.349e+04 1.516e-09
 67.29065     20.4 1.298e+04 1.124e-09
 67.32990     18.7 1.224e+04 8.208e-10
 67.35916     17.6 1.201e+04 7.625e-10
 67.37863     17.7 1.176e+04 7.535e-10
 67.39158     17.3 1.179e+04 7.883e-10
 67.40137     16.6 1.179e+04 7.957e-10
 67.41777     16.9 1.166e+04 7.935e-10
 67.44723     16.8 1.170e+04 7.422e-10
 67.48647     17.5 1.141e+04 5.454e-10
 67.52561     18.4 1.116e+04 3.412e-10
 67.56476     19.2 1.105e+04 2.173e-10
 67.60390     20.1 1.098e+04 1.517e-10
 67.64305     21.1 1.097e+04 1.213e-10
 67.68219     22.5 1.084e+04 1.157e-10
 67.72133     23.9 1.073e+04 1.105e-10
 67.76048     25.4 1.076e+04 1.205e-10
 67.79962     27.0 1.078e+04 1.454e-10
 67.83876     28.7 1.081e+04 1.805e-10
 67.87791     30.5 1.084e+04 2.178e-10
 67.91705     32.3 1.090e+04 2.496e-10
 67.95620     34.0 1.096e+04 2.768e-10
 67.99534     35.4 1.104e+04 3.159e-10
 68.03448     36.7 1.119e+04 3.870e-10
 68.07363     37.8 1.145e+04 5.205e-10
 68.11277     38.5 1.187e+04 7.796e-10
 68.15192     39.0 1.237e+04 1.217e-09
 68.19106     39.2 1.279e+04 1.715e-09
 68.21739     39.2 1.307e+04 2.027e-09
 68.23696     39.8 1.323e+04 2.208e-09
 68.26935     39.7 1.325e+04 1.983e-09
 68.30849     38.6 1.292e+04 1.351e-09
 68.34763     36.3 1.233e+04 9.725e-10
 68.38678     35.0 1.192e+04 8.193e-10
 68.42592     35.2 1.160e+04 6.507e-10
 68.46507     36.0 1.138e+04 4.440e-10
 68.50421     36.9 1.124e+04 2.868e-10
 68.54335     37.8 1.108e+04 2.119e-10
 68.57690     39.1 1.090e+04 1.912e-10
 68.59648     39.5 1.087e+04 1.702e-10
 68.62164     41.3 1.081e+04 1.907e-10
 68.66078     43.2 1.082e+04 2.235e-10
 68.69993     45.3 1.089e+04 2.622e-10
 68.73907     47.2 1.099e+04 3.057e-10
 68.77822     49.0 1.111e+04 3.636e-10
 68.81736     50.5 1.126e+04 4.538e-10
 68.85650     51.8 1.150e+04 6.011e-10
 68.89565     53.0 1.180e+04 8.146e-10
 68.93479     54.0 1.208e+04 1.019e-09
 68.97394     54.6 1.217e+04 1.040e-09
 69.01308     55.1 1.213e+04 9.977e-10
 69.04301     55.6 1.196e+04 8.424e-10
 69.06258     55.7 1.207e+04 9.338e-10
 69.09137     56.3 1.179e+04 6.174e-10
 69.13051     56.7 1.146e+04 3.863e-10
 69.16965     57.2 1.128e+04 3.473e-10
 69.20880     57.9 1.132e+04 3.657e-10
 69.24794     58.6 1.149e+04 4.489e-10
 69.28709     59.3 1.166e+04 5.578e-10
 69.32623     59.8 1.168e+04 5.893e-10
 69.36537     60.3 1.160e+04 5.496e-10
 69.40452     60.9 1.139e+04 4.222e-10
 69.44366     61.7 1.118e+04 2.627e-10
 69.47156     62.3 1.112e+04 1.412e-10
 69.49113     61.5 1.111e+04 1.301e-10
 69.52195     61.9 1.087e+04 8.804e-11
 69.56109     62.9 1.057e+04 8.665e-11
 69.60024     64.4 1.054e+04 8.865e-11
 69.63938     65.8 1.049e+04 9.869e-11
 69.67852     67.3 1.044e+04 1.175e-10
 69.71767     68.7 1.040e+04 1.422e-10
 69.75681     70.1 1.036e+04 1.612e-10
 69.79595     71.4 1.034e+04 1.618e-10
 69.83510     72.7 1.029e+04 1.549e-10
 69.86862     74.1 1.018e+04 1.329e-10
 69.88819     74.2 1.017e+04 1.283e-10
 69.91339     75.6 1.014e+04 9.883e-11
 69.95253     76.8 1.014e+04 7.498e-11
 69.99167     77.9 1.002e+04 6.332e-11
 70.03082     79.3 9.756e+03 6.254e-11
 70.06996     80.9 9.729e+03 6.261e-11
 70.10911     82.6 9.668e+03 6.451e-11
 70.14825     84.4 9.589e+03 7.113e-11
 70.18739     86.2 9.616e+03 8.254e-11
 70.22654     87.9 9.695e+03 9.887e-11
 70.26568     89.7 9.788e+03 1.171e-10
 70.30482     91.3 9.871e+03 1.311e-10
 70.34397     92.7 9.913e+03 1.351e-10
 70.36621     94.0 9.914e+03 1.329e-10
 70.38579     93.5 9.812e+03 1.291e-10
 70.42226     94.8 9.832e+03 1.268e-10
 70.46140     96.0 9.848e+03 1.265e-10
 70.50054     97.2 9.873e+03 1.287e-10
 70.53969     98.4 9.907e+03 1.388e-10
 70.57883     99.5 9.935e+03 1.585e-10
 70.61797    100.7 9.992e+03 1.890e-10
 70.65712    101.8 1.009e+04 2.269e-10
 70.69424    102.7 1.024e+04 2.759e-10
 70.71381    102.3 1.039e+04 3.158e-10
 70.73541    102.9 1.069e+04 4.295e-10
 70.77455    103.3 1.107e+04 6.198e-10
 70.81369    103.3 1.149e+04 8.961e-10
 70.85284    103.1 1.192e+04 1.225e-09
 70.89198    102.4 1.229e+04 1.544e-09
 70.93113    101.5 1.264e+04 1.856e-09
 70.97027    100.5 1.287e+04 2.065e-09
 71.00941     99.3 1.283e+04 2.021e-09
 71.04856     98.6 1.247e+04 1.686e-09
 71.08770     98.7 1.185e+04 1.112e-09
 71.12684     99.0 1.117e+04 6.016e-10
 71.16599     99.2 1.050e+04 3.156e-10
 71.20513     99.9 1.020e+04 2.862e-10
 71.24130    101.2 1.021e+04 3.067e-10
 71.26087    100.7 1.012e+04 2.894e-10
 71.28342    102.0 1.032e+04 3.685e-10
 71.32256    103.1 1.059e+04 4.617e-10
 71.36171    103.6 1.067e+04 4.783e-10
 71.40085    103.9 1.063e+04 4.581e-10
 71.43999    104.3 1.047e+04 3.959e-10
 71.47914    104.7 1.027e+04 3.479e-10
 71.51828    105.3 1.021e+04 3.436e-10
 71.53943    106.0 1.022e+04 3.586e-10
 71.55900    105.2 1.052e+04 4.907e-10
 71.59657    106.0 1.051e+04 4.807e-10
 71.63571    106.7 1.049e+04 4.561e-10
 71.67486    107.4 1.045e+04 4.247e-10
 71.71400    108.0 1.048e+04 4.107e-10
 71.75315    108.7 1.060e+04 4.300e-10
 71.79229    109.1 1.087e+04 4.887e-10
 71.82155    109.3 1.101e+04 5.274e-10
 71.84102    109.2 1.119e+04 5.922e-10
 71.86060    109.0 1.138e+04 6.815e-10
 71.88017    108.4 1.173e+04 8.334e-10
 71.89974    107.6 1.214e+04 1.030e-09
 71.91931    106.5 1.272e+04 1.397e-09
 71.93888    105.4 1.320e+04 1.818e-09
 71.95204    104.3 1.368e+04 2.262e-09
 71.96182    103.4 1.380e+04 2.360e-09
 71.97803    102.2 1.396e+04 2.422e-09
 71.99760    101.1 1.385e+04 2.299e-09
 72.01717    100.2 1.353e+04 1.932e-09
 72.03674     99.6 1.313e+04 1.451e-09
 72.05631     98.9 1.277e+04 1.015e-09
 72.07589     98.0 1.252e+04 7.030e-10
 72.09546     97.0 1.233e+04 5.133e-10
 72.11503     96.2 1.209e+04 4.151e-10
 72.13585     96.9 1.198e+04 4.138e-10
 72.15543     95.2 1.185e+04 4.267e-10
 72.18363     96.2 1.184e+04 4.450e-10
 72.22287     97.2 1.180e+04 4.833e-10
 72.26201     98.5 1.187e+04 5.951e-10
 72.30116     99.9 1.209e+04 7.766e-10
 72.34030    101.4 1.252e+04 1.072e-09
 72.36494    101.8 1.261e+04 1.178e-09
 72.37463    101.4 1.229e+04 8.982e-10
 72.38904    102.1 1.239e+04 9.990e-10
 72.40861    102.8 1.255e+04 1.090e-09
 72.42818    103.0 1.280e+04 1.192e-09
 72.44775    102.9 1.306e+04 1.308e-09
 72.46732    102.6 1.329e+04 1.451e-09
 72.48690    102.2 1.345e+04 1.630e-09
 72.50647    101.8 1.355e+04 1.835e-09
 72.52604    101.5 1.363e+04 2.023e-09
 72.54561    101.2 1.372e+04 2.161e-09
 72.56518    100.8 1.390e+04 2.299e-09
 72.58308    100.1 1.427e+04 2.532e-09
 72.59287     99.9 1.387e+04 2.140e-09
 72.60433     99.0 1.416e+04 2.277e-09
 72.62390     97.6 1.456e+04 2.689e-09
 72.64347     96.3 1.492e+04 3.447e-09
 72.66304     95.2 1.515e+04 4.358e-09
 72.68262     94.4 1.521e+04 4.841e-09
 72.70219     93.8 1.513e+04 4.731e-09
 72.72176     93.2 1.489e+04 4.200e-09
 72.74133     92.3 1.455e+04 3.366e-09
 72.76090     91.2 1.415e+04 2.609e-09
 72.77765     89.6 1.372e+04 2.251e-09
 72.78744     91.0 1.413e+04 2.678e-09
 72.80005     89.3 1.390e+04 2.585e-09
 72.81962     87.6 1.391e+04 2.685e-09
 72.83919     86.1 1.409e+04 3.187e-09
 72.85876     85.0 1.428e+04 3.650e-09
 72.87833     83.8 1.427e+04 3.622e-09
 72.89791     82.8 1.409e+04 3.300e-09
 72.92736     80.9 1.342e+04 2.019e-09
 72.96660     78.2 1.267e+04 1.106e-09
 73.00575     74.7 1.195e+04 6.091e-10
 73.03061     71.1 1.164e+04 4.924e-10
 73.04029     71.0 1.167e+04 4.983e-10
 73.05448     69.7 1.157e+04 4.936e-10
 73.07405     67.6 1.155e+04 4.833e-10
 73.09363     67.1 1.150e+04 4.760e-10
 73.12308     65.4 1.140e+04 4.492e-10
 73.16232     63.3 1.108e+04 3.877e-10
 73.19066     61.2 1.076e+04 3.376e-10
 73.21023     60.8 1.071e+04 3.092e-10
 73.24061     59.1 1.051e+04 2.982e-10
 73.27975     58.0 1.033e+04 2.853e-10
 73.31890     57.6 1.020e+04 2.695e-10
 73.35804     57.5 1.015e+04 2.561e-10
 73.39719     57.4 1.017e+04 2.453e-10
 73.43633     57.5 1.016e+04 2.366e-10
 73.47547     57.8 1.015e+04 2.243e-10
 73.51462     58.3 1.015e+04 2.021e-10
 73.55376     58.8 1.015e+04 1.859e-10
 73.59290     59.4 1.015e+04 1.863e-10
 73.63205     59.9 1.013e+04 1.975e-10
 73.67119     60.7 1.014e+04 2.270e-10
 73.71034     61.7 1.018e+04 2.559e-10
 73.74948     62.9 1.020e+04 2.590e-10
 73.78862     64.1 1.020e+04 2.476e-10
 73.82777     65.4 1.018e+04 2.115e-10
 73.86691     66.5 1.018e+04 1.686e-10
 73.90569     67.6 1.016e+04 1.382e-10
 73.92526     66.9 1.004e+04 1.564e-10
 73.94520     68.2 1.001e+04 1.461e-10
 73.98434     69.6 9.990e+03 1.419e-10
 74.01627     71.2 9.967e+03 1.418e-10
 74.03584     71.3 9.970e+03 1.538e-10
 74.06263     73.0 9.980e+03 1.592e-10
 74.10177     74.6 1.004e+04 1.748e-10
 74.14092     76.1 1.019e+04 2.146e-10
 74.18006     77.4 1.047e+04 2.934e-10
 74.21920     78.4 1.082e+04 4.148e-10
 74.25835     79.1 1.117e+04 5.566e-10
 74.29749     79.4 1.142e+04 6.913e-10
 74.33664     79.6 1.143e+04 8.023e-10
 74.37578     79.7 1.137e+04 8.218e-10
 74.41492     80.0 1.130e+04 8.148e-10
 74.45407     80.3 1.115e+04 7.656e-10
 74.49321     81.0 1.101e+04 7.039e-10
 74.52247     81.3 1.093e+04 6.833e-10
 74.54195     81.6 1.085e+04 6.672e-10
 74.56152     82.0 1.082e+04 6.680e-10
 74.58109     82.3 1.082e+04 6.812e-10
 74.60066     82.5 1.087e+04 7.316e-10
 74.62023     82.7 1.099e+04 8.205e-10
 74.63981     82.9 1.116e+04 9.449e-10
 74.65938     83.1 1.138e+04 1.100e-09
 74.67895     83.3 1.162e+04 1.259e-09
 74.69852     83.4 1.181e+04 1.328e-09
 74.71809     83.4 1.182e+04 1.321e-09
 74.73767     83.5 1.178e+04 1.260e-09
 74.75724     83.8 1.164e+04 1.108e-09
 74.77681     84.0 1.147e+04 9.422e-10
 74.79638     83.9 1.129e+04 7.052e-10
 74.80993     83.8 1.123e+04 6.235e-10
 74.81982     83.7 1.131e+04 8.824e-10
 74.84189     84.4 1.093e+04 6.628e-10
 74.86146     84.5 1.082e+04 6.106e-10
 74.88465     85.3 1.050e+04 3.804e-10
 74.92379     85.8 1.029e+04 2.285e-10
 74.96294     86.2 9.964e+03 1.610e-10
 75.00208     87.0 9.672e+03 1.551e-10
 75.04122     88.2 9.642e+03 1.580e-10
 75.08037     89.7 9.586e+03 1.732e-10
 75.11951     91.2 9.591e+03 2.065e-10
 75.15866     92.9 9.644e+03 2.532e-10
 75.19780     94.6 9.734e+03 3.055e-10
 75.23694     96.3 9.863e+03 3.480e-10
 75.27609     97.8 1.002e+04 3.576e-10
 75.31523     99.1 1.003e+04 3.564e-10
 75.35438    100.3 1.006e+04 3.407e-10
 75.39352    101.6 1.006e+04 3.098e-10
 75.43266    102.9 1.005e+04 2.783e-10
 75.47181    104.2 1.003e+04 2.551e-10
 75.51095    105.6 1.010e+04 2.424e-10
 75.55009    106.9 1.013e+04 2.416e-10
 75.58924    108.2 1.018e+04 2.426e-10
 75.62838    109.3 1.025e+04 2.462e-10
 75.66750    110.3 1.036e+04 2.599e-10
 75.69498    111.4 1.058e+04 3.011e-10
 75.71457    110.4 1.033e+04 2.555e-10
 75.74581    111.2 1.057e+04 3.041e-10
 75.78496    111.7 1.087e+04 3.777e-10
 75.81422    111.6 1.106e+04 4.355e-10
 75.83369    111.6 1.127e+04 5.153e-10
 75.85326    111.4 1.155e+04 6.423e-10
 75.87284    111.1 1.185e+04 7.918e-10
 75.89241    110.8 1.211e+04 9.397e-10
 75.91198    110.3 1.235e+04 1.067e-09
 75.93155    109.8 1.258e+04 1.165e-09
 75.95112    109.0 1.291e+04 1.248e-09
 75.97069    108.1 1.321e+04 1.362e-09
 75.99027    107.0 1.335e+04 1.546e-09
 76.00984    106.0 1.335e+04 1.789e-09
 76.02941    105.2 1.341e+04 1.954e-09
 76.04898    104.4 1.342e+04 1.932e-09
 76.06855    103.6 1.341e+04 1.840e-09
 76.09801    103.0 1.325e+04 1.589e-09
 76.13725    102.2 1.289e+04 1.322e-09
 76.17640    101.3 1.279e+04 1.270e-09
 76.21554    100.9 1.289e+04 1.306e-09
 76.24480    100.4 1.306e+04 1.346e-09
 76.26427     99.9 1.311e+04 1.338e-09
 76.28385     99.4 1.310e+04 1.289e-09
 76.30342     99.2 1.301e+04 1.138e-09
 76.32299     98.9 1.291e+04 9.436e-10
 76.34256     98.5 1.283e+04 7.736e-10
 76.36213     97.9 1.268e+04 6.717e-10
 76.38170     97.5 1.252e+04 6.547e-10
 76.40128     97.4 1.251e+04 6.540e-10
 76.42085     97.3 1.252e+04 6.677e-10
 76.44042     97.2 1.259e+04 7.196e-10
 76.45999     97.1 1.272e+04 8.144e-10
 76.47956     97.1 1.290e+04 9.578e-10
 76.49914     97.1 1.310e+04 1.150e-09
 76.51250     97.2 1.325e+04 1.385e-09
 76.52228     97.4 1.314e+04 1.369e-09
 76.53828     97.7 1.332e+04 1.643e-09
 76.55785     98.0 1.350e+04 1.860e-09
 76.57742     98.0 1.360e+04 1.889e-09
 76.58946     97.9 1.359e+04 1.854e-09
 76.59924     98.2 1.377e+04 1.852e-09
 76.61657     98.0 1.368e+04 1.757e-09
 76.63614     97.9 1.350e+04 1.528e-09
 76.65571     97.7 1.327e+04 1.239e-09
 76.67528     97.5 1.303e+04 9.777e-10
 76.69486     97.3 1.284e+04 7.837e-10
 76.71443     97.3 1.263e+04 6.828e-10
 76.73400     97.3 1.250e+04 6.734e-10
 76.75357     97.6 1.250e+04 6.847e-10
 76.77314     98.0 1.254e+04 7.282e-10
 76.79271     98.4 1.262e+04 8.303e-10
 76.81229     98.7 1.268e+04 9.255e-10
 76.84174     99.4 1.264e+04 1.009e-09
 76.88098     99.3 1.257e+04 1.076e-09
 76.92013     99.1 1.252e+04 1.062e-09
 76.95927     98.8 1.232e+04 1.001e-09
 76.99842     98.9 1.213e+04 8.897e-10
 77.03756     99.2 1.212e+04 8.212e-10
 77.06682     99.6 1.212e+04 7.489e-10
 77.08629     99.9 1.213e+04 6.650e-10
 77.10587    100.2 1.211e+04 5.749e-10
 77.12544    100.5 1.206e+04 4.911e-10
 77.14501    100.7 1.190e+04 4.061e-10
 77.16458    100.8 1.179e+04 3.672e-10
 77.18415    101.2 1.162e+04 3.415e-10
 77.20372    101.4 1.153e+04 3.309e-10
 77.23318    102.0 1.149e+04 3.440e-10
 77.27242    103.0 1.148e+04 3.479e-10
 77.31157    104.0 1.149e+04 3.450e-10
 77.33831    105.1 1.150e+04 3.369e-10
 77.35788    105.9 1.122e+04 2.680e-10
 77.38985    107.0 1.124e+04 2.633e-10
 77.42900    108.2 1.129e+04 2.710e-10
 77.46474    109.0 1.151e+04 3.316e-10
 77.48431    109.2 1.175e+04 5.109e-10
 77.50728    109.9 1.217e+04 7.516e-10
 77.54643    110.4 1.245e+04 9.926e-10
 77.58557    110.5 1.248e+04 1.019e-09
 77.62472    110.8 1.233e+04 9.390e-10
 77.66386    111.5 1.198e+04 7.103e-10
 77.70300    112.3 1.156e+04 4.796e-10
 77.74215    113.3 1.118e+04 3.592e-10
 77.78129    114.8 1.114e+04 3.510e-10
 77.82044    116.5 1.121e+04 3.676e-10
 77.85958    117.8 1.133e+04 4.157e-10
 77.89872    119.3 1.144e+04 5.044e-10
 77.93787    121.3 1.176e+04 6.815e-10
 77.96713    122.2 1.196e+04 8.195e-10
 77.98660    123.0 1.211e+04 9.338e-10
 78.00617    123.7 1.225e+04 1.046e-09
 78.02574    124.4 1.228e+04 1.143e-09
 78.04532    125.0 1.226e+04 1.203e-09
 78.06489    125.4 1.221e+04 1.202e-09
 78.08446    125.8 1.211e+04 1.173e-09
 78.10403    126.1 1.196e+04 1.121e-09
 78.12360    126.2 1.185e+04 1.063e-09
 78.14318    126.2 1.170e+04 9.947e-10
 78.16275    126.2 1.160e+04 9.395e-10
 78.17351    126.0 1.152e+04 8.868e-10
 78.18330    127.8 1.171e+04 1.016e-09
 78.20189    127.1 1.150e+04 9.467e-10
 78.22146    126.0 1.146e+04 8.808e-10
 78.24104    125.7 1.163e+04 8.956e-10
 78.26061    125.0 1.181e+04 8.767e-10
 78.28018    123.4 1.186e+04 8.436e-10
 78.29975    121.4 1.192e+04 8.578e-10
 78.31932    119.3 1.241e+04 9.177e-10
 78.33890    116.5 1.391e+04 9.454e-10
 78.35847    112.6 1.557e+04 1.018e-09
 78.36898    108.3 1.729e+04 1.420e-09
 78.37877    110.2 1.407e+04 1.205e-09
 78.39761    106.3 1.506e+04 2.112e-09
 78.41718    103.7 1.513e+04 3.165e-09
 78.43675    102.3 1.503e+04 3.497e-09
 78.45633    101.7 1.465e+04 3.319e-09
 78.47590    101.9 1.395e+04 2.783e-09
 78.49547    101.9 1.318e+04 2.175e-09
 78.51504    101.8 1.251e+04 1.698e-09
 78.53461    101.6 1.203e+04 1.404e-09
 78.55419    101.6 1.177e+04 1.244e-09
 78.57376    101.7 1.161e+04 1.149e-09
 78.58632    102.0 1.154e+04 1.126e-09
 78.59611    101.7 1.173e+04 1.227e-09
 78.61290    102.0 1.168e+04 1.219e-09
 78.63247    101.8 1.177e+04 1.246e-09
 78.65205    101.3 1.207e+04 1.366e-09
 78.67162    100.4 1.264e+04 1.598e-09
 78.69119     99.5 1.306e+04 1.912e-09
 78.71076     98.8 1.329e+04 2.191e-09
 78.73033     98.3 1.315e+04 2.300e-09
 78.74991     97.9 1.305e+04 2.296e-09
 78.76948     97.5 1.309e+04 2.323e-09
 78.78905     96.4 1.346e+04 2.464e-09
 78.80652     94.3 1.456e+04 2.923e-09
 78.81631     90.2 1.623e+04 4.934e-09
 78.82819     87.9 1.706e+04 7.305e-09
 78.84776     86.5 1.731e+04 9.856e-09
 78.86734     85.5 1.738e+04 1.118e-08
 78.88691     84.1 1.756e+04 1.121e-08
 78.90648     81.3 1.829e+04 1.076e-08
 78.92605     76.7 1.880e+04 9.505e-09
 78.94562     71.1 1.846e+04 6.925e-09
 78.96520     65.8 1.616e+04 4.542e-09
 78.98477     61.5 1.374e+04 2.805e-09
 78.99913     57.7 1.218e+04 1.576e-09
 79.00892     57.6 1.210e+04 1.518e-09
 79.02391     53.7 1.080e+04 9.008e-10
 79.04348     52.0 1.027e+04 7.295e-10
 79.07294     52.8 9.977e+03 7.123e-10
 79.11218     52.5 9.963e+03 7.311e-10
 79.15132     52.6 9.925e+03 7.279e-10
 79.19047     53.0 9.844e+03 7.038e-10
 79.22961     53.6 9.663e+03 6.322e-10
 79.25405     54.2 9.381e+03 5.255e-10
 79.27362     52.5 9.395e+03 4.954e-10
 79.30790     53.2 9.021e+03 3.625e-10
 79.34704     53.7 8.825e+03 3.011e-10
 79.38619     54.2 8.882e+03 3.049e-10
 79.42533     54.4 9.165e+03 3.534e-10
 79.46447     54.4 9.522e+03 4.461e-10
 79.49374     54.8 9.656e+03 5.137e-10
 79.51321     55.0 9.813e+03 5.984e-10
 79.53278     55.3 1.001e+04 6.113e-10
 79.55235     55.6 1.002e+04 5.994e-10
 79.58181     55.5 9.860e+03 4.667e-10
 79.62105     55.8 9.554e+03 3.547e-10
 79.66019     55.9 9.126e+03 2.526e-10
 79.69934     56.0 8.828e+03 2.068e-10
 79.73848     56.5 8.830e+03 2.110e-10
 79.77763     56.9 9.014e+03 2.474e-10
 79.80689     57.4 9.106e+03 2.752e-10
 79.82475     57.5 9.149e+03 2.865e-10
 79.83463     58.4 9.122e+03 2.659e-10
 79.84603     58.3 9.255e+03 3.102e-10
 79.86550     57.9 9.515e+03 3.941e-10
 79.88508     57.1 1.011e+04 5.834e-10
 79.90465     55.8 1.098e+04 9.506e-10
 79.92422     54.1 1.197e+04 1.666e-09
 79.94379     50.7 1.440e+04 3.383e-09
 79.96336     45.5 1.765e+04 7.805e-09
 79.98293     40.3 1.912e+04 1.202e-08
 80.00251     35.9 1.874e+04 1.147e-08
 80.02208     30.9 1.847e+04 8.049e-09
 80.04165     22.0 1.868e+04 5.039e-09
 80.06122     13.1 1.586e+04 3.498e-09
 80.08079      9.4 1.300e+04 2.914e-09
 80.10037      9.4 1.242e+04 2.634e-09
 80.11994      9.6 1.233e+04 2.145e-09
 80.13872      8.6 1.211e+04 1.384e-09
 80.14851      7.8 1.186e+04 1.306e-09
 80.16897      6.8 1.127e+04 8.950e-10
 80.20821      4.8 1.003e+04 5.303e-10
 80.24735      4.9 9.421e+03 3.494e-10
 80.28649      5.1 9.065e+03 2.371e-10
 80.32564      5.5 8.692e+03 1.953e-10
 80.36478      6.7 8.513e+03 1.759e-10
 80.40393      8.5 8.475e+03 1.613e-10
 80.44307     10.4 8.549e+03 1.464e-10
 80.48221     12.0 8.674e+03 1.410e-10
 80.52136     13.5 8.815e+03 1.516e-10
 80.56050     14.7 9.006e+03 1.892e-10
 80.59965     15.9 9.355e+03 3.064e-10
 80.63879     17.4 1.004e+04 5.861e-10
 80.66034     19.2 1.080e+04 9.915e-10
 80.67991     20.0 1.027e+04 5.922e-10
 80.71708     21.2 1.071e+04 6.965e-10
 80.75622     22.1 1.093e+04 7.548e-10
 80.79536     22.8 1.100e+04 7.999e-10
 80.83451     23.6 1.105e+04 8.443e-10
 80.87365     23.9 1.113e+04 8.976e-10
 80.90291     23.7 1.134e+04 1.005e-09
 80.92239     23.0 1.171e+04 1.162e-09
 80.94196     21.9 1.225e+04 1.451e-09
 80.96153     21.0 1.271e+04 1.854e-09
 80.98110     20.9 1.297e+04 2.101e-09
 81.00067     20.6 1.302e+04 2.081e-09
 81.02025     20.3 1.296e+04 1.875e-09
 81.03337     19.6 1.274e+04 1.574e-09
 81.04316     19.8 1.321e+04 2.001e-09
 81.05939     19.6 1.279e+04 1.709e-09
 81.07296     19.2 1.245e+04 1.402e-09
 81.08274     19.7 1.268e+04 1.616e-09
 81.10842     19.4 1.236e+04 1.249e-09
 81.14766     19.0 1.187e+04 7.791e-10
 81.18680     18.6 1.168e+04 6.668e-10
 81.22595     18.8 1.159e+04 6.817e-10
 81.26509     19.5 1.143e+04 6.463e-10
 81.30423     20.8 1.113e+04 4.993e-10
 81.34338     22.3 1.071e+04 3.171e-10
 81.38252     23.6 1.033e+04 2.032e-10
 81.42167     24.9 1.018e+04 1.493e-10
 81.46081     26.7 1.004e+04 1.320e-10
 81.48596     28.9 1.005e+04 1.332e-10
 81.50553     28.7 1.006e+04 1.315e-10
 81.53910     30.8 1.021e+04 1.399e-10
 81.57824     32.7 1.041e+04 1.665e-10
 81.61738     34.6 1.057e+04 2.175e-10
 81.65653     36.6 1.077e+04 2.857e-10
 81.69567     38.6 1.113e+04 3.694e-10
 81.73482     40.1 1.146e+04 4.229e-10
 81.76408     40.8 1.158e+04 4.389e-10
 81.78355     41.4 1.167e+04 4.322e-10
 81.80312     41.9 1.174e+04 4.308e-10
 81.82269     42.1 1.184e+04 4.325e-10
 81.84227     42.2 1.190e+04 4.449e-10
 81.86184     42.3 1.192e+04 4.772e-10
 81.88141     42.5 1.194e+04 5.209e-10
 81.89857     42.7 1.201e+04 5.446e-10
 81.90836     42.8 1.197e+04 5.100e-10
 81.91824     42.7 1.205e+04 5.039e-10
 81.92803     43.1 1.229e+04 5.355e-10
 81.94013     42.8 1.231e+04 5.393e-10
 81.96958     42.8 1.236e+04 5.274e-10
 82.00882     41.3 1.247e+04 5.469e-10
 82.04797     39.0 1.257e+04 7.074e-10
 82.08711     37.5 1.236e+04 9.207e-10
 82.12625     37.8 1.203e+04 8.638e-10
 82.16540     38.5 1.158e+04 6.124e-10
 82.20454     38.7 1.136e+04 3.691e-10
 82.24368     38.6 1.116e+04 2.529e-10
 82.28283     38.9 1.096e+04 2.302e-10
 82.31157     39.8 1.092e+04 2.274e-10
 82.33115     39.3 1.082e+04 2.447e-10
 82.36112     40.6 1.096e+04 2.385e-10
 82.40026     41.5 1.108e+04 2.349e-10
 82.43940     41.9 1.120e+04 2.691e-10
 82.47855     42.2 1.132e+04 3.620e-10
 82.51769     42.7 1.147e+04 4.902e-10
 82.55684     42.9 1.169e+04 5.247e-10
 82.59598     42.6 1.186e+04 5.070e-10
 82.62524     42.8 1.201e+04 5.068e-10
 82.64471     42.6 1.212e+04 4.911e-10
 82.66429     41.5 1.230e+04 4.968e-10
 82.68386     38.6 1.293e+04 5.775e-10
 82.70343     34.1 1.378e+04 9.740e-10
 82.72300     30.9 1.382e+04 2.027e-09
 82.73397     30.5 1.361e+04 2.933e-09
 82.74376     30.3 1.347e+04 2.662e-09
 82.76215     30.0 1.337e+04 2.538e-09
 82.79160     29.9 1.276e+04 1.470e-09
 82.81309     28.0 1.155e+04 4.280e-10
 82.83267     29.0 1.202e+04 6.937e-10
 82.86999     25.8 1.076e+04 1.520e-10
 82.90913     23.9 1.014e+04 7.069e-11
 82.94827     24.6 9.706e+03 6.727e-11
 82.98742     26.3 9.678e+03 6.927e-11
 83.02656     28.1 9.665e+03 7.863e-11
 83.06570     29.9 9.676e+03 9.755e-11
 83.10485     31.7 9.728e+03 1.265e-10
 83.13719     33.5 9.851e+03 1.631e-10
 83.15676     33.9 9.719e+03 1.305e-10
 83.18314     35.7 9.856e+03 1.702e-10
 83.22228     37.4 1.001e+04 2.177e-10
 83.26142     38.9 1.019e+04 2.671e-10
 83.30057     40.4 1.034e+04 3.073e-10
 83.33971     41.8 1.040e+04 3.135e-10
 83.37886     43.3 1.033e+04 3.027e-10
 83.41800     45.0 1.014e+04 2.605e-10
 83.45714     46.9 9.873e+03 1.946e-10
 83.49629     48.7 9.709e+03 1.333e-10
 83.53543     50.5 9.636e+03 9.104e-11
 83.57457     52.1 9.586e+03 6.721e-11
 83.61372     53.8 9.438e+03 5.793e-11
 83.65286     55.6 9.333e+03 5.781e-11
 83.68818     57.6 9.333e+03 5.872e-11
 83.70775     58.0 9.359e+03 6.292e-11
 83.73115     59.9 9.399e+03 6.812e-11
 83.77029     61.8 9.446e+03 7.490e-11
 83.80944     63.7 9.489e+03 8.268e-11
 83.84858     65.6 9.538e+03 8.963e-11
 83.88772     67.4 9.576e+03 9.475e-11
 83.92687     69.1 9.592e+03 9.704e-11
 83.96281     70.6 9.593e+03 9.813e-11
 83.98238     70.9 9.489e+03 8.676e-11
 84.00516     72.4 9.482e+03 8.181e-11
 84.04430     73.7 9.481e+03 8.237e-11
 84.08344     74.9 9.476e+03 8.847e-11
 84.12259     76.2 9.482e+03 1.049e-10
 84.16173     77.4 9.551e+03 1.254e-10
 84.20088     78.7 9.679e+03 1.362e-10
 84.24002     79.8 9.725e+03 1.349e-10
 84.27916     80.7 9.771e+03 1.251e-10
 84.31831     81.4 9.796e+03 1.100e-10
 84.35745     82.0 9.798e+03 1.061e-10
 84.39659     82.8 9.814e+03 1.102e-10
 84.43574     83.6 9.986e+03 1.418e-10
 84.47488     83.9 1.029e+04 2.030e-10
 84.50414     83.9 1.043e+04 2.428e-10
 84.52362     83.7 1.073e+04 3.178e-10
 84.54319     82.9 1.128e+04 5.081e-10
 84.56276     81.8 1.205e+04 9.146e-10
 84.58233     80.7 1.311e+04 1.694e-09
 84.59242     79.5 1.431e+04 2.910e-09
 84.60221     80.1 1.401e+04 2.337e-09
 84.62148     78.3 1.526e+04 3.745e-09
 84.64105     76.1 1.574e+04 4.660e-09
 84.66062     73.7 1.557e+04 4.584e-09
 84.68019     71.3 1.489e+04 3.966e-09
 84.69976     69.3 1.399e+04 3.023e-09
 84.71934     67.5 1.311e+04 2.125e-09
 84.73891     66.3 1.255e+04 1.531e-09
 84.75848     65.1 1.192e+04 1.016e-09
 84.78793     62.8 1.138e+04 6.600e-10
 84.80799     60.7 1.030e+04 2.461e-10
 84.82757     61.9 1.030e+04 3.042e-10
 84.86632     60.4 9.577e+03 1.728e-10
 84.90546     60.1 9.078e+03 1.516e-10
 84.94461     60.4 8.950e+03 1.505e-10
 84.98375     61.2 8.910e+03 1.542e-10
 85.02290     62.3 8.910e+03 1.626e-10
 85.06204     63.4 8.938e+03 1.644e-10
 85.10118     64.5 8.943e+03 1.568e-10
 85.14033     65.7 8.922e+03 1.357e-10
 85.17947     66.7 8.863e+03 1.103e-10
 85.21861     67.6 8.754e+03 9.122e-11
 85.25776     68.5 8.603e+03 8.150e-11
 85.29690     69.5 8.446e+03 8.129e-11
 85.33605     70.8 8.382e+03 8.339e-11
 85.37519     72.3 8.343e+03 8.724e-11
 85.41433     73.7 8.305e+03 9.013e-11
 85.45348     75.1 8.293e+03 9.097e-11
 85.47749     76.4 8.298e+03 9.183e-11
 85.49706     75.9 8.305e+03 9.122e-11
 85.53176     77.0 8.341e+03 9.311e-11
 85.57091     77.9 8.375e+03 9.697e-11
 85.61005     78.8 8.402e+03 1.020e-10
 85.63361     79.7 8.397e+03 1.050e-10
 85.65318     79.7 8.449e+03 1.086e-10
 85.68834     80.6 8.425e+03 1.077e-10
 85.72748     81.5 8.372e+03 1.032e-10
 85.76663     82.5 8.329e+03 9.309e-11
 85.80577     83.3 8.305e+03 7.836e-11
 85.84492     83.9 8.287e+03 6.281e-11
 85.88406     84.5 8.183e+03 5.828e-11
 85.92320     85.3 8.176e+03 5.869e-11
 85.96235     86.2 8.175e+03 6.106e-11
 86.00149     87.2 8.178e+03 6.779e-11
 86.04063     88.3 8.203e+03 7.920e-11
 86.07978     89.4 8.263e+03 9.765e-11
 86.11892     90.5 8.369e+03 1.271e-10
 86.15807     91.7 8.517e+03 1.695e-10
 86.19721     93.0 8.688e+03 2.183e-10
 86.23635     94.1 8.820e+03 2.523e-10
 86.27550     95.1 8.902e+03 2.579e-10
 86.31464     95.8 8.909e+03 2.567e-10
 86.35257     96.4 8.915e+03 2.535e-10
 86.37214     95.8 8.781e+03 2.267e-10
 86.39293     96.3 8.869e+03 2.455e-10
 86.43207     96.8 8.901e+03 2.656e-10
 86.45922     97.4 8.881e+03 2.681e-10
 86.47880     98.2 8.973e+03 2.817e-10
 86.51036     98.7 8.946e+03 2.778e-10
 86.54950     99.4 8.804e+03 2.530e-10
 86.58865    100.0 8.585e+03 2.095e-10
 86.62779    100.6 8.412e+03 1.778e-10
 86.66693    101.1 8.310e+03 1.618e-10
 86.70608    101.8 8.330e+03 1.649e-10
 86.74522    102.6 8.444e+03 1.835e-10
 86.78437    103.3 8.722e+03 2.282e-10
 86.82351    104.0 9.087e+03 2.982e-10
 86.86265    104.2 9.460e+03 3.860e-10
 86.89191    104.2 9.603e+03 4.301e-10
 86.91139    104.2 9.834e+03 5.125e-10
 86.93096    104.0 1.013e+04 6.440e-10
 86.95053    103.9 1.047e+04 8.054e-10
 86.97010    103.6 1.086e+04 9.938e-10
 86.98968    103.0 1.130e+04 1.211e-09
 87.00925    102.0 1.177e+04 1.447e-09
 87.02882    100.4 1.223e+04 1.676e-09
 87.04839     98.6 1.262e+04 1.873e-09
 87.06796     96.6 1.289e+04 1.986e-09
 87.08754     94.4 1.295e+04 1.963e-09
 87.10711     91.9 1.294e+04 1.787e-09
 87.12668     88.9 1.275e+04 1.433e-09
 87.14625     85.3 1.233e+04 1.109e-09
 87.16582     81.2 1.167e+04 9.703e-10
 87.18540     78.2 1.153e+04 9.849e-10
 87.20497     74.3 1.210e+04 1.190e-09
 87.22454     66.1 1.517e+04 2.566e-09
 87.24411     58.9 1.766e+04 7.120e-09
 87.25682     54.7 1.756e+04 9.976e-09
 87.26660     54.2 1.740e+04 9.579e-09
 87.28325     52.1 1.684e+04 8.480e-09
 87.29443     50.6 1.584e+04 4.952e-09
 87.30422     49.4 1.579e+04 3.986e-09
 87.32240     44.1 1.467e+04 1.126e-09
 87.34197     35.6 1.145e+04 4.088e-10
 87.37143     32.9 9.738e+03 2.821e-10
 87.41067     32.8 9.312e+03 2.216e-10
 87.44981     33.2 9.033e+03 1.761e-10
 87.48895     33.8 8.751e+03 1.318e-10
 87.52810     34.5 8.509e+03 9.530e-11
 87.56724     35.1 8.343e+03 7.681e-11
 87.60639     36.1 8.364e+03 7.737e-11
 87.64553     36.6 8.539e+03 8.842e-11
 87.68467     36.5 8.899e+03 1.428e-10
 87.72382     36.6 9.603e+03 3.130e-10
 87.76296     37.2 1.080e+04 7.124e-10
 87.79222     37.3 1.126e+04 9.863e-10
 87.81170     37.2 1.163e+04 1.229e-09
 87.83127     37.2 1.184e+04 1.418e-09
 87.85084     37.1 1.198e+04 1.528e-09
 87.87041     36.5 1.212e+04 1.610e-09
 87.88998     36.0 1.219e+04 1.696e-09
 87.90956     35.6 1.232e+04 1.819e-09
 87.92913     35.0 1.323e+04 2.332e-09
 87.94376     34.1 1.423e+04 2.680e-09
 87.95349     33.0 1.572e+04 3.072e-09
 87.96328     28.4 1.988e+04 5.651e-09
 87.97307     25.7 2.141e+04 9.595e-09
 87.98285     24.8 2.133e+04 1.392e-08
 87.99264     25.0 2.074e+04 1.796e-08
 88.00242     25.4 2.032e+04 2.055e-08
 88.01221     25.5 2.024e+04 2.120e-08
 88.02200     25.6 1.967e+04 1.920e-08
 88.03178     25.2 1.946e+04 1.831e-08
 88.04651     25.2 1.913e+04 1.602e-08
 88.06613     24.2 1.905e+04 1.121e-08
 88.08570     20.4 1.935e+04 7.750e-09
 88.10527     12.4 1.915e+04 7.912e-09
 88.12005      6.0 1.718e+04 9.814e-09
 88.12983      6.0 1.696e+04 7.747e-09
 88.14168      6.4 1.758e+04 1.405e-08
 88.15147      6.7 1.714e+04 1.447e-08
 88.16399      7.3 1.781e+04 1.961e-08
 88.18356      8.1 1.754e+04 1.705e-08
 88.20313      8.3 1.727e+04 1.035e-08
 88.22271      6.2 1.660e+04 5.363e-09
 88.24228      1.3 1.370e+04 2.329e-09
 88.26185     -2.4 1.105e+04 1.230e-09
 88.28142     -2.2 1.052e+04 9.795e-10
 88.30099     -1.8 1.037e+04 7.584e-10
 88.32057     -1.5 1.008e+04 6.538e-10
 88.34014     -1.1 9.945e+03 5.123e-10
 88.35971     -0.9 9.773e+03 4.782e-10
 88.38916      0.1 9.626e+03 4.347e-10
 88.42841      1.6 9.463e+03 3.967e-10
 88.46755      3.5 9.496e+03 3.861e-10
 88.50669      5.6 9.572e+03 3.664e-10
 88.54584      7.9 9.597e+03 3.326e-10
 88.58498      9.9 9.650e+03 2.925e-10
 88.62413     11.5 9.634e+03 2.588e-10
 88.66327     13.1 9.571e+03 2.564e-10
 88.70241     13.8 9.716e+03 2.922e-10
 88.74156     13.6 1.024e+04 4.535e-10
 88.78070     13.0 1.139e+04 1.005e-09
 88.80996     13.2 1.212e+04 1.682e-09
 88.82943     13.5 1.224e+04 1.816e-09
 88.85889     14.5 1.216e+04 1.649e-09
 88.89813     16.0 1.174e+04 9.797e-10
 88.93607     16.0 1.120e+04 4.388e-10
 88.95564     15.1 1.026e+04 2.810e-10
 88.97642     15.0 9.634e+03 1.474e-10
 89.01556     15.4 9.118e+03 1.103e-10
 89.03653     17.1 8.913e+03 1.092e-10
 89.05611     17.5 8.823e+03 9.050e-11
 89.09385     19.6 8.796e+03 9.345e-11
 89.13299     22.0 8.790e+03 1.008e-10
 89.17214     24.3 8.843e+03 1.099e-10
 89.21128     26.6 8.940e+03 1.219e-10
 89.25043     28.7 9.071e+03 1.428e-10
 89.28957     30.7 9.255e+03 1.818e-10
 89.32871     32.5 9.420e+03 2.385e-10
 89.36786     35.0 9.821e+03 3.412e-10
 89.39712     35.2 1.037e+04 4.673e-10
 89.41659     35.5 1.082e+04 5.760e-10
 89.43616     35.2 1.138e+04 7.476e-10
 89.45574     34.0 1.226e+04 1.103e-09
 89.47388     33.3 1.314e+04 1.744e-09
 89.48367     33.1 1.344e+04 2.159e-09
 89.49488     33.6 1.391e+04 3.197e-09
 89.51445     34.4 1.387e+04 3.206e-09
 89.53402     35.4 1.355e+04 2.668e-09
 89.55360     35.4 1.309e+04 1.654e-09
 89.57317     33.9 1.252e+04 8.747e-10
 89.59274     30.2 1.144e+04 5.792e-10
 89.61231     28.1 1.051e+04 5.411e-10
 89.63188     27.5 1.056e+04 5.834e-10
 89.65145     26.6 1.108e+04 7.583e-10
 89.67103     24.3 1.217e+04 1.256e-09
 89.69060     21.8 1.325e+04 2.398e-09
 89.71017     22.4 1.372e+04 3.815e-09
 89.72974     23.5 1.370e+04 4.124e-09
 89.74931     25.2 1.349e+04 3.767e-09
 89.76889     26.3 1.306e+04 2.772e-09
 89.78116     25.0 1.178e+04 1.010e-09
 89.79095     26.3 1.290e+04 2.321e-09
 89.80803     25.5 1.221e+04 1.291e-09
 89.83749     22.0 1.093e+04 6.375e-10
 89.86684     21.0 9.830e+03 4.006e-10
 89.88632     20.7 9.643e+03 3.727e-10
 89.91152     21.3 9.413e+03 3.421e-10
 89.93119     21.8 9.284e+03 3.230e-10
 89.95501     22.9 9.084e+03 2.703e-10
 89.99416     24.0 9.225e+03 2.655e-10
 90.02342     24.4 9.323e+03 2.690e-10
 90.04289     24.1 9.554e+03 2.849e-10
 90.06246     23.6 9.864e+03 3.378e-10
 90.08204     23.0 1.020e+04 4.432e-10
 90.10161     22.5 1.059e+04 6.262e-10
 90.12118     21.9 1.113e+04 8.947e-10
 90.14075     21.0 1.201e+04 1.316e-09
 90.16032     19.4 1.318e+04 2.037e-09
 90.17990     18.1 1.403e+04 2.928e-09
 90.19387     17.2 1.434e+04 3.559e-09
 90.20366     16.1 1.537e+04 4.817e-09
 90.21904     16.3 1.498e+04 4.458e-09
 90.23861     15.9 1.439e+04 3.626e-09
 90.25818     14.8 1.355e+04 2.643e-09
 90.27776     13.5 1.253e+04 1.826e-09
 90.30721     13.7 1.164e+04 1.241e-09
 90.34645     13.2 1.064e+04 7.797e-10
 90.38560     12.8 1.057e+04 6.247e-10
 90.42474     12.1 1.083e+04 6.830e-10
 90.46388     11.0 1.139e+04 9.742e-10
 90.50303     11.6 1.165e+04 1.363e-09
 90.54217     14.0 1.113e+04 1.188e-09
 90.58132     16.0 1.056e+04 7.431e-10
 90.60688     16.6 1.041e+04 5.233e-10
 90.62645     16.0 1.059e+04 5.276e-10
 90.65960     16.7 1.041e+04 4.949e-10
 90.69875     18.3 1.073e+04 6.076e-10
 90.72801     19.6 1.080e+04 7.440e-10
 90.74748     20.7 1.116e+04 8.934e-10
 90.76705     20.6 1.198e+04 1.159e-09
 90.78663     19.5 1.386e+04 1.777e-09
 90.80608     17.9 1.581e+04 2.851e-09
 90.81586     17.6 1.685e+04 5.635e-09
 90.82577     17.9 1.764e+04 8.356e-09
 90.84534     17.8 1.761e+04 9.385e-09
 90.86491     17.1 1.734e+04 9.402e-09
 90.88448     15.4 1.697e+04 8.726e-09
 90.90406     13.1 1.632e+04 8.858e-09
 90.92363     11.8 1.621e+04 1.009e-08
 90.94320     12.3 1.654e+04 1.223e-08
 90.96277     13.5 1.714e+04 1.218e-08
 90.98234     14.0 1.788e+04 9.153e-09
 91.00192     12.8 1.915e+04 5.458e-09
 91.01949      9.9 1.882e+04 2.866e-09
 91.02927     11.2 1.974e+04 1.346e-08
 91.04106      9.5 1.820e+04 7.466e-09
 91.06063      8.2 1.554e+04 4.015e-09
 91.08020      7.0 1.301e+04 2.295e-09
 91.09978      6.4 1.157e+04 1.509e-09
 91.11935      5.8 1.129e+04 1.118e-09
 91.13892      5.5 1.115e+04 9.156e-10
 91.15849      4.9 1.112e+04 8.630e-10
 91.17806      5.1 1.102e+04 7.876e-10
 91.20752      5.9 1.095e+04 7.890e-10
 91.23688      4.7 1.124e+04 6.980e-10
 91.25340      4.1 1.203e+04 7.364e-10
 91.26319      3.2 1.347e+04 1.200e-09
 91.27592      2.8 1.455e+04 1.635e-09
 91.29549      3.0 1.481e+04 2.248e-09
 91.31507      2.7 1.534e+04 3.085e-09
 91.33464      1.2 1.633e+04 4.482e-09
 91.35421     -0.7 1.686e+04 6.392e-09
 91.37378     -1.9 1.667e+04 8.110e-09
 91.39335     -1.9 1.645e+04 9.998e-09
 91.41293     -1.9 1.688e+04 1.029e-08
 91.43230     -3.3 1.810e+04 9.849e-09
 91.44208     -4.4 1.738e+04 5.341e-09
 91.45207     -9.8 1.717e+04 3.781e-09
 91.47164    -16.2 1.418e+04 2.487e-09
 91.49121    -20.9 1.192e+04 1.745e-09
 91.51079    -23.2 1.130e+04 1.461e-09
 91.53036    -25.5 1.100e+04 1.188e-09
 91.54993    -28.6 1.058e+04 9.048e-10
 91.56950    -32.0 9.948e+03 6.964e-10
 91.58907    -34.3 9.551e+03 6.069e-10
 91.60865    -35.6 9.417e+03 5.786e-10
 91.62822    -36.4 9.395e+03 5.617e-10
 91.64779    -37.2 9.393e+03 5.371e-10
 91.66736    -38.1 9.422e+03 5.193e-10
 91.68693    -39.0 9.473e+03 5.175e-10
 91.70073    -40.4 9.757e+03 5.380e-10
 91.71052    -39.1 9.577e+03 5.174e-10
 91.72608    -40.7 1.015e+04 6.090e-10
 91.74565    -43.0 1.098e+04 8.452e-10
 91.76522    -45.5 1.191e+04 1.313e-09
 91.78479    -47.6 1.282e+04 2.075e-09
 91.80436    -49.0 1.369e+04 3.086e-09
 91.82394    -49.9 1.443e+04 4.075e-09
 91.84351    -51.2 1.491e+04 4.567e-09
 91.85489    -53.5 1.503e+04 4.624e-09
 91.86468    -52.0 1.544e+04 5.420e-09
 91.88265    -54.9 1.496e+04 4.224e-09
 91.90222    -59.3 1.438e+04 3.302e-09
 91.92180    -63.8 1.416e+04 3.069e-09
 91.94137    -67.5 1.409e+04 3.071e-09
 91.96094    -70.3 1.391e+04 3.308e-09
 91.98051    -72.0 1.380e+04 3.419e-09
 92.00008    -72.7 1.337e+04 3.396e-09
 92.01966    -73.1 1.273e+04 2.685e-09
 92.03923    -73.5 1.192e+04 1.760e-09
 92.05880    -74.2 1.101e+04 1.030e-09
 92.07837    -75.4 1.006e+04 5.802e-10
 92.09794    -76.7 9.252e+03 3.559e-10
 92.11751    -77.3 8.836e+03 2.664e-10
 92.14697    -77.5 8.598e+03 2.141e-10
 92.18621    -76.6 8.035e+03 1.377e-10
 92.22536    -75.2 7.722e+03 9.966e-11
 92.25811    -73.9 7.668e+03 8.759e-11
 92.27768    -73.7 7.735e+03 8.835e-11
 92.30364    -72.2 7.726e+03 8.632e-11
 92.34279    -71.0 7.786e+03 8.960e-11
 92.38193    -69.9 8.063e+03 1.213e-10
 92.42107    -68.6 8.393e+03 1.797e-10
 92.46022    -67.0 8.710e+03 2.509e-10
 92.49936    -65.4 8.971e+03 3.145e-10
 92.53851    -64.1 9.166e+03 3.538e-10
 92.57601    -63.0 9.307e+03 3.756e-10
 92.59558    -63.8 9.697e+03 5.006e-10
 92.61679    -63.0 9.987e+03 5.981e-10
 92.65594    -62.3 1.022e+04 6.969e-10
 92.69508    -61.7 1.035e+04 7.704e-10
 92.73422    -61.1 1.037e+04 7.900e-10
 92.77337    -60.8 1.023e+04 7.096e-10
 92.81251    -60.6 9.990e+03 5.560e-10
 92.85166    -61.0 9.759e+03 4.323e-10
 92.88092    -61.3 9.722e+03 4.116e-10
 92.90039    -61.3 9.727e+03 4.111e-10
 92.91996    -61.3 9.682e+03 4.127e-10
 92.93953    -61.2 9.726e+03 4.505e-10
 92.95911    -60.8 9.807e+03 4.920e-10
 92.97868    -60.4 9.949e+03 5.308e-10
 92.99825    -60.1 1.008e+04 5.583e-10
 93.01782    -60.0 1.019e+04 5.749e-10
 93.03293    -59.9 1.032e+04 5.823e-10
 93.04271    -59.6 1.051e+04 6.683e-10
 93.05697    -59.7 1.072e+04 7.030e-10
 93.07654    -60.2 1.093e+04 7.665e-10
 93.09331    -61.2 1.114e+04 8.876e-10
 93.10310    -61.3 1.171e+04 1.331e-09
 93.11568    -62.2 1.192e+04 1.443e-09
 93.13525    -63.7 1.235e+04 1.694e-09
 93.15483    -65.9 1.346e+04 2.157e-09
 93.17440    -68.9 1.521e+04 2.969e-09
 93.19397    -72.9 1.680e+04 4.181e-09
 93.21354    -77.4 1.769e+04 5.812e-09
 93.23311    -81.9 1.786e+04 7.608e-09
 93.25268    -85.8 1.773e+04 9.224e-09
 93.27226    -89.0 1.760e+04 1.037e-08
 93.29183    -91.9 1.755e+04 1.079e-08
 93.31140    -94.8 1.753e+04 1.087e-08
 93.33097    -97.9 1.756e+04 1.106e-08
 93.35054   -101.1 1.754e+04 1.220e-08
 93.37012   -103.5 1.775e+04 1.487e-08
 93.38969   -104.6 1.827e+04 1.872e-08
 93.40926   -105.4 1.860e+04 2.053e-08
 93.42883   -106.5 1.860e+04 1.967e-08
 93.44346   -107.4 1.752e+04 1.279e-08
 93.45320   -108.2 1.733e+04 1.079e-08
 93.46299   -109.9 1.708e+04 8.490e-09
 93.47277   -111.9 1.713e+04 7.363e-09
 93.48016   -114.7 1.726e+04 6.590e-09
 93.48999   -115.6 1.626e+04 5.310e-09
 93.50612   -121.0 1.637e+04 5.060e-09
 93.51591   -121.3 1.663e+04 5.109e-09
 93.52669   -126.7 1.720e+04 5.735e-09
 93.54626   -131.7 1.705e+04 6.634e-09
 93.56584   -135.9 1.688e+04 6.904e-09
 93.58541   -139.2 1.603e+04 6.875e-09
 93.60498   -141.6 1.486e+04 5.443e-09
 93.62455   -143.5 1.361e+04 3.480e-09
 93.64412   -145.4 1.224e+04 1.969e-09
 93.66369   -147.5 1.096e+04 1.109e-09
 93.68327   -149.4 1.001e+04 6.753e-10
 93.70284   -150.8 9.418e+03 4.619e-10
 93.72241   -151.5 9.102e+03 3.619e-10
 93.75187   -151.9 8.937e+03 3.118e-10
 93.79111   -152.3 8.807e+03 2.792e-10
 93.83025   -152.5 8.722e+03 2.590e-10
 93.86940   -152.7 8.725e+03 2.565e-10
 93.90854   -153.2 8.940e+03 2.676e-10
 93.92891   -154.1 9.567e+03 3.617e-10
 93.94848   -156.3 1.083e+04 7.337e-10
 93.98683   -156.5 1.121e+04 1.087e-09
 94.02597   -156.5 1.125e+04 1.187e-09
 94.06511   -156.2 1.094e+04 1.113e-09
 94.09437   -155.3 1.042e+04 8.805e-10
 94.11385   -154.9 1.019e+04 7.613e-10
 94.13342   -154.5 9.930e+03 6.352e-10
 94.15299   -154.1 9.675e+03 5.173e-10
 94.18245   -153.9 9.373e+03 3.993e-10
 94.22169   -153.6 9.144e+03 3.293e-10
 94.26083   -152.5 8.879e+03 2.651e-10
 94.29998   -151.1 8.795e+03 2.413e-10
 94.33912   -149.7 8.794e+03 2.385e-10
 94.36532   -148.6 8.944e+03 2.474e-10
 94.38489   -148.0 9.211e+03 2.665e-10
 94.41741   -147.5 9.548e+03 3.221e-10
 94.45655   -147.4 9.922e+03 4.073e-10
 94.49570   -147.7 1.056e+04 5.632e-10
 94.53484   -148.7 1.138e+04 8.350e-10
 94.56410   -149.1 1.144e+04 9.023e-10
 94.58357   -149.7 1.174e+04 1.096e-09
 94.60315   -150.3 1.202e+04 1.325e-09
 94.62272   -150.7 1.227e+04 1.605e-09
 94.64229   -151.0 1.244e+04 1.839e-09
 94.66186   -151.1 1.247e+04 1.985e-09
 94.68143   -151.2 1.245e+04 2.016e-09
 94.70101   -151.3 1.237e+04 1.996e-09
 94.72058   -151.3 1.224e+04 1.923e-09
 94.74015   -151.3 1.208e+04 1.833e-09
 94.75433   -151.2 1.194e+04 1.734e-09
 94.76412   -151.3 1.202e+04 1.776e-09
 94.77929   -151.1 1.188e+04 1.667e-09
 94.79887   -150.8 1.175e+04 1.559e-09
 94.81245   -150.5 1.161e+04 1.451e-09
 94.82224   -150.4 1.163e+04 1.459e-09
 94.84789   -150.1 1.145e+04 1.298e-09
 94.88713   -148.9 1.095e+04 9.637e-10
 94.92628   -147.8 1.049e+04 7.067e-10
 94.96542   -146.5 1.006e+04 5.123e-10
 95.00457   -145.3 9.770e+03 3.982e-10
 95.04371   -144.1 9.596e+03 3.485e-10
 95.08285   -143.0 9.541e+03 3.392e-10
 95.12200   -142.0 9.531e+03 3.442e-10
 95.16114   -141.3 9.618e+03 3.849e-10
 95.20028   -140.8 9.770e+03 4.399e-10
 95.23943   -140.4 9.887e+03 4.794e-10
 95.25997   -140.2 9.992e+03 5.095e-10
 95.27955   -141.7 1.045e+04 7.820e-10
 95.31772   -141.5 1.022e+04 6.906e-10
 95.35686   -141.1 9.923e+03 5.563e-10
 95.39600   -140.7 9.682e+03 4.477e-10
 95.43515   -140.3 9.575e+03 3.913e-10
 95.47429   -139.9 9.574e+03 3.720e-10
 95.51343   -139.3 9.593e+03 3.700e-10
 95.55258   -138.7 9.735e+03 3.827e-10
 95.58014   -138.1 9.882e+03 3.873e-10
 95.59971   -138.2 9.637e+03 3.009e-10
 95.63087   -137.2 9.691e+03 2.877e-10
 95.67001   -136.0 9.737e+03 2.813e-10
 95.70915   -134.6 9.754e+03 2.809e-10
 95.74830   -133.3 9.862e+03 2.851e-10
 95.78744   -132.4 1.027e+04 3.516e-10
 95.82659   -131.6 1.078e+04 5.161e-10
 95.86573   -130.8 1.133e+04 7.560e-10
 95.90487   -130.1 1.180e+04 1.001e-09
 95.94402   -129.2 1.215e+04 1.167e-09
 95.97328   -128.3 1.248e+04 1.290e-09
 95.99275   -128.1 1.277e+04 1.374e-09
 96.01232   -127.0 1.188e+04 1.106e-09
 96.03190   -127.1 1.292e+04 1.307e-09
 96.05147   -128.1 1.452e+04 1.771e-09
 96.07104   -129.5 1.592e+04 2.816e-09
 96.09061   -130.6 1.650e+04 4.781e-09
 96.11018   -130.8 1.668e+04 7.739e-09
 96.12975   -130.7 1.693e+04 1.098e-08
 96.14465   -130.5 1.702e+04 1.307e-08
 96.15443   -130.8 1.766e+04 1.636e-08
 96.16890   -130.5 1.773e+04 1.899e-08
 96.18847   -130.0 1.768e+04 1.945e-08
 96.20804   -129.1 1.751e+04 1.691e-08
 96.22761   -128.3 1.758e+04 1.217e-08
 96.24719   -128.0 1.786e+04 7.532e-09
 96.26676   -128.1 1.829e+04 4.226e-09
 96.28633   -128.9 1.850e+04 2.494e-09
 96.30590   -129.7 1.771e+04 1.608e-09
 96.32547   -130.2 1.623e+04 1.180e-09
 96.34505   -130.3 1.489e+04 1.000e-09
 96.36462   -130.4 1.417e+04 9.676e-10
 96.38419   -130.5 1.393e+04 9.919e-10
 96.40376   -131.3 1.387e+04 1.303e-09
 96.41535   -132.9 1.449e+04 1.861e-09
 96.42513   -129.4 1.604e+04 2.814e-09
 96.44290   -131.2 1.661e+04 3.489e-09
 96.46248   -133.2 1.677e+04 4.415e-09
 96.48205   -135.0 1.649e+04 5.261e-09
 96.50162   -136.7 1.629e+04 5.564e-09
 96.52119   -138.2 1.603e+04 5.604e-09
 96.54076   -139.7 1.513e+04 4.828e-09
 96.56034   -141.5 1.414e+04 3.338e-09
 96.57991   -143.9 1.306e+04 2.100e-09
 96.59198   -146.3 1.213e+04 1.412e-09
 96.60176   -145.2 1.250e+04 1.619e-09
 96.61905   -147.0 1.174e+04 1.180e-09
 96.63862   -148.1 1.163e+04 1.069e-09
 96.65820   -148.8 1.176e+04 1.058e-09
 96.67777   -149.9 1.262e+04 1.233e-09
 96.69734   -150.9 1.348e+04 1.758e-09
 96.71691   -151.3 1.416e+04 2.692e-09
 96.73648   -151.4 1.469e+04 3.995e-09
 96.75606   -151.1 1.517e+04 5.424e-09
 96.77563   -151.0 1.560e+04 6.653e-09
 96.79520   -151.1 1.585e+04 7.388e-09
 96.81477   -152.0 1.590e+04 7.587e-09
 96.82816   -153.4 1.586e+04 7.561e-09
 96.83300   -152.4 1.574e+04 7.650e-09
 96.83914   -153.2 1.571e+04 7.765e-09
 96.84892   -154.4 1.583e+04 7.907e-09
 96.85871   -155.8 1.613e+04 8.036e-09
 96.86850   -157.8 1.653e+04 8.171e-09
 96.87828   -159.9 1.706e+04 8.544e-09
 96.88807   -162.7 1.831e+04 9.282e-09
 96.89785   -165.8 2.132e+04 1.086e-08
 96.90764   -169.5 2.555e+04 1.366e-08
 96.91743   -172.3 2.870e+04 1.823e-08
 96.92721   -174.3 2.961e+04 2.375e-08
 96.93700   -175.1 2.883e+04 2.867e-08
 96.94678   -175.5 2.821e+04 3.035e-08
 96.95657   -175.5 2.732e+04 3.115e-08
 96.96636   -175.3 2.639e+04 3.070e-08
 96.97614   -175.2 2.567e+04 2.875e-08
 96.98593   -175.3 2.485e+04 2.635e-08
 96.99571   -175.4 2.401e+04 2.378e-08
 97.00550   -175.4 2.311e+04 2.125e-08
 97.01529   -175.5 2.233e+04 1.901e-08
 97.02507   -175.5 2.151e+04 1.678e-08
 97.03431   -175.6 2.084e+04 1.468e-08
 97.03881   -176.4 2.052e+04 1.515e-08
 97.03936   -176.8 1.978e+04 1.501e-08
 97.04464   -176.8 1.916e+04 1.229e-08
 97.05443   -176.7 1.855e+04 1.015e-08
 97.06422   -176.7 1.794e+04 8.455e-09
 97.07400   -176.8 1.733e+04 7.131e-09
 97.08379   -177.1 1.678e+04 6.132e-09
 97.09357   -177.3 1.642e+04 5.487e-09
 97.10830   -177.4 1.613e+04 4.944e-09
 97.12792   -177.5 1.538e+04 3.970e-09
 97.14749   -177.6 1.456e+04 3.131e-09
 97.16707   -178.1 1.419e+04 2.784e-09
 97.18664   -178.9 1.413e+04 2.715e-09
 97.20621   -180.2 1.457e+04 2.836e-09
 97.22578   -182.0 1.590e+04 3.983e-09
 97.24096   -183.3 1.700e+04 6.019e-09
 97.25075   -184.6 1.695e+04 5.324e-09
 97.26492   -184.7 1.724e+04 7.146e-09
 97.28450   -184.3 1.713e+04 8.138e-09
 97.30407   -183.4 1.703e+04 8.301e-09
 97.32364   -182.3 1.630e+04 7.974e-09
 97.34321   -181.4 1.549e+04 6.291e-09
 97.36278   -180.5 1.456e+04 4.383e-09
 97.38236   -179.7 1.350e+04 2.739e-09
 97.40193   -179.2 1.245e+04 1.585e-09
 97.42150   -179.0 1.156e+04 9.215e-10
 97.44107   -179.0 1.101e+04 5.828e-10
 97.46064   -178.7 1.063e+04 4.074e-10
 97.47684   -178.2 1.025e+04 3.128e-10
 97.48663   -177.7 1.045e+04 4.342e-10
 97.49979   -177.3 1.015e+04 3.359e-10
 97.51936   -176.4 9.988e+03 2.863e-10
 97.54882   -175.8 9.925e+03 2.609e-10
 97.58806   -174.9 9.773e+03 2.346e-10
 97.62720   -173.2 9.494e+03 2.007e-10
 97.66634   -171.5 9.233e+03 1.749e-10
 97.70549   -169.7 9.014e+03 1.550e-10
 97.74463   -168.0 8.834e+03 1.382e-10
 97.78378   -166.2 8.680e+03 1.241e-10
 97.82292   -164.4 8.560e+03 1.139e-10
 97.86206   -162.7 8.485e+03 1.084e-10
 97.90121   -161.0 8.457e+03 1.068e-10
 97.92437   -159.4 8.449e+03 1.067e-10
 97.94394   -159.6 8.485e+03 1.209e-10
 97.97949   -158.1 8.501e+03 1.254e-10
 98.01864   -156.7 8.517e+03 1.302e-10
 98.05699   -155.3 8.542e+03 1.340e-10
 98.07656   -155.5 8.615e+03 1.032e-10
 98.09693   -154.5 8.664e+03 1.076e-10
 98.13607   -153.7 8.722e+03 1.210e-10
 98.17521   -153.1 8.822e+03 1.492e-10
 98.21436   -152.7 8.993e+03 1.977e-10
 98.25350   -152.4 9.260e+03 2.706e-10
 98.29265   -152.2 9.607e+03 3.656e-10
 98.33179   -152.2 9.946e+03 4.650e-10
 98.37093   -152.1 1.017e+04 5.359e-10
 98.41008   -152.1 1.023e+04 5.583e-10
 98.44922   -151.8 1.023e+04 5.603e-10
 98.48836   -151.1 1.020e+04 5.493e-10
 98.52751   -150.2 1.020e+04 5.481e-10
 98.56665   -149.6 1.051e+04 5.954e-10
 98.60580   -149.2 1.109e+04 7.267e-10
 98.64494   -148.9 1.154e+04 8.932e-10
 98.68408   -148.6 1.171e+04 1.032e-09
 98.72323   -148.0 1.168e+04 1.093e-09
 98.76237   -147.4 1.160e+04 1.103e-09
 98.79945   -146.6 1.136e+04 1.050e-09
 98.81902   -143.9 1.123e+04 8.674e-10
 98.84066   -143.6 1.115e+04 8.570e-10
 98.87980   -143.4 1.107e+04 7.966e-10
 98.90218   -143.3 1.103e+04 7.345e-10
 98.92175   -144.8 1.116e+04 8.382e-10
 98.95809   -145.7 1.125e+04 8.578e-10
 98.99723   -147.5 1.152e+04 9.780e-10
 99.03638   -149.7 1.174e+04 1.112e-09
 99.07552   -152.0 1.180e+04 1.157e-09
 99.11466   -154.1 1.173e+04 1.132e-09
 99.15381   -156.0 1.159e+04 9.915e-10
 99.19295   -158.0 1.155e+04 8.839e-10
 99.23210   -160.1 1.156e+04 8.615e-10
 99.27124   -161.7 1.170e+04 8.903e-10
 99.31038   -162.9 1.185e+04 9.622e-10
 99.33964   -163.4 1.197e+04 1.061e-09
 99.35912   -163.6 1.200e+04 1.083e-09
 99.37869   -163.9 1.197e+04 1.080e-09
 99.39826   -164.0 1.186e+04 1.036e-09
 99.41783   -164.0 1.170e+04 9.679e-10
 99.43741   -164.0 1.152e+04 8.919e-10
 99.45698   -164.0 1.135e+04 8.223e-10
 99.47655   -164.1 1.120e+04 7.635e-10
 99.49612   -164.1 1.109e+04 7.170e-10
 99.51569   -164.1 1.099e+04 6.781e-10
 99.53527   -164.1 1.088e+04 6.454e-10
 99.55484   -164.0 1.078e+04 6.165e-10
 99.57441   -163.9 1.065e+04 5.863e-10
 99.59398   -163.6 1.049e+04 5.476e-10
 99.61355   -163.2 1.031e+04 4.985e-10
 99.63313   -162.6 1.018e+04 4.582e-10
 99.66258   -162.3 1.011e+04 4.281e-10
 99.69411   -161.8 9.916e+03 3.872e-10
 99.71368   -160.8 1.001e+04 4.348e-10
 99.72779   -160.3 9.819e+03 3.763e-10
 99.74736   -161.4 9.626e+03 3.442e-10
 99.78011   -160.5 9.320e+03 2.808e-10
 99.81925   -159.4 9.085e+03 2.386e-10
 99.85840   -158.3 9.012e+03 2.218e-10
 99.89754   -157.4 9.012e+03 2.187e-10
 99.93668   -156.9 9.088e+03 2.332e-10
 99.97583   -156.8 9.717e+03 3.649e-10
100.01497   -156.7 1.050e+04 6.307e-10
