# Columns:
#   distance along LOS (in CHIMPs)
#   peculiar velocity  (in km/s)
#   temperature (K)
#   HI number density
# pos=(136.816,195.221,26.7783), angles=(1.64154,3.17861)
  0.00528     29.3 1.594e+04 3.297e-09
  0.02036     29.6 1.533e+04 2.721e-09
  0.03995     30.2 1.494e+04 2.227e-09
  0.05628     31.0 1.453e+04 1.849e-09
  0.06608     29.0 1.391e+04 1.565e-09
  0.07914     30.1 1.348e+04 1.357e-09
  0.09873     31.7 1.306e+04 1.175e-09
  0.11832     33.0 1.278e+04 1.061e-09
  0.13792     34.7 1.249e+04 9.179e-10
  0.15751     36.0 1.237e+04 8.312e-10
  0.17711     37.8 1.215e+04 7.196e-10
  0.19670     38.9 1.211e+04 6.702e-10
  0.22619     40.6 1.172e+04 5.394e-10
  0.26547     43.2 1.120e+04 3.658e-10
  0.30466     45.6 1.103e+04 2.535e-10
  0.34385     47.6 1.079e+04 1.761e-10
  0.38303     48.8 1.043e+04 1.532e-10
  0.42222     50.0 1.030e+04 1.742e-10
  0.46141     51.4 1.072e+04 3.061e-10
  0.49070     51.8 1.218e+04 6.348e-10
  0.51020     52.6 1.250e+04 8.373e-10
  0.52979     54.8 1.310e+04 9.750e-10
  0.54938     56.0 1.354e+04 1.224e-09
  0.56898     58.0 1.367e+04 1.248e-09
  0.58857     59.5 1.382e+04 1.353e-09
  0.60691     61.2 1.384e+04 1.419e-09
  0.62660     63.7 1.127e+04 7.117e-10
  0.64745     64.8 1.182e+04 8.216e-10
  0.66695     65.8 1.183e+04 8.168e-10
  0.68654     66.9 1.175e+04 7.870e-10
  0.70613     67.8 1.157e+04 7.503e-10
  0.72573     68.9 1.141e+04 7.226e-10
  0.74532     70.0 1.131e+04 7.140e-10
  0.76491     71.1 1.148e+04 7.065e-10
  0.78451     71.8 1.150e+04 7.057e-10
  0.81400     74.8 1.144e+04 6.225e-10
  0.85328     77.4 1.179e+04 7.012e-10
  0.89247     79.9 1.220e+04 8.667e-10
  0.92401     82.5 1.255e+04 1.096e-09
  0.94350     81.6 1.304e+04 1.625e-09
  0.96085     82.9 1.315e+04 1.777e-09
  0.98044     84.5 1.324e+04 1.899e-09
  1.00004     85.7 1.330e+04 1.994e-09
  1.01963     87.3 1.329e+04 1.988e-09
  1.04912     88.6 1.348e+04 2.155e-09
  1.08841     90.9 1.328e+04 1.841e-09
  1.12759     93.1 1.291e+04 1.546e-09
  1.15773     95.1 1.266e+04 1.402e-09
  1.17732     96.3 1.209e+04 9.904e-10
  1.20597     98.0 1.218e+04 9.287e-10
  1.24515     98.9 1.244e+04 1.001e-09
  1.27445     99.3 1.272e+04 1.124e-09
  1.29394     99.5 1.299e+04 1.303e-09
  1.31354     99.9 1.323e+04 1.476e-09
  1.33313    100.1 1.358e+04 1.913e-09
  1.35272    100.6 1.388e+04 2.314e-09
  1.37232    100.9 1.413e+04 2.682e-09
  1.39191    101.3 1.425e+04 2.918e-09
  1.41150    101.7 1.436e+04 3.066e-09
  1.43110    102.0 1.434e+04 3.030e-09
  1.44264    102.2 1.411e+04 2.620e-09
  1.45244    103.4 1.423e+04 2.857e-09
  1.46264    103.5 1.395e+04 2.372e-09
  1.47244    100.7 1.289e+04 1.440e-09
  1.48988     99.8 1.201e+04 9.914e-10
  1.50947     98.7 1.099e+04 6.895e-10
  1.52907     97.7 1.024e+04 5.148e-10
  1.54866     97.0 9.911e+03 4.365e-10
  1.56825     96.7 9.792e+03 4.089e-10
  1.58785     96.6 9.760e+03 4.011e-10
  1.60744     96.5 9.767e+03 4.033e-10
  1.62704     96.4 9.817e+03 4.125e-10
  1.64663     96.1 9.901e+03 4.324e-10
  1.66622     95.8 1.002e+04 4.609e-10
  1.68582     95.5 1.016e+04 4.916e-10
  1.70541     94.8 1.034e+04 5.234e-10
  1.71796     93.6 1.058e+04 5.665e-10
  1.72776     95.7 1.049e+04 5.548e-10
  1.74460     94.0 1.083e+04 6.131e-10
  1.76419     91.8 1.125e+04 7.329e-10
  1.78378     89.5 1.168e+04 9.147e-10
  1.80338     87.2 1.209e+04 1.140e-09
  1.82297     84.5 1.274e+04 1.440e-09
  1.84257     80.2 1.414e+04 1.969e-09
  1.86216     74.3 1.584e+04 2.945e-09
  1.88175     68.5 1.626e+04 3.877e-09
  1.90135     63.7 1.603e+04 3.803e-09
  1.92094     60.6 1.500e+04 3.404e-09
  1.94053     58.0 1.416e+04 2.430e-09
  1.96013     54.0 1.370e+04 1.589e-09
  1.97972     48.0 1.319e+04 1.045e-09
  1.99167     42.0 1.194e+04 7.836e-10
  1.99543     42.4 1.180e+04 7.606e-10
  2.00307     46.6 1.238e+04 8.166e-10
  2.01891     41.8 1.111e+04 6.241e-10
  2.03850     39.4 1.026e+04 5.044e-10
  2.05810     38.3 9.969e+03 4.936e-10
  2.07769     35.2 1.163e+04 6.475e-10
  2.09728     29.3 1.398e+04 1.071e-09
  2.11193     25.3 1.440e+04 1.552e-09
  2.12168     22.8 1.640e+04 1.766e-09
  2.13083     11.3 2.413e+04 5.169e-09
  2.13573     12.9 2.348e+04 4.259e-09
  2.14127      2.2 2.737e+04 1.614e-08
  2.15107     -3.6 2.651e+04 4.327e-08
  2.16086     -6.9 2.623e+04 5.789e-08
  2.17066     -9.9 2.662e+04 4.933e-08
  2.18046    -13.2 2.834e+04 3.321e-08
  2.19025    -16.7 3.215e+04 1.624e-08
  2.20005    -23.2 3.457e+04 7.128e-09
  2.21480    -31.5 3.190e+04 3.930e-09
  2.23444    -47.6 1.892e+04 1.801e-09
  2.25403    -53.6 1.393e+04 1.605e-09
  2.26859    -55.1 1.353e+04 1.384e-09
  2.27838    -55.7 1.370e+04 1.393e-09
  2.29322    -57.1 1.337e+04 1.212e-09
  2.31281    -57.9 1.325e+04 1.116e-09
  2.33241    -58.4 1.321e+04 1.010e-09
  2.35200    -58.9 1.306e+04 9.226e-10
  2.37159    -59.2 1.292e+04 8.698e-10
  2.39119    -59.4 1.283e+04 8.504e-10
  2.41078    -59.4 1.278e+04 8.522e-10
  2.43037    -59.2 1.275e+04 8.608e-10
  2.44997    -59.0 1.271e+04 8.663e-10
  2.46956    -58.7 1.266e+04 8.681e-10
  2.48916    -58.2 1.256e+04 8.461e-10
  2.50875    -57.6 1.244e+04 7.922e-10
  2.52071    -57.2 1.237e+04 7.407e-10
  2.53050    -56.7 1.230e+04 7.487e-10
  2.54390    -56.2 1.222e+04 7.094e-10
  2.55370    -56.9 1.235e+04 7.672e-10
  2.56753    -56.5 1.227e+04 7.255e-10
  2.58712    -56.1 1.222e+04 7.044e-10
  2.60672    -55.6 1.215e+04 6.869e-10
  2.62631    -55.2 1.213e+04 6.848e-10
  2.64590    -54.8 1.209e+04 6.887e-10
  2.66550    -54.4 1.203e+04 6.645e-10
  2.69499    -54.0 1.184e+04 5.867e-10
  2.73427    -53.1 1.149e+04 5.242e-10
  2.77346    -52.6 1.120e+04 4.672e-10
  2.80961    -52.1 1.100e+04 4.125e-10
  2.82921    -52.9 1.082e+04 3.566e-10
  2.85183    -52.4 1.050e+04 2.836e-10
  2.89102    -51.7 1.019e+04 2.309e-10
  2.93021    -50.8 9.943e+03 1.987e-10
  2.96940    -49.6 9.784e+03 1.794e-10
  3.00858    -48.3 9.671e+03 1.670e-10
  3.04014    -46.9 9.587e+03 1.613e-10
  3.05973    -46.0 9.656e+03 1.690e-10
  3.08696    -44.5 9.595e+03 1.657e-10
  3.12614    -42.8 9.522e+03 1.686e-10
  3.16533    -41.1 9.564e+03 1.740e-10
  3.20452    -39.6 9.689e+03 1.853e-10
  3.24371    -38.3 9.919e+03 2.166e-10
  3.28289    -37.2 1.019e+04 2.829e-10
  3.32208    -36.0 1.055e+04 3.897e-10
  3.36024    -34.9 1.095e+04 5.291e-10
  3.37983    -34.4 1.083e+04 4.817e-10
  3.40046    -33.4 1.113e+04 5.989e-10
  3.43964    -32.5 1.132e+04 7.037e-10
  3.47883    -31.6 1.141e+04 7.770e-10
  3.51802    -30.7 1.143e+04 8.018e-10
  3.55720    -29.7 1.124e+04 7.345e-10
  3.59639    -28.6 1.080e+04 5.696e-10
  3.63558    -27.3 1.027e+04 4.002e-10
  3.67477    -25.8 9.743e+03 2.571e-10
  3.71395    -24.0 9.326e+03 1.664e-10
  3.75314    -21.9 9.064e+03 1.178e-10
  3.79233    -19.7 8.886e+03 9.092e-11
  3.83152    -17.5 8.776e+03 7.865e-11
  3.87070    -15.1 8.741e+03 7.551e-11
  3.90989    -12.9 8.806e+03 7.638e-11
  3.93046    -11.3 9.042e+03 9.156e-11
  3.95006     -9.3 9.032e+03 9.178e-11
  3.98827     -8.0 9.231e+03 1.373e-10
  4.02745     -6.7 9.651e+03 2.397e-10
  4.06664     -4.4 1.047e+04 4.324e-10
  4.09593     -3.8 1.034e+04 5.252e-10
  4.10780     -3.2 1.046e+04 5.586e-10
  4.11760     -3.3 1.036e+04 4.918e-10
  4.13502     -2.3 1.055e+04 5.537e-10
  4.15462     -1.8 1.061e+04 5.576e-10
  4.17421     -1.5 1.061e+04 5.536e-10
  4.19380     -1.1 1.049e+04 5.377e-10
  4.20558     -0.5 1.028e+04 4.959e-10
  4.21538      0.1 1.056e+04 6.115e-10
  4.23299      0.9 1.030e+04 5.521e-10
  4.26248      1.6 1.002e+04 4.125e-10
  4.30176      3.2 9.868e+03 3.277e-10
  4.34095      4.4 9.381e+03 2.374e-10
  4.38014      5.8 9.199e+03 1.919e-10
  4.41933      7.3 9.107e+03 1.702e-10
  4.45851      9.0 9.020e+03 1.557e-10
  4.48109     11.0 8.894e+03 1.512e-10
  4.50068     11.7 8.901e+03 1.524e-10
  4.53689     14.2 8.776e+03 1.429e-10
  4.57607     17.0 8.639e+03 1.174e-10
  4.61526     19.5 8.604e+03 8.672e-11
  4.65445     21.4 8.551e+03 7.000e-11
  4.69364     23.6 8.391e+03 6.768e-11
  4.73282     25.9 8.408e+03 7.195e-11
  4.77201     28.4 8.459e+03 8.594e-11
  4.81120     30.9 8.561e+03 1.081e-10
  4.85039     33.4 8.724e+03 1.367e-10
  4.88957     35.5 9.087e+03 1.825e-10
  4.92876     37.0 9.688e+03 2.545e-10
  4.95805     38.0 9.902e+03 3.116e-10
  4.97755     38.0 1.035e+04 4.464e-10
  4.99714     38.0 1.101e+04 6.930e-10
  5.01674     38.0 1.178e+04 1.086e-09
  5.03152     38.4 1.228e+04 1.568e-09
  5.04132     38.6 1.226e+04 1.468e-09
  5.05592     39.2 1.259e+04 1.964e-09
  5.07552     39.7 1.283e+04 2.273e-09
  5.09511     39.5 1.320e+04 2.502e-09
  5.11470     38.4 1.383e+04 2.838e-09
  5.13430     36.5 1.434e+04 3.236e-09
  5.15389     34.7 1.456e+04 3.435e-09
  5.16586     32.0 1.494e+04 3.673e-09
  5.17566     34.2 1.565e+04 5.171e-09
  5.19308     30.2 1.669e+04 5.700e-09
  5.21267     26.3 1.649e+04 5.977e-09
  5.23227     24.2 1.548e+04 5.200e-09
  5.25186     23.2 1.426e+04 3.482e-09
  5.27145     21.4 1.383e+04 2.075e-09
  5.29105     19.1 1.248e+04 1.097e-09
  5.32054     16.2 1.007e+04 4.260e-10
  5.35982     16.4 9.368e+03 3.035e-10
  5.39901     18.0 9.120e+03 2.533e-10
  5.43820     19.8 8.978e+03 2.314e-10
  5.47738     21.9 8.941e+03 2.334e-10
  5.51657     23.8 9.037e+03 2.540e-10
  5.55576     25.6 9.260e+03 3.020e-10
  5.58234     27.3 9.525e+03 3.593e-10
  5.60194     28.1 9.503e+03 3.391e-10
  5.62424     28.1 9.930e+03 4.969e-10
  5.64373     28.8 1.008e+04 6.067e-10
  5.66333     29.5 1.027e+04 7.413e-10
  5.68292     30.4 1.045e+04 8.319e-10
  5.69490     31.1 1.065e+04 8.527e-10
  5.70469     31.7 1.041e+04 7.668e-10
  5.72211     32.3 1.062e+04 8.191e-10
  5.74170     32.7 1.077e+04 8.240e-10
  5.76130     32.7 1.088e+04 8.335e-10
  5.78089     32.3 1.104e+04 8.706e-10
  5.80048     32.0 1.105e+04 8.928e-10
  5.82008     32.1 1.092e+04 8.736e-10
  5.83967     32.3 1.069e+04 8.038e-10
  5.85746     32.6 1.043e+04 6.809e-10
  5.86726     32.6 1.029e+04 6.518e-10
  5.87886     32.7 1.017e+04 5.600e-10
  5.90835     31.8 9.922e+03 4.071e-10
  5.94763     32.3 9.268e+03 2.882e-10
  5.98682     33.5 8.708e+03 1.968e-10
  6.02600     34.8 8.485e+03 1.320e-10
  6.06519     35.9 8.425e+03 1.006e-10
  6.10438     37.2 8.329e+03 9.152e-11
  6.13297     38.9 8.290e+03 8.989e-11
  6.15257     38.9 8.301e+03 9.040e-11
  6.18275     40.8 8.307e+03 9.202e-11
  6.21433     42.7 8.359e+03 9.826e-11
  6.23392     43.0 8.520e+03 1.175e-10
  6.26113     44.8 8.617e+03 1.334e-10
  6.30032     46.7 8.739e+03 1.644e-10
  6.33950     48.9 8.897e+03 2.065e-10
  6.37869     51.1 9.040e+03 2.456e-10
  6.41788     53.3 9.117e+03 2.682e-10
  6.45707     55.3 9.185e+03 2.681e-10
  6.49625     57.1 9.246e+03 2.727e-10
  6.53544     58.8 9.360e+03 2.908e-10
  6.57463     60.5 9.449e+03 3.058e-10
  6.61381     62.2 9.431e+03 3.022e-10
  6.65300     64.2 9.322e+03 2.802e-10
  6.68360     66.3 9.154e+03 2.372e-10
  6.70319     66.3 9.166e+03 2.501e-10
  6.73138     68.5 8.986e+03 1.925e-10
  6.77056     70.5 8.854e+03 1.556e-10
  6.80975     72.6 8.797e+03 1.427e-10
  6.84894     75.0 8.800e+03 1.416e-10
  6.88813     77.5 8.818e+03 1.457e-10
  6.92731     80.1 8.886e+03 1.544e-10
  6.96650     82.6 8.981e+03 1.639e-10
  7.00569     85.1 9.067e+03 1.751e-10
  7.04487     87.6 9.116e+03 1.869e-10
  7.08406     90.1 9.116e+03 1.959e-10
  7.12325     92.6 9.089e+03 2.006e-10
  7.16244     95.1 9.068e+03 1.987e-10
  7.20162     97.6 8.991e+03 1.899e-10
  7.23423    100.2 8.873e+03 1.684e-10
  7.25382    100.5 8.967e+03 1.782e-10
  7.27239    103.1 8.805e+03 1.449e-10
  7.29198    103.0 8.761e+03 1.398e-10
  7.31919    105.7 8.592e+03 1.091e-10
  7.35837    108.3 8.458e+03 8.476e-11
  7.39756    110.9 8.354e+03 6.801e-11
  7.43675    113.5 8.266e+03 5.810e-11
  7.47593    116.1 8.143e+03 5.412e-11
  7.51512    118.8 8.071e+03 5.386e-11
  7.55431    121.6 8.068e+03 5.390e-11
  7.59350    124.4 8.063e+03 5.443e-11
  7.63268    127.1 8.060e+03 5.645e-11
  7.67187    129.8 8.073e+03 6.037e-11
  7.71106    132.5 8.114e+03 6.665e-11
  7.75025    135.1 8.192e+03 7.651e-11
  7.78486    137.5 8.312e+03 9.199e-11
  7.80445    138.1 8.327e+03 9.769e-11
  7.82862    140.4 8.480e+03 1.204e-10
  7.86781    142.6 8.661e+03 1.524e-10
  7.90700    144.8 8.876e+03 1.947e-10
  7.94618    146.9 9.152e+03 2.504e-10
  7.98537    148.9 9.485e+03 3.225e-10
  8.02456    150.7 9.852e+03 4.100e-10
  8.06374    152.4 1.021e+04 5.046e-10
  8.10293    153.8 1.052e+04 5.897e-10
  8.14212    155.1 1.074e+04 6.541e-10
  8.18131    156.2 1.092e+04 7.005e-10
  8.22049    157.2 1.108e+04 7.344e-10
  8.25968    158.2 1.124e+04 7.645e-10
  8.29887    159.5 1.133e+04 7.863e-10
  8.32816    160.0 1.139e+04 8.229e-10
  8.34006    160.3 1.144e+04 8.645e-10
  8.34728    160.0 1.162e+04 9.682e-10
  8.35488    160.5 1.162e+04 9.621e-10
  8.36725    160.9 1.166e+04 1.024e-09
  8.38684    161.5 1.179e+04 1.124e-09
  8.40644    161.9 1.205e+04 1.279e-09
  8.42603    162.0 1.241e+04 1.501e-09
  8.44563    162.0 1.284e+04 1.813e-09
  8.46522    161.9 1.329e+04 2.225e-09
  8.48481    161.9 1.379e+04 2.759e-09
  8.50441    161.7 1.425e+04 3.245e-09
  8.52400    161.3 1.456e+04 3.336e-09
  8.54359    160.4 1.457e+04 3.301e-09
  8.56319    159.2 1.457e+04 3.076e-09
  8.58278    157.7 1.437e+04 2.600e-09
  8.60237    155.7 1.395e+04 2.034e-09
  8.62040    153.4 1.331e+04 1.524e-09
  8.63020    152.7 1.361e+04 1.688e-09
  8.64156    150.3 1.279e+04 1.246e-09
  8.66116    148.2 1.200e+04 9.517e-10
  8.68075    146.5 1.141e+04 7.753e-10
  8.70034    145.1 1.108e+04 6.762e-10
  8.71994    144.0 1.107e+04 6.392e-10
  8.73953    143.0 1.107e+04 6.380e-10
  8.75912    142.1 1.107e+04 6.379e-10
  8.77872    141.3 1.107e+04 6.402e-10
  8.79831    140.6 1.112e+04 6.518e-10
  8.81790    138.8 1.156e+04 7.268e-10
  8.83750    133.5 1.357e+04 1.135e-09
  8.85709    127.7 1.498e+04 1.950e-09
  8.86904    126.6 1.504e+04 2.163e-09
  8.87389    126.6 1.503e+04 2.003e-09
  8.88149    122.5 1.716e+04 2.927e-09
  8.89128    110.6 2.420e+04 8.340e-09
  8.90051     99.7 2.629e+04 3.050e-08
  8.90541     97.2 2.609e+04 3.819e-08
  8.91088     91.5 2.333e+04 5.860e-08
  8.92067     88.6 2.242e+04 5.637e-08
  8.93047     86.7 2.183e+04 4.313e-08
  8.94027     84.6 2.284e+04 2.426e-08
  8.95501     77.9 2.711e+04 6.487e-09
  8.97465     65.3 2.652e+04 1.094e-09
  8.99425     53.9 1.271e+04 8.245e-10
  9.01384     52.9 1.172e+04 8.555e-10
  9.03343     53.5 1.188e+04 9.322e-10
  9.05303     53.9 1.222e+04 1.084e-09
  9.07262     53.8 1.253e+04 1.294e-09
  9.09222     53.4 1.297e+04 1.589e-09
  9.11181     52.0 1.388e+04 2.118e-09
  9.13140     48.8 1.527e+04 3.217e-09
  9.15100     45.4 1.640e+04 5.140e-09
  9.17059     43.4 1.663e+04 6.640e-09
  9.18082     42.2 1.640e+04 6.318e-09
  9.19062     41.5 1.662e+04 7.053e-09
  9.20978     40.5 1.612e+04 5.462e-09
  9.22937     38.5 1.513e+04 2.931e-09
  9.24896     33.7 1.365e+04 1.455e-09
  9.26856     27.2 1.225e+04 8.064e-10
  9.28815     23.1 1.120e+04 5.686e-10
  9.30775     20.1 1.130e+04 5.503e-10
  9.32734     17.3 1.148e+04 5.645e-10
  9.35683     12.9 1.154e+04 7.806e-10
  9.38852      9.6 1.170e+04 8.982e-10
  9.40811     11.3 1.173e+04 1.033e-09
  9.43530      6.1 1.200e+04 7.191e-10
  9.45633      0.1 1.104e+04 6.586e-10
  9.47593      0.8 1.059e+04 4.950e-10
  9.51367     -2.5 1.068e+04 5.755e-10
  9.55286     -7.0 1.144e+04 7.228e-10
  9.58215    -12.5 1.200e+04 1.137e-09
  9.60165    -13.9 1.220e+04 1.543e-09
  9.62124    -14.7 1.225e+04 1.780e-09
  9.64084    -15.5 1.245e+04 1.858e-09
  9.66043    -17.1 1.263e+04 1.836e-09
  9.68003    -19.7 1.263e+04 1.618e-09
  9.69962    -22.8 1.240e+04 1.564e-09
  9.71921    -25.0 1.221e+04 1.610e-09
  9.73145    -26.2 1.229e+04 1.867e-09
  9.74125    -25.8 1.264e+04 2.089e-09
  9.75840    -26.2 1.283e+04 2.360e-09
  9.77799    -26.4 1.293e+04 2.460e-09
  9.79759    -26.7 1.277e+04 2.279e-09
  9.81718    -27.0 1.245e+04 1.966e-09
  9.83677    -27.4 1.194e+04 1.549e-09
  9.85637    -27.8 1.137e+04 1.145e-09
  9.87596    -28.3 1.081e+04 8.239e-10
  9.89556    -28.9 1.029e+04 6.022e-10
  9.91515    -29.4 9.815e+03 4.622e-10
  9.92715    -29.5 9.450e+03 3.827e-10
  9.93695    -28.7 9.676e+03 4.304e-10
  9.95434    -28.7 9.425e+03 3.723e-10
  9.97393    -28.4 9.265e+03 3.349e-10
  9.99352    -27.9 9.212e+03 3.169e-10
 10.00686    -27.4 9.164e+03 2.945e-10
 10.01666    -27.0 9.295e+03 3.292e-10
 10.03271    -26.8 9.272e+03 3.241e-10
 10.05230    -26.0 9.277e+03 3.238e-10
 10.07190    -25.5 9.268e+03 3.227e-10
 10.09149    -25.1 9.379e+03 3.433e-10
 10.11109    -24.7 9.559e+03 3.776e-10
 10.13068    -24.4 9.919e+03 4.394e-10
 10.15027    -24.7 1.063e+04 5.562e-10
 10.16987    -25.1 1.172e+04 7.751e-10
 10.18946    -25.7 1.280e+04 1.181e-09
 10.20905    -26.6 1.373e+04 1.888e-09
 10.22865    -27.9 1.476e+04 3.069e-09
 10.24824    -29.4 1.602e+04 4.845e-09
 10.26289    -29.3 1.679e+04 5.823e-09
 10.27264    -30.5 1.765e+04 7.558e-09
 10.28198    -31.2 1.803e+04 9.822e-09
 10.28688    -30.9 1.825e+04 1.122e-08
 10.29223    -30.9 1.829e+04 1.278e-08
 10.30203    -30.9 1.825e+04 1.309e-08
 10.31182    -30.6 1.795e+04 1.285e-08
 10.32162    -30.1 1.761e+04 1.127e-08
 10.33142    -29.9 1.718e+04 8.722e-09
 10.34121    -30.9 1.623e+04 5.903e-09
 10.35101    -31.7 1.539e+04 4.515e-09
 10.36575    -32.7 1.441e+04 2.909e-09
 10.38540    -34.8 1.304e+04 1.408e-09
 10.40499    -37.0 1.220e+04 9.018e-10
 10.42458    -38.2 1.203e+04 8.080e-10
 10.44418    -38.7 1.253e+04 8.556e-10
 10.45618    -39.3 1.321e+04 1.211e-09
 10.46598    -36.3 1.282e+04 1.241e-09
 10.48336    -37.1 1.398e+04 1.829e-09
 10.50296    -37.8 1.520e+04 2.812e-09
 10.52255    -38.1 1.624e+04 4.262e-09
 10.54215    -38.1 1.683e+04 5.896e-09
 10.55739    -38.1 1.684e+04 6.957e-09
 10.56719    -37.1 1.668e+04 6.849e-09
 10.58133    -37.0 1.670e+04 7.251e-09
 10.60093    -37.3 1.655e+04 7.147e-09
 10.62052    -37.8 1.623e+04 6.081e-09
 10.64011    -38.9 1.583e+04 4.580e-09
 10.65971    -40.5 1.539e+04 3.423e-09
 10.67930    -42.1 1.481e+04 2.679e-09
 10.69890    -43.0 1.392e+04 2.303e-09
 10.71849    -43.2 1.337e+04 2.007e-09
 10.73808    -43.0 1.296e+04 1.695e-09
 10.75768    -42.7 1.255e+04 1.368e-09
 10.77727    -42.5 1.215e+04 1.072e-09
 10.79686    -42.4 1.168e+04 8.370e-10
 10.81646    -42.5 1.120e+04 6.799e-10
 10.83271    -42.4 1.079e+04 5.796e-10
 10.84250    -42.3 1.095e+04 6.787e-10
 10.85564    -41.8 1.061e+04 5.927e-10
 10.87524    -41.0 1.040e+04 5.382e-10
 10.89483    -40.2 1.030e+04 4.997e-10
 10.91443    -39.3 1.024e+04 4.699e-10
 10.93402    -38.6 1.030e+04 4.367e-10
 10.95361    -37.9 1.030e+04 4.236e-10
 10.97321    -37.3 1.028e+04 4.202e-10
 10.98522    -36.3 1.033e+04 4.290e-10
 10.99501    -35.4 1.052e+04 5.151e-10
 11.01239    -34.5 1.063e+04 5.343e-10
 11.04188    -34.0 1.082e+04 5.721e-10
 11.08117    -32.8 1.082e+04 5.841e-10
 11.10822    -31.7 1.063e+04 5.417e-10
 11.12781    -30.4 1.036e+04 4.317e-10
 11.15954    -29.0 1.026e+04 4.051e-10
 11.19873    -27.6 1.026e+04 3.962e-10
 11.23792    -26.3 1.033e+04 4.208e-10
 11.27710    -25.0 1.060e+04 5.048e-10
 11.31629    -23.4 1.103e+04 6.345e-10
 11.35548    -22.4 1.163e+04 8.169e-10
 11.38343    -22.2 1.217e+04 1.059e-09
 11.39313    -21.2 1.206e+04 9.911e-10
 11.40427    -21.7 1.256e+04 1.237e-09
 11.42386    -22.3 1.309e+04 1.657e-09
 11.44345    -23.1 1.358e+04 2.242e-09
 11.46305    -23.2 1.406e+04 3.160e-09
 11.48264    -22.9 1.451e+04 4.047e-09
 11.50223    -22.3 1.482e+04 4.525e-09
 11.51425    -21.8 1.490e+04 4.616e-09
 11.52404    -21.4 1.528e+04 4.909e-09
 11.54142    -21.0 1.522e+04 4.697e-09
 11.56102    -20.7 1.471e+04 3.870e-09
 11.58061    -20.6 1.401e+04 3.007e-09
 11.60020    -20.8 1.329e+04 2.284e-09
 11.61980    -20.7 1.266e+04 1.739e-09
 11.63939    -20.5 1.220e+04 1.375e-09
 11.65865    -20.3 1.188e+04 1.148e-09
 11.66844    -20.3 1.199e+04 1.191e-09
 11.67858    -20.0 1.179e+04 1.104e-09
 11.69817    -19.2 1.160e+04 1.031e-09
 11.71776    -18.7 1.153e+04 1.014e-09
 11.73736    -17.7 1.155e+04 1.036e-09
 11.75695    -17.1 1.159e+04 1.049e-09
 11.77655    -16.4 1.166e+04 1.100e-09
 11.79614    -15.6 1.188e+04 1.187e-09
 11.81573    -15.0 1.205e+04 1.261e-09
 11.83533    -14.6 1.216e+04 1.316e-09
 11.85492    -14.1 1.249e+04 1.450e-09
 11.87451    -14.3 1.273e+04 1.539e-09
 11.89411    -15.0 1.320e+04 1.751e-09
 11.91370    -16.2 1.375e+04 2.129e-09
 11.93329    -17.4 1.427e+04 2.748e-09
 11.94376    -18.2 1.462e+04 3.343e-09
 11.95356    -17.0 1.463e+04 3.154e-09
 11.97248    -17.5 1.491e+04 3.646e-09
 11.99208    -17.8 1.498e+04 3.757e-09
 12.01167    -18.0 1.477e+04 3.557e-09
 12.03126    -18.3 1.416e+04 2.656e-09
 12.04328    -19.2 1.330e+04 1.713e-09
 12.05308    -17.9 1.408e+04 2.217e-09
 12.07045    -19.5 1.275e+04 1.268e-09
 12.09004    -20.9 1.150e+04 7.801e-10
 12.10964    -21.5 1.081e+04 5.571e-10
 12.13913    -22.1 1.031e+04 3.754e-10
 12.17841    -21.0 1.009e+04 3.012e-10
 12.20947    -20.0 1.001e+04 2.727e-10
 12.22906    -19.0 1.012e+04 3.045e-10
 12.25679    -18.0 1.007e+04 3.011e-10
 12.29597    -16.7 1.006e+04 3.102e-10
 12.33516    -15.5 1.006e+04 3.181e-10
 12.37435    -14.5 1.011e+04 3.370e-10
 12.40364    -14.1 1.026e+04 3.644e-10
 12.42314    -14.2 1.028e+04 3.741e-10
 12.44273    -14.2 1.048e+04 4.855e-10
 12.46232    -14.3 1.082e+04 6.045e-10
 12.48192    -14.2 1.122e+04 7.461e-10
 12.49439    -15.0 1.188e+04 9.605e-10
 12.50418    -14.5 1.187e+04 9.629e-10
 12.52110    -16.2 1.261e+04 1.262e-09
 12.54070    -18.3 1.350e+04 1.753e-09
 12.56029    -20.5 1.434e+04 2.434e-09
 12.57231    -22.3 1.496e+04 3.117e-09
 12.58211    -22.0 1.467e+04 2.772e-09
 12.59948    -24.1 1.479e+04 2.886e-09
 12.61907    -26.4 1.470e+04 2.595e-09
 12.63867    -29.4 1.416e+04 1.917e-09
 12.65826    -33.6 1.353e+04 1.460e-09
 12.67785    -37.4 1.299e+04 1.290e-09
 12.69745    -40.2 1.275e+04 1.249e-09
 12.71704    -42.2 1.262e+04 1.242e-09
 12.73663    -43.7 1.243e+04 1.234e-09
 12.75623    -45.0 1.215e+04 1.097e-09
 12.76970    -46.4 1.176e+04 8.482e-10
 12.77950    -45.1 1.212e+04 1.000e-09
 12.79542    -47.2 1.162e+04 7.430e-10
 12.81501    -49.6 1.100e+04 5.438e-10
 12.83460    -51.9 1.045e+04 4.212e-10
 12.85420    -53.6 1.017e+04 3.661e-10
 12.87379    -54.6 1.015e+04 3.468e-10
 12.89338    -55.1 1.015e+04 3.418e-10
 12.91298    -56.2 1.014e+04 3.462e-10
 12.93257    -56.7 1.017e+04 3.469e-10
 12.95216    -58.1 1.021e+04 3.623e-10
 12.97176    -58.7 1.029e+04 3.716e-10
 12.99135    -60.7 1.038e+04 4.295e-10
 13.01095    -62.0 1.047e+04 4.904e-10
 13.03054    -62.7 1.052e+04 5.422e-10
 13.04501    -63.5 1.074e+04 5.936e-10
 13.05481    -63.5 1.087e+04 6.251e-10
 13.06973    -69.1 1.320e+04 9.327e-10
 13.08932    -77.8 1.814e+04 2.987e-09
 13.10134    -83.8 2.073e+04 9.341e-09
 13.11114    -82.5 2.004e+04 6.088e-09
 13.12356    -85.3 2.074e+04 1.129e-08
 13.13331    -86.4 2.138e+04 1.379e-08
 13.14311    -89.0 2.245e+04 2.397e-08
 13.15290    -91.0 2.314e+04 3.369e-08
 13.16270    -93.1 2.343e+04 4.123e-08
 13.17250    -95.0 2.349e+04 4.241e-08
 13.18229    -97.0 2.347e+04 3.548e-08
 13.18747    -99.1 2.319e+04 2.395e-08
 13.19237   -100.9 2.333e+04 2.053e-08
 13.20189   -104.1 2.224e+04 1.116e-08
 13.21168   -107.8 2.002e+04 5.817e-09
 13.22148   -111.1 1.750e+04 3.484e-09
 13.23128   -112.4 1.638e+04 2.642e-09
 13.24602   -112.1 1.624e+04 2.324e-09
 13.26566   -115.9 1.399e+04 1.366e-09
 13.28526   -119.5 1.252e+04 1.041e-09
 13.30485   -120.9 1.222e+04 9.928e-10
 13.32033   -121.4 1.220e+04 1.037e-09
 13.33012   -123.0 1.224e+04 1.169e-09
 13.34404   -123.1 1.226e+04 1.265e-09
 13.36363   -122.9 1.229e+04 1.300e-09
 13.38323   -122.8 1.227e+04 1.285e-09
 13.40282   -122.8 1.223e+04 1.188e-09
 13.42241   -123.0 1.212e+04 1.007e-09
 13.44201   -123.5 1.190e+04 7.840e-10
 13.46160   -124.3 1.155e+04 5.665e-10
 13.48119   -125.5 1.101e+04 3.910e-10
 13.51068   -126.9 9.992e+03 2.594e-10
 13.54997   -127.1 9.525e+03 2.288e-10
 13.58915   -127.4 9.336e+03 2.225e-10
 13.62077   -127.4 9.307e+03 2.261e-10
 13.64027   -128.1 9.748e+03 2.842e-10
 13.65754   -128.0 9.926e+03 3.119e-10
 13.67713   -128.2 1.014e+04 3.488e-10
 13.69672   -128.7 1.031e+04 4.101e-10
 13.71632   -129.1 1.024e+04 4.688e-10
 13.73591   -129.8 1.003e+04 6.050e-10
 13.75550   -132.6 1.120e+04 9.295e-10
 13.77510   -137.7 1.489e+04 1.848e-09
 13.79469   -142.3 1.741e+04 3.801e-09
 13.80934   -144.8 1.866e+04 5.892e-09
 13.81909   -146.7 1.992e+04 8.345e-09
 13.82888   -149.3 2.123e+04 1.352e-08
 13.83868   -151.6 2.222e+04 2.028e-08
 13.84848   -153.8 2.281e+04 2.719e-08
 13.85827   -155.8 2.314e+04 3.101e-08
 13.86807   -157.8 2.328e+04 3.181e-08
 13.87576   -159.8 2.324e+04 2.613e-08
 13.88065   -162.8 2.326e+04 2.295e-08
 13.88766   -165.7 2.254e+04 1.545e-08
 13.89479   -169.2 2.116e+04 1.041e-08
 13.89969   -168.4 2.156e+04 1.114e-08
 13.90726   -171.9 1.992e+04 7.926e-09
 13.91705   -174.7 1.851e+04 6.232e-09
 13.93180   -176.6 1.764e+04 5.282e-09
 13.95144   -178.0 1.702e+04 4.476e-09
 13.97103   -179.3 1.623e+04 3.813e-09
 13.99063   -179.7 1.568e+04 3.463e-09
 14.01022   -179.2 1.550e+04 3.370e-09
 14.02982   -178.8 1.566e+04 3.703e-09
 14.04941   -179.5 1.785e+04 4.122e-09
 14.06900   -183.8 2.380e+04 5.315e-09
 14.08365   -190.9 2.931e+04 7.540e-09
 14.09340   -193.4 2.934e+04 1.535e-08
 14.10319   -195.8 2.762e+04 4.896e-08
 14.11299   -198.8 2.508e+04 1.830e-07
 14.12279   -202.8 2.417e+04 3.795e-07
 14.13258   -208.6 2.438e+04 4.269e-07
 14.13991   -215.1 2.529e+04 4.003e-07
 14.14478   -220.6 2.741e+04 2.345e-07
 14.14968   -226.3 2.899e+04 1.177e-07
 14.15347   -230.3 2.935e+04 6.853e-08
 14.15594   -229.3 2.869e+04 7.140e-08
 14.15931   -236.5 2.698e+04 2.629e-08
 14.16421   -236.4 2.849e+04 6.334e-08
 14.17177   -240.9 2.574e+04 2.549e-08
 14.18157   -245.3 2.046e+04 7.419e-09
 14.19137   -246.3 1.744e+04 4.733e-09
 14.20116   -246.4 1.661e+04 4.019e-09
 14.21096   -246.0 1.622e+04 3.641e-09
 14.22076   -245.4 1.596e+04 3.343e-09
 14.23055   -245.2 1.581e+04 3.195e-09
 14.24530   -245.2 1.541e+04 2.974e-09
 14.26494   -244.6 1.458e+04 2.419e-09
 14.28453   -244.3 1.359e+04 1.853e-09
 14.30413   -244.0 1.296e+04 1.559e-09
 14.32372   -243.7 1.278e+04 1.472e-09
 14.34331   -243.4 1.282e+04 1.481e-09
 14.36291   -243.2 1.293e+04 1.533e-09
 14.38250   -242.9 1.307e+04 1.639e-09
 14.40209   -242.6 1.320e+04 1.767e-09
 14.42158   -242.1 1.328e+04 1.883e-09
 14.43138   -243.7 1.374e+04 2.290e-09
 14.44128   -242.9 1.358e+04 2.147e-09
 14.46088   -242.0 1.330e+04 1.929e-09
 14.48047   -241.0 1.305e+04 1.714e-09
 14.50006   -240.0 1.280e+04 1.508e-09
 14.51966   -238.9 1.257e+04 1.319e-09
 14.53925   -237.8 1.236e+04 1.147e-09
 14.55884   -236.7 1.215e+04 9.956e-10
 14.57844   -235.7 1.195e+04 8.667e-10
 14.59803   -234.7 1.175e+04 7.611e-10
 14.61762   -233.7 1.157e+04 6.797e-10
 14.63722   -232.7 1.142e+04 6.215e-10
 14.65681   -231.8 1.129e+04 5.849e-10
 14.67641   -230.7 1.120e+04 5.666e-10
 14.68844   -229.7 1.115e+04 5.491e-10
 14.69824   -229.6 1.137e+04 6.535e-10
 14.70669   -228.6 1.129e+04 6.307e-10
 14.71649   -229.5 1.143e+04 6.894e-10
 14.73519   -228.3 1.139e+04 6.819e-10
 14.75478   -227.1 1.135e+04 6.696e-10
 14.77437   -225.9 1.130e+04 6.527e-10
 14.79397   -224.6 1.124e+04 6.330e-10
 14.81356   -223.4 1.118e+04 6.130e-10
 14.83316   -222.2 1.112e+04 5.949e-10
 14.85275   -220.9 1.105e+04 5.795e-10
 14.87234   -219.7 1.100e+04 5.667e-10
 14.89194   -218.5 1.094e+04 5.551e-10
 14.91153   -217.3 1.089e+04 5.436e-10
 14.93112   -216.0 1.085e+04 5.324e-10
 14.95072   -214.8 1.082e+04 5.215e-10
 14.97031   -213.6 1.081e+04 5.110e-10
 14.98201   -212.4 1.078e+04 5.008e-10
 14.99180   -212.8 1.102e+04 6.062e-10
 15.00950   -211.7 1.096e+04 5.714e-10
 15.02909   -210.7 1.089e+04 5.408e-10
 15.04869   -209.7 1.083e+04 5.160e-10
 15.06828   -208.7 1.078e+04 4.993e-10
 15.08787   -207.9 1.076e+04 4.912e-10
 15.10747   -207.0 1.076e+04 4.887e-10
 15.12706   -206.2 1.075e+04 4.868e-10
 15.15655   -205.2 1.072e+04 4.758e-10
 15.19583   -202.3 1.070e+04 5.127e-10
 15.23502   -200.0 1.085e+04 5.811e-10
 15.27421   -197.7 1.101e+04 6.662e-10
 15.31339   -195.5 1.115e+04 7.425e-10
 15.35258   -193.3 1.124e+04 7.743e-10
 15.39177   -191.3 1.130e+04 7.985e-10
 15.42106   -189.6 1.121e+04 7.734e-10
 15.44056   -188.8 1.117e+04 7.611e-10
 15.46015   -187.8 1.111e+04 7.386e-10
 15.47975   -186.8 1.102e+04 7.038e-10
 15.49934   -185.7 1.089e+04 6.614e-10
 15.51893   -184.7 1.073e+04 6.083e-10
 15.53264   -183.5 1.056e+04 5.518e-10
 15.54243   -183.6 1.043e+04 5.073e-10
 15.55812   -182.2 1.026e+04 4.516e-10
 15.58761   -180.2 1.005e+04 3.830e-10
 15.62689   -178.4 1.003e+04 3.628e-10
 15.66608   -176.1 9.910e+03 3.389e-10
 15.70527   -173.6 9.760e+03 3.141e-10
 15.73690   -171.0 9.646e+03 2.991e-10
 15.75650   -170.2 9.784e+03 3.211e-10
 15.78364   -167.5 9.730e+03 3.123e-10
 15.82283   -164.9 9.721e+03 3.104e-10
 15.86202   -162.6 9.754e+03 3.196e-10
 15.90120   -160.6 9.860e+03 3.533e-10
 15.93050   -159.6 9.946e+03 3.944e-10
 15.94999   -159.3 9.969e+03 4.208e-10
 15.96959   -158.5 1.013e+04 4.964e-10
 15.98918   -157.7 1.037e+04 5.913e-10
 16.00877   -156.8 1.066e+04 7.043e-10
 16.02837   -156.0 1.095e+04 8.289e-10
 16.04796   -155.3 1.120e+04 9.539e-10
 16.06756   -154.7 1.137e+04 1.042e-09
 16.08326   -154.2 1.141e+04 1.065e-09
 16.09306   -153.8 1.153e+04 1.134e-09
 16.10674   -153.2 1.155e+04 1.151e-09
 16.12634   -152.5 1.150e+04 1.137e-09
 16.14593   -151.8 1.132e+04 1.036e-09
 16.16552   -151.1 1.110e+04 8.938e-10
 16.18512   -150.5 1.085e+04 7.560e-10
 16.20471   -150.0 1.058e+04 6.356e-10
 16.22430   -149.5 1.031e+04 5.339e-10
 16.24390   -148.9 1.005e+04 4.521e-10
 16.26349   -148.2 9.858e+03 3.975e-10
 16.27554   -147.5 9.761e+03 3.728e-10
 16.28533   -147.8 9.748e+03 3.666e-10
 16.30268   -147.2 9.705e+03 3.566e-10
 16.32227   -146.3 9.686e+03 3.522e-10
 16.34187   -145.7 9.677e+03 3.509e-10
 16.35858   -144.9 9.697e+03 3.542e-10
 16.36837   -144.2 9.747e+03 3.690e-10
 16.38105   -143.8 9.834e+03 3.775e-10
 16.40065   -143.6 9.994e+03 4.045e-10
 16.42024   -144.1 1.006e+04 4.409e-10
 16.43983   -145.2 1.003e+04 5.447e-10
 16.45943   -146.4 1.124e+04 9.825e-10
 16.47902   -148.2 1.365e+04 1.984e-09
 16.49862   -152.4 1.789e+04 4.399e-09
 16.51821   -159.1 2.241e+04 8.963e-09
 16.53286   -165.3 2.593e+04 1.296e-08
 16.53995   -169.5 2.639e+04 1.999e-08
 16.54485   -167.8 2.557e+04 1.554e-08
 16.55240   -172.2 2.622e+04 2.197e-08
 16.56220   -176.7 2.533e+04 3.697e-08
 16.57199   -180.5 2.414e+04 6.454e-08
 16.58179   -184.0 2.335e+04 1.009e-07
 16.59159   -187.0 2.304e+04 1.304e-07
 16.60138   -189.5 2.302e+04 1.423e-07
 16.61118   -191.5 2.306e+04 1.397e-07
 16.62098   -192.7 2.315e+04 1.220e-07
 16.63077   -193.3 2.326e+04 1.027e-07
 16.63869   -193.6 2.343e+04 8.095e-08
 16.64359   -194.0 2.354e+04 8.986e-08
 16.65037   -194.4 2.360e+04 6.080e-08
 16.66017   -195.2 2.328e+04 4.269e-08
 16.66996   -195.7 2.246e+04 2.989e-08
 16.67976   -196.0 2.133e+04 2.098e-08
 16.68956   -196.3 2.010e+04 1.514e-08
 16.69935   -196.8 1.905e+04 1.175e-08
 16.71410   -197.4 1.810e+04 9.390e-09
 16.73374   -197.3 1.706e+04 7.246e-09
 16.75333   -197.8 1.646e+04 6.277e-09
 16.77293   -198.7 1.636e+04 6.125e-09
 16.79252   -199.7 1.640e+04 6.248e-09
 16.80457   -200.5 1.653e+04 6.686e-09
 16.81436   -199.4 1.647e+04 6.240e-09
 16.83171   -200.1 1.657e+04 6.760e-09
 16.85130   -200.7 1.654e+04 6.860e-09
 16.87089   -201.1 1.629e+04 6.562e-09
 16.89049   -201.2 1.582e+04 5.735e-09
 16.90920   -201.1 1.513e+04 4.676e-09
 16.91900   -200.9 1.562e+04 5.692e-09
 16.92968   -200.4 1.479e+04 4.415e-09
 16.94927   -199.8 1.391e+04 3.279e-09
 16.96886   -199.1 1.311e+04 2.412e-09
 16.98846   -198.5 1.243e+04 1.818e-09
 17.00805   -197.9 1.191e+04 1.446e-09
 17.02764   -197.3 1.157e+04 1.236e-09
 17.04724   -196.6 1.142e+04 1.144e-09
 17.06683   -195.9 1.138e+04 1.120e-09
 17.08642   -195.1 1.138e+04 1.117e-09
 17.10602   -194.4 1.141e+04 1.140e-09
 17.12561   -193.6 1.148e+04 1.185e-09
 17.14521   -193.0 1.150e+04 1.212e-09
 17.16480   -192.4 1.150e+04 1.217e-09
 17.18439   -191.7 1.143e+04 1.198e-09
 17.19432   -191.0 1.132e+04 1.122e-09
 17.20411   -190.5 1.128e+04 1.079e-09
 17.22358   -189.9 1.116e+04 9.632e-10
 17.24317   -189.4 1.107e+04 8.620e-10
 17.26277   -189.2 1.100e+04 7.833e-10
 17.28236   -189.1 1.095e+04 7.271e-10
 17.30196   -189.1 1.091e+04 6.899e-10
 17.32155   -189.1 1.087e+04 6.657e-10
 17.33360   -189.1 1.086e+04 6.565e-10
 17.34340   -189.7 1.096e+04 6.883e-10
 17.36074   -189.7 1.110e+04 7.326e-10
 17.38033   -189.8 1.140e+04 8.294e-10
 17.39992   -190.1 1.172e+04 9.522e-10
 17.41952   -190.4 1.222e+04 1.212e-09
 17.43911   -191.0 1.268e+04 1.507e-09
 17.45870   -191.9 1.328e+04 2.148e-09
 17.46963   -192.7 1.356e+04 2.577e-09
 17.47943   -192.3 1.387e+04 2.876e-09
 17.49789   -193.1 1.394e+04 2.987e-09
 17.51749   -193.7 1.389e+04 2.966e-09
 17.53708   -194.1 1.363e+04 2.690e-09
 17.55667   -194.6 1.330e+04 2.246e-09
 17.57627   -195.1 1.292e+04 1.750e-09
 17.59586   -195.7 1.247e+04 1.304e-09
 17.61545   -196.4 1.197e+04 9.429e-10
 17.63505   -197.2 1.149e+04 6.779e-10
 17.65464   -198.0 1.103e+04 4.957e-10
 17.67423   -198.8 1.062e+04 3.809e-10
 17.69383   -199.4 1.033e+04 3.309e-10
 17.71342   -199.4 1.027e+04 3.264e-10
 17.73524   -198.6 1.043e+04 3.607e-10
 17.75494   -199.7 9.933e+03 2.847e-10
 17.78219   -197.7 9.773e+03 2.763e-10
 17.82138   -196.1 9.788e+03 2.797e-10
 17.85303   -194.5 9.819e+03 2.816e-10
 17.87262   -194.9 9.801e+03 2.795e-10
 17.89976   -193.3 9.748e+03 2.695e-10
 17.93894   -191.6 9.654e+03 2.462e-10
 17.97813   -189.9 9.588e+03 2.250e-10
 18.01732   -188.1 9.536e+03 2.081e-10
 18.05651   -186.2 9.525e+03 1.984e-10
 18.09569   -184.2 9.530e+03 1.960e-10
 18.13488   -182.2 9.558e+03 1.967e-10
 18.17407   -180.3 9.654e+03 2.022e-10
 18.21326   -178.7 9.763e+03 2.108e-10
 18.25244   -177.5 9.834e+03 2.200e-10
 18.28597   -176.9 9.876e+03 2.367e-10
 18.30556   -177.6 9.959e+03 2.647e-10
 18.33082   -177.4 1.009e+04 3.249e-10
 18.37000   -177.6 1.104e+04 4.938e-10
 18.40919   -179.6 1.280e+04 1.010e-09
 18.43848   -182.2 1.393e+04 1.804e-09
 18.45798   -184.4 1.479e+04 2.814e-09
 18.47757   -186.5 1.529e+04 3.781e-09
 18.49717   -188.7 1.543e+04 4.196e-09
 18.51676   -190.7 1.543e+04 4.254e-09
 18.53635   -192.4 1.511e+04 3.952e-09
 18.55595   -194.0 1.453e+04 3.107e-09
 18.57088   -195.7 1.386e+04 2.354e-09
 18.58068   -195.8 1.405e+04 2.470e-09
 18.59514   -197.4 1.344e+04 1.970e-09
 18.61473   -198.6 1.319e+04 1.809e-09
 18.63432   -199.3 1.315e+04 1.784e-09
 18.65392   -199.8 1.316e+04 1.801e-09
 18.67351   -200.1 1.326e+04 1.910e-09
 18.69310   -200.4 1.335e+04 2.030e-09
 18.71270   -200.6 1.338e+04 2.106e-09
 18.73229   -200.7 1.338e+04 2.134e-09
 18.75189   -200.9 1.332e+04 2.080e-09
 18.77148   -201.2 1.334e+04 2.065e-09
 18.79107   -201.5 1.343e+04 2.110e-09
 18.81067   -201.9 1.357e+04 2.198e-09
 18.83026   -202.3 1.376e+04 2.324e-09
 18.84620   -202.8 1.397e+04 2.470e-09
 18.85600   -203.2 1.387e+04 2.194e-09
 18.86945   -203.7 1.407e+04 2.371e-09
 18.88904   -204.2 1.418e+04 2.530e-09
 18.90863   -204.6 1.418e+04 2.570e-09
 18.92069   -205.1 1.416e+04 2.555e-09
 18.93049   -205.2 1.405e+04 2.455e-09
 18.94782   -205.5 1.394e+04 2.434e-09
 18.96742   -205.6 1.367e+04 2.304e-09
 18.98701   -205.6 1.334e+04 2.104e-09
 19.00660   -205.2 1.302e+04 1.884e-09
 19.02620   -204.8 1.277e+04 1.694e-09
 19.04579   -204.5 1.261e+04 1.555e-09
 19.06538   -204.5 1.256e+04 1.467e-09
 19.08498   -204.4 1.259e+04 1.428e-09
 19.10457   -204.4 1.263e+04 1.416e-09
 19.12151   -204.7 1.274e+04 1.417e-09
 19.13131   -204.5 1.276e+04 1.416e-09
 19.14376   -205.3 1.283e+04 1.421e-09
 19.16335   -206.3 1.285e+04 1.407e-09
 19.18295   -207.3 1.273e+04 1.326e-09
 19.20254   -208.0 1.247e+04 1.235e-09
 19.23203   -208.5 1.218e+04 1.148e-09
 19.27131   -208.2 1.186e+04 1.014e-09
 19.31050   -208.1 1.169e+04 9.397e-10
 19.34969   -207.7 1.158e+04 8.947e-10
 19.38722   -207.3 1.144e+04 8.375e-10
 19.40682   -207.6 1.162e+04 9.168e-10
 19.42806   -207.2 1.139e+04 8.434e-10
 19.46725   -206.3 1.106e+04 7.236e-10
 19.50644   -205.0 1.072e+04 5.913e-10
 19.54562   -203.6 1.042e+04 4.735e-10
 19.58481   -202.2 1.018e+04 3.867e-10
 19.62400   -200.7 9.955e+03 3.237e-10
 19.66319   -198.9 9.728e+03 2.700e-10
 19.70237   -196.9 9.504e+03 2.208e-10
 19.74156   -194.8 9.306e+03 1.790e-10
 19.78075   -192.7 9.148e+03 1.464e-10
 19.81993   -190.7 9.024e+03 1.230e-10
 19.85912   -188.6 8.920e+03 1.079e-10
 19.89831   -186.5 8.860e+03 9.718e-11
 19.93750   -184.3 8.814e+03 9.065e-11
 19.95745   -182.1 8.802e+03 8.791e-11
 19.96951   -182.3 8.855e+03 9.972e-11
 19.98875   -181.7 8.871e+03 1.024e-10
 20.01587   -179.5 8.939e+03 1.049e-10
 20.05506   -177.5 9.066e+03 1.167e-10
 20.09425   -175.6 9.204e+03 1.377e-10
 20.13343   -173.8 9.357e+03 1.676e-10
 20.17262   -172.0 9.529e+03 2.064e-10
 20.21181   -170.3 9.722e+03 2.551e-10
 20.25099   -168.8 9.936e+03 3.145e-10
 20.29018   -167.3 1.015e+04 3.805e-10
 20.32937   -166.1 1.032e+04 4.401e-10
 20.36856   -165.1 1.049e+04 4.878e-10
 20.40774   -164.4 1.071e+04 5.474e-10
 20.44693   -164.0 1.104e+04 6.434e-10
 20.48612   -163.7 1.146e+04 7.996e-10
 20.50807   -163.4 1.189e+04 9.971e-10
 20.51777   -163.5 1.172e+04 9.349e-10
 20.53491   -164.1 1.178e+04 9.682e-10
 20.55450   -164.9 1.180e+04 1.010e-09
 20.57409   -165.3 1.169e+04 9.924e-10
 20.59369   -165.7 1.150e+04 9.149e-10
 20.61328   -166.3 1.128e+04 8.196e-10
 20.63288   -167.1 1.108e+04 7.430e-10
 20.65247   -167.9 1.092e+04 6.917e-10
 20.67206   -168.8 1.082e+04 6.647e-10
 20.69166   -169.8 1.072e+04 6.526e-10
 20.71125   -170.8 1.057e+04 6.409e-10
 20.73084   -171.8 1.035e+04 6.105e-10
 20.75044   -172.8 1.012e+04 5.490e-10
 20.77003   -173.7 9.880e+03 4.700e-10
 20.79952   -174.8 9.584e+03 3.604e-10
 20.83880   -175.7 9.327e+03 3.080e-10
 20.87799   -176.3 8.947e+03 2.520e-10
 20.91718   -176.4 8.615e+03 2.139e-10
 20.95637   -176.5 8.395e+03 1.922e-10
 20.99555   -176.1 8.256e+03 1.789e-10
 21.02722   -175.6 8.165e+03 1.688e-10
 21.04681   -176.5 8.387e+03 2.080e-10
 21.05870   -176.0 8.330e+03 2.001e-10
 21.07830   -175.9 8.132e+03 1.750e-10
 21.11312   -175.2 8.124e+03 1.732e-10
 21.15230   -174.4 8.204e+03 1.807e-10
 21.19149   -173.5 8.362e+03 2.034e-10
 21.23068   -172.5 8.497e+03 2.322e-10
 21.26986   -171.4 8.603e+03 2.586e-10
 21.30905   -170.2 8.668e+03 2.739e-10
 21.34824   -168.9 8.689e+03 2.769e-10
 21.38743   -167.6 8.660e+03 2.682e-10
 21.42661   -166.2 8.631e+03 2.541e-10
 21.46580   -164.8 8.632e+03 2.455e-10
 21.50499   -163.3 8.650e+03 2.441e-10
 21.54418   -161.8 8.786e+03 2.589e-10
 21.58336   -160.3 8.982e+03 2.855e-10
 21.60933   -158.8 9.216e+03 3.253e-10
 21.62892   -159.0 9.127e+03 2.957e-10
 21.66174   -157.6 9.408e+03 3.453e-10
 21.70092   -156.3 9.677e+03 3.967e-10
 21.74011   -155.1 9.908e+03 4.460e-10
 21.76940   -155.0 1.016e+04 5.442e-10
 21.78890   -154.9 1.029e+04 5.942e-10
 21.80849   -154.8 1.042e+04 6.562e-10
 21.82809   -154.7 1.058e+04 7.151e-10
 21.84768   -154.6 1.077e+04 7.799e-10
 21.86728   -154.6 1.098e+04 8.539e-10
 21.88445   -154.6 1.119e+04 9.410e-10
 21.89424   -155.1 1.120e+04 9.064e-10
 21.90646   -155.3 1.144e+04 1.023e-09
 21.92606   -155.4 1.166e+04 1.141e-09
 21.94565   -155.4 1.182e+04 1.247e-09
 21.96524   -155.3 1.193e+04 1.327e-09
 21.98484   -155.2 1.197e+04 1.372e-09
 22.00443   -154.9 1.197e+04 1.384e-09
 22.02402   -154.6 1.183e+04 1.290e-09
 22.04362   -154.2 1.169e+04 1.201e-09
 22.06321   -153.7 1.154e+04 1.103e-09
 22.08281   -153.0 1.141e+04 9.968e-10
 22.09489   -152.3 1.129e+04 8.801e-10
 22.10468   -153.3 1.113e+04 7.164e-10
 22.12199   -152.7 1.097e+04 6.087e-10
 22.14159   -152.1 1.077e+04 5.175e-10
 22.15976   -151.4 1.055e+04 4.456e-10
 22.16956   -152.1 1.048e+04 4.475e-10
 22.18077   -151.2 1.028e+04 4.050e-10
 22.20037   -150.3 1.011e+04 3.758e-10
 22.21996   -149.2 1.002e+04 3.545e-10
 22.23955   -148.0 1.007e+04 3.386e-10
 22.25915   -146.9 1.014e+04 3.324e-10
 22.27874   -146.0 1.032e+04 3.374e-10
 22.29834   -145.1 1.059e+04 3.574e-10
 22.31793   -144.4 1.095e+04 4.049e-10
 22.33752   -143.7 1.138e+04 4.976e-10
 22.35712   -143.1 1.182e+04 6.623e-10
 22.37671   -142.2 1.229e+04 9.024e-10
 22.39630   -141.3 1.276e+04 1.205e-09
 22.41590   -140.3 1.321e+04 1.565e-09
 22.43508   -139.1 1.361e+04 1.983e-09
 22.44487   -140.0 1.541e+04 5.011e-09
 22.45508   -138.7 1.567e+04 5.782e-09
 22.47468   -137.4 1.583e+04 6.393e-09
 22.49427   -136.2 1.593e+04 6.822e-09
 22.51387   -134.9 1.606e+04 7.144e-09
 22.53346   -133.8 1.624e+04 7.347e-09
 22.55305   -133.0 1.638e+04 7.423e-09
 22.57265   -132.2 1.646e+04 7.467e-09
 22.59224   -131.4 1.654e+04 7.532e-09
 22.61183   -130.6 1.671e+04 7.872e-09
 22.62392   -130.0 1.692e+04 8.391e-09
 22.63371   -130.3 1.524e+04 4.330e-09
 22.65102   -129.7 1.527e+04 4.509e-09
 22.67062   -129.0 1.529e+04 4.682e-09
 22.69021   -128.4 1.530e+04 4.762e-09
 22.70980   -127.9 1.529e+04 4.722e-09
 22.72019   -127.6 1.520e+04 4.399e-09
 22.72998   -128.5 1.382e+04 2.178e-09
 22.74899   -128.4 1.356e+04 1.784e-09
 22.76858   -128.3 1.324e+04 1.413e-09
 22.78818   -128.3 1.293e+04 1.144e-09
 22.80777   -129.3 1.233e+04 8.465e-10
 22.83726   -130.8 1.118e+04 6.491e-10
 22.87654   -130.9 1.066e+04 6.210e-10
 22.91573   -130.3 1.049e+04 6.824e-10
 22.95492   -129.6 1.053e+04 7.088e-10
 22.99411   -128.6 1.046e+04 7.063e-10
 23.03329   -127.3 1.025e+04 6.241e-10
 23.07248   -125.8 9.993e+03 4.787e-10
 23.11167   -124.7 9.666e+03 3.517e-10
 23.14335   -123.7 9.280e+03 2.524e-10
 23.16294   -124.8 9.311e+03 2.561e-10
 23.19004   -123.7 8.922e+03 2.051e-10
 23.22923   -122.3 8.792e+03 1.896e-10
 23.26121   -120.6 8.771e+03 1.861e-10
 23.28081   -121.8 8.738e+03 1.987e-10
 23.30760   -119.7 8.726e+03 1.980e-10
 23.34679   -117.6 8.744e+03 1.970e-10
 23.38598   -115.3 8.780e+03 1.954e-10
 23.42517   -113.0 8.822e+03 1.949e-10
 23.46435   -111.0 9.085e+03 2.001e-10
 23.50354   -109.4 9.451e+03 2.300e-10
 23.53283   -107.5 9.483e+03 2.277e-10
 23.54613   -107.6 9.947e+03 3.012e-10
 23.55592   -107.8 9.761e+03 2.825e-10
 23.57192   -107.6 1.021e+04 4.099e-10
 23.59152   -107.4 1.065e+04 6.007e-10
 23.61111   -107.2 1.101e+04 8.497e-10
 23.63070   -106.7 1.132e+04 1.130e-09
 23.65030   -106.2 1.158e+04 1.341e-09
 23.66989   -105.8 1.177e+04 1.410e-09
 23.68198   -105.5 1.184e+04 1.396e-09
 23.69178   -106.6 1.178e+04 1.314e-09
 23.70908   -106.6 1.160e+04 1.156e-09
 23.72867   -106.6 1.127e+04 9.481e-10
 23.74827   -106.4 1.085e+04 7.629e-10
 23.76786   -106.0 1.045e+04 6.258e-10
 23.78745   -105.2 1.010e+04 5.203e-10
 23.81174   -103.9 9.851e+03 4.430e-10
 23.83134   -103.4 9.733e+03 4.356e-10
 23.85613   -101.8 9.536e+03 3.664e-10
 23.89541    -99.2 8.970e+03 2.367e-10
 23.93460    -96.4 8.540e+03 1.535e-10
 23.97379    -93.3 8.228e+03 9.693e-11
 24.01298    -90.6 8.134e+03 6.482e-11
 24.05216    -88.0 8.142e+03 4.942e-11
 24.09135    -85.5 8.144e+03 4.526e-11
 24.13054    -83.0 8.133e+03 4.451e-11
 24.16972    -80.7 8.275e+03 4.611e-11
 24.20141    -78.5 8.391e+03 5.575e-11
 24.22101    -79.1 8.366e+03 6.038e-11
 24.24810    -76.9 8.478e+03 8.211e-11
 24.28729    -74.7 8.614e+03 1.147e-10
 24.32647    -72.5 8.775e+03 1.548e-10
 24.36247    -70.3 8.931e+03 1.913e-10
 24.38206    -70.8 9.080e+03 2.237e-10
 24.40485    -68.7 9.156e+03 2.425e-10
 24.44404    -66.7 9.253e+03 2.308e-10
 24.48322    -64.8 9.270e+03 1.979e-10
 24.52241    -63.2 9.295e+03 1.642e-10
 24.56160    -61.9 9.311e+03 1.472e-10
 24.60078    -60.7 9.312e+03 1.444e-10
 24.63997    -59.5 9.376e+03 1.738e-10
 24.67916    -58.0 9.498e+03 2.335e-10
 24.71835    -56.2 9.653e+03 3.045e-10
 24.75753    -54.3 9.825e+03 3.573e-10
 24.79672    -52.4 9.893e+03 3.702e-10
 24.83591    -50.6 9.935e+03 3.638e-10
 24.87510    -48.9 1.000e+04 3.448e-10
 24.91310    -47.2 1.008e+04 3.443e-10
 24.93269    -47.4 1.014e+04 3.208e-10
 24.95347    -45.8 1.026e+04 3.513e-10
 24.99266    -44.3 1.042e+04 4.075e-10
 25.03185    -42.8 1.061e+04 4.760e-10
 25.07103    -41.3 1.082e+04 5.217e-10
 25.10033    -40.4 1.088e+04 5.423e-10
 25.11982    -39.6 1.087e+04 5.336e-10
 25.13941    -39.0 1.089e+04 5.220e-10
 25.15901    -38.5 1.090e+04 5.147e-10
 25.17860    -38.4 1.102e+04 5.222e-10
 25.19801    -41.4 1.281e+04 6.355e-10
 25.20781    -41.4 1.263e+04 6.883e-10
 25.21779    -47.0 1.486e+04 1.590e-09
 25.23738    -50.0 1.568e+04 3.894e-09
 25.25698    -50.2 1.627e+04 6.518e-09
 25.26903    -50.0 1.666e+04 7.975e-09
 25.27388    -50.2 1.709e+04 9.528e-09
 25.28137    -50.1 1.683e+04 7.828e-09
 25.29612    -50.8 1.624e+04 5.035e-09
 25.31576    -52.8 1.533e+04 2.562e-09
 25.33535    -55.8 1.366e+04 9.675e-10
 25.35495    -57.9 1.233e+04 5.400e-10
 25.37454    -58.4 1.177e+04 4.394e-10
 25.39413    -57.7 1.150e+04 4.000e-10
 25.42362    -56.6 1.129e+04 3.722e-10
 25.46291    -54.7 1.089e+04 3.141e-10
 25.48332    -52.3 1.053e+04 2.493e-10
 25.50291    -52.6 1.038e+04 1.993e-10
 25.54128    -50.5 1.030e+04 1.557e-10
 25.58047    -48.6 1.028e+04 1.219e-10
 25.61965    -47.1 1.031e+04 1.035e-10
 25.65884    -45.6 1.033e+04 9.928e-11
 25.69803    -44.0 1.026e+04 1.160e-10
 25.73722    -42.3 1.019e+04 1.374e-10
 25.77640    -40.3 1.012e+04 1.499e-10
 25.81559    -38.4 1.010e+04 1.530e-10
 25.85478    -36.6 1.010e+04 1.521e-10
 25.89397    -35.0 1.012e+04 1.496e-10
 25.93315    -33.4 1.008e+04 1.537e-10
 25.97234    -31.7 9.989e+03 1.573e-10
 26.01153    -29.8 9.807e+03 1.545e-10
 26.03394    -27.4 9.609e+03 1.395e-10
 26.05354    -27.3 9.780e+03 1.763e-10
 26.08990    -24.9 9.647e+03 1.293e-10
 26.12909    -22.8 9.558e+03 9.509e-11
 26.16828    -20.8 9.438e+03 7.805e-11
 26.20746    -18.8 9.401e+03 7.292e-11
 26.24665    -16.7 9.433e+03 7.311e-11
 26.28584    -14.8 9.503e+03 8.740e-11
 26.31754    -12.7 9.478e+03 1.154e-10
 26.33713    -12.3 9.451e+03 1.156e-10
 26.36421     -9.8 9.564e+03 1.361e-10
 26.40340     -7.5 9.769e+03 1.552e-10
 26.44259     -5.4 9.874e+03 1.706e-10
 26.48178     -3.4 9.863e+03 1.840e-10
 26.52096     -1.3 9.824e+03 2.038e-10
 26.56015      0.5 9.828e+03 2.235e-10
 26.58457      2.3 9.896e+03 2.640e-10
 26.60417      2.1 9.814e+03 2.662e-10
 26.63852      4.6 9.866e+03 3.340e-10
 26.67771      7.1 9.948e+03 3.508e-10
 26.71690     10.3 9.869e+03 2.903e-10
 26.75609     12.6 9.987e+03 1.910e-10
 26.79527     13.9 9.985e+03 1.457e-10
 26.83446     15.7 9.708e+03 1.440e-10
 26.87365     17.9 9.577e+03 1.502e-10
 26.91284     20.5 9.475e+03 1.557e-10
 26.95202     22.9 9.462e+03 1.572e-10
 26.99121     25.3 9.492e+03 1.601e-10
 27.03040     27.5 9.531e+03 1.676e-10
 27.06958     29.9 9.593e+03 1.782e-10
 27.10877     32.1 9.663e+03 1.934e-10
 27.13520     34.3 9.746e+03 2.108e-10
 27.15479     34.0 9.676e+03 2.499e-10
 27.18715     36.3 9.746e+03 3.041e-10
 27.22633     38.7 9.803e+03 3.452e-10
 27.26552     41.1 9.836e+03 3.552e-10
 27.30471     43.4 9.824e+03 3.400e-10
 27.34390     45.6 9.811e+03 3.082e-10
 27.37560     47.7 9.798e+03 2.803e-10
 27.39520     48.2 9.942e+03 3.321e-10
 27.42227     50.1 9.934e+03 3.137e-10
 27.46146     51.9 9.848e+03 2.996e-10
 27.50065     53.8 9.698e+03 2.804e-10
 27.53983     55.7 9.515e+03 2.519e-10
 27.57902     57.7 9.337e+03 2.198e-10
 27.61821     59.7 9.160e+03 1.946e-10
 27.65739     61.8 9.011e+03 1.812e-10
 27.68583     64.1 8.928e+03 1.765e-10
 27.70542     64.1 8.960e+03 2.104e-10
 27.73577     66.6 8.890e+03 2.128e-10
 27.77496     69.1 8.851e+03 2.154e-10
 27.81414     71.5 8.825e+03 2.150e-10
 27.85333     74.0 8.797e+03 2.102e-10
 27.89252     76.4 8.764e+03 2.015e-10
 27.93171     78.8 8.727e+03 1.889e-10
 27.97089     81.2 8.692e+03 1.733e-10
 28.01008     83.4 8.668e+03 1.566e-10
 28.04927     85.6 8.647e+03 1.425e-10
 28.08845     87.7 8.595e+03 1.362e-10
 28.12764     89.9 8.571e+03 1.359e-10
 28.16683     92.2 8.575e+03 1.364e-10
 28.20602     94.4 8.583e+03 1.408e-10
 28.23646     96.7 8.611e+03 1.541e-10
 28.25605     96.8 8.826e+03 1.827e-10
 28.28439     99.1 8.879e+03 2.006e-10
 28.32358    101.5 8.934e+03 2.265e-10
 28.36277    103.9 9.015e+03 2.657e-10
 28.40195    106.7 9.253e+03 3.357e-10
 28.43367    109.8 9.788e+03 4.659e-10
 28.45326    109.5 9.539e+03 3.971e-10
 28.48033    111.8 1.048e+04 6.244e-10
 28.50962    112.4 1.076e+04 7.757e-10
 28.52137    112.2 1.144e+04 1.042e-09
 28.53117    110.2 1.346e+04 1.872e-09
 28.54871    110.3 1.438e+04 3.164e-09
 28.56830    110.8 1.476e+04 4.546e-09
 28.58790    111.3 1.472e+04 4.938e-09
 28.60749    111.9 1.455e+04 4.802e-09
 28.62708    112.8 1.393e+04 4.077e-09
 28.64668    113.8 1.312e+04 3.044e-09
 28.67617    115.2 1.207e+04 1.837e-09
 28.71545    116.6 1.083e+04 9.583e-10
 28.75464    117.8 9.696e+03 4.698e-10
 28.78708    119.0 8.795e+03 2.568e-10
 28.80668    117.0 8.221e+03 1.634e-10
 28.83301    119.3 8.101e+03 1.584e-10
 28.87220    122.2 8.090e+03 1.584e-10
 28.91139    125.0 8.101e+03 1.616e-10
 28.95058    127.7 8.161e+03 1.714e-10
 28.98976    130.3 8.253e+03 1.855e-10
 29.02895    132.7 8.394e+03 2.053e-10
 29.06814    135.1 8.652e+03 2.385e-10
 29.10732    137.2 9.005e+03 2.936e-10
 29.14651    138.2 9.211e+03 3.418e-10
 29.17580    138.7 9.490e+03 4.034e-10
 29.19530    139.3 9.875e+03 5.206e-10
 29.21489    139.4 1.036e+04 7.190e-10
 29.23449    139.3 1.095e+04 1.021e-09
 29.25408    138.9 1.168e+04 1.485e-09
 29.27368    138.5 1.246e+04 2.169e-09
 29.29327    138.1 1.317e+04 3.018e-09
 29.31286    137.7 1.363e+04 3.533e-09
 29.33246    136.9 1.366e+04 3.507e-09
 29.34731    136.0 1.350e+04 3.177e-09
 29.35711    135.5 1.281e+04 2.302e-09
 29.38154    134.4 1.189e+04 1.322e-09
 29.42082    134.0 1.059e+04 6.162e-10
 29.46001    133.9 9.071e+03 2.446e-10
 29.49173    133.8 8.153e+03 1.073e-10
 29.51132    133.7 8.698e+03 1.725e-10
 29.53838    134.2 8.377e+03 1.266e-10
 29.57757    135.7 8.365e+03 1.264e-10
 29.61676    137.7 8.368e+03 1.285e-10
 29.65595    139.8 8.406e+03 1.397e-10
 29.69513    142.0 8.576e+03 1.724e-10
 29.73432    144.1 8.883e+03 2.358e-10
 29.77351    146.1 9.281e+03 3.342e-10
 29.81270    148.1 9.859e+03 4.910e-10
 29.85188    149.5 1.055e+04 7.281e-10
 29.88118    149.6 1.089e+04 8.981e-10
 29.89794    149.6 1.114e+04 1.022e-09
 29.90774    149.5 1.124e+04 1.042e-09
 29.92027    149.5 1.130e+04 1.041e-09
 29.93986    149.5 1.131e+04 1.031e-09
 29.95945    149.5 1.129e+04 9.920e-10
 29.97905    149.4 1.123e+04 9.250e-10
 29.99864    149.4 1.113e+04 8.465e-10
 30.01823    149.5 1.104e+04 7.748e-10
 30.03036    149.5 1.098e+04 7.178e-10
 30.04016    149.7 1.094e+04 7.006e-10
 30.05742    149.8 1.101e+04 6.873e-10
 30.07701    149.9 1.107e+04 6.891e-10
 30.09661    149.9 1.117e+04 7.034e-10
 30.11620    150.0 1.125e+04 7.235e-10
 30.13580    150.1 1.123e+04 7.231e-10
 30.16528    150.6 1.090e+04 6.299e-10
 30.20457    151.5 1.089e+04 6.658e-10
 30.24376    152.7 1.086e+04 7.018e-10
 30.28294    154.0 1.089e+04 7.417e-10
 30.32213    155.7 1.096e+04 7.832e-10
 30.36132    157.5 1.106e+04 8.110e-10
 30.40051    159.5 1.113e+04 8.172e-10
 30.43897    161.4 1.115e+04 8.091e-10
 30.45856    162.1 1.092e+04 7.306e-10
 30.47888    164.1 1.105e+04 7.556e-10
 30.51807    166.1 1.105e+04 7.427e-10
 30.54980    168.1 1.097e+04 6.688e-10
 30.56939    168.1 1.104e+04 6.740e-10
 30.59644    170.2 1.071e+04 5.167e-10
 30.63563    172.6 1.034e+04 3.744e-10
 30.67482    175.0 1.000e+04 2.612e-10
 30.71400    177.4 9.753e+03 1.796e-10
 30.75319    179.8 9.578e+03 1.276e-10
 30.79238    182.1 9.442e+03 9.737e-11
 30.83157    184.5 9.317e+03 7.996e-11
 30.87075    186.9 9.187e+03 6.892e-11
 30.90994    189.3 9.050e+03 6.120e-11
 30.94913    191.8 8.929e+03 5.635e-11
 30.98831    194.3 8.847e+03 5.365e-11
 31.00919    196.7 8.790e+03 5.237e-11
 31.02878    197.5 8.878e+03 4.976e-11
 31.06669    199.9 8.805e+03 4.762e-11
 31.10588    202.3 8.730e+03 4.695e-11
 31.14506    204.6 8.675e+03 4.674e-11
 31.18425    207.0 8.646e+03 4.662e-11
 31.22344    209.3 8.636e+03 4.666e-11
 31.26263    211.6 8.628e+03 4.707e-11
 31.30181    213.9 8.632e+03 4.793e-11
 31.34100    216.2 8.643e+03 4.945e-11
 31.38019    218.4 8.652e+03 5.220e-11
 31.41938    220.6 8.659e+03 5.713e-11
 31.45856    222.8 8.671e+03 6.521e-11
 31.49775    225.0 8.696e+03 7.711e-11
 31.53694    227.1 8.729e+03 9.347e-11
 31.55982    229.2 8.793e+03 1.153e-10
 31.57941    229.6 8.940e+03 1.205e-10
 31.60786    231.6 9.092e+03 1.501e-10
 31.62745    232.5 9.070e+03 1.360e-10
 31.65450    234.5 9.309e+03 1.763e-10
 31.69369    236.4 9.643e+03 2.343e-10
 31.73287    237.8 9.963e+03 3.041e-10
 31.76217    238.1 1.007e+04 3.411e-10
 31.78166    238.6 1.019e+04 3.846e-10
 31.80126    239.3 1.036e+04 4.580e-10
 31.82085    240.2 1.055e+04 5.437e-10
 31.83493    241.1 1.073e+04 6.137e-10
 31.84473    240.8 1.103e+04 7.133e-10
 31.86004    241.3 1.138e+04 8.095e-10
 31.87963    241.3 1.177e+04 9.048e-10
 31.89922    241.2 1.217e+04 1.025e-09
 31.91882    240.9 1.257e+04 1.218e-09
 31.93841    240.2 1.303e+04 1.580e-09
 31.95801    239.5 1.363e+04 2.253e-09
 31.97760    239.0 1.431e+04 3.393e-09
 31.99719    238.8 1.502e+04 4.888e-09
 32.01679    238.4 1.567e+04 5.977e-09
 32.03638    237.2 1.586e+04 6.021e-09
 32.05597    235.5 1.585e+04 5.649e-09
 32.07557    233.4 1.556e+04 4.262e-09
 32.09516    231.0 1.476e+04 2.512e-09
 32.11025    227.9 1.329e+04 1.254e-09
 32.12004    225.8 1.199e+04 9.184e-10
 32.13435    223.3 1.060e+04 7.074e-10
 32.14649    223.0 1.050e+04 7.011e-10
 32.15629    223.1 1.063e+04 7.441e-10
 32.17354    223.1 1.063e+04 7.463e-10
 32.19313    223.2 1.064e+04 7.640e-10
 32.21272    223.4 1.073e+04 8.235e-10
 32.23232    223.6 1.088e+04 9.297e-10
 32.25191    224.0 1.107e+04 1.082e-09
 32.27150    224.5 1.130e+04 1.266e-09
 32.29110    225.2 1.155e+04 1.444e-09
 32.31069    225.6 1.179e+04 1.544e-09
 32.33028    225.7 1.195e+04 1.579e-09
 32.34988    225.5 1.226e+04 1.647e-09
 32.36947    224.3 1.319e+04 1.890e-09
 32.38556    220.9 1.465e+04 2.520e-09
 32.39536    222.7 1.577e+04 2.712e-09
 32.40866    219.0 1.720e+04 3.410e-09
 32.42331    214.9 1.829e+04 5.288e-09
 32.43305    212.1 1.827e+04 7.021e-09
 32.44285    209.4 1.820e+04 9.444e-09
 32.45265    207.1 1.823e+04 1.218e-08
 32.46244    205.4 1.851e+04 1.523e-08
 32.47224    204.0 1.892e+04 1.826e-08
 32.48204    202.8 1.939e+04 2.094e-08
 32.49183    201.9 1.992e+04 2.282e-08
 32.50163    201.1 2.019e+04 2.271e-08
 32.51143    200.3 2.039e+04 2.119e-08
 32.52122    199.4 2.066e+04 1.776e-08
 32.52802    198.1 2.096e+04 1.277e-08
 32.53292    198.8 2.207e+04 1.750e-08
 32.54577    195.9 2.213e+04 1.076e-08
 32.56541    189.0 1.965e+04 4.028e-09
 32.58500    183.0 1.473e+04 3.834e-09
 32.60460    182.1 1.457e+04 4.025e-09
 32.62419    182.3 1.473e+04 4.418e-09
 32.64378    182.8 1.498e+04 4.752e-09
 32.66088    182.8 1.539e+04 4.670e-09
 32.67067    180.1 1.429e+04 2.937e-09
 32.67552    179.2 1.410e+04 2.648e-09
 32.68532    178.7 1.384e+04 2.426e-09
 32.70256    176.0 1.382e+04 2.423e-09
 32.72216    171.5 1.393e+04 2.529e-09
 32.74175    165.4 1.458e+04 3.108e-09
 32.76134    158.6 1.565e+04 4.386e-09
 32.78094    152.5 1.613e+04 5.712e-09
 32.80053    147.4 1.605e+04 5.846e-09
 32.82013    143.7 1.565e+04 5.498e-09
 32.83972    141.4 1.478e+04 4.296e-09
 32.85931    139.9 1.371e+04 2.857e-09
 32.87891    138.2 1.263e+04 1.762e-09
 32.89850    136.2 1.164e+04 1.121e-09
 32.91809    134.5 1.080e+04 8.216e-10
 32.93619    134.0 1.031e+04 7.261e-10
 32.94599    136.0 1.080e+04 8.488e-10
 32.95728    135.8 1.044e+04 7.804e-10
 32.97687    136.0 1.036e+04 7.704e-10
 32.99647    136.2 1.036e+04 7.710e-10
 33.01606    136.4 1.039e+04 7.780e-10
 33.03566    136.6 1.046e+04 7.930e-10
 33.05525    136.7 1.052e+04 8.076e-10
 33.07484    136.8 1.054e+04 8.127e-10
 33.09444    136.8 1.054e+04 8.054e-10
 33.11403    136.8 1.051e+04 7.846e-10
 33.13362    136.7 1.046e+04 7.586e-10
 33.15322    136.6 1.041e+04 7.377e-10
 33.17281    136.4 1.042e+04 7.345e-10
 33.19241    136.2 1.044e+04 7.409e-10
 33.20456    136.0 1.052e+04 7.648e-10
 33.21386    135.3 1.059e+04 7.774e-10
 33.22130    136.0 1.066e+04 7.978e-10
 33.23159    135.8 1.076e+04 8.368e-10
 33.25119    135.6 1.093e+04 9.003e-10
 33.27078    135.5 1.114e+04 9.916e-10
 33.29037    135.4 1.137e+04 1.108e-09
 33.30997    135.4 1.162e+04 1.249e-09
 33.32956    135.3 1.192e+04 1.430e-09
 33.34915    135.1 1.234e+04 1.686e-09
 33.36875    134.7 1.293e+04 2.073e-09
 33.38834    133.9 1.358e+04 2.646e-09
 33.40794    133.2 1.416e+04 3.418e-09
 33.42753    132.8 1.465e+04 4.335e-09
 33.44712    132.5 1.500e+04 4.896e-09
 33.46672    132.1 1.504e+04 4.855e-09
 33.48631    131.4 1.492e+04 4.457e-09
 33.49661    130.5 1.449e+04 3.669e-09
 33.50641    129.9 1.400e+04 2.691e-09
 33.52550    128.7 1.321e+04 2.222e-09
 33.54509    127.7 1.245e+04 1.857e-09
 33.56468    127.4 1.221e+04 1.675e-09
 33.58428    127.1 1.183e+04 1.437e-09
 33.61377    127.2 1.158e+04 1.270e-09
 33.65305    127.4 1.084e+04 8.808e-10
 33.69224    128.2 1.009e+04 5.643e-10
 33.72399    129.2 9.363e+03 3.478e-10
 33.74358    129.4 9.273e+03 3.392e-10
 33.76233    130.7 8.773e+03 2.247e-10
 33.78192    130.4 8.295e+03 1.334e-10
 33.80980    131.7 8.065e+03 9.729e-11
 33.84899    133.3 8.006e+03 8.973e-11
 33.88817    135.1 8.001e+03 9.018e-11
 33.92736    136.9 8.007e+03 9.348e-11
 33.96655    138.7 8.064e+03 1.090e-10
 34.00574    140.4 8.399e+03 1.526e-10
 34.04492    141.9 8.929e+03 2.323e-10
 34.08411    142.2 9.396e+03 3.312e-10
 34.11340    142.1 9.656e+03 3.957e-10
 34.13290    142.1 9.969e+03 4.740e-10
 34.15249    142.1 1.034e+04 5.804e-10
 34.17209    142.0 1.067e+04 6.853e-10
 34.19168    141.8 1.098e+04 7.784e-10
 34.21127    141.4 1.129e+04 8.658e-10
 34.23087    140.9 1.163e+04 9.691e-10
 34.25046    140.3 1.202e+04 1.096e-09
 34.26262    139.7 1.250e+04 1.263e-09
 34.27242    139.8 1.168e+04 1.105e-09
 34.28965    139.4 1.188e+04 1.205e-09
 34.30924    139.2 1.223e+04 1.311e-09
 34.32256    139.1 1.269e+04 1.448e-09
 34.33235    138.7 1.461e+04 2.480e-09
 34.34843    138.7 1.508e+04 3.062e-09
 34.36802    138.8 1.556e+04 3.795e-09
 34.38762    139.2 1.603e+04 4.653e-09
 34.40721    139.8 1.652e+04 5.519e-09
 34.42681    140.6 1.707e+04 5.697e-09
 34.44640    141.2 1.712e+04 5.614e-09
 34.46599    141.8 1.717e+04 5.213e-09
 34.48559    142.5 1.702e+04 4.382e-09
 34.50518    143.1 1.654e+04 3.437e-09
 34.52477    143.4 1.580e+04 2.666e-09
 34.54437    143.6 1.497e+04 2.286e-09
 34.56396    144.1 1.474e+04 2.288e-09
 34.58355    144.7 1.480e+04 2.420e-09
 34.59787    145.1 1.517e+04 2.947e-09
 34.60767    145.4 1.685e+04 5.228e-09
 34.62274    145.5 1.695e+04 6.198e-09
 34.64234    146.1 1.762e+04 8.657e-09
 34.66193    146.7 1.860e+04 1.275e-08
 34.68152    146.9 1.955e+04 1.799e-08
 34.69617    146.5 1.998e+04 2.073e-08
 34.70592    146.1 2.041e+04 2.296e-08
 34.71571    145.4 2.075e+04 2.387e-08
 34.72551    144.4 2.074e+04 2.360e-08
 34.73531    143.4 2.060e+04 2.222e-08
 34.74033    142.2 2.030e+04 1.958e-08
 34.74523    141.3 1.938e+04 1.543e-08
 34.75985    140.5 1.992e+04 1.439e-08
 34.77949    138.7 1.823e+04 8.783e-09
 34.79165    137.5 1.648e+04 5.697e-09
 34.80145    137.5 1.548e+04 4.668e-09
 34.81868    137.4 1.489e+04 3.508e-09
 34.83827    137.5 1.453e+04 2.728e-09
 34.85787    137.6 1.423e+04 2.181e-09
 34.87318    137.8 1.394e+04 1.815e-09
 34.88298    137.7 1.365e+04 1.670e-09
 34.89705    137.9 1.335e+04 1.438e-09
 34.91665    138.2 1.314e+04 1.290e-09
 34.94613    138.2 1.297e+04 1.090e-09
 34.98542    138.1 1.276e+04 9.702e-10
 35.02461    138.2 1.244e+04 8.230e-10
 35.06379    138.6 1.198e+04 6.364e-10
 35.10298    139.2 1.140e+04 4.435e-10
 35.14217    139.9 1.084e+04 2.930e-10
 35.18136    140.4 1.038e+04 1.884e-10
 35.22054    140.9 1.008e+04 1.269e-10
 35.25973    141.4 9.941e+03 9.737e-11
 35.29892    142.0 9.723e+03 9.014e-11
 35.33811    142.8 9.596e+03 8.940e-11
 35.37729    143.6 9.545e+03 8.873e-11
 35.41421    144.5 9.496e+03 8.685e-11
 35.43380    144.4 9.470e+03 9.966e-11
 35.45567    145.3 9.395e+03 9.301e-11
 35.49485    146.3 9.339e+03 8.412e-11
 35.53404    147.2 9.282e+03 7.616e-11
 35.57323    148.1 9.243e+03 7.251e-11
 35.61242    149.1 9.240e+03 7.260e-11
 35.65160    150.1 9.243e+03 7.375e-11
 35.69079    151.1 9.247e+03 7.604e-11
 35.72998    152.0 9.263e+03 7.891e-11
 35.76917    152.7 9.291e+03 8.298e-11
 35.80835    153.4 9.332e+03 9.053e-11
 35.84011    154.1 9.388e+03 1.068e-10
 35.85971    154.0 9.321e+03 9.756e-11
 35.88673    154.8 9.482e+03 1.327e-10
 35.92591    155.4 9.720e+03 1.956e-10
 35.96484    155.5 9.977e+03 2.927e-10
 35.98443    157.0 9.885e+03 2.306e-10
 36.00429    157.0 1.020e+04 3.250e-10
 36.03358    156.5 1.039e+04 4.138e-10
 36.05308    156.2 1.059e+04 5.575e-10
 36.07267    156.2 1.080e+04 7.444e-10
 36.09227    156.2 1.098e+04 8.993e-10
 36.11186    156.2 1.107e+04 9.202e-10
 36.13145    156.0 1.108e+04 9.082e-10
 36.15105    155.6 1.109e+04 8.663e-10
 36.17064    155.2 1.107e+04 8.145e-10
 36.19023    154.7 1.105e+04 7.758e-10
 36.20983    154.3 1.102e+04 7.589e-10
 36.22942    154.0 1.102e+04 7.588e-10
 36.24901    153.8 1.104e+04 7.647e-10
 36.25955    153.7 1.113e+04 7.862e-10
 36.26935    154.2 1.116e+04 9.666e-10
 36.28820    154.1 1.120e+04 9.794e-10
 36.30780    154.1 1.132e+04 1.023e-09
 36.32739    154.1 1.152e+04 1.120e-09
 36.34698    153.9 1.185e+04 1.301e-09
 36.36658    153.7 1.238e+04 1.602e-09
 36.37875    153.5 1.311e+04 2.070e-09
 36.38854    153.2 1.345e+04 2.220e-09
 36.40576    152.6 1.424e+04 2.935e-09
 36.42536    151.5 1.515e+04 4.019e-09
 36.44495    149.5 1.621e+04 5.766e-09
 36.46454    147.0 1.732e+04 8.669e-09
 36.48414    144.5 1.839e+04 1.316e-08
 36.50373    142.3 1.936e+04 1.762e-08
 36.52333    139.7 1.963e+04 1.805e-08
 36.53486    137.2 1.944e+04 1.646e-08
 36.53971    138.3 2.044e+04 2.091e-08
 36.54772    137.2 2.022e+04 1.915e-08
 36.56246    136.2 1.970e+04 1.523e-08
 36.58211    134.6 1.856e+04 9.526e-09
 36.60170    132.6 1.712e+04 5.682e-09
 36.62129    130.5 1.551e+04 3.732e-09
 36.64089    129.3 1.435e+04 2.925e-09
 36.66048    129.3 1.390e+04 2.600e-09
 36.68007    129.6 1.381e+04 2.365e-09
 36.69967    129.8 1.379e+04 2.102e-09
 36.71926    129.8 1.376e+04 1.865e-09
 36.73886    129.4 1.362e+04 1.757e-09
 36.75845    128.7 1.355e+04 1.775e-09
 36.77804    127.9 1.345e+04 1.871e-09
 36.79764    127.4 1.339e+04 2.063e-09
 36.81018    127.2 1.341e+04 2.272e-09
 36.81997    128.0 1.341e+04 2.186e-09
 36.83682    127.7 1.350e+04 2.419e-09
 36.85642    127.4 1.369e+04 2.472e-09
 36.87601    126.7 1.386e+04 2.421e-09
 36.89560    124.9 1.408e+04 2.457e-09
 36.90778    121.0 1.476e+04 2.724e-09
 36.91758    121.1 1.408e+04 2.191e-09
 36.93479    115.1 1.503e+04 2.542e-09
 36.95439    107.0 1.699e+04 3.935e-09
 36.97398    100.0 1.782e+04 6.391e-09
 36.99357     95.4 1.703e+04 7.888e-09
 37.01317     92.6 1.665e+04 7.588e-09
 37.03276     90.9 1.582e+04 6.298e-09
 37.05235     89.6 1.494e+04 4.341e-09
 37.07195     87.9 1.395e+04 2.627e-09
 37.08549     85.9 1.278e+04 1.570e-09
 37.09529     85.2 1.275e+04 1.563e-09
 37.11114     83.3 1.167e+04 1.046e-09
 37.13073     82.6 1.100e+04 8.003e-10
 37.15032     82.6 1.070e+04 6.754e-10
 37.16992     82.7 1.052e+04 5.874e-10
 37.18951     82.9 1.035e+04 5.177e-10
 37.20910     83.1 1.016e+04 4.740e-10
 37.22870     83.3 1.000e+04 4.666e-10
 37.24829     83.8 9.995e+03 4.702e-10
 37.26788     84.3 1.001e+04 4.964e-10
 37.28748     84.7 1.011e+04 5.581e-10
 37.30707     85.2 1.026e+04 6.407e-10
 37.32667     85.8 1.043e+04 7.235e-10
 37.34626     86.3 1.056e+04 7.738e-10
 37.36080     86.6 1.058e+04 7.770e-10
 37.37060     86.9 1.093e+04 9.349e-10
 37.38545     87.1 1.089e+04 9.114e-10
 37.40504     87.4 1.073e+04 8.454e-10
 37.42463     87.6 1.052e+04 7.588e-10
 37.43681     87.8 1.030e+04 6.725e-10
 37.44661     87.9 1.052e+04 7.537e-10
 37.46382     88.0 1.031e+04 6.728e-10
 37.48341     88.1 1.012e+04 6.102e-10
 37.50301     88.3 9.967e+03 5.670e-10
 37.52260     88.5 9.849e+03 5.395e-10
 37.54220     88.8 9.786e+03 5.299e-10
 37.56179     89.2 9.761e+03 5.279e-10
 37.58138     89.5 9.749e+03 5.297e-10
 37.60098     90.0 9.733e+03 5.323e-10
 37.62057     90.5 9.721e+03 5.325e-10
 37.63612     91.1 9.718e+03 5.295e-10
 37.64592     91.3 1.001e+04 6.354e-10
 37.65976     91.9 1.008e+04 6.481e-10
 37.67935     92.4 1.017e+04 6.647e-10
 37.69894     92.8 1.029e+04 6.894e-10
 37.71854     93.3 1.044e+04 7.279e-10
 37.73813     93.7 1.061e+04 7.842e-10
 37.75773     94.0 1.078e+04 8.546e-10
 37.77732     94.5 1.093e+04 9.305e-10
 37.79691     95.0 1.106e+04 1.007e-09
 37.81651     95.6 1.121e+04 1.088e-09
 37.83610     95.9 1.143e+04 1.196e-09
 37.85569     95.9 1.184e+04 1.374e-09
 37.87529     95.6 1.273e+04 1.764e-09
 37.89488     94.8 1.406e+04 2.528e-09
 37.91143     93.8 1.521e+04 3.384e-09
 37.92123     94.2 1.484e+04 2.952e-09
 37.92912     92.8 1.609e+04 3.852e-09
 37.93887     91.5 1.736e+04 4.980e-09
 37.94867     90.3 1.846e+04 6.638e-09
 37.95846     89.2 1.910e+04 8.665e-09
 37.96575     88.3 1.944e+04 1.100e-08
 37.97064     88.6 2.033e+04 1.824e-08
 37.97806     88.1 2.053e+04 2.192e-08
 37.98785     87.3 2.106e+04 2.546e-08
 37.99765     83.5 2.329e+04 3.780e-08
 38.00745     75.2 2.722e+04 7.255e-08
 38.01477     66.3 2.850e+04 1.403e-07
 38.01964     58.9 2.527e+04 4.145e-07
 38.02454     53.3 2.214e+04 1.032e-06
 38.02944     50.0 2.071e+04 1.545e-06
 38.03434     47.0 2.062e+04 1.505e-06
 38.03924     45.8 2.067e+04 1.383e-06
 38.04661     44.4 2.101e+04 9.145e-07
 38.05389     44.3 2.254e+04 2.546e-07
 38.05879     44.6 2.395e+04 1.967e-07
 38.06623     41.7 2.831e+04 3.342e-08
 38.07602     34.3 2.884e+04 6.683e-09
 38.09077     20.3 1.889e+04 3.142e-09
 38.11041     15.1 1.261e+04 1.601e-09
 38.13000     15.5 1.189e+04 1.337e-09
 38.14960     16.4 1.153e+04 1.224e-09
 38.16919     17.4 1.137e+04 1.183e-09
 38.18675     18.5 1.140e+04 1.204e-09
 38.19654     18.5 1.131e+04 1.111e-09
 38.20838     19.4 1.133e+04 1.153e-09
 38.22797     20.5 1.132e+04 1.174e-09
 38.24757     21.7 1.134e+04 1.175e-09
 38.26716     22.9 1.126e+04 1.135e-09
 38.28675     24.0 1.124e+04 1.075e-09
 38.30635     24.9 1.126e+04 1.008e-09
 38.32594     25.6 1.127e+04 9.617e-10
 38.34553     25.8 1.145e+04 9.833e-10
 38.36513     25.8 1.167e+04 1.033e-09
 38.38472     25.6 1.191e+04 1.145e-09
 38.40432     25.6 1.213e+04 1.307e-09
 38.42391     25.8 1.226e+04 1.472e-09
 38.44350     26.1 1.234e+04 1.589e-09
 38.46206     26.3 1.230e+04 1.599e-09
 38.47186     25.6 1.211e+04 1.451e-09
 38.48269     25.6 1.198e+04 1.418e-09
 38.49488     25.6 1.175e+04 1.320e-09
 38.50467     25.8 1.213e+04 1.497e-09
 38.52188     25.5 1.170e+04 1.260e-09
 38.54147     25.2 1.133e+04 1.082e-09
 38.56107     24.9 1.118e+04 9.689e-10
 38.58066     24.8 1.120e+04 9.103e-10
 38.60025     24.6 1.130e+04 9.050e-10
 38.61985     24.4 1.142e+04 9.313e-10
 38.63944     24.3 1.148e+04 1.018e-09
 38.65903     24.5 1.145e+04 1.124e-09
 38.67863     25.0 1.144e+04 1.255e-09
 38.69822     25.9 1.151e+04 1.365e-09
 38.71781     26.8 1.171e+04 1.455e-09
 38.73737     27.8 1.183e+04 1.441e-09
 38.75697     28.5 1.191e+04 1.505e-09
 38.77660     29.2 1.193e+04 1.445e-09
 38.79619     29.5 1.204e+04 1.364e-09
 38.81578     29.8 1.219e+04 1.354e-09
 38.83538     30.0 1.232e+04 1.351e-09
 38.85497     30.3 1.241e+04 1.359e-09
 38.87456     30.8 1.241e+04 1.386e-09
 38.89416     31.5 1.236e+04 1.363e-09
 38.91375     32.1 1.235e+04 1.311e-09
 38.93334     32.8 1.252e+04 1.243e-09
 38.95294     33.6 1.272e+04 1.100e-09
 38.97253     34.3 1.276e+04 9.192e-10
 38.99213     34.8 1.253e+04 7.215e-10
 39.01172     35.4 1.194e+04 5.536e-10
 39.02248     35.8 1.133e+04 4.683e-10
 39.02488     36.1 1.180e+04 5.651e-10
 39.03370     33.0 1.077e+04 4.395e-10
 39.06080     34.8 1.039e+04 3.011e-10
 39.10009     36.9 1.008e+04 1.930e-10
 39.13927     38.9 9.799e+03 1.391e-10
 39.17846     41.1 9.385e+03 1.246e-10
 39.21765     43.7 9.308e+03 1.262e-10
 39.25684     46.4 9.237e+03 1.368e-10
 39.28820     49.2 9.278e+03 1.523e-10
 39.30779     49.0 9.211e+03 1.448e-10
 39.33521     51.9 9.296e+03 1.531e-10
 39.37440     54.7 9.373e+03 1.540e-10
 39.41358     57.2 9.458e+03 1.576e-10
 39.45277     59.3 9.644e+03 1.700e-10
 39.49196     61.0 9.961e+03 2.210e-10
 39.53115     62.6 1.023e+04 3.403e-10
 39.57033     64.4 1.049e+04 5.007e-10
 39.60952     66.7 1.078e+04 6.263e-10
 39.63881     67.8 1.079e+04 5.995e-10
 39.65831     68.3 1.075e+04 5.772e-10
 39.67790     69.4 1.062e+04 4.893e-10
 39.69750     70.0 1.046e+04 4.211e-10
 39.72698     71.7 1.035e+04 3.444e-10
 39.76627     73.0 9.905e+03 2.143e-10
 39.80546     73.9 9.281e+03 1.408e-10
 39.83882     75.1 8.780e+03 1.187e-10
 39.85842     76.2 9.383e+03 1.683e-10
 39.88383     77.9 9.151e+03 1.628e-10
 39.92302     80.0 9.132e+03 1.744e-10
 39.96221     82.2 9.262e+03 2.112e-10
 40.00139     84.4 9.511e+03 2.637e-10
 40.04058     86.4 9.745e+03 3.207e-10
 40.07237     88.1 9.874e+03 3.640e-10
 40.09196     87.7 9.374e+03 2.472e-10
 40.11896     89.7 9.482e+03 2.739e-10
 40.15814     91.5 9.546e+03 2.910e-10
 40.19733     93.2 9.652e+03 2.991e-10
 40.23652     94.9 9.699e+03 2.985e-10
 40.27570     96.7 9.711e+03 2.911e-10
 40.31489     98.7 9.667e+03 2.702e-10
 40.35408    100.9 9.574e+03 2.432e-10
 40.38945    103.2 9.488e+03 2.172e-10
 40.40905    102.9 9.757e+03 2.660e-10
 40.43245    105.2 9.629e+03 2.206e-10
 40.47164    107.6 9.543e+03 1.941e-10
 40.51083    110.0 9.447e+03 1.885e-10
 40.55002    112.7 9.441e+03 1.885e-10
 40.58920    115.3 9.433e+03 1.899e-10
 40.62839    118.0 9.432e+03 1.946e-10
 40.66758    120.6 9.491e+03 2.059e-10
 40.70677    123.3 9.647e+03 2.285e-10
 40.74595    126.0 9.919e+03 2.680e-10
 40.78514    127.8 1.011e+04 3.082e-10
 40.81443    128.5 1.021e+04 3.410e-10
 40.83393    129.5 1.035e+04 3.963e-10
 40.85352    130.8 1.061e+04 4.949e-10
 40.87312    132.1 1.095e+04 6.237e-10
 40.89271    133.4 1.135e+04 7.691e-10
 40.91230    134.3 1.179e+04 9.324e-10
 40.93190    134.4 1.226e+04 1.139e-09
 40.94968    134.2 1.291e+04 1.497e-09
 40.95948    135.6 1.264e+04 1.297e-09
 40.97108    134.8 1.394e+04 2.013e-09
 40.99068    133.8 1.526e+04 3.348e-09
 41.00532    132.7 1.628e+04 4.860e-09
 41.01507    132.2 1.665e+04 5.843e-09
 41.02487    131.7 1.756e+04 7.918e-09
 41.03467    131.4 1.795e+04 9.362e-09
 41.04941    131.8 1.888e+04 1.179e-08
 41.06905    130.9 1.979e+04 1.380e-08
 41.08865    129.5 2.000e+04 1.366e-08
 41.10824    127.2 1.995e+04 1.256e-08
 41.12783    124.5 1.975e+04 1.123e-08
 41.14003    121.6 1.995e+04 1.151e-08
 41.14488    121.8 1.997e+04 1.233e-08
 41.15223    119.8 2.047e+04 1.356e-08
 41.16202    117.5 2.131e+04 1.658e-08
 41.17182    115.3 2.184e+04 2.131e-08
 41.18162    113.6 2.183e+04 2.787e-08
 41.19141    112.6 2.178e+04 3.627e-08
 41.20121    112.1 2.148e+04 4.729e-08
 41.21101    111.6 2.116e+04 5.671e-08
 41.22081    110.8 2.114e+04 5.787e-08
 41.22980    109.8 2.111e+04 5.559e-08
 41.23469    110.1 2.111e+04 6.334e-08
 41.24040    108.7 2.120e+04 5.323e-08
 41.25020    107.3 2.131e+04 3.814e-08
 41.25999    105.7 2.157e+04 2.469e-08
 41.26979    103.5 2.180e+04 1.531e-08
 41.27959    101.0 2.147e+04 9.459e-09
 41.28938     98.8 2.037e+04 6.353e-09
 41.29918     97.2 1.883e+04 4.624e-09
 41.30898     96.2 1.733e+04 3.580e-09
 41.32372     95.2 1.579e+04 2.571e-09
 41.34336     95.3 1.495e+04 2.262e-09
 41.36296     95.4 1.434e+04 1.954e-09
 41.38255     95.4 1.387e+04 1.643e-09
 41.40214     95.1 1.343e+04 1.390e-09
 41.42174     94.7 1.303e+04 1.216e-09
 41.44133     94.1 1.265e+04 1.109e-09
 41.46093     93.5 1.237e+04 1.062e-09
 41.48052     93.2 1.226e+04 1.045e-09
 41.50011     92.8 1.225e+04 1.038e-09
 41.51011     92.3 1.227e+04 1.035e-09
 41.51990     92.5 1.272e+04 1.279e-09
 41.53930     91.7 1.268e+04 1.189e-09
 41.55889     90.9 1.263e+04 1.112e-09
 41.57849     90.2 1.257e+04 1.047e-09
 41.59808     89.7 1.256e+04 9.910e-10
 41.61767     89.2 1.257e+04 9.453e-10
 41.63727     88.7 1.259e+04 9.108e-10
 41.65686     88.2 1.264e+04 9.125e-10
 41.66907     87.5 1.280e+04 9.523e-10
 41.67886     86.6 1.274e+04 9.386e-10
 41.69605     85.7 1.295e+04 1.111e-09
 41.71564     84.7 1.320e+04 1.469e-09
 41.73524     84.3 1.355e+04 2.095e-09
 41.75483     84.5 1.421e+04 3.085e-09
 41.77442     84.8 1.494e+04 4.409e-09
 41.78542     84.5 1.585e+04 5.875e-09
 41.79522     85.0 1.584e+04 5.857e-09
 41.81361     84.0 1.725e+04 7.896e-09
 41.83320     81.2 1.902e+04 1.168e-08
 41.85280     78.3 2.017e+04 1.691e-08
 41.86744     76.8 2.064e+04 2.050e-08
 41.87719     75.4 2.095e+04 2.519e-08
 41.88699     74.5 2.085e+04 2.800e-08
 41.89679     73.6 2.068e+04 2.843e-08
 41.90658     73.1 2.036e+04 2.626e-08
 41.91638     72.9 2.014e+04 2.473e-08
 41.93112     73.1 1.961e+04 1.965e-08
 41.95077     73.0 1.846e+04 1.148e-08
 41.97036     72.1 1.701e+04 5.903e-09
 41.98995     70.3 1.529e+04 3.135e-09
 42.00955     68.9 1.371e+04 1.984e-09
 42.02914     68.8 1.280e+04 1.557e-09
 42.04873     69.4 1.244e+04 1.377e-09
 42.06073     70.5 1.225e+04 1.273e-09
 42.07053     70.6 1.236e+04 1.263e-09
 42.08792     71.8 1.222e+04 1.203e-09
 42.10752     72.8 1.213e+04 1.170e-09
 42.12711     73.8 1.205e+04 1.146e-09
 42.14670     74.8 1.199e+04 1.131e-09
 42.16630     75.7 1.197e+04 1.125e-09
 42.18589     76.4 1.197e+04 1.124e-09
 42.19810     77.2 1.200e+04 1.140e-09
 42.20790     76.9 1.149e+04 8.608e-10
 42.22508     77.5 1.164e+04 9.371e-10
 42.24467     77.6 1.190e+04 1.081e-09
 42.26426     77.6 1.224e+04 1.331e-09
 42.28386     77.5 1.268e+04 1.738e-09
 42.30345     77.6 1.322e+04 2.348e-09
 42.32305     77.8 1.379e+04 3.129e-09
 42.33605     78.2 1.433e+04 3.944e-09
 42.34584     78.2 1.499e+04 4.940e-09
 42.36223     78.4 1.542e+04 5.549e-09
 42.38183     78.3 1.550e+04 5.539e-09
 42.40142     78.1 1.544e+04 5.319e-09
 42.42101     77.9 1.523e+04 4.739e-09
 42.44061     77.5 1.489e+04 4.051e-09
 42.46020     77.2 1.449e+04 3.536e-09
 42.47980     77.1 1.414e+04 3.199e-09
 42.49939     77.3 1.384e+04 2.944e-09
 42.51898     77.8 1.358e+04 2.714e-09
 42.53858     78.6 1.334e+04 2.488e-09
 42.55817     79.4 1.310e+04 2.252e-09
 42.57776     80.2 1.283e+04 2.005e-09
 42.59736     81.1 1.256e+04 1.770e-09
 42.61136     81.9 1.231e+04 1.566e-09
 42.62116     81.9 1.226e+04 1.512e-09
 42.63654     82.8 1.201e+04 1.337e-09
 42.65614     83.6 1.180e+04 1.202e-09
 42.67573     84.4 1.164e+04 1.102e-09
 42.69533     85.2 1.149e+04 1.028e-09
 42.71492     86.0 1.139e+04 9.823e-10
 42.72713     86.9 1.135e+04 9.629e-10
 42.73693     86.7 1.145e+04 1.012e-09
 42.75411     87.4 1.148e+04 1.016e-09
 42.77370     88.1 1.155e+04 1.032e-09
 42.79329     88.5 1.168e+04 1.070e-09
 42.81289     88.8 1.191e+04 1.150e-09
 42.83248     88.7 1.232e+04 1.319e-09
 42.85207     88.3 1.297e+04 1.637e-09
 42.87167     87.8 1.372e+04 2.168e-09
 42.88668     87.3 1.446e+04 2.935e-09
 42.89647     88.9 1.314e+04 1.681e-09
 42.91086     88.6 1.400e+04 2.422e-09
 42.93045     88.3 1.475e+04 3.393e-09
 42.95004     88.1 1.531e+04 4.407e-09
 42.96964     88.0 1.558e+04 5.118e-09
 42.98923     87.8 1.558e+04 5.271e-09
 43.00882     87.7 1.549e+04 5.177e-09
 43.02842     87.8 1.509e+04 4.720e-09
 43.04801     87.8 1.454e+04 3.702e-09
 43.06760     87.8 1.395e+04 2.653e-09
 43.08720     87.5 1.334e+04 1.785e-09
 43.10679     86.9 1.262e+04 1.158e-09
 43.12639     86.2 1.176e+04 7.600e-10
 43.14598     85.4 1.099e+04 5.525e-10
 43.16199     84.7 1.054e+04 4.714e-10
 43.17179     87.0 1.172e+04 7.614e-10
 43.18517     86.1 1.109e+04 5.924e-10
 43.20476     85.5 1.075e+04 5.331e-10
 43.22435     85.3 1.053e+04 5.244e-10
 43.24395     85.4 1.053e+04 5.500e-10
 43.25616     85.6 1.054e+04 5.786e-10
 43.26596     86.4 1.055e+04 5.719e-10
 43.28313     86.8 1.065e+04 6.276e-10
 43.30273     87.0 1.069e+04 6.445e-10
 43.33222     88.0 1.095e+04 7.261e-10
 43.37150     88.4 1.107e+04 7.631e-10
 43.41069     89.1 1.109e+04 7.310e-10
 43.44988     90.0 1.105e+04 6.448e-10
 43.48906     90.5 1.101e+04 5.453e-10
 43.52825     91.2 1.112e+04 4.990e-10
 43.56744     91.1 1.150e+04 5.678e-10
 43.59673     90.3 1.201e+04 7.634e-10
 43.61623     90.5 1.235e+04 9.561e-10
 43.63582     91.0 1.251e+04 1.127e-09
 43.65541     91.5 1.284e+04 1.412e-09
 43.67501     91.8 1.323e+04 1.758e-09
 43.69460     92.2 1.358e+04 2.146e-09
 43.71262     92.5 1.388e+04 2.364e-09
 43.72241     92.8 1.323e+04 1.738e-09
 43.73379     92.9 1.354e+04 1.890e-09
 43.75338     92.9 1.355e+04 1.832e-09
 43.77298     92.7 1.353e+04 1.755e-09
 43.78519     92.2 1.344e+04 1.614e-09
 43.79499     93.9 1.327e+04 1.502e-09
 43.81216     93.3 1.326e+04 1.406e-09
 43.83176     92.6 1.329e+04 1.377e-09
 43.85135     91.6 1.353e+04 1.435e-09
 43.87094     90.1 1.422e+04 1.689e-09
 43.89054     88.1 1.507e+04 2.315e-09
 43.91013     86.1 1.562e+04 3.282e-09
 43.92973     84.5 1.570e+04 4.297e-09
 43.94932     83.6 1.550e+04 4.870e-09
 43.96891     83.3 1.520e+04 4.407e-09
 43.98793     83.1 1.486e+04 3.485e-09
 43.99773     84.5 1.596e+04 5.398e-09
 44.00810     84.3 1.566e+04 4.110e-09
 44.02769     83.5 1.539e+04 2.779e-09
 44.04729     81.5 1.437e+04 1.451e-09
 44.06688     78.6 1.263e+04 7.923e-10
 44.08647     76.7 1.142e+04 6.080e-10
 44.10607     76.6 1.119e+04 5.720e-10
 44.12566     76.9 1.114e+04 5.551e-10
 44.14526     77.4 1.113e+04 5.405e-10
 44.16485     77.8 1.113e+04 5.210e-10
 44.18444     78.1 1.111e+04 4.973e-10
 44.20404     78.4 1.103e+04 4.745e-10
 44.22363     78.6 1.094e+04 4.566e-10
 44.24322     78.8 1.084e+04 4.443e-10
 44.26282     79.0 1.077e+04 4.365e-10
 44.27304     79.2 1.076e+04 4.352e-10
 44.28284     80.4 1.069e+04 4.305e-10
 44.30200     80.6 1.067e+04 4.251e-10
 44.31423     80.7 1.070e+04 4.291e-10
 44.32402     80.8 1.058e+04 3.930e-10
 44.34119     81.0 1.061e+04 4.073e-10
 44.36079     81.2 1.066e+04 4.330e-10
 44.38038     81.3 1.076e+04 4.719e-10
 44.39997     81.4 1.088e+04 5.230e-10
 44.41957     81.6 1.099e+04 5.842e-10
 44.43916     81.9 1.107e+04 6.408e-10
 44.45875     82.4 1.112e+04 6.793e-10
 44.47835     82.9 1.113e+04 6.741e-10
 44.49794     83.3 1.114e+04 6.207e-10
 44.51753     83.5 1.111e+04 5.451e-10
 44.53713     83.8 1.097e+04 4.467e-10
 44.54836     83.8 1.088e+04 4.091e-10
 44.55815     84.6 1.097e+04 4.469e-10
 44.58621     85.2 1.070e+04 3.868e-10
 44.62550     85.8 1.028e+04 3.064e-10
 44.66468     86.5 9.931e+03 2.609e-10
 44.70387     87.6 9.704e+03 2.397e-10
 44.74306     89.0 9.556e+03 2.268e-10
 44.78224     90.6 9.438e+03 2.142e-10
 44.81407     92.3 9.327e+03 1.982e-10
 44.83366     93.1 9.596e+03 2.739e-10
 44.86062     94.8 9.523e+03 2.528e-10
 44.89981     96.4 9.436e+03 2.258e-10
 44.93899     98.1 9.342e+03 1.987e-10
 44.97818     99.8 9.253e+03 1.762e-10
 45.01737    101.5 9.173e+03 1.598e-10
 45.05656    103.4 9.109e+03 1.487e-10
 45.09574    105.3 9.065e+03 1.408e-10
 45.13493    107.2 9.027e+03 1.354e-10
 45.17412    109.2 9.018e+03 1.330e-10
 45.21330    111.2 9.038e+03 1.352e-10
 45.25249    113.1 9.093e+03 1.434e-10
 45.29168    115.0 9.178e+03 1.618e-10
 45.33087    116.8 9.330e+03 1.906e-10
 45.36269    118.5 9.519e+03 2.312e-10
 45.37692    119.0 9.522e+03 2.372e-10
 45.38429    119.6 9.457e+03 2.344e-10
 45.40924    121.2 9.663e+03 2.820e-10
 45.44843    122.8 9.836e+03 3.316e-10
 45.48762    124.4 9.968e+03 3.707e-10
 45.52680    126.0 1.005e+04 3.918e-10
 45.56599    127.9 1.016e+04 4.073e-10
 45.60518    129.2 1.029e+04 4.285e-10
 45.63447    129.9 1.037e+04 4.421e-10
 45.64961    130.9 1.046e+04 4.698e-10
 45.65941    131.5 1.055e+04 5.014e-10
 45.67356    132.4 1.074e+04 5.565e-10
 45.69315    133.4 1.093e+04 6.173e-10
 45.71275    134.2 1.111e+04 6.893e-10
 45.73234    134.9 1.132e+04 7.754e-10
 45.75193    135.5 1.148e+04 8.631e-10
 45.77153    136.2 1.174e+04 9.882e-10
 45.79112    136.8 1.199e+04 1.129e-09
 45.81072    137.3 1.230e+04 1.301e-09
 45.83031    137.6 1.268e+04 1.517e-09
 45.84990    137.7 1.312e+04 1.791e-09
 45.86950    137.7 1.360e+04 2.133e-09
 45.88909    137.7 1.410e+04 2.577e-09
 45.90132    137.6 1.461e+04 3.175e-09
 45.91112    137.4 1.485e+04 3.632e-09
 45.92492    137.2 1.533e+04 4.534e-09
 45.93472    137.1 1.537e+04 4.526e-09
 45.94787    137.1 1.585e+04 5.585e-09
 45.96746    137.1 1.623e+04 6.454e-09
 45.98706    136.8 1.638e+04 6.647e-09
 46.00665    136.3 1.632e+04 6.537e-09
 46.02625    136.1 1.600e+04 5.936e-09
 46.04584    136.1 1.542e+04 4.890e-09
 46.06543    136.0 1.478e+04 3.833e-09
 46.08503    135.8 1.419e+04 3.020e-09
 46.10462    135.7 1.372e+04 2.484e-09
 46.12421    135.6 1.342e+04 2.192e-09
 46.14381    135.7 1.327e+04 2.058e-09
 46.16340    136.1 1.322e+04 2.002e-09
 46.18299    136.5 1.316e+04 1.900e-09
 46.20024    136.7 1.310e+04 1.829e-09
 46.21004    136.1 1.294e+04 1.687e-09
 46.22218    136.5 1.285e+04 1.579e-09
 46.24178    136.9 1.269e+04 1.444e-09
 46.27126    138.0 1.272e+04 1.430e-09
 46.31055    139.0 1.235e+04 1.157e-09
 46.34974    139.9 1.219e+04 1.017e-09
 46.38892    140.6 1.216e+04 9.557e-10
 46.42075    141.1 1.210e+04 8.945e-10
 46.44035    141.0 1.237e+04 1.039e-09
 46.46595    141.5 1.240e+04 1.029e-09
 46.48554    140.9 1.094e+04 5.163e-10
 46.50649    141.5 1.072e+04 4.679e-10
 46.54567    142.3 1.067e+04 4.507e-10
 46.58486    143.2 1.076e+04 4.608e-10
 46.62405    144.0 1.097e+04 4.978e-10
 46.65334    143.6 1.111e+04 5.396e-10
 46.67284    143.6 1.123e+04 6.129e-10
 46.69243    143.9 1.131e+04 6.792e-10
 46.71202    144.3 1.137e+04 7.261e-10
 46.73162    144.8 1.141e+04 7.446e-10
 46.75087    145.2 1.138e+04 7.267e-10
 46.76066    145.3 1.120e+04 6.839e-10
 46.77080    145.7 1.118e+04 6.719e-10
 46.79040    146.1 1.116e+04 6.313e-10
 46.80999    146.5 1.107e+04 5.684e-10
 46.82959    146.8 1.099e+04 4.996e-10
 46.84918    147.0 1.095e+04 4.356e-10
 46.86877    147.0 1.095e+04 3.838e-10
 46.88837    146.9 1.091e+04 3.544e-10
 46.90796    146.9 1.078e+04 3.414e-10
 46.92755    146.8 1.070e+04 3.442e-10
 46.94715    146.7 1.068e+04 3.481e-10
 46.95939    146.5 1.069e+04 3.606e-10
 46.96918    147.0 1.069e+04 3.614e-10
 46.98633    146.2 1.095e+04 4.130e-10
 47.00593    143.1 1.208e+04 6.704e-10
 47.02552    138.2 1.423e+04 1.637e-09
 47.03598    133.9 1.541e+04 3.411e-09
 47.04577    132.1 1.543e+04 3.698e-09
 47.06471    128.8 1.540e+04 4.016e-09
 47.08430    126.4 1.502e+04 3.563e-09
 47.10390    124.7 1.418e+04 2.125e-09
 47.12349    122.0 1.334e+04 1.063e-09
 47.14308    118.1 1.246e+04 6.690e-10
 47.17257    110.7 1.155e+04 6.790e-10
 47.21186    107.3 1.140e+04 7.594e-10
 47.25104    107.0 1.183e+04 1.115e-09
 47.29023    107.1 1.254e+04 1.568e-09
 47.32942    107.2 1.300e+04 1.730e-09
 47.36861    107.1 1.304e+04 1.698e-09
 47.40779    107.1 1.299e+04 1.567e-09
 47.44698    107.6 1.297e+04 1.497e-09
 47.47627    106.9 1.309e+04 1.588e-09
 47.48842    106.4 1.351e+04 1.854e-09
 47.49821    105.1 1.408e+04 2.316e-09
 47.51536    104.2 1.494e+04 3.195e-09
 47.53496    103.8 1.580e+04 4.560e-09
 47.55455    103.7 1.640e+04 5.981e-09
 47.57414    103.4 1.646e+04 6.200e-09
 47.58660    103.2 1.624e+04 5.869e-09
 47.59640    103.2 1.549e+04 4.651e-09
 47.61333    103.2 1.505e+04 4.062e-09
 47.63293    103.0 1.451e+04 3.212e-09
 47.65252    102.3 1.399e+04 2.479e-09
 47.67211    101.1 1.357e+04 2.075e-09
 47.69171    100.0 1.341e+04 2.052e-09
 47.71130     99.2 1.346e+04 2.102e-09
 47.73089     98.5 1.355e+04 2.274e-09
 47.75049     98.1 1.359e+04 2.449e-09
 47.77008     97.9 1.353e+04 2.414e-09
 47.78967     97.8 1.334e+04 2.258e-09
 47.80927     97.5 1.305e+04 1.894e-09
 47.82886     96.7 1.267e+04 1.447e-09
 47.84846     95.3 1.220e+04 1.053e-09
 47.86192     93.5 1.165e+04 7.882e-10
 47.87172     94.7 1.242e+04 9.679e-10
 47.88764     92.2 1.154e+04 6.953e-10
 47.90724     90.2 1.090e+04 6.128e-10
 47.92683     89.2 1.078e+04 6.065e-10
 47.94642     88.8 1.078e+04 6.102e-10
 47.96602     88.5 1.082e+04 6.241e-10
 47.98561     88.2 1.088e+04 6.416e-10
 48.00520     87.9 1.092e+04 6.475e-10
 48.01745     87.7 1.091e+04 6.435e-10
 48.02725     87.2 1.079e+04 6.016e-10
 48.04439     87.1 1.074e+04 5.748e-10
 48.06399     87.0 1.067e+04 5.376e-10
 48.08358     86.9 1.058e+04 4.839e-10
 48.10317     86.5 1.051e+04 4.351e-10
 48.12277     86.1 1.044e+04 4.011e-10
 48.13723     85.4 1.048e+04 4.024e-10
 48.14703     84.8 1.046e+04 3.927e-10
 48.16195     84.6 1.044e+04 3.930e-10
 48.19144     84.7 1.052e+04 4.572e-10
 48.23073     84.7 1.065e+04 5.559e-10
 48.26991     84.8 1.073e+04 6.044e-10
 48.30910     84.8 1.070e+04 5.878e-10
 48.34829     84.7 1.053e+04 5.100e-10
 48.38748     84.8 1.041e+04 4.542e-10
 48.41264     84.5 1.041e+04 4.589e-10
 48.42234     84.2 1.040e+04 4.525e-10
 48.43626     83.8 1.043e+04 4.654e-10
 48.45586     83.4 1.053e+04 5.076e-10
 48.47545     83.0 1.071e+04 5.799e-10
 48.49505     82.8 1.092e+04 6.753e-10
 48.51464     82.5 1.113e+04 7.561e-10
 48.53423     82.2 1.121e+04 7.637e-10
 48.54648     81.6 1.121e+04 7.436e-10
 48.55628     81.1 1.132e+04 7.738e-10
 48.57342     80.0 1.137e+04 7.207e-10
 48.59301     78.1 1.160e+04 6.868e-10
 48.61261     75.0 1.193e+04 7.276e-10
 48.63220     71.3 1.231e+04 8.853e-10
 48.65179     68.4 1.239e+04 1.114e-09
 48.67139     66.0 1.261e+04 1.383e-09
 48.68786     61.9 1.419e+04 1.871e-09
 48.69766     58.4 1.532e+04 2.611e-09
 48.71058     52.8 1.622e+04 3.858e-09
 48.73017     48.7 1.549e+04 3.855e-09
 48.74976     47.9 1.437e+04 3.421e-09
 48.76936     47.9 1.338e+04 2.499e-09
 48.78895     47.6 1.300e+04 1.371e-09
 48.80854     44.3 1.324e+04 5.196e-10
 48.82814     40.8 1.236e+04 2.991e-10
 48.85763     35.8 1.017e+04 2.280e-10
 48.89691     34.4 9.892e+03 2.165e-10
 48.93610     34.1 9.931e+03 2.148e-10
 48.97529     33.9 1.006e+04 2.342e-10
 49.01447     34.3 1.008e+04 2.476e-10
 49.05366     35.0 1.012e+04 2.528e-10
 49.09285     35.7 1.025e+04 2.588e-10
 49.13203     36.1 1.050e+04 2.788e-10
 49.17122     36.0 1.072e+04 3.318e-10
 49.21041     36.2 1.079e+04 4.282e-10
 49.23868     37.2 1.081e+04 4.701e-10
 49.25828     35.5 1.042e+04 3.599e-10
 49.28878     36.1 1.025e+04 3.070e-10
 49.32797     36.3 1.010e+04 2.433e-10
 49.36716     36.2 9.936e+03 1.997e-10
 49.40635     36.2 9.791e+03 1.953e-10
 49.44553     36.5 9.823e+03 2.201e-10
 49.48472     37.3 9.900e+03 2.555e-10
 49.52391     38.4 9.917e+03 2.553e-10
 49.56309     39.6 9.893e+03 2.222e-10
 49.59494     40.6 9.786e+03 1.722e-10
 49.61454     40.4 9.959e+03 2.188e-10
 49.64147     41.3 9.751e+03 1.865e-10
 49.68066     42.4 9.733e+03 1.888e-10
 49.71984     43.5 9.853e+03 2.138e-10
 49.75903     44.5 1.029e+04 2.917e-10
 49.78931     44.5 1.060e+04 3.909e-10
 49.80890     41.5 1.044e+04 4.169e-10
 49.82751     42.7 1.061e+04 5.358e-10
 49.84701     43.9 1.091e+04 6.705e-10
 49.86660     44.5 1.117e+04 7.752e-10
 49.88619     44.9 1.131e+04 8.087e-10
 49.90579     44.9 1.130e+04 7.999e-10
 49.92538     45.2 1.123e+04 7.642e-10
 49.95487     44.3 1.092e+04 6.000e-10
 49.99416     44.2 1.078e+04 5.562e-10
 50.03334     44.1 1.066e+04 5.312e-10
 50.07253     44.1 1.056e+04 5.202e-10
 50.11172     44.4 1.049e+04 5.225e-10
 50.15090     44.9 1.048e+04 5.318e-10
 50.19009     45.1 1.058e+04 5.577e-10
 50.22928     44.8 1.096e+04 6.913e-10
 50.26847     44.2 1.157e+04 9.544e-10
 50.29776     43.1 1.203e+04 1.205e-09
 50.31726     43.3 1.233e+04 1.446e-09
 50.33984     43.9 1.244e+04 1.472e-09
 50.35943     43.1 1.288e+04 1.865e-09
 50.37604     43.2 1.278e+04 1.790e-09
 50.39563     43.3 1.258e+04 1.642e-09
 50.41522     43.5 1.209e+04 1.308e-09
 50.43482     43.7 1.177e+04 1.135e-09
 50.46431     43.9 1.094e+04 7.285e-10
 50.50359     44.5 9.971e+03 4.144e-10
 50.54278     45.4 9.172e+03 2.402e-10
 50.58196     46.3 8.627e+03 1.638e-10
 50.62115     47.6 8.388e+03 1.413e-10
 50.65301     49.3 8.373e+03 1.402e-10
 50.67260     49.7 8.370e+03 1.398e-10
 50.69953     51.6 8.403e+03 1.453e-10
 50.73871     53.6 8.548e+03 1.673e-10
 50.77790     55.6 8.821e+03 2.100e-10
 50.81709     57.6 9.295e+03 2.791e-10
 50.85628     58.9 9.697e+03 3.433e-10
 50.88557     58.6 9.836e+03 3.777e-10
 50.90017     59.2 1.005e+04 4.340e-10
 50.90996     58.1 1.044e+04 5.384e-10
 50.92466     58.5 1.113e+04 7.354e-10
 50.94425     58.3 1.210e+04 1.068e-09
 50.96385     58.0 1.327e+04 1.620e-09
 50.98344     57.5 1.437e+04 2.438e-09
 51.00303     57.4 1.527e+04 3.509e-09
 51.02263     57.6 1.607e+04 4.756e-09
 51.04222     57.5 1.699e+04 6.016e-09
 51.06181     56.5 1.826e+04 7.438e-09
 51.08141     53.1 2.059e+04 9.952e-09
 51.10100     48.3 2.258e+04 1.303e-08
 51.11565     45.2 2.322e+04 1.555e-08
 51.12540     41.8 2.391e+04 1.944e-08
 51.13519     38.3 2.415e+04 2.446e-08
 51.14499     35.5 2.348e+04 2.838e-08
 51.15479     33.7 2.268e+04 3.009e-08
 51.16458     32.5 2.231e+04 3.084e-08
 51.17438     31.6 2.226e+04 3.013e-08
 51.18028     31.0 2.238e+04 2.734e-08
 51.18518     29.7 2.311e+04 1.947e-08
 51.19154     27.6 2.414e+04 1.591e-08
 51.19644     27.5 2.320e+04 1.031e-08
 51.20377     24.5 2.267e+04 7.655e-09
 51.21357     20.5 2.154e+04 5.617e-09
 51.22336     17.4 1.957e+04 4.336e-09
 51.23316     14.2 1.831e+04 3.747e-09
 51.24296     12.6 1.763e+04 3.489e-09
 51.25275     11.0 1.753e+04 3.483e-09
 51.26255     10.7 1.727e+04 3.530e-09
 51.27235      9.9 1.734e+04 3.900e-09
 51.28214      7.9 1.953e+04 4.897e-09
 51.29194      0.6 2.686e+04 1.008e-08
 51.30174     -8.4 3.050e+04 2.794e-08
 51.31154    -13.3 2.719e+04 7.339e-08
 51.31794    -16.8 2.408e+04 1.128e-07
 51.32284    -16.5 2.512e+04 8.789e-08
 51.33113    -18.7 2.309e+04 1.065e-07
 51.34093    -19.7 2.223e+04 1.111e-07
 51.35072    -19.9 2.217e+04 1.052e-07
 51.36052    -19.6 2.281e+04 8.604e-08
 51.37032    -19.1 2.421e+04 5.977e-08
 51.38011    -18.9 2.628e+04 3.765e-08
 51.38991    -19.3 2.925e+04 2.155e-08
 51.39971    -20.0 3.217e+04 1.182e-08
 51.41445    -22.9 3.086e+04 7.415e-09
 51.43409    -28.6 2.450e+04 3.269e-09
 51.45080    -31.7 1.686e+04 2.591e-09
 51.46059    -29.6 1.978e+04 4.300e-09
 51.47328    -29.6 1.698e+04 3.755e-09
 51.49287    -28.0 1.638e+04 3.852e-09
 51.51247    -26.3 1.656e+04 4.212e-09
 51.53206    -24.7 1.680e+04 4.651e-09
 51.55166    -23.1 1.714e+04 5.168e-09
 51.57125    -21.9 1.754e+04 5.697e-09
 51.59084    -21.0 1.799e+04 6.274e-09
 51.61044    -20.4 1.839e+04 6.824e-09
 51.63003    -20.1 1.857e+04 7.099e-09
 51.64962    -20.2 1.845e+04 6.955e-09
 51.66922    -20.3 1.780e+04 6.095e-09
 51.68881    -20.5 1.661e+04 4.745e-09
 51.70840    -20.8 1.553e+04 3.531e-09
 51.72067    -22.8 1.579e+04 2.917e-09
 51.72858    -18.8 1.749e+04 3.646e-09
 51.73591    -17.8 1.780e+04 4.717e-09
 51.74759    -20.5 1.676e+04 2.709e-09
 51.76719    -24.8 1.616e+04 2.330e-09
 51.78678    -30.5 1.987e+04 2.542e-09
 51.80637    -36.2 2.315e+04 4.304e-09
 51.82597    -40.3 2.343e+04 8.392e-09
 51.84556    -42.2 2.221e+04 1.320e-08
 51.86515    -43.4 2.154e+04 1.491e-08
 51.88475    -44.2 2.047e+04 1.404e-08
 51.90434    -45.2 2.003e+04 9.145e-09
 51.92393    -47.5 1.907e+04 4.520e-09
 51.94353    -51.5 1.585e+04 1.817e-09
 51.96312    -55.2 1.206e+04 8.496e-10
 51.98272    -56.0 1.059e+04 5.955e-10
 52.00142    -55.5 1.015e+04 4.948e-10
 52.01122    -55.9 1.029e+04 5.360e-10
 52.02190    -55.0 9.966e+03 4.514e-10
 52.04150    -54.0 9.872e+03 3.905e-10
 52.06109    -53.4 9.949e+03 3.687e-10
 52.08068    -52.8 1.009e+04 3.662e-10
 52.10028    -52.0 1.017e+04 3.678e-10
 52.11987    -51.1 1.021e+04 3.624e-10
 52.13946    -50.1 1.021e+04 3.550e-10
 52.15906    -49.0 1.009e+04 3.388e-10
 52.17865    -47.3 1.005e+04 3.241e-10
 52.19825    -45.3 1.007e+04 3.176e-10
 52.22773    -43.3 1.022e+04 3.358e-10
 52.26702    -41.7 1.080e+04 3.976e-10
 52.29631    -40.2 1.247e+04 6.061e-10
 52.31581    -39.5 1.268e+04 7.343e-10
 52.33540    -38.9 1.306e+04 9.029e-10
 52.35499    -38.4 1.512e+04 1.347e-09
 52.37459    -38.9 1.764e+04 2.317e-09
 52.39418    -39.7 2.020e+04 4.523e-09
 52.41378    -41.9 2.269e+04 9.007e-09
 52.42414    -45.4 2.452e+04 1.187e-08
 52.42899    -45.9 2.370e+04 2.268e-08
 52.43817    -47.9 2.434e+04 3.424e-08
 52.44797    -50.3 2.484e+04 5.532e-08
 52.45776    -52.6 2.536e+04 8.614e-08
 52.46756    -54.7 2.560e+04 1.221e-07
 52.47736    -57.2 2.599e+04 1.395e-07
 52.48715    -60.3 2.654e+04 1.343e-07
 52.49695    -63.5 2.825e+04 8.439e-08
 52.50675    -67.9 3.008e+04 3.621e-08
 52.51412    -74.4 3.001e+04 1.262e-08
 52.51902    -70.5 3.062e+04 2.283e-08
 52.52634    -78.4 2.852e+04 7.573e-09
 52.53614    -86.4 2.132e+04 3.926e-09
 52.54594    -89.9 1.847e+04 3.138e-09
 52.55573    -90.8 1.809e+04 2.952e-09
 52.56180    -91.9 1.798e+04 2.845e-09
 52.57164    -91.2 1.718e+04 2.983e-09
 52.59012    -93.1 1.723e+04 2.934e-09
 52.60971    -94.3 1.726e+04 2.839e-09
 52.62931    -95.6 1.719e+04 2.370e-09
 52.64890    -97.1 1.652e+04 1.778e-09
 52.66849    -99.2 1.560e+04 1.277e-09
 52.68809   -101.7 1.456e+04 9.656e-10
 52.70768   -104.2 1.399e+04 8.129e-10
 52.72727   -106.2 1.369e+04 7.605e-10
 52.74687   -107.5 1.357e+04 7.468e-10
 52.76646   -108.6 1.355e+04 7.452e-10
 52.77874   -113.5 1.554e+04 7.431e-10
 52.78853   -109.8 1.374e+04 7.684e-10
 52.80565   -121.7 2.335e+04 6.802e-10
 52.82030   -150.7 5.246e+04 1.233e-09
 52.83004   -155.9 3.133e+04 3.195e-08
 52.83706   -159.5 2.546e+04 2.069e-07
 52.84196   -161.6 2.474e+04 2.587e-07
 52.84964   -165.6 2.421e+04 4.262e-07
 52.85943   -173.8 2.448e+04 4.264e-07
 52.86923   -186.8 2.544e+04 1.666e-07
 52.87903   -203.7 2.366e+04 2.136e-08
 52.88882   -214.5 1.848e+04 4.857e-09
 52.89862   -217.2 1.641e+04 3.214e-09
 52.90842   -218.2 1.601e+04 2.886e-09
 52.92316   -220.0 1.610e+04 2.742e-09
 52.94280   -223.0 1.553e+04 2.182e-09
 52.96240   -227.0 1.436e+04 1.596e-09
 52.98199   -230.1 1.389e+04 1.377e-09
 53.00159   -232.6 1.371e+04 1.304e-09
 53.02118   -234.6 1.346e+04 1.237e-09
 53.04077   -236.4 1.309e+04 1.140e-09
 53.06037   -237.7 1.266e+04 1.016e-09
 53.07996   -238.6 1.225e+04 8.862e-10
 53.09955   -239.0 1.190e+04 7.656e-10
 53.11248   -239.3 1.160e+04 6.576e-10
 53.12227   -240.8 1.204e+04 8.199e-10
 53.13874   -241.1 1.179e+04 7.410e-10
 53.15833   -241.2 1.159e+04 6.868e-10
 53.17793   -240.6 1.141e+04 6.478e-10
 53.19752   -239.7 1.128e+04 6.251e-10
 53.21712   -238.7 1.120e+04 6.192e-10
 53.23671   -237.6 1.117e+04 6.192e-10
 53.25630   -236.6 1.113e+04 6.348e-10
 53.27590   -235.4 1.113e+04 6.560e-10
 53.29549   -234.2 1.113e+04 6.867e-10
 53.30777   -232.9 1.118e+04 7.230e-10
 53.31757   -234.1 1.172e+04 9.553e-10
 53.33468   -232.6 1.185e+04 1.027e-09
 53.35427   -231.1 1.201e+04 1.101e-09
 53.37386   -229.6 1.218e+04 1.174e-09
 53.38779   -228.2 1.233e+04 1.242e-09
 53.39759   -228.7 1.244e+04 1.301e-09
 53.41305   -227.4 1.254e+04 1.348e-09
 53.43265   -226.2 1.264e+04 1.391e-09
 53.45224   -224.9 1.272e+04 1.434e-09
 53.47183   -223.7 1.282e+04 1.484e-09
 53.49143   -222.6 1.293e+04 1.545e-09
 53.51102   -221.4 1.302e+04 1.613e-09
 53.53061   -220.3 1.313e+04 1.683e-09
 53.55021   -219.2 1.322e+04 1.744e-09
 53.56980   -218.2 1.331e+04 1.797e-09
 53.58939   -217.3 1.340e+04 1.850e-09
 53.60899   -216.5 1.351e+04 1.921e-09
 53.62858   -215.7 1.368e+04 2.035e-09
 53.64818   -214.9 1.394e+04 2.219e-09
 53.66310   -214.2 1.423e+04 2.444e-09
 53.67290   -215.1 1.364e+04 1.793e-09
 53.68736   -214.4 1.386e+04 1.890e-09
 53.70696   -213.8 1.402e+04 1.937e-09
 53.72655   -213.3 1.408e+04 1.943e-09
 53.74614   -212.9 1.419e+04 1.893e-09
 53.76574   -212.6 1.423e+04 1.754e-09
 53.78533   -212.4 1.415e+04 1.583e-09
 53.80492   -212.3 1.400e+04 1.435e-09
 53.82452   -212.3 1.380e+04 1.352e-09
 53.83680   -212.2 1.371e+04 1.335e-09
 53.84660   -211.8 1.372e+04 1.314e-09
 53.86371   -211.7 1.375e+04 1.360e-09
 53.88330   -211.4 1.376e+04 1.472e-09
 53.90289   -210.7 1.382e+04 1.646e-09
 53.92249   -209.8 1.394e+04 1.864e-09
 53.93842   -208.8 1.415e+04 2.099e-09
 53.94821   -208.8 1.428e+04 2.195e-09
 53.96167   -207.8 1.483e+04 2.725e-09
 53.98127   -206.9 1.542e+04 3.387e-09
 54.00086   -206.1 1.597e+04 4.166e-09
 54.02045   -205.5 1.648e+04 5.057e-09
 54.04005   -205.0 1.699e+04 6.105e-09
 54.05964   -204.5 1.756e+04 7.411e-09
 54.07924   -203.8 1.822e+04 9.077e-09
 54.09883   -203.3 1.891e+04 1.103e-08
 54.11842   -203.0 1.949e+04 1.291e-08
 54.13802   -202.9 1.985e+04 1.419e-08
 54.15761   -202.9 1.996e+04 1.462e-08
 54.17720   -203.0 1.994e+04 1.465e-08
 54.19680   -203.0 1.978e+04 1.378e-08
 54.21373   -203.2 1.947e+04 1.232e-08
 54.22353   -202.6 1.813e+04 1.046e-08
 54.23599   -202.5 1.754e+04 8.508e-09
 54.25558   -202.5 1.721e+04 7.226e-09
 54.27517   -203.0 1.733e+04 6.677e-09
 54.29477   -204.0 1.762e+04 6.560e-09
 54.31436   -205.7 1.873e+04 7.025e-09
 54.33395   -207.7 1.958e+04 8.820e-09
 54.35355   -209.1 2.004e+04 1.170e-08
 54.36583   -209.8 2.016e+04 1.469e-08
 54.37563   -209.4 2.048e+04 1.470e-08
 54.39273   -209.4 2.053e+04 1.741e-08
 54.40738   -209.7 2.037e+04 1.765e-08
 54.41713   -209.9 2.035e+04 1.778e-08
 54.42693   -210.4 2.019e+04 1.767e-08
 54.43672   -210.8 2.006e+04 1.764e-08
 54.44652   -211.3 1.964e+04 1.634e-08
 54.45632   -211.5 1.918e+04 1.388e-08
 54.46611   -211.6 1.879e+04 1.161e-08
 54.47591   -211.7 1.851e+04 9.656e-09
 54.48571   -211.9 1.824e+04 7.959e-09
 54.49385   -212.2 1.790e+04 6.552e-09
 54.49874   -212.2 1.901e+04 9.283e-09
 54.50530   -212.4 1.875e+04 7.738e-09
 54.51510   -212.5 1.836e+04 6.433e-09
 54.52489   -212.7 1.783e+04 5.411e-09
 54.53469   -212.8 1.739e+04 4.755e-09
 54.54449   -212.9 1.713e+04 4.387e-09
 54.55428   -212.7 1.705e+04 4.210e-09
 54.56903   -212.6 1.710e+04 4.038e-09
 54.58867   -212.7 1.657e+04 3.579e-09
 54.60826   -212.7 1.599e+04 3.244e-09
 54.62786   -212.6 1.563e+04 3.140e-09
 54.64745   -212.3 1.539e+04 3.106e-09
 54.66705   -211.9 1.516e+04 3.060e-09
 54.68664   -211.3 1.491e+04 2.961e-09
 54.70623   -210.4 1.469e+04 2.803e-09
 54.72088   -209.8 1.480e+04 2.893e-09
 54.73063   -209.4 1.475e+04 2.813e-09
 54.74042   -208.8 1.472e+04 2.728e-09
 54.75022   -208.3 1.473e+04 2.664e-09
 54.76002   -207.7 1.476e+04 2.601e-09
 54.76916   -207.2 1.487e+04 2.570e-09
 54.77411   -207.6 1.427e+04 2.346e-09
 54.78461   -206.4 1.402e+04 2.100e-09
 54.80420   -205.1 1.386e+04 1.910e-09
 54.82379   -203.6 1.385e+04 1.776e-09
 54.84339   -202.0 1.393e+04 1.717e-09
 54.86298   -200.4 1.414e+04 1.690e-09
 54.88258   -198.7 1.440e+04 1.696e-09
 54.89486   -196.9 1.471e+04 1.739e-09
 54.89971   -197.8 1.881e+04 3.529e-09
 54.90682   -196.9 1.897e+04 3.647e-09
 54.91171   -196.6 1.735e+04 2.688e-09
 54.91677   -195.4 1.770e+04 2.802e-09
 54.92656   -194.6 1.796e+04 2.903e-09
 54.93636   -193.5 1.814e+04 3.026e-09
 54.94616   -192.7 1.826e+04 3.129e-09
 54.95595   -191.8 1.829e+04 3.236e-09
 54.96575   -190.9 1.827e+04 3.317e-09
 54.97555   -189.9 1.819e+04 3.420e-09
 54.98534   -188.9 1.811e+04 3.501e-09
 54.99514   -187.8 1.797e+04 3.602e-09
 55.00494   -186.8 1.780e+04 3.696e-09
 55.01473   -185.8 1.757e+04 3.797e-09
 55.02453   -184.9 1.736e+04 3.893e-09
 55.03433   -184.1 1.717e+04 3.998e-09
 55.04413   -183.3 1.702e+04 4.115e-09
 55.04937   -182.5 1.695e+04 4.271e-09
 55.05427   -182.0 1.589e+04 2.779e-09
 55.06372   -181.5 1.582e+04 2.880e-09
 55.07352   -180.7 1.601e+04 3.141e-09
 55.08331   -180.3 1.618e+04 3.327e-09
 55.09311   -179.7 1.654e+04 3.698e-09
 55.10291   -179.5 1.686e+04 4.030e-09
 55.11270   -179.1 1.731e+04 4.620e-09
 55.12250   -178.9 1.769e+04 5.176e-09
 55.13230   -178.5 1.818e+04 6.263e-09
 55.14209   -178.0 1.852e+04 7.335e-09
 55.15189   -177.4 1.876e+04 8.597e-09
 55.15928   -176.8 1.892e+04 1.002e-08
 55.16418   -176.7 1.930e+04 1.282e-08
 55.17148   -176.2 1.942e+04 1.468e-08
 55.18128   -175.5 1.960e+04 1.691e-08
 55.18703   -174.8 1.987e+04 1.968e-08
 55.19193   -174.8 1.960e+04 1.320e-08
 55.20087   -174.1 1.979e+04 1.467e-08
 55.21067   -173.7 1.999e+04 1.612e-08
 55.22047   -173.5 2.015e+04 1.742e-08
 55.23027   -173.4 2.022e+04 1.845e-08
 55.24006   -173.3 2.023e+04 1.920e-08
 55.24986   -173.3 2.022e+04 1.974e-08
 55.25966   -173.2 2.022e+04 2.017e-08
 55.26945   -173.1 2.024e+04 2.061e-08
 55.27925   -172.9 2.038e+04 2.130e-08
 55.28905   -172.9 2.087e+04 2.248e-08
 55.29884   -173.0 2.173e+04 2.445e-08
 55.30864   -173.6 2.278e+04 2.754e-08
 55.31844   -174.2 2.402e+04 3.183e-08
 55.32469   -174.9 2.544e+04 3.752e-08
 55.32958   -177.2 2.996e+04 2.854e-08
 55.33803   -178.0 3.114e+04 3.401e-08
 55.34783   -178.8 3.185e+04 3.967e-08
 55.35762   -179.4 3.201e+04 4.528e-08
 55.36742   -180.0 3.133e+04 5.127e-08
 55.37722   -180.6 3.044e+04 5.627e-08
 55.38701   -181.3 2.972e+04 5.890e-08
 55.39681   -182.0 2.874e+04 6.068e-08
 55.40661   -182.5 2.801e+04 5.940e-08
 55.41640   -183.0 2.732e+04 5.790e-08
 55.42380   -183.5 2.676e+04 5.547e-08
 55.42870   -183.4 2.656e+04 6.302e-08
 55.43600   -184.1 2.613e+04 5.722e-08
 55.44580   -184.6 2.550e+04 5.033e-08
 55.45559   -184.8 2.468e+04 4.324e-08
 55.46234   -184.8 2.374e+04 3.651e-08
 55.46724   -185.2 2.039e+04 2.515e-08
 55.47519   -185.2 1.987e+04 2.117e-08
 55.48498   -185.0 1.940e+04 1.828e-08
 55.49478   -184.7 1.913e+04 1.642e-08
 55.50458   -184.1 1.905e+04 1.538e-08
 55.51437   -183.7 1.906e+04 1.471e-08
 55.52417   -183.5 1.897e+04 1.396e-08
 55.53397   -183.0 1.874e+04 1.293e-08
 55.54376   -182.3 1.846e+04 1.179e-08
 55.55356   -181.6 1.820e+04 1.066e-08
 55.56336   -180.9 1.793e+04 9.586e-09
 55.57315   -180.1 1.762e+04 8.602e-09
 55.58295   -179.4 1.729e+04 7.697e-09
 55.59275   -178.7 1.703e+04 6.864e-09
 55.60000   -178.3 1.684e+04 6.241e-09
 55.60984   -178.5 1.615e+04 4.843e-09
 55.62713   -178.0 1.579e+04 4.236e-09
 55.64673   -177.6 1.539e+04 3.570e-09
 55.66632   -177.5 1.503e+04 3.077e-09
 55.68592   -177.7 1.473e+04 2.796e-09
 55.70551   -178.0 1.451e+04 2.669e-09
 55.72510   -178.3 1.438e+04 2.621e-09
 55.74470   -178.5 1.425e+04 2.602e-09
 55.76429   -178.5 1.410e+04 2.556e-09
 55.78388   -178.3 1.388e+04 2.438e-09
 55.80348   -177.9 1.359e+04 2.227e-09
 55.82307   -177.5 1.331e+04 1.962e-09
 55.84266   -177.1 1.299e+04 1.706e-09
 55.86226   -176.8 1.265e+04 1.475e-09
 55.87541   -176.6 1.231e+04 1.294e-09
 55.88521   -175.7 1.181e+04 1.033e-09
 55.90145   -175.4 1.155e+04 9.348e-10
 55.92104   -174.8 1.139e+04 8.917e-10
 55.94063   -174.1 1.134e+04 8.829e-10
 55.95293   -173.3 1.131e+04 8.904e-10
 55.96273   -173.3 1.168e+04 9.948e-10
 55.97982   -172.4 1.177e+04 1.077e-09
 55.99941   -171.3 1.183e+04 1.161e-09
 56.01901   -170.0 1.182e+04 1.219e-09
 56.03860   -168.6 1.180e+04 1.236e-09
 56.05819   -167.1 1.170e+04 1.235e-09
 56.07779   -165.6 1.152e+04 1.176e-09
 56.09738   -164.0 1.132e+04 1.089e-09
 56.11698   -162.5 1.109e+04 9.906e-10
 56.13657   -161.1 1.087e+04 8.872e-10
 56.15072   -159.7 1.064e+04 7.867e-10
 56.16052   -159.6 1.074e+04 8.805e-10
 56.17576   -158.2 1.053e+04 7.840e-10
 56.19535   -156.9 1.031e+04 6.865e-10
 56.21494   -155.6 1.009e+04 5.928e-10
 56.23454   -154.4 9.884e+03 5.092e-10
 56.25413   -153.3 9.711e+03 4.442e-10
 56.27372   -152.6 9.612e+03 4.114e-10
 56.29332   -151.7 9.573e+03 3.913e-10
 56.31291   -151.2 9.567e+03 3.856e-10
 56.33251   -150.5 9.597e+03 3.846e-10
 56.35210   -150.2 9.608e+03 3.909e-10
 56.37169   -149.7 9.799e+03 4.383e-10
 56.39129   -149.6 1.002e+04 4.998e-10
 56.41088   -149.5 1.029e+04 5.739e-10
 56.42604   -149.4 1.059e+04 6.548e-10
 56.43593   -148.6 1.061e+04 6.402e-10
 56.46006   -148.4 1.139e+04 8.547e-10
 56.48206   -150.2 1.189e+04 1.071e-09
 56.49176   -149.2 1.200e+04 1.098e-09
 56.50885   -150.4 1.262e+04 1.363e-09
 56.52844   -151.9 1.335e+04 1.832e-09
 56.54804   -153.3 1.398e+04 2.520e-09
 56.56763   -154.3 1.434e+04 3.307e-09
 56.58722   -154.7 1.438e+04 3.597e-09
 56.60682   -154.9 1.433e+04 3.635e-09
 56.62641   -154.8 1.392e+04 3.345e-09
 56.64600   -154.4 1.332e+04 2.604e-09
 56.66560   -154.1 1.268e+04 1.868e-09
 56.68519   -154.1 1.212e+04 1.337e-09
 56.70135   -154.6 1.179e+04 1.029e-09
 56.71115   -153.0 1.190e+04 1.250e-09
 56.72438   -153.3 1.168e+04 1.032e-09
 56.74397   -153.5 1.167e+04 9.552e-10
 56.76357   -153.6 1.170e+04 9.439e-10
 56.78316   -153.6 1.196e+04 9.713e-10
 56.80275   -153.6 1.248e+04 1.170e-09
 56.82235   -153.4 1.322e+04 1.558e-09
 56.84194   -153.2 1.418e+04 2.139e-09
 56.86153   -153.0 1.523e+04 2.992e-09
 56.88113   -152.8 1.618e+04 4.178e-09
 56.90072   -152.5 1.691e+04 5.670e-09
 56.92032   -151.8 1.742e+04 7.262e-09
 56.93991   -150.9 1.774e+04 8.625e-09
 56.95950   -150.0 1.800e+04 9.580e-09
 56.97667   -149.2 1.829e+04 1.039e-08
 56.98646   -148.2 1.855e+04 1.120e-08
 56.99869   -147.3 1.878e+04 1.172e-08
 57.01099   -146.8 1.932e+04 1.235e-08
 57.02079   -145.2 1.932e+04 1.201e-08
 57.03788   -144.8 2.053e+04 1.372e-08
 57.05747   -144.7 2.224e+04 1.613e-08
 57.07706   -146.0 2.383e+04 1.703e-08
 57.09171   -150.1 2.387e+04 1.374e-08
 57.10146   -151.5 2.385e+04 1.330e-08
 57.11126   -155.0 2.220e+04 1.141e-08
 57.11912   -157.9 2.032e+04 9.876e-09
 57.12402   -155.6 2.159e+04 1.059e-08
 57.13085   -159.0 1.964e+04 9.000e-09
 57.14065   -162.2 1.821e+04 7.555e-09
 57.15044   -165.4 1.725e+04 6.323e-09
 57.16024   -168.4 1.684e+04 5.373e-09
 57.17004   -171.3 1.671e+04 4.734e-09
 57.17983   -173.9 1.669e+04 4.316e-09
 57.18963   -176.2 1.664e+04 4.061e-09
 57.19943   -177.8 1.667e+04 3.971e-09
 57.21417   -181.6 1.650e+04 3.855e-09
 57.23381   -184.8 1.604e+04 3.659e-09
 57.25198   -186.6 1.571e+04 3.570e-09
 57.26178   -186.9 1.574e+04 3.783e-09
 57.27300   -187.6 1.555e+04 3.698e-09
 57.29259   -187.7 1.532e+04 3.543e-09
 57.31219   -187.4 1.489e+04 3.218e-09
 57.33178   -186.7 1.440e+04 2.827e-09
 57.35138   -185.7 1.406e+04 2.514e-09
 57.37097   -184.5 1.380e+04 2.228e-09
 57.39056   -183.2 1.355e+04 1.964e-09
 57.41016   -181.8 1.327e+04 1.705e-09
 57.42975   -180.4 1.296e+04 1.465e-09
 57.44934   -178.9 1.265e+04 1.252e-09
 57.46894   -177.4 1.233e+04 1.069e-09
 57.48853   -175.9 1.199e+04 9.112e-10
 57.50812   -174.4 1.169e+04 7.773e-10
 57.52729   -172.9 1.143e+04 6.691e-10
 57.53709   -172.7 1.193e+04 8.167e-10
 57.54002   -171.3 1.183e+04 7.716e-10
 57.54982   -171.8 1.216e+04 9.726e-10
 57.56691   -170.3 1.189e+04 8.771e-10
 57.59639   -168.4 1.150e+04 7.231e-10
 57.63568   -165.1 1.102e+04 5.998e-10
 57.67487   -162.0 1.082e+04 5.458e-10
 57.71405   -159.3 1.081e+04 5.345e-10
 57.75324   -156.8 1.085e+04 5.562e-10
 57.79243   -154.4 1.096e+04 6.085e-10
 57.83162   -152.2 1.113e+04 6.991e-10
 57.87080   -150.2 1.144e+04 8.559e-10
 57.90999   -148.6 1.196e+04 1.119e-09
 57.93928   -148.3 1.257e+04 1.602e-09
 57.95878   -148.1 1.295e+04 2.000e-09
 57.97837   -148.0 1.347e+04 2.514e-09
 57.99797   -148.1 1.414e+04 3.105e-09
 58.01756   -148.7 1.478e+04 3.709e-09
 58.03715   -149.9 1.530e+04 3.931e-09
 58.05675   -151.5 1.550e+04 3.897e-09
 58.06906   -153.6 1.535e+04 3.280e-09
 58.07885   -156.4 1.403e+04 1.834e-09
 58.08772   -159.2 1.302e+04 1.297e-09
 58.09752   -159.4 1.234e+04 1.158e-09
 58.11553   -161.8 1.138e+04 9.035e-10
 58.13512   -163.2 1.093e+04 7.502e-10
 58.15472   -163.9 1.077e+04 6.547e-10
 58.17431   -164.5 1.048e+04 5.518e-10
 58.19390   -165.3 1.019e+04 4.669e-10
 58.21350   -166.1 9.877e+03 3.945e-10
 58.23309   -166.8 9.751e+03 3.709e-10
 58.26258   -167.5 9.734e+03 3.668e-10
 58.30186   -167.6 9.809e+03 3.971e-10
 58.33116   -167.2 9.764e+03 4.110e-10
 58.35065   -167.2 9.772e+03 4.288e-10
 58.36303   -167.3 9.755e+03 4.466e-10
 58.37283   -167.7 9.743e+03 4.451e-10
 58.38984   -167.9 9.756e+03 4.575e-10
 58.40943   -168.3 9.755e+03 4.773e-10
 58.42903   -168.4 9.780e+03 4.910e-10
 58.44862   -168.5 9.847e+03 5.109e-10
 58.46821   -168.7 9.962e+03 5.399e-10
 58.48781   -168.8 1.008e+04 5.747e-10
 58.50740   -169.0 1.016e+04 6.067e-10
 58.52699   -169.1 1.019e+04 6.283e-10
 58.54659   -169.3 1.019e+04 6.340e-10
 58.56618   -169.4 1.012e+04 6.315e-10
 58.58578   -169.2 9.930e+03 5.877e-10
 58.59809   -168.8 9.762e+03 5.219e-10
 58.60788   -169.1 9.866e+03 5.399e-10
 58.62496   -168.6 9.687e+03 4.772e-10
 58.63844   -168.1 9.516e+03 4.202e-10
 58.65813   -169.7 9.397e+03 3.766e-10
 58.69374   -168.9 9.048e+03 2.985e-10
 58.73292   -167.7 8.683e+03 2.348e-10
 58.77211   -166.2 8.427e+03 1.976e-10
 58.81130   -164.8 8.340e+03 1.824e-10
 58.85048   -163.3 8.327e+03 1.793e-10
 58.88967   -162.1 8.331e+03 1.792e-10
 58.92886   -161.3 8.440e+03 1.932e-10
 58.96805   -161.1 8.718e+03 2.336e-10
 59.00723   -161.2 9.054e+03 2.955e-10
 59.04642   -161.3 9.387e+03 3.824e-10
 59.08561   -162.2 1.002e+04 5.519e-10
 59.11490   -165.4 1.055e+04 7.592e-10
 59.12712   -168.7 1.216e+04 1.185e-09
 59.13692   -169.3 1.251e+04 1.227e-09
 59.15399   -173.7 1.505e+04 2.385e-09
 59.17358   -178.3 1.736e+04 5.031e-09
 59.18897   -182.3 1.909e+04 9.160e-09
 59.19877   -182.8 1.874e+04 8.112e-09
 59.21277   -186.5 1.959e+04 1.045e-08
 59.23237   -190.1 2.004e+04 1.140e-08
 59.25196   -193.8 2.017e+04 1.164e-08
 59.27155   -197.3 2.017e+04 1.113e-08
 59.29115   -200.2 1.996e+04 9.794e-09
 59.31074   -202.5 1.950e+04 7.977e-09
 59.33033   -204.1 1.888e+04 6.167e-09
 59.34993   -204.8 1.810e+04 4.613e-09
 59.36952   -205.0 1.715e+04 3.397e-09
 59.38911   -205.0 1.615e+04 2.538e-09
 59.40871   -205.0 1.508e+04 1.950e-09
 59.42830   -204.7 1.403e+04 1.555e-09
 59.44790   -204.0 1.314e+04 1.310e-09
 59.46429   -202.9 1.249e+04 1.171e-09
 59.47408   -202.0 1.265e+04 1.049e-09
 59.48708   -201.0 1.224e+04 9.674e-10
 59.50668   -199.9 1.193e+04 9.261e-10
 59.52627   -198.7 1.172e+04 9.116e-10
 59.54586   -197.4 1.161e+04 9.110e-10
 59.56546   -196.1 1.155e+04 9.172e-10
 59.58505   -194.9 1.145e+04 9.861e-10
 59.60465   -193.8 1.158e+04 1.089e-09
 59.62424   -192.7 1.178e+04 1.213e-09
 59.64383   -191.5 1.201e+04 1.368e-09
 59.65615   -190.4 1.230e+04 1.553e-09
 59.66595   -191.3 1.216e+04 1.383e-09
 59.68302   -190.5 1.250e+04 1.600e-09
 59.70261   -189.7 1.278e+04 1.812e-09
 59.72221   -189.1 1.297e+04 1.976e-09
 59.73960   -188.9 1.307e+04 2.075e-09
 59.74940   -189.9 1.298e+04 2.069e-09
 59.76139   -190.2 1.346e+04 2.191e-09
 59.78099   -192.3 1.465e+04 2.565e-09
 59.80058   -196.2 1.658e+04 3.670e-09
 59.82018   -200.3 1.813e+04 6.137e-09
 59.83977   -203.6 1.914e+04 9.916e-09
 59.85936   -206.5 1.976e+04 1.304e-08
 59.87896   -209.9 2.002e+04 1.396e-08
 59.89855   -214.1 2.046e+04 1.127e-08
 59.91814   -220.3 2.035e+04 6.072e-09
 59.93774   -229.9 1.961e+04 3.194e-09
 59.95733   -241.2 1.809e+04 2.733e-09
 59.97692   -249.8 1.717e+04 3.121e-09
 59.99652   -253.9 1.741e+04 5.378e-09
 60.01492   -256.1 1.758e+04 7.219e-09
 60.02471   -253.2 1.769e+04 7.035e-09
 60.03571   -255.0 1.793e+04 8.374e-09
 60.05530   -256.8 1.788e+04 8.515e-09
 60.07489   -258.3 1.717e+04 6.897e-09
 60.09449   -260.0 1.593e+04 4.020e-09
 60.11408   -262.5 1.405e+04 1.979e-09
 60.13367   -265.3 1.190e+04 1.015e-09
 60.15327   -267.3 1.071e+04 6.441e-10
 60.17286   -268.1 1.043e+04 5.239e-10
 60.18518   -268.3 1.033e+04 4.853e-10
 60.19498   -268.9 1.039e+04 5.060e-10
 60.21205   -268.9 1.039e+04 4.949e-10
 60.23164   -268.9 1.039e+04 4.934e-10
 60.25124   -269.1 1.045e+04 4.968e-10
 60.27083   -269.7 1.092e+04 5.679e-10
 60.29023   -270.4 1.177e+04 7.522e-10
 60.30003   -269.4 1.140e+04 7.632e-10
 60.31002   -269.9 1.197e+04 9.722e-10
 60.32961   -270.3 1.255e+04 1.237e-09
 60.34920   -270.5 1.300e+04 1.526e-09
 60.36880   -270.6 1.322e+04 1.764e-09
 60.38839   -270.6 1.324e+04 1.874e-09
 60.40798   -270.6 1.321e+04 1.894e-09
 60.42758   -270.5 1.293e+04 1.850e-09
 60.44717   -270.0 1.253e+04 1.663e-09
 60.46677   -269.3 1.215e+04 1.464e-09
 60.48636   -268.6 1.186e+04 1.305e-09
 60.50595   -267.9 1.167e+04 1.194e-09
 60.52555   -267.1 1.154e+04 1.104e-09
 60.54514   -266.3 1.144e+04 1.022e-09
 60.56473   -265.4 1.134e+04 9.363e-10
 60.57534   -264.6 1.122e+04 8.422e-10
 60.58514   -264.0 1.147e+04 9.899e-10
 60.60392   -263.2 1.131e+04 8.667e-10
 60.62351   -262.4 1.112e+04 7.458e-10
 60.64311   -261.5 1.093e+04 6.371e-10
 60.66270   -260.7 1.074e+04 5.467e-10
 60.68230   -259.9 1.058e+04 4.773e-10
 60.70189   -259.0 1.046e+04 4.292e-10
 60.71422   -258.0 1.038e+04 4.011e-10
 60.72401   -258.1 1.036e+04 3.993e-10
 60.74108   -257.0 1.034e+04 3.884e-10
 60.76067   -255.9 1.034e+04 3.859e-10
 60.78026   -254.7 1.034e+04 3.856e-10
 60.79986   -253.6 1.036e+04 3.861e-10
 60.81945   -252.6 1.045e+04 4.009e-10
 60.83905   -251.5 1.055e+04 4.323e-10
 60.85065   -250.4 1.066e+04 4.751e-10
 60.86045   -250.2 1.078e+04 5.182e-10
 60.87823   -249.1 1.089e+04 5.702e-10
 60.89783   -248.1 1.100e+04 6.288e-10
 60.91742   -247.0 1.110e+04 6.894e-10
 60.93701   -245.9 1.118e+04 7.456e-10
 60.95661   -244.9 1.122e+04 7.900e-10
 60.97620   -243.9 1.121e+04 8.174e-10
 60.99579   -242.9 1.120e+04 8.270e-10
 61.01539   -241.8 1.118e+04 8.289e-10
 61.03498   -240.7 1.109e+04 8.277e-10
 61.05458   -239.6 1.099e+04 8.083e-10
 61.07417   -238.4 1.089e+04 7.787e-10
 61.09376   -237.2 1.079e+04 7.468e-10
 61.11336   -236.0 1.068e+04 7.137e-10
 61.12597   -234.7 1.056e+04 6.788e-10
 61.13576   -234.7 1.066e+04 7.213e-10
 61.15254   -233.5 1.056e+04 6.952e-10
 61.17214   -232.1 1.046e+04 6.715e-10
 61.19173   -230.8 1.037e+04 6.469e-10
 61.21132   -229.3 1.029e+04 6.178e-10
 61.23092   -227.8 1.024e+04 5.852e-10
 61.24325   -226.4 1.022e+04 5.540e-10
 61.25304   -226.6 1.045e+04 6.606e-10
 61.27011   -225.3 1.045e+04 6.407e-10
 61.28970   -223.9 1.046e+04 6.233e-10
 61.30929   -222.7 1.048e+04 6.077e-10
 61.32889   -221.5 1.049e+04 5.942e-10
 61.34848   -220.3 1.050e+04 5.840e-10
 61.36807   -219.1 1.051e+04 5.798e-10
 61.38767   -217.9 1.055e+04 5.786e-10
 61.40128   -216.8 1.057e+04 5.879e-10
 61.41108   -217.2 1.111e+04 8.925e-10
 61.42685   -216.2 1.120e+04 9.467e-10
 61.44645   -215.1 1.132e+04 1.018e-09
 61.46604   -214.2 1.144e+04 1.100e-09
 61.48564   -213.3 1.154e+04 1.178e-09
 61.51512   -212.4 1.159e+04 1.210e-09
 61.55441   -210.1 1.158e+04 1.208e-09
 61.59360   -208.2 1.159e+04 1.226e-09
 61.63278   -205.9 1.131e+04 1.077e-09
 61.67197   -203.6 1.106e+04 9.476e-10
 61.71116   -201.2 1.082e+04 8.291e-10
 61.75035   -198.6 1.058e+04 7.239e-10
 61.78953   -196.1 1.039e+04 6.365e-10
 61.82872   -193.6 1.024e+04 5.636e-10
 61.86791   -191.1 1.013e+04 5.122e-10
 61.90709   -188.9 1.006e+04 4.688e-10
 61.94231   -186.9 1.005e+04 4.378e-10
 61.96190   -187.7 9.696e+03 3.141e-10
 61.98547   -185.9 9.686e+03 3.029e-10
 62.02466   -184.3 9.758e+03 3.085e-10
 62.06384   -182.9 9.914e+03 3.567e-10
 62.10303   -181.6 1.016e+04 4.308e-10
 62.14222   -180.2 1.047e+04 5.575e-10
 62.18141   -178.9 1.082e+04 7.190e-10
 62.22059   -177.7 1.111e+04 8.749e-10
 62.25978   -176.6 1.128e+04 9.666e-10
 62.29171   -175.6 1.132e+04 9.852e-10
 62.31130   -176.0 1.128e+04 9.563e-10
 62.33815   -175.2 1.118e+04 8.590e-10
 62.37734   -174.4 1.104e+04 7.458e-10
 62.41653   -173.8 1.092e+04 6.600e-10
 62.45572   -173.1 1.081e+04 6.025e-10
 62.49294   -172.2 1.069e+04 5.634e-10
 62.51253   -171.8 1.062e+04 5.427e-10
 62.53409   -170.8 1.035e+04 4.421e-10
 62.57328   -169.7 1.011e+04 3.656e-10
 62.61247   -168.6 9.973e+03 3.196e-10
 62.65165   -167.5 9.960e+03 3.072e-10
 62.69084   -166.6 1.004e+04 3.108e-10
 62.73003   -166.1 1.038e+04 3.534e-10
 62.76921   -165.9 1.090e+04 4.575e-10
 62.80840   -165.9 1.144e+04 6.363e-10
 62.84759   -166.0 1.186e+04 8.795e-10
 62.88678   -165.8 1.217e+04 1.155e-09
 62.92596   -165.6 1.238e+04 1.380e-09
 62.96515   -165.1 1.244e+04 1.422e-09
 63.00434   -164.4 1.233e+04 1.354e-09
 63.04353   -163.5 1.203e+04 1.087e-09
 63.08271   -159.8 1.260e+04 1.412e-09
 63.12190   -158.6 1.245e+04 9.786e-10
 63.15119   -158.8 1.128e+04 4.529e-10
 63.17069   -158.8 1.088e+04 3.737e-10
 63.19028   -158.7 1.050e+04 3.165e-10
 63.20988   -158.4 1.039e+04 3.062e-10
 63.22947   -157.8 1.038e+04 3.057e-10
 63.24906   -157.4 1.038e+04 3.107e-10
 63.26866   -156.8 1.050e+04 3.290e-10
 63.28825   -156.5 1.055e+04 3.394e-10
 63.30784   -156.0 1.059e+04 3.503e-10
 63.32744   -155.6 1.058e+04 3.539e-10
 63.33828   -155.1 1.057e+04 3.605e-10
 63.34807   -155.1 1.103e+04 4.843e-10
 63.35938   -154.6 1.094e+04 4.814e-10
 63.36917   -154.6 1.117e+04 5.646e-10
 63.38622   -154.0 1.103e+04 5.502e-10
 63.40581   -153.3 1.089e+04 5.340e-10
 63.42541   -152.5 1.076e+04 5.157e-10
 63.44500   -151.7 1.063e+04 4.956e-10
 63.46459   -150.9 1.053e+04 4.757e-10
 63.48419   -150.0 1.044e+04 4.598e-10
 63.50378   -149.2 1.040e+04 4.517e-10
 63.52338   -148.3 1.038e+04 4.509e-10
 63.54297   -147.5 1.037e+04 4.575e-10
 63.56256   -146.7 1.040e+04 4.778e-10
 63.58216   -145.8 1.044e+04 5.074e-10
 63.60175   -144.9 1.048e+04 5.362e-10
 63.61359   -144.0 1.050e+04 5.597e-10
 63.62339   -143.6 1.060e+04 6.023e-10
 63.64094   -142.6 1.062e+04 6.176e-10
 63.66053   -141.7 1.064e+04 6.331e-10
 63.68012   -140.7 1.065e+04 6.500e-10
 63.70961   -139.5 1.066e+04 6.567e-10
 63.74890   -137.3 1.043e+04 5.899e-10
 63.78808   -135.5 1.033e+04 5.535e-10
 63.82727   -133.6 1.031e+04 5.482e-10
 63.86646   -131.9 1.041e+04 6.090e-10
 63.90565   -130.3 1.069e+04 7.563e-10
 63.94483   -128.9 1.098e+04 9.424e-10
 63.98402   -127.7 1.112e+04 1.067e-09
 64.02321   -126.6 1.113e+04 1.097e-09
 64.06240   -125.3 1.095e+04 1.051e-09
 64.10158   -123.6 1.047e+04 8.524e-10
 64.14077   -121.7 9.971e+03 6.563e-10
 64.16441   -119.8 9.592e+03 5.216e-10
 64.17411   -119.6 9.641e+03 5.392e-10
 64.18956   -118.8 9.536e+03 4.922e-10
 64.21905   -117.5 9.416e+03 4.328e-10
 64.25833   -115.6 9.318e+03 4.040e-10
 64.29752   -113.7 9.235e+03 3.875e-10
 64.33671   -111.9 9.191e+03 3.798e-10
 64.37589   -110.0 9.167e+03 3.763e-10
 64.40784   -108.1 9.118e+03 3.715e-10
 64.42743   -107.7 9.438e+03 4.907e-10
 64.45427   -105.9 9.398e+03 4.668e-10
 64.49346   -104.0 9.284e+03 4.194e-10
 64.53264   -102.0 9.071e+03 3.490e-10
 64.57183    -99.8 8.807e+03 2.788e-10
 64.61102    -97.6 8.570e+03 2.254e-10
 64.65021    -95.4 8.412e+03 1.928e-10
 64.68939    -93.2 8.336e+03 1.770e-10
 64.71504    -90.9 8.313e+03 1.721e-10
 64.73463    -90.5 8.227e+03 1.595e-10
 64.76777    -88.2 8.221e+03 1.591e-10
 64.80695    -85.8 8.223e+03 1.607e-10
 64.84614    -83.4 8.232e+03 1.636e-10
 64.88533    -81.0 8.238e+03 1.654e-10
 64.92452    -78.5 8.251e+03 1.666e-10
 64.96370    -76.0 8.287e+03 1.698e-10
 65.00289    -73.7 8.410e+03 1.842e-10
 65.04208    -71.3 8.613e+03 2.149e-10
 65.08127    -69.0 8.842e+03 2.641e-10
 65.12045    -66.6 9.090e+03 3.207e-10
 65.15964    -64.2 9.292e+03 3.711e-10
 65.19883    -61.7 9.438e+03 4.015e-10
 65.23801    -59.3 9.532e+03 4.140e-10
 65.26567    -56.9 9.687e+03 4.336e-10
 65.28526    -57.8 9.574e+03 3.936e-10
 65.31639    -55.7 9.812e+03 4.240e-10
 65.35558    -53.7 1.015e+04 5.276e-10
 65.39476    -51.6 1.048e+04 7.027e-10
 65.43395    -49.4 1.076e+04 8.704e-10
 65.46590    -47.2 1.096e+04 9.794e-10
 65.48550    -46.6 1.088e+04 8.730e-10
 65.51233    -44.2 1.108e+04 9.587e-10
 65.55151    -42.2 1.128e+04 9.981e-10
 65.58081    -41.0 1.141e+04 1.064e-09
 65.60030    -40.9 1.184e+04 1.185e-09
 65.61990    -44.7 1.492e+04 1.870e-09
 65.63949    -49.1 1.791e+04 7.674e-09
 65.65414    -49.7 1.888e+04 2.465e-08
 65.66388    -49.1 1.951e+04 5.053e-08
 65.67368    -47.6 2.019e+04 9.200e-08
 65.68324    -46.3 2.090e+04 1.345e-07
 65.68814    -46.4 2.063e+04 1.199e-07
 65.69327    -46.3 2.094e+04 1.372e-07
 65.70307    -46.4 2.075e+04 1.282e-07
 65.71287    -45.3 2.022e+04 7.852e-08
 65.72266    -44.6 1.988e+04 4.103e-08
 65.73246    -44.9 1.944e+04 2.214e-08
 65.73992    -46.7 1.856e+04 1.397e-08
 65.74482    -46.8 1.842e+04 1.372e-08
 65.75700    -48.0 1.721e+04 9.266e-09
 65.77664    -48.4 1.536e+04 4.917e-09
 65.79624    -48.9 1.394e+04 3.063e-09
 65.81583    -49.2 1.330e+04 2.562e-09
 65.82590    -48.7 1.306e+04 2.422e-09
 65.83569    -49.2 1.330e+04 2.422e-09
 65.85502    -48.2 1.322e+04 2.372e-09
 65.87461    -47.5 1.330e+04 2.385e-09
 65.89421    -47.1 1.347e+04 2.472e-09
 65.91380    -46.9 1.364e+04 2.565e-09
 65.93339    -46.7 1.376e+04 2.685e-09
 65.95299    -46.6 1.397e+04 2.791e-09
 65.97258    -46.6 1.439e+04 2.892e-09
 65.99217    -46.8 1.513e+04 3.042e-09
 66.00453    -47.5 1.603e+04 3.395e-09
 66.01433    -46.5 1.545e+04 3.096e-09
 66.03136    -47.3 1.640e+04 3.582e-09
 66.05096    -48.2 1.708e+04 4.464e-09
 66.07055    -48.8 1.724e+04 5.823e-09
 66.09014    -49.2 1.736e+04 7.441e-09
 66.10121    -49.4 1.757e+04 9.076e-09
 66.11101    -51.4 1.758e+04 9.433e-09
 66.12933    -51.8 1.786e+04 9.148e-09
 66.14892    -52.5 1.797e+04 8.181e-09
 66.16852    -53.4 1.780e+04 6.523e-09
 66.18811    -54.3 1.739e+04 4.776e-09
 66.20771    -55.3 1.659e+04 3.155e-09
 66.22730    -56.4 1.520e+04 1.952e-09
 66.24689    -57.6 1.321e+04 1.224e-09
 66.26649    -58.2 1.165e+04 9.321e-10
 66.28608    -57.9 1.119e+04 8.616e-10
 66.30567    -57.0 1.123e+04 8.729e-10
 66.33516    -55.7 1.138e+04 9.091e-10
 66.36692    -53.3 1.135e+04 9.042e-10
 66.38652    -53.9 1.106e+04 8.213e-10
 66.41363    -51.4 1.105e+04 8.397e-10
 66.44293    -49.0 1.122e+04 9.004e-10
 66.46242    -48.1 1.107e+04 8.341e-10
 66.49191    -46.5 1.083e+04 7.437e-10
 66.52397    -43.5 1.051e+04 5.997e-10
 66.54356    -43.4 1.078e+04 6.789e-10
 66.57038    -40.8 1.058e+04 5.507e-10
 66.60957    -38.7 1.050e+04 4.828e-10
 66.64876    -36.8 1.046e+04 4.566e-10
 66.68794    -35.2 1.065e+04 5.091e-10
 66.72713    -33.5 1.089e+04 6.585e-10
 66.76632    -31.7 1.102e+04 8.052e-10
 66.80551    -29.9 1.106e+04 8.640e-10
 66.84469    -28.2 1.094e+04 8.337e-10
 66.88388    -26.3 1.056e+04 6.068e-10
 66.91755    -24.8 1.000e+04 3.924e-10
 66.93714    -26.0 9.322e+03 1.818e-10
 66.96226    -24.0 9.136e+03 1.271e-10
 67.00144    -21.7 9.086e+03 9.665e-11
 67.04063    -19.2 9.037e+03 7.575e-11
 67.07982    -16.9 8.970e+03 6.239e-11
 67.11901    -14.8 8.905e+03 5.779e-11
 67.15819    -12.6 8.946e+03 5.927e-11
 67.19738    -10.8 8.958e+03 7.941e-11
 67.23657     -8.4 8.941e+03 1.142e-10
 67.27575     -5.4 9.021e+03 1.437e-10
 67.31494     -2.5 9.136e+03 1.553e-10
 67.35413     -0.1 9.267e+03 1.535e-10
 67.39332      1.6 9.498e+03 1.421e-10
 67.43250      2.8 9.589e+03 1.552e-10
 67.46818      4.4 9.417e+03 2.154e-10
 67.48777      4.8 9.300e+03 3.729e-10
 67.51088      7.6 9.294e+03 4.052e-10
 67.55007     10.5 9.299e+03 3.735e-10
 67.58203     13.0 9.318e+03 3.268e-10
 67.60162     13.6 9.294e+03 3.083e-10
 67.62844     15.6 9.229e+03 2.774e-10
 67.66763     17.6 9.202e+03 2.857e-10
 67.70681     19.8 9.173e+03 3.203e-10
 67.74600     22.3 9.229e+03 3.642e-10
 67.78519     24.9 9.296e+03 3.713e-10
 67.82438     27.7 9.263e+03 3.524e-10
 67.86356     30.6 9.119e+03 2.746e-10
 67.90275     33.0 9.027e+03 1.923e-10
 67.94194     35.0 8.900e+03 1.359e-10
 67.98113     36.9 8.694e+03 1.219e-10
 68.01881     39.1 8.691e+03 1.253e-10
 68.03840     38.9 8.489e+03 1.615e-10
 68.05950     41.1 8.550e+03 1.739e-10
 68.09869     43.2 8.753e+03 2.124e-10
 68.13787     45.5 9.011e+03 2.686e-10
 68.17706     47.8 9.273e+03 3.183e-10
 68.21625     49.9 9.315e+03 3.337e-10
 68.25544     52.0 9.243e+03 3.236e-10
 68.29462     54.0 9.060e+03 2.824e-10
 68.33381     56.1 8.844e+03 2.255e-10
 68.37300     58.1 8.664e+03 1.768e-10
 68.41219     60.1 8.537e+03 1.472e-10
 68.45137     62.1 8.474e+03 1.356e-10
 68.49056     64.3 8.463e+03 1.334e-10
 68.52975     66.6 8.463e+03 1.342e-10
 68.56894     68.8 8.468e+03 1.356e-10
 68.58903     71.1 8.485e+03 1.372e-10
 68.60862     71.3 8.559e+03 1.186e-10
 68.64009     73.6 8.579e+03 1.218e-10
 68.65969     73.7 8.549e+03 1.211e-10
 68.68650     76.0 8.557e+03 1.255e-10
 68.72568     78.2 8.576e+03 1.329e-10
 68.76487     80.6 8.611e+03 1.428e-10
 68.80406     82.9 8.665e+03 1.528e-10
 68.84325     85.4 8.759e+03 1.550e-10
 68.88243     87.7 8.780e+03 1.534e-10
 68.92162     89.9 8.806e+03 1.459e-10
 68.96081     92.1 8.798e+03 1.320e-10
 69.00000     94.1 8.780e+03 1.165e-10
 69.03918     96.1 8.733e+03 1.059e-10
 69.07837     98.3 8.588e+03 1.034e-10
 69.11756    100.6 8.487e+03 1.024e-10
 69.13965    103.1 8.423e+03 1.017e-10
 69.15925    103.7 8.529e+03 9.849e-11
 69.19593    106.2 8.456e+03 9.823e-11
 69.23512    108.8 8.437e+03 1.000e-10
 69.27431    111.5 8.420e+03 1.062e-10
 69.31349    114.3 8.427e+03 1.170e-10
 69.35268    117.1 8.447e+03 1.314e-10
 69.39187    119.9 8.476e+03 1.470e-10
 69.43106    122.7 8.518e+03 1.615e-10
 69.47024    125.5 8.545e+03 1.734e-10
 69.50943    128.2 8.633e+03 1.759e-10
 69.54862    130.8 8.677e+03 1.766e-10
 69.58781    133.3 8.729e+03 1.783e-10
 69.62699    135.8 8.772e+03 1.847e-10
 69.66618    138.2 8.805e+03 1.957e-10
 69.69028    140.5 8.833e+03 2.116e-10
 69.70267    141.2 8.531e+03 1.730e-10
 69.71775    141.7 8.533e+03 1.930e-10
 69.74455    144.1 8.589e+03 1.979e-10
 69.78374    146.5 8.610e+03 2.008e-10
 69.82293    148.9 8.599e+03 2.008e-10
 69.86212    151.3 8.549e+03 1.957e-10
 69.90130    153.8 8.464e+03 1.929e-10
 69.94049    156.3 8.483e+03 2.001e-10
 69.97968    158.9 8.541e+03 2.228e-10
 70.01887    161.6 8.672e+03 2.588e-10
 70.05805    164.2 8.837e+03 3.049e-10
 70.09724    166.9 9.018e+03 3.560e-10
 70.13643    169.5 9.211e+03 4.079e-10
 70.17561    172.0 9.403e+03 4.568e-10
 70.21480    174.5 9.568e+03 4.952e-10
 70.24091    176.8 9.693e+03 5.135e-10
 70.26050    177.7 9.466e+03 4.596e-10
 70.29318    180.0 9.677e+03 5.128e-10
 70.33236    182.4 9.859e+03 5.497e-10
 70.37155    184.8 9.946e+03 5.547e-10
 70.41074    187.0 9.948e+03 5.524e-10
 70.44993    189.0 9.968e+03 5.480e-10
 70.48911    190.7 1.000e+04 5.489e-10
 70.52830    192.2 1.010e+04 5.531e-10
 70.56749    193.1 1.018e+04 5.472e-10
 70.60667    194.1 1.019e+04 5.290e-10
 70.64586    194.9 1.013e+04 4.855e-10
 70.68505    195.4 9.988e+03 4.141e-10
 70.72424    195.7 9.760e+03 3.310e-10
 70.75622    195.9 9.485e+03 2.673e-10
 70.77581    196.5 9.591e+03 3.081e-10
 70.79154    196.7 9.321e+03 2.632e-10
 70.81113    197.3 9.315e+03 2.758e-10
 70.84180    197.4 9.093e+03 2.510e-10
 70.88099    197.6 9.072e+03 2.519e-10
 70.92017    197.7 9.081e+03 2.620e-10
 70.95936    197.8 9.231e+03 2.861e-10
 70.99855    197.5 9.481e+03 3.215e-10
 71.02784    196.8 9.890e+03 4.024e-10
 71.04734    196.0 1.025e+04 5.240e-10
 71.06666    195.2 1.055e+04 6.870e-10
 71.07645    194.9 1.058e+04 7.266e-10
 71.08652    194.1 1.092e+04 9.504e-10
 71.10612    193.4 1.130e+04 1.217e-09
 71.12571    192.9 1.169e+04 1.497e-09
 71.14530    192.3 1.210e+04 1.712e-09
 71.16490    191.5 1.245e+04 1.739e-09
 71.18449    190.2 1.248e+04 1.718e-09
 71.20409    188.6 1.254e+04 1.626e-09
 71.22368    186.7 1.261e+04 1.579e-09
 71.24327    184.3 1.269e+04 1.607e-09
 71.26287    181.5 1.304e+04 1.798e-09
 71.28246    178.7 1.367e+04 2.386e-09
 71.29485    176.6 1.429e+04 3.312e-09
 71.30465    177.0 1.419e+04 3.160e-09
 71.32165    175.1 1.454e+04 3.737e-09
 71.34124    173.3 1.457e+04 3.760e-09
 71.35177    171.4 1.446e+04 3.555e-09
 71.36156    170.8 1.420e+04 3.051e-09
 71.38043    168.6 1.371e+04 2.379e-09
 71.40002    166.0 1.310e+04 1.836e-09
 71.41962    163.4 1.256e+04 1.584e-09
 71.43921    161.1 1.243e+04 1.565e-09
 71.45880    159.3 1.245e+04 1.593e-09
 71.47840    157.8 1.263e+04 1.730e-09
 71.49799    156.6 1.294e+04 1.993e-09
 71.51758    155.6 1.324e+04 2.306e-09
 71.53718    154.8 1.339e+04 2.500e-09
 71.55677    154.0 1.338e+04 2.493e-09
 71.57637    153.3 1.324e+04 2.361e-09
 71.59596    152.7 1.294e+04 2.083e-09
 71.61555    151.8 1.261e+04 1.806e-09
 71.62708    150.6 1.235e+04 1.634e-09
 71.63688    149.4 1.219e+04 1.544e-09
 71.65474    148.6 1.217e+04 1.542e-09
 71.67433    147.7 1.228e+04 1.642e-09
 71.69393    146.8 1.245e+04 1.813e-09
 71.71352    146.1 1.258e+04 1.949e-09
 71.74301    145.3 1.242e+04 1.795e-09
 71.78229    144.1 1.220e+04 1.658e-09
 71.81428    143.9 1.164e+04 1.298e-09
 71.83388    143.1 1.133e+04 1.081e-09
 71.86067    143.2 1.053e+04 6.721e-10
 71.89279    143.5 9.733e+03 4.073e-10
 71.91239    142.9 9.661e+03 3.971e-10
 71.93904    143.3 9.129e+03 2.789e-10
 71.97823    144.7 9.133e+03 2.588e-10
 72.01742    146.4 9.206e+03 2.673e-10
 72.05660    147.7 9.380e+03 3.039e-10
 72.08590    148.1 9.411e+03 3.288e-10
 72.10539    148.4 9.519e+03 3.714e-10
 72.12499    148.7 9.831e+03 4.633e-10
 72.14458    149.1 1.032e+04 6.156e-10
 72.16417    149.4 1.090e+04 8.356e-10
 72.17771    149.4 1.153e+04 1.149e-09
 72.18751    149.3 1.182e+04 1.180e-09
 72.20336    149.0 1.265e+04 1.588e-09
 72.22296    148.0 1.379e+04 2.221e-09
 72.24255    146.2 1.509e+04 3.248e-09
 72.26214    144.3 1.622e+04 4.752e-09
 72.28174    142.5 1.691e+04 5.903e-09
 72.30133    140.2 1.692e+04 5.867e-09
 72.32092    137.8 1.652e+04 5.187e-09
 72.34052    135.9 1.550e+04 3.541e-09
 72.35292    133.8 1.390e+04 1.903e-09
 72.36271    132.9 1.233e+04 1.165e-09
 72.37970    130.3 1.117e+04 6.922e-10
 72.39930    127.8 1.107e+04 6.461e-10
 72.41889    125.5 1.133e+04 6.832e-10
 72.43849    123.5 1.193e+04 8.604e-10
 72.45302    122.4 1.239e+04 1.219e-09
 72.46282    120.9 1.257e+04 1.516e-09
 72.47767    121.1 1.288e+04 2.184e-09
 72.49727    121.6 1.302e+04 2.633e-09
 72.51686    122.0 1.300e+04 2.641e-09
 72.53645    122.4 1.284e+04 2.520e-09
 72.55605    122.9 1.242e+04 2.109e-09
 72.57564    123.4 1.185e+04 1.586e-09
 72.59523    123.5 1.121e+04 1.110e-09
 72.61483    123.3 1.055e+04 7.656e-10
 72.63442    122.9 1.001e+04 5.708e-10
 72.65402    122.8 9.772e+03 5.270e-10
 72.67361    123.0 9.765e+03 5.274e-10
 72.69320    123.5 9.774e+03 5.406e-10
 72.71280    124.1 9.951e+03 6.146e-10
 72.72834    124.6 1.022e+04 7.264e-10
 72.73813    123.9 1.047e+04 8.501e-10
 72.76188    125.1 1.091e+04 1.023e-09
 72.80116    125.7 1.169e+04 1.415e-09
 72.83046    125.3 1.202e+04 1.613e-09
 72.84995    124.8 1.235e+04 1.837e-09
 72.86955    124.2 1.244e+04 1.883e-09
 72.88195    123.8 1.238e+04 1.854e-09
 72.89184    124.8 1.223e+04 1.673e-09
 72.91873    123.8 1.213e+04 1.590e-09
 72.95791    122.8 1.182e+04 1.371e-09
 72.99405    122.2 1.131e+04 1.085e-09
 73.01364    121.8 1.077e+04 8.824e-10
 73.02639    121.9 1.049e+04 7.605e-10
 73.04589    122.0 1.033e+04 6.796e-10
 73.06548    122.3 1.016e+04 5.974e-10
 73.08508    122.6 1.000e+04 5.212e-10
 73.10467    123.1 9.813e+03 4.482e-10
 73.12426    123.3 9.714e+03 4.159e-10
 73.15375    124.2 9.684e+03 4.070e-10
 73.19304    125.5 9.708e+03 4.093e-10
 73.23222    127.0 9.790e+03 4.229e-10
 73.27141    128.6 9.885e+03 4.282e-10
 73.31060    130.2 9.885e+03 4.209e-10
 73.34979    131.9 9.838e+03 3.868e-10
 73.38897    133.8 9.686e+03 3.205e-10
 73.42816    135.7 9.462e+03 2.459e-10
 73.46735    137.6 9.221e+03 1.829e-10
 73.50654    139.4 8.993e+03 1.395e-10
 73.54468    141.3 8.792e+03 1.165e-10
 73.56427    140.9 8.757e+03 1.190e-10
 73.58491    143.0 8.679e+03 1.131e-10
 73.62410    145.2 8.673e+03 1.112e-10
 73.66328    147.4 8.671e+03 1.102e-10
 73.70247    149.5 8.675e+03 1.108e-10
 73.74166    151.6 8.692e+03 1.137e-10
 73.78085    153.6 8.730e+03 1.229e-10
 73.82003    155.6 8.861e+03 1.480e-10
 73.85922    157.4 9.132e+03 2.016e-10
 73.89841    159.0 9.479e+03 2.898e-10
 73.93041    159.9 9.739e+03 3.853e-10
 73.95001    159.9 9.518e+03 3.426e-10
 73.96689    160.2 9.657e+03 4.017e-10
 73.98638    160.6 9.840e+03 4.832e-10
 74.00598    161.2 1.008e+04 6.022e-10
 74.02557    161.8 1.032e+04 7.022e-10
 74.04517    162.0 1.037e+04 7.084e-10
 74.06476    162.0 1.036e+04 6.991e-10
 74.08435    162.0 1.027e+04 6.551e-10
 74.10395    162.0 1.021e+04 6.255e-10
 74.11480    162.6 9.970e+03 5.375e-10
 74.13449    163.2 9.775e+03 4.855e-10
 74.17272    164.1 9.303e+03 3.613e-10
 74.21191    165.4 8.873e+03 2.801e-10
 74.25109    167.2 8.725e+03 2.595e-10
 74.29028    169.3 8.733e+03 2.608e-10
 74.32947    171.7 8.780e+03 2.703e-10
 74.36866    174.0 8.921e+03 2.924e-10
 74.40784    175.8 9.138e+03 3.233e-10
 74.43714    176.4 9.358e+03 3.701e-10
 74.45663    177.1 9.660e+03 4.508e-10
 74.46905    177.8 1.004e+04 5.833e-10
 74.47884    178.6 9.630e+03 4.488e-10
 74.49582    179.3 1.004e+04 5.751e-10
 74.51541    179.8 1.046e+04 7.415e-10
 74.53501    180.0 1.085e+04 9.414e-10
 74.55460    180.1 1.122e+04 1.173e-09
 74.57419    180.1 1.172e+04 1.445e-09
 74.59379    179.8 1.239e+04 1.779e-09
 74.61338    178.9 1.317e+04 2.167e-09
 74.63297    177.6 1.383e+04 2.524e-09
 74.65257    176.1 1.420e+04 2.683e-09
 74.66533    174.5 1.418e+04 2.666e-09
 74.67513    174.4 1.436e+04 2.853e-09
 74.69176    173.1 1.398e+04 2.559e-09
 74.71135    172.3 1.329e+04 2.017e-09
 74.73094    171.7 1.243e+04 1.445e-09
 74.75054    171.2 1.162e+04 1.031e-09
 74.77013    170.7 1.093e+04 7.385e-10
 74.78972    170.2 1.042e+04 5.508e-10
 74.80932    169.9 1.007e+04 4.405e-10
 74.82891    169.8 9.908e+03 3.813e-10
 74.84850    169.8 9.836e+03 3.567e-10
 74.87799    169.9 9.780e+03 3.380e-10
 74.91728    170.7 9.830e+03 3.441e-10
 74.95647    171.1 9.904e+03 3.593e-10
 74.98848    171.1 9.934e+03 3.755e-10
 75.00797    171.2 9.943e+03 3.979e-10
 75.02485    171.3 9.976e+03 4.101e-10
 75.04444    171.3 1.001e+04 4.186e-10
 75.06403    171.1 1.003e+04 4.239e-10
 75.08363    170.9 1.004e+04 4.269e-10
 75.10322    170.6 1.005e+04 4.296e-10
 75.12282    170.2 1.009e+04 4.384e-10
 75.14241    169.7 1.019e+04 4.683e-10
 75.16200    169.2 1.037e+04 5.319e-10
 75.18160    168.6 1.063e+04 6.414e-10
 75.20119    167.9 1.100e+04 8.150e-10
 75.21596    167.3 1.149e+04 1.084e-09
 75.22575    166.9 1.155e+04 1.146e-09
 75.24038    166.3 1.212e+04 1.532e-09
 75.25997    165.6 1.280e+04 2.029e-09
 75.27957    164.6 1.353e+04 2.573e-09
 75.29916    163.0 1.417e+04 3.078e-09
 75.31875    160.6 1.470e+04 3.479e-09
 75.33835    157.0 1.525e+04 3.847e-09
 75.35794    152.4 1.578e+04 4.254e-09
 75.37259    148.7 1.606e+04 4.488e-09
 75.38233    146.6 1.615e+04 4.709e-09
 75.39708    143.4 1.660e+04 5.747e-09
 75.41672    139.1 1.696e+04 6.547e-09
 75.43631    135.0 1.698e+04 6.523e-09
 75.45591    131.2 1.665e+04 5.846e-09
 75.47550    127.8 1.566e+04 4.243e-09
 75.49127    125.0 1.418e+04 2.634e-09
 75.50107    125.0 1.438e+04 2.755e-09
 75.51469    122.7 1.257e+04 1.580e-09
 75.52711    120.7 1.094e+04 9.309e-10
 75.53691    119.3 1.075e+04 9.189e-10
 75.55388    118.1 1.076e+04 6.990e-10
 75.57347    117.9 1.077e+04 6.980e-10
 75.59306    118.1 1.077e+04 6.994e-10
 75.61266    118.5 1.080e+04 7.137e-10
 75.63225    118.9 1.092e+04 7.736e-10
 75.65184    119.2 1.114e+04 9.131e-10
 75.67144    119.7 1.156e+04 1.178e-09
 75.69103    120.2 1.243e+04 1.678e-09
 75.71063    120.6 1.383e+04 2.636e-09
 75.73022    120.7 1.521e+04 4.010e-09
 75.74487    120.6 1.579e+04 4.703e-09
 75.75461    120.5 1.623e+04 5.176e-09
 75.76441    119.9 1.704e+04 6.346e-09
 75.77139    119.4 1.773e+04 8.047e-09
 75.77629    118.8 1.738e+04 7.502e-09
 75.78895    118.4 1.781e+04 8.895e-09
 75.80859    118.8 1.825e+04 1.017e-08
 75.82819    119.1 1.824e+04 1.021e-08
 75.84778    119.7 1.812e+04 9.216e-09
 75.86737    120.6 1.777e+04 6.784e-09
 75.88697    121.5 1.716e+04 4.240e-09
 75.90656    121.6 1.616e+04 2.329e-09
 75.92616    121.2 1.471e+04 1.281e-09
 75.94575    120.8 1.310e+04 8.470e-10
 75.96534    121.6 1.270e+04 7.642e-10
 75.98494    122.2 1.215e+04 6.601e-10
 76.01442    123.9 1.188e+04 6.178e-10
 76.04654    126.4 1.157e+04 5.553e-10
 76.06613    125.8 1.157e+04 5.728e-10
 76.09290    128.8 1.150e+04 5.310e-10
 76.13208    131.5 1.138e+04 4.865e-10
 76.17127    133.9 1.116e+04 4.152e-10
 76.21046    136.2 1.139e+04 4.167e-10
 76.24965    138.3 1.131e+04 3.855e-10
 76.28883    140.4 1.133e+04 3.750e-10
 76.31741    142.5 1.139e+04 3.770e-10
 76.32711    141.0 1.228e+04 6.381e-10
 76.33762    141.8 1.224e+04 6.380e-10
 76.35722    143.4 1.224e+04 6.335e-10
 76.37681    144.4 1.226e+04 6.393e-10
 76.39640    145.5 1.225e+04 6.324e-10
 76.41600    146.7 1.222e+04 6.152e-10
 76.43559    148.0 1.226e+04 6.325e-10
 76.45518    148.7 1.224e+04 6.384e-10
 76.47478    149.9 1.224e+04 6.402e-10
 76.49437    150.6 1.222e+04 6.387e-10
 76.51396    151.7 1.219e+04 6.346e-10
 76.53356    152.3 1.219e+04 6.355e-10
 76.55315    153.3 1.217e+04 6.229e-10
 76.57275    154.0 1.216e+04 6.118e-10
 76.58517    154.6 1.206e+04 5.766e-10
 76.59497    155.0 1.196e+04 5.377e-10
 76.60232    155.6 1.184e+04 5.068e-10
 76.61212    155.7 1.222e+04 6.999e-10
 76.63153    156.2 1.204e+04 6.385e-10
 76.65112    156.7 1.186e+04 5.734e-10
 76.67071    157.0 1.174e+04 5.115e-10
 76.69031    157.1 1.166e+04 4.610e-10
 76.70990    157.1 1.170e+04 4.411e-10
 76.72950    157.0 1.172e+04 4.417e-10
 76.74909    156.8 1.176e+04 4.468e-10
 76.76868    156.5 1.177e+04 4.588e-10
 76.78828    156.3 1.174e+04 4.784e-10
 76.80787    156.0 1.170e+04 5.049e-10
 76.82746    155.8 1.166e+04 5.367e-10
 76.84706    155.6 1.166e+04 5.709e-10
 76.86665    155.2 1.179e+04 6.186e-10
 76.87764    154.5 1.209e+04 7.074e-10
 76.88743    153.3 1.207e+04 6.822e-10
 76.90584    151.7 1.268e+04 8.837e-10
 76.92543    149.6 1.346e+04 1.295e-09
 76.94503    148.4 1.428e+04 2.041e-09
 76.96462    148.4 1.521e+04 3.247e-09
 76.98421    148.7 1.606e+04 4.737e-09
 77.00381    149.3 1.665e+04 5.511e-09
 77.02340    149.5 1.671e+04 5.500e-09
 77.04299    149.8 1.676e+04 5.084e-09
 77.06259    149.5 1.719e+04 4.180e-09
 77.08218    148.1 1.863e+04 3.442e-09
 77.10177    145.3 1.940e+04 3.425e-09
 77.11420    142.1 2.030e+04 3.590e-09
 77.12400    138.3 1.835e+04 2.117e-09
 77.14096    136.8 1.773e+04 2.295e-09
 77.15295    136.4 1.650e+04 2.972e-09
 77.16275    134.4 1.682e+04 4.396e-09
 77.18015    134.9 1.712e+04 4.668e-09
 77.19974    135.4 1.748e+04 4.585e-09
 77.21934    135.8 1.761e+04 4.602e-09
 77.23893    136.4 1.810e+04 4.409e-09
 77.25852    137.1 1.839e+04 4.051e-09
 77.27812    137.8 1.831e+04 3.869e-09
 77.29771    138.6 1.834e+04 3.953e-09
 77.31730    139.2 1.838e+04 4.351e-09
 77.33195    138.7 1.829e+04 4.620e-09
 77.34170    138.6 1.814e+04 4.742e-09
 77.35150    138.6 1.843e+04 5.350e-09
 77.36129    138.7 1.862e+04 5.790e-09
 77.37109    138.6 1.933e+04 6.760e-09
 77.37862    138.6 1.965e+04 7.390e-09
 77.38352    138.1 1.935e+04 7.289e-09
 77.39068    137.9 1.998e+04 8.484e-09
 77.40048    137.9 2.022e+04 9.148e-09
 77.41028    137.6 2.063e+04 1.039e-08
 77.42007    137.5 2.064e+04 1.101e-08
 77.42817    137.1 2.077e+04 1.213e-08
 77.43801    136.4 2.006e+04 9.523e-09
 77.45446    135.8 2.015e+04 1.093e-08
 77.47405    134.9 2.054e+04 1.242e-08
 77.48870    134.1 2.090e+04 1.379e-08
 77.49845    133.5 2.115e+04 1.450e-08
 77.50825    132.6 2.160e+04 1.556e-08
 77.51804    131.3 2.281e+04 1.765e-08
 77.52784    129.1 2.479e+04 2.199e-08
 77.53764    126.1 2.623e+04 3.183e-08
 77.54743    123.5 2.580e+04 5.920e-08
 77.55723    122.3 2.413e+04 1.449e-07
 77.56583    121.8 2.267e+04 3.599e-07
 77.57072    122.5 2.247e+04 5.204e-07
 77.57682    120.8 2.202e+04 9.273e-07
 77.58662    117.0 2.199e+04 9.308e-07
 77.59642    115.5 2.191e+04 7.057e-07
 77.60621    115.8 2.214e+04 3.634e-07
 77.61601    117.0 2.254e+04 1.397e-07
 77.62581    117.5 2.322e+04 4.590e-08
 77.63560    116.8 2.395e+04 1.597e-08
 77.64319    114.8 2.272e+04 8.864e-09
 77.65303    110.9 2.138e+04 3.786e-09
 77.66999    106.4 1.550e+04 2.038e-09
 77.68958    104.8 1.385e+04 1.688e-09
 77.70358    104.7 1.337e+04 1.532e-09
 77.71338    104.2 1.303e+04 1.437e-09
 77.72877    104.7 1.285e+04 1.366e-09
 77.74836    105.5 1.277e+04 1.329e-09
 77.76796    106.1 1.271e+04 1.307e-09
 77.78755    106.6 1.261e+04 1.278e-09
 77.80715    107.0 1.251e+04 1.239e-09
 77.82674    107.4 1.240e+04 1.192e-09
 77.84633    107.9 1.238e+04 1.159e-09
 77.86593    108.4 1.246e+04 1.168e-09
 77.88552    108.7 1.266e+04 1.215e-09
 77.90511    108.9 1.294e+04 1.311e-09
 77.92471    109.3 1.323e+04 1.466e-09
 77.94430    109.4 1.342e+04 1.644e-09
 77.96390    109.0 1.410e+04 2.020e-09
 77.97889    106.0 1.718e+04 3.320e-09
 77.98869    108.6 1.692e+04 2.805e-09
 77.99814    106.9 1.809e+04 3.763e-09
 78.00788    105.5 1.881e+04 4.635e-09
 78.01768    102.1 2.124e+04 6.675e-09
 78.02748     94.2 2.667e+04 1.491e-08
 78.03727     82.5 3.052e+04 4.858e-08
 78.04707     69.9 3.102e+04 1.039e-07
 78.05687     57.4 3.098e+04 1.037e-07
 78.06666     46.1 3.059e+04 6.577e-08
 78.07646     34.5 2.821e+04 3.062e-08
 78.08626     25.0 2.362e+04 1.728e-08
 78.10100     16.4 2.108e+04 1.225e-08
 78.12064      9.5 1.952e+04 9.662e-09
 78.14024      5.5 1.905e+04 9.494e-09
 78.15983      3.5 1.822e+04 9.158e-09
 78.17227      3.5 1.755e+04 8.235e-09
 78.18207      2.2 1.822e+04 9.036e-09
 78.19902      2.5 1.785e+04 8.623e-09
 78.21861      3.0 1.754e+04 7.801e-09
 78.23821      3.4 1.737e+04 6.617e-09
 78.25421      3.1 1.710e+04 4.964e-09
 78.26400      2.3 1.703e+04 5.701e-09
 78.27739      2.0 1.665e+04 4.466e-09
 78.29699      1.6 1.616e+04 3.530e-09
 78.31658      1.0 1.553e+04 2.941e-09
 78.33617      0.8 1.497e+04 2.629e-09
 78.35577      0.7 1.458e+04 2.570e-09
 78.37536      1.0 1.441e+04 2.712e-09
 78.39496      1.7 1.433e+04 2.977e-09
 78.41455      2.4 1.439e+04 3.124e-09
 78.43414      3.5 1.429e+04 3.012e-09
 78.45374      4.6 1.412e+04 2.718e-09
 78.47333      5.6 1.388e+04 2.265e-09
 78.49292      6.3 1.352e+04 1.841e-09
 78.51252      6.7 1.327e+04 1.435e-09
 78.52952      6.7 1.296e+04 1.133e-09
 78.53932      7.8 1.283e+04 1.219e-09
 78.55170      8.0 1.261e+04 1.043e-09
 78.57130      8.2 1.242e+04 9.627e-10
 78.59089      8.6 1.224e+04 9.381e-10
 78.61049      9.4 1.220e+04 9.570e-10
 78.63008     10.2 1.224e+04 1.023e-09
 78.64967     11.0 1.238e+04 1.118e-09
 78.66927     11.7 1.265e+04 1.254e-09
 78.68886     12.2 1.309e+04 1.480e-09
 78.70130     12.2 1.370e+04 1.856e-09
 78.71110     11.3 1.430e+04 2.173e-09
 78.72805     11.1 1.484e+04 2.641e-09
 78.74764     11.4 1.525e+04 3.179e-09
 78.76723     12.1 1.539e+04 3.463e-09
 78.78683     13.2 1.521e+04 3.276e-09
 78.80484     14.0 1.491e+04 2.681e-09
 78.81463     15.1 1.496e+04 2.620e-09
 78.82602     15.1 1.467e+04 1.929e-09
 78.84561     14.4 1.415e+04 1.335e-09
 78.86520     12.9 1.326e+04 9.592e-10
 78.88480     11.4 1.253e+04 8.485e-10
 78.90439     10.5 1.272e+04 9.112e-10
 78.92398      9.8 1.301e+04 1.133e-09
 78.94358      9.8 1.336e+04 1.466e-09
 78.96317     10.1 1.383e+04 1.898e-09
 78.98276     10.4 1.445e+04 2.367e-09
 79.00236     10.8 1.516e+04 2.829e-09
 79.02195     11.2 1.586e+04 3.162e-09
 79.04155     11.3 1.601e+04 3.176e-09
 79.06114     11.6 1.583e+04 2.965e-09
 79.08015     11.6 1.546e+04 2.590e-09
 79.08995     11.4 1.492e+04 2.477e-09
 79.10033     11.3 1.444e+04 2.225e-09
 79.11992     11.5 1.385e+04 1.970e-09
 79.13951     11.8 1.332e+04 1.738e-09
 79.15911     12.4 1.304e+04 1.562e-09
 79.17870     13.0 1.282e+04 1.415e-09
 79.19830     13.9 1.258e+04 1.285e-09
 79.21789     14.9 1.239e+04 1.169e-09
 79.23033     16.1 1.213e+04 1.044e-09
 79.24013     15.7 1.211e+04 1.017e-09
 79.25708     17.1 1.183e+04 8.949e-10
 79.27667     18.4 1.165e+04 7.963e-10
 79.29626     19.7 1.146e+04 7.001e-10
 79.31586     20.9 1.126e+04 6.161e-10
 79.33545     22.2 1.111e+04 5.658e-10
 79.35504     23.5 1.105e+04 5.481e-10
 79.36526     24.6 1.102e+04 5.462e-10
 79.37506     25.1 1.085e+04 4.714e-10
 79.39423     26.2 1.085e+04 4.920e-10
 79.41383     27.4 1.091e+04 5.372e-10
 79.43342     28.4 1.107e+04 6.216e-10
 79.45301     29.4 1.126e+04 7.421e-10
 79.47261     30.5 1.143e+04 8.849e-10
 79.49220     31.6 1.166e+04 1.051e-09
 79.51179     32.6 1.201e+04 1.247e-09
 79.53139     33.4 1.250e+04 1.488e-09
 79.55098     34.0 1.307e+04 1.794e-09
 79.57057     34.6 1.354e+04 2.144e-09
 79.59017     35.4 1.384e+04 2.489e-09
 79.60976     36.3 1.394e+04 2.751e-09
 79.62936     37.3 1.385e+04 2.849e-09
 79.64057     38.4 1.376e+04 2.843e-09
 79.65037     38.8 1.332e+04 2.136e-09
 79.66854     39.9 1.317e+04 2.127e-09
 79.68814     40.9 1.300e+04 2.054e-09
 79.70773     41.8 1.279e+04 1.929e-09
 79.72732     42.7 1.260e+04 1.851e-09
 79.74692     43.8 1.260e+04 1.858e-09
 79.75936     44.7 1.261e+04 1.902e-09
 79.76916     44.2 1.256e+04 1.856e-09
 79.78610     45.1 1.254e+04 1.887e-09
 79.80570     46.2 1.264e+04 1.997e-09
 79.82529     47.2 1.294e+04 2.210e-09
 79.84489     48.2 1.326e+04 2.452e-09
 79.86448     49.2 1.349e+04 2.601e-09
 79.88407     50.3 1.349e+04 2.669e-09
 79.90367     51.5 1.354e+04 2.636e-09
 79.91589     52.5 1.358e+04 2.387e-09
 79.92568     53.4 1.341e+04 2.854e-09
 79.94285     54.5 1.343e+04 2.608e-09
 79.96245     55.5 1.348e+04 2.157e-09
 79.98204     56.2 1.362e+04 1.614e-09
 80.00163     56.3 1.397e+04 1.131e-09
 80.02123     56.1 1.440e+04 7.534e-10
 80.04082     55.4 1.485e+04 5.501e-10
 80.06042     55.0 1.487e+04 4.133e-10
 80.08990     54.8 1.463e+04 3.319e-10
 80.12919     55.1 1.210e+04 2.308e-10
 80.16838     56.7 9.200e+03 2.148e-10
 80.19140     59.4 8.375e+03 2.201e-10
 80.21099     60.1 9.853e+03 3.067e-10
 80.24675     63.0 9.194e+03 3.109e-10
 80.27879     66.3 9.182e+03 3.306e-10
 80.29839     66.0 8.876e+03 2.897e-10
 80.32513     68.7 9.068e+03 3.194e-10
 80.36431     71.5 9.231e+03 3.587e-10
 80.39361     72.8 9.187e+03 3.754e-10
 80.41310     74.1 9.180e+03 3.973e-10
 80.43269     75.7 9.272e+03 4.354e-10
 80.45229     77.2 9.419e+03 4.865e-10
 80.46652     78.7 9.607e+03 5.461e-10
 80.47631     79.0 9.687e+03 5.501e-10
 80.49148     80.3 9.824e+03 6.012e-10
 80.51107     81.6 9.984e+03 6.502e-10
 80.53066     82.9 1.014e+04 6.966e-10
 80.55026     84.2 1.026e+04 7.407e-10
 80.56985     85.4 1.035e+04 7.817e-10
 80.58944     86.7 1.045e+04 8.193e-10
 80.60904     88.0 1.054e+04 8.510e-10
 80.62863     89.2 1.066e+04 8.763e-10
 80.64823     90.3 1.080e+04 9.031e-10
 80.66782     91.4 1.097e+04 9.365e-10
 80.68741     92.3 1.118e+04 9.789e-10
 80.70701     93.3 1.143e+04 1.043e-09
 80.72660     94.3 1.171e+04 1.137e-09
 80.74183     95.3 1.197e+04 1.258e-09
 80.75163     95.2 1.136e+04 1.018e-09
 80.76579     96.4 1.154e+04 1.098e-09
 80.78538     97.6 1.175e+04 1.171e-09
 80.80497     98.9 1.198e+04 1.238e-09
 80.81743    100.0 1.232e+04 1.315e-09
 80.82723     98.4 1.220e+04 1.188e-09
 80.84416     98.3 1.262e+04 1.275e-09
 80.86376     98.0 1.303e+04 1.453e-09
 80.88335     97.7 1.331e+04 1.766e-09
 80.90294     97.7 1.345e+04 2.234e-09
 80.92254     98.2 1.369e+04 2.797e-09
 80.94213     99.0 1.409e+04 3.222e-09
 80.96172     99.8 1.424e+04 3.215e-09
 80.98132    100.3 1.420e+04 2.970e-09
 81.00091    100.4 1.388e+04 2.302e-09
 81.01714    100.2 1.325e+04 1.558e-09
 81.02694    100.9 1.337e+04 1.792e-09
 81.04010    100.1 1.259e+04 1.181e-09
 81.05969     98.8 1.168e+04 7.833e-10
 81.07929     97.7 1.088e+04 5.633e-10
 81.09888     97.3 1.041e+04 4.540e-10
 81.11847     97.4 1.022e+04 3.992e-10
 81.13807     97.6 1.015e+04 3.661e-10
 81.15766     98.0 1.008e+04 3.450e-10
 81.17725     98.6 9.980e+03 3.389e-10
 81.19685     99.4 9.954e+03 3.393e-10
 81.21644    100.3 9.950e+03 3.428e-10
 81.23603    101.4 9.972e+03 3.536e-10
 81.25563    102.6 1.005e+04 3.727e-10
 81.27522    103.8 1.021e+04 4.052e-10
 81.29246    104.9 1.054e+04 4.574e-10
 81.30225    105.5 1.014e+04 4.109e-10
 81.31441    106.8 1.025e+04 4.423e-10
 81.33400    108.1 1.045e+04 4.853e-10
 81.34646    109.4 1.086e+04 5.507e-10
 81.35626    109.9 1.020e+04 4.762e-10
 81.37319    111.2 1.033e+04 5.132e-10
 81.39278    112.5 1.052e+04 5.587e-10
 81.41238    113.8 1.080e+04 6.187e-10
 81.43197    115.0 1.117e+04 6.995e-10
 81.45156    116.2 1.159e+04 8.083e-10
 81.47116    117.3 1.202e+04 9.488e-10
 81.49075    118.6 1.244e+04 1.112e-09
 81.51035    119.8 1.276e+04 1.288e-09
 81.52994    121.1 1.301e+04 1.452e-09
 81.54953    122.5 1.319e+04 1.584e-09
 81.56777    124.0 1.329e+04 1.680e-09
 81.57757    124.8 1.183e+04 1.265e-09
 81.58872    126.3 1.199e+04 1.367e-09
 81.60831    127.8 1.215e+04 1.443e-09
 81.62791    129.3 1.228e+04 1.495e-09
 81.64750    130.9 1.242e+04 1.549e-09
 81.66709    132.6 1.261e+04 1.640e-09
 81.68669    134.3 1.285e+04 1.790e-09
 81.70628    135.8 1.309e+04 1.993e-09
 81.72588    137.3 1.331e+04 2.239e-09
 81.74547    138.9 1.354e+04 2.535e-09
 81.76506    140.6 1.388e+04 2.917e-09
 81.78466    142.5 1.434e+04 3.412e-09
 81.80425    144.3 1.490e+04 3.980e-09
 81.82384    146.0 1.541e+04 4.582e-09
 81.84308    147.5 1.593e+04 5.110e-09
 81.85288    148.5 1.556e+04 5.673e-09
 81.86303    150.1 1.606e+04 6.676e-09
 81.87549    151.8 1.661e+04 7.622e-09
 81.88529    151.9 1.633e+04 7.450e-09
 81.90222    153.6 1.712e+04 8.291e-09
 81.92181    155.3 1.808e+04 8.628e-09
 81.94141    156.6 1.871e+04 8.342e-09
 81.96100    157.6 1.933e+04 7.232e-09
 81.98059    158.4 1.954e+04 5.409e-09
 82.00019    158.9 1.885e+04 3.694e-09
 82.01978    159.2 1.719e+04 2.491e-09
 82.03937    159.5 1.494e+04 1.820e-09
 82.05897    160.0 1.302e+04 1.486e-09
 82.07856    160.9 1.210e+04 1.321e-09
 82.09816    162.3 1.195e+04 1.274e-09
 82.11775    164.1 1.195e+04 1.275e-09
 82.12819    166.0 1.202e+04 1.307e-09
 82.13799    166.3 1.361e+04 1.656e-09
 82.15694    168.1 1.369e+04 1.704e-09
 82.17653    169.9 1.411e+04 1.897e-09
 82.19612    171.7 1.506e+04 2.308e-09
 82.21572    173.5 1.636e+04 3.023e-09
 82.23531    175.0 1.767e+04 4.153e-09
 82.25490    176.1 1.872e+04 5.803e-09
 82.27450    177.1 1.936e+04 8.292e-09
 82.29409    178.1 2.002e+04 1.235e-08
 82.30874    178.4 2.031e+04 1.457e-08
 82.31849    178.7 2.053e+04 1.607e-08
 82.32828    179.0 2.072e+04 1.723e-08
 82.33808    179.1 2.077e+04 1.840e-08
 82.34788    179.0 2.106e+04 1.859e-08
 82.35767    178.6 2.112e+04 1.839e-08
 82.36747    177.6 2.135e+04 1.766e-08
 82.37727    176.2 2.186e+04 1.624e-08
 82.38706    173.2 2.341e+04 1.353e-08
 82.39686    170.7 2.475e+04 1.086e-08
 82.40346    161.7 2.639e+04 3.825e-09
 82.40613    167.5 3.051e+04 1.535e-08
 82.40932    168.7 3.484e+04 1.797e-08
 82.41645    160.0 4.558e+04 1.258e-08
 82.42625    150.1 5.104e+04 1.039e-08
 82.43605    141.7 5.191e+04 8.881e-09
 82.44584    136.1 5.178e+04 6.093e-09
 82.45564    132.1 4.743e+04 4.129e-09
 82.46544    127.8 3.478e+04 3.310e-09
 82.47524    122.7 2.211e+04 3.102e-09
 82.48503    119.2 1.914e+04 3.277e-09
 82.49483    116.8 1.904e+04 3.720e-09
 82.50463    114.4 1.984e+04 4.888e-09
 82.51442    111.6 2.158e+04 6.768e-09
 82.52422    108.8 2.448e+04 9.774e-09
 82.53402    105.7 3.064e+04 1.509e-08
 82.54107    102.9 3.523e+04 2.821e-08
 82.54597     94.3 3.367e+04 1.116e-07
 82.55361     94.6 2.769e+04 2.879e-07
 82.56341     95.6 2.377e+04 6.203e-07
 82.57320     95.7 2.205e+04 1.023e-06
 82.58300     94.7 2.143e+04 1.348e-06
 82.59280     92.0 2.159e+04 1.268e-06
 82.60259     88.7 2.255e+04 8.845e-07
 82.61239     85.3 2.454e+04 4.004e-07
 82.62219     82.0 2.645e+04 1.643e-07
 82.63198     79.6 2.699e+04 8.744e-08
 82.64178     78.5 2.687e+04 6.291e-08
 82.65158     78.0 2.718e+04 5.063e-08
 82.66137     77.7 2.771e+04 4.003e-08
 82.66894     77.7 2.806e+04 3.101e-08
 82.67384     76.4 2.736e+04 5.635e-09
 82.67873     76.6 2.578e+04 4.762e-09
 82.68362     78.4 2.227e+04 3.765e-09
 82.69077     79.2 2.119e+04 3.625e-09
 82.70056     80.3 2.040e+04 3.575e-09
 82.71036     81.6 1.978e+04 3.590e-09
 82.72016     82.9 1.933e+04 3.653e-09
 82.72995     84.2 1.897e+04 3.739e-09
 82.73975     85.6 1.868e+04 3.814e-09
 82.74955     86.9 1.840e+04 3.885e-09
 82.75934     88.3 1.818e+04 3.937e-09
 82.76914     89.5 1.792e+04 3.994e-09
 82.77894     90.9 1.767e+04 4.065e-09
 82.78873     91.9 1.731e+04 4.168e-09
 82.79853     93.5 1.726e+04 4.383e-09
 82.80833     94.3 1.723e+04 4.485e-09
 82.81638     95.7 1.711e+04 4.763e-09
 82.82128     96.1 1.760e+04 4.948e-09
 82.82792     96.9 1.744e+04 5.220e-09
 82.83772     98.4 1.728e+04 5.311e-09
 82.84751     99.2 1.717e+04 5.368e-09
 82.86226    101.2 1.791e+04 7.186e-09
 82.88190    103.4 1.788e+04 7.256e-09
 82.90149    105.6 1.762e+04 6.885e-09
 82.92109    107.7 1.687e+04 5.508e-09
 82.93356    109.5 1.605e+04 4.077e-09
 82.94335    108.6 1.302e+04 1.835e-09
 82.95414    110.3 1.273e+04 1.535e-09
 82.96393    111.4 1.353e+04 2.776e-09
 82.97987    113.2 1.326e+04 2.350e-09
 82.99946    114.9 1.292e+04 1.928e-09
 83.01906    116.6 1.255e+04 1.567e-09
 83.03865    118.2 1.217e+04 1.284e-09
 83.05824    119.8 1.176e+04 1.067e-09
 83.07784    121.4 1.132e+04 9.044e-10
 83.09743    123.0 1.093e+04 7.822e-10
 83.11702    124.6 1.063e+04 6.837e-10
 83.13662    126.3 1.040e+04 6.058e-10
 83.15621    128.0 1.025e+04 5.495e-10
 83.17581    129.8 1.020e+04 5.104e-10
 83.19540    131.5 1.020e+04 4.784e-10
 83.21499    133.1 1.019e+04 4.436e-10
 83.22945    134.8 1.014e+04 4.027e-10
 83.23925    135.8 1.056e+04 6.194e-10
 83.25418    137.4 1.044e+04 5.626e-10
 83.27377    139.0 1.037e+04 5.112e-10
 83.29337    140.5 1.030e+04 4.603e-10
 83.31296    141.9 1.025e+04 4.071e-10
 83.33256    143.1 1.024e+04 3.603e-10
 83.35215    144.3 1.030e+04 3.243e-10
 83.37174    145.5 1.032e+04 3.022e-10
 83.39134    146.8 1.032e+04 2.886e-10
 83.41093    148.1 1.029e+04 2.805e-10
 83.43052    149.6 1.027e+04 2.754e-10
 83.45012    151.0 1.027e+04 2.759e-10
 83.46259    152.4 1.029e+04 2.795e-10
 83.47238    152.1 9.055e+03 1.989e-10
 83.48930    153.6 9.097e+03 2.059e-10
 83.50476    155.1 9.184e+03 2.168e-10
 83.51456    154.7 1.146e+04 4.191e-10
 83.52849    156.0 1.167e+04 4.694e-10
 83.54809    157.2 1.175e+04 5.280e-10
 83.56768    158.5 1.172e+04 5.933e-10
 83.58727    159.8 1.169e+04 6.723e-10
 83.60687    161.2 1.174e+04 7.799e-10
 83.62646    162.3 1.192e+04 9.393e-10
 83.64605    163.4 1.230e+04 1.188e-09
 83.66565    164.5 1.293e+04 1.569e-09
 83.68524    165.5 1.364e+04 2.123e-09
 83.70483    166.6 1.422e+04 2.855e-09
 83.72443    167.8 1.465e+04 3.764e-09
 83.74402    169.3 1.499e+04 4.851e-09
 83.76362    171.0 1.521e+04 6.034e-09
 83.78008    172.8 1.537e+04 7.079e-09
 83.78987    172.7 1.592e+04 7.477e-09
 83.80280    174.2 1.610e+04 7.429e-09
 83.82240    175.7 1.607e+04 7.350e-09
 83.84199    177.0 1.613e+04 6.876e-09
 83.86158    178.2 1.636e+04 6.107e-09
 83.88118    179.2 1.673e+04 5.339e-09
 83.90077    179.9 1.706e+04 4.644e-09
 83.92036    180.5 1.717e+04 4.039e-09
 83.93996    181.0 1.700e+04 3.554e-09
 83.95955    181.5 1.658e+04 3.197e-09
 83.97915    182.1 1.604e+04 2.936e-09
 83.99162    183.0 1.553e+04 2.721e-09
 84.00142    182.5 1.256e+04 1.270e-09
 84.01833    183.4 1.211e+04 1.183e-09
 84.03793    184.5 1.190e+04 1.122e-09
 84.05539    185.7 1.168e+04 1.122e-09
 84.06519    185.8 1.273e+04 1.200e-09
 84.07711    187.2 1.258e+04 1.199e-09
 84.09671    188.6 1.241e+04 1.201e-09
 84.11630    190.1 1.218e+04 1.191e-09
 84.13589    191.7 1.191e+04 1.162e-09
 84.15549    193.3 1.165e+04 1.119e-09
 84.17508    194.9 1.140e+04 1.069e-09
 84.19468    196.6 1.117e+04 1.019e-09
 84.21427    198.3 1.097e+04 9.710e-10
 84.23386    200.1 1.078e+04 9.221e-10
 84.25346    202.0 1.060e+04 8.756e-10
 84.27305    204.0 1.049e+04 8.492e-10
 84.29264    206.1 1.048e+04 8.487e-10
 84.31224    208.2 1.049e+04 8.533e-10
 84.33071    210.4 1.051e+04 8.710e-10
 84.34050    210.2 1.068e+04 8.314e-10
 84.35142    212.3 1.078e+04 8.817e-10
 84.37102    214.6 1.099e+04 9.675e-10
 84.39061    217.0 1.130e+04 1.106e-09
 84.41021    219.3 1.164e+04 1.319e-09
 84.42980    221.6 1.214e+04 1.660e-09
 84.44939    224.8 1.353e+04 2.303e-09
 84.46899    228.8 1.560e+04 3.441e-09
 84.48363    230.6 1.652e+04 4.110e-09
 84.49338    231.9 1.701e+04 4.529e-09
 84.50318    233.5 1.742e+04 5.058e-09
 84.51297    235.1 1.785e+04 5.669e-09
 84.52055    237.0 1.845e+04 6.425e-09
 84.52545    237.2 1.836e+04 6.390e-09
 84.53257    239.1 1.901e+04 7.339e-09
 84.54237    240.6 1.973e+04 8.540e-09
 84.55216    240.3 2.097e+04 9.946e-09
 84.56196    238.8 2.465e+04 1.355e-08
 84.57176    233.7 3.104e+04 2.836e-08
 84.58155    225.1 3.413e+04 7.525e-08
 84.59135    214.7 3.348e+04 1.876e-07
 84.60115    206.9 3.472e+04 2.387e-07
 84.61082    201.9 3.641e+04 1.846e-07
 84.61572    196.2 3.995e+04 4.280e-08
 84.62074    189.0 4.454e+04 1.730e-08
 84.63054    183.6 4.925e+04 4.744e-09
 84.64033    178.4 5.252e+04 1.253e-09
 84.65013    173.6 5.517e+04 3.542e-10
 84.66487    167.6 4.245e+04 2.899e-10
 84.68452    154.3 1.424e+04 3.435e-10
 84.70411    151.5 1.117e+04 4.100e-10
 84.72370    150.8 1.133e+04 5.470e-10
 84.74330    150.3 1.312e+04 9.408e-10
 84.76289    150.8 1.479e+04 1.638e-09
 84.78249    152.3 1.559e+04 2.500e-09
 84.79713    153.5 1.564e+04 2.811e-09
 84.80688    153.9 1.579e+04 3.110e-09
 84.81668    153.4 1.672e+04 3.754e-09
 84.82647    150.3 2.089e+04 5.999e-09
 84.83627    145.1 2.559e+04 1.932e-08
 84.84607    141.1 2.559e+04 7.976e-08
 84.85586    138.4 2.436e+04 2.249e-07
 84.86566    135.7 2.405e+04 3.394e-07
 84.87546    132.0 2.432e+04 3.250e-07
 84.88525    127.9 2.551e+04 2.357e-07
 84.89103    123.1 2.839e+04 1.090e-07
 84.89593    127.5 2.622e+04 2.042e-07
 84.90485    121.0 3.250e+04 5.296e-08
 84.91464    112.6 3.693e+04 1.358e-08
 84.92444    104.4 3.000e+04 7.486e-09
 84.93424    102.6 2.496e+04 7.442e-09
 84.94404     97.0 1.919e+04 6.480e-09
 84.95878     94.9 1.773e+04 6.636e-09
 84.97842     95.8 1.698e+04 6.517e-09
 84.99802     98.4 1.687e+04 6.520e-09
 85.01761    101.1 1.679e+04 6.728e-09
 85.03720    103.6 1.664e+04 6.525e-09
 85.04968    105.7 1.625e+04 5.785e-09
 85.05948    106.3 1.557e+04 3.957e-09
 85.07639    108.1 1.500e+04 3.146e-09
 85.09598    109.7 1.441e+04 2.512e-09
 85.11558    111.2 1.384e+04 2.047e-09
 85.13517    112.6 1.331e+04 1.722e-09
 85.15476    114.1 1.287e+04 1.507e-09
 85.16644    115.6 1.256e+04 1.366e-09
 85.17624    115.5 1.250e+04 1.379e-09
 85.19395    117.2 1.233e+04 1.318e-09
 85.21355    118.9 1.224e+04 1.277e-09
 85.23314    120.8 1.223e+04 1.260e-09
 85.25273    122.6 1.226e+04 1.263e-09
 85.27233    124.2 1.229e+04 1.274e-09
 85.29192    125.8 1.232e+04 1.291e-09
 85.31151    127.3 1.236e+04 1.315e-09
 85.33111    128.7 1.241e+04 1.344e-09
 85.35070    130.0 1.241e+04 1.358e-09
 85.37029    131.1 1.240e+04 1.357e-09
 85.38989    132.2 1.233e+04 1.343e-09
 85.40948    133.4 1.220e+04 1.306e-09
 85.42908    134.5 1.204e+04 1.258e-09
 85.44176    135.6 1.187e+04 1.204e-09
 85.45155    136.0 1.220e+04 1.368e-09
 85.46826    137.1 1.199e+04 1.295e-09
 85.48786    138.3 1.193e+04 1.276e-09
 85.50745    139.5 1.194e+04 1.279e-09
 85.52704    140.5 1.198e+04 1.302e-09
 85.54664    141.4 1.213e+04 1.379e-09
 85.56623    142.2 1.245e+04 1.547e-09
 85.57872    142.4 1.291e+04 1.820e-09
 85.58851    142.0 1.325e+04 1.973e-09
 85.60542    141.7 1.424e+04 2.701e-09
 85.62501    141.1 1.537e+04 3.909e-09
 85.64461    140.7 1.640e+04 5.644e-09
 85.66420    140.2 1.719e+04 7.567e-09
 85.68379    139.5 1.747e+04 8.348e-09
 85.70339    138.4 1.740e+04 8.180e-09
 85.71707    137.4 1.698e+04 7.269e-09
 85.72687    138.7 1.737e+04 7.992e-09
 85.74257    137.9 1.658e+04 6.252e-09
 85.76217    137.3 1.552e+04 4.526e-09
 85.78176    136.6 1.443e+04 3.170e-09
 85.80136    136.0 1.347e+04 2.256e-09
 85.82095    135.3 1.274e+04 1.673e-09
 85.84054    135.2 1.233e+04 1.323e-09
 85.86014    135.1 1.195e+04 1.081e-09
 85.88962    135.5 1.177e+04 9.504e-10
 85.92891    134.7 1.117e+04 6.946e-10
 85.96810    133.9 1.072e+04 5.710e-10
 86.00728    133.5 1.038e+04 5.060e-10
 86.04647    133.7 1.006e+04 4.407e-10
 86.08566    134.2 9.671e+03 3.510e-10
 86.12485    134.7 9.238e+03 2.507e-10
 86.16403    135.3 8.793e+03 1.664e-10
 86.20322    136.0 8.454e+03 1.216e-10
 86.24241    137.0 8.396e+03 1.173e-10
 86.26789    138.3 8.408e+03 1.205e-10
 86.28749    139.1 8.537e+03 1.328e-10
 86.32078    140.5 8.600e+03 1.445e-10
 86.35997    142.0 8.865e+03 1.818e-10
 86.39916    143.4 9.264e+03 2.464e-10
 86.43834    144.3 9.622e+03 3.263e-10
 86.46764    144.3 9.747e+03 3.707e-10
 86.48713    144.6 9.940e+03 4.371e-10
 86.50673    145.3 1.034e+04 5.763e-10
 86.52632    146.0 1.090e+04 7.941e-10
 86.54301    146.5 1.150e+04 1.076e-09
 86.55281    146.8 1.150e+04 1.065e-09
 86.56551    146.8 1.205e+04 1.398e-09
 86.58510    146.8 1.258e+04 1.767e-09
 86.60469    146.7 1.308e+04 2.184e-09
 86.62429    146.6 1.343e+04 2.456e-09
 86.63678    146.2 1.352e+04 2.469e-09
 86.64658    145.8 1.364e+04 2.584e-09
 86.66348    145.3 1.366e+04 2.562e-09
 86.68307    144.7 1.359e+04 2.408e-09
 86.70266    144.2 1.333e+04 2.048e-09
 86.72226    143.6 1.290e+04 1.615e-09
 86.74185    143.1 1.238e+04 1.226e-09
 86.76144    142.6 1.184e+04 9.358e-10
 86.78104    142.3 1.137e+04 7.382e-10
 86.80063    142.2 1.102e+04 6.130e-10
 86.81833    142.2 1.077e+04 5.291e-10
 86.82812    142.0 1.098e+04 5.880e-10
 86.83982    142.0 1.076e+04 5.145e-10
 86.85941    142.2 1.056e+04 4.772e-10
 86.87901    142.5 1.048e+04 4.739e-10
 86.89860    142.9 1.048e+04 4.749e-10
 86.91819    143.3 1.051e+04 4.844e-10
 86.93779    143.6 1.063e+04 5.204e-10
 86.95738    143.5 1.084e+04 5.887e-10
 86.97697    143.4 1.113e+04 6.936e-10
 86.99657    143.1 1.151e+04 8.436e-10
 87.01616    142.7 1.194e+04 1.037e-09
 87.03575    142.2 1.233e+04 1.252e-09
 87.05535    141.6 1.263e+04 1.439e-09
 87.07494    141.1 1.280e+04 1.536e-09
 87.09364    140.4 1.282e+04 1.541e-09
 87.10344    139.5 1.322e+04 1.917e-09
 87.11413    139.0 1.304e+04 1.786e-09
 87.13372    138.3 1.284e+04 1.646e-09
 87.15332    137.5 1.269e+04 1.543e-09
 87.16581    136.7 1.272e+04 1.524e-09
 87.17561    135.1 1.265e+04 1.457e-09
 87.19250    133.9 1.269e+04 1.477e-09
 87.21210    132.7 1.277e+04 1.523e-09
 87.23169    131.3 1.281e+04 1.561e-09
 87.25129    129.8 1.276e+04 1.552e-09
 87.27088    128.2 1.264e+04 1.503e-09
 87.29047    126.4 1.246e+04 1.392e-09
 87.31007    124.4 1.224e+04 1.228e-09
 87.32966    121.7 1.203e+04 1.062e-09
 87.34925    118.3 1.204e+04 1.023e-09
 87.36885    113.8 1.218e+04 1.062e-09
 87.37875    108.0 1.272e+04 1.285e-09
 87.38855    108.1 1.294e+04 1.402e-09
 87.40803    102.6 1.358e+04 2.006e-09
 87.42763     98.2 1.378e+04 2.507e-09
 87.44722     92.9 1.439e+04 2.847e-09
 87.46682     84.6 1.661e+04 3.314e-09
 87.48641     74.4 1.758e+04 4.159e-09
 87.50600     65.8 1.702e+04 4.214e-09
 87.52560     60.3 1.556e+04 3.808e-09
 87.54519     57.0 1.439e+04 2.873e-09
 87.56478     54.2 1.371e+04 1.851e-09
 87.58438     50.8 1.294e+04 1.072e-09
 87.60397     46.9 1.187e+04 6.510e-10
 87.62356     43.7 1.103e+04 5.533e-10
 87.64316     41.6 1.101e+04 5.603e-10
 87.65407     39.8 1.110e+04 6.199e-10
 87.66386     41.4 1.139e+04 7.005e-10
 87.68235     39.6 1.156e+04 8.594e-10
 87.69484     38.6 1.169e+04 1.067e-09
 87.70464     38.5 1.170e+04 1.073e-09
 87.72153     38.1 1.184e+04 1.234e-09
 87.74113     37.5 1.188e+04 1.238e-09
 87.76072     36.8 1.185e+04 1.178e-09
 87.78031     35.7 1.174e+04 1.033e-09
 87.79991     34.1 1.149e+04 9.116e-10
 87.81950     32.3 1.126e+04 8.498e-10
 87.83909     30.8 1.123e+04 8.761e-10
 87.85869     29.4 1.134e+04 9.604e-10
 87.87828     28.1 1.164e+04 1.103e-09
 87.89788     26.4 1.207e+04 1.303e-09
 87.91747     24.5 1.260e+04 1.578e-09
 87.92938     22.2 1.311e+04 1.933e-09
 87.93918     21.3 1.306e+04 1.914e-09
 87.95666     16.6 1.474e+04 2.932e-09
 87.97625     10.3 1.696e+04 5.161e-09
 87.99584      5.8 1.740e+04 7.175e-09
 88.01544      1.6 1.708e+04 7.248e-09
 88.03503     -0.4 1.616e+04 5.400e-09
 88.05462     -3.0 1.466e+04 3.212e-09
 88.07422     -6.2 1.325e+04 1.620e-09
 88.09381    -10.1 1.176e+04 8.367e-10
 88.11341    -13.4 1.044e+04 5.125e-10
 88.13300    -14.9 9.953e+03 4.152e-10
 88.16249    -15.3 9.823e+03 3.768e-10
 88.20177    -16.7 9.448e+03 2.997e-10
 88.24096    -17.1 9.098e+03 2.287e-10
 88.28015    -18.1 8.840e+03 1.793e-10
 88.31933    -19.8 8.818e+03 1.719e-10
 88.35852    -22.1 9.348e+03 2.799e-10
 88.38781    -23.0 9.728e+03 4.293e-10
 88.40731    -23.4 1.021e+04 6.219e-10
 88.42690    -23.6 1.080e+04 8.961e-10
 88.44650    -23.7 1.141e+04 1.179e-09
 88.46609    -24.2 1.180e+04 1.402e-09
 88.48001    -24.7 1.200e+04 1.521e-09
 88.48980    -24.3 1.190e+04 1.457e-09
 88.50528    -24.9 1.186e+04 1.425e-09
 88.52487    -25.4 1.161e+04 1.242e-09
 88.54447    -26.1 1.129e+04 1.048e-09
 88.56406    -26.6 1.096e+04 8.749e-10
 88.58365    -27.0 1.065e+04 7.231e-10
 88.60325    -27.3 1.037e+04 5.892e-10
 88.62284    -27.7 1.013e+04 4.721e-10
 88.64243    -28.1 1.003e+04 4.244e-10
 88.66203    -28.8 9.913e+03 3.852e-10
 88.68162    -29.2 9.920e+03 3.802e-10
 88.70122    -30.1 9.935e+03 3.922e-10
 88.72081    -31.0 1.002e+04 4.580e-10
 88.74040    -32.1 1.017e+04 5.899e-10
 88.75291    -34.4 1.152e+04 9.107e-10
 88.75803    -32.4 1.073e+04 7.533e-10
 88.76512    -32.4 1.093e+04 7.438e-10
 88.77959    -36.1 1.326e+04 1.452e-09
 88.79918    -39.9 1.541e+04 3.005e-09
 88.81878    -42.4 1.656e+04 5.068e-09
 88.83342    -43.9 1.664e+04 5.961e-09
 88.84317    -44.2 1.661e+04 6.271e-09
 88.85297    -44.8 1.648e+04 6.473e-09
 88.86277    -44.9 1.615e+04 6.223e-09
 88.87751    -45.0 1.595e+04 5.354e-09
 88.89715    -45.9 1.530e+04 3.874e-09
 88.91675    -47.7 1.414e+04 2.118e-09
 88.93634    -50.1 1.288e+04 1.215e-09
 88.95593    -51.7 1.204e+04 8.739e-10
 88.97553    -52.2 1.173e+04 7.701e-10
 88.99512    -52.2 1.169e+04 7.493e-10
 89.01471    -52.1 1.185e+04 8.029e-10
 89.03063    -51.9 1.206e+04 9.096e-10
 89.04043    -52.4 1.231e+04 1.106e-09
 89.05390    -51.9 1.252e+04 1.277e-09
 89.07349    -51.3 1.266e+04 1.426e-09
 89.09309    -50.5 1.271e+04 1.483e-09
 89.11268    -49.5 1.267e+04 1.440e-09
 89.13228    -48.7 1.260e+04 1.255e-09
 89.15187    -48.3 1.245e+04 9.871e-10
 89.17146    -48.4 1.219e+04 7.247e-10
 89.19106    -49.0 1.186e+04 5.199e-10
 89.21065    -50.0 1.127e+04 4.243e-10
 89.23024    -51.1 1.100e+04 4.022e-10
 89.24984    -52.0 1.101e+04 4.330e-10
 89.26943    -52.6 1.111e+04 4.868e-10
 89.28194    -53.1 1.127e+04 5.656e-10
 89.29174    -51.4 1.125e+04 5.551e-10
 89.30595    -52.1 1.140e+04 6.583e-10
 89.31575    -53.3 1.152e+04 6.657e-10
 89.32821    -55.3 1.257e+04 9.624e-10
 89.34781    -58.2 1.421e+04 1.567e-09
 89.36740    -61.5 1.561e+04 2.640e-09
 89.38699    -65.1 1.661e+04 4.136e-09
 89.40659    -69.0 1.737e+04 5.711e-09
 89.42618    -73.3 1.796e+04 6.654e-09
 89.44577    -77.6 1.826e+04 7.138e-09
 89.46537    -81.8 1.849e+04 5.717e-09
 89.48496    -86.0 1.764e+04 3.556e-09
 89.50455    -90.6 1.511e+04 1.743e-09
 89.52415    -94.6 1.260e+04 9.334e-10
 89.54374    -96.1 1.191e+04 7.513e-10
 89.57156    -96.9 1.186e+04 7.088e-10
 89.59125    -98.9 1.081e+04 4.174e-10
 89.61252   -101.0 1.039e+04 3.633e-10
 89.65170   -102.6 1.024e+04 3.747e-10
 89.69089   -103.4 1.049e+04 5.175e-10
 89.73008   -103.7 1.057e+04 5.986e-10
 89.76926   -103.8 1.050e+04 6.021e-10
 89.80137   -103.4 1.004e+04 4.986e-10
 89.82096   -104.0 9.772e+03 4.332e-10
 89.84764   -102.6 9.168e+03 3.023e-10
 89.88683   -101.2 8.734e+03 2.287e-10
 89.92601    -99.6 8.534e+03 2.016e-10
 89.96520    -97.8 8.484e+03 1.959e-10
 90.00439    -95.9 8.438e+03 2.018e-10
 90.04358    -94.0 8.502e+03 2.179e-10
 90.08276    -92.0 8.528e+03 2.315e-10
 90.12195    -90.0 8.570e+03 2.420e-10
 90.14188    -88.0 8.669e+03 2.535e-10
 90.16148    -89.1 8.441e+03 2.174e-10
 90.20032    -87.1 8.439e+03 2.192e-10
 90.23951    -85.1 8.333e+03 2.114e-10
 90.27870    -83.1 8.264e+03 2.042e-10
 90.31789    -81.2 8.229e+03 1.994e-10
 90.35707    -79.4 8.233e+03 1.996e-10
 90.39626    -77.8 8.251e+03 2.050e-10
 90.43545    -76.6 8.392e+03 2.315e-10
 90.47464    -75.9 8.747e+03 2.903e-10
 90.51382    -75.5 9.283e+03 3.904e-10
 90.55301    -75.3 9.879e+03 5.164e-10
 90.59220    -75.3 1.041e+04 6.014e-10
 90.63139    -75.7 1.060e+04 6.104e-10
 90.67057    -76.8 1.031e+04 4.833e-10
 90.69251    -78.2 9.326e+03 3.296e-10
 90.71210    -79.3 8.297e+03 1.897e-10
 90.74895    -79.7 8.176e+03 1.739e-10
 90.78813    -80.2 8.213e+03 1.819e-10
 90.82732    -81.2 8.984e+03 3.114e-10
 90.85943    -81.7 9.937e+03 5.834e-10
 90.87903    -81.2 9.973e+03 5.853e-10
 90.90570    -81.9 1.085e+04 9.667e-10
 90.94488    -82.7 1.141e+04 1.293e-09
 90.98407    -83.8 1.153e+04 1.378e-09
 91.02326    -84.8 1.147e+04 1.356e-09
 91.06245    -85.7 1.146e+04 1.261e-09
 91.10163    -87.2 1.153e+04 1.247e-09
 91.13093    -89.2 1.177e+04 1.189e-09
 91.15042    -90.4 1.229e+04 1.506e-09
 91.17002    -91.4 1.276e+04 1.994e-09
 91.18961    -91.5 1.336e+04 2.797e-09
 91.20920    -91.4 1.377e+04 3.559e-09
 91.22880    -91.2 1.388e+04 3.887e-09
 91.24294    -91.1 1.382e+04 3.912e-09
 91.25274    -91.3 1.349e+04 3.150e-09
 91.26798    -90.8 1.306e+04 2.743e-09
 91.28758    -90.1 1.236e+04 1.904e-09
 91.30717    -90.0 1.151e+04 1.207e-09
 91.32676    -90.3 1.060e+04 7.485e-10
 91.34636    -90.8 9.817e+03 4.881e-10
 91.36595    -90.9 9.374e+03 3.680e-10
 91.38555    -90.7 9.246e+03 3.245e-10
 91.41503    -90.7 9.073e+03 2.751e-10
 91.45432    -89.6 8.766e+03 2.058e-10
 91.49351    -88.3 8.518e+03 1.564e-10
 91.53269    -87.3 8.500e+03 1.418e-10
 91.57188    -86.9 8.521e+03 1.407e-10
 91.61107    -87.2 8.768e+03 1.662e-10
 91.65025    -88.6 9.769e+03 3.306e-10
 91.68944    -90.1 1.080e+04 6.416e-10
 91.72863    -92.3 1.165e+04 9.576e-10
 91.76782    -95.0 1.200e+04 1.058e-09
 91.79377    -97.5 1.192e+04 9.967e-10
 91.81336    -98.2 1.202e+04 1.011e-09
 91.83630    -99.1 1.170e+04 8.711e-10
 91.85579   -100.2 1.157e+04 8.114e-10
 91.87539   -101.9 1.127e+04 7.478e-10
 91.89498   -103.0 1.122e+04 7.424e-10
 91.91457   -104.0 1.112e+04 7.713e-10
 91.92710   -104.7 1.123e+04 8.786e-10
 91.93690   -104.0 1.154e+04 1.068e-09
 91.95376   -104.5 1.177e+04 1.250e-09
 91.97335   -104.8 1.200e+04 1.385e-09
 91.99295   -105.2 1.209e+04 1.426e-09
 92.01254   -105.7 1.210e+04 1.429e-09
 92.03214   -106.2 1.206e+04 1.368e-09
 92.05173   -106.8 1.195e+04 1.268e-09
 92.06888   -107.3 1.183e+04 1.187e-09
 92.07868   -107.6 1.165e+04 1.124e-09
 92.09092   -107.9 1.157e+04 1.063e-09
 92.11051   -108.3 1.156e+04 1.023e-09
 92.13010   -108.6 1.159e+04 1.001e-09
 92.14970   -109.0 1.161e+04 9.933e-10
 92.16929   -109.4 1.172e+04 9.885e-10
 92.18888   -109.9 1.183e+04 1.011e-09
 92.20848   -110.5 1.194e+04 1.054e-09
 92.22807   -111.1 1.209e+04 1.121e-09
 92.24767   -111.6 1.223e+04 1.223e-09
 92.26726   -112.0 1.234e+04 1.351e-09
 92.28685   -112.3 1.241e+04 1.471e-09
 92.31634   -112.7 1.243e+04 1.540e-09
 92.34439   -113.0 1.218e+04 1.473e-09
 92.36399   -112.5 1.218e+04 1.329e-09
 92.39481   -112.5 1.207e+04 1.318e-09
 92.43400   -112.3 1.164e+04 1.100e-09
 92.47319   -112.0 1.112e+04 8.400e-10
 92.51238   -111.6 1.071e+04 6.628e-10
 92.55156   -111.2 1.051e+04 5.853e-10
 92.59075   -110.6 1.037e+04 5.478e-10
 92.62994   -109.7 1.018e+04 4.950e-10
 92.66912   -108.8 9.931e+03 4.088e-10
 92.70831   -107.9 9.654e+03 3.056e-10
 92.74750   -107.3 9.362e+03 2.183e-10
 92.78669   -106.8 9.061e+03 1.623e-10
 92.82587   -106.5 8.774e+03 1.312e-10
 92.86506   -105.9 8.506e+03 1.131e-10
 92.89502   -105.0 8.283e+03 9.842e-11
 92.91461   -105.2 8.316e+03 1.048e-10
 92.94344   -104.1 8.213e+03 9.064e-11
 92.97556   -102.8 8.103e+03 7.531e-11
 92.99515   -102.3 8.071e+03 7.576e-11
 93.02181   -100.9 7.974e+03 6.015e-11
 93.06100    -99.4 7.874e+03 5.076e-11
 93.10018    -97.7 7.771e+03 4.615e-11
 93.13937    -95.8 7.683e+03 4.458e-11
 93.17856    -93.8 7.625e+03 4.399e-11
 93.21775    -91.7 7.604e+03 4.378e-11
 93.25693    -89.5 7.600e+03 4.385e-11
 93.29612    -87.4 7.653e+03 4.539e-11
 93.33531    -85.6 7.818e+03 4.937e-11
 93.37450    -84.0 8.035e+03 6.152e-11
 93.41368    -82.5 8.228e+03 8.575e-11
 93.44565    -80.9 8.382e+03 1.186e-10
 93.46524    -81.1 8.299e+03 1.192e-10
 93.49206    -79.4 8.395e+03 1.452e-10
 93.53125    -77.8 8.432e+03 1.546e-10
 93.57043    -76.3 8.436e+03 1.558e-10
 93.60962    -74.9 8.394e+03 1.498e-10
 93.64881    -73.4 8.382e+03 1.397e-10
 93.68799    -71.9 8.405e+03 1.362e-10
 93.72718    -70.2 8.433e+03 1.369e-10
 93.76637    -68.4 8.504e+03 1.431e-10
 93.80556    -67.1 8.644e+03 1.675e-10
 93.84474    -66.8 9.114e+03 2.502e-10
 93.88393    -66.7 1.005e+04 4.700e-10
 93.92312    -66.6 1.117e+04 9.332e-10
 93.96231    -66.1 1.205e+04 1.540e-09
 93.99160    -65.5 1.247e+04 2.067e-09
 94.00588    -65.3 1.258e+04 2.174e-09
 94.01567    -64.5 1.264e+04 2.189e-09
 94.03069    -64.2 1.280e+04 2.400e-09
 94.04323    -63.4 1.282e+04 2.434e-09
 94.05302    -63.3 1.285e+04 2.749e-09
 94.06988    -62.5 1.265e+04 2.584e-09
 94.08947    -61.7 1.250e+04 2.223e-09
 94.10906    -61.2 1.244e+04 1.812e-09
 94.12866    -61.0 1.231e+04 1.428e-09
 94.14825    -60.9 1.208e+04 1.136e-09
 94.16784    -61.1 1.176e+04 9.463e-10
 94.18744    -61.4 1.136e+04 8.207e-10
 94.20703    -61.6 1.115e+04 7.641e-10
 94.22662    -61.8 1.111e+04 7.539e-10
 94.24622    -62.6 1.130e+04 7.967e-10
 94.26581    -64.1 1.166e+04 9.826e-10
 94.28119    -65.5 1.215e+04 1.295e-09
 94.29099    -65.1 1.194e+04 1.255e-09
 94.30500    -66.4 1.226e+04 1.582e-09
 94.32459    -67.7 1.289e+04 1.992e-09
 94.34419    -69.4 1.400e+04 2.515e-09
 94.36378    -71.5 1.545e+04 3.216e-09
 94.38337    -73.6 1.660e+04 3.968e-09
 94.40297    -75.3 1.690e+04 4.336e-09
 94.42256    -76.4 1.669e+04 4.352e-09
 94.44215    -76.8 1.571e+04 3.869e-09
 94.46175    -77.2 1.511e+04 3.284e-09
 94.48134    -78.9 1.537e+04 3.132e-09
 94.50094    -84.4 1.978e+04 3.605e-09
 94.52053    -90.2 2.180e+04 8.219e-09
 94.53518    -92.6 2.166e+04 1.049e-08
 94.54492    -93.7 2.100e+04 1.574e-08
 94.55472    -94.2 2.039e+04 2.130e-08
 94.56131    -94.2 2.003e+04 2.658e-08
 94.56620    -95.0 1.962e+04 2.592e-08
 94.57216    -94.9 1.924e+04 2.911e-08
 94.58201    -95.0 1.881e+04 2.027e-08
 94.59396    -94.4 1.866e+04 2.531e-08
 94.60370    -94.2 1.854e+04 2.516e-08
 94.61845    -94.3 1.875e+04 2.302e-08
 94.63314    -95.3 1.988e+04 2.246e-08
 94.64289    -97.3 2.104e+04 2.221e-08
 94.65269   -100.4 2.268e+04 2.238e-08
 94.66249   -104.4 2.366e+04 2.363e-08
 94.67228   -108.6 2.358e+04 2.523e-08
 94.68208   -112.3 2.294e+04 2.717e-08
 94.69188   -115.2 2.227e+04 2.894e-08
 94.69896   -117.4 2.204e+04 2.954e-08
 94.70386   -117.3 2.192e+04 2.576e-08
 94.71147   -119.3 2.157e+04 2.568e-08
 94.72127   -120.9 2.112e+04 2.430e-08
 94.73106   -122.3 2.063e+04 2.059e-08
 94.74086   -123.6 2.001e+04 1.648e-08
 94.75066   -124.9 1.929e+04 1.313e-08
 94.76045   -126.1 1.854e+04 1.066e-08
 94.77025   -127.3 1.782e+04 8.920e-09
 94.78005   -128.4 1.715e+04 7.691e-09
 94.79479   -129.5 1.639e+04 6.585e-09
 94.81443   -130.5 1.511e+04 5.210e-09
 94.83182   -130.6 1.469e+04 4.661e-09
 94.84162   -130.1 1.483e+04 4.687e-09
 94.85362   -130.1 1.439e+04 3.981e-09
 94.87321   -130.0 1.404e+04 3.302e-09
 94.89281   -130.2 1.372e+04 2.703e-09
 94.91240   -131.3 1.336e+04 2.230e-09
 94.93200   -133.0 1.296e+04 1.923e-09
 94.95159   -134.8 1.268e+04 1.805e-09
 94.97118   -136.5 1.261e+04 1.785e-09
 94.99078   -138.2 1.262e+04 1.821e-09
 95.01037   -139.8 1.270e+04 1.889e-09
 95.02996   -141.6 1.272e+04 1.903e-09
 95.04956   -143.7 1.272e+04 1.852e-09
 95.06915   -145.9 1.254e+04 1.612e-09
 95.08875   -148.6 1.221e+04 1.323e-09
 95.10129   -151.4 1.186e+04 1.084e-09
 95.10988   -149.1 1.198e+04 1.149e-09
 95.11693   -149.7 1.276e+04 1.451e-09
 95.12793   -153.2 1.237e+04 1.166e-09
 95.14753   -156.6 1.213e+04 1.040e-09
 95.16712   -159.6 1.209e+04 1.024e-09
 95.18671   -162.0 1.207e+04 1.106e-09
 95.20631   -163.8 1.230e+04 1.367e-09
 95.22590   -165.1 1.268e+04 1.700e-09
 95.24549   -166.5 1.322e+04 2.040e-09
 95.26509   -168.3 1.400e+04 2.381e-09
 95.28468   -170.7 1.497e+04 2.783e-09
 95.30428   -173.7 1.581e+04 3.232e-09
 95.32387   -176.7 1.609e+04 3.566e-09
 95.34346   -179.6 1.608e+04 3.643e-09
 95.36306   -182.0 1.562e+04 3.583e-09
 95.38245   -183.9 1.497e+04 3.263e-09
 95.39224   -184.9 1.835e+04 6.447e-09
 95.40224   -188.8 1.850e+04 6.197e-09
 95.42184   -193.4 2.050e+04 6.757e-09
 95.44143   -196.2 2.144e+04 1.001e-08
 95.46102   -196.9 2.068e+04 1.371e-08
 95.47567   -196.7 2.019e+04 1.460e-08
 95.48542   -196.7 1.981e+04 1.638e-08
 95.49522   -196.4 1.971e+04 1.661e-08
 95.50501   -196.1 1.946e+04 1.679e-08
 95.51481   -195.7 1.902e+04 1.692e-08
 95.52461   -195.1 1.865e+04 1.650e-08
 95.52980   -194.6 1.834e+04 1.560e-08
 95.53470   -194.7 1.833e+04 1.680e-08
 95.54420   -194.3 1.800e+04 1.487e-08
 95.55400   -193.8 1.756e+04 1.299e-08
 95.56379   -193.1 1.711e+04 1.106e-08
 95.57359   -192.5 1.669e+04 9.345e-09
 95.58339   -191.9 1.631e+04 7.979e-09
 95.59318   -191.3 1.595e+04 6.913e-09
 95.60298   -190.8 1.559e+04 6.129e-09
 95.61772   -190.5 1.528e+04 5.514e-09
 95.63032   -189.7 1.475e+04 4.578e-09
 95.64012   -189.3 1.458e+04 4.193e-09
 95.65696   -188.2 1.396e+04 3.276e-09
 95.66756   -187.1 1.366e+04 2.765e-09
 95.67735   -187.6 1.328e+04 2.017e-09
 95.69615   -186.7 1.317e+04 1.784e-09
 95.71574   -185.8 1.312e+04 1.647e-09
 95.73534   -184.8 1.311e+04 1.584e-09
 95.75493   -183.7 1.313e+04 1.573e-09
 95.77452   -182.7 1.327e+04 1.603e-09
 95.79412   -181.9 1.343e+04 1.738e-09
 95.81371   -180.9 1.357e+04 1.970e-09
 95.83330   -179.9 1.376e+04 2.323e-09
 95.85290   -178.8 1.406e+04 2.839e-09
 95.87249   -177.9 1.447e+04 3.549e-09
 95.89208   -176.9 1.498e+04 4.477e-09
 95.91168   -175.9 1.558e+04 5.657e-09
 95.93127   -175.3 1.618e+04 7.035e-09
 95.94287   -175.0 1.663e+04 8.323e-09
 95.95267   -175.5 1.691e+04 8.939e-09
 95.97046   -175.3 1.716e+04 1.013e-08
 95.99005   -175.3 1.719e+04 1.057e-08
 96.00965   -175.2 1.718e+04 1.064e-08
 96.02924   -174.8 1.699e+04 1.036e-08
 96.04883   -174.1 1.669e+04 9.308e-09
 96.06843   -173.2 1.630e+04 7.948e-09
 96.08802   -172.4 1.582e+04 6.617e-09
 96.10761   -171.5 1.529e+04 5.478e-09
 96.12721   -170.5 1.475e+04 4.506e-09
 96.14680   -169.6 1.419e+04 3.692e-09
 96.15935   -168.6 1.363e+04 3.022e-09
 96.16915   -169.0 1.343e+04 2.752e-09
 96.18599   -167.9 1.289e+04 2.281e-09
 96.20558   -166.8 1.244e+04 1.933e-09
 96.21819   -165.7 1.203e+04 1.663e-09
 96.22798   -166.1 1.202e+04 1.642e-09
 96.24477   -164.7 1.161e+04 1.416e-09
 96.26436   -163.2 1.131e+04 1.255e-09
 96.28396   -161.8 1.109e+04 1.137e-09
 96.30355   -160.6 1.089e+04 1.040e-09
 96.32314   -159.4 1.070e+04 9.572e-10
 96.34274   -157.9 1.054e+04 8.943e-10
 96.36233   -156.3 1.044e+04 8.574e-10
 96.38193   -154.8 1.040e+04 8.366e-10
 96.40152   -153.6 1.036e+04 8.168e-10
 96.42111   -152.2 1.029e+04 7.957e-10
 96.44071   -150.6 1.026e+04 7.863e-10
 96.46030   -149.0 1.026e+04 7.870e-10
 96.47989   -147.6 1.036e+04 8.176e-10
 96.49350   -146.5 1.051e+04 8.737e-10
 96.50330   -146.9 1.045e+04 8.633e-10
 96.51908   -145.8 1.061e+04 9.312e-10
 96.53868   -144.4 1.084e+04 1.031e-09
 96.55827   -143.0 1.117e+04 1.169e-09
 96.57786   -141.8 1.151e+04 1.336e-09
 96.59746   -140.5 1.175e+04 1.514e-09
 96.61705   -139.1 1.188e+04 1.714e-09
 96.63664   -138.0 1.201e+04 1.964e-09
 96.65624   -137.8 1.249e+04 2.310e-09
 96.67583   -138.8 1.425e+04 3.086e-09
 96.68839   -141.3 1.725e+04 5.645e-09
 96.69818   -142.5 1.709e+04 5.835e-09
 96.71502   -144.9 1.934e+04 1.297e-08
 96.72966   -146.2 2.054e+04 2.569e-08
 96.73941   -146.7 2.123e+04 3.722e-08
 96.74921   -147.5 2.186e+04 4.996e-08
 96.75901   -149.4 2.203e+04 5.357e-08
 96.76872   -151.4 2.187e+04 5.220e-08
 96.77361   -152.1 2.156e+04 3.642e-08
 96.77860   -153.3 2.086e+04 2.704e-08
 96.78840   -154.5 2.008e+04 1.802e-08
 96.79819   -156.2 1.917e+04 1.209e-08
 96.81294   -158.6 1.790e+04 7.690e-09
 96.83258   -162.4 1.539e+04 3.890e-09
 96.85217   -164.7 1.381e+04 2.543e-09
 96.87177   -165.9 1.257e+04 1.786e-09
 96.89136   -166.2 1.204e+04 1.429e-09
 96.91095   -166.2 1.163e+04 1.163e-09
 96.93055   -166.0 1.133e+04 9.506e-10
 96.95014   -165.7 1.104e+04 7.744e-10
 96.96974   -165.7 1.080e+04 6.410e-10
 96.98933   -165.9 1.056e+04 5.496e-10
 97.00892   -166.1 1.040e+04 5.025e-10
 97.02852   -166.3 1.035e+04 4.900e-10
 97.04413   -166.4 1.038e+04 5.146e-10
 97.05392   -166.1 1.033e+04 5.170e-10
 97.06770   -166.2 1.038e+04 5.514e-10
 97.08730   -166.0 1.039e+04 5.785e-10
 97.10689   -165.7 1.041e+04 5.952e-10
 97.12648   -165.4 1.042e+04 5.981e-10
 97.14608   -165.2 1.041e+04 5.907e-10
 97.16567   -165.2 1.037e+04 5.630e-10
 97.18527   -165.2 1.029e+04 5.300e-10
 97.20486   -165.2 1.020e+04 5.072e-10
 97.21742   -165.1 1.012e+04 5.015e-10
 97.22721   -166.7 1.028e+04 6.105e-10
 97.24405   -166.3 1.022e+04 6.205e-10
 97.26364   -165.9 1.017e+04 6.298e-10
 97.28323   -165.3 1.015e+04 6.324e-10
 97.30283   -164.7 1.011e+04 6.274e-10
 97.31944   -164.1 1.010e+04 6.180e-10
 97.32924   -164.1 9.762e+03 4.809e-10
 97.34201   -163.4 9.762e+03 4.811e-10
 97.36161   -162.8 9.768e+03 4.843e-10
 97.38120   -162.2 9.781e+03 4.893e-10
 97.40080   -161.9 9.919e+03 5.133e-10
 97.42039   -161.9 1.035e+04 5.763e-10
 97.43998   -162.0 1.099e+04 7.057e-10
 97.45958   -162.5 1.170e+04 9.362e-10
 97.47917   -163.0 1.228e+04 1.291e-09
 97.49876   -163.3 1.268e+04 1.766e-09
 97.51836   -163.3 1.296e+04 2.308e-09
 97.53795   -163.2 1.312e+04 2.768e-09
 97.55754   -162.9 1.322e+04 3.004e-09
 97.57714   -162.8 1.324e+04 3.060e-09
 97.59475   -162.8 1.315e+04 2.978e-09
 97.60455   -163.2 1.328e+04 3.093e-09
 97.61633   -163.1 1.307e+04 2.753e-09
 97.63592   -163.2 1.282e+04 2.220e-09
 97.65551   -163.9 1.255e+04 1.711e-09
 97.67511   -165.8 1.209e+04 1.292e-09
 97.69470   -167.8 1.135e+04 9.699e-10
 97.71429   -169.5 1.061e+04 7.631e-10
 97.73389   -170.8 1.011e+04 6.415e-10
 97.74645   -171.7 9.804e+03 5.634e-10
 97.75625   -172.4 9.535e+03 5.066e-10
 97.77308   -173.0 9.404e+03 4.704e-10
 97.79267   -173.5 9.303e+03 4.430e-10
 97.81226   -174.0 9.260e+03 4.282e-10
 97.83186   -174.6 9.263e+03 4.255e-10
 97.85145   -175.4 9.285e+03 4.252e-10
 97.87007   -176.8 9.605e+03 4.528e-10
 97.87987   -177.7 9.583e+03 4.276e-10
 97.89064   -179.7 1.013e+04 5.305e-10
 97.91023   -181.7 1.069e+04 6.828e-10
 97.92982   -183.8 1.124e+04 8.802e-10
 97.94942   -186.0 1.172e+04 1.117e-09
 97.96901   -188.7 1.215e+04 1.382e-09
 97.98861   -191.8 1.256e+04 1.663e-09
 98.00820   -195.6 1.300e+04 1.944e-09
 98.02779   -200.1 1.349e+04 2.217e-09
 98.04739   -205.5 1.402e+04 2.507e-09
 98.06698   -211.8 1.458e+04 2.880e-09
 98.08657   -218.4 1.522e+04 3.406e-09
 98.10617   -225.2 1.591e+04 4.094e-09
 98.12576   -232.0 1.649e+04 4.763e-09
 98.14535   -238.9 1.666e+04 5.073e-09
 98.16495   -245.0 1.603e+04 4.405e-09
 98.18454   -250.8 1.522e+04 3.667e-09
 98.20414   -255.9 1.391e+04 2.545e-09
 98.22373   -260.1 1.250e+04 1.664e-09
 98.24332   -263.1 1.145e+04 1.081e-09
 98.26292   -265.3 1.085e+04 6.964e-10
 98.27548   -267.3 1.043e+04 4.471e-10
 98.28528   -264.7 1.069e+04 6.230e-10
 98.30210   -265.9 1.026e+04 4.247e-10
 98.32170   -266.4 9.911e+03 3.222e-10
 98.35119   -267.0 9.726e+03 2.737e-10
 98.39047   -268.5 9.474e+03 2.269e-10
 98.42089   -270.2 9.226e+03 2.043e-10
 98.44049   -272.0 9.908e+03 2.796e-10
 98.46884   -273.2 9.873e+03 3.017e-10
 98.50803   -273.6 9.939e+03 3.576e-10
 98.54722   -273.9 1.009e+04 4.358e-10
 98.58641   -274.0 1.013e+04 4.618e-10
 98.62559   -274.0 1.007e+04 4.572e-10
 98.66478   -273.5 9.795e+03 3.959e-10
 98.70397   -272.5 9.477e+03 3.193e-10
 98.74316   -271.1 9.208e+03 2.578e-10
 98.78234   -269.6 9.025e+03 2.149e-10
 98.82153   -268.0 8.914e+03 1.855e-10
 98.86072   -266.2 8.841e+03 1.641e-10
 98.89991   -264.3 8.801e+03 1.471e-10
 98.93909   -262.4 8.783e+03 1.327e-10
 98.97152   -260.5 8.799e+03 1.213e-10
 98.99111   -260.9 8.809e+03 1.193e-10
 99.01747   -258.9 8.849e+03 1.121e-10
 99.05665   -256.8 8.889e+03 1.092e-10
 99.09584   -254.6 8.904e+03 1.088e-10
 99.13503   -252.3 8.949e+03 1.088e-10
 99.17422   -250.1 9.163e+03 1.103e-10
 99.21340   -247.8 9.405e+03 1.228e-10
 99.25259   -245.6 9.605e+03 1.494e-10
 99.29178   -243.4 9.791e+03 1.880e-10
 99.32394   -241.3 9.980e+03 2.353e-10
 99.34354   -240.5 9.895e+03 2.192e-10
 99.37015   -238.6 1.013e+04 2.836e-10
 99.40934   -236.9 1.037e+04 3.529e-10
 99.44853   -235.3 1.059e+04 4.156e-10
 99.48771   -233.7 1.076e+04 4.578e-10
 99.52215   -232.2 1.084e+04 4.708e-10
 99.54174   -231.8 1.084e+04 4.609e-10
 99.56609   -230.4 1.087e+04 4.664e-10
 99.60528   -228.9 1.088e+04 4.569e-10
 99.64446   -227.2 1.082e+04 3.983e-10
 99.68365   -225.6 1.075e+04 3.252e-10
 99.72284   -224.2 1.070e+04 2.682e-10
 99.76203   -222.9 1.073e+04 2.371e-10
 99.80121   -221.7 1.076e+04 2.298e-10
 99.84040   -220.5 1.082e+04 2.293e-10
 99.87959   -219.5 1.100e+04 2.361e-10
 99.91878   -218.7 1.117e+04 2.472e-10
 99.95796   -218.0 1.127e+04 2.555e-10
 99.99715   -217.3 1.130e+04 2.584e-10
