# Columns:
#   distance along LOS (in CHIMPs)
#   peculiar velocity  (in km/s)
#   temperature (K)
#   HI number density
# pos=(143.833,197.278,156.318), angles=(0.374726,2.92212)
  0.01544     57.3 1.170e+04 1.146e-09
  0.03377     57.5 1.217e+04 1.422e-09
  0.05476     59.7 1.184e+04 1.165e-09
  0.09384     60.4 1.222e+04 1.439e-09
  0.13042     61.2 1.221e+04 1.378e-09
  0.15141     63.6 1.246e+04 1.576e-09
  0.17779     64.9 1.235e+04 1.459e-09
  0.21976     66.2 1.188e+04 1.093e-09
  0.24806     67.6 1.118e+04 6.908e-10
  0.26904     70.2 1.206e+04 1.178e-09
  0.30371     71.5 1.131e+04 7.525e-10
  0.34471     72.9 1.057e+04 4.553e-10
  0.36569     74.6 1.146e+04 8.003e-10
  0.38767     76.0 1.086e+04 5.048e-10
  0.42187     77.5 1.041e+04 3.254e-10
  0.44285     77.7 1.038e+04 3.678e-10
  0.46234     79.5 1.003e+04 2.671e-10
  0.48333     80.3 1.070e+04 4.970e-10
  0.51359     82.2 1.049e+04 4.208e-10
  0.55557     84.3 1.049e+04 4.209e-10
  0.57998     86.3 1.051e+04 4.398e-10
  0.60096     86.9 1.110e+04 7.717e-10
  0.63952     88.8 1.114e+04 8.037e-10
  0.67662     90.6 1.119e+04 8.497e-10
  0.69761     90.9 1.124e+04 9.338e-10
  0.72347     92.5 1.113e+04 8.592e-10
  0.76544     94.5 1.091e+04 7.495e-10
  0.79426     96.4 1.062e+04 6.105e-10
  0.81525     97.0 1.025e+04 4.655e-10
  0.84939     98.9 9.972e+03 3.616e-10
  0.89091    100.8 9.774e+03 3.199e-10
  0.91190    101.5 9.529e+03 2.591e-10
  0.91881    103.9 9.537e+03 2.629e-10
  0.93980    104.5 9.803e+03 2.967e-10
  0.97532    107.0 9.920e+03 3.283e-10
  1.00670    108.3 9.891e+03 3.266e-10
  1.01884    109.4 9.911e+03 3.357e-10
  1.02943    110.2 9.697e+03 2.851e-10
  1.05927    112.2 9.833e+03 3.214e-10
  1.09065    113.4 9.761e+03 3.260e-10
  1.11154    114.5 9.797e+03 3.545e-10
  1.12599    115.6 9.975e+03 4.169e-10
  1.13648    116.3 9.639e+03 3.149e-10
  1.15352    117.0 9.802e+03 3.672e-10
  1.16709    117.6 1.006e+04 4.527e-10
  1.17739    117.9 1.027e+04 4.620e-10
  1.18480    118.2 9.732e+03 3.453e-10
  1.19549    118.9 1.002e+04 4.202e-10
  1.21648    119.5 1.042e+04 5.482e-10
  1.23313    120.0 1.085e+04 7.267e-10
  1.24362    120.7 1.021e+04 4.971e-10
  1.25846    121.2 1.056e+04 6.518e-10
  1.27944    121.8 1.087e+04 8.283e-10
  1.29195    122.4 1.111e+04 9.965e-10
  1.30244    123.1 1.063e+04 7.560e-10
  1.32142    123.9 1.080e+04 8.780e-10
  1.34027    124.7 1.094e+04 9.697e-10
  1.35076    125.6 1.060e+04 7.818e-10
  1.36339    126.4 1.072e+04 8.570e-10
  1.38438    127.3 1.082e+04 9.099e-10
  1.39909    128.2 1.090e+04 9.473e-10
  1.40928    129.2 1.070e+04 8.645e-10
  1.41556    129.3 1.061e+04 7.246e-10
  1.42636    130.1 1.070e+04 7.620e-10
  1.44735    130.9 1.075e+04 7.883e-10
  1.46833    132.7 1.076e+04 7.998e-10
  1.48932    133.6 1.083e+04 8.301e-10
  1.50623    134.2 1.091e+04 8.545e-10
  1.51672    135.2 1.094e+04 8.911e-10
  1.53130    135.6 1.102e+04 9.088e-10
  1.55228    135.9 1.116e+04 9.426e-10
  1.56505    135.6 1.166e+04 1.035e-09
  1.57554    137.1 1.132e+04 1.015e-09
  1.59426    136.5 1.183e+04 1.117e-09
  1.61337    135.4 1.253e+04 1.384e-09
  1.62387    137.1 1.202e+04 1.222e-09
  1.63623    135.9 1.248e+04 1.492e-09
  1.65354    135.0 1.282e+04 1.898e-09
  1.66404    134.4 1.294e+04 1.980e-09
  1.67219    133.7 1.354e+04 2.398e-09
  1.68268    135.3 1.261e+04 1.785e-09
  1.69920    134.5 1.323e+04 2.018e-09
  1.72018    133.4 1.409e+04 2.237e-09
  1.73101    131.9 1.480e+04 2.546e-09
  1.74150    133.7 1.409e+04 1.944e-09
  1.76216    131.9 1.491e+04 2.378e-09
  1.77933    130.1 1.518e+04 3.170e-09
  1.78983    131.6 1.523e+04 2.483e-09
  1.80413    129.9 1.541e+04 3.678e-09
  1.82512    129.2 1.545e+04 5.605e-09
  1.83815    129.2 1.613e+04 8.481e-09
  1.84864    129.4 1.603e+04 7.343e-09
  1.86710    129.6 1.687e+04 1.145e-08
  1.88647    129.9 1.766e+04 1.482e-08
  1.89697    129.9 1.720e+04 1.274e-08
  1.90202    129.8 1.744e+04 1.338e-08
  1.91251    129.9 1.652e+04 8.165e-09
  1.93006    129.9 1.641e+04 6.337e-09
  1.94529    129.3 1.622e+04 4.544e-09
  1.95579    129.8 1.594e+04 4.670e-09
  1.97204    128.8 1.539e+04 3.570e-09
  1.99302    127.8 1.470e+04 3.031e-09
  2.00411    127.4 1.417e+04 3.005e-09
  2.01460    128.3 1.434e+04 3.249e-09
  2.03500    128.2 1.426e+04 3.366e-09
  2.05243    128.3 1.434e+04 3.649e-09
  2.06293    129.0 1.449e+04 3.921e-09
  2.07697    129.1 1.479e+04 4.317e-09
  2.09796    129.2 1.504e+04 4.272e-09
  2.11125    129.0 1.512e+04 4.157e-09
  2.12175    129.8 1.518e+04 4.603e-09
  2.13994    129.4 1.521e+04 4.280e-09
  2.15958    128.4 1.377e+04 2.041e-09
  2.17007    129.4 1.391e+04 2.355e-09
  2.18191    128.9 1.360e+04 2.137e-09
  2.20290    128.8 1.326e+04 2.053e-09
  2.21839    129.0 1.324e+04 2.070e-09
  2.22889    130.0 1.324e+04 2.296e-09
  2.24487    130.3 1.325e+04 2.347e-09
  2.26586    130.6 1.336e+04 2.443e-09
  2.27721    130.9 1.354e+04 2.555e-09
  2.28771    131.9 1.352e+04 2.825e-09
  2.30784    132.0 1.379e+04 3.007e-09
  2.32554    131.7 1.413e+04 3.279e-09
  2.33603    132.9 1.411e+04 3.566e-09
  2.34981    132.3 1.462e+04 4.095e-09
  2.37080    131.5 1.523e+04 4.971e-09
  2.38435    130.1 1.576e+04 5.301e-09
  2.39153    131.2 1.628e+04 6.345e-09
  2.39896    131.0 1.556e+04 4.662e-09
  2.41278    128.6 1.561e+04 4.461e-09
  2.43268    125.2 1.560e+04 3.712e-09
  2.44317    126.0 1.637e+04 4.558e-09
  2.45475    120.4 1.629e+04 3.560e-09
  2.47574    113.7 1.550e+04 3.481e-09
  2.49150    107.9 1.489e+04 3.522e-09
  2.50199    107.5 1.546e+04 4.295e-09
  2.51771    103.4 1.497e+04 4.277e-09
  2.53870    100.8 1.452e+04 4.024e-09
  2.55031     98.9 1.408e+04 3.253e-09
  2.56081     98.1 1.450e+04 3.952e-09
  2.58068     95.9 1.391e+04 2.859e-09
  2.59864     93.4 1.308e+04 1.921e-09
  2.60913     92.6 1.328e+04 2.265e-09
  2.62265     90.5 1.242e+04 1.568e-09
  2.63694     89.0 1.183e+04 1.212e-09
  2.64744     88.9 1.195e+04 1.216e-09
  2.65746     87.2 1.162e+04 1.058e-09
  2.66795     86.1 1.178e+04 1.126e-09
  2.68562     84.6 1.153e+04 1.025e-09
  2.70578     83.6 1.128e+04 9.601e-10
  2.71627     82.5 1.138e+04 1.033e-09
  2.72759     82.1 1.115e+04 9.687e-10
  2.74858     82.0 1.093e+04 8.884e-10
  2.76460     82.1 1.072e+04 7.901e-10
  2.77509     81.4 1.080e+04 8.388e-10
  2.79055     81.6 1.058e+04 7.222e-10
  2.81154     82.0 1.029e+04 5.887e-10
  2.82342     82.2 1.002e+04 4.719e-10
  2.83391     81.7 1.011e+04 5.069e-10
  2.86134     82.4 9.810e+03 3.940e-10
  2.88233     81.9 9.791e+03 3.887e-10
  2.88551     82.5 9.619e+03 3.361e-10
  2.90660     82.7 9.462e+03 2.810e-10
  2.94816     84.0 9.076e+03 2.013e-10
  2.97908     85.4 8.902e+03 1.854e-10
  3.00006     84.9 9.284e+03 2.658e-10
  3.03211     86.4 9.308e+03 2.736e-10
  3.07408     87.8 9.398e+03 3.090e-10
  3.09671     89.1 9.610e+03 3.918e-10
  3.11770     88.7 9.973e+03 4.916e-10
  3.15803     89.6 1.020e+04 5.671e-10
  3.19336     90.4 1.039e+04 6.448e-10
  3.21435     89.5 1.036e+04 5.815e-10
  3.24198     90.0 1.038e+04 5.761e-10
  3.28396     90.4 1.031e+04 5.389e-10
  3.31100     90.9 1.012e+04 4.588e-10
  3.33198     89.6 9.707e+03 3.260e-10
  3.36157     90.2 9.478e+03 2.780e-10
  3.38256     90.5 9.660e+03 3.282e-10
  3.40764     91.2 9.465e+03 2.682e-10
  3.42863     90.3 9.427e+03 2.819e-10
  3.45186     91.4 9.279e+03 2.282e-10
  3.49383     92.5 9.195e+03 1.808e-10
  3.52528     93.5 9.229e+03 1.529e-10
  3.54627     93.4 9.109e+03 1.475e-10
  3.57778     94.5 9.176e+03 1.431e-10
  3.61976     95.5 9.317e+03 1.511e-10
  3.64292     96.5 9.618e+03 1.957e-10
  3.66390     96.8 9.291e+03 1.675e-10
  3.70371     98.0 9.736e+03 2.544e-10
  3.73956     99.3 1.052e+04 4.469e-10
  3.76055     99.5 1.036e+04 4.174e-10
  3.78766     99.4 1.157e+04 7.377e-10
  3.80878     97.8 1.310e+04 1.462e-09
  3.81917     97.8 1.318e+04 1.421e-09
  3.83993     96.5 1.433e+04 2.702e-09
  3.85701     95.9 1.529e+04 4.954e-09
  3.86490     95.8 1.523e+04 4.746e-09
  3.86882     95.8 1.562e+04 6.608e-09
  3.88191     96.0 1.631e+04 8.813e-09
  3.90290     96.0 1.656e+04 9.325e-09
  3.91582     96.0 1.646e+04 8.833e-09
  3.92632     95.8 1.587e+04 6.620e-09
  3.94487     95.5 1.552e+04 5.434e-09
  3.96415     94.8 1.493e+04 4.067e-09
  3.97464     93.8 1.429e+04 3.082e-09
  3.98685     93.1 1.365e+04 2.398e-09
  4.00784     92.6 1.312e+04 1.946e-09
  4.03941     92.2 1.240e+04 1.411e-09
  4.07148     92.3 1.171e+04 9.783e-10
  4.09247     92.7 1.169e+04 9.849e-10
  4.12346     92.9 1.111e+04 6.697e-10
  4.16544     92.9 1.059e+04 4.508e-10
  4.18912     92.6 1.017e+04 3.178e-10
  4.21011     93.0 1.040e+04 4.098e-10
  4.24939     92.5 1.011e+04 3.478e-10
  4.28577     92.0 9.882e+03 3.187e-10
  4.30676     92.5 1.030e+04 4.621e-10
  4.33334     92.1 9.924e+03 3.593e-10
  4.35546     91.8 9.545e+03 2.533e-10
  4.37645     91.8 9.309e+03 1.944e-10
  4.40340     91.6 9.096e+03 1.360e-10
  4.42439     91.7 8.966e+03 1.169e-10
  4.45926     91.4 8.685e+03 8.314e-11
  4.50005     91.4 8.503e+03 6.935e-11
  4.52104     91.9 8.481e+03 6.996e-11
  4.54322     92.8 8.398e+03 6.353e-11
  4.58519     93.7 8.390e+03 6.331e-11
  4.61769     94.8 8.389e+03 6.491e-11
  4.63868     96.0 8.385e+03 6.571e-11
  4.66914     97.2 8.384e+03 6.995e-11
  4.71112     98.5 8.394e+03 7.723e-11
  4.73532     99.9 8.404e+03 8.481e-11
  4.75631    101.1 8.381e+03 8.130e-11
  4.79507    102.6 8.378e+03 8.518e-11
  4.83142    104.0 8.369e+03 8.701e-11
  4.84734    104.2 8.447e+03 1.027e-10
  4.85296    105.4 8.433e+03 1.016e-10
  4.87902    106.8 8.431e+03 1.028e-10
  4.92099    108.2 8.434e+03 1.063e-10
  4.94961    109.6 8.452e+03 1.119e-10
  4.97060    110.8 8.457e+03 1.132e-10
  5.00494    112.2 8.494e+03 1.223e-10
  5.04626    113.6 8.550e+03 1.332e-10
  5.06724    114.7 8.544e+03 1.339e-10
  5.08889    116.0 8.615e+03 1.467e-10
  5.13087    117.2 8.735e+03 1.719e-10
  5.16389    118.4 8.996e+03 2.276e-10
  5.18488    119.6 8.878e+03 2.019e-10
  5.21482    120.7 9.255e+03 2.853e-10
  5.25679    121.5 9.654e+03 3.916e-10
  5.28143    121.8 9.949e+03 4.889e-10
  5.29183    122.8 9.823e+03 4.409e-10
  5.30907    122.8 1.020e+04 5.813e-10
  5.32817    122.8 1.067e+04 7.974e-10
  5.33827    122.8 1.064e+04 8.114e-10
  5.34015    123.4 1.056e+04 7.499e-10
  5.35104    123.5 1.103e+04 9.969e-10
  5.37203    123.4 1.151e+04 1.260e-09
  5.38848    123.0 1.204e+04 1.555e-09
  5.39897    123.7 1.198e+04 1.530e-09
  5.41401    123.0 1.258e+04 1.907e-09
  5.43499    122.1 1.322e+04 2.378e-09
  5.44729    121.0 1.380e+04 2.887e-09
  5.45779    122.0 1.375e+04 2.865e-09
  5.47697    120.8 1.409e+04 3.100e-09
  5.49562    119.5 1.407e+04 3.048e-09
  5.50611    120.4 1.404e+04 3.033e-09
  5.51894    119.3 1.384e+04 2.780e-09
  5.53993    118.3 1.329e+04 2.146e-09
  5.55443    117.2 1.253e+04 1.471e-09
  5.56493    118.2 1.275e+04 1.668e-09
  5.57665    116.9 1.203e+04 1.188e-09
  5.58714    116.8 1.243e+04 1.523e-09
  5.60276    115.8 1.176e+04 1.161e-09
  5.61325    116.7 1.216e+04 1.428e-09
  5.62388    116.0 1.169e+04 1.205e-09
  5.64487    115.7 1.133e+04 1.063e-09
  5.66158    115.7 1.110e+04 9.697e-10
  5.67207    116.6 1.156e+04 1.236e-09
  5.68685    116.7 1.138e+04 1.143e-09
  5.70783    116.9 1.124e+04 1.050e-09
  5.72039    117.0 1.111e+04 9.542e-10
  5.73089    117.7 1.155e+04 1.250e-09
  5.74981    117.8 1.143e+04 1.141e-09
  5.76872    117.9 1.132e+04 1.033e-09
  5.77921    118.6 1.178e+04 1.383e-09
  5.79178    118.6 1.167e+04 1.262e-09
  5.81277    118.6 1.155e+04 1.153e-09
  5.82512    118.5 1.143e+04 1.069e-09
  5.82939    118.6 1.175e+04 1.290e-09
  5.83803    119.2 1.213e+04 1.573e-09
  5.85475    119.0 1.195e+04 1.404e-09
  5.88633    119.3 1.181e+04 1.281e-09
  5.91781    119.6 1.151e+04 1.119e-09
  5.93468    119.6 1.133e+04 1.028e-09
  5.94517    119.9 1.140e+04 1.050e-09
  5.95968    120.0 1.121e+04 9.676e-10
  5.98067    120.2 1.105e+04 9.035e-10
  5.99350    120.5 1.087e+04 8.221e-10
  6.00399    120.8 1.090e+04 8.345e-10
  6.02265    121.0 1.078e+04 7.767e-10
  6.04182    121.3 1.067e+04 7.197e-10
  6.05231    121.6 1.068e+04 7.269e-10
  6.06310    121.9 1.059e+04 6.773e-10
  6.07359    121.8 1.041e+04 6.027e-10
  6.09620    122.7 1.042e+04 5.951e-10
  6.13828    123.4 1.017e+04 5.037e-10
  6.15965    124.2 1.010e+04 4.459e-10
  6.18064    124.8 1.025e+04 5.193e-10
  6.22223    126.0 1.029e+04 5.128e-10
  6.25361    126.6 1.036e+04 5.421e-10
  6.26660    127.0 1.041e+04 5.625e-10
  6.27719    127.6 1.073e+04 6.783e-10
  6.29558    127.8 1.073e+04 6.798e-10
  6.31157    127.9 1.084e+04 7.090e-10
  6.32052    128.0 1.069e+04 6.160e-10
  6.32542    128.3 1.080e+04 6.700e-10
  6.33746    128.5 1.099e+04 7.340e-10
  6.35845    128.6 1.116e+04 8.110e-10
  6.37374    128.8 1.134e+04 8.756e-10
  6.38423    129.1 1.143e+04 9.504e-10
  6.40043    129.3 1.154e+04 9.586e-10
  6.42141    129.4 1.154e+04 9.514e-10
  6.43256    129.6 1.153e+04 9.101e-10
  6.44305    130.0 1.161e+04 9.806e-10
  6.46339    130.2 1.157e+04 8.964e-10
  6.48088    130.3 1.151e+04 7.863e-10
  6.49138    130.7 1.161e+04 8.665e-10
  6.50536    130.7 1.153e+04 7.344e-10
  6.52635    130.4 1.141e+04 6.205e-10
  6.53970    129.6 1.145e+04 6.101e-10
  6.55019    130.0 1.152e+04 6.122e-10
  6.56005    129.0 1.153e+04 6.184e-10
  6.57054    129.6 1.144e+04 5.860e-10
  6.58812    128.0 1.183e+04 6.887e-10
  6.59862    128.1 1.175e+04 6.533e-10
  6.61030    127.5 1.184e+04 6.980e-10
  6.63129    126.4 1.232e+04 8.154e-10
  6.64684    124.1 1.350e+04 1.280e-09
  6.65734    124.2 1.303e+04 1.058e-09
  6.67326    120.6 1.471e+04 1.937e-09
  6.69425    116.8 1.612e+04 4.109e-09
  6.70566    114.2 1.674e+04 7.224e-09
  6.71615    113.9 1.633e+04 5.816e-09
  6.73623    112.1 1.632e+04 7.012e-09
  6.75398    110.9 1.611e+04 6.651e-09
  6.76448    110.7 1.557e+04 5.346e-09
  6.77820    110.1 1.481e+04 4.209e-09
  6.79803    109.9 1.377e+04 2.564e-09
  6.80852    110.4 1.433e+04 3.378e-09
  6.81280    110.0 1.295e+04 1.691e-09
  6.82330    109.9 1.275e+04 1.476e-09
  6.85176    108.7 1.118e+04 5.440e-10
  6.89383    106.9 9.192e+03 1.440e-10
  6.92014    106.5 9.159e+03 7.795e-11
  6.94113    107.2 9.085e+03 8.566e-11
  6.97778    107.8 8.992e+03 7.924e-11
  7.01679    109.1 8.969e+03 8.118e-11
  7.03778    109.8 9.018e+03 8.779e-11
  7.06173    110.9 8.994e+03 9.763e-11
  7.10371    112.1 9.010e+03 1.189e-10
  7.13442    113.4 9.044e+03 1.412e-10
  7.15541    113.9 9.106e+03 1.549e-10
  7.18766    115.1 9.115e+03 1.673e-10
  7.22963    116.2 9.099e+03 1.662e-10
  7.25206    117.3 9.046e+03 1.592e-10
  7.27305    117.8 9.116e+03 1.810e-10
  7.29517    119.0 9.057e+03 1.701e-10
  7.31616    119.4 9.030e+03 1.745e-10
  7.34871    120.5 9.002e+03 1.632e-10
  7.36970    121.1 9.105e+03 1.936e-10
  7.39753    122.3 9.108e+03 1.835e-10
  7.43951    123.4 9.138e+03 1.758e-10
  7.46634    124.5 9.159e+03 1.757e-10
  7.48733    125.1 9.351e+03 2.210e-10
  7.52346    126.0 9.456e+03 2.298e-10
  7.56299    126.9 9.555e+03 2.539e-10
  7.58398    127.2 9.748e+03 3.132e-10
  7.60741    128.0 9.849e+03 3.580e-10
  7.64938    128.4 1.023e+04 4.806e-10
  7.68063    128.3 1.095e+04 7.048e-10
  7.70162    128.4 1.080e+04 7.098e-10
  7.72274    127.9 1.134e+04 8.963e-10
  7.73925    127.2 1.220e+04 1.240e-09
  7.74974    127.4 1.172e+04 1.058e-09
  7.76462    126.5 1.269e+04 1.579e-09
  7.78143    125.9 1.352e+04 2.489e-09
  7.79192    126.6 1.302e+04 1.873e-09
  7.79807    126.4 1.366e+04 2.674e-09
  7.80856    126.5 1.296e+04 1.848e-09
  7.82758    126.4 1.347e+04 2.374e-09
  7.84639    126.4 1.393e+04 2.881e-09
  7.85689    126.4 1.319e+04 1.915e-09
  7.86956    125.6 1.389e+04 2.473e-09
  7.89055    123.6 1.527e+04 4.127e-09
  7.90521    121.7 1.723e+04 8.924e-09
  7.91570    121.1 1.683e+04 6.478e-09
  7.93252    119.7 1.846e+04 1.433e-08
  7.94821    118.5 1.901e+04 2.018e-08
  7.95866    118.1 1.950e+04 2.698e-08
  7.97445    117.4 1.932e+04 2.537e-08
  7.99548    116.2 1.922e+04 2.361e-08
  8.01235    114.4 1.884e+04 1.681e-08
  8.02285    114.7 1.770e+04 1.425e-08
  8.02990    112.8 1.756e+04 9.879e-09
  8.04039    112.1 1.690e+04 7.215e-09
  8.05845    108.5 1.642e+04 5.580e-09
  8.07117    105.7 1.535e+04 4.903e-09
  8.08166    107.4 1.507e+04 4.267e-09
  8.10042    105.4 1.439e+04 4.183e-09
  8.11949    104.6 1.415e+04 4.028e-09
  8.12999    105.6 1.402e+04 3.850e-09
  8.14240    105.1 1.394e+04 3.720e-09
  8.16339    104.8 1.380e+04 3.374e-09
  8.17831    104.3 1.359e+04 2.755e-09
  8.18881    105.2 1.354e+04 2.840e-09
  8.20536    104.3 1.323e+04 2.205e-09
  8.22635    103.2 1.273e+04 1.694e-09
  8.23713    102.1 1.223e+04 1.376e-09
  8.24762    102.8 1.230e+04 1.410e-09
  8.26788    102.0 1.188e+04 1.227e-09
  8.27837    102.4 1.192e+04 1.264e-09
  8.28545    101.9 1.167e+04 1.162e-09
  8.29595    102.2 1.174e+04 1.199e-09
  8.31030    101.8 1.160e+04 1.137e-09
  8.33129    101.6 1.160e+04 1.118e-09
  8.34437    101.3 1.168e+04 1.074e-09
  8.36546    101.6 1.170e+04 1.108e-09
  8.39269    101.1 1.178e+04 1.101e-09
  8.40309    101.2 1.178e+04 1.108e-09
  8.41524    100.8 1.187e+04 1.113e-09
  8.43623     99.1 1.283e+04 1.302e-09
  8.45141     92.4 1.646e+04 3.094e-09
  8.46191     93.1 1.622e+04 2.694e-09
  8.47820     86.9 1.775e+04 8.592e-09
  8.49919     87.5 1.796e+04 1.943e-08
  8.51023     89.5 1.764e+04 1.944e-08
  8.51690     89.0 1.824e+04 2.325e-08
  8.52685     88.7 1.751e+04 1.656e-08
  8.54116     90.8 1.692e+04 1.432e-08
  8.55856     91.9 1.607e+04 8.110e-09
  8.56905     91.7 1.630e+04 9.669e-09
  8.58314     91.0 1.584e+04 4.067e-09
  8.60413     86.8 1.517e+04 1.547e-09
  8.61737     81.8 1.258e+04 7.812e-10
  8.62787     83.3 1.349e+04 9.549e-10
  8.64610     80.7 1.142e+04 6.397e-10
  8.66570     80.5 1.118e+04 6.156e-10
  8.67619     81.0 1.125e+04 6.237e-10
  8.68808     81.4 1.102e+04 5.603e-10
  8.70906     81.2 1.103e+04 5.294e-10
  8.72452     81.3 1.081e+04 4.396e-10
  8.73501     82.0 1.083e+04 4.362e-10
  8.75104     81.6 1.072e+04 3.866e-10
  8.76492     80.5 1.057e+04 3.564e-10
  8.77633     82.2 1.035e+04 2.583e-10
  8.79402     83.5 1.039e+04 2.564e-10
  8.82469     83.0 1.039e+04 2.650e-10
  8.86667     82.3 1.056e+04 3.683e-10
  8.89067     82.4 1.065e+04 4.871e-10
  8.91166     83.5 1.076e+04 5.064e-10
  8.95062     84.3 1.060e+04 5.135e-10
  8.98732     84.9 1.042e+04 3.647e-10
  9.00831     86.0 1.068e+04 5.497e-10
  9.02398     86.4 1.030e+04 4.074e-10
  9.04487     86.0 1.061e+04 3.155e-10
  9.05644     85.2 1.081e+04 2.772e-10
  9.06693     85.7 1.099e+04 3.211e-10
  9.08684     82.9 1.178e+04 3.779e-10
  9.10476     76.4 1.421e+04 7.631e-10
  9.11525     77.3 1.352e+04 7.664e-10
  9.12882     75.0 1.306e+04 1.817e-09
  9.14980     74.3 1.420e+04 3.224e-09
  9.16358     72.8 1.622e+04 3.599e-09
  9.17407     72.9 1.594e+04 2.983e-09
  9.19178     69.4 1.519e+04 2.642e-09
  9.21190     65.8 1.353e+04 1.798e-09
  9.22240     66.2 1.343e+04 1.770e-09
  9.23375     63.4 1.224e+04 1.136e-09
  9.25128     62.8 1.191e+04 8.812e-10
  9.26177     65.0 1.199e+04 9.866e-10
  9.27072     63.8 1.157e+04 7.335e-10
  9.28121     64.3 1.162e+04 7.819e-10
  9.29672     63.6 1.141e+04 6.298e-10
  9.31771     62.7 1.102e+04 4.505e-10
  9.32954     62.2 1.057e+04 3.625e-10
  9.34003     62.8 1.070e+04 3.942e-10
  9.37027     63.5 1.052e+04 3.369e-10
  9.41235     63.8 9.772e+03 2.110e-10
  9.43688     64.2 9.332e+03 1.300e-10
  9.45786     65.3 9.445e+03 1.589e-10
  9.49630     65.6 9.216e+03 1.096e-10
  9.53352     66.1 9.127e+03 9.430e-11
  9.55451     67.2 9.158e+03 1.028e-10
  9.58025     67.9 9.115e+03 9.471e-11
  9.62222     68.7 9.105e+03 9.492e-11
  9.65116     69.4 9.135e+03 1.018e-10
  9.67215     70.4 9.138e+03 1.019e-10
  9.70617     70.8 9.233e+03 1.151e-10
  9.73793     70.9 9.309e+03 1.394e-10
  9.75857     72.5 9.229e+03 1.219e-10
  9.76880     73.6 9.231e+03 1.222e-10
  9.79012     74.0 9.284e+03 1.593e-10
  9.83210     74.7 9.361e+03 1.996e-10
  9.86544     75.5 9.457e+03 2.171e-10
  9.88643     76.9 9.462e+03 2.212e-10
  9.91605     77.6 9.530e+03 2.141e-10
  9.95802     78.1 9.586e+03 1.922e-10
  9.98308     78.7 9.515e+03 1.786e-10
 10.00407     80.2 9.529e+03 1.947e-10
 10.04197     81.3 9.420e+03 1.832e-10
 10.07973     82.8 9.393e+03 1.695e-10
 10.10072     84.3 9.429e+03 1.761e-10
 10.12592     86.0 9.435e+03 1.467e-10
 10.16790     87.4 9.476e+03 1.302e-10
 10.19736     88.6 9.720e+03 1.459e-10
 10.21835     89.8 9.636e+03 1.470e-10
 10.23487     90.6 1.022e+04 2.532e-10
 10.25586     91.9 1.026e+04 2.931e-10
 10.28323     92.3 1.065e+04 4.033e-10
 10.30412     92.5 1.126e+04 5.922e-10
 10.31480     91.4 1.248e+04 1.111e-09
 10.32530     92.3 1.222e+04 1.007e-09
 10.34610     88.5 1.528e+04 2.504e-09
 10.36313     84.6 1.750e+04 6.579e-09
 10.37362     85.3 1.729e+04 5.998e-09
 10.38807     83.8 1.833e+04 1.449e-08
 10.40906     83.2 2.031e+04 2.165e-08
 10.42195     79.2 2.154e+04 2.020e-08
 10.43244     79.8 2.161e+04 2.129e-08
 10.45104     76.1 1.834e+04 9.752e-09
 10.47027     73.1 1.518e+04 3.664e-09
 10.48076     73.8 1.503e+04 3.856e-09
 10.48315     70.0 1.338e+04 1.178e-09
 10.49364     69.9 1.294e+04 1.108e-09
 10.51400     66.1 1.089e+04 4.821e-10
 10.52909     65.3 1.009e+04 3.438e-10
 10.53958     65.9 1.012e+04 3.469e-10
 10.55598     65.7 9.831e+03 2.770e-10
 10.58755     66.0 9.511e+03 2.231e-10
 10.62593     67.3 8.925e+03 1.489e-10
 10.64692     68.2 9.023e+03 1.637e-10
 10.67160     69.8 8.599e+03 1.091e-10
 10.71083     71.2 8.437e+03 8.264e-11
 10.73182     72.2 8.517e+03 9.102e-11
 10.74357     73.6 8.362e+03 7.288e-11
 10.76456     74.5 8.379e+03 8.099e-11
 10.79753     76.0 8.252e+03 7.075e-11
 10.83950     77.6 8.171e+03 6.625e-11
 10.86120     79.3 8.144e+03 6.473e-11
 10.88219     80.3 8.131e+03 7.105e-11
 10.92345     82.0 8.130e+03 7.006e-11
 10.95785     83.5 8.189e+03 7.101e-11
 10.97884     84.5 8.189e+03 7.756e-11
 11.00740     85.9 8.254e+03 8.550e-11
 11.04938     87.4 8.287e+03 9.869e-11
 11.07549     89.1 8.351e+03 1.061e-10
 11.09648     90.0 8.417e+03 1.233e-10
 11.13333     91.6 8.436e+03 1.200e-10
 11.17214     93.3 8.477e+03 1.024e-10
 11.19312     94.1 8.505e+03 1.172e-10
 11.20778     95.2 8.551e+03 9.962e-11
 11.22877     95.8 8.525e+03 1.017e-10
 11.25926     96.9 8.807e+03 1.019e-10
 11.28977     96.9 9.113e+03 1.345e-10
 11.31076     97.7 9.142e+03 1.437e-10
 11.34321     98.6 9.372e+03 2.509e-10
 11.38518    100.3 9.615e+03 3.937e-10
 11.40741    101.6 9.750e+03 3.991e-10
 11.42840    102.2 9.824e+03 4.225e-10
 11.46913    103.4 9.710e+03 3.247e-10
 11.50406    104.1 9.321e+03 2.498e-10
 11.52504    104.5 9.373e+03 2.589e-10
 11.55308    105.6 9.117e+03 2.048e-10
 11.59506    107.2 9.004e+03 1.922e-10
 11.62169    109.0 8.943e+03 1.844e-10
 11.64268    109.8 8.995e+03 1.874e-10
 11.67901    111.8 8.971e+03 1.835e-10
 11.70472    113.8 9.031e+03 1.902e-10
 11.72307    113.1 9.468e+03 2.685e-10
 11.73933    113.8 9.569e+03 2.858e-10
 11.75237    115.3 9.583e+03 2.912e-10
 11.77326    115.4 9.626e+03 2.949e-10
 11.78746    117.0 9.682e+03 3.211e-10
 11.79795    117.3 9.787e+03 3.385e-10
 11.81523    117.9 9.999e+03 3.974e-10
 11.83578    118.8 1.029e+04 5.204e-10
 11.84627    119.2 1.053e+04 6.045e-10
 11.85721    120.3 1.084e+04 7.751e-10
 11.87820    121.4 1.134e+04 1.000e-09
 11.89460    122.3 1.199e+04 1.287e-09
 11.90509    122.7 1.248e+04 1.564e-09
 11.92017    123.3 1.323e+04 1.979e-09
 11.94116    123.7 1.385e+04 2.405e-09
 11.95300    124.0 1.427e+04 2.796e-09
 11.95477    122.2 1.523e+04 4.654e-09
 11.96391    122.1 1.610e+04 6.283e-09
 11.98313    122.4 1.596e+04 6.201e-09
 12.00174    122.5 1.579e+04 5.854e-09
 12.01223    122.2 1.649e+04 7.406e-09
 12.02511    121.7 1.651e+04 7.017e-09
 12.04610    120.8 1.657e+04 6.926e-09
 12.06056    120.1 1.643e+04 6.964e-09
 12.07105    119.7 1.706e+04 7.795e-09
 12.08807    119.5 1.647e+04 6.725e-09
 12.10888    119.5 1.564e+04 5.451e-09
 12.11938    118.2 1.574e+04 5.057e-09
 12.13005    118.0 1.481e+04 3.477e-09
 12.15104    116.8 1.407e+04 2.227e-09
 12.16770    116.0 1.300e+04 1.376e-09
 12.17819    112.8 1.230e+04 8.928e-10
 12.19098    110.8 1.146e+04 6.315e-10
 12.20157    107.1 1.080e+04 4.656e-10
 12.22469    104.3 9.984e+03 4.161e-10
 12.26454    102.2 9.977e+03 4.042e-10
 12.28553     95.8 1.032e+04 4.940e-10
 12.29805     93.9 1.091e+04 6.702e-10
 12.31894     91.7 1.158e+04 8.812e-10
 12.33366     89.0 1.233e+04 1.281e-09
 12.34415     85.9 1.225e+04 1.302e-09
 12.36091     85.5 1.225e+04 1.378e-09
 12.38208     87.1 1.274e+04 1.541e-09
 12.40317     83.7 1.166e+04 1.014e-09
 12.43456     83.2 1.082e+04 5.881e-10
 12.47654     81.2 9.271e+03 2.614e-10
 12.49982     78.9 8.737e+03 2.089e-10
 12.52080     76.5 8.440e+03 1.922e-10
 12.56049     76.9 8.366e+03 1.909e-10
 12.59646     78.0 8.537e+03 2.277e-10
 12.61745     78.3 8.336e+03 1.816e-10
 12.64444     79.7 8.258e+03 1.598e-10
 12.67763     80.3 7.986e+03 1.209e-10
 12.69862     81.4 8.296e+03 1.588e-10
 12.71410     82.2 8.215e+03 1.532e-10
 12.73509     82.2 7.884e+03 1.021e-10
 12.77037     83.3 7.957e+03 1.063e-10
 12.81075     84.1 8.154e+03 1.180e-10
 12.83174     84.9 8.079e+03 1.145e-10
 12.85432     85.4 8.520e+03 1.467e-10
 12.89629     86.1 9.085e+03 2.425e-10
 12.92838     87.0 9.331e+03 3.399e-10
 12.94937     87.6 9.225e+03 3.261e-10
 12.98024     88.6 9.516e+03 3.771e-10
 13.02222     88.9 9.847e+03 4.005e-10
 13.04602     88.7 9.959e+03 4.230e-10
 13.06701     89.5 9.774e+03 3.498e-10
 13.10617     89.3 9.782e+03 3.610e-10
 13.14267     89.6 9.730e+03 3.709e-10
 13.16366     90.1 9.797e+03 3.770e-10
 13.17458     91.3 9.781e+03 4.048e-10
 13.19556     90.9 9.873e+03 4.477e-10
 13.23209     92.6 9.711e+03 3.793e-10
 13.26030     93.3 9.519e+03 2.831e-10
 13.28129     93.7 9.682e+03 3.410e-10
 13.31604     93.7 9.456e+03 3.055e-10
 13.35695     94.1 9.357e+03 3.207e-10
 13.37794     94.4 9.446e+03 3.559e-10
 13.39999     95.3 9.500e+03 3.795e-10
 13.44197     95.2 9.701e+03 4.004e-10
 13.47459     94.0 1.011e+04 4.989e-10
 13.49558     93.8 1.025e+04 5.298e-10
 13.52592     93.3 1.026e+04 6.767e-10
 13.55730     93.6 9.883e+03 5.764e-10
 13.57819     93.9 9.816e+03 5.528e-10
 13.59213     94.4 9.652e+03 4.390e-10
 13.61321     94.4 9.741e+03 4.731e-10
 13.65054     94.1 9.331e+03 3.448e-10
 13.67152     93.7 9.052e+03 3.007e-10
 13.68887     94.1 8.809e+03 2.483e-10
 13.70986     94.2 8.946e+03 2.737e-10
 13.73580     94.6 8.770e+03 2.521e-10
 13.77777     95.5 8.597e+03 2.350e-10
 13.80651     96.9 8.380e+03 2.006e-10
 13.82750     97.3 8.397e+03 2.031e-10
 13.86172     98.7 8.102e+03 1.470e-10
 13.90316     99.8 7.819e+03 1.013e-10
 13.92414    100.1 7.775e+03 9.790e-11
 13.94567    101.1 7.498e+03 6.912e-11
 13.98765    102.3 7.332e+03 5.169e-11
 14.02079    103.4 7.226e+03 4.226e-11
 14.04178    103.8 7.223e+03 4.219e-11
 14.07160    105.2 7.129e+03 3.991e-11
 14.11357    106.7 7.128e+03 4.023e-11
 14.13843    108.1 7.158e+03 4.234e-11
 14.15135    108.7 7.161e+03 4.241e-11
 14.16847    108.3 7.167e+03 4.282e-11
 14.19752    109.8 7.249e+03 4.779e-11
 14.23508    111.3 7.367e+03 5.532e-11
 14.25606    111.8 7.373e+03 5.546e-11
 14.28147    113.1 7.505e+03 6.550e-11
 14.32345    114.3 7.652e+03 7.919e-11
 14.35271    115.5 7.823e+03 9.782e-11
 14.37370    116.0 7.823e+03 9.801e-11
 14.40740    117.3 7.997e+03 1.210e-10
 14.44936    118.5 8.149e+03 1.424e-10
 14.49133    120.4 8.272e+03 1.518e-10
 14.53333    121.5 8.290e+03 1.513e-10
 14.56700    122.6 8.290e+03 1.497e-10
 14.58798    123.2 8.347e+03 1.566e-10
 14.61728    124.3 8.389e+03 1.626e-10
 14.64443    125.5 8.454e+03 1.723e-10
 14.66542    124.0 8.625e+03 2.025e-10
 14.68463    125.4 8.692e+03 2.087e-10
 14.70562    125.8 8.976e+03 2.616e-10
 14.74320    127.2 8.987e+03 2.574e-10
 14.78128    128.4 9.064e+03 2.456e-10
 14.80227    128.7 9.326e+03 3.006e-10
 14.82715    129.0 9.363e+03 2.736e-10
 14.85049    129.5 9.210e+03 2.423e-10
 14.86089    129.9 9.214e+03 2.518e-10
 14.87943    130.4 9.287e+03 2.550e-10
 14.89271    130.0 9.607e+03 2.819e-10
 14.90151    127.3 1.033e+04 3.913e-10
 14.90921    126.6 1.080e+04 4.834e-10
 14.92140    123.3 1.199e+04 9.308e-10
 14.94239    122.1 1.258e+04 1.679e-09
 14.95754    122.3 1.300e+04 2.440e-09
 14.96803    122.5 1.307e+04 2.560e-09
 14.98436    122.9 1.377e+04 2.636e-09
 15.00535    122.2 1.421e+04 2.340e-09
 15.01636    119.8 1.469e+04 1.672e-09
 15.02685    117.5 1.463e+04 1.555e-09
 15.04733    111.8 1.310e+04 1.111e-09
 15.06468    107.2 1.163e+04 9.536e-10
 15.07517    105.6 1.183e+04 1.182e-09
 15.08930    102.8 1.235e+04 1.497e-09
 15.11029    100.4 1.310e+04 2.073e-09
 15.12350     98.8 1.318e+04 2.542e-09
 15.13340     98.0 1.337e+04 2.948e-09
 15.14118     97.4 1.310e+04 2.666e-09
 15.15227     97.7 1.257e+04 2.199e-09
 15.17182     97.7 1.217e+04 1.644e-09
 15.18232     96.6 1.218e+04 1.398e-09
 15.19424     94.9 1.172e+04 7.877e-10
 15.21523     91.4 1.083e+04 4.186e-10
 15.23064     87.3 9.482e+03 2.805e-10
 15.24113     85.0 9.041e+03 2.759e-10
 15.25720     84.4 8.844e+03 2.498e-10
 15.27819     83.4 9.135e+03 2.862e-10
 15.28946     83.4 9.169e+03 2.896e-10
 15.29995     82.7 9.330e+03 3.277e-10
 15.32017     81.8 9.492e+03 4.009e-10
 15.33778     81.8 9.509e+03 4.217e-10
 15.34828     81.0 9.683e+03 5.040e-10
 15.36214     81.0 9.820e+03 5.760e-10
 15.37916     81.4 9.797e+03 5.940e-10
 15.38965     81.3 9.621e+03 5.463e-10
 15.39660     81.8 9.499e+03 4.963e-10
 15.40709     81.2 9.542e+03 5.021e-10
 15.42511     81.3 9.418e+03 4.659e-10
 15.44502     81.5 9.396e+03 4.229e-10
 15.46611     80.2 9.382e+03 4.159e-10
 15.49876     80.2 8.974e+03 3.324e-10
 15.54073     80.2 8.641e+03 2.802e-10
 15.56276     80.7 8.328e+03 2.263e-10
 15.58374     80.3 8.326e+03 2.263e-10
 15.61733     81.0 7.992e+03 1.685e-10
 15.63832     81.1 7.989e+03 1.704e-10
 15.65940     81.5 7.652e+03 1.217e-10
 15.68039     81.3 7.621e+03 1.207e-10
 15.70863     81.8 7.324e+03 9.256e-11
 15.75061     82.6 7.079e+03 7.432e-11
 15.77704     83.5 6.958e+03 6.447e-11
 15.79803     83.5 7.032e+03 7.197e-11
 15.83456     84.4 6.985e+03 6.737e-11
 15.87369     85.3 6.987e+03 6.666e-11
 15.89468     85.3 7.138e+03 8.070e-11
 15.91851     85.4 7.265e+03 8.815e-11
 15.96048     85.4 7.428e+03 1.085e-10
 15.99132     85.7 7.606e+03 1.373e-10
 16.01231     85.6 7.796e+03 1.673e-10
 16.04444     86.0 7.957e+03 1.880e-10
 16.08641     85.6 8.089e+03 1.977e-10
 16.10896     84.4 8.310e+03 2.197e-10
 16.11584     84.1 8.287e+03 2.172e-10
 16.13527     84.2 8.131e+03 1.959e-10
 16.17036     83.1 8.108e+03 1.984e-10
 16.20561     82.9 7.977e+03 1.787e-10
 16.22660     83.0 8.034e+03 1.872e-10
 16.25431     82.8 7.856e+03 1.529e-10
 16.29629     81.9 7.933e+03 1.429e-10
 16.32324     81.0 8.095e+03 1.542e-10
 16.34423     80.8 8.588e+03 2.210e-10
 16.38024     79.7 8.772e+03 2.495e-10
 16.41162     78.8 8.869e+03 2.684e-10
 16.43019     78.6 8.960e+03 2.801e-10
 16.44068     78.1 9.329e+03 3.431e-10
 16.45350     76.2 1.007e+04 4.854e-10
 16.47449     73.9 1.102e+04 7.256e-10
 16.48901     71.7 1.183e+04 1.158e-09
 16.49950     70.8 1.249e+04 1.637e-09
 16.51646     70.4 1.276e+04 2.120e-09
 16.53733     70.7 1.286e+04 2.383e-09
 16.54783     70.6 1.325e+04 2.741e-09
 16.55844     70.4 1.330e+04 2.479e-09
 16.57942     68.9 1.360e+04 2.127e-09
 16.59615     66.2 1.343e+04 1.664e-09
 16.60664     64.8 1.320e+04 1.543e-09
 16.61103     61.4 1.213e+04 1.194e-09
 16.62153     61.5 1.151e+04 9.728e-10
 16.64239     59.0 1.082e+04 8.395e-10
 16.65497     57.0 1.066e+04 7.897e-10
 16.66546     57.0 1.077e+04 8.237e-10
 16.68436     52.0 1.257e+04 1.062e-09
 16.70329     42.8 1.533e+04 1.881e-09
 16.71379     41.6 1.660e+04 2.365e-09
 16.72104     35.0 1.663e+04 3.352e-09
 16.72992     33.9 1.684e+04 3.550e-09
 16.73517     34.0 1.670e+04 3.445e-09
 16.74728     28.7 1.647e+04 4.048e-09
 16.76211     24.4 1.497e+04 3.392e-09
 16.77260     23.6 1.540e+04 3.648e-09
 16.78930     19.4 1.433e+04 2.234e-09
 16.81029     14.5 1.343e+04 1.365e-09
 16.82093      9.7 1.206e+04 1.023e-09
 16.83142      9.3 1.179e+04 9.736e-10
 16.84901      7.4 1.137e+04 9.132e-10
 16.85951      9.4 1.112e+04 7.240e-10
 16.86925      7.8 1.100e+04 7.203e-10
 16.87975      8.1 1.082e+04 6.835e-10
 16.89424      6.7 1.069e+04 7.065e-10
 16.91523      5.3 1.061e+04 7.120e-10
 16.92807      3.9 1.059e+04 7.127e-10
 16.93856      3.8 1.058e+04 6.671e-10
 16.95720      1.7 1.097e+04 7.291e-10
 16.97639     -0.9 1.152e+04 8.438e-10
 16.98689     -1.3 1.168e+04 8.897e-10
 16.99918     -4.0 1.205e+04 1.069e-09
 17.02016     -6.3 1.220e+04 1.232e-09
 17.03521     -8.1 1.224e+04 1.300e-09
 17.04571     -8.1 1.222e+04 1.288e-09
 17.06214    -10.1 1.216e+04 1.226e-09
 17.08313    -12.8 1.206e+04 1.039e-09
 17.09403    -17.1 1.219e+04 9.316e-10
 17.09789    -19.9 1.252e+04 9.426e-10
 17.10798    -17.8 1.223e+04 9.554e-10
 17.12510    -24.0 1.280e+04 9.958e-10
 17.14235    -31.3 1.526e+04 1.681e-09
 17.15285    -35.3 1.668e+04 2.793e-09
 17.16178    -38.1 1.750e+04 4.186e-09
 17.17167    -39.3 1.786e+04 4.982e-09
 17.17691    -40.5 1.811e+04 6.118e-09
 17.18802    -41.6 1.815e+04 7.094e-09
 17.20117    -43.6 1.810e+04 8.988e-09
 17.21167    -44.8 1.821e+04 9.897e-09
 17.23004    -46.1 1.790e+04 9.098e-09
 17.24950    -46.9 1.749e+04 7.112e-09
 17.25999    -48.2 1.719e+04 5.432e-09
 17.27202    -49.9 1.642e+04 3.318e-09
 17.29300    -52.3 1.509e+04 1.870e-09
 17.30831    -54.5 1.312e+04 1.079e-09
 17.31881    -56.4 1.153e+04 7.922e-10
 17.33498    -56.8 1.045e+04 5.831e-10
 17.34596    -56.3 1.006e+04 4.642e-10
 17.35645    -55.7 1.141e+04 8.185e-10
 17.36713    -55.2 1.067e+04 5.949e-10
 17.37763    -55.6 1.035e+04 5.131e-10
 17.39794    -55.2 1.003e+04 4.084e-10
 17.41546    -54.8 9.847e+03 3.442e-10
 17.43654    -55.1 9.830e+03 3.160e-10
 17.47159    -53.7 9.798e+03 3.072e-10
 17.51230    -52.6 9.854e+03 3.194e-10
 17.53319    -53.5 1.014e+04 4.375e-10
 17.54486    -53.2 1.042e+04 5.376e-10
 17.56584    -53.0 1.082e+04 6.748e-10
 17.58142    -53.0 1.132e+04 8.708e-10
 17.58902    -53.9 1.200e+04 1.191e-09
 17.59443    -53.4 1.203e+04 1.225e-09
 17.60782    -53.5 1.257e+04 1.564e-09
 17.62881    -53.7 1.306e+04 1.980e-09
 17.64023    -53.7 1.349e+04 2.442e-09
 17.65073    -54.4 1.396e+04 2.916e-09
 17.67078    -54.4 1.421e+04 3.194e-09
 17.68856    -54.6 1.431e+04 3.288e-09
 17.69905    -55.8 1.429e+04 3.247e-09
 17.71276    -56.1 1.427e+04 3.138e-09
 17.73374    -56.5 1.414e+04 2.785e-09
 17.74738    -57.3 1.394e+04 2.403e-09
 17.75787    -58.6 1.384e+04 2.302e-09
 17.77572    -59.8 1.361e+04 2.101e-09
 17.79570    -61.3 1.332e+04 1.948e-09
 17.80619    -62.7 1.371e+04 2.213e-09
 17.81769    -65.1 1.396e+04 2.308e-09
 17.83241    -68.1 1.446e+04 2.592e-09
 17.84290    -69.4 1.644e+04 4.185e-09
 17.85452    -73.1 1.676e+04 5.240e-09
 17.86501    -75.2 1.725e+04 6.771e-09
 17.88066    -77.9 1.756e+04 8.009e-09
 17.90165    -81.0 1.832e+04 9.381e-09
 17.91334    -84.9 1.929e+04 1.083e-08
 17.92383    -88.2 1.940e+04 1.016e-08
 17.94362    -93.5 1.987e+04 1.089e-08
 17.96166    -99.1 1.988e+04 1.112e-08
 17.97215   -102.5 1.881e+04 8.375e-09
 17.98560   -106.9 1.807e+04 7.331e-09
 18.00658   -111.0 1.738e+04 5.331e-09
 18.02048   -116.0 1.680e+04 3.396e-09
 18.03097   -121.6 1.627e+04 2.119e-09
 18.04856   -128.8 1.576e+04 1.899e-09
 18.06880   -135.0 1.523e+04 2.065e-09
 18.07930   -138.7 1.472e+04 2.354e-09
 18.08088   -141.7 1.478e+04 2.983e-09
 18.09138   -140.7 1.481e+04 2.992e-09
 18.11152   -143.4 1.487e+04 3.251e-09
 18.12762   -146.4 1.480e+04 3.184e-09
 18.13811   -148.8 1.447e+04 2.598e-09
 18.15350   -152.8 1.366e+04 1.600e-09
 18.17448   -157.3 1.242e+04 9.117e-10
 18.18644   -161.4 1.141e+04 6.267e-10
 18.19693   -163.3 1.118e+04 5.567e-10
 18.21646   -165.1 1.106e+04 5.282e-10
 18.23476   -166.3 1.105e+04 5.243e-10
 18.24526   -167.2 1.110e+04 5.106e-10
 18.25843   -168.2 1.115e+04 5.236e-10
 18.27942   -169.0 1.120e+04 5.446e-10
 18.29358   -169.7 1.123e+04 5.628e-10
 18.30407   -171.2 1.109e+04 4.897e-10
 18.31886   -172.3 1.098e+04 4.638e-10
 18.32936   -172.3 1.094e+04 4.249e-10
 18.35298   -173.5 1.083e+04 4.288e-10
 18.39042   -174.5 1.057e+04 3.951e-10
 18.41141   -176.2 1.002e+04 2.696e-10
 18.43703   -177.2 9.883e+03 2.378e-10
 18.47900   -178.0 9.798e+03 2.183e-10
 18.50806   -178.8 9.775e+03 2.089e-10
 18.52905   -180.8 9.573e+03 1.745e-10
 18.55704   -181.4 9.536e+03 1.840e-10
 18.57803   -180.1 9.455e+03 1.487e-10
 18.60471   -180.9 9.462e+03 1.642e-10
 18.62569   -182.0 9.386e+03 1.575e-10
 18.64690   -182.5 9.395e+03 1.610e-10
 18.68888   -182.8 9.394e+03 1.600e-10
 18.72234   -183.1 9.403e+03 1.587e-10
 18.74333   -183.5 9.345e+03 1.384e-10
 18.77283   -183.8 9.359e+03 1.372e-10
 18.81480   -184.2 9.375e+03 1.371e-10
 18.83998   -185.1 9.526e+03 1.461e-10
 18.86097   -185.7 9.599e+03 1.536e-10
 18.89875   -187.5 1.042e+04 2.650e-10
 18.93663   -189.2 1.138e+04 5.375e-10
 18.95761   -189.5 1.153e+04 6.651e-10
 18.98270   -190.8 1.234e+04 1.144e-09
 19.00584   -191.9 1.305e+04 1.710e-09
 19.01624   -192.0 1.299e+04 1.771e-09
 19.03498   -193.1 1.400e+04 2.345e-09
 19.05379   -195.5 1.564e+04 3.402e-09
 19.06239   -194.9 1.528e+04 3.500e-09
 19.06456   -195.7 1.578e+04 3.770e-09
 19.07695   -198.9 1.737e+04 5.589e-09
 19.09794   -202.5 1.856e+04 8.093e-09
 19.11289   -206.1 1.913e+04 1.066e-08
 19.12338   -206.7 1.926e+04 1.185e-08
 19.13992   -210.0 1.924e+04 1.281e-08
 19.16090   -212.8 1.902e+04 1.288e-08
 19.17170   -214.7 1.795e+04 1.082e-08
 19.18220   -214.6 1.777e+04 9.819e-09
 19.20288   -216.0 1.650e+04 6.306e-09
 19.22003   -217.4 1.515e+04 3.777e-09
 19.23052   -218.2 1.543e+04 3.266e-09
 19.24485   -219.6 1.425e+04 2.130e-09
 19.26584   -220.5 1.337e+04 1.559e-09
 19.27885   -221.0 1.281e+04 1.271e-09
 19.28934   -221.5 1.318e+04 1.335e-09
 19.30226   -221.6 1.279e+04 1.162e-09
 19.31276   -221.1 1.355e+04 1.632e-09
 19.32717   -221.0 1.323e+04 1.473e-09
 19.33766   -221.5 1.398e+04 1.813e-09
 19.34979   -221.5 1.366e+04 1.646e-09
 19.37078   -221.3 1.338e+04 1.544e-09
 19.38599   -221.0 1.314e+04 1.483e-09
 19.39648   -221.3 1.357e+04 1.863e-09
 19.41275   -220.8 1.330e+04 1.773e-09
 19.43374   -220.3 1.304e+04 1.678e-09
 19.44481   -219.8 1.278e+04 1.549e-09
 19.45530   -219.7 1.290e+04 1.787e-09
 19.47572   -219.1 1.259e+04 1.548e-09
 19.49313   -218.6 1.229e+04 1.313e-09
 19.50362   -218.4 1.227e+04 1.314e-09
 19.51769   -217.9 1.197e+04 1.092e-09
 19.53868   -217.5 1.171e+04 9.120e-10
 19.55074   -217.0 1.150e+04 7.747e-10
 19.55351   -216.8 1.148e+04 7.690e-10
 19.56244   -217.2 1.145e+04 7.233e-10
 19.58066   -216.8 1.128e+04 6.334e-10
 19.60027   -216.5 1.116e+04 5.721e-10
 19.61077   -216.8 1.113e+04 5.537e-10
 19.62263   -216.4 1.105e+04 5.194e-10
 19.64362   -216.1 1.100e+04 4.971e-10
 19.65909   -215.7 1.097e+04 4.845e-10
 19.66958   -215.8 1.097e+04 4.845e-10
 19.69619   -215.5 1.097e+04 4.775e-10
 19.71810   -214.8 1.097e+04 4.769e-10
 19.73909   -214.4 1.093e+04 4.678e-10
 19.78023   -214.4 1.095e+04 4.711e-10
 19.81475   -214.4 1.094e+04 4.701e-10
 19.83574   -214.1 1.085e+04 4.431e-10
 19.86418   -214.0 1.078e+04 4.085e-10
 19.90616   -213.8 1.069e+04 3.567e-10
 19.93239   -213.5 1.059e+04 3.021e-10
 19.95337   -212.9 1.061e+04 2.911e-10
 19.99011   -212.8 1.061e+04 2.744e-10
 20.02689   -212.9 1.061e+04 2.704e-10
 20.04483   -213.0 1.067e+04 2.949e-10
 20.05002   -213.4 1.120e+04 3.849e-10
 20.07406   -214.8 1.166e+04 5.458e-10
 20.11604   -216.5 1.203e+04 7.492e-10
 20.14667   -218.2 1.226e+04 9.065e-10
 20.16766   -220.5 1.274e+04 1.168e-09
 20.19999   -221.9 1.273e+04 1.177e-09
 20.24196   -222.8 1.257e+04 1.076e-09
 20.26431   -223.1 1.220e+04 7.937e-10
 20.27470   -224.1 1.227e+04 8.469e-10
 20.28566   -223.9 1.197e+04 6.662e-10
 20.29616   -223.8 1.197e+04 6.687e-10
 20.31244   -223.7 1.161e+04 4.983e-10
 20.32293   -224.1 1.148e+04 4.549e-10
 20.33621   -223.7 1.131e+04 3.794e-10
 20.36086   -223.7 1.119e+04 3.299e-10
 20.38194   -224.5 1.104e+04 2.858e-10
 20.40986   -223.4 1.072e+04 2.035e-10
 20.45184   -221.9 1.041e+04 1.388e-10
 20.47859   -220.3 1.020e+04 9.674e-11
 20.49958   -220.0 1.012e+04 8.123e-11
 20.52384   -218.5 1.011e+04 6.325e-11
 20.54482   -218.6 1.012e+04 6.446e-11
 20.57524   -217.2 1.010e+04 5.492e-11
 20.59623   -216.8 1.007e+04 4.952e-11
 20.61974   -215.4 1.007e+04 4.465e-11
 20.66171   -214.1 1.008e+04 4.150e-11
 20.69287   -212.8 1.007e+04 3.968e-11
 20.71386   -212.5 1.006e+04 4.045e-11
 20.74566   -211.3 1.006e+04 4.029e-11
 20.78764   -210.1 1.006e+04 4.059e-11
 20.81051   -209.0 1.002e+04 4.216e-11
 20.83150   -208.8 9.941e+03 4.880e-11
 20.87159   -207.6 9.857e+03 5.083e-11
 20.90716   -206.4 9.804e+03 5.179e-11
 20.92815   -206.1 9.756e+03 5.705e-11
 20.95554   -204.8 9.635e+03 5.548e-11
 20.99752   -203.4 9.573e+03 5.218e-11
 21.02078   -202.0 9.541e+03 4.909e-11
 21.02708   -201.9 9.581e+03 5.694e-11
 21.04578   -201.4 9.536e+03 5.707e-11
 21.08147   -200.0 9.544e+03 5.609e-11
 21.12144   -198.6 9.548e+03 5.598e-11
 21.14243   -198.3 9.544e+03 5.986e-11
 21.16542   -197.1 9.626e+03 6.835e-11
 21.20739   -196.1 9.690e+03 8.566e-11
 21.23908   -195.0 9.735e+03 1.067e-10
 21.26007   -194.5 9.730e+03 1.422e-10
 21.29134   -193.3 9.778e+03 1.675e-10
 21.33332   -192.2 9.796e+03 1.826e-10
 21.35671   -190.9 9.797e+03 1.876e-10
 21.37770   -190.3 9.872e+03 2.184e-10
 21.41727   -189.0 9.879e+03 2.211e-10
 21.45336   -187.7 9.884e+03 2.270e-10
 21.47435   -187.2 9.905e+03 2.312e-10
 21.49674   -186.0 1.005e+04 2.701e-10
 21.51773   -186.1 9.979e+03 2.500e-10
 21.54319   -185.0 1.023e+04 3.124e-10
 21.57100   -184.1 1.053e+04 4.004e-10
 21.59199   -183.5 1.051e+04 3.932e-10
 21.62714   -182.9 1.081e+04 4.912e-10
 21.66765   -182.7 1.102e+04 5.603e-10
 21.68863   -182.0 1.095e+04 5.285e-10
 21.71109   -182.0 1.105e+04 5.543e-10
 21.75307   -182.0 1.106e+04 5.552e-10
 21.78528   -182.0 1.095e+04 4.871e-10
 21.80627   -181.6 1.093e+04 4.751e-10
 21.83702   -181.4 1.066e+04 3.676e-10
 21.87900   -180.7 1.033e+04 2.797e-10
 21.90292   -179.6 1.010e+04 2.387e-10
 21.92391   -179.5 1.017e+04 2.812e-10
 21.96295   -178.2 1.012e+04 2.746e-10
 21.99369   -176.8 1.011e+04 2.766e-10
 22.00932   -176.6 1.029e+04 3.233e-10
 22.02055   -176.5 1.045e+04 4.138e-10
 22.04690   -175.2 1.047e+04 4.299e-10
 22.08887   -173.6 1.053e+04 4.421e-10
 22.11720   -172.1 1.057e+04 4.440e-10
 22.13819   -171.5 1.054e+04 4.534e-10
 22.17282   -170.6 1.057e+04 4.361e-10
 22.21385   -169.7 1.057e+04 3.986e-10
 22.23484   -169.5 1.049e+04 3.905e-10
 22.25677   -168.5 1.041e+04 3.431e-10
 22.29875   -167.5 1.033e+04 2.954e-10
 22.33149   -166.4 1.025e+04 2.545e-10
 22.35247   -166.4 1.029e+04 2.617e-10
 22.38270   -165.3 1.030e+04 2.471e-10
 22.42467   -164.2 1.032e+04 2.413e-10
 22.44912   -163.0 1.032e+04 2.405e-10
 22.47011   -163.1 1.047e+04 3.049e-10
 22.49064   -161.9 1.044e+04 3.129e-10
 22.51162   -162.5 1.051e+04 3.568e-10
 22.54577   -161.3 1.044e+04 3.446e-10
 22.56676   -161.8 1.036e+04 3.467e-10
 22.59258   -160.4 1.025e+04 3.200e-10
 22.63455   -158.9 1.022e+04 3.067e-10
 22.66341   -157.6 1.022e+04 3.048e-10
 22.68439   -157.7 1.002e+04 2.676e-10
 22.71850   -156.8 1.013e+04 2.712e-10
 22.76005   -156.3 1.051e+04 3.301e-10
 22.78104   -156.5 1.053e+04 3.419e-10
 22.80245   -156.2 1.087e+04 4.940e-10
 22.84443   -156.2 1.113e+04 6.675e-10
 22.87769   -156.4 1.128e+04 7.974e-10
 22.89868   -156.7 1.149e+04 8.911e-10
 22.92838   -157.4 1.150e+04 9.141e-10
 22.96659   -158.1 1.141e+04 9.119e-10
 22.98758   -158.4 1.197e+04 1.168e-09
 22.99523   -158.4 1.160e+04 1.009e-09
 23.00563   -158.8 1.216e+04 1.293e-09
 23.02263   -159.3 1.212e+04 1.274e-09
 23.04346   -160.0 1.195e+04 1.237e-09
 23.05395   -160.5 1.243e+04 1.602e-09
 23.06460   -160.7 1.208e+04 1.535e-09
 23.08559   -160.8 1.180e+04 1.372e-09
 23.10227   -160.8 1.149e+04 1.175e-09
 23.11277   -160.9 1.181e+04 1.236e-09
 23.12756   -160.7 1.142e+04 9.844e-10
 23.14855   -160.5 1.101e+04 7.758e-10
 23.16109   -160.3 1.066e+04 6.067e-10
 23.17159   -160.9 1.065e+04 5.831e-10
 23.19053   -160.4 1.035e+04 4.800e-10
 23.20951   -159.7 1.009e+04 3.985e-10
 23.23060   -159.7 1.002e+04 3.612e-10
 23.26418   -158.7 9.665e+03 2.738e-10
 23.30615   -157.6 9.486e+03 2.358e-10
 23.34813   -156.9 9.401e+03 2.258e-10
 23.39011   -155.2 9.245e+03 2.030e-10
 23.42389   -153.4 9.109e+03 1.779e-10
 23.44488   -153.3 9.012e+03 1.676e-10
 23.46354   -151.3 8.851e+03 1.407e-10
 23.48453   -152.1 8.911e+03 1.438e-10
 23.51603   -150.0 8.793e+03 1.185e-10
 23.54153   -148.0 8.751e+03 1.028e-10
 23.56252   -148.0 8.828e+03 1.143e-10
 23.59998   -146.1 8.839e+03 1.121e-10
 23.63818   -144.5 8.867e+03 1.122e-10
 23.65917   -144.8 9.140e+03 1.435e-10
 23.68393   -143.6 9.454e+03 1.821e-10
 23.72591   -142.4 9.848e+03 2.587e-10
 23.75581   -141.3 1.029e+04 3.718e-10
 23.77680   -140.9 9.964e+03 2.943e-10
 23.80986   -140.0 1.019e+04 3.443e-10
 23.85183   -139.4 1.039e+04 3.949e-10
 23.87345   -139.1 1.057e+04 4.434e-10
 23.89444   -138.2 9.956e+03 2.648e-10
 23.93578   -137.8 1.008e+04 2.938e-10
 23.96049   -137.4 1.017e+04 3.124e-10
 23.97382   -137.8 9.938e+03 2.544e-10
 23.99109   -136.4 9.613e+03 1.950e-10
 24.01973   -135.8 9.701e+03 2.083e-10
 24.06171   -135.2 9.767e+03 2.138e-10
 24.08773   -134.7 9.887e+03 2.218e-10
 24.10872   -133.7 1.007e+04 2.622e-10
 24.14566   -134.0 1.048e+04 3.365e-10
 24.18438   -134.7 1.102e+04 4.994e-10
 24.20537   -133.7 1.182e+04 9.345e-10
 24.22961   -134.5 1.237e+04 1.314e-09
 24.27159   -135.8 1.269e+04 1.599e-09
 24.30202   -137.6 1.275e+04 1.662e-09
 24.32301   -136.8 1.311e+04 2.055e-09
 24.35554   -138.4 1.266e+04 1.627e-09
 24.39751   -139.9 1.184e+04 1.075e-09
 24.41965   -141.2 1.114e+04 7.525e-10
 24.43760   -139.9 1.111e+04 7.235e-10
 24.45743   -139.1 1.050e+04 5.300e-10
 24.48146   -140.1 1.028e+04 4.680e-10
 24.51630   -140.8 1.023e+04 4.600e-10
 24.53729   -139.4 1.025e+04 4.445e-10
 24.56541   -140.3 1.032e+04 4.791e-10
 24.60739   -141.3 1.047e+04 5.392e-10
 24.63394   -142.8 1.067e+04 6.043e-10
 24.65493   -141.6 1.107e+04 7.129e-10
 24.69134   -143.8 1.158e+04 9.399e-10
 24.73059   -146.5 1.196e+04 1.161e-09
 24.75148   -145.9 1.224e+04 1.374e-09
 24.76460   -147.4 1.232e+04 1.432e-09
 24.78559   -148.6 1.234e+04 1.443e-09
 24.79970   -150.0 1.230e+04 1.442e-09
 24.81020   -149.6 1.257e+04 1.612e-09
 24.82756   -150.8 1.252e+04 1.523e-09
 24.84803   -151.6 1.236e+04 1.340e-09
 24.85852   -151.3 1.256e+04 1.444e-09
 24.86954   -151.8 1.223e+04 1.219e-09
 24.89053   -152.0 1.195e+04 1.028e-09
 24.90685   -152.3 1.158e+04 8.536e-10
 24.91734   -151.9 1.179e+04 9.100e-10
 24.93250   -152.2 1.150e+04 7.543e-10
 24.94369   -152.5 1.124e+04 6.361e-10
 24.95428   -149.9 1.110e+04 6.624e-10
 24.96586   -150.0 1.056e+04 4.594e-10
 24.98685   -149.4 1.107e+04 6.241e-10
 25.02714   -149.6 1.073e+04 5.034e-10
 25.06251   -149.2 1.062e+04 4.779e-10
 25.08340   -149.9 1.130e+04 7.264e-10
 25.10040   -149.5 1.115e+04 7.281e-10
 25.12113   -148.9 1.106e+04 7.284e-10
 25.13162   -149.3 1.149e+04 9.681e-10
 25.14238   -148.6 1.134e+04 9.271e-10
 25.16336   -147.8 1.126e+04 9.128e-10
 25.17995   -147.1 1.125e+04 9.097e-10
 25.18776   -147.3 1.156e+04 1.084e-09
 25.19217   -146.5 1.179e+04 1.262e-09
 25.20534   -145.9 1.178e+04 1.264e-09
 25.22633   -145.2 1.182e+04 1.288e-09
 25.23877   -144.6 1.191e+04 1.339e-09
 25.24926   -144.7 1.189e+04 1.393e-09
 25.26830   -144.1 1.198e+04 1.475e-09
 25.28709   -143.5 1.207e+04 1.559e-09
 25.29758   -143.3 1.198e+04 1.521e-09
 25.31028   -142.7 1.204e+04 1.573e-09
 25.33127   -142.2 1.206e+04 1.589e-09
 25.34591   -141.7 1.205e+04 1.591e-09
 25.35640   -141.2 1.177e+04 1.405e-09
 25.37324   -140.6 1.177e+04 1.375e-09
 25.39423   -140.1 1.174e+04 1.310e-09
 25.41522   -139.2 1.144e+04 1.082e-09
 25.43014   -138.8 1.137e+04 1.036e-09
 25.44064   -138.6 1.140e+04 1.055e-09
 25.45305   -138.2 1.131e+04 1.003e-09
 25.46354   -137.7 1.112e+04 8.934e-10
 25.47818   -137.1 1.104e+04 8.568e-10
 25.49917   -136.6 1.095e+04 8.163e-10
 25.51187   -136.0 1.086e+04 7.784e-10
 25.52236   -135.4 1.078e+04 7.345e-10
 25.54114   -134.9 1.075e+04 7.196e-10
 25.56019   -134.4 1.074e+04 7.133e-10
 25.57068   -133.9 1.072e+04 7.105e-10
 25.58312   -133.5 1.079e+04 7.400e-10
 25.60410   -133.2 1.087e+04 7.842e-10
 25.61901   -132.8 1.097e+04 8.412e-10
 25.62950   -132.6 1.118e+04 9.599e-10
 25.65667   -132.4 1.145e+04 1.094e-09
 25.69874   -132.0 1.182e+04 1.296e-09
 25.72625   -131.8 1.230e+04 1.589e-09
 25.73664   -132.1 1.263e+04 1.838e-09
 25.75102   -132.4 1.300e+04 2.139e-09
 25.77201   -132.7 1.332e+04 2.445e-09
 25.78497   -132.8 1.354e+04 2.695e-09
 25.79546   -133.3 1.393e+04 3.195e-09
 25.81398   -133.3 1.407e+04 3.389e-09
 25.83329   -133.1 1.413e+04 3.494e-09
 25.84379   -133.4 1.416e+04 3.467e-09
 25.85596   -133.2 1.416e+04 3.473e-09
 25.87694   -132.8 1.405e+04 3.338e-09
 25.89211   -132.4 1.383e+04 3.029e-09
 25.90260   -132.7 1.349e+04 2.362e-09
 25.91660   -132.3 1.316e+04 1.968e-09
 25.92709   -132.0 1.312e+04 1.927e-09
 25.93991   -131.9 1.275e+04 1.611e-09
 25.95093   -131.5 1.245e+04 1.426e-09
 25.96152   -132.2 1.196e+04 1.104e-09
 25.99257   -130.7 1.162e+04 9.354e-10
 26.03455   -128.9 1.140e+04 8.137e-10
 26.05827   -127.1 1.124e+04 7.105e-10
 26.06866   -127.7 1.131e+04 7.411e-10
 26.08682   -127.1 1.130e+04 7.172e-10
 26.10640   -126.3 1.125e+04 6.709e-10
 26.11689   -126.4 1.146e+04 7.427e-10
 26.12880   -125.6 1.142e+04 7.073e-10
 26.14978   -124.6 1.135e+04 6.554e-10
 26.16507   -123.7 1.126e+04 5.916e-10
 26.17001   -123.6 1.126e+04 5.825e-10
 26.17571   -123.8 1.160e+04 7.387e-10
 26.19176   -123.0 1.150e+04 6.510e-10
 26.21275   -122.3 1.139e+04 5.609e-10
 26.22403   -121.6 1.129e+04 4.817e-10
 26.23452   -121.8 1.162e+04 6.962e-10
 26.25472   -121.1 1.148e+04 6.050e-10
 26.27236   -120.4 1.136e+04 5.350e-10
 26.28285   -120.5 1.154e+04 7.529e-10
 26.29670   -119.8 1.143e+04 6.826e-10
 26.31768   -119.2 1.140e+04 6.505e-10
 26.33117   -118.5 1.139e+04 6.432e-10
 26.34167   -118.6 1.162e+04 7.979e-10
 26.35966   -117.8 1.161e+04 7.900e-10
 26.37950   -117.2 1.169e+04 8.008e-10
 26.38999   -117.3 1.194e+04 8.752e-10
 26.40163   -116.7 1.195e+04 8.644e-10
 26.41354   -116.0 1.199e+04 8.493e-10
 26.42404   -115.9 1.206e+04 8.901e-10
 26.43831   -115.3 1.208e+04 8.880e-10
 26.44881   -115.4 1.210e+04 8.935e-10
 26.46460   -114.9 1.207e+04 8.671e-10
 26.48558   -114.5 1.204e+04 8.389e-10
 26.49713   -114.3 1.202e+04 8.219e-10
 26.50763   -113.9 1.208e+04 8.476e-10
 26.52756   -113.9 1.212e+04 8.478e-10
 26.54546   -116.2 1.323e+04 1.015e-09
 26.55595   -117.1 1.491e+04 1.459e-09
 26.56954   -120.8 1.677e+04 2.906e-09
 26.59052   -124.3 1.769e+04 5.259e-09
 26.60427   -128.0 1.774e+04 6.886e-09
 26.60947   -126.9 1.929e+04 8.565e-09
 26.61666   -128.8 1.916e+04 8.932e-09
 26.62715   -131.1 1.849e+04 9.117e-09
 26.63359   -132.5 1.785e+04 8.481e-09
 26.63883   -133.1 1.900e+04 1.056e-08
 26.64814   -134.5 1.777e+04 8.531e-09
 26.65667   -135.9 1.673e+04 6.463e-09
 26.66103   -135.6 1.678e+04 6.286e-09
 26.66300   -136.4 1.756e+04 6.992e-09
 26.66913   -138.1 1.621e+04 5.066e-09
 26.67962   -139.5 1.543e+04 4.016e-09
 26.69541   -140.5 1.490e+04 3.354e-09
 26.71142   -141.3 1.400e+04 2.428e-09
 26.72191   -142.2 1.411e+04 2.563e-09
 26.73744   -142.1 1.297e+04 1.717e-09
 26.75842   -142.1 1.211e+04 1.295e-09
 26.77023   -141.7 1.176e+04 1.135e-09
 26.78073   -141.7 1.158e+04 1.027e-09
 26.80040   -141.0 1.147e+04 9.702e-10
 26.81856   -140.1 1.140e+04 9.389e-10
 26.82905   -140.1 1.127e+04 8.454e-10
 26.84237   -139.2 1.123e+04 8.308e-10
 26.86336   -138.3 1.119e+04 8.112e-10
 26.87738   -137.3 1.111e+04 7.769e-10
 26.88787   -137.3 1.100e+04 7.455e-10
 26.90000   -136.3 1.088e+04 6.933e-10
 26.91049   -136.8 1.104e+04 7.737e-10
 26.92570   -135.8 1.090e+04 6.964e-10
 26.93619   -135.6 1.079e+04 6.805e-10
 26.94731   -134.7 1.062e+04 5.888e-10
 26.96830   -133.7 1.040e+04 4.890e-10
 26.98452   -132.7 1.020e+04 4.080e-10
 26.99501   -132.7 1.023e+04 4.201e-10
 27.01028   -132.2 1.013e+04 3.855e-10
 27.03294   -131.7 1.009e+04 3.654e-10
 27.05403   -131.8 1.002e+04 3.918e-10
 27.08393   -130.2 9.840e+03 3.437e-10
 27.12590   -128.7 9.667e+03 3.054e-10
 27.15067   -127.2 9.554e+03 2.838e-10
 27.17166   -126.8 9.790e+03 3.465e-10
 27.20985   -125.4 9.781e+03 3.436e-10
 27.24732   -124.1 9.823e+03 3.467e-10
 27.26831   -124.3 1.022e+04 4.570e-10
 27.28321   -123.5 1.020e+04 4.436e-10
 27.30410   -123.5 1.033e+04 4.786e-10
 27.31644   -123.5 1.052e+04 5.400e-10
 27.32693   -123.9 1.075e+04 6.459e-10
 27.34608   -124.0 1.095e+04 7.341e-10
 27.36476   -124.0 1.119e+04 8.468e-10
 27.37526   -124.3 1.128e+04 9.170e-10
 27.38645   -124.6 1.151e+04 1.037e-09
 27.39694   -125.1 1.162e+04 1.070e-09
 27.40904   -125.7 1.196e+04 1.233e-09
 27.42358   -126.7 1.240e+04 1.438e-09
 27.43407   -128.0 1.283e+04 1.600e-09
 27.45102   -129.9 1.346e+04 1.946e-09
 27.47190   -131.7 1.394e+04 2.283e-09
 27.48240   -134.3 1.485e+04 3.141e-09
 27.49299   -135.9 1.484e+04 3.264e-09
 27.51398   -136.9 1.456e+04 3.272e-09
 27.53072   -137.4 1.391e+04 2.884e-09
 27.54122   -138.3 1.391e+04 3.011e-09
 27.55595   -139.0 1.330e+04 2.236e-09
 27.57694   -140.3 1.319e+04 1.902e-09
 27.58954   -142.2 1.331e+04 1.832e-09
 27.60003   -151.7 1.797e+04 4.044e-09
 27.61892   -154.1 1.868e+04 6.219e-09
 27.63492   -155.4 1.915e+04 9.234e-09
 27.64338   -156.2 1.940e+04 1.142e-08
 27.64831   -158.2 2.036e+04 2.024e-08
 27.65555   -158.1 2.042e+04 2.210e-08
 27.66604   -158.0 2.049e+04 2.330e-08
 27.67242   -157.7 2.050e+04 2.398e-08
 27.67767   -158.4 2.046e+04 2.498e-08
 27.68703   -158.2 2.043e+04 2.375e-08
 27.69659   -158.1 2.036e+04 2.233e-08
 27.70183   -158.8 1.982e+04 1.754e-08
 27.70802   -158.9 1.951e+04 1.532e-08
 27.71851   -159.0 1.912e+04 1.325e-08
 27.72599   -159.3 1.869e+04 1.137e-08
 27.73124   -161.6 1.693e+04 6.725e-09
 27.73950   -162.3 1.619e+04 5.733e-09
 27.74999   -162.8 1.554e+04 5.022e-09
 27.75540   -162.9 1.519e+04 4.608e-09
 27.76595   -164.0 1.390e+04 2.141e-09
 27.78682   -163.8 1.351e+04 1.902e-09
 27.80382   -163.6 1.315e+04 1.775e-09
 27.81432   -165.4 1.251e+04 7.972e-10
 27.82879   -164.6 1.264e+04 8.561e-10
 27.84978   -163.6 1.271e+04 9.942e-10
 27.86264   -162.5 1.275e+04 1.165e-09
 27.87314   -163.5 1.204e+04 6.785e-10
 27.88340   -162.3 1.226e+04 7.877e-10
 27.89389   -163.4 1.146e+04 5.073e-10
 27.91097   -162.2 1.171e+04 5.646e-10
 27.92146   -163.5 1.025e+04 4.060e-10
 27.93373   -162.5 1.042e+04 4.258e-10
 27.95472   -161.6 1.060e+04 4.495e-10
 27.96978   -160.6 1.075e+04 4.783e-10
 27.98028   -161.5 9.775e+03 4.018e-10
 27.99669   -160.7 9.841e+03 4.034e-10
 28.01768   -159.8 9.913e+03 4.143e-10
 28.02860   -159.0 1.001e+04 4.322e-10
 28.03910   -159.3 9.742e+03 3.775e-10
 28.05966   -158.4 9.790e+03 3.774e-10
 28.07693   -157.6 9.842e+03 3.660e-10
 28.08742   -157.8 9.700e+03 3.283e-10
 28.10163   -157.1 9.687e+03 3.204e-10
 28.12535   -156.2 9.718e+03 3.150e-10
 28.14643   -156.3 9.484e+03 2.773e-10
 28.17528   -154.3 9.372e+03 2.559e-10
 28.21726   -152.2 9.275e+03 2.386e-10
 28.24308   -149.9 9.211e+03 2.275e-10
 28.26407   -150.1 9.339e+03 2.562e-10
 28.30121   -147.6 9.263e+03 2.418e-10
 28.33973   -144.9 9.184e+03 2.280e-10
 28.36072   -144.9 9.252e+03 2.501e-10
 28.37004   -142.0 9.137e+03 2.184e-10
 28.39103   -142.2 9.409e+03 2.679e-10
 28.42714   -139.2 9.338e+03 2.427e-10
 28.45737   -136.1 9.305e+03 2.290e-10
 28.47835   -136.2 9.374e+03 2.552e-10
 28.51109   -133.1 9.310e+03 2.308e-10
 28.55306   -130.0 9.298e+03 2.207e-10
 28.57500   -126.9 9.303e+03 2.185e-10
 28.59599   -126.7 9.373e+03 2.578e-10
 28.63701   -123.7 9.352e+03 2.407e-10
 28.67165   -120.7 9.299e+03 2.254e-10
 28.69264   -120.2 9.365e+03 2.678e-10
 28.72096   -117.1 9.253e+03 2.319e-10
 28.76294   -114.0 9.144e+03 2.013e-10
 28.78929   -110.9 9.044e+03 1.802e-10
 28.81027   -110.3 9.303e+03 2.062e-10
 28.84600   -107.2 9.221e+03 1.752e-10
 28.86699   -107.7 9.293e+03 2.251e-10
 28.88593   -104.7 9.248e+03 2.118e-10
 28.90692   -104.4 9.820e+03 2.839e-10
 28.93084   -101.5 9.811e+03 2.596e-10
 28.97281    -98.6 9.777e+03 2.467e-10
 29.00357    -95.7 9.758e+03 2.423e-10
 29.02456    -95.7 1.018e+04 4.552e-10
 29.05676    -92.8 1.007e+04 4.105e-10
 29.09874    -89.8 1.001e+04 3.758e-10
 29.12121    -86.8 9.977e+03 3.583e-10
 29.14219    -86.1 1.022e+04 5.220e-10
 29.18269    -83.1 1.009e+04 4.551e-10
 29.21785    -80.1 1.007e+04 4.282e-10
 29.23884    -79.3 1.027e+04 4.211e-10
 29.26664    -76.4 1.025e+04 4.031e-10
 29.30862    -73.6 1.025e+04 4.006e-10
 29.33549    -70.8 1.029e+04 4.080e-10
 29.34884    -70.3 1.028e+04 3.661e-10
 29.36394    -71.0 1.004e+04 3.393e-10
 29.39257    -68.2 1.004e+04 3.324e-10
 29.43214    -65.3 1.002e+04 3.184e-10
 29.45313    -64.6 1.000e+04 3.052e-10
 29.47652    -61.8 1.002e+04 2.787e-10
 29.51849    -59.1 1.005e+04 2.667e-10
 29.54977    -56.4 1.012e+04 2.658e-10
 29.57076    -56.1 1.017e+04 2.689e-10
 29.60244    -53.5 1.025e+04 2.700e-10
 29.64442    -51.0 1.050e+04 3.110e-10
 29.66741    -48.5 1.071e+04 3.878e-10
 29.68840    -48.9 1.093e+04 4.346e-10
 29.72837    -46.4 1.111e+04 5.309e-10
 29.76406    -43.8 1.131e+04 6.261e-10
 29.78505    -44.3 1.184e+04 7.096e-10
 29.81232    -41.7 1.195e+04 7.496e-10
 29.83990    -39.3 1.199e+04 7.577e-10
 29.86088    -40.8 1.156e+04 6.772e-10
 29.88169    -38.7 1.148e+04 5.945e-10
 29.90268    -38.6 1.166e+04 8.254e-10
 29.93825    -36.6 1.176e+04 7.964e-10
 29.97834    -34.8 1.182e+04 7.739e-10
 29.99933    -34.2 1.233e+04 1.252e-09
 30.02220    -33.1 1.268e+04 1.395e-09
 30.06417    -32.2 1.279e+04 1.509e-09
 30.09598    -31.7 1.270e+04 1.524e-09
 30.11697    -31.9 1.319e+04 1.484e-09
 30.14812    -31.9 1.265e+04 1.058e-09
 30.19010    -31.7 1.206e+04 7.083e-10
 30.21361    -31.2 1.151e+04 4.265e-10
 30.23460    -32.1 1.086e+04 3.354e-10
 30.27405    -30.8 1.063e+04 2.300e-10
 30.31026    -29.3 1.052e+04 1.494e-10
 30.33108    -29.1 1.050e+04 1.945e-10
 30.35783    -27.0 1.047e+04 1.930e-10
 30.39997    -25.9 1.055e+04 1.579e-10
 30.42790    -25.2 1.059e+04 1.497e-10
 30.44889    -24.3 1.077e+04 3.541e-10
 30.48392    -23.3 1.100e+04 3.911e-10
 30.52455    -22.2 1.100e+04 4.375e-10
 30.54544    -21.4 1.117e+04 6.669e-10
 30.55718    -20.3 1.097e+04 6.044e-10
 30.57463    -19.3 1.064e+04 4.993e-10
 30.58512    -19.1 1.065e+04 5.020e-10
 30.60975    -18.1 1.051e+04 3.928e-10
 30.64218    -16.5 9.973e+03 2.218e-10
 30.66317    -16.5 1.038e+04 2.075e-10
 30.69380    -14.6 9.891e+03 1.249e-10
 30.73577    -12.8 9.758e+03 8.390e-11
 30.75982    -10.9 9.678e+03 6.478e-11
 30.78081    -10.4 9.384e+03 1.136e-10
 30.81280     -8.3 9.307e+03 9.905e-11
 30.83379     -8.2 9.412e+03 1.299e-10
 30.85647     -6.2 9.393e+03 1.274e-10
 30.87745     -5.5 9.605e+03 1.602e-10
 30.90368     -3.4 9.599e+03 1.741e-10
 30.94565     -1.2 9.538e+03 1.807e-10
 30.97410      1.3 9.545e+03 1.746e-10
 30.99509      2.2 9.675e+03 1.716e-10
 31.02960      3.8 9.729e+03 1.522e-10
 31.07075      5.5 9.574e+03 1.406e-10
 31.09174      5.7 9.719e+03 1.778e-10
 31.11355      7.3 9.791e+03 1.728e-10
 31.15553      8.4 9.888e+03 1.845e-10
 31.18839      9.2 9.882e+03 2.381e-10
 31.20937     10.5 9.874e+03 3.727e-10
 31.23948     12.3 9.720e+03 3.974e-10
 31.28145     14.5 9.548e+03 3.626e-10
 31.30602     16.8 9.379e+03 2.779e-10
 31.31333     17.6 9.178e+03 2.267e-10
 31.33074     17.4 9.314e+03 2.616e-10
 31.36540     18.6 9.292e+03 2.226e-10
 31.40267     20.0 9.326e+03 2.314e-10
 31.42366     20.8 8.958e+03 1.503e-10
 31.44935     22.8 9.015e+03 1.746e-10
 31.49133     25.0 9.059e+03 1.882e-10
 31.52031     26.9 9.051e+03 1.943e-10
 31.54129     27.5 8.975e+03 1.289e-10
 31.57528     29.3 8.975e+03 1.496e-10
 31.61695     31.3 8.952e+03 1.745e-10
 31.63794     32.0 9.036e+03 1.845e-10
 31.65923     34.2 9.133e+03 2.283e-10
 31.70121     36.4 9.247e+03 2.670e-10
 31.73459     38.5 9.362e+03 2.994e-10
 31.75558     39.5 9.702e+03 4.224e-10
 31.78516     41.6 9.720e+03 4.197e-10
 31.80670     43.7 9.637e+03 3.792e-10
 31.82768     43.6 9.633e+03 3.821e-10
 31.85223     45.5 9.373e+03 3.126e-10
 31.87321     46.6 9.660e+03 3.820e-10
 31.91108     48.5 9.298e+03 2.696e-10
 31.94887     50.4 8.963e+03 1.923e-10
 31.96986     51.3 9.346e+03 2.793e-10
 31.99503     53.2 9.055e+03 2.073e-10
 32.03701     55.2 8.823e+03 1.584e-10
 32.06651     57.1 8.656e+03 1.286e-10
 32.08750     58.1 9.184e+03 2.600e-10
 32.12096     60.1 9.098e+03 2.301e-10
 32.16293     61.9 9.061e+03 2.135e-10
 32.18415     63.7 9.072e+03 2.156e-10
 32.20513     64.5 9.711e+03 4.207e-10
 32.24688     66.1 9.654e+03 3.972e-10
 32.28079     67.9 9.583e+03 3.745e-10
 32.29558     68.4 1.010e+04 5.989e-10
 32.30364     68.4 1.057e+04 8.659e-10
 32.33083     70.0 1.037e+04 7.626e-10
 32.37281     71.8 1.014e+04 6.387e-10
 32.39843     73.4 9.940e+03 5.331e-10
 32.41942     73.7 1.008e+04 6.020e-10
 32.44617     74.9 9.906e+03 5.092e-10
 32.45705     75.7 9.816e+03 4.687e-10
 32.46755     75.7 9.894e+03 4.952e-10
 32.48805     76.7 9.865e+03 4.712e-10
 32.50538     77.6 9.861e+03 4.674e-10
 32.51587     77.6 9.975e+03 5.185e-10
 32.53002     78.6 9.998e+03 5.244e-10
 32.54143     79.4 1.007e+04 5.414e-10
 32.55192     79.2 1.028e+04 6.406e-10
 32.56419     80.0 1.038e+04 6.722e-10
 32.57469     79.9 1.050e+04 7.388e-10
 32.59298     80.7 1.060e+04 7.794e-10
 32.61252     81.5 1.070e+04 8.243e-10
 32.62301     81.4 1.086e+04 9.031e-10
 32.63496     82.0 1.092e+04 9.457e-10
 32.65595     82.7 1.094e+04 9.771e-10
 32.67134     83.4 1.097e+04 9.980e-10
 32.68183     83.0 1.108e+04 1.025e-09
 32.69792     82.8 1.124e+04 1.093e-09
 32.71891     81.0 1.253e+04 1.381e-09
 32.73015     76.3 1.550e+04 2.759e-09
 32.74065     75.0 1.590e+04 3.096e-09
 32.76089     72.2 1.679e+04 6.243e-09
 32.77848     71.7 1.682e+04 9.263e-09
 32.78650     71.4 1.660e+04 7.733e-09
 32.78990     72.5 1.614e+04 6.083e-09
 32.80286     72.0 1.633e+04 7.510e-09
 32.82385     71.6 1.624e+04 7.301e-09
 32.83730     71.1 1.608e+04 6.065e-09
 32.84779     70.4 1.592e+04 5.441e-09
 32.86582     69.2 1.565e+04 3.960e-09
 32.88562     67.1 1.496e+04 2.539e-09
 32.89611     67.6 1.524e+04 2.985e-09
 32.90780     65.9 1.423e+04 2.026e-09
 32.92879     64.6 1.268e+04 1.451e-09
 32.94444     64.2 1.145e+04 1.125e-09
 32.95493     65.2 1.228e+04 1.332e-09
 32.97076     65.3 1.124e+04 1.009e-09
 32.99175     65.6 1.090e+04 7.685e-10
 33.00326     65.8 1.082e+04 5.681e-10
 33.01375     66.5 1.080e+04 6.210e-10
 33.02788     66.6 1.076e+04 4.439e-10
 33.03837     67.2 1.084e+04 6.370e-10
 33.05158     67.1 1.076e+04 4.752e-10
 33.06207     67.7 1.073e+04 5.010e-10
 33.07570     67.3 1.064e+04 3.803e-10
 33.09669     67.0 1.052e+04 3.289e-10
 33.11040     66.9 1.052e+04 3.265e-10
 33.12089     67.3 1.042e+04 3.233e-10
 33.13866     67.3 1.042e+04 3.280e-10
 33.15872     67.2 1.052e+04 3.515e-10
 33.16922     67.3 1.044e+04 3.555e-10
 33.18064     67.2 1.047e+04 4.000e-10
 33.20163     67.2 1.071e+04 4.903e-10
 33.21754     67.5 1.100e+04 5.987e-10
 33.22803     67.2 1.091e+04 5.981e-10
 33.24360     67.7 1.122e+04 7.316e-10
 33.26459     68.5 1.154e+04 8.447e-10
 33.27635     69.3 1.157e+04 8.694e-10
 33.28685     67.5 1.231e+04 1.555e-09
 33.30656     68.4 1.241e+04 1.565e-09
 33.32468     69.6 1.243e+04 1.488e-09
 33.33518     68.5 1.314e+04 2.039e-09
 33.34854     69.6 1.305e+04 1.921e-09
 33.36953     70.7 1.285e+04 1.804e-09
 33.38350     72.0 1.272e+04 1.759e-09
 33.39399     71.7 1.330e+04 2.292e-09
 33.41150     73.0 1.313e+04 2.215e-09
 33.43182     74.2 1.307e+04 2.182e-09
 33.44232     73.9 1.331e+04 2.368e-09
 33.45348     75.3 1.318e+04 2.265e-09
 33.47446     76.5 1.311e+04 2.201e-09
 33.49064     77.6 1.299e+04 2.118e-09
 33.50114     77.4 1.277e+04 1.868e-09
 33.51433     78.8 1.261e+04 1.790e-09
 33.52483     78.2 1.229e+04 1.542e-09
 33.53743     79.7 1.213e+04 1.519e-09
 33.54946     81.0 1.210e+04 1.523e-09
 33.55995     80.8 1.172e+04 1.124e-09
 33.57940     82.1 1.162e+04 1.184e-09
 33.59778     83.3 1.168e+04 1.275e-09
 33.60828     82.9 1.193e+04 1.015e-09
 33.62138     83.9 1.210e+04 1.204e-09
 33.64237     84.7 1.242e+04 1.488e-09
 33.65660     85.5 1.279e+04 1.888e-09
 33.66710     84.9 1.287e+04 1.816e-09
 33.68434     86.0 1.327e+04 2.499e-09
 33.70493     87.4 1.368e+04 3.268e-09
 33.71542     87.3 1.370e+04 3.137e-09
 33.72632     88.7 1.401e+04 3.816e-09
 33.74730     90.1 1.418e+04 4.206e-09
 33.76280     91.3 1.418e+04 4.130e-09
 33.76875     91.3 1.367e+04 3.183e-09
 33.77424     91.2 1.357e+04 3.039e-09
 33.78928     92.4 1.358e+04 3.100e-09
 33.81027     93.4 1.353e+04 2.977e-09
 33.82256     94.4 1.331e+04 2.608e-09
 33.83306     94.5 1.336e+04 2.780e-09
 33.85224     95.4 1.306e+04 2.356e-09
 33.87089     96.4 1.257e+04 1.797e-09
 33.88138     96.6 1.285e+04 1.992e-09
 33.89422     96.9 1.239e+04 1.600e-09
 33.91931     98.2 1.196e+04 1.315e-09
 33.94030     98.7 1.166e+04 1.164e-09
 33.96777    100.3 1.154e+04 1.042e-09
 34.00984    101.5 1.075e+04 6.718e-10
 34.03704    102.6 1.020e+04 4.802e-10
 34.05803    104.0 1.022e+04 5.027e-10
 34.09380    105.3 9.746e+03 3.806e-10
 34.13369    106.8 9.803e+03 4.030e-10
 34.15468    108.4 9.762e+03 4.016e-10
 34.17775    110.2 9.957e+03 4.707e-10
 34.21972    112.0 1.034e+04 6.357e-10
 34.24945    113.8 1.059e+04 8.055e-10
 34.26007    114.0 1.009e+04 5.524e-10
 34.27231    116.1 1.027e+04 6.067e-10
 34.30367    117.4 1.041e+04 7.015e-10
 34.34565    118.5 1.037e+04 7.055e-10
 34.36896    119.8 1.016e+04 6.439e-10
 34.38995    121.8 1.044e+04 7.301e-10
 34.42960    122.9 9.968e+03 5.633e-10
 34.46561    124.2 9.456e+03 3.998e-10
 34.48660    126.1 9.711e+03 4.453e-10
 34.51355    127.0 9.093e+03 2.963e-10
 34.55552    128.0 8.704e+03 2.324e-10
 34.58325    129.4 8.651e+03 2.277e-10
 34.60423    130.9 8.688e+03 2.353e-10
 34.63947    132.4 8.713e+03 2.394e-10
 34.67989    134.0 8.839e+03 2.602e-10
 34.70088    135.5 8.947e+03 2.852e-10
 34.72342    136.9 9.240e+03 3.416e-10
 34.74640    138.2 9.559e+03 4.081e-10
 34.76739    139.5 9.425e+03 3.905e-10
 34.79753    140.2 9.620e+03 4.485e-10
 34.81842    141.0 9.733e+03 5.142e-10
 34.83866    141.8 9.919e+03 5.907e-10
 34.85615    142.6 1.012e+04 6.689e-10
 34.86665    143.3 1.028e+04 7.422e-10
 34.88064    143.8 1.043e+04 7.948e-10
 34.90162    144.2 1.053e+04 8.285e-10
 34.91497    144.4 1.059e+04 8.526e-10
 34.92546    144.9 1.065e+04 8.932e-10
 34.94360    145.0 1.066e+04 8.974e-10
 34.96329    145.0 1.066e+04 8.983e-10
 34.97379    145.5 1.063e+04 8.925e-10
 34.98418    145.5 1.061e+04 8.792e-10
 34.99468    146.1 1.097e+04 1.063e-09
 35.00656    146.0 1.095e+04 1.048e-09
 35.02211    145.8 1.089e+04 1.020e-09
 35.03261    146.2 1.081e+04 9.837e-10
 35.04854    146.0 1.072e+04 9.419e-10
 35.06952    145.8 1.062e+04 9.007e-10
 35.08093    145.5 1.053e+04 8.664e-10
 35.09142    146.1 1.043e+04 8.353e-10
 35.11150    145.8 1.039e+04 8.248e-10
 35.12925    145.5 1.040e+04 8.285e-10
 35.13975    146.2 1.035e+04 8.201e-10
 35.15348    145.8 1.043e+04 8.586e-10
 35.17446    145.3 1.056e+04 9.202e-10
 35.18807    144.8 1.071e+04 9.872e-10
 35.19857    145.4 1.085e+04 1.079e-09
 35.21644    144.9 1.107e+04 1.188e-09
 35.23266    144.2 1.119e+04 1.237e-09
 35.24212    144.0 1.126e+04 1.294e-09
 35.24689    144.4 1.158e+04 1.519e-09
 35.25841    143.5 1.159e+04 1.514e-09
 35.27940    142.6 1.156e+04 1.475e-09
 35.29521    141.6 1.144e+04 1.382e-09
 35.30571    141.7 1.184e+04 1.679e-09
 35.32138    140.6 1.167e+04 1.544e-09
 35.34236    139.6 1.145e+04 1.403e-09
 35.35403    138.6 1.124e+04 1.287e-09
 35.36453    138.7 1.147e+04 1.452e-09
 35.38434    138.0 1.120e+04 1.299e-09
 35.40236    137.5 1.096e+04 1.180e-09
 35.41285    137.5 1.097e+04 1.177e-09
 35.42631    137.1 1.066e+04 1.027e-09
 35.44730    136.8 1.041e+04 9.050e-10
 35.46117    136.6 1.019e+04 8.038e-10
 35.47167    136.3 9.822e+03 6.322e-10
 35.48113    136.1 9.628e+03 5.645e-10
 35.49162    135.5 9.635e+03 5.851e-10
 35.52086    135.4 9.302e+03 4.617e-10
 35.55802    135.1 8.992e+03 3.862e-10
 35.57901    133.9 8.736e+03 3.320e-10
 35.60490    134.2 8.728e+03 3.266e-10
 35.62723    134.7 8.693e+03 3.199e-10
 35.63763    134.5 8.716e+03 3.280e-10
 35.65718    134.9 8.756e+03 3.358e-10
 35.67546    135.3 8.841e+03 3.556e-10
 35.68595    134.8 9.177e+03 4.497e-10
 35.69915    135.1 9.399e+03 5.113e-10
 35.71911    135.4 9.699e+03 5.910e-10
 35.72960    135.1 9.871e+03 6.245e-10
 35.73428    134.8 1.049e+04 7.731e-10
 35.74477    132.2 1.218e+04 1.391e-09
 35.76212    131.0 1.334e+04 1.947e-09
 35.78260    130.2 1.429e+04 2.535e-09
 35.79305    129.2 1.469e+04 3.344e-09
 35.79875    128.7 1.529e+04 3.783e-09
 35.80924    127.8 1.633e+04 4.627e-09
 35.81716    126.7 1.767e+04 6.107e-09
 35.82241    124.4 1.953e+04 9.570e-09
 35.83023    123.1 2.062e+04 1.309e-08
 35.84072    122.1 2.130e+04 1.752e-08
 35.84657    121.5 2.160e+04 2.261e-08
 35.84909    120.4 2.167e+04 3.106e-08
 35.85374    119.7 2.173e+04 5.563e-08
 35.86171    120.2 2.136e+04 6.049e-08
 35.87073    121.0 2.112e+04 6.094e-08
 35.87598    120.6 2.104e+04 6.213e-08
 35.88270    121.3 2.082e+04 5.588e-08
 35.89319    121.9 2.066e+04 4.877e-08
 35.90014    122.1 2.053e+04 4.204e-08
 35.90539    121.8 1.993e+04 3.027e-08
 35.91418    122.1 1.967e+04 2.540e-08
 35.92997    122.2 1.879e+04 1.670e-08
 35.94856    122.5 1.814e+04 1.181e-08
 35.95905    120.5 1.675e+04 5.740e-09
 35.96758    120.2 1.617e+04 4.084e-09
 35.97808    117.8 1.554e+04 2.306e-09
 35.99298    117.1 1.439e+04 1.706e-09
 36.00738    116.9 1.334e+04 1.411e-09
 36.01787    115.6 1.244e+04 1.350e-09
 36.03496    116.5 1.242e+04 1.351e-09
 36.05570    117.3 1.246e+04 1.395e-09
 36.06620    116.5 1.280e+04 1.685e-09
 36.07693    117.1 1.304e+04 1.842e-09
 36.09792    117.9 1.325e+04 1.986e-09
 36.11452    118.6 1.329e+04 2.028e-09
 36.12501    117.9 1.365e+04 2.878e-09
 36.13989    119.1 1.359e+04 2.794e-09
 36.16088    120.2 1.341e+04 2.568e-09
 36.19246    121.8 1.298e+04 2.190e-09
 36.21625    123.4 1.240e+04 1.626e-09
 36.22456    122.3 1.224e+04 1.399e-09
 36.24284    121.3 1.216e+04 1.393e-09
 36.27651    122.4 1.160e+04 1.014e-09
 36.31848    123.6 1.122e+04 8.397e-10
 36.36046    124.6 1.107e+04 8.590e-10
 36.40243    126.4 1.108e+04 8.703e-10
 36.43614    128.1 1.117e+04 9.266e-10
 36.45713    127.9 1.081e+04 7.902e-10
 36.48638    129.6 1.093e+04 8.037e-10
 36.52836    131.1 1.098e+04 7.980e-10
 36.55378    132.4 1.103e+04 7.441e-10
 36.57476    131.5 1.049e+04 4.960e-10
 36.61231    132.7 1.032e+04 4.134e-10
 36.65043    134.1 1.004e+04 3.486e-10
 36.67141    133.7 9.645e+03 2.918e-10
 36.69221    135.6 9.641e+03 2.950e-10
 36.71320    135.5 9.528e+03 2.686e-10
 36.73824    137.5 9.562e+03 2.751e-10
 36.76806    139.4 9.719e+03 3.078e-10
 36.78905    139.5 9.684e+03 3.189e-10
 36.82219    141.4 9.889e+03 3.720e-10
 36.86416    143.3 1.010e+04 4.352e-10
 36.88570    145.1 1.023e+04 4.832e-10
 36.90668    145.1 9.948e+03 4.391e-10
 36.94811    147.0 1.003e+04 4.799e-10
 36.98235    148.8 1.007e+04 5.090e-10
 37.00333    149.1 9.900e+03 4.942e-10
 37.03206    151.1 1.005e+04 5.591e-10
 37.07404    153.1 1.007e+04 5.710e-10
 37.09998    155.1 1.003e+04 5.588e-10
 37.12097    155.6 9.957e+03 5.396e-10
 37.15799    157.7 9.768e+03 4.763e-10
 37.18916    160.1 9.490e+03 3.794e-10
 37.20681    160.2 9.837e+03 4.687e-10
 37.21762    160.7 9.544e+03 3.591e-10
 37.24194    163.0 9.245e+03 2.737e-10
 37.28391    165.2 8.997e+03 2.082e-10
 37.31427    167.3 8.842e+03 1.698e-10
 37.33525    166.9 8.626e+03 1.356e-10
 37.36787    169.1 8.604e+03 1.354e-10
 37.40984    171.4 8.590e+03 1.373e-10
 37.43190    173.7 8.605e+03 1.415e-10
 37.45289    173.6 8.612e+03 1.519e-10
 37.49379    175.8 8.662e+03 1.603e-10
 37.52855    177.9 8.703e+03 1.669e-10
 37.54954    177.9 8.705e+03 1.784e-10
 37.57774    179.9 8.710e+03 1.769e-10
 37.61972    181.8 8.696e+03 1.707e-10
 37.64619    183.7 8.645e+03 1.610e-10
 37.66717    183.6 8.544e+03 1.416e-10
 37.68610    185.3 8.476e+03 1.240e-10
 37.70709    185.4 8.603e+03 1.390e-10
 37.74283    187.2 8.511e+03 1.180e-10
 37.76382    186.7 8.402e+03 1.078e-10
 37.78762    188.6 8.309e+03 9.864e-11
 37.82959    190.5 8.247e+03 9.516e-11
 37.86047    192.6 8.241e+03 9.534e-11
 37.88146    192.4 8.288e+03 1.111e-10
 37.91354    194.4 8.350e+03 1.221e-10
 37.95552    196.4 8.454e+03 1.391e-10
 37.97811    198.2 8.596e+03 1.625e-10
 37.99909    197.7 8.978e+03 2.272e-10
 38.03947    199.5 9.172e+03 2.637e-10
 38.07475    201.1 9.352e+03 2.980e-10
 38.09574    200.4 9.540e+03 3.526e-10
 38.12342    202.0 9.530e+03 3.500e-10
 38.16206    203.6 9.467e+03 3.324e-10
 38.18305    203.6 9.775e+03 4.044e-10
 38.19239    205.3 9.637e+03 3.674e-10
 38.21338    204.6 9.476e+03 3.018e-10
 38.24935    206.3 9.267e+03 2.400e-10
 38.28904    207.9 9.128e+03 2.089e-10
 38.31002    207.0 9.027e+03 1.908e-10
 38.33330    208.8 9.027e+03 1.920e-10
 38.37527    210.7 9.050e+03 2.000e-10
 38.40667    212.4 9.138e+03 2.209e-10
 38.42766    211.8 9.383e+03 2.766e-10
 38.45922    213.3 9.606e+03 3.333e-10
 38.50120    214.5 9.810e+03 3.950e-10
 38.52431    215.5 9.946e+03 4.420e-10
 38.54530    214.7 1.113e+04 8.934e-10
 38.58515    215.4 1.111e+04 8.789e-10
 38.62096    216.0 1.096e+04 7.986e-10
 38.64185    214.4 1.193e+04 1.304e-09
 38.65841    214.7 1.161e+04 1.125e-09
 38.66931    215.0 1.127e+04 9.560e-10
 38.67980    215.4 1.176e+04 1.188e-09
 38.69007    215.6 1.135e+04 9.787e-10
 38.70057    215.3 1.165e+04 1.082e-09
 38.72137    215.5 1.121e+04 8.813e-10
 38.73840    215.8 1.081e+04 7.221e-10
 38.74889    215.2 1.078e+04 8.994e-10
 38.76335    215.3 1.054e+04 7.695e-10
 38.78433    215.7 1.039e+04 6.838e-10
 38.79722    216.0 1.032e+04 6.488e-10
 38.80771    216.0 1.039e+04 6.631e-10
 38.82631    216.7 1.039e+04 6.598e-10
 38.84554    217.3 1.038e+04 6.601e-10
 38.85613    216.4 1.044e+04 6.600e-10
 38.87897    217.8 1.049e+04 6.725e-10
 38.92095    219.3 1.062e+04 7.081e-10
 38.95288    220.5 1.082e+04 7.664e-10
 38.97386    219.6 1.056e+04 6.160e-10
 39.00490    220.5 1.083e+04 7.269e-10
 39.04688    221.2 1.117e+04 9.000e-10
 39.07051    221.7 1.157e+04 1.137e-09
 39.09150    220.5 1.153e+04 1.116e-09
 39.13083    220.5 1.185e+04 1.190e-09
 39.15596    220.1 1.187e+04 1.182e-09
 39.17130    219.7 1.232e+04 1.490e-09
 39.18815    218.2 1.190e+04 1.187e-09
 39.21478    217.7 1.181e+04 1.079e-09
 39.25675    217.4 1.164e+04 9.370e-10
 39.28480    217.3 1.145e+04 8.015e-10
 39.30578    216.3 1.112e+04 6.698e-10
 39.34070    216.5 1.099e+04 5.990e-10
 39.38145    216.8 1.084e+04 5.329e-10
 39.40243    216.4 1.073e+04 5.149e-10
 39.42465    216.8 1.062e+04 4.579e-10
 39.46663    217.2 1.043e+04 3.800e-10
 39.49908    217.7 1.016e+04 2.956e-10
 39.52007    217.3 1.023e+04 3.492e-10
 39.55058    218.0 1.002e+04 3.195e-10
 39.59255    218.9 1.001e+04 3.212e-10
 39.61672    220.0 1.004e+04 3.414e-10
 39.63509    219.5 1.051e+04 5.215e-10
 39.65290    219.9 1.071e+04 6.268e-10
 39.67650    220.9 1.103e+04 7.614e-10
 39.71337    221.7 1.129e+04 8.652e-10
 39.73435    220.7 1.165e+04 1.006e-09
 39.76045    221.1 1.163e+04 9.877e-10
 39.80243    221.8 1.146e+04 8.943e-10
 39.83100    223.0 1.114e+04 7.301e-10
 39.85199    222.0 1.057e+04 4.456e-10
 39.88638    223.5 1.014e+04 3.196e-10
 39.92765    225.2 9.798e+03 2.399e-10
 39.94864    224.1 9.350e+03 1.299e-10
 39.97033    226.0 9.191e+03 1.197e-10
 40.01231    228.1 9.179e+03 1.193e-10
 40.04529    230.3 9.176e+03 1.194e-10
 40.06627    230.1 8.934e+03 9.522e-11
 40.09626    232.5 8.936e+03 9.978e-11
 40.12886    234.8 8.979e+03 1.079e-10
 40.14985    235.2 8.963e+03 1.093e-10
 40.16292    237.5 9.028e+03 1.221e-10
 40.18391    237.6 8.941e+03 1.139e-10
 40.22218    239.8 9.000e+03 1.272e-10
 40.25957    241.9 9.061e+03 1.429e-10
 40.28056    242.1 8.989e+03 1.326e-10
 40.30613    244.1 9.048e+03 1.480e-10
 40.34811    246.0 9.092e+03 1.626e-10
 40.37720    247.7 9.098e+03 1.734e-10
 40.39819    247.9 9.069e+03 1.686e-10
 40.43206    249.5 9.053e+03 1.705e-10
 40.47385    251.0 9.038e+03 1.699e-10
 40.51583    252.7 9.025e+03 1.661e-10
 40.55798    254.0 8.932e+03 1.538e-10
 40.59149    255.3 8.836e+03 1.363e-10
 40.61248    255.6 8.891e+03 1.369e-10
 40.62581    256.7 8.741e+03 1.119e-10
 40.64680    257.5 8.764e+03 1.163e-10
 40.68391    258.4 8.634e+03 9.219e-11
 40.70912    259.3 8.496e+03 7.216e-11
 40.73011    259.8 8.492e+03 7.058e-11
 40.76786    260.6 8.376e+03 5.940e-11
 40.80577    261.5 8.360e+03 5.851e-11
 40.82676    261.7 8.596e+03 7.818e-11
 40.85181    262.6 8.595e+03 8.208e-11
 40.89379    263.5 8.613e+03 9.733e-11
 40.92341    264.5 8.710e+03 1.262e-10
 40.94440    264.4 9.169e+03 2.183e-10
 40.97774    265.5 9.328e+03 2.566e-10
 41.01971    266.5 9.484e+03 2.655e-10
 41.04104    267.4 9.503e+03 2.610e-10
 41.06203    266.6 9.730e+03 2.860e-10
 41.10177    267.1 9.617e+03 2.379e-10
 41.12275    268.8 9.438e+03 2.059e-10
 41.13769    269.3 9.331e+03 1.763e-10
 41.15868    268.0 9.303e+03 1.818e-10
 41.18761    268.7 9.289e+03 1.841e-10
 41.22959    269.6 9.278e+03 2.002e-10
 41.25533    270.8 9.429e+03 2.451e-10
 41.27632    269.8 9.712e+03 3.150e-10
 41.31354    271.1 1.006e+04 3.835e-10
 41.35198    272.2 1.035e+04 4.382e-10
 41.37296    270.7 1.042e+04 4.055e-10
 41.39749    271.5 1.047e+04 3.872e-10
 41.43947    272.2 1.047e+04 3.457e-10
 41.46961    273.0 1.042e+04 2.957e-10
 41.49060    271.4 1.008e+04 2.082e-10
 41.52342    272.5 9.966e+03 1.853e-10
 41.56539    273.8 9.881e+03 1.732e-10
 41.58725    275.4 9.821e+03 1.668e-10
 41.59958    274.9 9.687e+03 1.405e-10
 41.61970    276.3 9.682e+03 1.479e-10
 41.64934    278.2 9.690e+03 1.502e-10
 41.68390    280.1 9.744e+03 1.500e-10
 41.70488    280.0 9.727e+03 1.347e-10
 41.73329    282.0 9.772e+03 1.343e-10
 41.77527    283.9 9.817e+03 1.332e-10
 41.80153    285.8 9.855e+03 1.332e-10
 41.82252    285.7 9.849e+03 1.244e-10
 41.85922    287.6 9.891e+03 1.302e-10
 41.89818    289.4 9.962e+03 1.408e-10
 41.91917    289.3 9.996e+03 1.494e-10
 41.94317    291.1 1.024e+04 1.863e-10
 41.98514    292.9 1.060e+04 2.447e-10
 42.01582    294.4 1.101e+04 3.239e-10
 42.03680    293.8 1.115e+04 3.737e-10
 42.05850    294.5 1.124e+04 4.124e-10
 42.07444    295.4 1.134e+04 4.829e-10
 42.08493    295.3 1.137e+04 5.457e-10
 42.09546    296.3 1.152e+04 7.023e-10
 42.10596    297.1 1.161e+04 6.713e-10
 42.12137    297.8 1.181e+04 8.357e-10
 42.13326    298.5 1.188e+04 9.623e-10
 42.14375    298.3 1.202e+04 1.047e-09
 42.16334    298.7 1.207e+04 1.058e-09
 42.18158    299.0 1.207e+04 1.051e-09
 42.19208    298.8 1.217e+04 1.099e-09
 42.20532    299.0 1.218e+04 1.101e-09
 42.22631    299.2 1.220e+04 1.108e-09
 42.24040    299.3 1.225e+04 1.136e-09
 42.25089    299.0 1.240e+04 1.220e-09
 42.26828    298.9 1.251e+04 1.306e-09
 42.28872    298.8 1.266e+04 1.422e-09
 42.29922    298.7 1.288e+04 1.504e-09
 42.31026    298.4 1.311e+04 1.649e-09
 42.33124    298.1 1.333e+04 1.808e-09
 42.34394    297.7 1.351e+04 1.948e-09
 42.34974    298.9 1.368e+04 1.964e-09
 42.35804    298.5 1.367e+04 1.924e-09
 42.37322    297.9 1.376e+04 2.035e-09
 42.39421    297.3 1.374e+04 2.067e-09
 42.40636    296.6 1.373e+04 2.066e-09
 42.41685    296.2 1.353e+04 1.999e-09
 42.43618    295.6 1.346e+04 1.974e-09
 42.45468    295.0 1.335e+04 1.913e-09
 42.46518    295.0 1.319e+04 1.858e-09
 42.47816    294.5 1.308e+04 1.783e-09
 42.49914    294.1 1.291e+04 1.681e-09
 42.51350    293.9 1.270e+04 1.555e-09
 42.52400    294.1 1.256e+04 1.456e-09
 42.54112    294.1 1.235e+04 1.339e-09
 42.56183    294.1 1.215e+04 1.234e-09
 42.57232    294.6 1.202e+04 1.201e-09
 42.58192    294.7 1.192e+04 1.141e-09
 42.59241    295.4 1.182e+04 1.101e-09
 42.60408    295.6 1.183e+04 1.101e-09
 42.62064    295.5 1.188e+04 1.122e-09
 42.63114    295.9 1.192e+04 1.153e-09
 42.64606    295.1 1.233e+04 1.354e-09
 42.66705    293.7 1.329e+04 1.837e-09
 42.67946    291.7 1.456e+04 2.685e-09
 42.68996    290.6 1.614e+04 4.199e-09
 42.70902    288.2 1.776e+04 6.871e-09
 42.72779    285.5 1.899e+04 1.000e-08
 42.73823    284.4 2.053e+04 1.813e-08
 42.74565    283.1 2.091e+04 1.919e-08
 42.75615    281.4 2.093e+04 1.913e-08
 42.76234    280.0 2.089e+04 1.876e-08
 42.76759    279.5 2.157e+04 2.519e-08
 42.77713    278.4 2.134e+04 2.245e-08
 42.78655    276.6 2.031e+04 1.369e-08
 42.79710    275.7 2.078e+04 1.594e-08
 42.81396    272.8 1.858e+04 7.083e-09
 42.83039    268.8 1.526e+04 3.288e-09
 42.84086    270.2 1.651e+04 3.875e-09
 42.85592    264.4 1.399e+04 2.831e-09
 42.87692    264.0 1.392e+04 2.829e-09
 42.89375    264.0 1.394e+04 2.850e-09
 42.90424    263.3 1.432e+04 3.234e-09
 42.91890    263.4 1.467e+04 3.528e-09
 42.93989    263.3 1.504e+04 3.723e-09
 42.95256    263.0 1.523e+04 3.730e-09
 42.96306    261.6 1.550e+04 4.108e-09
 42.98186    260.7 1.548e+04 4.037e-09
 43.00089    259.8 1.529e+04 3.693e-09
 43.01138    258.3 1.519e+04 3.694e-09
 43.02384    258.0 1.458e+04 3.075e-09
 43.04482    257.8 1.378e+04 2.420e-09
 43.05971    257.7 1.296e+04 1.869e-09
 43.07020    256.5 1.259e+04 1.581e-09
 43.07886    256.4 1.207e+04 1.296e-09
 43.08936    257.5 1.235e+04 1.464e-09
 43.10779    257.5 1.216e+04 1.304e-09
 43.11852    257.8 1.215e+04 1.295e-09
 43.12902    256.8 1.178e+04 1.101e-09
 43.14976    257.6 1.179e+04 1.104e-09
 43.16685    258.6 1.182e+04 1.126e-09
 43.17734    257.8 1.142e+04 9.824e-10
 43.19174    258.9 1.156e+04 1.050e-09
 43.21272    260.0 1.180e+04 1.167e-09
 43.22567    261.2 1.212e+04 1.333e-09
 43.23616    260.7 1.189e+04 1.220e-09
 43.25470    261.9 1.224e+04 1.393e-09
 43.27399    262.9 1.261e+04 1.590e-09
 43.28448    262.4 1.244e+04 1.470e-09
 43.29667    263.2 1.279e+04 1.662e-09
 43.31684    263.9 1.313e+04 1.871e-09
 43.32734    264.0 1.307e+04 1.841e-09
 43.33281    264.6 1.333e+04 2.019e-09
 43.34330    263.8 1.327e+04 1.915e-09
 43.35964    264.2 1.373e+04 2.158e-09
 43.38063    264.5 1.427e+04 2.427e-09
 43.39163    264.8 1.481e+04 2.685e-09
 43.40212    263.7 1.547e+04 2.837e-09
 43.42260    263.8 1.555e+04 2.767e-09
 43.43995    263.5 1.533e+04 2.531e-09
 43.45044    261.7 1.543e+04 2.284e-09
 43.46458    260.7 1.549e+04 2.185e-09
 43.48556    258.8 1.630e+04 2.470e-09
 43.49877    256.8 1.782e+04 3.406e-09
 43.50926    253.9 1.901e+04 3.729e-09
 43.52754    250.4 1.949e+04 4.275e-09
 43.54323    246.4 1.951e+04 4.622e-09
 43.55224    244.0 1.938e+04 5.009e-09
 43.55754    242.5 2.096e+04 5.971e-09
 43.56532    236.7 2.074e+04 6.794e-09
 43.57581    235.3 1.911e+04 6.920e-09
 43.59050    231.1 1.966e+04 7.876e-09
 43.60591    226.4 2.025e+04 9.474e-09
 43.61640    222.5 2.022e+04 1.104e-08
 43.63248    219.2 2.078e+04 1.292e-08
 43.65346    215.0 2.181e+04 1.588e-08
 43.66468    211.0 2.326e+04 1.732e-08
 43.66988    209.5 2.413e+04 1.782e-08
 43.67960    206.8 2.481e+04 1.773e-08
 43.68879    202.8 2.578e+04 1.685e-08
 43.69340    201.1 2.560e+04 1.481e-08
 43.69470    201.2 2.443e+04 1.163e-08
 43.70059    196.9 2.473e+04 1.048e-08
 43.71300    191.9 2.603e+04 1.180e-08
 43.72355    187.9 2.401e+04 9.886e-09
 43.73741    181.3 2.245e+04 9.269e-09
 43.75840    177.0 2.072e+04 8.323e-09
 43.77187    175.3 1.953e+04 6.699e-09
 43.78236    176.5 1.934e+04 6.999e-09
 43.80038    177.0 1.902e+04 5.099e-09
 43.81379    177.9 1.839e+04 3.389e-09
 43.82311    181.8 1.848e+04 4.448e-09
 43.83069    182.8 1.849e+04 4.528e-09
 43.84235    183.7 1.785e+04 3.046e-09
 43.86334    184.3 1.681e+04 1.985e-09
 43.87901    184.9 1.569e+04 1.391e-09
 43.88951    185.7 1.564e+04 1.401e-09
 43.90532    186.4 1.490e+04 1.120e-09
 43.92630    187.4 1.442e+04 9.553e-10
 43.93783    188.6 1.458e+04 9.578e-10
 43.94832    189.7 1.423e+04 9.047e-10
 43.96828    191.0 1.466e+04 9.920e-10
 43.98615    192.5 1.548e+04 1.246e-09
 43.99665    193.6 1.519e+04 1.090e-09
 44.01025    195.0 1.607e+04 1.440e-09
 44.03124    196.5 1.682e+04 1.956e-09
 44.04497    198.2 1.737e+04 2.554e-09
 44.05500    199.0 1.732e+04 2.409e-09
 44.06226    201.8 1.629e+04 1.484e-09
 44.07322    203.3 1.702e+04 2.060e-09
 44.09330    205.1 1.754e+04 2.691e-09
 44.10379    205.9 1.759e+04 2.692e-09
 44.11519    207.7 1.795e+04 3.365e-09
 44.13618    209.6 1.832e+04 3.867e-09
 44.15211    211.5 1.859e+04 4.087e-09
 44.16261    212.5 1.930e+04 5.156e-09
 44.17816    214.5 2.002e+04 5.508e-09
 44.19914    216.2 2.008e+04 5.073e-09
 44.21093    217.6 1.997e+04 4.044e-09
 44.22142    219.4 2.149e+04 6.403e-09
 44.24112    220.6 2.107e+04 4.810e-09
 44.25926    221.4 1.995e+04 3.154e-09
 44.26975    223.0 2.223e+04 5.511e-09
 44.28309    223.3 2.179e+04 3.665e-09
 44.30024    222.9 2.126e+04 2.382e-09
 44.31074    229.2 2.362e+04 4.549e-09
 44.31807    229.3 2.313e+04 2.606e-09
 44.32857    227.1 3.011e+04 5.846e-09
 44.34606    227.1 2.983e+04 4.451e-09
 44.36640    226.0 2.808e+04 3.425e-09
 44.37684    220.9 2.841e+04 6.402e-09
 44.38798    221.8 2.965e+04 7.339e-09
 44.40902    220.7 2.918e+04 7.250e-09
 44.42522    218.5 2.858e+04 7.345e-09
 44.43571    214.0 2.926e+04 1.001e-08
 44.45099    212.1 2.907e+04 1.073e-08
 44.47198    210.1 2.889e+04 1.132e-08
 44.48403    208.5 2.884e+04 1.137e-08
 44.49453    203.8 2.765e+04 1.013e-08
 44.51396    203.3 2.680e+04 9.981e-09
 44.53236    203.2 2.611e+04 9.478e-09
 44.54280    200.2 2.415e+04 5.056e-09
 44.54862    200.7 2.396e+04 5.000e-09
 44.55386    200.5 2.393e+04 4.462e-09
 44.56108    201.1 2.379e+04 4.407e-09
 44.56692    201.8 2.374e+04 4.345e-09
 44.57216    200.3 2.252e+04 2.841e-09
 44.58207    201.0 2.252e+04 2.822e-09
 44.59108    202.0 2.255e+04 2.777e-09
 44.60162    200.9 2.071e+04 1.889e-09
 44.61890    202.4 2.065e+04 1.867e-09
 44.63950    203.7 2.072e+04 1.841e-09
 44.64999    200.8 1.751e+04 1.023e-09
 44.66087    201.8 1.788e+04 1.063e-09
 44.68186    202.3 1.831e+04 1.118e-09
 44.69832    202.4 1.891e+04 1.193e-09
 44.70881    200.1 1.636e+04 8.565e-10
 44.72383    199.4 1.714e+04 9.475e-10
 44.74482    198.0 1.823e+04 1.024e-09
 44.75709    197.7 1.835e+04 1.035e-09
 44.76228    196.0 1.790e+04 1.005e-09
 44.77096    194.9 1.831e+04 1.035e-09
 44.78120    189.8 2.973e+04 8.873e-10
 44.78645    190.7 2.271e+04 9.775e-10
 44.79184    169.4 8.357e+04 6.453e-10
 44.79709    184.5 4.916e+04 7.137e-10
 44.80244    145.3 1.107e+05 1.189e-09
 44.81029    114.9 8.199e+04 1.186e-08
 44.81318    104.2 5.499e+04 6.548e-08
 44.81583    123.2 8.697e+04 7.109e-09
 44.82343    103.8 4.722e+04 1.375e-07
 44.83392     80.5 3.888e+04 4.218e-07
 44.84002     64.1 5.385e+04 1.062e-07
 44.84526     71.1 5.014e+04 1.928e-07
 44.85491     53.3 9.054e+04 1.597e-08
 44.86418     37.5 1.528e+05 1.081e-09
 44.86943     44.7 1.064e+05 5.276e-09
 44.87590     -3.3 8.965e+04 1.465e-09
 44.88639    -18.4 4.464e+04 2.624e-09
 44.89359    -30.4 2.449e+04 3.607e-09
 44.89884    -28.8 2.616e+04 3.619e-09
 44.91255    -43.0 2.469e+04 3.886e-09
 44.92310    -38.7 2.599e+04 4.214e-09
 44.93371    -50.6 2.481e+04 4.697e-09
 44.95470    -63.3 2.445e+04 5.215e-09
 44.97142    -74.4 2.480e+04 5.671e-09
 44.98191    -73.1 2.486e+04 6.336e-09
 44.99667    -82.6 2.630e+04 5.335e-09
 45.01236    -92.5 2.706e+04 4.167e-09
 45.02281    -97.9 3.168e+04 3.960e-09
 45.03014   -114.5 4.121e+04 3.271e-09
 45.03539   -113.4 3.911e+04 3.192e-09
 45.04032   -127.3 4.835e+04 3.255e-09
 45.04556   -138.8 4.812e+04 4.105e-09
 45.05429   -151.4 4.345e+04 6.101e-09
 45.06478   -160.2 3.432e+04 1.362e-08
 45.07528   -165.0 2.890e+04 2.916e-08
 45.08371   -167.1 2.678e+04 5.267e-08
 45.08896   -166.5 2.595e+04 5.045e-08
 45.09627   -167.4 2.605e+04 7.437e-08
 45.10676   -168.5 2.771e+04 8.540e-08
 45.11312   -171.2 2.912e+04 8.440e-08
 45.11837   -172.6 3.045e+04 5.535e-08
 45.12775   -178.9 3.476e+04 3.269e-08
 45.13728   -187.3 3.658e+04 1.530e-08
 45.14253   -188.6 3.601e+04 1.030e-08
 45.14874   -195.7 3.308e+04 7.456e-09
 45.16452   -204.4 2.722e+04 5.864e-09
 45.18556   -210.4 2.263e+04 5.567e-09
 45.19620   -212.5 2.148e+04 5.508e-09
 45.20669   -212.9 1.988e+04 3.568e-09
 45.22754   -213.7 1.971e+04 3.515e-09
 45.24452   -214.1 1.961e+04 3.264e-09
 45.25501   -215.2 1.843e+04 1.950e-09
 45.26951   -215.8 1.813e+04 1.733e-09
 45.28364   -216.3 1.772e+04 1.544e-09
 45.29414   -219.8 1.706e+04 1.306e-09
 45.30334   -220.2 1.672e+04 1.265e-09
 45.31383   -221.8 1.580e+04 9.406e-10
 45.33247   -221.7 1.577e+04 9.517e-10
 45.35166   -221.5 1.585e+04 1.044e-09
 45.36216   -222.6 1.518e+04 8.243e-10
 45.37445   -222.2 1.543e+04 9.448e-10
 45.39544   -221.6 1.570e+04 1.122e-09
 45.41048   -220.8 1.596e+04 1.364e-09
 45.42097   -221.4 1.565e+04 1.111e-09
 45.43741   -220.5 1.601e+04 1.390e-09
 45.45840   -219.4 1.634e+04 1.721e-09
 45.46930   -218.2 1.658e+04 2.061e-09
 45.47979   -219.0 1.648e+04 1.774e-09
 45.50038   -217.7 1.671e+04 2.117e-09
 45.51762   -216.4 1.680e+04 2.381e-09
 45.52812   -217.2 1.665e+04 2.044e-09
 45.53212   -215.9 1.667e+04 2.211e-09
 45.54261   -217.6 1.696e+04 2.481e-09
 45.56334   -216.2 1.683e+04 2.498e-09
 45.57644   -214.6 1.639e+04 2.346e-09
 45.58693   -215.3 1.617e+04 2.089e-09
 45.60531   -213.4 1.567e+04 1.860e-09
 45.62477   -211.4 1.517e+04 1.589e-09
 45.63526   -211.8 1.475e+04 1.335e-09
 45.64729   -209.7 1.428e+04 1.116e-09
 45.66828   -207.8 1.384e+04 9.401e-10
 45.68358   -205.8 1.343e+04 7.989e-10
 45.69408   -206.1 1.299e+04 6.445e-10
 45.71025   -204.0 1.257e+04 5.393e-10
 45.73124   -202.0 1.219e+04 4.550e-10
 45.74240   -199.8 1.184e+04 3.878e-10
 45.75289   -199.8 1.147e+04 3.124e-10
 45.77009   -197.3 1.124e+04 2.761e-10
 45.78059   -198.5 1.124e+04 2.833e-10
 45.79073   -195.7 1.117e+04 2.685e-10
 45.80122   -195.5 1.116e+04 2.621e-10
 45.81519   -193.2 1.119e+04 2.642e-10
 45.83915   -190.9 1.125e+04 2.639e-10
 45.86023   -191.4 1.138e+04 2.733e-10
 45.88884   -187.4 1.120e+04 2.704e-10
 45.92023   -184.6 1.112e+04 2.874e-10
 45.94112   -182.9 1.108e+04 2.926e-10
 45.95669   -181.8 1.109e+04 3.412e-10
 45.96718   -182.1 1.127e+04 4.139e-10
 45.98309   -181.5 1.180e+04 5.696e-10
 46.00408   -181.2 1.312e+04 9.378e-10
 46.01550   -180.6 1.474e+04 1.744e-09
 46.01950   -179.7 1.450e+04 1.666e-09
 46.02906   -180.4 1.540e+04 2.348e-09
 46.04605   -179.2 1.659e+04 3.752e-09
 46.06383   -178.0 1.767e+04 5.673e-09
 46.07432   -177.6 1.739e+04 4.720e-09
 46.08803   -177.2 1.856e+04 6.821e-09
 46.10902   -177.1 1.956e+04 9.157e-09
 46.12264   -177.4 2.028e+04 1.104e-08
 46.13314   -178.6 2.106e+04 1.239e-08
 46.15099   -180.0 2.140e+04 1.468e-08
 46.17097   -181.4 2.140e+04 1.530e-08
 46.18141   -182.4 2.191e+04 2.163e-08
 46.18762   -183.0 2.160e+04 2.169e-08
 46.19812   -183.1 2.112e+04 1.896e-08
 46.20553   -183.2 2.063e+04 1.624e-08
 46.21077   -183.3 2.085e+04 1.982e-08
 46.21910   -183.3 2.019e+04 1.469e-08
 46.22974   -183.4 1.944e+04 1.109e-08
 46.24023   -183.2 1.909e+04 1.020e-08
 46.25588   -183.2 1.851e+04 8.332e-09
 46.26704   -182.8 1.757e+04 5.987e-09
 46.27753   -183.0 1.718e+04 4.845e-09
 46.28860   -183.0 1.586e+04 3.008e-09
 46.29910   -182.5 1.626e+04 3.638e-09
 46.31889   -182.6 1.519e+04 2.486e-09
 46.33693   -182.7 1.439e+04 1.917e-09
 46.34742   -181.7 1.466e+04 2.129e-09
 46.36087   -181.6 1.418e+04 1.807e-09
 46.38186   -181.5 1.384e+04 1.645e-09
 46.39575   -181.5 1.364e+04 1.579e-09
 46.40624   -180.9 1.371e+04 1.610e-09
 46.42383   -181.2 1.345e+04 1.542e-09
 46.44407   -181.3 1.317e+04 1.494e-09
 46.45456   -180.4 1.318e+04 1.506e-09
 46.46581   -180.8 1.305e+04 1.507e-09
 46.48679   -183.1 1.336e+04 1.520e-09
 46.50289   -189.1 1.846e+04 2.058e-09
 46.51062   -190.3 1.969e+04 2.814e-09
 46.51551   -184.4 1.539e+04 1.463e-09
 46.52877   -190.9 2.109e+04 3.425e-09
 46.54976   -196.5 2.325e+04 1.196e-08
 46.56166   -200.9 2.346e+04 2.833e-08
 46.56686   -201.2 2.322e+04 2.597e-08
 46.57589   -202.7 2.329e+04 3.153e-08
 46.58577   -204.0 2.316e+04 3.402e-08
 46.59102   -204.4 2.283e+04 2.758e-08
 46.59688   -205.2 2.225e+04 2.689e-08
 46.60738   -205.7 2.141e+04 2.192e-08
 46.61518   -206.1 2.052e+04 1.531e-08
 46.62043   -206.5 1.997e+04 1.217e-08
 46.62836   -207.3 1.886e+04 7.913e-09
 46.63441   -208.5 1.754e+04 5.107e-09
 46.63965   -206.6 1.886e+04 7.745e-09
 46.64459   -208.0 1.746e+04 5.038e-09
 46.64984   -208.5 1.677e+04 4.225e-09
 46.65984   -209.5 1.575e+04 3.337e-09
 46.66880   -210.4 1.513e+04 2.873e-09
 46.67934   -211.3 1.510e+04 2.395e-09
 46.69667   -213.0 1.410e+04 1.915e-09
 46.71717   -213.6 1.352e+04 1.776e-09
 46.72767   -216.0 1.406e+04 1.639e-09
 46.73865   -215.4 1.386e+04 1.737e-09
 46.75349   -214.4 1.413e+04 2.190e-09
 46.76399   -213.3 1.405e+04 2.103e-09
 46.77599   -212.2 1.460e+04 2.578e-09
 46.78648   -214.9 1.540e+04 2.444e-09
 46.80161   -213.2 1.561e+04 2.962e-09
 46.82260   -211.6 1.601e+04 3.397e-09
 46.83481   -210.0 1.621e+04 3.909e-09
 46.84530   -212.3 1.607e+04 3.176e-09
 46.86457   -210.4 1.599e+04 3.225e-09
 46.88313   -208.6 1.602e+04 3.294e-09
 46.89363   -210.4 1.510e+04 2.419e-09
 46.90655   -208.4 1.497e+04 2.274e-09
 46.92753   -206.7 1.496e+04 2.220e-09
 46.94195   -205.4 1.538e+04 2.288e-09
 46.95244   -205.9 1.370e+04 1.560e-09
 46.96951   -204.5 1.376e+04 1.544e-09
 46.99028   -203.2 1.470e+04 1.731e-09
 47.00077   -202.8 1.289e+04 1.246e-09
 47.00197   -201.7 1.372e+04 1.351e-09
 47.01246   -200.8 1.444e+04 1.654e-09
 47.03247   -200.4 1.615e+04 2.284e-09
 47.04909   -200.1 1.761e+04 3.388e-09
 47.05959   -198.2 1.503e+04 1.967e-09
 47.07445   -197.1 1.574e+04 2.944e-09
 47.09544   -196.3 1.671e+04 4.332e-09
 47.10791   -198.3 2.063e+04 5.822e-09
 47.11840   -202.0 2.692e+04 3.742e-09
 47.13202   -209.1 2.997e+04 7.160e-09
 47.13722   -217.0 3.801e+04 6.608e-09
 47.14256   -221.7 4.349e+04 9.509e-09
 47.15305   -228.5 4.961e+04 1.407e-08
 47.16138   -240.4 5.057e+04 2.186e-08
 47.16663   -249.6 3.642e+04 1.700e-07
 47.17404   -261.3 3.418e+04 2.412e-07
 47.18454   -274.0 3.193e+04 2.493e-07
 47.19079   -287.9 3.107e+04 1.295e-07
 47.19604   -289.8 3.237e+04 1.676e-07
 47.20552   -308.6 3.419e+04 2.810e-08
 47.21496   -318.1 2.809e+04 1.222e-08
 47.22020   -320.6 2.890e+04 1.449e-08
 47.22651   -325.9 2.173e+04 9.016e-09
 47.23700   -326.3 2.021e+04 7.723e-09
 47.24436   -324.9 1.983e+04 7.017e-09
 47.24721   -327.1 1.996e+04 7.677e-09
 47.25034   -328.8 2.012e+04 7.864e-09
 47.25799   -327.3 1.980e+04 7.059e-09
 47.26849   -325.9 1.950e+04 6.328e-09
 47.27898   -326.8 1.918e+04 5.785e-09
 47.28947   -325.5 1.900e+04 5.257e-09
 47.29794   -324.6 1.887e+04 4.800e-09
 47.30318   -326.0 1.893e+04 4.847e-09
 47.31046   -325.0 1.883e+04 4.497e-09
 47.32215   -324.6 1.852e+04 4.159e-09
 47.33264   -326.0 1.803e+04 3.908e-09
 47.34724   -325.7 1.743e+04 3.603e-09
 47.36827   -322.4 1.595e+04 3.056e-09
 47.38101   -318.9 1.474e+04 2.574e-09
 47.39151   -322.6 1.587e+04 2.749e-09
 47.41025   -319.3 1.546e+04 2.375e-09
 47.42934   -316.2 1.456e+04 2.071e-09
 47.43983   -319.5 1.714e+04 2.495e-09
 47.45223   -316.3 1.655e+04 2.099e-09
 47.47321   -313.3 1.566e+04 1.862e-09
 47.48815   -310.4 1.437e+04 1.768e-09
 47.49287   -312.8 1.732e+04 2.320e-09
 47.49891   -313.7 1.741e+04 2.771e-09
 47.51519   -310.7 1.625e+04 2.354e-09
 47.53618   -308.2 1.519e+04 2.102e-09
 47.54697   -305.8 1.445e+04 1.971e-09
 47.55747   -307.4 1.576e+04 2.661e-09
 47.57815   -305.1 1.523e+04 2.473e-09
 47.59530   -302.9 1.488e+04 2.394e-09
 47.60579   -304.4 1.571e+04 3.201e-09
 47.62013   -302.3 1.554e+04 3.135e-09
 47.64111   -300.3 1.548e+04 3.118e-09
 47.65411   -298.3 1.539e+04 3.170e-09
 47.66461   -299.6 1.610e+04 3.882e-09
 47.68309   -297.6 1.616e+04 3.999e-09
 47.70244   -295.8 1.617e+04 4.146e-09
 47.71293   -297.0 1.648e+04 4.556e-09
 47.72506   -295.3 1.650e+04 4.714e-09
 47.73689   -293.5 1.647e+04 4.844e-09
 47.74739   -294.4 1.708e+04 5.858e-09
 47.76126   -292.6 1.703e+04 6.123e-09
 47.77175   -293.5 1.673e+04 5.657e-09
 47.78803   -291.8 1.675e+04 5.815e-09
 47.80901   -290.1 1.675e+04 5.967e-09
 47.82007   -288.4 1.670e+04 6.116e-09
 47.83057   -289.1 1.601e+04 4.773e-09
 47.85099   -287.4 1.601e+04 4.862e-09
 47.86840   -285.8 1.603e+04 4.964e-09
 47.87889   -286.3 1.543e+04 4.061e-09
 47.89297   -284.7 1.552e+04 4.183e-09
 47.91395   -283.1 1.564e+04 4.349e-09
 47.92722   -281.6 1.577e+04 4.549e-09
 47.93771   -282.2 1.548e+04 4.091e-09
 47.95593   -280.9 1.569e+04 4.360e-09
 47.97487   -279.7 1.588e+04 4.644e-09
 47.98399   -280.7 1.564e+04 4.199e-09
 47.98603   -281.2 1.539e+04 4.015e-09
 47.99790   -280.2 1.566e+04 4.349e-09
 48.01889   -279.2 1.584e+04 4.580e-09
 48.03436   -278.3 1.590e+04 4.681e-09
 48.04485   -279.0 1.561e+04 4.388e-09
 48.06087   -278.1 1.547e+04 4.218e-09
 48.08185   -277.1 1.516e+04 3.779e-09
 48.09318   -276.1 1.479e+04 3.287e-09
 48.10367   -276.6 1.436e+04 2.942e-09
 48.12383   -275.7 1.393e+04 2.506e-09
 48.14150   -274.8 1.357e+04 2.178e-09
 48.15199   -275.1 1.341e+04 2.102e-09
 48.16580   -274.2 1.311e+04 1.867e-09
 48.18679   -273.3 1.289e+04 1.714e-09
 48.20032   -272.3 1.278e+04 1.640e-09
 48.21081   -272.3 1.272e+04 1.619e-09
 48.22335   -271.2 1.265e+04 1.581e-09
 48.23384   -271.7 1.204e+04 1.251e-09
 48.24864   -270.6 1.195e+04 1.181e-09
 48.25914   -270.4 1.194e+04 1.294e-09
 48.27074   -269.4 1.173e+04 1.185e-09
 48.29173   -268.3 1.156e+04 1.062e-09
 48.30746   -267.2 1.141e+04 9.342e-10
 48.31795   -267.0 1.142e+04 1.032e-09
 48.33371   -265.8 1.116e+04 8.956e-10
 48.35469   -264.6 1.092e+04 7.700e-10
 48.36628   -263.4 1.070e+04 6.611e-10
 48.37677   -262.9 1.083e+04 7.481e-10
 48.39667   -261.6 1.065e+04 6.480e-10
 48.41460   -260.2 1.053e+04 5.701e-10
 48.42510   -259.7 1.084e+04 6.805e-10
 48.43864   -258.5 1.079e+04 6.197e-10
 48.45963   -257.2 1.079e+04 5.833e-10
 48.47182   -255.9 1.081e+04 5.740e-10
 48.47521   -255.6 1.058e+04 4.879e-10
 48.49460   -254.7 1.140e+04 7.425e-10
 48.53328   -252.2 1.159e+04 7.582e-10
 48.57026   -249.4 1.176e+04 8.233e-10
 48.59125   -249.6 1.228e+04 1.075e-09
 48.60664   -247.5 1.211e+04 1.071e-09
 48.62753   -246.7 1.234e+04 1.264e-09
 48.63938   -246.6 1.311e+04 1.678e-09
 48.64987   -249.5 1.658e+04 3.515e-09
 48.66951   -251.6 1.934e+04 7.694e-09
 48.68520   -253.8 2.133e+04 1.803e-08
 48.69285   -254.5 2.190e+04 2.418e-08
 48.69810   -255.6 2.287e+04 3.767e-08
 48.70614   -256.9 2.322e+04 4.553e-08
 48.71495   -258.5 2.327e+04 4.866e-08
 48.72019   -258.6 2.352e+04 5.779e-08
 48.72226   -260.2 2.323e+04 5.489e-08
 48.72751   -262.3 2.303e+04 5.551e-08
 48.73762   -263.1 2.244e+04 4.455e-08
 48.74643   -264.1 2.194e+04 3.357e-08
 48.75167   -265.3 2.139e+04 2.484e-08
 48.75861   -266.8 2.080e+04 1.712e-08
 48.76910   -268.8 1.996e+04 1.167e-08
 48.77583   -271.1 1.886e+04 8.035e-09
 48.78108   -273.5 1.752e+04 5.292e-09
 48.79009   -275.4 1.642e+04 4.108e-09
 48.80000   -276.6 1.582e+04 3.607e-09
 48.80529   -277.4 1.560e+04 3.164e-09
 48.81642   -279.6 1.507e+04 2.766e-09
 48.83741   -282.1 1.406e+04 2.205e-09
 48.85366   -283.3 1.305e+04 1.797e-09
 48.86416   -284.3 1.227e+04 1.323e-09
 48.87938   -283.6 1.199e+04 1.205e-09
 48.90037   -282.6 1.175e+04 1.067e-09
 48.91248   -281.6 1.148e+04 9.063e-10
 48.92298   -281.5 1.119e+04 7.015e-10
 48.94235   -280.2 1.095e+04 5.646e-10
 48.95827   -278.7 1.075e+04 4.482e-10
 48.96624   -278.9 1.070e+04 3.918e-10
 48.97130   -279.0 1.065e+04 3.391e-10
 48.99491   -277.5 1.058e+04 3.190e-10
 49.01982   -275.5 1.042e+04 2.921e-10
 49.04081   -276.0 1.025e+04 2.540e-10
 49.07896   -273.7 9.986e+03 2.250e-10
 49.11647   -271.2 9.804e+03 1.993e-10
 49.13746   -271.1 9.772e+03 1.941e-10
 49.16291   -268.6 9.633e+03 1.702e-10
 49.20489   -266.1 9.505e+03 1.490e-10
 49.23410   -263.7 9.395e+03 1.323e-10
 49.25509   -263.6 9.424e+03 1.329e-10
 49.28884   -261.3 9.380e+03 1.230e-10
 49.33075   -259.1 9.381e+03 1.201e-10
 49.37273   -257.1 9.667e+03 1.512e-10
 49.41476   -255.2 9.672e+03 1.592e-10
 49.44492   -253.4 9.653e+03 1.650e-10
 49.45756   -254.3 9.685e+03 1.786e-10
 49.46938   -254.4 9.838e+03 2.134e-10
 49.49871   -252.5 9.697e+03 1.958e-10
 49.54069   -250.6 9.550e+03 1.757e-10
 49.56602   -248.7 9.434e+03 1.592e-10
 49.58701   -248.6 9.470e+03 1.677e-10
 49.62464   -246.6 9.344e+03 1.487e-10
 49.66267   -244.6 9.265e+03 1.362e-10
 49.68366   -244.4 9.279e+03 1.370e-10
 49.70859   -242.4 9.195e+03 1.222e-10
 49.75057   -240.2 9.124e+03 1.078e-10
 49.78031   -238.1 9.038e+03 9.569e-11
 49.80130   -237.9 9.076e+03 9.314e-11
 49.83452   -235.7 9.009e+03 8.367e-11
 49.87649   -233.5 8.945e+03 7.720e-11
 49.89794   -231.4 8.886e+03 7.209e-11
 49.91893   -231.0 8.895e+03 7.159e-11
 49.94187   -228.8 8.860e+03 6.867e-11
 49.96285   -229.5 8.914e+03 7.324e-11
 49.99459   -227.3 8.915e+03 7.312e-11
 50.01558   -226.8 8.930e+03 7.326e-11
 50.04439   -224.7 8.945e+03 7.369e-11
 50.08637   -222.8 9.020e+03 8.002e-11
 50.11223   -220.9 9.104e+03 9.515e-11
 50.13322   -220.6 9.238e+03 1.014e-10
 50.17032   -219.0 9.405e+03 1.281e-10
 50.20888   -217.6 9.693e+03 1.790e-10
 50.22986   -217.4 9.896e+03 2.065e-10
 50.25427   -216.5 1.030e+04 3.054e-10
 50.29624   -215.8 1.078e+04 4.610e-10
 50.32651   -215.4 1.123e+04 6.555e-10
 50.34750   -215.5 1.134e+04 6.922e-10
 50.38019   -215.3 1.167e+04 8.830e-10
 50.41783   -215.4 1.179e+04 9.579e-10
 50.43881   -216.4 1.201e+04 1.076e-09
 50.44415   -216.4 1.177e+04 9.302e-10
 50.46514   -216.5 1.201e+04 1.052e-09
 50.50612   -216.1 1.158e+04 7.475e-10
 50.54080   -215.5 1.108e+04 4.742e-10
 50.56178   -215.6 1.129e+04 5.568e-10
 50.59007   -215.1 1.095e+04 3.938e-10
 50.63205   -214.6 1.082e+04 3.379e-10
 50.65843   -213.9 1.080e+04 3.295e-10
 50.67942   -214.2 1.092e+04 3.460e-10
 50.71600   -213.6 1.089e+04 3.402e-10
 50.75508   -213.1 1.089e+04 3.543e-10
 50.77607   -213.4 1.092e+04 3.517e-10
 50.79995   -212.9 1.095e+04 3.769e-10
 50.84192   -212.5 1.101e+04 4.059e-10
 50.87272   -212.1 1.105e+04 4.256e-10
 50.89370   -212.3 1.115e+04 4.539e-10
 50.91477   -211.8 1.116e+04 4.612e-10
 50.93576   -212.9 1.136e+04 5.477e-10
 50.96785   -212.2 1.128e+04 4.949e-10
 50.99035   -211.2 1.113e+04 4.193e-10
 51.01134   -211.3 1.111e+04 4.026e-10
 51.05180   -210.8 1.093e+04 3.360e-10
 51.08700   -209.8 1.073e+04 2.719e-10
 51.10799   -209.7 1.070e+04 2.533e-10
 51.13575   -208.4 1.063e+04 2.228e-10
 51.17772   -207.1 1.064e+04 2.067e-10
 51.20464   -205.7 1.067e+04 2.003e-10
 51.22562   -205.6 1.069e+04 2.041e-10
 51.26167   -204.2 1.077e+04 2.079e-10
 51.30128   -202.9 1.083e+04 2.122e-10
 51.32227   -202.9 1.087e+04 2.166e-10
 51.34563   -201.5 1.090e+04 2.187e-10
 51.38760   -200.1 1.091e+04 2.162e-10
 51.41172   -198.5 1.090e+04 2.041e-10
 51.42205   -199.0 1.089e+04 1.960e-10
 51.43991   -199.0 1.092e+04 1.965e-10
 51.47155   -197.3 1.094e+04 1.871e-10
 51.51353   -195.9 1.095e+04 1.850e-10
 51.53656   -194.8 1.116e+04 2.000e-10
 51.55754   -194.9 1.129e+04 2.142e-10
 51.59748   -194.1 1.143e+04 2.865e-10
 51.63320   -193.5 1.158e+04 3.837e-10
 51.65419   -193.7 1.162e+04 3.932e-10
 51.68143   -193.3 1.168e+04 4.602e-10
 51.72340   -193.1 1.168e+04 4.744e-10
 51.75084   -192.6 1.148e+04 4.532e-10
 51.77183   -192.9 1.142e+04 4.345e-10
 51.80735   -192.1 1.110e+04 3.215e-10
 51.84749   -191.1 1.084e+04 2.208e-10
 51.86848   -191.4 1.084e+04 2.043e-10
 51.88768   -190.2 1.064e+04 1.482e-10
 51.90867   -190.8 1.065e+04 1.521e-10
 51.93328   -189.3 1.056e+04 1.304e-10
 51.96512   -187.6 1.053e+04 1.255e-10
 51.98611   -187.6 1.053e+04 1.246e-10
 52.01723   -185.7 1.054e+04 1.243e-10
 52.05920   -184.1 1.072e+04 1.332e-10
 52.08276   -182.9 1.096e+04 2.016e-10
 52.10375   -183.3 1.105e+04 2.032e-10
 52.14316   -182.1 1.144e+04 3.783e-10
 52.17941   -180.9 1.197e+04 6.954e-10
 52.20040   -181.9 1.208e+04 7.409e-10
 52.22711   -181.1 1.259e+04 1.140e-09
 52.26908   -181.0 1.287e+04 1.363e-09
 52.29704   -181.3 1.292e+04 1.405e-09
 52.31803   -182.5 1.284e+04 1.388e-09
 52.35303   -182.5 1.266e+04 1.267e-09
 52.38462   -182.3 1.230e+04 9.909e-10
 52.40430   -183.4 1.217e+04 9.293e-10
 52.41468   -184.7 1.237e+04 1.036e-09
 52.43698   -184.6 1.207e+04 8.749e-10
 52.47896   -184.2 1.178e+04 7.671e-10
 52.51133   -183.4 1.154e+04 6.901e-10
 52.53232   -184.4 1.154e+04 6.910e-10
 52.56291   -183.2 1.126e+04 6.126e-10
 52.60488   -181.7 1.099e+04 5.055e-10
 52.62896   -180.1 1.074e+04 3.922e-10
 52.64995   -180.4 1.062e+04 3.471e-10
 52.68883   -178.7 1.044e+04 2.570e-10
 52.72561   -176.9 1.030e+04 1.909e-10
 52.74660   -177.0 1.021e+04 1.681e-10
 52.77278   -175.1 1.011e+04 1.342e-10
 52.81476   -173.2 9.967e+03 1.172e-10
 52.84325   -171.3 9.846e+03 1.099e-10
 52.86424   -171.0 9.791e+03 9.494e-11
 52.88157   -169.0 9.772e+03 8.975e-11
 52.90256   -168.9 9.734e+03 9.404e-11
 52.93990   -166.9 9.720e+03 9.222e-11
 52.96088   -166.5 9.666e+03 8.263e-11
 52.98266   -164.4 9.666e+03 8.325e-11
 53.02464   -162.4 9.668e+03 8.338e-11
 53.05753   -160.3 9.667e+03 8.277e-11
 53.07852   -159.8 9.657e+03 8.123e-11
 53.10859   -157.9 9.671e+03 8.180e-11
 53.15056   -156.0 9.677e+03 8.202e-11
 53.17517   -154.2 9.700e+03 8.246e-11
 53.19616   -153.8 9.711e+03 8.253e-11
 53.23451   -152.2 9.759e+03 8.502e-11
 53.27182   -150.7 9.770e+03 9.336e-11
 53.29280   -150.4 9.762e+03 9.053e-11
 53.31846   -148.9 9.755e+03 1.015e-10
 53.35753   -147.3 9.773e+03 1.195e-10
 53.37852   -147.3 9.764e+03 1.288e-10
 53.38945   -145.7 9.819e+03 1.492e-10
 53.41044   -145.5 9.760e+03 1.332e-10
 53.44439   -143.8 9.812e+03 1.478e-10
 53.48610   -142.2 9.848e+03 1.526e-10
 53.50709   -141.9 9.785e+03 1.387e-10
 53.52834   -140.3 9.794e+03 1.384e-10
 53.57031   -138.8 9.793e+03 1.278e-10
 53.60374   -137.3 9.800e+03 1.155e-10
 53.62472   -136.8 9.777e+03 1.107e-10
 53.65426   -135.5 9.802e+03 1.056e-10
 53.69624   -134.2 9.826e+03 1.050e-10
 53.72137   -132.8 9.843e+03 1.145e-10
 53.74236   -132.2 9.789e+03 1.014e-10
 53.78019   -130.8 9.761e+03 1.126e-10
 53.81802   -129.1 9.757e+03 1.247e-10
 53.83901   -128.5 9.684e+03 1.030e-10
 53.85448   -126.8 9.694e+03 1.096e-10
 53.87546   -126.8 9.637e+03 1.201e-10
 53.90612   -125.1 9.629e+03 1.201e-10
 53.93566   -123.4 9.624e+03 1.129e-10
 53.95664   -122.7 9.586e+03 9.807e-11
 53.99007   -121.0 9.619e+03 9.346e-11
 54.03204   -119.4 9.638e+03 8.961e-11
 54.05329   -117.9 9.662e+03 8.763e-11
 54.07428   -117.1 9.638e+03 7.956e-11
 54.11599   -115.7 9.681e+03 7.965e-11
 54.14994   -114.4 9.702e+03 8.549e-11
 54.17093   -113.6 9.677e+03 7.609e-11
 54.19994   -112.2 9.651e+03 8.474e-11
 54.24192   -110.5 9.709e+03 9.065e-11
 54.26758   -109.0 9.776e+03 9.178e-11
 54.28856   -108.2 9.743e+03 8.244e-11
 54.32587   -106.8 9.845e+03 8.155e-11
 54.35142   -105.7 9.953e+03 8.272e-11
 54.36879   -106.1 9.927e+03 1.028e-10
 54.38521   -105.5 9.909e+03 9.828e-11
 54.40982   -104.2 9.947e+03 1.094e-10
 54.45179   -103.0 1.001e+04 1.170e-10
 54.48186   -102.0 1.012e+04 1.228e-10
 54.50285   -101.5 1.014e+04 1.297e-10
 54.53574   -100.6 1.028e+04 1.383e-10
 54.57772   -100.1 1.040e+04 1.464e-10
 54.59950    -99.5 1.036e+04 1.705e-10
 54.62048    -99.1 1.038e+04 1.570e-10
 54.66167    -98.1 1.037e+04 1.701e-10
 54.69614    -97.1 1.040e+04 1.710e-10
 54.71713    -96.8 1.036e+04 1.520e-10
 54.74562    -95.8 1.047e+04 1.462e-10
 54.78760    -95.3 1.067e+04 1.459e-10
 54.81378    -95.1 1.077e+04 1.712e-10
 54.83258    -95.2 1.086e+04 1.843e-10
 54.84837    -95.7 1.079e+04 1.830e-10
 54.87155    -95.3 1.103e+04 2.381e-10
 54.91043    -95.5 1.126e+04 2.694e-10
 54.93142    -95.2 1.126e+04 2.719e-10
 54.95550    -95.4 1.121e+04 2.788e-10
 54.99747    -95.2 1.123e+04 2.703e-10
 55.02806    -95.2 1.137e+04 2.505e-10
 55.04905    -94.7 1.133e+04 2.172e-10
 55.08142    -95.0 1.138e+04 2.375e-10
 55.12340    -94.6 1.125e+04 2.948e-10
 55.14570    -93.6 1.121e+04 3.219e-10
 55.16669    -92.9 1.117e+04 3.023e-10
 55.20735    -92.2 1.121e+04 2.797e-10
 55.24235    -91.7 1.108e+04 2.300e-10
 55.26334    -90.9 1.100e+04 2.372e-10
 55.29130    -90.2 1.074e+04 1.920e-10
 55.32433    -89.2 1.061e+04 1.419e-10
 55.34532    -89.1 1.064e+04 1.309e-10
 55.35998    -88.3 1.060e+04 1.109e-10
 55.38097    -87.3 1.058e+04 1.083e-10
 55.41723    -86.3 1.054e+04 1.079e-10
 55.45663    -85.5 1.065e+04 1.160e-10
 55.47762    -84.7 1.061e+04 1.199e-10
 55.50118    -83.6 1.060e+04 1.425e-10
 55.54315    -82.4 1.062e+04 1.477e-10
 55.57427    -81.3 1.063e+04 1.363e-10
 55.59526    -80.4 1.059e+04 1.442e-10
 55.62710    -79.7 1.061e+04 1.309e-10
 55.66908    -79.1 1.063e+04 1.400e-10
 55.69190    -79.0 1.060e+04 1.807e-10
 55.71289    -78.0 1.051e+04 1.682e-10
 55.75303    -77.3 1.045e+04 2.156e-10
 55.78855    -76.2 1.051e+04 2.426e-10
 55.80954    -75.3 1.041e+04 2.095e-10
 55.82127    -74.5 1.040e+04 2.124e-10
 55.84226    -74.6 1.062e+04 2.710e-10
 55.87895    -73.8 1.046e+04 2.600e-10
 55.90619    -72.9 1.033e+04 2.208e-10
 55.92718    -71.9 1.023e+04 2.077e-10
 55.96290    -71.0 1.026e+04 1.659e-10
 56.00284    -70.4 1.029e+04 1.384e-10
 56.02382    -69.4 1.023e+04 1.400e-10
 56.04685    -68.8 1.017e+04 1.298e-10
 56.08883    -68.0 1.011e+04 1.256e-10
 56.12047    -67.1 1.005e+04 1.247e-10
 56.14146    -66.3 1.002e+04 1.212e-10
 56.17278    -65.8 1.011e+04 1.311e-10
 56.21475    -65.8 1.026e+04 1.737e-10
 56.23811    -65.8 1.040e+04 2.740e-10
 56.25909    -65.3 1.035e+04 2.810e-10
 56.29723    -65.0 1.045e+04 3.905e-10
 56.31822    -65.2 1.035e+04 3.309e-10
 56.33476    -64.7 1.018e+04 3.075e-10
 56.35574    -64.0 1.010e+04 2.848e-10
 56.38266    -63.8 9.969e+03 2.087e-10
 56.42463    -64.3 9.856e+03 1.659e-10
 56.45239    -64.7 9.766e+03 1.672e-10
 56.47338    -64.0 9.687e+03 1.582e-10
 56.50858    -64.2 9.644e+03 1.811e-10
 56.54904    -63.7 9.568e+03 2.091e-10
 56.57003    -62.4 9.375e+03 1.713e-10
 56.59253    -61.6 9.301e+03 1.603e-10
 56.63451    -60.9 9.269e+03 1.412e-10
 56.66668    -60.4 9.249e+03 1.233e-10
 56.68766    -59.3 9.136e+03 1.017e-10
 56.71846    -58.8 9.136e+03 1.001e-10
 56.76043    -58.4 9.168e+03 1.085e-10
 56.78431    -58.0 9.247e+03 1.254e-10
 56.79707    -56.9 9.264e+03 1.299e-10
 56.81517    -57.0 9.402e+03 1.457e-10
 56.84438    -57.1 9.639e+03 2.043e-10
 56.88096    -57.3 9.850e+03 2.965e-10
 56.90195    -55.9 9.929e+03 3.372e-10
 56.92833    -55.7 1.004e+04 4.043e-10
 56.97031    -55.3 9.897e+03 3.789e-10
 56.99860    -55.0 9.706e+03 3.229e-10
 57.01958    -53.9 9.710e+03 2.781e-10
 57.05426    -54.3 9.726e+03 2.568e-10
 57.09524    -56.8 1.036e+04 3.183e-10
 57.11623    -57.6 1.098e+04 3.919e-10
 57.13821    -63.1 1.245e+04 1.186e-09
 57.18019    -64.8 1.229e+04 2.180e-09
 57.21157    -63.3 1.179e+04 1.391e-09
 57.22318    -65.8 1.200e+04 7.175e-10
 57.23367    -66.9 1.168e+04 5.829e-10
 57.25345    -71.2 1.028e+04 3.151e-10
 57.27150    -72.2 9.831e+03 2.806e-10
 57.28200    -72.5 9.838e+03 2.803e-10
 57.29103    -74.9 9.412e+03 2.145e-10
 57.31211    -76.1 9.259e+03 1.620e-10
 57.33052    -78.3 9.071e+03 1.820e-10
 57.35150    -80.1 9.554e+03 2.546e-10
 57.39006    -80.9 1.002e+04 4.259e-10
 57.42716    -82.1 1.048e+04 5.837e-10
 57.44815    -84.1 1.088e+04 8.125e-10
 57.46342    -84.7 1.080e+04 8.042e-10
 57.48431    -85.6 1.052e+04 7.568e-10
 57.49628    -86.3 1.022e+04 6.832e-10
 57.50677    -87.0 1.019e+04 6.822e-10
 57.52629    -87.2 9.957e+03 6.024e-10
 57.53941    -87.7 9.768e+03 5.137e-10
 57.54723    -87.8 9.674e+03 4.564e-10
 57.55510    -88.4 9.519e+03 4.276e-10
 57.56826    -88.7 9.421e+03 4.133e-10
 57.59984    -89.0 9.290e+03 4.040e-10
 57.64145    -88.7 9.285e+03 4.346e-10
 57.66244    -88.7 9.081e+03 3.727e-10
 57.68389    -88.3 9.249e+03 4.083e-10
 57.71066    -88.2 9.381e+03 4.842e-10
 57.72106    -87.9 9.221e+03 4.362e-10
 57.73616    -88.0 9.242e+03 4.466e-10
 57.75899    -87.8 9.635e+03 5.940e-10
 57.77932    -87.2 9.265e+03 4.793e-10
 57.78807    -86.8 9.492e+03 5.551e-10
 57.80981    -86.2 9.797e+03 6.069e-10
 57.85179    -86.7 1.010e+04 6.604e-10
 57.87662    -86.9 1.056e+04 8.978e-10
 57.88702    -86.1 1.037e+04 8.577e-10
 57.90406    -86.5 1.066e+04 1.033e-09
 57.92485    -86.4 1.119e+04 1.311e-09
 57.93534    -85.4 1.097e+04 1.218e-09
 57.94604    -85.9 1.155e+04 1.464e-09
 57.96703    -86.4 1.216e+04 1.811e-09
 57.98367    -86.6 1.234e+04 1.882e-09
 57.99426    -85.0 1.205e+04 1.657e-09
 58.00910    -87.1 1.321e+04 2.569e-09
 58.02586    -88.1 1.323e+04 3.115e-09
 58.03635    -88.0 1.309e+04 3.034e-09
 58.04248    -87.9 1.292e+04 3.095e-09
 58.05298    -87.3 1.307e+04 3.229e-09
 58.07196    -86.8 1.292e+04 3.080e-09
 58.09081    -86.3 1.319e+04 2.464e-09
 58.10130    -85.7 1.340e+04 3.193e-09
 58.11394    -87.1 1.416e+04 2.455e-09
 58.13493    -92.7 1.392e+04 1.695e-09
 58.14963    -98.6 1.173e+04 1.291e-09
 58.16012    -95.9 1.313e+04 1.771e-09
 58.17690    -99.5 1.186e+04 1.601e-09
 58.19789   -101.2 1.268e+04 1.955e-09
 58.21888   -102.2 1.296e+04 1.944e-09
 58.23987   -106.6 1.360e+04 1.965e-09
 58.25677   -112.0 1.401e+04 2.301e-09
 58.26726   -109.3 1.333e+04 1.698e-09
 58.27433   -114.1 1.387e+04 2.368e-09
 58.28482   -114.7 1.403e+04 2.667e-09
 58.30283   -117.6 1.431e+04 3.560e-09
 58.31559   -119.6 1.464e+04 4.038e-09
 58.32608   -118.1 1.415e+04 3.458e-09
 58.34480   -120.1 1.457e+04 3.686e-09
 58.36391   -123.4 1.465e+04 3.030e-09
 58.37440   -121.0 1.464e+04 3.421e-09
 58.38678   -125.3 1.460e+04 2.641e-09
 58.40777   -130.2 1.347e+04 1.719e-09
 58.42283   -135.0 1.207e+04 1.131e-09
 58.43332   -132.5 1.309e+04 1.684e-09
 58.44974   -135.7 1.228e+04 1.337e-09
 58.48132   -137.6 1.209e+04 1.243e-09
 58.51957   -142.2 1.102e+04 9.372e-10
 58.54056   -140.4 1.164e+04 1.056e-09
 58.56537   -145.0 1.015e+04 6.811e-10
 58.60734   -149.0 9.127e+03 4.885e-10
 58.63721   -151.4 8.854e+03 4.393e-10
 58.65819   -151.2 8.672e+03 3.955e-10
 58.69130   -152.6 8.673e+03 3.945e-10
 58.73327   -153.3 8.773e+03 4.231e-10
 58.75484   -153.5 8.801e+03 4.338e-10
 58.76156   -153.4 8.636e+03 3.936e-10
 58.78197   -151.6 8.778e+03 4.300e-10
 58.81722   -151.7 8.699e+03 4.110e-10
 58.85149   -151.2 8.534e+03 3.660e-10
 58.87248   -150.9 8.355e+03 3.295e-10
 58.90117   -150.1 8.240e+03 2.983e-10
 58.94315   -149.3 8.212e+03 2.852e-10
 58.96913   -148.5 8.217e+03 2.834e-10
 58.99011   -148.1 8.131e+03 2.687e-10
 59.02710   -147.4 8.293e+03 2.819e-10
 59.06578   -146.8 8.488e+03 3.117e-10
 59.08676   -146.3 8.421e+03 3.018e-10
 59.11105   -145.9 8.567e+03 3.269e-10
 59.15302   -145.7 8.688e+03 3.460e-10
 59.18341   -145.6 8.819e+03 3.659e-10
 59.20440   -145.7 8.781e+03 3.592e-10
 59.23694   -146.1 9.006e+03 3.982e-10
 59.27891   -145.1 9.555e+03 5.256e-10
 59.30105   -145.1 9.851e+03 5.822e-10
 59.32203   -146.4 9.798e+03 5.651e-10
 59.36290   -146.7 1.006e+04 6.208e-10
 59.39428   -147.1 1.014e+04 6.387e-10
 59.40799   -147.2 1.014e+04 6.405e-10
 59.41859   -147.8 1.001e+04 5.826e-10
 59.43626   -147.8 9.953e+03 5.474e-10
 59.45632   -147.7 9.819e+03 4.852e-10
 59.46681   -148.1 9.732e+03 4.482e-10
 59.47814   -147.9 9.643e+03 3.856e-10
 59.49571   -147.9 9.633e+03 3.688e-10
 59.50620   -147.7 9.688e+03 3.794e-10
 59.51514   -147.8 9.718e+03 3.529e-10
 59.53622   -148.5 9.672e+03 3.166e-10
 59.57278   -148.8 9.717e+03 3.054e-10
 59.61198   -149.2 9.842e+03 3.019e-10
 59.63297   -150.6 9.477e+03 2.339e-10
 59.65673   -150.9 9.789e+03 2.473e-10
 59.69870   -151.3 1.009e+04 2.878e-10
 59.72952   -152.2 1.027e+04 3.297e-10
 59.74371   -152.7 1.030e+04 3.374e-10
 59.75477   -153.8 1.067e+04 4.545e-10
 59.77196   -155.4 1.103e+04 6.415e-10
 59.78824   -156.2 1.140e+04 8.876e-10
 59.79873   -156.0 1.119e+04 7.421e-10
 59.81394   -156.4 1.151e+04 9.808e-10
 59.83493   -156.6 1.181e+04 1.248e-09
 59.84706   -156.6 1.205e+04 1.496e-09
 59.85755   -156.6 1.182e+04 1.267e-09
 59.87690   -156.7 1.203e+04 1.469e-09
 59.89538   -156.8 1.218e+04 1.573e-09
 59.90587   -156.8 1.200e+04 1.407e-09
 59.91888   -157.0 1.217e+04 1.528e-09
 59.93986   -157.4 1.228e+04 1.576e-09
 59.95420   -157.9 1.236e+04 1.529e-09
 59.96469   -157.8 1.216e+04 1.493e-09
 59.98184   -158.3 1.218e+04 1.459e-09
 59.99266   -158.9 1.213e+04 1.390e-09
 60.00285   -159.3 1.180e+04 1.146e-09
 60.01302   -159.1 1.160e+04 1.046e-09
 60.02381   -159.6 1.151e+04 9.935e-10
 60.04480   -160.0 1.140e+04 9.539e-10
 60.06134   -160.4 1.129e+04 9.256e-10
 60.07183   -160.0 1.106e+04 8.119e-10
 60.08678   -160.3 1.099e+04 7.972e-10
 60.10776   -160.5 1.093e+04 7.861e-10
 60.12016   -160.7 1.087e+04 7.689e-10
 60.13065   -160.2 1.070e+04 6.963e-10
 60.14974   -160.4 1.066e+04 6.850e-10
 60.16848   -160.6 1.060e+04 6.557e-10
 60.17898   -160.0 1.048e+04 6.191e-10
 60.19172   -160.3 1.042e+04 5.935e-10
 60.21270   -160.6 1.034e+04 5.428e-10
 60.22730   -160.9 1.017e+04 4.865e-10
 60.23474   -160.2 1.018e+04 4.947e-10
 60.25172   -160.9 1.014e+04 4.602e-10
 60.27582   -161.5 9.979e+03 4.210e-10
 60.29681   -160.1 9.990e+03 4.285e-10
 60.32833   -161.0 9.886e+03 3.942e-10
 60.37031   -162.5 9.861e+03 3.654e-10
 60.39345   -164.8 9.901e+03 3.591e-10
 60.41444   -163.6 9.868e+03 3.628e-10
 60.45426   -166.7 1.035e+04 4.144e-10
 60.47921   -168.7 1.067e+04 5.430e-10
 60.48960   -169.1 1.071e+04 5.717e-10
 60.50040   -171.1 1.098e+04 7.272e-10
 60.51090   -170.3 1.073e+04 6.638e-10
 60.52752   -172.1 1.090e+04 7.633e-10
 60.54850   -173.7 1.092e+04 7.871e-10
 60.58008   -175.2 1.070e+04 7.289e-10
 60.60774   -177.5 1.028e+04 6.516e-10
 60.61814   -176.2 1.009e+04 5.590e-10
 60.63246   -176.8 9.903e+03 5.050e-10
 60.66403   -177.6 9.643e+03 4.279e-10
 60.70439   -178.8 9.195e+03 3.126e-10
 60.72537   -177.8 9.115e+03 2.946e-10
 60.72778   -178.1 8.775e+03 2.166e-10
 60.74877   -178.1 8.816e+03 2.266e-10
 60.79006   -178.1 8.502e+03 1.563e-10
 60.82202   -178.1 8.297e+03 1.144e-10
 60.84301   -177.0 8.429e+03 1.404e-10
 60.87401   -176.9 8.360e+03 1.214e-10
 60.91598   -176.8 8.352e+03 1.176e-10
 60.93966   -176.7 8.385e+03 1.184e-10
 60.96065   -176.0 8.603e+03 1.578e-10
 60.99993   -176.2 8.776e+03 1.823e-10
 61.03631   -176.3 8.937e+03 2.181e-10
 61.05729   -175.8 9.165e+03 2.866e-10
 61.08388   -175.9 9.267e+03 3.193e-10
 61.12586   -176.0 9.300e+03 3.300e-10
 61.15394   -175.8 9.284e+03 3.269e-10
 61.17493   -175.6 9.368e+03 3.556e-10
 61.20374   -175.3 9.242e+03 3.106e-10
 61.22472   -175.7 9.147e+03 2.802e-10
 61.25059   -175.3 9.002e+03 2.371e-10
 61.27158   -175.3 9.009e+03 2.388e-10
 61.29376   -174.7 8.917e+03 2.124e-10
 61.33574   -174.0 8.886e+03 2.007e-10
 61.36823   -173.2 8.878e+03 1.969e-10
 61.38921   -173.2 8.908e+03 2.020e-10
 61.41969   -172.4 8.964e+03 2.053e-10
 61.46166   -171.7 9.013e+03 2.166e-10
 61.48586   -171.2 9.105e+03 2.395e-10
 61.50685   -171.5 9.160e+03 2.501e-10
 61.54561   -171.2 9.354e+03 2.972e-10
 61.58251   -171.1 9.644e+03 3.747e-10
 61.60350   -171.5 9.655e+03 3.768e-10
 61.62956   -171.6 9.954e+03 4.777e-10
 61.67154   -171.8 1.019e+04 5.783e-10
 61.70015   -172.1 1.029e+04 6.315e-10
 61.70830   -172.3 1.000e+04 5.136e-10
 61.72167   -173.5 9.971e+03 5.220e-10
 61.75549   -173.6 9.938e+03 5.217e-10
 61.79680   -173.4 9.734e+03 4.676e-10
 61.81778   -173.3 9.309e+03 3.323e-10
 61.83944   -172.9 9.147e+03 2.845e-10
 61.88141   -172.4 9.028e+03 2.452e-10
 61.91443   -172.0 9.010e+03 2.254e-10
 61.93542   -171.8 8.909e+03 1.951e-10
 61.96536   -171.5 8.917e+03 1.916e-10
 62.00734   -171.5 9.010e+03 1.947e-10
 62.03207   -171.5 9.254e+03 2.325e-10
 62.05305   -171.4 9.139e+03 1.992e-10
 62.09129   -171.5 9.269e+03 2.418e-10
 62.12871   -171.6 9.348e+03 2.862e-10
 62.14970   -171.6 9.189e+03 2.404e-10
 62.17524   -171.5 9.201e+03 2.599e-10
 62.19763   -171.4 9.198e+03 2.638e-10
 62.21862   -172.4 9.098e+03 2.510e-10
 62.24635   -172.2 8.975e+03 2.158e-10
 62.26734   -172.2 8.962e+03 2.069e-10
 62.30117   -172.0 8.825e+03 1.703e-10
 62.34300   -171.6 8.705e+03 1.411e-10
 62.38497   -171.6 8.670e+03 1.273e-10
 62.42709   -171.2 8.676e+03 1.217e-10
 62.46063   -170.9 8.687e+03 1.205e-10
 62.48162   -171.3 8.622e+03 1.103e-10
 62.51104   -171.0 8.627e+03 1.048e-10
 62.55302   -170.6 8.639e+03 1.013e-10
 62.57827   -170.2 8.645e+03 9.986e-11
 62.59926   -170.5 8.472e+03 7.462e-11
 62.63697   -170.0 8.467e+03 7.307e-11
 62.67359   -169.3 8.483e+03 7.471e-11
 62.69055   -169.9 8.412e+03 6.452e-11
 62.69591   -170.1 8.296e+03 4.808e-11
 62.72092   -169.4 8.374e+03 5.286e-11
 62.76289   -168.6 8.438e+03 6.295e-11
 62.79255   -167.8 8.526e+03 7.907e-11
 62.81354   -167.9 8.422e+03 6.244e-11
 62.84685   -167.1 8.537e+03 8.072e-11
 62.88882   -166.3 8.716e+03 1.116e-10
 62.91019   -165.6 8.961e+03 1.605e-10
 62.93118   -165.5 8.727e+03 1.085e-10
 62.97277   -164.7 8.911e+03 1.450e-10
 63.00684   -164.0 9.103e+03 1.880e-10
 63.02783   -163.8 8.867e+03 1.265e-10
 63.05672   -163.0 9.029e+03 1.590e-10
 63.09870   -162.1 9.186e+03 1.907e-10
 63.12447   -161.2 9.326e+03 2.154e-10
 63.14546   -160.9 9.231e+03 1.854e-10
 63.17054   -159.8 9.370e+03 2.150e-10
 63.19152   -160.8 9.807e+03 3.421e-10
 63.22112   -159.5 9.889e+03 3.723e-10
 63.24211   -159.1 9.807e+03 3.540e-10
 63.26660   -157.8 9.863e+03 3.725e-10
 63.30857   -156.7 1.001e+04 3.943e-10
 63.33876   -156.2 1.039e+04 4.578e-10
 63.35975   -156.7 1.060e+04 5.112e-10
 63.39252   -156.9 1.137e+04 7.925e-10
 63.43450   -157.2 1.217e+04 1.275e-09
 63.45639   -157.7 1.283e+04 1.789e-09
 63.47738   -159.0 1.294e+04 1.873e-09
 63.51845   -159.9 1.317e+04 2.047e-09
 63.55304   -160.7 1.314e+04 2.049e-09
 63.57403   -161.7 1.278e+04 1.741e-09
 63.60240   -161.5 1.237e+04 1.518e-09
 63.64438   -160.7 1.196e+04 1.348e-09
 63.66748   -159.6 1.171e+04 1.189e-09
 63.67280   -160.3 1.186e+04 9.222e-10
 63.69167   -160.4 1.197e+04 9.079e-10
 63.72833   -159.1 1.191e+04 7.727e-10
 63.76733   -157.7 1.189e+04 6.399e-10
 63.78831   -158.1 1.214e+04 8.225e-10
 63.81228   -157.0 1.216e+04 7.278e-10
 63.85425   -156.0 1.219e+04 6.387e-10
 63.88496   -155.1 1.222e+04 6.071e-10
 63.90595   -156.3 1.240e+04 7.119e-10
 63.93820   -156.0 1.243e+04 6.913e-10
 63.98018   -156.1 1.281e+04 7.267e-10
 64.00260   -156.7 1.310e+04 1.006e-09
 64.02359   -158.1 1.293e+04 9.358e-10
 64.06413   -158.7 1.313e+04 1.185e-09
 64.09925   -158.5 1.319e+04 1.295e-09
 64.12023   -160.0 1.267e+04 9.557e-10
 64.14344   -159.1 1.250e+04 8.589e-10
 64.16382   -159.3 1.230e+04 1.033e-09
 64.16836   -159.7 1.216e+04 8.551e-10
 64.17936   -158.9 1.186e+04 6.973e-10
 64.20035   -158.1 1.169e+04 5.712e-10
 64.21669   -157.3 1.165e+04 4.929e-10
 64.23777   -157.6 1.168e+04 4.536e-10
 64.27400   -156.7 1.167e+04 4.053e-10
 64.31353   -155.5 1.156e+04 3.589e-10
 64.33452   -155.6 1.148e+04 3.314e-10
 64.35795   -154.2 1.140e+04 3.084e-10
 64.39993   -152.8 1.132e+04 2.864e-10
 64.43117   -151.4 1.127e+04 2.624e-10
 64.45215   -151.3 1.131e+04 2.818e-10
 64.48388   -149.8 1.128e+04 2.689e-10
 64.52586   -148.3 1.126e+04 2.537e-10
 64.54880   -146.8 1.124e+04 2.391e-10
 64.56979   -146.7 1.126e+04 2.667e-10
 64.60981   -145.1 1.122e+04 2.393e-10
 64.64039   -143.5 1.117e+04 2.042e-10
 64.65504   -143.9 1.117e+04 2.413e-10
 64.66644   -143.7 1.112e+04 2.384e-10
 64.69376   -141.8 1.099e+04 1.876e-10
 64.73573   -139.8 1.087e+04 1.408e-10
 64.76309   -137.8 1.081e+04 1.063e-10
 64.78407   -137.2 1.080e+04 9.960e-11
 64.81968   -135.1 1.076e+04 7.884e-11
 64.85973   -133.0 1.070e+04 6.689e-11
 64.88072   -132.4 1.073e+04 6.385e-11
 64.90363   -130.2 1.066e+04 5.712e-11
 64.94561   -128.1 1.056e+04 5.398e-11
 64.97737   -125.9 1.045e+04 5.296e-11
 64.99836   -125.3 1.046e+04 5.278e-11
 65.02956   -123.0 1.041e+04 5.259e-11
 65.07153   -120.8 1.037e+04 5.328e-11
 65.09501   -118.6 1.032e+04 5.604e-11
 65.11599   -118.2 1.041e+04 5.923e-11
 65.13733   -115.9 1.032e+04 6.484e-11
 65.15832   -116.5 1.039e+04 6.212e-11
 65.19165   -114.4 1.026e+04 6.765e-11
 65.21264   -114.0 1.044e+04 8.342e-11
 65.23943   -112.1 1.036e+04 9.140e-11
 65.28141   -110.2 1.029e+04 1.100e-10
 65.30929   -108.4 1.023e+04 1.441e-10
 65.33028   -108.0 1.036e+04 1.821e-10
 65.36536   -106.1 1.036e+04 2.384e-10
 65.40594   -104.4 1.041e+04 2.990e-10
 65.42693   -103.9 1.057e+04 3.657e-10
 65.44931   -102.7 1.068e+04 4.373e-10
 65.49129   -102.3 1.087e+04 5.528e-10
 65.52357   -102.4 1.116e+04 7.816e-10
 65.54456   -102.3 1.155e+04 9.921e-10
 65.57524   -102.5 1.189e+04 1.374e-09
 65.61329   -102.7 1.208e+04 1.621e-09
 65.63428   -104.9 1.128e+04 1.065e-09
 65.64121   -105.2 1.120e+04 1.063e-09
 65.66220   -106.1 1.111e+04 9.832e-10
 65.70116   -106.0 1.089e+04 9.321e-10
 65.73786   -105.3 1.067e+04 8.783e-10
 65.75885   -105.9 1.065e+04 8.630e-10
 65.78511   -104.7 1.044e+04 7.998e-10
 65.82709   -103.4 1.024e+04 7.285e-10
 65.85549   -102.0 1.009e+04 6.714e-10
 65.87648   -102.0 1.019e+04 6.734e-10
 65.91104   -100.6 1.009e+04 6.272e-10
 65.95214    -99.2 1.006e+04 6.185e-10
 65.97313    -99.3 1.009e+04 5.956e-10
 65.99499    -97.9 1.011e+04 6.122e-10
 66.03696    -96.6 1.020e+04 6.728e-10
 66.06978    -95.2 1.024e+04 7.188e-10
 66.09077    -94.9 1.010e+04 6.214e-10
 66.11024    -93.4 1.001e+04 6.038e-10
 66.13123    -93.3 1.009e+04 6.458e-10
 66.16289    -91.4 9.852e+03 5.890e-10
 66.18741    -89.4 9.530e+03 4.638e-10
 66.20840    -88.7 9.400e+03 3.936e-10
 66.24684    -86.6 9.156e+03 3.158e-10
 66.28406    -84.5 8.983e+03 2.524e-10
 66.30505    -83.6 8.964e+03 2.303e-10
 66.33079    -81.3 8.878e+03 2.038e-10
 66.37277    -79.1 8.814e+03 1.849e-10
 66.40170    -76.9 8.735e+03 1.727e-10
 66.42269    -75.7 8.755e+03 1.702e-10
 66.45672    -73.6 8.748e+03 1.630e-10
 66.49835    -71.8 8.780e+03 1.638e-10
 66.51933    -70.8 8.826e+03 1.660e-10
 66.54067    -69.3 8.906e+03 1.674e-10
 66.58264    -68.0 8.931e+03 1.875e-10
 66.60719    -67.2 8.899e+03 2.365e-10
 66.61954    -67.4 1.006e+04 5.785e-10
 66.63697    -66.2 1.083e+04 7.730e-10
 66.66659    -65.7 1.093e+04 8.974e-10
 66.70857    -64.8 1.099e+04 1.008e-09
 66.73362    -63.4 1.097e+04 9.824e-10
 66.75461    -63.0 1.177e+04 1.365e-09
 66.79252    -61.7 1.184e+04 1.206e-09
 66.83027    -61.2 1.199e+04 1.155e-09
 66.85116    -60.6 1.248e+04 1.543e-09
 66.85546    -60.5 1.244e+04 1.721e-09
 66.86596    -61.3 1.257e+04 1.731e-09
 66.88677    -61.0 1.269e+04 1.998e-09
 66.89938    -61.0 1.309e+04 2.336e-09
 66.90988    -60.8 1.342e+04 2.569e-09
 66.92874    -61.4 1.418e+04 3.144e-09
 66.94771    -62.1 1.470e+04 3.945e-09
 66.95820    -62.1 1.490e+04 4.035e-09
 66.97072    -62.7 1.479e+04 4.692e-09
 66.99171    -62.7 1.450e+04 4.806e-09
 67.00652    -62.4 1.423e+04 4.219e-09
 67.01702    -62.4 1.438e+04 4.401e-09
 67.03368    -62.9 1.423e+04 3.255e-09
 67.05467    -64.7 1.367e+04 2.342e-09
 67.06534    -66.3 1.298e+04 1.830e-09
 67.07584    -66.4 1.299e+04 2.006e-09
 67.09344    -66.7 1.275e+04 1.781e-09
 67.10394    -66.7 1.214e+04 1.208e-09
 67.12822    -67.3 1.174e+04 1.027e-09
 67.16219    -66.9 1.152e+04 1.015e-09
 67.18317    -66.6 1.178e+04 1.083e-09
 67.21227    -66.2 1.137e+04 9.960e-10
 67.25425    -65.7 1.099e+04 8.034e-10
 67.27982    -65.4 1.064e+04 5.648e-10
 67.30081    -66.2 1.147e+04 8.561e-10
 67.33820    -66.7 1.108e+04 6.571e-10
 67.37647    -67.0 1.085e+04 6.121e-10
 67.39746    -67.9 1.128e+04 8.316e-10
 67.42215    -67.5 1.114e+04 7.899e-10
 67.46412    -66.8 1.112e+04 7.942e-10
 67.49411    -65.8 1.113e+04 7.976e-10
 67.51509    -66.8 1.111e+04 8.030e-10
 67.54807    -65.8 1.106e+04 7.192e-10
 67.58009    -65.2 1.104e+04 6.403e-10
 67.60108    -66.7 1.120e+04 6.636e-10
 67.61174    -66.8 1.104e+04 6.253e-10
 67.63273    -68.2 1.157e+04 6.531e-10
 67.67400    -67.6 1.168e+04 7.455e-10
 67.70839    -66.7 1.164e+04 7.692e-10
 67.72938    -67.6 1.224e+04 9.902e-10
 67.75795    -67.0 1.200e+04 7.818e-10
 67.78933    -66.3 1.200e+04 6.527e-10
 67.81022    -65.5 1.181e+04 5.890e-10
 67.82583    -64.9 1.146e+04 5.151e-10
 67.83348    -65.3 1.183e+04 5.568e-10
 67.83886    -66.2 1.198e+04 6.487e-10
 67.85220    -65.1 1.175e+04 5.624e-10
 67.87319    -63.9 1.166e+04 4.462e-10
 67.88465    -63.0 1.171e+04 3.652e-10
 67.89514    -63.1 1.186e+04 4.478e-10
 67.92258    -62.5 1.151e+04 2.996e-10
 67.94366    -63.1 1.188e+04 3.955e-10
 67.96783    -62.0 1.169e+04 2.827e-10
 68.00980    -60.9 1.166e+04 2.445e-10
 68.04031    -59.5 1.146e+04 3.241e-10
 68.06130    -60.3 1.189e+04 5.707e-10
 68.07704    -58.9 1.229e+04 7.193e-10
 68.09803    -60.0 1.248e+04 1.090e-09
 68.13573    -59.0 1.299e+04 1.463e-09
 68.15795    -58.2 1.324e+04 1.707e-09
 68.17893    -58.8 1.284e+04 1.479e-09
 68.21968    -57.9 1.281e+04 1.492e-09
 68.25459    -57.0 1.283e+04 1.411e-09
 68.27558    -57.1 1.215e+04 9.792e-10
 68.30363    -57.0 1.229e+04 9.502e-10
 68.32541    -56.6 1.218e+04 9.600e-10
 68.33581    -56.8 1.209e+04 8.635e-10
 68.35590    -56.3 1.199e+04 8.520e-10
 68.37203    -55.9 1.199e+04 8.714e-10
 68.38253    -55.6 1.181e+04 7.641e-10
 68.39788    -55.1 1.182e+04 7.709e-10
 68.41887    -54.5 1.177e+04 7.618e-10
 68.43085    -54.0 1.170e+04 7.398e-10
 68.44135    -53.5 1.161e+04 6.702e-10
 68.46084    -52.9 1.157e+04 6.282e-10
 68.47918    -52.5 1.160e+04 5.848e-10
 68.48967    -52.2 1.159e+04 5.536e-10
 68.50282    -51.9 1.165e+04 5.185e-10
 68.52380    -51.9 1.171e+04 5.023e-10
 68.53799    -51.9 1.178e+04 5.118e-10
 68.54849    -51.7 1.180e+04 5.122e-10
 68.56330    -51.8 1.189e+04 5.492e-10
 68.57379    -51.9 1.221e+04 7.940e-10
 68.58632    -52.0 1.245e+04 9.854e-10
 68.59681    -52.0 1.261e+04 1.089e-09
 68.60775    -52.0 1.288e+04 1.318e-09
 68.62874    -51.9 1.306e+04 1.537e-09
 68.64514    -51.7 1.311e+04 1.631e-09
 68.65563    -51.8 1.320e+04 1.699e-09
 68.67072    -51.5 1.309e+04 1.592e-09
 68.69170    -50.8 1.285e+04 1.388e-09
 68.70405    -50.7 1.274e+04 1.190e-09
 68.72514    -50.9 1.261e+04 1.131e-09
 68.76536    -49.6 1.185e+04 5.276e-10
 68.80080    -49.3 1.140e+04 3.005e-10
 68.82179    -49.4 1.128e+04 2.579e-10
 68.84931    -48.2 1.088e+04 1.911e-10
 68.89128    -46.4 1.070e+04 1.627e-10
 68.91843    -44.2 1.067e+04 1.444e-10
 68.93942    -43.8 1.060e+04 1.095e-10
 68.97523    -41.9 1.061e+04 9.681e-11
 69.01508    -39.9 1.064e+04 9.242e-11
 69.03607    -39.7 1.060e+04 7.635e-11
 69.04994    -37.8 1.065e+04 8.299e-11
 69.07093    -37.5 1.061e+04 7.933e-11
 69.10116    -35.5 1.067e+04 8.922e-11
 69.13272    -33.6 1.075e+04 1.058e-10
 69.15371    -33.3 1.076e+04 1.034e-10
 69.18511    -31.2 1.085e+04 1.301e-10
 69.22708    -29.2 1.097e+04 1.699e-10
 69.25035    -27.2 1.120e+04 2.327e-10
 69.27134    -27.1 1.141e+04 2.549e-10
 69.31103    -26.1 1.165e+04 3.847e-10
 69.34700    -25.2 1.194e+04 6.460e-10
 69.36799    -26.0 1.210e+04 7.451e-10
 69.39499    -25.1 1.271e+04 1.238e-09
 69.41622    -25.2 1.318e+04 1.701e-09
 69.42661    -25.8 1.316e+04 1.715e-09
 69.44726    -25.7 1.326e+04 2.297e-09
 69.46444    -25.2 1.340e+04 2.583e-09
 69.47494    -25.4 1.296e+04 1.940e-09
 69.48923    -25.2 1.296e+04 1.866e-09
 69.51022    -25.3 1.287e+04 1.657e-09
 69.52326    -25.6 1.266e+04 1.404e-09
 69.53375    -26.3 1.226e+04 1.120e-09
 69.54669    -26.6 1.206e+04 1.015e-09
 69.55719    -26.4 1.219e+04 1.110e-09
 69.57158    -26.6 1.204e+04 1.086e-09
 69.58208    -26.6 1.178e+04 9.701e-10
 69.59417    -26.5 1.174e+04 9.557e-10
 69.61516    -26.6 1.170e+04 9.182e-10
 69.63040    -26.7 1.166e+04 8.756e-10
 69.64090    -26.6 1.145e+04 7.691e-10
 69.65714    -26.8 1.136e+04 7.369e-10
 69.67812    -26.9 1.128e+04 7.133e-10
 69.68922    -27.0 1.121e+04 7.030e-10
 69.69971    -26.8 1.098e+04 5.752e-10
 69.72010    -26.9 1.097e+04 5.847e-10
 69.73754    -27.1 1.099e+04 6.087e-10
 69.74804    -26.8 1.082e+04 5.048e-10
 69.76207    -27.1 1.087e+04 5.521e-10
 69.78306    -27.5 1.091e+04 6.196e-10
 69.79517    -27.7 1.094e+04 7.110e-10
 69.79798    -27.5 1.095e+04 7.140e-10
 69.80686    -27.2 1.076e+04 6.161e-10
 69.82504    -27.1 1.074e+04 6.815e-10
 69.84469    -27.0 1.069e+04 6.712e-10
 69.85518    -26.6 1.058e+04 5.847e-10
 69.86701    -26.5 1.050e+04 5.607e-10
 69.89311    -27.0 1.045e+04 5.134e-10
 69.91419    -26.4 1.034e+04 4.624e-10
 69.94066    -26.2 9.968e+03 3.585e-10
 69.98264    -25.8 9.631e+03 2.577e-10
 70.01084    -25.4 9.393e+03 1.782e-10
 70.03006    -24.7 9.372e+03 1.740e-10
 70.04384    -24.6 9.386e+03 1.697e-10
 70.06659    -24.1 9.220e+03 1.240e-10
 70.10749    -23.3 9.068e+03 1.007e-10
 70.12848    -22.4 9.063e+03 9.901e-11
 70.15054    -21.3 8.949e+03 8.619e-11
 70.19252    -20.0 8.870e+03 7.794e-11
 70.22513    -18.6 8.798e+03 7.482e-11
 70.24611    -17.8 8.807e+03 7.515e-11
 70.27647    -16.4 8.839e+03 7.561e-11
 70.31844    -15.2 8.968e+03 8.155e-11
 70.34276    -14.1 9.054e+03 9.835e-11
 70.36375    -13.4 9.149e+03 1.143e-10
 70.40239    -12.3 9.292e+03 1.696e-10
 70.43941    -10.8 9.621e+03 2.790e-10
 70.46040    -10.1 9.697e+03 2.943e-10
 70.48634     -8.7 1.014e+04 4.534e-10
 70.51980     -8.1 1.052e+04 6.216e-10
 70.54069     -8.6 1.066e+04 7.297e-10
 70.55685     -8.1 1.090e+04 8.706e-10
 70.56734     -7.8 1.079e+04 7.964e-10
 70.58059     -7.3 1.103e+04 9.057e-10
 70.60158     -7.0 1.124e+04 9.865e-10
 70.61567     -6.8 1.143e+04 1.050e-09
 70.62616     -6.6 1.133e+04 9.581e-10
 70.64355     -6.7 1.155e+04 1.025e-09
 70.66399     -7.5 1.208e+04 1.199e-09
 70.67449     -7.9 1.212e+04 1.177e-09
 70.68553    -10.9 1.346e+04 1.970e-09
 70.70652    -13.7 1.476e+04 4.105e-09
 70.72281    -14.6 1.541e+04 6.954e-09
 70.73330    -14.8 1.539e+04 7.126e-09
 70.74849    -15.3 1.534e+04 7.106e-09
 70.76807    -15.5 1.486e+04 5.715e-09
 70.77857    -15.6 1.429e+04 4.480e-09
 70.78163    -16.9 1.357e+04 2.682e-09
 70.79212    -17.5 1.340e+04 2.325e-09
 70.82205    -20.6 1.220e+04 1.216e-09
 70.86412    -22.0 1.044e+04 5.405e-10
 70.88897    -21.6 9.863e+03 3.414e-10
 70.90995    -21.3 9.709e+03 2.992e-10
 70.94807    -19.9 9.480e+03 2.071e-10
 70.98561    -18.1 9.326e+03 1.517e-10
 71.00660    -17.6 9.279e+03 1.251e-10
 71.01674    -15.9 9.212e+03 9.427e-11
 71.03773    -15.7 9.222e+03 1.134e-10
 71.07400    -14.0 9.175e+03 9.437e-11
 71.10325    -12.2 9.142e+03 8.343e-11
 71.12424    -12.0 9.143e+03 7.888e-11
 71.15795    -10.2 9.142e+03 8.093e-11
 71.19990     -8.5 9.183e+03 9.064e-11
 71.24187     -6.7 9.309e+03 1.345e-10
 71.28387     -4.9 9.456e+03 1.835e-10
 71.31753     -3.3 9.644e+03 2.415e-10
 71.33852     -3.2 9.661e+03 2.467e-10
 71.36782     -1.9 9.823e+03 3.016e-10
 71.40980     -0.6 9.956e+03 3.508e-10
 71.43517      0.5 1.011e+04 3.827e-10
 71.45616      0.4 1.002e+04 3.280e-10
 71.49270      1.5 1.003e+04 3.258e-10
 71.51369      1.1 9.939e+03 2.811e-10
 71.53182      2.4 9.918e+03 2.579e-10
 71.55281      2.7 9.803e+03 2.029e-10
 71.57770      4.3 9.746e+03 1.606e-10
 71.61967      6.0 9.710e+03 1.205e-10
 71.64945      7.7 9.709e+03 9.132e-11
 71.67044      8.0 9.719e+03 6.633e-11
 71.70362      9.7 9.717e+03 5.612e-11
 71.74560     11.6 9.713e+03 5.505e-11
 71.76709     13.7 9.731e+03 5.567e-11
 71.78808     14.1 9.697e+03 4.712e-11
 71.82955     16.2 9.749e+03 5.090e-11
 71.86374     18.1 9.808e+03 5.883e-11
 71.88473     18.4 9.751e+03 5.648e-11
 71.91350     20.1 9.779e+03 7.641e-11
 71.95548     22.1 9.872e+03 1.222e-10
 71.98137     24.5 1.020e+04 2.160e-10
 71.99456     24.9 1.031e+04 2.277e-10
 72.01064     24.9 1.041e+04 2.626e-10
 72.03943     26.1 1.076e+04 3.842e-10
 72.07081     26.4 1.111e+04 5.296e-10
 72.08832     26.5 1.155e+04 7.673e-10
 72.09881     26.3 1.169e+04 8.760e-10
 72.11269     26.4 1.221e+04 1.313e-09
 72.13368     26.4 1.276e+04 1.940e-09
 72.14714     26.5 1.333e+04 2.771e-09
 72.15763     26.7 1.328e+04 2.790e-09
 72.17565     26.9 1.366e+04 3.352e-09
 72.19546     26.9 1.385e+04 3.441e-09
 72.20596     27.0 1.335e+04 2.722e-09
 72.21763     26.7 1.341e+04 2.595e-09
 72.23793     26.1 1.339e+04 2.416e-09
 72.24842     25.8 1.342e+04 2.527e-09
 72.25428     25.1 1.332e+04 2.380e-09
 72.26477     25.0 1.290e+04 1.936e-09
 72.29118     24.3 1.310e+04 2.125e-09
 72.31329     23.6 1.303e+04 2.148e-09
 72.33428     24.1 1.286e+04 2.042e-09
 72.37523     23.5 1.297e+04 2.240e-09
 72.40994     23.2 1.271e+04 1.987e-09
 72.43083     23.3 1.243e+04 1.773e-09
 72.45908     23.4 1.220e+04 1.560e-09
 72.48659     23.8 1.139e+04 9.129e-10
 72.50758     24.1 1.087e+04 5.712e-10
 72.52758     24.4 1.033e+04 3.374e-10
 72.54857     25.0 1.045e+04 4.120e-10
 72.58510     25.9 1.005e+04 2.719e-10
 72.62423     27.2 9.885e+03 2.183e-10
 72.64521     27.7 9.884e+03 2.253e-10
 72.66906     29.4 9.846e+03 2.102e-10
 72.71103     31.4 9.841e+03 2.052e-10
 72.74186     33.5 9.860e+03 1.992e-10
 72.76285     34.0 9.833e+03 2.141e-10
 72.79498     36.0 9.865e+03 2.066e-10
 72.83696     38.0 9.894e+03 1.920e-10
 72.85950     39.9 9.899e+03 1.731e-10
 72.88049     40.5 9.895e+03 1.947e-10
 72.92091     42.4 9.909e+03 1.824e-10
 72.95615     44.2 9.953e+03 1.786e-10
 72.97681     44.7 9.987e+03 2.126e-10
 72.98354     44.7 9.999e+03 2.160e-10
 73.00486     46.3 1.011e+04 2.419e-10
 73.04683     47.8 1.024e+04 2.985e-10
 73.07378     49.3 1.042e+04 3.869e-10
 73.09477     49.5 1.058e+04 4.991e-10
 73.13078     50.9 1.082e+04 6.147e-10
 73.17043     52.0 1.091e+04 6.416e-10
 73.19142     51.9 1.093e+04 6.578e-10
 73.21473     52.9 1.091e+04 6.027e-10
 73.25671     54.2 1.081e+04 4.838e-10
 73.28807     55.5 1.068e+04 3.574e-10
 73.30905     55.5 1.059e+04 3.097e-10
 73.34066     56.9 1.051e+04 2.345e-10
 73.38263     58.4 1.048e+04 1.967e-10
 73.40570     60.2 1.047e+04 1.926e-10
 73.42669     60.5 1.044e+04 1.892e-10
 73.45950     62.4 1.045e+04 1.906e-10
 73.48049     62.4 1.039e+04 1.438e-10
 73.50235     64.3 1.045e+04 1.542e-10
 73.52334     64.5 1.048e+04 1.685e-10
 73.55054     66.2 1.062e+04 2.096e-10
 73.59251     67.8 1.088e+04 2.806e-10
 73.61999     69.2 1.121e+04 3.888e-10
 73.64097     69.2 1.124e+04 4.231e-10
 73.67646     69.8 1.143e+04 5.180e-10
 73.70785     70.3 1.156e+04 6.325e-10
 73.72693     70.9 1.165e+04 6.743e-10
 73.73743     71.1 1.165e+04 6.719e-10
 73.76031     72.0 1.183e+04 7.790e-10
 73.80239     72.2 1.200e+04 8.599e-10
 73.83427     72.1 1.212e+04 9.199e-10
 73.85526     72.5 1.211e+04 9.055e-10
 73.88634     72.5 1.222e+04 9.832e-10
 73.92831     72.0 1.244e+04 1.152e-09
 73.95181     71.7 1.262e+04 1.355e-09
 73.95895     72.3 1.278e+04 1.509e-09
 73.96684     72.2 1.277e+04 1.556e-09
 73.98059     72.0 1.281e+04 1.656e-09
 74.00003     71.8 1.287e+04 1.649e-09
 74.01053     71.9 1.290e+04 1.655e-09
 74.02256     71.8 1.285e+04 1.613e-09
 74.04846     71.6 1.265e+04 1.441e-09
 74.06954     72.5 1.254e+04 1.338e-09
 74.09621     72.8 1.213e+04 9.863e-10
 74.13819     73.1 1.183e+04 7.303e-10
 74.16619     73.4 1.164e+04 6.162e-10
 74.18718     74.0 1.154e+04 5.320e-10
 74.22214     74.5 1.145e+04 5.235e-10
 74.26284     75.3 1.144e+04 5.281e-10
 74.28383     75.8 1.141e+04 4.924e-10
 74.30609     76.6 1.141e+04 5.059e-10
 74.34807     77.5 1.147e+04 5.658e-10
 74.38047     78.2 1.164e+04 6.819e-10
 74.40146     78.6 1.157e+04 6.187e-10
 74.43202     79.2 1.173e+04 6.994e-10
 74.45339     79.6 1.183e+04 7.222e-10
 74.47438     80.8 1.152e+04 5.058e-10
 74.49811     81.2 1.154e+04 4.956e-10
 74.51910     81.8 1.149e+04 4.483e-10
 74.55794     82.5 1.143e+04 3.799e-10
 74.59476     83.4 1.132e+04 2.863e-10
 74.61575     84.1 1.128e+04 2.487e-10
 74.64189     84.9 1.115e+04 1.651e-10
 74.68387     85.5 1.102e+04 1.161e-10
 74.71239     86.2 1.093e+04 1.073e-10
 74.73338     86.6 1.096e+04 1.338e-10
 74.76782     87.7 1.093e+04 1.413e-10
 74.80904     88.8 1.095e+04 1.565e-10
 74.83003     89.3 1.106e+04 1.987e-10
 74.85177     90.5 1.108e+04 2.086e-10
 74.89374     91.8 1.107e+04 2.037e-10
 74.92668     93.2 1.101e+04 1.853e-10
 74.94130     93.5 1.103e+04 1.850e-10
 74.95034     94.4 1.112e+04 2.282e-10
 74.97769     95.7 1.105e+04 1.905e-10
 75.01967     97.2 1.098e+04 1.520e-10
 75.04431     98.5 1.094e+04 1.213e-10
 75.06530     98.5 1.092e+04 1.044e-10
 75.10362     99.8 1.088e+04 9.655e-11
 75.14096    101.2 1.087e+04 9.834e-11
 75.16195    101.4 1.082e+04 1.100e-10
 75.18757    102.9 1.083e+04 1.284e-10
 75.22955    104.3 1.087e+04 1.542e-10
 75.25860    105.7 1.094e+04 1.868e-10
 75.27959    106.0 1.095e+04 2.073e-10
 75.31350    107.3 1.105e+04 2.385e-10
 75.35525    108.3 1.116e+04 2.647e-10
 75.37623    108.5 1.114e+04 2.623e-10
 75.39745    109.4 1.120e+04 2.707e-10
 75.42630    110.1 1.120e+04 2.672e-10
 75.44729    110.3 1.113e+04 2.287e-10
 75.47288    111.0 1.113e+04 2.256e-10
 75.49387    110.9 1.106e+04 2.148e-10
 75.52337    111.5 1.109e+04 2.182e-10
 75.56535    111.9 1.117e+04 2.311e-10
 75.59052    111.7 1.125e+04 2.687e-10
 75.61151    111.4 1.119e+04 2.902e-10
 75.64930    111.1 1.127e+04 3.712e-10
 75.68717    110.7 1.150e+04 4.855e-10
 75.70815    110.5 1.126e+04 4.815e-10
 75.73325    109.9 1.134e+04 5.368e-10
 75.77522    108.8 1.135e+04 5.312e-10
 75.80480    107.7 1.131e+04 4.905e-10
 75.82579    107.8 1.101e+04 3.633e-10
 75.85917    106.8 1.086e+04 3.074e-10
 75.90115    106.1 1.067e+04 2.586e-10
 75.92244    105.9 1.050e+04 2.418e-10
 75.92355    106.9 1.037e+04 2.124e-10
 75.94423    107.5 1.034e+04 1.743e-10
 75.98510    107.7 1.030e+04 1.723e-10
 76.01909    108.0 1.029e+04 1.738e-10
 76.04007    109.1 1.019e+04 1.578e-10
 76.06905    109.6 1.020e+04 1.718e-10
 76.11103    110.2 1.028e+04 1.973e-10
 76.13672    110.7 1.040e+04 2.313e-10
 76.15771    111.9 1.036e+04 2.315e-10
 76.19498    112.5 1.050e+04 2.729e-10
 76.23337    113.1 1.067e+04 2.986e-10
 76.25436    114.3 1.060e+04 3.150e-10
 76.27893    114.8 1.066e+04 3.164e-10
 76.32090    115.1 1.066e+04 3.110e-10
 76.35101    115.6 1.063e+04 2.898e-10
 76.37199    116.7 1.057e+04 3.040e-10
 76.39920    117.4 1.050e+04 2.764e-10
 76.42019    117.6 1.041e+04 2.409e-10
 76.44683    118.5 1.039e+04 2.336e-10
 76.46864    119.6 1.039e+04 2.333e-10
 76.48963    120.5 1.037e+04 2.362e-10
 76.53078    121.5 1.041e+04 2.394e-10
 76.56529    122.6 1.048e+04 2.513e-10
 76.58628    123.2 1.046e+04 2.609e-10
 76.61473    124.2 1.054e+04 2.855e-10
 76.65670    125.2 1.066e+04 3.248e-10
 76.68293    126.2 1.082e+04 3.721e-10
 76.70391    126.8 1.080e+04 3.828e-10
 76.74065    127.6 1.098e+04 4.144e-10
 76.77957    128.3 1.102e+04 4.143e-10
 76.80056    128.8 1.091e+04 3.824e-10
 76.82461    129.6 1.089e+04 3.379e-10
 76.86658    130.4 1.082e+04 2.704e-10
 76.89615    131.3 1.070e+04 2.076e-10
 76.90579    130.7 1.055e+04 1.549e-10
 76.91820    131.2 1.046e+04 1.414e-10
 76.95053    132.2 1.040e+04 1.381e-10
 76.99251    133.3 1.039e+04 1.401e-10
 77.01485    134.5 1.042e+04 1.506e-10
 77.03583    134.9 1.042e+04 1.509e-10
 77.07646    135.8 1.058e+04 1.791e-10
 77.11149    136.6 1.081e+04 2.180e-10
 77.13248    136.7 1.100e+04 2.702e-10
 77.16041    137.1 1.120e+04 3.082e-10
 77.20238    137.2 1.125e+04 3.114e-10
 77.22913    137.1 1.125e+04 3.005e-10
 77.25012    136.6 1.151e+04 4.570e-10
 77.28633    136.5 1.145e+04 4.227e-10
 77.32578    136.4 1.139e+04 3.707e-10
 77.34667    135.5 1.161e+04 5.155e-10
 77.35959    135.4 1.162e+04 5.159e-10
 77.38058    135.3 1.165e+04 5.237e-10
 77.39290    135.2 1.173e+04 5.531e-10
 77.39672    135.5 1.167e+04 5.221e-10
 77.40539    134.6 1.179e+04 6.904e-10
 77.42256    134.5 1.187e+04 7.849e-10
 77.44322    134.5 1.198e+04 9.125e-10
 77.45371    134.0 1.214e+04 1.212e-09
 77.46453    134.2 1.229e+04 1.362e-09
 77.48552    134.4 1.248e+04 1.550e-09
 77.50204    134.7 1.269e+04 1.784e-09
 77.51253    134.0 1.277e+04 1.910e-09
 77.52750    134.1 1.298e+04 2.138e-09
 77.54848    134.2 1.325e+04 2.446e-09
 77.56085    134.1 1.358e+04 2.847e-09
 77.57135    132.8 1.351e+04 2.698e-09
 77.59046    132.3 1.385e+04 3.043e-09
 77.60918    131.4 1.433e+04 3.532e-09
 77.61967    129.6 1.414e+04 3.075e-09
 77.63088    128.0 1.460e+04 3.738e-09
 77.64138    128.4 1.519e+04 5.007e-09
 77.65342    126.9 1.554e+04 5.650e-09
 77.66800    125.1 1.562e+04 5.764e-09
 77.67849    123.6 1.482e+04 4.023e-09
 77.69540    121.8 1.474e+04 3.831e-09
 77.71632    119.9 1.455e+04 3.382e-09
 77.73731    116.4 1.363e+04 2.039e-09
 77.75836    115.1 1.335e+04 1.843e-09
 77.77514    114.5 1.335e+04 1.798e-09
 77.79622    114.1 1.305e+04 1.600e-09
 77.83201    112.9 1.305e+04 1.465e-09
 77.86906    112.0 1.310e+04 1.279e-09
 77.88804    113.8 1.330e+04 1.673e-09
 77.89297    114.8 1.348e+04 1.887e-09
 77.90537    114.0 1.359e+04 1.916e-09
 77.92626    113.3 1.369e+04 1.931e-09
 77.94110    112.9 1.378e+04 1.965e-09
 77.95159    113.1 1.400e+04 2.347e-09
 77.96824    112.8 1.407e+04 2.425e-09
 77.98922    112.5 1.414e+04 2.511e-09
 77.99992    112.2 1.416e+04 2.543e-09
 78.01041    112.5 1.451e+04 3.327e-09
 78.03120    112.2 1.450e+04 3.330e-09
 78.04824    111.8 1.447e+04 3.310e-09
 78.05873    112.2 1.511e+04 4.555e-09
 78.07317    111.6 1.507e+04 4.399e-09
 78.09416    110.9 1.489e+04 3.997e-09
 78.10706    110.4 1.459e+04 3.423e-09
 78.11755    110.1 1.530e+04 4.348e-09
 78.12783    109.4 1.489e+04 3.519e-09
 78.13832    109.5 1.497e+04 3.617e-09
 78.15538    108.6 1.463e+04 3.089e-09
 78.16588    107.3 1.552e+04 3.922e-09
 78.17811    106.4 1.527e+04 3.839e-09
 78.19910    105.8 1.520e+04 3.849e-09
 78.21420    105.4 1.514e+04 3.852e-09
 78.22469    104.4 1.547e+04 4.602e-09
 78.24107    104.2 1.532e+04 4.253e-09
 78.26206    104.0 1.512e+04 3.762e-09
 78.27302    103.8 1.484e+04 3.170e-09
 78.28351    102.9 1.479e+04 3.070e-09
 78.30404    102.6 1.440e+04 2.388e-09
 78.32134    101.9 1.395e+04 1.730e-09
 78.34243    100.2 1.356e+04 1.476e-09
 78.36600    100.2 1.299e+04 1.217e-09
 78.38699    102.9 1.275e+04 9.116e-10
 78.41819    103.0 1.251e+04 8.223e-10
 78.43917    103.1 1.270e+04 9.447e-10
 78.45105    103.0 1.274e+04 9.955e-10
 78.47194    102.7 1.285e+04 1.087e-09
 78.48730    102.3 1.303e+04 1.255e-09
 78.49780    101.7 1.321e+04 1.486e-09
 78.51391    101.4 1.332e+04 1.766e-09
 78.53490    101.2 1.338e+04 2.014e-09
 78.54612    101.0 1.351e+04 2.213e-09
 78.55661    101.1 1.326e+04 2.008e-09
 78.57688    100.9 1.322e+04 1.894e-09
 78.59444    100.6 1.329e+04 1.765e-09
 78.60494    100.0 1.322e+04 1.308e-09
 78.61428     99.0 1.325e+04 1.300e-09
 78.62477    100.1 1.321e+04 1.546e-09
 78.63984     99.0 1.331e+04 1.573e-09
 78.65326     97.8 1.348e+04 1.740e-09
 78.66376     96.6 1.327e+04 1.491e-09
 78.68182     95.6 1.341e+04 1.862e-09
 78.70159     94.7 1.366e+04 2.293e-09
 78.71208     93.8 1.350e+04 2.117e-09
 78.72379     93.3 1.355e+04 2.197e-09
 78.75001     92.7 1.377e+04 2.383e-09
 78.77109     92.5 1.337e+04 1.974e-09
 78.79744     91.3 1.329e+04 1.869e-09
 78.83942     90.7 1.292e+04 1.508e-09
 78.86295     90.7 1.241e+04 1.005e-09
 78.87029     91.7 1.242e+04 9.194e-10
 78.88873     91.9 1.213e+04 7.648e-10
 78.92337     92.2 1.168e+04 4.194e-10
 78.96439     92.3 1.136e+04 2.174e-10
 78.98538     92.5 1.121e+04 1.788e-10
 79.00732     92.8 1.120e+04 1.472e-10
 79.04929     93.4 1.119e+04 1.491e-10
 79.08203     93.8 1.123e+04 1.677e-10
 79.10301     94.5 1.119e+04 2.092e-10
 79.13324     94.9 1.135e+04 2.780e-10
 79.17522     95.1 1.145e+04 3.136e-10
 79.19966     95.2 1.146e+04 3.044e-10
 79.22065     95.9 1.156e+04 3.325e-10
 79.25917     96.1 1.151e+04 2.598e-10
 79.29631     96.1 1.143e+04 1.729e-10
 79.31730     96.7 1.150e+04 1.603e-10
 79.33891     96.5 1.138e+04 1.051e-10
 79.35990     97.7 1.120e+04 1.831e-10
 79.38510     97.9 1.102e+04 1.244e-10
 79.41395     98.2 1.060e+04 1.022e-10
 79.43493     98.9 1.060e+04 1.009e-10
 79.46905    100.0 1.031e+04 1.002e-10
 79.51059    101.4 1.030e+04 1.002e-10
 79.53158    102.4 1.042e+04 1.007e-10
 79.55300    103.9 1.040e+04 1.035e-10
 79.59497    105.3 1.040e+04 1.135e-10
 79.62823    106.5 1.042e+04 1.294e-10
 79.64922    107.3 1.049e+04 1.468e-10
 79.67892    108.3 1.048e+04 1.827e-10
 79.72090    109.3 1.040e+04 2.078e-10
 79.74587    110.0 1.037e+04 2.078e-10
 79.76685    110.8 1.054e+04 2.691e-10
 79.80485    111.4 1.044e+04 2.565e-10
 79.83585    112.1 1.023e+04 2.127e-10
 79.85253    113.2 1.031e+04 2.196e-10
 79.86350    113.8 1.044e+04 2.465e-10
 79.88880    114.5 1.018e+04 1.865e-10
 79.93077    115.1 9.960e+03 1.214e-10
 79.96015    115.5 9.786e+03 7.466e-11
 79.98114    116.2 9.806e+03 7.323e-11
 80.01472    116.5 9.500e+03 5.649e-11
 80.05670    116.9 9.440e+03 5.605e-11
 80.09868    118.1 9.741e+03 6.695e-11
 80.14065    118.5 9.723e+03 8.438e-11
 80.17443    119.1 9.674e+03 1.099e-10
 80.19542    119.7 9.826e+03 1.758e-10
 80.22460    120.3 9.767e+03 1.836e-10
 80.26658    120.9 9.725e+03 1.784e-10
 80.29207    121.6 9.584e+03 1.584e-10
 80.31306    122.3 9.670e+03 1.872e-10
 80.33280    123.1 9.431e+03 1.333e-10
 80.35379    123.7 9.557e+03 1.513e-10
 80.38872    124.6 9.329e+03 1.102e-10
 80.40970    125.1 9.344e+03 1.086e-10
 80.43448    125.9 9.158e+03 7.565e-11
 80.47645    126.7 9.027e+03 5.844e-11
 80.50635    127.7 8.915e+03 4.977e-11
 80.52734    128.1 8.927e+03 4.916e-11
 80.56040    129.3 8.818e+03 4.427e-11
 80.60238    130.6 8.734e+03 4.034e-11
 80.62399    132.0 8.665e+03 3.699e-11
 80.64498    132.5 8.675e+03 3.700e-11
 80.68633    133.9 8.591e+03 3.473e-11
 80.72064    135.4 8.556e+03 3.444e-11
 80.74162    135.9 8.613e+03 3.548e-11
 80.77028    137.4 8.613e+03 3.571e-11
 80.80876    139.0 8.618e+03 3.698e-11
 80.82975    139.4 8.665e+03 4.265e-11
 80.83827    140.8 8.677e+03 4.458e-11
 80.85926    141.2 8.699e+03 4.925e-11
 80.89621    142.7 8.714e+03 5.666e-11
 80.93492    144.1 8.751e+03 6.795e-11
 80.95591    144.6 8.807e+03 7.795e-11
 80.98016    146.0 8.879e+03 9.447e-11
 81.02213    147.4 8.967e+03 1.130e-10
 81.05256    148.8 9.058e+03 1.317e-10
 81.07354    149.1 9.080e+03 1.355e-10
 81.10608    150.3 9.175e+03 1.466e-10
 81.14806    151.4 9.241e+03 1.469e-10
 81.17019    152.4 9.246e+03 1.456e-10
 81.19118    152.5 9.201e+03 1.339e-10
 81.23201    153.5 9.186e+03 1.246e-10
 81.26684    154.5 9.139e+03 1.095e-10
 81.28783    154.8 9.075e+03 9.250e-11
 81.30571    155.7 9.033e+03 7.878e-11
 81.32669    156.2 9.059e+03 8.287e-11
 81.35793    157.2 9.003e+03 6.883e-11
 81.38448    158.1 8.941e+03 5.878e-11
 81.40546    158.3 8.925e+03 5.556e-11
 81.44188    159.2 8.907e+03 5.469e-11
 81.48113    160.3 8.906e+03 5.512e-11
 81.50211    160.4 8.914e+03 5.512e-11
 81.52583    161.4 8.933e+03 5.851e-11
 81.56781    162.3 8.981e+03 6.538e-11
 81.59876    163.3 9.058e+03 7.548e-11
 81.61975    163.3 9.098e+03 7.713e-11
 81.65176    164.2 9.193e+03 8.649e-11
 81.69374    165.0 9.298e+03 9.644e-11
 81.71640    165.8 9.408e+03 1.069e-10
 81.73738    165.6 9.447e+03 1.025e-10
 81.77769    166.2 9.544e+03 1.135e-10
 81.80265    166.8 9.647e+03 1.284e-10
 81.81703    167.0 9.729e+03 1.447e-10
 81.83403    166.7 9.762e+03 1.362e-10
 81.86164    167.2 9.936e+03 1.567e-10
 81.90361    167.8 1.021e+04 1.866e-10
 81.93068    167.8 1.044e+04 2.110e-10
 81.94108    167.4 1.045e+04 2.025e-10
 81.95589    167.0 1.060e+04 2.246e-10
 81.97687    165.9 1.099e+04 3.100e-10
 81.98930    163.7 1.194e+04 6.054e-10
 81.99980    162.7 1.232e+04 8.062e-10
 82.01885    160.6 1.360e+04 1.831e-09
 82.03763    158.9 1.486e+04 3.809e-09
 82.04812    158.2 1.519e+04 4.435e-09
 82.05093    156.4 1.627e+04 6.824e-09
 82.06143    156.3 1.608e+04 5.976e-09
 82.08181    153.7 1.645e+04 6.079e-09
 82.09645    150.6 1.646e+04 5.661e-09
 82.10694    149.3 1.658e+04 5.949e-09
 82.12379    146.3 1.620e+04 4.378e-09
 82.14477    143.0 1.542e+04 2.840e-09
 82.16576    138.8 1.433e+04 1.944e-09
 82.18675    135.9 1.347e+04 1.650e-09
 82.20359    134.0 1.309e+04 1.583e-09
 82.21408    133.6 1.280e+04 1.414e-09
 82.22872    132.5 1.256e+04 1.313e-09
 82.24971    131.7 1.236e+04 1.175e-09
 82.26241    130.9 1.212e+04 9.915e-10
 82.27290    130.7 1.181e+04 7.689e-10
 82.28891    129.8 1.164e+04 5.969e-10
 82.29940    130.1 1.170e+04 6.276e-10
 82.31073    128.8 1.158e+04 5.010e-10
 82.32122    127.9 1.150e+04 3.855e-10
 82.33366    126.3 1.137e+04 3.206e-10
 82.35465    124.7 1.123e+04 2.916e-10
 82.36955    123.5 1.102e+04 2.890e-10
 82.38004    123.4 1.084e+04 2.776e-10
 82.39663    122.8 1.080e+04 2.808e-10
 82.41761    122.4 1.071e+04 2.915e-10
 82.42837    122.0 1.065e+04 3.129e-10
 82.43886    122.3 1.062e+04 3.188e-10
 82.45959    121.8 1.074e+04 3.721e-10
 82.47669    120.8 1.107e+04 4.698e-10
 82.48718    120.6 1.146e+04 5.907e-10
 82.50156    118.8 1.208e+04 9.003e-10
 82.52255    117.0 1.276e+04 1.470e-09
 82.53551    115.5 1.338e+04 2.337e-09
 82.53985    115.3 1.364e+04 2.827e-09
 82.54788    116.0 1.348e+04 2.559e-09
 82.56453    114.8 1.382e+04 3.084e-09
 82.58383    113.2 1.386e+04 3.098e-09
 82.59433    112.7 1.384e+04 3.020e-09
 82.60650    111.1 1.361e+04 2.604e-09
 82.62749    109.2 1.312e+04 1.977e-09
 82.64265    106.9 1.247e+04 1.496e-09
 82.65314    105.8 1.202e+04 1.303e-09
 82.66946    103.8 1.187e+04 1.287e-09
 82.69045    102.3 1.189e+04 1.322e-09
 82.70147    100.7 1.210e+04 1.495e-09
 82.71196    100.5 1.195e+04 1.446e-09
 82.73243     99.3 1.231e+04 1.765e-09
 82.74979     98.0 1.265e+04 2.138e-09
 82.76029     98.1 1.221e+04 1.781e-09
 82.77440     96.5 1.254e+04 2.014e-09
 82.78586     94.5 1.291e+04 2.175e-09
 82.79635     94.7 1.225e+04 1.628e-09
 82.80861     92.4 1.239e+04 1.646e-09
 82.81910     91.9 1.224e+04 1.533e-09
 82.83737     89.9 1.221e+04 1.522e-09
 82.85693     88.2 1.204e+04 1.447e-09
 82.86743     88.7 1.199e+04 1.439e-09
 82.87934     87.8 1.163e+04 1.268e-09
 82.90033     87.2 1.121e+04 1.113e-09
 82.91575     86.6 1.087e+04 1.084e-09
 82.92625     87.0 1.123e+04 1.240e-09
 82.94230     86.1 1.173e+04 1.364e-09
 82.96329     84.5 1.328e+04 1.879e-09
 82.97457     81.0 1.658e+04 3.109e-09
 82.98506     77.7 1.902e+04 5.941e-09
 82.99868     77.4 1.993e+04 6.194e-09
 83.00388     75.3 2.108e+04 8.502e-09
 83.01042     71.7 2.325e+04 1.317e-08
 83.02091     67.5 2.404e+04 2.069e-08
 83.02804     63.7 2.248e+04 2.522e-08
 83.03087     61.7 2.262e+04 2.748e-08
 83.03423     64.6 2.370e+04 3.076e-08
 83.04190     61.0 2.194e+04 2.743e-08
 83.05220     57.2 2.099e+04 1.797e-08
 83.05745     53.9 2.114e+04 1.334e-08
 83.06288     46.8 2.067e+04 5.556e-09
 83.07338     38.1 1.918e+04 2.310e-09
 83.08161     29.8 1.632e+04 1.166e-09
 83.08686     26.0 1.432e+04 9.181e-10
 83.09437     24.7 1.385e+04 8.506e-10
 83.11016     19.9 1.160e+04 6.431e-10
 83.13004     19.6 1.017e+04 5.685e-10
 83.14053     20.7 9.840e+03 4.829e-10
 83.15218     21.8 9.813e+03 4.862e-10
 83.17317     23.1 9.829e+03 5.143e-10
 83.18885     24.2 1.001e+04 5.776e-10
 83.19935     24.8 9.762e+03 5.118e-10
 83.21514     25.6 1.000e+04 5.891e-10
 83.23613     25.8 1.032e+04 7.060e-10
 83.24767     26.0 1.080e+04 8.956e-10
 83.25817     26.9 1.052e+04 7.751e-10
 83.27231     26.9 1.107e+04 1.002e-09
 83.28280     26.4 1.186e+04 1.454e-09
 83.29600     26.7 1.232e+04 1.816e-09
 83.30649     27.5 1.191e+04 1.532e-09
 83.32008     27.6 1.224e+04 1.814e-09
 83.34107     27.5 1.247e+04 1.959e-09
 83.35481     27.3 1.256e+04 1.962e-09
 83.36531     27.9 1.226e+04 1.812e-09
 83.38304     27.6 1.227e+04 1.793e-09
 83.40314     27.2 1.225e+04 1.715e-09
 83.41363     28.2 1.193e+04 1.577e-09
 83.42502     27.9 1.181e+04 1.404e-09
 83.44601     27.5 1.168e+04 1.218e-09
 83.46196     26.6 1.157e+04 1.045e-09
 83.47245     27.4 1.123e+04 8.599e-10
 83.49857     26.3 1.120e+04 8.275e-10
 83.54065     25.5 1.140e+04 9.334e-10
 83.56920     26.0 1.158e+04 1.049e-09
 83.57959     27.1 1.143e+04 9.931e-10
 83.59292     26.6 1.192e+04 1.248e-09
 83.61391     26.1 1.248e+04 1.596e-09
 83.62792     25.4 1.311e+04 2.083e-09
 83.63841     26.1 1.309e+04 2.104e-09
 83.65588     25.2 1.377e+04 2.791e-09
 83.67624     24.5 1.436e+04 3.674e-09
 83.68673     25.1 1.434e+04 3.711e-09
 83.69786     25.0 1.483e+04 4.678e-09
 83.71885     24.9 1.495e+04 4.974e-09
 83.73506     25.0 1.485e+04 4.809e-09
 83.74555     25.7 1.489e+04 4.930e-09
 83.75876     25.9 1.452e+04 4.220e-09
 83.76926     26.0 1.448e+04 4.156e-09
 83.78181     25.8 1.367e+04 2.723e-09
 83.79388     25.6 1.292e+04 1.798e-09
 83.80437     26.1 1.300e+04 1.871e-09
 83.83438     26.0 1.192e+04 1.008e-09
 83.87645     25.7 1.091e+04 5.014e-10
 83.90121     26.0 1.037e+04 3.206e-10
 83.92220     27.3 1.061e+04 4.351e-10
 83.96040     28.0 1.031e+04 3.287e-10
 83.99786     29.0 1.017e+04 2.736e-10
 84.01885     29.9 1.027e+04 3.206e-10
 84.04435     30.7 1.019e+04 2.707e-10
 84.08632     31.6 1.017e+04 2.480e-10
 84.11550     32.5 1.016e+04 2.473e-10
 84.13648     33.0 1.015e+04 2.487e-10
 84.17028     33.9 1.006e+04 2.504e-10
 84.21214     34.9 9.967e+03 2.488e-10
 84.24531     36.5 9.595e+03 1.823e-10
 84.26640     37.4 9.649e+03 1.757e-10
 84.29620     38.2 9.618e+03 1.856e-10
 84.32978     39.0 9.656e+03 2.045e-10
 84.35077     39.6 9.407e+03 1.609e-10
 84.38015     40.3 9.561e+03 2.009e-10
 84.42213     41.0 9.833e+03 2.665e-10
 84.44742     41.4 1.011e+04 3.439e-10
 84.46840     42.3 9.936e+03 3.045e-10
 84.50608     42.5 1.016e+04 3.619e-10
 84.54406     42.3 1.018e+04 3.635e-10
 84.56505     43.5 1.007e+04 3.466e-10
 84.59003     43.6 9.960e+03 3.280e-10
 84.63200     43.6 9.792e+03 2.863e-10
 84.66170     43.3 9.669e+03 2.383e-10
 84.68269     44.5 9.711e+03 2.680e-10
 84.71595     44.1 9.701e+03 2.529e-10
 84.74236     43.5 9.743e+03 2.567e-10
 84.76335     43.2 1.006e+04 3.224e-10
 84.77934     42.2 1.018e+04 3.403e-10
 84.80032     43.4 1.046e+04 4.698e-10
 84.84188     42.0 1.069e+04 5.230e-10
 84.87598     40.4 1.087e+04 5.716e-10
 84.89697     41.6 1.103e+04 6.517e-10
 84.92583     39.8 1.099e+04 5.933e-10
 84.96780     37.7 1.091e+04 5.433e-10
 84.99362     36.2 1.084e+04 5.398e-10
 85.00402     37.1 1.094e+04 5.404e-10
 85.02008     35.9 1.097e+04 5.468e-10
 85.04107     34.6 1.107e+04 5.879e-10
 85.05224     33.4 1.123e+04 6.915e-10
 85.06274     33.6 1.134e+04 7.519e-10
 85.08304     33.0 1.149e+04 8.921e-10
 85.10057     32.8 1.165e+04 1.034e-09
 85.11106     33.1 1.172e+04 1.072e-09
 85.12502     32.8 1.192e+04 1.193e-09
 85.14600     32.4 1.208e+04 1.262e-09
 85.15939     31.9 1.207e+04 1.251e-09
 85.16988     32.2 1.200e+04 1.247e-09
 85.18798     32.3 1.184e+04 1.163e-09
 85.20771     32.4 1.156e+04 9.748e-10
 85.21820     32.9 1.138e+04 9.052e-10
 85.22862     32.8 1.115e+04 6.808e-10
 85.23911     31.8 1.119e+04 6.582e-10
 85.25094     30.3 1.169e+04 7.071e-10
 85.26653     24.1 1.433e+04 1.211e-09
 85.27702     26.1 1.334e+04 8.704e-10
 85.29292     19.2 1.513e+04 2.459e-09
 85.31391     19.1 1.566e+04 5.914e-09
 85.32535     19.6 1.607e+04 7.688e-09
 85.33584     20.1 1.559e+04 6.451e-09
 85.35588     20.2 1.572e+04 6.254e-09
 85.37367     19.6 1.605e+04 4.647e-09
 85.38416     20.3 1.562e+04 4.347e-09
 85.39786     17.9 1.561e+04 2.404e-09
 85.41884     13.3 1.381e+04 1.150e-09
 85.43249      9.8 1.121e+04 7.142e-10
 85.44298     10.6 1.124e+04 6.338e-10
 85.46082      9.5 1.051e+04 5.067e-10
 85.47709      9.4 1.056e+04 4.764e-10
 85.48659      8.5 1.056e+04 4.561e-10
 85.49131      8.5 1.032e+04 3.960e-10
 85.50279      7.8 1.046e+04 4.139e-10
 85.52378      6.6 1.071e+04 4.794e-10
 85.53963      5.2 1.111e+04 6.547e-10
 85.55012      5.0 1.105e+04 6.464e-10
 85.56576      3.0 1.186e+04 1.067e-09
 85.58674      1.5 1.261e+04 1.762e-09
 85.59845     -0.5 1.380e+04 2.746e-09
 85.60894     -0.9 1.385e+04 3.083e-09
 85.62872     -5.5 1.721e+04 5.843e-09
 85.64677     -9.3 1.650e+04 6.459e-09
 85.65726     -8.1 1.606e+04 5.438e-09
 85.67070     -9.6 1.447e+04 4.120e-09
 85.69168    -11.2 1.314e+04 2.555e-09
 85.70559    -13.8 1.238e+04 1.311e-09
 85.71608    -14.2 1.179e+04 1.053e-09
 85.72556    -17.9 1.044e+04 5.909e-10
 85.73606    -17.5 1.076e+04 6.923e-10
 85.75391    -19.8 9.864e+03 4.075e-10
 85.76441    -19.0 9.834e+03 4.050e-10
 85.77563    -21.2 9.317e+03 3.269e-10
 85.79662    -22.4 9.247e+03 2.920e-10
 85.81273    -23.3 9.337e+03 3.134e-10
 85.82322    -21.9 9.280e+03 3.041e-10
 85.83860    -22.7 9.185e+03 3.273e-10
 85.85958    -22.8 9.291e+03 3.448e-10
 85.87155    -22.5 9.507e+03 3.898e-10
 85.89263    -21.5 9.235e+03 3.267e-10
 85.93324    -20.4 9.203e+03 3.039e-10
 85.96839    -18.9 8.963e+03 2.576e-10
 85.98938    -17.4 8.702e+03 1.916e-10
 86.01719    -15.9 8.442e+03 1.442e-10
 86.05916    -14.4 8.334e+03 1.101e-10
 86.08603    -13.5 8.371e+03 1.011e-10
 86.10702    -12.7 8.271e+03 8.269e-11
 86.14311    -12.5 8.342e+03 9.520e-11
 86.18268    -13.4 8.630e+03 1.568e-10
 86.20366    -12.6 8.556e+03 1.436e-10
 86.21221    -14.1 9.424e+03 2.861e-10
 86.23320    -11.7 8.882e+03 2.363e-10
 86.26904    -11.7 9.485e+03 4.567e-10
 86.30031    -10.7 9.906e+03 6.300e-10
 86.32130    -10.2 9.872e+03 6.355e-10
 86.35299     -9.1 9.830e+03 5.863e-10
 86.39496     -8.0 9.456e+03 4.529e-10
 86.41795     -6.9 9.081e+03 3.194e-10
 86.43894     -6.8 8.987e+03 3.120e-10
 86.47891     -6.0 8.749e+03 2.481e-10
 86.51460     -4.2 8.664e+03 2.431e-10
 86.53558     -6.1 8.865e+03 2.697e-10
 86.56286     -8.3 1.062e+04 5.857e-10
 86.59425    -11.6 1.318e+04 1.412e-09
 86.61514    -13.1 1.454e+04 2.882e-09
 86.63204    -13.5 1.550e+04 4.941e-09
 86.64253    -16.0 1.629e+04 6.666e-09
 86.65711    -17.1 1.711e+04 7.379e-09
 86.67810    -19.4 1.833e+04 6.794e-09
 86.69081    -24.4 1.891e+04 3.475e-09
 86.70068    -31.8 1.619e+04 1.949e-09
 86.70891    -28.9 1.730e+04 2.551e-09
 86.72003    -39.0 1.392e+04 1.460e-09
 86.73918    -46.9 1.163e+04 1.192e-09
 86.74967    -49.7 1.112e+04 1.081e-09
 86.76205    -51.5 1.101e+04 1.134e-09
 86.78304    -52.4 1.096e+04 1.213e-09
 86.79800    -52.8 1.109e+04 1.304e-09
 86.80849    -52.7 1.091e+04 1.200e-09
 86.82501    -52.9 1.097e+04 1.161e-09
 86.84600    -53.4 1.101e+04 1.123e-09
 86.85681    -53.9 1.107e+04 1.112e-09
 86.86731    -53.8 1.063e+04 9.160e-10
 86.88798    -54.0 1.064e+04 9.219e-10
 86.90514    -54.1 1.070e+04 9.862e-10
 86.91563    -53.6 1.029e+04 8.154e-10
 86.92995    -53.2 1.041e+04 8.970e-10
 86.94694    -52.6 1.052e+04 9.692e-10
 86.95743    -51.4 1.040e+04 9.110e-10
 86.96396    -50.7 1.053e+04 9.988e-10
 86.97445    -50.0 1.019e+04 8.401e-10
 86.99292    -49.1 1.029e+04 9.073e-10
 87.01228    -48.0 1.035e+04 9.426e-10
 87.02277    -47.3 1.008e+04 8.159e-10
 87.03489    -46.2 1.011e+04 8.255e-10
 87.05588    -45.1 1.015e+04 7.919e-10
 87.07110    -44.0 1.006e+04 6.797e-10
 87.08159    -43.2 9.844e+03 6.280e-10
 87.10845    -42.0 9.424e+03 4.511e-10
 87.15052    -40.0 9.073e+03 3.717e-10
 87.17844    -37.9 8.722e+03 3.117e-10
 87.19205    -36.2 8.874e+03 3.519e-10
 87.20610    -34.5 9.307e+03 4.480e-10
 87.23447    -32.5 9.153e+03 4.183e-10
 87.27508    -30.9 9.077e+03 3.904e-10
 87.29607    -28.9 9.284e+03 4.485e-10
 87.31842    -28.0 9.271e+03 4.623e-10
 87.34430    -28.1 9.086e+03 4.277e-10
 87.35469    -27.4 9.186e+03 4.557e-10
 87.37069    -27.3 9.178e+03 4.573e-10
 87.39168    -26.6 9.055e+03 4.616e-10
 87.40302    -26.5 8.951e+03 4.520e-10
 87.41351    -24.9 9.169e+03 4.855e-10
 87.43339    -24.1 8.837e+03 4.513e-10
 87.44389    -23.6 9.205e+03 5.515e-10
 87.45134    -23.3 8.902e+03 5.026e-10
 87.46184    -22.2 9.095e+03 5.255e-10
 87.48622    -22.4 8.648e+03 4.153e-10
 87.51036    -22.1 8.571e+03 3.526e-10
 87.53134    -20.3 8.558e+03 3.808e-10
 87.57027    -21.0 8.694e+03 3.725e-10
 87.60165    -21.3 8.863e+03 4.369e-10
 87.61730    -21.6 8.853e+03 4.538e-10
 87.62780    -20.2 9.103e+03 5.308e-10
 87.64353    -20.3 9.174e+03 5.882e-10
 87.66452    -20.1 9.266e+03 6.298e-10
 87.67612    -19.9 9.371e+03 6.563e-10
 87.68297    -18.8 9.488e+03 7.116e-10
 87.69236    -18.6 9.698e+03 7.906e-10
 87.70650    -18.4 9.813e+03 8.098e-10
 87.72444    -18.4 9.888e+03 7.959e-10
 87.73494    -17.2 9.992e+03 8.492e-10
 87.74847    -17.3 9.985e+03 8.218e-10
 87.76946    -17.4 9.952e+03 7.923e-10
 87.78326    -17.5 1.007e+04 8.097e-10
 87.79376    -16.2 1.003e+04 8.037e-10
 87.81143    -16.5 1.025e+04 8.384e-10
 87.83159    -17.2 1.074e+04 1.006e-09
 87.84208    -16.0 1.065e+04 9.402e-10
 87.85341    -17.2 1.126e+04 1.244e-09
 87.87440    -18.4 1.172e+04 1.679e-09
 87.89040    -18.7 1.213e+04 2.197e-09
 87.90090    -18.0 1.218e+04 2.218e-09
 87.91637    -18.1 1.239e+04 2.664e-09
 87.93034    -17.7 1.261e+04 2.972e-09
 87.94083    -17.3 1.298e+04 3.535e-09
 87.94922    -16.6 1.328e+04 3.780e-09
 87.95972    -15.9 1.328e+04 3.854e-09
 87.97933    -15.5 1.342e+04 3.556e-09
 87.99755    -15.5 1.331e+04 2.688e-09
 88.00804    -14.8 1.317e+04 2.764e-09
 88.02131    -16.0 1.276e+04 1.901e-09
 88.04230    -18.4 1.145e+04 1.126e-09
 88.05636    -20.2 1.053e+04 8.373e-10
 88.06686    -19.0 1.056e+04 8.091e-10
 88.08427    -19.8 1.009e+04 6.781e-10
 88.10469    -19.6 1.007e+04 6.612e-10
 88.11518    -18.9 9.965e+03 5.907e-10
 88.12625    -18.8 9.984e+03 5.804e-10
 88.14724    -18.8 9.989e+03 5.784e-10
 88.16351    -18.8 1.010e+04 5.845e-10
 88.17400    -18.1 1.002e+04 5.291e-10
 88.18921    -18.3 1.025e+04 6.502e-10
 88.21020    -18.3 1.047e+04 7.600e-10
 88.22232    -18.2 1.083e+04 9.181e-10
 88.23282    -17.2 1.052e+04 8.081e-10
 88.25217    -16.9 1.087e+04 9.637e-10
 88.27065    -16.6 1.122e+04 1.120e-09
 88.28114    -15.6 1.082e+04 9.357e-10
 88.29415    -15.2 1.107e+04 1.030e-09
 88.31514    -15.0 1.126e+04 1.091e-09
 88.32947    -15.0 1.127e+04 1.107e-09
 88.33996    -14.0 1.076e+04 8.949e-10
 88.35711    -13.7 1.091e+04 9.499e-10
 88.37779    -13.3 1.107e+04 1.035e-09
 88.38828    -12.4 1.060e+04 8.405e-10
 88.39909    -11.5 1.077e+04 9.579e-10
 88.41679    -11.0 1.085e+04 9.940e-10
 88.42729    -11.1 1.130e+04 1.225e-09
 88.43661    -10.5 1.125e+04 1.253e-09
 88.44710     -9.1 1.102e+04 1.109e-09
 88.46205     -8.5 1.103e+04 1.122e-09
 88.48304     -7.9 1.087e+04 1.086e-09
 88.49543     -7.3 1.070e+04 1.011e-09
 88.50592     -6.0 1.058e+04 9.056e-10
 88.52501     -5.6 1.045e+04 8.864e-10
 88.54375     -5.3 1.037e+04 8.773e-10
 88.55424     -3.9 1.032e+04 7.688e-10
 88.56699     -3.6 1.028e+04 7.935e-10
 88.58798     -3.3 1.023e+04 8.351e-10
 88.60257     -2.7 1.025e+04 8.894e-10
 88.61306     -1.4 1.018e+04 7.890e-10
 88.62995     -0.8 1.018e+04 8.586e-10
 88.65089     -0.1 1.033e+04 9.282e-10
 88.66522      2.0 1.029e+04 8.723e-10
 88.67576      1.9 1.044e+04 9.350e-10
 88.69291      2.4 1.081e+04 1.006e-09
 88.70971      2.7 1.125e+04 1.047e-09
 88.72020      4.7 1.056e+04 8.798e-10
 88.73489      5.1 1.082e+04 9.315e-10
 88.75588      5.7 1.116e+04 9.955e-10
 88.76853      5.8 1.126e+04 1.002e-09
 88.77902      7.9 1.110e+04 9.262e-10
 88.79785      8.0 1.136e+04 9.984e-10
 88.81685      6.7 1.238e+04 1.246e-09
 88.82735     10.7 1.174e+04 1.067e-09
 88.83983      6.9 1.436e+04 1.782e-09
 88.86081      2.2 1.623e+04 3.822e-09
 88.87567     -0.4 1.683e+04 6.448e-09
 88.88616      2.1 1.785e+04 6.607e-09
 88.89749     -0.1 1.760e+04 8.535e-09
 88.90498     -0.9 1.787e+04 8.585e-09
 88.91023      0.6 1.816e+04 1.010e-08
 88.91364     -2.2 1.832e+04 8.915e-09
 88.91889     -3.6 1.911e+04 9.225e-09
 88.92893     -8.7 2.145e+04 5.944e-09
 88.93439    -18.4 1.898e+04 3.126e-09
 88.93964    -17.2 2.298e+04 5.165e-09
 88.94991    -27.7 1.930e+04 3.564e-09
 88.95855    -35.9 1.694e+04 3.214e-09
 88.96380    -37.3 1.687e+04 3.957e-09
 88.97090    -40.5 1.585e+04 3.957e-09
 88.98276    -42.5 1.494e+04 4.646e-09
 88.99331    -44.1 1.506e+04 5.530e-09
 89.00773    -44.7 1.491e+04 5.668e-09
 89.02872    -44.6 1.516e+04 5.976e-09
 89.04163    -44.8 1.585e+04 6.210e-09
 89.05212    -46.9 1.599e+04 3.209e-09
 89.07069    -47.9 1.659e+04 2.597e-09
 89.08995    -49.7 1.678e+04 2.117e-09
 89.10045    -55.4 1.253e+04 6.020e-10
 89.11267    -57.0 1.102e+04 5.649e-10
 89.13365    -57.8 1.007e+04 6.664e-10
 89.14877    -57.5 1.037e+04 8.473e-10
 89.15634    -57.3 9.542e+03 5.297e-10
 89.16221    -57.9 9.743e+03 6.005e-10
 89.17563    -57.1 1.004e+04 7.298e-10
 89.19662    -56.0 1.031e+04 8.601e-10
 89.20759    -55.0 1.057e+04 9.843e-10
 89.21808    -55.1 1.013e+04 7.132e-10
 89.23859    -54.2 1.035e+04 8.246e-10
 89.25591    -53.3 1.058e+04 9.303e-10
 89.26641    -53.0 9.901e+03 5.158e-10
 89.28057    -52.1 1.009e+04 6.267e-10
 89.30155    -51.7 1.031e+04 6.738e-10
 89.33313    -51.5 1.069e+04 7.727e-10
 89.36325    -50.8 1.171e+04 1.210e-09
 89.38424    -50.1 1.007e+04 4.545e-10
 89.41718    -49.9 1.072e+04 5.676e-10
 89.45916    -50.1 1.108e+04 7.223e-10
 89.48089    -50.3 1.105e+04 7.987e-10
 89.50188    -50.1 1.000e+04 5.077e-10
 89.54311    -49.9 1.031e+04 6.420e-10
 89.57754    -49.7 1.035e+04 6.606e-10
 89.59852    -49.0 1.092e+04 9.019e-10
 89.62706    -48.9 1.103e+04 9.335e-10
 89.64886    -48.8 1.085e+04 8.105e-10
 89.66985    -49.5 9.869e+03 4.742e-10
 89.69517    -49.2 9.822e+03 4.657e-10
 89.71616    -48.1 1.051e+04 7.291e-10
 89.74239    -47.7 1.032e+04 6.348e-10
 89.75379    -47.2 1.025e+04 6.040e-10
 89.76429    -46.8 1.035e+04 6.297e-10
 89.78427    -46.5 1.030e+04 5.868e-10
 89.80212    -46.3 1.026e+04 5.533e-10
 89.81261    -46.2 1.031e+04 5.581e-10
 89.83684    -46.0 1.028e+04 5.386e-10
 89.87891    -45.3 1.032e+04 5.397e-10
 89.90946    -44.7 1.055e+04 6.073e-10
 89.91985    -45.0 1.061e+04 6.172e-10
 89.93118    -44.7 1.080e+04 7.069e-10
 89.96276    -44.0 1.107e+04 8.421e-10
 90.00484    -43.0 1.131e+04 1.000e-09
 90.02709    -42.1 1.140e+04 1.068e-09
 90.03749    -42.4 1.168e+04 1.253e-09
 90.05711    -42.1 1.172e+04 1.279e-09
 90.07522    -41.6 1.172e+04 1.290e-09
 90.08571    -41.8 1.198e+04 1.455e-09
 90.09908    -41.4 1.188e+04 1.442e-09
 90.12007    -41.0 1.179e+04 1.397e-09
 90.13404    -40.7 1.174e+04 1.354e-09
 90.13859    -40.9 1.186e+04 1.426e-09
 90.14561    -41.4 1.162e+04 1.260e-09
 90.16205    -41.1 1.162e+04 1.239e-09
 90.18236    -40.9 1.164e+04 1.229e-09
 90.19286    -41.4 1.164e+04 1.191e-09
 90.20402    -41.4 1.163e+04 1.160e-09
 90.22501    -41.3 1.161e+04 1.141e-09
 90.24128    -41.1 1.168e+04 1.151e-09
 90.26236    -42.4 1.107e+04 6.718e-10
 90.29866    -42.5 1.093e+04 5.766e-10
 90.33802    -42.5 1.065e+04 4.529e-10
 90.35901    -44.3 1.006e+04 1.940e-10
 90.38261    -44.4 9.851e+03 1.466e-10
 90.42459    -44.4 9.798e+03 1.334e-10
 90.45566    -44.0 9.744e+03 1.348e-10
 90.47665    -45.0 9.533e+03 1.463e-10
 90.50854    -43.7 9.486e+03 1.760e-10
 90.55051    -42.1 9.490e+03 1.900e-10
 90.57330    -40.5 9.503e+03 1.910e-10
 90.59428    -40.5 9.329e+03 1.661e-10
 90.62177    -38.9 9.304e+03 1.413e-10
 90.64275    -40.0 9.345e+03 1.216e-10
 90.66994    -38.6 9.402e+03 1.100e-10
 90.69093    -38.9 9.298e+03 1.008e-10
 90.71841    -37.6 9.282e+03 1.019e-10
 90.76039    -36.2 9.274e+03 1.156e-10
 90.78758    -34.8 9.321e+03 1.367e-10
 90.80857    -34.7 9.052e+03 1.526e-10
 90.84434    -33.0 9.114e+03 1.698e-10
 90.88423    -31.4 9.223e+03 1.832e-10
 90.90522    -31.6 9.394e+03 1.506e-10
 90.92829    -30.9 9.637e+03 1.519e-10
 90.97027    -31.0 1.013e+04 1.552e-10
 91.00186    -32.1 1.042e+04 2.468e-10
 91.02285    -31.2 9.706e+03 1.851e-10
 91.05422    -32.1 1.021e+04 3.053e-10
 91.09619    -33.1 1.130e+04 6.648e-10
 91.11871    -33.2 1.255e+04 1.348e-09
 91.12103    -33.7 1.300e+04 1.565e-09
 91.14049    -31.4 1.150e+04 7.989e-10
 91.18014    -30.7 1.269e+04 1.346e-09
 91.21153    -29.2 1.327e+04 1.600e-09
 91.22645    -30.5 1.459e+04 1.823e-09
 91.23694    -29.3 1.451e+04 1.767e-09
 91.25340    -31.9 1.690e+04 2.504e-09
 91.27439    -36.1 1.765e+04 3.959e-09
 91.28526    -39.2 1.678e+04 5.729e-09
 91.29576    -37.5 1.856e+04 7.544e-09
 91.31637    -39.7 1.790e+04 8.378e-09
 91.33359    -41.4 1.663e+04 8.023e-09
 91.34408    -40.0 1.914e+04 1.081e-08
 91.35650    -42.2 1.645e+04 6.385e-09
 91.36699    -41.5 1.641e+04 5.804e-09
 91.37933    -43.6 1.460e+04 3.603e-09
 91.39241    -44.6 1.348e+04 2.471e-09
 91.40290    -44.6 1.368e+04 2.583e-09
 91.42131    -44.7 1.308e+04 1.913e-09
 91.44073    -44.7 1.261e+04 1.379e-09
 91.45122    -44.3 1.280e+04 1.545e-09
 91.46328    -44.3 1.237e+04 1.142e-09
 91.48427    -44.4 1.198e+04 8.945e-10
 91.49955    -44.3 1.167e+04 7.587e-10
 91.51004    -43.7 1.182e+04 8.510e-10
 91.52624    -43.5 1.159e+04 7.713e-10
 91.54723    -43.1 1.144e+04 7.315e-10
 91.55837    -42.5 1.136e+04 7.122e-10
 91.56886    -41.9 1.149e+04 7.883e-10
 91.58921    -41.2 1.146e+04 7.795e-10
 91.60497    -40.6 1.141e+04 7.690e-10
 91.61196    -40.5 1.135e+04 7.256e-10
 91.61718    -40.0 1.147e+04 7.999e-10
 91.63118    -39.3 1.131e+04 7.551e-10
 91.65217    -38.4 1.113e+04 6.973e-10
 91.66551    -37.5 1.093e+04 6.136e-10
 91.67600    -37.0 1.112e+04 7.232e-10
 91.69414    -36.0 1.094e+04 6.183e-10
 91.71383    -35.1 1.078e+04 5.049e-10
 91.72433    -34.5 1.091e+04 6.144e-10
 91.73612    -33.6 1.075e+04 4.934e-10
 91.76225    -33.0 1.055e+04 3.846e-10
 91.78324    -31.5 1.061e+04 4.435e-10
 91.80967    -30.2 1.056e+04 4.082e-10
 91.85175    -28.7 1.039e+04 3.473e-10
 91.87999    -27.4 1.019e+04 2.899e-10
 91.90098    -26.4 1.060e+04 4.480e-10
 91.93570    -25.0 1.048e+04 4.031e-10
 91.97664    -24.1 1.048e+04 3.610e-10
 91.99762    -22.6 1.109e+04 5.988e-10
 92.01965    -22.1 1.097e+04 4.807e-10
 92.06162    -22.2 1.087e+04 4.087e-10
 92.09162    -22.5 1.079e+04 3.890e-10
 92.10328    -22.5 1.076e+04 4.392e-10
 92.11526    -21.6 1.130e+04 6.796e-10
 92.14557    -21.8 1.115e+04 6.435e-10
 92.18755    -21.8 1.103e+04 5.556e-10
 92.21191    -22.0 1.078e+04 4.287e-10
 92.22230    -21.6 1.091e+04 4.938e-10
 92.23982    -21.7 1.088e+04 4.383e-10
 92.27140    -22.3 1.089e+04 3.388e-10
 92.30856    -23.0 1.072e+04 2.933e-10
 92.32954    -23.3 1.084e+04 2.917e-10
 92.35545    -23.7 1.070e+04 2.814e-10
 92.39743    -23.9 1.070e+04 3.012e-10
 92.42619    -24.3 1.083e+04 3.536e-10
 92.43659    -24.6 1.096e+04 3.673e-10
 92.44970    -24.9 1.100e+04 4.027e-10
 92.47069    -25.1 1.104e+04 4.645e-10
 92.48481    -25.0 1.112e+04 5.036e-10
 92.49531    -25.1 1.119e+04 5.422e-10
 92.51266    -25.0 1.119e+04 5.492e-10
 92.53314    -24.8 1.113e+04 5.157e-10
 92.54363    -24.8 1.110e+04 4.877e-10
 92.56523    -24.6 1.099e+04 4.123e-10
 92.58856    -24.2 1.068e+04 2.878e-10
 92.60955    -24.0 1.047e+04 2.020e-10
 92.64048    -23.4 1.031e+04 1.382e-10
 92.66146    -23.5 1.017e+04 9.429e-11
 92.69125    -22.8 1.011e+04 8.067e-11
 92.73323    -21.9 1.011e+04 7.985e-11
 92.75811    -21.0 1.014e+04 9.557e-11
 92.77910    -20.4 9.993e+03 7.390e-11
 92.81718    -19.6 1.007e+04 8.727e-11
 92.85476    -18.6 1.002e+04 1.131e-10
 92.87575    -18.1 1.002e+04 1.120e-10
 92.90113    -17.1 1.001e+04 1.513e-10
 92.94310    -16.1 1.010e+04 2.100e-10
 92.97240    -15.4 1.030e+04 2.991e-10
 92.99338    -14.9 1.050e+04 3.783e-10
 93.02705    -14.4 1.089e+04 5.568e-10
 93.06452    -14.3 1.137e+04 7.828e-10
 93.08551    -14.3 1.138e+04 7.246e-10
 93.11100    -14.7 1.224e+04 1.238e-09
 93.13826    -15.4 1.221e+04 1.260e-09
 93.14865    -15.5 1.234e+04 1.323e-09
 93.16328    -15.7 1.232e+04 1.320e-09
 93.18427    -16.1 1.201e+04 1.182e-09
 93.19698    -16.2 1.176e+04 1.035e-09
 93.20747    -16.2 1.173e+04 1.011e-09
 93.22624    -16.4 1.137e+04 8.125e-10
 93.24530    -16.4 1.117e+04 7.023e-10
 93.25580    -16.5 1.115e+04 6.931e-10
 93.27881    -16.5 1.087e+04 5.673e-10
 93.30432    -15.7 1.047e+04 3.975e-10
 93.32530    -15.3 1.044e+04 3.687e-10
 93.36286    -14.2 1.015e+04 2.772e-10
 93.40096    -13.0 1.000e+04 2.365e-10
 93.42195    -12.5 1.001e+04 2.422e-10
 93.44681    -11.0 9.954e+03 2.287e-10
 93.48878     -9.5 9.891e+03 2.206e-10
 93.51860     -7.9 9.798e+03 2.091e-10
 93.53959     -7.1 9.890e+03 2.251e-10
 93.56147     -5.5 9.799e+03 2.180e-10
 93.58246     -5.6 9.813e+03 2.183e-10
 93.61471     -3.9 9.697e+03 1.978e-10
 93.63624     -2.3 9.584e+03 1.673e-10
 93.65722     -1.4 9.709e+03 2.005e-10
 93.69866      0.2 9.648e+03 1.631e-10
 93.73288      1.5 9.595e+03 1.382e-10
 93.75387      2.2 9.728e+03 1.701e-10
 93.78261      3.2 9.728e+03 1.629e-10
 93.82458      3.9 1.000e+04 1.889e-10
 93.85052      4.2 1.020e+04 2.852e-10
 93.87151      4.6 1.038e+04 3.608e-10
 93.90853      5.8 1.053e+04 4.859e-10
 93.94717      7.5 1.073e+04 5.696e-10
 93.96816      7.5 1.084e+04 5.073e-10
 93.99248      8.3 1.090e+04 3.192e-10
 94.03446      7.9 1.069e+04 1.903e-10
 94.05842      7.4 1.032e+04 1.650e-10
 94.06777      7.1 1.002e+04 1.598e-10
 94.08579      7.2 1.000e+04 1.761e-10
 94.11841      8.7 9.987e+03 1.704e-10
 94.16039     10.3 1.001e+04 1.584e-10
 94.18244     11.7 1.016e+04 1.354e-10
 94.20343     11.9 1.018e+04 1.371e-10
 94.24434     12.9 1.028e+04 1.287e-10
 94.27909     13.6 1.058e+04 1.420e-10
 94.30008     12.9 1.079e+04 1.912e-10
 94.32829     13.7 1.100e+04 3.144e-10
 94.37026     15.2 1.141e+04 4.890e-10
 94.39672     16.3 1.197e+04 6.705e-10
 94.41771     15.8 1.241e+04 1.093e-09
 94.45421     15.6 1.290e+04 1.119e-09
 94.49337     15.1 1.336e+04 1.513e-09
 94.51436     14.6 1.317e+04 1.189e-09
 94.53438     15.4 1.336e+04 1.281e-09
 94.55536     14.5 1.248e+04 4.710e-10
 94.58014     14.7 1.240e+04 5.836e-10
 94.61101     14.8 1.324e+04 7.412e-10
 94.63200     14.4 1.336e+04 3.085e-10
 94.65350     12.9 1.354e+04 6.528e-10
 94.66963     10.5 1.462e+04 1.210e-09
 94.68012      8.6 1.468e+04 1.153e-09
 94.69538      7.0 1.662e+04 2.277e-09
 94.71636      2.4 1.781e+04 7.968e-09
 94.72845      1.7 1.835e+04 2.486e-08
 94.73894      2.5 1.709e+04 1.866e-08
 94.75834      4.2 1.810e+04 2.767e-08
 94.77677      4.7 1.880e+04 2.323e-08
 94.78727      3.9 1.796e+04 1.334e-08
 94.79315      1.7 1.814e+04 5.318e-09
 94.80364     -0.0 1.713e+04 3.850e-09
 94.82130     -7.0 1.453e+04 1.601e-09
 94.83559     -9.6 1.344e+04 1.110e-09
 94.84608     -9.0 1.337e+04 1.207e-09
 94.86328     -9.6 1.325e+04 1.078e-09
 94.88391    -10.3 1.328e+04 1.027e-09
 94.89441     -9.9 1.333e+04 1.169e-09
 94.91584    -11.3 1.330e+04 1.013e-09
 94.94293    -13.7 1.332e+04 9.707e-10
 94.96392    -12.1 1.366e+04 1.506e-09
 94.99989    -14.5 1.354e+04 1.415e-09
 95.03132    -16.7 1.321e+04 1.226e-09
 95.05002    -16.0 1.303e+04 9.033e-10
 95.06056    -14.4 1.311e+04 9.421e-10
 95.08384    -16.1 1.271e+04 7.766e-10
 95.12582    -16.9 1.217e+04 5.399e-10
 95.15721    -17.2 1.175e+04 2.816e-10
 95.17820    -15.5 1.186e+04 3.529e-10
 95.20977    -15.8 1.154e+04 1.560e-10
 95.25174    -16.4 1.147e+04 8.906e-11
 95.27485    -16.8 1.146e+04 7.786e-11
 95.29584    -15.1 1.144e+04 1.032e-10
 95.33569    -15.2 1.152e+04 1.100e-10
 95.37150    -15.1 1.132e+04 1.894e-10
 95.39248    -13.3 1.146e+04 2.441e-10
 95.41964    -12.8 1.142e+04 3.545e-10
 95.46162    -12.7 1.143e+04 3.913e-10
 95.48913    -13.6 1.118e+04 3.722e-10
 95.51012    -12.0 1.168e+04 5.192e-10
 95.52827    -12.6 1.134e+04 4.519e-10
 95.53867    -11.9 1.148e+04 5.072e-10
 95.54775    -12.1 1.141e+04 4.713e-10
 95.55825    -11.9 1.157e+04 5.548e-10
 95.57686    -12.7 1.112e+04 4.584e-10
 95.59608    -12.8 1.090e+04 4.185e-10
 95.60657    -12.3 1.103e+04 5.442e-10
 95.61883    -12.2 1.075e+04 4.468e-10
 95.63982    -12.0 1.061e+04 3.976e-10
 95.67140    -11.5 1.050e+04 3.400e-10
 95.70342    -11.1 1.008e+04 2.261e-10
 95.72440    -10.3 1.018e+04 2.538e-10
 95.75545     -8.9 9.741e+03 1.666e-10
 95.79742     -7.5 9.591e+03 1.459e-10
 95.82105     -5.8 9.491e+03 1.354e-10
 95.84204     -4.7 9.509e+03 1.334e-10
 95.88137     -2.8 9.420e+03 1.161e-10
 95.91770     -0.9 9.343e+03 9.544e-11
 95.93869      0.2 9.322e+03 9.426e-11
 95.96532      2.2 9.237e+03 7.911e-11
 96.00423      4.1 9.148e+03 6.955e-11
 96.02522      4.3 9.099e+03 6.139e-11
 96.03534      6.2 9.040e+03 5.673e-11
 96.05632      7.4 9.045e+03 5.896e-11
 96.09125      9.5 9.028e+03 5.746e-11
 96.13198     11.6 9.019e+03 5.896e-11
 96.15297     12.6 9.075e+03 6.362e-11
 96.17520     14.7 9.115e+03 6.849e-11
 96.21717     16.9 9.107e+03 7.563e-11
 96.24962     19.2 9.106e+03 8.149e-11
 96.27061     19.9 9.200e+03 1.103e-10
 96.30112     21.9 9.317e+03 1.252e-10
 96.34310     23.3 9.518e+03 1.501e-10
 96.36726     24.5 9.637e+03 2.049e-10
 96.38824     25.1 9.895e+03 3.028e-10
 96.42705     27.0 1.000e+04 4.092e-10
 96.46390     29.3 1.006e+04 4.376e-10
 96.48489     29.4 1.033e+04 5.429e-10
 96.50117     31.5 1.020e+04 3.731e-10
 96.52216     31.7 1.000e+04 3.217e-10
 96.55298     33.3 9.878e+03 1.832e-10
 96.58154     34.5 9.660e+03 1.174e-10
 96.60253     34.5 9.809e+03 1.653e-10
 96.63693     35.7 9.568e+03 1.237e-10
 96.67819     37.5 9.638e+03 1.193e-10
 96.69918     37.3 9.764e+03 1.591e-10
 96.72088     38.6 9.891e+03 1.899e-10
 96.76285     40.4 1.009e+04 2.568e-10
 96.79582     42.7 1.046e+04 3.203e-10
 96.81681     42.5 1.025e+04 2.793e-10
 96.84680     44.4 1.043e+04 2.671e-10
 96.88878     45.7 1.049e+04 2.531e-10
 96.91346     46.4 1.043e+04 2.856e-10
 96.93445     45.5 1.030e+04 2.792e-10
 96.96169     45.7 1.047e+04 3.494e-10
 96.97208     45.6 1.042e+04 3.427e-10
 96.98303     45.6 1.086e+04 4.035e-10
 96.99793     42.0 1.316e+04 6.951e-10
 97.00842     44.9 1.140e+04 4.441e-10
 97.02041     41.3 1.343e+04 8.706e-10
 97.03090     41.4 1.329e+04 8.913e-10
 97.04599     37.7 1.419e+04 1.993e-09
 97.06698     34.5 1.505e+04 3.928e-09
 97.07922     32.4 1.553e+04 5.973e-09
 97.08972     32.9 1.517e+04 5.446e-09
 97.10895     31.8 1.514e+04 6.329e-09
 97.12755     30.7 1.517e+04 5.013e-09
 97.13804     31.6 1.490e+04 4.324e-09
 97.15093     28.6 1.410e+04 2.666e-09
 97.17192     25.3 1.254e+04 1.620e-09
 97.18637     23.7 1.176e+04 1.214e-09
 97.19686     24.6 1.171e+04 1.197e-09
 97.22429     23.0 1.107e+04 8.628e-10
 97.26637     24.5 1.081e+04 7.417e-10
 97.30853     25.0 1.084e+04 6.635e-10
 97.34203     25.3 1.090e+04 6.036e-10
 97.36302     27.9 1.177e+04 9.996e-10
 97.38189     26.6 1.161e+04 9.385e-10
 97.40065     26.8 1.130e+04 9.703e-10
 97.41114     27.6 1.191e+04 1.358e-09
 97.42377     28.6 1.146e+04 1.284e-09
 97.44475     30.5 1.113e+04 1.017e-09
 97.45947     31.6 1.102e+04 6.046e-10
 97.46996     33.4 1.193e+04 1.134e-09
 97.48438     34.1 1.211e+04 5.178e-10
 97.49487     35.4 1.224e+04 1.087e-09
 97.50772     33.8 1.217e+04 4.352e-10
 97.52870     31.1 1.316e+04 4.846e-10
 97.54969     26.5 1.218e+04 3.753e-10
 97.56661     23.8 1.183e+04 5.142e-10
 97.57710     23.6 1.356e+04 1.105e-09
 97.59167     22.5 1.301e+04 1.566e-09
 97.61266     22.5 1.306e+04 2.022e-09
 97.62543     22.7 1.328e+04 2.206e-09
 97.63592     22.2 1.426e+04 2.959e-09
 97.65463     21.1 1.387e+04 2.259e-09
 97.67375     18.2 1.283e+04 1.450e-09
 97.68425     16.5 1.277e+04 1.406e-09
 97.69661     14.4 1.199e+04 1.071e-09
 97.71759     13.2 1.160e+04 9.146e-10
 97.73257     12.5 1.132e+04 8.355e-10
 97.73733     11.6 1.120e+04 8.154e-10
 97.74335     11.4 1.123e+04 8.325e-10
 97.75957     11.5 1.109e+04 8.045e-10
 97.78056     11.7 1.097e+04 7.724e-10
 97.79139     12.1 1.079e+04 7.154e-10
 97.80188     12.3 1.057e+04 6.188e-10
 97.82253     12.7 1.040e+04 5.105e-10
 97.85411     12.5 1.021e+04 3.694e-10
 97.88823     12.3 9.991e+03 2.953e-10
 97.90922     12.5 9.456e+03 2.086e-10
 97.93816     12.6 9.368e+03 1.993e-10
 97.97103     12.6 9.577e+03 2.375e-10
 97.99201     12.6 9.827e+03 2.728e-10
 98.00587     12.5 1.018e+04 4.060e-10
 98.02685     13.3 9.978e+03 3.657e-10
 98.05349     12.9 1.020e+04 4.486e-10
 98.06449     12.9 1.037e+04 5.376e-10
 98.07498     13.2 1.030e+04 4.979e-10
 98.09537     13.5 1.051e+04 6.035e-10
 98.11281     13.8 1.062e+04 6.248e-10
 98.12331     14.1 1.050e+04 5.735e-10
 98.13735     14.2 1.050e+04 5.615e-10
 98.15833     14.3 1.045e+04 5.038e-10
 98.18991     14.0 1.028e+04 4.155e-10
 98.22015     14.0 1.010e+04 3.737e-10
 98.24114     14.4 9.861e+03 3.209e-10
 98.27396     15.1 9.678e+03 2.823e-10
 98.31594     15.8 9.521e+03 2.325e-10
 98.33779     16.0 9.395e+03 1.970e-10
 98.35877     16.4 9.175e+03 1.694e-10
 98.39989     16.6 9.134e+03 1.679e-10
 98.43444     17.0 9.175e+03 1.973e-10
 98.45542     17.8 9.036e+03 1.853e-10
 98.46797     18.3 9.164e+03 2.078e-10
 98.48896     18.7 9.507e+03 2.670e-10
 98.52581     18.9 9.611e+03 2.736e-10
 98.55207     18.3 9.779e+03 2.690e-10
 98.57306     18.6 9.763e+03 2.964e-10
 98.59917     17.3 9.876e+03 3.231e-10
 98.61069     16.7 1.013e+04 3.625e-10
 98.62119     16.9 1.011e+04 3.899e-10
 98.64105     16.1 1.045e+04 5.193e-10
 98.65902     15.6 1.074e+04 6.074e-10
 98.66951     16.2 1.071e+04 6.186e-10
 98.68302     15.6 1.092e+04 7.140e-10
 98.70401     15.4 1.101e+04 7.393e-10
 98.71625     15.0 1.098e+04 7.554e-10
 98.71958     14.2 1.118e+04 8.296e-10
 98.72833     14.7 1.101e+04 7.540e-10
 98.74599     14.6 1.095e+04 7.103e-10
 98.76616     14.6 1.073e+04 6.442e-10
 98.77665     15.0 1.049e+04 5.586e-10
 98.78796     15.6 1.037e+04 4.898e-10
 98.81954     16.2 1.001e+04 3.607e-10
 98.86161     16.7 9.734e+03 2.937e-10
 98.88399     17.7 9.657e+03 2.822e-10
 98.90498     18.5 9.467e+03 2.494e-10
 98.94393     19.8 9.571e+03 2.788e-10
 98.96492     19.3 9.676e+03 2.961e-10
 98.98064     20.6 9.899e+03 3.618e-10
 99.00163     21.4 9.714e+03 3.151e-10
 99.02952     22.7 9.982e+03 3.923e-10
 99.07149     23.9 1.027e+04 5.012e-10
 99.09828     25.3 1.056e+04 6.290e-10
 99.11926     26.2 1.035e+04 5.548e-10
 99.15544     27.8 1.066e+04 6.690e-10
 99.19492     29.5 1.089e+04 7.126e-10
 99.21591     30.2 1.058e+04 5.863e-10
 99.23939     31.6 1.075e+04 6.103e-10
 99.28137     32.7 1.097e+04 6.689e-10
 99.31256     34.3 1.133e+04 8.997e-10
 99.33355     35.2 1.077e+04 5.944e-10
 99.36532     36.4 1.148e+04 7.716e-10
 99.39670     34.9 1.186e+04 8.021e-10
 99.41759     32.9 1.364e+04 1.055e-09
 99.43000     30.9 1.671e+04 1.647e-09
 99.44049     31.7 1.520e+04 9.114e-10
 99.45118     27.5 1.686e+04 2.278e-09
 99.46167     26.6 1.512e+04 2.751e-09
 99.47832     26.1 1.506e+04 4.780e-09
 99.48882     26.3 1.452e+04 3.793e-09
 99.50154     27.2 1.473e+04 5.434e-09
 99.52253     28.9 1.496e+04 5.641e-09
 99.53714     30.2 1.529e+04 3.622e-09
 99.54764     30.9 1.510e+04 4.621e-09
 99.56450     31.0 1.471e+04 1.797e-09
 99.58547     24.1 1.215e+04 6.271e-10
 99.60645     21.3 1.157e+04 5.378e-10
 99.62747     19.0 1.211e+04 6.115e-10
 99.64428     17.7 1.255e+04 1.143e-09
 99.65478     18.0 1.291e+04 1.235e-09
 99.66944     18.0 1.291e+04 2.085e-09
 99.68916     18.9 1.296e+04 2.691e-09
 99.69965     19.3 1.272e+04 2.299e-09
 99.70310     20.5 1.276e+04 2.542e-09
 99.71360     20.9 1.323e+04 3.127e-09
 99.73241     22.0 1.321e+04 3.110e-09
 99.75143     22.9 1.291e+04 2.270e-09
 99.76192     23.4 1.347e+04 2.987e-09
 99.77438     23.6 1.279e+04 1.623e-09
 99.79537     21.2 1.165e+04 8.322e-10
 99.81024     19.5 1.068e+04 5.494e-10
 99.82074     20.0 1.092e+04 6.381e-10
 99.83734     19.2 1.050e+04 5.263e-10
 99.85833     19.0 1.040e+04 4.944e-10
 99.86906     18.6 1.039e+04 4.894e-10
 99.87956     19.0 1.053e+04 5.385e-10
 99.90031     18.6 1.053e+04 5.612e-10
 99.91739     18.4 1.054e+04 6.325e-10
 99.92788     18.7 1.069e+04 6.896e-10
 99.93763     18.6 1.067e+04 7.927e-10
 99.94812     19.1 1.055e+04 7.928e-10
 99.96327     19.4 1.051e+04 8.120e-10
 99.97620     19.7 1.050e+04 7.830e-10
 99.98670     19.9 1.066e+04 9.015e-10
100.00524     20.3 1.059e+04 8.332e-10
