# Columns:
#   distance along LOS (in CHIMPs)
#   peculiar velocity  (in km/s)
#   temperature (K)
#   HI number density
# pos=(213.629,21.9007,204.674), angles=(1.50311,4.88926)
  0.01219   -194.2 1.053e+04 5.546e-10
  0.03422   -193.7 1.083e+04 6.863e-10
  0.05400   -193.4 1.089e+04 7.339e-10
  0.07389   -193.0 1.087e+04 7.546e-10
  0.09378   -192.7 1.084e+04 7.591e-10
  0.10598   -192.1 1.081e+04 7.610e-10
  0.11592   -192.0 1.076e+04 7.534e-10
  0.13355   -191.3 1.075e+04 7.539e-10
  0.15344   -190.5 1.074e+04 7.627e-10
  0.16986   -189.7 1.081e+04 7.973e-10
  0.17980   -190.0 1.055e+04 7.177e-10
  0.19321   -189.1 1.068e+04 7.667e-10
  0.21133   -188.2 1.083e+04 8.247e-10
  0.22127   -188.2 1.076e+04 7.928e-10
  0.23298   -187.3 1.096e+04 8.692e-10
  0.25287   -186.4 1.116e+04 9.571e-10
  0.27275   -185.5 1.136e+04 1.047e-09
  0.29264   -184.6 1.154e+04 1.128e-09
  0.31253   -183.7 1.167e+04 1.188e-09
  0.32661   -182.8 1.175e+04 1.219e-09
  0.33656   -182.8 1.195e+04 1.334e-09
  0.35230   -181.8 1.198e+04 1.353e-09
  0.37219   -180.7 1.200e+04 1.361e-09
  0.39207   -179.6 1.202e+04 1.349e-09
  0.41196   -178.5 1.208e+04 1.341e-09
  0.43184   -177.4 1.216e+04 1.353e-09
  0.44190   -176.3 1.232e+04 1.417e-09
  0.45185   -176.3 1.228e+04 1.297e-09
  0.46339   -175.3 1.243e+04 1.334e-09
  0.47334   -175.6 1.302e+04 1.967e-09
  0.49150   -174.4 1.321e+04 2.076e-09
  0.51139   -173.3 1.336e+04 2.163e-09
  0.53128   -172.2 1.345e+04 2.193e-09
  0.54725   -171.1 1.348e+04 2.185e-09
  0.55719   -171.0 1.312e+04 1.740e-09
  0.57105   -169.9 1.303e+04 1.650e-09
  0.59093   -168.9 1.285e+04 1.510e-09
  0.61082   -167.8 1.259e+04 1.351e-09
  0.63071   -166.7 1.229e+04 1.198e-09
  0.65059   -165.5 1.199e+04 1.066e-09
  0.66254   -164.3 1.172e+04 9.620e-10
  0.67248   -163.6 1.147e+04 8.716e-10
  0.69037   -162.3 1.137e+04 8.291e-10
  0.71025   -160.9 1.129e+04 7.948e-10
  0.73014   -159.6 1.124e+04 7.724e-10
  0.74698   -158.4 1.123e+04 7.667e-10
  0.75693   -157.8 1.139e+04 8.025e-10
  0.76789   -156.9 1.140e+04 8.084e-10
  0.77783   -155.4 1.136e+04 7.655e-10
  0.78980   -154.8 1.146e+04 7.877e-10
  0.80968   -155.4 1.185e+04 8.439e-10
  0.82957   -159.5 1.480e+04 1.512e-09
  0.84946   -163.6 1.782e+04 4.121e-09
  0.86934   -166.8 1.933e+04 8.748e-09
  0.88318   -170.5 1.993e+04 1.254e-08
  0.89312   -168.1 2.021e+04 1.244e-08
  0.90912   -173.2 2.032e+04 1.372e-08
  0.92900   -178.0 1.962e+04 1.226e-08
  0.94889   -183.5 1.788e+04 6.700e-09
  0.96877   -189.6 1.516e+04 2.951e-09
  0.98852   -194.6 1.292e+04 1.586e-09
  0.99846   -194.3 1.338e+04 1.821e-09
  1.00855   -196.7 1.255e+04 1.446e-09
  1.02843   -197.4 1.232e+04 1.355e-09
  1.04052   -197.6 1.223e+04 1.314e-09
  1.05046   -199.4 1.266e+04 1.479e-09
  1.06821   -199.3 1.248e+04 1.408e-09
  1.08809   -199.0 1.223e+04 1.295e-09
  1.10381   -198.5 1.194e+04 1.156e-09
  1.11375   -197.7 1.215e+04 1.258e-09
  1.12787   -197.1 1.183e+04 1.084e-09
  1.14775   -196.6 1.152e+04 9.207e-10
  1.16764   -196.4 1.123e+04 7.777e-10
  1.18752   -196.2 1.097e+04 6.624e-10
  1.20741   -196.4 1.076e+04 5.777e-10
  1.21910   -196.7 1.061e+04 5.209e-10
  1.22904   -195.5 1.073e+04 5.280e-10
  1.24718   -196.1 1.063e+04 4.907e-10
  1.26707   -196.8 1.061e+04 4.779e-10
  1.28696   -197.6 1.061e+04 4.757e-10
  1.30684   -198.5 1.063e+04 4.771e-10
  1.32411   -199.3 1.066e+04 4.992e-10
  1.33177   -200.4 1.062e+04 5.002e-10
  1.33439   -199.8 1.064e+04 4.984e-10
  1.34661   -200.8 1.059e+04 5.503e-10
  1.36650   -202.6 1.106e+04 6.457e-10
  1.38639   -205.5 1.243e+04 8.631e-10
  1.40627   -209.4 1.426e+04 1.348e-09
  1.42616   -213.5 1.575e+04 2.243e-09
  1.43974   -217.3 1.660e+04 3.457e-09
  1.44968   -218.7 1.696e+04 4.036e-09
  1.46593   -222.1 1.704e+04 4.822e-09
  1.48582   -225.4 1.699e+04 4.970e-09
  1.50571   -228.2 1.645e+04 4.665e-09
  1.52559   -230.8 1.558e+04 3.381e-09
  1.54508   -233.7 1.448e+04 2.107e-09
  1.55503   -235.7 1.437e+04 1.913e-09
  1.56536   -238.6 1.324e+04 1.233e-09
  1.58525   -240.9 1.238e+04 9.032e-10
  1.60514   -242.4 1.191e+04 7.494e-10
  1.61764   -243.2 1.166e+04 6.864e-10
  1.62758   -244.2 1.151e+04 6.750e-10
  1.64491   -244.5 1.142e+04 6.615e-10
  1.66037   -244.8 1.131e+04 6.485e-10
  1.67032   -246.0 1.154e+04 7.379e-10
  1.68468   -246.2 1.140e+04 7.263e-10
  1.70457   -246.3 1.130e+04 7.087e-10
  1.72445   -246.3 1.121e+04 6.814e-10
  1.74434   -246.2 1.115e+04 6.445e-10
  1.76423   -246.0 1.111e+04 6.013e-10
  1.77566   -245.9 1.108e+04 5.611e-10
  1.78560   -247.6 1.123e+04 6.622e-10
  1.80400   -247.7 1.116e+04 6.430e-10
  1.82389   -247.9 1.114e+04 6.396e-10
  1.84377   -248.2 1.114e+04 6.414e-10
  1.86366   -249.9 1.158e+04 6.754e-10
  1.88101   -252.5 1.309e+04 9.541e-10
  1.89095   -256.4 1.460e+04 1.754e-09
  1.90123   -258.5 1.546e+04 2.933e-09
  1.91117   -257.2 1.490e+04 2.331e-09
  1.92332   -258.5 1.543e+04 3.532e-09
  1.94320   -259.3 1.560e+04 4.450e-09
  1.96309   -259.7 1.562e+04 4.678e-09
  1.98298   -260.0 1.547e+04 4.599e-09
  1.99630   -260.1 1.516e+04 3.908e-09
  2.00624   -262.1 1.486e+04 2.864e-09
  2.02275   -262.9 1.422e+04 1.821e-09
  2.04264   -264.7 1.335e+04 1.191e-09
  2.06252   -266.7 1.282e+04 9.686e-10
  2.08241   -269.1 1.276e+04 9.394e-10
  2.10164   -272.2 1.384e+04 1.147e-09
  2.11159   -281.4 1.937e+04 2.643e-09
  2.12218   -284.4 2.102e+04 5.757e-09
  2.14207   -286.1 2.155e+04 1.035e-08
  2.16195   -286.7 2.149e+04 1.522e-08
  2.17682   -286.2 2.054e+04 1.752e-08
  2.18671   -286.1 2.050e+04 1.864e-08
  2.19467   -286.0 2.038e+04 1.976e-08
  2.20466   -284.8 1.993e+04 1.572e-08
  2.21659   -284.8 1.979e+04 1.691e-08
  2.22181   -284.6 1.934e+04 1.665e-08
  2.22678   -285.2 1.897e+04 1.203e-08
  2.23643   -285.3 1.892e+04 9.471e-09
  2.24637   -285.5 1.876e+04 6.981e-09
  2.25632   -286.0 1.842e+04 4.939e-09
  2.26626   -286.4 1.789e+04 3.680e-09
  2.28122   -286.8 1.713e+04 2.886e-09
  2.30116   -287.0 1.589e+04 1.881e-09
  2.32104   -287.2 1.485e+04 1.334e-09
  2.33222   -286.8 1.370e+04 1.035e-09
  2.34217   -289.5 1.041e+04 3.911e-10
  2.36082   -287.9 1.024e+04 3.870e-10
  2.38070   -286.3 1.022e+04 4.037e-10
  2.40059   -284.8 1.055e+04 4.474e-10
  2.42048   -283.4 1.082e+04 5.195e-10
  2.43757   -282.1 1.118e+04 6.330e-10
  2.44751   -282.7 1.056e+04 4.143e-10
  2.46025   -281.5 1.100e+04 5.170e-10
  2.47835   -280.2 1.139e+04 6.545e-10
  2.48830   -278.9 1.057e+04 3.749e-10
  2.50002   -277.6 1.097e+04 4.845e-10
  2.51991   -276.4 1.132e+04 6.214e-10
  2.53979   -275.2 1.157e+04 7.703e-10
  2.55286   -274.1 1.173e+04 9.047e-10
  2.56280   -274.4 1.095e+04 5.065e-10
  2.57957   -273.2 1.096e+04 5.606e-10
  2.59945   -272.1 1.092e+04 5.998e-10
  2.61934   -271.0 1.084e+04 6.233e-10
  2.63923   -269.9 1.077e+04 6.311e-10
  2.65820   -268.8 1.060e+04 6.330e-10
  2.66815   -269.2 1.030e+04 4.764e-10
  2.67900   -268.1 1.031e+04 4.986e-10
  2.69888   -266.9 1.034e+04 5.236e-10
  2.71877   -265.7 1.037e+04 5.499e-10
  2.73866   -264.5 1.042e+04 5.748e-10
  2.75854   -263.2 1.045e+04 5.980e-10
  2.77189   -261.9 1.049e+04 6.186e-10
  2.77689   -261.2 1.042e+04 5.309e-10
  2.78344   -261.2 1.013e+04 4.386e-10
  2.79832   -260.1 1.017e+04 4.615e-10
  2.81820   -258.8 1.021e+04 4.915e-10
  2.83809   -257.7 1.024e+04 5.169e-10
  2.85797   -256.3 1.026e+04 5.506e-10
  2.87786   -255.3 1.028e+04 5.813e-10
  2.88878   -253.9 1.028e+04 6.154e-10
  2.89873   -254.1 1.024e+04 5.584e-10
  2.91763   -252.7 1.024e+04 5.606e-10
  2.93752   -251.3 1.024e+04 5.600e-10
  2.95741   -249.8 1.024e+04 5.505e-10
  2.97729   -248.3 1.024e+04 5.363e-10
  2.99413   -246.8 1.024e+04 5.186e-10
  3.00417   -248.7 9.816e+03 3.955e-10
  3.02720   -246.0 9.699e+03 3.659e-10
  3.05567   -243.4 9.538e+03 3.314e-10
  3.07556   -242.9 9.416e+03 2.825e-10
  3.10675   -240.2 9.210e+03 2.493e-10
  3.14652   -237.5 9.006e+03 2.176e-10
  3.18629   -234.8 8.843e+03 1.908e-10
  3.21496   -232.0 8.738e+03 1.716e-10
  3.23485   -232.5 8.592e+03 1.226e-10
  3.26584   -229.7 8.586e+03 1.176e-10
  3.30561   -226.9 8.588e+03 1.166e-10
  3.34538   -224.3 8.597e+03 1.168e-10
  3.38516   -221.8 8.673e+03 1.240e-10
  3.42493   -219.5 8.764e+03 1.390e-10
  3.44554   -217.3 8.833e+03 1.546e-10
  3.46543   -217.7 8.768e+03 1.382e-10
  3.50448   -215.6 8.796e+03 1.458e-10
  3.54425   -213.5 8.800e+03 1.476e-10
  3.58402   -211.5 8.785e+03 1.472e-10
  3.62285   -209.3 8.711e+03 1.379e-10
  3.64274   -209.0 8.739e+03 1.251e-10
  3.65623   -206.8 8.664e+03 1.161e-10
  3.67612   -207.0 8.596e+03 1.092e-10
  3.70334   -204.7 8.518e+03 9.711e-11
  3.74311   -202.4 8.435e+03 8.643e-11
  3.78288   -200.2 8.354e+03 7.859e-11
  3.82266   -198.0 8.283e+03 7.385e-11
  3.86243   -195.9 8.224e+03 7.186e-11
  3.88681   -193.8 8.198e+03 7.148e-11
  3.90670   -194.2 8.331e+03 8.735e-11
  3.94197   -192.2 8.313e+03 9.277e-11
  3.98175   -190.2 8.275e+03 9.625e-11
  4.02152   -188.1 8.250e+03 9.693e-11
  4.06129   -186.0 8.159e+03 9.410e-11
  4.09750   -183.7 8.073e+03 8.912e-11
  4.11739   -184.1 8.182e+03 1.016e-10
  4.14084   -181.9 8.145e+03 9.189e-11
  4.18061   -179.6 8.156e+03 8.890e-11
  4.20992   -177.5 8.161e+03 8.870e-11
  4.22980   -177.6 8.348e+03 1.249e-10
  4.26015   -175.7 8.390e+03 1.265e-10
  4.29993   -174.2 8.747e+03 1.685e-10
  4.32808   -172.9 9.266e+03 2.889e-10
  4.34797   -173.2 9.212e+03 2.803e-10
  4.37947   -171.8 9.612e+03 4.421e-10
  4.41925   -170.5 9.935e+03 6.207e-10
  4.45902   -169.4 1.013e+04 7.577e-10
  4.49879   -168.4 1.017e+04 8.047e-10
  4.53856   -167.3 1.015e+04 8.102e-10
  4.55866   -165.9 9.858e+03 7.410e-10
  4.57855   -165.6 9.728e+03 6.308e-10
  4.61811   -163.9 9.386e+03 5.327e-10
  4.65788   -162.1 9.008e+03 4.096e-10
  4.69765   -160.2 8.654e+03 3.049e-10
  4.73743   -158.4 8.374e+03 2.314e-10
  4.76935   -156.5 8.192e+03 1.863e-10
  4.78914   -156.3 8.263e+03 1.934e-10
  4.81687   -154.6 8.332e+03 2.116e-10
  4.85674   -152.8 8.269e+03 1.910e-10
  4.89652   -151.1 8.239e+03 1.782e-10
  4.93629   -149.5 8.239e+03 1.719e-10
  4.97606   -148.0 8.255e+03 1.706e-10
  4.99993   -146.6 8.424e+03 1.839e-10
  5.01982   -146.5 8.474e+03 1.887e-10
  5.05561   -145.3 8.656e+03 2.288e-10
  5.09538   -144.0 8.880e+03 2.856e-10
  5.13515   -142.7 9.082e+03 3.474e-10
  5.17493   -141.5 9.258e+03 3.948e-10
  5.21062   -140.3 9.391e+03 4.143e-10
  5.23051   -140.2 9.605e+03 4.874e-10
  5.25447   -139.0 9.647e+03 4.938e-10
  5.29424   -137.8 9.658e+03 4.967e-10
  5.33402   -136.6 9.677e+03 4.969e-10
  5.36416   -135.3 9.722e+03 4.871e-10
  5.38405   -135.0 9.661e+03 4.928e-10
  5.41356   -133.7 9.734e+03 4.831e-10
  5.44120   -132.4 9.709e+03 4.407e-10
  5.46109   -132.4 1.006e+04 5.632e-10
  5.49311   -131.1 9.945e+03 4.794e-10
  5.53288   -129.8 9.770e+03 3.752e-10
  5.57265   -128.5 9.541e+03 2.795e-10
  5.61242   -127.0 9.396e+03 2.124e-10
  5.65190   -125.4 9.294e+03 1.680e-10
  5.67178   -125.4 9.469e+03 2.006e-10
  5.69197   -123.6 9.350e+03 1.568e-10
  5.73174   -121.7 9.282e+03 1.254e-10
  5.77151   -119.8 9.257e+03 1.022e-10
  5.81129   -117.9 9.275e+03 8.500e-11
  5.85106   -115.8 9.314e+03 7.341e-11
  5.88248   -113.8 9.353e+03 6.690e-11
  5.90236   -113.7 9.327e+03 6.953e-11
  5.93061   -111.6 9.364e+03 6.593e-11
  5.95123   -109.5 9.389e+03 6.498e-11
  5.97112   -109.7 9.393e+03 6.586e-11
  6.01015   -107.6 9.405e+03 6.561e-11
  6.04992   -105.5 9.460e+03 6.602e-11
  6.08970   -103.6 9.596e+03 7.068e-11
  6.11305   -101.7 9.679e+03 8.071e-11
  6.13294   -101.4 9.695e+03 7.806e-11
  6.16924    -99.5 9.782e+03 9.236e-11
  6.20901    -97.7 9.889e+03 1.077e-10
  6.24879    -95.8 9.996e+03 1.190e-10
  6.28856    -94.0 1.005e+04 1.228e-10
  6.32375    -92.1 1.006e+04 1.228e-10
  6.34363    -91.8 1.012e+04 1.347e-10
  6.36810    -89.7 1.015e+04 1.254e-10
  6.40788    -87.3 1.019e+04 1.060e-10
  6.44765    -84.9 1.026e+04 8.820e-11
  6.48742    -82.5 1.035e+04 7.505e-11
  6.51841    -80.0 1.044e+04 6.643e-11
  6.53830    -80.1 1.048e+04 7.648e-11
  6.55433    -77.6 1.057e+04 6.955e-11
  6.57421    -77.1 1.060e+04 6.823e-11
  6.60674    -74.6 1.065e+04 6.599e-11
  6.64651    -71.9 1.066e+04 6.606e-11
  6.68629    -69.5 1.083e+04 6.678e-11
  6.72606    -67.2 1.099e+04 7.931e-11
  6.76502    -64.9 1.088e+04 1.103e-10
  6.78490    -64.5 1.087e+04 1.011e-10
  6.80560    -62.0 1.084e+04 1.360e-10
  6.84538    -59.4 1.088e+04 1.715e-10
  6.88515    -56.8 1.093e+04 1.953e-10
  6.92492    -54.4 1.095e+04 2.025e-10
  6.96469    -52.1 1.094e+04 2.006e-10
  6.99560    -49.9 1.090e+04 1.873e-10
  7.01548    -49.7 1.090e+04 1.482e-10
  7.04424    -47.7 1.090e+04 1.433e-10
  7.08401    -45.9 1.090e+04 1.435e-10
  7.10548    -44.0 1.089e+04 1.579e-10
  7.12536    -44.8 1.083e+04 1.476e-10
  7.16356    -42.9 1.077e+04 1.597e-10
  7.20333    -40.9 1.072e+04 1.640e-10
  7.22618    -38.7 1.056e+04 1.565e-10
  7.24606    -38.4 1.053e+04 1.353e-10
  7.28287    -36.4 1.046e+04 1.165e-10
  7.32265    -34.5 1.043e+04 9.707e-11
  7.36242    -32.6 1.042e+04 8.286e-11
  7.40219    -30.8 1.038e+04 7.491e-11
  7.43687    -29.0 1.036e+04 7.237e-11
  7.45675    -28.5 1.040e+04 5.917e-11
  7.48174    -27.3 1.045e+04 5.952e-11
  7.52151    -27.2 1.085e+04 6.625e-11
  7.56128    -28.5 1.121e+04 1.161e-10
  7.60106    -28.6 1.117e+04 3.184e-10
  7.64083    -27.2 1.138e+04 5.555e-10
  7.66745    -26.0 1.145e+04 6.111e-10
  7.67939    -25.4 1.137e+04 5.560e-10
  7.69254    -26.6 1.132e+04 5.439e-10
  7.72037    -25.5 1.104e+04 3.055e-10
  7.76015    -25.0 1.088e+04 1.522e-10
  7.79992    -24.3 1.072e+04 1.014e-10
  7.83969    -22.8 1.064e+04 8.616e-11
  7.87814    -21.1 1.067e+04 7.983e-11
  7.89803    -20.7 1.066e+04 8.036e-11
  7.91924    -19.1 1.071e+04 7.806e-11
  7.95901    -17.6 1.076e+04 8.609e-11
  7.99878    -15.8 1.067e+04 1.051e-10
  8.03855    -13.6 1.069e+04 1.187e-10
  8.07833    -11.5 1.071e+04 1.204e-10
  8.10872     -9.4 1.077e+04 1.079e-10
  8.12860     -9.3 1.076e+04 1.025e-10
  8.15787     -7.6 1.077e+04 8.847e-11
  8.19764     -5.9 1.068e+04 8.323e-11
  8.23742     -3.6 1.059e+04 8.293e-11
  8.25972     -1.2 1.082e+04 7.330e-11
  8.27961     -1.6 1.079e+04 7.524e-11
  8.31696      0.3 1.095e+04 6.730e-11
  8.33930      2.2 1.099e+04 6.676e-11
  8.35918      2.3 1.098e+04 6.885e-11
  8.39651      3.7 1.097e+04 8.074e-11
  8.43628      5.7 1.085e+04 1.121e-10
  8.47605      7.9 1.086e+04 1.538e-10
  8.51583     10.3 1.094e+04 1.954e-10
  8.54999     12.5 1.101e+04 2.325e-10
  8.56988     13.0 1.103e+04 1.781e-10
  8.59537     15.0 1.109e+04 1.777e-10
  8.63514     16.9 1.111e+04 1.737e-10
  8.67492     18.8 1.117e+04 1.759e-10
  8.71469     20.6 1.119e+04 1.898e-10
  8.75446     22.4 1.123e+04 2.209e-10
  8.78057     24.2 1.129e+04 2.711e-10
  8.80046     24.4 1.133e+04 3.157e-10
  8.82690     26.1 1.152e+04 4.448e-10
  8.84679     25.9 1.139e+04 4.385e-10
  8.87378     27.8 1.156e+04 5.696e-10
  8.91355     29.5 1.172e+04 6.925e-10
  8.95332     30.9 1.193e+04 8.098e-10
  8.99126     31.9 1.210e+04 8.849e-10
  9.01115     31.7 1.242e+04 1.157e-09
  9.03287     32.5 1.234e+04 1.024e-09
  9.07264     33.3 1.207e+04 7.796e-10
  9.11242     34.2 1.172e+04 5.376e-10
  9.15219     35.2 1.140e+04 3.343e-10
  9.19196     36.0 1.120e+04 2.110e-10
  9.22184     36.7 1.109e+04 1.512e-10
  9.24173     36.6 1.109e+04 1.611e-10
  9.27151     37.3 1.103e+04 1.494e-10
  9.31128     38.1 1.099e+04 1.586e-10
  9.35105     39.0 1.092e+04 1.876e-10
  9.39082     40.0 1.096e+04 2.395e-10
  9.41397     41.0 1.105e+04 3.012e-10
  9.43385     40.6 1.114e+04 3.048e-10
  9.45242     41.5 1.118e+04 3.344e-10
  9.47231     41.8 1.102e+04 2.846e-10
  9.51014     42.7 1.100e+04 2.768e-10
  9.54991     43.7 1.092e+04 2.535e-10
  9.58969     44.9 1.083e+04 2.088e-10
  9.62946     46.1 1.078e+04 1.597e-10
  9.66311     47.4 1.074e+04 1.222e-10
  9.68300     48.0 1.064e+04 1.201e-10
  9.70900     49.4 1.061e+04 1.036e-10
  9.74878     50.8 1.053e+04 9.702e-11
  9.78855     52.5 1.045e+04 9.461e-11
  9.82832     54.3 1.040e+04 9.206e-11
  9.86809     56.1 1.035e+04 8.672e-11
  9.89369     58.0 1.032e+04 7.828e-11
  9.91358     58.5 1.024e+04 7.757e-11
  9.94764     60.3 1.017e+04 7.015e-11
  9.98115     62.1 1.006e+04 6.704e-11
 10.00103     61.9 1.027e+04 6.823e-11
 10.02719     63.6 1.031e+04 6.944e-11
 10.06696     65.3 1.039e+04 7.509e-11
 10.10438     67.0 1.041e+04 8.898e-11
 10.12427     67.7 1.034e+04 8.644e-11
 10.14650     69.4 1.031e+04 1.092e-10
 10.18628     71.2 1.028e+04 1.442e-10
 10.22605     72.9 1.031e+04 1.922e-10
 10.26582     74.5 1.040e+04 2.488e-10
 10.30559     76.0 1.053e+04 3.089e-10
 10.33496     77.1 1.067e+04 3.649e-10
 10.35485     78.0 1.080e+04 4.013e-10
 10.37510     78.0 1.077e+04 4.273e-10
 10.39489     78.2 1.085e+04 4.773e-10
 10.41477     78.2 1.108e+04 5.801e-10
 10.43466     78.0 1.151e+04 7.577e-10
 10.45006     77.3 1.196e+04 1.057e-09
 10.46000     77.9 1.224e+04 1.189e-09
 10.47443     76.7 1.290e+04 1.804e-09
 10.49432     75.4 1.365e+04 2.695e-09
 10.51420     73.7 1.443e+04 3.797e-09
 10.53409     71.8 1.509e+04 4.911e-09
 10.55398     69.7 1.540e+04 5.661e-09
 10.56535     67.5 1.539e+04 5.760e-09
 10.56944     66.7 1.632e+04 8.515e-09
 10.57796     66.0 1.662e+04 9.265e-09
 10.59375     64.8 1.591e+04 7.969e-09
 10.61364     63.9 1.504e+04 5.941e-09
 10.63352     63.2 1.433e+04 4.398e-09
 10.65341     62.4 1.374e+04 3.192e-09
 10.67069     61.7 1.318e+04 2.349e-09
 10.68063     60.6 1.247e+04 1.568e-09
 10.69318     60.4 1.221e+04 1.351e-09
 10.71307     60.0 1.183e+04 1.112e-09
 10.74300     60.0 1.164e+04 1.024e-09
 10.77623     60.0 1.097e+04 7.276e-10
 10.79612     59.1 1.037e+04 4.873e-10
 10.82264     60.1 9.987e+03 3.613e-10
 10.86241     61.4 9.666e+03 2.546e-10
 10.90218     62.7 9.443e+03 1.738e-10
 10.94196     63.9 9.293e+03 1.226e-10
 10.98173     65.3 9.130e+03 1.071e-10
 11.00681     66.9 9.121e+03 1.073e-10
 11.02670     66.3 9.191e+03 1.121e-10
 11.06127     67.8 9.212e+03 1.201e-10
 11.10105     69.4 9.304e+03 1.459e-10
 11.13539     71.0 9.410e+03 1.779e-10
 11.15528     71.4 9.545e+03 2.100e-10
 11.18059     73.0 9.698e+03 2.352e-10
 11.21750     74.4 9.769e+03 2.275e-10
 11.23739     73.5 9.641e+03 1.693e-10
 11.26014     74.5 9.614e+03 1.383e-10
 11.29991     75.3 9.550e+03 1.300e-10
 11.33968     76.0 9.589e+03 1.330e-10
 11.37945     76.3 9.784e+03 1.544e-10
 11.41923     76.1 1.004e+04 2.334e-10
 11.44808     76.0 1.035e+04 3.818e-10
 11.46797     75.3 1.074e+04 5.614e-10
 11.49877     75.1 1.113e+04 8.431e-10
 11.53855     74.1 1.118e+04 8.647e-10
 11.57832     73.0 1.094e+04 7.612e-10
 11.61809     72.7 1.043e+04 5.352e-10
 11.65786     72.5 9.878e+03 3.476e-10
 11.67866     72.5 9.464e+03 2.373e-10
 11.69855     72.0 9.458e+03 2.285e-10
 11.72246     72.6 9.184e+03 2.011e-10
 11.74235     72.5 8.978e+03 1.514e-10
 11.77718     74.0 8.972e+03 1.514e-10
 11.81695     75.7 8.986e+03 1.597e-10
 11.85673     77.4 9.138e+03 1.847e-10
 11.88936     78.9 9.383e+03 2.249e-10
 11.90924     78.6 9.451e+03 2.301e-10
 11.93627     80.2 9.725e+03 2.765e-10
 11.97604     81.4 9.956e+03 3.276e-10
 12.00455     81.7 1.005e+04 3.516e-10
 12.01439     81.7 1.004e+04 3.507e-10
 12.01580     82.1 1.015e+04 3.766e-10
 12.02574     82.1 1.024e+04 4.010e-10
 12.04545     82.6 1.046e+04 4.930e-10
 12.06534     83.0 1.078e+04 6.407e-10
 12.08522     83.3 1.117e+04 8.510e-10
 12.10511     83.5 1.160e+04 1.152e-09
 12.11974     83.7 1.206e+04 1.568e-09
 12.12968     83.3 1.210e+04 1.599e-09
 12.14488     83.8 1.264e+04 2.327e-09
 12.16477     84.6 1.316e+04 3.122e-09
 12.18466     85.5 1.368e+04 3.305e-09
 12.20454     85.8 1.374e+04 3.234e-09
 12.22443     85.7 1.390e+04 2.927e-09
 12.23503     85.3 1.413e+04 2.887e-09
 12.23995     85.1 1.459e+04 4.222e-09
 12.24919     85.1 1.468e+04 3.993e-09
 12.25913     84.7 1.498e+04 4.065e-09
 12.26907     81.9 1.694e+04 4.954e-09
 12.27902     74.9 2.115e+04 9.654e-09
 12.28760     68.2 2.182e+04 2.254e-08
 12.29258     68.4 2.259e+04 3.850e-08
 12.29890     66.7 2.158e+04 9.029e-08
 12.30426     66.6 2.080e+04 1.649e-07
 12.30923     67.5 2.012e+04 1.055e-07
 12.31879     68.4 2.028e+04 1.344e-07
 12.32873     69.1 2.042e+04 1.307e-07
 12.33868     70.1 2.018e+04 1.074e-07
 12.34525     71.6 1.993e+04 6.338e-08
 12.35022     70.5 2.030e+04 6.036e-08
 12.35856     70.0 2.039e+04 2.668e-08
 12.36851     70.3 1.986e+04 1.138e-08
 12.38347     67.1 1.858e+04 2.384e-09
 12.40340     61.9 1.396e+04 8.776e-10
 12.42329     58.1 1.045e+04 3.299e-10
 12.45322     56.7 1.017e+04 2.744e-10
 12.49309     57.3 9.570e+03 1.949e-10
 12.53286     59.0 9.392e+03 1.767e-10
 12.56121     61.2 9.320e+03 1.614e-10
 12.58109     60.7 9.299e+03 1.389e-10
 12.61241     62.8 9.192e+03 1.273e-10
 12.65218     64.9 9.142e+03 1.176e-10
 12.69195     66.7 9.122e+03 1.095e-10
 12.73172     68.5 9.091e+03 1.044e-10
 12.77150     70.2 9.053e+03 1.017e-10
 12.79178     71.9 9.011e+03 1.005e-10
 12.81167     71.7 8.900e+03 1.028e-10
 12.85104     73.5 8.804e+03 9.308e-11
 12.87671     75.4 8.721e+03 8.363e-11
 12.89659     76.0 8.683e+03 7.748e-11
 12.93059     77.8 8.623e+03 7.286e-11
 12.97036     79.6 8.589e+03 6.962e-11
 13.00248     81.3 8.572e+03 6.690e-11
 13.02236     80.9 8.497e+03 4.312e-11
 13.04990     82.4 8.431e+03 4.174e-11
 13.08968     83.9 8.366e+03 3.992e-11
 13.12945     85.4 8.297e+03 3.791e-11
 13.16922     86.8 8.242e+03 3.721e-11
 13.20900     88.2 8.234e+03 3.766e-11
 13.23306     89.5 8.219e+03 4.062e-11
 13.25294     89.3 8.166e+03 3.468e-11
 13.28854     90.5 8.179e+03 4.519e-11
 13.32831     91.7 8.260e+03 6.642e-11
 13.36809     93.0 8.445e+03 1.004e-10
 13.40786     94.1 8.695e+03 1.432e-10
 13.44375     94.7 8.929e+03 1.825e-10
 13.46363     94.9 8.731e+03 1.234e-10
 13.48740     94.9 8.849e+03 1.408e-10
 13.52718     94.7 8.984e+03 1.675e-10
 13.56695     94.0 9.250e+03 2.361e-10
 13.60672     93.4 9.705e+03 3.844e-10
 13.64649     92.8 1.015e+04 5.654e-10
 13.67433     92.0 1.026e+04 5.916e-10
 13.69421     91.6 1.026e+04 5.282e-10
 13.72604     90.7 1.004e+04 4.352e-10
 13.76581     90.3 9.612e+03 2.582e-10
 13.80558     89.7 9.063e+03 1.230e-10
 13.84536     89.0 8.493e+03 7.633e-11
 13.88502     89.0 8.382e+03 7.460e-11
 13.92479     88.6 8.454e+03 7.157e-11
 13.96468     88.8 8.612e+03 9.972e-11
 14.00445     89.0 8.936e+03 1.675e-10
 14.03095     89.3 9.269e+03 2.644e-10
 14.05084     89.9 9.253e+03 2.627e-10
 14.08399     90.0 9.484e+03 3.094e-10
 14.11560     89.9 9.494e+03 3.017e-10
 14.13548     88.7 9.527e+03 2.995e-10
 14.16354     88.6 9.398e+03 2.246e-10
 14.20331     88.5 9.200e+03 1.590e-10
 14.24308     88.5 8.970e+03 1.340e-10
 14.28286     89.0 8.929e+03 1.336e-10
 14.32263     90.0 8.971e+03 1.391e-10
 14.34618     90.8 9.247e+03 1.709e-10
 14.36606     90.7 9.139e+03 1.263e-10
 14.40217     90.5 9.577e+03 1.883e-10
 14.44195     89.7 9.961e+03 2.755e-10
 14.47168     88.4 1.048e+04 4.686e-10
 14.49147     87.3 1.111e+04 7.507e-10
 14.51135     86.1 1.181e+04 1.102e-09
 14.53124     84.3 1.249e+04 1.408e-09
 14.55113     81.6 1.301e+04 1.614e-09
 14.56662     78.3 1.328e+04 1.769e-09
 14.57656     78.0 1.315e+04 1.749e-09
 14.59090     74.7 1.326e+04 2.035e-09
 14.60788     72.2 1.326e+04 2.346e-09
 14.61782     72.3 1.304e+04 2.330e-09
 14.63067     70.5 1.316e+04 2.413e-09
 14.65056     68.9 1.316e+04 2.373e-09
 14.67044     67.4 1.308e+04 2.152e-09
 14.68191     66.1 1.271e+04 1.695e-09
 14.69185     65.5 1.241e+04 1.484e-09
 14.72026     63.7 1.171e+04 9.263e-10
 14.76013     61.4 1.088e+04 5.734e-10
 14.78745     59.6 1.049e+04 4.797e-10
 14.80734     59.6 1.084e+04 5.727e-10
 14.83967     58.6 1.064e+04 5.545e-10
 14.87945     57.8 1.052e+04 5.403e-10
 14.91922     57.7 1.041e+04 4.992e-10
 14.95899     57.8 1.024e+04 4.295e-10
 14.99814     58.1 1.001e+04 3.498e-10
 15.01803     57.8 9.995e+03 3.754e-10
 15.03854     58.0 1.000e+04 3.226e-10
 15.07831     58.4 1.006e+04 3.163e-10
 15.11808     58.8 1.012e+04 3.260e-10
 15.15785     59.2 1.029e+04 3.490e-10
 15.18520     59.5 1.054e+04 4.093e-10
 15.20508     59.9 1.059e+04 4.941e-10
 15.22872     60.5 1.077e+04 5.539e-10
 15.24851     60.1 1.084e+04 5.898e-10
 15.26703     60.4 1.083e+04 5.943e-10
 15.28692     60.6 1.090e+04 6.321e-10
 15.30681     60.5 1.108e+04 7.250e-10
 15.32669     60.5 1.136e+04 8.984e-10
 15.34381     60.6 1.172e+04 1.167e-09
 15.35376     60.7 1.169e+04 1.093e-09
 15.36647     61.1 1.207e+04 1.325e-09
 15.38635     61.5 1.239e+04 1.484e-09
 15.40624     61.9 1.252e+04 1.514e-09
 15.42612     62.1 1.250e+04 1.494e-09
 15.44601     62.3 1.244e+04 1.446e-09
 15.45920     62.6 1.233e+04 1.352e-09
 15.47919     62.9 1.166e+04 8.466e-10
 15.51581     63.4 1.164e+04 8.125e-10
 15.55558     64.1 1.165e+04 8.140e-10
 15.59535     64.6 1.183e+04 9.013e-10
 15.63513     64.9 1.216e+04 1.063e-09
 15.66999     65.1 1.230e+04 1.100e-09
 15.68988     65.7 1.221e+04 9.865e-10
 15.71467     65.8 1.221e+04 9.623e-10
 15.75238     66.1 1.197e+04 7.981e-10
 15.77226     66.9 1.184e+04 7.974e-10
 15.79422     67.3 1.154e+04 5.797e-10
 15.83399     67.8 1.110e+04 3.754e-10
 15.87376     68.2 1.078e+04 2.360e-10
 15.90057     68.6 1.060e+04 1.559e-10
 15.92046     69.5 1.072e+04 1.520e-10
 15.95331     69.9 1.052e+04 1.197e-10
 15.99308     70.6 1.050e+04 1.197e-10
 16.03285     71.4 1.056e+04 1.245e-10
 16.07262     71.9 1.076e+04 1.478e-10
 16.11126     72.1 1.098e+04 2.210e-10
 16.13115     72.7 1.100e+04 2.507e-10
 16.15217     73.1 1.124e+04 3.588e-10
 16.19194     73.4 1.156e+04 4.234e-10
 16.23171     73.4 1.162e+04 4.150e-10
 16.27149     73.3 1.168e+04 3.473e-10
 16.31126     73.0 1.165e+04 2.445e-10
 16.33944     72.5 1.164e+04 2.021e-10
 16.35014     73.1 1.176e+04 2.359e-10
 16.36173     73.7 1.172e+04 2.923e-10
 16.39081     73.1 1.175e+04 3.228e-10
 16.43058     73.0 1.184e+04 4.499e-10
 16.47035     73.2 1.200e+04 6.293e-10
 16.51012     73.4 1.206e+04 6.986e-10
 16.54990     73.6 1.202e+04 6.682e-10
 16.57242     73.8 1.193e+04 5.542e-10
 16.59231     74.8 1.161e+04 4.478e-10
 16.62944     74.9 1.152e+04 2.861e-10
 16.66921     74.5 1.134e+04 1.806e-10
 16.70899     73.8 1.119e+04 1.718e-10
 16.74876     73.6 1.117e+04 2.102e-10
 16.78311     74.0 1.109e+04 2.863e-10
 16.80300     75.0 1.102e+04 2.364e-10
 16.82830     75.7 1.114e+04 3.727e-10
 16.86808     76.3 1.131e+04 5.284e-10
 16.90662     76.4 1.149e+04 6.895e-10
 16.92651     75.8 1.180e+04 9.204e-10
 16.94762     75.6 1.190e+04 1.034e-09
 16.98739     75.0 1.189e+04 1.092e-09
 17.01369     74.1 1.179e+04 1.070e-09
 17.03358     75.3 1.167e+04 9.884e-10
 17.06694     74.5 1.124e+04 8.024e-10
 17.10671     73.8 1.072e+04 5.597e-10
 17.14649     73.1 1.023e+04 3.561e-10
 17.18626     72.1 9.822e+03 2.498e-10
 17.22438     71.5 9.494e+03 2.269e-10
 17.24427     73.3 9.626e+03 2.377e-10
 17.26580     73.1 9.383e+03 2.277e-10
 17.30558     73.4 9.243e+03 2.206e-10
 17.34535     73.9 9.048e+03 1.993e-10
 17.38512     74.7 8.813e+03 1.638e-10
 17.42489     75.7 8.582e+03 1.216e-10
 17.45496     76.7 8.399e+03 8.362e-11
 17.47485     77.9 8.444e+03 1.032e-10
 17.49369     78.8 8.302e+03 7.197e-11
 17.51358     78.5 8.114e+03 5.304e-11
 17.54421     79.4 8.090e+03 5.126e-11
 17.58398     80.5 8.101e+03 5.329e-11
 17.62376     81.6 8.145e+03 6.194e-11
 17.66353     82.8 8.231e+03 7.511e-11
 17.68554     84.0 8.345e+03 8.606e-11
 17.70543     85.2 8.316e+03 8.585e-11
 17.74307     86.2 8.387e+03 8.702e-11
 17.78285     87.2 8.400e+03 8.544e-11
 17.82262     88.1 8.413e+03 8.025e-11
 17.86239     88.9 8.398e+03 7.693e-11
 17.89624     89.8 8.396e+03 7.729e-11
 17.91612     90.8 8.384e+03 7.779e-11
 17.94194     91.7 8.410e+03 8.313e-11
 17.98171     92.7 8.496e+03 9.830e-11
 18.02148     93.9 8.627e+03 1.193e-10
 18.06087     95.1 8.758e+03 1.405e-10
 18.08076     95.6 8.718e+03 1.398e-10
 18.10103     96.8 8.860e+03 1.582e-10
 18.12681     97.9 8.973e+03 1.690e-10
 18.14670     98.8 9.015e+03 1.842e-10
 18.18057     99.9 9.118e+03 1.995e-10
 18.22035    100.9 9.238e+03 2.282e-10
 18.26012    101.9 9.414e+03 2.805e-10
 18.29989    102.9 9.636e+03 3.580e-10
 18.33751    103.9 9.856e+03 4.445e-10
 18.35739    104.6 1.013e+04 5.902e-10
 18.37944    105.4 1.031e+04 6.535e-10
 18.41921    106.0 1.031e+04 6.506e-10
 18.45898    106.6 1.026e+04 6.239e-10
 18.49875    107.3 1.015e+04 5.594e-10
 18.53853    108.2 9.981e+03 4.872e-10
 18.56809    109.1 9.842e+03 4.119e-10
 18.58797    109.6 9.932e+03 4.745e-10
 18.61807    110.6 9.784e+03 3.911e-10
 18.64794    111.7 9.632e+03 3.087e-10
 18.66782    111.6 9.295e+03 1.863e-10
 18.69762    112.5 9.090e+03 1.332e-10
 18.73739    113.3 8.955e+03 1.123e-10
 18.77716    114.4 8.946e+03 1.126e-10
 18.79866    115.5 8.968e+03 1.184e-10
 18.81855    115.9 9.041e+03 1.377e-10
 18.85671    116.8 9.114e+03 1.518e-10
 18.89648    117.6 9.259e+03 1.771e-10
 18.93625    118.4 9.443e+03 2.066e-10
 18.97603    119.1 9.602e+03 2.325e-10
 19.00936    119.7 9.798e+03 2.535e-10
 19.02924    119.9 9.717e+03 2.454e-10
 19.05557    120.4 9.899e+03 2.626e-10
 19.09534    121.0 1.017e+04 2.929e-10
 19.12455    121.0 1.028e+04 3.133e-10
 19.13439    121.1 1.030e+04 3.205e-10
 19.14486    121.3 1.041e+04 3.487e-10
 19.16475    121.5 1.054e+04 3.834e-10
 19.18464    121.7 1.072e+04 4.321e-10
 19.20452    121.6 1.110e+04 4.896e-10
 19.22441    121.3 1.172e+04 6.111e-10
 19.23481    120.6 1.249e+04 8.422e-10
 19.24019    120.2 1.321e+04 1.223e-09
 19.24968    120.8 1.267e+04 9.822e-10
 19.26418    119.5 1.356e+04 1.538e-09
 19.28407    118.4 1.434e+04 2.552e-09
 19.30395    117.8 1.507e+04 4.156e-09
 19.32384    117.6 1.565e+04 5.938e-09
 19.34373    117.1 1.587e+04 6.460e-09
 19.35503    116.5 1.580e+04 6.252e-09
 19.36497    116.5 1.563e+04 5.489e-09
 19.38350    115.9 1.538e+04 4.904e-09
 19.40339    115.3 1.480e+04 3.830e-09
 19.42327    114.5 1.406e+04 2.814e-09
 19.44316    113.7 1.337e+04 2.160e-09
 19.46038    113.3 1.284e+04 1.788e-09
 19.47032    113.4 1.290e+04 1.853e-09
 19.49297    113.0 1.235e+04 1.438e-09
 19.53284    113.0 1.169e+04 1.035e-09
 19.57262    113.5 1.106e+04 7.087e-10
 19.61239    114.4 1.048e+04 4.708e-10
 19.65216    115.7 1.001e+04 3.191e-10
 19.68121    117.2 9.720e+03 2.344e-10
 19.70109    117.1 9.556e+03 1.809e-10
 19.73171    118.7 9.323e+03 1.520e-10
 19.77148    120.4 9.161e+03 1.485e-10
 19.80218    122.1 9.142e+03 1.476e-10
 19.82207    122.9 9.201e+03 1.592e-10
 19.85102    124.6 9.201e+03 1.593e-10
 19.89080    126.2 9.203e+03 1.594e-10
 19.91179    127.7 9.188e+03 1.579e-10
 19.93167    128.0 9.083e+03 1.502e-10
 19.97034    129.5 9.029e+03 1.446e-10
 20.01011    131.0 8.938e+03 1.351e-10
 20.04989    132.4 8.818e+03 1.220e-10
 20.08966    134.0 8.693e+03 1.071e-10
 20.12248    135.5 8.618e+03 9.217e-11
 20.14236    136.0 8.631e+03 9.712e-11
 20.16920    137.6 8.573e+03 8.482e-11
 20.20898    139.2 8.509e+03 7.733e-11
 20.24875    140.9 8.429e+03 7.436e-11
 20.28852    142.7 8.381e+03 7.395e-11
 20.32830    144.5 8.373e+03 7.389e-11
 20.35306    146.3 8.368e+03 7.408e-11
 20.37294    146.6 8.363e+03 7.512e-11
 20.38925    148.3 8.353e+03 7.647e-11
 20.40913    149.3 8.458e+03 8.754e-11
 20.44761    150.9 8.465e+03 8.774e-11
 20.48739    152.4 8.475e+03 8.850e-11
 20.52716    153.7 8.485e+03 8.871e-11
 20.56375    155.0 8.486e+03 8.851e-11
 20.58364    155.5 8.524e+03 9.969e-11
 20.60670    156.7 8.527e+03 9.839e-11
 20.64648    158.0 8.536e+03 9.806e-11
 20.68625    159.1 8.559e+03 9.913e-11
 20.72602    160.2 8.629e+03 1.051e-10
 20.76579    161.1 8.749e+03 1.196e-10
 20.79433    161.9 8.899e+03 1.417e-10
 20.81421    162.7 8.974e+03 1.553e-10
 20.84534    163.4 9.120e+03 1.799e-10
 20.88511    164.0 9.268e+03 2.058e-10
 20.92488    164.5 9.434e+03 2.302e-10
 20.95643    164.9 9.610e+03 2.471e-10
 20.97631    165.2 9.650e+03 2.666e-10
 21.00443    165.3 9.898e+03 3.021e-10
 21.02491    165.2 1.016e+04 3.366e-10
 21.04479    166.7 1.014e+04 3.585e-10
 21.07393    166.4 1.032e+04 3.811e-10
 21.09372    166.1 1.057e+04 4.142e-10
 21.11361    165.6 1.090e+04 4.930e-10
 21.13006    164.7 1.135e+04 6.527e-10
 21.14000    166.2 1.125e+04 5.946e-10
 21.15338    165.1 1.184e+04 8.294e-10
 21.17327    163.6 1.242e+04 1.248e-09
 21.19315    162.3 1.288e+04 1.854e-09
 21.21304    161.4 1.313e+04 2.462e-09
 21.23293    160.6 1.313e+04 2.508e-09
 21.24535    160.0 1.303e+04 2.364e-09
 21.25224    161.0 1.340e+04 2.856e-09
 21.25971    161.3 1.395e+04 3.367e-09
 21.27270    160.8 1.356e+04 2.619e-09
 21.29259    160.1 1.304e+04 1.521e-09
 21.31247    158.3 1.239e+04 6.954e-10
 21.33236    155.3 1.131e+04 2.895e-10
 21.35069    152.3 9.540e+03 2.208e-10
 21.36064    154.6 1.057e+04 2.614e-10
 21.37213    151.7 9.273e+03 2.257e-10
 21.40206    151.5 9.255e+03 2.308e-10
 21.44193    151.6 9.167e+03 2.483e-10
 21.46618    151.8 9.100e+03 2.616e-10
 21.48607    152.6 9.294e+03 3.060e-10
 21.52147    153.0 9.320e+03 3.065e-10
 21.54349    153.6 9.249e+03 2.874e-10
 21.56338    153.3 9.130e+03 2.274e-10
 21.60102    153.7 8.841e+03 1.851e-10
 21.64079    154.2 8.760e+03 1.811e-10
 21.67687    154.8 8.810e+03 1.914e-10
 21.69676    155.3 9.064e+03 2.250e-10
 21.72034    155.5 9.165e+03 2.579e-10
 21.75007    155.2 9.208e+03 2.850e-10
 21.76986    155.2 9.239e+03 3.046e-10
 21.78974    155.2 9.355e+03 3.569e-10
 21.80191    155.2 9.648e+03 4.546e-10
 21.81185    155.7 9.855e+03 5.230e-10
 21.82689    155.2 1.035e+04 7.000e-10
 21.83683    155.1 1.027e+04 6.555e-10
 21.84940    154.3 1.074e+04 8.563e-10
 21.86929    153.5 1.113e+04 1.055e-09
 21.88918    152.6 1.135e+04 1.199e-09
 21.90726    151.5 1.148e+04 1.269e-09
 21.91720    151.7 1.190e+04 1.522e-09
 21.92895    149.1 1.269e+04 1.754e-09
 21.94883    144.4 1.444e+04 2.321e-09
 21.96370    140.5 1.589e+04 2.888e-09
 21.96977    135.3 1.788e+04 4.380e-09
 21.97471    133.6 1.889e+04 5.545e-09
 21.98350    127.0 2.142e+04 1.234e-08
 21.99348    123.4 2.146e+04 2.174e-08
 22.00342    121.8 2.082e+04 2.958e-08
 22.01337    120.9 2.062e+04 2.997e-08
 22.02245    120.9 2.024e+04 2.755e-08
 22.02742    120.1 2.023e+04 3.039e-08
 22.03325    120.0 1.985e+04 2.251e-08
 22.04822    118.0 1.894e+04 6.718e-09
 22.06815    112.0 1.716e+04 8.582e-10
 22.08804     98.5 1.002e+04 2.678e-10
 22.10792     93.4 8.813e+03 2.483e-10
 22.12042     92.9 8.854e+03 2.570e-10
 22.13037     92.6 8.849e+03 2.499e-10
 22.14770     89.7 1.028e+04 4.232e-10
 22.16758     88.1 1.130e+04 6.835e-10
 22.18747     87.4 1.208e+04 1.149e-09
 22.20736     87.4 1.262e+04 1.810e-09
 22.22724     88.1 1.295e+04 2.448e-09
 22.24318     89.1 1.312e+04 2.648e-09
 22.25312     88.0 1.353e+04 3.252e-09
 22.26702     88.9 1.332e+04 2.931e-09
 22.28690     89.5 1.293e+04 2.283e-09
 22.31683     90.4 1.232e+04 1.532e-09
 22.34872     91.4 1.135e+04 8.454e-10
 22.36861     89.5 1.147e+04 9.021e-10
 22.39647     91.2 1.069e+04 5.442e-10
 22.43624     93.3 1.023e+04 3.650e-10
 22.47602     95.3 1.004e+04 2.832e-10
 22.51579     97.1 9.952e+03 2.413e-10
 22.54552     97.6 9.863e+03 2.287e-10
 22.56531     98.2 9.764e+03 2.202e-10
 22.57911     98.8 9.687e+03 2.164e-10
 22.58905     98.4 9.670e+03 2.128e-10
 22.60508     98.8 9.629e+03 2.135e-10
 22.62497     99.1 9.637e+03 2.191e-10
 22.64486     99.2 9.715e+03 2.406e-10
 22.66474     99.2 9.871e+03 2.806e-10
 22.68445     99.2 1.007e+04 3.401e-10
 22.69439     98.8 9.961e+03 3.319e-10
 22.69755     99.0 1.024e+04 4.169e-10
 22.70749     99.0 1.052e+04 4.675e-10
 22.72440     99.1 1.077e+04 5.653e-10
 22.74429     99.2 1.100e+04 6.734e-10
 22.76417     99.4 1.121e+04 7.869e-10
 22.78406     99.5 1.139e+04 9.005e-10
 22.79974     99.5 1.158e+04 1.015e-09
 22.80968     99.7 1.177e+04 1.151e-09
 22.82383     99.8 1.199e+04 1.285e-09
 22.84372     99.7 1.228e+04 1.450e-09
 22.86360     99.5 1.265e+04 1.657e-09
 22.88349     99.2 1.307e+04 1.909e-09
 22.90338     98.9 1.348e+04 2.219e-09
 22.91503     98.6 1.368e+04 2.493e-09
 22.92497     99.2 1.331e+04 2.223e-09
 22.94315     99.0 1.329e+04 2.242e-09
 22.96304     99.0 1.319e+04 2.208e-09
 22.98114     99.2 1.291e+04 2.060e-09
 22.99108     99.0 1.287e+04 2.130e-09
 23.00281     99.5 1.251e+04 1.838e-09
 23.02038    100.1 1.215e+04 1.541e-09
 23.03032    100.6 1.197e+04 1.445e-09
 23.04258    101.1 1.172e+04 1.236e-09
 23.06247    101.6 1.155e+04 1.057e-09
 23.08235    101.9 1.146e+04 9.407e-10
 23.10224    102.3 1.146e+04 9.246e-10
 23.12213    102.6 1.148e+04 9.338e-10
 23.13567    103.0 1.154e+04 9.817e-10
 23.14561    103.9 1.159e+04 9.652e-10
 23.16190    104.2 1.174e+04 1.064e-09
 23.18179    104.6 1.192e+04 1.207e-09
 23.20167    105.1 1.218e+04 1.344e-09
 23.22156    105.5 1.219e+04 1.340e-09
 23.24101    105.8 1.214e+04 1.282e-09
 23.25096    106.5 1.238e+04 1.417e-09
 23.26133    106.8 1.219e+04 1.313e-09
 23.27467    106.9 1.201e+04 1.220e-09
 23.28461    106.8 1.154e+04 9.898e-10
 23.31114    108.3 1.140e+04 8.856e-10
 23.35101    109.0 1.074e+04 5.101e-10
 23.39079    109.1 1.004e+04 2.376e-10
 23.43056    109.0 9.578e+03 1.195e-10
 23.46184    109.2 9.365e+03 9.812e-11
 23.48173    110.3 9.523e+03 1.101e-10
 23.51011    110.6 9.439e+03 1.047e-10
 23.54988    111.6 9.371e+03 1.052e-10
 23.58965    113.1 9.307e+03 1.106e-10
 23.62942    114.7 9.279e+03 1.268e-10
 23.66920    116.5 9.342e+03 1.497e-10
 23.69242    118.4 9.455e+03 1.717e-10
 23.71231    118.7 9.739e+03 2.229e-10
 23.74874    120.5 9.800e+03 2.289e-10
 23.78851    122.3 9.784e+03 2.246e-10
 23.82829    124.2 9.713e+03 2.006e-10
 23.85199    126.2 9.608e+03 1.589e-10
 23.87187    126.5 9.709e+03 1.683e-10
 23.90311    128.4 9.547e+03 1.308e-10
 23.92300    128.6 9.548e+03 1.326e-10
 23.94760    130.6 9.414e+03 1.191e-10
 23.98738    132.7 9.411e+03 1.194e-10
 24.02715    134.6 9.446e+03 1.235e-10
 24.06692    136.4 9.577e+03 1.466e-10
 24.10669    138.0 9.812e+03 2.135e-10
 24.13369    139.3 1.017e+04 3.376e-10
 24.15358    140.5 9.903e+03 2.727e-10
 24.18624    141.7 1.025e+04 4.018e-10
 24.22601    142.2 1.047e+04 4.767e-10
 24.26579    142.4 1.049e+04 4.752e-10
 24.30556    142.9 1.044e+04 4.464e-10
 24.34439    143.4 1.033e+04 3.753e-10
 24.36427    145.4 1.023e+04 3.695e-10
 24.38510    146.0 1.007e+04 2.901e-10
 24.41917    146.5 9.958e+03 2.216e-10
 24.43905    145.4 1.018e+04 2.588e-10
 24.46465    145.8 1.019e+04 2.626e-10
 24.50442    146.6 1.022e+04 2.826e-10
 24.54419    147.7 1.039e+04 3.489e-10
 24.57497    148.7 1.058e+04 4.439e-10
 24.59485    151.0 1.050e+04 3.706e-10
 24.61370    151.0 1.063e+04 4.252e-10
 24.63349    151.4 1.074e+04 4.882e-10
 24.65337    151.9 1.078e+04 5.703e-10
 24.67326    152.6 1.082e+04 6.433e-10
 24.69006    153.3 1.073e+04 6.908e-10
 24.70000    154.1 1.079e+04 6.902e-10
 24.71250    154.9 1.073e+04 7.004e-10
 24.72245    154.2 1.083e+04 6.457e-10
 24.73292    154.7 1.074e+04 5.580e-10
 24.75280    155.1 1.058e+04 4.761e-10
 24.77269    155.5 1.041e+04 4.123e-10
 24.79258    155.7 1.018e+04 3.669e-10
 24.80545    156.2 1.014e+04 3.791e-10
 24.81539    157.0 1.016e+04 3.732e-10
 24.83235    157.1 9.998e+03 3.535e-10
 24.85224    157.5 9.892e+03 3.506e-10
 24.87212    157.6 9.852e+03 3.507e-10
 24.90205    158.7 9.891e+03 3.659e-10
 24.94192    159.2 9.797e+03 3.493e-10
 24.98169    159.7 9.688e+03 3.196e-10
 25.00623    160.1 9.472e+03 2.814e-10
 25.02089    161.0 8.780e+03 1.806e-10
 25.03612    162.1 9.064e+03 2.165e-10
 25.06124    162.5 8.715e+03 1.766e-10
 25.10101    163.1 8.566e+03 1.720e-10
 25.14078    163.9 8.579e+03 1.768e-10
 25.18056    164.9 8.643e+03 1.951e-10
 25.22033    166.0 8.716e+03 2.157e-10
 25.24682    167.1 8.723e+03 2.191e-10
 25.26670    168.1 8.690e+03 2.184e-10
 25.29987    169.2 8.667e+03 2.163e-10
 25.33965    170.3 8.623e+03 2.107e-10
 25.37942    171.5 8.635e+03 2.114e-10
 25.41919    172.5 8.778e+03 2.276e-10
 25.45751    172.6 9.207e+03 2.931e-10
 25.47739    173.8 9.152e+03 2.863e-10
 25.49874    173.6 9.541e+03 3.674e-10
 25.52847    173.2 9.957e+03 4.950e-10
 25.54826    173.2 1.040e+04 6.933e-10
 25.56814    173.3 1.079e+04 8.946e-10
 25.58255    173.3 1.106e+04 9.484e-10
 25.58762    173.9 1.118e+04 1.037e-09
 25.59310    173.9 1.122e+04 1.114e-09
 25.60792    173.8 1.142e+04 1.162e-09
 25.62780    173.4 1.141e+04 1.150e-09
 25.64769    172.9 1.134e+04 1.075e-09
 25.66757    172.5 1.112e+04 9.030e-10
 25.68746    172.0 1.084e+04 7.051e-10
 25.69783    171.3 1.058e+04 5.277e-10
 25.70778    171.9 1.066e+04 5.567e-10
 25.72723    170.8 1.046e+04 4.151e-10
 25.74712    169.6 1.036e+04 3.408e-10
 25.76701    168.6 1.034e+04 3.308e-10
 25.78689    167.9 1.034e+04 3.310e-10
 25.80318    167.4 1.036e+04 3.345e-10
 25.81312    168.1 1.027e+04 3.282e-10
 25.82667    167.6 1.034e+04 3.450e-10
 25.84655    167.3 1.040e+04 3.778e-10
 25.86644    167.0 1.045e+04 4.262e-10
 25.87669    166.8 1.050e+04 4.837e-10
 25.88664    166.4 1.067e+04 5.829e-10
 25.90621    166.2 1.072e+04 6.027e-10
 25.91847    166.1 1.082e+04 6.213e-10
 25.92841    166.7 1.092e+04 6.948e-10
 25.94598    166.7 1.110e+04 7.364e-10
 25.96587    166.5 1.136e+04 7.852e-10
 25.98576    166.2 1.170e+04 8.434e-10
 26.00564    165.8 1.207e+04 9.060e-10
 26.02382    165.2 1.242e+04 9.701e-10
 26.03376    165.6 1.290e+04 1.298e-09
 26.04541    164.9 1.333e+04 1.428e-09
 26.06530    164.1 1.369e+04 1.579e-09
 26.08519    163.1 1.409e+04 1.801e-09
 26.10507    162.0 1.456e+04 2.154e-09
 26.12496    160.8 1.503e+04 2.658e-09
 26.13911    159.8 1.542e+04 3.287e-09
 26.14905    160.8 1.537e+04 3.184e-09
 26.16028    160.0 1.576e+04 3.877e-09
 26.17023    158.3 1.578e+04 4.054e-09
 26.18462    158.0 1.605e+04 4.878e-09
 26.20451    157.7 1.629e+04 5.666e-09
 26.22439    157.6 1.645e+04 6.194e-09
 26.24428    157.4 1.647e+04 6.085e-09
 26.25440    157.1 1.643e+04 5.638e-09
 26.26434    157.8 1.649e+04 6.281e-09
 26.28405    157.7 1.636e+04 5.766e-09
 26.30394    157.7 1.610e+04 4.882e-09
 26.32382    157.8 1.565e+04 3.856e-09
 26.34371    158.0 1.502e+04 2.866e-09
 26.35974    158.2 1.422e+04 2.029e-09
 26.36969    159.1 1.503e+04 2.807e-09
 26.38348    159.4 1.438e+04 2.016e-09
 26.40337    159.7 1.362e+04 1.410e-09
 26.42325    160.0 1.279e+04 9.912e-10
 26.44314    160.2 1.197e+04 7.277e-10
 26.45382    160.5 1.124e+04 5.776e-10
 26.46376    159.5 1.047e+04 4.900e-10
 26.47503    160.3 1.041e+04 4.819e-10
 26.48497    161.1 1.062e+04 5.238e-10
 26.50280    161.9 1.055e+04 5.200e-10
 26.52269    162.6 1.060e+04 5.339e-10
 26.54257    163.3 1.070e+04 5.781e-10
 26.56246    163.8 1.083e+04 6.585e-10
 26.58038    164.2 1.105e+04 7.836e-10
 26.59032    165.1 1.107e+04 7.471e-10
 26.60223    165.4 1.131e+04 9.066e-10
 26.62212    165.7 1.159e+04 1.125e-09
 26.64200    166.1 1.193e+04 1.401e-09
 26.66189    166.5 1.226e+04 1.722e-09
 26.68178    167.1 1.258e+04 2.004e-09
 26.69567    167.6 1.283e+04 2.117e-09
 26.70561    168.1 1.304e+04 2.318e-09
 26.72155    168.3 1.318e+04 2.346e-09
 26.73741    168.5 1.315e+04 2.282e-09
 26.74735    169.0 1.298e+04 2.274e-09
 26.76132    169.3 1.275e+04 1.987e-09
 26.78121    169.8 1.239e+04 1.571e-09
 26.80101    170.0 1.195e+04 1.172e-09
 26.82090    169.8 1.241e+04 1.061e-09
 26.84087    168.7 1.286e+04 1.043e-09
 26.86075    167.0 1.455e+04 1.163e-09
 26.88064    165.6 1.656e+04 1.629e-09
 26.90053    165.1 1.771e+04 2.530e-09
 26.91630    165.4 1.802e+04 3.868e-09
 26.92625    165.5 1.841e+04 5.998e-09
 26.94030    166.5 1.831e+04 8.245e-09
 26.96019    167.6 1.809e+04 9.965e-09
 26.98007    168.6 1.774e+04 1.097e-08
 26.99996    169.7 1.749e+04 1.112e-08
 27.01984    170.8 1.721e+04 1.071e-08
 27.03094    171.8 1.704e+04 1.021e-08
 27.03270    171.2 1.765e+04 1.035e-08
 27.03647    171.4 1.799e+04 1.138e-08
 27.04460    171.9 1.783e+04 1.163e-08
 27.05455    172.6 1.778e+04 1.171e-08
 27.06449    173.2 1.775e+04 1.172e-08
 27.07443    173.6 1.774e+04 1.167e-08
 27.08417    174.0 1.773e+04 1.138e-08
 27.08914    174.1 1.814e+04 1.264e-08
 27.09432    174.3 1.810e+04 1.203e-08
 27.10426    174.4 1.789e+04 1.098e-08
 27.11421    174.6 1.757e+04 9.781e-09
 27.12415    174.8 1.721e+04 8.597e-09
 27.13409    175.0 1.685e+04 7.547e-09
 27.14181    175.0 1.649e+04 6.643e-09
 27.14678    175.0 1.672e+04 6.998e-09
 27.15398    175.1 1.633e+04 6.169e-09
 27.16392    175.3 1.603e+04 5.604e-09
 27.17264    175.5 1.584e+04 5.214e-09
 27.17761    175.7 1.613e+04 5.656e-09
 27.18381    175.7 1.596e+04 5.325e-09
 27.19877    176.1 1.572e+04 4.854e-09
 27.21871    176.7 1.518e+04 3.950e-09
 27.23859    177.2 1.454e+04 3.047e-09
 27.25223    177.6 1.393e+04 2.308e-09
 27.26217    178.3 1.459e+04 3.165e-09
 27.27837    178.8 1.400e+04 2.386e-09
 27.29825    179.1 1.350e+04 1.841e-09
 27.31453    179.6 1.311e+04 1.497e-09
 27.32447    179.3 1.296e+04 1.969e-09
 27.33803    179.9 1.272e+04 1.714e-09
 27.35757    180.5 1.258e+04 1.585e-09
 27.36752    181.1 1.273e+04 1.737e-09
 27.37780    181.9 1.274e+04 1.708e-09
 27.39768    182.9 1.276e+04 1.712e-09
 27.41757    183.9 1.282e+04 1.749e-09
 27.43746    184.8 1.293e+04 1.861e-09
 27.45734    185.7 1.306e+04 2.042e-09
 27.47286    186.6 1.324e+04 2.274e-09
 27.48281    187.5 1.348e+04 2.389e-09
 27.49712    188.3 1.373e+04 2.681e-09
 27.51700    189.2 1.400e+04 3.072e-09
 27.53689    190.1 1.428e+04 3.569e-09
 27.55677    191.0 1.457e+04 4.141e-09
 27.57666    192.0 1.486e+04 4.694e-09
 27.58815    192.9 1.513e+04 5.079e-09
 27.59810    193.9 1.541e+04 5.459e-09
 27.60806    194.5 1.554e+04 5.590e-09
 27.61801    194.4 1.537e+04 5.367e-09
 27.63632    195.1 1.540e+04 5.400e-09
 27.65621    195.8 1.535e+04 5.287e-09
 27.67609    196.5 1.514e+04 4.860e-09
 27.69350    197.0 1.476e+04 4.180e-09
 27.70344    198.1 1.534e+04 5.062e-09
 27.71587    198.5 1.490e+04 4.244e-09
 27.73575    198.9 1.434e+04 3.404e-09
 27.75564    199.2 1.375e+04 2.686e-09
 27.77552    199.4 1.321e+04 2.119e-09
 27.79541    199.5 1.273e+04 1.688e-09
 27.80879    199.7 1.228e+04 1.357e-09
 27.81873    200.5 1.272e+04 1.640e-09
 27.83518    200.6 1.223e+04 1.291e-09
 27.85507    200.7 1.175e+04 1.009e-09
 27.87496    200.8 1.128e+04 7.897e-10
 27.89165    200.9 1.081e+04 6.308e-10
 27.90160    201.0 1.121e+04 7.790e-10
 27.91413    201.0 1.082e+04 6.245e-10
 27.92408    201.6 1.140e+04 7.677e-10
 27.93461    201.3 1.094e+04 5.910e-10
 27.95450    200.7 1.071e+04 4.722e-10
 27.97439    200.1 1.081e+04 4.594e-10
 27.99427    199.3 1.099e+04 4.686e-10
 28.01416    198.3 1.144e+04 5.205e-10
 28.02942    197.2 1.187e+04 6.647e-10
 28.03937    197.7 1.166e+04 6.344e-10
 28.05393    196.7 1.200e+04 8.455e-10
 28.07382    195.9 1.230e+04 1.166e-09
 28.09371    195.4 1.260e+04 1.579e-09
 28.11359    195.1 1.298e+04 2.030e-09
 28.13348    194.6 1.339e+04 2.407e-09
 28.14471    194.0 1.379e+04 2.516e-09
 28.15466    194.6 1.362e+04 2.430e-09
 28.17325    193.7 1.371e+04 2.417e-09
 28.18519    192.6 1.372e+04 2.325e-09
 28.19513    190.6 1.363e+04 2.117e-09
 28.21302    189.6 1.325e+04 1.859e-09
 28.23291    188.9 1.279e+04 1.579e-09
 28.25006    188.3 1.236e+04 1.314e-09
 28.26000    188.7 1.250e+04 1.412e-09
 28.27268    188.0 1.220e+04 1.222e-09
 28.29257    187.2 1.223e+04 1.146e-09
 28.31245    185.9 1.243e+04 1.189e-09
 28.33234    184.0 1.317e+04 1.422e-09
 28.35223    182.0 1.415e+04 2.041e-09
 28.36535    180.7 1.490e+04 3.025e-09
 28.37529    180.4 1.508e+04 3.210e-09
 28.39200    179.3 1.536e+04 3.963e-09
 28.41189    178.3 1.531e+04 3.976e-09
 28.43177    177.5 1.494e+04 3.636e-09
 28.45166    177.0 1.426e+04 2.847e-09
 28.46878    176.7 1.335e+04 1.994e-09
 28.47787    176.0 1.298e+04 1.702e-09
 28.48064    175.4 1.296e+04 1.724e-09
 28.49143    174.6 1.191e+04 1.131e-09
 28.51132    173.9 1.112e+04 8.062e-10
 28.53120    173.7 1.068e+04 6.465e-10
 28.55109    173.7 1.046e+04 5.577e-10
 28.57098    173.8 1.033e+04 5.045e-10
 28.58599    174.2 1.025e+04 4.725e-10
 28.59593    174.1 1.034e+04 5.017e-10
 28.61075    174.4 1.027e+04 4.740e-10
 28.63064    174.8 1.020e+04 4.540e-10
 28.65052    175.2 1.015e+04 4.402e-10
 28.67041    175.6 1.011e+04 4.318e-10
 28.69029    176.0 1.006e+04 4.249e-10
 28.70127    176.3 1.002e+04 4.189e-10
 28.71122    176.0 1.002e+04 4.190e-10
 28.73007    176.3 9.968e+03 4.168e-10
 28.74995    176.6 9.956e+03 4.188e-10
 28.76231    176.9 9.943e+03 4.253e-10
 28.77225    176.2 9.736e+03 3.789e-10
 28.78973    176.6 9.747e+03 3.934e-10
 28.80662    177.0 9.794e+03 4.147e-10
 28.81656    177.0 9.866e+03 4.397e-10
 28.82950    177.3 9.996e+03 4.865e-10
 28.84938    177.4 1.015e+04 5.382e-10
 28.86927    177.4 1.030e+04 5.928e-10
 28.88916    177.3 1.047e+04 6.526e-10
 28.90904    177.2 1.063e+04 7.181e-10
 28.92191    177.0 1.079e+04 7.897e-10
 28.93185    176.6 1.091e+04 8.452e-10
 28.94882    176.3 1.108e+04 9.310e-10
 28.96870    176.1 1.125e+04 1.032e-09
 28.98859    175.8 1.145e+04 1.144e-09
 29.00848    175.6 1.166e+04 1.237e-09
 29.02726    175.4 1.179e+04 1.291e-09
 29.03720    175.2 1.169e+04 1.262e-09
 29.04590    175.0 1.170e+04 1.244e-09
 29.05584    176.0 1.171e+04 1.264e-09
 29.06813    175.8 1.169e+04 1.209e-09
 29.08802    175.5 1.155e+04 1.101e-09
 29.10791    175.4 1.126e+04 9.422e-10
 29.12779    175.3 1.090e+04 7.910e-10
 29.14255    175.3 1.052e+04 6.430e-10
 29.15249    175.0 1.028e+04 5.639e-10
 29.16757    175.1 9.886e+03 4.606e-10
 29.18745    175.2 9.568e+03 3.920e-10
 29.20734    175.3 9.486e+03 3.702e-10
 29.22722    175.5 9.494e+03 3.726e-10
 29.24711    175.8 9.548e+03 3.871e-10
 29.25784    176.0 9.689e+03 4.319e-10
 29.26778    176.7 9.606e+03 3.996e-10
 29.28688    177.0 9.848e+03 4.721e-10
 29.30677    177.4 1.012e+04 5.715e-10
 29.32666    178.0 1.040e+04 6.879e-10
 29.33943    178.6 1.068e+04 8.060e-10
 29.34937    179.2 1.011e+04 6.171e-10
 29.36318    179.9 1.033e+04 7.027e-10
 29.37312    180.8 1.036e+04 6.931e-10
 29.38632    181.5 1.064e+04 7.900e-10
 29.40620    182.0 1.089e+04 8.764e-10
 29.42609    182.6 1.112e+04 9.523e-10
 29.44597    183.1 1.131e+04 1.023e-09
 29.46586    183.6 1.147e+04 1.096e-09
 29.47847    184.0 1.163e+04 1.186e-09
 29.48841    184.7 1.245e+04 1.618e-09
 29.50563    185.3 1.270e+04 1.822e-09
 29.52552    185.9 1.305e+04 2.106e-09
 29.54541    186.4 1.363e+04 2.553e-09
 29.56529    186.5 1.458e+04 3.306e-09
 29.58382    186.8 1.606e+04 4.460e-09
 29.59376    189.1 1.526e+04 4.232e-09
 29.60506    189.9 1.672e+04 5.286e-09
 29.62302    191.1 1.854e+04 7.080e-09
 29.63296    190.7 2.243e+04 9.076e-09
 29.63982    191.9 2.218e+04 1.094e-08
 29.64634    193.2 2.325e+04 1.326e-08
 29.65131    195.0 2.181e+04 1.079e-08
 29.65965    196.7 2.378e+04 1.362e-08
 29.66960    198.7 2.697e+04 1.869e-08
 29.67954    201.0 2.941e+04 3.003e-08
 29.68948    204.0 3.105e+04 6.620e-08
 29.69901    208.8 3.181e+04 1.456e-07
 29.70398    212.7 3.597e+04 9.080e-08
 29.70686    215.5 3.589e+04 1.396e-07
 29.71181    220.0 3.721e+04 1.882e-07
 29.71678    226.7 4.412e+04 2.258e-07
 29.72050    229.7 4.894e+04 2.440e-07
 29.72297    227.7 4.159e+04 9.464e-07
 29.72428    226.9 3.704e+04 2.056e-06
 29.72489    225.1 3.414e+04 2.772e-06
 29.72606    211.6 1.979e+04 4.886e-05
 29.72731    174.1 1.108e+04 2.300e-02
 29.72855    133.7 1.029e+04 2.008e-01
 29.72979    107.0 1.012e+04 4.486e-01
 29.73085     91.1 1.010e+04 3.683e-01
 29.73147     89.6 1.044e+04 1.670e-01
 29.73228     83.8 9.911e+03 1.196e-01
 29.73352     83.0 9.933e+03 7.576e-02
 29.73539     93.3 1.103e+04 2.389e-02
 29.73788     98.7 1.591e+04 3.800e-04
 29.73914    103.4 1.882e+04 3.064e-05
 29.74038    104.7 2.061e+04 2.774e-05
 29.74286    110.0 2.171e+04 9.956e-06
 29.74660     98.4 2.984e+04 2.501e-06
 29.75158     95.9 5.136e+04 1.466e-07
 29.75655     99.7 5.306e+04 1.172e-07
 29.75909    102.7 6.227e+04 3.629e-08
 29.76160    102.0 5.315e+04 1.145e-07
 29.76903    104.4 6.680e+04 1.738e-08
 29.77466    104.4 6.056e+04 9.121e-09
 29.77963     98.9 3.246e+04 2.153e-08
 29.78892    101.9 3.081e+04 1.398e-08
 29.79886    104.3 3.229e+04 8.171e-09
 29.80880    105.1 2.871e+04 5.118e-09
 29.81435    102.7 3.093e+04 1.955e-09
 29.82434     94.5 2.105e+04 7.909e-10
 29.84370     94.9 1.218e+04 9.756e-10
 29.86359     96.7 1.035e+04 1.104e-09
 29.88347     98.8 1.049e+04 1.079e-09
 29.90336    100.3 8.196e+03 1.185e-09
 29.91655    101.9 8.119e+03 1.097e-09
 29.92299    100.9 1.432e+04 9.192e-10
 29.92978     99.1 1.150e+04 6.864e-10
 29.95327    102.1 1.079e+04 6.079e-10
 29.99304    104.8 1.042e+04 5.325e-10
 30.03282    107.4 1.026e+04 5.133e-10
 30.07259    109.5 1.040e+04 5.499e-10
 30.11236    111.3 1.090e+04 6.539e-10
 30.14048    109.0 1.295e+04 1.106e-09
 30.15032    108.9 1.323e+04 1.131e-09
 30.16188    109.8 1.362e+04 1.352e-09
 30.18177    111.8 1.391e+04 1.521e-09
 30.20014    113.0 1.434e+04 1.884e-09
 30.21009    110.3 1.656e+04 3.457e-09
 30.22154    111.6 1.673e+04 3.773e-09
 30.24143    113.0 1.683e+04 3.981e-09
 30.25567    114.4 1.692e+04 4.084e-09
 30.26561    114.1 1.664e+04 3.713e-09
 30.28120    115.3 1.651e+04 3.659e-09
 30.30109    116.5 1.641e+04 3.669e-09
 30.32097    117.6 1.633e+04 3.595e-09
 30.34086    118.5 1.611e+04 3.323e-09
 30.36074    119.3 1.574e+04 2.957e-09
 30.37096    120.0 1.521e+04 2.602e-09
 30.38090    119.7 1.445e+04 2.183e-09
 30.40052    120.5 1.395e+04 1.947e-09
 30.42040    121.3 1.351e+04 1.757e-09
 30.44029    122.2 1.316e+04 1.584e-09
 30.46018    123.2 1.285e+04 1.410e-09
 30.47630    124.2 1.253e+04 1.249e-09
 30.48625    124.6 1.249e+04 1.253e-09
 30.49368    125.6 1.224e+04 1.110e-09
 30.50362    124.7 1.172e+04 8.910e-10
 30.51984    125.9 1.155e+04 8.251e-10
 30.53972    127.2 1.140e+04 7.680e-10
 30.55961    128.5 1.124e+04 7.194e-10
 30.57949    129.9 1.104e+04 6.735e-10
 30.59159    131.4 1.086e+04 6.279e-10
 30.60154    131.9 1.092e+04 6.383e-10
 30.61927    133.5 1.078e+04 5.957e-10
 30.63915    135.0 1.066e+04 5.563e-10
 30.65904    136.6 1.055e+04 5.182e-10
 30.67893    138.3 1.045e+04 4.844e-10
 30.69694    139.9 1.038e+04 4.585e-10
 30.70688    140.3 1.042e+04 4.665e-10
 30.71870    141.8 1.036e+04 4.440e-10
 30.73858    143.2 1.029e+04 4.252e-10
 30.75847    144.6 1.024e+04 4.115e-10
 30.77727    146.2 1.021e+04 4.065e-10
 30.78721    145.2 1.166e+04 5.220e-10
 30.79824    146.5 1.176e+04 5.559e-10
 30.81223    147.7 1.187e+04 6.000e-10
 30.82217    148.0 1.201e+04 6.209e-10
 30.83802    149.3 1.209e+04 6.792e-10
 30.85790    150.5 1.221e+04 7.462e-10
 30.87779    151.7 1.235e+04 8.132e-10
 30.89768    152.9 1.247e+04 8.769e-10
 30.91756    154.0 1.258e+04 9.424e-10
 30.93745    155.4 1.280e+04 1.093e-09
 30.95733    156.3 1.291e+04 1.186e-09
 30.97722    157.3 1.303e+04 1.307e-09
 30.99711    158.1 1.320e+04 1.455e-09
 31.01699    158.9 1.342e+04 1.626e-09
 31.03286    159.8 1.368e+04 1.817e-09
 31.04281    160.4 1.365e+04 1.832e-09
 31.05677    161.2 1.408e+04 2.014e-09
 31.07080    161.8 1.463e+04 2.211e-09
 31.08074    158.4 1.618e+04 2.598e-09
 31.09654    157.9 1.675e+04 2.972e-09
 31.11642    157.4 1.713e+04 3.512e-09
 31.13631    157.2 1.735e+04 4.106e-09
 31.14810    157.9 1.740e+04 4.176e-09
 31.15303    157.8 1.759e+04 4.198e-09
 31.16107    157.6 1.791e+04 4.669e-09
 31.17101    157.2 1.826e+04 5.413e-09
 31.18096    156.7 1.859e+04 6.382e-09
 31.19090    156.0 1.887e+04 7.510e-09
 31.20073    155.3 1.917e+04 8.740e-09
 31.20570    155.0 1.933e+04 9.496e-09
 31.21079    154.2 1.961e+04 1.066e-08
 31.21747    153.3 1.997e+04 1.187e-08
 31.22244    151.6 1.982e+04 1.197e-08
 31.23067    150.8 2.004e+04 1.326e-08
 31.24062    150.2 2.026e+04 1.411e-08
 31.25056    149.7 2.053e+04 1.520e-08
 31.25837    149.0 2.113e+04 1.741e-08
 31.26335    148.9 2.092e+04 1.608e-08
 31.27045    148.0 2.156e+04 1.915e-08
 31.28039    146.8 2.215e+04 2.538e-08
 31.29033    145.8 2.257e+04 3.729e-08
 31.30028    145.2 2.321e+04 5.662e-08
 31.31022    144.1 2.413e+04 7.051e-08
 31.31602    142.1 2.423e+04 6.917e-08
 31.32099    142.3 2.335e+04 4.708e-08
 31.33010    141.3 2.295e+04 4.132e-08
 31.34005    141.0 2.189e+04 3.013e-08
 31.34999    140.6 2.045e+04 1.900e-08
 31.35926    140.3 1.972e+04 1.532e-08
 31.36428    139.7 1.942e+04 1.396e-08
 31.36879    139.1 1.827e+04 9.135e-09
 31.37873    140.3 1.822e+04 9.171e-09
 31.39483    139.2 1.717e+04 6.039e-09
 31.41472    137.3 1.620e+04 3.876e-09
 31.43461    135.0 1.494e+04 2.597e-09
 31.45449    132.5 1.365e+04 1.954e-09
 31.47414    130.7 1.279e+04 1.672e-09
 31.48408    133.3 1.353e+04 1.983e-09
 31.49426    131.7 1.311e+04 1.880e-09
 31.51415    130.3 1.314e+04 1.895e-09
 31.53404    128.0 1.348e+04 2.069e-09
 31.55392    125.0 1.461e+04 2.764e-09
 31.57381    121.9 1.577e+04 3.961e-09
 31.58943    119.0 1.613e+04 4.877e-09
 31.59932    118.6 1.671e+04 5.771e-09
 31.60851    116.6 1.696e+04 6.364e-09
 31.61846    115.4 1.690e+04 6.407e-09
 31.63342    113.1 1.726e+04 7.025e-09
 31.64792    111.0 1.670e+04 5.739e-09
 31.65787    109.9 1.695e+04 6.016e-09
 31.67324    107.2 1.592e+04 3.807e-09
 31.69313    104.3 1.448e+04 2.038e-09
 31.70471    101.5 1.290e+04 1.087e-09
 31.71466     98.8 1.264e+04 9.536e-10
 31.73290     97.3 1.150e+04 6.451e-10
 31.75279     97.2 1.114e+04 5.278e-10
 31.77267     97.9 1.101e+04 4.337e-10
 31.79256     98.6 1.105e+04 3.845e-10
 31.82249     99.9 1.111e+04 3.568e-10
 31.86236    102.9 1.079e+04 2.891e-10
 31.90213    106.3 1.043e+04 2.363e-10
 31.92555    109.7 1.016e+04 2.031e-10
 31.93524    108.1 1.035e+04 2.288e-10
 31.95160    107.1 1.017e+04 2.057e-10
 31.98167    110.8 9.965e+03 1.935e-10
 32.02145    114.4 9.884e+03 1.931e-10
 32.06122    117.9 9.870e+03 1.973e-10
 32.10099    121.2 9.859e+03 2.051e-10
 32.13624    124.5 9.866e+03 2.143e-10
 32.15612    123.5 9.860e+03 2.136e-10
 32.18054    126.7 9.857e+03 2.222e-10
 32.22031    129.8 9.844e+03 2.307e-10
 32.26008    132.8 9.819e+03 2.369e-10
 32.29986    135.7 9.800e+03 2.408e-10
 32.33963    138.5 9.783e+03 2.437e-10
 32.36682    141.3 9.772e+03 2.477e-10
 32.38670    141.1 9.504e+03 1.973e-10
 32.41917    143.7 9.491e+03 2.004e-10
 32.45895    146.3 9.490e+03 2.061e-10
 32.49872    148.8 9.498e+03 2.120e-10
 32.53849    150.4 9.334e+03 1.943e-10
 32.57751    152.8 9.336e+03 1.964e-10
 32.59740    153.3 8.962e+03 1.389e-10
 32.61804    155.7 8.954e+03 1.391e-10
 32.65781    157.9 9.005e+03 1.451e-10
 32.69758    159.8 9.220e+03 1.687e-10
 32.73735    161.7 9.665e+03 2.201e-10
 32.77713    163.6 1.023e+04 2.961e-10
 32.80809    165.4 1.066e+04 3.629e-10
 32.82797    167.3 1.021e+04 2.824e-10
 32.84663    167.4 1.054e+04 3.389e-10
 32.86642    167.9 1.067e+04 3.883e-10
 32.88631    168.1 1.071e+04 4.483e-10
 32.90619    166.8 1.232e+04 6.549e-10
 32.92318    159.8 1.835e+04 2.019e-09
 32.93313    163.6 1.640e+04 1.305e-09
 32.94597    155.3 2.130e+04 5.294e-09
 32.96585    150.1 2.239e+04 1.284e-08
 32.98072    147.2 2.223e+04 1.994e-08
 32.98570    146.0 2.186e+04 2.175e-08
 32.99067    147.3 2.191e+04 2.796e-08
 33.00055    146.8 2.178e+04 2.719e-08
 33.01050    146.2 2.158e+04 2.259e-08
 33.02044    144.6 2.199e+04 1.308e-08
 33.03038    141.2 2.242e+04 5.539e-09
 33.03837    134.5 2.127e+04 1.849e-09
 33.04335    138.2 2.376e+04 2.884e-09
 33.05027    132.4 2.053e+04 1.383e-09
 33.06523    127.5 1.719e+04 9.387e-10
 33.08517    120.3 1.136e+04 5.807e-10
 33.09570    118.6 1.068e+04 5.305e-10
 33.10565    118.6 1.067e+04 5.346e-10
 33.12494    118.6 1.074e+04 5.344e-10
 33.14382    118.4 1.084e+04 5.351e-10
 33.15376    118.7 1.085e+04 5.438e-10
 33.16471    118.1 1.096e+04 5.430e-10
 33.18460    117.2 1.103e+04 5.431e-10
 33.20449    116.3 1.108e+04 5.437e-10
 33.22437    115.3 1.112e+04 5.460e-10
 33.24426    114.2 1.120e+04 5.585e-10
 33.25911    112.2 1.155e+04 6.148e-10
 33.26905    112.0 1.157e+04 6.201e-10
 33.28403    108.1 1.254e+04 8.388e-10
 33.30392    102.5 1.433e+04 1.488e-09
 33.32381     98.2 1.498e+04 2.517e-09
 33.34369     94.0 1.670e+04 3.449e-09
 33.36358     71.5 3.159e+04 7.054e-09
 33.37435     55.7 3.484e+04 2.173e-08
 33.37927     56.8 3.584e+04 1.806e-08
 33.38417     48.4 2.698e+04 4.217e-08
 33.38914     48.0 2.623e+04 4.894e-08
 33.39828     44.1 2.306e+04 4.699e-08
 33.40822     38.7 2.495e+04 4.174e-08
 33.41817     22.6 4.892e+04 3.001e-08
 33.42697      3.9 5.525e+04 3.304e-08
 33.43194      1.2 5.040e+04 5.446e-08
 33.43805    -15.1 4.004e+04 8.450e-08
 33.44800    -24.5 2.881e+04 1.264e-07
 33.45794    -29.2 2.622e+04 1.432e-07
 33.46788    -34.2 2.695e+04 1.413e-07
 33.47783    -43.1 2.959e+04 8.303e-08
 33.48462    -56.8 2.907e+04 2.734e-08
 33.48959    -56.5 3.014e+04 2.947e-08
 33.49771    -70.9 2.386e+04 7.831e-09
 33.50766    -78.5 1.852e+04 4.245e-09
 33.51760    -80.4 1.709e+04 3.593e-09
 33.52596    -81.4 1.674e+04 3.365e-09
 33.53093    -82.6 1.674e+04 3.367e-09
 33.53729    -83.9 1.657e+04 3.158e-09
 33.54226    -84.2 1.654e+04 3.148e-09
 33.54743    -84.6 1.647e+04 3.041e-09
 33.56239    -86.8 1.589e+04 2.509e-09
 33.58233    -91.4 1.477e+04 2.029e-09
 33.59503    -94.9 1.425e+04 1.813e-09
 33.60498    -95.3 1.429e+04 1.855e-09
 33.62210    -97.6 1.415e+04 1.834e-09
 33.64199    -99.2 1.403e+04 1.913e-09
 33.66187   -100.3 1.398e+04 2.008e-09
 33.67283   -100.8 1.401e+04 2.048e-09
 33.68277    -99.4 1.372e+04 1.863e-09
 33.70038    -99.7 1.375e+04 1.856e-09
 33.71032   -100.0 1.408e+04 2.107e-09
 33.72153   -101.1 1.436e+04 2.122e-09
 33.74142   -107.9 1.873e+04 2.437e-09
 33.75628   -116.3 2.389e+04 4.117e-09
 33.76290   -118.6 2.491e+04 4.975e-09
 33.76787   -119.1 2.594e+04 4.911e-09
 33.77612   -125.9 2.640e+04 1.219e-08
 33.78606   -128.7 2.500e+04 2.844e-08
 33.79601   -130.2 2.384e+04 6.135e-08
 33.80595   -131.0 2.328e+04 1.033e-07
 33.81452   -132.1 2.310e+04 1.325e-07
 33.81917   -131.8 2.305e+04 1.372e-07
 33.82054   -133.4 2.330e+04 1.572e-07
 33.82584   -135.1 2.324e+04 1.607e-07
 33.83578   -136.9 2.333e+04 1.283e-07
 33.84572   -139.1 2.355e+04 7.631e-08
 33.85567   -141.9 2.352e+04 3.892e-08
 33.86561   -145.4 2.269e+04 1.874e-08
 33.87322   -148.8 2.080e+04 9.445e-09
 33.87819   -148.7 2.146e+04 1.312e-08
 33.88550   -151.0 1.952e+04 7.363e-09
 33.89544   -152.8 1.775e+04 4.774e-09
 33.90538   -153.7 1.658e+04 3.576e-09
 33.91533   -154.0 1.610e+04 3.057e-09
 33.92527   -154.3 1.598e+04 2.916e-09
 33.93091   -155.7 1.526e+04 2.156e-09
 33.94090   -155.0 1.597e+04 3.062e-09
 33.95642   -155.8 1.440e+04 1.917e-09
 33.96636   -154.8 1.290e+04 1.180e-09
 33.98005   -154.6 1.167e+04 8.368e-10
 33.99994   -154.1 1.134e+04 7.462e-10
 34.01983   -152.6 1.125e+04 7.194e-10
 34.03630   -151.0 1.120e+04 7.025e-10
 34.04625   -150.3 1.140e+04 7.967e-10
 34.05960   -148.9 1.129e+04 7.582e-10
 34.07949   -147.4 1.121e+04 7.298e-10
 34.09937   -145.9 1.116e+04 7.093e-10
 34.11926   -144.4 1.114e+04 6.934e-10
 34.13914   -143.0 1.113e+04 6.798e-10
 34.15159   -141.6 1.114e+04 6.705e-10
 34.16154   -140.9 1.118e+04 6.923e-10
 34.17892   -139.7 1.118e+04 6.900e-10
 34.19880   -138.6 1.121e+04 6.908e-10
 34.21869   -137.8 1.131e+04 7.059e-10
 34.23858   -137.1 1.148e+04 7.592e-10
 34.24995   -136.6 1.170e+04 8.534e-10
 34.25837   -136.3 1.160e+04 8.333e-10
 34.26688   -135.5 1.163e+04 8.605e-10
 34.27835   -135.1 1.191e+04 9.932e-10
 34.29823   -134.7 1.223e+04 1.145e-09
 34.31812   -134.4 1.255e+04 1.296e-09
 34.33801   -134.3 1.279e+04 1.413e-09
 34.35789   -134.2 1.288e+04 1.455e-09
 34.37223   -134.3 1.289e+04 1.458e-09
 34.38217   -133.6 1.321e+04 1.678e-09
 34.39767   -133.8 1.305e+04 1.596e-09
 34.41755   -133.7 1.269e+04 1.379e-09
 34.43744   -133.7 1.227e+04 1.158e-09
 34.45732   -133.5 1.188e+04 9.747e-10
 34.47721   -133.1 1.154e+04 8.285e-10
 34.48752   -132.5 1.124e+04 7.121e-10
 34.49746   -132.3 1.124e+04 7.051e-10
 34.51698   -131.6 1.098e+04 6.183e-10
 34.53354   -130.7 1.082e+04 5.631e-10
 34.54348   -131.1 1.067e+04 5.201e-10
 34.55676   -130.0 1.057e+04 4.901e-10
 34.57664   -128.9 1.051e+04 4.709e-10
 34.59287   -127.7 1.047e+04 4.586e-10
 34.60281   -127.6 1.047e+04 4.590e-10
 34.61642   -126.5 1.045e+04 4.502e-10
 34.63630   -125.4 1.043e+04 4.437e-10
 34.65619   -124.3 1.042e+04 4.406e-10
 34.67607   -123.3 1.044e+04 4.474e-10
 34.69596   -122.3 1.048e+04 4.617e-10
 34.70815   -121.4 1.054e+04 4.832e-10
 34.71810   -121.2 1.046e+04 4.553e-10
 34.73573   -120.4 1.052e+04 4.834e-10
 34.75562   -119.7 1.060e+04 5.248e-10
 34.77551   -118.9 1.069e+04 5.774e-10
 34.79539   -118.2 1.080e+04 6.412e-10
 34.81350   -117.5 1.094e+04 7.156e-10
 34.82344   -117.5 1.096e+04 7.219e-10
 34.82707   -116.9 1.116e+04 8.217e-10
 34.83702   -116.5 1.087e+04 6.998e-10
 34.85505   -115.7 1.106e+04 7.834e-10
 34.87494   -115.0 1.128e+04 8.834e-10
 34.89482   -114.4 1.154e+04 1.003e-09
 34.91471   -113.9 1.183e+04 1.145e-09
 34.92879   -113.4 1.214e+04 1.304e-09
 34.93873   -113.8 1.248e+04 1.532e-09
 34.95448   -113.5 1.274e+04 1.700e-09
 34.97437   -113.3 1.301e+04 1.843e-09
 34.99426   -113.3 1.320e+04 1.936e-09
 35.01414   -113.4 1.329e+04 1.968e-09
 35.03403   -113.6 1.335e+04 1.948e-09
 35.04408   -114.0 1.325e+04 1.839e-09
 35.05402   -114.6 1.338e+04 1.938e-09
 35.07380   -115.1 1.310e+04 1.727e-09
 35.09369   -115.6 1.282e+04 1.558e-09
 35.11066   -115.9 1.258e+04 1.420e-09
 35.12061   -115.9 1.281e+04 1.525e-09
 35.13346   -116.2 1.252e+04 1.378e-09
 35.14943   -116.3 1.227e+04 1.269e-09
 35.15937   -116.7 1.213e+04 1.243e-09
 35.17323   -116.5 1.192e+04 1.149e-09
 35.19312   -116.0 1.172e+04 1.063e-09
 35.21300   -115.5 1.154e+04 9.817e-10
 35.23289   -114.8 1.136e+04 8.950e-10
 35.25278   -114.0 1.120e+04 7.983e-10
 35.26472   -113.3 1.105e+04 6.940e-10
 35.27466   -113.3 1.081e+04 5.735e-10
 35.29255   -113.1 1.061e+04 4.662e-10
 35.32248   -113.0 1.035e+04 3.697e-10
 35.36235   -111.1 1.030e+04 3.638e-10
 35.39445   -109.7 1.033e+04 3.917e-10
 35.41433   -110.9 1.083e+04 5.528e-10
 35.44189   -109.6 1.075e+04 5.488e-10
 35.47560   -108.3 1.070e+04 5.361e-10
 35.49549   -107.4 1.075e+04 5.395e-10
 35.52144   -106.0 1.082e+04 5.672e-10
 35.56121   -104.4 1.080e+04 5.584e-10
 35.60098   -102.6 1.074e+04 5.094e-10
 35.64076   -101.1 1.055e+04 4.212e-10
 35.68053    -99.4 1.039e+04 3.664e-10
 35.70618    -98.2 1.033e+04 3.410e-10
 35.72607    -97.8 1.045e+04 3.851e-10
 35.76007    -96.4 1.044e+04 3.651e-10
 35.79985    -95.1 1.041e+04 3.506e-10
 35.83962    -94.0 1.044e+04 3.397e-10
 35.87939    -93.5 1.054e+04 3.357e-10
 35.90912    -93.1 1.059e+04 3.343e-10
 35.92662    -93.5 1.067e+04 3.443e-10
 35.93657    -94.0 1.073e+04 3.758e-10
 35.94880    -95.2 1.085e+04 4.277e-10
 35.96868    -96.1 1.097e+04 4.819e-10
 35.98132    -97.1 1.106e+04 5.352e-10
 35.99126    -96.6 1.095e+04 4.908e-10
 36.00846    -97.6 1.109e+04 5.570e-10
 36.02834    -98.7 1.128e+04 6.421e-10
 36.04191    -99.9 1.147e+04 7.464e-10
 36.05186   -100.4 1.171e+04 8.518e-10
 36.06812   -101.5 1.182e+04 9.672e-10
 36.08800   -102.4 1.185e+04 1.046e-09
 36.10789   -103.1 1.184e+04 1.069e-09
 36.12778   -103.6 1.165e+04 1.000e-09
 36.14726   -104.0 1.139e+04 8.896e-10
 36.15720   -104.4 1.128e+04 8.334e-10
 36.16755   -104.7 1.097e+04 7.119e-10
 36.18743   -105.1 1.071e+04 6.163e-10
 36.20732   -105.4 1.050e+04 5.464e-10
 36.22721   -105.8 1.037e+04 5.004e-10
 36.24709   -106.2 1.029e+04 4.827e-10
 36.26255   -106.5 1.027e+04 4.785e-10
 36.27042   -106.6 1.028e+04 4.801e-10
 36.27485   -106.1 1.014e+04 4.422e-10
 36.28687   -106.3 1.013e+04 4.414e-10
 36.30675   -106.4 1.013e+04 4.444e-10
 36.32664   -106.4 1.012e+04 4.475e-10
 36.34652   -106.4 1.010e+04 4.464e-10
 36.36641   -106.3 1.007e+04 4.166e-10
 36.37793   -106.4 1.002e+04 3.872e-10
 36.39792   -106.2 1.004e+04 3.680e-10
 36.43621   -106.0 9.877e+03 3.261e-10
 36.47598   -105.6 9.589e+03 2.870e-10
 36.51575   -104.3 9.356e+03 2.606e-10
 36.54869   -103.0 9.201e+03 2.478e-10
 36.56858   -101.9 9.199e+03 2.476e-10
 36.58872   -100.5 9.053e+03 2.347e-10
 36.60861   -100.3 9.227e+03 2.635e-10
 36.63507    -98.8 9.007e+03 2.343e-10
 36.67484    -97.3 8.786e+03 2.007e-10
 36.71462    -95.8 8.612e+03 1.763e-10
 36.75439    -94.3 8.546e+03 1.669e-10
 36.79416    -92.7 8.544e+03 1.663e-10
 36.81930    -91.3 8.568e+03 1.708e-10
 36.83919    -90.9 8.588e+03 1.790e-10
 36.87371    -89.5 8.641e+03 1.893e-10
 36.91348    -88.1 8.668e+03 1.943e-10
 36.95325    -86.7 8.661e+03 1.936e-10
 36.99303    -85.3 8.615e+03 1.858e-10
 37.03000    -83.7 8.565e+03 1.778e-10
 37.04988    -83.5 8.734e+03 2.005e-10
 37.07257    -82.0 8.660e+03 1.900e-10
 37.11234    -80.3 8.642e+03 1.878e-10
 37.13576    -78.6 8.651e+03 1.941e-10
 37.15565    -77.9 8.528e+03 1.720e-10
 37.19189    -76.2 8.753e+03 1.975e-10
 37.23166    -74.4 9.344e+03 2.558e-10
 37.26058    -72.3 1.001e+04 3.389e-10
 37.28046    -72.6 1.031e+04 3.924e-10
 37.30117    -72.5 1.050e+04 4.905e-10
 37.32095    -73.4 1.080e+04 6.166e-10
 37.34084    -73.7 1.119e+04 7.787e-10
 37.36073    -73.8 1.158e+04 9.197e-10
 37.37567    -74.1 1.201e+04 1.078e-09
 37.38561    -75.0 1.246e+04 1.204e-09
 37.40050    -76.1 1.320e+04 1.412e-09
 37.41915    -76.8 1.375e+04 1.543e-09
 37.42910    -74.2 1.282e+04 1.258e-09
 37.44027    -75.0 1.340e+04 1.326e-09
 37.46016    -75.0 1.357e+04 1.330e-09
 37.47502    -76.5 1.527e+04 1.394e-09
 37.48492    -82.0 2.249e+04 2.029e-09
 37.49086    -90.8 3.029e+04 6.086e-09
 37.49583    -99.5 3.187e+04 1.909e-08
 37.50480   -105.7 3.035e+04 4.282e-08
 37.51475   -109.7 2.779e+04 6.386e-08
 37.52469   -111.6 2.697e+04 6.423e-08
 37.53463   -112.4 2.618e+04 5.694e-08
 37.54353   -112.7 2.698e+04 3.901e-08
 37.54851   -113.8 3.033e+04 2.040e-08
 37.55452   -114.1 3.611e+04 9.100e-09
 37.56446   -116.6 4.377e+04 3.722e-09
 37.57079   -117.6 4.774e+04 2.607e-09
 37.57577   -113.5 4.082e+04 5.385e-09
 37.58435   -115.3 4.642e+04 3.468e-09
 37.59626   -125.1 6.118e+04 7.526e-10
 37.60625   -141.6 6.482e+04 1.913e-10
 37.61925   -154.1 2.850e+04 2.392e-10
 37.63913   -159.5 1.085e+04 3.880e-10
 37.65902   -159.5 9.929e+03 3.506e-10
 37.67891   -158.9 9.825e+03 3.149e-10
 37.70175   -157.8 9.745e+03 2.795e-10
 37.71574   -160.4 9.856e+03 2.830e-10
 37.72273   -158.1 1.002e+04 2.867e-10
 37.74861   -157.5 9.788e+03 2.678e-10
 37.78848   -155.5 9.727e+03 2.527e-10
 37.82825   -153.5 9.764e+03 2.518e-10
 37.86802   -151.2 9.858e+03 2.567e-10
 37.89775   -149.8 9.887e+03 2.598e-10
 37.91754   -148.6 9.904e+03 2.563e-10
 37.93223   -147.8 9.905e+03 2.549e-10
 37.94217   -149.7 1.028e+04 3.319e-10
 37.95732   -150.6 1.134e+04 4.749e-10
 37.97720   -151.8 1.315e+04 8.342e-10
 37.99628   -153.1 1.473e+04 1.499e-09
 38.00622   -153.5 1.568e+04 2.161e-09
 38.01697   -154.3 1.674e+04 3.659e-09
 38.03686   -155.1 1.722e+04 5.096e-09
 38.04752   -156.0 1.718e+04 5.823e-09
 38.05746   -157.4 1.864e+04 1.063e-08
 38.07663   -158.1 1.805e+04 8.570e-09
 38.09652   -158.6 1.692e+04 5.510e-09
 38.11641   -159.5 1.563e+04 3.318e-09
 38.13629   -160.7 1.441e+04 2.078e-09
 38.15287   -161.9 1.342e+04 1.403e-09
 38.16281   -163.4 1.336e+04 1.397e-09
 38.17607   -163.8 1.266e+04 1.070e-09
 38.19595   -163.9 1.218e+04 8.785e-10
 38.21584   -163.6 1.183e+04 7.480e-10
 38.23572   -163.1 1.157e+04 6.523e-10
 38.25561   -162.7 1.139e+04 5.771e-10
 38.26816   -162.3 1.123e+04 5.152e-10
 38.27810   -162.8 1.135e+04 5.556e-10
 38.28981   -162.3 1.121e+04 5.099e-10
 38.29975   -162.1 1.150e+04 6.095e-10
 38.31527   -161.5 1.138e+04 5.660e-10
 38.34520   -160.8 1.137e+04 5.522e-10
 38.37370   -159.2 1.107e+04 4.870e-10
 38.39358   -159.3 1.131e+04 5.740e-10
 38.42484   -157.9 1.120e+04 5.288e-10
 38.46461   -156.8 1.091e+04 4.758e-10
 38.50438   -155.7 1.067e+04 4.414e-10
 38.54416   -154.5 1.056e+04 4.276e-10
 38.58393   -153.2 1.052e+04 4.273e-10
 38.60428   -152.0 1.044e+04 4.217e-10
 38.62416   -151.6 1.071e+04 4.910e-10
 38.66348   -149.9 1.063e+04 4.742e-10
 38.70325   -148.4 1.050e+04 4.316e-10
 38.74302   -146.8 1.032e+04 3.696e-10
 38.78279   -145.3 1.011e+04 3.101e-10
 38.81497   -143.8 9.906e+03 2.676e-10
 38.83485   -142.4 1.030e+04 3.355e-10
 38.85719   -141.1 1.006e+04 2.954e-10
 38.87707   -140.3 1.040e+04 3.441e-10
 38.90211   -138.9 1.024e+04 3.128e-10
 38.94188   -137.6 1.021e+04 3.085e-10
 38.98166   -136.7 1.041e+04 3.549e-10
 39.01139   -135.6 1.070e+04 4.285e-10
 39.03118   -135.3 1.095e+04 5.181e-10
 39.04535   -134.8 1.143e+04 6.802e-10
 39.05530   -133.8 1.144e+04 7.013e-10
 39.07095   -133.4 1.191e+04 8.770e-10
 39.09084   -133.1 1.240e+04 1.074e-09
 39.11072   -132.9 1.286e+04 1.281e-09
 39.13061   -133.0 1.326e+04 1.478e-09
 39.15049   -133.1 1.356e+04 1.671e-09
 39.16064   -133.5 1.404e+04 2.072e-09
 39.17058   -132.2 1.427e+04 2.367e-09
 39.19027   -132.1 1.464e+04 2.802e-09
 39.21015   -131.8 1.491e+04 3.170e-09
 39.23004   -131.7 1.512e+04 3.429e-09
 39.24993   -131.8 1.545e+04 3.655e-09
 39.26599   -132.8 1.615e+04 4.037e-09
 39.27593   -130.1 1.610e+04 4.001e-09
 39.28970   -131.9 1.737e+04 4.744e-09
 39.30959   -135.3 1.889e+04 6.205e-09
 39.32947   -139.7 1.955e+04 8.394e-09
 39.34936   -144.7 1.967e+04 1.006e-08
 39.36924   -149.9 1.960e+04 1.037e-08
 39.38123   -154.1 1.951e+04 1.082e-08
 39.38615   -153.8 2.060e+04 1.392e-08
 39.39400   -158.1 2.084e+04 1.452e-08
 39.40395   -163.1 2.094e+04 1.465e-08
 39.41389   -168.0 2.108e+04 1.429e-08
 39.42383   -173.0 2.084e+04 1.354e-08
 39.43378   -177.5 2.041e+04 1.274e-08
 39.43882   -181.5 1.988e+04 1.176e-08
 39.44380   -182.3 2.043e+04 1.287e-08
 39.44893   -186.0 1.958e+04 1.053e-08
 39.45390   -185.0 1.969e+04 1.101e-08
 39.46361   -188.3 1.862e+04 8.314e-09
 39.47355   -191.2 1.745e+04 6.168e-09
 39.48349   -193.5 1.637e+04 4.804e-09
 39.49150   -194.6 1.577e+04 4.130e-09
 39.49647   -195.8 1.572e+04 4.150e-09
 39.50840   -196.7 1.529e+04 3.619e-09
 39.52833   -198.5 1.427e+04 2.732e-09
 39.54822   -199.9 1.296e+04 1.978e-09
 39.56811   -200.3 1.215e+04 1.509e-09
 39.58799   -200.2 1.179e+04 1.224e-09
 39.60191   -200.0 1.154e+04 9.887e-10
 39.61186   -199.6 1.213e+04 1.328e-09
 39.62777   -199.3 1.191e+04 1.093e-09
 39.64765   -199.1 1.166e+04 9.027e-10
 39.66754   -199.1 1.141e+04 7.647e-10
 39.68743   -199.1 1.120e+04 6.743e-10
 39.70726   -199.0 1.105e+04 6.206e-10
 39.72715   -198.4 1.198e+04 9.316e-10
 39.73759   -198.5 1.199e+04 8.912e-10
 39.74753   -197.1 1.243e+04 1.171e-09
 39.76697   -197.3 1.270e+04 1.173e-09
 39.78686   -197.8 1.313e+04 1.206e-09
 39.80674   -198.6 1.359e+04 1.284e-09
 39.82255   -199.7 1.391e+04 1.393e-09
 39.83249   -199.3 1.550e+04 2.387e-09
 39.84652   -201.1 1.557e+04 2.367e-09
 39.86640   -203.1 1.524e+04 2.356e-09
 39.88629   -204.9 1.491e+04 2.387e-09
 39.90617   -206.6 1.452e+04 2.402e-09
 39.92606   -208.1 1.418e+04 2.405e-09
 39.93784   -209.3 1.393e+04 2.402e-09
 39.94778   -210.2 1.435e+04 2.678e-09
 39.96583   -211.1 1.382e+04 2.444e-09
 39.98572   -211.6 1.338e+04 2.190e-09
 40.00561   -211.8 1.302e+04 1.893e-09
 40.02118   -211.9 1.269e+04 1.568e-09
 40.03112   -211.3 1.250e+04 1.541e-09
 40.04318   -211.4 1.214e+04 1.234e-09
 40.05313   -211.7 1.186e+04 1.127e-09
 40.06527   -211.7 1.145e+04 8.727e-10
 40.08515   -211.8 1.106e+04 6.785e-10
 40.10504   -211.9 1.072e+04 5.494e-10
 40.12492   -211.8 1.042e+04 4.672e-10
 40.14481   -211.7 1.021e+04 4.142e-10
 40.15847   -211.3 1.007e+04 3.868e-10
 40.16842   -211.0 9.800e+03 3.174e-10
 40.18458   -210.5 9.727e+03 2.964e-10
 40.20447   -209.9 9.729e+03 2.893e-10
 40.22436   -209.2 9.749e+03 2.883e-10
 40.24424   -208.5 9.836e+03 2.912e-10
 40.26382   -207.8 9.955e+03 3.029e-10
 40.27376   -207.5 9.682e+03 2.749e-10
 40.28401   -206.8 9.729e+03 2.858e-10
 40.30390   -206.3 9.883e+03 3.075e-10
 40.31471   -205.9 1.013e+04 3.469e-10
 40.32466   -205.2 9.733e+03 2.949e-10
 40.34367   -204.9 9.934e+03 3.234e-10
 40.36356   -204.2 1.026e+04 4.024e-10
 40.37911   -203.7 1.054e+04 5.108e-10
 40.38905   -202.9 1.032e+04 4.225e-10
 40.40333   -202.5 1.063e+04 5.349e-10
 40.42322   -201.8 1.086e+04 6.708e-10
 40.44311   -201.1 1.102e+04 8.254e-10
 40.46299   -200.5 1.117e+04 9.837e-10
 40.48288   -200.1 1.147e+04 1.156e-09
 40.49440   -200.0 1.208e+04 1.388e-09
 40.50434   -199.8 1.161e+04 1.022e-09
 40.52265   -199.6 1.200e+04 1.191e-09
 40.54254   -199.2 1.268e+04 1.473e-09
 40.56242   -199.0 1.371e+04 1.944e-09
 40.58231   -198.9 1.485e+04 2.699e-09
 40.59830   -198.6 1.580e+04 3.803e-09
 40.60580   -197.3 1.441e+04 2.364e-09
 40.60969   -196.6 1.323e+04 1.581e-09
 40.62208   -196.0 1.401e+04 2.045e-09
 40.64197   -195.4 1.481e+04 2.736e-09
 40.66185   -194.9 1.543e+04 3.601e-09
 40.68174   -194.3 1.579e+04 4.494e-09
 40.70163   -193.6 1.589e+04 5.031e-09
 40.71503   -192.8 1.584e+04 5.125e-09
 40.72498   -191.8 1.517e+04 3.888e-09
 40.74140   -190.9 1.517e+04 4.032e-09
 40.76129   -189.9 1.501e+04 3.942e-09
 40.78117   -189.0 1.475e+04 3.624e-09
 40.80106   -188.0 1.444e+04 3.291e-09
 40.82038   -187.1 1.419e+04 3.009e-09
 40.83032   -186.3 1.414e+04 2.949e-09
 40.84083   -185.5 1.400e+04 2.798e-09
 40.86072   -184.7 1.391e+04 2.683e-09
 40.88060   -184.1 1.392e+04 2.629e-09
 40.89184   -183.6 1.403e+04 2.613e-09
 40.90178   -181.9 1.361e+04 2.328e-09
 40.92038   -181.5 1.369e+04 2.318e-09
 40.93567   -181.2 1.406e+04 2.414e-09
 40.94561   -180.2 1.382e+04 2.335e-09
 40.96015   -180.0 1.406e+04 2.397e-09
 40.98004   -179.7 1.428e+04 2.476e-09
 40.99992   -179.3 1.435e+04 2.519e-09
 41.01981   -179.0 1.444e+04 2.459e-09
 41.03969   -178.5 1.413e+04 2.234e-09
 41.05096   -178.0 1.352e+04 1.862e-09
 41.06090   -177.6 1.321e+04 1.510e-09
 41.08951   -177.8 1.250e+04 1.221e-09
 41.12938   -176.2 1.175e+04 9.853e-10
 41.16568   -174.7 1.117e+04 8.410e-10
 41.18556   -171.5 1.140e+04 9.357e-10
 41.20892   -170.4 1.120e+04 8.692e-10
 41.24870   -169.7 1.118e+04 8.693e-10
 41.27179   -169.2 1.149e+04 9.672e-10
 41.29168   -167.5 1.197e+04 1.176e-09
 41.32824   -166.9 1.234e+04 1.324e-09
 41.36801   -166.0 1.253e+04 1.384e-09
 41.39775   -167.3 1.263e+04 1.486e-09
 41.41753   -168.3 1.236e+04 1.374e-09
 41.43742   -169.0 1.191e+04 1.093e-09
 41.45731   -169.6 1.139e+04 7.687e-10
 41.46896   -170.2 1.075e+04 5.067e-10
 41.47890   -168.0 1.127e+04 7.050e-10
 41.49223   -168.5 1.072e+04 4.590e-10
 41.50217   -168.2 1.082e+04 5.284e-10
 41.51697   -168.8 1.020e+04 3.426e-10
 41.53685   -169.3 9.885e+03 2.465e-10
 41.55674   -169.8 9.886e+03 2.242e-10
 41.57662   -170.6 9.971e+03 2.219e-10
 41.59651   -172.1 1.074e+04 2.469e-10
 41.60752   -174.1 1.148e+04 3.747e-10
 41.61746   -176.8 1.196e+04 6.472e-10
 41.63628   -177.8 1.217e+04 1.024e-09
 41.65617   -178.0 1.226e+04 1.418e-09
 41.67606   -177.6 1.234e+04 1.693e-09
 41.69594   -176.8 1.235e+04 1.795e-09
 41.71287   -176.0 1.244e+04 1.558e-09
 41.72281   -176.7 1.268e+04 1.418e-09
 41.73572   -176.5 1.267e+04 9.733e-10
 41.75255   -177.0 1.250e+04 5.933e-10
 41.76249   -174.6 1.252e+04 8.631e-10
 41.77549   -175.1 1.235e+04 5.286e-10
 41.79537   -176.0 1.176e+04 3.215e-10
 41.81526   -176.6 1.088e+04 2.326e-10
 41.84519   -176.3 1.032e+04 2.089e-10
 41.88506   -174.2 9.670e+03 1.998e-10
 41.92375   -171.7 9.520e+03 1.996e-10
 41.94364   -172.8 9.542e+03 2.011e-10
 41.96460   -170.3 9.491e+03 2.034e-10
 42.00438   -167.8 9.439e+03 2.073e-10
 42.04415   -165.3 9.399e+03 2.112e-10
 42.08392   -162.8 9.356e+03 2.164e-10
 42.12369   -160.2 9.328e+03 2.240e-10
 42.15433   -157.6 9.330e+03 2.360e-10
 42.17422   -158.5 9.393e+03 2.463e-10
 42.20324   -155.8 9.472e+03 2.721e-10
 42.24301   -153.2 9.574e+03 3.069e-10
 42.28278   -150.7 9.693e+03 3.469e-10
 42.31992   -148.3 9.827e+03 3.874e-10
 42.33981   -147.4 9.929e+03 3.912e-10
 42.36233   -145.1 1.014e+04 4.666e-10
 42.38491   -142.9 1.032e+04 5.391e-10
 42.40480   -143.7 1.041e+04 5.957e-10
 42.44187   -141.4 1.039e+04 6.237e-10
 42.48165   -139.1 1.037e+04 6.313e-10
 42.52142   -136.9 1.017e+04 5.774e-10
 42.56119   -134.6 9.863e+03 4.671e-10
 42.59560   -132.2 9.477e+03 3.456e-10
 42.61549   -132.5 9.210e+03 2.751e-10
 42.64074   -130.1 8.885e+03 1.984e-10
 42.68051   -127.8 8.658e+03 1.525e-10
 42.72028   -125.5 8.582e+03 1.319e-10
 42.76006   -123.3 8.574e+03 1.274e-10
 42.79983   -121.3 8.589e+03 1.277e-10
 42.82618   -119.7 8.825e+03 1.592e-10
 42.84607   -119.9 8.795e+03 1.558e-10
 42.87937   -118.4 9.121e+03 2.147e-10
 42.90699   -117.1 9.472e+03 2.951e-10
 42.92688   -116.4 9.287e+03 2.466e-10
 42.95892   -115.4 9.618e+03 3.308e-10
 42.99869   -114.7 9.883e+03 4.011e-10
 43.03688   -114.4 1.003e+04 4.322e-10
 43.05676   -114.5 9.958e+03 4.180e-10
 43.07824   -114.4 9.993e+03 4.241e-10
 43.11801   -114.4 9.996e+03 4.166e-10
 43.15778   -114.4 9.971e+03 3.921e-10
 43.19755   -114.4 9.959e+03 3.784e-10
 43.23733   -114.7 1.002e+04 3.826e-10
 43.26746   -115.7 1.050e+04 4.639e-10
 43.28734   -115.8 1.004e+04 3.511e-10
 43.31687   -117.4 1.071e+04 4.918e-10
 43.35665   -119.5 1.135e+04 7.440e-10
 43.39642   -122.0 1.171e+04 9.509e-10
 43.43619   -124.7 1.179e+04 9.981e-10
 43.47417   -127.5 1.171e+04 9.459e-10
 43.49406   -125.7 1.194e+04 1.108e-09
 43.49803   -127.9 1.159e+04 8.509e-10
 43.50788   -127.0 1.156e+04 8.409e-10
 43.52548   -127.8 1.135e+04 7.285e-10
 43.54537   -130.0 1.077e+04 5.339e-10
 43.56526   -130.6 1.060e+04 4.659e-10
 43.58514   -131.3 1.041e+04 4.019e-10
 43.60318   -131.5 1.029e+04 3.629e-10
 43.61313   -131.3 1.026e+04 3.570e-10
 43.63496   -131.6 1.020e+04 3.370e-10
 43.67483   -131.7 1.010e+04 3.118e-10
 43.70873   -131.6 1.009e+04 2.955e-10
 43.72861   -130.8 1.014e+04 3.056e-10
 43.75437   -130.7 1.018e+04 3.025e-10
 43.79414   -130.6 1.021e+04 3.021e-10
 43.83392   -130.2 1.023e+04 3.007e-10
 43.87369   -129.7 1.027e+04 2.858e-10
 43.91346   -128.9 1.016e+04 2.632e-10
 43.93931   -128.0 1.003e+04 2.390e-10
 43.95919   -127.6 1.009e+04 2.600e-10
 43.99301   -126.5 9.959e+03 2.370e-10
 44.03278   -125.3 9.865e+03 2.190e-10
 44.06124   -124.0 9.784e+03 2.032e-10
 44.08112   -123.0 9.669e+03 1.988e-10
 44.11232   -121.8 9.660e+03 1.948e-10
 44.15000   -120.6 9.657e+03 1.944e-10
 44.16988   -120.8 9.642e+03 1.961e-10
 44.19187   -119.7 9.646e+03 2.012e-10
 44.23164   -118.7 9.674e+03 2.164e-10
 44.27142   -117.9 9.707e+03 2.326e-10
 44.31119   -117.3 9.712e+03 2.427e-10
 44.35096   -116.9 9.703e+03 2.450e-10
 44.38058   -116.7 9.682e+03 2.399e-10
 44.40046   -116.9 9.519e+03 2.063e-10
 44.43051   -116.9 9.502e+03 2.049e-10
 44.47028   -117.2 9.510e+03 2.150e-10
 44.51005   -117.6 9.521e+03 2.260e-10
 44.54982   -117.9 9.476e+03 2.248e-10
 44.58960   -117.9 9.338e+03 1.959e-10
 44.61116   -117.9 9.246e+03 1.556e-10
 44.63009   -117.6 9.270e+03 1.637e-10
 44.64830   -117.1 9.242e+03 1.676e-10
 44.66914   -117.0 9.183e+03 1.367e-10
 44.70891   -116.9 9.208e+03 1.184e-10
 44.74869   -116.9 9.237e+03 1.138e-10
 44.78846   -117.0 9.264e+03 1.134e-10
 44.82185   -117.1 9.436e+03 1.246e-10
 44.84173   -116.7 9.412e+03 1.290e-10
 44.86800   -116.8 9.506e+03 1.608e-10
 44.90778   -116.8 9.569e+03 1.965e-10
 44.94755   -117.0 9.643e+03 2.265e-10
 44.98732   -118.2 1.002e+04 2.704e-10
 45.02710   -121.0 1.099e+04 4.002e-10
 45.05243   -124.6 1.218e+04 7.676e-10
 45.07231   -122.8 1.190e+04 5.738e-10
 45.10664   -126.7 1.295e+04 1.269e-09
 45.13637   -130.2 1.369e+04 2.382e-09
 45.15616   -131.8 1.393e+04 2.826e-09
 45.16752   -133.6 1.399e+04 3.000e-09
 45.17746   -132.7 1.398e+04 2.911e-09
 45.19593   -134.4 1.398e+04 2.937e-09
 45.21529   -135.8 1.372e+04 2.823e-09
 45.22523   -136.5 1.412e+04 3.471e-09
 45.23571   -137.6 1.355e+04 2.900e-09
 45.25559   -138.6 1.294e+04 2.331e-09
 45.27287   -139.3 1.235e+04 1.867e-09
 45.28281   -139.0 1.239e+04 1.800e-09
 45.29537   -139.6 1.192e+04 1.500e-09
 45.31525   -140.2 1.155e+04 1.283e-09
 45.33514   -140.6 1.124e+04 1.119e-09
 45.35502   -140.8 1.100e+04 1.009e-09
 45.38495   -140.7 1.075e+04 9.113e-10
 45.42482   -140.3 1.035e+04 7.450e-10
 45.46459   -140.3 1.021e+04 6.564e-10
 45.49370   -140.4 1.019e+04 6.106e-10
 45.51358   -139.7 1.039e+04 7.159e-10
 45.54414   -139.7 1.036e+04 6.558e-10
 45.57387   -140.5 1.018e+04 5.795e-10
 45.59366   -141.2 1.018e+04 5.756e-10
 45.60879   -141.7 1.033e+04 5.914e-10
 45.61874   -141.3 1.030e+04 5.954e-10
 45.63343   -141.7 1.057e+04 6.647e-10
 45.65332   -142.4 1.091e+04 7.838e-10
 45.67321   -143.2 1.137e+04 9.791e-10
 45.69309   -144.3 1.189e+04 1.292e-09
 45.71298   -145.3 1.238e+04 1.735e-09
 45.72408   -146.1 1.282e+04 2.249e-09
 45.73403   -146.1 1.286e+04 2.381e-09
 45.75275   -146.7 1.329e+04 2.934e-09
 45.77264   -147.1 1.371e+04 3.323e-09
 45.79241   -147.8 1.411e+04 3.490e-09
 45.80235   -148.1 1.479e+04 4.833e-09
 45.81241   -149.1 1.573e+04 5.903e-09
 45.82943   -150.6 1.657e+04 6.868e-09
 45.83937   -151.1 1.635e+04 7.292e-09
 45.85218   -153.2 1.678e+04 8.046e-09
 45.87207   -155.3 1.699e+04 8.635e-09
 45.89195   -157.3 1.702e+04 9.103e-09
 45.91184   -158.8 1.692e+04 9.414e-09
 45.93173   -159.8 1.687e+04 9.495e-09
 45.94472   -160.3 1.678e+04 9.378e-09
 45.95466   -160.0 1.648e+04 8.433e-09
 45.97150   -160.8 1.656e+04 7.857e-09
 45.99139   -162.1 1.691e+04 7.264e-09
 46.01127   -164.2 1.730e+04 6.813e-09
 46.03116   -167.1 1.754e+04 6.496e-09
 46.05006   -170.4 1.736e+04 6.323e-09
 46.06001   -171.6 1.759e+04 6.772e-09
 46.07093   -174.3 1.721e+04 7.528e-09
 46.08594   -176.8 1.699e+04 7.791e-09
 46.09589   -177.9 1.739e+04 1.190e-08
 46.11070   -179.4 1.712e+04 1.179e-08
 46.13059   -180.5 1.655e+04 9.992e-09
 46.15048   -181.4 1.603e+04 7.743e-09
 46.16535   -182.4 1.558e+04 6.052e-09
 46.17530   -183.4 1.602e+04 6.232e-09
 46.19025   -184.3 1.548e+04 4.820e-09
 46.21014   -185.0 1.493e+04 3.810e-09
 46.23002   -185.3 1.450e+04 2.953e-09
 46.24991   -185.5 1.409e+04 2.197e-09
 46.26979   -185.3 1.361e+04 1.578e-09
 46.28064   -184.8 1.312e+04 1.116e-09
 46.29059   -185.6 1.291e+04 9.381e-10
 46.30957   -184.9 1.246e+04 6.712e-10
 46.32945   -184.1 1.215e+04 5.042e-10
 46.34934   -183.1 1.195e+04 3.995e-10
 46.36923   -182.1 1.182e+04 3.375e-10
 46.37948   -181.0 1.172e+04 3.057e-10
 46.38630   -180.9 1.179e+04 3.107e-10
 46.39593   -181.2 1.175e+04 3.162e-10
 46.41904   -180.2 1.176e+04 3.094e-10
 46.45891   -177.8 1.162e+04 2.963e-10
 46.49868   -175.3 1.141e+04 2.843e-10
 46.53846   -172.8 1.122e+04 2.727e-10
 46.57823   -170.4 1.108e+04 2.587e-10
 46.60682   -168.1 1.099e+04 2.419e-10
 46.62671   -168.3 1.091e+04 2.297e-10
 46.65777   -165.9 1.082e+04 2.063e-10
 46.69755   -163.6 1.075e+04 1.863e-10
 46.73732   -161.2 1.070e+04 1.734e-10
 46.77709   -158.8 1.067e+04 1.692e-10
 46.81686   -156.4 1.067e+04 1.688e-10
 46.83740   -154.0 1.069e+04 1.712e-10
 46.85729   -153.7 1.063e+04 1.624e-10
 46.89641   -151.3 1.065e+04 1.705e-10
 46.93618   -149.0 1.066e+04 1.797e-10
 46.95679   -146.7 1.067e+04 1.863e-10
 46.97668   -146.8 1.073e+04 1.839e-10
 47.01573   -144.5 1.076e+04 1.894e-10
 47.04809   -142.2 1.077e+04 1.916e-10
 47.06798   -141.8 1.073e+04 1.856e-10
 47.09527   -139.4 1.073e+04 1.888e-10
 47.13504   -137.1 1.072e+04 1.896e-10
 47.17482   -134.7 1.068e+04 1.881e-10
 47.21459   -132.3 1.064e+04 1.833e-10
 47.25436   -129.9 1.058e+04 1.770e-10
 47.27867   -127.5 1.051e+04 1.671e-10
 47.29856   -127.1 1.046e+04 1.495e-10
 47.33391   -124.6 1.041e+04 1.391e-10
 47.37368   -122.2 1.036e+04 1.285e-10
 47.41345   -119.8 1.031e+04 1.178e-10
 47.45323   -117.2 1.025e+04 1.072e-10
 47.48936   -114.7 1.019e+04 9.699e-11
 47.50925   -114.4 1.020e+04 9.885e-11
 47.52397   -111.7 1.015e+04 8.923e-11
 47.54386   -111.7 1.022e+04 1.105e-10
 47.57254   -109.0 1.017e+04 9.780e-11
 47.61232   -106.3 1.013e+04 8.668e-11
 47.65209   -103.5 1.010e+04 7.766e-11
 47.69186   -100.7 1.008e+04 7.078e-11
 47.71994    -97.9 1.007e+04 6.572e-11
 47.73983    -97.6 1.013e+04 7.346e-11
 47.77141    -94.7 1.013e+04 6.981e-11
 47.81118    -91.9 1.014e+04 6.668e-11
 47.85095    -89.0 1.015e+04 6.367e-11
 47.89072    -86.1 1.017e+04 6.064e-11
 47.93050    -83.2 1.020e+04 5.775e-11
 47.97027    -80.2 1.026e+04 6.052e-11
 48.01004    -77.4 1.029e+04 5.876e-11
 48.04981    -74.5 1.030e+04 5.839e-11
 48.08959    -71.8 1.034e+04 5.833e-11
 48.11104    -69.1 1.043e+04 6.074e-11
 48.13093    -68.9 1.039e+04 6.780e-11
 48.16121    -66.2 1.040e+04 6.992e-11
 48.18110    -66.2 1.039e+04 7.955e-11
 48.20891    -63.5 1.038e+04 8.346e-11
 48.24868    -60.7 1.039e+04 8.666e-11
 48.28845    -58.0 1.039e+04 8.846e-11
 48.32822    -55.3 1.039e+04 8.891e-11
 48.36800    -52.6 1.037e+04 8.824e-11
 48.39179    -49.9 1.034e+04 8.378e-11
 48.41168    -49.9 1.033e+04 9.176e-11
 48.44754    -47.2 1.034e+04 8.466e-11
 48.48731    -44.6 1.037e+04 7.968e-11
 48.52709    -41.9 1.039e+04 7.814e-11
 48.56686    -39.3 1.040e+04 7.802e-11
 48.60248    -36.6 1.044e+04 8.022e-11
 48.62237    -36.7 1.043e+04 8.911e-11
 48.64640    -34.0 1.041e+04 9.066e-11
 48.67822    -31.2 1.040e+04 8.970e-11
 48.69811    -30.8 1.048e+04 9.987e-11
 48.72595    -28.0 1.048e+04 9.248e-11
 48.76572    -25.3 1.054e+04 8.705e-11
 48.80549    -22.8 1.063e+04 8.543e-11
 48.83306    -20.6 1.075e+04 8.882e-11
 48.85295    -20.4 1.044e+04 7.206e-11
 48.88504    -18.4 1.056e+04 8.393e-11
 48.92481    -16.4 1.066e+04 1.179e-10
 48.96459    -14.2 1.076e+04 1.685e-10
 49.00436    -11.8 1.092e+04 2.174e-10
 49.04376     -9.7 1.108e+04 2.477e-10
 49.06364     -9.7 1.099e+04 2.314e-10
 49.08390     -7.7 1.104e+04 2.518e-10
 49.12368     -5.9 1.102e+04 2.550e-10
 49.16345     -4.0 1.084e+04 2.497e-10
 49.20322     -2.0 1.069e+04 2.377e-10
 49.24299      0.2 1.057e+04 2.148e-10
 49.26529      2.2 1.052e+04 1.891e-10
 49.27674      2.1 1.064e+04 2.107e-10
 49.29422      2.3 1.063e+04 2.081e-10
 49.32254      4.2 1.065e+04 2.056e-10
 49.36231      5.9 1.079e+04 2.232e-10
 49.40208      7.4 1.081e+04 2.961e-10
 49.44186      9.2 1.078e+04 4.181e-10
 49.48163     11.5 1.086e+04 5.367e-10
 49.50491     13.6 1.094e+04 5.821e-10
 49.52480     13.6 1.095e+04 5.796e-10
 49.56117     15.2 1.091e+04 5.540e-10
 49.60095     16.6 1.067e+04 4.603e-10
 49.64072     18.0 1.039e+04 4.098e-10
 49.68049     19.8 1.015e+04 3.803e-10
 49.71561     22.1 9.946e+03 3.387e-10
 49.73549     22.0 1.008e+04 3.837e-10
 49.76004     24.2 9.916e+03 3.179e-10
 49.79981     26.1 9.820e+03 2.571e-10
 49.83247     27.7 9.749e+03 2.313e-10
 49.85235     28.4 9.937e+03 2.564e-10
 49.87936     30.0 9.788e+03 2.865e-10
 49.91913     32.2 9.729e+03 3.274e-10
 49.94619     34.7 9.584e+03 3.008e-10
 49.96607     34.7 9.582e+03 2.741e-10
 49.99867     36.9 9.478e+03 1.804e-10
 50.03845     38.4 9.391e+03 1.153e-10
 50.07822     39.5 9.139e+03 9.625e-11
 50.11799     41.2 8.981e+03 9.372e-11
 50.15688     43.2 8.901e+03 1.008e-10
 50.17676     43.1 8.918e+03 1.105e-10
 50.19754     45.2 8.917e+03 1.227e-10
 50.23731     47.1 8.929e+03 1.257e-10
 50.27708     48.9 8.894e+03 1.226e-10
 50.31685     50.6 8.829e+03 1.148e-10
 50.35663     52.3 8.746e+03 1.004e-10
 50.38746     53.7 8.706e+03 8.392e-11
 50.40734     53.6 8.758e+03 8.937e-11
 50.41953     54.7 8.706e+03 7.766e-11
 50.43942     54.8 8.765e+03 8.867e-11
 50.47594     56.1 8.694e+03 8.324e-11
 50.51572     57.4 8.604e+03 8.085e-11
 50.55549     59.0 8.528e+03 7.710e-11
 50.59526     60.5 8.484e+03 7.103e-11
 50.61804     61.9 8.427e+03 6.687e-11
 50.63792     61.8 8.506e+03 7.944e-11
 50.67481     63.2 8.490e+03 7.952e-11
 50.71458     64.5 8.497e+03 8.324e-11
 50.75435     65.9 8.532e+03 9.321e-11
 50.79413     67.2 8.591e+03 1.059e-10
 50.82873     68.5 8.660e+03 1.183e-10
 50.84861     68.5 8.715e+03 1.241e-10
 50.87367     69.4 8.824e+03 1.398e-10
 50.91344     69.9 9.023e+03 1.821e-10
 50.95322     70.3 9.329e+03 2.765e-10
 50.98671     71.0 9.687e+03 4.202e-10
 51.00660     71.3 9.714e+03 4.224e-10
 51.03276     71.9 9.900e+03 4.901e-10
 51.05931     72.4 9.861e+03 4.799e-10
 51.07919     72.4 9.842e+03 4.812e-10
 51.11231     73.2 9.757e+03 4.546e-10
 51.15208     74.1 9.685e+03 4.391e-10
 51.17450     75.0 9.634e+03 4.303e-10
 51.18434     74.9 9.735e+03 4.649e-10
 51.20160     75.5 9.792e+03 4.833e-10
 51.23153     76.3 9.899e+03 5.237e-10
 51.27000     76.9 1.040e+04 7.135e-10
 51.28989     77.1 1.072e+04 8.503e-10
 51.31117     77.4 1.136e+04 1.169e-09
 51.35094     77.4 1.209e+04 1.604e-09
 51.39072     77.1 1.257e+04 1.853e-09
 51.43049     76.3 1.240e+04 1.700e-09
 51.47026     76.3 1.168e+04 1.227e-09
 51.49999     76.3 1.102e+04 8.467e-10
 51.51033     76.1 1.062e+04 6.882e-10
 51.52027     76.2 1.074e+04 7.418e-10
 51.53967     76.2 1.012e+04 4.993e-10
 51.55955     76.1 1.006e+04 4.816e-10
 51.57358     75.8 9.619e+03 3.567e-10
 51.59357     76.2 9.908e+03 5.015e-10
 51.62935     75.9 9.704e+03 4.602e-10
 51.66912     75.6 9.797e+03 4.957e-10
 51.70890     75.2 9.881e+03 5.301e-10
 51.73116     74.9 9.777e+03 5.002e-10
 51.75104     75.1 1.002e+04 5.791e-10
 51.78844     74.9 9.587e+03 4.262e-10
 51.82821     73.9 9.210e+03 2.951e-10
 51.86799     72.9 9.160e+03 2.854e-10
 51.90776     72.0 9.227e+03 3.145e-10
 51.94185     71.5 9.311e+03 3.515e-10
 51.96174     71.9 9.391e+03 3.631e-10
 51.98730     70.9 9.596e+03 4.015e-10
 52.02708     69.7 9.857e+03 4.331e-10
 52.05681     68.1 1.005e+04 4.725e-10
 52.06689     66.3 1.038e+04 5.841e-10
 52.07683     66.4 1.067e+04 6.834e-10
 52.09648     65.0 1.089e+04 8.801e-10
 52.11637     64.3 1.089e+04 1.057e-09
 52.13626     64.5 1.080e+04 1.053e-09
 52.15071     64.6 1.071e+04 1.001e-09
 52.16065     64.4 1.072e+04 1.001e-09
 52.17223     65.0 1.047e+04 8.086e-10
 52.18218     65.2 1.062e+04 9.014e-10
 52.19592     65.3 1.026e+04 6.665e-10
 52.22584     65.0 9.929e+03 4.204e-10
 52.26571     64.9 9.379e+03 2.362e-10
 52.30549     64.6 9.021e+03 1.769e-10
 52.34526     65.1 8.911e+03 1.769e-10
 52.38312     66.3 8.910e+03 1.900e-10
 52.40301     67.1 8.918e+03 1.924e-10
 52.42480     68.6 9.021e+03 2.019e-10
 52.46458     70.0 9.121e+03 2.013e-10
 52.50435     71.3 9.207e+03 1.915e-10
 52.54412     72.2 9.289e+03 1.743e-10
 52.58389     73.0 9.325e+03 1.507e-10
 52.61370     73.6 9.276e+03 1.429e-10
 52.63359     74.3 9.314e+03 1.584e-10
 52.66344     74.9 9.314e+03 1.613e-10
 52.70321     75.7 9.272e+03 1.756e-10
 52.72802     76.8 9.235e+03 1.915e-10
 52.74791     77.9 9.435e+03 2.207e-10
 52.78276     79.1 9.380e+03 2.233e-10
 52.82253     80.5 9.320e+03 2.168e-10
 52.84428     81.9 9.267e+03 1.940e-10
 52.86417     82.3 9.415e+03 2.169e-10
 52.90208     83.5 9.375e+03 1.833e-10
 52.94185     84.7 9.393e+03 1.688e-10
 52.98162     85.9 9.409e+03 1.723e-10
 53.02139     87.0 9.484e+03 1.941e-10
 53.05497     87.8 9.665e+03 2.484e-10
 53.07486     87.9 9.820e+03 2.708e-10
 53.10094     88.7 1.006e+04 3.717e-10
 53.14071     89.4 1.026e+04 4.783e-10
 53.18048     89.5 1.025e+04 4.883e-10
 53.22026     89.6 1.012e+04 4.515e-10
 53.26003     89.5 9.906e+03 3.724e-10
 53.28555     89.3 9.707e+03 3.039e-10
 53.30084     89.3 9.719e+03 3.324e-10
 53.31509     89.7 9.916e+03 4.112e-10
 53.33957     89.8 9.653e+03 3.331e-10
 53.37935     90.0 9.427e+03 3.089e-10
 53.41912     90.7 9.413e+03 3.121e-10
 53.45889     91.4 9.467e+03 3.327e-10
 53.49624     92.0 9.626e+03 3.861e-10
 53.51613     91.7 9.711e+03 4.297e-10
 53.53844     92.0 9.863e+03 4.789e-10
 53.57821     92.2 1.011e+04 5.675e-10
 53.61798     92.4 1.036e+04 6.748e-10
 53.65775     92.4 1.055e+04 7.550e-10
 53.69753     92.3 1.059e+04 7.633e-10
 53.72682     92.5 1.050e+04 7.004e-10
 53.74671     92.2 9.825e+03 4.359e-10
 53.77707     92.7 9.545e+03 3.311e-10
 53.81685     93.5 9.227e+03 2.416e-10
 53.85662     94.4 8.930e+03 1.759e-10
 53.88227     95.4 8.674e+03 1.379e-10
 53.90216     96.8 8.800e+03 1.664e-10
 53.93616     97.8 8.613e+03 1.302e-10
 53.95740     98.9 8.478e+03 1.218e-10
 53.97729     99.3 8.300e+03 9.692e-11
 54.01571    100.6 8.300e+03 1.007e-10
 54.05548    101.8 8.354e+03 1.134e-10
 54.09525    102.9 8.515e+03 1.426e-10
 54.13503    103.7 8.801e+03 2.031e-10
 54.16809    104.5 9.239e+03 3.246e-10
 54.18798    105.3 9.225e+03 3.244e-10
 54.21457    106.0 9.841e+03 5.303e-10
 54.25434    106.6 1.041e+04 7.597e-10
 54.29412    106.8 1.069e+04 8.202e-10
 54.33389    106.8 1.066e+04 7.634e-10
 54.37366    106.7 1.048e+04 6.125e-10
 54.39867    106.5 1.025e+04 4.626e-10
 54.41856    106.8 1.015e+04 4.116e-10
 54.44945    106.6 9.850e+03 3.068e-10
 54.46934    106.2 9.769e+03 2.997e-10
 54.49298    106.5 9.596e+03 2.662e-10
 54.53275    107.4 9.525e+03 2.504e-10
 54.57253    108.4 9.513e+03 2.397e-10
 54.60936    109.5 9.517e+03 2.356e-10
 54.62925    110.2 9.339e+03 2.046e-10
 54.65207    111.3 9.397e+03 2.193e-10
 54.69184    112.2 9.557e+03 2.623e-10
 54.73162    113.2 9.818e+03 3.396e-10
 54.77139    114.0 1.018e+04 4.404e-10
 54.81116    114.3 1.048e+04 4.848e-10
 54.83994    114.4 1.050e+04 4.697e-10
 54.85983    114.8 1.049e+04 4.667e-10
 54.89071    114.8 1.040e+04 3.860e-10
 54.93048    115.0 1.016e+04 2.661e-10
 54.97025    115.3 9.895e+03 1.725e-10
 55.01002    115.8 9.683e+03 1.141e-10
 55.03652    116.6 9.573e+03 9.001e-11
 55.05640    116.9 9.620e+03 9.199e-11
 55.07052    118.1 9.616e+03 8.699e-11
 55.09041    118.5 9.581e+03 8.944e-11
 55.12934    120.1 9.601e+03 8.968e-11
 55.16911    121.8 9.671e+03 9.263e-11
 55.20889    123.3 9.756e+03 1.009e-10
 55.24866    124.7 9.938e+03 1.300e-10
 55.28121    126.2 1.024e+04 1.968e-10
 55.30110    126.8 9.992e+03 1.500e-10
 55.32821    127.8 1.046e+04 2.466e-10
 55.36798    128.1 1.107e+04 4.293e-10
 55.40775    127.9 1.176e+04 7.367e-10
 55.43748    127.6 1.215e+04 1.090e-09
 55.45727    127.5 1.233e+04 1.431e-09
 55.47716    127.4 1.230e+04 1.466e-09
 55.49704    127.6 1.220e+04 1.387e-09
 55.51160    127.7 1.191e+04 1.115e-09
 55.52154    128.4 1.202e+04 1.241e-09
 55.53682    128.4 1.176e+04 9.650e-10
 55.55670    127.9 1.143e+04 7.177e-10
 55.57659    127.2 1.104e+04 5.776e-10
 55.59648    126.6 1.080e+04 5.570e-10
 55.61344    126.5 1.081e+04 5.630e-10
 55.62339    126.5 1.065e+04 4.802e-10
 55.62689    126.5 1.068e+04 5.108e-10
 55.63683    127.4 1.077e+04 5.475e-10
 55.65613    127.3 1.085e+04 6.038e-10
 55.67602    127.5 1.096e+04 6.757e-10
 55.69591    127.6 1.102e+04 7.299e-10
 55.71579    127.9 1.101e+04 7.251e-10
 55.73223    128.0 1.100e+04 7.058e-10
 55.74218    128.8 1.114e+04 7.867e-10
 55.75557    129.0 1.108e+04 7.618e-10
 55.77545    129.2 1.098e+04 7.263e-10
 55.79534    129.4 1.087e+04 6.814e-10
 55.81522    129.7 1.073e+04 6.316e-10
 55.83511    130.1 1.060e+04 5.817e-10
 55.84752    130.6 1.052e+04 5.337e-10
 55.85747    131.3 1.059e+04 5.731e-10
 55.87488    131.8 1.051e+04 5.119e-10
 55.89477    132.2 1.044e+04 4.524e-10
 55.90698    132.6 1.035e+04 4.062e-10
 55.91692    132.2 1.032e+04 3.776e-10
 55.93454    132.7 1.025e+04 3.567e-10
 55.95287    133.3 1.014e+04 3.411e-10
 55.96281    134.0 1.015e+04 3.405e-10
 55.97431    134.8 1.006e+04 3.345e-10
 55.99420    135.7 1.006e+04 3.363e-10
 56.01409    136.5 1.013e+04 3.565e-10
 56.03397    136.9 1.036e+04 4.139e-10
 56.05386    136.9 1.082e+04 5.266e-10
 56.06816    136.5 1.156e+04 7.408e-10
 56.07810    137.9 1.118e+04 6.100e-10
 56.09363    137.4 1.203e+04 8.980e-10
 56.11352    137.0 1.280e+04 1.359e-09
 56.13341    136.8 1.334e+04 1.952e-09
 56.15329    136.0 1.394e+04 2.657e-09
 56.17318    133.9 1.513e+04 3.697e-09
 56.18345    130.7 1.632e+04 5.388e-09
 56.19089    132.1 1.656e+04 5.366e-09
 56.20051    133.4 1.551e+04 4.107e-09
 56.21295    130.3 1.627e+04 6.043e-09
 56.22782    128.7 1.626e+04 6.334e-09
 56.23602    127.9 1.616e+04 6.304e-09
 56.24100    128.7 1.648e+04 7.115e-09
 56.24765    127.6 1.642e+04 6.977e-09
 56.25760    126.4 1.645e+04 6.210e-09
 56.26754    123.9 1.718e+04 5.772e-09
 56.27748    120.8 1.794e+04 5.646e-09
 56.28743    116.2 1.912e+04 5.761e-09
 56.29367    111.5 1.884e+04 6.054e-09
 56.29864    111.7 1.933e+04 6.638e-09
 56.30731    107.3 1.847e+04 6.642e-09
 56.31726    104.2 1.721e+04 6.558e-09
 56.32720    102.3 1.607e+04 5.978e-09
 56.33714    101.7 1.574e+04 5.664e-09
 56.35211    101.3 1.506e+04 4.512e-09
 56.37204     99.8 1.407e+04 2.503e-09
 56.39193     96.5 1.269e+04 9.864e-10
 56.40408     90.4 1.074e+04 3.641e-10
 56.41403     89.2 1.055e+04 3.588e-10
 56.44174     86.8 9.531e+03 2.133e-10
 56.48161     86.7 9.026e+03 1.672e-10
 56.52138     87.2 8.885e+03 1.633e-10
 56.56116     88.3 8.816e+03 1.607e-10
 56.60093     89.6 8.736e+03 1.532e-10
 56.62492     91.0 8.642e+03 1.391e-10
 56.64480     90.0 8.684e+03 1.458e-10
 56.68047     91.5 8.542e+03 1.259e-10
 56.72025     92.9 8.381e+03 1.082e-10
 56.75794     94.4 8.206e+03 9.104e-11
 56.77783     95.0 8.330e+03 1.116e-10
 56.79979     96.7 8.137e+03 8.992e-11
 56.83561     98.4 7.964e+03 6.931e-11
 56.85549     97.8 7.953e+03 7.433e-11
 56.87934     99.5 7.816e+03 6.000e-11
 56.91911    101.1 7.699e+03 5.308e-11
 56.95888    102.8 7.673e+03 5.286e-11
 56.99866    104.6 7.683e+03 5.400e-11
 57.03843    106.2 7.731e+03 5.769e-11
 57.06619    107.7 7.833e+03 6.484e-11
 57.08607    107.4 7.930e+03 7.810e-11
 57.11797    108.7 8.053e+03 8.982e-11
 57.15775    109.8 8.215e+03 1.099e-10
 57.19752    110.7 8.493e+03 1.444e-10
 57.23729    111.5 8.945e+03 2.052e-10
 57.27688    111.6 9.313e+03 2.675e-10
 57.30661    110.7 9.633e+03 3.518e-10
 57.32658    110.1 1.015e+04 4.494e-10
 57.34481    107.1 1.165e+04 8.317e-10
 57.35476    106.6 1.207e+04 9.890e-10
 57.36636    102.0 1.476e+04 2.759e-09
 57.38624    100.0 1.612e+04 6.064e-09
 57.40192     99.4 1.617e+04 7.074e-09
 57.41186     98.9 1.560e+04 5.840e-09
 57.42602     99.0 1.512e+04 4.941e-09
 57.44590     98.6 1.426e+04 2.764e-09
 57.46579     96.1 1.318e+04 1.051e-09
 57.48567     89.3 1.100e+04 3.566e-10
 57.50556     85.5 9.302e+03 2.515e-10
 57.51721     85.4 9.278e+03 2.504e-10
 57.52715     85.4 9.268e+03 2.541e-10
 57.55537     85.2 9.304e+03 2.642e-10
 57.59524     85.5 9.422e+03 2.847e-10
 57.62265     85.4 9.799e+03 3.471e-10
 57.63250     85.0 9.908e+03 3.752e-10
 57.63835     83.5 1.067e+04 5.744e-10
 57.64829     82.1 1.093e+04 6.921e-10
 57.66465     80.7 1.155e+04 1.104e-09
 57.68454     80.0 1.206e+04 1.608e-09
 57.70442     79.8 1.233e+04 1.898e-09
 57.72431     79.5 1.230e+04 1.829e-09
 57.73784     79.4 1.200e+04 1.411e-09
 57.74779     78.7 1.171e+04 1.229e-09
 57.76408     77.2 1.133e+04 8.113e-10
 57.79401     76.1 1.049e+04 4.637e-10
 57.83388     74.6 9.362e+03 2.188e-10
 57.87365     74.3 8.821e+03 1.346e-10
 57.91219     74.9 8.486e+03 1.130e-10
 57.93208     74.6 8.349e+03 9.861e-11
 57.94873     76.2 8.359e+03 1.015e-10
 57.96862     75.6 8.525e+03 1.300e-10
 57.99297     77.3 8.598e+03 1.379e-10
 58.03274     78.8 8.751e+03 1.549e-10
 58.07252     80.1 8.954e+03 1.891e-10
 58.11229     81.5 9.190e+03 2.361e-10
 58.15206     82.9 9.301e+03 2.574e-10
 58.17931     84.5 9.267e+03 2.484e-10
 58.19919     83.3 9.428e+03 2.718e-10
 58.23161     85.0 9.292e+03 2.214e-10
 58.27138     86.5 9.178e+03 1.683e-10
 58.31115     87.8 9.131e+03 1.441e-10
 58.35092     89.5 9.147e+03 1.460e-10
 58.39000     91.2 9.268e+03 1.617e-10
 58.40989     90.2 9.493e+03 1.976e-10
 58.43047     91.9 9.771e+03 2.536e-10
 58.47024     93.4 1.010e+04 3.623e-10
 58.49925     94.8 1.068e+04 5.995e-10
 58.51914     94.9 1.088e+04 6.514e-10
 58.54979     96.2 1.172e+04 1.081e-09
 58.57952     96.4 1.228e+04 1.501e-09
 58.59931     96.5 1.263e+04 1.767e-09
 58.61919     96.5 1.305e+04 2.140e-09
 58.63033     96.5 1.334e+04 2.451e-09
 58.64027     96.0 1.330e+04 2.379e-09
 58.65897     96.1 1.324e+04 2.330e-09
 58.67885     96.3 1.313e+04 2.225e-09
 58.69874     97.0 1.267e+04 1.766e-09
 58.71863     97.2 1.225e+04 1.410e-09
 58.74855     97.7 1.138e+04 7.860e-10
 58.78842     99.0 1.041e+04 3.736e-10
 58.82820    100.3 9.699e+03 1.913e-10
 58.85116    101.6 9.302e+03 1.221e-10
 58.87105    101.9 9.287e+03 1.253e-10
 58.90774    103.7 9.127e+03 1.139e-10
 58.94751    105.9 9.108e+03 1.140e-10
 58.98729    108.0 9.112e+03 1.178e-10
 59.02706    110.2 9.141e+03 1.291e-10
 59.06185    112.3 9.194e+03 1.465e-10
 59.08134    112.7 9.234e+03 1.592e-10
 59.08632    112.8 9.297e+03 1.802e-10
 59.10660    115.0 9.438e+03 2.114e-10
 59.14638    117.1 9.623e+03 2.427e-10
 59.18615    119.1 9.852e+03 2.730e-10
 59.22592    120.5 1.011e+04 3.121e-10
 59.26570    121.2 1.029e+04 3.615e-10
 59.29233    121.8 1.036e+04 4.168e-10
 59.30218    122.1 1.050e+04 4.782e-10
 59.31522    123.1 1.080e+04 5.976e-10
 59.33510    123.9 1.107e+04 6.669e-10
 59.35499    124.5 1.111e+04 6.665e-10
 59.36972    125.1 1.108e+04 6.371e-10
 59.37966    125.3 1.131e+04 7.904e-10
 59.39476    125.9 1.126e+04 7.239e-10
 59.40752    126.4 1.115e+04 6.120e-10
 59.41747    126.6 1.130e+04 6.594e-10
 59.43453    126.7 1.116e+04 5.172e-10
 59.45442    126.6 1.101e+04 4.061e-10
 59.47431    126.3 1.085e+04 3.316e-10
 59.50303    126.1 1.042e+04 2.745e-10
 59.52291    125.9 1.043e+04 2.899e-10
 59.54401    126.4 1.036e+04 3.073e-10
 59.58388    127.8 1.034e+04 3.572e-10
 59.62365    129.6 1.042e+04 4.287e-10
 59.65350    131.5 1.054e+04 4.801e-10
 59.67339    131.2 1.067e+04 4.836e-10
 59.70319    132.7 1.067e+04 4.731e-10
 59.73370    134.3 1.057e+04 4.356e-10
 59.75359    134.1 1.076e+04 4.945e-10
 59.78274    135.3 1.062e+04 4.407e-10
 59.82251    136.5 1.047e+04 3.838e-10
 59.86228    137.8 1.031e+04 3.259e-10
 59.90206    139.1 1.015e+04 2.674e-10
 59.94183    140.5 1.003e+04 2.121e-10
 59.96428    141.9 9.962e+03 1.668e-10
 59.98417    140.9 1.013e+04 1.906e-10
 60.02137    142.2 1.010e+04 1.509e-10
 60.06115    143.6 1.003e+04 1.287e-10
 60.10092    145.1 9.835e+03 1.263e-10
 60.14069    146.8 9.806e+03 1.266e-10
 60.17497    148.6 9.790e+03 1.285e-10
 60.19486    147.8 9.970e+03 1.554e-10
 60.22024    149.6 9.986e+03 1.688e-10
 60.24057    151.4 1.003e+04 1.885e-10
 60.26045    152.1 1.005e+04 1.830e-10
 60.29978    154.0 1.009e+04 1.988e-10
 60.33956    155.8 1.013e+04 2.185e-10
 60.37933    157.3 1.022e+04 2.474e-10
 60.40555    158.7 1.036e+04 2.894e-10
 60.42544    157.5 1.078e+04 4.068e-10
 60.45887    158.5 1.090e+04 4.459e-10
 60.49865    159.1 1.097e+04 4.480e-10
 60.53842    159.5 1.105e+04 4.149e-10
 60.57819    159.7 1.107e+04 3.870e-10
 60.61624    159.8 1.110e+04 3.875e-10
 60.63613    158.4 1.113e+04 3.846e-10
 60.65774    158.7 1.123e+04 4.133e-10
 60.69751    158.8 1.143e+04 4.649e-10
 60.73728    158.7 1.166e+04 4.979e-10
 60.77705    158.6 1.189e+04 5.009e-10
 60.80775    158.8 1.203e+04 4.982e-10
 60.82763    157.6 1.216e+04 5.177e-10
 60.84682    158.1 1.226e+04 5.077e-10
 60.86671    157.1 1.241e+04 5.958e-10
 60.88633    157.3 1.243e+04 5.869e-10
 60.90612    157.5 1.245e+04 5.880e-10
 60.92601    157.8 1.247e+04 6.030e-10
 60.94589    158.0 1.247e+04 6.401e-10
 60.96192    158.3 1.249e+04 7.037e-10
 60.97186    158.0 1.265e+04 8.514e-10
 60.98567    158.4 1.270e+04 9.473e-10
 61.00555    158.8 1.279e+04 1.036e-09
 61.02544    159.1 1.293e+04 1.075e-09
 61.04532    159.3 1.298e+04 1.070e-09
 61.06521    159.2 1.299e+04 1.044e-09
 61.07721    159.1 1.297e+04 9.932e-10
 61.08715    158.5 1.321e+04 1.179e-09
 61.10108    157.9 1.328e+04 1.181e-09
 61.11103    157.3 1.334e+04 1.232e-09
 61.12487    156.5 1.353e+04 1.367e-09
 61.14476    155.7 1.371e+04 1.526e-09
 61.16464    154.8 1.384e+04 1.669e-09
 61.18255    153.8 1.393e+04 1.787e-09
 61.19250    152.8 1.457e+04 2.669e-09
 61.20442    151.6 1.452e+04 2.546e-09
 61.22430    150.0 1.451e+04 2.347e-09
 61.24419    148.1 1.437e+04 2.272e-09
 61.26407    146.1 1.427e+04 2.234e-09
 61.28396    144.2 1.411e+04 2.156e-09
 61.29784    142.5 1.388e+04 2.005e-09
 61.30779    140.8 1.398e+04 2.152e-09
 61.32373    139.3 1.371e+04 1.955e-09
 61.34362    138.1 1.339e+04 1.719e-09
 61.37355    135.9 1.303e+04 1.459e-09
 61.39481    133.3 1.242e+04 1.014e-09
 61.41470    133.0 1.223e+04 9.544e-10
 61.45319    131.3 1.172e+04 7.412e-10
 61.49296    130.0 1.167e+04 7.130e-10
 61.51867    128.8 1.176e+04 7.702e-10
 61.53856    127.3 1.109e+04 4.435e-10
 61.57251    126.5 1.089e+04 4.224e-10
 61.61228    126.4 1.063e+04 3.899e-10
 61.65205    126.6 1.027e+04 3.238e-10
 61.69183    127.3 9.911e+03 2.485e-10
 61.72937    128.2 9.626e+03 1.856e-10
 61.74925    127.7 9.426e+03 1.574e-10
 61.77137    129.1 9.336e+03 1.381e-10
 61.81114    130.6 9.247e+03 1.248e-10
 61.85092    132.2 9.233e+03 1.229e-10
 61.89069    133.8 9.244e+03 1.241e-10
 61.93046    135.4 9.309e+03 1.293e-10
 61.95995    136.8 9.413e+03 1.396e-10
 61.97159    136.2 9.253e+03 1.287e-10
 61.98188    136.6 9.271e+03 1.316e-10
 62.01001    137.7 9.329e+03 1.412e-10
 62.04978    138.8 9.389e+03 1.519e-10
 62.08955    139.8 9.463e+03 1.651e-10
 62.12932    140.7 9.558e+03 1.852e-10
 62.16910    141.7 9.646e+03 2.141e-10
 62.19052    142.8 9.733e+03 2.493e-10
 62.21041    142.1 9.489e+03 2.035e-10
 62.24864    143.2 9.649e+03 2.472e-10
 62.28841    144.5 9.802e+03 2.915e-10
 62.32819    145.9 9.938e+03 3.199e-10
 62.36796    147.2 9.974e+03 3.212e-10
 62.40122    148.4 9.974e+03 3.171e-10
 62.42110    147.3 9.945e+03 3.175e-10
 62.44750    148.5 9.923e+03 3.066e-10
 62.48728    149.8 9.882e+03 2.997e-10
 62.52705    151.3 9.890e+03 3.004e-10
 62.54906    153.1 1.001e+04 3.145e-10
 62.56895    152.9 9.846e+03 2.881e-10
 62.60660    154.5 1.014e+04 3.270e-10
 62.63180    155.5 1.040e+04 3.759e-10
 62.65168    152.9 1.021e+04 3.569e-10
 62.68614    153.1 1.043e+04 3.975e-10
 62.72591    153.0 1.062e+04 4.203e-10
 62.74699    152.8 1.055e+04 4.156e-10
 62.75683    152.0 1.057e+04 4.077e-10
 62.77543    151.4 1.052e+04 3.998e-10
 62.79532    151.1 1.050e+04 4.064e-10
 62.81521    150.7 1.056e+04 4.318e-10
 62.83245    150.2 1.073e+04 4.758e-10
 62.84240    150.3 1.079e+04 4.827e-10
 62.85224    149.8 1.096e+04 5.393e-10
 62.86218    148.3 1.091e+04 5.091e-10
 62.87487    147.8 1.110e+04 5.868e-10
 62.89475    147.0 1.136e+04 6.824e-10
 62.91464    144.8 1.216e+04 9.453e-10
 62.93452    139.8 1.429e+04 1.741e-09
 62.95441    132.9 1.636e+04 3.332e-09
 62.96753    124.9 1.680e+04 4.704e-09
 62.97747    123.4 1.637e+04 4.185e-09
 62.99418    116.1 1.607e+04 4.015e-09
 63.01407    109.5 1.514e+04 2.973e-09
 63.03396    104.4 1.395e+04 1.900e-09
 63.05384    101.0 1.291e+04 1.304e-09
 63.07297     96.4 1.218e+04 9.639e-10
 63.09295     99.5 1.227e+04 1.064e-09
 63.11624     97.2 1.134e+04 8.291e-10
 63.13613     97.3 1.094e+04 6.969e-10
 63.16341     97.7 1.071e+04 6.400e-10
 63.20318     98.6 1.056e+04 5.768e-10
 63.24296    100.3 1.042e+04 5.198e-10
 63.28273    102.5 1.046e+04 5.018e-10
 63.30355    103.6 1.055e+04 5.218e-10
 63.32343    104.3 1.076e+04 6.160e-10
 63.35223    105.2 1.075e+04 5.849e-10
 63.37202    106.0 1.070e+04 5.708e-10
 63.39191    107.0 1.070e+04 5.690e-10
 63.40880    108.0 1.071e+04 5.710e-10
 63.41652    107.7 1.082e+04 6.185e-10
 63.41952    107.7 1.090e+04 6.728e-10
 63.43168    108.6 1.100e+04 6.931e-10
 63.45157    109.4 1.111e+04 7.204e-10
 63.47145    110.1 1.126e+04 7.616e-10
 63.49134    110.8 1.143e+04 8.254e-10
 63.51123    111.5 1.162e+04 9.185e-10
 63.52409    111.4 1.200e+04 1.048e-09
 63.53403    110.6 1.261e+04 1.368e-09
 63.55100    109.8 1.362e+04 1.914e-09
 63.57089    108.2 1.648e+04 3.968e-09
 63.59077    106.4 2.021e+04 7.838e-09
 63.60564    105.7 2.130e+04 1.108e-08
 63.61553    103.6 2.435e+04 1.709e-08
 63.62548    101.0 2.691e+04 3.339e-08
 63.63431     99.4 2.710e+04 6.522e-08
 63.63928    100.5 2.759e+04 4.117e-08
 63.64536     95.2 2.790e+04 1.231e-07
 63.65280     92.4 2.776e+04 2.058e-07
 63.65774     79.9 2.487e+04 1.129e-06
 63.66271     60.7 1.547e+04 7.443e-05
 63.66557     49.1 1.095e+04 5.804e-03
 63.66805     45.9 1.108e+04 4.951e-03
 63.67266     45.5 1.180e+04 2.199e-03
 63.67763     48.0 1.624e+04 4.379e-05
 63.68260     47.7 1.978e+04 5.080e-06
 63.68757     42.3 2.768e+04 6.334e-07
 63.69193     29.8 3.795e+04 5.054e-08
 63.69692     33.1 3.787e+04 5.016e-08
 63.70301     28.7 3.297e+04 1.329e-08
 63.70798     33.1 3.586e+04 1.511e-08
 63.71496     20.6 3.800e+04 3.296e-09
 63.72993      6.4 2.192e+04 2.433e-09
 63.74472      2.4 1.415e+04 1.310e-09
 63.75466      1.9 1.252e+04 1.118e-09
 63.76975      2.4 1.207e+04 1.109e-09
 63.79968      3.7 1.214e+04 1.102e-09
 63.83955      3.8 1.164e+04 1.071e-09
 63.87932      5.3 1.147e+04 1.020e-09
 63.91909      6.8 1.098e+04 7.638e-10
 63.95561      7.5 1.009e+04 4.522e-10
 63.97550      8.5 1.036e+04 5.350e-10
 63.99864      8.9 9.458e+03 3.197e-10
 64.03841      9.9 8.954e+03 2.307e-10
 64.07818     11.4 8.595e+03 1.848e-10
 64.11796     13.3 8.392e+03 1.594e-10
 64.15773     15.4 8.253e+03 1.383e-10
 64.18619     17.5 8.156e+03 1.219e-10
 64.20607     18.0 8.161e+03 1.233e-10
 64.23727     20.0 8.089e+03 1.100e-10
 64.27049     22.0 8.050e+03 1.012e-10
 64.29037     21.1 8.216e+03 1.211e-10
 64.31682     23.0 8.201e+03 1.176e-10
 64.35659     24.8 8.256e+03 1.207e-10
 64.39636     26.6 8.296e+03 1.345e-10
 64.41677     28.6 8.379e+03 1.453e-10
 64.43665     29.1 8.237e+03 1.231e-10
 64.47591     30.6 8.339e+03 1.211e-10
 64.51568     31.8 8.357e+03 1.284e-10
 64.55545     33.3 8.376e+03 1.464e-10
 64.59523     35.1 8.476e+03 1.534e-10
 64.62746     37.1 8.495e+03 1.466e-10
 64.64735     37.6 8.552e+03 1.558e-10
 64.67477     39.4 8.534e+03 1.465e-10
 64.71454     40.9 8.535e+03 1.317e-10
 64.75432     42.1 8.574e+03 1.272e-10
 64.79409     43.6 8.574e+03 1.306e-10
 64.83386     45.3 8.600e+03 1.366e-10
 64.85755     47.2 8.626e+03 1.369e-10
 64.86184     46.4 8.863e+03 1.960e-10
 64.87793     46.8 8.870e+03 1.976e-10
 64.91341     48.7 8.857e+03 1.853e-10
 64.95318     50.5 8.849e+03 1.694e-10
 64.99295     52.2 8.864e+03 1.595e-10
 65.03273     54.0 8.869e+03 1.639e-10
 65.06873     55.9 8.913e+03 1.724e-10
 65.08862     56.2 8.941e+03 1.694e-10
 65.11227     58.2 8.995e+03 1.781e-10
 65.15204     60.3 9.064e+03 1.808e-10
 65.19182     62.1 9.137e+03 1.828e-10
 65.23159     63.9 9.203e+03 1.901e-10
 65.27136     65.8 9.286e+03 2.070e-10
 65.29931     67.8 9.317e+03 2.167e-10
 65.31920     68.0 9.413e+03 2.219e-10
 65.35091     70.1 9.411e+03 2.201e-10
 65.39068     72.6 9.355e+03 2.024e-10
 65.42473     75.0 9.285e+03 1.648e-10
 65.44462     73.9 9.266e+03 1.513e-10
 65.47022     76.0 9.198e+03 1.140e-10
 65.51000     78.2 9.065e+03 1.019e-10
 65.54977     81.0 9.162e+03 1.142e-10
 65.58954     83.4 9.183e+03 1.267e-10
 65.62931     85.9 9.240e+03 1.583e-10
 65.66909     88.6 9.362e+03 2.058e-10
 65.70886     91.4 9.551e+03 2.534e-10
 65.74058     94.0 9.755e+03 2.709e-10
 65.76047     94.4 1.009e+04 3.446e-10
 65.78841     96.7 1.015e+04 3.430e-10
 65.82818     99.0 1.018e+04 3.268e-10
 65.86795    101.1 1.018e+04 2.929e-10
 65.90772    103.2 1.016e+04 2.584e-10
 65.94750    105.3 1.016e+04 2.350e-10
 65.97116    107.5 1.017e+04 2.234e-10
 65.99105    107.8 1.043e+04 2.576e-10
 66.01180    110.1 1.038e+04 2.540e-10
 66.03168    109.4 1.055e+04 3.827e-10
 66.06681    111.7 1.050e+04 3.586e-10
 66.10659    114.1 1.047e+04 3.403e-10
 66.14636    116.5 1.050e+04 3.404e-10
 66.18185    118.9 1.061e+04 3.512e-10
 66.20174    119.4 1.069e+04 3.800e-10
 66.22590    121.7 1.082e+04 3.997e-10
 66.26568    123.7 1.099e+04 4.321e-10
 66.29529    125.1 1.084e+04 4.154e-10
 66.30514    124.6 1.106e+04 4.861e-10
 66.30689    125.6 1.114e+04 5.405e-10
 66.31683    125.8 1.129e+04 5.680e-10
 66.33508    126.8 1.135e+04 6.467e-10
 66.35497    127.8 1.141e+04 7.255e-10
 66.37486    128.9 1.151e+04 7.938e-10
 66.39474    129.9 1.160e+04 8.467e-10
 66.41224    130.8 1.162e+04 8.599e-10
 66.42218    131.0 1.162e+04 8.533e-10
 66.43452    131.9 1.160e+04 8.314e-10
 66.45440    132.9 1.156e+04 7.795e-10
 66.47429    133.7 1.154e+04 7.144e-10
 66.49417    134.3 1.148e+04 6.568e-10
 66.51406    134.8 1.132e+04 6.326e-10
 66.52753    135.4 1.116e+04 6.365e-10
 66.53747    135.6 1.111e+04 5.929e-10
 66.55383    136.2 1.106e+04 6.016e-10
 66.57372    136.8 1.095e+04 6.396e-10
 66.58873    137.5 1.091e+04 6.998e-10
 66.59867    136.8 1.093e+04 7.353e-10
 66.61349    137.7 1.103e+04 7.944e-10
 66.63287    138.3 1.116e+04 8.296e-10
 66.64282    138.5 1.118e+04 8.579e-10
 66.66331    139.1 1.140e+04 8.854e-10
 66.70318    140.3 1.137e+04 8.552e-10
 66.74295    141.3 1.126e+04 7.629e-10
 66.77268    141.6 1.121e+04 7.251e-10
 66.79247    142.2 1.103e+04 6.559e-10
 66.81236    142.8 1.093e+04 5.884e-10
 66.83224    143.3 1.083e+04 5.201e-10
 66.85213    143.6 1.075e+04 4.710e-10
 66.86345    143.9 1.073e+04 4.601e-10
 66.87339    143.5 1.079e+04 4.761e-10
 66.88226    143.9 1.080e+04 4.778e-10
 66.89220    143.1 1.087e+04 4.464e-10
 66.91179    143.4 1.089e+04 4.636e-10
 66.94171    144.3 1.102e+04 5.563e-10
 66.98158    145.0 1.133e+04 7.478e-10
 67.02136    145.8 1.165e+04 9.602e-10
 67.06113    146.5 1.179e+04 1.002e-09
 67.08428    147.1 1.174e+04 9.453e-10
 67.10417    146.6 1.139e+04 6.345e-10
 67.14067    147.1 1.115e+04 5.142e-10
 67.16604    147.6 1.097e+04 4.810e-10
 67.17589    145.6 1.093e+04 5.029e-10
 67.18943    146.1 1.090e+04 5.451e-10
 67.19938    145.8 1.079e+04 4.405e-10
 67.21008    146.3 1.076e+04 4.877e-10
 67.22997    146.8 1.083e+04 5.412e-10
 67.24985    147.4 1.095e+04 5.666e-10
 67.26974    147.8 1.097e+04 5.642e-10
 67.28963    148.1 1.096e+04 5.492e-10
 67.30472    148.3 1.090e+04 5.315e-10
 67.31467    148.2 1.082e+04 4.998e-10
 67.32940    148.4 1.081e+04 4.989e-10
 67.34929    148.4 1.083e+04 5.061e-10
 67.36917    148.2 1.093e+04 5.409e-10
 67.38906    147.9 1.111e+04 6.226e-10
 67.40894    147.5 1.133e+04 7.606e-10
 67.42001    147.3 1.156e+04 9.620e-10
 67.42996    147.4 1.147e+04 8.978e-10
 67.44872    147.3 1.168e+04 1.123e-09
 67.45938    147.2 1.190e+04 1.347e-09
 67.46932    146.4 1.189e+04 1.387e-09
 67.48849    146.5 1.212e+04 1.518e-09
 67.50838    146.4 1.221e+04 1.529e-09
 67.52536    146.2 1.220e+04 1.515e-09
 67.53530    146.4 1.219e+04 1.516e-09
 67.54815    146.1 1.212e+04 1.457e-09
 67.56804    146.1 1.189e+04 1.291e-09
 67.58792    146.2 1.155e+04 1.072e-09
 67.60781    146.3 1.117e+04 8.656e-10
 67.62769    146.5 1.081e+04 6.971e-10
 67.64065    146.7 1.053e+04 5.741e-10
 67.65059    146.8 1.053e+04 5.570e-10
 67.66747    146.9 1.030e+04 4.855e-10
 67.68735    147.2 1.024e+04 4.783e-10
 67.70724    147.6 1.025e+04 4.820e-10
 67.72713    147.8 1.034e+04 5.066e-10
 67.74297    147.9 1.057e+04 5.832e-10
 67.75190    147.2 1.110e+04 7.150e-10
 67.75594    147.4 1.114e+04 7.059e-10
 67.76690    147.2 1.166e+04 9.478e-10
 67.78678    147.2 1.222e+04 1.316e-09
 67.80667    147.2 1.275e+04 1.807e-09
 67.82656    147.2 1.325e+04 2.376e-09
 67.84644    147.2 1.370e+04 2.895e-09
 67.86128    147.0 1.405e+04 3.180e-09
 67.87123    146.1 1.498e+04 4.554e-09
 67.88622    145.9 1.516e+04 4.790e-09
 67.90610    145.3 1.513e+04 4.737e-09
 67.92599    145.0 1.492e+04 4.447e-09
 67.94588    145.0 1.445e+04 3.915e-09
 67.96576    145.2 1.384e+04 3.278e-09
 67.97657    145.5 1.342e+04 2.821e-09
 67.98652    144.9 1.416e+04 3.603e-09
 68.00553    145.0 1.426e+04 3.530e-09
 68.02542    144.5 1.477e+04 3.700e-09
 68.03650    143.1 1.647e+04 4.534e-09
 68.04645    137.9 1.788e+04 5.073e-09
 68.06519    136.0 1.874e+04 6.878e-09
 68.08006    136.0 1.902e+04 7.999e-09
 68.08679    135.9 1.940e+04 9.121e-09
 68.09176    135.5 1.891e+04 8.492e-09
 68.09990    135.1 1.946e+04 9.603e-09
 68.10984    134.5 1.994e+04 1.074e-08
 68.11978    133.7 2.015e+04 1.157e-08
 68.12973    132.7 2.008e+04 1.136e-08
 68.13947    131.6 1.977e+04 1.069e-08
 68.14444    131.2 1.948e+04 9.201e-09
 68.14961    129.8 1.901e+04 8.298e-09
 68.15956    127.9 1.824e+04 6.984e-09
 68.16950    126.0 1.713e+04 5.768e-09
 68.17820    123.7 1.599e+04 4.799e-09
 68.18317    122.0 1.493e+04 3.761e-09
 68.18938    120.9 1.448e+04 3.487e-09
 68.19711    119.2 1.418e+04 3.147e-09
 68.20710    119.5 1.405e+04 3.092e-09
 68.22428    116.9 1.372e+04 2.790e-09
 68.24417    113.9 1.370e+04 2.597e-09
 68.26406    110.8 1.340e+04 2.389e-09
 68.28394    108.0 1.315e+04 2.303e-09
 68.30255    105.6 1.325e+04 2.426e-09
 68.31250    105.9 1.328e+04 2.474e-09
 68.32009    104.1 1.346e+04 2.657e-09
 68.33004    105.6 1.314e+04 2.461e-09
 68.34360    104.4 1.339e+04 2.626e-09
 68.36349    103.4 1.347e+04 2.635e-09
 68.38337    102.5 1.345e+04 2.567e-09
 68.40326    101.8 1.336e+04 2.406e-09
 68.41784    101.1 1.313e+04 2.150e-09
 68.42779    101.2 1.277e+04 1.900e-09
 68.44303    100.9 1.240e+04 1.613e-09
 68.46292    100.8 1.207e+04 1.378e-09
 68.48281    100.9 1.181e+04 1.189e-09
 68.50269    101.0 1.167e+04 1.088e-09
 68.52258    101.4 1.135e+04 9.275e-10
 68.53313    101.6 1.129e+04 8.965e-10
 68.54308    101.9 1.110e+04 8.308e-10
 68.57239    102.9 1.072e+04 7.158e-10
 68.61226    104.1 1.040e+04 6.217e-10
 68.63858    105.0 1.015e+04 5.495e-10
 68.64842    105.6 1.038e+04 6.249e-10
 68.66178    106.5 1.013e+04 5.578e-10
 68.68167    107.4 9.942e+03 5.047e-10
 68.70155    108.3 9.834e+03 4.710e-10
 68.72144    109.2 9.760e+03 4.468e-10
 68.74133    110.1 9.718e+03 4.366e-10
 68.75377    111.1 9.711e+03 4.367e-10
 68.76371    111.5 9.946e+03 5.110e-10
 68.78110    112.5 9.970e+03 5.157e-10
 68.80099    113.4 1.005e+04 5.366e-10
 68.82087    114.3 1.018e+04 5.736e-10
 68.84076    115.3 1.034e+04 6.246e-10
 68.85912    116.2 1.053e+04 6.873e-10
 68.86906    116.2 1.074e+04 7.743e-10
 68.88053    117.1 1.090e+04 8.398e-10
 68.89722    117.9 1.104e+04 8.985e-10
 68.90716    117.5 1.072e+04 7.666e-10
 68.92030    118.3 1.083e+04 8.122e-10
 68.94019    119.2 1.091e+04 8.478e-10
 68.96008    120.1 1.098e+04 8.649e-10
 68.97441    120.9 1.100e+04 8.627e-10
 68.98435    120.7 1.098e+04 8.484e-10
 68.99985    121.5 1.093e+04 8.140e-10
 69.01974    122.2 1.085e+04 7.692e-10
 69.03962    122.9 1.075e+04 7.194e-10
 69.05951    123.7 1.062e+04 6.685e-10
 69.07939    124.6 1.047e+04 6.192e-10
 69.08969    125.6 1.033e+04 5.763e-10
 69.09964    125.4 1.021e+04 5.279e-10
 69.11917    126.5 1.015e+04 5.016e-10
 69.13905    127.5 1.014e+04 4.841e-10
 69.15894    128.7 1.013e+04 4.696e-10
 69.17883    129.7 1.012e+04 4.584e-10
 69.19075    130.9 1.010e+04 4.424e-10
 69.19702    130.5 9.904e+03 3.692e-10
 69.20498    130.3 9.931e+03 3.756e-10
 69.21860    131.0 9.921e+03 3.686e-10
 69.23849    132.5 9.866e+03 3.471e-10
 69.25837    133.2 9.848e+03 3.389e-10
 69.27826    134.9 9.801e+03 3.201e-10
 69.29814    135.6 9.821e+03 3.153e-10
 69.31033    137.3 9.830e+03 3.089e-10
 69.32027    137.1 9.919e+03 3.365e-10
 69.33792    138.0 9.944e+03 3.385e-10
 69.35780    139.6 9.966e+03 3.427e-10
 69.37769    140.5 1.001e+04 3.504e-10
 69.39758    142.1 1.003e+04 3.608e-10
 69.41568    143.2 1.009e+04 3.770e-10
 69.42562    143.4 1.030e+04 4.591e-10
 69.43735    144.8 1.035e+04 4.914e-10
 69.45723    146.3 1.043e+04 5.284e-10
 69.47434    147.8 1.056e+04 5.796e-10
 69.48428    146.6 1.000e+04 3.888e-10
 69.49701    148.1 1.009e+04 4.341e-10
 69.51689    149.7 1.026e+04 5.048e-10
 69.53097    151.3 1.052e+04 5.996e-10
 69.54091    151.4 1.078e+04 6.762e-10
 69.55667    152.7 1.113e+04 8.071e-10
 69.57655    153.5 1.158e+04 9.846e-10
 69.59644    154.3 1.221e+04 1.247e-09
 69.61633    154.9 1.300e+04 1.650e-09
 69.63621    155.3 1.383e+04 2.226e-09
 69.64626    155.5 1.446e+04 2.890e-09
 69.65620    154.2 1.490e+04 3.546e-09
 69.67096    154.6 1.490e+04 3.638e-09
 69.68086    154.7 1.495e+04 3.709e-09
 69.69080    154.8 1.522e+04 3.961e-09
 69.69883    154.8 1.537e+04 4.084e-09
 69.70380    154.3 1.556e+04 4.322e-09
 69.71571    154.7 1.637e+04 5.197e-09
 69.73564    155.2 1.629e+04 4.844e-09
 69.75160    155.7 1.572e+04 3.651e-09
 69.76154    154.6 1.580e+04 3.572e-09
 69.76787    154.9 1.458e+04 2.187e-09
 69.77782    153.9 1.300e+04 1.343e-09
 69.79530    154.2 1.240e+04 1.015e-09
 69.81519    154.5 1.200e+04 8.593e-10
 69.84512    155.0 1.175e+04 7.173e-10
 69.88499    157.4 1.122e+04 5.393e-10
 69.91472    159.4 1.096e+04 4.298e-10
 69.93451    160.6 1.086e+04 3.895e-10
 69.95439    162.5 1.079e+04 3.552e-10
 69.97224    163.7 1.072e+04 3.325e-10
 69.98228    162.8 1.055e+04 3.169e-10
 70.00430    165.7 1.055e+04 3.070e-10
 70.04172    168.8 1.053e+04 3.041e-10
 70.06160    169.7 1.041e+04 2.895e-10
 70.08385    172.8 1.055e+04 3.038e-10
 70.12362    174.7 1.061e+04 3.062e-10
 70.15335    175.2 1.042e+04 3.010e-10
 70.17314    176.8 1.021e+04 2.930e-10
 70.19287    179.0 1.012e+04 2.933e-10
 70.20282    179.0 1.007e+04 3.092e-10
 70.21291    181.1 1.010e+04 3.257e-10
 70.23280    182.9 1.028e+04 3.513e-10
 70.25269    183.8 1.055e+04 3.880e-10
 70.27257    183.2 1.093e+04 4.669e-10
 70.29246    180.7 1.195e+04 7.120e-10
 70.30816    176.7 1.449e+04 1.902e-09
 70.31811    174.6 1.531e+04 2.616e-09
 70.33223    172.5 1.731e+04 6.543e-09
 70.34500    171.8 1.865e+04 1.237e-08
 70.35494    170.4 1.881e+04 1.394e-08
 70.37201    169.5 1.913e+04 1.408e-08
 70.39189    167.9 1.911e+04 1.247e-08
 70.41178    165.7 1.864e+04 8.817e-09
 70.42345    162.8 1.753e+04 5.588e-09
 70.43340    161.3 1.684e+04 4.658e-09
 70.45155    158.2 1.530e+04 3.225e-09
 70.47144    155.7 1.419e+04 2.696e-09
 70.49132    154.2 1.412e+04 2.728e-09
 70.51121    153.4 1.413e+04 2.869e-09
 70.52880    153.1 1.423e+04 3.074e-09
 70.53874    152.4 1.400e+04 2.869e-09
 70.55098    152.2 1.413e+04 3.085e-09
 70.57087    151.9 1.422e+04 3.234e-09
 70.59075    151.2 1.450e+04 3.444e-09
 70.61064    149.7 1.518e+04 3.846e-09
 70.62859    148.0 1.595e+04 4.421e-09
 70.63853    145.0 1.613e+04 4.113e-09
 70.64404    144.2 1.658e+04 4.616e-09
 70.65398    142.4 1.711e+04 4.764e-09
 70.66528    140.9 1.792e+04 5.840e-09
 70.67517    139.5 1.840e+04 6.790e-09
 70.68512    138.2 1.881e+04 7.565e-09
 70.69506    136.9 1.884e+04 7.654e-09
 70.71002    134.8 1.869e+04 7.147e-09
 70.72996    132.8 1.850e+04 6.596e-09
 70.74943    129.5 1.763e+04 4.958e-09
 70.75938    129.3 1.730e+04 4.887e-09
 70.76973    126.1 1.584e+04 3.264e-09
 70.78962    123.2 1.419e+04 2.214e-09
 70.80950    120.9 1.303e+04 1.664e-09
 70.82939    119.6 1.251e+04 1.374e-09
 70.84928    118.7 1.224e+04 1.186e-09
 70.86472    117.9 1.198e+04 1.027e-09
 70.87467    118.4 1.223e+04 1.165e-09
 70.88905    117.5 1.190e+04 9.824e-10
 70.90894    116.3 1.146e+04 8.061e-10
 70.92212    115.0 1.108e+04 6.836e-10
 70.93206    112.4 1.097e+04 6.094e-10
 70.94871    109.4 1.121e+04 6.560e-10
 70.96859    104.3 1.254e+04 8.340e-10
 70.98001     99.2 1.350e+04 1.378e-09
 70.98996    100.7 1.328e+04 1.212e-09
 71.00837     96.9 1.355e+04 1.794e-09
 71.02825     94.5 1.321e+04 1.983e-09
 71.04814     93.3 1.293e+04 1.852e-09
 71.06803     92.3 1.247e+04 1.423e-09
 71.08536     90.5 1.190e+04 9.353e-10
 71.09530     92.0 1.197e+04 1.030e-09
 71.10780     89.4 1.129e+04 6.558e-10
 71.12769     86.6 1.043e+04 4.953e-10
 71.14757     84.7 1.008e+04 4.869e-10
 71.16746     83.8 1.006e+04 5.093e-10
 71.18734     83.6 1.019e+04 5.899e-10
 71.20065     83.6 1.045e+04 7.048e-10
 71.20907     84.2 1.056e+04 7.336e-10
 71.21565     83.4 1.054e+04 7.282e-10
 71.22712     83.4 1.086e+04 8.748e-10
 71.24700     83.3 1.121e+04 1.039e-09
 71.26689     82.9 1.158e+04 1.217e-09
 71.28678     82.4 1.210e+04 1.442e-09
 71.30599     81.6 1.264e+04 1.758e-09
 71.31594     81.7 1.283e+04 1.936e-09
 71.32655     80.9 1.332e+04 2.342e-09
 71.34643     80.0 1.386e+04 2.835e-09
 71.36632     78.9 1.446e+04 3.438e-09
 71.38621     77.3 1.514e+04 4.169e-09
 71.40609     75.0 1.596e+04 5.116e-09
 71.42128     72.0 1.679e+04 6.187e-09
 71.43123     72.4 1.641e+04 5.416e-09
 71.44587     68.7 1.700e+04 6.381e-09
 71.46575     65.2 1.721e+04 6.805e-09
 71.48564     61.7 1.716e+04 6.494e-09
 71.49924     58.0 1.695e+04 5.708e-09
 71.50919     57.3 1.605e+04 4.331e-09
 71.52541     53.6 1.553e+04 3.732e-09
 71.53657     50.7 1.472e+04 3.148e-09
 71.54652     52.6 1.559e+04 4.101e-09
 71.56518     50.5 1.461e+04 3.241e-09
 71.58507     49.5 1.360e+04 2.440e-09
 71.60496     49.3 1.278e+04 1.795e-09
 71.62484     49.2 1.215e+04 1.306e-09
 71.64192     49.1 1.160e+04 9.485e-10
 71.65186     49.9 1.159e+04 9.545e-10
 71.66462     49.7 1.103e+04 6.847e-10
 71.68450     49.4 1.066e+04 5.382e-10
 71.70439     49.5 1.035e+04 5.034e-10
 71.72427     50.2 1.022e+04 4.987e-10
 71.74736     51.6 1.020e+04 4.913e-10
 71.76725     52.2 1.019e+04 4.896e-10
 71.78293     54.8 1.016e+04 4.853e-10
 71.79287     53.7 1.028e+04 5.270e-10
 71.80382     54.1 1.031e+04 5.318e-10
 71.82371     55.6 1.037e+04 5.308e-10
 71.84359     56.3 1.042e+04 5.347e-10
 71.87352     58.0 1.036e+04 4.967e-10
 71.91339     59.4 1.050e+04 5.082e-10
 71.95316     60.4 1.082e+04 5.791e-10
 71.97804     61.3 1.134e+04 7.410e-10
 71.98789     62.7 1.089e+04 6.335e-10
 72.00268     63.1 1.099e+04 6.708e-10
 72.02257     64.0 1.131e+04 7.985e-10
 72.04246     64.5 1.138e+04 8.455e-10
 72.06234     65.4 1.139e+04 8.962e-10
 72.07637     66.4 1.146e+04 9.741e-10
 72.08631     65.6 1.119e+04 8.326e-10
 72.09313     66.3 1.134e+04 8.726e-10
 72.10308     67.6 1.088e+04 7.081e-10
 72.12200     68.3 1.103e+04 7.398e-10
 72.14189     68.9 1.122e+04 7.905e-10
 72.16177     69.4 1.148e+04 8.723e-10
 72.18166     69.9 1.180e+04 9.922e-10
 72.19848     70.3 1.218e+04 1.151e-09
 72.20842     71.8 1.159e+04 8.904e-10
 72.22143     72.2 1.200e+04 1.053e-09
 72.24132     72.4 1.255e+04 1.275e-09
 72.26120     72.6 1.319e+04 1.635e-09
 72.28109     72.8 1.377e+04 2.123e-09
 72.30098     73.0 1.424e+04 2.681e-09
 72.31377     73.3 1.459e+04 3.215e-09
 72.32371     74.9 1.441e+04 2.778e-09
 72.34075     75.1 1.485e+04 3.445e-09
 72.35996     75.2 1.523e+04 4.063e-09
 72.36990     74.6 1.521e+04 4.101e-09
 72.38052     75.1 1.554e+04 4.705e-09
 72.40041     75.7 1.581e+04 5.311e-09
 72.41912     76.3 1.595e+04 5.461e-09
 72.42906     77.5 1.638e+04 6.256e-09
 72.44018     78.1 1.662e+04 6.641e-09
 72.46007     78.5 1.656e+04 6.291e-09
 72.47995     78.6 1.645e+04 5.696e-09
 72.49984     78.6 1.625e+04 5.027e-09
 72.51973     78.2 1.593e+04 4.426e-09
 72.53441     78.0 1.552e+04 4.027e-09
 72.54435     79.3 1.611e+04 4.708e-09
 72.55950     79.0 1.561e+04 4.255e-09
 72.57939     79.2 1.521e+04 3.887e-09
 72.59927     79.7 1.484e+04 3.491e-09
 72.61916     80.3 1.448e+04 3.065e-09
 72.63904     81.0 1.411e+04 2.656e-09
 72.64970     81.7 1.378e+04 2.327e-09
 72.65420     82.2 1.391e+04 2.373e-09
 72.66343     82.8 1.401e+04 2.563e-09
 72.67882     83.4 1.371e+04 2.254e-09
 72.69870     84.0 1.348e+04 2.041e-09
 72.71859     84.8 1.333e+04 1.922e-09
 72.73848     85.7 1.332e+04 1.894e-09
 72.75504     86.5 1.335e+04 1.904e-09
 72.76498     86.9 1.320e+04 1.719e-09
 72.77825     87.7 1.323e+04 1.711e-09
 72.79814     88.6 1.330e+04 1.713e-09
 72.81802     89.4 1.337e+04 1.717e-09
 72.83791     90.3 1.345e+04 1.728e-09
 72.85779     91.1 1.351e+04 1.724e-09
 72.87033     91.9 1.348e+04 1.693e-09
 72.88027     92.2 1.288e+04 1.277e-09
 72.89757     93.0 1.283e+04 1.257e-09
 72.91745     93.8 1.278e+04 1.235e-09
 72.93708     94.5 1.267e+04 1.194e-09
 72.94702     94.8 1.381e+04 1.860e-09
 72.95723     95.6 1.358e+04 1.706e-09
 72.97568     96.5 1.328e+04 1.521e-09
 72.98562     96.8 1.285e+04 1.259e-09
 72.99700     97.7 1.262e+04 1.162e-09
 73.01688     98.7 1.241e+04 1.069e-09
 73.03677     99.6 1.221e+04 9.902e-10
 73.05666    100.6 1.204e+04 9.304e-10
 73.07654    101.6 1.191e+04 8.966e-10
 73.09097    102.7 1.185e+04 8.889e-10
 73.10091    103.1 1.181e+04 8.749e-10
 73.11632    104.2 1.185e+04 9.052e-10
 73.13620    105.3 1.193e+04 9.629e-10
 73.15609    106.4 1.205e+04 1.040e-09
 73.17598    107.6 1.216e+04 1.114e-09
 73.19586    108.7 1.224e+04 1.174e-09
 73.20626    109.9 1.231e+04 1.238e-09
 73.21620    110.2 1.261e+04 1.388e-09
 73.23061    111.3 1.271e+04 1.482e-09
 73.24055    111.5 1.272e+04 1.479e-09
 73.25552    112.7 1.280e+04 1.550e-09
 73.27541    113.9 1.288e+04 1.619e-09
 73.29529    115.1 1.298e+04 1.686e-09
 73.31160    116.2 1.307e+04 1.744e-09
 73.32155    116.4 1.347e+04 2.047e-09
 73.33507    117.5 1.355e+04 2.101e-09
 73.35495    118.6 1.358e+04 2.106e-09
 73.37484    119.6 1.357e+04 2.098e-09
 73.39472    120.6 1.354e+04 2.062e-09
 73.41461    121.6 1.345e+04 1.988e-09
 73.42689    122.7 1.332e+04 1.887e-09
 73.43684    122.7 1.372e+04 2.160e-09
 73.45438    123.8 1.358e+04 2.034e-09
 73.47427    124.8 1.343e+04 1.909e-09
 73.49416    125.9 1.327e+04 1.795e-09
 73.51404    127.1 1.313e+04 1.702e-09
 73.52414    128.3 1.302e+04 1.637e-09
 73.53240    128.9 1.318e+04 1.675e-09
 73.54218    128.8 1.355e+04 1.893e-09
 73.55382    129.9 1.351e+04 1.836e-09
 73.57370    131.1 1.350e+04 1.814e-09
 73.59359    132.2 1.353e+04 1.824e-09
 73.61347    133.3 1.361e+04 1.860e-09
 73.63336    134.4 1.372e+04 1.921e-09
 73.64753    135.5 1.383e+04 1.998e-09
 73.65747    135.3 1.381e+04 1.891e-09
 73.67313    136.4 1.386e+04 1.914e-09
 73.69302    137.6 1.390e+04 1.903e-09
 73.71291    138.7 1.389e+04 1.855e-09
 73.73279    139.8 1.382e+04 1.769e-09
 73.75268    141.0 1.369e+04 1.648e-09
 73.76282    142.1 1.351e+04 1.510e-09
 73.77276    142.0 1.289e+04 1.114e-09
 73.79245    143.1 1.268e+04 1.019e-09
 73.80773    144.2 1.252e+04 9.531e-10
 73.81768    144.2 1.313e+04 1.241e-09
 73.83222    145.2 1.292e+04 1.152e-09
 73.85211    146.3 1.274e+04 1.098e-09
 73.86816    147.5 1.262e+04 1.076e-09
 73.87811    147.5 1.225e+04 8.887e-10
 73.89188    148.8 1.227e+04 9.242e-10
 73.91177    150.0 1.234e+04 9.756e-10
 73.93166    151.3 1.244e+04 1.036e-09
 73.95154    152.7 1.257e+04 1.102e-09
 73.97143    154.0 1.270e+04 1.168e-09
 73.98345    155.2 1.282e+04 1.240e-09
 73.99340    155.3 1.277e+04 1.229e-09
 74.01120    156.5 1.290e+04 1.315e-09
 74.03109    157.7 1.306e+04 1.383e-09
 74.05097    158.7 1.315e+04 1.413e-09
 74.07086    159.7 1.322e+04 1.421e-09
 74.08880    160.6 1.323e+04 1.415e-09
 74.09874    160.7 1.320e+04 1.407e-09
 74.10127    161.7 1.321e+04 1.389e-09
 74.11121    161.7 1.304e+04 1.264e-09
 74.13052    162.7 1.302e+04 1.230e-09
 74.15040    163.8 1.299e+04 1.187e-09
 74.17029    165.0 1.294e+04 1.129e-09
 74.19018    166.1 1.286e+04 1.062e-09
 74.20409    167.3 1.275e+04 9.892e-10
 74.21403    167.4 1.258e+04 8.941e-10
 74.22995    168.6 1.240e+04 8.029e-10
 74.24984    169.8 1.216e+04 7.062e-10
 74.26972    171.0 1.184e+04 6.201e-10
 74.28961    172.1 1.140e+04 5.652e-10
 74.30943    173.0 1.105e+04 5.679e-10
 74.32932    174.3 1.106e+04 4.595e-10
 74.34927    175.0 1.201e+04 5.105e-10
 74.36915    175.3 1.412e+04 6.857e-10
 74.38486    175.3 1.641e+04 1.165e-09
 74.39480    173.5 1.863e+04 3.322e-09
 74.40893    173.4 1.957e+04 5.456e-09
 74.42472    173.2 2.024e+04 8.162e-09
 74.43467    174.3 2.038e+04 6.449e-09
 74.44870    174.1 2.087e+04 1.021e-08
 74.46859    174.2 2.102e+04 1.456e-08
 74.48847    174.7 2.098e+04 1.780e-08
 74.50334    175.6 2.111e+04 1.977e-08
 74.51323    176.0 2.131e+04 2.197e-08
 74.52318    176.2 2.150e+04 2.447e-08
 74.53153    176.4 2.162e+04 2.695e-08
 74.53650    175.3 2.194e+04 2.274e-08
 74.53992    175.0 2.215e+04 1.943e-08
 74.54489    175.8 2.225e+04 2.621e-08
 74.55300    175.2 2.249e+04 2.112e-08
 74.56295    174.0 2.234e+04 1.523e-08
 74.57289    172.6 2.175e+04 1.085e-08
 74.58283    172.3 2.097e+04 9.024e-09
 74.59259    172.1 2.055e+04 8.392e-09
 74.59756    172.9 2.087e+04 1.015e-08
 74.60774    173.7 2.012e+04 8.699e-09
 74.62768    173.5 1.915e+04 5.792e-09
 74.64536    172.5 1.704e+04 3.195e-09
 74.65530    174.9 1.894e+04 5.720e-09
 74.66745    174.1 1.668e+04 3.390e-09
 74.67839    173.5 1.423e+04 2.063e-09
 74.68833    170.1 1.264e+04 1.129e-09
 74.70722    170.5 1.219e+04 9.198e-10
 74.72711    171.3 1.221e+04 8.587e-10
 74.74699    172.4 1.221e+04 8.510e-10
 74.76065    173.5 1.218e+04 8.538e-10
 74.77059    175.3 1.283e+04 1.067e-09
 74.78677    176.2 1.249e+04 1.030e-09
 74.80665    177.2 1.252e+04 1.067e-09
 74.82654    178.4 1.273e+04 1.166e-09
 74.84643    179.7 1.301e+04 1.327e-09
 74.86600    181.2 1.329e+04 1.505e-09
 74.87594    182.6 1.337e+04 1.716e-09
 74.88620    184.3 1.362e+04 1.905e-09
 74.90608    186.1 1.380e+04 2.044e-09
 74.92597    187.9 1.389e+04 2.081e-09
 74.94586    189.7 1.401e+04 2.056e-09
 74.96198    191.1 1.448e+04 2.040e-09
 74.97192    186.9 1.480e+04 1.932e-09
 74.98129    185.7 1.717e+04 1.980e-09
 74.99123    187.4 1.841e+04 2.199e-09
 75.00552    184.7 2.394e+04 2.705e-09
 75.02540    182.2 2.641e+04 4.778e-09
 75.04529    180.9 2.632e+04 8.469e-09
 75.06517    180.7 2.565e+04 1.256e-08
 75.08004    182.5 2.600e+04 1.376e-08
 75.08994    182.1 2.581e+04 1.760e-08
 75.09648    181.1 2.575e+04 2.307e-08
 75.10145    182.0 2.629e+04 2.635e-08
 75.10865    180.8 2.652e+04 3.443e-08
 75.11362    176.1 2.631e+04 4.038e-08
 75.11976    174.2 2.688e+04 4.477e-08
 75.12971    171.9 2.745e+04 4.814e-08
 75.13965    169.1 2.798e+04 4.441e-08
 75.14915    165.1 2.803e+04 3.426e-08
 75.15412    166.1 2.820e+04 3.702e-08
 75.15954    160.6 2.729e+04 2.317e-08
 75.16948    154.1 2.489e+04 1.330e-08
 75.17942    148.0 2.158e+04 8.412e-09
 75.18937    143.5 2.021e+04 7.103e-09
 75.19931    140.5 2.033e+04 7.530e-09
 75.20679    137.8 2.102e+04 8.564e-09
 75.21177    138.1 2.106e+04 8.426e-09
 75.21920    135.2 2.186e+04 9.739e-09
 75.22914    131.9 2.217e+04 1.006e-08
 75.23908    128.6 2.210e+04 9.840e-09
 75.24903    125.6 2.192e+04 9.077e-09
 75.25542    122.4 2.187e+04 8.012e-09
 75.26039    119.5 2.130e+04 6.609e-09
 75.26444    115.9 2.130e+04 5.896e-09
 75.26941    115.4 2.119e+04 5.614e-09
 75.27886    110.8 2.133e+04 5.066e-09
 75.28880    106.6 2.116e+04 4.591e-09
 75.30376    101.9 2.128e+04 4.158e-09
 75.31721     95.7 2.061e+04 3.412e-09
 75.32715     94.0 2.062e+04 3.430e-09
 75.34358     86.2 1.926e+04 2.465e-09
 75.36347     79.9 1.779e+04 1.752e-09
 75.38336     75.1 1.645e+04 1.296e-09
 75.40324     71.5 1.540e+04 9.748e-10
 75.42256     68.9 1.467e+04 7.651e-10
 75.43250     68.8 1.493e+04 8.032e-10
 75.44301     66.5 1.453e+04 6.407e-10
 75.46290     64.2 1.428e+04 5.303e-10
 75.48279     61.7 1.409e+04 4.540e-10
 75.50267     59.0 1.392e+04 4.050e-10
 75.52256     56.3 1.396e+04 3.974e-10
 75.53785     53.4 1.422e+04 4.119e-10
 75.54445     51.9 1.449e+04 4.336e-10
 75.54905     50.2 1.436e+04 4.477e-10
 75.56233     46.5 1.480e+04 5.341e-10
 75.58222     43.1 1.493e+04 6.489e-10
 75.60211     40.4 1.496e+04 7.660e-10
 75.62199     37.7 1.521e+04 8.839e-10
 75.64188     33.2 1.637e+04 1.115e-09
 75.65314     24.2 1.898e+04 2.006e-09
 75.66308     20.9 1.981e+04 2.397e-09
 75.68165     15.4 1.930e+04 3.325e-09
 75.70154     13.5 1.839e+04 3.445e-09
 75.72142     12.3 1.792e+04 3.106e-09
 75.74131      9.6 1.867e+04 2.943e-09
 75.75848      5.3 1.921e+04 2.107e-09
 75.76842      2.5 1.988e+04 2.468e-09
 75.78108     -6.5 1.789e+04 1.483e-09
 75.80097    -13.3 1.662e+04 1.337e-09
 75.82085    -17.4 1.765e+04 1.922e-09
 75.83264    -20.4 1.874e+04 2.999e-09
 75.84258    -17.4 1.829e+04 2.730e-09
 75.86063    -19.7 1.889e+04 3.898e-09
 75.87377    -21.0 1.941e+04 4.942e-09
 75.88371    -22.6 1.928e+04 4.752e-09
 75.90040    -23.7 1.953e+04 5.079e-09
 75.92029    -25.6 1.986e+04 4.821e-09
 75.94017    -29.5 2.033e+04 3.898e-09
 75.96006    -35.7 1.985e+04 3.358e-09
 75.97912    -41.5 1.903e+04 3.224e-09
 75.98906    -46.1 1.922e+04 3.963e-09
 75.99983    -46.6 1.880e+04 4.406e-09
 76.01972    -46.5 1.861e+04 4.822e-09
 76.03960    -46.9 1.893e+04 5.078e-09
 76.05949    -49.4 2.050e+04 5.660e-09
 76.07938    -53.6 2.258e+04 6.846e-09
 76.09424    -58.0 2.421e+04 8.607e-09
 76.09928    -60.0 2.539e+04 9.714e-09
 76.10425    -64.4 2.522e+04 1.175e-08
 76.11408    -67.4 2.527e+04 1.585e-08
 76.12110    -69.8 2.510e+04 2.216e-08
 76.12607    -67.9 2.487e+04 1.944e-08
 76.13397    -69.9 2.462e+04 2.732e-08
 76.14391    -70.9 2.416e+04 3.923e-08
 76.15195    -71.1 2.384e+04 5.714e-08
 76.15693    -71.6 2.385e+04 4.523e-08
 76.16380    -71.5 2.401e+04 5.178e-08
 76.17374    -71.1 2.430e+04 5.217e-08
 76.18368    -70.8 2.495e+04 4.385e-08
 76.19363    -70.6 2.620e+04 2.873e-08
 76.20357    -71.7 2.782e+04 1.551e-08
 76.20960    -73.1 2.893e+04 9.662e-09
 76.21959    -79.4 2.838e+04 2.976e-09
 76.23847    -86.1 2.208e+04 1.250e-09
 76.25835    -90.4 1.527e+04 8.456e-10
 76.27824    -91.5 1.382e+04 6.392e-10
 76.29813    -91.4 1.345e+04 5.398e-10
 76.31504    -90.6 1.332e+04 5.122e-10
 76.32499    -91.2 1.334e+04 5.190e-10
 76.33790    -90.8 1.330e+04 5.113e-10
 76.35779    -90.7 1.342e+04 5.194e-10
 76.37767    -92.6 1.462e+04 6.554e-10
 76.39756    -95.9 1.672e+04 1.261e-09
 76.40976    -97.9 1.831e+04 2.693e-09
 76.41970    -95.7 1.731e+04 1.756e-09
 76.43033    -96.7 1.873e+04 3.648e-09
 76.44028    -97.4 1.849e+04 3.354e-09
 76.45722    -97.4 1.970e+04 6.026e-09
 76.47710    -96.6 2.077e+04 8.902e-09
 76.49699    -96.1 2.172e+04 1.023e-08
 76.51688    -96.6 2.188e+04 1.042e-08
 76.53568    -98.1 2.186e+04 8.593e-09
 76.54562    -99.1 2.103e+04 7.031e-09
 76.55665   -101.1 2.028e+04 4.609e-09
 76.57653   -103.8 1.884e+04 2.686e-09
 76.59642   -106.6 1.698e+04 1.645e-09
 76.61631   -108.9 1.543e+04 1.188e-09
 76.63619   -110.2 1.458e+04 1.019e-09
 76.65097   -110.8 1.427e+04 9.625e-10
 76.66091   -110.7 1.464e+04 1.131e-09
 76.67597   -110.9 1.452e+04 1.086e-09
 76.69335   -111.0 1.440e+04 1.031e-09
 76.70329   -109.7 1.438e+04 1.065e-09
 76.71574   -110.0 1.429e+04 1.027e-09
 76.73563   -110.5 1.424e+04 9.947e-10
 76.75551   -111.1 1.420e+04 9.637e-10
 76.76626   -111.9 1.415e+04 9.277e-10
 76.77620   -112.2 1.431e+04 9.505e-10
 76.79528   -113.1 1.420e+04 9.185e-10
 76.81517   -114.2 1.412e+04 9.025e-10
 76.83506   -115.2 1.405e+04 8.941e-10
 76.85494   -116.2 1.397e+04 8.956e-10
 76.87160   -117.0 1.389e+04 8.961e-10
 76.88155   -117.2 1.375e+04 8.523e-10
 76.89472   -117.8 1.357e+04 8.153e-10
 76.91460   -118.3 1.335e+04 7.561e-10
 76.93449   -118.7 1.306e+04 6.693e-10
 76.95437   -119.2 1.274e+04 5.679e-10
 76.97426   -119.8 1.240e+04 4.765e-10
 76.98688   -120.4 1.213e+04 4.146e-10
 76.99683   -120.3 1.204e+04 3.973e-10
 77.01403   -121.0 1.191e+04 3.736e-10
 77.03392   -121.6 1.189e+04 3.691e-10
 77.05381   -122.3 1.205e+04 3.945e-10
 77.07369   -122.9 1.236e+04 4.557e-10
 77.09224   -123.3 1.273e+04 5.518e-10
 77.10218   -124.0 1.334e+04 7.577e-10
 77.11347   -124.1 1.371e+04 9.210e-10
 77.13335   -124.1 1.401e+04 1.074e-09
 77.15324   -124.1 1.422e+04 1.199e-09
 77.17312   -124.2 1.433e+04 1.292e-09
 77.19301   -124.3 1.434e+04 1.361e-09
 77.20753   -124.5 1.435e+04 1.451e-09
 77.21747   -124.5 1.441e+04 1.518e-09
 77.23278   -124.9 1.449e+04 1.631e-09
 77.25267   -126.8 1.580e+04 2.218e-09
 77.27047   -129.7 1.831e+04 3.630e-09
 77.28042   -127.8 1.708e+04 2.844e-09
 77.29244   -131.2 1.996e+04 4.960e-09
 77.30731   -133.5 2.191e+04 7.154e-09
 77.31720   -136.6 2.337e+04 1.217e-08
 77.32272   -138.8 2.390e+04 2.292e-08
 77.32769   -138.5 2.399e+04 2.265e-08
 77.33709   -139.7 2.410e+04 3.730e-08
 77.34703   -140.3 2.407e+04 5.163e-08
 77.35697   -141.1 2.392e+04 5.855e-08
 77.36692   -141.9 2.386e+04 5.935e-08
 77.37539   -142.7 2.380e+04 5.006e-08
 77.38036   -143.3 2.393e+04 5.123e-08
 77.38680   -145.0 2.447e+04 3.485e-08
 77.39675   -148.5 2.502e+04 2.105e-08
 77.40669   -154.0 2.433e+04 1.283e-08
 77.41663   -159.8 2.202e+04 9.335e-09
 77.42211   -163.6 2.055e+04 8.562e-09
 77.42709   -161.8 2.120e+04 8.730e-09
 77.43304   -164.1 2.068e+04 8.513e-09
 77.43801   -164.8 2.160e+04 9.167e-09
 77.45148   -168.3 2.195e+04 1.007e-08
 77.46640   -170.5 2.164e+04 1.126e-08
 77.47629   -171.6 2.194e+04 1.261e-08
 77.48571   -174.0 2.205e+04 1.527e-08
 77.49068   -174.4 2.157e+04 1.281e-08
 77.49618   -175.7 2.153e+04 1.379e-08
 77.50612   -176.7 2.133e+04 1.456e-08
 77.51607   -177.1 2.125e+04 1.493e-08
 77.52601   -177.4 2.102e+04 1.508e-08
 77.53595   -177.5 2.060e+04 1.493e-08
 77.54336   -177.6 2.030e+04 1.451e-08
 77.54833   -178.1 1.965e+04 1.176e-08
 77.55584   -177.9 1.955e+04 1.161e-08
 77.56391   -177.6 1.933e+04 1.128e-08
 77.57390   -176.8 1.871e+04 9.620e-09
 77.58572   -176.3 1.878e+04 9.984e-09
 77.59561   -176.0 1.872e+04 9.649e-09
 77.60100   -175.8 1.865e+04 9.257e-09
 77.60597   -175.5 1.839e+04 8.582e-09
 77.61550   -175.3 1.838e+04 8.212e-09
 77.62544   -174.8 1.829e+04 7.665e-09
 77.63538   -174.2 1.829e+04 7.241e-09
 77.64533   -173.7 1.835e+04 6.903e-09
 77.65367   -173.2 1.848e+04 6.587e-09
 77.65869   -173.2 1.775e+04 5.764e-09
 77.67028   -172.1 1.752e+04 5.257e-09
 77.69017   -170.8 1.720e+04 4.833e-09
 77.71005   -169.7 1.702e+04 4.628e-09
 77.72994   -168.8 1.718e+04 4.705e-09
 77.74983   -168.1 1.752e+04 5.068e-09
 77.76409   -167.3 1.777e+04 5.601e-09
 77.77403   -166.3 1.582e+04 3.242e-09
 77.78960   -165.7 1.604e+04 3.497e-09
 77.80949   -165.1 1.629e+04 3.902e-09
 77.82937   -164.6 1.668e+04 4.510e-09
 77.84760   -164.6 1.726e+04 5.333e-09
 77.85754   -164.4 1.747e+04 5.203e-09
 77.86914   -165.9 1.866e+04 6.333e-09
 77.87938   -167.7 2.018e+04 8.003e-09
 77.88932   -167.0 2.050e+04 6.759e-09
 77.90892   -168.9 2.153e+04 1.131e-08
 77.92378   -169.8 2.120e+04 1.185e-08
 77.93195   -170.6 2.119e+04 1.332e-08
 77.93693   -170.0 2.140e+04 1.457e-08
 77.94362   -170.7 2.147e+04 1.660e-08
 77.95356   -171.5 2.143e+04 1.761e-08
 77.96351   -172.1 2.140e+04 1.830e-08
 77.97345   -173.0 2.140e+04 1.849e-08
 77.98468   -174.7 2.136e+04 1.782e-08
 77.99462   -173.3 2.175e+04 2.093e-08
 77.99924   -173.9 2.200e+04 2.169e-08
 78.00421   -175.1 2.188e+04 2.177e-08
 78.01322   -175.8 2.185e+04 2.219e-08
 78.02317   -176.4 2.171e+04 2.239e-08
 78.03311   -176.6 2.153e+04 2.229e-08
 78.04227   -176.7 2.136e+04 2.197e-08
 78.04724   -176.4 2.164e+04 2.421e-08
 78.05300   -176.7 2.133e+04 2.236e-08
 78.06294   -177.1 2.098e+04 2.052e-08
 78.07288   -177.4 2.061e+04 1.890e-08
 78.08283   -177.6 2.026e+04 1.752e-08
 78.09277   -177.5 1.991e+04 1.622e-08
 78.09992   -177.4 1.957e+04 1.488e-08
 78.10489   -177.0 1.932e+04 1.350e-08
 78.11265   -176.9 1.893e+04 1.221e-08
 78.12260   -176.7 1.847e+04 1.082e-08
 78.13254   -176.2 1.801e+04 9.547e-09
 78.14103   -175.7 1.762e+04 8.500e-09
 78.14600   -175.8 1.719e+04 7.252e-09
 78.15243   -175.4 1.700e+04 6.674e-09
 78.15756   -175.3 1.692e+04 6.277e-09
 78.16253   -175.3 1.649e+04 5.400e-09
 78.17231   -175.3 1.644e+04 5.205e-09
 78.18226   -175.5 1.638e+04 5.091e-09
 78.19220   -175.7 1.637e+04 5.086e-09
 78.20214   -175.8 1.637e+04 5.201e-09
 78.21023   -175.8 1.652e+04 5.493e-09
 78.21526   -176.1 1.604e+04 4.677e-09
 78.22710   -176.1 1.650e+04 5.473e-09
 78.24698   -175.8 1.706e+04 6.644e-09
 78.26687   -175.6 1.747e+04 7.780e-09
 78.28676   -175.4 1.763e+04 8.257e-09
 78.30664   -175.4 1.766e+04 8.233e-09
 78.32065   -175.3 1.713e+04 7.554e-09
 78.33059   -175.6 1.645e+04 6.418e-09
 78.34642   -175.0 1.565e+04 5.107e-09
 78.36630   -174.5 1.479e+04 3.854e-09
 78.38619   -174.3 1.394e+04 2.869e-09
 78.40608   -174.3 1.312e+04 2.156e-09
 78.42472   -174.3 1.239e+04 1.663e-09
 78.43466   -174.9 1.209e+04 1.499e-09
 78.44585   -174.3 1.164e+04 1.198e-09
 78.46573   -173.9 1.128e+04 1.009e-09
 78.48562   -173.5 1.092e+04 8.456e-10
 78.50551   -172.8 1.052e+04 6.968e-10
 78.52539   -171.9 1.013e+04 5.657e-10
 78.54129   -170.7 9.809e+03 4.639e-10
 78.55123   -169.9 9.704e+03 4.263e-10
 78.56517   -168.9 9.606e+03 3.894e-10
 78.59509   -168.4 9.553e+03 3.694e-10
 78.63496   -167.1 9.384e+03 3.264e-10
 78.65677   -165.3 9.160e+03 2.850e-10
 78.67666   -164.2 8.945e+03 2.492e-10
 78.70850   -162.2 8.801e+03 2.302e-10
 78.72839   -162.2 8.484e+03 1.852e-10
 78.75428   -160.1 8.406e+03 1.756e-10
 78.79405   -157.9 8.391e+03 1.744e-10
 78.83383   -155.9 8.442e+03 1.830e-10
 78.86746   -153.9 8.535e+03 1.993e-10
 78.88735   -152.9 8.407e+03 1.863e-10
 78.91337   -151.1 8.512e+03 2.050e-10
 78.95314   -149.3 8.564e+03 2.151e-10
 78.99292   -147.6 8.574e+03 2.172e-10
 79.03269   -146.0 8.522e+03 2.107e-10
 79.07246   -144.2 8.427e+03 1.959e-10
 79.09804   -142.5 8.344e+03 1.824e-10
 79.11793   -141.8 8.297e+03 1.801e-10
 79.15201   -140.1 8.283e+03 1.771e-10
 79.19178   -138.3 8.353e+03 1.850e-10
 79.23155   -136.5 8.492e+03 2.090e-10
 79.27133   -134.7 8.640e+03 2.445e-10
 79.29557   -132.8 8.743e+03 2.776e-10
 79.31309   -132.0 8.634e+03 2.466e-10
 79.32862   -131.9 8.848e+03 2.899e-10
 79.35087   -130.1 8.929e+03 3.160e-10
 79.39064   -128.2 8.940e+03 3.219e-10
 79.43042   -126.2 8.818e+03 2.986e-10
 79.47019   -124.2 8.580e+03 2.499e-10
 79.50996   -122.2 8.307e+03 1.995e-10
 79.53931   -120.2 8.017e+03 1.574e-10
 79.55920   -120.4 8.062e+03 1.626e-10
 79.58951   -118.6 7.859e+03 1.391e-10
 79.62928   -116.8 7.766e+03 1.306e-10
 79.66905   -115.2 7.875e+03 1.416e-10
 79.70882   -113.8 8.259e+03 1.843e-10
 79.74860   -112.4 8.728e+03 2.469e-10
 79.76989   -111.2 9.220e+03 3.267e-10
 79.78978   -111.4 9.338e+03 3.504e-10
 79.81810   -110.0 9.577e+03 4.001e-10
 79.83789   -110.0 9.611e+03 4.119e-10
 79.85778   -109.9 9.815e+03 4.618e-10
 79.87250   -110.3 9.964e+03 4.962e-10
 79.87982   -109.5 9.928e+03 4.905e-10
 79.88499   -109.5 9.852e+03 4.687e-10
 79.89755   -109.9 9.951e+03 4.886e-10
 79.91744   -110.4 1.014e+04 5.241e-10
 79.93732   -110.9 1.046e+04 6.114e-10
 79.95721   -111.1 1.079e+04 7.490e-10
 79.97709   -111.1 1.110e+04 9.074e-10
 79.99033   -110.9 1.133e+04 1.043e-09
 80.00028   -110.5 1.109e+04 9.253e-10
 80.01687   -110.1 1.118e+04 9.756e-10
 80.03675   -109.7 1.115e+04 9.321e-10
 80.05664   -109.4 1.100e+04 8.345e-10
 80.07653   -109.1 1.085e+04 7.118e-10
 80.09568   -109.0 1.076e+04 6.055e-10
 80.10562   -108.7 1.075e+04 5.573e-10
 80.11630   -108.4 1.077e+04 5.269e-10
 80.14623   -107.4 1.095e+04 5.529e-10
 80.18610   -105.8 1.047e+04 4.587e-10
 80.21116   -104.1 1.011e+04 3.967e-10
 80.23105   -103.6 1.002e+04 3.810e-10
 80.26564   -102.0 9.845e+03 3.445e-10
 80.30541   -100.2 1.022e+04 3.377e-10
 80.32636    -97.9 1.042e+04 3.957e-10
 80.33620    -97.9 1.044e+04 3.939e-10
 80.35493    -98.1 1.078e+04 4.551e-10
 80.37482    -99.2 1.139e+04 6.177e-10
 80.39471   -100.4 1.230e+04 1.019e-09
 80.41459   -100.9 1.319e+04 1.759e-09
 80.43160   -100.6 1.399e+04 2.788e-09
 80.44155   -100.9 1.368e+04 2.529e-09
 80.44962   -100.2 1.426e+04 3.187e-09
 80.45956    -99.0 1.433e+04 3.242e-09
 80.47425    -98.4 1.489e+04 3.877e-09
 80.49414    -98.1 1.509e+04 4.100e-09
 80.51402    -98.0 1.501e+04 3.537e-09
 80.53391    -98.3 1.452e+04 2.316e-09
 80.54689    -99.2 1.349e+04 1.297e-09
 80.55684   -100.5 1.282e+04 1.037e-09
 80.57368   -100.1 1.213e+04 7.527e-10
 80.59357   -100.9 1.114e+04 5.252e-10
 80.62350   -100.6 1.094e+04 5.148e-10
 80.65244   -100.9 9.751e+03 3.433e-10
 80.67232   -102.1 9.920e+03 3.637e-10
 80.70314   -101.3 9.476e+03 3.037e-10
 80.74291   -100.3 9.245e+03 2.670e-10
 80.78269    -98.9 9.387e+03 2.567e-10
 80.82246    -97.4 9.577e+03 2.883e-10
 80.86223    -95.8 9.790e+03 3.354e-10
 80.88301    -94.3 1.011e+04 4.176e-10
 80.90290    -95.3 1.042e+04 5.063e-10
 80.94178    -94.1 1.091e+04 6.669e-10
 80.98155    -93.3 1.143e+04 8.613e-10
 81.01700    -93.0 1.187e+04 1.004e-09
 81.03688    -92.5 1.231e+04 1.226e-09
 81.05105    -93.6 1.248e+04 1.298e-09
 81.07084    -94.1 1.260e+04 1.356e-09
 81.09073    -94.7 1.271e+04 1.395e-09
 81.10345    -95.3 1.282e+04 1.436e-09
 81.11340    -96.6 1.298e+04 1.497e-09
 81.13050    -97.2 1.314e+04 1.583e-09
 81.15039    -97.6 1.325e+04 1.660e-09
 81.17027    -97.9 1.328e+04 1.692e-09
 81.19016    -97.9 1.318e+04 1.666e-09
 81.20880    -97.9 1.297e+04 1.578e-09
 81.21874    -99.2 1.313e+04 1.741e-09
 81.22993    -99.0 1.290e+04 1.578e-09
 81.25986    -99.3 1.259e+04 1.386e-09
 81.29973    -98.6 1.203e+04 1.152e-09
 81.32038    -97.4 1.164e+04 1.065e-09
 81.32495    -98.1 1.136e+04 9.370e-10
 81.33403    -99.1 1.107e+04 8.803e-10
 81.34925    -98.3 1.068e+04 6.877e-10
 81.36914    -97.5 1.027e+04 5.230e-10
 81.38902    -96.7 9.988e+03 4.128e-10
 81.40891    -96.0 9.757e+03 3.490e-10
 81.42879    -95.5 9.685e+03 3.321e-10
 81.45872    -93.5 9.602e+03 3.088e-10
 81.49859    -91.2 9.426e+03 2.806e-10
 81.53498    -88.9 9.275e+03 2.607e-10
 81.55486    -90.5 9.186e+03 2.551e-10
 81.57814    -88.3 9.097e+03 2.423e-10
 81.60406    -86.0 9.058e+03 2.372e-10
 81.62395    -87.1 8.788e+03 2.073e-10
 81.65768    -84.7 8.788e+03 2.059e-10
 81.69746    -82.3 8.823e+03 2.079e-10
 81.73723    -79.8 8.874e+03 2.139e-10
 81.76556    -77.4 8.896e+03 2.178e-10
 81.78544    -78.5 8.942e+03 2.331e-10
 81.81677    -76.0 8.921e+03 2.309e-10
 81.85655    -73.5 8.850e+03 2.163e-10
 81.89632    -71.0 8.772e+03 2.003e-10
 81.93609    -68.6 8.699e+03 1.879e-10
 81.97586    -66.3 8.651e+03 1.785e-10
 81.99614    -64.0 8.640e+03 1.744e-10
 82.01602    -64.8 8.455e+03 1.496e-10
 82.05541    -62.7 8.438e+03 1.460e-10
 82.09518    -60.7 8.440e+03 1.456e-10
 82.13495    -58.9 8.517e+03 1.532e-10
 82.17124    -57.2 8.633e+03 1.723e-10
 82.19113    -57.2 8.398e+03 1.427e-10
 82.20683    -55.6 8.540e+03 1.693e-10
 82.22671    -56.3 8.544e+03 1.709e-10
 82.25427    -54.7 8.648e+03 1.908e-10
 82.29404    -53.3 8.693e+03 1.980e-10
 82.33382    -51.9 8.719e+03 2.002e-10
 82.37359    -50.6 8.735e+03 1.992e-10
 82.41336    -49.4 8.825e+03 2.055e-10
 82.43741    -48.3 9.003e+03 2.281e-10
 82.45729    -49.1 8.921e+03 2.141e-10
 82.49291    -48.1 9.068e+03 2.330e-10
 82.53268    -47.2 9.220e+03 2.564e-10
 82.57245    -46.3 9.339e+03 2.752e-10
 82.61223    -45.5 9.374e+03 2.802e-10
 82.64810    -44.5 9.348e+03 2.726e-10
 82.66799    -44.4 8.897e+03 1.933e-10
 82.69177    -43.2 8.804e+03 1.737e-10
 82.73154    -41.9 8.665e+03 1.490e-10
 82.75831    -40.7 8.540e+03 1.296e-10
 82.77820    -40.3 8.410e+03 1.212e-10
 82.81109    -38.9 8.360e+03 1.073e-10
 82.85086    -37.5 8.322e+03 9.972e-11
 82.87868    -36.1 8.339e+03 9.956e-11
 82.89856    -35.3 8.325e+03 1.000e-10
 82.93041    -33.7 8.354e+03 9.849e-11
 82.97018    -32.2 8.429e+03 9.728e-11
 83.00995    -30.7 8.501e+03 9.523e-11
 83.04972    -29.4 8.579e+03 9.488e-11
 83.08937    -28.2 8.715e+03 9.962e-11
 83.12914    -25.8 8.618e+03 9.058e-11
 83.16904    -24.2 8.773e+03 1.158e-10
 83.20882    -22.1 8.967e+03 1.484e-10
 83.24859    -19.8 9.187e+03 1.726e-10
 83.28836    -17.6 9.358e+03 1.804e-10
 83.31995    -15.3 9.356e+03 1.688e-10
 83.33719    -14.0 9.273e+03 1.639e-10
 83.34537    -12.8 8.871e+03 1.274e-10
 83.36791    -11.0 9.017e+03 1.274e-10
 83.40768     -9.2 9.111e+03 1.395e-10
 83.44745     -6.6 9.160e+03 1.554e-10
 83.47718     -4.0 9.290e+03 1.774e-10
 83.49697     -3.6 9.331e+03 1.790e-10
 83.51686     -2.3 9.630e+03 2.126e-10
 83.53674     -2.2 1.142e+04 2.601e-10
 83.55033     -3.3 1.296e+04 4.882e-10
 83.56028     -0.8 1.002e+04 3.203e-10
 83.57652     -2.1 1.053e+04 6.222e-10
 83.59640     -3.7 1.222e+04 1.902e-09
 83.61629     -4.8 1.688e+04 4.505e-09
 83.62877     -5.3 2.138e+04 9.033e-09
 83.63871     -3.3 1.725e+04 4.586e-09
 83.65568     -4.2 2.154e+04 8.576e-09
 83.66562     -0.9 1.630e+04 4.751e-09
 83.67595     -2.1 2.032e+04 7.711e-09
 83.69583     -4.0 2.395e+04 1.087e-08
 83.71572     -6.4 2.631e+04 1.263e-08
 83.73561     -9.3 2.435e+04 1.453e-08
 83.75549    -11.2 2.211e+04 1.331e-08
 83.77036    -11.6 2.073e+04 1.127e-08
 83.77544    -11.5 2.054e+04 1.158e-08
 83.77600    -10.9 2.094e+04 1.022e-08
 83.78086     -9.3 2.159e+04 9.487e-09
 83.79025     -9.8 1.982e+04 7.840e-09
 83.80014     -9.8 1.978e+04 8.000e-09
 83.81008    -10.6 1.847e+04 7.981e-09
 83.82003    -10.1 1.844e+04 8.047e-09
 83.82852     -9.9 1.824e+04 8.064e-09
 83.83349     -9.3 1.770e+04 6.908e-09
 83.83991     -9.3 1.801e+04 7.186e-09
 83.84986     -8.9 1.831e+04 7.580e-09
 83.85980     -8.7 1.850e+04 7.662e-09
 83.86974     -8.8 1.841e+04 7.548e-09
 83.87969     -8.7 1.870e+04 7.597e-09
 83.88616     -9.2 1.813e+04 7.583e-09
 83.89113     -8.4 1.829e+04 7.176e-09
 83.89957     -8.6 1.852e+04 7.226e-09
 83.90951     -9.3 1.811e+04 7.299e-09
 83.91723     -9.4 1.763e+04 8.242e-09
 83.92220     -8.7 1.781e+04 6.914e-09
 83.92940     -9.2 1.763e+04 7.246e-09
 83.93883     -9.3 1.744e+04 7.763e-09
 83.94381     -9.1 1.766e+04 7.398e-09
 83.94929     -9.4 1.752e+04 7.683e-09
 83.95923     -9.5 1.728e+04 8.172e-09
 83.96917     -9.6 1.688e+04 8.569e-09
 83.97912     -9.4 1.671e+04 8.718e-09
 83.98906     -9.1 1.670e+04 8.911e-09
 83.99648     -8.8 1.635e+04 9.414e-09
 84.00145     -8.9 1.713e+04 9.250e-09
 84.00895     -8.5 1.718e+04 9.410e-09
 84.01889     -8.3 1.718e+04 8.919e-09
 84.03385     -8.4 1.672e+04 7.561e-09
 84.05379     -7.6 1.652e+04 7.033e-09
 84.07367     -6.9 1.637e+04 5.431e-09
 84.09356     -6.8 1.557e+04 3.984e-09
 84.10689     -6.9 1.488e+04 3.017e-09
 84.11684     -7.1 1.492e+04 2.998e-09
 84.13333     -7.3 1.416e+04 2.327e-09
 84.15322     -7.1 1.365e+04 1.988e-09
 84.17311     -6.8 1.353e+04 1.902e-09
 84.19299     -6.8 1.371e+04 1.999e-09
 84.20589     -7.1 1.399e+04 2.227e-09
 84.21520     -6.3 1.340e+04 1.731e-09
 84.22218     -7.3 1.300e+04 1.294e-09
 84.23276     -7.9 1.325e+04 1.447e-09
 84.25265     -8.4 1.353e+04 1.720e-09
 84.27254     -8.8 1.380e+04 2.028e-09
 84.29242     -8.9 1.399e+04 2.292e-09
 84.31231     -9.0 1.405e+04 2.405e-09
 84.32753     -9.0 1.399e+04 2.338e-09
 84.33747    -11.1 1.308e+04 1.539e-09
 84.35208    -11.6 1.275e+04 1.305e-09
 84.37197    -13.0 1.237e+04 1.083e-09
 84.39186    -15.2 1.218e+04 9.826e-10
 84.41174    -18.1 1.224e+04 9.917e-10
 84.43163    -21.4 1.234e+04 1.111e-09
 84.44282    -24.3 1.236e+04 1.253e-09
 84.45276    -27.4 1.235e+04 1.279e-09
 84.47140    -29.8 1.231e+04 1.331e-09
 84.48948    -31.9 1.201e+04 1.299e-09
 84.49943    -30.5 1.253e+04 1.467e-09
 84.51117    -33.1 1.202e+04 1.295e-09
 84.53106    -36.3 1.175e+04 1.131e-09
 84.54817    -41.2 1.292e+04 1.183e-09
 84.55811    -48.2 1.601e+04 2.036e-09
 84.57083    -55.2 1.735e+04 3.414e-09
 84.59072    -58.9 1.782e+04 5.670e-09
 84.61060    -61.7 1.858e+04 9.635e-09
 84.63049    -64.8 1.997e+04 1.308e-08
 84.65038    -68.9 2.081e+04 1.377e-08
 84.66346    -75.0 2.137e+04 9.939e-09
 84.67340    -79.0 2.071e+04 6.074e-09
 84.69015    -87.6 1.741e+04 3.056e-09
 84.71004    -93.9 1.362e+04 2.067e-09
 84.72992    -96.3 1.256e+04 1.736e-09
 84.74981    -97.0 1.247e+04 1.510e-09
 84.76880    -97.7 1.226e+04 1.246e-09
 84.77874    -98.7 1.226e+04 1.260e-09
 84.78302    -99.8 1.196e+04 1.065e-09
 84.79296    -98.2 1.218e+04 1.258e-09
 84.80947    -99.0 1.197e+04 1.112e-09
 84.82935    -99.8 1.179e+04 1.001e-09
 84.84924   -100.3 1.159e+04 9.210e-10
 84.86913   -100.7 1.138e+04 8.632e-10
 84.88409   -100.8 1.116e+04 8.259e-10
 84.89403   -101.1 1.151e+04 9.862e-10
 84.90890   -100.9 1.126e+04 8.933e-10
 84.92879   -100.6 1.110e+04 8.317e-10
 84.94867   -100.3 1.099e+04 7.737e-10
 84.96856    -99.9 1.088e+04 7.180e-10
 84.98844    -99.4 1.077e+04 6.632e-10
 84.99938    -98.8 1.067e+04 6.136e-10
 85.00932    -99.1 1.046e+04 5.416e-10
 85.02822    -98.3 1.038e+04 5.084e-10
 85.04810    -97.4 1.037e+04 4.956e-10
 85.06661    -96.5 1.042e+04 5.019e-10
 85.07655    -95.5 1.013e+04 4.153e-10
 85.08788    -94.3 1.015e+04 4.112e-10
 85.10473    -93.1 1.023e+04 4.225e-10
 85.11467    -93.0 1.016e+04 4.148e-10
 85.12765    -91.8 1.030e+04 4.357e-10
 85.14754    -90.7 1.046e+04 4.661e-10
 85.16742    -89.5 1.067e+04 5.083e-10
 85.18731    -88.3 1.089e+04 5.642e-10
 85.20719    -87.1 1.108e+04 6.290e-10
 85.22002    -85.7 1.120e+04 6.924e-10
 85.22996    -85.3 1.121e+04 6.969e-10
 85.24697    -83.7 1.124e+04 7.512e-10
 85.26685    -82.0 1.126e+04 7.970e-10
 85.28674    -80.6 1.146e+04 8.466e-10
 85.30663    -79.6 1.201e+04 9.214e-10
 85.32536    -79.0 1.290e+04 1.061e-09
 85.33531    -79.0 1.310e+04 1.168e-09
 85.34640    -79.0 1.390e+04 1.460e-09
 85.36014    -79.3 1.465e+04 1.956e-09
 85.37008    -74.6 1.328e+04 1.193e-09
 85.38617    -74.6 1.408e+04 1.547e-09
 85.40606    -75.3 1.523e+04 2.181e-09
 85.42594    -76.8 1.707e+04 3.371e-09
 85.44065    -79.0 1.909e+04 5.565e-09
 85.45059    -80.3 1.996e+04 6.644e-09
 85.46572    -83.2 2.113e+04 9.957e-09
 85.48560    -86.7 2.150e+04 1.190e-08
 85.50549    -92.0 2.209e+04 1.101e-08
 85.52538   -100.0 2.244e+04 8.247e-09
 85.54526   -111.2 2.094e+04 5.422e-09
 85.55594   -121.9 1.746e+04 4.575e-09
 85.56588   -120.0 1.578e+04 3.070e-09
 85.58503   -126.0 1.529e+04 3.238e-09
 85.60492   -129.6 1.602e+04 4.222e-09
 85.62481   -132.6 1.623e+04 4.609e-09
 85.64373   -135.6 1.613e+04 4.572e-09
 85.65367   -135.3 1.657e+04 5.111e-09
 85.66129   -138.3 1.595e+04 3.998e-09
 85.67123   -135.3 1.639e+04 4.980e-09
 85.68447   -137.9 1.569e+04 3.796e-09
 85.70435   -140.5 1.457e+04 2.300e-09
 85.72424   -143.1 1.312e+04 1.329e-09
 85.74412   -145.1 1.179e+04 8.590e-10
 85.76401   -146.3 1.108e+04 6.646e-10
 85.77658   -146.6 1.083e+04 5.938e-10
 85.78652   -144.8 1.123e+04 7.343e-10
 85.80378   -145.0 1.106e+04 6.903e-10
 85.82367   -145.0 1.101e+04 6.817e-10
 85.84356   -144.8 1.101e+04 6.834e-10
 85.86344   -144.6 1.102e+04 7.031e-10
 85.88192   -144.4 1.103e+04 7.207e-10
 85.89187   -143.1 1.137e+04 8.736e-10
 85.90322   -142.9 1.134e+04 8.744e-10
 85.92310   -142.6 1.119e+04 8.375e-10
 85.93726   -142.2 1.097e+04 7.649e-10
 85.94720   -143.0 1.098e+04 7.715e-10
 85.96287   -142.3 1.068e+04 6.745e-10
 85.98276   -141.5 1.036e+04 5.653e-10
 85.99721   -140.6 1.003e+04 4.599e-10
 86.00716   -139.9 1.018e+04 5.023e-10
 86.02253   -139.1 9.871e+03 4.048e-10
 86.04242   -138.3 9.703e+03 3.448e-10
 86.06231   -137.6 9.677e+03 3.240e-10
 86.08219   -137.3 9.675e+03 3.196e-10
 86.11212   -136.4 9.685e+03 3.236e-10
 86.15199   -135.5 9.755e+03 3.465e-10
 86.18172   -134.9 9.842e+03 3.909e-10
 86.20151   -134.2 9.865e+03 4.100e-10
 86.21785   -133.5 9.875e+03 4.220e-10
 86.22725   -133.8 1.002e+04 4.876e-10
 86.23079   -133.7 9.973e+03 4.608e-10
 86.24128   -133.1 9.944e+03 4.601e-10
 86.26117   -132.2 9.920e+03 4.522e-10
 86.28106   -131.8 9.898e+03 4.460e-10
 86.30094   -131.0 9.901e+03 4.428e-10
 86.32083   -130.7 9.906e+03 4.449e-10
 86.33314   -130.3 9.980e+03 4.642e-10
 86.34308   -130.4 1.016e+04 5.412e-10
 86.36060   -129.9 1.028e+04 5.751e-10
 86.38049   -129.5 1.041e+04 6.157e-10
 86.40037   -129.0 1.053e+04 6.569e-10
 86.42026   -128.6 1.064e+04 6.967e-10
 86.43848   -128.3 1.074e+04 7.358e-10
 86.44843   -128.2 1.086e+04 7.768e-10
 86.46003   -128.0 1.094e+04 8.013e-10
 86.47992   -127.7 1.103e+04 8.310e-10
 86.49980   -127.5 1.115e+04 8.777e-10
 86.51438   -127.3 1.129e+04 9.427e-10
 86.52433   -127.4 1.135e+04 9.698e-10
 86.53958   -127.2 1.155e+04 1.072e-09
 86.55377   -126.9 1.173e+04 1.179e-09
 86.56372   -126.8 1.183e+04 1.234e-09
 86.57935   -126.4 1.192e+04 1.284e-09
 86.59924   -126.1 1.194e+04 1.295e-09
 86.61912   -125.8 1.192e+04 1.243e-09
 86.63901   -125.5 1.182e+04 1.126e-09
 86.65890   -125.4 1.169e+04 9.952e-10
 86.66906   -125.4 1.159e+04 8.929e-10
 86.67901   -125.1 1.135e+04 7.376e-10
 86.69867   -125.3 1.129e+04 6.919e-10
 86.71855   -125.6 1.129e+04 6.836e-10
 86.73844   -126.0 1.135e+04 6.879e-10
 86.75833   -126.5 1.157e+04 7.587e-10
 86.77441   -126.9 1.178e+04 8.756e-10
 86.78435   -126.5 1.162e+04 7.893e-10
 86.79797   -126.8 1.181e+04 9.185e-10
 86.80792   -126.9 1.214e+04 1.163e-09
 86.81799   -127.1 1.222e+04 1.267e-09
 86.83787   -127.4 1.224e+04 1.300e-09
 86.85776   -127.8 1.221e+04 1.300e-09
 86.87764   -128.2 1.207e+04 1.255e-09
 86.88970   -128.6 1.192e+04 1.183e-09
 86.89964   -128.0 1.185e+04 1.155e-09
 86.91742   -128.3 1.174e+04 1.099e-09
 86.93730   -128.6 1.168e+04 1.059e-09
 86.95719   -128.8 1.166e+04 1.036e-09
 86.97708   -128.9 1.168e+04 1.030e-09
 86.99504   -128.9 1.173e+04 1.037e-09
 87.00499   -128.0 1.149e+04 9.516e-10
 87.01685   -127.9 1.147e+04 9.359e-10
 87.03673   -127.8 1.143e+04 9.191e-10
 87.05662   -127.7 1.137e+04 8.908e-10
 87.07651   -127.5 1.131e+04 8.487e-10
 87.09151   -127.4 1.134e+04 8.115e-10
 87.10145   -127.3 1.133e+04 8.201e-10
 87.11033   -127.2 1.140e+04 8.135e-10
 87.12028   -126.4 1.076e+04 5.488e-10
 87.14621   -126.8 1.095e+04 5.347e-10
 87.18608   -126.9 1.152e+04 5.945e-10
 87.22585   -128.2 1.259e+04 9.011e-10
 87.25558   -128.8 1.280e+04 1.111e-09
 87.27537   -129.0 1.316e+04 1.502e-09
 87.29526   -129.0 1.351e+04 1.931e-09
 87.31514   -129.2 1.398e+04 2.396e-09
 87.33097   -129.9 1.450e+04 2.815e-09
 87.34091   -129.7 1.433e+04 2.621e-09
 87.35492   -130.6 1.516e+04 3.456e-09
 87.37480   -131.7 1.597e+04 4.588e-09
 87.38504   -132.7 1.656e+04 5.843e-09
 87.39498   -133.6 1.643e+04 5.727e-09
 87.41457   -134.6 1.659e+04 6.272e-09
 87.43446   -135.7 1.659e+04 6.358e-09
 87.44626   -136.7 1.621e+04 5.871e-09
 87.45620   -136.5 1.621e+04 5.768e-09
 87.47423   -137.4 1.550e+04 4.325e-09
 87.49412   -138.5 1.461e+04 2.972e-09
 87.51401   -139.7 1.368e+04 2.041e-09
 87.53389   -140.7 1.284e+04 1.483e-09
 87.55161   -141.1 1.221e+04 1.162e-09
 87.56155   -141.1 1.190e+04 9.649e-10
 87.57367   -141.0 1.143e+04 7.800e-10
 87.59355   -140.7 1.104e+04 6.363e-10
 87.61344   -139.8 1.070e+04 5.127e-10
 87.63332   -138.8 1.047e+04 4.172e-10
 87.66325   -138.0 1.032e+04 3.498e-10
 87.70312   -136.5 1.012e+04 3.043e-10
 87.74289   -134.5 9.799e+03 2.514e-10
 87.77244   -132.3 9.520e+03 2.114e-10
 87.79232   -131.6 9.454e+03 1.969e-10
 87.82244   -129.4 9.321e+03 1.786e-10
 87.86221   -127.1 9.238e+03 1.682e-10
 87.90198   -124.8 9.194e+03 1.621e-10
 87.94176   -122.4 9.182e+03 1.603e-10
 87.96236   -120.1 9.187e+03 1.615e-10
 87.98225   -120.0 9.016e+03 1.356e-10
 88.00302   -117.8 9.018e+03 1.362e-10
 88.02290   -117.0 9.133e+03 1.541e-10
 88.06108   -114.8 9.203e+03 1.678e-10
 88.10085   -112.7 9.283e+03 1.857e-10
 88.14062   -110.7 9.365e+03 2.060e-10
 88.18039   -108.6 9.440e+03 2.262e-10
 88.21371   -106.6 9.510e+03 2.442e-10
 88.23359   -106.0 9.731e+03 2.965e-10
 88.25994   -104.1 9.754e+03 3.023e-10
 88.29971   -102.2 9.778e+03 3.000e-10
 88.33948   -100.3 9.819e+03 2.805e-10
 88.37926    -98.6 9.832e+03 2.622e-10
 88.41903    -97.1 9.861e+03 2.549e-10
 88.44429    -95.8 9.899e+03 2.547e-10
 88.46417    -95.0 9.903e+03 2.568e-10
 88.49857    -93.8 1.004e+04 2.619e-10
 88.52954    -92.8 1.017e+04 2.852e-10
 88.54943    -92.8 1.012e+04 2.884e-10
 88.57812    -91.6 1.018e+04 2.979e-10
 88.61789    -90.5 1.020e+04 3.058e-10
 88.65498    -89.3 1.018e+04 3.091e-10
 88.67487    -88.1 1.018e+04 3.222e-10
 88.69744    -86.6 1.013e+04 3.216e-10
 88.73721    -85.1 1.006e+04 3.187e-10
 88.77698    -83.3 9.978e+03 3.226e-10
 88.81676    -81.3 9.949e+03 3.290e-10
 88.85653    -79.3 9.888e+03 3.292e-10
 88.88556    -77.2 9.773e+03 3.119e-10
 88.90544    -76.9 1.000e+04 3.858e-10
 88.93607    -74.5 9.807e+03 3.393e-10
 88.97585    -72.1 9.646e+03 2.983e-10
 89.01562    -69.9 9.547e+03 2.665e-10
 89.05539    -67.8 9.476e+03 2.441e-10
 89.09516    -65.7 9.450e+03 2.351e-10
 89.11614    -63.6 9.444e+03 2.337e-10
 89.11769    -63.1 9.562e+03 2.621e-10
 89.13649    -63.0 9.765e+03 3.134e-10
 89.17471    -60.9 9.800e+03 3.229e-10
 89.21448    -58.9 9.804e+03 3.257e-10
 89.25425    -56.9 9.757e+03 3.143e-10
 89.29403    -54.8 9.657e+03 2.863e-10
 89.32683    -52.6 9.510e+03 2.482e-10
 89.34672    -52.4 9.503e+03 2.414e-10
 89.37357    -50.1 9.324e+03 1.941e-10
 89.41334    -47.8 9.162e+03 1.524e-10
 89.45312    -45.5 9.030e+03 1.217e-10
 89.49289    -43.1 8.935e+03 9.859e-11
 89.53266    -40.8 8.859e+03 8.306e-11
 89.55741    -38.3 8.798e+03 7.449e-11
 89.57729    -38.0 8.786e+03 8.158e-11
 89.61221    -35.5 8.767e+03 7.979e-11
 89.65198    -33.0 8.776e+03 7.970e-11
 89.68379    -30.8 8.910e+03 8.734e-11
 89.70367    -30.7 9.098e+03 8.938e-11
 89.73153    -28.4 9.181e+03 1.086e-10
 89.76810    -26.1 9.243e+03 1.330e-10
 89.78799    -25.8 9.252e+03 1.313e-10
 89.81107    -23.5 9.353e+03 1.514e-10
 89.85084    -21.2 9.459e+03 1.676e-10
 89.89062    -19.1 9.556e+03 1.746e-10
 89.93039    -17.2 9.611e+03 1.754e-10
 89.97016    -15.3 9.691e+03 1.727e-10
 89.99868    -13.5 9.760e+03 1.732e-10
 90.01857    -13.4 9.700e+03 1.698e-10
 90.04971    -11.7 9.802e+03 1.707e-10
 90.08948    -10.0 9.926e+03 1.855e-10
 90.12925     -8.2 1.003e+04 2.106e-10
 90.16902     -6.3 1.016e+04 2.359e-10
 90.20880     -4.8 1.035e+04 2.580e-10
 90.22926     -4.0 1.060e+04 3.014e-10
 90.24915     -4.9 1.043e+04 2.965e-10
 90.27085     -4.4 1.070e+04 4.117e-10
 90.29074     -3.8 1.085e+04 4.455e-10
 90.32811     -2.9 1.104e+04 5.468e-10
 90.36789     -1.8 1.120e+04 5.997e-10
 90.40766     -1.3 1.111e+04 5.075e-10
 90.43995     -2.4 1.084e+04 4.073e-10
 90.45984     -2.3 9.892e+03 1.990e-10
 90.48721     -4.1 1.004e+04 2.295e-10
 90.52698     -5.4 1.150e+04 6.519e-10
 90.56675     -6.0 1.277e+04 1.502e-09
 90.59648     -6.6 1.377e+04 2.390e-09
 90.61627     -7.8 1.407e+04 2.712e-09
 90.63616     -9.2 1.403e+04 2.700e-09
 90.65604    -10.4 1.346e+04 2.206e-09
 90.67034    -11.6 1.282e+04 1.625e-09
 90.68028    -10.8 1.318e+04 1.943e-09
 90.69582    -12.0 1.256e+04 1.239e-09
 90.71570    -13.7 1.194e+04 7.925e-10
 90.73559    -15.2 1.137e+04 5.538e-10
 90.75548    -16.0 1.092e+04 4.324e-10
 90.77536    -16.2 1.069e+04 3.632e-10
 90.80529    -16.2 1.060e+04 3.198e-10
 90.83803    -16.0 1.056e+04 3.004e-10
 90.85792    -15.9 1.062e+04 3.239e-10
 90.88122    -15.5 1.058e+04 3.287e-10
 90.90101    -15.4 1.064e+04 3.656e-10
 90.91457    -15.0 1.070e+04 4.146e-10
 90.93445    -14.7 1.075e+04 4.555e-10
 90.95434    -14.0 1.084e+04 5.238e-10
 90.97422    -13.2 1.089e+04 5.547e-10
 90.99411    -12.4 1.090e+04 5.675e-10
 91.00626    -11.6 1.081e+04 5.502e-10
 91.01620    -11.7 1.100e+04 6.282e-10
 91.03388    -10.9 1.088e+04 5.652e-10
 91.05377    -10.1 1.078e+04 5.050e-10
 91.08370     -9.4 1.059e+04 4.236e-10
 91.11180     -7.6 1.044e+04 3.872e-10
 91.13169     -8.0 1.050e+04 4.140e-10
 91.16334     -6.2 1.031e+04 3.640e-10
 91.20311     -4.1 1.016e+04 3.288e-10
 91.24289     -1.9 1.002e+04 2.938e-10
 91.28266      0.3 9.872e+03 2.613e-10
 91.32243      2.4 9.705e+03 2.344e-10
 91.36220      4.6 9.496e+03 2.126e-10
 91.40198      7.1 9.418e+03 2.037e-10
 91.42510      9.7 9.382e+03 2.014e-10
 91.44498      9.9 9.580e+03 2.369e-10
 91.48152     12.6 9.582e+03 2.516e-10
 91.52129     15.2 9.560e+03 2.574e-10
 91.55307     18.0 9.545e+03 2.557e-10
 91.57296     18.3 9.470e+03 2.328e-10
 91.60084     21.1 9.387e+03 2.156e-10
 91.64061     23.9 9.319e+03 2.003e-10
 91.68038     26.8 9.285e+03 1.829e-10
 91.72016     29.6 9.285e+03 1.713e-10
 91.75993     32.1 9.402e+03 1.737e-10
 91.78365     34.5 9.487e+03 2.016e-10
 91.80354     34.9 9.553e+03 2.140e-10
 91.83947     37.8 9.507e+03 2.381e-10
 91.87925     41.0 9.475e+03 2.217e-10
 91.91902     43.7 9.514e+03 1.876e-10
 91.95879     45.9 9.485e+03 1.654e-10
 91.99228     48.4 9.427e+03 1.638e-10
 92.00794     48.8 9.423e+03 1.580e-10
 92.01423     49.1 9.390e+03 1.561e-10
 92.03834     51.7 9.412e+03 1.603e-10
 92.07811     54.4 9.456e+03 1.688e-10
 92.11788     57.1 9.561e+03 1.820e-10
 92.15766     59.6 9.717e+03 2.091e-10
 92.19743     61.9 9.926e+03 2.666e-10
 92.22492     64.2 1.016e+04 3.605e-10
 92.24481     64.5 1.040e+04 4.452e-10
 92.27697     66.9 1.084e+04 6.464e-10
 92.31675     69.4 1.128e+04 8.452e-10
 92.35652     71.6 1.142e+04 8.856e-10
 92.39629     74.0 1.129e+04 8.056e-10
 92.43562     76.4 1.096e+04 6.019e-10
 92.45550     76.2 1.156e+04 8.463e-10
 92.47584     78.4 1.111e+04 5.419e-10
 92.51561     80.5 1.074e+04 3.420e-10
 92.55538     82.6 1.048e+04 2.359e-10
 92.57934     84.9 1.023e+04 1.938e-10
 92.59923     86.0 1.056e+04 3.106e-10
 92.63493     88.4 1.034e+04 2.652e-10
 92.66619     91.0 1.018e+04 2.559e-10
 92.68608     90.7 1.019e+04 2.535e-10
 92.71447     93.6 1.016e+04 2.514e-10
 92.75425     96.5 1.015e+04 2.507e-10
 92.79402     99.4 1.016e+04 2.490e-10
 92.83379    102.3 1.018e+04 2.420e-10
 92.87356    105.2 1.018e+04 2.275e-10
 92.89677    108.0 1.018e+04 2.135e-10
 92.91666    108.1 1.018e+04 2.128e-10
 92.95311    111.0 1.021e+04 2.171e-10
 92.99288    113.7 1.033e+04 2.423e-10
 93.03265    116.1 1.048e+04 2.817e-10
 93.07243    118.8 1.088e+04 3.624e-10
 93.10216    120.0 1.110e+04 4.373e-10
 93.11721    120.9 1.136e+04 5.304e-10
 93.12725    120.7 1.161e+04 5.830e-10
 93.14193    121.4 1.208e+04 7.842e-10
 93.15627    121.8 1.279e+04 1.139e-09
 93.16631    123.1 1.197e+04 7.275e-10
 93.18170    123.0 1.284e+04 1.181e-09
 93.20149    123.6 1.357e+04 1.838e-09
 93.22138    124.3 1.423e+04 2.648e-09
 93.23250    124.5 1.457e+04 2.990e-09
 93.24245    123.9 1.459e+04 2.974e-09
 93.26115    123.9 1.454e+04 2.917e-09
 93.28104    124.1 1.425e+04 2.593e-09
 93.30092    124.2 1.378e+04 2.065e-09
 93.32081    124.0 1.326e+04 1.562e-09
 93.33785    123.7 1.273e+04 1.188e-09
 93.35783    124.1 1.235e+04 9.939e-10
 93.39061    124.2 1.184e+04 7.591e-10
 93.43038    124.9 1.151e+04 6.542e-10
 93.47015    126.1 1.130e+04 6.005e-10
 93.50992    127.4 1.115e+04 5.640e-10
 93.54874    128.8 1.097e+04 5.249e-10
 93.56862    129.3 1.146e+04 7.887e-10
 93.58947    130.8 1.110e+04 6.486e-10
 93.62924    132.4 1.069e+04 5.038e-10
 93.66902    134.0 1.032e+04 4.047e-10
 93.70879    135.7 1.017e+04 3.662e-10
 93.73359    137.5 1.022e+04 3.611e-10
 93.75348    137.8 1.022e+04 3.667e-10
 93.77932    139.6 1.024e+04 3.704e-10
 93.79920    140.0 1.006e+04 3.600e-10
 93.82811    141.8 1.007e+04 3.672e-10
 93.86788    143.5 1.008e+04 3.719e-10
 93.90765    145.4 1.009e+04 3.747e-10
 93.94742    147.0 1.008e+04 3.803e-10
 93.98720    148.3 1.002e+04 3.867e-10
 94.00980    150.1 1.001e+04 4.053e-10
 94.01964    150.6 1.002e+04 4.218e-10
 94.02693    151.5 1.021e+04 4.615e-10
 94.03687    151.6 1.034e+04 4.807e-10
 94.05660    152.3 1.054e+04 5.251e-10
 94.07649    153.0 1.077e+04 5.782e-10
 94.09638    153.7 1.101e+04 6.397e-10
 94.11505    154.3 1.124e+04 7.057e-10
 94.12499    154.8 1.135e+04 7.454e-10
 94.13615    155.3 1.161e+04 8.305e-10
 94.15603    155.9 1.183e+04 9.199e-10
 94.17592    156.4 1.200e+04 1.010e-09
 94.19581    157.1 1.209e+04 1.088e-09
 94.21569    157.7 1.204e+04 1.120e-09
 94.23034    158.4 1.201e+04 1.111e-09
 94.24028    158.6 1.240e+04 1.401e-09
 94.25547    159.3 1.230e+04 1.367e-09
 94.27535    160.0 1.212e+04 1.264e-09
 94.29524    160.7 1.189e+04 1.120e-09
 94.31052    161.1 1.169e+04 9.745e-10
 94.32046    161.3 1.173e+04 1.024e-09
 94.33501    161.4 1.172e+04 9.842e-10
 94.34563    161.5 1.177e+04 9.954e-10
 94.35557    162.0 1.203e+04 1.153e-09
 94.37478    161.9 1.218e+04 1.194e-09
 94.39467    161.1 1.263e+04 1.401e-09
 94.41456    159.9 1.346e+04 1.984e-09
 94.43444    159.0 1.440e+04 3.075e-09
 94.45097    158.4 1.504e+04 4.366e-09
 94.45885    158.4 1.531e+04 4.715e-09
 94.46216    158.3 1.550e+04 4.875e-09
 94.46915    158.2 1.581e+04 5.610e-09
 94.47909    158.2 1.611e+04 6.290e-09
 94.48903    158.1 1.617e+04 6.342e-09
 94.49898    157.7 1.610e+04 6.197e-09
 94.50852    157.4 1.574e+04 5.436e-09
 94.51349    157.4 1.656e+04 6.632e-09
 94.51886    157.1 1.601e+04 5.659e-09
 94.53383    157.2 1.527e+04 4.003e-09
 94.55376    157.0 1.419e+04 1.920e-09
 94.56626    155.1 1.240e+04 6.926e-10
 94.57620    155.4 1.333e+04 1.007e-09
 94.59353    151.5 1.073e+04 4.441e-10
 94.60405    149.1 1.000e+04 4.044e-10
 94.61399    149.2 1.007e+04 4.190e-10
 94.63331    149.2 1.005e+04 4.241e-10
 94.65319    149.5 1.005e+04 4.656e-10
 94.67161    150.1 1.019e+04 5.611e-10
 94.68155    150.5 1.029e+04 5.981e-10
 94.69297    151.4 1.051e+04 7.210e-10
 94.71285    152.5 1.077e+04 8.605e-10
 94.73274    153.3 1.103e+04 9.914e-10
 94.75262    153.4 1.126e+04 1.098e-09
 94.77251    153.0 1.187e+04 1.290e-09
 94.78690    151.3 1.374e+04 2.030e-09
 94.79684    150.3 1.541e+04 3.427e-09
 94.80726    149.3 1.600e+04 3.991e-09
 94.81716    148.8 1.636e+04 4.447e-09
 94.82710    147.6 1.739e+04 5.860e-09
 94.83704    145.5 1.926e+04 8.792e-09
 94.84444    142.8 2.121e+04 1.511e-08
 94.84942    143.6 2.134e+04 1.903e-08
 94.85693    141.7 2.242e+04 3.605e-08
 94.86687    140.5 2.296e+04 7.558e-08
 94.87682    139.7 2.336e+04 1.580e-07
 94.88676    137.6 2.399e+04 2.656e-07
 94.89251    133.2 2.421e+04 2.730e-07
 94.89749    134.0 2.362e+04 2.050e-07
 94.90209    132.1 2.324e+04 1.644e-07
 94.90706    132.3 2.315e+04 1.376e-07
 94.91659    131.8 2.289e+04 8.197e-08
 94.92653    130.8 2.277e+04 4.322e-08
 94.93647    128.7 2.249e+04 2.313e-08
 94.95144    123.4 2.079e+04 1.174e-08
 94.97137    117.6 1.795e+04 6.551e-09
 94.99126    114.3 1.708e+04 5.420e-09
 95.00753    112.1 1.719e+04 5.262e-09
 95.01748    111.3 1.799e+04 6.285e-09
 95.03103    108.0 1.775e+04 5.610e-09
 95.05092    104.5 1.747e+04 5.456e-09
 95.07081     99.2 1.816e+04 6.173e-09
 95.09069     89.7 2.150e+04 7.694e-09
 95.11058     77.6 2.135e+04 7.894e-09
 95.12282     66.7 1.843e+04 7.235e-09
 95.13277     66.4 1.770e+04 6.822e-09
 95.14533     60.7 1.816e+04 7.084e-09
 95.15522     58.2 1.774e+04 6.363e-09
 95.16517     51.7 1.793e+04 5.301e-09
 95.17511     51.1 1.770e+04 5.046e-09
 95.18112     44.4 1.668e+04 3.699e-09
 95.19112     42.0 1.675e+04 3.868e-09
 95.21001     31.9 1.677e+04 3.040e-09
 95.22817     21.1 1.870e+04 3.057e-09
 95.23806     18.4 1.984e+04 3.669e-09
 95.24471      9.0 1.889e+04 3.880e-09
 95.25466      6.0 1.972e+04 5.006e-09
 95.26460      0.0 1.886e+04 6.355e-09
 95.27454     -2.3 1.944e+04 8.102e-09
 95.28449     -4.5 1.945e+04 9.661e-09
 95.29069     -5.7 1.991e+04 1.036e-08
 95.29566     -7.6 2.044e+04 1.169e-08
 95.30939     -8.4 2.056e+04 1.013e-08
 95.32933    -12.2 1.943e+04 7.211e-09
 95.34346    -15.0 1.810e+04 4.688e-09
 95.35340    -20.4 1.769e+04 3.491e-09
 95.36910    -22.0 1.572e+04 2.297e-09
 95.38899    -22.8 1.400e+04 1.689e-09
 95.40887    -22.9 1.288e+04 1.388e-09
 95.42876    -22.1 1.247e+04 1.239e-09
 95.44865    -20.9 1.222e+04 1.142e-09
 95.45875    -19.6 1.220e+04 1.121e-09
 95.46492    -21.7 1.263e+04 1.316e-09
 95.47471    -22.3 1.292e+04 1.433e-09
 95.48842    -21.1 1.285e+04 1.432e-09
 95.50830    -19.8 1.268e+04 1.395e-09
 95.52819    -18.3 1.250e+04 1.348e-09
 95.54808    -16.9 1.236e+04 1.305e-09
 95.56409    -15.6 1.221e+04 1.247e-09
 95.57404    -16.9 1.191e+04 1.143e-09
 95.58785    -15.6 1.172e+04 1.054e-09
 95.60774    -14.3 1.150e+04 9.588e-10
 95.62762    -13.1 1.128e+04 8.573e-10
 95.64751    -12.3 1.110e+04 7.466e-10
 95.66739    -11.9 1.110e+04 6.569e-10
 95.67938    -12.5 1.150e+04 6.508e-10
 95.68933    -17.0 1.164e+04 6.654e-10
 95.70717    -19.1 1.188e+04 7.640e-10
 95.72705    -20.7 1.182e+04 9.316e-10
 95.74694    -21.7 1.176e+04 1.161e-09
 95.75830    -22.2 1.202e+04 1.412e-09
 95.76824    -22.7 1.219e+04 1.547e-09
 95.78473    -23.1 1.256e+04 1.636e-09
 95.79467    -26.0 1.265e+04 1.602e-09
 95.80660    -27.7 1.250e+04 1.385e-09
 95.82649    -29.7 1.189e+04 1.088e-09
 95.84637    -31.5 1.110e+04 8.476e-10
 95.86626    -32.7 1.045e+04 6.908e-10
 95.88614    -33.5 9.973e+03 5.771e-10
 95.90002    -33.9 9.581e+03 4.841e-10
 95.90996    -35.5 9.397e+03 4.504e-10
 95.92592    -35.4 9.174e+03 3.901e-10
 95.94580    -35.3 9.035e+03 3.498e-10
 95.97573    -35.4 8.830e+03 3.008e-10
 96.00556    -35.7 8.186e+03 2.057e-10
 96.02545    -37.6 8.072e+03 1.749e-10
 96.04208    -37.3 7.956e+03 1.533e-10
 96.06197    -36.6 7.989e+03 1.574e-10
 96.09515    -36.5 7.889e+03 1.471e-10
 96.13492    -36.0 7.852e+03 1.459e-10
 96.17469    -35.3 7.861e+03 1.545e-10
 96.21446    -34.1 7.879e+03 1.592e-10
 96.23614    -32.8 7.834e+03 1.499e-10
 96.25603    -33.4 7.782e+03 1.393e-10
 96.29401    -32.0 7.655e+03 1.170e-10
 96.33378    -30.7 7.600e+03 1.087e-10
 96.37355    -30.1 7.713e+03 1.141e-10
 96.41333    -30.6 8.404e+03 1.885e-10
 96.44683    -31.2 9.617e+03 4.032e-10
 96.46672    -33.1 1.043e+04 6.502e-10
 96.49287    -32.6 1.144e+04 1.165e-09
 96.53264    -32.2 1.194e+04 1.469e-09
 96.57242    -32.3 1.185e+04 1.366e-09
 96.60926    -32.2 1.136e+04 1.014e-09
 96.62915    -32.8 1.102e+04 8.087e-10
 96.65196    -33.4 1.012e+04 4.496e-10
 96.67741    -34.0 9.386e+03 2.727e-10
 96.69730    -35.8 8.328e+03 1.060e-10
 96.73151    -35.6 8.020e+03 7.276e-11
 96.77128    -35.4 7.978e+03 6.459e-11
 96.81105    -35.5 7.990e+03 6.394e-11
 96.85083    -36.3 8.283e+03 8.915e-11
 96.88810    -37.3 8.761e+03 1.667e-10
 96.90799    -37.2 8.602e+03 1.554e-10
 96.93037    -37.3 9.119e+03 2.563e-10
 96.97014    -37.5 9.697e+03 3.814e-10
 97.00992    -38.6 1.018e+04 4.870e-10
 97.04969    -40.8 1.052e+04 5.444e-10
 97.08946    -43.4 1.076e+04 5.936e-10
 97.11858    -44.7 1.058e+04 5.678e-10
 97.12843    -43.9 1.058e+04 5.742e-10
 97.13898    -44.4 1.070e+04 6.414e-10
 97.15887    -45.2 1.064e+04 7.027e-10
 97.17875    -45.4 1.067e+04 7.525e-10
 97.19613    -45.5 1.061e+04 7.693e-10
 97.21612    -44.6 1.073e+04 7.125e-10
 97.24855    -44.5 1.046e+04 6.414e-10
 97.28832    -44.4 9.910e+03 4.265e-10
 97.32810    -44.8 9.470e+03 2.941e-10
 97.34926    -44.9 9.182e+03 2.445e-10
 97.36915    -44.4 9.024e+03 2.315e-10
 97.40764    -44.1 8.896e+03 2.244e-10
 97.44741    -42.6 8.855e+03 2.254e-10
 97.48719    -40.9 8.952e+03 2.540e-10
 97.52696    -39.7 9.157e+03 3.074e-10
 97.55669    -40.1 8.663e+03 3.292e-10
 97.56970    -46.6 1.320e+04 5.744e-10
 97.57964    -48.3 1.295e+04 5.010e-10
 97.59637    -54.6 2.250e+04 7.977e-10
 97.61625    -59.3 2.173e+04 8.322e-09
 97.62730    -59.1 2.080e+04 3.174e-08
 97.63222    -59.9 2.091e+04 3.560e-08
 97.63633    -58.4 2.078e+04 6.173e-08
 97.64131    -59.0 2.119e+04 4.073e-08
 97.65096    -57.6 2.121e+04 5.944e-08
 97.66090    -55.9 2.134e+04 7.237e-08
 97.67084    -54.5 2.149e+04 7.683e-08
 97.67992    -53.4 2.152e+04 7.693e-08
 97.68489    -54.2 2.161e+04 8.553e-08
 97.69073    -53.0 2.158e+04 7.273e-08
 97.70067    -52.2 2.180e+04 4.993e-08
 97.71062    -51.9 2.260e+04 2.924e-08
 97.72056    -51.8 2.415e+04 1.417e-08
 97.73050    -54.3 2.599e+04 5.721e-09
 97.73757    -61.2 2.294e+04 2.080e-09
 97.74254    -61.0 2.259e+04 2.352e-09
 97.75541    -68.0 1.496e+04 1.003e-09
 97.77326    -70.6 1.093e+04 6.277e-10
 97.78320    -68.1 1.404e+04 1.129e-09
 97.79034    -70.0 1.101e+04 7.614e-10
 97.80028    -70.1 1.137e+04 8.541e-10
 97.81512    -70.5 1.072e+04 7.766e-10
 97.83500    -70.5 1.076e+04 8.647e-10
 97.85489    -70.0 1.103e+04 9.872e-10
 97.87478    -69.7 1.109e+04 1.017e-09
 97.89466    -69.7 1.108e+04 1.016e-09
 97.90563    -69.6 1.092e+04 9.462e-10
 97.91557    -70.0 1.111e+04 1.029e-09
 97.93443    -70.3 1.092e+04 9.183e-10
 97.95432    -70.6 1.079e+04 8.377e-10
 97.97421    -71.0 1.076e+04 8.029e-10
 97.99409    -71.2 1.076e+04 7.976e-10
 98.01097    -71.5 1.079e+04 7.993e-10
 98.02092    -72.0 1.109e+04 9.552e-10
 98.03387    -72.3 1.121e+04 9.965e-10
 98.05375    -72.6 1.144e+04 1.132e-09
 98.06679    -72.7 1.179e+04 1.349e-09
 98.07673    -73.4 1.208e+04 1.509e-09
 98.09352    -73.7 1.271e+04 1.916e-09
 98.11341    -74.0 1.336e+04 2.433e-09
 98.12626    -74.4 1.388e+04 2.963e-09
 98.13620    -74.5 1.395e+04 3.123e-09
 98.15318    -74.8 1.419e+04 3.352e-09
 98.17307    -75.0 1.423e+04 3.432e-09
 98.19296    -75.0 1.417e+04 3.417e-09
 98.21284    -74.8 1.383e+04 3.050e-09
 98.23161    -74.6 1.339e+04 2.483e-09
 98.24155    -75.0 1.322e+04 2.126e-09
 98.25262    -75.0 1.266e+04 1.667e-09
 98.27250    -75.0 1.210e+04 1.336e-09
 98.29239    -75.0 1.158e+04 1.112e-09
 98.31227    -74.7 1.113e+04 9.633e-10
 98.33216    -74.0 1.083e+04 8.674e-10
 98.34690    -73.2 1.062e+04 7.911e-10
 98.35517    -73.1 1.053e+04 7.833e-10
 98.36032    -73.5 1.050e+04 7.451e-10
 98.37193    -72.7 1.034e+04 6.581e-10
 98.39182    -71.7 1.016e+04 5.613e-10
 98.41171    -70.7 9.973e+03 4.614e-10
 98.43159    -69.7 9.860e+03 3.781e-10
 98.45148    -69.1 9.835e+03 3.273e-10
 98.46228    -69.0 9.806e+03 2.895e-10
 98.48227    -68.3 9.728e+03 2.731e-10
 98.52128    -67.3 9.662e+03 2.395e-10
 98.56105    -66.4 9.649e+03 2.304e-10
 98.60082    -65.9 9.885e+03 2.632e-10
 98.64059    -65.5 1.040e+04 4.374e-10
 98.67307    -64.7 1.082e+04 6.968e-10
 98.69296    -64.6 1.093e+04 7.712e-10
 98.72014    -64.0 1.110e+04 8.991e-10
 98.75991    -63.6 1.107e+04 9.007e-10
 98.79968    -63.1 1.073e+04 7.630e-10
 98.83946    -62.5 1.046e+04 6.641e-10
 98.86919    -62.3 1.018e+04 5.625e-10
 98.88898    -61.6 1.015e+04 5.492e-10
 98.90346    -61.1 1.016e+04 5.497e-10
 98.92219    -60.1 9.868e+03 3.991e-10
 98.93764    -62.0 9.602e+03 3.182e-10
 98.95877    -60.7 9.515e+03 3.041e-10
 98.99855    -59.4 9.406e+03 2.776e-10
 99.03832    -58.2 9.203e+03 2.277e-10
 99.07809    -57.2 8.936e+03 1.787e-10
 99.11435    -56.2 8.766e+03 1.536e-10
 99.13423    -55.6 8.055e+03 7.608e-11
 99.15764    -54.4 8.053e+03 7.331e-11
 99.19741    -52.9 8.066e+03 7.375e-11
 99.23718    -51.4 8.087e+03 7.887e-11
 99.27696    -49.7 8.087e+03 8.627e-11
 99.31673    -48.0 8.084e+03 9.296e-11
 99.34493    -46.1 8.083e+03 9.871e-11
 99.36481    -45.5 7.996e+03 8.539e-11
 99.39627    -43.6 8.068e+03 9.959e-11
 99.43605    -41.6 8.130e+03 1.131e-10
 99.47582    -39.5 8.142e+03 1.206e-10
 99.50482    -37.2 8.124e+03 1.221e-10
 99.52471    -37.6 8.096e+03 1.218e-10
 99.55536    -35.2 7.976e+03 1.109e-10
 99.57550    -32.8 7.858e+03 9.533e-11
 99.59539    -32.2 8.018e+03 1.110e-10
 99.63491    -29.9 7.919e+03 9.564e-11
 99.67468    -27.6 7.835e+03 8.406e-11
 99.71445    -25.3 7.787e+03 7.780e-11
 99.75423    -22.9 7.773e+03 7.644e-11
 99.78620    -20.5 7.810e+03 7.892e-11
 99.80608    -19.9 7.896e+03 8.199e-11
 99.83377    -17.5 7.899e+03 8.463e-11
 99.87354    -15.1 7.940e+03 8.874e-11
 99.91332    -12.6 7.964e+03 9.016e-11
 99.95309    -10.3 8.002e+03 8.882e-11
 99.99286     -8.1 8.019e+03 8.735e-11
