# Columns:
#   distance along LOS (in CHIMPs)
#   peculiar velocity  (in km/s)
#   temperature (K)
#   HI number density
# pos=(6.31014,183.589,251.097), angles=(2.87581,2.48854)
  0.00799    -42.1 1.159e+04 1.080e-09
  0.02553    -42.4 1.120e+04 7.676e-10
  0.03565    -42.6 1.112e+04 6.889e-10
  0.04073    -43.7 1.065e+04 4.780e-10
  0.05085    -41.0 1.091e+04 6.102e-10
  0.06658    -42.0 1.062e+04 4.338e-10
  0.08682    -43.5 1.038e+04 3.757e-10
  0.10706    -45.2 1.035e+04 4.028e-10
  0.12731    -47.1 1.053e+04 4.693e-10
  0.13815    -48.6 1.063e+04 5.790e-10
  0.14817    -45.7 1.089e+04 5.678e-10
  0.15757    -46.5 1.063e+04 5.559e-10
  0.16779    -47.5 1.072e+04 6.606e-10
  0.18803    -48.1 1.095e+04 7.601e-10
  0.20827    -48.9 1.134e+04 8.169e-10
  0.22544    -50.6 1.170e+04 8.089e-10
  0.23556    -47.0 1.167e+04 8.025e-10
  0.24876    -49.0 1.175e+04 7.581e-10
  0.26900    -52.7 1.176e+04 7.059e-10
  0.27948    -57.7 1.219e+04 7.762e-10
  0.28961    -61.4 1.272e+04 1.012e-09
  0.30948    -66.3 1.358e+04 1.556e-09
  0.32286    -70.7 1.431e+04 2.271e-09
  0.33298    -67.5 1.408e+04 1.912e-09
  0.34997    -72.1 1.488e+04 2.734e-09
  0.37021    -77.5 1.555e+04 3.040e-09
  0.39045    -85.5 1.616e+04 2.949e-09
  0.40140    -96.7 1.673e+04 2.833e-09
  0.41098    -94.3 1.509e+04 2.222e-09
  0.42028    -92.9 1.602e+04 2.646e-09
  0.43094   -104.4 1.713e+04 3.314e-09
  0.45118   -111.9 1.805e+04 6.829e-09
  0.47142   -116.1 1.906e+04 1.097e-08
  0.49166   -120.1 1.943e+04 1.226e-08
  0.50757   -124.7 1.940e+04 1.086e-08
  0.51769   -125.7 1.904e+04 7.936e-09
  0.52331   -131.5 1.733e+04 4.329e-09
  0.53344   -127.2 1.842e+04 6.977e-09
  0.55239   -132.8 1.632e+04 3.643e-09
  0.57263   -137.2 1.420e+04 2.311e-09
  0.59287   -139.5 1.308e+04 1.776e-09
  0.60499   -140.8 1.250e+04 1.435e-09
  0.61511   -140.8 1.211e+04 1.215e-09
  0.63336   -141.8 1.158e+04 9.277e-10
  0.64523   -142.6 1.102e+04 6.870e-10
  0.65535   -141.6 1.157e+04 9.444e-10
  0.67384   -142.4 1.104e+04 7.003e-10
  0.69228   -143.0 1.052e+04 5.050e-10
  0.70241   -143.1 1.012e+04 3.876e-10
  0.71432   -143.6 9.786e+03 3.001e-10
  0.73457   -143.8 9.686e+03 2.645e-10
  0.76503   -144.1 9.686e+03 2.494e-10
  0.78990   -144.9 9.175e+03 1.945e-10
  0.81014   -145.1 8.821e+03 1.571e-10
  0.84609   -145.4 8.467e+03 1.253e-10
  0.87913   -144.6 8.357e+03 1.126e-10
  0.89938   -145.2 8.378e+03 1.095e-10
  0.92706   -144.5 8.354e+03 1.061e-10
  0.96449   -144.8 8.439e+03 1.090e-10
  0.98473   -146.6 8.513e+03 1.093e-10
  1.00803   -149.4 9.848e+03 2.120e-10
  1.04851   -151.5 1.158e+04 6.946e-10
  1.07193   -152.5 1.261e+04 1.481e-09
  1.08195   -152.9 1.253e+04 1.492e-09
  1.09892   -152.8 1.284e+04 1.831e-09
  1.11916   -152.9 1.309e+04 2.043e-09
  1.13289   -153.5 1.312e+04 2.086e-09
  1.14301   -154.8 1.310e+04 2.106e-09
  1.15913   -155.6 1.296e+04 1.886e-09
  1.16925   -156.6 1.252e+04 1.606e-09
  1.17989   -157.9 1.245e+04 1.514e-09
  1.20013   -159.2 1.246e+04 1.510e-09
  1.22037   -160.2 1.284e+04 1.773e-09
  1.24061   -160.6 1.329e+04 2.266e-09
  1.25480   -160.7 1.355e+04 2.680e-09
  1.26061   -161.6 1.341e+04 2.637e-09
  1.26667   -162.0 1.348e+04 2.640e-09
  1.28110   -162.0 1.351e+04 2.692e-09
  1.30134   -161.9 1.325e+04 2.597e-09
  1.32158   -161.4 1.271e+04 2.132e-09
  1.34182   -161.0 1.209e+04 1.633e-09
  1.35396   -160.6 1.149e+04 1.237e-09
  1.36408   -161.2 1.152e+04 1.260e-09
  1.37672   -160.6 1.099e+04 9.704e-10
  1.38684   -161.3 1.078e+04 8.646e-10
  1.40255   -160.6 1.045e+04 7.126e-10
  1.42279   -159.8 1.020e+04 6.187e-10
  1.44126   -158.8 1.004e+04 5.599e-10
  1.45138   -159.2 1.001e+04 5.344e-10
  1.46328   -158.3 9.851e+03 4.880e-10
  1.48352   -157.3 9.697e+03 4.525e-10
  1.49863   -156.3 9.582e+03 4.281e-10
  1.50875   -157.0 9.891e+03 4.595e-10
  1.52400   -156.0 9.946e+03 4.652e-10
  1.53867   -155.0 1.007e+04 4.904e-10
  1.54879   -155.3 9.879e+03 4.291e-10
  1.56449   -154.3 1.004e+04 4.601e-10
  1.58473   -153.3 1.011e+04 4.735e-10
  1.61053   -152.3 9.972e+03 4.354e-10
  1.63086   -153.6 1.092e+04 8.122e-10
  1.65577   -151.6 1.081e+04 7.990e-10
  1.69626   -149.7 1.070e+04 7.794e-10
  1.72358   -147.8 1.065e+04 8.013e-10
  1.74382   -147.5 1.036e+04 6.373e-10
  1.77722   -145.5 1.043e+04 6.748e-10
  1.81771   -143.7 1.072e+04 7.782e-10
  1.85445   -141.9 1.105e+04 9.199e-10
  1.87469   -142.6 1.100e+04 9.003e-10
  1.89817   -140.9 1.103e+04 9.098e-10
  1.91842   -140.2 1.068e+04 7.161e-10
  1.93916   -138.5 1.064e+04 6.944e-10
  1.97964   -136.6 1.047e+04 6.208e-10
  2.02013   -134.6 1.019e+04 5.065e-10
  2.06061   -132.5 9.945e+03 3.991e-10
  2.09301   -130.5 9.799e+03 3.276e-10
  2.11044   -129.7 9.946e+03 3.659e-10
  2.11852   -129.9 9.923e+03 3.712e-10
  2.14158   -127.8 9.970e+03 3.478e-10
  2.18206   -125.7 9.997e+03 3.437e-10
  2.22255   -123.9 1.020e+04 3.506e-10
  2.26303   -122.4 1.044e+04 3.922e-10
  2.28784   -121.0 1.066e+04 4.562e-10
  2.30808   -121.1 1.103e+04 6.179e-10
  2.34211   -120.0 1.122e+04 7.092e-10
  2.36235   -120.3 1.127e+04 7.566e-10
  2.38448   -119.2 1.147e+04 8.685e-10
  2.42497   -118.2 1.168e+04 1.004e-09
  2.46243   -117.2 1.179e+04 1.096e-09
  2.48268   -117.5 1.151e+04 8.850e-10
  2.50593   -116.2 1.139e+04 8.111e-10
  2.54642   -114.7 1.117e+04 6.552e-10
  2.58594   -112.9 1.088e+04 4.918e-10
  2.60618   -113.4 1.094e+04 4.891e-10
  2.62739   -111.8 1.068e+04 3.634e-10
  2.65727   -110.1 1.055e+04 2.856e-10
  2.67751   -110.0 1.044e+04 1.985e-10
  2.70835   -108.2 1.043e+04 1.754e-10
  2.74884   -106.3 1.042e+04 1.675e-10
  2.78932   -104.2 1.039e+04 1.650e-10
  2.82977   -102.1 1.036e+04 1.625e-10
  2.85207   -100.3 1.036e+04 1.785e-10
  2.87234   -100.1 1.034e+04 1.426e-10
  2.91077    -97.7 1.030e+04 1.300e-10
  2.95126    -95.2 1.029e+04 1.179e-10
  2.99174    -92.7 1.030e+04 1.068e-10
  3.02669    -90.2 1.033e+04 9.757e-11
  3.04694    -89.9 1.040e+04 8.914e-11
  3.07271    -87.4 1.044e+04 8.588e-11
  3.09384    -84.9 1.048e+04 8.559e-11
  3.11409    -84.8 1.045e+04 8.327e-11
  3.15368    -82.6 1.066e+04 8.569e-11
  3.19416    -80.7 1.087e+04 1.027e-10
  3.22153    -79.0 1.097e+04 1.499e-10
  3.24177    -78.7 1.104e+04 1.434e-10
  3.27513    -76.9 1.120e+04 2.307e-10
  3.31561    -74.9 1.147e+04 3.589e-10
  3.33767    -72.9 1.181e+04 5.051e-10
  3.35792    -72.7 1.192e+04 5.950e-10
  3.39612    -71.1 1.209e+04 6.446e-10
  3.41636    -70.9 1.212e+04 6.643e-10
  3.43707    -69.5 1.213e+04 6.645e-10
  3.47755    -68.0 1.210e+04 5.802e-10
  3.51803    -66.8 1.208e+04 5.176e-10
  3.54830    -65.7 1.195e+04 4.520e-10
  3.56844    -65.5 1.194e+04 4.650e-10
  3.58131    -64.9 1.206e+04 5.265e-10
  3.59143    -64.2 1.189e+04 4.133e-10
  3.60088    -64.1 1.191e+04 4.456e-10
  3.61110    -63.7 1.184e+04 3.994e-10
  3.62927    -63.3 1.198e+04 5.363e-10
  3.64941    -63.0 1.203e+04 6.357e-10
  3.66965    -62.5 1.212e+04 8.225e-10
  3.68817    -61.9 1.228e+04 9.975e-10
  3.69830    -61.6 1.216e+04 9.534e-10
  3.70322    -60.9 1.243e+04 1.135e-09
  3.71334    -60.6 1.211e+04 8.396e-10
  3.73038    -60.0 1.236e+04 9.665e-10
  3.75062    -59.5 1.269e+04 1.080e-09
  3.77086    -59.1 1.293e+04 1.142e-09
  3.78559    -59.1 1.293e+04 1.166e-09
  3.79571    -58.5 1.285e+04 1.149e-09
  3.81135    -58.3 1.271e+04 1.205e-09
  3.82524    -57.8 1.266e+04 1.330e-09
  3.84558    -57.4 1.248e+04 9.976e-10
  3.88239    -56.5 1.231e+04 1.038e-09
  3.92287    -55.3 1.197e+04 8.197e-10
  3.96038    -53.9 1.148e+04 4.921e-10
  3.98062    -52.5 1.169e+04 5.323e-10
  4.00384    -51.2 1.127e+04 2.748e-10
  4.04433    -50.0 1.101e+04 1.751e-10
  4.06916    -48.8 1.089e+04 1.487e-10
  4.08941    -49.2 1.120e+04 2.520e-10
  4.12529    -48.2 1.136e+04 2.748e-10
  4.15521    -47.0 1.127e+04 3.858e-10
  4.17545    -46.5 1.147e+04 4.002e-10
  4.20626    -44.8 1.149e+04 5.139e-10
  4.24675    -43.2 1.165e+04 5.974e-10
  4.28723    -42.0 1.180e+04 6.800e-10
  4.31299    -40.8 1.187e+04 8.114e-10
  4.33324    -41.9 1.181e+04 8.353e-10
  4.35005    -40.3 1.177e+04 8.916e-10
  4.37029    -40.3 1.167e+04 8.207e-10
  4.40868    -38.8 1.158e+04 7.434e-10
  4.44917    -37.3 1.133e+04 6.257e-10
  4.48965    -35.5 1.106e+04 4.713e-10
  4.52464    -33.8 1.085e+04 3.358e-10
  4.54488    -33.7 1.083e+04 3.256e-10
  4.55682    -32.2 1.073e+04 2.483e-10
  4.57707    -32.1 1.052e+04 2.031e-10
  4.61110    -30.4 1.044e+04 1.702e-10
  4.65159    -28.5 1.034e+04 1.479e-10
  4.69207    -26.3 1.024e+04 1.238e-10
  4.71947    -24.0 1.016e+04 9.396e-11
  4.73971    -23.6 1.010e+04 9.524e-11
  4.77304    -21.3 1.006e+04 6.665e-11
  4.80065    -19.4 1.007e+04 4.833e-11
  4.82090    -18.7 1.002e+04 4.394e-11
  4.85401    -16.9 9.942e+03 3.599e-11
  4.89406    -14.6 9.809e+03 3.546e-11
  4.91431    -14.3 9.761e+03 3.220e-11
  4.93497    -11.9 9.761e+03 3.306e-11
  4.97546     -9.5 9.775e+03 3.670e-11
  5.01594     -7.1 9.790e+03 4.415e-11
  5.04448     -4.6 9.802e+03 5.586e-11
  5.06473     -4.2 9.784e+03 5.326e-11
  5.08890     -1.6 9.826e+03 6.986e-11
  5.10914     -1.2 9.826e+03 6.868e-11
  5.13739      1.5 9.911e+03 8.935e-11
  5.17788      4.2 1.003e+04 1.151e-10
  5.21836      6.7 1.017e+04 1.435e-10
  5.25884      9.0 1.032e+04 1.716e-10
  5.28373     11.0 1.055e+04 2.234e-10
  5.29296     11.5 1.081e+04 3.662e-10
  5.30856     11.5 1.106e+04 4.585e-10
  5.33981     13.3 1.159e+04 7.587e-10
  5.37008     13.6 1.157e+04 7.567e-10
  5.38095     13.8 1.170e+04 8.787e-10
  5.39107     14.2 1.196e+04 1.125e-09
  5.41003     14.3 1.225e+04 1.357e-09
  5.42015     14.0 1.238e+04 1.494e-09
  5.43071     13.9 1.264e+04 1.688e-09
  5.45095     13.6 1.289e+04 1.869e-09
  5.46825     12.8 1.309e+04 2.034e-09
  5.47837     12.7 1.336e+04 2.390e-09
  5.49143     11.9 1.332e+04 2.419e-09
  5.51167     11.1 1.318e+04 2.327e-09
  5.53192     10.2 1.288e+04 2.090e-09
  5.55216      8.7 1.229e+04 1.516e-09
  5.56567      7.9 1.197e+04 1.318e-09
  5.57579      8.2 1.184e+04 1.167e-09
  5.59264      7.6 1.148e+04 9.497e-10
  5.62310      6.8 1.130e+04 8.246e-10
  5.65316      6.4 1.101e+04 6.334e-10
  5.67340      6.9 1.095e+04 6.055e-10
  5.70417      6.9 1.083e+04 5.869e-10
  5.74465      7.3 1.084e+04 6.299e-10
  5.77597      8.0 1.092e+04 7.374e-10
  5.79621      6.9 1.068e+04 6.117e-10
  5.82562      7.9 1.073e+04 7.043e-10
  5.84799      9.1 1.075e+04 7.124e-10
  5.86823      9.5 1.094e+04 8.082e-10
  5.89637     10.1 1.091e+04 8.076e-10
  5.90781     10.6 1.083e+04 7.723e-10
  5.91793     10.0 1.065e+04 6.318e-10
  5.93509     10.5 1.060e+04 5.522e-10
  5.94521     10.5 1.067e+04 6.018e-10
  5.95700     10.8 1.062e+04 5.425e-10
  5.97724     10.7 1.059e+04 4.690e-10
  5.99748     10.6 1.052e+04 4.343e-10
  6.01772     10.6 1.044e+04 4.196e-10
  6.02973     10.6 1.036e+04 4.148e-10
  6.03449      9.8 1.026e+04 3.963e-10
  6.04283      9.4 1.026e+04 4.183e-10
  6.06852      9.8 1.014e+04 4.301e-10
  6.10901     10.6 1.010e+04 4.344e-10
  6.14949     11.3 1.010e+04 4.153e-10
  6.18998     11.8 1.008e+04 3.830e-10
  6.21742     12.2 1.003e+04 3.645e-10
  6.23766     11.6 1.000e+04 3.639e-10
  6.26363     12.3 9.798e+03 3.247e-10
  6.28387     12.3 9.583e+03 2.962e-10
  6.31143     13.5 9.442e+03 2.688e-10
  6.35191     14.7 9.288e+03 2.151e-10
  6.39201     15.8 9.115e+03 1.637e-10
  6.41225     15.2 8.966e+03 1.303e-10
  6.43288     16.1 8.880e+03 1.213e-10
  6.47336     17.1 8.906e+03 1.272e-10
  6.50746     18.1 9.069e+03 1.570e-10
  6.52770     19.1 8.842e+03 1.242e-10
  6.55433     20.2 9.091e+03 1.674e-10
  6.58684     21.2 9.509e+03 2.463e-10
  6.60708     20.8 9.316e+03 2.116e-10
  6.63530     21.6 9.692e+03 2.966e-10
  6.67578     22.3 1.000e+04 3.834e-10
  6.71627     22.8 1.018e+04 4.445e-10
  6.75129     23.2 1.027e+04 4.759e-10
  6.77153     24.8 1.017e+04 4.434e-10
  6.78168     25.3 1.021e+04 4.622e-10
  6.80192     25.6 9.967e+03 4.063e-10
  6.83772     26.1 1.013e+04 4.540e-10
  6.87820     26.5 1.039e+04 5.282e-10
  6.91869     27.0 1.060e+04 5.914e-10
  6.95627     27.5 1.065e+04 5.985e-10
  6.97651     27.9 1.047e+04 5.304e-10
  6.99512     28.6 1.042e+04 4.733e-10
  7.01536     29.9 1.057e+04 5.641e-10
  7.04014     30.6 1.048e+04 4.642e-10
  7.08062     31.2 1.033e+04 3.337e-10
  7.12111     31.6 1.021e+04 2.423e-10
  7.15110     32.1 1.010e+04 2.303e-10
  7.17134     32.3 1.004e+04 2.418e-10
  7.20208     33.1 1.002e+04 2.405e-10
  7.23895     34.1 1.001e+04 2.330e-10
  7.25919     34.5 1.015e+04 2.750e-10
  7.28304     35.7 9.977e+03 2.490e-10
  7.32353     37.1 9.882e+03 2.008e-10
  7.34594     38.5 9.813e+03 1.577e-10
  7.36618     38.6 9.708e+03 1.191e-10
  7.40450     39.8 9.677e+03 1.092e-10
  7.44498     41.2 9.680e+03 1.100e-10
  7.48278     42.7 9.717e+03 1.142e-10
  7.50302     42.7 9.836e+03 1.440e-10
  7.52053     44.1 9.931e+03 1.607e-10
  7.54077     44.2 9.812e+03 1.308e-10
  7.56643     45.4 9.918e+03 1.491e-10
  7.60692     46.5 1.010e+04 1.801e-10
  7.64740     47.5 1.041e+04 2.325e-10
  7.68788     48.2 1.076e+04 3.121e-10
  7.71536     48.5 1.103e+04 4.045e-10
  7.73385     49.0 1.095e+04 3.946e-10
  7.74685     48.9 1.103e+04 4.219e-10
  7.75863     49.0 1.109e+04 4.663e-10
  7.77878     49.3 1.117e+04 5.006e-10
  7.79902     49.6 1.136e+04 5.343e-10
  7.81258     49.7 1.153e+04 5.519e-10
  7.82270     50.0 1.142e+04 5.306e-10
  7.83950     49.9 1.162e+04 5.522e-10
  7.85845     49.7 1.180e+04 5.681e-10
  7.86857     49.5 1.188e+04 5.916e-10
  7.87999     49.3 1.201e+04 6.190e-10
  7.89988     49.3 1.204e+04 6.457e-10
  7.91000     49.9 1.200e+04 6.453e-10
  7.93069     50.3 1.200e+04 7.202e-10
  7.97044     50.3 1.206e+04 7.940e-10
  7.99068     50.0 1.201e+04 7.401e-10
  8.01175     50.0 1.194e+04 7.209e-10
  8.05224     50.2 1.167e+04 6.645e-10
  8.08479     50.7 1.143e+04 5.925e-10
  8.10503     51.4 1.122e+04 5.475e-10
  8.13321     51.9 1.103e+04 4.746e-10
  8.17369     52.6 1.088e+04 4.286e-10
  8.21417     53.4 1.077e+04 4.049e-10
  8.25466     54.9 1.055e+04 3.403e-10
  8.27962     56.0 1.049e+04 3.161e-10
  8.29986     56.8 1.028e+04 2.641e-10
  8.33563     58.1 1.030e+04 2.532e-10
  8.37611     59.4 1.030e+04 2.538e-10
  8.41659     60.9 1.032e+04 2.580e-10
  8.45421     62.4 1.036e+04 2.648e-10
  8.47446     63.4 1.024e+04 2.506e-10
  8.47834     65.0 1.030e+04 2.626e-10
  8.49859     65.1 1.009e+04 1.943e-10
  8.53805     66.7 1.019e+04 2.146e-10
  8.57853     68.3 1.030e+04 2.372e-10
  8.61901     69.8 1.043e+04 2.665e-10
  8.64905     71.1 1.060e+04 3.052e-10
  8.66929     71.9 1.059e+04 3.047e-10
  8.69998     72.9 1.077e+04 3.421e-10
  8.72217     73.8 1.095e+04 3.806e-10
  8.74242     74.0 1.072e+04 2.997e-10
  8.78095     74.5 1.096e+04 3.508e-10
  8.82143     74.8 1.119e+04 4.104e-10
  8.84388     74.9 1.142e+04 4.805e-10
  8.86412     75.5 1.123e+04 4.168e-10
  8.90240     75.6 1.151e+04 4.933e-10
  8.94289     75.6 1.180e+04 5.809e-10
  8.96600     75.5 1.203e+04 6.238e-10
  8.98625     75.5 1.218e+04 6.716e-10
  9.01847     75.1 1.218e+04 6.400e-10
  9.03872     76.0 1.214e+04 6.326e-10
  9.06434     75.9 1.218e+04 6.158e-10
  9.10482     75.9 1.216e+04 5.978e-10
  9.14531     76.0 1.211e+04 6.011e-10
  9.18579     76.2 1.204e+04 6.024e-10
  9.20983     76.8 1.192e+04 5.935e-10
  9.21711     76.7 1.195e+04 6.955e-10
  9.23355     77.4 1.189e+04 6.668e-10
  9.26676     78.4 1.174e+04 6.157e-10
  9.30724     79.7 1.166e+04 5.938e-10
  9.34773     81.0 1.166e+04 6.035e-10
  9.38790     82.5 1.172e+04 6.213e-10
  9.40814     83.2 1.148e+04 5.158e-10
  9.42869     84.5 1.149e+04 5.172e-10
  9.45366     85.9 1.148e+04 5.032e-10
  9.47391     85.9 1.144e+04 5.196e-10
  9.50966     87.4 1.139e+04 4.744e-10
  9.55015     89.0 1.131e+04 4.094e-10
  9.58273     90.6 1.125e+04 3.512e-10
  9.60297     91.3 1.111e+04 3.264e-10
  9.63111     92.9 1.114e+04 3.027e-10
  9.67160     94.3 1.119e+04 2.899e-10
  9.69749     95.7 1.121e+04 2.764e-10
  9.71773     95.8 1.106e+04 2.558e-10
  9.75257     97.2 1.108e+04 2.549e-10
  9.77757     98.6 1.107e+04 2.467e-10
  9.79781     98.8 1.106e+04 2.464e-10
  9.83353    100.1 1.096e+04 2.292e-10
  9.87402    101.5 1.082e+04 2.062e-10
  9.91450    102.8 1.065e+04 1.847e-10
  9.94132    104.3 1.058e+04 1.762e-10
  9.95874    104.9 1.075e+04 2.463e-10
  9.97240    104.8 1.072e+04 2.457e-10
  9.99547    106.3 1.072e+04 2.485e-10
 10.03595    107.7 1.072e+04 2.632e-10
 10.07644    109.1 1.080e+04 3.007e-10
 10.11692    110.5 1.096e+04 3.676e-10
 10.14699    111.8 1.117e+04 4.720e-10
 10.16723    111.9 1.098e+04 4.293e-10
 10.18515    113.2 1.127e+04 5.664e-10
 10.20539    113.7 1.166e+04 7.247e-10
 10.23837    114.9 1.219e+04 9.825e-10
 10.27886    115.1 1.311e+04 1.479e-09
 10.30697    115.0 1.323e+04 1.624e-09
 10.31699    114.8 1.377e+04 1.855e-09
 10.32927    114.4 1.426e+04 2.152e-09
 10.34163    113.6 1.466e+04 2.463e-09
 10.35175    113.6 1.453e+04 2.706e-09
 10.36975    112.4 1.493e+04 3.061e-09
 10.38999    111.0 1.496e+04 3.161e-09
 10.41024    110.2 1.484e+04 3.085e-09
 10.42879    110.3 1.447e+04 2.692e-09
 10.43736    109.6 1.539e+04 4.173e-09
 10.43905    109.9 1.534e+04 4.169e-09
 10.45072    109.9 1.469e+04 3.129e-09
 10.47096    109.8 1.438e+04 2.581e-09
 10.49120    109.9 1.374e+04 1.851e-09
 10.51632    109.8 1.330e+04 1.371e-09
 10.53666    110.3 1.341e+04 1.570e-09
 10.56225    111.2 1.284e+04 1.067e-09
 10.60273    112.4 1.238e+04 7.404e-10
 10.64321    113.9 1.204e+04 6.134e-10
 10.67281    115.7 1.200e+04 6.084e-10
 10.69305    115.8 1.205e+04 6.742e-10
 10.71125    117.7 1.208e+04 6.995e-10
 10.73149    117.9 1.188e+04 6.313e-10
 10.76467    119.5 1.208e+04 7.419e-10
 10.80515    121.0 1.230e+04 8.594e-10
 10.84563    122.1 1.240e+04 8.871e-10
 10.88584    123.1 1.238e+04 8.696e-10
 10.90609    123.1 1.218e+04 8.341e-10
 10.91664    124.1 1.210e+04 7.565e-10
 10.93688    124.2 1.176e+04 5.557e-10
 10.96709    125.2 1.164e+04 4.651e-10
 11.00757    126.2 1.152e+04 4.027e-10
 11.04805    127.4 1.147e+04 3.939e-10
 11.08068    128.8 1.148e+04 4.017e-10
 11.10092    128.6 1.145e+04 3.924e-10
 11.12902    129.9 1.151e+04 4.528e-10
 11.16047    131.1 1.166e+04 5.650e-10
 11.18071    130.9 1.142e+04 4.542e-10
 11.20999    132.1 1.154e+04 5.478e-10
 11.25047    133.3 1.157e+04 5.943e-10
 11.27551    134.3 1.166e+04 6.020e-10
 11.28554    133.6 1.162e+04 6.176e-10
 11.29231    134.0 1.161e+04 6.111e-10
 11.30243    133.8 1.149e+04 5.094e-10
 11.32112    134.1 1.145e+04 4.939e-10
 11.34137    134.6 1.141e+04 4.826e-10
 11.36161    135.0 1.138e+04 4.768e-10
 11.37273    135.5 1.138e+04 4.794e-10
 11.38285    135.3 1.129e+04 4.508e-10
 11.40209    135.9 1.131e+04 4.632e-10
 11.41423    136.4 1.137e+04 4.851e-10
 11.42435    136.1 1.133e+04 4.790e-10
 11.44258    136.4 1.144e+04 5.226e-10
 11.46003    136.8 1.156e+04 5.780e-10
 11.47015    136.6 1.148e+04 5.668e-10
 11.48306    137.0 1.164e+04 6.351e-10
 11.50330    137.2 1.180e+04 7.065e-10
 11.52354    137.2 1.191e+04 7.599e-10
 11.53614    137.1 1.190e+04 7.625e-10
 11.54626    136.3 1.172e+04 7.092e-10
 11.57425    137.0 1.171e+04 7.137e-10
 11.61483    137.9 1.142e+04 6.309e-10
 11.64494    139.0 1.102e+04 4.801e-10
 11.65800    139.4 1.097e+04 4.490e-10
 11.66837    138.9 1.049e+04 2.308e-10
 11.69580    139.9 1.018e+04 1.276e-10
 11.73628    140.9 9.787e+03 7.580e-11
 11.77676    142.1 9.426e+03 6.466e-11
 11.81725    143.7 9.399e+03 6.423e-11
 11.83977    145.7 9.388e+03 6.465e-11
 11.86001    145.9 9.402e+03 6.443e-11
 11.89196    147.8 9.400e+03 6.907e-11
 11.91220    148.0 9.328e+03 6.411e-11
 11.93870    149.9 9.345e+03 7.235e-11
 11.97918    151.6 9.371e+03 8.318e-11
 12.01436    153.2 9.402e+03 9.665e-11
 12.03461    153.3 9.456e+03 1.021e-10
 12.06015    154.9 9.507e+03 1.185e-10
 12.10064    156.4 9.591e+03 1.408e-10
 12.13579    157.8 9.713e+03 1.703e-10
 12.15603    158.3 9.689e+03 1.685e-10
 12.18160    159.6 9.829e+03 2.034e-10
 12.20920    160.9 9.958e+03 2.403e-10
 12.22944    160.7 1.001e+04 2.307e-10
 12.26257    161.7 1.014e+04 2.439e-10
 12.30306    162.7 1.026e+04 2.476e-10
 12.34354    163.6 1.037e+04 2.492e-10
 12.37962    164.5 1.048e+04 2.532e-10
 12.39963    165.6 1.025e+04 2.325e-10
 12.40403    165.3 1.020e+04 2.099e-10
 12.42451    166.4 1.028e+04 2.137e-10
 12.46499    167.3 1.041e+04 2.268e-10
 12.50548    168.2 1.057e+04 2.500e-10
 12.54596    169.0 1.075e+04 2.750e-10
 12.57862    169.8 1.090e+04 2.979e-10
 12.59886    170.1 1.078e+04 2.839e-10
 12.62345    170.8 1.092e+04 2.934e-10
 12.64369    173.0 1.101e+04 3.660e-10
 12.66741    173.4 1.134e+04 3.894e-10
 12.69768    173.5 1.135e+04 3.730e-10
 12.71782    173.5 1.133e+04 3.589e-10
 12.73806    173.6 1.130e+04 3.429e-10
 12.75529    173.6 1.124e+04 3.283e-10
 12.76541    174.1 1.134e+04 3.561e-10
 12.77326    174.2 1.122e+04 3.459e-10
 12.78338    174.5 1.123e+04 3.378e-10
 12.79879    174.6 1.113e+04 3.368e-10
 12.81903    174.7 1.110e+04 3.440e-10
 12.83927    174.7 1.108e+04 3.762e-10
 12.85952    174.5 1.121e+04 4.434e-10
 12.87068    173.8 1.154e+04 5.854e-10
 12.87825    174.6 1.145e+04 5.595e-10
 12.88733    175.7 1.137e+04 4.986e-10
 12.90000    174.7 1.185e+04 6.795e-10
 12.92024    172.9 1.285e+04 1.122e-09
 12.94048    170.5 1.409e+04 2.038e-09
 12.95797    167.7 1.515e+04 3.383e-09
 12.96810    168.3 1.538e+04 3.671e-09
 12.98097    165.1 1.609e+04 4.662e-09
 12.99912    161.5 1.614e+04 4.579e-09
 13.00924    162.4 1.591e+04 4.135e-09
 13.02145    158.5 1.577e+04 3.846e-09
 13.04169    154.7 1.511e+04 2.790e-09
 13.05539    150.2 1.409e+04 1.805e-09
 13.06551    149.5 1.480e+04 2.218e-09
 13.08218    143.5 1.451e+04 2.115e-09
 13.10242    138.1 1.441e+04 2.372e-09
 13.12104    134.4 1.442e+04 3.077e-09
 13.13116    136.4 1.413e+04 2.293e-09
 13.14269    133.2 1.425e+04 2.713e-09
 13.15281    132.0 1.427e+04 2.688e-09
 13.16315    129.7 1.417e+04 2.578e-09
 13.18339    127.4 1.388e+04 2.073e-09
 13.20363    124.5 1.337e+04 1.323e-09
 13.22387    120.6 1.246e+04 7.451e-10
 13.24010    116.1 1.114e+04 4.671e-10
 13.24906    114.6 1.073e+04 3.979e-10
 13.25307    116.6 1.120e+04 4.779e-10
 13.26436    112.1 1.081e+04 4.022e-10
 13.28460    110.0 1.058e+04 3.877e-10
 13.31506    106.4 1.080e+04 4.339e-10
 13.33772    101.4 1.095e+04 5.803e-10
 13.35726    103.2 1.066e+04 5.354e-10
 13.37518    105.2 1.056e+04 4.201e-10
 13.39612    100.2 1.088e+04 6.198e-10
 13.43661     95.1 1.112e+04 7.365e-10
 13.47709     90.0 1.111e+04 6.919e-10
 13.51231     85.1 1.086e+04 4.989e-10
 13.53255     87.1 1.069e+04 4.745e-10
 13.55806     82.4 1.008e+04 3.147e-10
 13.59854     78.7 9.334e+03 2.338e-10
 13.61901     76.3 8.842e+03 2.046e-10
 13.63925     78.5 8.952e+03 2.010e-10
 13.67951     76.6 8.636e+03 1.823e-10
 13.70714     75.4 8.502e+03 1.717e-10
 13.72738     77.2 8.427e+03 1.491e-10
 13.76048     76.3 8.347e+03 1.441e-10
 13.80096     75.6 8.347e+03 1.447e-10
 13.84145     74.9 8.377e+03 1.499e-10
 13.86284     74.1 8.509e+03 1.725e-10
 13.88289     75.2 8.482e+03 1.584e-10
 13.90198     76.7 8.476e+03 1.522e-10
 13.92242     75.7 8.669e+03 1.858e-10
 13.96290     74.8 8.930e+03 2.489e-10
 14.00338     74.0 9.173e+03 3.167e-10
 14.04387     73.2 9.264e+03 3.293e-10
 14.07657     72.4 9.245e+03 3.149e-10
 14.09681     73.9 9.291e+03 3.299e-10
 14.10667     73.2 9.228e+03 2.895e-10
 14.12691     73.8 9.391e+03 3.321e-10
 14.16532     73.0 9.256e+03 2.683e-10
 14.20580     72.1 9.154e+03 2.107e-10
 14.24629     71.2 9.203e+03 1.962e-10
 14.27140     69.8 9.277e+03 2.014e-10
 14.29164     71.8 9.525e+03 2.457e-10
 14.32725     69.7 9.835e+03 2.844e-10
 14.35050     66.2 1.064e+04 5.030e-10
 14.37074     67.1 1.074e+04 5.681e-10
 14.40822     64.1 1.166e+04 1.096e-09
 14.44599     61.2 1.217e+04 1.306e-09
 14.46624     63.7 1.239e+04 1.391e-09
 14.48919     60.0 1.245e+04 1.324e-09
 14.52967     56.2 1.226e+04 9.810e-10
 14.57016     52.0 1.167e+04 6.408e-10
 14.59433     48.3 1.105e+04 4.499e-10
 14.61457     49.1 1.100e+04 3.206e-10
 14.64083     45.5 1.074e+04 2.831e-10
 14.66107     47.3 1.100e+04 3.374e-10
 14.69161     44.4 1.093e+04 3.532e-10
 14.73209     42.1 1.095e+04 4.603e-10
 14.77258     41.1 1.089e+04 4.569e-10
 14.81306     40.7 1.080e+04 3.779e-10
 14.83556     40.2 1.097e+04 3.324e-10
 14.84042     40.4 1.111e+04 3.047e-10
 14.85840     42.1 1.128e+04 4.924e-10
 14.89403     40.4 1.151e+04 5.033e-10
 14.93451     38.3 1.206e+04 7.048e-10
 14.97500     36.7 1.259e+04 1.083e-09
 15.00526     36.4 1.274e+04 1.362e-09
 15.02018     36.4 1.277e+04 1.481e-09
 15.03040     36.8 1.301e+04 1.544e-09
 15.04575     36.3 1.310e+04 1.762e-09
 15.06589     35.7 1.315e+04 1.959e-09
 15.08180     35.4 1.306e+04 1.943e-09
 15.09192     36.3 1.303e+04 1.762e-09
 15.10638     35.8 1.292e+04 1.846e-09
 15.11760     35.4 1.285e+04 1.780e-09
 15.12772     36.3 1.322e+04 2.224e-09
 15.14686     35.8 1.311e+04 1.991e-09
 15.16710     35.0 1.279e+04 1.625e-09
 15.18734     34.2 1.233e+04 1.282e-09
 15.20371     33.3 1.193e+04 1.039e-09
 15.21114     34.7 1.244e+04 1.451e-09
 15.21501     34.8 1.274e+04 1.586e-09
 15.22783     33.8 1.236e+04 1.264e-09
 15.24807     32.5 1.199e+04 1.052e-09
 15.26831     30.7 1.175e+04 9.852e-10
 15.28855     28.9 1.172e+04 1.036e-09
 15.30231     27.3 1.176e+04 1.169e-09
 15.31243     27.1 1.158e+04 1.051e-09
 15.32563     25.7 1.183e+04 1.160e-09
 15.33575     26.3 1.211e+04 1.355e-09
 15.34928     24.6 1.254e+04 1.505e-09
 15.36952     20.9 1.351e+04 1.870e-09
 15.38960     17.7 1.328e+04 2.173e-09
 15.39973     16.3 1.248e+04 1.930e-09
 15.41001     15.6 1.199e+04 1.822e-09
 15.43025     15.5 1.150e+04 1.562e-09
 15.44754     14.2 1.178e+04 1.295e-09
 15.45766     14.0 1.234e+04 1.568e-09
 15.47073     10.7 1.259e+04 1.224e-09
 15.48702      6.7 1.169e+04 9.433e-10
 15.49714      6.4 1.104e+04 6.805e-10
 15.51122      3.6 1.015e+04 5.965e-10
 15.53146      2.2 1.008e+04 5.807e-10
 15.55170      0.5 1.024e+04 5.885e-10
 15.56946     -1.4 1.018e+04 5.849e-10
 15.57958     -2.0 1.052e+04 6.822e-10
 15.58444     -3.3 1.009e+04 6.355e-10
 15.59456     -2.4 9.822e+03 5.458e-10
 15.61243     -2.8 9.463e+03 4.730e-10
 15.63267     -3.1 9.327e+03 3.960e-10
 15.65291     -4.0 9.197e+03 3.096e-10
 15.67173     -4.7 9.180e+03 2.773e-10
 15.68186     -3.8 9.173e+03 2.771e-10
 15.69137     -5.4 8.876e+03 2.134e-10
 15.70149     -5.9 8.912e+03 2.170e-10
 15.71364     -6.2 8.963e+03 2.178e-10
 15.73388     -7.5 8.795e+03 1.998e-10
 15.75412     -8.5 9.222e+03 2.358e-10
 15.76915    -13.5 1.206e+04 4.833e-10
 15.78949    -10.5 1.139e+04 3.685e-10
 15.81338    -17.6 1.517e+04 1.929e-09
 15.82341    -17.0 1.468e+04 2.096e-09
 15.83509    -18.1 1.483e+04 4.321e-09
 15.85533    -17.9 1.519e+04 6.308e-09
 15.86657    -17.2 1.591e+04 6.801e-09
 15.87669    -16.8 1.514e+04 6.409e-09
 15.89581    -16.2 1.537e+04 6.915e-09
 15.91606    -16.4 1.683e+04 5.373e-09
 15.93520    -19.1 1.734e+04 3.016e-09
 15.94532    -20.1 1.699e+04 2.530e-09
 15.95386    -26.0 1.328e+04 1.067e-09
 15.96399    -19.8 1.609e+04 2.079e-09
 15.97678    -25.4 1.228e+04 9.435e-10
 15.99702    -27.1 1.079e+04 7.211e-10
 16.01727    -27.3 1.064e+04 6.807e-10
 16.03751    -27.4 1.048e+04 6.328e-10
 16.05128    -27.2 1.030e+04 5.784e-10
 16.06077    -26.2 1.027e+04 5.824e-10
 16.07746    -26.3 1.029e+04 5.636e-10
 16.09833    -26.2 9.823e+03 4.660e-10
 16.11848    -25.7 9.696e+03 4.290e-10
 16.13867    -25.2 9.318e+03 3.444e-10
 16.15901    -23.3 9.402e+03 3.738e-10
 16.18952    -22.1 9.234e+03 3.219e-10
 16.21978    -20.5 9.118e+03 2.847e-10
 16.23599    -19.4 9.049e+03 2.735e-10
 16.24612    -19.0 9.090e+03 2.885e-10
 16.26017    -17.3 9.084e+03 2.785e-10
 16.28041    -16.0 9.302e+03 2.711e-10
 16.30065    -26.5 2.779e+04 1.809e-10
 16.31102    -67.2 9.201e+04 1.959e-10
 16.31603    -62.1 8.311e+04 4.426e-10
 16.32586    -82.1 5.766e+04 7.083e-09
 16.33331    -92.8 2.717e+04 3.178e-07
 16.33837    -95.9 2.548e+04 5.385e-07
 16.34610   -108.3 2.335e+04 1.138e-06
 16.35367   -121.2 2.368e+04 1.279e-06
 16.35762   -136.1 2.771e+04 3.050e-07
 16.36015   -138.6 2.857e+04 1.950e-07
 16.36632   -155.0 2.853e+04 2.757e-08
 16.37193   -171.9 2.036e+04 6.798e-09
 16.37699   -174.0 2.001e+04 5.435e-09
 16.38202   -178.4 1.640e+04 3.567e-09
 16.38708   -180.6 1.533e+04 2.917e-09
 16.39671   -180.6 1.509e+04 2.857e-09
 16.40683   -179.5 1.504e+04 2.948e-09
 16.42066   -178.7 1.516e+04 3.076e-09
 16.43083   -180.6 1.392e+04 1.806e-09
 16.43298   -179.2 1.368e+04 1.748e-09
 16.44310   -179.9 1.286e+04 1.304e-09
 16.46259   -179.0 1.299e+04 1.481e-09
 16.48283   -178.1 1.360e+04 1.877e-09
 16.50307   -177.0 1.414e+04 2.311e-09
 16.51812   -176.1 1.449e+04 2.674e-09
 16.52824   -176.8 1.312e+04 1.352e-09
 16.54356   -176.3 1.326e+04 1.391e-09
 16.55490   -176.0 1.328e+04 1.394e-09
 16.56502   -176.1 1.213e+04 9.869e-10
 16.58404   -175.9 1.205e+04 8.952e-10
 16.60428   -175.8 1.192e+04 7.944e-10
 16.61554   -175.6 1.173e+04 7.026e-10
 16.62566   -177.5 1.006e+04 4.002e-10
 16.64477   -177.4 9.979e+03 3.806e-10
 16.66501   -177.3 9.955e+03 3.755e-10
 16.67681   -177.1 9.960e+03 3.758e-10
 16.68693   -177.2 9.795e+03 3.639e-10
 16.70284   -177.0 9.913e+03 3.809e-10
 16.71296   -178.3 9.846e+03 3.623e-10
 16.72574   -178.0 9.938e+03 3.792e-10
 16.74598   -177.7 9.982e+03 3.895e-10
 16.76622   -177.3 9.990e+03 3.920e-10
 16.78646   -176.9 9.978e+03 3.907e-10
 16.79873   -176.5 9.943e+03 3.795e-10
 16.80240   -176.9 9.979e+03 3.833e-10
 16.81037   -178.0 9.890e+03 3.508e-10
 16.82695   -177.7 9.871e+03 3.395e-10
 16.84719   -177.3 9.876e+03 3.356e-10
 16.86743   -177.0 9.884e+03 3.352e-10
 16.88755   -176.7 9.963e+03 3.366e-10
 16.89767   -178.0 1.014e+04 3.414e-10
 16.90791   -177.8 1.032e+04 3.685e-10
 16.92064   -177.7 1.047e+04 4.106e-10
 16.93076   -179.0 1.077e+04 5.123e-10
 16.94840   -179.2 1.097e+04 5.761e-10
 16.96864   -179.6 1.123e+04 6.560e-10
 16.98497   -180.3 1.159e+04 7.688e-10
 16.99509   -181.9 1.187e+04 9.530e-10
 17.00912   -182.9 1.227e+04 1.158e-09
 17.02936   -183.8 1.263e+04 1.411e-09
 17.04256   -184.5 1.292e+04 1.676e-09
 17.05268   -186.1 1.293e+04 1.789e-09
 17.06985   -186.5 1.297e+04 1.850e-09
 17.08238   -186.9 1.291e+04 1.834e-09
 17.09250   -188.2 1.253e+04 1.628e-09
 17.11033   -188.4 1.210e+04 1.359e-09
 17.13057   -188.8 1.173e+04 1.141e-09
 17.15082   -189.1 1.157e+04 1.034e-09
 17.16447   -189.4 1.156e+04 1.014e-09
 17.17321   -189.9 1.122e+04 8.541e-10
 17.17980   -190.9 1.064e+04 6.634e-10
 17.19130   -190.9 1.066e+04 6.627e-10
 17.21154   -191.4 1.089e+04 6.814e-10
 17.23178   -192.7 1.219e+04 9.178e-10
 17.25203   -193.8 1.369e+04 1.543e-09
 17.26710   -194.1 1.483e+04 2.640e-09
 17.27722   -193.9 1.329e+04 1.235e-09
 17.28639   -194.1 1.417e+04 1.898e-09
 17.29651   -194.3 1.395e+04 1.566e-09
 17.31275   -194.3 1.453e+04 2.257e-09
 17.33299   -194.0 1.479e+04 2.949e-09
 17.35324   -193.6 1.482e+04 3.463e-09
 17.36451   -193.3 1.476e+04 3.678e-09
 17.37463   -193.2 1.373e+04 1.906e-09
 17.39372   -192.8 1.377e+04 2.059e-09
 17.40830   -192.4 1.375e+04 2.103e-09
 17.41842   -193.3 1.383e+04 1.908e-09
 17.43420   -193.2 1.388e+04 1.968e-09
 17.45181   -193.3 1.390e+04 2.006e-09
 17.46193   -193.4 1.304e+04 1.541e-09
 17.47469   -193.3 1.304e+04 1.572e-09
 17.49493   -193.2 1.303e+04 1.601e-09
 17.51517   -193.0 1.303e+04 1.637e-09
 17.53022   -192.7 1.307e+04 1.680e-09
 17.54034   -193.8 1.305e+04 1.828e-09
 17.54923   -193.3 1.289e+04 1.766e-09
 17.55935   -192.4 1.255e+04 1.575e-09
 17.57590   -191.8 1.240e+04 1.430e-09
 17.59614   -191.2 1.223e+04 1.258e-09
 17.61638   -190.7 1.202e+04 1.080e-09
 17.63652   -190.1 1.178e+04 9.115e-10
 17.64664   -189.1 1.165e+04 9.259e-10
 17.65213   -188.4 1.144e+04 8.076e-10
 17.66225   -188.9 1.133e+04 7.430e-10
 17.67711   -188.2 1.121e+04 6.325e-10
 17.69735   -187.4 1.111e+04 5.390e-10
 17.71759   -186.7 1.101e+04 4.586e-10
 17.73394   -186.0 1.087e+04 3.914e-10
 17.74406   -185.0 1.097e+04 4.568e-10
 17.75808   -184.3 1.085e+04 3.835e-10
 17.77405   -183.7 1.066e+04 3.266e-10
 17.78417   -185.0 1.069e+04 3.393e-10
 17.79856   -184.3 1.039e+04 3.176e-10
 17.81880   -183.5 1.020e+04 3.135e-10
 17.83136   -182.5 1.015e+04 3.128e-10
 17.84148   -182.2 1.022e+04 3.188e-10
 17.85929   -181.3 1.015e+04 3.164e-10
 17.87953   -180.2 1.010e+04 3.207e-10
 17.89596   -179.1 1.009e+04 3.367e-10
 17.90608   -180.0 1.029e+04 4.145e-10
 17.91865   -178.8 1.032e+04 4.258e-10
 17.92877   -178.8 1.061e+04 4.690e-10
 17.94025   -177.6 1.054e+04 4.672e-10
 17.96050   -176.3 1.050e+04 4.692e-10
 17.98074   -175.1 1.054e+04 4.734e-10
 18.00098   -174.0 1.060e+04 4.864e-10
 18.01607   -172.9 1.077e+04 5.137e-10
 18.02284   -172.8 1.077e+04 5.373e-10
 18.02800   -173.7 1.105e+04 6.192e-10
 18.04146   -172.9 1.137e+04 6.855e-10
 18.06171   -172.1 1.175e+04 7.954e-10
 18.08195   -171.5 1.227e+04 9.511e-10
 18.10219   -170.9 1.286e+04 1.185e-09
 18.11349   -170.5 1.337e+04 1.521e-09
 18.12361   -169.6 1.300e+04 1.321e-09
 18.13979   -169.1 1.353e+04 1.660e-09
 18.14991   -169.9 1.330e+04 1.825e-09
 18.16292   -169.1 1.383e+04 2.235e-09
 18.18316   -168.2 1.438e+04 2.734e-09
 18.20078   -167.0 1.485e+04 3.248e-09
 18.21090   -166.7 1.437e+04 2.995e-09
 18.22364   -165.7 1.489e+04 3.738e-09
 18.24388   -165.0 1.542e+04 4.494e-09
 18.26171   -164.8 1.649e+04 5.480e-09
 18.27183   -167.4 1.758e+04 5.152e-09
 18.28437   -170.7 2.089e+04 8.568e-09
 18.29815   -172.0 2.213e+04 1.299e-08
 18.30316   -171.9 2.166e+04 1.385e-08
 18.30957   -174.1 2.216e+04 2.132e-08
 18.31969   -176.1 2.236e+04 3.430e-08
 18.32763   -178.4 2.239e+04 5.757e-08
 18.33269   -180.4 2.203e+04 8.801e-08
 18.33994   -182.9 2.241e+04 1.242e-07
 18.34681   -185.9 2.281e+04 1.490e-07
 18.35187   -185.3 2.250e+04 1.335e-07
 18.36018   -188.5 2.289e+04 1.408e-07
 18.37030   -191.7 2.312e+04 1.389e-07
 18.38042   -194.8 2.392e+04 1.235e-07
 18.38858   -197.9 2.518e+04 1.029e-07
 18.39356   -198.1 2.457e+04 5.557e-08
 18.39552   -198.4 2.275e+04 3.627e-08
 18.40066   -201.8 2.281e+04 2.498e-08
 18.41078   -205.4 2.274e+04 1.701e-08
 18.42090   -209.2 2.221e+04 1.156e-08
 18.43102   -212.9 2.086e+04 7.983e-09
 18.43917   -216.2 1.893e+04 5.815e-09
 18.44423   -216.8 1.662e+04 4.231e-09
 18.44954   -218.5 1.591e+04 3.695e-09
 18.45460   -217.5 1.567e+04 3.330e-09
 18.46139   -218.8 1.556e+04 3.289e-09
 18.47151   -219.6 1.559e+04 3.343e-09
 18.48286   -220.7 1.499e+04 3.278e-09
 18.49303   -220.4 1.373e+04 2.294e-09
 18.50554   -221.3 1.290e+04 1.988e-09
 18.51566   -220.5 1.226e+04 1.339e-09
 18.52727   -220.5 1.217e+04 1.301e-09
 18.54751   -220.2 1.215e+04 1.280e-09
 18.56776   -219.9 1.215e+04 1.240e-09
 18.58033   -219.5 1.212e+04 1.188e-09
 18.59045   -219.5 1.156e+04 8.840e-10
 18.60824   -219.0 1.151e+04 8.351e-10
 18.62745   -218.5 1.151e+04 8.170e-10
 18.63757   -218.2 1.081e+04 5.383e-10
 18.64872   -217.7 1.082e+04 5.326e-10
 18.66762   -217.2 1.089e+04 5.330e-10
 18.67775   -216.9 1.033e+04 4.251e-10
 18.68921   -216.4 1.043e+04 4.249e-10
 18.70945   -215.8 1.067e+04 4.551e-10
 18.72969   -215.2 1.090e+04 5.230e-10
 18.74937   -214.4 1.110e+04 6.181e-10
 18.75949   -214.4 1.037e+04 3.971e-10
 18.76504   -213.7 1.058e+04 4.626e-10
 18.77516   -213.4 1.007e+04 3.709e-10
 18.79042   -212.7 1.024e+04 4.167e-10
 18.81066   -212.0 1.036e+04 4.570e-10
 18.83090   -211.2 1.040e+04 4.840e-10
 18.85114   -210.5 1.040e+04 4.921e-10
 18.86246   -209.7 1.039e+04 4.933e-10
 18.87247   -209.3 1.005e+04 4.238e-10
 18.88140   -209.2 9.723e+03 3.645e-10
 18.89163   -208.3 9.698e+03 3.659e-10
 18.91187   -207.5 9.678e+03 3.658e-10
 18.93211   -206.5 9.663e+03 3.683e-10
 18.94975   -205.8 9.653e+03 3.706e-10
 18.95997   -205.6 9.551e+03 3.463e-10
 18.98291   -203.9 9.526e+03 3.448e-10
 19.00351   -202.1 9.549e+03 3.634e-10
 19.02375   -202.9 9.403e+03 3.424e-10
 19.06388   -201.2 9.494e+03 3.699e-10
 19.10436   -199.5 9.581e+03 3.964e-10
 19.13466   -198.1 9.590e+03 4.099e-10
 19.15490   -198.0 9.521e+03 3.952e-10
 19.18533   -196.7 9.551e+03 4.106e-10
 19.22582   -195.5 9.552e+03 4.130e-10
 19.24734   -194.1 9.480e+03 4.036e-10
 19.26758   -194.7 9.519e+03 4.132e-10
 19.30678   -193.2 9.405e+03 3.785e-10
 19.32950   -191.7 9.231e+03 3.318e-10
 19.34974   -191.3 9.188e+03 3.356e-10
 19.38775   -189.6 8.946e+03 2.845e-10
 19.42824   -187.6 8.698e+03 2.392e-10
 19.46872   -185.6 8.496e+03 2.035e-10
 19.49117   -183.6 8.367e+03 1.783e-10
 19.50630   -184.1 8.254e+03 1.470e-10
 19.52433   -183.6 8.151e+03 1.302e-10
 19.54969   -181.7 8.061e+03 1.087e-10
 19.59017   -179.8 7.998e+03 9.327e-11
 19.63066   -177.9 7.953e+03 8.282e-11
 19.67114   -176.1 7.919e+03 7.599e-11
 19.69892   -174.3 7.886e+03 7.135e-11
 19.71916   -174.2 7.832e+03 6.532e-11
 19.73500   -172.4 7.829e+03 6.453e-11
 19.75524   -172.5 7.799e+03 5.934e-11
 19.79259   -171.3 7.860e+03 6.052e-11
 19.83308   -171.1 8.018e+03 6.430e-11
 19.87351   -171.7 8.549e+03 8.575e-11
 19.91400   -174.9 1.024e+04 4.258e-10
 19.95453   -175.1 1.074e+04 6.422e-10
 19.97883   -175.3 1.099e+04 7.848e-10
 19.99907   -177.0 1.155e+04 1.112e-09
 20.03550   -176.9 1.124e+04 9.348e-10
 20.06835   -176.7 1.089e+04 7.568e-10
 20.08859   -178.8 1.060e+04 6.072e-10
 20.11646   -177.9 1.057e+04 5.843e-10
 20.15695   -176.7 1.058e+04 5.841e-10
 20.19743   -175.3 1.066e+04 5.959e-10
 20.22266   -173.9 1.069e+04 5.987e-10
 20.24290   -173.8 1.066e+04 5.302e-10
 20.26318   -172.1 1.071e+04 5.354e-10
 20.28342   -172.9 1.069e+04 5.330e-10
 20.31888   -171.0 1.072e+04 5.267e-10
 20.35937   -169.1 1.072e+04 4.998e-10
 20.39985   -167.2 1.073e+04 4.751e-10
 20.43777   -165.3 1.074e+04 4.697e-10
 20.45802   -166.0 1.046e+04 3.810e-10
 20.46649   -164.4 1.066e+04 4.267e-10
 20.48673   -164.3 1.046e+04 3.302e-10
 20.52130   -163.0 1.068e+04 3.858e-10
 20.56179   -161.9 1.093e+04 4.718e-10
 20.60227   -161.1 1.114e+04 5.675e-10
 20.63261   -160.4 1.129e+04 6.321e-10
 20.65285   -160.6 1.095e+04 5.277e-10
 20.68324   -159.5 1.112e+04 5.852e-10
 20.71032   -158.4 1.117e+04 5.901e-10
 20.73056   -158.5 1.101e+04 5.175e-10
 20.76421   -157.5 1.103e+04 5.035e-10
 20.80469   -156.2 1.087e+04 3.804e-10
 20.82744   -154.8 1.062e+04 2.543e-10
 20.84768   -154.5 1.062e+04 2.951e-10
 20.88566   -152.9 1.034e+04 1.809e-10
 20.92614   -151.3 1.015e+04 1.173e-10
 20.95415   -149.7 1.007e+04 9.235e-11
 20.97439   -149.3 1.003e+04 8.322e-11
 21.00203   -147.5 1.000e+04 7.295e-11
 21.02228   -147.7 1.014e+04 7.867e-11
 21.04759   -146.0 1.014e+04 7.576e-11
 21.08808   -144.3 1.018e+04 7.604e-11
 21.12856   -142.8 1.035e+04 9.301e-11
 21.16905   -141.3 1.048e+04 1.382e-10
 21.19687   -139.7 1.061e+04 2.174e-10
 21.20556   -140.0 1.069e+04 2.655e-10
 21.21822   -139.8 1.069e+04 2.415e-10
 21.25001   -138.0 1.085e+04 3.353e-10
 21.29050   -136.3 1.105e+04 4.510e-10
 21.33098   -134.6 1.124e+04 5.599e-10
 21.37146   -133.1 1.140e+04 6.535e-10
 21.41194   -132.3 1.112e+04 4.710e-10
 21.44181   -131.0 1.127e+04 5.404e-10
 21.46205   -130.7 1.132e+04 6.043e-10
 21.49292   -129.4 1.151e+04 6.994e-10
 21.53340   -128.3 1.168e+04 7.907e-10
 21.56629   -127.0 1.176e+04 8.354e-10
 21.58653   -127.7 1.137e+04 5.832e-10
 21.61437   -126.4 1.131e+04 5.674e-10
 21.65485   -125.1 1.124e+04 5.256e-10
 21.68564   -124.2 1.124e+04 5.017e-10
 21.70588   -124.2 1.101e+04 4.503e-10
 21.73582   -124.0 1.109e+04 4.517e-10
 21.76113   -124.5 1.164e+04 5.952e-10
 21.78137   -126.3 1.188e+04 6.652e-10
 21.81679   -127.6 1.283e+04 1.203e-09
 21.84706   -127.9 1.352e+04 1.895e-09
 21.85835   -128.4 1.400e+04 2.457e-09
 21.86847   -129.4 1.388e+04 2.188e-09
 21.88744   -130.0 1.404e+04 2.312e-09
 21.90768   -130.7 1.405e+04 2.311e-09
 21.92793   -131.2 1.389e+04 2.011e-09
 21.93940   -132.0 1.362e+04 1.545e-09
 21.94699   -132.6 1.423e+04 2.166e-09
 21.95577   -135.4 1.430e+04 2.130e-09
 21.96841   -137.6 1.451e+04 1.893e-09
 21.98865   -140.4 1.469e+04 1.864e-09
 22.00889   -143.1 1.506e+04 2.188e-09
 22.02914   -145.0 1.526e+04 3.042e-09
 22.04306   -146.1 1.534e+04 4.157e-09
 22.05318   -146.8 1.485e+04 3.757e-09
 22.06131   -147.6 1.488e+04 4.082e-09
 22.07143   -147.8 1.517e+04 4.908e-09
 22.08986   -148.7 1.478e+04 4.315e-09
 22.11010   -149.4 1.427e+04 3.598e-09
 22.13035   -150.1 1.368e+04 2.917e-09
 22.15059   -151.0 1.286e+04 2.032e-09
 22.17083   -151.4 1.253e+04 1.704e-09
 22.18323   -151.6 1.220e+04 1.407e-09
 22.19335   -151.6 1.222e+04 1.506e-09
 22.21131   -151.6 1.196e+04 1.255e-09
 22.22777   -151.5 1.169e+04 1.004e-09
 22.23790   -151.5 1.170e+04 1.021e-09
 22.25180   -151.5 1.145e+04 8.241e-10
 22.27204   -151.4 1.119e+04 6.575e-10
 22.29228   -151.3 1.096e+04 5.262e-10
 22.30514   -151.2 1.077e+04 4.269e-10
 22.31526   -151.0 1.091e+04 5.044e-10
 22.32519   -150.9 1.075e+04 4.122e-10
 22.33531   -150.8 1.086e+04 4.828e-10
 22.35301   -150.7 1.075e+04 4.130e-10
 22.37325   -150.7 1.066e+04 3.657e-10
 22.39349   -150.6 1.058e+04 3.436e-10
 22.41703   -150.6 1.054e+04 3.330e-10
 22.43737   -150.1 1.067e+04 3.918e-10
 22.46453   -149.6 1.048e+04 3.288e-10
 22.49998   -149.3 1.042e+04 2.992e-10
 22.52022   -149.4 1.058e+04 3.804e-10
 22.54550   -148.8 1.055e+04 3.553e-10
 22.58599   -148.2 1.053e+04 3.267e-10
 22.62647   -147.6 1.047e+04 3.001e-10
 22.66096   -146.9 1.040e+04 2.750e-10
 22.68120   -146.6 1.043e+04 2.909e-10
 22.69481   -145.8 1.036e+04 2.698e-10
 22.71505   -145.4 1.033e+04 2.634e-10
 22.74792   -144.4 1.025e+04 2.367e-10
 22.78841   -143.3 1.020e+04 2.183e-10
 22.82889   -142.2 1.017e+04 2.050e-10
 22.86937   -141.0 1.015e+04 1.914e-10
 22.90479   -139.1 1.015e+04 1.878e-10
 22.92503   -138.9 1.015e+04 1.943e-10
 22.95034   -137.7 1.017e+04 1.913e-10
 22.99083   -136.5 1.019e+04 1.911e-10
 23.03131   -135.5 1.026e+04 1.946e-10
 23.06424   -134.8 1.037e+04 2.149e-10
 23.08448   -134.0 1.048e+04 2.686e-10
 23.11228   -133.3 1.058e+04 3.147e-10
 23.14862   -132.6 1.071e+04 3.888e-10
 23.16886   -132.4 1.050e+04 3.060e-10
 23.19325   -131.8 1.060e+04 3.866e-10
 23.23373   -131.1 1.073e+04 4.878e-10
 23.25907   -130.5 1.083e+04 5.767e-10
 23.27931   -129.4 1.083e+04 5.689e-10
 23.31470   -128.7 1.088e+04 6.345e-10
 23.34496   -128.3 1.078e+04 6.157e-10
 23.35629   -128.0 1.074e+04 6.136e-10
 23.36641   -127.5 1.074e+04 6.228e-10
 23.38535   -127.2 1.070e+04 6.144e-10
 23.40238   -127.0 1.069e+04 6.165e-10
 23.41259   -127.3 1.046e+04 5.123e-10
 23.43366   -126.7 1.027e+04 4.752e-10
 23.45391   -125.1 1.030e+04 5.202e-10
 23.47663   -124.7 1.022e+04 4.771e-10
 23.51712   -124.3 1.003e+04 4.171e-10
 23.55760   -124.0 9.838e+03 3.658e-10
 23.59809   -123.7 9.620e+03 3.232e-10
 23.62850   -123.1 9.426e+03 2.974e-10
 23.64645   -121.4 9.554e+03 3.304e-10
 23.65652   -120.9 9.528e+03 3.173e-10
 23.67905   -120.3 9.247e+03 2.582e-10
 23.71954   -119.6 8.939e+03 2.118e-10
 23.76002   -118.6 8.695e+03 1.788e-10
 23.80050   -117.3 8.594e+03 1.642e-10
 23.82333   -115.7 8.577e+03 1.615e-10
 23.84357   -114.8 8.749e+03 1.850e-10
 23.88011   -113.2 8.751e+03 1.875e-10
 23.90035   -113.3 8.741e+03 1.747e-10
 23.92196   -111.6 8.781e+03 1.866e-10
 23.96244   -109.8 8.802e+03 2.002e-10
 23.99792   -107.8 8.797e+03 2.102e-10
 24.01817   -107.4 9.051e+03 2.605e-10
 24.04341   -105.2 8.881e+03 2.307e-10
 24.08389   -102.9 8.746e+03 2.083e-10
 24.12394   -100.5 8.734e+03 2.001e-10
 24.14418   -101.7 8.911e+03 2.196e-10
 24.16486    -99.8 9.147e+03 2.504e-10
 24.19276    -98.1 9.710e+03 3.465e-10
 24.21300    -99.2 9.860e+03 3.865e-10
 24.24583    -97.7 1.052e+04 5.948e-10
 24.28631    -96.2 1.119e+04 8.712e-10
 24.31658    -96.4 1.154e+04 1.044e-09
 24.33672    -96.3 1.165e+04 1.083e-09
 24.35696    -96.5 1.183e+04 1.126e-09
 24.37721    -97.6 1.230e+04 1.215e-09
 24.38782    -99.5 1.195e+04 9.781e-10
 24.39794   -102.3 1.283e+04 1.070e-09
 24.41769   -104.8 1.367e+04 1.403e-09
 24.43793   -107.3 1.424e+04 1.889e-09
 24.45817   -109.0 1.451e+04 2.383e-09
 24.47469   -110.1 1.459e+04 2.650e-09
 24.48481   -107.5 1.315e+04 1.595e-09
 24.49866   -108.1 1.323e+04 1.726e-09
 24.50973   -108.6 1.338e+04 1.752e-09
 24.51985   -109.8 1.338e+04 1.875e-09
 24.53914   -110.1 1.345e+04 1.803e-09
 24.55938   -110.4 1.386e+04 1.834e-09
 24.57211   -110.7 1.472e+04 2.282e-09
 24.58223   -108.9 1.308e+04 1.513e-09
 24.59987   -110.0 1.630e+04 1.608e-09
 24.61500   -117.5 2.680e+04 2.357e-09
 24.62072   -123.8 2.751e+04 7.790e-09
 24.62578   -123.2 2.962e+04 4.749e-09
 24.63155   -129.1 2.826e+04 2.013e-08
 24.63661   -126.9 2.795e+04 1.117e-08
 24.64531   -131.4 2.533e+04 6.288e-08
 24.65544   -134.8 2.417e+04 2.000e-07
 24.66437   -139.5 2.381e+04 3.557e-07
 24.66943   -138.8 2.406e+04 3.572e-07
 24.67568   -145.8 2.417e+04 4.270e-07
 24.68580   -154.9 2.483e+04 3.537e-07
 24.69251   -165.3 2.552e+04 1.212e-07
 24.69757   -163.4 2.582e+04 1.489e-07
 24.70604   -173.2 2.359e+04 4.333e-08
 24.71308   -177.1 2.011e+04 2.504e-08
 24.71814   -179.0 2.008e+04 2.554e-08
 24.72628   -179.5 1.864e+04 2.007e-08
 24.73640   -178.6 1.834e+04 1.806e-08
 24.74652   -177.0 1.858e+04 1.685e-08
 24.75346   -176.1 1.881e+04 1.646e-08
 24.75852   -175.8 1.871e+04 1.656e-08
 24.76178   -175.5 1.898e+04 1.633e-08
 24.76684   -175.9 1.860e+04 1.421e-08
 24.77689   -175.7 1.868e+04 1.373e-08
 24.78701   -175.5 1.874e+04 1.348e-08
 24.79713   -175.3 1.878e+04 1.344e-08
 24.80543   -175.2 1.892e+04 1.346e-08
 24.81049   -175.4 1.856e+04 1.136e-08
 24.81442   -175.4 1.869e+04 1.146e-08
 24.81948   -175.2 1.827e+04 9.270e-09
 24.82749   -175.2 1.850e+04 9.434e-09
 24.83761   -175.2 1.875e+04 1.002e-08
 24.84773   -175.2 1.901e+04 1.097e-08
 24.85414   -175.4 1.923e+04 1.227e-08
 24.85920   -175.2 1.852e+04 9.015e-09
 24.86798   -175.3 1.866e+04 9.765e-09
 24.87543   -175.3 1.879e+04 1.067e-08
 24.88049   -175.3 1.809e+04 7.504e-09
 24.88822   -175.3 1.823e+04 7.953e-09
 24.90345   -175.4 1.828e+04 8.078e-09
 24.92374   -175.1 1.885e+04 1.273e-08
 24.94153   -174.5 1.908e+04 1.738e-08
 24.95166   -173.9 1.844e+04 1.110e-08
 24.96422   -173.0 1.879e+04 1.556e-08
 24.98447   -172.0 1.904e+04 1.915e-08
 24.99739   -171.0 1.913e+04 2.040e-08
 25.00751   -171.4 1.821e+04 1.345e-08
 25.02495   -170.3 1.830e+04 1.535e-08
 25.03895   -169.5 1.836e+04 1.604e-08
 25.04907   -168.9 1.859e+04 1.613e-08
 25.06543   -168.0 1.861e+04 1.706e-08
 25.08568   -167.2 1.851e+04 1.684e-08
 25.10592   -166.3 1.831e+04 1.611e-08
 25.11931   -165.4 1.802e+04 1.469e-08
 25.12943   -165.3 1.713e+04 9.599e-09
 25.14640   -163.6 1.717e+04 9.033e-09
 25.16664   -162.6 1.689e+04 8.532e-09
 25.18689   -161.7 1.645e+04 7.733e-09
 25.20713   -160.7 1.598e+04 6.688e-09
 25.22366   -159.9 1.541e+04 5.677e-09
 25.23379   -159.2 1.587e+04 5.398e-09
 25.24122   -158.4 1.538e+04 4.708e-09
 25.25134   -158.6 1.407e+04 2.359e-09
 25.26785   -157.6 1.377e+04 2.306e-09
 25.28810   -156.6 1.364e+04 2.312e-09
 25.30834   -155.6 1.355e+04 2.398e-09
 25.32108   -154.7 1.361e+04 2.568e-09
 25.33120   -154.9 1.435e+04 2.866e-09
 25.34882   -154.1 1.450e+04 3.338e-09
 25.36314   -153.3 1.480e+04 4.029e-09
 25.37326   -153.3 1.430e+04 3.070e-09
 25.38931   -152.5 1.483e+04 4.085e-09
 25.40838   -151.8 1.558e+04 5.616e-09
 25.41850   -151.5 1.590e+04 5.869e-09
 25.42979   -150.6 1.657e+04 7.868e-09
 25.45003   -149.7 1.739e+04 1.054e-08
 25.47027   -149.0 1.816e+04 1.356e-08
 25.48505   -148.5 1.871e+04 1.592e-08
 25.49517   -148.8 1.796e+04 1.310e-08
 25.50579   -148.6 1.807e+04 1.402e-08
 25.51591   -148.3 1.713e+04 8.220e-09
 25.53100   -148.0 1.723e+04 9.278e-09
 25.55124   -147.4 1.717e+04 9.766e-09
 25.57148   -146.6 1.708e+04 9.850e-09
 25.59173   -145.8 1.653e+04 8.605e-09
 25.60321   -145.0 1.608e+04 7.092e-09
 25.60833   -144.9 1.628e+04 6.825e-09
 25.61709   -144.9 1.547e+04 5.187e-09
 25.63221   -144.1 1.538e+04 5.244e-09
 25.65245   -143.3 1.499e+04 4.602e-09
 25.67269   -142.6 1.467e+04 3.966e-09
 25.69051   -141.9 1.428e+04 3.415e-09
 25.70063   -141.7 1.435e+04 3.509e-09
 25.71318   -141.1 1.400e+04 3.064e-09
 25.72888   -140.4 1.358e+04 2.637e-09
 25.73900   -140.0 1.368e+04 2.860e-09
 25.75366   -139.3 1.330e+04 2.367e-09
 25.77390   -138.6 1.283e+04 1.927e-09
 25.78792   -137.9 1.233e+04 1.575e-09
 25.79804   -137.7 1.243e+04 1.631e-09
 25.81439   -137.0 1.194e+04 1.343e-09
 25.83463   -136.2 1.157e+04 1.096e-09
 25.85080   -135.5 1.119e+04 9.046e-10
 25.86092   -135.4 1.123e+04 8.949e-10
 25.87511   -134.8 1.090e+04 7.513e-10
 25.88534   -134.1 1.062e+04 6.438e-10
 25.89546   -134.2 1.083e+04 6.631e-10
 25.91560   -133.7 1.065e+04 5.693e-10
 25.93584   -133.1 1.055e+04 5.125e-10
 25.95608   -132.6 1.050e+04 4.949e-10
 25.97264   -132.2 1.049e+04 4.924e-10
 25.98276   -133.1 1.104e+04 7.328e-10
 25.99657   -132.9 1.105e+04 7.345e-10
 26.01681   -132.9 1.116e+04 7.726e-10
 26.03705   -133.2 1.139e+04 9.087e-10
 26.05729   -133.6 1.174e+04 1.146e-09
 26.07005   -134.0 1.219e+04 1.497e-09
 26.08017   -133.9 1.242e+04 1.567e-09
 26.09463   -134.5 1.314e+04 2.117e-09
 26.10475   -135.0 1.349e+04 2.497e-09
 26.11802   -135.5 1.403e+04 3.100e-09
 26.13826   -136.0 1.431e+04 3.493e-09
 26.15735   -136.4 1.436e+04 3.581e-09
 26.16747   -136.4 1.516e+04 5.082e-09
 26.17874   -136.5 1.507e+04 5.040e-09
 26.19899   -136.3 1.446e+04 4.098e-09
 26.21654   -136.0 1.352e+04 2.781e-09
 26.22666   -135.9 1.330e+04 2.681e-09
 26.23947   -135.7 1.234e+04 1.745e-09
 26.25477   -135.6 1.146e+04 1.152e-09
 26.26489   -135.1 1.200e+04 1.415e-09
 26.27995   -135.1 1.126e+04 9.473e-10
 26.30020   -134.9 1.068e+04 6.947e-10
 26.32044   -134.4 1.031e+04 5.631e-10
 26.33846   -133.8 1.011e+04 4.968e-10
 26.34858   -133.3 1.020e+04 5.365e-10
 26.35218   -132.5 1.011e+04 5.044e-10
 26.36230   -132.7 1.033e+04 5.940e-10
 26.38116   -131.9 1.031e+04 5.907e-10
 26.40140   -131.2 1.029e+04 5.962e-10
 26.42165   -130.5 1.032e+04 6.257e-10
 26.43948   -129.9 1.036e+04 6.575e-10
 26.44960   -129.8 1.056e+04 8.006e-10
 26.46037   -129.2 1.056e+04 8.112e-10
 26.47049   -128.6 1.067e+04 8.153e-10
 26.48237   -128.1 1.066e+04 8.168e-10
 26.50261   -127.6 1.059e+04 7.936e-10
 26.52286   -126.9 1.049e+04 7.322e-10
 26.53690   -126.3 1.037e+04 6.537e-10
 26.54702   -126.2 1.038e+04 6.637e-10
 26.56334   -125.7 1.022e+04 5.679e-10
 26.58229   -125.3 1.007e+04 4.755e-10
 26.59241   -124.9 1.029e+04 5.641e-10
 26.60382   -124.6 1.018e+04 4.705e-10
 26.62407   -124.6 1.010e+04 3.973e-10
 26.63431   -124.6 1.005e+04 3.571e-10
 26.64443   -124.9 1.004e+04 3.424e-10
 26.67477   -125.1 1.002e+04 3.308e-10
 26.71535   -125.4 9.935e+03 2.981e-10
 26.75584   -125.1 9.851e+03 2.829e-10
 26.79632   -124.5 9.815e+03 2.632e-10
 26.81922   -123.5 9.848e+03 2.463e-10
 26.82897   -123.4 9.715e+03 2.092e-10
 26.84655   -125.0 9.982e+03 2.145e-10
 26.87729   -123.6 1.032e+04 2.197e-10
 26.91777   -122.4 1.087e+04 2.600e-10
 26.94804   -122.1 1.116e+04 3.134e-10
 26.96818   -128.9 1.699e+04 6.582e-10
 26.98842   -136.2 2.220e+04 2.064e-09
 27.00356   -140.9 2.244e+04 7.228e-09
 27.00870   -142.0 2.211e+04 1.528e-08
 27.01376   -142.0 2.120e+04 2.781e-08
 27.01901   -141.9 2.119e+04 5.448e-08
 27.02407   -141.2 2.107e+04 6.426e-08
 27.03387   -140.8 2.143e+04 1.038e-07
 27.04399   -140.6 2.184e+04 1.470e-07
 27.05235   -141.2 2.217e+04 1.772e-07
 27.05741   -141.8 2.247e+04 1.519e-07
 27.06423   -143.4 2.276e+04 1.445e-07
 27.07435   -144.9 2.321e+04 9.901e-08
 27.07997   -146.6 2.333e+04 5.693e-08
 27.08503   -146.7 2.409e+04 4.396e-08
 27.09460   -149.5 2.291e+04 2.461e-08
 27.10106   -152.4 2.060e+04 1.453e-08
 27.10612   -155.5 1.778e+04 8.973e-09
 27.11484   -156.7 1.612e+04 6.615e-09
 27.12496   -157.2 1.519e+04 5.188e-09
 27.13508   -157.3 1.462e+04 4.288e-09
 27.15031   -157.4 1.414e+04 3.535e-09
 27.17060   -157.0 1.319e+04 2.349e-09
 27.18845   -156.7 1.181e+04 1.381e-09
 27.19857   -158.1 1.128e+04 1.157e-09
 27.20198   -157.6 1.086e+04 8.912e-10
 27.21210   -157.8 1.121e+04 1.154e-09
 27.23133   -156.9 1.098e+04 9.880e-10
 27.25157   -155.7 1.089e+04 9.068e-10
 27.27181   -154.5 1.087e+04 8.806e-10
 27.28587   -153.5 1.086e+04 8.759e-10
 27.29599   -154.1 1.116e+04 1.028e-09
 27.31229   -153.2 1.116e+04 1.026e-09
 27.32390   -152.3 1.122e+04 1.060e-09
 27.33402   -152.6 1.195e+04 1.626e-09
 27.35278   -151.8 1.207e+04 1.703e-09
 27.37302   -151.0 1.220e+04 1.806e-09
 27.38329   -150.0 1.226e+04 1.905e-09
 27.39341   -150.3 1.205e+04 1.744e-09
 27.41350   -149.5 1.199e+04 1.706e-09
 27.43375   -148.6 1.185e+04 1.632e-09
 27.44581   -147.7 1.167e+04 1.524e-09
 27.45593   -148.1 1.193e+04 1.722e-09
 27.47058   -147.1 1.165e+04 1.537e-09
 27.48070   -147.1 1.136e+04 1.357e-09
 27.49447   -146.0 1.113e+04 1.215e-09
 27.51471   -144.9 1.092e+04 1.085e-09
 27.53496   -143.8 1.071e+04 9.612e-10
 27.55520   -142.6 1.050e+04 8.476e-10
 27.56773   -141.4 1.031e+04 7.431e-10
 27.57040   -141.3 1.046e+04 8.216e-10
 27.57812   -141.1 1.027e+04 7.479e-10
 27.59568   -139.8 1.011e+04 6.612e-10
 27.61592   -138.4 9.966e+03 5.843e-10
 27.63617   -137.0 9.877e+03 5.225e-10
 27.65529   -135.7 9.839e+03 4.751e-10
 27.66542   -135.2 9.787e+03 4.386e-10
 27.67665   -134.1 9.771e+03 4.157e-10
 27.68964   -133.1 9.740e+03 3.948e-10
 27.69976   -133.0 9.863e+03 4.474e-10
 27.71713   -131.6 9.836e+03 4.213e-10
 27.73738   -130.7 9.837e+03 4.136e-10
 27.75281   -129.5 9.864e+03 4.070e-10
 27.77315   -128.5 9.605e+03 3.480e-10
 27.80163   -126.2 9.583e+03 3.378e-10
 27.82187   -125.9 1.001e+04 4.845e-10
 27.84890   -123.6 1.002e+04 4.838e-10
 27.88939   -121.5 9.993e+03 4.775e-10
 27.91965   -119.5 9.802e+03 4.183e-10
 27.93347   -118.7 9.807e+03 4.238e-10
 27.94122   -118.6 9.944e+03 4.658e-10
 27.94764   -118.6 9.846e+03 4.243e-10
 27.97035   -116.4 9.855e+03 4.194e-10
 28.01084   -114.1 9.829e+03 4.130e-10
 28.04546   -112.1 9.847e+03 4.061e-10
 28.06570   -111.4 9.897e+03 4.038e-10
 28.09181   -109.5 9.900e+03 3.994e-10
 28.12233   -107.3 9.999e+03 4.032e-10
 28.14257   -106.0 9.807e+03 3.870e-10
 28.17277   -103.7 1.002e+04 4.253e-10
 28.21326   -101.7 1.029e+04 4.925e-10
 28.25374    -99.9 1.071e+04 6.189e-10
 28.28929    -98.3 1.137e+04 8.922e-10
 28.30953    -96.6 1.103e+04 7.271e-10
 28.31717    -94.9 1.170e+04 1.041e-09
 28.33741    -93.4 1.133e+04 8.978e-10
 28.37519    -92.2 1.211e+04 1.330e-09
 28.40436    -92.4 1.297e+04 2.026e-09
 28.41439    -91.8 1.276e+04 1.817e-09
 28.42113    -91.2 1.314e+04 2.237e-09
 28.43125    -90.1 1.302e+04 2.081e-09
 28.44585    -89.4 1.329e+04 2.420e-09
 28.46609    -89.0 1.367e+04 3.072e-09
 28.48633    -88.3 1.388e+04 3.529e-09
 28.50168    -87.5 1.406e+04 3.844e-09
 28.51180    -87.3 1.395e+04 3.645e-09
 28.52681    -86.7 1.407e+04 3.935e-09
 28.54305    -86.2 1.425e+04 3.834e-09
 28.55317    -85.2 1.474e+04 5.092e-09
 28.56730    -85.0 1.519e+04 5.561e-09
 28.58754    -85.2 1.593e+04 5.665e-09
 28.59910    -86.9 1.698e+04 5.188e-09
 28.60922    -87.1 1.691e+04 6.279e-09
 28.62802    -90.1 1.719e+04 5.750e-09
 28.64827    -93.2 1.688e+04 5.555e-09
 28.66496    -95.2 1.621e+04 5.550e-09
 28.67508    -94.8 1.865e+04 1.256e-08
 28.68640    -96.4 1.723e+04 8.667e-09
 28.69652    -96.3 1.745e+04 9.320e-09
 28.70899    -96.8 1.634e+04 5.924e-09
 28.72923    -97.0 1.523e+04 3.520e-09
 28.74948    -97.2 1.424e+04 2.275e-09
 28.76972    -97.3 1.363e+04 1.725e-09
 28.78381    -96.5 1.349e+04 1.529e-09
 28.79085    -96.5 1.368e+04 1.626e-09
 28.79700    -98.3 1.389e+04 1.649e-09
 28.81020    -97.0 1.368e+04 1.546e-09
 28.83044    -96.0 1.361e+04 1.518e-09
 28.86090    -95.4 1.361e+04 1.497e-09
 28.90149    -92.9 1.357e+04 1.532e-09
 28.94197    -90.7 1.337e+04 1.391e-09
 28.98245    -88.3 1.318e+04 1.209e-09
 29.02078    -86.0 1.297e+04 1.014e-09
 29.04102    -87.2 1.278e+04 9.056e-10
 29.05602    -84.8 1.263e+04 7.886e-10
 29.07626    -84.4 1.262e+04 7.171e-10
 29.10391    -81.9 1.250e+04 6.641e-10
 29.14439    -79.5 1.235e+04 5.894e-10
 29.18487    -77.1 1.220e+04 5.090e-10
 29.22536    -74.6 1.208e+04 4.184e-10
 29.25085    -72.2 1.201e+04 3.190e-10
 29.26986    -71.8 1.222e+04 4.950e-10
 29.28485    -72.3 1.247e+04 6.434e-10
 29.30633    -70.0 1.246e+04 6.700e-10
 29.34681    -67.8 1.245e+04 6.417e-10
 29.38729    -65.8 1.241e+04 5.587e-10
 29.42544    -63.8 1.231e+04 4.395e-10
 29.44569    -63.3 1.234e+04 6.997e-10
 29.46826    -61.5 1.219e+04 5.744e-10
 29.50844    -59.6 1.206e+04 4.713e-10
 29.52868    -60.1 1.243e+04 8.082e-10
 29.54923    -58.4 1.234e+04 7.218e-10
 29.58971    -56.8 1.231e+04 6.904e-10
 29.62028    -55.3 1.237e+04 6.908e-10
 29.64052    -54.9 1.204e+04 7.381e-10
 29.67068    -53.4 1.205e+04 7.320e-10
 29.71117    -52.0 1.216e+04 7.592e-10
 29.75165    -51.0 1.246e+04 9.398e-10
 29.77251    -50.0 1.300e+04 1.353e-09
 29.78253    -50.5 1.287e+04 1.323e-09
 29.80206    -50.3 1.330e+04 1.601e-09
 29.81492    -49.6 1.362e+04 2.038e-09
 29.83526    -49.2 1.269e+04 1.238e-09
 29.87310    -48.0 1.307e+04 1.739e-09
 29.89433    -46.4 1.348e+04 2.393e-09
 29.90329    -46.9 1.352e+04 2.511e-09
 29.91233    -46.7 1.288e+04 1.749e-09
 29.92351    -46.3 1.290e+04 1.816e-09
 29.94375    -45.1 1.309e+04 1.998e-09
 29.96399    -44.9 1.318e+04 1.974e-09
 29.98424    -44.5 1.324e+04 1.930e-09
 29.99963    -44.1 1.301e+04 1.790e-09
 30.00975    -42.9 1.226e+04 1.407e-09
 30.01615    -42.1 1.226e+04 1.224e-09
 30.02627    -42.5 1.214e+04 1.144e-09
 30.04496    -41.8 1.223e+04 1.051e-09
 30.06520    -41.4 1.206e+04 9.770e-10
 30.08545    -40.9 1.193e+04 9.634e-10
 30.09705    -39.8 1.201e+04 1.005e-09
 30.10717    -39.4 1.181e+04 7.961e-10
 30.12593    -38.7 1.171e+04 8.893e-10
 30.13806    -37.7 1.151e+04 9.774e-10
 30.14818    -37.9 1.153e+04 9.898e-10
 30.16641    -36.8 1.141e+04 1.011e-09
 30.18434    -35.6 1.142e+04 1.056e-09
 30.19446    -35.5 1.150e+04 1.103e-09
 30.20690    -34.4 1.158e+04 1.186e-09
 30.22714    -33.3 1.169e+04 1.280e-09
 30.24738    -32.4 1.178e+04 1.322e-09
 30.25998    -31.6 1.187e+04 1.315e-09
 30.27010    -31.7 1.194e+04 1.460e-09
 30.28176    -30.8 1.201e+04 1.390e-09
 30.29188    -30.5 1.228e+04 1.871e-09
 30.30811    -29.6 1.230e+04 1.884e-09
 30.32835    -28.6 1.225e+04 1.723e-09
 30.34859    -27.7 1.219e+04 1.436e-09
 30.36883    -27.0 1.194e+04 1.152e-09
 30.37918    -26.5 1.143e+04 9.117e-10
 30.38211    -25.8 1.200e+04 1.185e-09
 30.39201    -25.6 1.208e+04 1.278e-09
 30.40932    -25.5 1.164e+04 9.356e-10
 30.42956    -25.5 1.091e+04 7.576e-10
 30.44980    -24.6 1.027e+04 6.676e-10
 30.46647    -23.5 1.018e+04 5.432e-10
 30.47659    -23.2 1.026e+04 5.485e-10
 30.49029    -22.1 1.018e+04 4.951e-10
 30.50390    -21.1 1.001e+04 4.246e-10
 30.52424    -21.2 1.009e+04 4.681e-10
 30.55396    -19.0 9.749e+03 3.544e-10
 30.57420    -18.3 9.640e+03 2.517e-10
 30.60181    -16.0 9.289e+03 1.635e-10
 30.64230    -14.1 9.049e+03 1.187e-10
 30.68278    -11.8 8.778e+03 9.878e-11
 30.72326     -9.3 8.617e+03 8.957e-11
 30.74783     -6.7 8.529e+03 8.417e-11
 30.75312     -6.6 8.530e+03 8.324e-11
 30.76904     -5.8 8.430e+03 7.870e-11
 30.80423     -2.9 8.395e+03 7.620e-11
 30.84472     -0.1 8.418e+03 7.712e-11
 30.88520      2.7 8.464e+03 8.163e-11
 30.92339      5.2 8.553e+03 9.326e-11
 30.94363      6.1 8.504e+03 8.084e-11
 30.96617      8.2 8.701e+03 1.020e-10
 30.99166     10.0 9.131e+03 1.898e-10
 31.01190      9.5 9.400e+03 2.678e-10
 31.04714     11.9 1.016e+04 6.023e-10
 31.08762     14.3 1.094e+04 1.108e-09
 31.11822     16.1 1.132e+04 1.361e-09
 31.13846     17.2 1.060e+04 8.304e-10
 31.16859     18.9 1.064e+04 8.291e-10
 31.19885     19.7 1.058e+04 8.055e-10
 31.21544     20.2 1.051e+04 7.757e-10
 31.22557     20.6 1.034e+04 7.169e-10
 31.23529     21.8 1.012e+04 6.369e-10
 31.25563     21.7 9.978e+03 5.627e-10
 31.29004     23.6 9.603e+03 4.090e-10
 31.31306     25.4 9.359e+03 3.208e-10
 31.33330     26.8 9.262e+03 3.029e-10
 31.37101     28.7 9.162e+03 2.772e-10
 31.41149     30.5 9.169e+03 2.773e-10
 31.45198     32.1 9.259e+03 3.051e-10
 31.47932     33.7 9.559e+03 3.991e-10
 31.49475     33.5 9.589e+03 4.023e-10
 31.50789     35.2 9.450e+03 3.351e-10
 31.53294     36.3 9.776e+03 4.687e-10
 31.57343     37.7 1.028e+04 6.645e-10
 31.59509     37.9 1.055e+04 7.794e-10
 31.60256     38.2 1.057e+04 7.797e-10
 31.61116     38.0 1.064e+04 8.002e-10
 31.62384     38.3 1.091e+04 9.025e-10
 31.64408     38.7 1.111e+04 9.956e-10
 31.66432     38.7 1.133e+04 1.086e-09
 31.68229     37.9 1.194e+04 1.228e-09
 31.69241     39.3 1.162e+04 1.185e-09
 31.70481     37.8 1.277e+04 1.559e-09
 31.72295     35.6 1.423e+04 2.412e-09
 31.73308     33.8 1.522e+04 3.532e-09
 31.74529     32.2 1.613e+04 5.569e-09
 31.76553     31.0 1.680e+04 7.932e-09
 31.77970     29.7 1.735e+04 9.739e-09
 31.78982     29.9 1.731e+04 8.793e-09
 31.80602     27.6 1.811e+04 1.120e-08
 31.82626     25.1 1.857e+04 1.290e-08
 31.84487     22.6 1.843e+04 1.278e-08
 31.85499     21.5 1.820e+04 1.281e-08
 31.86674     20.0 1.754e+04 1.145e-08
 31.87712     19.3 1.632e+04 8.419e-09
 31.88724     19.7 1.660e+04 9.173e-09
 31.90723     18.8 1.493e+04 5.207e-09
 31.92747     17.1 1.336e+04 2.851e-09
 31.94771     15.1 1.201e+04 1.588e-09
 31.96442     13.4 1.091e+04 9.693e-10
 31.97337     12.3 1.064e+04 8.358e-10
 31.97691     12.1 1.086e+04 9.393e-10
 31.98819     11.7 1.015e+04 6.940e-10
 32.01865     11.6 9.546e+03 5.308e-10
 32.05191      9.9 9.511e+03 4.035e-10
 32.07215      9.3 9.446e+03 3.984e-10
 32.09972      8.7 9.736e+03 3.897e-10
 32.14020      8.8 9.843e+03 4.419e-10
 32.18069      9.6 9.812e+03 5.057e-10
 32.21081     10.8 9.777e+03 5.579e-10
 32.23105      9.3 1.006e+04 6.952e-10
 32.24674     10.8 9.890e+03 6.069e-10
 32.26698     11.0 9.349e+03 4.302e-10
 32.30214     12.8 9.377e+03 4.235e-10
 32.34262     14.5 9.395e+03 3.871e-10
 32.38311     16.0 9.524e+03 3.441e-10
 32.42133     17.2 9.701e+03 3.686e-10
 32.44158     17.7 9.883e+03 4.891e-10
 32.45386     17.9 1.016e+04 5.437e-10
 32.46457     18.1 1.039e+04 6.207e-10
 32.47469     17.4 1.042e+04 6.511e-10
 32.49424     17.7 1.068e+04 7.858e-10
 32.51449     17.9 1.098e+04 9.645e-10
 32.52868     18.5 1.128e+04 1.163e-09
 32.53880     18.6 1.152e+04 1.468e-09
 32.55497     19.5 1.150e+04 1.481e-09
 32.57521     20.5 1.137e+04 1.383e-09
 32.58648     21.7 1.110e+04 1.133e-09
 32.59660     21.7 1.088e+04 9.048e-10
 32.61570     22.4 1.075e+04 5.954e-10
 32.62609     22.2 1.070e+04 4.790e-10
 32.63621     21.9 1.068e+04 4.499e-10
 32.66640     22.1 1.076e+04 3.380e-10
 32.69847     22.4 1.067e+04 2.596e-10
 32.71871     22.7 1.039e+04 2.105e-10
 32.74746     23.9 1.039e+04 1.911e-10
 32.78795     25.2 1.048e+04 1.923e-10
 32.81100     26.3 1.073e+04 2.057e-10
 32.83124     25.0 1.096e+04 2.240e-10
 32.86892     25.2 1.147e+04 3.079e-10
 32.90940     25.6 1.181e+04 5.046e-10
 32.94230     26.6 1.200e+04 7.778e-10
 32.96254     26.6 1.203e+04 8.992e-10
 32.98559     27.9 1.192e+04 8.716e-10
 33.00584     27.3 1.157e+04 5.659e-10
 33.03085     28.7 1.132e+04 3.497e-10
 33.07134     29.7 1.120e+04 2.013e-10
 33.11182     30.5 1.094e+04 1.371e-10
 33.15230     31.7 1.066e+04 1.301e-10
 33.18043     33.4 1.066e+04 1.320e-10
 33.19401     31.7 1.067e+04 1.584e-10
 33.20637     31.3 1.072e+04 1.672e-10
 33.23327     32.6 1.093e+04 2.456e-10
 33.27375     34.0 1.120e+04 3.519e-10
 33.31424     35.0 1.132e+04 4.396e-10
 33.34450     35.0 1.118e+04 5.072e-10
 33.36465     35.2 1.107e+04 5.550e-10
 33.37507     35.6 1.108e+04 5.969e-10
 33.39541     35.5 1.090e+04 4.948e-10
 33.42547     36.1 1.094e+04 4.828e-10
 33.43988     36.1 1.095e+04 4.712e-10
 33.45010     35.5 1.089e+04 4.462e-10
 33.47617     36.5 1.081e+04 3.921e-10
 33.51666     37.9 1.060e+04 3.218e-10
 33.54985     39.2 1.035e+04 2.668e-10
 33.57009     39.3 1.009e+04 2.096e-10
 33.59763     40.8 1.007e+04 2.057e-10
 33.63811     42.4 1.013e+04 2.142e-10
 33.67379     44.0 1.036e+04 2.536e-10
 33.69403     44.0 1.045e+04 2.783e-10
 33.71908     45.6 1.081e+04 3.721e-10
 33.74469     46.3 1.101e+04 4.629e-10
 33.76493     46.8 1.096e+04 4.245e-10
 33.78983     47.3 1.106e+04 4.845e-10
 33.80563     47.9 1.120e+04 5.741e-10
 33.81575     47.8 1.124e+04 5.968e-10
 33.84043     48.8 1.129e+04 6.544e-10
 33.88101     49.9 1.141e+04 7.362e-10
 33.91762     50.7 1.140e+04 7.650e-10
 33.93564     50.8 1.143e+04 7.818e-10
 33.93952     51.1 1.105e+04 4.978e-10
 33.96198     52.2 1.103e+04 4.899e-10
 34.00247     53.6 1.113e+04 4.907e-10
 34.02672     54.1 1.126e+04 5.330e-10
 34.03674     54.2 1.112e+04 5.109e-10
 34.04946     54.7 1.116e+04 5.294e-10
 34.05958     54.9 1.115e+04 4.875e-10
 34.07312     55.3 1.123e+04 5.123e-10
 34.09336     55.7 1.138e+04 5.659e-10
 34.11360     56.1 1.153e+04 6.407e-10
 34.12404     56.5 1.162e+04 7.247e-10
 34.13416     56.7 1.150e+04 6.331e-10
 34.15409     57.1 1.159e+04 7.262e-10
 34.17137     57.6 1.164e+04 8.010e-10
 34.18150     58.1 1.141e+04 6.388e-10
 34.19457     58.5 1.143e+04 6.607e-10
 34.21133     59.0 1.142e+04 6.557e-10
 34.22146     59.1 1.165e+04 6.204e-10
 34.23505     59.4 1.166e+04 6.140e-10
 34.25530     59.8 1.167e+04 6.053e-10
 34.27554     60.1 1.162e+04 5.911e-10
 34.29329     60.1 1.156e+04 5.797e-10
 34.30341     60.7 1.135e+04 4.838e-10
 34.30885     60.9 1.138e+04 5.314e-10
 34.32919     61.5 1.141e+04 7.311e-10
 34.36682     62.2 1.137e+04 6.786e-10
 34.40528     63.1 1.122e+04 5.226e-10
 34.42552     65.1 1.133e+04 5.497e-10
 34.44779     66.1 1.122e+04 4.286e-10
 34.48354     66.9 1.099e+04 2.925e-10
 34.50378     67.6 1.114e+04 2.833e-10
 34.52876     67.9 1.087e+04 2.057e-10
 34.56924     67.9 1.095e+04 2.097e-10
 34.59098     67.5 1.119e+04 2.269e-10
 34.60100     67.4 1.130e+04 2.306e-10
 34.61965     66.1 1.161e+04 3.058e-10
 34.63989     65.0 1.189e+04 6.416e-10
 34.65903     65.2 1.193e+04 8.167e-10
 34.66925     67.0 1.191e+04 6.726e-10
 34.67837     66.4 1.209e+04 1.147e-09
 34.69861     66.9 1.221e+04 1.289e-09
 34.73118     65.3 1.212e+04 1.218e-09
 34.77166     64.0 1.150e+04 8.021e-10
 34.81215     62.9 1.050e+04 3.530e-10
 34.85263     61.7 9.601e+03 1.789e-10
 34.87321     62.0 9.370e+03 1.587e-10
 34.89327     62.3 9.338e+03 1.420e-10
 34.93342     64.9 9.276e+03 1.333e-10
 34.97408     67.2 9.269e+03 1.376e-10
 35.01457     69.6 9.303e+03 1.623e-10
 35.04780     71.9 9.466e+03 2.234e-10
 35.06804     72.5 9.497e+03 1.774e-10
 35.09553     74.7 9.662e+03 2.472e-10
 35.13602     76.7 9.878e+03 3.436e-10
 35.15701     78.6 1.011e+04 4.513e-10
 35.17725     80.0 1.003e+04 3.861e-10
 35.21699     81.9 1.033e+04 5.174e-10
 35.24263     83.6 1.061e+04 6.364e-10
 35.26287     84.0 1.045e+04 4.993e-10
 35.29795     85.7 1.065e+04 5.880e-10
 35.33844     87.5 1.080e+04 6.721e-10
 35.37892     89.4 1.094e+04 7.522e-10
 35.40084     91.3 1.118e+04 8.393e-10
 35.41890     92.3 1.161e+04 9.820e-10
 35.43747     92.2 1.135e+04 8.394e-10
 35.45989     93.9 1.187e+04 1.085e-09
 35.50037     95.3 1.241e+04 1.418e-09
 35.52266     95.8 1.266e+04 1.649e-09
 35.52671     95.8 1.294e+04 1.882e-09
 35.53469     95.8 1.287e+04 1.782e-09
 35.55078     96.4 1.327e+04 2.252e-09
 35.57103     97.3 1.363e+04 2.783e-09
 35.59127     98.4 1.394e+04 3.216e-09
 35.61151     99.4 1.415e+04 3.330e-09
 35.62198    100.1 1.416e+04 3.306e-09
 35.63210     99.9 1.365e+04 2.597e-09
 35.64447    100.7 1.346e+04 2.326e-09
 35.65460    101.3 1.369e+04 2.683e-09
 35.67224    102.3 1.349e+04 2.411e-09
 35.69248    103.2 1.317e+04 2.060e-09
 35.70928    104.0 1.290e+04 1.781e-09
 35.71940    103.8 1.240e+04 1.422e-09
 35.74318    105.0 1.225e+04 1.346e-09
 35.78376    106.2 1.171e+04 1.006e-09
 35.80689    107.7 1.125e+04 8.229e-10
 35.82713    108.0 1.091e+04 7.767e-10
 35.86473    109.9 1.093e+04 7.759e-10
 35.88850    111.8 1.106e+04 8.112e-10
 35.90874    113.4 1.096e+04 1.008e-09
 35.94570    115.2 1.135e+04 1.142e-09
 35.98148    116.8 1.213e+04 1.485e-09
 36.00173    116.9 1.209e+04 1.493e-09
 36.01032    117.2 1.240e+04 1.684e-09
 36.02034    117.6 1.238e+04 1.737e-09
 36.03659    118.1 1.276e+04 2.084e-09
 36.05683    118.5 1.326e+04 2.575e-09
 36.07707    118.8 1.375e+04 3.123e-09
 36.08883    119.0 1.416e+04 3.605e-09
 36.09895    119.3 1.382e+04 3.136e-09
 36.11756    119.4 1.403e+04 3.357e-09
 36.13213    119.6 1.403e+04 3.328e-09
 36.14226    120.3 1.426e+04 3.857e-09
 36.15804    120.5 1.425e+04 3.849e-09
 36.17612    120.8 1.412e+04 3.677e-09
 36.18624    121.4 1.365e+04 2.928e-09
 36.19853    122.0 1.350e+04 2.740e-09
 36.21877    122.6 1.333e+04 2.450e-09
 36.23901    123.2 1.315e+04 2.075e-09
 36.25405    123.9 1.299e+04 1.704e-09
 36.26417    124.5 1.333e+04 2.377e-09
 36.27354    125.3 1.319e+04 2.023e-09
 36.28366    126.1 1.313e+04 2.085e-09
 36.30996    127.0 1.267e+04 1.251e-09
 36.35054    129.2 1.191e+04 7.716e-10
 36.37105    130.4 1.137e+04 6.937e-10
 36.37634    132.0 1.205e+04 9.423e-10
 36.38609    132.9 1.242e+04 1.583e-09
 36.40095    134.0 1.203e+04 1.315e-09
 36.42119    134.8 1.166e+04 1.102e-09
 36.44143    135.5 1.147e+04 1.006e-09
 36.45825    136.5 1.148e+04 1.013e-09
 36.46837    137.9 1.166e+04 1.217e-09
 36.48191    138.5 1.170e+04 1.237e-09
 36.49788    138.8 1.193e+04 1.365e-09
 36.50800    139.4 1.244e+04 1.563e-09
 36.52240    139.5 1.289e+04 1.887e-09
 36.54264    139.6 1.364e+04 2.585e-09
 36.55567    139.8 1.458e+04 3.729e-09
 36.56579    141.2 1.476e+04 4.035e-09
 36.58312    141.2 1.575e+04 5.831e-09
 36.60337    141.1 1.657e+04 7.240e-09
 36.61979    140.4 1.671e+04 7.272e-09
 36.62992    140.9 1.702e+04 7.397e-09
 36.64296    140.1 1.677e+04 6.680e-09
 36.65309    141.8 1.809e+04 9.183e-09
 36.66409    141.0 1.718e+04 6.663e-09
 36.68433    139.8 1.600e+04 3.413e-09
 36.70458    137.2 1.420e+04 1.137e-09
 36.72482    130.7 1.443e+04 4.793e-10
 36.74038    121.5 1.601e+04 6.412e-10
 36.74715    124.4 1.690e+04 5.487e-10
 36.75183    119.5 2.112e+04 2.847e-09
 36.76530    113.3 1.916e+04 4.764e-09
 36.78044    110.7 1.893e+04 6.422e-09
 36.78899    109.2 1.937e+04 9.476e-09
 36.79405    110.1 1.885e+04 8.846e-09
 36.80063    109.7 1.929e+04 1.135e-08
 36.80763    109.1 2.027e+04 1.569e-08
 36.81269    108.7 2.090e+04 2.482e-08
 36.82087    107.6 2.213e+04 3.740e-08
 36.83099    106.1 2.328e+04 5.435e-08
 36.83770    104.4 2.407e+04 7.590e-08
 36.84276    106.7 2.362e+04 5.128e-08
 36.85123    104.9 2.431e+04 7.165e-08
 36.86135    103.0 2.430e+04 1.061e-07
 36.86859    101.3 2.382e+04 1.386e-07
 36.87365    100.6 2.440e+04 8.619e-08
 36.88135     99.2 2.427e+04 8.156e-08
 36.88641    101.1 2.437e+04 7.518e-08
 36.89172     99.8 2.415e+04 7.251e-08
 36.90184     98.6 2.373e+04 6.602e-08
 36.91196     97.3 2.362e+04 5.556e-08
 36.92208     96.2 2.359e+04 4.383e-08
 36.92954     95.2 2.348e+04 3.249e-08
 36.93246     94.2 2.164e+04 2.109e-08
 36.93512     95.1 2.181e+04 2.544e-08
 36.94232     94.6 2.155e+04 2.141e-08
 36.95244     94.2 2.125e+04 1.745e-08
 36.96256     94.1 2.097e+04 1.447e-08
 36.97269     94.1 2.070e+04 1.356e-08
 36.98549     94.2 2.049e+04 1.095e-08
 36.99566     94.6 1.967e+04 1.063e-08
 37.00821     93.7 1.816e+04 6.786e-09
 37.02251     92.8 1.592e+04 4.469e-09
 37.03263     95.0 1.864e+04 9.186e-09
 37.04869     93.9 1.710e+04 6.962e-09
 37.06893     93.3 1.593e+04 5.747e-09
 37.08917     93.2 1.539e+04 5.034e-09
 37.10745     93.2 1.522e+04 4.529e-09
 37.11757     94.0 1.466e+04 3.629e-09
 37.11993     93.4 1.443e+04 3.096e-09
 37.13005     93.8 1.731e+04 7.897e-09
 37.14990     93.0 1.695e+04 6.761e-09
 37.17014     92.2 1.635e+04 5.474e-09
 37.19038     91.2 1.553e+04 4.270e-09
 37.20722     90.3 1.459e+04 3.248e-09
 37.21735     90.9 1.636e+04 5.678e-09
 37.22937     90.3 1.471e+04 3.210e-09
 37.23949     90.2 1.411e+04 2.549e-09
 37.25111     89.2 1.251e+04 1.480e-09
 37.27135     88.0 1.110e+04 8.314e-10
 37.29159     87.2 1.069e+04 5.727e-10
 37.30474     87.1 1.038e+04 4.067e-10
 37.31486     85.9 9.930e+03 3.038e-10
 37.33208     86.0 9.930e+03 3.026e-10
 37.35138     86.1 9.502e+03 2.445e-10
 37.37172     86.4 9.659e+03 2.683e-10
 37.40312     86.9 9.404e+03 2.391e-10
 37.44360     87.6 9.370e+03 2.388e-10
 37.47943     88.3 9.413e+03 2.467e-10
 37.49967     88.7 9.555e+03 2.800e-10
 37.52457     88.9 9.661e+03 3.026e-10
 37.56506     88.7 9.768e+03 3.316e-10
 37.58687     88.1 9.805e+03 3.510e-10
 37.59678     88.4 9.832e+03 3.659e-10
 37.60523     88.7 9.850e+03 3.723e-10
 37.61547     88.1 1.002e+04 4.145e-10
 37.63571     87.3 1.025e+04 4.543e-10
 37.65595     86.0 1.056e+04 4.845e-10
 37.67407     84.3 1.098e+04 5.181e-10
 37.68419     84.0 1.144e+04 6.126e-10
 37.69643     81.9 1.172e+04 6.731e-10
 37.71668     79.7 1.190e+04 7.769e-10
 37.72715     77.7 1.199e+04 9.367e-10
 37.73727     78.0 1.233e+04 1.198e-09
 37.75716     76.8 1.213e+04 1.233e-09
 37.77148     75.8 1.200e+04 1.192e-09
 37.78160     75.2 1.249e+04 1.473e-09
 37.79764     74.6 1.218e+04 1.255e-09
 37.81789     74.1 1.187e+04 1.001e-09
 37.83813     73.4 1.152e+04 7.605e-10
 37.84906     72.8 1.112e+04 5.697e-10
 37.85919     73.2 1.097e+04 5.132e-10
 37.86890     72.7 1.064e+04 4.014e-10
 37.87902     71.9 1.074e+04 4.327e-10
 37.89885     71.8 1.049e+04 3.659e-10
 37.91910     71.9 1.041e+04 3.074e-10
 37.93934     71.9 1.039e+04 2.829e-10
 37.96980     71.9 1.032e+04 2.390e-10
 38.01038     71.3 1.021e+04 1.828e-10
 38.04369     70.3 1.004e+04 1.592e-10
 38.06393     69.7 1.033e+04 1.876e-10
 38.08297     68.4 1.016e+04 1.794e-10
 38.10321     69.1 1.077e+04 3.071e-10
 38.13183     67.3 1.069e+04 2.860e-10
 38.17232     64.8 1.061e+04 2.595e-10
 38.21280     61.3 1.066e+04 2.637e-10
 38.23852     57.3 1.087e+04 3.119e-10
 38.24855     57.3 1.096e+04 2.972e-10
 38.26321     55.3 1.115e+04 3.476e-10
 38.28345     52.3 1.138e+04 4.830e-10
 38.30369     49.9 1.153e+04 6.197e-10
 38.32394     47.7 1.177e+04 6.936e-10
 38.33574     45.2 1.198e+04 6.917e-10
 38.33841     43.3 1.230e+04 8.213e-10
 38.34685     43.0 1.221e+04 7.382e-10
 38.36442     39.9 1.215e+04 6.860e-10
 38.38466     37.4 1.181e+04 6.279e-10
 38.40490     34.2 1.196e+04 6.176e-10
 38.42304     32.6 1.193e+04 5.988e-10
 38.43316     30.3 1.202e+04 6.313e-10
 38.44539     26.2 1.246e+04 7.335e-10
 38.45864     25.4 1.253e+04 7.756e-10
 38.46876     24.7 1.270e+04 8.851e-10
 38.48587     20.7 1.308e+04 1.183e-09
 38.50611     18.4 1.323e+04 1.441e-09
 38.52046     14.9 1.385e+04 2.139e-09
 38.53058     14.3 1.352e+04 1.982e-09
 38.54660     12.1 1.389e+04 2.326e-09
 38.56684     10.0 1.386e+04 2.382e-09
 38.58055      6.3 1.452e+04 2.641e-09
 38.59068      0.3 1.851e+04 3.777e-09
 38.60732     -9.1 2.144e+04 7.221e-09
 38.61787    -15.2 2.061e+04 1.453e-08
 38.62799    -16.4 2.018e+04 1.771e-08
 38.64781    -18.8 1.988e+04 1.962e-08
 38.66805    -20.7 1.929e+04 1.664e-08
 38.68829    -21.9 1.796e+04 1.066e-08
 38.70247    -23.2 1.659e+04 5.934e-09
 38.70923    -25.9 1.551e+04 3.348e-09
 38.71529    -27.9 1.422e+04 1.284e-09
 38.72878    -30.0 1.358e+04 6.130e-10
 38.74902    -32.6 1.228e+04 3.286e-10
 38.76926    -34.4 1.066e+04 2.466e-10
 38.78950    -34.9 1.009e+04 2.364e-10
 38.80259    -34.9 1.007e+04 2.663e-10
 38.81271    -35.9 1.010e+04 2.134e-10
 38.82438    -36.1 1.028e+04 2.532e-10
 38.83451    -37.0 1.049e+04 2.888e-10
 38.85023    -36.9 1.121e+04 4.831e-10
 38.87047    -37.3 1.146e+04 5.831e-10
 38.88988    -37.4 1.185e+04 1.036e-09
 38.90000    -37.4 1.138e+04 8.054e-10
 38.91095    -36.8 1.145e+04 1.117e-09
 38.93120    -35.1 1.168e+04 1.396e-09
 38.94630    -33.5 1.175e+04 1.480e-09
 38.95642    -33.4 1.168e+04 1.384e-09
 38.97168    -32.2 1.154e+04 1.149e-09
 38.98730    -31.5 1.139e+04 8.439e-10
 38.99742    -32.1 1.082e+04 6.373e-10
 39.01216    -31.9 1.061e+04 4.788e-10
 39.03240    -31.8 1.052e+04 3.859e-10
 39.05265    -31.9 1.031e+04 3.300e-10
 39.06821    -31.8 1.023e+04 3.202e-10
 39.07843    -32.6 1.022e+04 3.127e-10
 39.10345    -31.5 1.018e+04 3.158e-10
 39.14393    -30.4 1.031e+04 3.889e-10
 39.17221    -28.9 1.056e+04 5.074e-10
 39.19245    -28.4 1.068e+04 6.716e-10
 39.22490    -26.0 1.097e+04 7.650e-10
 39.25516    -25.0 1.110e+04 6.770e-10
 39.26943    -24.8 1.113e+04 6.449e-10
 39.27955    -24.9 1.117e+04 6.429e-10
 39.29555    -25.0 1.111e+04 6.242e-10
 39.31204    -24.9 1.100e+04 6.485e-10
 39.32216    -25.4 1.080e+04 6.145e-10
 39.33603    -24.7 1.075e+04 6.670e-10
 39.35628    -23.7 1.084e+04 6.954e-10
 39.36685    -22.7 1.089e+04 7.233e-10
 39.37697    -22.4 1.075e+04 6.712e-10
 39.39676    -21.5 1.078e+04 6.617e-10
 39.41700    -20.7 1.091e+04 6.473e-10
 39.43396    -20.2 1.086e+04 6.429e-10
 39.44408    -20.5 1.085e+04 6.257e-10
 39.45414    -19.7 1.092e+04 6.765e-10
 39.46426    -19.6 1.080e+04 6.100e-10
 39.47773    -19.1 1.088e+04 6.315e-10
 39.49797    -17.9 1.109e+04 8.422e-10
 39.51821    -17.4 1.127e+04 8.865e-10
 39.53845    -16.3 1.178e+04 1.240e-09
 39.55156    -15.7 1.256e+04 1.533e-09
 39.55895    -15.2 1.163e+04 9.434e-10
 39.56619    -16.6 1.189e+04 1.049e-09
 39.57904    -17.6 1.350e+04 1.959e-09
 39.59918    -19.0 1.492e+04 3.711e-09
 39.61942    -19.4 1.584e+04 7.559e-09
 39.63885    -18.1 1.663e+04 1.220e-08
 39.64898    -18.8 1.605e+04 8.498e-09
 39.65991    -17.2 1.640e+04 1.038e-08
 39.67779    -16.4 1.667e+04 1.054e-08
 39.68791    -16.3 1.522e+04 5.358e-09
 39.70039    -16.1 1.466e+04 4.246e-09
 39.72063    -16.4 1.383e+04 2.832e-09
 39.73627    -17.3 1.286e+04 1.741e-09
 39.74639    -17.6 1.269e+04 1.449e-09
 39.76112    -18.7 1.168e+04 9.922e-10
 39.78136    -18.7 1.117e+04 7.412e-10
 39.79970    -18.0 1.068e+04 6.290e-10
 39.80982    -17.7 1.046e+04 5.850e-10
 39.82184    -16.8 1.044e+04 4.412e-10
 39.83369    -16.4 1.022e+04 4.018e-10
 39.84381    -16.1 1.022e+04 4.020e-10
 39.87255    -15.4 1.007e+04 3.099e-10
 39.91106    -13.5 9.688e+03 2.208e-10
 39.93130    -12.6 9.553e+03 2.053e-10
 39.95361    -10.9 9.384e+03 1.400e-10
 39.99409     -9.4 9.345e+03 9.432e-11
 40.03361     -8.1 9.361e+03 6.767e-11
 40.05385     -8.0 9.373e+03 7.633e-11
 40.07506     -6.8 9.324e+03 6.229e-11
 40.10589     -5.5 9.365e+03 6.509e-11
 40.12613     -4.1 9.312e+03 6.405e-11
 40.15603     -3.1 9.421e+03 7.612e-11
 40.19651     -1.6 9.440e+03 1.047e-10
 40.23700      0.1 9.517e+03 1.335e-10
 40.27744      1.9 9.606e+03 1.400e-10
 40.30068      3.1 9.695e+03 1.296e-10
 40.32097      4.4 9.582e+03 1.144e-10
 40.35845      5.2 9.647e+03 1.169e-10
 40.39893      5.7 9.763e+03 1.374e-10
 40.43942      6.4 9.882e+03 1.932e-10
 40.47532      7.4 1.011e+04 2.687e-10
 40.49556      8.5 9.893e+03 2.214e-10
 40.52039      9.4 1.014e+04 2.653e-10
 40.54151      9.7 1.036e+04 2.702e-10
 40.56175      9.5 1.024e+04 2.626e-10
 40.60135      9.8 1.017e+04 2.307e-10
 40.64184      9.8 1.018e+04 1.967e-10
 40.67015      9.4 1.044e+04 2.109e-10
 40.69039     11.3 1.004e+04 1.717e-10
 40.72281     10.7 1.050e+04 2.266e-10
 40.75307      9.4 1.097e+04 3.400e-10
 40.76737      9.0 1.108e+04 4.155e-10
 40.77749      9.6 1.097e+04 3.640e-10
 40.78514      8.7 1.115e+04 6.128e-10
 40.79527      9.0 1.104e+04 5.412e-10
 40.81370      9.6 1.094e+04 7.765e-10
 40.83394     10.2 1.088e+04 7.718e-10
 40.85418     10.0 1.083e+04 7.310e-10
 40.86489     10.2 1.039e+04 4.630e-10
 40.87501     11.0 1.050e+04 5.606e-10
 40.89467     10.7 1.033e+04 4.802e-10
 40.92513     11.5 9.907e+03 3.120e-10
 40.96571     11.0 9.497e+03 1.775e-10
 41.00619     10.8 9.171e+03 1.538e-10
 41.02917     11.2 9.145e+03 1.597e-10
 41.04231     11.6 9.005e+03 1.376e-10
 41.05982     12.5 9.012e+03 1.380e-10
 41.08716     13.1 8.913e+03 1.364e-10
 41.12765     13.9 8.861e+03 1.398e-10
 41.16813     14.8 8.801e+03 1.331e-10
 41.20861     15.5 8.778e+03 1.169e-10
 41.23441     15.5 8.816e+03 1.092e-10
 41.25465     16.1 8.824e+03 1.095e-10
 41.27300     16.0 8.895e+03 1.219e-10
 41.29324     17.1 8.788e+03 1.128e-10
 41.33007     17.6 8.802e+03 1.321e-10
 41.37055     18.2 8.761e+03 1.293e-10
 41.40900     18.8 8.669e+03 1.112e-10
 41.42925     19.3 8.677e+03 1.131e-10
 41.45152     19.3 8.620e+03 8.851e-11
 41.49200     19.1 8.591e+03 8.914e-11
 41.51683     19.0 8.567e+03 1.017e-10
 41.53707     20.6 8.485e+03 8.158e-11
 41.57297     20.9 8.537e+03 9.546e-11
 41.60384     21.1 8.665e+03 1.076e-10
 41.62408     21.4 8.639e+03 1.067e-10
 41.65394     21.2 8.872e+03 1.200e-10
 41.69442     20.4 9.081e+03 1.495e-10
 41.73491     19.7 9.200e+03 1.943e-10
 41.76066     19.3 9.303e+03 2.348e-10
 41.78090     21.3 9.282e+03 2.341e-10
 41.79867     20.7 9.441e+03 2.720e-10
 41.81891     21.2 9.436e+03 2.733e-10
 41.84614     20.4 9.511e+03 2.951e-10
 41.86628     20.3 9.583e+03 3.119e-10
 41.88238     20.0 9.742e+03 3.727e-10
 41.89175     20.7 9.688e+03 3.488e-10
 41.89589     20.7 9.728e+03 3.525e-10
 41.90677     20.5 9.764e+03 4.075e-10
 41.92701     20.0 1.036e+04 5.257e-10
 41.94725     15.6 1.379e+04 1.242e-09
 41.96749      9.9 1.591e+04 4.024e-09
 41.98319     10.9 1.631e+04 9.712e-09
 41.99331     11.7 1.553e+04 6.803e-09
 42.00429     12.8 1.558e+04 8.149e-09
 42.01441     13.5 1.524e+04 6.797e-09
 42.02822     14.5 1.516e+04 6.505e-09
 42.04846     15.4 1.455e+04 4.559e-09
 42.06870     14.3 1.392e+04 2.675e-09
 42.09916     12.3 1.226e+04 1.044e-09
 42.13975      9.1 1.025e+04 3.758e-10
 42.16810      8.6 9.384e+03 2.363e-10
 42.18834      9.3 9.352e+03 2.617e-10
 42.22071     10.4 9.111e+03 2.408e-10
 42.24832     12.2 8.974e+03 2.049e-10
 42.26856     14.0 9.178e+03 2.802e-10
 42.30168     15.5 9.199e+03 2.249e-10
 42.34217     16.1 9.252e+03 1.702e-10
 42.36293     16.1 9.131e+03 1.675e-10
 42.38317     16.9 9.349e+03 2.068e-10
 42.42313     17.2 9.234e+03 2.076e-10
 42.46362     17.4 9.205e+03 1.968e-10
 42.49215     17.3 9.333e+03 1.731e-10
 42.51239     19.4 9.255e+03 1.800e-10
 42.53752     18.7 9.350e+03 1.656e-10
 42.55776     19.5 9.358e+03 1.650e-10
 42.58507     17.8 9.550e+03 1.807e-10
 42.62555     16.0 9.717e+03 2.642e-10
 42.66604     15.0 9.805e+03 3.132e-10
 42.70652     14.0 9.879e+03 2.509e-10
 42.73236     12.4 9.737e+03 1.798e-10
 42.74157     12.9 9.781e+03 1.913e-10
 42.75622     15.1 9.766e+03 1.837e-10
 42.78749     13.0 9.735e+03 1.238e-10
 42.82797     10.4 1.032e+04 1.167e-10
 42.86846      7.3 1.014e+04 2.179e-10
 42.90695      7.5 1.006e+04 4.325e-10
 42.92719      7.7 1.036e+04 5.347e-10
 42.94942      8.0 1.034e+04 5.229e-10
 42.97981      7.2 1.032e+04 2.466e-10
 43.00005      9.5 1.044e+04 4.632e-10
 43.03039      7.8 1.028e+04 1.802e-10
 43.07088      4.4 9.473e+03 9.324e-11
 43.10178      2.8 9.057e+03 9.128e-11
 43.12202      2.5 9.011e+03 9.214e-11
 43.15184      2.1 9.011e+03 1.101e-10
 43.19233      1.9 9.065e+03 1.257e-10
 43.22364      1.9 9.044e+03 1.386e-10
 43.24388      3.1 9.048e+03 1.289e-10
 43.27330      3.0 9.009e+03 1.354e-10
 43.29662      3.1 8.950e+03 1.411e-10
 43.31686      3.2 8.812e+03 1.349e-10
 43.35426      3.2 8.923e+03 1.420e-10
 43.39475      2.2 9.307e+03 1.725e-10
 43.43523      0.9 9.464e+03 2.719e-10
 43.46747      1.0 9.756e+03 4.256e-10
 43.48320      1.6 9.789e+03 4.198e-10
 43.49145      2.1 9.796e+03 4.244e-10
 43.51620      2.6 9.888e+03 4.636e-10
 43.55668      3.0 9.542e+03 2.927e-10
 43.59717      1.7 9.337e+03 1.521e-10
 43.63765     -0.6 9.321e+03 1.329e-10
 43.66604     -3.0 9.760e+03 2.516e-10
 43.68628     -2.5 9.963e+03 2.816e-10
 43.70840     -3.5 1.015e+04 4.952e-10
 43.72122     -3.6 1.050e+04 6.972e-10
 43.73134     -3.4 1.041e+04 6.409e-10
 43.74879     -2.5 1.083e+04 7.886e-10
 43.76326     -3.0 1.082e+04 7.913e-10
 43.77338     -2.8 1.089e+04 8.446e-10
 43.78927     -3.0 1.072e+04 7.189e-10
 43.80951     -3.4 1.064e+04 6.039e-10
 43.83997     -5.0 1.004e+04 4.554e-10
 43.86088     -5.6 9.768e+03 3.816e-10
 43.88112     -5.5 9.684e+03 3.603e-10
 43.92104     -5.6 9.495e+03 3.273e-10
 43.95513     -5.1 9.269e+03 2.966e-10
 43.97537     -4.3 9.152e+03 2.350e-10
 44.00201     -3.5 8.964e+03 2.164e-10
 44.03547     -2.5 8.830e+03 2.047e-10
 44.05571     -2.3 8.870e+03 2.180e-10
 44.08298     -1.1 8.797e+03 2.063e-10
 44.12346      0.0 8.722e+03 2.036e-10
 44.16394      1.3 8.675e+03 2.048e-10
 44.19896      2.7 8.630e+03 2.050e-10
 44.21920      3.6 8.706e+03 2.328e-10
 44.23030      5.2 8.638e+03 2.308e-10
 44.25054      5.5 8.708e+03 2.361e-10
 44.28540      7.1 8.633e+03 2.185e-10
 44.32588      8.5 8.597e+03 1.899e-10
 44.36636      9.7 8.631e+03 1.641e-10
 44.40489     10.9 8.734e+03 1.601e-10
 44.42514     11.4 8.685e+03 1.648e-10
 44.44279     12.2 8.990e+03 1.727e-10
 44.46303     14.0 8.617e+03 1.405e-10
 44.48782     14.4 9.219e+03 1.484e-10
 44.52830     13.4 9.726e+03 2.710e-10
 44.56878     13.5 1.006e+04 6.427e-10
 44.59973     15.3 1.066e+04 1.011e-09
 44.61997     15.5 1.069e+04 1.014e-09
 44.64975     16.5 1.076e+04 1.065e-09
 44.68662     18.3 1.046e+04 5.450e-10
 44.70686     19.0 1.045e+04 8.401e-10
 44.73072     20.5 9.865e+03 3.653e-10
 44.77120     20.6 9.232e+03 1.588e-10
 44.79456     21.5 8.741e+03 1.100e-10
 44.81480     22.3 8.885e+03 1.196e-10
 44.85217     23.8 8.710e+03 1.003e-10
 44.89266     25.8 8.680e+03 9.923e-11
 44.93045     27.9 8.688e+03 1.017e-10
 44.95069     28.8 8.668e+03 1.078e-10
 44.96915     30.8 8.734e+03 1.099e-10
 44.98940     31.3 8.701e+03 9.874e-11
 45.01411     32.9 8.819e+03 1.084e-10
 45.05459     34.5 8.908e+03 1.260e-10
 45.09508     36.2 8.919e+03 1.547e-10
 45.13556     37.9 9.098e+03 1.632e-10
 45.16399     39.6 9.144e+03 1.563e-10
 45.18246     40.1 9.170e+03 1.573e-10
 45.19452     41.1 9.247e+03 1.824e-10
 45.21653     42.6 9.296e+03 1.626e-10
 45.25701     43.6 9.374e+03 1.362e-10
 45.29750     44.6 9.351e+03 1.272e-10
 45.33798     45.8 9.346e+03 1.285e-10
 45.35882     47.3 9.421e+03 1.306e-10
 45.37906     47.6 9.560e+03 1.551e-10
 45.41811     48.8 9.726e+03 1.610e-10
 45.43835     49.8 9.750e+03 1.774e-10
 45.45943     50.8 9.920e+03 1.785e-10
 45.49992     51.4 1.019e+04 1.886e-10
 45.53341     51.8 1.037e+04 2.280e-10
 45.55365     51.1 1.068e+04 3.209e-10
 45.58088     51.8 1.089e+04 4.340e-10
 45.62137     52.8 1.116e+04 5.031e-10
 45.66185     53.7 1.126e+04 4.880e-10
 45.70234     55.3 1.142e+04 5.080e-10
 45.72825     55.7 1.136e+04 4.370e-10
 45.74849     54.6 1.134e+04 4.666e-10
 45.78330     55.0 1.125e+04 4.336e-10
 45.82379     55.1 1.133e+04 4.415e-10
 45.85405     54.9 1.125e+04 4.805e-10
 45.87420     55.1 1.122e+04 5.021e-10
 45.89444     55.3 1.122e+04 5.196e-10
 45.91276     55.6 1.120e+04 5.207e-10
 45.92289     55.1 1.129e+04 5.844e-10
 45.92581     55.5 1.123e+04 5.725e-10
 45.93593     55.5 1.142e+04 6.616e-10
 45.95516     55.5 1.139e+04 6.505e-10
 45.97541     55.4 1.126e+04 6.241e-10
 45.99565     55.4 1.111e+04 6.057e-10
 46.01018     55.4 1.088e+04 5.513e-10
 46.02030     55.3 1.096e+04 5.895e-10
 46.03613     55.5 1.075e+04 5.352e-10
 46.04773     56.0 1.059e+04 4.480e-10
 46.05785     56.1 1.066e+04 6.071e-10
 46.07662     56.7 1.053e+04 4.985e-10
 46.09757     56.8 1.048e+04 3.567e-10
 46.11791     56.2 1.049e+04 3.469e-10
 46.14766     56.2 1.023e+04 3.097e-10
 46.16984     56.4 1.013e+04 3.338e-10
 46.19008     56.6 1.038e+04 4.145e-10
 46.22863     57.0 1.020e+04 4.367e-10
 46.26911     57.6 1.002e+04 4.167e-10
 46.29251     58.4 9.625e+03 3.197e-10
 46.31275     57.8 9.602e+03 3.073e-10
 46.35008     58.4 9.272e+03 1.855e-10
 46.39056     58.6 9.057e+03 1.104e-10
 46.41367     58.8 8.739e+03 8.510e-11
 46.43391     59.1 8.865e+03 9.344e-11
 46.46710     59.9 8.640e+03 8.817e-11
 46.48734     59.3 8.590e+03 8.718e-11
 46.51201     60.6 8.573e+03 8.796e-11
 46.55250     62.1 8.577e+03 9.236e-11
 46.59298     63.4 8.630e+03 1.039e-10
 46.63347     64.5 8.734e+03 1.240e-10
 46.65750     65.7 8.940e+03 1.654e-10
 46.66572     65.6 8.798e+03 1.497e-10
 46.68217     65.4 8.729e+03 1.466e-10
 46.71443     66.8 8.866e+03 1.600e-10
 46.75492     68.1 8.915e+03 1.682e-10
 46.79540     69.4 8.900e+03 1.656e-10
 46.83589     70.8 8.839e+03 1.549e-10
 46.85677     72.3 8.767e+03 1.394e-10
 46.87701     72.3 8.628e+03 1.106e-10
 46.90133     73.8 8.577e+03 9.663e-11
 46.92157     73.7 8.477e+03 6.275e-11
 46.95734     75.2 8.413e+03 6.022e-11
 46.99782     76.8 8.405e+03 6.106e-11
 47.03136     78.3 8.416e+03 6.549e-11
 47.05160     78.5 8.350e+03 6.424e-11
 47.07879     80.1 8.383e+03 7.278e-11
 47.11927     81.8 8.432e+03 8.379e-11
 47.14516     83.6 8.514e+03 9.472e-11
 47.16540     84.0 8.499e+03 9.753e-11
 47.20024     85.7 8.608e+03 1.118e-10
 47.22619     87.2 8.738e+03 1.269e-10
 47.24643     87.5 8.725e+03 1.259e-10
 47.28121     88.9 8.865e+03 1.434e-10
 47.32169     90.2 9.052e+03 1.736e-10
 47.36218     91.4 9.326e+03 2.368e-10
 47.38899     92.5 9.641e+03 3.324e-10
 47.40735     92.8 9.687e+03 3.498e-10
 47.42103     92.6 9.695e+03 3.280e-10
 47.44315     93.4 1.002e+04 4.237e-10
 47.48363     93.9 1.032e+04 4.871e-10
 47.52411     94.3 1.052e+04 4.966e-10
 47.56460     94.6 1.055e+04 4.834e-10
 47.59562     94.9 1.063e+04 4.535e-10
 47.61586     94.4 1.065e+04 4.881e-10
 47.63282     94.7 1.070e+04 4.420e-10
 47.65306     94.5 1.077e+04 4.568e-10
 47.68605     94.6 1.067e+04 4.101e-10
 47.72653     94.6 1.065e+04 4.238e-10
 47.76702     94.5 1.069e+04 5.005e-10
 47.79045     94.5 1.101e+04 6.931e-10
 47.81069     94.0 1.051e+04 4.146e-10
 47.84799     93.9 1.086e+04 5.922e-10
 47.87665     94.0 1.122e+04 8.115e-10
 47.89689     93.0 1.131e+04 8.146e-10
 47.91873     92.9 1.137e+04 8.669e-10
 47.93888     92.7 1.166e+04 1.044e-09
 47.95912     92.2 1.225e+04 1.406e-09
 47.97497     90.7 1.323e+04 2.137e-09
 47.98509     90.3 1.302e+04 1.923e-09
 47.99837     88.8 1.405e+04 3.362e-09
 48.00849     88.2 1.421e+04 4.003e-09
 48.01985     88.4 1.503e+04 6.247e-09
 48.04009     88.7 1.570e+04 8.017e-09
 48.06033     88.5 1.586e+04 8.034e-09
 48.07239     88.1 1.587e+04 7.082e-09
 48.08251     87.2 1.523e+04 4.972e-09
 48.10082     85.5 1.499e+04 3.887e-09
 48.12028     82.9 1.426e+04 2.983e-09
 48.13040     81.1 1.292e+04 2.072e-09
 48.14130     79.5 1.220e+04 1.847e-09
 48.15968     78.6 1.190e+04 1.698e-09
 48.18002     78.3 1.117e+04 1.050e-09
 48.21234     76.7 1.046e+04 6.864e-10
 48.25283     75.2 9.633e+03 4.392e-10
 48.29331     74.3 8.921e+03 3.191e-10
 48.33379     74.2 8.582e+03 2.771e-10
 48.35471     74.5 8.425e+03 2.572e-10
 48.36498     74.7 8.321e+03 2.332e-10
 48.38455     75.3 8.451e+03 2.520e-10
 48.41476     76.0 8.500e+03 2.741e-10
 48.45525     76.6 8.465e+03 2.618e-10
 48.49573     77.3 8.394e+03 2.390e-10
 48.52930     77.9 8.298e+03 2.133e-10
 48.54954     78.1 8.416e+03 2.394e-10
 48.57670     78.5 8.236e+03 1.942e-10
 48.60814     78.7 8.031e+03 1.508e-10
 48.62838     78.9 8.263e+03 1.843e-10
 48.65767     78.8 8.196e+03 1.739e-10
 48.69815     78.9 8.287e+03 1.872e-10
 48.72414     78.9 8.656e+03 2.490e-10
 48.74438     79.0 8.652e+03 2.485e-10
 48.76890     78.7 8.993e+03 3.186e-10
 48.78904     78.4 9.307e+03 4.173e-10
 48.80928     78.2 9.735e+03 5.941e-10
 48.82136     78.2 1.031e+04 8.521e-10
 48.83148     77.9 1.042e+04 8.860e-10
 48.84977     77.6 1.115e+04 1.255e-09
 48.86189     77.3 1.184e+04 1.653e-09
 48.87201     76.2 1.242e+04 2.266e-09
 48.89025     76.0 1.274e+04 2.673e-09
 48.90865     75.7 1.296e+04 2.905e-09
 48.91878     75.8 1.283e+04 2.877e-09
 48.93074     75.4 1.290e+04 2.877e-09
 48.95098     75.0 1.291e+04 2.841e-09
 48.97122     74.6 1.287e+04 2.705e-09
 48.98381     74.3 1.276e+04 2.465e-09
 48.99393     73.9 1.264e+04 1.860e-09
 49.02192     73.4 1.244e+04 1.562e-09
 49.06250     72.5 1.203e+04 1.064e-09
 49.09356     72.3 1.159e+04 7.752e-10
 49.10661     71.7 1.145e+04 6.963e-10
 49.11604     71.2 1.086e+04 5.786e-10
 49.14347     71.7 1.078e+04 5.210e-10
 49.18396     72.4 1.071e+04 4.976e-10
 49.22444     73.3 1.071e+04 5.015e-10
 49.26492     74.2 1.074e+04 5.308e-10
 49.28840     75.3 1.085e+04 6.400e-10
 49.30864     74.1 1.075e+04 6.196e-10
 49.33963     75.3 1.094e+04 8.228e-10
 49.35987     75.1 1.051e+04 7.177e-10
 49.38638     76.3 1.062e+04 6.989e-10
 49.42686     77.3 1.100e+04 6.719e-10
 49.46299     77.9 1.138e+04 6.059e-10
 49.48323     76.2 1.061e+04 4.115e-10
 49.50783     76.2 1.029e+04 4.193e-10
 49.53809     76.3 1.008e+04 4.258e-10
 49.55824     76.5 9.971e+03 4.385e-10
 49.57033     76.7 9.922e+03 4.596e-10
 49.58045     76.6 9.910e+03 4.613e-10
 49.59338     77.1 9.949e+03 4.855e-10
 49.60350     76.5 9.862e+03 4.354e-10
 49.61896     77.0 9.953e+03 4.466e-10
 49.63921     77.5 1.003e+04 4.541e-10
 49.65763     77.9 1.007e+04 4.601e-10
 49.66775     77.9 1.001e+04 4.520e-10
 49.67969     78.3 1.006e+04 4.652e-10
 49.69993     78.8 1.014e+04 4.882e-10
 49.71530     79.2 1.025e+04 5.233e-10
 49.72542     78.9 9.967e+03 4.675e-10
 49.74042     79.3 1.005e+04 5.018e-10
 49.75504     79.7 1.014e+04 5.399e-10
 49.76516     79.6 1.002e+04 5.273e-10
 49.78090     80.2 1.009e+04 5.642e-10
 49.80114     81.0 1.022e+04 6.062e-10
 49.82138     81.5 1.057e+04 6.793e-10
 49.83721     81.6 1.122e+04 8.085e-10
 49.84733     81.3 1.065e+04 6.109e-10
 49.85246     81.1 1.137e+04 7.435e-10
 49.86258     81.3 1.119e+04 7.383e-10
 49.88211     80.7 1.226e+04 1.047e-09
 49.90235     79.7 1.359e+04 1.739e-09
 49.92259     79.0 1.482e+04 3.096e-09
 49.93773     78.5 1.528e+04 4.133e-09
 49.94472     78.3 1.551e+04 4.916e-09
 49.94978     78.1 1.554e+04 5.366e-09
 49.95792     77.7 1.611e+04 7.048e-09
 49.96409     77.7 1.660e+04 8.675e-09
 49.96920     77.9 1.528e+04 6.197e-09
 49.98332     77.6 1.600e+04 7.085e-09
 50.00356     76.5 1.598e+04 6.775e-09
 50.02380     75.2 1.554e+04 5.369e-09
 50.03717     73.6 1.465e+04 3.601e-09
 50.04729     73.8 1.521e+04 3.845e-09
 50.06429     71.0 1.365e+04 2.216e-09
 50.08104     68.5 1.221e+04 1.466e-09
 50.09116     68.0 1.169e+04 1.249e-09
 50.10477     67.7 1.139e+04 1.119e-09
 50.12447     67.7 1.125e+04 1.047e-09
 50.13459     67.6 1.105e+04 9.735e-10
 50.14526     67.9 1.091e+04 9.030e-10
 50.16550     68.1 1.070e+04 8.244e-10
 50.18574     68.3 1.045e+04 7.421e-10
 50.20296     68.6 1.020e+04 6.641e-10
 50.21308     68.7 1.002e+04 5.756e-10
 50.22189     69.1 9.820e+03 5.027e-10
 50.24223     69.7 9.621e+03 4.410e-10
 50.27702     70.8 9.560e+03 4.096e-10
 50.31495     72.0 9.567e+03 4.025e-10
 50.33519     71.1 9.278e+03 3.015e-10
 50.35799     72.5 9.175e+03 2.838e-10
 50.39667     74.1 9.000e+03 2.510e-10
 50.41692     74.8 8.926e+03 2.494e-10
 50.43896     76.5 8.723e+03 2.045e-10
 50.47944     77.9 8.499e+03 1.676e-10
 50.51993     79.4 8.471e+03 1.644e-10
 50.55878     80.9 8.582e+03 1.753e-10
 50.57902     80.1 8.824e+03 2.071e-10
 50.59151     81.0 9.170e+03 2.632e-10
 50.61175     81.7 9.268e+03 2.836e-10
 50.63116     81.6 9.436e+03 3.254e-10
 50.65131     81.5 9.557e+03 3.727e-10
 50.67155     81.4 9.789e+03 4.854e-10
 50.68873     81.4 1.002e+04 6.136e-10
 50.69768     81.7 1.005e+04 6.367e-10
 50.70074     81.2 1.026e+04 6.802e-10
 50.71203     80.6 1.051e+04 7.260e-10
 50.73227     79.3 1.068e+04 7.227e-10
 50.75252     77.5 1.077e+04 7.168e-10
 50.77276     75.1 1.086e+04 7.299e-10
 50.78615     72.7 1.083e+04 8.004e-10
 50.79627     71.5 1.119e+04 1.074e-09
 50.81253     70.2 1.112e+04 1.286e-09
 50.82265     70.0 1.118e+04 1.441e-09
 50.83348     69.9 1.126e+04 1.564e-09
 50.85373     69.8 1.134e+04 1.567e-09
 50.87344     69.5 1.146e+04 1.517e-09
 50.88356     69.5 1.175e+04 1.510e-09
 50.89421     68.4 1.173e+04 1.384e-09
 50.91445     66.8 1.177e+04 1.359e-09
 50.93445     65.2 1.186e+04 1.400e-09
 50.94457     64.5 1.131e+04 9.881e-10
 50.95494     63.4 1.148e+04 1.076e-09
 50.97086     62.5 1.167e+04 1.184e-09
 50.98098     61.3 1.114e+04 8.238e-10
 50.99542     60.4 1.115e+04 8.246e-10
 51.01566     59.4 1.109e+04 7.972e-10
 51.03590     58.0 1.088e+04 7.197e-10
 51.05615     56.3 1.055e+04 6.322e-10
 51.06648     54.5 1.025e+04 5.974e-10
 51.06849     54.8 1.020e+04 5.670e-10
 51.07840     54.5 9.882e+03 4.959e-10
 51.09663     53.1 9.918e+03 5.143e-10
 51.11687     51.7 1.013e+04 6.060e-10
 51.13711     50.2 1.055e+04 8.097e-10
 51.15557     48.9 1.119e+04 1.164e-09
 51.16569     47.9 1.165e+04 1.355e-09
 51.17760     46.3 1.275e+04 2.267e-09
 51.18840     45.0 1.388e+04 3.703e-09
 51.19852     45.3 1.354e+04 3.330e-09
 51.21808     44.6 1.453e+04 5.134e-09
 51.23832     44.1 1.539e+04 6.918e-09
 51.25299     43.5 1.612e+04 8.406e-09
 51.26311     43.6 1.593e+04 7.568e-09
 51.27881     42.9 1.632e+04 7.502e-09
 51.29905     41.9 1.647e+04 6.606e-09
 51.31031     40.5 1.641e+04 5.225e-09
 51.32043     40.7 1.606e+04 4.356e-09
 51.33953     37.6 1.554e+04 3.317e-09
 51.35041     33.9 1.443e+04 2.697e-09
 51.36053     31.3 1.263e+04 1.980e-09
 51.38002     30.1 1.237e+04 2.044e-09
 51.40026     29.6 1.250e+04 2.263e-09
 51.42050     29.6 1.292e+04 2.521e-09
 51.43223     29.5 1.336e+04 2.671e-09
 51.43931     30.2 1.306e+04 2.511e-09
 51.44782     29.7 1.230e+04 1.716e-09
 51.46099     29.0 1.245e+04 1.683e-09
 51.48123     27.8 1.268e+04 1.733e-09
 51.50147     26.2 1.325e+04 2.016e-09
 51.52171     24.8 1.393e+04 2.632e-09
 51.53512     24.2 1.455e+04 3.464e-09
 51.54524     24.0 1.385e+04 2.745e-09
 51.55414     24.5 1.443e+04 3.509e-09
 51.56426     25.8 1.396e+04 2.871e-09
 51.58244     26.3 1.458e+04 3.531e-09
 51.60268     26.5 1.513e+04 4.106e-09
 51.62241     26.5 1.585e+04 4.889e-09
 51.63254     26.7 1.501e+04 3.520e-09
 51.64316     26.5 1.616e+04 4.303e-09
 51.66340     26.4 1.667e+04 5.534e-09
 51.67606     27.4 1.652e+04 7.182e-09
 51.68618     28.1 1.681e+04 6.294e-09
 51.70389     29.1 1.651e+04 7.655e-09
 51.71983     30.1 1.635e+04 8.708e-09
 51.72995     29.8 1.670e+04 5.160e-09
 51.74437     30.7 1.645e+04 5.616e-09
 51.76461     31.6 1.638e+04 5.979e-09
 51.78486     32.6 1.643e+04 5.968e-09
 51.79797     33.7 1.648e+04 5.661e-09
 51.80809     34.2 1.697e+04 8.128e-09
 51.81725     35.7 1.723e+04 7.766e-09
 51.82737     34.4 1.662e+04 4.668e-09
 51.84558     35.0 1.683e+04 4.337e-09
 51.86582     34.6 1.715e+04 3.913e-09
 51.88607     32.9 1.749e+04 4.026e-09
 51.90454     30.2 1.804e+04 4.731e-09
 51.91467     28.6 1.514e+04 2.744e-09
 51.91989     27.0 1.521e+04 3.691e-09
 51.93001     27.4 1.610e+04 4.956e-09
 51.94679     27.2 1.611e+04 6.266e-09
 51.96703     27.4 1.621e+04 6.346e-09
 51.98728     27.8 1.623e+04 5.774e-09
 52.00196     27.6 1.650e+04 4.670e-09
 52.01208     26.3 1.340e+04 2.915e-09
 52.02776     25.2 1.342e+04 2.395e-09
 52.04180     23.7 1.357e+04 2.016e-09
 52.05192     22.6 1.255e+04 1.516e-09
 52.06824     21.7 1.270e+04 1.312e-09
 52.08849     21.6 1.292e+04 1.333e-09
 52.09938     21.9 1.324e+04 1.439e-09
 52.10950     21.9 1.298e+04 1.488e-09
 52.12897     21.6 1.379e+04 1.794e-09
 52.14921     21.1 1.480e+04 2.414e-09
 52.16372     20.4 1.550e+04 3.566e-09
 52.17384     20.0 1.487e+04 3.262e-09
 52.18667     20.5 1.517e+04 4.462e-09
 52.19680     21.4 1.402e+04 4.289e-09
 52.20994     23.1 1.431e+04 5.154e-09
 52.23018     24.9 1.472e+04 5.780e-09
 52.25042     26.4 1.541e+04 6.070e-09
 52.27066     27.6 1.584e+04 5.698e-09
 52.28409     28.2 1.623e+04 4.780e-09
 52.28894     27.1 1.559e+04 1.741e-09
 52.29575     26.5 1.469e+04 1.502e-09
 52.31115     25.0 1.431e+04 9.910e-10
 52.34161     21.7 1.178e+04 4.800e-10
 52.38219     19.4 1.057e+04 5.348e-10
 52.42267     19.5 1.034e+04 7.590e-10
 52.45888     20.1 1.019e+04 7.833e-10
 52.47912     19.3 9.259e+03 4.223e-10
 52.50364     20.4 9.179e+03 3.708e-10
 52.52966     20.5 8.993e+03 2.613e-10
 52.54990     23.0 9.158e+03 3.649e-10
 52.58461     22.8 8.863e+03 2.396e-10
 52.62509     22.4 8.594e+03 1.955e-10
 52.65371     22.7 8.450e+03 2.020e-10
 52.67395     22.9 8.575e+03 2.021e-10
 52.70606     24.0 8.617e+03 2.402e-10
 52.74655     25.6 8.639e+03 2.725e-10
 52.77349     27.0 8.864e+03 2.768e-10
 52.79373     28.3 8.599e+03 2.611e-10
 52.82751     29.8 8.770e+03 2.692e-10
 52.84855     30.5 9.294e+03 3.078e-10
 52.86879     31.5 9.233e+03 3.210e-10
 52.90848     32.5 9.717e+03 4.102e-10
 52.93574     32.5 1.018e+04 5.098e-10
 52.94577     33.2 9.956e+03 4.704e-10
 52.95889     33.2 1.031e+04 5.682e-10
 52.97913     33.0 1.073e+04 7.474e-10
 52.99938     32.7 1.111e+04 1.065e-09
 53.01712     32.4 1.162e+04 1.481e-09
 53.02724     33.4 1.104e+04 1.160e-09
 53.03306     32.8 1.173e+04 1.584e-09
 53.04318     31.2 1.295e+04 2.199e-09
 53.06010     31.2 1.340e+04 2.965e-09
 53.08034     31.5 1.330e+04 3.046e-09
 53.10059     32.4 1.293e+04 2.786e-09
 53.12036     33.0 1.247e+04 2.334e-09
 53.13048     32.7 1.277e+04 2.371e-09
 53.13904     31.9 1.268e+04 1.717e-09
 53.14916     33.4 1.234e+04 1.674e-09
 53.16131     32.8 1.203e+04 1.232e-09
 53.19177     31.4 1.212e+04 1.030e-09
 53.21797     30.7 1.203e+04 1.111e-09
 53.23821     29.0 1.136e+04 1.074e-09
 53.26115     31.2 1.117e+04 1.116e-09
 53.28139     33.4 1.053e+04 6.281e-10
 53.31332     35.7 1.045e+04 6.833e-10
 53.35381     38.1 1.051e+04 7.291e-10
 53.39256     40.4 1.062e+04 7.604e-10
 53.41281     40.4 9.906e+03 4.636e-10
 53.43477     43.0 1.007e+04 5.297e-10
 53.46504     44.6 1.034e+04 6.331e-10
 53.48518     45.9 1.059e+04 7.515e-10
 53.49991     47.1 1.082e+04 9.002e-10
 53.50938     47.2 1.073e+04 8.231e-10
 53.51490     48.2 1.083e+04 8.403e-10
 53.52567     49.2 1.117e+04 1.045e-09
 53.54591     50.4 1.153e+04 1.308e-09
 53.56615     51.5 1.196e+04 1.614e-09
 53.58639     52.4 1.246e+04 1.989e-09
 53.59732     53.0 1.310e+04 2.489e-09
 53.60744     53.1 1.358e+04 2.637e-09
 53.62670     53.1 1.454e+04 3.524e-09
 53.63682     53.4 1.530e+04 5.239e-09
 53.64712     53.7 1.630e+04 7.602e-09
 53.66736     54.3 1.703e+04 9.738e-09
 53.68462     54.5 1.724e+04 9.904e-09
 53.69474     55.9 1.750e+04 1.054e-08
 53.70785     56.1 1.721e+04 9.375e-09
 53.72809     55.1 2.016e+04 7.886e-09
 53.73834     49.3 2.492e+04 1.018e-08
 53.74335     51.2 2.357e+04 9.517e-09
 53.75329     39.2 3.396e+04 1.612e-08
 53.75863     30.6 3.292e+04 2.649e-08
 53.76370     33.2 3.188e+04 2.501e-08
 53.77353     25.9 2.560e+04 4.676e-08
 53.78194     21.7 2.307e+04 4.782e-08
 53.78700     23.0 2.392e+04 4.688e-08
 53.79378     18.0 2.235e+04 4.027e-08
 53.80390     12.6 2.666e+04 1.933e-08
 53.81402      4.1 3.080e+04 1.071e-08
 53.81959    -14.4 2.187e+04 3.911e-09
 53.82465     -9.6 2.504e+04 4.399e-09
 53.83065    -19.1 1.952e+04 3.848e-09
 53.83571    -23.1 1.772e+04 3.842e-09
 53.84949    -28.1 1.546e+04 3.641e-09
 53.86933    -30.0 1.635e+04 6.313e-09
 53.87945    -34.1 1.697e+04 8.060e-09
 53.88065    -33.2 1.677e+04 8.346e-09
 53.89077    -32.8 1.710e+04 1.064e-08
 53.91027    -31.4 1.659e+04 1.008e-08
 53.93051    -30.2 1.604e+04 7.133e-09
 53.95075    -30.0 1.544e+04 4.231e-09
 53.96675    -32.1 1.440e+04 2.384e-09
 53.97687    -35.3 1.313e+04 1.526e-09
 53.99123    -36.9 1.173e+04 1.099e-09
 54.00256    -37.3 1.130e+04 9.937e-10
 54.01268    -37.6 1.132e+04 1.010e-09
 54.04194    -37.5 1.110e+04 9.533e-10
 54.08252    -36.8 1.095e+04 9.196e-10
 54.12300    -36.6 1.088e+04 8.773e-10
 54.15166    -37.1 1.068e+04 7.599e-10
 54.17190    -38.6 1.026e+04 5.974e-10
 54.20397    -40.2 1.015e+04 5.696e-10
 54.23647    -41.4 1.012e+04 6.133e-10
 54.25671    -41.8 1.015e+04 6.402e-10
 54.28494    -42.2 1.012e+04 6.580e-10
 54.32542    -42.0 9.684e+03 5.253e-10
 54.34649    -41.6 8.935e+03 2.825e-10
 54.36673    -42.2 8.733e+03 2.479e-10
 54.40639    -42.0 8.099e+03 1.288e-10
 54.44687    -41.6 7.812e+03 8.285e-11
 54.48030    -40.7 7.751e+03 7.308e-11
 54.50054    -40.6 7.784e+03 9.073e-11
 54.52108    -39.4 7.800e+03 9.005e-11
 54.54132    -40.2 8.035e+03 1.233e-10
 54.56833    -39.3 8.369e+03 1.672e-10
 54.60881    -38.3 8.637e+03 2.288e-10
 54.64929    -37.1 8.885e+03 2.872e-10
 54.68978    -35.9 9.016e+03 3.144e-10
 54.71592    -34.9 9.045e+03 3.099e-10
 54.73002    -35.7 9.236e+03 3.241e-10
 54.74437    -35.5 9.279e+03 3.524e-10
 54.77075    -34.8 9.276e+03 3.120e-10
 54.81123    -34.2 9.313e+03 2.969e-10
 54.85171    -33.5 9.430e+03 3.051e-10
 54.89051    -32.7 9.596e+03 3.290e-10
 54.91075    -34.1 9.990e+03 4.484e-10
 54.93268    -33.0 1.015e+04 4.880e-10
 54.96796    -31.8 1.025e+04 4.977e-10
 54.98820    -31.9 1.060e+04 6.738e-10
 55.01365    -30.6 1.064e+04 6.323e-10
 55.05413    -29.2 1.066e+04 5.980e-10
 55.08534    -27.8 1.069e+04 5.506e-10
 55.10558    -28.7 1.056e+04 4.235e-10
 55.13510    -27.3 1.054e+04 3.390e-10
 55.17558    -25.8 1.055e+04 2.893e-10
 55.21179    -24.3 1.057e+04 2.779e-10
 55.23203    -24.9 1.068e+04 3.009e-10
 55.25655    -23.5 1.080e+04 3.406e-10
 55.28018    -22.1 1.089e+04 4.508e-10
 55.30042    -22.5 1.042e+04 2.394e-10
 55.33752    -21.0 1.050e+04 3.025e-10
 55.37800    -19.5 1.087e+04 3.872e-10
 55.41849    -19.1 1.094e+04 4.270e-10
 55.45477    -19.0 1.087e+04 4.722e-10
 55.47165    -18.9 1.025e+04 3.126e-10
 55.47586    -19.7 9.922e+03 2.638e-10
 55.49946    -18.2 9.920e+03 2.927e-10
 55.53994    -16.6 9.678e+03 2.652e-10
 55.58042    -14.7 9.439e+03 1.743e-10
 55.62091    -13.2 9.271e+03 9.910e-11
 55.64960    -11.9 9.076e+03 5.960e-11
 55.66984    -11.3 9.045e+03 5.545e-11
 55.69945     -9.7 8.828e+03 4.770e-11
 55.71969     -9.8 8.655e+03 4.590e-11
 55.74236     -7.9 8.635e+03 4.360e-11
 55.78284     -6.1 8.789e+03 4.521e-11
 55.82333     -4.4 8.713e+03 6.005e-11
 55.84444     -2.1 8.553e+03 8.716e-11
 55.86468     -1.3 8.617e+03 9.741e-11
 55.90430      1.7 8.768e+03 1.206e-10
 55.94328      3.8 8.949e+03 1.247e-10
 55.96352      4.1 8.849e+03 8.998e-11
 55.98526      5.6 8.930e+03 1.050e-10
 56.01903      6.9 9.029e+03 1.483e-10
 56.03927      7.5 9.061e+03 1.285e-10
 56.06623      8.9 9.233e+03 2.147e-10
 56.10672     10.7 9.580e+03 3.610e-10
 56.14720     12.7 9.860e+03 4.863e-10
 56.18711     14.4 9.945e+03 5.036e-10
 56.20735     14.5 9.929e+03 5.344e-10
 56.21386     15.9 9.958e+03 5.042e-10
 56.23410     16.3 1.044e+04 7.606e-10
 56.26865     17.4 1.034e+04 6.575e-10
 56.30914     17.8 1.044e+04 6.666e-10
 56.34962     18.2 1.081e+04 8.749e-10
 56.38845     19.5 1.118e+04 1.155e-09
 56.40870     19.8 1.080e+04 8.145e-10
 56.43059     21.0 1.079e+04 8.257e-10
 56.45118     22.8 1.050e+04 7.078e-10
 56.47142     22.8 1.074e+04 8.483e-10
 56.51156     24.1 1.034e+04 6.076e-10
 56.55204     24.7 1.007e+04 4.440e-10
 56.58329     25.7 9.968e+03 4.130e-10
 56.60353     26.3 1.016e+04 5.168e-10
 56.63301     27.6 1.022e+04 5.326e-10
 56.67349     29.1 1.031e+04 5.565e-10
 56.69501     30.6 1.032e+04 5.553e-10
 56.71525     30.9 1.031e+04 5.467e-10
 56.75446     32.6 1.027e+04 5.270e-10
 56.77812     34.2 1.011e+04 4.872e-10
 56.79836     34.9 1.006e+04 4.310e-10
 56.83543     36.4 9.922e+03 3.647e-10
 56.87591     37.9 9.969e+03 3.525e-10
 56.91640     39.3 1.006e+04 3.707e-10
 56.93874     40.1 1.008e+04 3.875e-10
 56.94876     40.0 1.025e+04 4.282e-10
 56.96264     40.4 1.040e+04 5.030e-10
 56.97286     40.8 1.043e+04 4.383e-10
 56.98715     41.2 1.061e+04 5.591e-10
 57.00729     41.6 1.086e+04 7.214e-10
 57.02753     42.2 1.130e+04 9.448e-10
 57.04777     42.7 1.176e+04 1.210e-09
 57.06006     43.0 1.221e+04 1.506e-09
 57.06272     43.1 1.175e+04 1.143e-09
 57.07068     43.1 1.199e+04 1.298e-09
 57.08826     43.3 1.222e+04 1.452e-09
 57.10850     43.2 1.242e+04 1.610e-09
 57.12874     43.0 1.259e+04 1.718e-09
 57.14735     42.7 1.265e+04 1.758e-09
 57.16769     43.1 1.198e+04 1.318e-09
 57.18257     42.4 1.210e+04 1.393e-09
 57.20281     41.1 1.217e+04 1.516e-09
 57.23005     39.8 1.250e+04 1.733e-09
 57.24477     38.4 1.281e+04 2.014e-09
 57.25489     39.2 1.271e+04 1.964e-09
 57.27044     38.2 1.300e+04 2.441e-09
 57.29068     38.2 1.334e+04 3.097e-09
 57.30439     38.4 1.359e+04 3.554e-09
 57.31451     39.0 1.283e+04 2.643e-09
 57.33116     38.9 1.290e+04 2.272e-09
 57.34219     37.5 1.306e+04 1.921e-09
 57.35231     38.1 1.340e+04 2.297e-09
 57.37165     36.0 1.324e+04 1.887e-09
 57.39189     33.8 1.256e+04 1.620e-09
 57.41213     32.3 1.186e+04 1.523e-09
 57.42630     31.6 1.165e+04 1.531e-09
 57.43353     31.5 1.129e+04 1.034e-09
 57.43960     31.6 1.158e+04 1.185e-09
 57.45261     30.8 1.159e+04 1.231e-09
 57.47286     30.1 1.192e+04 1.273e-09
 57.49310     29.4 1.243e+04 1.439e-09
 57.51334     28.7 1.272e+04 1.550e-09
 57.52690     27.0 1.313e+04 1.903e-09
 57.53702     27.0 1.356e+04 2.217e-09
 57.54822     24.3 1.412e+04 3.060e-09
 57.55834     24.9 1.342e+04 2.215e-09
 57.57407     23.0 1.389e+04 3.609e-09
 57.59431     24.1 1.418e+04 5.249e-09
 57.61419     25.2 1.428e+04 5.483e-09
 57.62432     25.6 1.414e+04 4.799e-09
 57.63479     26.5 1.377e+04 4.126e-09
 57.65503     26.1 1.350e+04 2.878e-09
 57.67013     25.0 1.268e+04 1.738e-09
 57.68025     25.8 1.266e+04 1.806e-09
 57.69552     24.0 1.198e+04 1.251e-09
 57.71171     22.0 1.112e+04 8.202e-10
 57.73205     21.9 1.058e+04 5.298e-10
 57.76656     16.7 1.135e+04 4.840e-10
 57.79214     10.3 1.252e+04 1.052e-09
 57.80217     12.8 1.242e+04 7.976e-10
 57.80903     11.3 1.212e+04 1.350e-09
 57.81915     11.1 1.201e+04 1.211e-09
 57.83721     11.8 1.183e+04 1.701e-09
 57.85745     12.2 1.207e+04 1.727e-09
 57.87769     12.3 1.190e+04 1.402e-09
 57.89632     11.5 1.134e+04 9.817e-10
 57.90645     11.4 1.156e+04 1.119e-09
 57.91396      9.9 1.094e+04 7.323e-10
 57.92408     10.9 1.119e+04 8.479e-10
 57.93842      9.0 1.049e+04 6.062e-10
 57.95866      7.6 9.847e+03 4.938e-10
 57.97890      7.4 9.704e+03 4.842e-10
 57.99374      7.7 9.696e+03 5.129e-10
 58.00386      7.9 9.723e+03 5.089e-10
 58.01939      8.3 9.744e+03 5.022e-10
 58.03588      8.8 9.764e+03 4.833e-10
 58.04600      9.1 9.872e+03 4.998e-10
 58.05987      9.3 1.003e+04 4.840e-10
 58.08011      8.7 1.019e+04 4.683e-10
 58.09116      7.8 1.018e+04 4.862e-10
 58.10128      7.2 9.997e+03 4.347e-10
 58.12060      6.7 9.973e+03 4.959e-10
 58.14084      6.6 1.010e+04 5.579e-10
 58.15779      6.6 1.023e+04 5.980e-10
 58.16791      6.7 1.023e+04 5.811e-10
 58.17845      6.7 1.030e+04 5.833e-10
 58.18858      6.4 1.016e+04 5.258e-10
 58.20157      6.2 1.010e+04 4.585e-10
 58.22181      5.9 1.011e+04 4.113e-10
 58.25227      5.3 1.007e+04 3.112e-10
 58.27607      5.1 9.693e+03 2.053e-10
 58.29631      5.8 9.566e+03 1.786e-10
 58.33333      5.3 9.451e+03 1.381e-10
 58.37382      5.0 9.497e+03 1.368e-10
 58.40182      4.3 9.433e+03 2.024e-10
 58.42206      4.5 9.464e+03 2.110e-10
 58.45066      5.7 9.682e+03 3.383e-10
 58.47090      7.0 9.486e+03 2.798e-10
 58.49527      7.8 9.893e+03 3.658e-10
 58.53575      7.9 1.022e+04 3.811e-10
 58.57624      7.7 1.043e+04 3.365e-10
 58.61672      7.5 1.042e+04 2.513e-10
 58.64549      7.4 9.906e+03 1.983e-10
 58.66573      9.3 1.047e+04 3.349e-10
 58.69769      9.2 1.008e+04 2.341e-10
 58.73817      8.8 1.005e+04 1.761e-10
 58.77866      8.5 9.994e+03 1.677e-10
 58.81914      9.4 9.750e+03 1.790e-10
 58.84033     10.8 9.529e+03 1.669e-10
 58.86057     11.6 9.682e+03 1.534e-10
 58.88948     12.1 9.878e+03 1.241e-10
 58.90972     11.3 9.868e+03 1.284e-10
 58.94059     10.7 1.037e+04 1.534e-10
 58.97086     10.5 1.080e+04 2.089e-10
 58.99100      9.5 1.119e+04 2.702e-10
 59.01120      8.6 1.120e+04 5.231e-10
 59.02479      7.5 1.194e+04 1.127e-09
 59.03506      8.9 1.130e+04 6.262e-10
 59.06205      7.9 1.290e+04 1.474e-09
 59.09231      4.9 1.396e+04 2.608e-09
 59.11214      4.1 1.364e+04 2.932e-09
 59.12226      4.6 1.345e+04 2.383e-09
 59.13270      4.4 1.335e+04 2.599e-09
 59.14323      3.9 1.316e+04 2.330e-09
 59.15345      2.6 1.266e+04 1.742e-09
 59.18350      1.0 1.181e+04 1.109e-09
 59.20975     -0.5 1.084e+04 7.052e-10
 59.22999      1.4 1.110e+04 7.723e-10
 59.26447      0.4 1.049e+04 5.524e-10
 59.30495      0.0 1.008e+04 4.262e-10
 59.34543     -0.2 9.802e+03 3.369e-10
 59.37714      0.0 9.645e+03 2.845e-10
 59.39580     -0.4 9.368e+03 2.717e-10
 59.40459      0.3 9.513e+03 3.065e-10
 59.42640      1.0 9.502e+03 2.628e-10
 59.46689      1.1 9.601e+03 2.281e-10
 59.50737      0.5 1.003e+04 2.453e-10
 59.54785      0.1 1.039e+04 3.644e-10
 59.57918      0.2 1.065e+04 5.300e-10
 59.59942      1.2 1.033e+04 3.979e-10
 59.62097      0.6 1.055e+04 4.646e-10
 59.64121      0.3 1.000e+04 2.718e-10
 59.66931     -2.4 1.062e+04 4.343e-10
 59.70979     -4.4 1.113e+04 8.477e-10
 59.75027     -4.5 1.177e+04 1.331e-09
 59.77401     -4.3 1.194e+04 1.336e-09
 59.78403     -3.8 1.234e+04 1.741e-09
 59.80068     -3.5 1.196e+04 1.385e-09
 59.83114     -4.4 1.103e+04 7.304e-10
 59.86480     -6.1 9.882e+03 3.338e-10
 59.88504     -5.9 1.014e+04 4.082e-10
 59.91221     -7.3 9.834e+03 2.791e-10
 59.94860     -9.1 9.978e+03 2.742e-10
 59.96885     -8.0 9.863e+03 2.750e-10
 59.99318     -9.8 1.071e+04 4.896e-10
 60.02344    -10.7 1.118e+04 8.920e-10
 60.04359    -10.9 1.134e+04 1.040e-09
 60.05595    -10.7 1.154e+04 1.241e-09
 60.06607    -10.5 1.155e+04 1.234e-09
 60.08407    -10.8 1.153e+04 1.241e-09
 60.10431    -10.9 1.130e+04 1.113e-09
 60.11855    -11.3 1.096e+04 9.168e-10
 60.12867    -11.2 1.095e+04 9.209e-10
 60.14324    -11.6 1.067e+04 7.911e-10
 60.16358    -11.2 1.052e+04 6.979e-10
 60.19560    -11.0 1.009e+04 5.436e-10
 60.23608    -10.9 9.836e+03 4.632e-10
 60.27657    -10.5 9.763e+03 4.468e-10
 60.31705     -9.7 9.707e+03 4.388e-10
 60.33827     -8.8 9.632e+03 3.919e-10
 60.35343     -7.9 9.623e+03 3.744e-10
 60.37270     -6.6 9.512e+03 3.505e-10
 60.39802     -5.5 9.581e+03 3.404e-10
 60.43850     -4.8 9.664e+03 3.043e-10
 60.47899     -4.4 9.731e+03 2.736e-10
 60.51286     -4.4 9.856e+03 2.719e-10
 60.53310     -3.3 1.009e+04 3.547e-10
 60.55995     -3.6 1.030e+04 3.914e-10
 60.59629     -3.5 1.060e+04 5.532e-10
 60.61653     -2.2 1.044e+04 5.141e-10
 60.64092     -2.0 1.062e+04 6.364e-10
 60.68141     -1.9 1.072e+04 6.842e-10
 60.70770     -1.8 1.057e+04 6.308e-10
 60.71772     -1.8 1.052e+04 6.140e-10
 60.72813     -1.6 1.037e+04 5.657e-10
 60.73825     -1.4 1.031e+04 5.447e-10
 60.76228     -1.2 9.962e+03 4.281e-10
 60.80286     -0.4 9.423e+03 2.833e-10
 60.84012      0.8 8.888e+03 1.698e-10
 60.86036      2.0 8.821e+03 1.616e-10
 60.88229      3.7 8.387e+03 8.999e-11
 60.90253      3.8 8.455e+03 9.439e-11
 60.92431      5.3 8.234e+03 6.065e-11
 60.96479      6.6 8.305e+03 4.932e-11
 61.00528      5.5 9.840e+03 5.350e-11
 61.04576      1.5 1.603e+04 2.036e-10
 61.07603      2.9 1.565e+04 2.147e-10
 61.08705      3.7 1.614e+04 9.862e-10
 61.09487      5.1 1.506e+04 4.693e-10
 61.10409     11.5 1.112e+04 1.121e-10
 61.11651      8.2 1.499e+04 3.079e-10
 61.13665      7.5 1.966e+04 1.189e-09
 61.15690      5.7 2.369e+04 6.109e-09
 61.17203      5.5 2.524e+04 9.016e-09
 61.17931      5.7 2.629e+04 2.483e-08
 61.18437      6.3 2.641e+04 1.290e-08
 61.19222      6.8 2.751e+04 3.179e-08
 61.20234      7.5 2.692e+04 8.612e-08
 61.21246      8.6 2.540e+04 2.023e-07
 61.22075      9.5 2.396e+04 3.842e-07
 61.22581     13.2 2.453e+04 3.267e-07
 61.22802     14.3 2.287e+04 6.903e-07
 61.23308     12.0 2.361e+04 6.789e-07
 61.24283     11.2 2.199e+04 1.464e-06
 61.24981      7.0 2.289e+04 9.806e-07
 61.25232      5.7 2.172e+04 1.468e-06
 61.25371      2.5 2.349e+04 1.042e-06
 61.25624      5.7 2.152e+04 2.042e-06
 61.26049     -0.5 2.433e+04 1.158e-06
 61.26555    -10.4 2.835e+04 6.832e-07
 61.27061    -24.0 2.952e+04 5.746e-07
 61.27414    -37.3 2.672e+04 7.164e-07
 61.27668    -34.9 2.470e+04 1.333e-06
 61.28073    -45.3 2.184e+04 1.611e-06
 61.28419    -49.4 1.954e+04 2.290e-06
 61.28672    -50.9 1.937e+04 2.681e-06
 61.29085    -52.3 1.917e+04 2.868e-06
 61.29591    -53.3 1.951e+04 2.571e-06
 61.29850    -55.0 2.042e+04 1.788e-06
 61.30103    -55.5 2.052e+04 1.645e-06
 61.30604    -58.1 2.186e+04 9.611e-07
 61.31365    -61.7 2.390e+04 4.531e-07
 61.32037    -66.5 2.713e+04 1.446e-07
 61.32543    -69.6 2.742e+04 7.928e-08
 61.33392    -75.5 2.450e+04 2.764e-08
 61.34266    -78.0 2.039e+04 2.034e-08
 61.34772    -80.6 2.035e+04 2.083e-08
 61.35416    -79.1 2.007e+04 1.985e-08
 61.36402    -77.6 2.040e+04 1.854e-08
 61.36908    -77.5 2.044e+04 2.620e-08
 61.37440    -76.8 2.063e+04 2.614e-08
 61.38452    -76.3 2.085e+04 2.506e-08
 61.39464    -75.9 2.104e+04 2.412e-08
 61.40362    -75.8 2.120e+04 2.369e-08
 61.40868    -77.2 2.134e+04 2.305e-08
 61.41273    -77.3 2.133e+04 2.275e-08
 61.41779    -77.3 2.177e+04 5.085e-08
 61.42501    -77.4 2.168e+04 5.584e-08
 61.43513    -77.5 2.159e+04 5.935e-08
 61.44525    -76.8 2.124e+04 6.083e-08
 61.45537    -75.7 2.094e+04 5.712e-08
 61.46144    -74.8 2.095e+04 5.060e-08
 61.46559    -75.0 2.138e+04 6.732e-08
 61.46964    -76.9 2.217e+04 4.657e-08
 61.47561    -80.9 2.687e+04 3.887e-08
 61.48573    -88.8 3.379e+04 3.732e-08
 61.49585    -98.2 3.457e+04 5.078e-08
 61.50508   -106.7 3.148e+04 7.480e-08
 61.51015   -109.5 2.943e+04 9.511e-08
 61.51609   -115.0 2.531e+04 1.228e-07
 61.52554   -118.0 2.299e+04 1.341e-07
 61.53060   -118.9 2.261e+04 9.067e-08
 61.53634   -120.2 2.333e+04 7.794e-08
 61.54646   -122.8 2.534e+04 4.249e-08
 61.55379   -128.8 2.680e+04 1.419e-08
 61.55885   -130.8 2.667e+04 1.329e-08
 61.56670   -141.7 2.313e+04 2.758e-09
 61.57682   -151.4 1.502e+04 1.462e-09
 61.58649   -154.8 1.274e+04 1.266e-09
 61.59160   -152.4 1.496e+04 1.516e-09
 61.60222   -158.0 1.164e+04 1.144e-09
 61.62246   -159.4 1.117e+04 1.077e-09
 61.64119   -160.2 1.115e+04 1.072e-09
 61.65131   -160.4 1.120e+04 1.147e-09
 61.66295   -161.5 1.140e+04 1.245e-09
 61.68319   -162.9 1.198e+04 1.525e-09
 61.70343   -164.6 1.259e+04 1.883e-09
 61.72367   -167.4 1.330e+04 2.291e-09
 61.73860   -169.7 1.369e+04 2.611e-09
 61.74872   -169.9 1.325e+04 2.282e-09
 61.76416   -172.3 1.335e+04 2.376e-09
 61.78440   -174.6 1.336e+04 2.386e-09
 61.80464   -176.5 1.314e+04 2.306e-09
 61.82488   -178.0 1.273e+04 1.972e-09
 61.83548   -179.4 1.225e+04 1.570e-09
 61.83650   -180.2 1.164e+04 1.202e-09
 61.85636   -180.2 1.101e+04 8.389e-10
 61.89592   -182.7 1.016e+04 5.280e-10
 61.93641   -184.6 9.842e+03 4.274e-10
 61.95749   -185.3 9.875e+03 4.315e-10
 61.96752   -185.9 9.786e+03 3.977e-10
 61.98682   -186.7 9.826e+03 4.109e-10
 62.01071   -187.7 9.961e+03 4.349e-10
 62.03105   -186.6 9.712e+03 3.901e-10
 62.05786   -188.7 9.942e+03 4.344e-10
 62.07951   -191.1 1.012e+04 4.708e-10
 62.09975   -191.6 1.017e+04 4.655e-10
 62.13883   -194.4 1.048e+04 5.317e-10
 62.17931   -197.2 1.068e+04 5.759e-10
 62.20564   -200.1 1.077e+04 6.000e-10
 62.22588   -199.9 1.096e+04 7.017e-10
 62.26028   -202.8 1.095e+04 7.040e-10
 62.30076   -205.6 1.083e+04 6.692e-10
 62.32334   -208.4 1.072e+04 6.340e-10
 62.34358   -210.9 1.065e+04 6.216e-10
 62.38023   -213.9 1.053e+04 5.979e-10
 62.40048   -213.2 1.050e+04 5.711e-10
 62.42222   -215.7 1.038e+04 5.533e-10
 62.46270   -217.8 1.014e+04 5.207e-10
 62.50318   -219.3 9.774e+03 4.602e-10
 62.54367   -220.1 9.377e+03 3.808e-10
 62.56717   -220.5 9.049e+03 3.115e-10
 62.57832   -221.1 8.564e+03 2.023e-10
 62.59531   -220.4 8.725e+03 2.185e-10
 62.62464   -220.5 8.681e+03 2.063e-10
 62.66512   -220.7 8.675e+03 2.034e-10
 62.70560   -221.0 8.679e+03 2.049e-10
 62.74609   -221.4 8.903e+03 2.455e-10
 62.76990   -221.8 9.339e+03 3.361e-10
 62.79014   -221.4 9.606e+03 4.432e-10
 62.81100   -221.7 9.935e+03 5.550e-10
 62.83124   -222.3 1.017e+04 6.262e-10
 62.86754   -223.0 1.044e+04 7.420e-10
 62.90802   -223.9 1.051e+04 7.695e-10
 62.94449   -224.8 1.048e+04 7.648e-10
 62.96474   -223.9 1.041e+04 7.308e-10
 62.98899   -224.6 1.024e+04 6.361e-10
 63.02948   -225.3 9.987e+03 5.154e-10
 63.05483   -226.0 9.787e+03 4.370e-10
 63.07507   -227.3 1.005e+04 5.574e-10
 63.11044   -228.0 9.987e+03 5.346e-10
 63.13933   -228.7 9.968e+03 5.298e-10
 63.15957   -228.9 1.045e+04 6.800e-10
 63.19141   -229.4 1.045e+04 6.901e-10
 63.23190   -229.9 1.041e+04 6.885e-10
 63.27238   -229.9 1.028e+04 6.487e-10
 63.29866   -229.7 1.021e+04 6.220e-10
 63.31890   -231.1 1.032e+04 6.166e-10
 63.33406   -231.2 1.038e+04 6.452e-10
 63.34409   -232.0 1.046e+04 6.493e-10
 63.36327   -232.3 1.046e+04 6.492e-10
 63.38352   -232.9 1.050e+04 6.503e-10
 63.40376   -234.3 1.100e+04 6.656e-10
 63.42038   -236.8 1.217e+04 8.407e-10
 63.42776   -240.0 1.310e+04 1.339e-09
 63.43138   -241.2 1.332e+04 1.440e-09
 63.44424   -243.4 1.368e+04 2.069e-09
 63.46448   -245.2 1.369e+04 2.616e-09
 63.48473   -246.5 1.360e+04 2.813e-09
 63.50497   -247.6 1.353e+04 2.833e-09
 63.51868   -248.4 1.310e+04 2.518e-09
 63.52880   -249.2 1.300e+04 2.372e-09
 63.54229   -250.1 1.257e+04 1.636e-09
 63.55241   -252.5 1.208e+04 1.011e-09
 63.56569   -254.0 1.141e+04 6.770e-10
 63.58594   -254.9 1.086e+04 5.281e-10
 63.60597   -255.3 1.065e+04 4.862e-10
 63.61610   -256.0 1.071e+04 5.087e-10
 63.62642   -255.9 1.068e+04 5.029e-10
 63.64666   -255.5 1.073e+04 5.056e-10
 63.66421   -255.3 1.098e+04 5.518e-10
 63.67433   -255.7 1.088e+04 5.383e-10
 63.68715   -255.5 1.109e+04 6.071e-10
 63.70339   -255.2 1.128e+04 6.866e-10
 63.71351   -255.7 1.152e+04 7.582e-10
 63.72763   -255.4 1.167e+04 8.275e-10
 63.74787   -255.3 1.179e+04 8.847e-10
 63.76811   -255.1 1.185e+04 9.188e-10
 63.78612   -255.1 1.187e+04 9.302e-10
 63.79624   -255.2 1.179e+04 8.788e-10
 63.80081   -255.1 1.181e+04 8.856e-10
 63.81093   -255.4 1.189e+04 9.040e-10
 63.82884   -255.1 1.185e+04 8.884e-10
 63.84908   -254.7 1.172e+04 8.151e-10
 63.86932   -254.1 1.153e+04 7.174e-10
 63.88810   -253.4 1.135e+04 6.165e-10
 63.89823   -253.3 1.125e+04 6.025e-10
 63.90804   -252.6 1.108e+04 5.150e-10
 63.91816   -252.9 1.130e+04 5.607e-10
 63.93005   -252.2 1.119e+04 4.987e-10
 63.95029   -251.5 1.110e+04 4.553e-10
 63.97053   -250.7 1.101e+04 4.249e-10
 63.98552   -249.9 1.091e+04 4.013e-10
 63.99564   -249.6 1.080e+04 4.014e-10
 64.01102   -248.4 1.079e+04 3.842e-10
 64.02995   -247.2 1.082e+04 3.696e-10
 64.04007   -248.4 1.099e+04 5.199e-10
 64.05150   -247.5 1.100e+04 5.280e-10
 64.07174   -246.6 1.101e+04 5.294e-10
 64.08294   -245.5 1.101e+04 5.170e-10
 64.09306   -245.4 1.108e+04 5.892e-10
 64.11223   -244.3 1.108e+04 5.845e-10
 64.13247   -243.2 1.109e+04 5.412e-10
 64.15187   -242.0 1.109e+04 4.760e-10
 64.16199   -242.3 1.120e+04 5.071e-10
 64.17023   -241.4 1.112e+04 4.280e-10
 64.18036   -241.5 1.137e+04 6.270e-10
 64.19319   -240.5 1.126e+04 5.193e-10
 64.21344   -239.4 1.112e+04 4.165e-10
 64.24390   -238.3 1.100e+04 3.392e-10
 64.26785   -237.2 1.092e+04 3.050e-10
 64.27749   -237.1 1.102e+04 4.045e-10
 64.28390   -237.6 1.128e+04 4.606e-10
 64.29440   -236.8 1.121e+04 4.180e-10
 64.31465   -235.9 1.116e+04 3.922e-10
 64.33489   -235.2 1.113e+04 3.712e-10
 64.35495   -234.4 1.111e+04 3.545e-10
 64.36507   -234.5 1.115e+04 4.296e-10
 64.37537   -233.6 1.112e+04 3.999e-10
 64.40583   -232.5 1.107e+04 3.737e-10
 64.44244   -231.6 1.106e+04 3.568e-10
 64.46268   -231.3 1.111e+04 4.275e-10
 64.48690   -229.8 1.107e+04 3.799e-10
 64.51781   -228.7 1.104e+04 3.451e-10
 64.53795   -227.9 1.110e+04 3.751e-10
 64.56777   -227.3 1.105e+04 3.625e-10
 64.60835   -226.6 1.092e+04 3.247e-10
 64.63727   -225.2 1.067e+04 2.771e-10
 64.65751   -225.1 1.077e+04 2.846e-10
 64.68932   -223.7 1.056e+04 2.511e-10
 64.72980   -222.2 1.043e+04 2.374e-10
 64.76164   -220.8 1.041e+04 2.366e-10
 64.78188   -221.3 1.069e+04 3.179e-10
 64.81077   -220.0 1.069e+04 3.456e-10
 64.83211   -219.0 1.081e+04 3.906e-10
 64.85235   -219.6 1.149e+04 6.262e-10
 64.89174   -218.8 1.153e+04 7.062e-10
 64.91930   -218.3 1.130e+04 6.415e-10
 64.92933   -218.5 1.176e+04 9.142e-10
 64.94215   -217.9 1.153e+04 8.718e-10
 64.96239   -217.3 1.132e+04 7.931e-10
 64.98263   -216.6 1.111e+04 7.066e-10
 65.00287   -215.9 1.092e+04 6.256e-10
 65.01539   -215.3 1.077e+04 5.564e-10
 65.01902   -215.5 1.085e+04 5.690e-10
 65.02674   -215.4 1.119e+04 7.366e-10
 65.04336   -214.8 1.100e+04 6.391e-10
 65.06360   -214.2 1.083e+04 5.609e-10
 65.08384   -213.4 1.069e+04 5.006e-10
 65.10392   -212.7 1.058e+04 4.609e-10
 65.11404   -212.6 1.078e+04 5.418e-10
 65.12433   -212.0 1.067e+04 4.882e-10
 65.13731   -211.3 1.056e+04 4.444e-10
 65.14743   -211.2 1.059e+04 4.483e-10
 65.16481   -210.5 1.048e+04 4.071e-10
 65.18505   -209.8 1.039e+04 3.761e-10
 65.20143   -209.0 1.032e+04 3.493e-10
 65.22177   -209.0 1.088e+04 5.476e-10
 65.24930   -207.3 1.075e+04 5.001e-10
 65.26944   -206.6 1.048e+04 3.997e-10
 65.28626   -205.7 1.047e+04 3.958e-10
 65.29875   -204.7 1.047e+04 4.038e-10
 65.30887   -204.8 1.055e+04 4.470e-10
 65.33696   -203.6 1.049e+04 4.159e-10
 65.37612   -201.9 1.045e+04 3.993e-10
 65.39627   -201.0 1.044e+04 4.555e-10
 65.41793   -199.1 1.044e+04 4.779e-10
 65.45851   -197.4 1.042e+04 4.453e-10
 65.49312   -195.1 1.029e+04 3.891e-10
 65.51337   -195.0 1.005e+04 3.219e-10
 65.53948   -192.7 9.929e+03 2.882e-10
 65.57096   -190.2 9.839e+03 2.592e-10
 65.59120   -189.7 9.886e+03 2.599e-10
 65.62045   -187.2 9.790e+03 2.315e-10
 65.66093   -184.6 9.732e+03 2.066e-10
 65.70142   -181.9 9.704e+03 1.840e-10
 65.73695   -179.2 9.690e+03 1.645e-10
 65.75720   -179.3 9.640e+03 1.552e-10
 65.76579   -176.5 9.642e+03 1.446e-10
 65.78603   -175.6 9.643e+03 1.360e-10
 65.82287   -172.7 9.671e+03 1.321e-10
 65.86335   -169.6 9.694e+03 1.313e-10
 65.90384   -166.7 9.782e+03 1.320e-10
 65.94038   -164.0 1.009e+04 1.460e-10
 65.96063   -163.6 1.041e+04 1.810e-10
 65.98078   -161.3 1.088e+04 3.137e-10
 66.00103   -162.7 1.113e+04 4.955e-10
 66.02529   -160.6 1.173e+04 8.787e-10
 66.06577   -158.9 1.254e+04 1.475e-09
 66.09604   -157.5 1.329e+04 2.213e-09
 66.11263   -156.9 1.395e+04 2.981e-09
 66.12275   -157.6 1.382e+04 2.816e-09
 66.13502   -156.9 1.421e+04 3.082e-09
 66.14514   -157.4 1.382e+04 2.410e-09
 66.15667   -156.9 1.426e+04 2.547e-09
 66.17691   -156.9 1.463e+04 2.622e-09
 66.19715   -157.1 1.478e+04 2.570e-09
 66.21739   -157.6 1.478e+04 2.407e-09
 66.23244   -158.1 1.463e+04 2.241e-09
 66.23946   -159.4 1.264e+04 1.381e-09
 66.24466   -159.4 1.171e+04 1.001e-09
 66.25788   -159.4 1.165e+04 9.675e-10
 66.27812   -159.2 1.161e+04 9.396e-10
 66.29836   -158.8 1.159e+04 9.273e-10
 66.31860   -158.0 1.160e+04 9.197e-10
 66.32986   -157.1 1.160e+04 9.217e-10
 66.35020   -156.2 1.108e+04 5.836e-10
 66.38965   -153.8 1.109e+04 5.638e-10
 66.43013   -151.1 1.107e+04 5.364e-10
 66.46844   -148.3 1.110e+04 5.220e-10
 66.48869   -148.3 1.094e+04 4.410e-10
 66.50464   -145.7 1.106e+04 4.483e-10
 66.52488   -145.5 1.088e+04 2.236e-10
 66.55158   -143.1 1.098e+04 2.491e-10
 66.59207   -140.8 1.107e+04 2.829e-10
 66.63255   -138.6 1.117e+04 3.220e-10
 66.67303   -136.6 1.128e+04 3.628e-10
 66.69948   -134.7 1.141e+04 4.069e-10
 66.71848   -134.5 1.103e+04 2.574e-10
 66.73252   -134.4 1.096e+04 2.804e-10
 66.75400   -132.3 1.108e+04 3.363e-10
 66.79449   -130.5 1.131e+04 4.383e-10
 66.83497   -128.8 1.165e+04 6.123e-10
 66.87407   -127.4 1.206e+04 8.503e-10
 66.89431   -126.7 1.154e+04 4.908e-10
 66.91594   -125.3 1.196e+04 7.370e-10
 66.95610   -124.1 1.230e+04 9.517e-10
 66.97635   -124.2 1.293e+04 1.437e-09
 66.99691   -123.5 1.315e+04 1.678e-09
 67.03739   -122.7 1.314e+04 1.665e-09
 67.06890   -121.7 1.290e+04 1.421e-09
 67.08914   -120.5 1.292e+04 1.267e-09
 67.11836   -119.4 1.278e+04 1.134e-09
 67.15884   -118.1 1.265e+04 1.047e-09
 67.19933   -116.8 1.262e+04 1.059e-09
 67.22018   -115.6 1.276e+04 1.274e-09
 67.24042   -115.5 1.293e+04 1.328e-09
 67.26374   -114.2 1.287e+04 1.330e-09
 67.28398   -112.7 1.295e+04 1.197e-09
 67.32078   -111.3 1.288e+04 1.191e-09
 67.36126   -109.9 1.279e+04 1.270e-09
 67.40175   -108.3 1.278e+04 1.384e-09
 67.43833   -106.7 1.275e+04 1.483e-09
 67.45857   -105.4 1.281e+04 1.389e-09
 67.46401   -103.7 1.282e+04 1.577e-09
 67.48425   -104.1 1.298e+04 1.842e-09
 67.52320   -102.5 1.293e+04 1.867e-09
 67.56368   -101.0 1.303e+04 2.069e-09
 67.60417    -99.6 1.321e+04 2.344e-09
 67.63316    -98.4 1.344e+04 2.704e-09
 67.64319    -98.1 1.335e+04 2.411e-09
 67.65457    -97.7 1.342e+04 2.617e-09
 67.67482    -97.2 1.360e+04 2.952e-09
 67.69506    -96.9 1.371e+04 3.238e-09
 67.70764    -96.4 1.394e+04 3.664e-09
 67.71776    -96.7 1.344e+04 3.296e-09
 67.73038    -96.3 1.366e+04 3.989e-09
 67.74050    -95.8 1.359e+04 3.769e-09
 67.75578    -95.2 1.388e+04 4.506e-09
 67.77603    -94.5 1.413e+04 5.311e-09
 67.79627    -93.8 1.438e+04 6.052e-09
 67.81651    -93.1 1.456e+04 6.450e-09
 67.82780    -92.6 1.460e+04 6.592e-09
 67.83072    -92.0 1.452e+04 6.457e-09
 67.83968    -92.2 1.423e+04 5.422e-09
 67.85699    -91.7 1.429e+04 5.638e-09
 67.87724    -91.2 1.422e+04 5.479e-09
 67.89748    -90.6 1.390e+04 4.635e-09
 67.91510    -90.0 1.356e+04 3.806e-09
 67.92522    -89.5 1.335e+04 3.205e-09
 67.93796    -88.9 1.307e+04 2.695e-09
 67.95147    -88.4 1.281e+04 2.310e-09
 67.96159    -88.7 1.250e+04 1.716e-09
 67.97845    -87.9 1.231e+04 1.552e-09
 67.99869    -87.1 1.214e+04 1.418e-09
 68.01251    -86.1 1.196e+04 1.287e-09
 68.02263    -85.4 1.177e+04 1.021e-09
 68.03917    -84.1 1.164e+04 9.040e-10
 68.05941    -82.9 1.157e+04 8.029e-10
 68.08988    -81.8 1.153e+04 7.132e-10
 68.13046    -79.6 1.138e+04 6.367e-10
 68.17094    -77.4 1.120e+04 5.641e-10
 68.19550    -74.9 1.102e+04 5.102e-10
 68.20173    -74.9 1.100e+04 4.446e-10
 68.21766    -73.6 1.087e+04 3.525e-10
 68.25191    -71.1 1.083e+04 3.281e-10
 68.29239    -68.7 1.075e+04 3.239e-10
 68.33288    -66.2 1.072e+04 3.287e-10
 68.37201    -63.8 1.067e+04 3.453e-10
 68.39226    -62.8 1.057e+04 2.467e-10
 68.41384    -60.5 1.056e+04 2.576e-10
 68.43933    -58.3 1.053e+04 2.691e-10
 68.45957    -58.6 1.064e+04 2.711e-10
 68.49481    -56.4 1.060e+04 2.878e-10
 68.53530    -54.1 1.054e+04 2.951e-10
 68.56685    -51.7 1.046e+04 2.900e-10
 68.58709    -50.9 1.036e+04 2.343e-10
 68.61626    -48.4 1.029e+04 2.213e-10
 68.65675    -46.0 1.026e+04 2.033e-10
 68.68316    -43.5 1.028e+04 1.868e-10
 68.70340    -43.5 1.023e+04 1.580e-10
 68.73772    -41.2 1.030e+04 1.432e-10
 68.76168    -38.8 1.039e+04 1.439e-10
 68.78192    -37.7 1.020e+04 1.157e-10
 68.81868    -35.2 1.029e+04 1.135e-10
 68.85917    -33.0 1.050e+04 1.281e-10
 68.89965    -31.0 1.060e+04 1.892e-10
 68.92699    -29.0 1.069e+04 3.355e-10
 68.94336    -28.7 1.059e+04 2.345e-10
 68.95652    -27.1 1.046e+04 1.212e-10
 68.98062    -25.1 1.055e+04 1.984e-10
 69.02110    -23.0 1.071e+04 3.506e-10
 69.06159    -20.8 1.094e+04 5.776e-10
 69.10207    -18.7 1.114e+04 8.093e-10
 69.13111    -16.8 1.125e+04 9.533e-10
 69.15135    -15.4 1.102e+04 6.288e-10
 69.17082    -13.6 1.111e+04 8.192e-10
 69.19106    -13.5 1.106e+04 7.815e-10
 69.22352    -11.7 1.112e+04 8.887e-10
 69.26401     -9.7 1.112e+04 9.201e-10
 69.30449     -7.7 1.095e+04 7.560e-10
 69.32594     -5.9 1.075e+04 5.497e-10
 69.34618     -4.5 1.099e+04 7.759e-10
 69.38546     -3.1 1.077e+04 5.546e-10
 69.41465     -1.9 1.066e+04 4.943e-10
 69.43489     -2.3 1.072e+04 5.065e-10
 69.46643     -1.0 1.077e+04 6.196e-10
 69.50053      0.8 1.089e+04 7.837e-10
 69.52077      1.7 1.084e+04 7.773e-10
 69.54740      3.5 1.096e+04 8.928e-10
 69.58788      4.9 1.111e+04 9.623e-10
 69.62836      5.8 1.130e+04 1.087e-09
 69.65847      6.5 1.149e+04 1.392e-09
 69.67872      5.9 1.131e+04 1.312e-09
 69.69537      7.3 1.135e+04 1.475e-09
 69.71561      8.1 1.138e+04 1.498e-09
 69.74982      9.3 1.129e+04 1.462e-09
 69.79030     10.8 1.108e+04 9.904e-10
 69.83078     11.7 1.086e+04 5.849e-10
 69.86996     12.6 1.060e+04 3.814e-10
 69.89020     13.4 1.059e+04 3.130e-10
 69.90230     14.9 1.036e+04 2.237e-10
 69.92255     15.6 1.029e+04 1.910e-10
 69.95224     17.3 1.031e+04 1.454e-10
 69.99272     18.7 1.027e+04 1.233e-10
 70.03320     20.4 1.025e+04 1.180e-10
 70.06479     22.3 1.008e+04 1.345e-10
 70.08503     23.0 1.012e+04 1.436e-10
 70.11417     25.2 9.984e+03 1.495e-10
 70.14613     28.1 9.983e+03 1.258e-10
 70.16638     28.5 1.001e+04 1.428e-10
 70.19514     30.7 1.026e+04 1.011e-10
 70.23562     32.2 1.038e+04 7.864e-11
 70.25963     33.9 1.019e+04 7.668e-11
 70.27987     34.4 1.025e+04 8.475e-11
 70.31659     36.2 1.018e+04 8.744e-11
 70.35708     38.4 1.011e+04 9.222e-11
 70.38996     40.6 1.011e+04 9.355e-11
 70.41021     40.9 1.015e+04 9.413e-11
 70.43422     43.0 1.014e+04 9.197e-11
 70.45446     43.2 1.013e+04 9.298e-11
 70.47853     45.3 1.014e+04 9.171e-11
 70.51901     47.2 1.019e+04 9.489e-11
 70.55950     48.7 1.029e+04 1.117e-10
 70.59998     50.1 1.033e+04 1.549e-10
 70.62905     51.6 1.043e+04 2.552e-10
 70.64263     52.1 1.040e+04 2.357e-10
 70.65404     52.5 1.034e+04 1.982e-10
 70.68095     54.0 1.046e+04 2.990e-10
 70.72143     55.6 1.066e+04 4.206e-10
 70.76192     56.9 1.083e+04 4.694e-10
 70.80240     58.2 1.080e+04 4.397e-10
 70.82389     59.7 1.066e+04 3.428e-10
 70.84413     60.0 1.058e+04 2.770e-10
 70.87762     61.5 1.051e+04 1.938e-10
 70.89787     61.6 1.046e+04 2.106e-10
 70.92385     62.9 1.045e+04 1.539e-10
 70.96433     64.2 1.041e+04 1.236e-10
 70.99848     65.8 1.031e+04 1.170e-10
 71.01872     66.4 1.029e+04 1.126e-10
 71.04530     68.3 1.026e+04 1.152e-10
 71.08579     70.4 1.023e+04 1.211e-10
 71.12145     72.5 1.025e+04 1.216e-10
 71.14170     72.4 1.025e+04 1.233e-10
 71.16675     74.5 1.026e+04 1.186e-10
 71.19331     76.6 1.028e+04 1.124e-10
 71.21355     77.1 1.026e+04 1.159e-10
 71.24772     79.1 1.030e+04 1.051e-10
 71.28821     81.0 1.033e+04 9.702e-11
 71.32869     82.8 1.035e+04 9.519e-11
 71.36528     84.6 1.037e+04 9.617e-11
 71.38425     84.4 1.040e+04 9.539e-11
 71.38815     84.9 1.039e+04 9.537e-11
 71.40966     86.5 1.043e+04 1.066e-10
 71.45014     88.1 1.050e+04 1.301e-10
 71.49063     89.6 1.059e+04 1.714e-10
 71.53111     91.2 1.069e+04 2.288e-10
 71.56274     92.7 1.079e+04 2.876e-10
 71.58298     93.3 1.076e+04 2.673e-10
 71.60911     94.8 1.088e+04 3.026e-10
 71.62936     94.7 1.079e+04 2.335e-10
 71.65256     95.9 1.081e+04 2.259e-10
 71.69305     97.0 1.084e+04 2.137e-10
 71.73353     98.2 1.085e+04 2.049e-10
 71.75757     99.3 1.088e+04 1.986e-10
 71.77781     99.8 1.089e+04 1.988e-10
 71.81450    100.9 1.092e+04 1.908e-10
 71.85294    102.1 1.093e+04 1.769e-10
 71.87319    102.5 1.084e+04 1.650e-10
 71.89547    103.8 1.088e+04 1.603e-10
 71.93216    105.3 1.088e+04 1.530e-10
 71.95241    105.8 1.076e+04 1.396e-10
 71.97643    107.4 1.076e+04 1.301e-10
 72.01692    108.9 1.079e+04 1.299e-10
 72.05740    110.3 1.086e+04 1.411e-10
 72.09677    111.5 1.099e+04 1.810e-10
 72.11702    111.6 1.113e+04 1.901e-10
 72.12700    112.7 1.118e+04 2.775e-10
 72.14724    113.1 1.108e+04 2.369e-10
 72.17885    114.0 1.113e+04 3.496e-10
 72.21934    115.0 1.111e+04 4.576e-10
 72.25982    115.8 1.101e+04 4.795e-10
 72.30031    116.7 1.089e+04 4.506e-10
 72.32183    117.6 1.064e+04 3.713e-10
 72.34189    118.0 1.079e+04 4.740e-10
 72.38109    118.9 1.061e+04 3.765e-10
 72.42176    120.0 1.035e+04 2.649e-10
 72.46224    121.1 1.016e+04 2.088e-10
 72.49642    122.5 1.009e+04 2.010e-10
 72.51666    122.7 1.007e+04 1.941e-10
 72.54321    124.2 1.005e+04 1.945e-10
 72.58369    125.9 1.002e+04 2.002e-10
 72.60468    127.6 1.001e+04 2.068e-10
 72.62492    127.4 1.002e+04 2.111e-10
 72.66466    129.1 1.001e+04 2.093e-10
 72.69126    131.0 9.976e+03 2.033e-10
 72.71150    131.3 9.905e+03 1.805e-10
 72.74563    133.2 9.870e+03 1.692e-10
 72.78611    135.0 9.824e+03 1.542e-10
 72.82660    136.9 9.756e+03 1.415e-10
 72.84851    138.9 9.673e+03 1.347e-10
 72.86751    138.7 9.638e+03 1.252e-10
 72.88609    139.2 9.632e+03 1.259e-10
 72.90757    141.3 9.615e+03 1.284e-10
 72.94805    143.4 9.606e+03 1.369e-10
 72.98853    145.5 9.627e+03 1.528e-10
 73.02902    147.7 9.680e+03 1.772e-10
 73.06068    149.8 9.766e+03 2.103e-10
 73.08092    150.3 9.747e+03 2.213e-10
 73.09234    152.4 9.878e+03 2.688e-10
 73.11258    152.2 9.937e+03 2.768e-10
 73.15047    154.1 1.014e+04 3.371e-10
 73.19095    155.9 1.035e+04 3.951e-10
 73.23144    157.3 1.053e+04 4.424e-10
 73.25552    158.6 1.069e+04 4.901e-10
 73.27576    158.9 1.077e+04 5.358e-10
 73.31241    159.8 1.091e+04 5.830e-10
 73.33617    160.2 1.116e+04 7.096e-10
 73.35641    159.5 1.108e+04 6.680e-10
 73.39337    159.4 1.139e+04 8.941e-10
 73.43011    159.4 1.164e+04 1.133e-09
 73.45035    159.2 1.134e+04 8.806e-10
 73.47434    159.2 1.131e+04 9.458e-10
 73.50461    158.6 1.127e+04 9.427e-10
 73.52475    158.3 1.122e+04 9.303e-10
 73.53745    158.1 1.107e+04 8.914e-10
 73.54757    158.4 1.096e+04 8.231e-10
 73.56523    158.5 1.080e+04 7.799e-10
 73.57980    158.5 1.061e+04 7.117e-10
 73.58992    158.3 1.063e+04 6.994e-10
 73.60572    158.4 1.041e+04 6.212e-10
 73.62475    158.5 1.020e+04 5.341e-10
 73.63487    159.0 1.039e+04 6.006e-10
 73.64620    159.1 1.016e+04 5.157e-10
 73.67666    159.8 1.006e+04 4.663e-10
 73.71725    160.5 9.642e+03 3.491e-10
 73.75773    161.3 9.261e+03 2.469e-10
 73.79821    162.2 8.985e+03 1.726e-10
 73.81978    163.1 8.815e+03 1.306e-10
 73.82515    163.2 8.805e+03 1.367e-10
 73.84407    162.7 9.012e+03 1.576e-10
 73.87918    163.6 9.036e+03 1.585e-10
 73.91967    164.6 9.205e+03 1.743e-10
 73.96015    165.3 9.559e+03 2.169e-10
 73.99041    165.2 9.896e+03 2.745e-10
 74.00429    165.1 1.030e+04 3.841e-10
 74.01441    164.3 1.072e+04 5.119e-10
 74.03080    164.2 1.121e+04 8.120e-10
 74.05104    164.2 1.170e+04 1.239e-09
 74.06746    164.3 1.226e+04 1.806e-09
 74.07758    163.3 1.310e+04 2.842e-09
 74.09153    163.4 1.368e+04 3.395e-09
 74.11177    162.6 1.460e+04 4.745e-09
 74.13201    162.4 1.500e+04 4.873e-09
 74.15225    162.0 1.519e+04 4.495e-09
 74.17249    161.5 1.516e+04 3.653e-09
 74.18901    160.7 1.488e+04 2.697e-09
 74.19577    159.4 1.438e+04 1.897e-09
 74.19950    155.7 1.281e+04 1.167e-09
 74.21298    154.5 1.218e+04 9.803e-10
 74.23322    154.0 1.188e+04 9.108e-10
 74.25346    153.7 1.191e+04 9.218e-10
 74.27370    153.4 1.205e+04 9.827e-10
 74.28642    153.0 1.240e+04 1.194e-09
 74.29654    152.3 1.252e+04 1.124e-09
 74.31129    151.7 1.303e+04 1.593e-09
 74.32141    150.8 1.326e+04 2.085e-09
 74.33443    150.2 1.389e+04 2.972e-09
 74.35467    149.8 1.463e+04 4.266e-09
 74.37372    149.5 1.539e+04 5.892e-09
 74.38384    148.9 1.550e+04 6.257e-09
 74.39516    148.5 1.618e+04 7.942e-09
 74.41540    147.6 1.649e+04 8.409e-09
 74.43320    146.6 1.645e+04 8.259e-09
 74.44333    145.8 1.603e+04 6.673e-09
 74.45588    144.9 1.574e+04 5.891e-09
 74.47114    144.3 1.535e+04 5.095e-09
 74.48126    143.5 1.532e+04 4.841e-09
 74.49637    143.1 1.502e+04 4.320e-09
 74.51661    142.9 1.482e+04 3.956e-09
 74.53685    142.7 1.469e+04 3.650e-09
 74.55512    142.5 1.460e+04 3.375e-09
 74.56524    141.3 1.406e+04 2.348e-09
 74.56855    140.9 1.408e+04 2.306e-09
 74.57867    139.7 1.411e+04 2.247e-09
 74.59758    139.1 1.418e+04 2.354e-09
 74.61782    138.5 1.428e+04 2.586e-09
 74.63806    137.9 1.440e+04 2.899e-09
 74.65585    137.3 1.452e+04 3.232e-09
 74.66597    136.3 1.457e+04 3.227e-09
 74.67703    135.8 1.473e+04 3.507e-09
 74.68716    135.1 1.431e+04 2.785e-09
 74.69879    134.4 1.440e+04 2.806e-09
 74.71903    133.7 1.439e+04 2.779e-09
 74.73927    132.8 1.432e+04 2.706e-09
 74.75327    132.0 1.408e+04 2.494e-09
 74.76339    131.4 1.389e+04 2.242e-09
 74.77975    131.1 1.364e+04 2.069e-09
 74.79905    131.2 1.341e+04 1.871e-09
 74.81939    130.4 1.284e+04 1.441e-09
 74.85080    130.1 1.232e+04 1.233e-09
 74.89128    130.1 1.185e+04 1.081e-09
 74.92805    130.6 1.151e+04 9.479e-10
 74.94830    130.9 1.149e+04 8.663e-10
 74.97225    131.7 1.136e+04 8.605e-10
 75.00251    131.8 1.131e+04 8.514e-10
 75.02266    132.1 1.123e+04 8.321e-10
 75.03540    132.5 1.113e+04 8.064e-10
 75.04540    132.9 1.119e+04 8.046e-10
 75.05290    132.7 1.118e+04 8.012e-10
 75.06314    133.1 1.112e+04 7.775e-10
 75.08338    133.5 1.105e+04 7.532e-10
 75.10363    133.8 1.100e+04 7.342e-10
 75.12269    134.1 1.095e+04 7.241e-10
 75.13281    134.5 1.098e+04 7.095e-10
 75.14411    134.8 1.095e+04 6.935e-10
 75.16435    135.1 1.090e+04 6.779e-10
 75.17481    135.4 1.086e+04 6.629e-10
 75.18494    135.0 1.104e+04 7.214e-10
 75.20484    135.3 1.102e+04 7.096e-10
 75.22011    135.5 1.103e+04 7.027e-10
 75.23023    135.9 1.090e+04 6.428e-10
 75.24532    136.2 1.088e+04 6.279e-10
 75.26556    136.4 1.086e+04 6.128e-10
 75.28580    136.7 1.081e+04 5.960e-10
 75.29673    137.1 1.072e+04 5.741e-10
 75.30685    136.7 1.070e+04 5.683e-10
 75.31762    137.0 1.060e+04 5.310e-10
 75.33796    138.1 1.064e+04 4.796e-10
 75.37709    139.1 1.044e+04 4.399e-10
 75.41757    140.3 1.026e+04 4.159e-10
 75.45806    141.8 1.018e+04 4.077e-10
 75.49231    143.0 1.020e+04 4.108e-10
 75.51255    144.1 1.038e+04 4.334e-10
 75.52881    144.5 1.030e+04 4.338e-10
 75.54056    145.1 1.030e+04 4.421e-10
 75.55078    144.5 1.040e+04 4.451e-10
 75.56929    145.4 1.050e+04 4.974e-10
 75.58943    146.0 1.074e+04 5.970e-10
 75.59966    146.4 1.102e+04 7.255e-10
 75.60978    147.2 1.108e+04 6.871e-10
 75.62992    147.4 1.131e+04 8.109e-10
 75.65016    147.5 1.149e+04 9.366e-10
 75.66247    147.6 1.170e+04 1.055e-09
 75.67260    147.3 1.154e+04 1.040e-09
 75.68695    147.3 1.162e+04 1.147e-09
 75.69707    147.9 1.191e+04 1.160e-09
 75.71089    147.2 1.236e+04 1.455e-09
 75.73113    144.9 1.394e+04 2.321e-09
 75.75137    142.0 1.564e+04 3.941e-09
 75.76650    139.8 1.692e+04 5.656e-09
 75.77657    137.4 1.822e+04 8.043e-09
 75.78427    134.6 1.942e+04 1.253e-08
 75.78933    133.2 2.015e+04 2.039e-08
 75.79682    131.6 2.048e+04 3.079e-08
 75.80694    130.8 2.074e+04 4.067e-08
 75.81706    130.2 2.097e+04 4.417e-08
 75.82718    129.2 2.104e+04 4.225e-08
 75.83298    128.0 2.106e+04 3.576e-08
 75.83804    128.0 2.141e+04 3.907e-08
 75.84525    126.2 2.088e+04 2.585e-08
 75.85031    125.4 2.012e+04 1.793e-08
 75.85754    124.1 1.947e+04 1.366e-08
 75.87162    121.8 1.927e+04 1.234e-08
 75.88179    121.3 1.886e+04 8.542e-09
 75.89306    116.9 1.660e+04 3.808e-09
 75.90630    112.8 1.355e+04 1.783e-09
 75.91643    111.2 1.188e+04 1.170e-09
 75.93355    110.3 1.162e+04 1.053e-09
 75.95379    110.0 1.145e+04 9.850e-10
 75.98425    109.2 1.104e+04 7.735e-10
 76.01829    108.5 1.081e+04 6.419e-10
 76.03854    109.6 1.090e+04 6.608e-10
 76.05657    109.8 1.099e+04 6.504e-10
 76.07681    110.4 9.688e+03 2.963e-10
 76.10580    111.1 9.726e+03 3.034e-10
 76.14628    112.5 9.592e+03 3.045e-10
 76.18677    114.1 9.358e+03 2.950e-10
 76.22725    115.8 9.124e+03 2.857e-10
 76.25141    117.6 9.104e+03 2.891e-10
 76.26604    118.7 8.986e+03 2.285e-10
 76.28237    119.2 9.003e+03 2.278e-10
 76.30822    121.2 9.050e+03 2.386e-10
 76.34870    123.5 9.125e+03 2.576e-10
 76.38919    125.9 9.280e+03 2.840e-10
 76.42600    128.5 9.491e+03 3.116e-10
 76.44624    128.9 9.252e+03 2.778e-10
 76.47016    131.5 9.404e+03 2.957e-10
 76.50595    134.1 9.521e+03 3.080e-10
 76.52620    134.3 9.500e+03 2.977e-10
 76.53344    135.3 9.574e+03 3.085e-10
 76.54346    135.4 9.470e+03 3.054e-10
 76.56105    136.4 9.509e+03 3.121e-10
 76.58129    137.1 9.626e+03 3.361e-10
 76.60153    136.9 9.899e+03 4.169e-10
 76.62064    136.4 1.057e+04 6.384e-10
 76.63076    136.2 1.053e+04 6.337e-10
 76.63779    135.3 1.164e+04 1.151e-09
 76.64792    135.6 1.145e+04 1.118e-09
 76.66226    135.0 1.256e+04 1.957e-09
 76.68250    134.5 1.362e+04 3.179e-09
 76.70274    133.2 1.449e+04 4.230e-09
 76.71805    131.4 1.524e+04 4.512e-09
 76.72817    133.7 1.466e+04 4.335e-09
 76.74323    132.4 1.464e+04 4.081e-09
 76.75971    130.7 1.401e+04 3.370e-09
 76.76983    130.7 1.396e+04 2.987e-09
 76.78371    127.9 1.580e+04 3.837e-09
 76.80395    125.2 1.838e+04 6.267e-09
 76.81547    123.3 2.073e+04 1.105e-08
 76.82559    126.9 1.811e+04 5.521e-09
 76.84444    125.3 2.062e+04 1.045e-08
 76.85907    123.5 2.268e+04 2.119e-08
 76.86408    125.4 2.117e+04 1.323e-08
 76.86964    124.4 2.267e+04 2.253e-08
 76.87976    123.4 2.372e+04 4.218e-08
 76.88659    122.6 2.400e+04 7.034e-08
 76.89165    123.3 2.399e+04 6.941e-08
 76.90000    122.8 2.394e+04 9.918e-08
 76.90773    122.5 2.379e+04 1.263e-07
 76.91279    124.0 2.376e+04 1.192e-07
 76.92025    123.5 2.352e+04 1.519e-07
 76.93037    123.1 2.330e+04 1.730e-07
 76.94049    122.6 2.355e+04 1.394e-07
 76.94754    121.7 2.392e+04 8.451e-08
 76.95260    122.2 2.384e+04 9.671e-08
 76.95644    120.3 2.423e+04 4.296e-08
 76.96150    123.5 2.351e+04 1.408e-07
 76.97085    121.8 2.423e+04 6.849e-08
 76.98097    119.1 2.476e+04 2.384e-08
 76.99109    115.4 2.361e+04 6.246e-09
 77.00009    111.5 1.897e+04 1.980e-09
 77.00515    117.4 2.501e+04 1.219e-08
 77.00850    113.5 2.223e+04 3.327e-09
 77.01356    114.2 2.245e+04 4.197e-09
 77.02146    111.2 1.796e+04 1.589e-09
 77.03158    109.5 1.385e+04 9.687e-10
 77.04170    109.2 1.208e+04 7.938e-10
 77.04879    109.0 1.140e+04 7.834e-10
 77.05385    109.6 1.266e+04 8.285e-10
 77.06705    109.7 1.165e+04 8.315e-10
 77.08734    109.6 1.166e+04 8.870e-10
 77.09760    108.8 1.187e+04 1.072e-09
 77.10772    110.4 1.223e+04 1.209e-09
 77.12545    109.7 1.267e+04 1.668e-09
 77.13557    111.5 1.219e+04 1.297e-09
 77.14807    110.8 1.257e+04 1.773e-09
 77.16831    110.6 1.280e+04 2.286e-09
 77.18490    110.4 1.290e+04 2.477e-09
 77.19502    111.6 1.398e+04 3.464e-09
 77.20879    111.1 1.398e+04 3.451e-09
 77.22903    110.6 1.385e+04 3.126e-09
 77.24737    109.9 1.343e+04 2.356e-09
 77.25749    111.5 1.336e+04 2.415e-09
 77.26952    110.6 1.282e+04 1.683e-09
 77.28231    109.1 1.207e+04 1.080e-09
 77.29243    110.3 1.316e+04 1.837e-09
 77.31000    108.3 1.227e+04 1.160e-09
 77.33024    106.2 1.143e+04 8.861e-10
 77.35049    104.9 1.120e+04 8.706e-10
 77.36928    104.2 1.122e+04 9.122e-10
 77.37829    105.1 1.139e+04 9.411e-10
 77.37973    105.0 1.234e+04 1.413e-09
 77.39097    104.3 1.245e+04 1.560e-09
 77.41121    104.0 1.271e+04 1.804e-09
 77.43145    103.7 1.292e+04 1.982e-09
 77.45170    103.3 1.298e+04 1.989e-09
 77.46703    102.6 1.293e+04 1.918e-09
 77.47715    101.7 1.381e+04 2.781e-09
 77.49120    100.2 1.379e+04 2.668e-09
 77.50132    100.9 1.437e+04 3.324e-09
 77.51242     99.2 1.447e+04 3.305e-09
 77.53266     98.6 1.449e+04 3.400e-09
 77.55291     98.7 1.397e+04 3.058e-09
 77.56444     98.2 1.372e+04 2.891e-09
 77.57456     96.4 1.595e+04 5.968e-09
 77.59339     96.1 1.560e+04 5.333e-09
 77.61311     95.9 1.543e+04 4.828e-09
 77.62323     95.6 1.554e+04 4.634e-09
 77.63387     95.4 1.524e+04 4.026e-09
 77.65174     95.2 1.505e+04 3.676e-09
 77.66186     93.0 1.583e+04 4.212e-09
 77.67436     92.8 1.566e+04 3.915e-09
 77.69460     92.5 1.583e+04 4.048e-09
 77.71484     91.6 1.657e+04 4.756e-09
 77.73503     90.3 1.768e+04 6.968e-09
 77.74910     90.3 1.712e+04 6.918e-09
 77.75928     88.1 1.687e+04 7.284e-09
 77.77557     88.3 1.743e+04 1.067e-08
 77.79581     89.4 1.761e+04 1.325e-08
 77.81605     90.3 1.753e+04 1.345e-08
 77.83629     91.0 1.699e+04 1.149e-08
 77.84657     91.3 1.606e+04 8.320e-09
 77.85669     91.1 1.601e+04 8.309e-09
 77.86706     90.9 1.519e+04 5.863e-09
 77.87719     90.8 1.533e+04 6.450e-09
 77.89702     90.8 1.467e+04 5.082e-09
 77.91726     90.8 1.414e+04 4.217e-09
 77.93387     91.0 1.380e+04 3.700e-09
 77.94399     91.6 1.384e+04 3.828e-09
 77.95775     92.0 1.369e+04 3.619e-09
 77.97799     92.5 1.360e+04 3.542e-09
 77.98898     93.2 1.359e+04 3.497e-09
 77.99910     93.6 1.416e+04 4.367e-09
 78.01847     94.4 1.427e+04 4.511e-09
 78.03129     95.2 1.427e+04 4.465e-09
 78.04141     95.7 1.471e+04 5.139e-09
 78.05896     96.4 1.469e+04 4.948e-09
 78.07920     96.9 1.458e+04 4.483e-09
 78.09944     97.2 1.444e+04 3.920e-09
 78.11089     97.3 1.427e+04 3.386e-09
 78.11992     96.6 1.437e+04 3.936e-09
 78.12870     96.2 1.502e+04 4.939e-09
 78.13992     96.3 1.471e+04 4.443e-09
 78.16017     96.5 1.430e+04 3.854e-09
 78.18041     96.7 1.390e+04 3.292e-09
 78.20065     96.7 1.367e+04 2.873e-09
 78.21600     96.6 1.376e+04 2.627e-09
 78.22612     96.1 1.382e+04 2.773e-09
 78.23281     95.4 1.383e+04 2.399e-09
 78.24293     94.6 1.317e+04 1.591e-09
 78.26138     93.5 1.292e+04 1.311e-09
 78.28162     92.5 1.276e+04 1.222e-09
 78.30186     91.9 1.273e+04 1.228e-09
 78.31342     91.4 1.272e+04 1.224e-09
 78.32354     89.6 1.264e+04 1.216e-09
 78.34234     89.4 1.260e+04 1.210e-09
 78.35472     89.4 1.254e+04 1.199e-09
 78.36485     89.4 1.222e+04 9.644e-10
 78.38283     89.5 1.223e+04 9.773e-10
 78.40071     89.9 1.221e+04 1.010e-09
 78.41083     89.4 1.219e+04 1.050e-09
 78.42331     89.7 1.221e+04 1.066e-09
 78.44355     90.3 1.224e+04 1.108e-09
 78.46380     90.7 1.230e+04 1.139e-09
 78.47664     91.2 1.240e+04 1.203e-09
 78.49083     92.1 1.213e+04 1.022e-09
 78.50844     91.4 1.204e+04 1.008e-09
 78.53484     92.2 1.225e+04 1.132e-09
 78.57532     93.1 1.256e+04 1.322e-09
 78.61581     94.0 1.280e+04 1.482e-09
 78.65629     95.1 1.280e+04 1.500e-09
 78.68304     96.5 1.272e+04 1.463e-09
 78.70328     96.1 1.267e+04 1.428e-09
 78.72066     97.8 1.272e+04 1.495e-09
 78.74091     99.5 1.198e+04 1.003e-09
 78.77774    101.2 1.208e+04 1.044e-09
 78.81823    103.0 1.208e+04 1.022e-09
 78.85763    105.0 1.196e+04 9.030e-10
 78.87787    105.1 1.205e+04 9.667e-10
 78.89919    107.3 1.175e+04 7.546e-10
 78.93968    109.5 1.142e+04 5.508e-10
 78.96449    111.7 1.111e+04 4.006e-10
 78.98474    112.8 1.126e+04 5.226e-10
 79.02065    115.1 1.100e+04 4.150e-10
 79.05246    117.6 1.077e+04 3.377e-10
 79.07270    117.7 1.076e+04 3.336e-10
 79.10161    120.4 1.056e+04 2.830e-10
 79.14210    123.2 1.041e+04 2.537e-10
 79.18258    126.1 1.028e+04 2.405e-10
 79.20832    129.0 1.020e+04 2.384e-10
 79.22857    129.3 1.031e+04 2.569e-10
 79.24730    132.3 1.023e+04 2.511e-10
 79.26754    132.1 1.024e+04 2.704e-10
 79.30403    135.0 1.021e+04 2.794e-10
 79.34452    137.9 1.022e+04 2.959e-10
 79.38500    140.9 1.023e+04 3.188e-10
 79.42189    143.9 1.029e+04 3.489e-10
 79.44213    143.3 1.035e+04 3.884e-10
 79.45215    146.1 1.043e+04 4.145e-10
 79.47240    146.5 1.054e+04 4.349e-10
 79.50645    149.3 1.074e+04 4.838e-10
 79.54694    151.6 1.099e+04 5.338e-10
 79.58742    153.6 1.115e+04 5.589e-10
 79.61662    154.2 1.113e+04 5.434e-10
 79.63687    154.2 1.088e+04 4.284e-10
 79.65817    155.3 1.092e+04 4.109e-10
 79.67832    156.4 1.094e+04 3.952e-10
 79.69579    157.4 1.094e+04 3.823e-10
 79.70591    157.3 1.102e+04 4.163e-10
 79.71394    158.1 1.101e+04 4.136e-10
 79.72406    156.9 1.069e+04 3.921e-10
 79.73904    157.5 1.078e+04 4.332e-10
 79.75928    158.2 1.090e+04 4.902e-10
 79.77953    158.8 1.104e+04 5.684e-10
 79.79977    159.5 1.120e+04 6.689e-10
 79.81136    160.2 1.137e+04 7.886e-10
 79.81918    159.3 1.144e+04 8.940e-10
 79.82782    158.6 1.185e+04 1.062e-09
 79.84025    159.5 1.223e+04 1.266e-09
 79.86049    159.8 1.265e+04 1.480e-09
 79.88073    159.2 1.348e+04 1.902e-09
 79.89866    157.6 1.485e+04 2.933e-09
 79.90878    156.7 1.486e+04 3.248e-09
 79.92122    155.3 1.572e+04 4.414e-09
 79.93635    153.3 1.691e+04 6.745e-09
 79.94458    151.9 1.773e+04 9.715e-09
 79.94964    151.3 1.759e+04 1.035e-08
 79.95233    150.5 1.829e+04 1.396e-08
 79.95739    150.1 1.822e+04 1.353e-08
 79.96667    149.5 1.884e+04 1.732e-08
 79.97679    148.9 1.941e+04 2.070e-08
 79.98691    147.8 1.974e+04 2.203e-08
 79.99602    146.2 1.948e+04 1.995e-08
 80.00619    145.5 1.961e+04 2.067e-08
 80.02243    143.4 1.924e+04 1.818e-08
 80.04267    141.8 1.810e+04 1.144e-08
 80.06153    140.3 1.634e+04 5.582e-09
 80.07165    140.0 1.557e+04 4.970e-09
 80.08315    138.6 1.409e+04 2.716e-09
 80.09349    137.3 1.283e+04 1.677e-09
 80.10361    138.1 1.336e+04 2.213e-09
 80.12364    137.5 1.256e+04 1.600e-09
 80.14388    137.8 1.216e+04 1.364e-09
 80.16412    138.4 1.194e+04 1.261e-09
 80.18079    139.4 1.181e+04 1.202e-09
 80.18999    139.6 1.206e+04 1.391e-09
 80.19357    140.3 1.223e+04 1.432e-09
 80.20461    141.1 1.205e+04 1.358e-09
 80.22485    141.9 1.197e+04 1.331e-09
 80.24509    142.8 1.196e+04 1.325e-09
 80.26533    143.6 1.196e+04 1.330e-09
 80.27820    144.4 1.197e+04 1.342e-09
 80.28832    144.4 1.193e+04 1.334e-09
 80.30536    145.1 1.185e+04 1.289e-09
 80.31548    145.3 1.184e+04 1.272e-09
 80.32606    146.0 1.178e+04 1.235e-09
 80.34630    146.7 1.176e+04 1.219e-09
 80.36550    147.3 1.177e+04 1.227e-09
 80.37562    147.2 1.145e+04 9.961e-10
 80.38678    147.8 1.147e+04 1.006e-09
 80.40703    148.4 1.154e+04 1.052e-09
 80.42727    148.9 1.166e+04 1.144e-09
 80.44751    149.2 1.161e+04 1.035e-09
 80.46292    149.8 1.166e+04 1.078e-09
 80.47304    149.6 1.144e+04 9.067e-10
 80.48799    150.2 1.144e+04 9.119e-10
 80.50824    150.7 1.142e+04 9.008e-10
 80.52848    151.2 1.135e+04 8.570e-10
 80.54872    151.8 1.123e+04 7.855e-10
 80.55931    152.4 1.111e+04 7.048e-10
 80.56081    152.0 1.089e+04 5.440e-10
 80.57045    151.8 1.082e+04 4.942e-10
 80.58920    152.5 1.077e+04 4.562e-10
 80.60945    152.9 1.074e+04 4.284e-10
 80.62969    153.6 1.070e+04 4.066e-10
 80.64763    154.0 1.068e+04 3.897e-10
 80.65775    153.9 1.068e+04 3.888e-10
 80.67017    154.6 1.064e+04 3.876e-10
 80.68123    155.1 1.064e+04 3.882e-10
 80.69145    155.0 1.059e+04 3.495e-10
 80.72097    156.2 1.063e+04 3.688e-10
 80.74524    157.5 1.063e+04 3.970e-10
 80.75526    156.8 1.066e+04 4.163e-10
 80.77138    158.1 1.081e+04 4.784e-10
 80.79162    159.1 1.103e+04 5.613e-10
 80.80314    160.0 1.123e+04 6.440e-10
 80.81326    159.9 1.122e+04 6.468e-10
 80.83211    160.8 1.143e+04 7.530e-10
 80.84246    161.5 1.162e+04 8.611e-10
 80.85258    161.0 1.182e+04 9.185e-10
 80.87259    161.6 1.201e+04 1.050e-09
 80.89283    162.3 1.222e+04 1.214e-09
 80.91308    162.9 1.245e+04 1.418e-09
 80.92506    163.6 1.269e+04 1.664e-09
 80.93162    163.7 1.283e+04 1.840e-09
 80.93988    163.1 1.287e+04 1.836e-09
 80.95356    163.8 1.314e+04 2.125e-09
 80.97380    164.5 1.338e+04 2.407e-09
 80.99404    165.1 1.360e+04 2.654e-09
 81.01429    165.6 1.373e+04 2.843e-09
 81.02718    166.3 1.381e+04 2.942e-09
 81.03730    165.5 1.383e+04 2.844e-09
 81.04697    166.0 1.396e+04 2.956e-09
 81.05709    166.1 1.364e+04 2.462e-09
 81.07501    166.3 1.375e+04 2.530e-09
 81.09525    166.0 1.398e+04 2.686e-09
 81.11447    165.6 1.436e+04 3.049e-09
 81.12459    164.0 1.441e+04 2.813e-09
 81.13574    163.1 1.491e+04 3.487e-09
 81.15598    162.0 1.548e+04 4.360e-09
 81.16889    160.5 1.603e+04 5.004e-09
 81.17901    160.7 1.527e+04 3.926e-09
 81.19646    159.0 1.555e+04 4.066e-09
 81.21189    156.7 1.552e+04 3.897e-09
 81.22201    154.4 1.487e+04 2.847e-09
 81.23695    151.8 1.447e+04 2.372e-09
 81.25719    149.3 1.372e+04 1.904e-09
 81.27743    147.0 1.291e+04 1.625e-09
 81.29080    145.5 1.253e+04 1.585e-09
 81.30092    146.6 1.261e+04 1.631e-09
 81.30931    145.6 1.254e+04 1.637e-09
 81.31943    145.0 1.249e+04 1.545e-09
 81.33816    144.6 1.256e+04 1.640e-09
 81.35840    144.3 1.271e+04 1.808e-09
 81.37864    144.1 1.288e+04 1.972e-09
 81.39660    143.8 1.296e+04 2.013e-09
 81.40672    143.3 1.287e+04 1.913e-09
 81.41272    143.0 1.283e+04 1.883e-09
 81.42284    143.5 1.269e+04 1.831e-09
 81.43937    143.5 1.248e+04 1.674e-09
 81.45961    143.6 1.215e+04 1.424e-09
 81.47985    143.8 1.178e+04 1.163e-09
 81.49402    144.0 1.144e+04 9.406e-10
 81.50414    144.1 1.145e+04 9.369e-10
 81.52034    144.2 1.119e+04 7.777e-10
 81.53463    144.5 1.098e+04 6.795e-10
 81.54475    145.1 1.084e+04 6.067e-10
 81.56082    145.4 1.063e+04 5.756e-10
 81.58106    145.9 1.056e+04 5.758e-10
 81.59144    146.5 1.057e+04 5.783e-10
 81.60156    146.4 1.047e+04 5.533e-10
 81.62155    147.0 1.048e+04 5.551e-10
 81.64179    147.6 1.050e+04 5.621e-10
 81.65655    148.2 1.052e+04 5.749e-10
 81.66667    148.9 1.043e+04 5.350e-10
 81.67873    149.5 1.045e+04 5.460e-10
 81.68885    149.3 1.035e+04 5.201e-10
 81.70251    149.8 1.042e+04 5.574e-10
 81.72276    150.4 1.052e+04 6.090e-10
 81.74300    150.6 1.066e+04 6.783e-10
 81.76324    150.6 1.107e+04 8.486e-10
 81.77615    150.0 1.256e+04 1.358e-09
 81.78125    150.4 1.215e+04 1.267e-09
 81.78858    151.9 1.087e+04 8.084e-10
 81.80372    151.7 1.186e+04 1.120e-09
 81.82397    150.6 1.368e+04 1.842e-09
 81.84421    149.2 1.527e+04 2.816e-09
 81.85934    148.5 1.610e+04 3.384e-09
 81.86841    147.6 1.747e+04 4.457e-09
 81.87347    148.3 1.685e+04 3.738e-09
 81.87953    146.7 1.843e+04 5.547e-09
 81.88965    145.1 1.909e+04 8.670e-09
 81.89978    143.8 1.904e+04 1.270e-08
 81.90534    142.8 1.892e+04 1.656e-08
 81.91040    143.2 1.868e+04 1.179e-08
 81.91712    142.2 1.859e+04 1.571e-08
 81.92218    142.1 1.893e+04 1.465e-08
 81.93014    141.3 1.885e+04 1.873e-08
 81.94026    140.5 1.908e+04 2.244e-08
 81.95038    139.2 2.002e+04 2.520e-08
 81.96050    137.5 2.153e+04 2.631e-08
 81.96582    135.4 2.263e+04 2.531e-08
 81.96656    137.4 2.187e+04 2.735e-08
 81.97136    136.6 2.175e+04 3.312e-08
 81.98074    134.8 2.245e+04 3.237e-08
 81.99086    132.7 2.268e+04 2.962e-08
 82.00099    130.7 2.243e+04 2.378e-08
 82.00947    128.8 2.122e+04 1.820e-08
 82.01453    131.2 2.208e+04 2.136e-08
 82.02123    129.4 2.072e+04 1.607e-08
 82.02726    127.8 1.897e+04 1.254e-08
 82.03232    128.6 2.061e+04 1.851e-08
 82.04147    127.5 1.922e+04 1.457e-08
 82.05159    126.8 1.817e+04 1.200e-08
 82.05818    127.1 1.743e+04 9.910e-09
 82.06324    127.9 1.784e+04 1.054e-08
 82.07183    128.1 1.717e+04 8.992e-09
 82.08706    129.4 1.759e+04 8.033e-09
 82.10735    130.1 1.654e+04 5.914e-09
 82.12760    130.2 1.574e+04 4.442e-09
 82.14421    130.1 1.507e+04 3.787e-09
 82.15207    128.8 1.458e+04 3.165e-09
 82.15570    130.2 1.498e+04 3.349e-09
 82.16808    130.7 1.455e+04 3.166e-09
 82.18832    131.4 1.454e+04 3.302e-09
 82.20856    132.0 1.471e+04 3.819e-09
 82.22881    132.5 1.506e+04 4.667e-09
 82.24299    133.1 1.549e+04 5.671e-09
 82.25311    133.4 1.546e+04 5.225e-09
 82.26612    133.7 1.608e+04 6.719e-09
 82.27624    133.7 1.556e+04 6.232e-09
 82.28953    134.1 1.629e+04 7.873e-09
 82.30977    134.5 1.662e+04 9.618e-09
 82.33002    134.5 1.716e+04 9.412e-09
 82.34041    134.5 1.722e+04 9.034e-09
 82.35053    134.2 1.797e+04 1.106e-08
 82.37050    133.9 1.811e+04 1.024e-08
 82.38804    133.3 1.798e+04 8.675e-09
 82.39816    134.9 1.747e+04 9.538e-09
 82.40587    134.5 1.765e+04 9.008e-09
 82.41595    134.3 1.763e+04 8.160e-09
 82.42607    133.9 1.748e+04 7.302e-09
 82.43267    133.3 1.721e+04 6.640e-09
 82.43773    133.1 1.803e+04 7.965e-09
 82.44631    132.4 1.764e+04 7.271e-09
 82.45396    131.7 1.724e+04 6.970e-09
 82.45902    132.7 1.699e+04 6.220e-09
 82.46655    131.9 1.668e+04 6.037e-09
 82.47631    131.3 1.665e+04 6.055e-09
 82.48138    130.9 1.734e+04 7.136e-09
 82.48679    130.3 1.727e+04 7.222e-09
 82.49691    129.7 1.714e+04 7.503e-09
 82.50704    128.8 1.699e+04 8.179e-09
 82.51492    128.0 1.686e+04 8.977e-09
 82.51998    128.3 1.655e+04 6.366e-09
 82.52502    127.2 1.676e+04 7.552e-09
 82.53008    126.6 1.701e+04 8.934e-09
 82.53740    126.0 1.708e+04 1.003e-08
 82.55263    124.9 1.748e+04 1.393e-08
 82.57292    123.9 1.809e+04 2.085e-08
 82.59316    122.9 1.866e+04 2.570e-08
 82.61242    121.9 1.873e+04 2.451e-08
 82.62254    121.5 1.871e+04 2.156e-08
 82.63187    120.5 1.850e+04 1.399e-08
 82.64199    119.5 1.831e+04 1.780e-08
 82.65389    118.8 1.759e+04 1.084e-08
 82.67413    117.3 1.682e+04 4.852e-09
 82.69437    114.2 1.552e+04 1.770e-09
 82.70983    110.6 1.243e+04 7.377e-10
 82.71995    109.9 1.195e+04 8.210e-10
 82.73486    109.2 1.039e+04 5.926e-10
 82.75378    109.7 1.022e+04 5.365e-10
 82.76390    111.3 1.037e+04 5.915e-10
 82.77534    111.8 1.016e+04 5.192e-10
 82.79558    112.7 1.011e+04 4.954e-10
 82.80725    113.7 1.009e+04 4.726e-10
 82.81737    113.5 1.029e+04 5.411e-10
 82.83607    114.4 1.027e+04 5.009e-10
 82.85631    115.3 1.029e+04 4.694e-10
 82.87570    116.3 1.033e+04 4.676e-10
 82.88582    117.7 1.022e+04 4.817e-10
 82.89455    118.6 1.025e+04 4.842e-10
 82.90467    118.0 1.061e+04 5.608e-10
 82.91703    118.9 1.077e+04 5.801e-10
 82.93728    119.8 1.098e+04 6.209e-10
 82.95752    120.8 1.127e+04 6.937e-10
 82.97776    121.6 1.154e+04 7.942e-10
 82.99196    122.4 1.182e+04 9.418e-10
 83.00170    121.5 1.209e+04 1.161e-09
 83.00773    123.0 1.226e+04 1.223e-09
 83.01824    123.8 1.265e+04 1.525e-09
 83.03848    124.6 1.310e+04 1.953e-09
 83.05873    125.3 1.361e+04 2.529e-09
 83.07897    126.0 1.410e+04 3.224e-09
 83.08938    126.5 1.445e+04 3.845e-09
 83.09950    125.9 1.436e+04 3.819e-09
 83.11945    126.0 1.456e+04 4.095e-09
 83.13969    127.6 1.542e+04 4.675e-09
 83.15994    127.3 1.503e+04 4.212e-09
 83.17668    127.0 1.457e+04 3.614e-09
 83.18680    126.3 1.410e+04 3.275e-09
 83.20042    126.1 1.368e+04 2.747e-09
 83.22066    125.9 1.326e+04 2.369e-09
 83.24090    126.0 1.298e+04 2.143e-09
 83.25156    126.1 1.277e+04 1.929e-09
 83.26168    126.4 1.270e+04 1.806e-09
 83.27409    126.8 1.255e+04 1.696e-09
 83.28421    126.7 1.236e+04 1.583e-09
 83.30163    126.9 1.229e+04 1.493e-09
 83.32187    127.0 1.218e+04 1.399e-09
 83.34211    127.1 1.206e+04 1.315e-09
 83.36139    127.4 1.190e+04 1.221e-09
 83.37151    127.2 1.165e+04 1.085e-09
 83.37348    127.5 1.151e+04 1.002e-09
 83.38360    127.7 1.162e+04 1.078e-09
 83.40284    128.0 1.151e+04 9.986e-10
 83.42308    128.3 1.139e+04 9.125e-10
 83.44332    128.6 1.127e+04 8.313e-10
 83.45881    128.9 1.121e+04 7.536e-10
 83.46893    128.8 1.099e+04 6.747e-10
 83.48381    128.9 1.095e+04 6.280e-10
 83.51427    129.5 1.085e+04 5.400e-10
 83.54630    129.9 1.048e+04 3.767e-10
 83.56654    129.9 1.039e+04 3.721e-10
 83.59533    130.5 1.019e+04 2.523e-10
 83.61750    131.0 1.003e+04 1.651e-10
 83.63775    131.0 1.008e+04 1.651e-10
 83.67630    131.7 9.948e+03 1.397e-10
 83.71679    132.8 9.936e+03 1.398e-10
 83.74113    134.2 9.960e+03 1.440e-10
 83.76137    134.8 9.937e+03 1.443e-10
 83.79775    136.3 1.001e+04 1.561e-10
 83.83824    137.7 1.006e+04 1.755e-10
 83.86133    139.0 1.012e+04 2.005e-10
 83.88158    138.9 1.021e+04 1.937e-10
 83.91572    139.8 1.047e+04 2.632e-10
 83.93597    140.7 1.015e+04 2.131e-10
 83.95969    141.5 1.039e+04 2.665e-10
 84.00017    142.0 1.060e+04 3.423e-10
 84.02316    141.7 1.079e+04 4.457e-10
 84.03319    142.2 1.063e+04 3.684e-10
 84.05058    142.2 1.071e+04 4.301e-10
 84.07083    142.3 1.078e+04 5.235e-10
 84.09107    142.4 1.082e+04 6.113e-10
 84.10507    142.8 1.084e+04 6.484e-10
 84.11434    143.0 1.088e+04 6.914e-10
 84.12058    143.3 1.077e+04 6.312e-10
 84.13155    143.4 1.080e+04 6.638e-10
 84.16201    144.6 1.078e+04 6.731e-10
 84.20259    145.1 1.076e+04 6.599e-10
 84.24308    145.4 1.069e+04 6.195e-10
 84.28356    145.6 1.060e+04 5.748e-10
 84.30539    145.8 1.054e+04 5.477e-10
 84.32563    146.1 1.060e+04 5.681e-10
 84.34899    146.2 1.047e+04 5.183e-10
 84.36924    147.1 1.040e+04 4.947e-10
 84.40501    147.4 1.038e+04 4.996e-10
 84.44550    147.8 1.033e+04 4.903e-10
 84.47998    148.3 1.018e+04 4.555e-10
 84.50022    148.4 1.004e+04 4.175e-10
 84.52647    149.1 9.883e+03 3.883e-10
 84.56695    150.0 9.720e+03 3.458e-10
 84.59282    150.9 9.552e+03 3.043e-10
 84.61307    152.0 9.737e+03 3.683e-10
 84.64792    152.8 9.576e+03 3.284e-10
 84.67482    153.7 9.434e+03 2.946e-10
 84.69506    154.1 9.574e+03 3.491e-10
 84.72889    155.0 9.461e+03 3.159e-10
 84.76937    156.0 9.326e+03 2.791e-10
 84.80985    157.0 9.182e+03 2.441e-10
 84.83665    158.1 9.049e+03 2.153e-10
 84.85597    158.8 9.120e+03 2.367e-10
 84.86965    159.2 9.356e+03 2.994e-10
 84.89082    160.3 9.130e+03 2.399e-10
 84.93131    161.4 8.963e+03 2.023e-10
 84.97179    162.6 8.897e+03 1.837e-10
 85.01227    163.8 8.905e+03 1.786e-10
 85.04424    165.2 8.910e+03 1.782e-10
 85.06448    165.5 9.006e+03 2.022e-10
 85.08048    166.9 9.015e+03 2.020e-10
 85.10073    167.7 9.062e+03 2.195e-10
 85.13373    169.2 9.108e+03 2.209e-10
 85.17421    170.7 9.266e+03 2.294e-10
 85.21469    172.0 9.565e+03 2.600e-10
 85.23908    172.8 9.924e+03 3.147e-10
 85.25932    173.1 9.973e+03 3.487e-10
 85.28544    173.3 1.009e+04 3.674e-10
 85.30559    173.7 1.023e+04 4.026e-10
 85.32412    174.1 1.045e+04 4.872e-10
 85.33424    174.7 1.026e+04 4.122e-10
 85.33630    175.1 1.050e+04 5.190e-10
 85.34642    175.3 1.068e+04 6.026e-10
 85.36631    175.5 1.094e+04 7.541e-10
 85.38656    175.7 1.118e+04 9.033e-10
 85.40680    176.0 1.145e+04 9.974e-10
 85.42359    176.1 1.172e+04 9.971e-10
 85.43371    176.2 1.190e+04 1.173e-09
 85.44603    176.3 1.193e+04 1.153e-09
 85.45615    177.4 1.180e+04 1.126e-09
 85.46752    177.5 1.187e+04 1.085e-09
 85.48777    177.4 1.193e+04 9.988e-10
 85.50801    177.0 1.194e+04 8.948e-10
 85.52101    176.6 1.180e+04 8.277e-10
 85.53113    176.6 1.206e+04 9.122e-10
 85.54849    175.9 1.182e+04 8.566e-10
 85.56795    175.3 1.160e+04 8.338e-10
 85.57807    176.8 1.189e+04 9.483e-10
 85.58898    176.3 1.178e+04 9.521e-10
 85.60831    175.9 1.167e+04 9.354e-10
 85.61843    175.0 1.179e+04 9.659e-10
 85.62946    174.5 1.155e+04 9.032e-10
 85.64970    174.3 1.130e+04 8.293e-10
 85.66994    174.1 1.107e+04 7.643e-10
 85.68986    174.1 1.089e+04 7.216e-10
 85.69998    175.2 1.134e+04 8.849e-10
 85.70572    175.1 1.112e+04 8.384e-10
 85.71584    173.8 1.153e+04 1.052e-09
 85.73067    174.0 1.151e+04 1.068e-09
 85.75091    174.2 1.152e+04 1.087e-09
 85.77115    174.5 1.154e+04 1.099e-09
 85.79140    174.7 1.155e+04 1.100e-09
 85.80314    174.8 1.155e+04 1.093e-09
 85.81326    173.5 1.186e+04 1.243e-09
 85.82190    173.3 1.181e+04 1.194e-09
 85.83202    173.7 1.206e+04 1.265e-09
 85.85212    173.2 1.204e+04 1.240e-09
 85.87236    172.6 1.203e+04 1.234e-09
 85.89044    171.7 1.206e+04 1.240e-09
 85.90056    170.2 1.225e+04 1.324e-09
 85.91285    168.9 1.235e+04 1.362e-09
 85.93309    166.7 1.272e+04 1.520e-09
 85.94381    163.6 1.352e+04 1.962e-09
 85.95393    164.1 1.354e+04 1.961e-09
 85.97357    160.3 1.440e+04 2.755e-09
 85.98785    156.1 1.535e+04 4.002e-09
 85.99797    155.4 1.514e+04 3.828e-09
 86.01406    151.0 1.614e+04 4.991e-09
 86.03430    145.5 1.746e+04 5.910e-09
 86.05454    139.4 1.839e+04 6.370e-09
 86.06573    133.1 1.843e+04 6.591e-09
 86.07585    128.0 2.003e+04 1.118e-08
 86.08527    123.4 1.928e+04 1.038e-08
 86.09539    124.7 1.858e+04 8.311e-09
 86.11527    120.7 1.792e+04 7.425e-09
 86.13551    117.8 1.718e+04 6.213e-09
 86.15575    116.1 1.655e+04 5.350e-09
 86.17257    115.3 1.605e+04 4.575e-09
 86.18269    116.7 1.600e+04 4.931e-09
 86.18764    116.3 1.561e+04 4.283e-09
 86.19776    114.0 1.499e+04 2.983e-09
 86.21648    113.6 1.455e+04 2.516e-09
 86.23672    113.1 1.450e+04 2.503e-09
 86.25696    111.7 1.502e+04 2.752e-09
 86.26998    108.7 1.658e+04 4.251e-09
 86.28010    110.7 1.570e+04 3.445e-09
 86.29744    107.3 1.817e+04 7.086e-09
 86.30956    105.1 2.000e+04 1.417e-08
 86.31968    103.2 2.008e+04 1.425e-08
 86.33282    102.8 2.083e+04 1.928e-08
 86.34289    102.1 2.142e+04 2.728e-08
 86.35301    101.8 2.172e+04 3.599e-08
 86.36224    101.3 2.219e+04 4.151e-08
 86.36730    101.8 2.178e+04 3.310e-08
 86.37042    101.1 2.184e+04 3.278e-08
 86.37548    100.5 2.170e+04 3.154e-08
 86.38338     99.7 2.159e+04 2.881e-08
 86.39861     99.4 2.103e+04 2.014e-08
 86.41890     97.6 1.972e+04 1.175e-08
 86.43147     94.4 1.743e+04 6.349e-09
 86.44159     93.4 1.573e+04 5.130e-09
 86.45470     90.3 1.387e+04 3.371e-09
 86.46482     92.0 1.418e+04 3.581e-09
 86.47962     90.8 1.337e+04 3.071e-09
 86.49986     91.1 1.332e+04 3.010e-09
 86.52011     91.5 1.334e+04 2.898e-09
 86.54035     91.9 1.323e+04 2.756e-09
 86.55211     92.3 1.305e+04 2.458e-09
 86.55503     93.5 1.311e+04 2.647e-09
 86.56351     92.7 1.353e+04 2.923e-09
 86.58083     92.9 1.334e+04 2.677e-09
 86.60107     93.0 1.305e+04 2.277e-09
 86.62132     92.9 1.269e+04 1.808e-09
 86.63941     92.6 1.223e+04 1.373e-09
 86.64953     93.8 1.220e+04 1.339e-09
 86.66180     93.3 1.163e+04 9.682e-10
 86.67530     92.8 1.117e+04 7.467e-10
 86.68542     92.6 1.173e+04 1.095e-09
 86.70228     92.3 1.130e+04 8.639e-10
 86.72253     92.2 1.100e+04 7.107e-10
 86.73683     92.3 1.080e+04 6.052e-10
 86.74695     93.4 1.065e+04 5.350e-10
 86.76301     93.6 1.055e+04 4.869e-10
 86.78325     93.8 1.047e+04 4.512e-10
 86.79722     94.1 1.042e+04 4.222e-10
 86.80734     93.9 1.055e+04 4.853e-10
 86.82374     94.4 1.054e+04 4.140e-10
 86.83424     94.4 1.054e+04 3.958e-10
 86.84436     95.5 1.058e+04 4.035e-10
 86.87444     96.2 1.057e+04 3.384e-10
 86.91161     97.0 1.063e+04 3.241e-10
 86.93186     99.5 1.065e+04 3.525e-10
 86.95550     99.9 1.061e+04 3.640e-10
 86.99599     99.8 1.095e+04 4.612e-10
 87.03112     99.3 1.164e+04 7.846e-10
 87.05136    100.5 1.123e+04 5.147e-10
 87.07696     99.9 1.204e+04 9.798e-10
 87.10645     99.5 1.264e+04 1.466e-09
 87.12669    102.2 1.244e+04 1.238e-09
 87.15792    101.8 1.306e+04 1.701e-09
 87.18819    100.1 1.366e+04 2.392e-09
 87.20367     99.6 1.346e+04 2.713e-09
 87.21379    101.0 1.391e+04 2.815e-09
 87.22858    100.8 1.355e+04 3.040e-09
 87.24882    100.2 1.372e+04 2.871e-09
 87.26906     97.8 1.427e+04 2.954e-09
 87.28488     94.5 1.478e+04 3.403e-09
 87.29500     94.3 1.502e+04 4.044e-09
 87.30109     93.4 1.449e+04 3.796e-09
 87.31121     95.0 1.541e+04 5.040e-09
 87.32979     95.1 1.435e+04 4.012e-09
 87.35003     95.2 1.296e+04 2.369e-09
 87.37027     94.4 1.219e+04 1.108e-09
 87.38838     90.8 1.196e+04 4.649e-10
 87.39850     92.4 1.229e+04 5.766e-10
 87.40679     86.7 1.085e+04 2.615e-10
 87.41691     84.0 9.673e+03 2.331e-10
 87.43100     83.7 9.520e+03 2.375e-10
 87.45124     83.6 9.520e+03 2.396e-10
 87.47578     84.3 9.442e+03 2.574e-10
 87.49611     84.7 9.538e+03 2.704e-10
 87.51878     85.6 9.469e+03 2.866e-10
 87.53902     84.9 9.595e+03 3.181e-10
 87.56276     85.7 9.543e+03 3.031e-10
 87.60325     85.9 9.551e+03 2.941e-10
 87.64373     85.9 9.625e+03 3.064e-10
 87.67071     85.8 9.761e+03 3.345e-10
 87.69095     86.1 9.769e+03 3.315e-10
 87.72470     85.9 9.893e+03 3.756e-10
 87.76261     85.4 1.001e+04 4.073e-10
 87.78285     84.9 1.001e+04 3.853e-10
 87.79545     84.8 1.008e+04 4.179e-10
 87.81559     84.4 1.021e+04 4.263e-10
 87.83584     83.7 1.029e+04 4.290e-10
 87.85522     82.5 1.049e+04 4.440e-10
 87.86535     82.3 1.061e+04 4.809e-10
 87.87632     81.1 1.072e+04 5.208e-10
 87.89445     80.1 1.077e+04 5.840e-10
 87.90457     80.3 1.081e+04 5.965e-10
 87.91680     80.1 1.076e+04 5.994e-10
 87.93705     79.6 1.079e+04 5.828e-10
 87.96751     79.0 1.078e+04 5.743e-10
 88.00644     76.3 1.127e+04 7.397e-10
 88.02668     77.1 1.100e+04 5.869e-10
 88.03835     72.3 1.237e+04 1.173e-09
 88.05006     70.6 1.274e+04 2.110e-09
 88.06018     70.4 1.288e+04 2.248e-09
 88.07874     70.6 1.334e+04 3.049e-09
 88.09898     70.0 1.418e+04 3.430e-09
 88.11922     68.9 1.414e+04 2.934e-09
 88.13735     67.4 1.318e+04 1.936e-09
 88.14629     66.7 1.255e+04 1.520e-09
 88.14840     67.9 1.309e+04 1.713e-09
 88.15971     65.0 1.174e+04 8.653e-10
 88.17995     62.2 1.090e+04 5.724e-10
 88.21041     60.7 1.065e+04 3.824e-10
 88.23497     58.9 1.002e+04 2.677e-10
 88.25449     59.8 9.815e+03 2.496e-10
 88.27051     59.4 9.612e+03 2.123e-10
 88.29148     60.4 9.422e+03 2.116e-10
 88.33196     61.8 9.517e+03 2.321e-10
 88.37244     63.4 9.787e+03 2.788e-10
 88.40956     65.0 1.007e+04 3.436e-10
 88.42980     66.1 1.005e+04 3.448e-10
 88.45341     67.6 1.031e+04 4.095e-10
 88.48368     68.3 1.043e+04 4.444e-10
 88.50382     68.5 1.057e+04 4.821e-10
 88.51425     70.4 1.047e+04 5.018e-10
 88.53459     70.1 1.026e+04 4.514e-10
 88.57486     71.7 1.032e+04 4.622e-10
 88.60429     73.3 1.039e+04 4.762e-10
 88.62454     74.1 1.037e+04 4.574e-10
 88.65583     75.2 1.036e+04 4.016e-10
 88.69632     76.1 1.045e+04 3.670e-10
 88.73680     77.1 1.047e+04 3.642e-10
 88.75817     78.2 1.050e+04 3.870e-10
 88.77842     78.3 1.027e+04 3.261e-10
 88.79923     79.9 1.048e+04 4.148e-10
 88.81947     80.6 1.040e+04 4.046e-10
 88.85825     82.3 1.075e+04 5.140e-10
 88.89874     83.7 1.111e+04 6.355e-10
 88.93922     84.6 1.157e+04 8.465e-10
 88.97382     85.4 1.208e+04 1.174e-09
 88.99406     85.6 1.180e+04 9.551e-10
 89.00200     86.3 1.210e+04 1.141e-09
 89.02225     86.1 1.194e+04 1.064e-09
 89.05045     86.5 1.217e+04 1.229e-09
 89.07060     86.6 1.226e+04 1.280e-09
 89.08116     86.5 1.242e+04 1.360e-09
 89.09128     86.6 1.206e+04 1.101e-09
 89.11108     85.5 1.263e+04 1.351e-09
 89.12372     83.5 1.335e+04 2.008e-09
 89.13384     83.5 1.323e+04 1.935e-09
 89.15157     83.1 1.384e+04 3.147e-09
 89.16846     84.1 1.386e+04 4.093e-09
 89.17858     84.0 1.386e+04 4.053e-09
 89.19205     84.9 1.383e+04 4.150e-09
 89.21229     86.3 1.349e+04 3.680e-09
 89.23253     86.9 1.294e+04 2.729e-09
 89.24564     87.0 1.206e+04 1.643e-09
 89.26598     86.3 1.127e+04 1.039e-09
 89.30358     85.9 1.022e+04 5.525e-10
 89.34324     85.8 9.587e+03 3.921e-10
 89.36349     85.2 9.706e+03 4.526e-10
 89.38454     86.4 9.631e+03 4.493e-10
 89.41481     87.9 9.572e+03 4.494e-10
 89.43495     88.4 9.616e+03 4.688e-10
 89.45059     89.2 9.783e+03 5.478e-10
 89.46071     88.7 9.937e+03 6.194e-10
 89.47544     89.5 1.005e+04 6.752e-10
 89.48947     90.0 1.029e+04 7.291e-10
 89.49959     90.7 1.057e+04 9.252e-10
 89.51592     91.3 1.095e+04 1.050e-09
 89.53616     91.1 1.130e+04 1.143e-09
 89.54800     90.8 1.161e+04 1.264e-09
 89.55812     89.8 1.151e+04 1.193e-09
 89.57665     89.1 1.182e+04 1.289e-09
 89.59689     88.6 1.186e+04 1.294e-09
 89.61138     87.7 1.178e+04 1.201e-09
 89.62150     88.2 1.272e+04 1.836e-09
 89.63530     87.5 1.224e+04 1.463e-09
 89.64542     86.4 1.145e+04 1.031e-09
 89.66783     85.8 1.093e+04 7.472e-10
 89.70842     83.3 9.837e+03 3.998e-10
 89.73291     81.6 9.216e+03 2.620e-10
 89.73775     81.4 9.157e+03 2.609e-10
 89.75373     81.3 9.113e+03 2.429e-10
 89.78938     81.5 8.904e+03 2.097e-10
 89.82987     82.0 8.902e+03 2.235e-10
 89.87035     82.6 9.008e+03 2.668e-10
 89.90750     83.3 9.290e+03 3.363e-10
 89.92775     82.9 9.313e+03 3.431e-10
 89.95132     82.9 9.584e+03 3.888e-10
 89.97732     82.4 9.880e+03 4.341e-10
 89.99756     83.4 9.636e+03 3.640e-10
 90.03229     82.5 1.001e+04 4.435e-10
 90.07277     81.4 1.045e+04 5.290e-10
 90.09914     78.2 1.125e+04 6.268e-10
 90.10837     79.7 1.088e+04 5.548e-10
 90.11226     78.7 1.080e+04 4.855e-10
 90.12318     76.5 1.134e+04 5.905e-10
 90.14342     73.9 1.164e+04 7.600e-10
 90.16366     72.5 1.145e+04 8.538e-10
 90.18391     70.7 1.179e+04 8.681e-10
 90.19956     68.5 1.202e+04 7.902e-10
 90.20968     67.9 1.196e+04 6.815e-10
 90.22096     65.8 1.163e+04 5.866e-10
 90.23108     67.9 1.180e+04 6.686e-10
 90.24463     65.8 1.142e+04 5.745e-10
 90.26487     64.0 1.111e+04 5.164e-10
 90.28512     62.3 1.108e+04 4.730e-10
 90.29698     60.9 1.107e+04 4.790e-10
 90.30710     60.8 1.107e+04 5.139e-10
 90.32560     59.7 1.105e+04 5.251e-10
 90.34287     58.8 1.078e+04 5.647e-10
 90.35299     59.9 1.116e+04 6.737e-10
 90.36608     59.2 1.101e+04 6.486e-10
 90.38427     58.8 1.066e+04 5.851e-10
 90.39439     58.6 1.063e+04 5.502e-10
 90.40657     58.3 1.030e+04 4.743e-10
 90.43703     57.8 1.036e+04 2.787e-10
 90.46498     56.6 9.743e+03 1.459e-10
 90.47938     56.8 1.006e+04 1.922e-10
 90.49200     55.9 9.944e+03 2.058e-10
 90.51809     55.7 9.521e+03 1.512e-10
 90.55858     56.2 9.416e+03 1.377e-10
 90.59906     57.2 9.377e+03 1.391e-10
 90.63955     58.5 9.412e+03 1.447e-10
 90.66660     59.7 9.577e+03 1.374e-10
 90.68684     59.3 9.623e+03 1.537e-10
 90.70881     59.8 9.946e+03 1.591e-10
 90.72905     59.4 1.003e+04 1.807e-10
 90.76100     59.3 1.024e+04 2.187e-10
 90.80148     60.2 1.026e+04 2.963e-10
 90.84119     61.1 1.059e+04 2.972e-10
 90.86143     60.2 1.082e+04 3.456e-10
 90.88245     59.9 1.107e+04 3.087e-10
 90.92293     58.9 1.110e+04 3.862e-10
 90.95264     59.3 1.096e+04 4.432e-10
 90.97288     58.9 1.086e+04 4.360e-10
 91.00390     59.6 1.110e+04 3.686e-10
 91.03602     59.1 1.120e+04 3.106e-10
 91.05626     57.4 1.133e+04 3.124e-10
 91.08487     56.9 1.110e+04 3.471e-10
 91.12535     57.3 1.093e+04 3.573e-10
 91.16584     58.1 1.088e+04 3.163e-10
 91.19647     58.1 1.094e+04 2.498e-10
 91.21671     58.4 1.061e+04 1.624e-10
 91.23086     57.7 1.070e+04 1.502e-10
 91.25110     56.3 1.070e+04 1.771e-10
 91.28729     55.9 1.089e+04 2.858e-10
 91.32777     56.7 1.103e+04 4.231e-10
 91.35804     57.5 1.102e+04 4.969e-10
 91.37818     57.6 1.107e+04 5.174e-10
 91.40535     57.2 1.117e+04 4.985e-10
 91.42569     56.1 1.148e+04 5.478e-10
 91.44030     54.3 1.185e+04 7.233e-10
 91.46054     56.9 1.118e+04 4.782e-10
 91.48971     55.5 1.177e+04 6.845e-10
 91.53019     54.4 1.220e+04 1.183e-09
 91.56046     53.6 1.254e+04 1.449e-09
 91.57214     53.7 1.254e+04 1.457e-09
 91.58226     54.3 1.280e+04 1.699e-09
 91.60009     54.1 1.303e+04 1.541e-09
 91.62043     53.1 1.275e+04 1.181e-09
 91.64143     52.1 1.276e+04 1.084e-09
 91.66157     51.6 1.247e+04 1.010e-09
 91.68181     50.7 1.225e+04 9.987e-10
 91.69406     50.2 1.213e+04 9.677e-10
 91.69963     51.3 1.267e+04 1.258e-09
 91.70762     50.1 1.267e+04 1.325e-09
 91.72230     49.1 1.266e+04 1.601e-09
 91.74254     48.2 1.299e+04 1.941e-09
 91.76278     47.6 1.323e+04 2.339e-09
 91.78302     47.4 1.333e+04 2.691e-09
 91.79492     47.5 1.312e+04 2.709e-09
 91.80504     47.1 1.281e+04 2.255e-09
 91.81597     47.5 1.233e+04 1.701e-09
 91.82609     47.6 1.277e+04 2.026e-09
 91.84375     47.0 1.221e+04 1.322e-09
 91.86399     45.3 1.162e+04 8.965e-10
 91.88222     43.3 1.114e+04 7.218e-10
 91.89234     42.6 1.113e+04 7.239e-10
 91.90448     41.5 1.103e+04 6.873e-10
 91.92472     40.9 1.100e+04 7.449e-10
 91.93789     40.6 1.084e+04 8.219e-10
 91.94811     41.8 1.136e+04 8.795e-10
 91.96971     41.4 1.114e+04 9.649e-10
 91.98995     40.7 1.113e+04 9.485e-10
 92.01600     41.0 1.088e+04 8.263e-10
 92.05649     41.4 1.036e+04 5.371e-10
 92.09697     41.3 9.642e+03 2.896e-10
 92.13745     41.3 9.063e+03 1.963e-10
 92.16454     42.4 8.756e+03 1.569e-10
 92.17864     42.0 8.670e+03 1.310e-10
 92.19203     42.1 8.712e+03 1.292e-10
 92.21842     43.7 8.651e+03 1.225e-10
 92.25891     45.1 8.613e+03 1.155e-10
 92.29939     46.5 8.557e+03 1.125e-10
 92.33913     48.0 8.591e+03 1.135e-10
 92.35938     48.0 8.588e+03 1.147e-10
 92.38036     49.2 8.736e+03 1.204e-10
 92.41562     49.9 8.901e+03 1.443e-10
 92.43586     50.3 9.280e+03 2.200e-10
 92.46133     51.1 9.513e+03 3.010e-10
 92.50181     52.0 9.917e+03 4.005e-10
 92.53397     52.5 1.020e+04 5.005e-10
 92.55421     52.3 1.061e+04 6.520e-10
 92.58278     52.7 1.063e+04 6.911e-10
 92.62326     53.3 1.059e+04 5.154e-10
 92.65945     52.7 1.042e+04 3.787e-10
 92.67969     53.3 1.061e+04 4.816e-10
 92.70423     52.9 1.062e+04 4.130e-10
 92.72880     51.8 1.097e+04 5.109e-10
 92.74904     51.0 1.134e+04 6.466e-10
 92.78520     50.6 1.169e+04 9.124e-10
 92.81546     50.6 1.216e+04 1.089e-09
 92.82602     50.3 1.239e+04 1.144e-09
 92.83614     49.7 1.268e+04 1.273e-09
 92.85585     47.6 1.409e+04 1.654e-09
 92.87609     45.2 1.477e+04 2.627e-09
 92.89633     44.4 1.463e+04 3.650e-09
 92.91321     44.5 1.466e+04 4.159e-09
 92.92007     45.0 1.474e+04 4.033e-09
 92.92344     44.9 1.483e+04 3.991e-09
 92.93682     44.5 1.470e+04 3.998e-09
 92.95706     44.0 1.438e+04 3.191e-09
 92.97730     42.5 1.373e+04 2.295e-09
 92.99754     41.2 1.274e+04 1.712e-09
 93.02800     41.3 1.229e+04 1.420e-09
 93.06858     42.0 1.164e+04 9.278e-10
 93.09823     42.7 1.103e+04 6.510e-10
 93.11847     42.5 1.103e+04 6.474e-10
 93.14711     43.3 1.065e+04 4.955e-10
 93.16735     44.2 1.071e+04 5.013e-10
 93.19004     44.8 1.047e+04 4.496e-10
 93.23052     45.8 1.037e+04 4.568e-10
 93.27100     47.3 1.029e+04 5.109e-10
 93.29306     49.1 1.016e+04 5.071e-10
 93.31330     49.2 1.015e+04 5.019e-10
 93.35197     50.5 1.006e+04 3.981e-10
 93.39094     50.6 9.954e+03 3.373e-10
 93.41109     51.0 1.009e+04 3.925e-10
 93.42262     50.9 1.020e+04 4.043e-10
 93.44287     50.8 1.025e+04 4.129e-10
 93.46756     50.7 1.060e+04 6.540e-10
 93.48789     50.8 1.045e+04 5.946e-10
 93.51391     52.1 1.043e+04 7.622e-10
 93.55439     53.4 1.011e+04 5.824e-10
 93.59488     53.8 9.662e+03 3.341e-10
 93.63477     53.5 9.126e+03 1.823e-10
 93.65501     53.3 9.244e+03 1.961e-10
 93.66249     53.2 8.676e+03 1.485e-10
 93.68273     53.6 8.597e+03 1.453e-10
 93.71633     54.7 8.371e+03 1.291e-10
 93.75681     56.0 8.336e+03 1.162e-10
 93.79730     57.2 8.391e+03 1.166e-10
 93.83708     57.7 8.580e+03 1.430e-10
 93.85732     59.0 8.463e+03 1.244e-10
 93.87826     59.5 8.725e+03 1.724e-10
 93.89884     60.4 9.144e+03 2.741e-10
 93.91908     60.3 9.580e+03 3.508e-10
 93.94452     60.6 9.590e+03 4.087e-10
 93.95454     61.1 9.611e+03 3.907e-10
 93.96916     61.0 9.754e+03 4.514e-10
 93.98940     60.2 1.023e+04 5.810e-10
 94.00964     57.8 1.140e+04 8.861e-10
 94.02056     53.9 1.278e+04 1.576e-09
 94.03068     52.5 1.350e+04 1.903e-09
 94.04184     48.2 1.496e+04 3.674e-09
 94.05196     49.5 1.507e+04 3.708e-09
 94.07037     46.6 1.636e+04 5.604e-09
 94.09061     43.3 1.622e+04 5.849e-09
 94.11085     39.5 1.421e+04 3.779e-09
 94.12913     35.9 1.386e+04 2.235e-09
 94.13926     36.7 1.402e+04 2.660e-09
 94.14248     30.8 1.352e+04 1.148e-09
 94.15260     26.9 1.232e+04 7.901e-10
 94.17158     21.2 9.521e+03 3.955e-10
 94.19182     19.7 9.226e+03 2.938e-10
 94.21206     18.1 8.973e+03 2.179e-10
 94.22665     16.3 8.656e+03 1.820e-10
 94.24699     16.3 8.417e+03 1.547e-10
 94.28310     14.7 8.039e+03 1.311e-10
 94.32359     14.3 8.008e+03 1.295e-10
 94.36407     13.8 8.179e+03 1.456e-10
 94.38650     13.2 8.596e+03 2.001e-10
 94.40353     11.9 8.853e+03 2.544e-10
 94.42158     12.3 8.853e+03 2.550e-10
 94.44504     11.9 9.386e+03 3.717e-10
 94.47531     11.9 9.762e+03 4.723e-10
 94.49545     11.0 1.010e+04 6.093e-10
 94.50822     10.7 1.045e+04 7.752e-10
 94.51133     10.2 1.049e+04 7.930e-10
 94.51880     10.4 1.040e+04 7.497e-10
 94.53593     10.0 1.072e+04 8.616e-10
 94.55618      9.4 1.094e+04 9.461e-10
 94.57642      8.7 1.104e+04 9.776e-10
 94.59598      7.9 1.106e+04 9.845e-10
 94.60610      7.8 1.105e+04 9.684e-10
 94.61690      7.0 1.109e+04 9.849e-10
 94.63014      6.4 1.110e+04 9.815e-10
 94.64026      5.9 1.120e+04 1.040e-09
 94.65739      5.6 1.121e+04 1.047e-09
 94.67763      5.4 1.118e+04 1.039e-09
 94.69339      5.4 1.113e+04 9.823e-10
 94.70351      5.2 1.120e+04 1.026e-09
 94.71811      5.3 1.115e+04 9.449e-10
 94.73835      5.3 1.113e+04 9.001e-10
 94.76881      5.8 1.116e+04 8.887e-10
 94.79091      6.1 1.139e+04 9.403e-10
 94.80093      5.0 1.155e+04 1.004e-09
 94.81932      3.5 1.258e+04 1.456e-09
 94.83956      1.8 1.428e+04 2.618e-09
 94.85981      0.2 1.610e+04 5.106e-09
 94.87397     -0.4 1.781e+04 9.530e-09
 94.88215     -0.2 1.817e+04 1.073e-08
 94.88823     -0.6 1.825e+04 1.041e-08
 94.90029     -0.9 1.962e+04 1.578e-08
 94.92053     -1.8 2.044e+04 2.026e-08
 94.94077     -3.1 2.071e+04 2.171e-08
 94.96102     -4.6 2.065e+04 2.115e-08
 94.97552     -6.0 2.015e+04 1.811e-08
 94.98564     -7.6 1.922e+04 1.324e-08
 94.99588     -8.4 1.849e+04 1.136e-08
 95.00600     -8.0 1.810e+04 9.315e-09
 95.02174     -8.3 1.760e+04 8.764e-09
 95.04198     -8.1 1.726e+04 8.289e-09
 95.06223     -7.5 1.702e+04 7.803e-09
 95.07294     -6.7 1.683e+04 7.308e-09
 95.08306     -7.5 1.615e+04 5.575e-09
 95.10271     -6.8 1.607e+04 5.387e-09
 95.11780     -6.1 1.599e+04 5.175e-09
 95.12792     -5.5 1.541e+04 3.923e-09
 95.14319     -4.7 1.533e+04 3.676e-09
 95.16024     -4.1 1.532e+04 3.489e-09
 95.17036     -5.2 1.440e+04 2.160e-09
 95.18368     -4.9 1.446e+04 2.149e-09
 95.20392     -4.7 1.452e+04 2.158e-09
 95.22416     -4.8 1.458e+04 2.158e-09
 95.23971     -5.1 1.474e+04 2.197e-09
 95.24983     -5.1 1.323e+04 1.039e-09
 95.25765     -5.8 1.313e+04 1.053e-09
 95.26777     -7.4 1.114e+04 5.315e-10
 95.28489     -8.2 1.092e+04 5.371e-10
 95.30513     -9.2 1.093e+04 5.525e-10
 95.32537    -10.1 1.102e+04 5.804e-10
 95.34495    -10.8 1.116e+04 6.139e-10
 95.35507    -10.9 1.105e+04 5.965e-10
 95.36163    -10.7 1.136e+04 6.568e-10
 95.37175    -11.0 1.110e+04 4.812e-10
 95.38610    -10.5 1.113e+04 5.004e-10
 95.40634     -9.4 1.117e+04 5.557e-10
 95.42658     -8.8 1.127e+04 5.780e-10
 95.44237     -8.2 1.142e+04 6.294e-10
 95.45249     -8.2 1.139e+04 6.356e-10
 95.46707     -7.5 1.156e+04 7.157e-10
 95.48354     -6.7 1.175e+04 8.285e-10
 95.49366     -6.5 1.152e+04 6.062e-10
 95.50755     -5.7 1.169e+04 7.033e-10
 95.52779     -4.9 1.186e+04 8.209e-10
 95.53978     -4.3 1.256e+04 9.363e-10
 95.54990     -4.3 1.180e+04 9.511e-10
 95.56827     -3.7 1.187e+04 1.024e-09
 95.58852     -3.4 1.239e+04 1.082e-09
 95.60546     -3.4 1.311e+04 1.250e-09
 95.61558     -4.4 1.399e+04 1.337e-09
 95.62708     -4.4 1.488e+04 1.918e-09
 95.63720     -4.4 1.249e+04 1.251e-09
 95.64924     -4.5 1.319e+04 1.571e-09
 95.66948     -4.2 1.394e+04 2.005e-09
 95.68973     -3.7 1.450e+04 2.510e-09
 95.70997     -3.1 1.486e+04 2.904e-09
 95.72450     -2.6 1.517e+04 3.159e-09
 95.73178     -2.8 1.383e+04 2.372e-09
 95.73749     -4.1 1.549e+04 3.653e-09
 95.75045     -4.2 1.583e+04 3.857e-09
 95.77069     -4.6 1.611e+04 4.159e-09
 95.79094     -4.7 1.617e+04 4.635e-09
 95.81118     -4.3 1.594e+04 5.005e-09
 95.82191     -3.5 1.582e+04 4.828e-09
 95.83203     -3.3 1.507e+04 3.493e-09
 95.84929     -2.8 1.488e+04 3.347e-09
 95.85941     -4.3 1.453e+04 2.761e-09
 95.87190     -4.6 1.472e+04 2.595e-09
 95.89215     -6.9 1.518e+04 2.431e-09
 95.90921    -10.9 1.615e+04 2.781e-09
 95.91933    -14.7 1.747e+04 4.839e-09
 95.93263    -17.6 1.793e+04 7.370e-09
 95.95287    -19.7 1.873e+04 1.213e-08
 95.96801    -21.2 1.948e+04 1.686e-08
 95.97616    -21.9 1.989e+04 1.844e-08
 95.98127    -20.7 1.835e+04 1.088e-08
 95.99336    -22.2 1.898e+04 1.148e-08
 96.00663    -24.1 1.914e+04 1.041e-08
 96.01675    -27.3 1.904e+04 1.004e-08
 96.03384    -29.6 1.813e+04 7.907e-09
 96.05408    -31.4 1.665e+04 5.544e-09
 96.07432    -32.8 1.505e+04 3.706e-09
 96.09312    -33.6 1.377e+04 2.591e-09
 96.10259    -32.9 1.315e+04 1.991e-09
 96.11426    -34.2 1.235e+04 1.363e-09
 96.13515    -33.8 1.207e+04 1.178e-09
 96.15529    -33.3 1.169e+04 9.865e-10
 96.17553    -32.7 1.122e+04 7.629e-10
 96.19134    -32.3 1.096e+04 6.207e-10
 96.20146    -32.9 1.071e+04 5.943e-10
 96.22624    -31.9 1.040e+04 4.555e-10
 96.26682    -31.1 9.789e+03 3.435e-10
 96.28895    -30.6 9.484e+03 2.909e-10
 96.30919    -30.5 9.449e+03 2.960e-10
 96.33714    -29.3 9.305e+03 2.730e-10
 96.35738    -28.6 8.566e+03 1.467e-10
 96.38827    -27.5 8.636e+03 1.534e-10
 96.42875    -26.5 8.902e+03 1.943e-10
 96.46354    -25.1 9.217e+03 2.562e-10
 96.48378    -24.5 9.218e+03 2.581e-10
 96.50972    -22.9 9.526e+03 3.137e-10
 96.53999    -22.0 9.684e+03 3.454e-10
 96.56013    -21.7 9.812e+03 3.904e-10
 96.57089    -21.6 1.023e+04 5.065e-10
 96.58101    -21.2 1.022e+04 5.033e-10
 96.59090    -22.2 1.126e+04 7.793e-10
 96.60102    -23.5 1.182e+04 9.047e-10
 96.62086    -25.4 1.339e+04 1.716e-09
 96.64110    -26.5 1.474e+04 3.258e-09
 96.65818    -26.8 1.581e+04 5.616e-09
 96.66830    -26.6 1.602e+04 6.032e-09
 96.68158    -25.9 1.691e+04 8.932e-09
 96.70183    -25.6 1.739e+04 1.063e-08
 96.71281    -25.8 1.745e+04 1.094e-08
 96.72293    -26.4 1.642e+04 7.641e-09
 96.74231    -26.5 1.580e+04 5.930e-09
 96.75560    -27.1 1.482e+04 3.919e-09
 96.76572    -27.6 1.444e+04 3.245e-09
 96.78279    -29.0 1.333e+04 2.093e-09
 96.80304    -30.1 1.246e+04 1.471e-09
 96.82328    -30.8 1.194e+04 1.151e-09
 96.83473    -31.2 1.180e+04 1.011e-09
 96.84422    -32.1 1.110e+04 7.577e-10
 96.85302    -32.3 1.104e+04 7.040e-10
 96.86376    -32.5 1.102e+04 6.911e-10
 96.88400    -33.3 1.119e+04 7.053e-10
 96.91446    -34.5 1.175e+04 8.855e-10
 96.94041    -34.9 1.272e+04 1.609e-09
 96.95043    -34.8 1.264e+04 1.426e-09
 96.95664    -34.7 1.289e+04 1.690e-09
 96.96676    -34.6 1.223e+04 1.187e-09
 96.98521    -34.5 1.247e+04 1.349e-09
 97.00546    -34.3 1.263e+04 1.471e-09
 97.02770    -34.1 1.272e+04 1.561e-09
 97.04804    -34.2 1.239e+04 1.214e-09
 97.06863    -33.6 1.202e+04 1.043e-09
 97.08887    -33.5 1.186e+04 9.667e-10
 97.11698    -32.5 1.157e+04 7.894e-10
 97.15747    -31.4 1.131e+04 6.617e-10
 97.19795    -30.2 1.120e+04 6.221e-10
 97.22264    -28.9 1.117e+04 6.121e-10
 97.24288    -29.1 1.130e+04 6.793e-10
 97.27892    -27.8 1.127e+04 6.853e-10
 97.31246    -26.7 1.126e+04 6.912e-10
 97.33270    -26.5 1.132e+04 7.193e-10
 97.35989    -25.9 1.154e+04 7.950e-10
 97.39723    -25.8 1.195e+04 9.440e-10
 97.41747    -26.2 1.156e+04 7.503e-10
 97.44085    -26.8 1.211e+04 8.647e-10
 97.48134    -28.8 1.259e+04 1.069e-09
 97.50467    -30.3 1.321e+04 1.541e-09
 97.51469    -30.8 1.292e+04 1.422e-09
 97.53175    -31.5 1.311e+04 1.647e-09
 97.55199    -32.2 1.313e+04 1.724e-09
 97.56622    -32.8 1.307e+04 1.718e-09
 97.57634    -33.7 1.333e+04 1.855e-09
 97.59187    -34.5 1.316e+04 1.529e-09
 97.60199    -34.8 1.303e+04 1.434e-09
 97.61272    -35.6 1.269e+04 1.229e-09
 97.63296    -36.1 1.233e+04 1.074e-09
 97.65320    -36.2 1.195e+04 9.195e-10
 97.67344    -36.0 1.157e+04 7.433e-10
 97.68813    -35.9 1.123e+04 5.641e-10
 97.69385    -36.5 1.114e+04 5.118e-10
 97.69940    -36.8 1.109e+04 4.889e-10
 97.72414    -36.5 1.083e+04 3.903e-10
 97.76473    -35.8 1.039e+04 2.669e-10
 97.78690    -34.8 9.915e+03 1.759e-10
 97.80205    -34.7 9.879e+03 1.718e-10
 97.82036    -35.6 9.791e+03 1.587e-10
 97.84569    -34.4 9.659e+03 1.394e-10
 97.88618    -33.1 9.576e+03 1.326e-10
 97.92666    -31.6 9.548e+03 1.315e-10
 97.96149    -30.2 9.549e+03 1.355e-10
 97.98173    -30.1 9.529e+03 1.499e-10
 98.00763    -29.1 9.636e+03 1.793e-10
 98.04395    -28.4 9.869e+03 2.458e-10
 98.06419    -28.6 9.960e+03 2.982e-10
 98.08860    -28.4 1.038e+04 4.276e-10
 98.12908    -28.4 1.085e+04 6.250e-10
 98.15632    -28.6 1.128e+04 8.266e-10
 98.17656    -28.4 1.121e+04 8.002e-10
 98.21005    -29.6 1.133e+04 8.561e-10
 98.25053    -31.1 1.112e+04 7.802e-10
 98.28080    -31.8 1.078e+04 6.641e-10
 98.29771    -32.2 1.063e+04 6.169e-10
 98.30783    -32.5 1.069e+04 6.683e-10
 98.32119    -33.6 1.061e+04 6.308e-10
 98.34084    -34.7 1.066e+04 6.309e-10
 98.35096    -34.2 1.055e+04 5.901e-10
 98.36167    -35.8 1.090e+04 6.718e-10
 98.38191    -37.2 1.124e+04 8.683e-10
 98.40215    -38.0 1.152e+04 1.098e-09
 98.41962    -38.3 1.171e+04 1.252e-09
 98.42974    -38.8 1.207e+04 1.531e-09
 98.43826    -38.9 1.207e+04 1.543e-09
 98.44838    -38.5 1.214e+04 1.663e-09
 98.46288    -38.5 1.200e+04 1.528e-09
 98.48312    -39.0 1.193e+04 1.351e-09
 98.50336    -40.5 1.199e+04 1.319e-09
 98.52361    -44.0 1.288e+04 1.420e-09
 98.53567    -48.4 1.450e+04 2.390e-09
 98.54348    -47.2 1.420e+04 2.343e-09
 98.55166    -48.4 1.409e+04 2.577e-09
 98.56409    -49.6 1.486e+04 4.156e-09
 98.58433    -49.9 1.547e+04 5.683e-09
 98.60457    -50.4 1.570e+04 6.155e-09
 98.62297    -51.3 1.566e+04 5.736e-09
 98.63309    -50.4 1.489e+04 3.777e-09
 98.64506    -52.5 1.410e+04 2.125e-09
 98.66345    -56.2 1.251e+04 1.076e-09
 98.67357    -57.7 1.162e+04 8.312e-10
 98.69576    -59.9 1.110e+04 7.401e-10
 98.72058    -60.6 1.031e+04 5.492e-10
 98.74082    -59.5 9.523e+03 2.897e-10
 98.77544    -59.6 9.410e+03 2.555e-10
 98.79568    -59.8 8.960e+03 1.857e-10
 98.81731    -59.7 8.935e+03 1.769e-10
 98.85779    -59.5 8.930e+03 1.758e-10
 98.89517    -59.4 8.952e+03 1.797e-10
 98.91542    -58.9 8.727e+03 1.667e-10
 98.93876    -59.4 9.144e+03 2.273e-10
 98.97925    -59.9 9.879e+03 3.911e-10
 99.01927    -59.9 1.057e+04 6.319e-10
 99.03941    -60.8 1.071e+04 7.320e-10
 99.04990    -61.2 1.105e+04 8.839e-10
 99.07014    -61.8 1.119e+04 9.426e-10
 99.08981    -62.2 1.121e+04 9.569e-10
 99.09993    -62.2 1.096e+04 8.564e-10
 99.11062    -62.2 1.077e+04 7.788e-10
 99.13086    -62.2 1.057e+04 6.350e-10
 99.15111    -62.3 1.036e+04 4.919e-10
 99.17135    -63.2 1.023e+04 3.905e-10
 99.18723    -63.6 1.005e+04 3.286e-10
 99.19735    -63.7 9.990e+03 3.273e-10
 99.22205    -63.9 9.956e+03 3.102e-10
 99.26263    -63.4 9.952e+03 3.059e-10
 99.28334    -62.8 1.000e+04 3.217e-10
 99.28531    -63.3 1.001e+04 3.464e-10
 99.30508    -62.9 1.018e+04 3.960e-10
 99.34360    -62.0 1.024e+04 4.377e-10
 99.38408    -61.0 1.037e+04 4.875e-10
 99.42457    -60.2 1.045e+04 5.151e-10
 99.45943    -59.5 1.046e+04 5.182e-10
 99.47967    -59.0 1.070e+04 5.899e-10
 99.50554    -58.1 1.060e+04 5.685e-10
 99.52717    -57.0 1.033e+04 4.798e-10
 99.54741    -56.6 1.041e+04 6.007e-10
 99.58650    -55.1 9.976e+03 3.993e-10
 99.62699    -53.7 9.749e+03 2.865e-10
 99.65427    -52.4 9.705e+03 2.478e-10
 99.67451    -52.1 9.708e+03 2.465e-10
 99.70796    -50.9 9.696e+03 2.385e-10
 99.74844    -49.8 9.732e+03 2.431e-10
 99.77100    -49.0 9.786e+03 2.575e-10
 99.79124    -48.9 9.645e+03 1.944e-10
 99.82886    -48.2 9.703e+03 2.382e-10
 99.84910    -47.6 9.704e+03 2.423e-10
 99.86989    -46.9 9.711e+03 2.567e-10
 99.91038    -46.3 9.656e+03 2.542e-10
 99.95086    -45.7 9.527e+03 2.309e-10
 99.99134    -45.3 9.500e+03 2.151e-10
