# Columns:
#   distance along LOS (in CHIMPs)
#   peculiar velocity  (in km/s)
#   temperature (K)
#   HI number density
# pos=(132.942,251.11,106.986), angles=(1.92731,6.21002)
  0.00502   -232.2 9.255e+03 3.685e-11
  0.03093   -230.7 9.283e+03 3.868e-11
  0.07272   -229.1 9.298e+03 4.163e-11
  0.09984   -227.5 9.309e+03 4.575e-11
  0.12074   -227.0 9.348e+03 3.821e-11
  0.15631   -225.4 9.353e+03 4.210e-11
  0.19759   -223.9 9.368e+03 4.660e-11
  0.21849   -223.3 9.400e+03 3.991e-11
  0.23548   -221.7 9.423e+03 4.321e-11
  0.25638   -221.1 9.367e+03 3.605e-11
  0.28170   -219.5 9.369e+03 3.877e-11
  0.31625   -217.8 9.359e+03 4.076e-11
  0.33715   -217.1 9.378e+03 3.475e-11
  0.36529   -215.4 9.420e+03 3.548e-11
  0.40709   -213.9 9.581e+03 3.639e-11
  0.43490   -212.5 9.774e+03 4.086e-11
  0.45580   -212.0 9.844e+03 4.057e-11
  0.49068   -210.8 9.958e+03 5.672e-11
  0.53247   -209.5 1.007e+04 8.830e-11
  0.57427   -208.0 1.028e+04 1.546e-10
  0.61606   -207.0 1.041e+04 1.986e-10
  0.65132   -206.2 1.047e+04 2.199e-10
  0.67221   -205.8 1.044e+04 2.200e-10
  0.69966   -204.9 1.041e+04 2.181e-10
  0.74145   -203.8 1.032e+04 1.941e-10
  0.76997   -202.4 1.025e+04 1.649e-10
  0.79087   -201.6 1.020e+04 1.463e-10
  0.81317   -200.0 1.019e+04 1.230e-10
  0.83407   -199.4 1.022e+04 1.501e-10
  0.86684   -197.7 1.024e+04 1.287e-10
  0.88863   -196.0 1.029e+04 1.152e-10
  0.90952   -195.2 1.029e+04 9.970e-11
  0.95043   -193.5 1.036e+04 9.176e-11
  0.98638   -191.8 1.043e+04 8.759e-11
  1.00728   -190.9 1.045e+04 7.932e-11
  1.03402   -189.3 1.048e+04 7.912e-11
  1.07581   -187.7 1.058e+04 7.971e-11
  1.10504   -186.2 1.065e+04 8.202e-11
  1.12594   -185.5 1.070e+04 8.071e-11
  1.15941   -184.2 1.074e+04 8.344e-11
  1.20120   -182.8 1.076e+04 8.430e-11
  1.22369   -181.4 1.076e+04 8.401e-11
  1.24459   -180.9 1.079e+04 8.410e-11
  1.28479   -179.4 1.077e+04 7.853e-11
  1.32145   -177.7 1.076e+04 7.068e-11
  1.34235   -177.1 1.076e+04 7.008e-11
  1.36838   -175.5 1.076e+04 6.388e-11
  1.39086   -173.9 1.081e+04 6.081e-11
  1.41175   -173.4 1.080e+04 6.919e-11
  1.44011   -171.9 1.082e+04 6.905e-11
  1.46100   -171.6 1.089e+04 7.195e-11
  1.49377   -170.8 1.128e+04 7.920e-11
  1.53556   -170.2 1.140e+04 1.115e-10
  1.55876   -169.7 1.145e+04 1.640e-10
  1.57966   -169.9 1.155e+04 2.283e-10
  1.61915   -169.4 1.162e+04 3.134e-10
  1.65652   -169.0 1.167e+04 3.911e-10
  1.67742   -169.4 1.172e+04 4.808e-10
  1.70275   -169.0 1.170e+04 5.009e-10
  1.74454   -168.6 1.160e+04 4.828e-10
  1.77517   -168.1 1.148e+04 4.357e-10
  1.79607   -168.4 1.128e+04 3.948e-10
  1.82813   -167.7 1.111e+04 3.307e-10
  1.86993   -167.0 1.098e+04 2.891e-10
  1.89383   -166.2 1.091e+04 2.674e-10
  1.91473   -166.0 1.075e+04 2.186e-10
  1.94764   -165.1 1.072e+04 2.152e-10
  1.96854   -165.3 1.075e+04 2.496e-10
  1.99158   -164.3 1.074e+04 2.375e-10
  2.01248   -163.9 1.061e+04 2.008e-10
  2.03711   -162.9 1.061e+04 1.887e-10
  2.07890   -162.0 1.061e+04 1.727e-10
  2.11024   -161.1 1.064e+04 1.566e-10
  2.13114   -160.6 1.057e+04 1.425e-10
  2.16250   -159.9 1.060e+04 1.406e-10
  2.20429   -159.5 1.072e+04 1.423e-10
  2.22889   -159.4 1.093e+04 1.586e-10
  2.24979   -159.2 1.090e+04 1.696e-10
  2.28788   -159.3 1.106e+04 2.139e-10
  2.32665   -159.6 1.125e+04 2.675e-10
  2.34755   -159.6 1.130e+04 2.845e-10
  2.37147   -160.2 1.151e+04 3.414e-10
  2.41327   -161.1 1.169e+04 3.834e-10
  2.44531   -162.0 1.182e+04 4.148e-10
  2.46620   -163.0 1.201e+04 5.341e-10
  2.49686   -163.7 1.211e+04 5.788e-10
  2.52533   -164.3 1.214e+04 5.938e-10
  2.54623   -164.3 1.237e+04 8.240e-10
  2.56396   -164.4 1.231e+04 8.083e-10
  2.58486   -165.6 1.251e+04 9.517e-10
  2.62225   -165.3 1.235e+04 8.121e-10
  2.66172   -164.8 1.219e+04 6.969e-10
  2.68262   -166.7 1.248e+04 8.574e-10
  2.70584   -166.1 1.242e+04 8.401e-10
  2.74763   -165.1 1.235e+04 8.545e-10
  2.78037   -164.1 1.230e+04 8.996e-10
  2.80127   -165.6 1.239e+04 1.069e-09
  2.83122   -164.5 1.229e+04 1.137e-09
  2.87302   -163.7 1.233e+04 1.263e-09
  2.89903   -163.0 1.235e+04 1.415e-09
  2.91993   -164.3 1.250e+04 1.627e-09
  2.95661   -164.0 1.259e+04 1.816e-09
  2.99679   -164.1 1.267e+04 2.006e-09
  3.01768   -166.0 1.278e+04 2.174e-09
  3.04020   -166.6 1.279e+04 2.256e-09
  3.08200   -167.3 1.276e+04 2.273e-09
  3.11324   -167.2 1.251e+04 2.189e-09
  3.12569   -167.1 1.221e+04 1.870e-09
  3.13614   -167.7 1.186e+04 1.566e-09
  3.15494   -167.4 1.148e+04 1.214e-09
  3.17457   -167.1 1.110e+04 9.044e-10
  3.18502   -167.3 1.083e+04 6.847e-10
  3.19674   -167.0 1.060e+04 5.413e-10
  3.21763   -166.8 1.049e+04 4.912e-10
  3.23400   -166.5 1.030e+04 4.213e-10
  3.25499   -166.8 1.009e+04 3.191e-10
  3.29097   -165.6 9.711e+03 2.308e-10
  3.33185   -164.4 9.562e+03 1.891e-10
  3.35275   -164.6 9.575e+03 1.758e-10
  3.37456   -163.5 9.550e+03 1.645e-10
  3.41636   -162.4 9.538e+03 1.587e-10
  3.45051   -161.4 9.526e+03 1.546e-10
  3.47141   -161.7 9.508e+03 1.433e-10
  3.49995   -160.7 9.486e+03 1.370e-10
  3.54174   -159.7 9.457e+03 1.320e-10
  3.56916   -158.7 9.416e+03 1.279e-10
  3.59006   -159.0 9.378e+03 1.154e-10
  3.62534   -157.9 9.311e+03 1.101e-10
  3.65981   -156.8 9.240e+03 1.056e-10
  3.68049   -156.5 9.284e+03 1.138e-10
  3.68782   -156.6 9.251e+03 1.046e-10
  3.70893   -155.4 9.188e+03 1.014e-10
  3.75072   -154.3 9.130e+03 9.877e-11
  3.78557   -153.0 9.083e+03 9.682e-11
  3.80647   -153.0 9.085e+03 9.244e-11
  3.83431   -151.7 9.057e+03 9.264e-11
  3.87611   -150.4 9.006e+03 9.236e-11
  3.90423   -149.1 8.971e+03 8.945e-11
  3.92513   -149.0 8.979e+03 8.877e-11
  3.95970   -147.6 8.940e+03 8.282e-11
  4.00149   -146.2 8.950e+03 7.802e-11
  4.02288   -144.9 8.961e+03 7.665e-11
  4.04378   -144.9 8.972e+03 7.664e-11
  4.08509   -144.1 9.089e+03 7.821e-11
  4.12064   -143.8 9.382e+03 1.145e-10
  4.14154   -144.0 9.508e+03 1.289e-10
  4.16868   -143.5 9.733e+03 2.137e-10
  4.21047   -143.0 9.962e+03 3.096e-10
  4.23749   -142.6 1.014e+04 3.623e-10
  4.24542   -142.4 1.020e+04 3.840e-10
  4.26019   -142.7 1.012e+04 3.349e-10
  4.29406   -142.3 1.011e+04 3.306e-10
  4.33586   -141.4 9.990e+03 2.698e-10
  4.35795   -140.4 9.794e+03 1.923e-10
  4.37885   -140.2 9.719e+03 1.648e-10
  4.41945   -139.0 9.603e+03 1.230e-10
  4.45571   -137.9 9.537e+03 9.834e-11
  4.47661   -137.4 9.554e+03 9.269e-11
  4.50304   -136.2 9.529e+03 8.040e-11
  4.54484   -134.9 9.516e+03 7.375e-11
  4.57436   -133.5 9.506e+03 7.072e-11
  4.59526   -133.0 9.509e+03 6.534e-11
  4.62843   -131.6 9.495e+03 6.317e-11
  4.67022   -130.2 9.486e+03 6.228e-11
  4.69302   -128.9 9.487e+03 6.315e-11
  4.71392   -128.2 9.464e+03 5.585e-11
  4.75381   -126.8 9.428e+03 5.738e-11
  4.79078   -125.4 9.398e+03 6.326e-11
  4.81035   -124.6 9.406e+03 5.229e-11
  4.81518   -124.4 9.426e+03 5.468e-11
  4.83740   -123.1 9.423e+03 6.057e-11
  4.87920   -122.1 9.494e+03 7.504e-11
  4.90943   -121.2 9.602e+03 1.006e-10
  4.93033   -120.8 9.629e+03 8.709e-11
  4.96279   -120.1 9.744e+03 1.249e-10
  5.00458   -119.5 9.866e+03 1.678e-10
  5.02809   -119.1 9.933e+03 2.002e-10
  5.04898   -118.7 9.937e+03 1.835e-10
  5.08818   -118.4 9.945e+03 1.888e-10
  5.12584   -118.1 9.874e+03 1.839e-10
  5.14674   -117.7 9.842e+03 1.596e-10
  5.17177   -117.2 9.697e+03 1.226e-10
  5.21356   -116.8 9.563e+03 8.992e-11
  5.24450   -116.5 9.472e+03 7.155e-11
  5.26540   -116.3 9.497e+03 6.491e-11
  5.29715   -115.9 9.493e+03 6.182e-11
  5.33895   -115.7 9.533e+03 6.150e-11
  5.36315   -115.8 9.739e+03 7.552e-11
  5.37527   -115.8 9.749e+03 7.651e-11
  5.39286   -115.3 9.830e+03 8.139e-11
  5.42254   -115.4 9.936e+03 1.434e-10
  5.46091   -114.9 1.010e+04 2.353e-10
  5.48181   -114.8 1.008e+04 2.307e-10
  5.50613   -114.2 1.024e+04 2.972e-10
  5.54793   -113.6 1.031e+04 3.181e-10
  5.57956   -113.1 1.030e+04 3.177e-10
  5.60046   -112.9 1.022e+04 2.861e-10
  5.63152   -112.1 1.017e+04 2.704e-10
  5.67331   -111.2 1.016e+04 2.556e-10
  5.69822   -110.3 1.017e+04 2.523e-10
  5.71912   -110.4 1.026e+04 2.454e-10
  5.75690   -109.9 1.041e+04 2.704e-10
  5.79598   -109.7 1.065e+04 3.750e-10
  5.81687   -110.2 1.074e+04 4.022e-10
  5.84049   -110.0 1.108e+04 6.122e-10
  5.88229   -109.7 1.152e+04 9.078e-10
  5.91463   -109.7 1.193e+04 1.189e-09
  5.93553   -110.5 1.198e+04 1.086e-09
  5.94965   -110.8 1.222e+04 1.189e-09
  5.97055   -111.1 1.279e+04 1.579e-09
  6.00768   -111.6 1.279e+04 1.588e-09
  6.03329   -111.7 1.246e+04 1.337e-09
  6.04364   -112.0 1.236e+04 1.213e-09
  6.05972   -111.7 1.224e+04 1.104e-09
  6.08062   -111.5 1.203e+04 9.313e-10
  6.09242   -111.2 1.198e+04 8.505e-10
  6.10287   -111.3 1.197e+04 8.235e-10
  6.13095   -111.3 1.199e+04 7.123e-10
  6.15184   -111.0 1.207e+04 6.292e-10
  6.16421   -111.1 1.220e+04 5.701e-10
  6.18511   -112.1 1.303e+04 6.081e-10
  6.20063   -114.1 1.413e+04 8.167e-10
  6.21107   -115.6 1.478e+04 1.405e-09
  6.22691   -116.9 1.539e+04 2.525e-09
  6.23830   -117.7 1.577e+04 5.072e-09
  6.24875   -117.9 1.622e+04 9.161e-09
  6.25995   -117.3 1.642e+04 1.144e-08
  6.27040   -117.1 1.672e+04 1.317e-08
  6.28960   -116.9 1.671e+04 1.311e-08
  6.30883   -116.6 1.641e+04 1.087e-08
  6.31928   -116.8 1.638e+04 9.475e-09
  6.33139   -117.3 1.584e+04 5.718e-09
  6.35229   -118.9 1.521e+04 3.536e-09
  6.36816   -120.8 1.433e+04 2.572e-09
  6.37861   -121.9 1.373e+04 2.204e-09
  6.39409   -122.6 1.322e+04 2.104e-09
  6.41499   -122.6 1.300e+04 2.105e-09
  6.42749   -122.1 1.291e+04 2.090e-09
  6.43793   -122.2 1.286e+04 2.154e-09
  6.45678   -121.7 1.284e+04 2.068e-09
  6.47636   -121.3 1.280e+04 1.949e-09
  6.48681   -121.4 1.278e+04 1.983e-09
  6.49858   -121.1 1.268e+04 1.724e-09
  6.51669   -120.9 1.255e+04 1.419e-09
  6.52714   -121.8 1.242e+04 1.024e-09
  6.53569   -121.8 1.219e+04 7.919e-10
  6.54614   -121.7 1.214e+04 7.879e-10
  6.56127   -121.7 1.184e+04 5.953e-10
  6.58217   -121.7 1.153e+04 4.829e-10
  6.59502   -121.7 1.142e+04 4.571e-10
  6.60557   -121.7 1.147e+04 4.695e-10
  6.63461   -121.1 1.124e+04 4.042e-10
  6.67640   -120.0 1.122e+04 3.756e-10
  6.70342   -119.2 1.129e+04 3.759e-10
  6.72432   -118.7 1.126e+04 3.694e-10
  6.75999   -118.4 1.142e+04 4.296e-10
  6.80118   -118.1 1.157e+04 5.862e-10
  6.82208   -117.7 1.147e+04 5.161e-10
  6.84358   -117.3 1.157e+04 6.550e-10
  6.88538   -116.8 1.174e+04 8.135e-10
  6.91983   -116.3 1.191e+04 9.447e-10
  6.94073   -115.7 1.169e+04 8.026e-10
  6.96897   -115.3 1.182e+04 8.954e-10
  7.01077   -114.9 1.186e+04 9.155e-10
  7.03849   -114.4 1.169e+04 7.429e-10
  7.05939   -113.9 1.168e+04 7.718e-10
  7.08413   -113.2 1.147e+04 5.786e-10
  7.10503   -113.4 1.151e+04 6.058e-10
  7.13615   -112.6 1.131e+04 4.027e-10
  7.17795   -111.3 1.122e+04 3.097e-10
  7.21974   -110.4 1.110e+04 1.967e-10
  7.25490   -109.4 1.096e+04 1.418e-10
  7.27580   -108.9 1.108e+04 1.790e-10
  7.30333   -107.9 1.096e+04 1.413e-10
  7.34513   -106.9 1.089e+04 1.328e-10
  7.37356   -105.9 1.086e+04 1.389e-10
  7.39445   -105.7 1.093e+04 1.487e-10
  7.42872   -104.8 1.092e+04 1.767e-10
  7.47052   -103.9 1.096e+04 2.242e-10
  7.49221   -102.9 1.101e+04 2.688e-10
  7.51311   -103.1 1.113e+04 3.060e-10
  7.55411   -102.5 1.128e+04 3.794e-10
  7.58997   -102.1 1.149e+04 4.667e-10
  7.61086   -102.7 1.172e+04 6.476e-10
  7.63770   -102.6 1.190e+04 7.664e-10
  7.66181   -102.5 1.195e+04 8.053e-10
  7.68271   -103.6 1.236e+04 1.254e-09
  7.70862   -103.2 1.207e+04 9.675e-10
  7.72952   -103.3 1.197e+04 9.720e-10
  7.76308   -102.7 1.154e+04 5.972e-10
  7.80488   -102.4 1.127e+04 4.284e-10
  7.82728   -101.9 1.119e+04 3.938e-10
  7.84817   -101.5 1.119e+04 3.711e-10
  7.88847   -100.9 1.122e+04 3.785e-10
  7.92503   -100.4 1.131e+04 4.451e-10
  7.94593    -99.9 1.134e+04 4.493e-10
  7.97206    -99.4 1.141e+04 5.031e-10
  8.01386    -98.9 1.142e+04 5.089e-10
  8.04369    -98.6 1.141e+04 4.105e-10
  8.06459    -98.1 1.159e+04 5.420e-10
  8.09745    -98.2 1.157e+04 4.303e-10
  8.13924    -98.6 1.157e+04 4.013e-10
  8.16234    -99.1 1.157e+04 4.172e-10
  8.18324    -98.7 1.181e+04 6.609e-10
  8.21860    -98.9 1.182e+04 7.729e-10
  8.23950    -99.7 1.151e+04 5.113e-10
  8.26010    -99.6 1.152e+04 5.854e-10
  8.28100    -99.3 1.175e+04 7.949e-10
  8.30642    -99.5 1.161e+04 7.077e-10
  8.34822    -99.8 1.145e+04 5.297e-10
  8.37876   -100.3 1.136e+04 4.478e-10
  8.39965   -100.2 1.149e+04 5.195e-10
  8.43181   -100.5 1.147e+04 5.060e-10
  8.47361   -100.6 1.147e+04 5.442e-10
  8.49741   -100.5 1.150e+04 6.374e-10
  8.51831   -100.4 1.154e+04 6.613e-10
  8.55720   -100.2 1.159e+04 7.494e-10
  8.59517   -100.0 1.164e+04 8.143e-10
  8.61607    -99.8 1.164e+04 8.169e-10
  8.64079    -99.5 1.165e+04 8.325e-10
  8.68258    -98.9 1.143e+04 7.589e-10
  8.71382    -97.8 1.110e+04 5.240e-10
  8.73472    -97.3 1.115e+04 5.540e-10
  8.76617    -96.0 1.092e+04 3.480e-10
  8.79629    -94.8 1.088e+04 2.045e-10
  8.81719    -94.6 1.090e+04 1.717e-10
  8.83248    -93.7 1.091e+04 1.208e-10
  8.85338    -93.0 1.098e+04 1.548e-10
  8.89156    -92.1 1.095e+04 1.224e-10
  8.93024    -91.2 1.091e+04 1.091e-10
  8.95113    -90.5 1.097e+04 1.379e-10
  8.97515    -89.7 1.102e+04 1.289e-10
  9.01695    -89.0 1.096e+04 1.332e-10
  9.04889    -88.6 1.107e+04 1.721e-10
  9.06979    -88.2 1.116e+04 2.214e-10
  9.10054    -87.8 1.120e+04 2.712e-10
  9.14233    -87.6 1.125e+04 3.205e-10
  9.16755    -87.4 1.127e+04 3.641e-10
  9.18844    -87.0 1.132e+04 3.752e-10
  9.22592    -86.9 1.128e+04 3.805e-10
  9.26530    -86.6 1.121e+04 3.562e-10
  9.28620    -86.4 1.124e+04 3.567e-10
  9.30951    -86.0 1.118e+04 2.813e-10
  9.35131    -85.6 1.112e+04 2.331e-10
  9.37398    -85.1 1.110e+04 2.250e-10
  9.38572    -85.4 1.120e+04 3.488e-10
  9.40486    -85.0 1.115e+04 3.447e-10
  9.43490    -84.2 1.110e+04 3.815e-10
  9.47670    -83.1 1.105e+04 4.003e-10
  9.50261    -81.8 1.090e+04 3.767e-10
  9.52351    -81.2 1.094e+04 3.920e-10
  9.56029    -80.0 1.085e+04 3.211e-10
  9.60037    -79.0 1.076e+04 2.496e-10
  9.62127    -78.3 1.078e+04 2.552e-10
  9.64388    -77.3 1.071e+04 1.961e-10
  9.68567    -76.1 1.054e+04 1.554e-10
  9.71902    -74.6 1.035e+04 1.214e-10
  9.73992    -74.0 1.045e+04 1.266e-10
  9.76926    -72.3 1.033e+04 9.728e-11
  9.81106    -70.6 1.026e+04 7.169e-11
  9.83768    -69.1 1.019e+04 5.510e-11
  9.85858    -68.4 1.024e+04 6.219e-11
  9.89465    -66.9 1.013e+04 5.303e-11
  9.93076    -65.3 1.008e+04 5.078e-11
  9.95065    -65.1 1.008e+04 4.205e-11
  9.95633    -64.5 1.021e+04 4.242e-11
  9.97824    -62.7 1.022e+04 4.240e-11
 10.02004    -61.2 1.031e+04 4.780e-11
 10.05409    -59.7 1.035e+04 5.976e-11
 10.07499    -59.1 1.044e+04 6.047e-11
 10.10363    -57.6 1.049e+04 8.119e-11
 10.14542    -56.1 1.054e+04 1.094e-10
 10.17275    -54.6 1.063e+04 1.383e-10
 10.19364    -53.9 1.065e+04 1.497e-10
 10.22901    -52.4 1.085e+04 1.790e-10
 10.27050    -51.4 1.105e+04 1.914e-10
 10.29140    -50.6 1.103e+04 2.255e-10
 10.31260    -50.0 1.118e+04 2.338e-10
 10.35440    -49.4 1.122e+04 2.400e-10
 10.38916    -48.8 1.125e+04 2.437e-10
 10.41006    -48.0 1.129e+04 2.665e-10
 10.43799    -47.7 1.144e+04 2.624e-10
 10.47979    -47.8 1.139e+04 3.191e-10
 10.50781    -47.5 1.119e+04 4.378e-10
 10.51558    -46.5 1.117e+04 4.275e-10
 10.52935    -46.4 1.130e+04 8.416e-10
 10.56338    -45.1 1.119e+04 8.401e-10
 10.60517    -43.5 1.106e+04 5.510e-10
 10.62647    -42.9 1.118e+04 3.262e-10
 10.64737    -42.1 1.115e+04 2.984e-10
 10.68876    -42.4 1.112e+04 2.455e-10
 10.72423    -42.1 1.098e+04 2.577e-10
 10.74512    -41.5 1.104e+04 2.961e-10
 10.77235    -40.7 1.093e+04 3.905e-10
 10.81415    -39.5 1.097e+04 4.225e-10
 10.84288    -38.7 1.098e+04 3.810e-10
 10.86378    -37.8 1.110e+04 4.858e-10
 10.89774    -37.3 1.094e+04 3.848e-10
 10.93954    -36.4 1.075e+04 3.416e-10
 10.96154    -34.8 1.065e+04 2.936e-10
 10.98243    -34.2 1.062e+04 2.974e-10
 11.02313    -32.5 1.068e+04 2.322e-10
 11.05929    -31.7 1.080e+04 1.837e-10
 11.08019    -30.8 1.072e+04 1.808e-10
 11.08614    -29.9 1.071e+04 1.733e-10
 11.10703    -29.8 1.058e+04 1.770e-10
 11.14851    -28.5 1.046e+04 1.895e-10
 11.17795    -27.0 1.040e+04 2.021e-10
 11.19885    -26.3 1.041e+04 1.853e-10
 11.23210    -24.6 1.033e+04 1.770e-10
 11.27390    -22.4 1.029e+04 1.346e-10
 11.29660    -20.4 1.046e+04 8.346e-11
 11.31750    -19.7 1.039e+04 9.005e-11
 11.35749    -18.3 1.055e+04 5.997e-11
 11.39436    -17.0 1.049e+04 4.670e-11
 11.41526    -16.0 1.041e+04 5.611e-11
 11.44108    -14.4 1.036e+04 4.946e-11
 11.48288    -12.4 1.030e+04 4.939e-11
 11.51301    -10.4 1.029e+04 5.153e-11
 11.53391     -9.7 1.035e+04 6.027e-11
 11.56647     -7.9 1.036e+04 6.740e-11
 11.60826     -6.1 1.033e+04 8.102e-11
 11.63167     -4.1 1.027e+04 1.003e-10
 11.64543     -3.5 1.022e+04 1.492e-10
 11.66382     -3.3 1.021e+04 1.125e-10
 11.69185     -1.2 1.016e+04 1.369e-10
 11.72943      1.0 1.021e+04 1.557e-10
 11.75032      1.8 1.025e+04 1.910e-10
 11.77544      3.7 1.035e+04 1.922e-10
 11.81724      5.6 1.039e+04 1.826e-10
 11.84808      7.2 1.042e+04 1.584e-10
 11.86898      7.8 1.050e+04 1.745e-10
 11.90083      9.1 1.045e+04 1.562e-10
 11.94263     10.3 1.048e+04 1.583e-10
 11.96674     11.2 1.059e+04 1.839e-10
 11.98763     11.0 1.075e+04 2.290e-10
 12.02622     11.8 1.090e+04 3.924e-10
 12.06449     12.8 1.129e+04 7.583e-10
 12.08539     12.7 1.146e+04 8.712e-10
 12.10981     13.6 1.193e+04 1.370e-09
 12.15160     14.0 1.220e+04 1.542e-09
 12.18315     14.4 1.203e+04 1.360e-09
 12.20405     14.0 1.154e+04 8.999e-10
 12.22061     14.4 1.123e+04 6.393e-10
 12.24151     15.0 1.137e+04 6.452e-10
 12.27699     14.9 1.096e+04 3.638e-10
 12.30180     14.9 1.075e+04 2.763e-10
 12.32270     15.2 1.053e+04 3.464e-10
 12.36058     16.2 1.056e+04 3.565e-10
 12.39956     17.3 1.064e+04 3.552e-10
 12.42046     17.8 1.075e+04 4.980e-10
 12.44417     18.8 1.078e+04 4.855e-10
 12.48597     19.6 1.080e+04 4.508e-10
 12.51822     20.4 1.079e+04 4.076e-10
 12.53911     20.9 1.089e+04 5.498e-10
 12.56956     21.5 1.087e+04 4.509e-10
 12.61135     21.8 1.081e+04 3.850e-10
 12.63687     22.2 1.076e+04 3.789e-10
 12.65777     22.2 1.089e+04 4.354e-10
 12.69494     22.5 1.087e+04 4.586e-10
 12.73463     22.9 1.090e+04 5.567e-10
 12.75553     23.1 1.103e+04 6.339e-10
 12.77740     23.7 1.118e+04 7.514e-10
 12.79830     23.7 1.103e+04 6.005e-10
 12.82033     23.9 1.124e+04 7.093e-10
 12.85328     23.9 1.135e+04 7.428e-10
 12.87418     23.9 1.132e+04 7.303e-10
 12.90392     24.0 1.124e+04 6.832e-10
 12.94572     24.3 1.104e+04 5.342e-10
 12.97194     24.6 1.082e+04 3.655e-10
 12.99284     24.4 1.081e+04 3.668e-10
 13.02931     24.6 1.060e+04 2.735e-10
 13.06969     25.1 1.043e+04 2.253e-10
 13.09059     25.4 1.044e+04 2.326e-10
 13.11290     26.2 1.035e+04 1.857e-10
 13.15469     27.2 1.044e+04 1.604e-10
 13.18835     28.0 1.052e+04 1.621e-10
 13.20925     27.5 1.061e+04 1.616e-10
 13.23828     27.7 1.080e+04 2.205e-10
 13.28008     28.0 1.093e+04 3.762e-10
 13.30700     28.5 1.108e+04 5.941e-10
 13.32790     28.2 1.120e+04 6.980e-10
 13.35509     28.0 1.126e+04 7.248e-10
 13.37598     28.4 1.116e+04 6.964e-10
 13.40476     28.0 1.115e+04 6.475e-10
 13.42566     27.2 1.116e+04 5.843e-10
 13.44726     26.6 1.106e+04 5.290e-10
 13.48906     26.3 1.104e+04 5.385e-10
 13.52342     26.1 1.112e+04 6.356e-10
 13.54431     25.8 1.115e+04 6.810e-10
 13.57265     25.8 1.162e+04 1.075e-09
 13.61444     26.1 1.225e+04 1.755e-09
 13.64207     26.1 1.269e+04 2.276e-09
 13.66297     25.7 1.271e+04 2.329e-09
 13.69803     25.4 1.266e+04 2.203e-09
 13.73983     25.3 1.233e+04 1.672e-09
 13.78162     24.8 1.172e+04 9.400e-10
 13.82342     23.9 1.149e+04 7.298e-10
 13.85848     23.2 1.148e+04 7.325e-10
 13.87938     23.5 1.146e+04 7.234e-10
 13.90701     23.0 1.155e+04 7.501e-10
 13.93277     22.3 1.157e+04 7.327e-10
 13.95367     23.3 1.174e+04 8.083e-10
 13.97714     22.3 1.167e+04 7.303e-10
 13.99804     22.4 1.165e+04 7.235e-10
 14.03240     21.1 1.165e+04 7.397e-10
 14.07419     19.8 1.169e+04 8.363e-10
 14.09579     19.3 1.163e+04 8.360e-10
 14.11669     19.4 1.186e+04 1.045e-09
 14.15778     19.6 1.166e+04 9.251e-10
 14.19355     20.2 1.129e+04 6.126e-10
 14.21445     20.4 1.134e+04 6.545e-10
 14.24138     21.1 1.099e+04 3.616e-10
 14.28317     21.6 1.078e+04 2.018e-10
 14.31221     22.1 1.068e+04 1.336e-10
 14.33310     22.5 1.061e+04 1.477e-10
 14.36676     23.4 1.052e+04 1.270e-10
 14.40856     24.8 1.047e+04 1.170e-10
 14.43086     26.2 1.047e+04 1.066e-10
 14.45176     26.8 1.050e+04 1.260e-10
 14.48956     28.0 1.056e+04 1.103e-10
 14.51046     28.4 1.052e+04 1.329e-10
 14.52862     29.5 1.055e+04 1.168e-10
 14.54952     30.0 1.058e+04 1.390e-10
 14.57574     31.0 1.056e+04 1.252e-10
 14.61753     31.9 1.051e+04 1.212e-10
 14.64727     33.0 1.047e+04 1.189e-10
 14.66817     33.5 1.052e+04 1.280e-10
 14.70113     34.7 1.046e+04 1.206e-10
 14.74292     35.9 1.044e+04 1.101e-10
 14.76593     37.1 1.044e+04 9.829e-11
 14.78683     37.7 1.047e+04 1.056e-10
 14.82651     38.8 1.046e+04 1.007e-10
 14.86368     40.0 1.047e+04 1.008e-10
 14.88458     40.6 1.051e+04 1.057e-10
 14.91010     41.8 1.050e+04 1.086e-10
 14.95190     43.2 1.051e+04 1.130e-10
 14.98234     44.6 1.050e+04 1.124e-10
 15.00324     45.1 1.052e+04 1.109e-10
 15.03549     46.7 1.049e+04 1.016e-10
 15.06725     48.4 1.048e+04 8.658e-11
 15.08815     48.7 1.044e+04 1.062e-10
 15.10099     50.1 1.046e+04 8.261e-11
 15.12189     50.6 1.053e+04 7.728e-11
 15.16087     52.0 1.046e+04 6.894e-11
 15.19875     53.6 1.047e+04 6.944e-11
 15.21965     53.9 1.064e+04 7.617e-11
 15.24447     55.2 1.067e+04 9.015e-11
 15.28626     56.6 1.071e+04 1.230e-10
 15.31741     58.4 1.077e+04 1.781e-10
 15.33830     59.0 1.090e+04 2.513e-10
 15.36985     60.8 1.104e+04 3.069e-10
 15.41165     62.1 1.113e+04 3.169e-10
 15.43606     63.3 1.112e+04 3.086e-10
 15.45696     63.5 1.121e+04 3.537e-10
 15.49524     64.5 1.115e+04 3.154e-10
 15.53382     65.6 1.105e+04 2.877e-10
 15.55472     66.0 1.116e+04 3.362e-10
 15.57883     67.4 1.108e+04 3.252e-10
 15.62062     69.0 1.107e+04 3.258e-10
 15.64493     70.7 1.107e+04 3.301e-10
 15.65589     70.7 1.101e+04 3.238e-10
 15.67337     71.1 1.103e+04 3.257e-10
 15.70422     72.8 1.101e+04 3.230e-10
 15.74601     74.4 1.102e+04 3.167e-10
 15.77113     75.9 1.103e+04 3.057e-10
 15.79203     76.2 1.107e+04 2.895e-10
 15.82960     77.7 1.111e+04 2.977e-10
 15.86889     79.0 1.112e+04 3.223e-10
 15.88978     79.3 1.118e+04 3.126e-10
 15.91319     80.5 1.121e+04 3.896e-10
 15.95499     81.6 1.135e+04 5.383e-10
 15.98754     82.7 1.160e+04 7.727e-10
 16.00844     82.8 1.165e+04 7.351e-10
 16.03858     83.5 1.187e+04 9.381e-10
 16.08037     83.8 1.200e+04 9.798e-10
 16.10620     83.9 1.199e+04 9.570e-10
 16.12709     83.3 1.202e+04 9.439e-10
 16.16397     83.2 1.198e+04 8.741e-10
 16.20172     83.0 1.190e+04 7.717e-10
 16.22081     83.7 1.172e+04 6.528e-10
 16.22485     83.1 1.176e+04 6.998e-10
 16.24756     83.2 1.172e+04 6.688e-10
 16.28935     83.6 1.166e+04 6.409e-10
 16.32261     84.4 1.157e+04 5.808e-10
 16.34351     84.0 1.153e+04 4.909e-10
 16.37294     84.9 1.135e+04 3.731e-10
 16.41474     85.8 1.116e+04 2.724e-10
 16.44126     86.7 1.098e+04 2.058e-10
 16.46216     86.5 1.088e+04 1.958e-10
 16.49833     87.7 1.079e+04 1.648e-10
 16.53902     89.1 1.074e+04 1.448e-10
 16.55992     89.5 1.074e+04 1.483e-10
 16.58192     90.9 1.076e+04 1.300e-10
 16.62371     92.2 1.077e+04 1.188e-10
 16.65767     93.7 1.078e+04 1.169e-10
 16.67857     94.1 1.080e+04 1.321e-10
 16.70731     95.6 1.080e+04 1.330e-10
 16.74910     97.2 1.081e+04 1.373e-10
 16.77633     98.8 1.083e+04 1.525e-10
 16.78574     99.5 1.082e+04 1.759e-10
 16.80031    100.0 1.086e+04 1.886e-10
 16.83269    101.6 1.090e+04 2.154e-10
 16.87409    103.1 1.099e+04 2.765e-10
 16.89498    103.7 1.098e+04 2.696e-10
 16.91628    105.1 1.115e+04 3.756e-10
 16.95808    106.3 1.137e+04 5.374e-10
 16.99274    107.5 1.159e+04 7.265e-10
 17.01364    108.0 1.154e+04 7.145e-10
 17.04167    109.2 1.171e+04 8.935e-10
 17.08346    110.2 1.180e+04 9.501e-10
 17.11140    111.2 1.180e+04 9.442e-10
 17.13229    112.1 1.178e+04 9.644e-10
 17.16706    113.2 1.174e+04 9.397e-10
 17.20885    114.5 1.165e+04 8.746e-10
 17.23005    115.9 1.155e+04 7.967e-10
 17.25095    117.2 1.149e+04 7.922e-10
 17.29244    118.6 1.153e+04 7.766e-10
 17.32781    119.9 1.158e+04 7.820e-10
 17.34871    121.2 1.164e+04 8.544e-10
 17.35710    122.4 1.178e+04 9.540e-10
 17.37799    122.8 1.168e+04 8.537e-10
 17.41783    124.0 1.186e+04 9.327e-10
 17.44646    124.8 1.210e+04 1.045e-09
 17.45682    125.1 1.241e+04 1.433e-09
 17.46988    125.4 1.252e+04 1.525e-09
 17.50132    126.1 1.270e+04 1.618e-09
 17.54321    126.2 1.300e+04 1.678e-09
 17.56512    125.9 1.308e+04 1.647e-09
 17.57547    125.2 1.379e+04 2.192e-09
 17.59526    124.8 1.385e+04 2.160e-09
 17.61380    124.5 1.389e+04 2.073e-09
 17.62425    124.0 1.424e+04 2.652e-09
 17.63529    123.7 1.412e+04 2.435e-09
 17.64574    124.8 1.375e+04 1.701e-09
 17.65796    124.6 1.359e+04 1.566e-09
 17.67313    124.6 1.343e+04 1.458e-09
 17.68358    124.0 1.360e+04 1.845e-09
 17.69975    124.1 1.341e+04 1.738e-09
 17.72065    124.2 1.322e+04 1.659e-09
 17.73246    124.4 1.304e+04 1.624e-09
 17.74291    124.4 1.322e+04 2.076e-09
 17.76245    124.8 1.317e+04 2.064e-09
 17.78134    125.1 1.317e+04 2.079e-09
 17.79178    125.2 1.350e+04 2.511e-09
 17.80424    125.5 1.359e+04 2.589e-09
 17.82514    125.6 1.376e+04 2.746e-09
 17.84066    125.6 1.395e+04 2.926e-09
 17.85111    125.4 1.439e+04 3.650e-09
 17.86693    125.2 1.457e+04 3.920e-09
 17.88783    124.9 1.471e+04 4.106e-09
 17.89999    124.4 1.477e+04 4.181e-09
 17.91044    123.8 1.542e+04 5.743e-09
 17.92414    123.3 1.554e+04 6.079e-09
 17.93459    123.8 1.565e+04 6.101e-09
 17.94887    123.3 1.547e+04 5.815e-09
 17.95932    122.5 1.648e+04 8.333e-09
 17.97142    121.8 1.616e+04 7.532e-09
 17.99232    121.1 1.572e+04 6.538e-09
 18.00820    120.5 1.518e+04 5.522e-09
 18.01865    119.9 1.565e+04 6.129e-09
 18.03412    119.2 1.505e+04 4.618e-09
 18.05501    118.2 1.450e+04 3.653e-09
 18.06752    116.8 1.409e+04 3.347e-09
 18.07797    115.7 1.429e+04 3.469e-09
 18.09681    114.4 1.426e+04 3.473e-09
 18.11640    113.3 1.418e+04 3.639e-09
 18.12685    112.3 1.441e+04 4.247e-09
 18.13860    111.6 1.423e+04 4.388e-09
 18.15950    111.0 1.410e+04 4.310e-09
 18.17573    110.8 1.380e+04 4.007e-09
 18.18618    110.7 1.373e+04 3.915e-09
 18.20130    110.5 1.328e+04 3.022e-09
 18.21298    110.2 1.291e+04 2.399e-09
 18.22343    109.9 1.292e+04 2.384e-09
 18.23516    110.1 1.252e+04 1.830e-09
 18.25615    109.1 1.210e+04 1.245e-09
 18.29553    108.9 1.146e+04 7.178e-10
 18.33301    108.9 1.089e+04 4.411e-10
 18.35391    108.1 1.063e+04 4.502e-10
 18.37912    109.5 1.060e+04 4.507e-10
 18.42092    111.3 1.058e+04 4.714e-10
 18.45166    113.3 1.063e+04 5.457e-10
 18.47256    113.0 1.086e+04 6.211e-10
 18.49157    114.7 1.100e+04 7.085e-10
 18.51247    114.5 1.076e+04 5.574e-10
 18.54630    116.1 1.091e+04 6.131e-10
 18.57032    117.4 1.092e+04 6.079e-10
 18.59122    116.3 1.082e+04 5.453e-10
 18.62990    117.6 1.074e+04 4.911e-10
 18.66808    119.0 1.060e+04 4.117e-10
 18.68897    118.3 1.049e+04 3.727e-10
 18.71349    119.7 1.034e+04 3.072e-10
 18.75528    121.3 1.022e+04 2.585e-10
 18.78673    123.0 1.011e+04 2.288e-10
 18.80763    122.6 1.005e+04 2.196e-10
 18.83887    124.4 1.003e+04 2.198e-10
 18.88067    126.3 1.002e+04 2.235e-10
 18.90539    128.1 1.003e+04 2.309e-10
 18.92628    128.1 1.011e+04 2.516e-10
 18.96426    129.9 1.012e+04 2.566e-10
 19.00314    131.6 1.011e+04 2.537e-10
 19.02404    131.5 1.016e+04 2.565e-10
 19.04785    133.3 1.011e+04 2.363e-10
 19.06926    135.1 1.003e+04 2.176e-10
 19.09015    135.3 9.924e+03 2.030e-10
 19.12180    137.2 9.878e+03 1.931e-10
 19.14270    137.3 9.839e+03 1.759e-10
 19.17324    139.3 9.844e+03 1.780e-10
 19.21503    141.2 9.873e+03 1.906e-10
 19.24045    143.1 9.985e+03 2.336e-10
 19.26135    143.2 9.947e+03 2.240e-10
 19.29862    145.1 1.015e+04 2.947e-10
 19.33821    146.8 1.041e+04 3.946e-10
 19.35911    147.0 1.037e+04 3.553e-10
 19.38221    148.4 1.068e+04 4.527e-10
 19.42401    149.4 1.094e+04 5.463e-10
 19.45687    150.3 1.129e+04 6.773e-10
 19.47767    150.4 1.120e+04 6.479e-10
 19.49696    150.9 1.138e+04 7.434e-10
 19.51600    151.3 1.157e+04 8.291e-10
 19.52645    151.6 1.153e+04 8.306e-10
 19.53875    151.8 1.174e+04 9.344e-10
 19.55965    152.0 1.190e+04 1.029e-09
 19.57533    152.1 1.204e+04 1.127e-09
 19.58577    152.6 1.206e+04 1.214e-09
 19.60144    152.9 1.222e+04 1.335e-09
 19.62234    153.0 1.242e+04 1.453e-09
 19.63465    153.2 1.263e+04 1.551e-09
 19.63816    153.7 1.272e+04 1.583e-09
 19.64675    154.3 1.293e+04 1.945e-09
 19.66414    154.4 1.323e+04 2.002e-09
 19.68353    154.3 1.333e+04 1.990e-09
 19.69398    154.5 1.329e+04 1.947e-09
 19.71648    154.7 1.347e+04 2.102e-09
 19.75837    154.9 1.337e+04 1.804e-09
 19.79193    155.4 1.308e+04 1.313e-09
 19.81283    156.1 1.288e+04 1.148e-09
 19.84196    156.9 1.251e+04 7.076e-10
 19.88376    157.8 1.216e+04 4.243e-10
 19.91059    158.8 1.175e+04 2.966e-10
 19.93149    159.9 1.167e+04 2.639e-10
 19.96735    161.3 1.143e+04 2.344e-10
 20.00835    163.1 1.138e+04 2.312e-10
 20.02924    164.2 1.136e+04 2.143e-10
 20.05094    166.1 1.132e+04 2.072e-10
 20.09274    168.1 1.129e+04 2.051e-10
 20.12700    170.2 1.127e+04 2.098e-10
 20.14790    171.2 1.124e+04 1.755e-10
 20.17633    173.2 1.121e+04 1.747e-10
 20.20373    175.3 1.121e+04 1.788e-10
 20.22463    175.4 1.123e+04 1.927e-10
 20.24566    177.3 1.128e+04 2.090e-10
 20.26655    178.4 1.119e+04 1.742e-10
 20.30171    180.3 1.121e+04 1.856e-10
 20.34341    182.1 1.127e+04 2.090e-10
 20.38521    184.9 1.129e+04 2.256e-10
 20.42710    186.6 1.140e+04 2.700e-10
 20.46207    188.4 1.154e+04 3.270e-10
 20.48296    189.1 1.161e+04 3.469e-10
 20.51069    190.5 1.176e+04 4.362e-10
 20.55249    191.7 1.189e+04 5.317e-10
 20.58072    192.9 1.202e+04 6.275e-10
 20.60162    194.1 1.217e+04 7.886e-10
 20.63608    195.2 1.225e+04 8.697e-10
 20.67787    196.0 1.225e+04 8.697e-10
 20.69938    197.0 1.220e+04 8.421e-10
 20.72027    197.8 1.228e+04 8.741e-10
 20.74816    198.2 1.221e+04 8.400e-10
 20.75851    198.2 1.220e+04 8.358e-10
 20.77077    198.6 1.215e+04 8.041e-10
 20.78122    198.7 1.226e+04 8.482e-10
 20.79261    199.2 1.222e+04 8.253e-10
 20.80739    199.7 1.219e+04 8.065e-10
 20.81784    200.1 1.227e+04 7.942e-10
 20.83441    200.6 1.225e+04 7.793e-10
 20.85531    201.0 1.223e+04 7.701e-10
 20.86672    201.4 1.222e+04 7.642e-10
 20.87716    201.5 1.220e+04 7.449e-10
 20.89710    201.9 1.218e+04 7.366e-10
 20.91559    202.3 1.214e+04 7.301e-10
 20.92604    202.4 1.214e+04 7.240e-10
 20.93890    202.8 1.207e+04 7.195e-10
 20.95980    203.1 1.200e+04 7.143e-10
 20.97492    203.5 1.193e+04 7.046e-10
 20.98537    203.5 1.194e+04 7.084e-10
 21.00159    203.8 1.186e+04 6.919e-10
 21.02249    204.2 1.178e+04 6.679e-10
 21.03425    204.6 1.166e+04 6.176e-10
 21.04470    204.4 1.171e+04 6.273e-10
 21.05962    204.7 1.158e+04 5.812e-10
 21.07007    205.1 1.177e+04 6.460e-10
 21.09573    205.8 1.149e+04 5.134e-10
 21.13220    207.0 1.123e+04 3.926e-10
 21.15310    206.6 1.128e+04 3.703e-10
 21.17942    207.7 1.097e+04 2.802e-10
 21.22121    209.1 1.063e+04 2.358e-10
 21.25086    210.6 1.050e+04 2.313e-10
 21.27175    210.1 1.062e+04 2.672e-10
 21.30480    211.8 1.047e+04 2.557e-10
 21.33821    213.6 1.040e+04 2.488e-10
 21.35910    213.8 1.080e+04 3.263e-10
 21.36951    215.5 1.073e+04 3.217e-10
 21.39041    215.5 1.073e+04 3.341e-10
 21.43019    217.3 1.061e+04 3.225e-10
 21.46727    219.1 1.050e+04 3.145e-10
 21.48817    219.3 1.046e+04 3.155e-10
 21.51378    221.1 1.042e+04 3.119e-10
 21.55558    222.9 1.041e+04 3.086e-10
 21.58592    224.4 1.041e+04 3.026e-10
 21.60682    224.7 1.049e+04 3.385e-10
 21.63917    226.2 1.048e+04 3.307e-10
 21.68096    227.7 1.045e+04 3.049e-10
 21.70458    229.2 1.036e+04 2.632e-10
 21.72548    229.8 1.054e+04 3.335e-10
 21.76455    231.3 1.037e+04 2.765e-10
 21.80234    232.7 1.021e+04 2.292e-10
 21.82323    233.2 1.055e+04 3.225e-10
 21.84814    234.6 1.048e+04 3.000e-10
 21.88994    236.0 1.048e+04 2.993e-10
 21.91589    237.4 1.052e+04 3.031e-10
 21.92595    236.8 1.076e+04 3.717e-10
 21.93124    237.6 1.102e+04 4.610e-10
 21.94199    238.2 1.105e+04 4.672e-10
 21.96289    238.9 1.109e+04 4.780e-10
 21.98012    239.5 1.114e+04 4.911e-10
 21.99057    239.7 1.115e+04 5.199e-10
 22.00468    240.3 1.120e+04 5.389e-10
 22.02558    240.8 1.125e+04 5.565e-10
 22.03945    241.1 1.130e+04 5.738e-10
 22.04990    241.8 1.154e+04 6.428e-10
 22.06737    241.9 1.162e+04 6.689e-10
 22.08827    241.9 1.169e+04 6.967e-10
 22.10917    241.9 1.196e+04 8.005e-10
 22.13007    241.7 1.206e+04 8.642e-10
 22.14766    241.3 1.217e+04 9.424e-10
 22.15810    241.2 1.248e+04 1.079e-09
 22.17186    240.6 1.262e+04 1.196e-09
 22.19276    239.9 1.274e+04 1.320e-09
 22.20454    239.2 1.284e+04 1.440e-09
 22.20831    237.6 1.286e+04 1.505e-09
 22.21743    237.1 1.286e+04 1.556e-09
 22.23456    236.4 1.283e+04 1.553e-09
 22.25545    235.7 1.273e+04 1.512e-09
 22.26631    234.9 1.263e+04 1.435e-09
 22.27676    234.3 1.236e+04 1.247e-09
 22.29725    233.1 1.223e+04 1.152e-09
 22.31519    231.8 1.214e+04 1.088e-09
 22.32564    230.7 1.192e+04 9.870e-10
 22.33904    229.1 1.190e+04 9.763e-10
 22.35994    227.5 1.185e+04 9.629e-10
 22.37452    225.8 1.175e+04 9.335e-10
 22.38497    224.8 1.179e+04 9.364e-10
 22.40174    223.4 1.160e+04 8.871e-10
 22.42264    222.1 1.135e+04 8.102e-10
 22.43384    221.0 1.106e+04 7.147e-10
 22.44429    220.5 1.103e+04 7.099e-10
 22.46443    219.5 1.071e+04 5.995e-10
 22.48272    218.4 1.041e+04 5.011e-10
 22.49078    214.9 1.320e+04 6.119e-10
 22.49338    210.5 1.586e+04 8.464e-10
 22.50623    208.1 1.566e+04 1.066e-09
 22.52712    206.7 1.508e+04 1.316e-09
 22.54205    206.1 1.452e+04 1.562e-09
 22.55250    203.9 1.493e+04 3.667e-09
 22.56892    204.2 1.429e+04 3.407e-09
 22.58982    204.9 1.381e+04 3.067e-09
 22.60138    205.7 1.346e+04 2.670e-09
 22.61183    205.0 1.362e+04 2.873e-09
 22.63161    205.6 1.329e+04 2.310e-09
 22.65026    206.1 1.297e+04 1.788e-09
 22.66071    204.5 1.250e+04 1.212e-09
 22.67341    204.7 1.183e+04 9.274e-10
 22.69431    205.1 1.125e+04 7.593e-10
 22.70958    205.7 1.084e+04 6.643e-10
 22.72003    204.7 1.029e+04 5.774e-10
 22.73610    205.8 1.030e+04 6.004e-10
 22.75700    206.9 1.036e+04 6.349e-10
 22.76891    208.0 1.047e+04 6.797e-10
 22.77324    208.0 1.036e+04 6.682e-10
 22.78223    207.7 1.022e+04 5.984e-10
 22.79879    208.9 1.036e+04 6.974e-10
 22.81779    210.0 1.055e+04 8.117e-10
 22.82824    210.0 1.044e+04 7.441e-10
 22.84059    211.2 1.071e+04 9.295e-10
 22.86149    212.4 1.102e+04 1.132e-09
 22.87712    213.5 1.132e+04 1.351e-09
 22.88757    213.6 1.121e+04 1.293e-09
 22.90328    214.7 1.159e+04 1.593e-09
 22.92418    215.8 1.191e+04 1.883e-09
 22.93644    216.9 1.217e+04 2.145e-09
 22.94689    217.1 1.205e+04 2.047e-09
 22.96598    218.1 1.236e+04 2.356e-09
 22.98532    219.1 1.264e+04 2.633e-09
 22.99577    219.2 1.240e+04 2.273e-09
 23.00777    220.0 1.281e+04 2.650e-09
 23.02867    220.2 1.329e+04 3.125e-09
 23.04465    219.9 1.388e+04 3.843e-09
 23.05510    219.3 1.345e+04 3.086e-09
 23.06062    218.9 1.424e+04 4.106e-09
 23.07107    217.9 1.410e+04 3.846e-09
 23.09136    217.0 1.497e+04 4.850e-09
 23.10398    215.2 1.585e+04 5.206e-09
 23.11443    214.2 1.509e+04 4.115e-09
 23.13316    210.9 1.517e+04 4.034e-09
 23.15286    206.8 1.532e+04 3.522e-09
 23.16331    206.6 1.462e+04 2.940e-09
 23.17495    202.4 1.446e+04 2.211e-09
 23.19585    197.8 1.390e+04 1.539e-09
 23.21218    193.3 1.282e+04 1.217e-09
 23.22263    195.3 1.275e+04 1.127e-09
 23.23765    192.0 1.191e+04 1.074e-09
 23.25854    189.8 1.186e+04 1.081e-09
 23.27151    188.2 1.188e+04 1.137e-09
 23.28196    190.4 1.160e+04 1.004e-09
 23.30034    189.1 1.172e+04 1.121e-09
 23.32039    187.9 1.221e+04 1.497e-09
 23.33084    189.9 1.175e+04 1.189e-09
 23.33902    188.8 1.242e+04 1.703e-09
 23.34946    189.2 1.259e+04 1.687e-09
 23.36303    188.1 1.349e+04 2.701e-09
 23.37972    187.0 1.436e+04 4.152e-09
 23.39017    188.8 1.386e+04 3.122e-09
 23.40483    187.3 1.484e+04 4.803e-09
 23.42573    185.7 1.566e+04 6.759e-09
 23.43905    184.0 1.632e+04 8.608e-09
 23.44949    185.1 1.626e+04 8.243e-09
 23.46752    183.4 1.707e+04 1.112e-08
 23.48792    181.6 1.781e+04 1.308e-08
 23.49837    183.0 1.792e+04 1.352e-08
 23.50932    180.7 1.828e+04 1.388e-08
 23.53021    178.0 1.821e+04 1.321e-08
 23.54725    175.8 1.772e+04 1.088e-08
 23.55770    177.1 1.751e+04 9.969e-09
 23.57201    175.1 1.672e+04 7.144e-09
 23.59291    172.7 1.560e+04 4.684e-09
 23.60658    169.9 1.434e+04 3.122e-09
 23.61703    170.5 1.408e+04 2.785e-09
 23.62786    167.8 1.288e+04 2.026e-09
 23.63831    168.5 1.303e+04 2.089e-09
 23.65546    166.6 1.216e+04 1.695e-09
 23.66591    167.1 1.221e+04 1.722e-09
 23.67650    165.3 1.211e+04 1.717e-09
 23.69740    163.3 1.233e+04 1.802e-09
 23.71479    159.7 1.346e+04 2.283e-09
 23.72523    155.6 1.644e+04 4.570e-09
 23.73919    150.9 1.792e+04 7.692e-09
 23.76009    147.0 1.890e+04 1.093e-08
 23.77411    143.2 1.912e+04 1.110e-08
 23.78456    140.7 1.948e+04 1.235e-08
 23.80189    136.5 1.887e+04 8.065e-09
 23.82278    131.5 1.744e+04 3.792e-09
 23.83344    125.2 1.462e+04 1.364e-09
 23.84389    120.7 1.186e+04 7.583e-10
 23.86458    115.1 1.076e+04 4.289e-10
 23.88232    112.8 1.059e+04 4.102e-10
 23.89277    113.1 1.075e+04 4.572e-10
 23.90625    112.2 1.076e+04 4.613e-10
 23.91670    111.0 1.064e+04 4.579e-10
 23.92727    110.3 1.066e+04 4.817e-10
 23.94165    109.5 1.078e+04 5.464e-10
 23.95209    110.1 1.085e+04 6.135e-10
 23.96907    109.3 1.102e+04 7.140e-10
 23.98996    108.6 1.119e+04 8.315e-10
 24.00097    107.9 1.135e+04 9.561e-10
 24.01142    108.5 1.137e+04 9.980e-10
 24.03176    107.7 1.153e+04 1.095e-09
 24.04985    106.9 1.159e+04 1.104e-09
 24.06030    107.6 1.162e+04 1.125e-09
 24.07356    106.5 1.162e+04 1.093e-09
 24.09445    105.1 1.173e+04 1.032e-09
 24.10918    103.2 1.186e+04 1.040e-09
 24.11963    103.8 1.184e+04 1.041e-09
 24.13625     99.7 1.273e+04 1.205e-09
 24.15715     93.6 1.471e+04 2.072e-09
 24.16851     88.4 1.565e+04 3.835e-09
 24.17896     88.0 1.594e+04 4.810e-09
 24.19510     84.6 1.571e+04 5.438e-09
 24.20554     84.9 1.590e+04 4.928e-09
 24.21739     82.1 1.553e+04 4.539e-09
 24.22783     82.3 1.584e+04 5.909e-09
 24.24074     81.1 1.477e+04 3.792e-09
 24.26163     78.7 1.340e+04 1.613e-09
 24.27671     76.3 1.204e+04 8.335e-10
 24.28716     76.7 1.211e+04 8.629e-10
 24.31398     71.2 1.043e+04 4.581e-10
 24.35587     67.7 9.884e+03 3.941e-10
 24.38511     66.9 9.890e+03 3.964e-10
 24.40601     67.5 1.014e+04 4.215e-10
 24.43946     66.8 1.014e+04 3.994e-10
 24.48126     66.1 1.010e+04 3.552e-10
 24.50377     65.5 9.988e+03 2.809e-10
 24.52467     66.5 9.977e+03 2.540e-10
 24.56485     66.3 9.839e+03 1.773e-10
 24.60153     66.3 9.670e+03 1.442e-10
 24.62242     67.6 9.610e+03 1.373e-10
 24.64844     68.0 9.583e+03 1.395e-10
 24.69023     68.6 9.579e+03 1.553e-10
 24.72018     69.5 9.717e+03 1.940e-10
 24.74108     71.0 9.702e+03 1.899e-10
 24.76253     71.9 9.968e+03 2.304e-10
 24.78343     71.9 9.857e+03 2.224e-10
 24.81562     72.6 1.016e+04 2.493e-10
 24.83884     72.8 1.021e+04 2.438e-10
 24.85973     74.4 1.015e+04 2.529e-10
 24.89921     74.6 1.023e+04 2.267e-10
 24.93659     74.4 1.021e+04 2.009e-10
 24.95749     76.2 1.022e+04 2.245e-10
 24.98280     76.1 1.020e+04 2.024e-10
 25.02460     76.0 1.016e+04 2.033e-10
 25.05525     75.9 1.012e+04 2.058e-10
 25.07615     77.8 1.023e+04 2.050e-10
 25.10819     77.6 1.017e+04 1.927e-10
 25.14998     77.1 1.003e+04 1.748e-10
 25.17390     76.6 9.878e+03 1.721e-10
 25.19480     78.0 1.000e+04 1.941e-10
 25.23357     77.6 9.959e+03 1.991e-10
 25.27166     77.4 9.890e+03 2.169e-10
 25.29256     78.9 9.818e+03 2.876e-10
 25.31716     79.1 9.767e+03 2.925e-10
 25.34021     79.3 9.698e+03 2.887e-10
 25.36111     79.2 9.540e+03 2.639e-10
 25.39032     79.7 9.475e+03 2.581e-10
 25.41121     81.0 9.536e+03 2.837e-10
 25.44255     81.5 9.567e+03 2.913e-10
 25.48435     81.8 9.745e+03 3.475e-10
 25.50897     82.1 1.029e+04 5.567e-10
 25.52987     83.4 1.014e+04 4.902e-10
 25.56794     83.6 1.079e+04 8.456e-10
 25.60673     83.7 1.140e+04 1.232e-09
 25.62763     84.3 1.136e+04 1.163e-09
 25.65153     84.0 1.195e+04 1.597e-09
 25.69332     83.5 1.204e+04 1.602e-09
 25.72538     83.0 1.177e+04 1.372e-09
 25.74628     83.4 1.252e+04 2.123e-09
 25.77691     82.8 1.207e+04 1.622e-09
 25.81871     81.7 1.128e+04 1.173e-09
 25.84404     81.2 1.082e+04 1.054e-09
 25.86494     81.9 1.119e+04 1.322e-09
 25.89700     82.1 1.108e+04 1.315e-09
 25.91790     82.2 1.078e+04 1.140e-09
 25.94179     82.9 1.079e+04 1.153e-09
 25.96269     83.6 1.086e+04 1.145e-09
 25.98589     84.5 1.083e+04 1.128e-09
 26.02769     85.9 1.065e+04 1.005e-09
 26.06045     87.5 1.026e+04 7.456e-10
 26.08135     87.9 1.002e+04 5.299e-10
 26.11128     89.4 9.622e+03 3.605e-10
 26.15307     90.9 9.230e+03 2.338e-10
 26.17910     92.4 8.901e+03 1.570e-10
 26.20000     92.5 8.719e+03 1.588e-10
 26.23666     94.2 8.536e+03 1.153e-10
 26.27686     95.7 8.391e+03 8.227e-11
 26.29776     96.1 8.351e+03 9.250e-11
 26.32026     97.5 8.228e+03 6.711e-11
 26.36205     98.9 8.024e+03 5.791e-11
 26.39552    100.5 7.978e+03 5.794e-11
 26.41641    101.0 7.995e+03 7.452e-11
 26.44564    102.7 7.989e+03 7.554e-11
 26.47469    104.4 7.990e+03 8.144e-11
 26.49559    104.3 7.992e+03 7.101e-11
 26.51417    106.0 8.051e+03 8.904e-11
 26.53507    106.5 8.105e+03 1.003e-10
 26.57103    108.0 8.218e+03 1.255e-10
 26.61193    109.4 8.393e+03 1.630e-10
 26.63283    109.9 8.315e+03 1.520e-10
 26.65462    111.1 8.555e+03 1.993e-10
 26.69641    112.2 8.890e+03 2.618e-10
 26.73058    113.1 9.273e+03 3.332e-10
 26.75148    113.3 8.994e+03 2.648e-10
 26.78000    113.8 9.279e+03 3.232e-10
 26.82180    113.7 9.562e+03 3.921e-10
 26.84924    113.2 9.933e+03 5.082e-10
 26.87014    113.1 9.724e+03 4.542e-10
 26.90539    112.9 1.024e+04 6.350e-10
 26.94700    112.6 1.079e+04 8.185e-10
 26.98879    112.1 1.033e+04 5.193e-10
 27.03078    111.1 1.030e+04 4.807e-10
 27.05238    110.3 1.001e+04 3.738e-10
 27.06635    109.9 1.006e+04 3.946e-10
 27.08655    110.9 9.733e+03 3.168e-10
 27.11437    111.1 9.472e+03 2.609e-10
 27.15616    111.5 9.153e+03 2.023e-10
 27.18431    112.2 8.851e+03 1.671e-10
 27.20520    113.8 9.006e+03 2.024e-10
 27.23975    114.9 8.920e+03 1.983e-10
 27.28155    116.1 8.919e+03 2.035e-10
 27.30296    117.3 8.972e+03 2.291e-10
 27.32386    118.8 9.069e+03 2.507e-10
 27.36514    119.9 9.264e+03 3.115e-10
 27.40072    120.8 9.515e+03 3.797e-10
 27.42162    122.2 9.540e+03 3.945e-10
 27.44873    122.7 9.849e+03 4.682e-10
 27.49053    122.9 9.931e+03 4.696e-10
 27.51937    122.8 9.944e+03 4.452e-10
 27.54027    124.5 1.019e+04 5.513e-10
 27.57412    124.1 1.016e+04 4.851e-10
 27.60916    123.6 9.921e+03 3.422e-10
 27.63006    123.3 1.020e+04 4.305e-10
 27.63803    122.7 9.677e+03 2.278e-10
 27.65893    124.7 1.025e+04 3.898e-10
 27.69950    124.0 9.467e+03 1.778e-10
 27.73578    123.4 8.980e+03 1.316e-10
 27.75668    125.2 9.199e+03 1.652e-10
 27.78310    125.2 9.102e+03 1.590e-10
 27.82489    125.4 9.091e+03 1.665e-10
 27.85444    125.6 9.130e+03 2.010e-10
 27.87534    127.2 9.322e+03 2.432e-10
 27.90848    127.4 9.470e+03 3.057e-10
 27.95028    127.4 9.606e+03 3.651e-10
 27.97309    126.9 9.619e+03 3.716e-10
 27.99399    128.5 9.835e+03 4.247e-10
 28.03387    127.8 9.735e+03 3.998e-10
 28.07085    127.2 9.444e+03 3.262e-10
 28.09175    128.9 9.622e+03 3.688e-10
 28.11746    128.4 9.222e+03 2.835e-10
 28.15925    128.2 8.851e+03 2.200e-10
 28.18685    128.1 8.672e+03 1.913e-10
 28.19621    127.7 8.611e+03 1.892e-10
 28.21040    129.5 8.793e+03 2.387e-10
 28.24284    129.7 8.802e+03 2.368e-10
 28.28464    129.8 8.828e+03 2.399e-10
 28.30816    129.7 8.948e+03 2.623e-10
 28.32906    131.6 9.178e+03 3.331e-10
 28.36823    131.2 9.459e+03 3.954e-10
 28.40592    130.4 9.746e+03 4.505e-10
 28.42682    132.3 9.910e+03 5.006e-10
 28.45182    131.2 9.906e+03 4.847e-10
 28.49362    130.2 9.818e+03 4.081e-10
 28.52457    129.3 9.590e+03 2.760e-10
 28.54547    131.4 9.625e+03 2.888e-10
 28.57721    130.5 9.242e+03 1.746e-10
 28.61900    130.3 8.918e+03 1.487e-10
 28.64323    130.9 8.902e+03 1.505e-10
 28.66413    132.7 8.869e+03 1.347e-10
 28.70259    133.4 8.834e+03 1.414e-10
 28.74099    134.4 8.878e+03 1.530e-10
 28.76113    136.1 8.832e+03 1.327e-10
 28.76454    136.6 8.832e+03 1.418e-10
 28.78619    137.8 8.892e+03 1.568e-10
 28.82798    139.1 8.980e+03 1.599e-10
 28.85964    140.3 8.994e+03 1.545e-10
 28.88054    141.8 8.971e+03 1.422e-10
 28.91157    142.9 9.000e+03 1.317e-10
 28.95337    144.0 9.005e+03 1.102e-10
 28.97830    145.0 8.972e+03 9.693e-11
 28.99919    146.4 8.993e+03 9.158e-11
 29.03696    147.5 8.973e+03 8.763e-11
 29.07605    148.7 8.974e+03 9.104e-11
 29.09695    150.2 8.971e+03 8.193e-11
 29.12055    151.3 8.977e+03 8.954e-11
 29.16234    152.5 9.112e+03 1.228e-10
 29.19471    153.6 9.516e+03 1.950e-10
 29.21561    155.1 9.324e+03 1.559e-10
 29.24594    155.5 9.750e+03 2.439e-10
 29.27718    155.7 1.002e+04 3.055e-10
 29.29798    155.6 1.043e+04 4.254e-10
 29.31317    155.2 1.105e+04 6.937e-10
 29.32362    155.8 1.092e+04 6.329e-10
 29.33158    155.2 1.165e+04 1.079e-09
 29.34203    155.5 1.167e+04 9.825e-10
 29.36068    154.6 1.247e+04 1.560e-09
 29.37249    153.5 1.321e+04 2.159e-09
 29.38294    154.1 1.308e+04 2.120e-09
 29.40247    152.4 1.357e+04 2.278e-09
 29.42137    150.4 1.356e+04 2.195e-09
 29.43182    151.0 1.354e+04 2.239e-09
 29.44427    149.0 1.335e+04 1.866e-09
 29.46517    147.0 1.275e+04 1.225e-09
 29.48070    144.7 1.187e+04 6.783e-10
 29.49115    145.8 1.206e+04 7.966e-10
 29.50696    143.4 1.116e+04 4.610e-10
 29.52786    141.4 1.040e+04 3.020e-10
 29.54003    140.2 1.004e+04 2.517e-10
 29.55048    140.6 1.006e+04 2.679e-10
 29.58020    140.9 1.010e+04 2.745e-10
 29.62209    140.9 9.795e+03 2.305e-10
 29.64843    140.9 9.637e+03 2.134e-10
 29.66933    141.7 9.884e+03 2.611e-10
 29.70569    141.9 9.791e+03 2.471e-10
 29.74619    142.0 9.850e+03 2.549e-10
 29.76708    142.8 9.880e+03 2.495e-10
 29.78928    142.9 9.905e+03 2.408e-10
 29.83107    143.1 9.958e+03 2.446e-10
 29.86484    143.3 1.003e+04 2.502e-10
 29.88574    144.1 9.851e+03 2.128e-10
 29.89901    144.3 1.004e+04 2.405e-10
 29.91991    145.0 1.026e+04 2.497e-10
 29.95646    145.0 1.041e+04 2.866e-10
 29.98350    144.8 1.051e+04 3.341e-10
 30.00439    145.4 1.050e+04 3.527e-10
 30.02950    144.9 1.049e+04 3.777e-10
 30.04263    144.8 1.052e+04 4.106e-10
 30.05308    145.6 1.060e+04 4.544e-10
 30.07120    145.4 1.085e+04 5.307e-10
 30.09151    144.9 1.114e+04 6.030e-10
 30.10196    145.3 1.131e+04 6.692e-10
 30.11300    144.3 1.153e+04 7.226e-10
 30.13389    143.1 1.155e+04 7.352e-10
 30.15084    141.7 1.165e+04 7.954e-10
 30.16128    141.7 1.183e+04 8.428e-10
 30.17569    140.7 1.181e+04 8.655e-10
 30.19981    140.1 1.164e+04 8.470e-10
 30.22081    138.9 1.221e+04 1.047e-09
 30.24903    138.1 1.180e+04 9.415e-10
 30.29082    137.7 1.169e+04 8.984e-10
 30.31847    137.1 1.167e+04 8.776e-10
 30.32882    136.7 1.173e+04 9.689e-10
 30.34287    136.7 1.171e+04 9.092e-10
 30.36377    136.5 1.174e+04 9.047e-10
 30.37770    136.1 1.190e+04 9.414e-10
 30.38814    135.8 1.195e+04 1.033e-09
 30.40556    134.4 1.249e+04 1.293e-09
 30.42646    132.3 1.344e+04 2.171e-09
 30.43702    131.9 1.440e+04 3.994e-09
 30.44747    132.1 1.433e+04 4.006e-09
 30.46605    132.2 1.500e+04 5.674e-09
 30.47650    131.8 1.472e+04 4.897e-09
 30.48590    131.7 1.482e+04 5.124e-09
 30.49635    131.8 1.443e+04 4.537e-09
 30.51005    131.7 1.417e+04 4.045e-09
 30.53095    131.8 1.351e+04 2.778e-09
 30.54523    131.5 1.261e+04 1.545e-09
 30.55568    131.5 1.243e+04 1.450e-09
 30.58329    130.4 1.120e+04 5.731e-10
 30.62518    128.1 9.413e+03 1.521e-10
 30.65363    127.4 8.827e+03 9.926e-11
 30.67453    129.0 8.821e+03 9.874e-11
 30.70878    129.7 8.599e+03 9.507e-11
 30.75057    131.4 8.584e+03 9.517e-11
 30.77229    133.2 8.610e+03 9.936e-11
 30.79318    134.8 8.549e+03 9.847e-11
 30.83416    136.6 8.602e+03 1.092e-10
 30.87004    138.2 8.873e+03 1.333e-10
 30.89094    139.9 8.675e+03 1.265e-10
 30.91775    141.5 8.930e+03 1.607e-10
 30.95955    143.3 9.335e+03 2.433e-10
 30.98870    145.0 9.772e+03 3.598e-10
 31.00960    146.5 9.375e+03 2.844e-10
 31.03349    148.2 9.914e+03 4.141e-10
 31.05438    148.5 9.496e+03 2.913e-10
 31.08493    149.6 9.951e+03 3.847e-10
 31.10726    150.0 1.038e+04 5.205e-10
 31.11761    151.3 1.020e+04 4.807e-10
 31.13698    151.2 1.066e+04 6.490e-10
 31.15604    151.2 1.106e+04 9.204e-10
 31.16648    152.2 1.098e+04 8.356e-10
 31.17878    152.1 1.139e+04 1.188e-09
 31.19968    152.4 1.181e+04 1.663e-09
 31.21536    152.8 1.220e+04 2.228e-09
 31.22581    153.4 1.249e+04 2.270e-09
 31.24147    153.8 1.297e+04 2.751e-09
 31.26237    154.0 1.308e+04 2.745e-09
 31.27469    154.2 1.306e+04 2.457e-09
 31.28514    154.8 1.349e+04 3.197e-09
 31.30417    154.8 1.328e+04 2.523e-09
 31.32367    154.6 1.237e+04 1.354e-09
 31.33412    155.3 1.310e+04 2.121e-09
 31.34596    155.0 1.248e+04 1.523e-09
 31.37740    155.5 1.144e+04 8.349e-10
 31.40875    155.3 1.055e+04 5.291e-10
 31.42955    154.7 9.941e+03 3.441e-10
 31.44232    154.7 9.304e+03 2.070e-10
 31.46332    155.6 9.612e+03 2.815e-10
 31.50289    155.9 9.179e+03 1.871e-10
 31.54018    156.9 9.115e+03 1.761e-10
 31.56107    157.7 9.191e+03 1.923e-10
 31.58648    159.0 9.132e+03 1.855e-10
 31.61117    160.3 9.151e+03 1.941e-10
 31.63207    159.9 9.168e+03 1.968e-10
 31.65883    161.2 9.235e+03 2.140e-10
 31.67973    161.7 9.263e+03 2.195e-10
 31.71187    162.9 9.315e+03 2.370e-10
 31.75366    164.1 9.424e+03 2.677e-10
 31.77749    165.4 9.571e+03 3.129e-10
 31.79838    165.7 9.619e+03 3.285e-10
 31.83725    167.1 9.809e+03 3.964e-10
 31.86850    167.8 9.936e+03 4.568e-10
 31.88550    168.1 1.003e+04 4.928e-10
 31.89604    168.5 1.006e+04 4.916e-10
 31.92084    169.2 1.020e+04 5.547e-10
 31.96264    169.9 1.027e+04 6.036e-10
 31.99390    170.4 1.040e+04 6.641e-10
 32.01470    170.4 1.041e+04 6.653e-10
 32.03559    170.6 1.048e+04 6.991e-10
 32.05303    170.7 1.061e+04 7.562e-10
 32.06348    170.9 1.058e+04 7.375e-10
 32.07738    170.9 1.077e+04 8.201e-10
 32.09828    170.8 1.098e+04 9.359e-10
 32.11236    170.8 1.121e+04 1.076e-09
 32.12281    171.0 1.121e+04 1.061e-09
 32.14007    170.8 1.148e+04 1.234e-09
 32.16097    170.7 1.178e+04 1.407e-09
 32.17169    170.4 1.206e+04 1.516e-09
 32.17848    170.6 1.213e+04 1.567e-09
 32.18866    170.7 1.150e+04 1.224e-09
 32.20277    170.3 1.173e+04 1.282e-09
 32.22056    169.8 1.176e+04 1.274e-09
 32.23101    170.0 1.178e+04 1.310e-09
 32.24456    169.6 1.175e+04 1.260e-09
 32.26546    169.4 1.157e+04 1.116e-09
 32.27989    169.3 1.130e+04 9.296e-10
 32.29034    169.6 1.133e+04 9.689e-10
 32.30726    169.6 1.105e+04 7.957e-10
 32.32815    169.7 1.082e+04 6.582e-10
 32.33922    169.7 1.061e+04 5.708e-10
 32.34967    170.2 1.067e+04 6.049e-10
 32.36995    170.3 1.043e+04 5.691e-10
 32.38810    170.5 1.031e+04 5.687e-10
 32.39855    171.0 1.038e+04 5.980e-10
 32.41174    171.3 1.037e+04 5.987e-10
 32.43264    171.7 1.037e+04 6.117e-10
 32.44743    171.8 1.045e+04 6.545e-10
 32.45787    172.0 1.053e+04 6.930e-10
 32.46706    172.0 1.072e+04 7.839e-10
 32.47751    172.0 1.060e+04 7.448e-10
 32.49533    171.8 1.092e+04 8.880e-10
 32.50675    171.0 1.173e+04 1.235e-09
 32.51720    171.4 1.156e+04 1.184e-09
 32.53713    170.8 1.239e+04 1.714e-09
 32.55563    170.3 1.309e+04 2.438e-09
 32.56608    170.7 1.270e+04 2.070e-09
 32.57893    169.9 1.288e+04 2.275e-09
 32.59982    169.0 1.283e+04 2.234e-09
 32.61496    168.3 1.254e+04 1.954e-09
 32.62541    168.5 1.222e+04 1.669e-09
 32.64162    167.6 1.183e+04 1.362e-09
 32.66394    166.8 1.120e+04 9.511e-10
 32.68493    167.3 1.079e+04 8.171e-10
 32.71496    166.8 9.944e+03 5.223e-10
 32.74565    167.0 9.244e+03 3.756e-10
 32.76655    167.8 9.249e+03 3.617e-10
 32.78269    168.4 8.909e+03 3.050e-10
 32.80359    170.0 8.985e+03 3.330e-10
 32.84034    171.0 8.896e+03 3.205e-10
 32.88045    172.1 8.932e+03 3.343e-10
 32.90134    173.9 8.935e+03 3.393e-10
 32.92393    175.0 9.068e+03 3.661e-10
 32.95012    175.3 9.473e+03 4.632e-10
 32.96048    175.8 9.339e+03 4.268e-10
 32.97598    176.1 9.563e+03 4.899e-10
 32.99688    176.4 9.793e+03 5.700e-10
 33.00935    176.8 1.006e+04 6.777e-10
 33.01980    177.5 1.000e+04 6.554e-10
 33.03430    177.9 1.023e+04 7.799e-10
 33.04475    178.5 9.945e+03 6.289e-10
 33.05823    178.9 1.005e+04 6.844e-10
 33.06868    179.8 1.011e+04 7.005e-10
 33.08047    180.2 1.013e+04 7.323e-10
 33.10137    180.8 1.007e+04 7.181e-10
 33.11756    181.4 9.927e+03 6.496e-10
 33.12801    182.2 1.008e+04 7.348e-10
 33.14316    182.8 9.894e+03 6.355e-10
 33.16406    183.1 9.644e+03 4.954e-10
 33.17689    183.1 9.500e+03 4.394e-10
 33.18734    184.3 9.590e+03 4.781e-10
 33.21541    185.0 9.326e+03 3.849e-10
 33.23631    186.0 9.347e+03 3.977e-10
 33.25820    187.9 9.211e+03 3.663e-10
 33.30009    189.7 9.059e+03 3.398e-10
 33.32333    191.8 9.040e+03 3.317e-10
 33.33651    192.9 9.096e+03 3.542e-10
 33.35506    193.6 9.241e+03 3.887e-10
 33.38368    195.4 9.330e+03 4.073e-10
 33.42548    196.9 9.458e+03 4.358e-10
 33.45272    198.0 9.513e+03 4.369e-10
 33.46308    198.4 9.521e+03 4.400e-10
 33.47753    199.1 9.569e+03 4.445e-10
 33.50897    201.3 9.916e+03 5.293e-10
 33.55058    202.5 1.019e+04 5.872e-10
 33.57148    203.1 9.809e+03 4.659e-10
 33.59266    204.1 9.770e+03 4.606e-10
 33.63446    205.0 9.733e+03 4.606e-10
 33.66923    206.1 9.677e+03 4.491e-10
 33.69013    206.5 9.477e+03 3.871e-10
 33.71805    207.4 9.584e+03 4.130e-10
 33.75984    208.4 9.669e+03 4.178e-10
 33.78789    209.7 9.750e+03 4.137e-10
 33.79824    210.1 9.963e+03 5.308e-10
 33.81189    210.9 1.009e+04 5.347e-10
 33.83279    211.5 1.011e+04 5.321e-10
 33.84702    212.2 1.013e+04 5.213e-10
 33.85747    212.4 1.044e+04 6.486e-10
 33.87458    213.1 1.041e+04 6.051e-10
 33.89038    213.7 1.035e+04 5.538e-10
 33.90083    214.3 1.032e+04 5.418e-10
 33.90635    215.1 1.022e+04 4.726e-10
 33.91680    215.0 1.043e+04 5.586e-10
 33.93728    215.6 1.032e+04 4.914e-10
 33.95523    216.3 1.019e+04 4.260e-10
 33.96568    216.2 1.040e+04 5.117e-10
 33.97907    216.8 1.035e+04 4.826e-10
 33.99997    217.6 1.033e+04 4.615e-10
 34.01455    218.3 1.035e+04 4.522e-10
 34.02500    218.2 1.063e+04 5.789e-10
 34.04177    219.0 1.068e+04 5.832e-10
 34.06266    219.8 1.075e+04 5.915e-10
 34.07388    220.6 1.083e+04 6.022e-10
 34.08433    220.4 1.124e+04 7.875e-10
 34.10446    221.1 1.132e+04 8.006e-10
 34.12276    221.9 1.139e+04 8.136e-10
 34.13321    221.5 1.179e+04 1.007e-09
 34.14625    222.1 1.186e+04 1.018e-09
 34.16715    222.5 1.205e+04 1.048e-09
 34.17922    222.6 1.221e+04 1.078e-09
 34.18371    223.9 1.206e+04 1.041e-09
 34.19254    223.1 1.240e+04 1.209e-09
 34.20895    223.4 1.247e+04 1.198e-09
 34.22985    223.5 1.254e+04 1.165e-09
 34.24151    224.4 1.252e+04 1.091e-09
 34.26251    221.7 1.260e+04 1.082e-09
 34.30318    222.1 1.240e+04 9.721e-10
 34.33937    222.8 1.216e+04 9.094e-10
 34.36027    220.2 1.164e+04 7.860e-10
 34.38677    221.7 1.140e+04 7.675e-10
 34.42857    223.4 1.138e+04 7.712e-10
 34.45781    225.3 1.140e+04 8.017e-10
 34.46637    226.7 1.105e+04 6.303e-10
 34.47892    226.0 1.112e+04 6.974e-10
 34.51216    228.4 1.138e+04 8.048e-10
 34.55396    230.8 1.179e+04 9.615e-10
 34.57668    233.7 1.250e+04 1.236e-09
 34.59758    232.7 1.243e+04 1.206e-09
 34.63755    235.5 1.305e+04 1.508e-09
 34.66879    236.1 1.358e+04 1.853e-09
 34.68469    236.8 1.418e+04 2.406e-09
 34.69524    237.4 1.320e+04 1.339e-09
 34.71059    238.0 1.414e+04 1.982e-09
 34.73139    239.1 1.487e+04 2.917e-09
 34.74402    240.3 1.555e+04 4.062e-09
 34.74863    240.1 1.471e+04 2.348e-09
 34.75691    240.8 1.420e+04 1.772e-09
 34.77319    241.9 1.496e+04 2.502e-09
 34.79289    242.9 1.565e+04 3.416e-09
 34.80334    242.8 1.426e+04 1.595e-09
 34.81498    243.8 1.487e+04 2.135e-09
 34.83588    244.7 1.541e+04 2.753e-09
 34.85222    245.3 1.584e+04 3.431e-09
 34.86267    245.4 1.423e+04 1.497e-09
 34.87767    246.1 1.484e+04 2.019e-09
 34.89857    246.7 1.531e+04 2.662e-09
 34.91155    247.3 1.564e+04 3.387e-09
 34.92200    247.6 1.448e+04 1.800e-09
 34.94037    248.3 1.499e+04 2.459e-09
 34.96043    249.0 1.539e+04 3.214e-09
 34.97088    249.7 1.438e+04 1.835e-09
 34.98216    250.4 1.495e+04 2.507e-09
 35.00306    250.9 1.554e+04 3.342e-09
 35.01976    251.4 1.640e+04 4.389e-09
 35.03020    252.5 1.540e+04 2.820e-09
 35.03530    252.9 1.653e+04 4.067e-09
 35.04575    253.3 1.592e+04 3.538e-09
 35.06575    253.5 1.690e+04 4.770e-09
 35.07908    253.8 1.780e+04 5.998e-09
 35.08953    255.1 1.726e+04 4.827e-09
 35.10228    254.5 1.836e+04 6.332e-09
 35.10865    254.2 1.871e+04 7.225e-09
 35.11387    255.0 1.854e+04 6.755e-09
 35.12791    254.4 1.956e+04 8.564e-09
 35.13836    254.8 1.964e+04 8.728e-09
 35.14930    254.5 2.053e+04 1.089e-08
 35.16280    253.5 2.109e+04 1.300e-08
 35.16798    253.9 2.100e+04 1.296e-08
 35.17440    253.2 2.158e+04 1.496e-08
 35.17962    253.3 2.151e+04 1.417e-08
 35.18582    252.1 2.221e+04 1.639e-08
 35.19242    250.6 2.293e+04 1.912e-08
 35.19764    250.9 2.289e+04 1.915e-08
 35.20672    248.7 2.359e+04 2.258e-08
 35.21686    246.2 2.404e+04 2.561e-08
 35.22208    245.8 2.401e+04 2.610e-08
 35.22761    242.9 2.444e+04 3.011e-08
 35.23806    240.0 2.475e+04 3.411e-08
 35.24652    236.7 2.516e+04 3.903e-08
 35.25174    235.9 2.507e+04 4.261e-08
 35.25896    232.4 2.533e+04 4.718e-08
 35.26941    229.1 2.550e+04 5.070e-08
 35.27618    226.0 2.550e+04 5.161e-08
 35.28141    225.4 2.506e+04 4.214e-08
 35.29031    223.1 2.499e+04 3.380e-08
 35.30062    221.0 2.505e+04 2.342e-08
 35.30585    221.1 2.490e+04 1.376e-08
 35.31365    215.3 2.720e+04 3.451e-09
 35.32414    216.8 2.426e+04 3.523e-09
 35.33742    205.5 2.028e+04 7.257e-10
 35.35482    193.6 1.321e+04 7.561e-10
 35.36527    188.1 1.234e+04 6.952e-10
 35.37922    185.4 1.222e+04 8.734e-10
 35.40012    184.6 1.278e+04 1.221e-09
 35.41415    183.9 1.340e+04 1.598e-09
 35.42460    183.0 1.418e+04 2.067e-09
 35.44191    181.7 1.483e+04 2.671e-09
 35.46281    180.3 1.513e+04 3.066e-09
 35.47348    178.7 1.522e+04 3.250e-09
 35.48393    177.9 1.611e+04 4.593e-09
 35.50461    176.8 1.594e+04 4.638e-09
 35.52236    175.7 1.570e+04 4.417e-09
 35.53281    175.0 1.660e+04 5.867e-09
 35.54640    173.9 1.607e+04 4.470e-09
 35.56730    172.2 1.546e+04 3.051e-09
 35.58168    169.6 1.467e+04 2.129e-09
 35.59213    166.6 1.480e+04 1.767e-09
 35.60254    162.5 1.369e+04 1.210e-09
 35.61299    164.2 1.534e+04 1.950e-09
 35.62999    159.2 1.421e+04 1.547e-09
 35.64101    155.1 1.374e+04 1.554e-09
 35.65146    151.6 1.315e+04 1.348e-09
 35.67179    149.2 1.320e+04 1.400e-09
 35.68989    146.8 1.334e+04 1.481e-09
 35.70034    145.1 1.280e+04 1.228e-09
 35.71358    142.7 1.282e+04 1.176e-09
 35.73448    139.8 1.269e+04 1.078e-09
 35.74922    136.7 1.245e+04 9.798e-10
 35.75967    134.9 1.198e+04 8.457e-10
 35.77628    132.4 1.175e+04 8.466e-10
 35.79717    130.7 1.157e+04 8.507e-10
 35.80854    129.7 1.143e+04 8.370e-10
 35.81899    129.4 1.147e+04 8.725e-10
 35.83897    129.0 1.135e+04 8.525e-10
 35.85742    128.7 1.115e+04 7.793e-10
 35.86787    128.6 1.131e+04 8.358e-10
 35.88076    128.3 1.102e+04 7.105e-10
 35.89138    127.7 1.068e+04 5.874e-10
 35.90183    125.4 1.096e+04 6.615e-10
 35.91675    124.8 1.071e+04 6.066e-10
 35.92720    124.2 1.108e+04 7.181e-10
 35.94346    124.0 1.108e+04 7.256e-10
 35.96436    123.7 1.121e+04 7.730e-10
 35.97608    123.3 1.155e+04 9.053e-10
 35.98653    122.9 1.209e+04 1.154e-09
 36.00615    122.6 1.260e+04 1.431e-09
 36.02496    122.3 1.317e+04 1.805e-09
 36.03541    122.5 1.363e+04 2.190e-09
 36.04795    122.4 1.403e+04 2.519e-09
 36.06884    122.1 1.433e+04 2.702e-09
 36.08428    121.3 1.451e+04 2.742e-09
 36.09473    121.8 1.446e+04 2.605e-09
 36.11064    120.5 1.444e+04 2.426e-09
 36.13154    118.7 1.433e+04 2.363e-09
 36.14361    116.8 1.425e+04 2.380e-09
 36.15406    117.6 1.390e+04 2.103e-09
 36.16978    116.1 1.386e+04 2.188e-09
 36.18022    115.1 1.366e+04 2.091e-09
 36.19249    113.9 1.368e+04 2.184e-09
 36.20294    115.5 1.351e+04 2.025e-09
 36.21513    114.1 1.388e+04 2.278e-09
 36.23603    112.2 1.447e+04 2.742e-09
 36.25182    110.3 1.484e+04 3.156e-09
 36.26227    111.9 1.514e+04 3.531e-09
 36.27782    110.4 1.555e+04 3.932e-09
 36.29872    108.5 1.561e+04 3.769e-09
 36.31115    105.1 1.594e+04 3.253e-09
 36.32159    108.2 1.655e+04 4.249e-09
 36.34051    102.7 1.700e+04 3.422e-09
 36.36002     95.8 1.608e+04 2.851e-09
 36.37047     98.7 1.739e+04 3.443e-09
 36.38231     92.1 1.536e+04 3.003e-09
 36.40321     88.4 1.408e+04 2.744e-09
 36.41935     86.2 1.404e+04 2.553e-09
 36.42980     86.9 1.469e+04 3.315e-09
 36.44500     84.6 1.482e+04 3.114e-09
 36.45862     81.4 1.469e+04 2.745e-09
 36.46907     80.3 1.449e+04 2.593e-09
 36.47868     77.8 1.387e+04 2.361e-09
 36.48913     78.8 1.470e+04 3.060e-09
 36.50770     76.4 1.471e+04 3.133e-09
 36.52756     70.7 1.673e+04 4.478e-09
 36.53801     70.8 1.725e+04 5.295e-09
 36.54949     65.8 1.932e+04 9.477e-09
 36.57039     63.9 1.968e+04 1.464e-08
 36.58689     63.5 1.990e+04 1.952e-08
 36.59733     63.5 1.975e+04 1.887e-08
 36.61218     63.1 1.892e+04 1.622e-08
 36.63308     63.9 1.765e+04 8.886e-09
 36.64621     62.6 1.640e+04 4.580e-09
 36.65666     62.1 1.601e+04 4.258e-09
 36.67488     59.6 1.370e+04 2.057e-09
 36.69509     58.2 1.181e+04 1.099e-09
 36.70554     58.2 1.253e+04 1.392e-09
 36.71667     57.7 1.217e+04 1.004e-09
 36.73701     56.6 1.204e+04 8.135e-10
 36.74746     56.8 1.168e+04 7.240e-10
 36.75442     55.2 1.165e+04 6.415e-10
 36.76487     53.7 1.407e+04 1.348e-09
 36.77937     51.7 1.418e+04 1.400e-09
 36.80026     50.5 1.382e+04 1.577e-09
 36.81375     50.4 1.376e+04 1.860e-09
 36.82419     49.6 1.575e+04 3.637e-09
 36.84206     50.2 1.571e+04 3.750e-09
 36.86262     50.6 1.581e+04 3.738e-09
 36.87307     49.1 1.745e+04 5.269e-09
 36.88386     47.9 1.748e+04 4.721e-09
 36.90475     45.9 1.724e+04 4.395e-09
 36.92195     44.4 1.701e+04 4.361e-09
 36.93240     41.6 1.696e+04 4.411e-09
 36.94655     41.4 1.664e+04 4.799e-09
 36.96745     41.9 1.668e+04 5.237e-09
 36.98128     42.1 1.683e+04 5.668e-09
 36.99173     40.4 1.634e+04 4.828e-09
 37.00924     39.6 1.694e+04 4.898e-09
 37.02586     38.0 1.790e+04 4.982e-09
 37.03631     36.5 1.619e+04 3.075e-09
 37.05104     30.2 1.486e+04 2.160e-09
 37.07193     28.6 1.448e+04 2.299e-09
 37.08949     27.5 1.421e+04 2.472e-09
 37.09993     26.1 1.332e+04 2.177e-09
 37.11373     25.9 1.348e+04 2.304e-09
 37.13463     25.6 1.350e+04 2.372e-09
 37.14881     25.1 1.349e+04 2.393e-09
 37.15926     24.8 1.304e+04 2.024e-09
 37.17642     24.3 1.298e+04 2.029e-09
 37.19732     24.1 1.310e+04 2.073e-09
 37.20814     24.1 1.348e+04 2.121e-09
 37.21859     24.6 1.279e+04 1.521e-09
 37.23912     25.2 1.291e+04 1.528e-09
 37.25702     25.9 1.303e+04 1.520e-09
 37.27801     27.1 1.258e+04 1.092e-09
 37.30445     29.6 1.259e+04 1.087e-09
 37.32534     31.1 1.126e+04 6.160e-10
 37.35425     33.6 1.132e+04 5.878e-10
 37.37587     36.2 1.161e+04 6.726e-10
 37.39677     38.1 1.042e+04 4.032e-10
 37.43784     41.2 1.091e+04 5.202e-10
 37.47363     44.6 1.134e+04 6.954e-10
 37.49452     46.5 1.058e+04 4.629e-10
 37.52143     49.8 1.112e+04 6.228e-10
 37.56323     53.1 1.161e+04 8.432e-10
 37.59228     56.4 1.219e+04 1.118e-09
 37.61318     58.1 1.153e+04 8.321e-10
 37.64682     61.5 1.204e+04 1.047e-09
 37.68861     64.8 1.265e+04 1.285e-09
 37.71094     67.0 1.329e+04 1.698e-09
 37.73183     69.6 1.252e+04 1.126e-09
 37.75972     70.7 1.326e+04 1.606e-09
 37.77007     71.8 1.281e+04 1.271e-09
 37.78246     73.2 1.343e+04 1.593e-09
 37.80335     74.2 1.389e+04 1.980e-09
 37.81895     75.3 1.415e+04 2.328e-09
 37.82940     76.2 1.403e+04 2.054e-09
 37.84515     77.2 1.422e+04 2.428e-09
 37.86605     78.4 1.433e+04 2.698e-09
 37.87827     79.7 1.446e+04 2.860e-09
 37.88371     80.6 1.436e+04 2.717e-09
 37.89239     81.8 1.435e+04 2.521e-09
 37.90784     83.0 1.452e+04 2.747e-09
 37.92715     83.8 1.480e+04 2.895e-09
 37.93760     84.8 1.461e+04 2.697e-09
 37.94964     84.9 1.521e+04 2.969e-09
 37.97054     83.4 1.618e+04 3.532e-09
 37.98648     81.2 1.704e+04 4.535e-09
 37.99688     80.7 1.740e+04 4.912e-09
 38.00701     79.5 1.705e+04 5.417e-09
 38.01605     79.5 1.681e+04 5.466e-09
 38.02127     79.6 1.700e+04 5.925e-09
 38.02626     79.9 1.700e+04 6.441e-09
 38.03149     81.0 1.741e+04 7.020e-09
 38.03836     81.0 1.746e+04 7.180e-09
 38.04576     80.4 1.723e+04 6.579e-09
 38.05098     80.9 1.782e+04 7.734e-09
 38.05925     80.8 1.783e+04 7.701e-09
 38.06970     80.3 1.813e+04 7.227e-09
 38.07537     80.2 1.812e+04 7.156e-09
 38.08060     80.5 1.873e+04 7.969e-09
 38.09060     79.1 1.890e+04 6.941e-09
 38.09981     78.6 1.868e+04 6.590e-09
 38.10504     78.4 1.910e+04 7.102e-09
 38.11150     76.5 1.846e+04 5.781e-09
 38.12195     75.7 1.795e+04 5.322e-09
 38.12948     73.8 1.690e+04 4.202e-09
 38.13470     74.1 1.735e+04 4.676e-09
 38.14284     73.5 1.677e+04 4.333e-09
 38.15397     71.9 1.602e+04 3.511e-09
 38.16441     72.0 1.635e+04 3.961e-09
 38.17068     70.7 1.634e+04 3.734e-09
 38.17591     72.7 1.739e+04 4.778e-09
 38.18358     71.9 1.710e+04 4.544e-09
 38.18880     72.1 1.773e+04 5.158e-09
 38.19509     67.6 1.961e+04 6.200e-09
 38.20554     59.2 2.299e+04 9.369e-09
 38.21324     51.6 2.367e+04 1.590e-08
 38.21847     49.3 2.408e+04 2.300e-08
 38.22644     45.3 2.273e+04 3.431e-08
 38.23688     43.0 2.237e+04 4.296e-08
 38.24291     40.8 2.229e+04 4.513e-08
 38.24813     40.2 2.253e+04 5.354e-08
 38.25778     38.3 2.377e+04 3.554e-08
 38.26735     34.0 2.502e+04 1.931e-08
 38.27257     31.6 2.579e+04 1.588e-08
 38.27868     22.5 2.324e+04 7.077e-09
 38.28913     13.9 1.915e+04 3.986e-09
 38.30485      7.4 1.692e+04 2.733e-09
 38.32155      3.1 1.566e+04 2.326e-09
 38.33200      0.7 1.534e+04 2.164e-09
 38.34670     -1.8 1.521e+04 2.181e-09
 38.36759     -4.3 1.591e+04 2.604e-09
 38.38088     -7.9 1.697e+04 3.234e-09
 38.39132     -9.9 1.668e+04 2.982e-09
 38.40939    -13.6 1.752e+04 3.859e-09
 38.42975    -16.8 1.832e+04 5.138e-09
 38.44020    -17.5 1.726e+04 3.875e-09
 38.44917    -19.7 1.776e+04 4.515e-09
 38.45962    -22.0 1.766e+04 4.374e-09
 38.47208    -24.0 1.757e+04 4.287e-09
 38.48908    -26.2 1.755e+04 3.982e-09
 38.49953    -26.3 1.646e+04 2.899e-09
 38.51388    -30.7 1.883e+04 3.165e-09
 38.53477    -38.5 2.459e+04 3.666e-09
 38.54836    -36.2 2.076e+04 4.194e-09
 38.55354    -35.7 2.068e+04 4.142e-09
 38.56080    -37.0 2.213e+04 5.233e-09
 38.57125    -39.0 2.348e+04 7.108e-09
 38.57797    -42.2 2.652e+04 8.655e-09
 38.58320    -40.9 2.616e+04 8.646e-09
 38.59215    -44.9 3.101e+04 1.238e-08
 38.59872    -49.4 3.902e+04 2.102e-08
 38.60377    -66.8 3.163e+04 3.373e-07
 38.60764    -65.6 3.308e+04 2.821e-07
 38.61304    -70.3 2.694e+04 6.755e-07
 38.62349    -74.5 2.488e+04 8.795e-07
 38.63208    -77.7 2.312e+04 9.675e-07
 38.63730    -77.0 2.327e+04 9.231e-07
 38.64439    -80.1 2.358e+04 7.665e-07
 38.65484    -83.1 2.512e+04 5.034e-07
 38.66174    -86.2 2.877e+04 2.491e-07
 38.66697    -86.8 2.855e+04 2.666e-07
 38.67574    -90.6 3.576e+04 9.346e-08
 38.68618    -95.6 4.513e+04 2.473e-08
 38.69663   -108.0 3.997e+04 7.557e-09
 38.70708   -116.4 2.446e+04 5.976e-09
 38.71584   -119.7 2.131e+04 5.676e-09
 38.72107   -129.2 2.624e+04 1.202e-08
 38.72798   -131.2 2.842e+04 1.667e-08
 38.73792   -132.3 2.863e+04 2.365e-08
 38.74314   -130.7 2.882e+04 1.308e-08
 38.74551   -131.9 2.912e+04 1.869e-08
 38.75073   -138.6 2.642e+04 4.216e-08
 38.75933   -138.6 2.549e+04 4.769e-08
 38.76978   -138.6 2.469e+04 4.989e-08
 38.77517   -138.3 2.450e+04 4.724e-08
 38.78040   -141.5 2.298e+04 4.570e-08
 38.79067   -140.6 2.256e+04 4.083e-08
 38.79961   -139.7 2.235e+04 3.578e-08
 38.80484   -142.5 2.231e+04 2.606e-08
 38.81157   -141.8 2.256e+04 2.190e-08
 38.82202   -141.3 2.286e+04 1.872e-08
 38.82927   -140.8 2.322e+04 1.629e-08
 38.83450   -143.1 2.578e+04 1.052e-08
 38.84292   -142.5 2.674e+04 8.676e-09
 38.85337   -142.2 2.741e+04 6.922e-09
 38.86909   -142.1 2.746e+04 5.306e-09
 38.88348   -142.0 2.785e+04 3.408e-09
 38.89392   -148.3 2.154e+04 1.169e-09
 38.91093   -149.1 2.048e+04 1.147e-09
 38.93183   -150.5 2.016e+04 1.195e-09
 38.94280   -154.0 2.359e+04 2.136e-09
 38.95325   -155.3 2.056e+04 2.256e-09
 38.97363   -156.5 2.909e+04 4.580e-09
 38.98925   -157.0 3.171e+04 1.012e-08
 38.99681   -158.0 3.457e+04 1.370e-08
 39.00208   -157.7 3.028e+04 4.614e-09
 39.01015   -159.2 3.291e+04 9.956e-09
 39.02055   -161.3 3.351e+04 1.040e-08
 39.02647   -164.2 3.340e+04 1.033e-08
 39.02746   -164.8 2.762e+04 7.512e-09
 39.03199   -164.1 3.487e+04 1.797e-08
 39.04145   -166.4 3.384e+04 1.542e-08
 39.05091   -168.9 3.116e+04 1.192e-08
 39.05614   -169.3 2.585e+04 6.750e-09
 39.06234   -172.1 2.280e+04 6.272e-09
 39.07279   -174.7 2.096e+04 5.942e-09
 39.08058   -176.3 2.041e+04 5.813e-09
 39.08580   -175.7 1.999e+04 5.628e-09
 39.09369   -176.5 2.003e+04 5.648e-09
 39.10414   -176.9 2.011e+04 5.699e-09
 39.11024   -177.2 1.979e+04 5.707e-09
 39.12074   -175.7 1.945e+04 5.638e-09
 39.14081   -175.6 1.898e+04 5.507e-09
 39.15922   -175.3 1.850e+04 5.260e-09
 39.16966   -173.2 1.908e+04 5.850e-09
 39.18260   -172.7 1.858e+04 5.710e-09
 39.20350   -171.7 1.805e+04 5.107e-09
 39.21854   -170.5 1.750e+04 4.441e-09
 39.22899   -169.2 1.801e+04 5.145e-09
 39.24530   -168.0 1.735e+04 4.334e-09
 39.26619   -166.7 1.659e+04 3.663e-09
 39.27787   -165.3 1.584e+04 3.156e-09
 39.28832   -164.3 1.624e+04 3.487e-09
 39.30525   -163.0 1.555e+04 3.062e-09
 39.31570   -162.6 1.426e+04 2.646e-09
 39.32675   -161.3 1.388e+04 2.474e-09
 39.33720   -160.7 1.424e+04 2.817e-09
 39.34979   -159.3 1.397e+04 2.760e-09
 39.37068   -157.5 1.390e+04 2.751e-09
 39.38608   -155.8 1.385e+04 2.814e-09
 39.39653   -155.0 1.408e+04 3.025e-09
 39.41248   -153.5 1.407e+04 3.045e-09
 39.43338   -151.9 1.397e+04 2.994e-09
 39.44540   -150.1 1.386e+04 2.860e-09
 39.45585   -149.3 1.375e+04 2.713e-09
 39.47517   -147.5 1.362e+04 2.461e-09
 39.49428   -145.8 1.353e+04 2.184e-09
 39.50473   -145.3 1.337e+04 1.867e-09
 39.51697   -144.0 1.329e+04 1.631e-09
 39.53787   -142.9 1.320e+04 1.437e-09
 39.55361   -141.8 1.308e+04 1.290e-09
 39.56406   -141.9 1.281e+04 1.114e-09
 39.57966   -140.8 1.267e+04 1.047e-09
 39.59410   -139.7 1.259e+04 1.012e-09
 39.60455   -140.0 1.265e+04 1.065e-09
 39.61294   -139.0 1.256e+04 1.035e-09
 39.62339   -139.7 1.228e+04 9.215e-10
 39.64235   -138.7 1.231e+04 9.622e-10
 39.66182   -137.9 1.253e+04 1.056e-09
 39.67226   -139.5 1.279e+04 1.139e-09
 39.68415   -139.0 1.324e+04 1.354e-09
 39.70505   -138.3 1.374e+04 1.658e-09
 39.72114   -137.5 1.426e+04 2.041e-09
 39.73159   -139.5 1.516e+04 2.850e-09
 39.74684   -138.5 1.566e+04 3.309e-09
 39.76774   -137.7 1.605e+04 3.619e-09
 39.78047   -137.0 1.629e+04 3.706e-09
 39.79092   -139.6 1.634e+04 3.619e-09
 39.80954   -139.1 1.622e+04 3.454e-09
 39.82935   -138.7 1.599e+04 3.215e-09
 39.83980   -141.4 1.473e+04 2.412e-09
 39.85133   -141.1 1.428e+04 2.221e-09
 39.87223   -140.5 1.389e+04 2.081e-09
 39.88294   -139.8 1.362e+04 1.975e-09
 39.88894   -139.5 1.365e+04 2.090e-09
 39.89913   -141.1 1.313e+04 1.608e-09
 39.91402   -140.2 1.324e+04 1.569e-09
 39.93492   -139.4 1.327e+04 1.516e-09
 39.94800   -138.6 1.325e+04 1.448e-09
 39.95845   -140.8 1.282e+04 9.398e-10
 39.97672   -140.1 1.273e+04 8.687e-10
 39.99688   -139.3 1.261e+04 8.030e-10
 40.00733   -141.6 1.170e+04 5.206e-10
 40.01851   -140.8 1.158e+04 4.852e-10
 40.03941   -140.0 1.150e+04 4.590e-10
 40.05621   -139.3 1.146e+04 4.390e-10
 40.06666   -141.2 1.104e+04 3.554e-10
 40.08121   -140.6 1.125e+04 3.560e-10
 40.10210   -140.2 1.169e+04 3.670e-10
 40.11554   -140.0 1.216e+04 4.041e-10
 40.12599   -142.5 1.222e+04 4.839e-10
 40.14390   -142.3 1.237e+04 6.040e-10
 40.16134   -142.0 1.237e+04 7.662e-10
 40.17140   -140.9 1.289e+04 5.991e-10
 40.17487   -143.3 1.219e+04 8.475e-10
 40.18569   -142.6 1.230e+04 9.917e-10
 40.20659   -142.0 1.243e+04 1.129e-09
 40.22374   -141.1 1.256e+04 1.295e-09
 40.23419   -141.3 1.219e+04 1.207e-09
 40.24839   -140.4 1.220e+04 1.216e-09
 40.26929   -139.3 1.215e+04 1.179e-09
 40.28307   -138.5 1.199e+04 1.075e-09
 40.29352   -139.7 1.120e+04 6.402e-10
 40.31108   -139.1 1.085e+04 5.292e-10
 40.33195   -138.8 1.043e+04 4.276e-10
 40.35285   -139.2 9.303e+03 2.778e-10
 40.37377   -138.4 9.252e+03 2.728e-10
 40.39128   -137.6 9.255e+03 2.742e-10
 40.41227   -138.1 9.299e+03 2.803e-10
 40.44711   -136.4 9.282e+03 2.997e-10
 40.48891   -134.8 9.251e+03 3.244e-10
 40.51013   -133.1 9.218e+03 3.420e-10
 40.53103   -133.1 8.931e+03 3.015e-10
 40.57250   -131.2 8.919e+03 3.036e-10
 40.60788   -129.4 8.888e+03 3.031e-10
 40.62878   -129.0 8.500e+03 2.285e-10
 40.65609   -127.0 8.435e+03 2.227e-10
 40.69788   -125.2 8.402e+03 2.186e-10
 40.72654   -123.6 8.413e+03 2.181e-10
 40.73653   -123.8 8.288e+03 1.850e-10
 40.74967   -123.6 8.393e+03 2.100e-10
 40.78147   -122.8 8.644e+03 2.384e-10
 40.82327   -122.6 9.195e+03 3.082e-10
 40.84519   -122.8 1.002e+04 4.467e-10
 40.86609   -124.2 1.083e+04 6.682e-10
 40.90686   -124.0 1.175e+04 1.008e-09
 40.94295   -123.7 1.246e+04 1.372e-09
 40.96375   -123.9 1.272e+04 1.854e-09
 40.97981   -123.2 1.277e+04 1.921e-09
 41.00071   -122.3 1.283e+04 1.969e-09
 41.01253   -121.5 1.286e+04 1.986e-09
 41.01879   -121.1 1.289e+04 2.165e-09
 41.02787   -121.1 1.277e+04 2.070e-09
 41.04250   -120.1 1.257e+04 2.012e-09
 41.06141   -119.1 1.252e+04 1.971e-09
 41.07186   -119.1 1.359e+04 2.414e-09
 41.08430   -118.8 1.476e+04 2.678e-09
 41.10519   -118.8 1.648e+04 3.218e-09
 41.12074   -118.9 1.827e+04 4.163e-09
 41.13119   -119.9 1.917e+04 7.540e-09
 41.14699   -119.5 1.969e+04 1.004e-08
 41.16789   -119.0 1.993e+04 1.246e-08
 41.18007   -118.4 1.988e+04 1.462e-08
 41.19052   -118.2 1.977e+04 1.794e-08
 41.20441   -117.1 1.936e+04 1.661e-08
 41.21481   -117.0 1.988e+04 1.861e-08
 41.22526   -116.8 2.011e+04 2.031e-08
 41.23407   -116.9 2.106e+04 2.359e-08
 41.23930   -117.8 2.179e+04 2.296e-08
 41.24616   -118.9 2.321e+04 2.653e-08
 41.25660   -120.9 2.503e+04 3.145e-08
 41.26374   -123.3 2.656e+04 3.670e-08
 41.26896   -125.2 2.660e+04 3.229e-08
 41.27750   -128.4 2.749e+04 3.277e-08
 41.28795   -132.3 2.770e+04 2.910e-08
 41.29340   -137.0 2.625e+04 2.171e-08
 41.29862   -138.4 2.419e+04 1.820e-08
 41.30616   -142.8 2.159e+04 1.382e-08
 41.31139   -139.0 2.747e+04 2.365e-08
 41.31784   -143.9 2.494e+04 1.572e-08
 41.32306   -144.2 2.207e+04 1.372e-08
 41.32975   -148.0 1.956e+04 9.356e-09
 41.34020   -150.9 1.753e+04 6.054e-09
 41.34750   -153.0 1.573e+04 3.915e-09
 41.35273   -150.8 1.611e+04 4.801e-09
 41.36109   -151.8 1.498e+04 3.371e-09
 41.37154   -152.3 1.430e+04 2.614e-09
 41.37717   -152.6 1.394e+04 2.256e-09
 41.38239   -152.3 1.401e+04 2.291e-09
 41.39643   -153.5 1.316e+04 1.655e-09
 41.40693   -150.2 1.404e+04 2.074e-09
 41.41866   -152.2 1.179e+04 9.439e-10
 41.43956   -153.7 9.901e+03 5.048e-10
 41.45581   -154.1 9.388e+03 4.213e-10
 41.46625   -152.7 9.629e+03 4.379e-10
 41.48135   -152.9 9.528e+03 4.230e-10
 41.50225   -153.6 9.553e+03 4.247e-10
 41.51513   -155.2 1.018e+04 5.204e-10
 41.52558   -154.6 1.056e+04 5.210e-10
 41.54405   -156.4 1.225e+04 8.950e-10
 41.56401   -158.1 1.363e+04 1.527e-09
 41.57446   -157.3 1.393e+04 1.776e-09
 41.58465   -158.8 1.500e+04 2.666e-09
 41.59510   -157.4 1.244e+04 1.219e-09
 41.60674   -159.3 1.340e+04 1.690e-09
 41.62334   -161.2 1.405e+04 2.103e-09
 41.63379   -160.1 1.466e+04 2.540e-09
 41.64853   -162.1 1.504e+04 2.874e-09
 41.66943   -164.2 1.512e+04 2.943e-09
 41.68267   -166.2 1.481e+04 2.693e-09
 41.69312   -165.3 1.599e+04 3.795e-09
 41.71123   -167.2 1.530e+04 3.091e-09
 41.73155   -168.7 1.438e+04 2.373e-09
 41.74199   -168.1 1.554e+04 3.560e-09
 41.75302   -169.1 1.446e+04 2.653e-09
 41.77392   -169.5 1.364e+04 2.117e-09
 41.79087   -169.6 1.322e+04 1.926e-09
 41.80132   -169.1 1.381e+04 2.444e-09
 41.81572   -168.9 1.356e+04 2.314e-09
 41.83661   -168.5 1.353e+04 2.300e-09
 41.85020   -168.4 1.356e+04 2.422e-09
 41.86065   -167.8 1.385e+04 2.618e-09
 41.87350   -167.7 1.398e+04 2.941e-09
 41.88395   -166.1 1.363e+04 2.491e-09
 41.89908   -166.4 1.453e+04 3.483e-09
 41.90953   -165.0 1.380e+04 2.662e-09
 41.92020   -165.0 1.489e+04 3.925e-09
 41.94110   -164.8 1.638e+04 6.505e-09
 41.95841   -164.6 1.805e+04 1.096e-08
 41.96886   -163.7 1.622e+04 5.430e-09
 41.98290   -164.2 1.747e+04 8.836e-09
 42.00380   -165.0 1.847e+04 1.314e-08
 42.01773   -165.9 1.915e+04 1.664e-08
 42.02818   -165.3 1.724e+04 7.821e-09
 42.04559   -166.1 1.766e+04 9.687e-09
 42.06649   -166.7 1.787e+04 1.051e-08
 42.07706   -167.2 1.791e+04 1.063e-08
 42.08751   -167.3 1.656e+04 5.825e-09
 42.10828   -167.6 1.659e+04 5.930e-09
 42.12594   -167.6 1.665e+04 5.951e-09
 42.13639   -168.5 1.520e+04 3.439e-09
 42.15008   -168.3 1.526e+04 3.482e-09
 42.16234   -168.1 1.565e+04 3.573e-09
 42.17279   -166.5 1.652e+04 4.915e-09
 42.18522   -167.2 1.612e+04 4.086e-09
 42.19567   -167.1 1.504e+04 3.077e-09
 42.21277   -168.3 1.515e+04 2.991e-09
 42.22840   -169.9 1.513e+04 2.738e-09
 42.23880   -170.6 1.580e+04 2.919e-09
 42.24450   -171.7 1.659e+04 3.350e-09
 42.25499   -171.7 1.509e+04 2.521e-09
 42.27547   -173.3 1.703e+04 4.015e-09
 42.29109   -174.0 1.793e+04 5.807e-09
 42.29860   -174.2 1.873e+04 7.773e-09
 42.30387   -173.9 1.700e+04 4.074e-09
 42.31726   -174.5 1.891e+04 7.499e-09
 42.32831   -174.8 2.048e+04 1.372e-08
 42.33349   -174.8 1.960e+04 1.036e-08
 42.34329   -175.1 2.047e+04 1.445e-08
 42.35270   -175.1 2.125e+04 2.128e-08
 42.35793   -175.1 2.031e+04 1.257e-08
 42.36418   -175.3 2.110e+04 1.934e-08
 42.37463   -175.3 2.179e+04 2.931e-08
 42.38237   -175.4 2.232e+04 4.030e-08
 42.38759   -175.8 2.205e+04 3.116e-08
 42.39553   -175.7 2.292e+04 4.321e-08
 42.40598   -175.5 2.381e+04 5.597e-08
 42.41203   -176.0 2.467e+04 6.758e-08
 42.41726   -176.4 2.487e+04 5.316e-08
 42.42688   -177.6 2.577e+04 6.007e-08
 42.43647   -179.4 2.624e+04 6.528e-08
 42.44169   -180.0 2.589e+04 4.770e-08
 42.44586   -181.8 2.621e+04 5.228e-08
 42.45109   -184.3 2.412e+04 3.964e-08
 42.45822   -185.9 2.487e+04 4.486e-08
 42.46613   -187.4 2.544e+04 5.083e-08
 42.47136   -188.3 2.408e+04 4.976e-08
 42.47912   -189.9 2.469e+04 5.559e-08
 42.48957   -192.0 2.532e+04 6.119e-08
 42.49580   -195.1 2.570e+04 6.417e-08
 42.50102   -195.6 2.456e+04 5.383e-08
 42.51047   -199.1 2.458e+04 5.434e-08
 42.52024   -202.9 2.421e+04 5.176e-08
 42.52546   -202.2 2.349e+04 4.123e-08
 42.53137   -205.7 2.294e+04 3.577e-08
 42.54181   -209.5 2.229e+04 2.937e-08
 42.54990   -213.3 2.138e+04 2.328e-08
 42.55512   -211.8 2.121e+04 2.049e-08
 42.56271   -215.1 2.039e+04 1.621e-08
 42.57316   -218.0 1.951e+04 1.220e-08
 42.57956   -220.8 1.862e+04 8.776e-09
 42.58479   -218.7 1.865e+04 8.159e-09
 42.59028   -220.9 1.779e+04 5.820e-09
 42.59551   -220.3 1.750e+04 5.173e-09
 42.60400   -221.8 1.688e+04 4.052e-09
 42.60923   -221.4 1.676e+04 3.969e-09
 42.61496   -222.4 1.648e+04 3.382e-09
 42.62849   -223.5 1.618e+04 2.735e-09
 42.63899   -220.3 1.575e+04 2.747e-09
 42.65162   -221.4 1.415e+04 1.625e-09
 42.67252   -222.3 1.183e+04 8.878e-10
 42.68787   -222.2 1.068e+04 5.733e-10
 42.69832   -220.4 1.075e+04 5.809e-10
 42.71432   -219.8 1.036e+04 4.252e-10
 42.72958   -219.2 1.014e+04 3.464e-10
 42.74003   -217.9 1.015e+04 3.504e-10
 42.74720   -217.2 1.000e+04 3.031e-10
 42.75764   -215.6 9.990e+03 2.994e-10
 42.77701   -215.0 1.001e+04 2.712e-10
 42.79607   -214.5 1.005e+04 2.651e-10
 42.80652   -214.0 1.009e+04 2.672e-10
 42.82935   -214.7 1.019e+04 2.674e-10
 42.85560   -214.4 1.021e+04 2.822e-10
 42.87649   -211.7 1.049e+04 2.855e-10
 42.91304   -211.2 1.030e+04 2.953e-10
 42.95335   -210.9 1.015e+04 3.230e-10
 42.97425   -209.1 1.047e+04 3.791e-10
 42.99663   -209.1 1.039e+04 4.195e-10
 43.01862   -209.3 1.052e+04 4.814e-10
 43.03951   -206.9 1.008e+04 3.368e-10
 43.07201   -207.7 1.035e+04 4.027e-10
 43.09291   -207.0 1.072e+04 5.071e-10
 43.12202   -207.6 1.085e+04 5.649e-10
 43.16381   -208.8 1.092e+04 6.184e-10
 43.19066   -209.8 1.095e+04 6.350e-10
 43.21156   -209.0 1.093e+04 6.154e-10
 43.24741   -210.2 1.076e+04 5.787e-10
 43.28842   -211.3 1.055e+04 5.252e-10
 43.30932   -211.2 1.049e+04 4.818e-10
 43.33100   -211.6 1.034e+04 4.347e-10
 43.37279   -212.0 1.019e+04 3.834e-10
 43.40708   -212.6 9.958e+03 3.295e-10
 43.42797   -212.9 9.990e+03 3.207e-10
 43.45638   -213.3 9.645e+03 2.501e-10
 43.49818   -213.4 9.280e+03 1.911e-10
 43.52573   -212.7 8.991e+03 1.545e-10
 43.54663   -213.6 8.877e+03 1.438e-10
 43.57540   -212.4 8.784e+03 1.357e-10
 43.59630   -211.8 8.769e+03 1.353e-10
 43.62349   -210.3 8.764e+03 1.346e-10
 43.66528   -209.5 8.836e+03 1.479e-10
 43.70715   -207.7 8.926e+03 1.594e-10
 43.74214   -205.7 9.019e+03 1.742e-10
 43.76304   -206.7 9.158e+03 2.127e-10
 43.79075   -204.5 9.221e+03 2.253e-10
 43.83254   -202.1 9.279e+03 2.360e-10
 43.86080   -199.7 9.370e+03 2.465e-10
 43.88170   -200.8 9.995e+03 3.779e-10
 43.90559   -198.6 9.949e+03 3.549e-10
 43.91993   -197.9 1.023e+04 3.830e-10
 43.93038   -199.6 1.074e+04 5.903e-10
 43.94728   -198.9 1.101e+04 7.145e-10
 43.96818   -198.0 1.128e+04 8.730e-10
 43.97926   -197.1 1.158e+04 1.078e-09
 43.98971   -197.8 1.188e+04 1.367e-09
 44.00998   -197.0 1.212e+04 1.484e-09
 44.02814   -196.2 1.227e+04 1.546e-09
 44.03858   -197.4 1.217e+04 1.443e-09
 44.05177   -196.9 1.224e+04 1.401e-09
 44.07267   -196.6 1.217e+04 1.289e-09
 44.08746   -196.6 1.207e+04 1.181e-09
 44.09791   -198.6 1.146e+04 9.637e-10
 44.11446   -199.0 1.137e+04 9.497e-10
 44.13536   -199.3 1.134e+04 9.587e-10
 44.14679   -199.5 1.148e+04 1.101e-09
 44.15388   -200.4 1.152e+04 1.147e-09
 44.16334   -200.5 1.165e+04 1.267e-09
 44.17716   -200.3 1.191e+04 1.448e-09
 44.19567   -200.1 1.210e+04 1.586e-09
 44.21666   -201.0 1.106e+04 9.774e-10
 44.25050   -201.1 1.084e+04 8.693e-10
 44.29229   -201.1 1.027e+04 6.431e-10
 44.31452   -200.8 9.553e+03 4.427e-10
 44.33542   -200.2 8.781e+03 2.792e-10
 44.37588   -199.3 8.596e+03 2.286e-10
 44.41228   -197.9 8.543e+03 1.903e-10
 44.43317   -197.2 8.358e+03 1.496e-10
 44.45947   -195.3 8.420e+03 1.368e-10
 44.50127   -193.1 8.448e+03 1.217e-10
 44.53093   -190.8 8.434e+03 1.067e-10
 44.55183   -190.0 8.404e+03 1.052e-10
 44.58486   -187.6 8.394e+03 9.635e-11
 44.62665   -185.1 8.380e+03 9.136e-11
 44.64959   -182.6 8.373e+03 8.983e-11
 44.67048   -181.9 8.408e+03 1.068e-10
 44.70988   -179.4 8.481e+03 1.096e-10
 44.73078   -179.4 8.566e+03 1.239e-10
 44.74734   -177.1 8.700e+03 1.413e-10
 44.76824   -176.3 8.776e+03 1.724e-10
 44.79384   -174.1 8.898e+03 1.865e-10
 44.83563   -171.9 9.014e+03 1.993e-10
 44.86600   -169.8 9.120e+03 2.120e-10
 44.88690   -169.0 9.111e+03 2.157e-10
 44.91922   -166.8 9.212e+03 2.251e-10
 44.96102   -164.7 9.330e+03 2.406e-10
 44.98465   -162.5 9.487e+03 2.653e-10
 45.00555   -161.9 9.438e+03 2.460e-10
 45.04461   -159.9 9.663e+03 2.879e-10
 45.08241   -157.9 9.987e+03 3.567e-10
 45.10331   -158.0 9.901e+03 3.231e-10
 45.12820   -156.4 1.039e+04 4.504e-10
 45.16999   -155.6 1.107e+04 6.302e-10
 45.20107   -155.8 1.193e+04 8.604e-10
 45.22196   -158.9 1.259e+04 9.582e-10
 45.24304   -160.4 1.339e+04 1.316e-09
 45.26020   -161.6 1.420e+04 1.845e-09
 45.27065   -163.7 1.439e+04 2.344e-09
 45.28474   -164.8 1.508e+04 3.465e-09
 45.29782   -165.9 1.575e+04 4.592e-09
 45.30827   -167.9 1.536e+04 4.132e-09
 45.31953   -169.4 1.554e+04 4.307e-09
 45.32997   -170.7 1.503e+04 3.158e-09
 45.34743   -173.3 1.481e+04 2.173e-09
 45.36833   -176.9 1.388e+04 1.252e-09
 45.38923   -181.4 1.179e+04 6.610e-10
 45.41738   -183.1 1.127e+04 5.950e-10
 45.43838   -182.2 1.054e+04 3.897e-10
 45.46256   -183.2 1.038e+04 3.752e-10
 45.50436   -183.3 1.047e+04 4.067e-10
 45.53613   -183.0 1.073e+04 4.959e-10
 45.55703   -181.8 1.050e+04 3.679e-10
 45.58795   -180.9 1.077e+04 4.621e-10
 45.62974   -180.0 1.099e+04 5.564e-10
 45.65479   -179.0 1.123e+04 6.542e-10
 45.67569   -178.4 1.109e+04 5.614e-10
 45.71334   -177.6 1.139e+04 6.872e-10
 45.75255   -176.8 1.182e+04 8.747e-10
 45.77344   -176.5 1.171e+04 8.439e-10
 45.79693   -175.8 1.217e+04 1.075e-09
 45.83872   -175.1 1.268e+04 1.369e-09
 45.86515   -174.9 1.289e+04 1.425e-09
 45.87674   -176.4 1.258e+04 1.095e-09
 45.89200   -176.2 1.206e+04 7.453e-10
 45.92221   -176.9 1.188e+04 6.374e-10
 45.96411   -177.3 1.157e+04 5.264e-10
 45.98986   -177.2 1.122e+04 4.557e-10
 46.01075   -177.7 1.123e+04 4.794e-10
 46.04770   -177.7 1.121e+04 4.750e-10
 46.08761   -177.9 1.123e+04 5.030e-10
 46.10841   -178.4 1.189e+04 8.538e-10
 46.12065   -178.8 1.209e+04 9.472e-10
 46.14154   -179.3 1.233e+04 1.097e-09
 46.15390   -179.9 1.257e+04 1.341e-09
 46.15910   -180.1 1.250e+04 1.183e-09
 46.16764   -181.0 1.303e+04 1.872e-09
 46.18334   -181.2 1.336e+04 2.406e-09
 46.20424   -181.3 1.360e+04 2.996e-09
 46.21652   -181.2 1.374e+04 3.458e-09
 46.22697   -181.4 1.390e+04 3.566e-09
 46.24603   -181.4 1.390e+04 3.580e-09
 46.26540   -181.3 1.383e+04 3.399e-09
 46.27585   -182.2 1.391e+04 2.885e-09
 46.28783   -182.5 1.361e+04 2.367e-09
 46.30873   -182.8 1.322e+04 1.872e-09
 46.32473   -183.1 1.276e+04 1.462e-09
 46.33518   -184.8 1.212e+04 1.287e-09
 46.35052   -184.9 1.175e+04 1.083e-09
 46.37142   -185.0 1.152e+04 9.578e-10
 46.38405   -185.2 1.144e+04 8.897e-10
 46.39450   -186.0 1.143e+04 8.730e-10
 46.41321   -186.2 1.144e+04 8.220e-10
 46.43229   -186.5 1.145e+04 7.870e-10
 46.44156   -187.0 1.112e+04 6.363e-10
 46.44338   -188.8 1.123e+04 6.583e-10
 46.45501   -189.2 1.108e+04 6.072e-10
 46.47591   -189.5 1.087e+04 5.518e-10
 46.50735   -189.6 1.063e+04 4.885e-10
 46.54133   -189.2 1.002e+04 3.701e-10
 46.56223   -191.0 9.931e+03 3.668e-10
 46.59104   -190.4 9.487e+03 2.595e-10
 46.63283   -189.9 9.331e+03 2.275e-10
 46.65999   -189.5 9.268e+03 2.179e-10
 46.68089   -190.1 9.246e+03 2.118e-10
 46.71643   -189.5 9.244e+03 2.124e-10
 46.75775   -189.0 9.368e+03 2.362e-10
 46.77864   -188.7 9.212e+03 2.629e-10
 46.80002   -187.9 9.330e+03 2.876e-10
 46.84181   -186.9 9.459e+03 3.101e-10
 46.87640   -185.7 9.563e+03 3.265e-10
 46.89730   -184.8 9.488e+03 3.020e-10
 46.92540   -183.4 9.607e+03 3.120e-10
 46.96720   -182.0 9.754e+03 3.277e-10
 46.99506   -180.5 9.996e+03 3.550e-10
 47.00669   -180.6 9.940e+03 3.807e-10
 47.02062   -180.8 1.017e+04 4.367e-10
 47.05079   -179.5 1.035e+04 5.431e-10
 47.08204   -178.2 1.039e+04 5.923e-10
 47.10284   -177.8 1.051e+04 6.764e-10
 47.11352   -177.1 1.067e+04 7.904e-10
 47.13451   -176.9 1.104e+04 6.854e-10
 47.17618   -175.7 1.118e+04 7.153e-10
 47.20742   -175.0 1.090e+04 6.447e-10
 47.22172   -174.6 1.088e+04 6.066e-10
 47.23227   -176.0 1.057e+04 5.155e-10
 47.25977   -175.2 1.049e+04 4.631e-10
 47.28115   -174.1 1.042e+04 4.271e-10
 47.28896   -174.4 1.036e+04 4.340e-10
 47.29882   -174.8 1.036e+04 4.288e-10
 47.31182   -174.2 1.036e+04 4.145e-10
 47.33003   -173.6 1.038e+04 3.971e-10
 47.35102   -173.4 1.017e+04 4.881e-10
 47.38515   -173.1 1.027e+04 4.655e-10
 47.42695   -173.1 1.040e+04 4.518e-10
 47.44878   -173.9 1.201e+04 4.535e-10
 47.46968   -172.8 1.034e+04 4.991e-10
 47.49756   -174.4 1.112e+04 4.822e-10
 47.50791   -172.2 9.734e+03 4.372e-10
 47.52079   -175.4 1.151e+04 5.746e-10
 47.54169   -178.7 1.443e+04 7.989e-10
 47.55679   -182.7 1.741e+04 2.288e-09
 47.56724   -178.9 1.507e+04 1.276e-09
 47.57722   -182.2 1.763e+04 2.753e-09
 47.58767   -182.0 1.737e+04 2.403e-09
 47.60438   -184.5 1.834e+04 5.140e-09
 47.61612   -186.1 1.818e+04 8.265e-09
 47.62657   -183.6 1.860e+04 4.990e-09
 47.64618   -185.2 1.827e+04 7.768e-09
 47.66499   -186.0 1.793e+04 8.721e-09
 47.67544   -184.3 1.828e+04 7.353e-09
 47.68797   -184.9 1.781e+04 8.511e-09
 47.70887   -184.7 1.743e+04 8.690e-09
 47.72432   -184.3 1.646e+04 7.623e-09
 47.73477   -183.6 1.755e+04 9.174e-09
 47.75067   -183.3 1.670e+04 9.053e-09
 47.77157   -182.8 1.601e+04 6.913e-09
 47.78365   -181.9 1.555e+04 4.241e-09
 47.79410   -181.8 1.619e+04 9.065e-09
 47.81336   -180.8 1.572e+04 6.838e-09
 47.83253   -179.7 1.541e+04 4.413e-09
 47.84298   -180.0 1.631e+04 9.467e-09
 47.85516   -179.2 1.612e+04 8.094e-09
 47.86606   -178.1 1.601e+04 6.022e-09
 47.87651   -178.0 1.600e+04 6.568e-09
 47.89186   -176.9 1.596e+04 4.475e-09
 47.90230   -177.4 1.647e+04 9.873e-09
 47.91785   -176.6 1.637e+04 8.955e-09
 47.93875   -175.6 1.633e+04 7.148e-09
 47.95118   -174.5 1.631e+04 5.037e-09
 47.96163   -174.4 1.542e+04 7.800e-09
 47.98054   -173.5 1.539e+04 7.070e-09
 48.00006   -172.5 1.540e+04 6.169e-09
 48.01051   -171.8 1.488e+04 6.143e-09
 48.02234   -170.8 1.463e+04 5.446e-09
 48.04324   -169.7 1.433e+04 4.951e-09
 48.05939   -168.6 1.425e+04 4.672e-09
 48.06984   -168.1 1.411e+04 4.292e-09
 48.08503   -166.9 1.411e+04 4.284e-09
 48.10593   -165.7 1.417e+04 4.364e-09
 48.11872   -164.7 1.428e+04 4.569e-09
 48.12917   -164.1 1.376e+04 3.449e-09
 48.14446   -163.0 1.400e+04 4.065e-09
 48.15490   -162.9 1.412e+04 4.209e-09
 48.16760   -161.7 1.454e+04 5.096e-09
 48.17804   -161.7 1.454e+04 2.637e-09
 48.18952   -160.4 1.496e+04 3.412e-09
 48.21042   -159.3 1.546e+04 4.381e-09
 48.22692   -158.5 1.609e+04 5.461e-09
 48.23737   -158.9 1.456e+04 1.875e-09
 48.25221   -158.6 1.515e+04 2.258e-09
 48.27311   -158.5 1.643e+04 2.887e-09
 48.28625   -159.3 1.844e+04 4.505e-09
 48.29670   -160.5 1.547e+04 1.051e-09
 48.31491   -161.3 1.879e+04 1.747e-09
 48.33513   -162.7 2.143e+04 3.742e-09
 48.34558   -163.4 1.373e+04 1.119e-09
 48.35670   -165.5 1.561e+04 2.328e-09
 48.37760   -166.6 1.738e+04 5.237e-09
 48.39446   -167.0 1.847e+04 1.005e-08
 48.40491   -166.4 1.576e+04 5.317e-09
 48.41939   -166.5 1.691e+04 8.993e-09
 48.43330   -166.8 1.740e+04 1.160e-08
 48.44375   -165.9 1.783e+04 1.356e-08
 48.45378   -166.1 1.797e+04 1.440e-08
 48.46423   -164.8 1.663e+04 9.489e-09
 48.48209   -164.6 1.664e+04 9.832e-09
 48.50266   -164.3 1.636e+04 9.443e-09
 48.51311   -163.2 1.551e+04 5.504e-09
 48.52388   -162.8 1.514e+04 5.370e-09
 48.54478   -162.2 1.459e+04 4.678e-09
 48.56199   -161.3 1.402e+04 3.840e-09
 48.57244   -160.5 1.368e+04 2.655e-09
 48.58658   -159.7 1.327e+04 2.516e-09
 48.60747   -158.6 1.295e+04 2.351e-09
 48.62132   -157.5 1.271e+04 2.174e-09
 48.63177   -156.9 1.263e+04 1.751e-09
 48.64927   -155.7 1.250e+04 1.786e-09
 48.67017   -154.5 1.242e+04 1.787e-09
 48.69106   -152.9 1.253e+04 1.613e-09
 48.71169   -151.7 1.254e+04 1.679e-09
 48.72214   -151.5 1.263e+04 1.827e-09
 48.72952   -150.3 1.264e+04 1.828e-09
 48.73997   -150.1 1.295e+04 1.763e-09
 48.75376   -149.1 1.298e+04 1.799e-09
 48.77466   -148.1 1.295e+04 1.804e-09
 48.78885   -147.2 1.283e+04 1.740e-09
 48.79930   -147.2 1.326e+04 1.832e-09
 48.81645   -146.2 1.307e+04 1.759e-09
 48.83735   -145.2 1.281e+04 1.562e-09
 48.84818   -144.2 1.254e+04 1.338e-09
 48.85863   -144.2 1.266e+04 1.409e-09
 48.87914   -143.2 1.235e+04 1.145e-09
 48.89706   -142.1 1.206e+04 9.353e-10
 48.90751   -142.2 1.201e+04 9.245e-10
 48.92094   -141.2 1.176e+04 7.496e-10
 48.94184   -140.2 1.158e+04 6.313e-10
 48.95638   -139.2 1.146e+04 5.584e-10
 48.96683   -139.5 1.140e+04 5.567e-10
 48.98363   -138.5 1.128e+04 5.151e-10
 49.00054   -137.4 1.121e+04 5.032e-10
 49.01098   -137.2 1.126e+04 5.383e-10
 49.01571   -136.1 1.126e+04 5.284e-10
 49.02616   -136.4 1.129e+04 5.630e-10
 49.04633   -135.4 1.128e+04 5.659e-10
 49.06459   -134.4 1.125e+04 5.624e-10
 49.07504   -134.4 1.120e+04 5.666e-10
 49.09867   -133.2 1.123e+04 5.500e-10
 49.12411   -131.0 1.122e+04 5.594e-10
 49.14501   -131.5 1.103e+04 5.656e-10
 49.18236   -129.4 1.094e+04 5.951e-10
 49.22187   -128.2 1.116e+04 7.301e-10
 49.24277   -127.3 1.073e+04 5.421e-10
 49.26595   -126.1 1.120e+04 6.741e-10
 49.28948   -125.8 1.192e+04 9.889e-10
 49.29418   -126.4 1.180e+04 1.005e-09
 49.30190   -126.1 1.152e+04 7.419e-10
 49.31800   -126.1 1.176e+04 8.109e-10
 49.33889   -126.9 1.248e+04 1.002e-09
 49.35078   -128.6 1.364e+04 1.565e-09
 49.36123   -128.3 1.232e+04 1.021e-09
 49.38069   -129.9 1.368e+04 1.837e-09
 49.39966   -130.7 1.490e+04 3.443e-09
 49.41011   -129.9 1.386e+04 2.340e-09
 49.42248   -130.3 1.491e+04 3.946e-09
 49.44338   -130.6 1.561e+04 5.715e-09
 49.45898   -131.2 1.582e+04 6.628e-09
 49.46943   -130.2 1.480e+04 4.232e-09
 49.48518   -130.6 1.481e+04 4.367e-09
 49.50608   -130.5 1.447e+04 4.220e-09
 49.51831   -130.2 1.388e+04 3.394e-09
 49.52876   -129.9 1.337e+04 2.284e-09
 49.54787   -129.7 1.293e+04 1.808e-09
 49.56719   -129.6 1.248e+04 1.409e-09
 49.57774   -129.0 1.201e+04 1.115e-09
 49.60031   -128.3 1.134e+04 7.880e-10
 49.64211   -126.7 1.092e+04 5.929e-10
 49.67335   -124.9 1.062e+04 4.566e-10
 49.68585   -124.0 1.057e+04 4.123e-10
 49.69629   -123.3 1.051e+04 3.863e-10
 49.72560   -122.2 1.045e+04 3.452e-10
 49.76749   -120.8 1.037e+04 3.086e-10
 49.79425   -118.7 1.027e+04 2.762e-10
 49.81515   -118.3 1.028e+04 2.861e-10
 49.84636   -116.3 1.023e+04 2.687e-10
 49.86726   -116.5 1.015e+04 2.608e-10
 49.89200   -114.8 1.018e+04 2.612e-10
 49.91290   -114.2 1.018e+04 2.755e-10
 49.93467   -112.5 1.022e+04 2.763e-10
 49.97647   -111.1 1.053e+04 3.238e-10
 50.01066   -110.1 1.092e+04 4.422e-10
 50.03156   -109.2 1.067e+04 3.584e-10
 50.06006   -108.3 1.104e+04 4.906e-10
 50.10186   -107.6 1.128e+04 6.014e-10
 50.12931   -106.9 1.135e+04 6.340e-10
 50.15021   -106.1 1.127e+04 6.066e-10
 50.18545   -105.2 1.124e+04 6.018e-10
 50.22707   -103.7 1.096e+04 4.925e-10
 50.26887   -101.1 1.068e+04 3.495e-10
 50.31083    -99.3 1.035e+04 2.615e-10
 50.34573    -97.1 1.007e+04 2.175e-10
 50.36662    -96.4 1.018e+04 2.071e-10
 50.39442    -94.2 1.009e+04 1.920e-10
 50.42405    -92.0 1.007e+04 1.901e-10
 50.44495    -91.1 1.001e+04 1.916e-10
 50.46438    -88.9 1.012e+04 1.967e-10
 50.48528    -88.7 1.021e+04 1.955e-10
 50.51981    -87.0 1.041e+04 2.443e-10
 50.56161    -85.4 1.064e+04 3.335e-10
 50.58304    -83.7 1.084e+04 4.597e-10
 50.60393    -84.0 1.110e+04 5.383e-10
 50.64520    -82.3 1.127e+04 6.275e-10
 50.68079    -80.7 1.134e+04 6.517e-10
 50.70169    -81.3 1.141e+04 6.306e-10
 50.72879    -79.4 1.134e+04 5.626e-10
 50.75047    -77.4 1.135e+04 5.479e-10
 50.76082    -77.6 1.131e+04 4.718e-10
 50.78084    -76.7 1.122e+04 3.926e-10
 50.79935    -75.8 1.120e+04 3.330e-10
 50.82035    -76.9 1.137e+04 2.880e-10
 50.85417    -75.7 1.123e+04 2.503e-10
 50.89597    -74.3 1.114e+04 2.314e-10
 50.91810    -72.8 1.116e+04 2.298e-10
 50.93900    -74.2 1.137e+04 2.946e-10
 50.97956    -72.9 1.140e+04 3.191e-10
 51.00174    -71.6 1.141e+04 3.474e-10
 51.01714    -71.3 1.146e+04 3.735e-10
 51.03666    -72.2 1.137e+04 3.928e-10
 51.06305    -71.3 1.131e+04 3.791e-10
 51.10495    -70.2 1.111e+04 3.284e-10
 51.13452    -68.9 1.083e+04 2.660e-10
 51.15541    -69.8 1.065e+04 2.144e-10
 51.18854    -68.3 1.046e+04 1.696e-10
 51.23033    -67.0 1.038e+04 1.516e-10
 51.25317    -65.7 1.032e+04 1.472e-10
 51.27407    -66.2 1.013e+04 1.486e-10
 51.31392    -64.8 1.011e+04 1.493e-10
 51.35093    -63.5 1.008e+04 1.556e-10
 51.37183    -63.6 9.956e+03 1.591e-10
 51.39751    -62.2 9.911e+03 1.561e-10
 51.43931    -60.8 9.897e+03 1.471e-10
 51.46958    -59.4 9.877e+03 1.363e-10
 51.49048    -59.5 9.706e+03 1.150e-10
 51.52290    -58.1 9.710e+03 1.014e-10
 51.55852    -56.8 9.731e+03 9.609e-11
 51.57942    -56.7 9.628e+03 1.134e-10
 51.58824    -56.1 9.684e+03 1.139e-10
 51.60914    -56.2 9.357e+03 9.919e-11
 51.64829    -56.3 9.767e+03 1.147e-10
 51.68599    -56.8 1.023e+04 2.382e-10
 51.70689    -56.5 1.025e+04 2.579e-10
 51.72133    -56.3 1.058e+04 4.294e-10
 51.74213    -56.6 1.072e+04 5.203e-10
 51.75558    -56.8 1.094e+04 7.796e-10
 51.76602    -56.6 1.089e+04 7.914e-10
 51.78393    -56.4 1.091e+04 8.543e-10
 51.80445    -56.4 1.081e+04 8.411e-10
 51.81490    -55.9 1.083e+04 8.584e-10
 51.82572    -55.7 1.048e+04 6.678e-10
 51.84662    -56.2 1.018e+04 4.713e-10
 51.85762    -57.4 1.012e+04 3.535e-10
 51.86433    -57.5 9.817e+03 2.757e-10
 51.87423    -56.6 9.635e+03 2.678e-10
 51.88842    -57.5 9.468e+03 2.104e-10
 51.90931    -57.8 9.347e+03 1.924e-10
 51.92311    -57.8 9.302e+03 1.887e-10
 51.93356    -56.7 9.182e+03 1.729e-10
 51.95111    -60.8 1.066e+04 1.859e-10
 51.97199    -73.5 1.977e+04 3.445e-10
 51.99289    -82.3 2.054e+04 8.928e-09
 52.00683    -82.8 2.056e+04 1.521e-08
 52.01200    -82.1 2.036e+04 2.117e-08
 52.01893    -81.6 2.046e+04 3.121e-08
 52.02938    -80.5 2.043e+04 3.998e-08
 52.03644    -79.0 2.041e+04 4.405e-08
 52.04167    -78.0 2.053e+04 4.029e-08
 52.05027    -76.7 2.075e+04 3.732e-08
 52.06072    -75.7 2.137e+04 2.849e-08
 52.06611    -75.3 2.222e+04 1.844e-08
 52.07133    -77.9 2.294e+04 1.038e-08
 52.08162    -80.7 2.234e+04 5.581e-09
 52.09055    -83.7 2.054e+04 3.196e-09
 52.10104    -88.7 1.918e+04 3.102e-09
 52.11829    -92.7 1.421e+04 1.139e-09
 52.13602    -94.4 1.140e+04 5.844e-10
 52.14646    -94.1 1.297e+04 9.074e-10
 52.14997    -94.1 1.126e+04 6.064e-10
 52.16042    -95.0 1.596e+04 1.725e-09
 52.18098    -96.4 1.595e+04 1.372e-09
 52.19885    -97.6 1.622e+04 1.293e-09
 52.20930   -101.4 1.930e+04 6.366e-09
 52.22278   -103.6 1.943e+04 7.456e-09
 52.24368   -104.9 1.903e+04 8.738e-09
 52.25818   -105.3 1.866e+04 9.316e-09
 52.26863   -104.9 1.810e+04 1.745e-08
 52.28020   -104.7 1.753e+04 1.413e-08
 52.28556   -104.4 1.729e+04 1.305e-08
 52.28793   -104.3 1.732e+04 1.338e-08
 52.29297   -104.2 1.721e+04 1.316e-08
 52.30105   -103.8 1.685e+04 1.136e-08
 52.31150   -103.6 1.665e+04 9.800e-09
 52.31741   -103.6 1.648e+04 8.589e-09
 52.32790   -104.0 1.673e+04 5.793e-09
 52.34816   -104.1 1.656e+04 4.002e-09
 52.36638   -105.0 1.616e+04 2.695e-09
 52.37683   -109.0 1.474e+04 9.947e-10
 52.38996   -109.8 1.317e+04 8.932e-10
 52.41086   -110.2 1.246e+04 8.768e-10
 52.42486   -110.0 1.180e+04 9.848e-10
 52.42926   -110.8 1.191e+04 8.799e-10
 52.43616   -111.1 1.193e+04 6.747e-10
 52.45265   -110.5 1.213e+04 8.106e-10
 52.47355   -109.9 1.224e+04 9.608e-10
 52.48504   -109.4 1.223e+04 1.108e-09
 52.49549   -109.8 1.215e+04 8.182e-10
 52.51535   -109.4 1.220e+04 8.995e-10
 52.53392   -108.9 1.212e+04 9.475e-10
 52.54436   -109.2 1.187e+04 7.339e-10
 52.55714   -108.9 1.192e+04 7.217e-10
 52.57804   -108.6 1.182e+04 6.604e-10
 52.59324   -108.4 1.170e+04 5.858e-10
 52.60369   -109.4 1.123e+04 4.833e-10
 52.61984   -109.6 1.118e+04 4.098e-10
 52.64073   -110.0 1.116e+04 3.866e-10
 52.65257   -110.7 1.143e+04 3.817e-10
 52.66302   -111.2 1.089e+04 4.235e-10
 52.68253   -112.0 1.091e+04 4.170e-10
 52.70145   -113.1 1.134e+04 4.178e-10
 52.71172   -112.7 1.106e+04 4.927e-10
 52.71370   -113.5 1.094e+04 5.408e-10
 52.72432   -114.1 1.093e+04 5.447e-10
 52.74522   -114.7 1.108e+04 6.239e-10
 52.76078   -115.2 1.135e+04 7.497e-10
 52.77123   -114.2 1.117e+04 7.406e-10
 52.78702   -114.6 1.141e+04 8.152e-10
 52.80791   -115.1 1.159e+04 8.794e-10
 52.82010   -115.4 1.165e+04 9.017e-10
 52.83055   -114.4 1.169e+04 9.568e-10
 52.84971   -114.7 1.168e+04 9.398e-10
 52.86898   -114.6 1.153e+04 8.374e-10
 52.87943   -114.1 1.173e+04 1.019e-09
 52.89151   -113.8 1.147e+04 8.517e-10
 52.91240   -113.4 1.124e+04 6.899e-10
 52.92831   -113.0 1.105e+04 5.474e-10
 52.93876   -112.3 1.098e+04 6.581e-10
 52.95420   -112.0 1.075e+04 5.002e-10
 52.97510   -111.7 1.055e+04 3.900e-10
 52.98764   -111.4 1.041e+04 3.299e-10
 52.99419   -111.1 1.044e+04 3.429e-10
 53.00254   -111.3 1.039e+04 3.372e-10
 53.02617   -111.1 1.038e+04 2.985e-10
 53.04716   -109.4 1.027e+04 3.386e-10
 53.06933   -108.6 1.006e+04 2.913e-10
 53.11113   -107.5 1.004e+04 2.824e-10
 53.14492   -106.9 1.046e+04 3.319e-10
 53.16582   -105.8 1.024e+04 3.056e-10
 53.19472   -105.8 1.093e+04 4.865e-10
 53.23651   -105.8 1.155e+04 7.846e-10
 53.26357   -106.0 1.188e+04 9.961e-10
 53.27685   -105.4 1.174e+04 9.450e-10
 53.29158   -105.9 1.176e+04 9.404e-10
 53.30956   -106.3 1.176e+04 9.678e-10
 53.32270   -106.6 1.161e+04 9.060e-10
 53.33315   -106.4 1.160e+04 8.968e-10
 53.35126   -106.8 1.126e+04 6.518e-10
 53.37158   -107.3 1.095e+04 4.342e-10
 53.38203   -107.4 1.092e+04 3.983e-10
 53.40360   -108.1 1.063e+04 2.737e-10
 53.44549   -108.5 1.025e+04 1.746e-10
 53.47998   -108.7 9.804e+03 1.123e-10
 53.50088   -108.8 9.808e+03 1.141e-10
 53.52908   -108.0 9.546e+03 9.086e-11
 53.57088   -106.8 9.481e+03 8.597e-11
 53.59864   -105.5 9.472e+03 8.510e-11
 53.61954   -105.2 9.573e+03 8.386e-11
 53.65447   -104.0 9.600e+03 8.413e-11
 53.69626   -103.1 9.668e+03 9.482e-11
 53.73806   -101.7 9.697e+03 1.659e-10
 53.77985   -100.4 9.781e+03 2.194e-10
 53.81505    -98.9 9.923e+03 2.754e-10
 53.83595    -98.1 1.037e+04 3.347e-10
 53.84837    -96.5 1.048e+04 3.678e-10
 53.86927    -97.0 1.059e+04 3.775e-10
 53.90524    -95.6 1.056e+04 3.737e-10
 53.93371    -94.0 1.055e+04 3.674e-10
 53.94406    -94.2 1.076e+04 3.934e-10
 53.95729    -93.4 1.075e+04 3.906e-10
 53.97819    -92.5 1.080e+04 3.912e-10
 53.99284    -91.8 1.091e+04 3.946e-10
 54.00329    -91.7 1.099e+04 4.239e-10
 54.01998    -91.0 1.113e+04 4.525e-10
 54.04088    -90.2 1.127e+04 4.976e-10
 54.05217    -89.5 1.143e+04 5.644e-10
 54.06262    -90.0 1.152e+04 5.979e-10
 54.08268    -89.5 1.172e+04 6.705e-10
 54.10104    -89.4 1.199e+04 8.107e-10
 54.11149    -90.3 1.196e+04 8.234e-10
 54.12447    -91.0 1.278e+04 1.176e-09
 54.13702    -92.7 1.473e+04 2.092e-09
 54.14747    -95.8 1.625e+04 2.874e-09
 54.16037    -97.5 1.802e+04 5.301e-09
 54.17082   -101.2 1.792e+04 7.819e-09
 54.18716   -102.3 1.776e+04 9.398e-09
 54.20806   -103.6 1.744e+04 9.504e-09
 54.21970   -104.7 1.610e+04 7.641e-09
 54.23015   -105.1 1.476e+04 5.926e-09
 54.24986   -106.4 1.364e+04 3.457e-09
 54.26858   -108.1 1.274e+04 2.126e-09
 54.27903   -109.3 1.257e+04 1.065e-09
 54.29165   -110.4 1.196e+04 8.360e-10
 54.31255   -110.6 1.162e+04 7.567e-10
 54.32791   -110.1 1.139e+04 7.144e-10
 54.33835   -111.0 1.100e+04 4.317e-10
 54.35435   -110.1 1.101e+04 4.300e-10
 54.37524   -109.2 1.098e+04 4.210e-10
 54.38723   -108.2 1.087e+04 3.996e-10
 54.40660   -108.9 1.008e+04 3.118e-10
 54.42606   -109.5 9.846e+03 3.172e-10
 54.44858   -107.4 9.833e+03 3.141e-10
 54.48519   -105.2 9.714e+03 2.870e-10
 54.50608   -105.2 9.487e+03 2.890e-10
 54.53217   -102.6 9.272e+03 2.503e-10
 54.57397    -99.8 9.074e+03 2.056e-10
 54.60384    -97.0 8.976e+03 1.645e-10
 54.62474    -96.6 8.931e+03 1.496e-10
 54.65756    -94.0 8.912e+03 1.323e-10
 54.69935    -91.4 8.942e+03 1.225e-10
 54.72250    -88.9 8.965e+03 1.200e-10
 54.74339    -88.7 9.013e+03 1.288e-10
 54.78294    -86.3 9.100e+03 1.467e-10
 54.82025    -83.9 9.199e+03 1.721e-10
 54.84115    -83.4 9.201e+03 1.975e-10
 54.86654    -80.8 9.316e+03 2.304e-10
 54.90833    -78.2 9.402e+03 2.474e-10
 54.93891    -75.6 9.423e+03 2.496e-10
 54.95981    -75.1 9.321e+03 2.270e-10
 54.98285    -72.8 9.408e+03 2.114e-10
 55.00374    -73.9 9.389e+03 1.942e-10
 55.03372    -71.8 9.449e+03 1.800e-10
 55.05756    -69.8 9.462e+03 1.780e-10
 55.07846    -70.0 9.400e+03 2.196e-10
 55.11731    -68.0 9.378e+03 2.270e-10
 55.15532    -65.7 9.356e+03 2.286e-10
 55.17622    -65.3 9.226e+03 2.081e-10
 55.20090    -63.1 9.139e+03 1.675e-10
 55.24269    -61.0 9.035e+03 1.324e-10
 55.27397    -59.1 8.956e+03 1.116e-10
 55.29487    -59.6 8.955e+03 6.407e-11
 55.32628    -57.7 8.925e+03 6.247e-11
 55.36808    -55.6 8.814e+03 6.898e-11
 55.39263    -53.5 8.717e+03 8.441e-11
 55.41353    -53.7 8.753e+03 7.287e-11
 55.45167    -51.2 8.688e+03 9.296e-11
 55.49039    -48.5 8.692e+03 1.151e-10
 55.51128    -48.5 8.671e+03 1.128e-10
 55.53526    -45.9 8.698e+03 1.361e-10
 55.56053    -43.3 8.768e+03 1.599e-10
 55.58143    -43.3 8.735e+03 1.349e-10
 55.60904    -40.8 8.882e+03 1.694e-10
 55.62994    -41.2 8.864e+03 1.525e-10
 55.66065    -39.0 9.000e+03 1.833e-10
 55.70244    -36.9 9.128e+03 2.169e-10
 55.72770    -34.7 9.198e+03 2.464e-10
 55.74859    -35.3 9.063e+03 2.318e-10
 55.78603    -33.1 9.044e+03 2.321e-10
 55.82545    -30.9 8.987e+03 2.173e-10
 55.84635    -31.4 8.859e+03 1.510e-10
 55.86963    -29.7 8.826e+03 1.292e-10
 55.91142    -28.3 8.811e+03 1.229e-10
 55.94411    -27.0 8.863e+03 1.258e-10
 55.96501    -28.8 8.886e+03 1.066e-10
 55.99501    -27.6 8.895e+03 1.372e-10
 56.03681    -26.1 8.917e+03 1.724e-10
 56.06276    -24.7 8.993e+03 2.025e-10
 56.08366    -25.2 8.970e+03 2.016e-10
 56.11732    -24.0 9.078e+03 2.089e-10
 56.13822    -24.0 9.017e+03 1.730e-10
 56.16052    -24.1 9.462e+03 2.057e-10
 56.18142    -25.5 9.393e+03 1.978e-10
 56.20399    -26.0 9.676e+03 3.330e-10
 56.23020    -25.2 9.862e+03 4.399e-10
 56.24055    -25.4 9.887e+03 4.505e-10
 56.25604    -25.2 9.969e+03 5.045e-10
 56.27694    -24.6 1.013e+04 6.010e-10
 56.28943    -24.5 1.011e+04 6.082e-10
 56.29988    -24.6 1.003e+04 5.629e-10
 56.31873    -24.4 9.827e+03 5.443e-10
 56.33831    -23.9 9.736e+03 5.076e-10
 56.34876    -24.2 9.602e+03 4.735e-10
 56.36053    -24.1 9.513e+03 4.320e-10
 56.38142    -23.8 9.556e+03 4.235e-10
 56.39773    -23.8 9.599e+03 4.139e-10
 56.40818    -23.9 9.502e+03 3.994e-10
 56.41642    -23.6 9.580e+03 4.148e-10
 56.42687    -23.6 9.651e+03 4.489e-10
 56.45466    -23.5 9.596e+03 4.233e-10
 56.49559    -22.5 9.371e+03 4.046e-10
 56.51649    -23.0 9.826e+03 5.075e-10
 56.53835    -20.7 9.603e+03 5.043e-10
 56.58015    -18.5 9.434e+03 4.965e-10
 56.61424    -15.8 9.077e+03 3.949e-10
 56.63514    -16.1 9.501e+03 4.556e-10
 56.66374    -13.8 9.170e+03 3.257e-10
 56.69501    -12.1 8.966e+03 2.407e-10
 56.71591    -12.3 9.043e+03 2.681e-10
 56.73290    -10.7 9.023e+03 2.520e-10
 56.75380    -10.8 9.220e+03 2.884e-10
 56.78912    -10.1 9.552e+03 3.870e-10
 56.83066     -8.6 9.926e+03 6.349e-10
 56.85155     -8.6 1.001e+04 6.187e-10
 56.87272     -6.2 1.038e+04 9.375e-10
 56.91451     -4.3 1.068e+04 1.010e-09
 56.94931     -2.6 1.058e+04 8.368e-10
 56.97021     -3.2 1.031e+04 7.006e-10
 56.99810     -1.8 1.010e+04 5.495e-10
 57.03990     -1.2 9.920e+03 4.061e-10
 57.06796     -0.9 9.896e+03 3.799e-10
 57.08886     -0.4 9.943e+03 3.528e-10
 57.12349      0.1 9.907e+03 3.793e-10
 57.15474      0.0 9.973e+03 4.274e-10
 57.17554      0.4 1.005e+04 4.732e-10
 57.18642      0.9 1.006e+04 5.480e-10
 57.19687      1.2 9.883e+03 4.781e-10
 57.21733      2.4 9.884e+03 4.933e-10
 57.24878      3.2 1.014e+04 4.765e-10
 57.27269      4.2 9.804e+03 3.526e-10
 57.28730      3.8 9.637e+03 3.133e-10
 57.30527      4.2 9.649e+03 3.074e-10
 57.33247      4.0 9.617e+03 1.989e-10
 57.37426      3.9 9.346e+03 1.471e-10
 57.40303      4.7 8.910e+03 1.138e-10
 57.42393      5.7 9.088e+03 1.838e-10
 57.45785      6.9 8.855e+03 1.240e-10
 57.49965      8.1 8.639e+03 1.060e-10
 57.52169      9.5 8.607e+03 1.092e-10
 57.54258     10.1 8.754e+03 1.149e-10
 57.58324     11.8 8.734e+03 1.203e-10
 57.61944     13.9 8.740e+03 1.188e-10
 57.64034     14.4 8.820e+03 1.203e-10
 57.66683     16.7 8.784e+03 1.027e-10
 57.70862     18.9 8.785e+03 7.816e-11
 57.73810     21.0 8.789e+03 5.785e-11
 57.75900     21.4 8.827e+03 5.576e-11
 57.79222     23.1 8.860e+03 4.302e-11
 57.82948     24.8 8.914e+03 3.889e-11
 57.85038     24.1 9.104e+03 5.259e-11
 57.85675     25.9 9.114e+03 5.503e-11
 57.87765     25.9 9.173e+03 7.537e-11
 57.91760     28.0 9.115e+03 8.653e-11
 57.95451     30.4 9.109e+03 1.012e-10
 57.97541     31.3 9.109e+03 1.130e-10
 58.00119     34.0 9.114e+03 1.100e-10
 58.04299     36.6 9.156e+03 1.022e-10
 58.07317     39.0 9.233e+03 9.295e-11
 58.09406     39.6 9.304e+03 6.560e-11
 58.12658     41.8 9.437e+03 6.091e-11
 58.16837     44.0 9.467e+03 6.106e-11
 58.19182     46.2 9.502e+03 6.255e-11
 58.21272     46.8 9.460e+03 5.749e-11
 58.25197     49.3 9.460e+03 6.208e-11
 58.28958     51.7 9.449e+03 6.648e-11
 58.31048     52.7 9.438e+03 6.635e-11
 58.33556     55.2 9.457e+03 6.799e-11
 58.37735     57.8 9.460e+03 6.810e-11
 58.40717     60.3 9.483e+03 6.737e-11
 58.41715     60.1 9.518e+03 6.041e-11
 58.42913     61.1 9.564e+03 6.010e-11
 58.46094     63.5 9.679e+03 5.300e-11
 58.50274     65.9 9.733e+03 5.205e-11
 58.52689     68.3 9.766e+03 5.254e-11
 58.54779     69.2 9.925e+03 5.405e-11
 58.58633     71.7 9.947e+03 5.547e-11
 58.62465     74.1 9.983e+03 5.966e-11
 58.64554     75.1 1.009e+04 6.244e-11
 58.66992     77.5 1.015e+04 6.650e-11
 58.71171     79.9 1.021e+04 7.338e-11
 58.74330     82.2 1.031e+04 8.262e-11
 58.76420     82.9 1.051e+04 8.607e-11
 58.79531     85.1 1.052e+04 1.021e-10
 58.83710     87.4 1.052e+04 1.235e-10
 58.86196     89.8 1.054e+04 1.478e-10
 58.88285     90.6 1.056e+04 1.756e-10
 58.92069     93.1 1.059e+04 2.014e-10
 58.95971     95.4 1.078e+04 2.113e-10
 58.98061     96.3 1.069e+04 2.133e-10
 58.98486     98.5 1.082e+04 2.120e-10
 59.00575     98.4 1.108e+04 1.704e-10
 59.04608    100.4 1.117e+04 1.728e-10
 59.07837    102.4 1.122e+04 1.800e-10
 59.09926    103.3 1.105e+04 1.649e-10
 59.12967    105.3 1.114e+04 1.815e-10
 59.17146    107.1 1.123e+04 2.066e-10
 59.19702    108.9 1.132e+04 2.394e-10
 59.21792    109.5 1.142e+04 1.919e-10
 59.25506    111.1 1.154e+04 2.183e-10
 59.29478    112.5 1.159e+04 2.451e-10
 59.31568    112.9 1.157e+04 2.337e-10
 59.33865    114.1 1.155e+04 2.593e-10
 59.38044    115.3 1.143e+04 2.935e-10
 59.41343    116.6 1.129e+04 3.429e-10
 59.43433    117.1 1.131e+04 3.081e-10
 59.46403    118.7 1.118e+04 3.233e-10
 59.50583    120.3 1.115e+04 3.240e-10
 59.53209    121.9 1.111e+04 3.158e-10
 59.54701    122.1 1.108e+04 2.175e-10
 59.56254    121.5 1.117e+04 2.419e-10
 59.58942    122.6 1.111e+04 1.980e-10
 59.62985    123.5 1.089e+04 1.647e-10
 59.65074    123.6 1.049e+04 1.888e-10
 59.67301    124.6 1.033e+04 1.862e-10
 59.71481    125.7 1.031e+04 1.874e-10
 59.74850    126.8 1.029e+04 1.966e-10
 59.76940    127.1 1.031e+04 2.309e-10
 59.79840    128.0 1.038e+04 2.272e-10
 59.84019    128.9 1.047e+04 2.259e-10
 59.86716    129.6 1.054e+04 2.260e-10
 59.88805    129.5 1.058e+04 1.956e-10
 59.92378    130.2 1.062e+04 1.965e-10
 59.96491    130.8 1.078e+04 2.138e-10
 59.98581    130.2 1.073e+04 2.523e-10
 60.00737    130.2 1.077e+04 3.053e-10
 60.03459    130.3 1.085e+04 3.681e-10
 60.04494    130.4 1.056e+04 4.010e-10
 60.05942    131.0 1.051e+04 5.481e-10
 60.08032    131.2 1.070e+04 7.566e-10
 60.09382    131.1 1.116e+04 1.064e-09
 60.10427    131.4 1.140e+04 1.002e-09
 60.11914    130.1 1.243e+04 1.562e-09
 60.12958    130.8 1.237e+04 1.186e-09
 60.14270    129.1 1.340e+04 1.893e-09
 60.15315    128.2 1.377e+04 1.979e-09
 60.16391    126.6 1.459e+04 3.486e-09
 60.18481    125.5 1.493e+04 4.770e-09
 60.20203    124.4 1.491e+04 4.793e-09
 60.21248    123.3 1.545e+04 5.139e-09
 60.22660    122.6 1.505e+04 4.331e-09
 60.24750    121.4 1.434e+04 2.775e-09
 60.26136    119.2 1.339e+04 1.408e-09
 60.27180    117.9 1.350e+04 1.261e-09
 60.29984    113.4 1.214e+04 7.294e-10
 60.34174    107.2 9.951e+03 3.072e-10
 60.38353    106.7 9.527e+03 2.378e-10
 60.41864    107.1 9.351e+03 1.854e-10
 60.43953    106.5 9.346e+03 1.578e-10
 60.46712    107.3 9.183e+03 1.172e-10
 60.50892    108.1 9.119e+03 1.099e-10
 60.53729    109.3 9.147e+03 1.130e-10
 60.55819    109.4 9.099e+03 1.122e-10
 60.59251    110.6 9.162e+03 1.310e-10
 60.63430    110.8 9.365e+03 1.841e-10
 60.65595    110.7 9.755e+03 2.905e-10
 60.67684    111.7 9.513e+03 2.158e-10
 60.71790    110.4 1.025e+04 3.676e-10
 60.75370    109.0 1.097e+04 6.367e-10
 60.77460    110.7 1.035e+04 3.019e-10
 60.80149    108.8 1.081e+04 4.470e-10
 60.84328    106.7 1.088e+04 4.836e-10
 60.87236    105.1 1.074e+04 4.585e-10
 60.89325    106.5 1.044e+04 2.949e-10
 60.92687    105.1 1.019e+04 2.424e-10
 60.96867    104.4 9.872e+03 1.818e-10
 60.99101    104.4 9.640e+03 1.506e-10
 61.01191    105.3 9.616e+03 1.515e-10
 61.05226    105.5 9.628e+03 1.512e-10
 61.08877    106.1 9.673e+03 1.512e-10
 61.10967    106.3 9.998e+03 2.407e-10
 61.13585    107.1 1.002e+04 2.416e-10
 61.17765    108.0 1.004e+04 2.341e-10
 61.20742    108.9 1.003e+04 2.326e-10
 61.22832    109.5 1.014e+04 3.823e-10
 61.25381    110.4 1.017e+04 3.526e-10
 61.27470    109.7 1.025e+04 4.590e-10
 61.30303    110.8 1.045e+04 5.332e-10
 61.32608    111.9 1.065e+04 6.242e-10
 61.34698    112.0 1.089e+04 5.133e-10
 61.38662    112.7 1.109e+04 5.631e-10
 61.42384    113.2 1.134e+04 6.769e-10
 61.44473    112.1 1.165e+04 5.975e-10
 61.47021    112.5 1.192e+04 7.921e-10
 61.51201    113.0 1.209e+04 9.803e-10
 61.54249    113.4 1.216e+04 1.035e-09
 61.56339    111.9 1.212e+04 1.053e-09
 61.59560    112.4 1.203e+04 1.094e-09
 61.63739    112.9 1.194e+04 1.222e-09
 61.66115    113.6 1.199e+04 1.446e-09
 61.68204    113.4 1.176e+04 1.066e-09
 61.72099    114.1 1.201e+04 1.204e-09
 61.75890    114.7 1.207e+04 1.213e-09
 61.77980    114.5 1.162e+04 5.880e-10
 61.80458    115.1 1.162e+04 5.849e-10
 61.83149    115.7 1.156e+04 5.501e-10
 61.85239    115.9 1.138e+04 4.720e-10
 61.87756    116.5 1.129e+04 4.608e-10
 61.89846    116.4 1.078e+04 2.947e-10
 61.92996    117.4 1.075e+04 3.424e-10
 61.97176    118.6 1.077e+04 3.881e-10
 61.99621    119.9 1.087e+04 4.171e-10
 62.01711    120.5 1.068e+04 2.794e-10
 62.05535    121.7 1.087e+04 2.831e-10
 62.09397    122.6 1.089e+04 2.832e-10
 62.11487    122.8 1.072e+04 1.888e-10
 62.13894    123.5 1.077e+04 1.896e-10
 62.18074    124.1 1.078e+04 1.877e-10
 62.21263    124.8 1.077e+04 1.781e-10
 62.23352    125.1 1.065e+04 1.635e-10
 62.26433    126.0 1.064e+04 1.598e-10
 62.30612    127.0 1.064e+04 1.486e-10
 62.33128    128.2 1.068e+04 1.329e-10
 62.35218    128.7 1.081e+04 1.244e-10
 62.38828    129.8 1.088e+04 1.147e-10
 62.40918    130.0 1.082e+04 9.932e-11
 62.42904    131.2 1.083e+04 9.956e-11
 62.44994    131.6 1.082e+04 1.088e-10
 62.47330    133.0 1.082e+04 1.165e-10
 62.51510    134.5 1.082e+04 1.303e-10
 62.54769    136.0 1.083e+04 1.479e-10
 62.56859    136.4 1.089e+04 1.593e-10
 62.59869    138.0 1.091e+04 1.723e-10
 62.64049    139.4 1.094e+04 1.811e-10
 62.66635    140.8 1.099e+04 1.883e-10
 62.68725    141.1 1.097e+04 1.871e-10
 62.72408    142.1 1.106e+04 2.107e-10
 62.76410    142.7 1.120e+04 2.583e-10
 62.78500    142.7 1.131e+04 2.837e-10
 62.80767    143.2 1.142e+04 3.740e-10
 62.84946    143.5 1.147e+04 4.445e-10
 62.88276    143.6 1.146e+04 4.522e-10
 62.90366    143.6 1.149e+04 3.856e-10
 62.93305    143.7 1.138e+04 3.406e-10
 62.96597    143.9 1.129e+04 2.799e-10
 62.98686    143.5 1.139e+04 3.237e-10
 63.00141    143.6 1.123e+04 2.825e-10
 63.02231    143.6 1.120e+04 2.060e-10
 63.05844    144.0 1.114e+04 2.063e-10
 63.09917    144.6 1.111e+04 2.145e-10
 63.12007    144.9 1.106e+04 1.797e-10
 63.14203    145.8 1.102e+04 2.122e-10
 63.18383    146.9 1.107e+04 2.660e-10
 63.21783    147.9 1.119e+04 3.094e-10
 63.23872    148.6 1.109e+04 2.923e-10
 63.26742    149.6 1.116e+04 3.010e-10
 63.30921    150.6 1.117e+04 2.967e-10
 63.33648    151.7 1.116e+04 2.756e-10
 63.35738    152.7 1.110e+04 2.684e-10
 63.39280    153.8 1.112e+04 2.464e-10
 63.43424    154.9 1.113e+04 2.142e-10
 63.45514    155.9 1.111e+04 2.082e-10
 63.47639    157.0 1.112e+04 1.783e-10
 63.51819    157.9 1.109e+04 1.505e-10
 63.54365    158.9 1.104e+04 1.386e-10
 63.55746    158.7 1.104e+04 1.413e-10
 63.57379    159.7 1.112e+04 1.285e-10
 63.60178    160.7 1.107e+04 1.225e-10
 63.64358    161.7 1.106e+04 1.231e-10
 63.67155    162.7 1.101e+04 1.325e-10
 63.69245    163.7 1.102e+04 1.189e-10
 63.72717    164.8 1.095e+04 1.308e-10
 63.76896    165.9 1.096e+04 1.494e-10
 63.79020    166.8 1.101e+04 1.601e-10
 63.81110    167.8 1.102e+04 1.336e-10
 63.85255    168.6 1.105e+04 1.330e-10
 63.88796    169.3 1.105e+04 1.288e-10
 63.90886    170.3 1.109e+04 1.128e-10
 63.93614    171.0 1.109e+04 1.027e-10
 63.97794    171.8 1.106e+04 8.922e-11
 64.00662    172.7 1.099e+04 7.755e-11
 64.02751    173.6 1.103e+04 8.027e-11
 64.06153    174.8 1.097e+04 7.830e-11
 64.10044    176.1 1.096e+04 7.882e-11
 64.12134    176.2 1.097e+04 7.715e-11
 64.12527    177.5 1.095e+04 8.377e-11
 64.14617    178.4 1.102e+04 9.699e-11
 64.18692    179.7 1.100e+04 1.179e-10
 64.22303    181.2 1.101e+04 1.470e-10
 64.24393    182.1 1.106e+04 1.763e-10
 64.27051    183.6 1.111e+04 2.087e-10
 64.31230    184.9 1.118e+04 2.273e-10
 64.34168    186.1 1.120e+04 2.262e-10
 64.36258    186.9 1.124e+04 2.518e-10
 64.39589    188.0 1.124e+04 2.448e-10
 64.43769    189.0 1.121e+04 2.299e-10
 64.46034    190.2 1.117e+04 2.101e-10
 64.48124    191.0 1.122e+04 2.255e-10
 64.52128    192.2 1.119e+04 2.068e-10
 64.55809    193.5 1.117e+04 1.898e-10
 64.57899    194.3 1.122e+04 2.181e-10
 64.60487    195.5 1.121e+04 2.097e-10
 64.64667    196.6 1.119e+04 1.999e-10
 64.67675    197.5 1.115e+04 1.865e-10
 64.68731    198.3 1.130e+04 2.545e-10
 64.69903    198.5 1.137e+04 2.593e-10
 64.73026    199.0 1.132e+04 2.536e-10
 64.77205    199.6 1.122e+04 2.345e-10
 64.79540    200.2 1.108e+04 1.964e-10
 64.81630    200.9 1.123e+04 2.549e-10
 64.85564    201.5 1.104e+04 1.875e-10
 64.89316    202.3 1.091e+04 1.271e-10
 64.91406    202.9 1.097e+04 1.429e-10
 64.93923    203.7 1.088e+04 9.232e-11
 64.98103    204.4 1.081e+04 6.347e-11
 65.01182    205.3 1.052e+04 5.549e-11
 65.03271    205.8 1.069e+04 6.308e-11
 65.06462    206.9 1.051e+04 6.222e-11
 65.10642    208.0 1.047e+04 6.179e-11
 65.13047    209.2 1.046e+04 6.173e-11
 65.15137    209.7 1.053e+04 8.301e-11
 65.19001    210.8 1.046e+04 8.232e-11
 65.22823    211.7 1.043e+04 8.275e-11
 65.24913    212.1 1.049e+04 1.304e-10
 65.25581    212.9 1.042e+04 1.244e-10
 65.27671    212.9 1.043e+04 1.517e-10
 65.31539    213.7 1.037e+04 1.390e-10
 65.34688    214.4 1.030e+04 1.278e-10
 65.36778    214.8 1.036e+04 1.636e-10
 65.39898    215.6 1.025e+04 1.318e-10
 65.44078    216.6 1.015e+04 1.056e-10
 65.46554    217.7 1.005e+04 8.443e-11
 65.48644    218.2 1.005e+04 7.838e-11
 65.52437    219.4 9.987e+03 6.009e-11
 65.56330    220.5 9.964e+03 4.740e-11
 65.58419    221.1 9.935e+03 4.526e-11
 65.60796    222.3 9.906e+03 3.686e-11
 65.64976    223.6 9.850e+03 3.091e-11
 65.68195    224.9 9.737e+03 2.721e-11
 65.70285    225.9 9.742e+03 2.716e-11
 65.73335    227.5 9.546e+03 2.584e-11
 65.77514    229.3 9.472e+03 2.588e-11
 65.80061    231.3 9.466e+03 2.595e-11
 65.81717    232.4 9.487e+03 2.566e-11
 65.83350    232.5 9.457e+03 3.268e-11
 65.85873    234.5 9.442e+03 3.317e-11
 65.89836    236.5 9.414e+03 3.525e-11
 65.91926    237.6 9.467e+03 3.376e-11
 65.94232    239.6 9.458e+03 3.747e-11
 65.98412    241.5 9.471e+03 4.418e-11
 66.01702    243.4 9.506e+03 5.416e-11
 66.03792    244.6 9.561e+03 4.808e-11
 66.06771    246.4 9.607e+03 5.857e-11
 66.10951    248.1 9.657e+03 7.106e-11
 66.13567    249.6 9.700e+03 8.466e-11
 66.15657    250.8 9.746e+03 7.278e-11
 66.19310    252.3 9.780e+03 8.583e-11
 66.23343    253.8 9.810e+03 1.012e-10
 66.25433    254.9 9.846e+03 9.039e-11
 66.27669    256.3 9.884e+03 1.093e-10
 66.31848    257.6 9.941e+03 1.344e-10
 66.35208    258.7 1.003e+04 1.657e-10
 66.37298    259.8 1.009e+04 1.615e-10
 66.39029    260.7 1.018e+04 1.991e-10
 66.41119    260.3 1.031e+04 2.822e-10
 66.44387    261.0 1.039e+04 2.996e-10
 66.47074    261.4 1.039e+04 2.967e-10
 66.49164    262.4 1.054e+04 3.506e-10
 66.52746    262.9 1.050e+04 3.295e-10
 66.56850    263.5 1.038e+04 2.794e-10
 66.58939    264.4 1.056e+04 3.381e-10
 66.61105    265.2 1.038e+04 2.578e-10
 66.65285    266.2 1.018e+04 1.880e-10
 66.68715    267.3 1.001e+04 1.428e-10
 66.70805    267.9 1.009e+04 1.556e-10
 66.73644    269.3 1.000e+04 1.412e-10
 66.77823    270.9 9.997e+03 1.411e-10
 66.80581    272.6 1.000e+04 1.430e-10
 66.82670    273.0 1.010e+04 1.639e-10
 66.86182    274.6 1.013e+04 1.752e-10
 66.90356    276.1 1.021e+04 1.977e-10
 66.94536    277.9 1.040e+04 2.560e-10
 66.96798    279.3 1.051e+04 2.836e-10
 66.98887    278.9 1.036e+04 2.624e-10
 67.02222    280.1 1.049e+04 2.903e-10
 67.04312    280.3 1.052e+04 2.840e-10
 67.07080    281.3 1.071e+04 3.164e-10
 67.11260    282.0 1.097e+04 3.618e-10
 67.14087    282.1 1.126e+04 4.089e-10
 67.16177    281.6 1.134e+04 3.583e-10
 67.19619    281.1 1.145e+04 3.605e-10
 67.23798    280.3 1.145e+04 3.542e-10
 67.25953    279.4 1.138e+04 3.245e-10
 67.28043    278.6 1.119e+04 2.620e-10
 67.32157    278.1 1.098e+04 2.132e-10
 67.35729    277.7 1.070e+04 1.697e-10
 67.37818    277.1 1.047e+04 1.485e-10
 67.40516    276.8 1.029e+04 1.419e-10
 67.44696    276.7 1.028e+04 1.417e-10
 67.47594    276.6 1.029e+04 1.437e-10
 67.49684    276.3 1.031e+04 1.491e-10
 67.52476    276.0 1.033e+04 1.531e-10
 67.54566    276.3 1.028e+04 1.455e-10
 67.57235    276.0 1.027e+04 1.436e-10
 67.59460    275.7 1.021e+04 1.362e-10
 67.61549    275.7 1.020e+04 1.407e-10
 67.65594    275.6 1.009e+04 1.231e-10
 67.69235    275.6 9.962e+03 1.027e-10
 67.71325    275.9 9.974e+03 1.119e-10
 67.73953    276.0 9.860e+03 9.802e-11
 67.78132    276.2 9.775e+03 9.255e-11
 67.81101    276.3 9.751e+03 9.237e-11
 67.83191    276.9 9.879e+03 1.103e-10
 67.86491    276.9 9.864e+03 1.080e-10
 67.90671    276.8 9.838e+03 1.045e-10
 67.92966    276.8 9.792e+03 9.933e-11
 67.95056    277.0 9.907e+03 1.155e-10
 67.99030    276.9 9.813e+03 1.055e-10
 68.02742    276.9 9.681e+03 1.004e-10
 68.04832    277.0 9.835e+03 1.141e-10
 68.07389    277.1 9.681e+03 1.110e-10
 68.10245    277.3 9.672e+03 1.113e-10
 68.12335    277.4 9.678e+03 1.148e-10
 68.14607    277.7 9.658e+03 1.160e-10
 68.16697    277.6 9.686e+03 1.205e-10
 68.19928    278.0 9.634e+03 1.211e-10
 68.24107    278.5 9.612e+03 1.221e-10
 68.26473    279.2 9.581e+03 1.248e-10
 68.28563    279.1 9.580e+03 1.189e-10
 68.32466    279.9 9.558e+03 1.216e-10
 68.36249    280.7 9.569e+03 1.312e-10
 68.38338    280.8 9.537e+03 1.178e-10
 68.40825    281.5 9.615e+03 1.358e-10
 68.45005    282.1 9.738e+03 1.598e-10
 68.48114    282.5 9.841e+03 1.748e-10
 68.50204    282.8 9.846e+03 1.837e-10
 68.53364    283.0 9.899e+03 1.895e-10
 68.57544    283.2 9.892e+03 1.872e-10
 68.59980    283.5 9.843e+03 1.741e-10
 68.62069    283.8 9.901e+03 1.951e-10
 68.65903    284.2 9.821e+03 1.784e-10
 68.68014    284.5 9.719e+03 1.602e-10
 68.69777    284.1 9.789e+03 1.740e-10
 68.71845    284.5 9.834e+03 1.861e-10
 68.74262    284.8 9.780e+03 1.817e-10
 68.78441    285.0 9.773e+03 1.818e-10
 68.81621    285.2 9.769e+03 1.847e-10
 68.83711    285.4 9.789e+03 1.958e-10
 68.86800    285.4 9.804e+03 2.099e-10
 68.90980    285.3 9.945e+03 2.430e-10
 68.93486    285.1 1.020e+04 3.000e-10
 68.95576    284.9 1.028e+04 3.139e-10
 68.99339    284.2 1.066e+04 4.084e-10
 69.03262    283.0 1.109e+04 5.482e-10
 69.05352    281.7 1.118e+04 5.746e-10
 69.07698    279.7 1.154e+04 7.332e-10
 69.11878    277.2 1.186e+04 8.666e-10
 69.15128    273.9 1.208e+04 8.894e-10
 69.17217    271.7 1.205e+04 8.940e-10
 69.20237    267.6 1.206e+04 8.825e-10
 69.23693    263.4 1.199e+04 8.297e-10
 69.25782    261.6 1.210e+04 9.708e-10
 69.26993    257.8 1.198e+04 1.006e-09
 69.29083    256.8 1.199e+04 1.020e-09
 69.32775    253.9 1.193e+04 1.024e-09
 69.36769    251.6 1.182e+04 1.019e-09
 69.38859    251.1 1.171e+04 9.609e-10
 69.41135    249.3 1.162e+04 9.388e-10
 69.45314    247.5 1.152e+04 9.039e-10
 69.48634    245.6 1.138e+04 8.233e-10
 69.50724    245.4 1.124e+04 7.593e-10
 69.53673    243.6 1.103e+04 6.326e-10
 69.57853    241.7 1.069e+04 4.578e-10
 69.60500    239.8 1.023e+04 2.901e-10
 69.62590    240.0 1.024e+04 3.042e-10
 69.66212    238.4 9.678e+03 1.879e-10
 69.70276    237.1 9.113e+03 1.410e-10
 69.72365    237.5 9.343e+03 1.586e-10
 69.74571    236.9 9.073e+03 1.404e-10
 69.78750    236.7 9.065e+03 1.410e-10
 69.81461    236.5 9.060e+03 1.455e-10
 69.82762    236.3 9.141e+03 1.570e-10
 69.84231    236.3 9.152e+03 1.527e-10
 69.87110    236.0 9.148e+03 1.533e-10
 69.91289    235.9 9.140e+03 1.556e-10
 69.94006    235.9 9.139e+03 1.609e-10
 69.96096    235.8 9.082e+03 1.402e-10
 69.99648    235.8 9.087e+03 1.481e-10
 70.03782    235.6 9.155e+03 1.742e-10
 70.05872    235.7 9.074e+03 1.528e-10
 70.08007    235.4 9.320e+03 2.153e-10
 70.12187    234.9 9.883e+03 3.489e-10
 70.15648    233.8 1.071e+04 6.124e-10
 70.17737    233.9 1.069e+04 5.977e-10
 70.20546    232.1 1.151e+04 9.851e-10
 70.24725    229.7 1.204e+04 1.218e-09
 70.27513    226.6 1.208e+04 1.206e-09
 70.29603    226.6 1.196e+04 1.108e-09
 70.33084    223.7 1.175e+04 9.679e-10
 70.37140    221.5 1.116e+04 6.678e-10
 70.39230    219.9 1.090e+04 5.152e-10
 70.39379    218.3 9.897e+03 2.882e-10
 70.41468    218.2 9.814e+03 2.657e-10
 70.45623    217.6 9.430e+03 2.193e-10
 70.49154    217.4 9.415e+03 2.195e-10
 70.51244    217.6 9.407e+03 2.086e-10
 70.53982    217.6 9.425e+03 2.211e-10
 70.58162    217.7 9.597e+03 2.674e-10
 70.61020    217.7 9.944e+03 3.452e-10
 70.63110    217.4 9.961e+03 3.316e-10
 70.66521    217.0 1.029e+04 3.984e-10
 70.70700    216.3 1.041e+04 4.054e-10
 70.72885    215.4 1.040e+04 3.923e-10
 70.74975    214.8 1.032e+04 3.540e-10
 70.79059    214.0 1.022e+04 3.165e-10
 70.82661    213.5 1.002e+04 2.611e-10
 70.84751    213.1 1.004e+04 2.888e-10
 70.87419    212.7 9.935e+03 2.626e-10
 70.91598    212.3 9.846e+03 2.399e-10
 70.94527    212.1 9.777e+03 2.210e-10
 70.95747    212.0 9.987e+03 2.890e-10
 70.96998    211.2 1.002e+04 2.932e-10
 70.99957    211.1 9.940e+03 2.621e-10
 71.04137    210.9 9.894e+03 2.378e-10
 71.06392    210.8 9.899e+03 2.329e-10
 71.08482    210.2 1.003e+04 2.440e-10
 71.12496    209.7 1.004e+04 2.543e-10
 71.16168    209.2 1.009e+04 2.732e-10
 71.18258    208.5 1.019e+04 2.772e-10
 71.20855    207.7 1.021e+04 2.840e-10
 71.25034    207.1 1.019e+04 2.810e-10
 71.28033    206.6 1.011e+04 2.621e-10
 71.30123    205.9 1.005e+04 2.391e-10
 71.33394    205.5 9.900e+03 1.955e-10
 71.37573    205.1 9.744e+03 1.559e-10
 71.39899    204.7 9.621e+03 1.288e-10
 71.41989    203.9 9.571e+03 1.247e-10
 71.45932    203.6 9.533e+03 1.166e-10
 71.49675    203.4 9.509e+03 1.105e-10
 71.51764    202.9 9.547e+03 1.353e-10
 71.52677    202.7 9.570e+03 1.417e-10
 71.54767    203.0 9.741e+03 1.909e-10
 71.58471    202.7 9.828e+03 2.039e-10
 71.61540    202.4 9.895e+03 2.104e-10
 71.63630    201.7 1.015e+04 2.857e-10
 71.66830    201.1 1.016e+04 2.795e-10
 71.71009    200.5 1.016e+04 2.526e-10
 71.73406    199.9 1.010e+04 2.093e-10
 71.75495    198.7 1.025e+04 2.261e-10
 71.79368    197.9 1.014e+04 1.835e-10
 71.83181    197.2 1.010e+04 1.760e-10
 71.85271    195.8 1.019e+04 1.980e-10
 71.87728    195.4 1.020e+04 1.960e-10
 71.91907    195.2 1.021e+04 1.929e-10
 71.95047    195.2 1.021e+04 1.856e-10
 71.97136    194.1 1.021e+04 1.662e-10
 72.00266    194.1 1.019e+04 1.423e-10
 72.04446    194.0 1.017e+04 1.159e-10
 72.06912    194.0 1.015e+04 9.177e-11
 72.08733    193.0 1.011e+04 7.477e-11
 72.10446    191.9 1.008e+04 5.827e-11
 72.12805    192.0 1.000e+04 5.527e-11
 72.16688    192.2 1.000e+04 5.535e-11
 72.18778    191.7 1.001e+04 5.604e-11
 72.21164    191.9 1.007e+04 5.926e-11
 72.25343    192.0 1.020e+04 7.009e-11
 72.28553    191.5 1.040e+04 9.313e-11
 72.30643    190.8 1.042e+04 1.094e-10
 72.33703    190.1 1.068e+04 1.572e-10
 72.37882    189.1 1.101e+04 2.263e-10
 72.40409    188.2 1.122e+04 2.740e-10
 72.41444    187.4 1.125e+04 3.008e-10
 72.43087    186.5 1.161e+04 3.974e-10
 72.45177    185.0 1.212e+04 6.124e-10
 72.46332    183.3 1.262e+04 9.400e-10
 72.47377    182.6 1.274e+04 1.053e-09
 72.49356    180.8 1.318e+04 1.375e-09
 72.51220    178.8 1.348e+04 1.448e-09
 72.52265    178.1 1.350e+04 1.521e-09
 72.53536    175.8 1.350e+04 1.505e-09
 72.55626    173.4 1.340e+04 1.400e-09
 72.57153    171.3 1.308e+04 1.193e-09
 72.58198    170.8 1.302e+04 1.262e-09
 72.59805    169.0 1.265e+04 1.052e-09
 72.61895    167.4 1.237e+04 9.066e-10
 72.63085    166.0 1.220e+04 8.331e-10
 72.64130    165.9 1.225e+04 9.089e-10
 72.66074    164.8 1.218e+04 8.609e-10
 72.67150    163.9 1.213e+04 8.235e-10
 72.68004    164.0 1.205e+04 7.847e-10
 72.69018    164.0 1.207e+04 8.523e-10
 72.70254    163.2 1.198e+04 7.818e-10
 72.72344    162.5 1.186e+04 6.960e-10
 72.73906    161.8 1.170e+04 5.964e-10
 72.74951    161.8 1.166e+04 6.211e-10
 72.76523    161.2 1.144e+04 5.052e-10
 72.78613    160.7 1.125e+04 3.998e-10
 72.79839    160.1 1.110e+04 3.228e-10
 72.80884    160.2 1.106e+04 3.752e-10
 72.83692    159.4 1.095e+04 3.032e-10
 72.85791    159.8 1.118e+04 4.107e-10
 72.88037    159.3 1.099e+04 3.630e-10
 72.90669    159.1 1.078e+04 3.195e-10
 72.91704    159.2 1.087e+04 3.514e-10
 72.93242    159.2 1.080e+04 3.498e-10
 72.94990    159.2 1.080e+04 3.539e-10
 72.96034    158.9 1.092e+04 4.063e-10
 72.96592    158.9 1.097e+04 4.336e-10
 72.97637    159.0 1.096e+04 4.091e-10
 72.99511    158.8 1.105e+04 4.502e-10
 73.01480    158.6 1.124e+04 5.190e-10
 73.02525    158.6 1.118e+04 4.693e-10
 73.03690    158.3 1.146e+04 5.716e-10
 73.05780    157.6 1.198e+04 7.770e-10
 73.07413    157.0 1.276e+04 1.172e-09
 73.08458    157.3 1.222e+04 9.236e-10
 73.09960    156.8 1.297e+04 1.354e-09
 73.12049    156.4 1.366e+04 1.922e-09
 73.13346    156.1 1.408e+04 2.327e-09
 73.14390    156.2 1.356e+04 1.787e-09
 73.16229    155.5 1.363e+04 1.813e-09
 73.18233    154.8 1.351e+04 1.742e-09
 73.19278    154.9 1.310e+04 1.428e-09
 73.20409    154.7 1.288e+04 1.282e-09
 73.22498    154.7 1.251e+04 1.090e-09
 73.23874    154.9 1.199e+04 8.425e-10
 73.24497    154.6 1.154e+04 6.533e-10
 73.25211    154.9 1.158e+04 5.433e-10
 73.26678    154.9 1.132e+04 4.474e-10
 73.28768    155.1 1.103e+04 4.049e-10
 73.30099    155.2 1.090e+04 4.032e-10
 73.31144    155.3 1.090e+04 3.379e-10
 73.32947    155.6 1.088e+04 3.380e-10
 73.34987    156.0 1.089e+04 3.411e-10
 73.36032    155.8 1.096e+04 3.101e-10
 73.37127    156.1 1.099e+04 3.310e-10
 73.39216    156.3 1.117e+04 3.621e-10
 73.40919    156.2 1.143e+04 4.241e-10
 73.41964    155.3 1.168e+04 4.536e-10
 73.43396    155.1 1.188e+04 5.751e-10
 73.45486    155.0 1.204e+04 7.427e-10
 73.46852    155.0 1.220e+04 9.503e-10
 73.47897    155.0 1.209e+04 9.726e-10
 73.49665    155.4 1.221e+04 1.109e-09
 73.51713    156.0 1.232e+04 1.198e-09
 73.52743    155.7 1.243e+04 1.183e-09
 73.52785    155.3 1.248e+04 8.338e-10
 73.53845    155.4 1.248e+04 6.642e-10
 73.55935    155.1 1.243e+04 5.074e-10
 73.57673    154.3 1.220e+04 3.596e-10
 73.58718    152.8 1.146e+04 2.405e-10
 73.60114    152.4 1.117e+04 2.299e-10
 73.62204    152.2 1.084e+04 2.209e-10
 73.63606    152.1 1.064e+04 2.184e-10
 73.64660    152.2 1.013e+04 1.755e-10
 73.67448    152.8 1.011e+04 1.763e-10
 73.71627    153.5 1.016e+04 1.882e-10
 73.74446    153.4 1.031e+04 2.150e-10
 73.76535    153.8 1.034e+04 2.007e-10
 73.78932    153.5 1.039e+04 2.097e-10
 73.80359    153.1 1.044e+04 2.153e-10
 73.80990    153.2 1.055e+04 2.146e-10
 73.81643    153.4 1.058e+04 2.086e-10
 73.83102    148.8 1.277e+04 2.662e-10
 73.84664    145.3 1.406e+04 3.284e-10
 73.85704    142.4 1.557e+04 4.193e-10
 73.86282    132.4 2.237e+04 9.514e-10
 73.86804    123.6 2.675e+04 2.188e-09
 73.87794     98.3 3.134e+04 2.895e-08
 73.88726     82.2 2.984e+04 8.922e-08
 73.89248     79.9 2.887e+04 7.865e-08
 73.89884     72.9 2.865e+04 6.166e-08
 73.90929     66.8 2.963e+04 2.517e-08
 73.91692     58.6 3.138e+04 6.604e-09
 73.92215     63.4 3.564e+04 4.082e-09
 73.93546     47.0 3.696e+04 7.329e-10
 73.95640     27.6 1.248e+04 5.354e-10
 73.97112     25.9 1.020e+04 4.804e-10
 73.98157     25.5 1.004e+04 4.225e-10
 73.99820     25.7 9.833e+03 3.731e-10
 74.01910     25.9 9.757e+03 3.374e-10
 74.05054     25.9 9.548e+03 3.010e-10
 74.07952     26.4 9.178e+03 2.654e-10
 74.10042     26.3 9.107e+03 2.631e-10
 74.13423     26.8 8.868e+03 2.425e-10
 74.17602     27.4 8.647e+03 2.169e-10
 74.19818     27.7 8.420e+03 1.868e-10
 74.21908     28.0 8.410e+03 1.824e-10
 74.25962     27.9 8.178e+03 1.557e-10
 74.29594     27.6 8.139e+03 1.547e-10
 74.31683     27.8 7.989e+03 1.376e-10
 74.34321     27.6 7.982e+03 1.403e-10
 74.37341     27.5 7.963e+03 1.430e-10
 74.39431     27.6 7.898e+03 1.334e-10
 74.41459     27.5 7.881e+03 1.328e-10
 74.43549     27.7 7.760e+03 1.182e-10
 74.46859     27.6 7.697e+03 1.137e-10
 74.51039     27.6 7.641e+03 1.076e-10
 74.53325     27.6 7.642e+03 1.074e-10
 74.55414     27.9 7.632e+03 1.061e-10
 74.59398     27.9 7.687e+03 1.107e-10
 74.63100     27.8 7.836e+03 1.246e-10
 74.65190     27.6 8.043e+03 1.420e-10
 74.67757     27.1 8.421e+03 1.932e-10
 74.71937     26.5 9.190e+03 3.303e-10
 74.74966     26.1 9.685e+03 4.626e-10
 74.76001     26.2 9.727e+03 4.783e-10
 74.77141     26.0 1.002e+04 5.716e-10
 74.79231     25.9 1.032e+04 6.813e-10
 74.80879     25.8 1.057e+04 7.589e-10
 74.81924     25.8 1.064e+04 7.822e-10
 74.83411     25.4 1.063e+04 7.540e-10
 74.85500     25.2 1.060e+04 7.354e-10
 74.86822     25.1 1.034e+04 6.185e-10
 74.88921     25.1 1.036e+04 6.226e-10
 74.92834     25.0 9.959e+03 4.554e-10
 74.95110     24.8 9.588e+03 3.385e-10
 74.96793     25.0 9.622e+03 3.540e-10
 74.98697     25.0 9.753e+03 3.746e-10
 75.01193     25.0 9.569e+03 3.223e-10
 75.05373     25.5 9.410e+03 2.872e-10
 75.08473     26.4 9.283e+03 2.544e-10
 75.10562     26.3 9.455e+03 2.740e-10
 75.13732     27.3 9.356e+03 2.394e-10
 75.17911     28.3 9.332e+03 2.197e-10
 75.20338     29.3 9.361e+03 2.209e-10
 75.22428     28.9 9.382e+03 2.156e-10
 75.26271     30.0 9.459e+03 2.207e-10
 75.30114     31.2 9.538e+03 2.371e-10
 75.32204     30.8 9.402e+03 2.023e-10
 75.34630     31.8 9.498e+03 2.226e-10
 75.38809     32.7 9.674e+03 2.678e-10
 75.41979     33.3 9.937e+03 3.358e-10
 75.44069     31.9 1.021e+04 3.805e-10
 75.46114     32.1 1.042e+04 4.907e-10
 75.47892     32.6 1.063e+04 6.093e-10
 75.48937     32.1 1.100e+04 7.599e-10
 75.50283     32.8 1.115e+04 8.388e-10
 75.51814     33.2 1.118e+04 8.375e-10
 75.52859     33.1 1.132e+04 8.897e-10
 75.53825     33.4 1.121e+04 8.373e-10
 75.54870     32.8 1.156e+04 9.951e-10
 75.56553     33.0 1.133e+04 8.766e-10
 75.58643     33.0 1.110e+04 7.533e-10
 75.59758     32.8 1.087e+04 6.393e-10
 75.60803     31.6 1.120e+04 7.873e-10
 75.62822     31.0 1.100e+04 7.186e-10
 75.64646     30.5 1.099e+04 7.231e-10
 75.65691     28.7 1.190e+04 1.080e-09
 75.67002     25.8 1.311e+04 1.434e-09
 75.69091     18.9 1.641e+04 3.362e-09
 75.70579     12.6 1.878e+04 8.984e-09
 75.71623     10.6 1.984e+04 1.547e-08
 75.72744      9.0 2.023e+04 1.867e-08
 75.73535      7.7 2.052e+04 2.132e-08
 75.74058      7.1 2.062e+04 2.175e-08
 75.74828      5.3 2.083e+04 2.028e-08
 75.75873      3.9 2.078e+04 1.725e-08
 75.76502     -2.2 2.234e+04 1.197e-08
 75.77551     -6.4 2.248e+04 9.427e-09
 75.79540    -22.6 2.004e+04 5.828e-09
 75.80698    -31.7 1.518e+04 4.470e-09
 75.81512    -31.4 1.453e+04 3.344e-09
 75.82444    -32.7 1.395e+04 3.251e-09
 75.83720    -33.7 1.355e+04 2.990e-09
 75.85810    -35.9 1.343e+04 2.418e-09
 75.87332    -43.2 1.470e+04 1.965e-09
 75.88377    -45.0 1.534e+04 2.047e-09
 75.89989    -63.5 2.022e+04 2.523e-09
 75.92079    -83.7 2.698e+04 7.822e-09
 75.93265    -99.6 2.862e+04 1.403e-08
 75.94310   -102.1 2.773e+04 1.421e-08
 75.96258   -117.1 2.106e+04 1.117e-08
 75.97821   -122.9 1.787e+04 6.339e-09
 75.98665   -125.5 1.728e+04 4.525e-09
 75.99188   -125.9 1.713e+04 4.235e-09
 76.00433   -130.3 1.568e+04 2.437e-09
 76.02528   -138.2 1.300e+04 9.426e-10
 76.04085   -144.7 1.063e+04 4.519e-10
 76.05130   -144.3 1.039e+04 4.173e-10
 76.06707   -146.4 1.006e+04 3.468e-10
 76.08538   -147.9 1.006e+04 3.354e-10
 76.09582   -146.9 1.004e+04 3.300e-10
 76.10018   -148.4 1.005e+04 3.214e-10
 76.11063   -147.5 1.001e+04 3.137e-10
 76.14031   -148.6 1.005e+04 3.056e-10
 76.18221   -151.4 1.038e+04 3.871e-10
 76.20858   -153.6 1.084e+04 5.631e-10
 76.22948   -151.8 1.048e+04 4.661e-10
 76.26580   -153.3 1.077e+04 5.788e-10
 76.30634   -154.6 1.084e+04 6.090e-10
 76.32724   -152.7 1.045e+04 5.014e-10
 76.34939   -153.7 1.043e+04 4.617e-10
 76.39118   -154.6 1.033e+04 3.890e-10
 76.42499   -155.1 1.028e+04 3.479e-10
 76.44589   -153.2 9.936e+03 2.775e-10
 76.47477   -153.4 9.911e+03 2.654e-10
 76.51657   -153.5 9.926e+03 2.669e-10
 76.54365   -153.4 1.021e+04 3.192e-10
 76.56455   -151.5 9.734e+03 2.305e-10
 76.60016   -151.3 1.019e+04 3.098e-10
 76.64141   -151.0 1.072e+04 4.402e-10
 76.66230   -149.3 1.029e+04 3.458e-10
 76.66326   -149.0 1.096e+04 5.310e-10
 76.68415   -148.7 1.087e+04 5.266e-10
 76.71108   -148.6 1.134e+04 7.373e-10
 76.72144   -147.7 1.117e+04 6.555e-10
 76.73580   -147.8 1.145e+04 7.894e-10
 76.75670   -147.7 1.174e+04 1.020e-09
 76.77031   -147.5 1.182e+04 1.090e-09
 76.78076   -146.7 1.185e+04 1.122e-09
 76.79849   -146.5 1.194e+04 1.187e-09
 76.81919   -146.4 1.196e+04 1.186e-09
 76.82964   -145.6 1.210e+04 1.310e-09
 76.84029   -145.7 1.217e+04 1.302e-09
 76.86119   -146.1 1.210e+04 1.186e-09
 76.87852   -146.8 1.202e+04 1.053e-09
 76.88897   -146.0 1.246e+04 1.383e-09
 76.90298   -147.2 1.243e+04 1.272e-09
 76.92388   -148.6 1.238e+04 1.205e-09
 76.93785   -150.0 1.234e+04 1.179e-09
 76.94498   -149.4 1.283e+04 1.472e-09
 76.95190   -148.7 1.310e+04 1.716e-09
 76.96567   -150.2 1.305e+04 1.683e-09
 76.98657   -151.6 1.291e+04 1.613e-09
 76.99718   -152.7 1.262e+04 1.480e-09
 77.00762   -152.3 1.294e+04 1.740e-09
 77.02837   -153.3 1.248e+04 1.481e-09
 77.04605   -154.0 1.195e+04 1.219e-09
 77.05650   -154.0 1.198e+04 1.223e-09
 77.07016   -154.3 1.140e+04 9.642e-10
 77.09106   -154.4 1.092e+04 7.546e-10
 77.10538   -154.4 1.052e+04 5.821e-10
 77.11583   -154.3 1.049e+04 5.641e-10
 77.13286   -154.0 1.015e+04 4.387e-10
 77.15375   -153.6 9.919e+03 3.630e-10
 77.18520   -153.4 9.728e+03 3.054e-10
 77.21378   -152.1 9.330e+03 2.199e-10
 77.22763   -151.5 9.341e+03 2.198e-10
 77.24094   -151.0 9.440e+03 2.461e-10
 77.26889   -149.1 9.130e+03 1.793e-10
 77.31068   -147.2 9.029e+03 1.427e-10
 77.33244   -145.3 9.026e+03 1.342e-10
 77.35334   -144.7 9.144e+03 1.443e-10
 77.39427   -142.8 9.155e+03 1.413e-10
 77.43019   -141.4 9.246e+03 1.449e-10
 77.45109   -140.6 9.362e+03 1.687e-10
 77.47786   -139.5 9.768e+03 2.141e-10
 77.51966   -138.6 1.016e+04 3.425e-10
 77.54885   -137.7 1.051e+04 5.139e-10
 77.56975   -136.9 1.033e+04 4.321e-10
 77.60325   -136.2 1.048e+04 5.294e-10
 77.64505   -135.6 1.054e+04 5.606e-10
 77.66750   -134.8 1.050e+04 5.554e-10
 77.68840   -134.0 1.024e+04 4.375e-10
 77.72864   -133.1 1.008e+04 3.982e-10
 77.76526   -131.9 9.905e+03 3.531e-10
 77.78616   -131.2 9.843e+03 3.131e-10
 77.79773   -129.9 9.754e+03 2.935e-10
 77.81863   -129.5 9.812e+03 2.830e-10
 77.85402   -128.3 9.802e+03 2.817e-10
 77.88392   -127.3 9.922e+03 3.012e-10
 77.90481   -126.9 1.002e+04 2.989e-10
 77.93761   -126.3 1.072e+04 4.497e-10
 77.97941   -126.0 1.144e+04 7.339e-10
 78.00257   -126.1 1.201e+04 1.092e-09
 78.01292   -126.1 1.191e+04 1.050e-09
 78.03146   -126.0 1.207e+04 1.221e-09
 78.05125   -125.9 1.215e+04 1.318e-09
 78.06170   -127.8 1.416e+04 1.698e-09
 78.07325   -130.0 1.630e+04 2.292e-09
 78.08638   -132.7 1.797e+04 3.416e-09
 78.09683   -133.5 1.832e+04 5.820e-09
 78.11058   -135.2 1.901e+04 8.269e-09
 78.12098   -136.9 2.007e+04 1.967e-08
 78.13062   -137.5 2.014e+04 2.020e-08
 78.14015   -138.0 2.010e+04 1.975e-08
 78.14537   -138.1 2.077e+04 3.279e-08
 78.15152   -138.6 2.050e+04 2.520e-08
 78.16197   -139.3 2.011e+04 1.948e-08
 78.16986   -140.3 1.966e+04 1.600e-08
 78.17509   -140.9 2.051e+04 2.012e-08
 78.18287   -142.2 1.995e+04 1.697e-08
 78.19859   -143.2 1.969e+04 1.577e-08
 78.21879   -144.4 1.882e+04 1.199e-08
 78.22924   -145.5 1.949e+04 1.358e-08
 78.24043   -146.5 1.868e+04 9.169e-09
 78.26133   -147.8 1.778e+04 6.287e-09
 78.27812   -149.2 1.668e+04 4.269e-09
 78.28856   -150.5 1.759e+04 3.461e-09
 78.30313   -152.6 1.541e+04 2.146e-09
 78.32403   -154.3 1.362e+04 1.610e-09
 78.33744   -155.0 1.290e+04 1.399e-09
 78.34789   -156.0 1.272e+04 1.359e-09
 78.36477   -155.8 1.242e+04 1.195e-09
 78.37522   -156.0 1.227e+04 1.333e-09
 78.38632   -155.6 1.213e+04 1.095e-09
 78.39677   -156.5 1.238e+04 1.194e-09
 78.40762   -155.7 1.229e+04 1.053e-09
 78.42851   -155.0 1.225e+04 9.167e-10
 78.44565   -154.4 1.223e+04 7.983e-10
 78.45610   -156.0 1.315e+04 1.186e-09
 78.47031   -155.4 1.308e+04 1.118e-09
 78.49121   -154.8 1.305e+04 1.085e-09
 78.50498   -154.1 1.304e+04 1.078e-09
 78.51543   -155.2 1.368e+04 1.896e-09
 78.53300   -154.4 1.368e+04 1.906e-09
 78.55386   -153.8 1.376e+04 1.973e-09
 78.57475   -153.7 1.431e+04 2.975e-09
 78.59570   -153.2 1.438e+04 3.056e-09
 78.61318   -152.6 1.440e+04 3.082e-09
 78.62363   -152.9 1.456e+04 3.593e-09
 78.63749   -152.4 1.458e+04 3.620e-09
 78.65362   -152.0 1.459e+04 3.540e-09
 78.66407   -151.2 1.461e+04 3.718e-09
 78.67251   -150.8 1.468e+04 3.637e-09
 78.68296   -151.0 1.476e+04 3.942e-09
 78.70018   -150.9 1.499e+04 4.178e-09
 78.72108   -150.8 1.530e+04 4.385e-09
 78.73184   -150.8 1.556e+04 4.422e-09
 78.74229   -151.0 1.588e+04 5.745e-09
 78.76288   -150.8 1.619e+04 6.169e-09
 78.78072   -151.1 1.638e+04 6.055e-09
 78.79117   -151.0 1.672e+04 7.287e-09
 78.80467   -151.8 1.673e+04 6.968e-09
 78.82557   -152.7 1.611e+04 5.496e-09
 78.84004   -153.7 1.525e+04 4.050e-09
 78.85049   -153.9 1.580e+04 4.973e-09
 78.86737   -155.0 1.530e+04 4.474e-09
 78.88826   -156.0 1.512e+04 4.334e-09
 78.89937   -156.5 1.515e+04 4.412e-09
 78.90982   -156.4 1.577e+04 6.000e-09
 78.93006   -156.8 1.614e+04 6.675e-09
 78.94246   -157.8 1.652e+04 7.087e-09
 78.95020   -157.3 1.707e+04 8.441e-09
 78.95870   -157.7 1.731e+04 9.037e-09
 78.97186   -159.7 1.823e+04 1.092e-08
 78.99275   -162.2 1.918e+04 1.346e-08
 79.00758   -165.1 1.996e+04 1.696e-08
 79.01803   -166.2 1.995e+04 1.632e-08
 79.03455   -169.3 2.012e+04 1.767e-08
 79.05545   -171.8 1.976e+04 1.683e-08
 79.06690   -173.2 1.862e+04 1.144e-08
 79.07735   -174.2 1.742e+04 6.104e-09
 79.09724   -176.7 1.563e+04 2.974e-09
 79.11578   -180.0 1.331e+04 1.385e-09
 79.12623   -181.6 1.218e+04 9.428e-10
 79.13904   -183.1 1.107e+04 6.159e-10
 79.15993   -183.5 1.071e+04 4.934e-10
 79.17511   -183.5 1.055e+04 4.180e-10
 79.18556   -182.9 1.048e+04 3.613e-10
 79.20173   -182.5 1.037e+04 3.105e-10
 79.22409   -182.2 1.035e+04 2.922e-10
 79.24508   -182.4 1.032e+04 2.641e-10
 79.27507   -182.5 1.014e+04 2.312e-10
 79.31686   -182.1 1.002e+04 2.182e-10
 79.34284   -181.5 1.000e+04 2.196e-10
 79.36374   -181.0 9.709e+03 1.858e-10
 79.40045   -180.1 9.732e+03 2.006e-10
 79.44060   -179.0 9.952e+03 2.541e-10
 79.46149   -178.3 9.662e+03 1.992e-10
 79.48404   -177.1 9.924e+03 2.557e-10
 79.50989   -175.9 1.022e+04 3.316e-10
 79.53079   -175.4 1.000e+04 2.850e-10
 79.55925   -174.3 1.049e+04 4.166e-10
 79.58015   -173.8 1.045e+04 3.927e-10
 79.60943   -173.2 1.115e+04 6.380e-10
 79.64068   -173.0 1.169e+04 9.027e-10
 79.66148   -173.2 1.212e+04 1.175e-09
 79.67771   -173.4 1.255e+04 1.484e-09
 79.68816   -173.3 1.257e+04 1.502e-09
 79.70328   -173.6 1.286e+04 1.734e-09
 79.72417   -173.9 1.304e+04 1.893e-09
 79.73704   -174.3 1.309e+04 1.961e-09
 79.74749   -174.3 1.271e+04 1.648e-09
 79.76597   -174.5 1.264e+04 1.605e-09
 79.78592   -174.6 1.257e+04 1.565e-09
 79.79637   -174.5 1.218e+04 1.290e-09
 79.79854   -174.5 1.214e+04 1.270e-09
 79.80899   -174.3 1.212e+04 1.284e-09
 79.82866   -174.2 1.212e+04 1.281e-09
 79.84524   -174.1 1.218e+04 1.296e-09
 79.85569   -174.0 1.184e+04 1.114e-09
 79.87046   -173.9 1.196e+04 1.157e-09
 79.89135   -173.9 1.210e+04 1.233e-09
 79.90457   -173.8 1.226e+04 1.321e-09
 79.91502   -173.6 1.194e+04 1.141e-09
 79.93315   -173.6 1.208e+04 1.201e-09
 79.95345   -173.7 1.219e+04 1.242e-09
 79.96390   -173.6 1.191e+04 1.101e-09
 79.97495   -173.7 1.194e+04 1.108e-09
 79.99584   -173.9 1.194e+04 1.107e-09
 80.01278   -174.0 1.189e+04 1.078e-09
 80.02323   -173.9 1.168e+04 9.830e-10
 80.03764   -174.0 1.161e+04 9.445e-10
 80.05854   -174.1 1.153e+04 9.052e-10
 80.07211   -174.2 1.144e+04 8.698e-10
 80.08006   -174.2 1.134e+04 8.256e-10
 80.08738   -173.9 1.132e+04 8.161e-10
 80.10033   -174.1 1.126e+04 7.931e-10
 80.12098   -174.3 1.122e+04 7.795e-10
 80.13143   -174.3 1.116e+04 7.487e-10
 80.14213   -174.6 1.116e+04 7.469e-10
 80.16302   -175.0 1.122e+04 7.703e-10
 80.18031   -175.4 1.137e+04 8.472e-10
 80.19076   -175.5 1.124e+04 7.861e-10
 80.20482   -175.9 1.145e+04 8.947e-10
 80.22572   -176.1 1.169e+04 1.023e-09
 80.23964   -176.2 1.190e+04 1.139e-09
 80.25009   -176.4 1.161e+04 9.747e-10
 80.26751   -176.4 1.179e+04 1.070e-09
 80.28841   -176.4 1.186e+04 1.109e-09
 80.31986   -176.7 1.183e+04 1.086e-09
 80.34794   -177.1 1.179e+04 1.093e-09
 80.35829   -176.9 1.145e+04 8.769e-10
 80.36578   -177.5 1.159e+04 9.778e-10
 80.37623   -177.0 1.142e+04 9.010e-10
 80.39290   -177.6 1.152e+04 9.949e-10
 80.40717   -178.1 1.151e+04 1.009e-09
 80.41762   -177.9 1.125e+04 8.546e-10
 80.43470   -178.4 1.120e+04 8.613e-10
 80.45559   -178.6 1.085e+04 7.890e-10
 80.46650   -178.7 1.055e+04 6.642e-10
 80.47695   -178.6 1.049e+04 6.132e-10
 80.49739   -178.7 1.021e+04 4.886e-10
 80.52883   -179.1 9.959e+03 3.867e-10
 80.56445   -179.4 9.676e+03 3.148e-10
 80.58535   -179.6 9.674e+03 3.168e-10
 80.61252   -179.7 9.333e+03 2.458e-10
 80.64437   -179.6 9.016e+03 1.942e-10
 80.66527   -179.4 9.097e+03 2.109e-10
 80.68311   -179.0 8.799e+03 1.679e-10
 80.70401   -179.4 9.175e+03 2.237e-10
 80.73791   -178.8 8.968e+03 1.905e-10
 80.77970   -178.2 8.924e+03 1.835e-10
 80.80176   -177.8 8.962e+03 1.863e-10
 80.82266   -178.5 9.768e+03 3.309e-10
 80.86329   -178.2 1.003e+04 4.081e-10
 80.89952   -177.9 1.018e+04 4.960e-10
 80.92042   -178.6 1.092e+04 7.877e-10
 80.94688   -178.3 1.094e+04 8.072e-10
 80.98868   -178.1 1.080e+04 7.790e-10
 81.01817   -177.6 1.028e+04 6.083e-10
 81.03907   -177.8 1.101e+04 8.828e-10
 81.07227   -177.0 1.032e+04 5.860e-10
 81.11407   -176.4 9.633e+03 3.875e-10
 81.13683   -176.2 9.255e+03 3.258e-10
 81.15773   -175.5 1.026e+04 4.978e-10
 81.19766   -176.3 1.015e+04 4.664e-10
 81.22205   -177.7 1.067e+04 6.456e-10
 81.23809   -176.2 9.664e+03 3.854e-10
 81.25548   -175.4 1.102e+04 7.132e-10
 81.28125   -177.1 1.109e+04 8.327e-10
 81.32304   -177.8 1.121e+04 1.041e-09
 81.35324   -177.8 1.124e+04 1.124e-09
 81.37414   -178.0 1.164e+04 1.275e-09
 81.40663   -177.8 1.105e+04 1.059e-09
 81.43788   -177.1 1.054e+04 7.955e-10
 81.45868   -176.5 1.024e+04 6.284e-10
 81.47170   -175.9 9.970e+03 4.961e-10
 81.48215   -176.0 9.977e+03 4.745e-10
 81.50025   -175.5 9.796e+03 3.880e-10
 81.51070   -175.1 1.014e+04 5.105e-10
 81.52058   -174.5 9.850e+03 4.032e-10
 81.53103   -174.5 9.850e+03 3.957e-10
 81.54227   -174.1 9.742e+03 3.472e-10
 81.56956   -173.2 9.486e+03 2.952e-10
 81.59055   -173.6 9.834e+03 3.093e-10
 81.61561   -171.3 9.695e+03 2.805e-10
 81.65741   -169.1 9.644e+03 2.696e-10
 81.68831   -167.4 9.695e+03 2.771e-10
 81.70921   -168.6 1.035e+04 4.168e-10
 81.74100   -167.8 1.133e+04 7.107e-10
 81.77884   -167.3 1.284e+04 1.509e-09
 81.79964   -166.8 1.336e+04 2.003e-09
 81.80677   -166.3 1.423e+04 3.021e-09
 81.81722   -166.6 1.420e+04 2.717e-09
 81.83484   -166.1 1.533e+04 4.210e-09
 81.85565   -165.7 1.629e+04 6.267e-09
 81.87654   -165.5 1.616e+04 5.020e-09
 81.89754   -165.1 1.670e+04 6.591e-09
 81.91497   -164.7 1.697e+04 7.925e-09
 81.92542   -165.1 1.579e+04 4.112e-09
 81.93933   -164.5 1.615e+04 5.234e-09
 81.96023   -163.7 1.633e+04 6.262e-09
 81.97430   -162.7 1.639e+04 6.843e-09
 81.98475   -163.2 1.554e+04 4.300e-09
 82.00202   -162.0 1.585e+04 5.152e-09
 82.02292   -160.9 1.602e+04 5.654e-09
 82.03363   -159.8 1.599e+04 5.508e-09
 82.04408   -160.4 1.564e+04 4.435e-09
 82.06472   -159.3 1.582e+04 4.935e-09
 82.07794   -158.1 1.585e+04 5.116e-09
 82.08528   -157.7 1.574e+04 4.765e-09
 82.09296   -158.5 1.473e+04 2.701e-09
 82.10651   -157.2 1.527e+04 3.350e-09
 82.12741   -156.0 1.573e+04 4.150e-09
 82.14184   -154.8 1.606e+04 5.045e-09
 82.15228   -155.8 1.495e+04 2.360e-09
 82.16921   -154.6 1.558e+04 3.139e-09
 82.19010   -153.3 1.608e+04 4.120e-09
 82.20116   -152.1 1.650e+04 5.272e-09
 82.21161   -153.3 1.449e+04 1.734e-09
 82.23190   -152.0 1.507e+04 2.256e-09
 82.25004   -150.9 1.558e+04 2.899e-09
 82.26049   -152.4 1.240e+04 7.708e-10
 82.27369   -151.4 1.296e+04 9.789e-10
 82.29459   -150.5 1.353e+04 1.285e-09
 82.30937   -149.7 1.400e+04 1.728e-09
 82.31982   -151.1 1.129e+04 5.818e-10
 82.33639   -150.3 1.163e+04 7.645e-10
 82.35633   -149.4 1.190e+04 1.061e-09
 82.36678   -149.3 1.157e+04 6.752e-10
 82.36870   -148.5 1.188e+04 9.782e-10
 82.37915   -148.9 1.050e+04 4.923e-10
 82.39908   -148.1 1.073e+04 6.635e-10
 82.41758   -147.0 1.104e+04 8.945e-10
 82.42802   -147.2 1.040e+04 5.355e-10
 82.44088   -146.3 1.065e+04 6.762e-10
 82.46177   -145.9 1.103e+04 8.641e-10
 82.47690   -145.9 1.177e+04 1.171e-09
 82.48735   -146.4 1.081e+04 7.453e-10
 82.50357   -147.4 1.215e+04 1.224e-09
 82.52447   -148.6 1.385e+04 2.267e-09
 82.53623   -149.5 1.547e+04 4.142e-09
 82.54668   -149.9 1.478e+04 3.335e-09
 82.56626   -150.5 1.614e+04 5.679e-09
 82.58511   -151.3 1.705e+04 7.674e-09
 82.59556   -151.6 1.659e+04 6.941e-09
 82.60806   -152.6 1.702e+04 7.805e-09
 82.62896   -153.8 1.707e+04 7.734e-09
 82.64444   -155.3 1.661e+04 5.743e-09
 82.65021   -154.9 1.671e+04 6.269e-09
 82.65563   -154.6 1.711e+04 8.321e-09
 82.67075   -156.2 1.674e+04 6.102e-09
 82.69165   -158.5 1.588e+04 3.833e-09
 82.70376   -161.3 1.461e+04 2.445e-09
 82.71421   -160.6 1.512e+04 2.755e-09
 82.73344   -163.2 1.373e+04 1.904e-09
 82.75264   -165.2 1.266e+04 1.582e-09
 82.76309   -164.7 1.293e+04 1.592e-09
 82.77524   -166.0 1.224e+04 1.443e-09
 82.79614   -166.7 1.197e+04 1.383e-09
 82.81197   -166.9 1.177e+04 1.351e-09
 82.82242   -166.6 1.177e+04 1.310e-09
 82.83793   -166.5 1.158e+04 1.264e-09
 82.85883   -166.3 1.136e+04 1.197e-09
 82.87130   -166.0 1.111e+04 1.120e-09
 82.88175   -165.8 1.127e+04 1.180e-09
 82.90063   -165.4 1.107e+04 1.132e-09
 82.92018   -164.8 1.086e+04 1.061e-09
 82.93062   -164.7 1.114e+04 1.191e-09
 82.93402   -164.2 1.096e+04 1.142e-09
 82.94447   -164.3 1.124e+04 1.274e-09
 82.96332   -163.9 1.112e+04 1.234e-09
 82.97950   -163.5 1.087e+04 1.110e-09
 82.98995   -163.6 1.118e+04 1.279e-09
 83.00511   -163.2 1.086e+04 1.121e-09
 83.02601   -162.9 1.047e+04 9.035e-10
 83.03883   -162.7 1.004e+04 6.857e-10
 83.04928   -162.7 1.032e+04 8.411e-10
 83.06781   -162.5 9.864e+03 6.325e-10
 83.08771   -162.3 9.417e+03 4.694e-10
 83.09816   -162.2 9.633e+03 5.523e-10
 83.10960   -162.0 9.236e+03 4.221e-10
 83.13050   -161.8 8.972e+03 3.553e-10
 83.14713   -161.8 8.803e+03 3.183e-10
 83.16813   -161.4 8.866e+03 3.485e-10
 83.20384   -160.8 8.660e+03 3.036e-10
 83.24499   -160.2 8.619e+03 2.937e-10
 83.26589   -159.8 8.605e+03 3.020e-10
 83.28743   -159.4 8.611e+03 3.021e-10
 83.32922   -159.5 8.861e+03 4.285e-10
 83.36047   -159.7 9.891e+03 5.813e-10
 83.37390   -160.8 1.137e+04 8.938e-10
 83.38444   -159.9 1.048e+04 7.834e-10
 83.40227   -159.4 1.100e+04 1.069e-09
 83.42278   -160.9 1.295e+04 1.904e-09
 83.43323   -159.3 1.183e+04 1.519e-09
 83.44397   -160.2 1.395e+04 2.793e-09
 83.46486   -162.0 1.642e+04 5.725e-09
 83.48210   -163.8 1.814e+04 1.077e-08
 83.49255   -162.2 1.705e+04 6.891e-09
 83.50126   -164.2 1.854e+04 1.182e-08
 83.51171   -164.5 1.939e+04 1.441e-08
 83.52228   -165.6 1.977e+04 1.997e-08
 83.53268   -166.2 2.009e+04 2.633e-08
 83.54133   -166.7 2.025e+04 3.132e-08
 83.54656   -166.3 2.041e+04 2.739e-08
 83.55358   -166.9 2.058e+04 3.025e-08
 83.56403   -167.5 2.062e+04 3.078e-08
 83.57100   -168.1 2.049e+04 2.885e-08
 83.57622   -168.0 2.084e+04 2.716e-08
 83.58493   -168.6 2.028e+04 2.232e-08
 83.59538   -169.4 1.954e+04 1.595e-08
 83.60066   -170.2 1.844e+04 1.124e-08
 83.60589   -170.2 1.869e+04 1.179e-08
 83.61627   -171.0 1.747e+04 8.488e-09
 83.62510   -171.8 1.646e+04 6.305e-09
 83.63032   -171.7 1.661e+04 6.623e-09
 83.63717   -172.3 1.575e+04 5.056e-09
 83.64959   -172.9 1.495e+04 3.850e-09
 83.66009   -172.6 1.503e+04 4.032e-09
 83.67384   -173.1 1.375e+04 2.616e-09
 83.69474   -173.1 1.278e+04 1.786e-09
 83.70896   -173.3 1.197e+04 1.358e-09
 83.71941   -172.7 1.225e+04 1.396e-09
 83.73653   -172.9 1.166e+04 1.186e-09
 83.75743   -172.9 1.148e+04 1.136e-09
 83.76829   -172.5 1.145e+04 1.124e-09
 83.77874   -172.5 1.159e+04 1.141e-09
 83.79010   -172.7 1.159e+04 1.142e-09
 83.80055   -172.3 1.120e+04 1.011e-09
 83.81717   -172.8 1.136e+04 1.284e-09
 83.82762   -173.1 1.125e+04 1.284e-09
 83.84102   -174.8 1.353e+04 1.981e-09
 83.86192   -177.1 1.685e+04 3.308e-09
 83.87650   -179.5 1.981e+04 6.075e-09
 83.88695   -178.4 1.851e+04 5.466e-09
 83.90372   -180.2 2.069e+04 9.599e-09
 83.91934   -180.6 2.111e+04 1.327e-08
 83.92920   -181.2 2.174e+04 1.759e-08
 83.93442   -181.5 2.182e+04 2.211e-08
 83.93573   -182.0 2.153e+04 3.825e-08
 83.94095   -181.1 2.203e+04 3.106e-08
 83.95064   -181.3 2.167e+04 5.349e-08
 83.96017   -181.4 2.151e+04 8.458e-08
 83.96539   -181.0 2.180e+04 7.038e-08
 83.97154   -181.1 2.168e+04 1.025e-07
 83.98198   -181.5 2.185e+04 1.234e-07
 83.98983   -182.3 2.193e+04 1.274e-07
 83.99506   -181.0 2.210e+04 1.251e-07
 84.00288   -181.9 2.228e+04 1.240e-07
 84.01333   -183.3 2.311e+04 9.181e-08
 84.01949   -185.1 2.365e+04 5.310e-08
 84.02472   -183.5 2.377e+04 6.961e-08
 84.03423   -186.0 2.385e+04 3.751e-08
 84.04393   -189.0 2.225e+04 2.179e-08
 84.04916   -187.1 2.316e+04 2.603e-08
 84.05513   -190.1 2.054e+04 1.640e-08
 84.06558   -192.2 1.836e+04 1.274e-08
 84.07360   -193.2 1.735e+04 1.079e-08
 84.07882   -191.9 1.856e+04 1.430e-08
 84.08647   -192.4 1.756e+04 1.161e-08
 84.09692   -192.6 1.679e+04 9.287e-09
 84.10326   -192.7 1.598e+04 7.386e-09
 84.10849   -192.3 1.620e+04 7.504e-09
 84.11782   -192.4 1.546e+04 6.003e-09
 84.12770   -192.4 1.495e+04 5.031e-09
 84.13293   -192.1 1.506e+04 5.027e-09
 84.13872   -192.2 1.474e+04 4.445e-09
 84.15219   -192.3 1.437e+04 3.838e-09
 84.16269   -191.6 1.461e+04 3.791e-09
 84.17539   -191.6 1.318e+04 2.549e-09
 84.19628   -191.8 1.143e+04 1.691e-09
 84.21157   -191.8 1.055e+04 1.302e-09
 84.22201   -191.2 1.046e+04 1.209e-09
 84.23808   -190.7 1.014e+04 1.045e-09
 84.25898   -189.7 9.963e+03 9.475e-10
 84.27089   -188.9 9.807e+03 8.654e-10
 84.28134   -188.4 9.689e+03 8.123e-10
 84.30077   -187.7 9.571e+03 7.487e-10
 84.31977   -187.1 9.449e+03 6.946e-10
 84.33022   -186.7 9.349e+03 6.587e-10
 84.34257   -186.1 9.280e+03 6.312e-10
 84.35734   -185.6 9.263e+03 6.203e-10
 84.36779   -185.4 9.207e+03 5.710e-10
 84.37910   -184.9 9.208e+03 5.693e-10
 84.38955   -184.6 9.126e+03 5.548e-10
 84.40526   -184.2 9.146e+03 5.581e-10
 84.42616   -183.9 9.186e+03 5.695e-10
 84.43843   -183.6 9.255e+03 5.862e-10
 84.44888   -183.4 9.145e+03 5.583e-10
 84.46795   -183.3 9.233e+03 5.748e-10
 84.48730   -183.3 9.344e+03 5.964e-10
 84.49775   -183.3 9.174e+03 5.424e-10
 84.50975   -183.5 9.280e+03 5.643e-10
 84.53065   -183.7 9.445e+03 6.044e-10
 84.54663   -184.2 9.705e+03 6.769e-10
 84.55708   -184.4 9.517e+03 6.021e-10
 84.57244   -185.3 9.897e+03 7.203e-10
 84.59334   -186.2 1.037e+04 9.017e-10
 84.60596   -187.0 1.090e+04 1.156e-09
 84.61641   -187.6 1.079e+04 1.089e-09
 84.63514   -188.3 1.134e+04 1.403e-09
 84.64618   -188.9 1.180e+04 1.718e-09
 84.65543   -188.8 1.163e+04 1.619e-09
 84.66529   -189.5 1.139e+04 1.449e-09
 84.67693   -190.3 1.150e+04 1.517e-09
 84.69783   -191.2 1.151e+04 1.521e-09
 84.71417   -192.1 1.137e+04 1.433e-09
 84.72461   -193.4 1.118e+04 1.285e-09
 84.73962   -194.6 1.117e+04 1.245e-09
 84.76052   -196.0 1.119e+04 1.238e-09
 84.77349   -197.7 1.141e+04 1.272e-09
 84.78394   -199.8 1.192e+04 1.529e-09
 84.80232   -201.3 1.233e+04 1.812e-09
 84.82237   -202.4 1.262e+04 2.087e-09
 84.83282   -204.0 1.284e+04 2.337e-09
 84.84411   -205.0 1.285e+04 2.371e-09
 84.86501   -205.6 1.276e+04 2.366e-09
 84.88170   -205.8 1.243e+04 2.231e-09
 84.89215   -206.8 1.210e+04 1.951e-09
 84.90681   -206.7 1.166e+04 1.627e-09
 84.92458   -206.3 1.122e+04 1.335e-09
 84.93502   -205.8 1.109e+04 1.215e-09
 84.94103   -205.3 1.070e+04 9.998e-10
 84.95148   -206.1 1.039e+04 8.384e-10
 84.96950   -205.4 1.009e+04 7.122e-10
 84.98991   -204.7 9.818e+03 6.048e-10
 85.00035   -205.3 9.641e+03 5.477e-10
 85.01129   -204.3 9.465e+03 4.841e-10
 85.03219   -203.3 9.361e+03 4.338e-10
 85.04923   -202.2 9.350e+03 4.007e-10
 85.05968   -202.8 9.349e+03 4.030e-10
 85.07399   -202.0 9.386e+03 3.951e-10
 85.09489   -201.5 9.437e+03 3.956e-10
 85.12633   -201.1 9.550e+03 4.110e-10
 85.15763   -199.7 9.645e+03 4.248e-10
 85.17843   -199.7 1.025e+04 6.083e-10
 85.20307   -199.3 1.042e+04 6.664e-10
 85.22406   -197.9 1.008e+04 5.792e-10
 85.25181   -196.4 1.028e+04 6.468e-10
 85.27629   -194.9 1.039e+04 6.875e-10
 85.29719   -196.3 1.081e+04 8.851e-10
 85.33540   -194.6 1.069e+04 8.180e-10
 85.37405   -192.8 1.052e+04 7.208e-10
 85.39494   -194.2 1.059e+04 7.569e-10
 85.41900   -192.2 1.042e+04 6.733e-10
 85.46079   -190.2 1.040e+04 6.526e-10
 85.49270   -188.3 1.041e+04 6.543e-10
 85.51360   -189.6 1.034e+04 6.598e-10
 85.54438   -187.9 1.055e+04 7.349e-10
 85.58618   -186.1 1.086e+04 8.996e-10
 85.61136   -184.3 1.119e+04 1.087e-09
 85.63225   -185.0 1.026e+04 6.504e-10
 85.66977   -183.1 1.044e+04 7.118e-10
 85.70911   -181.1 1.067e+04 8.077e-10
 85.73001   -181.9 9.571e+03 4.343e-10
 85.75336   -180.0 9.812e+03 5.137e-10
 85.78085   -178.0 1.005e+04 5.968e-10
 85.80175   -177.1 1.053e+04 7.924e-10
 85.82777   -175.5 1.065e+04 8.307e-10
 85.84867   -176.1 9.976e+03 5.742e-10
 85.87875   -174.7 1.009e+04 6.020e-10
 85.92054   -173.7 1.006e+04 5.687e-10
 85.94633   -172.7 9.782e+03 4.866e-10
 85.96722   -172.6 9.608e+03 4.214e-10
 86.00413   -171.5 9.601e+03 3.931e-10
 86.03538   -170.6 9.542e+03 3.655e-10
 86.05443   -170.4 9.553e+03 3.649e-10
 86.06498   -170.6 9.421e+03 3.275e-10
 86.08772   -169.8 9.552e+03 3.291e-10
 86.12952   -169.2 9.702e+03 3.341e-10
 86.16284   -168.4 9.760e+03 3.437e-10
 86.18373   -168.0 9.541e+03 2.906e-10
 86.21311   -167.1 9.594e+03 2.969e-10
 86.25490   -166.1 9.628e+03 2.969e-10
 86.28139   -164.9 9.581e+03 2.801e-10
 86.30229   -164.5 9.432e+03 2.455e-10
 86.32795   -164.0 9.576e+03 2.643e-10
 86.34062   -164.2 1.003e+04 2.783e-10
 86.35022   -163.6 9.554e+03 2.420e-10
 86.35834   -163.8 9.624e+03 2.665e-10
 86.36965   -164.4 1.035e+04 2.979e-10
 86.38950   -165.9 1.157e+04 5.304e-10
 86.39995   -164.5 1.074e+04 3.486e-10
 86.41144   -165.8 1.188e+04 6.455e-10
 86.43234   -166.9 1.288e+04 1.288e-09
 86.44883   -167.5 1.362e+04 2.226e-09
 86.45928   -166.6 1.286e+04 1.382e-09
 86.47414   -167.2 1.335e+04 2.061e-09
 86.49503   -167.6 1.354e+04 2.421e-09
 86.50816   -167.7 1.356e+04 2.491e-09
 86.51860   -167.1 1.301e+04 1.941e-09
 86.53683   -167.0 1.297e+04 1.958e-09
 86.55703   -166.7 1.264e+04 1.747e-09
 86.56748   -166.2 1.247e+04 1.573e-09
 86.57862   -165.8 1.215e+04 1.381e-09
 86.59952   -165.3 1.180e+04 1.116e-09
 86.61636   -164.7 1.151e+04 9.048e-10
 86.62681   -164.0 1.150e+04 9.357e-10
 86.63674   -163.4 1.128e+04 7.919e-10
 86.64719   -162.7 1.121e+04 7.171e-10
 86.66221   -162.0 1.106e+04 6.377e-10
 86.67569   -161.3 1.097e+04 5.866e-10
 86.68614   -160.8 1.098e+04 6.066e-10
 86.70401   -160.1 1.095e+04 5.885e-10
 86.72457   -159.4 1.095e+04 5.860e-10
 86.73502   -159.0 1.094e+04 5.882e-10
 86.74581   -158.5 1.098e+04 5.880e-10
 86.76670   -158.2 1.107e+04 5.972e-10
 86.78390   -157.9 1.115e+04 6.363e-10
 86.79434   -157.4 1.105e+04 6.144e-10
 86.80850   -157.3 1.116e+04 6.919e-10
 86.82940   -158.7 1.202e+04 9.740e-10
 86.84322   -161.0 1.340e+04 1.665e-09
 86.85367   -160.1 1.301e+04 1.381e-09
 86.87119   -162.7 1.467e+04 2.674e-09
 86.89209   -165.0 1.592e+04 4.711e-09
 86.91299   -167.2 1.675e+04 6.611e-09
 86.92558   -170.3 1.700e+04 7.584e-09
 86.93603   -169.6 1.695e+04 7.169e-09
 86.95143   -173.5 1.698e+04 7.277e-09
 86.96188   -173.5 1.727e+04 7.920e-09
 86.97568   -177.8 1.692e+04 7.187e-09
 86.99658   -182.5 1.594e+04 4.851e-09
 87.01076   -187.0 1.454e+04 3.139e-09
 87.02121   -187.3 1.495e+04 3.756e-09
 87.03837   -190.8 1.331e+04 2.433e-09
 87.05927   -192.7 1.229e+04 1.844e-09
 87.07008   -193.3 1.183e+04 1.563e-09
 87.08053   -193.4 1.139e+04 1.297e-09
 87.10107   -193.5 1.112e+04 1.080e-09
 87.11896   -193.5 1.084e+04 8.970e-10
 87.12941   -193.5 1.039e+04 6.625e-10
 87.14286   -193.0 1.008e+04 5.318e-10
 87.16376   -192.2 9.859e+03 4.429e-10
 87.17829   -191.4 9.757e+03 3.905e-10
 87.18884   -191.6 9.611e+03 3.349e-10
 87.21620   -190.3 9.628e+03 3.128e-10
 87.25799   -188.5 9.588e+03 2.824e-10
 87.28669   -186.4 9.548e+03 2.561e-10
 87.30759   -186.4 9.186e+03 1.827e-10
 87.34159   -184.1 9.145e+03 1.677e-10
 87.38338   -181.7 9.136e+03 1.623e-10
 87.40535   -179.3 9.136e+03 1.616e-10
 87.42624   -179.2 8.875e+03 1.181e-10
 87.46697   -176.9 8.907e+03 1.193e-10
 87.49301   -174.8 9.108e+03 1.374e-10
 87.50825   -174.2 9.424e+03 2.014e-10
 87.52400   -174.5 9.130e+03 1.510e-10
 87.55056   -172.5 9.376e+03 1.982e-10
 87.59236   -170.5 9.682e+03 2.689e-10
 87.62176   -168.8 9.996e+03 3.575e-10
 87.64266   -168.9 9.764e+03 2.964e-10
 87.67595   -167.3 1.008e+04 3.861e-10
 87.71774   -165.8 1.030e+04 4.502e-10
 87.74032   -164.5 1.024e+04 4.239e-10
 87.76121   -164.2 1.004e+04 3.457e-10
 87.80134   -162.7 1.008e+04 3.523e-10
 87.83817   -161.2 1.009e+04 3.534e-10
 87.85907   -160.8 9.636e+03 2.276e-10
 87.88493   -159.1 9.641e+03 2.284e-10
 87.92672   -157.3 9.617e+03 2.199e-10
 87.95683   -155.3 9.584e+03 2.070e-10
 87.97772   -154.6 9.380e+03 1.575e-10
 88.01031   -152.5 9.448e+03 1.592e-10
 88.04980   -150.5 9.499e+03 1.594e-10
 88.07070   -150.2 9.524e+03 1.652e-10
 88.07548   -148.1 9.563e+03 1.572e-10
 88.09638   -147.5 9.564e+03 1.660e-10
 88.13570   -145.5 9.613e+03 1.628e-10
 88.17324   -143.3 9.649e+03 1.580e-10
 88.19414   -142.9 9.695e+03 1.803e-10
 88.21929   -140.7 9.725e+03 1.786e-10
 88.26109   -138.7 9.747e+03 1.779e-10
 88.29189   -136.8 9.840e+03 1.778e-10
 88.31279   -136.6 9.946e+03 1.984e-10
 88.34468   -135.0 1.008e+04 2.129e-10
 88.38647   -133.6 1.026e+04 2.449e-10
 88.41055   -132.3 1.053e+04 3.137e-10
 88.43145   -132.3 1.045e+04 2.858e-10
 88.47006   -131.1 1.067e+04 3.457e-10
 88.50830   -130.1 1.088e+04 4.130e-10
 88.52920   -129.8 1.058e+04 2.931e-10
 88.55365   -128.7 1.065e+04 3.082e-10
 88.59545   -127.6 1.069e+04 3.212e-10
 88.62696   -126.3 1.067e+04 3.326e-10
 88.63810   -125.3 1.034e+04 2.140e-10
 88.64839   -125.0 1.034e+04 2.119e-10
 88.67904   -123.6 1.042e+04 2.457e-10
 88.72083   -122.1 1.050e+04 2.917e-10
 88.74561   -120.5 1.057e+04 3.377e-10
 88.76651   -119.1 1.030e+04 2.406e-10
 88.80443   -117.5 1.030e+04 2.729e-10
 88.84337   -115.7 1.031e+04 2.928e-10
 88.86427   -114.3 1.021e+04 2.481e-10
 88.88802   -112.6 1.023e+04 2.682e-10
 88.92981   -110.8 1.022e+04 2.754e-10
 88.96203   -109.0 1.020e+04 2.763e-10
 88.98292   -107.9 1.021e+04 2.719e-10
 89.01340   -106.2 1.012e+04 2.657e-10
 89.05520   -104.3 1.002e+04 2.551e-10
 89.08068   -102.5 9.962e+03 2.519e-10
 89.10158   -101.6 1.019e+04 2.779e-10
 89.13879    -99.6 1.014e+04 2.893e-10
 89.17844    -97.7 1.012e+04 3.113e-10
 89.19934    -96.8 1.032e+04 3.472e-10
 89.20517    -94.8 1.033e+04 3.739e-10
 89.22607    -94.8 1.023e+04 3.068e-10
 89.26418    -92.9 1.021e+04 3.179e-10
 89.29709    -91.1 1.018e+04 3.225e-10
 89.31799    -90.1 1.019e+04 2.997e-10
 89.34777    -88.3 1.014e+04 3.078e-10
 89.38956    -86.4 9.924e+03 2.972e-10
 89.41575    -84.6 9.755e+03 2.631e-10
 89.43665    -83.5 9.857e+03 2.796e-10
 89.47315    -81.6 9.681e+03 2.578e-10
 89.51351    -79.8 9.479e+03 2.217e-10
 89.53440    -78.6 9.652e+03 2.638e-10
 89.55674    -76.8 9.421e+03 2.182e-10
 89.59854    -75.1 9.221e+03 1.698e-10
 89.63216    -73.7 9.155e+03 1.425e-10
 89.65306    -72.2 9.108e+03 1.432e-10
 89.68213    -70.9 9.107e+03 1.174e-10
 89.72393    -69.8 9.135e+03 1.139e-10
 89.75082    -69.0 9.325e+03 1.438e-10
 89.76796    -67.7 9.344e+03 1.130e-10
 89.78286    -66.4 8.977e+03 8.213e-11
 89.80752    -65.7 9.293e+03 9.976e-11
 89.84857    -64.9 9.563e+03 1.796e-10
 89.86947    -63.6 9.681e+03 1.575e-10
 89.89111    -62.8 9.957e+03 2.993e-10
 89.93290    -61.7 1.023e+04 4.753e-10
 89.96723    -61.0 1.043e+04 5.930e-10
 89.98813    -59.9 1.035e+04 5.373e-10
 90.01649    -59.6 1.040e+04 5.748e-10
 90.05829    -59.9 1.040e+04 5.794e-10
 90.08588    -60.5 1.038e+04 5.784e-10
 90.10678    -60.3 1.036e+04 5.287e-10
 90.14188    -61.0 1.033e+04 5.663e-10
 90.18364    -61.3 1.032e+04 5.893e-10
 90.22544    -62.0 1.077e+04 8.066e-10
 90.26727    -61.4 1.063e+04 7.633e-10
 90.29851    -60.7 1.066e+04 7.780e-10
 90.31255    -60.5 1.061e+04 7.775e-10
 90.32300    -60.6 1.064e+04 8.057e-10
 90.33945    -60.3 1.061e+04 8.067e-10
 90.34990    -59.8 1.092e+04 9.943e-10
 90.36111    -59.5 1.088e+04 1.008e-09
 90.37188    -59.0 1.079e+04 1.016e-09
 90.38232    -59.0 1.082e+04 9.986e-10
 90.40291    -58.4 1.067e+04 9.942e-10
 90.42075    -57.8 1.053e+04 9.004e-10
 90.43120    -57.9 1.073e+04 9.851e-10
 90.44470    -57.5 1.060e+04 8.799e-10
 90.46560    -57.3 1.046e+04 7.515e-10
 90.48008    -57.3 1.041e+04 6.733e-10
 90.49053    -57.2 1.069e+04 9.022e-10
 90.50739    -57.2 1.067e+04 8.758e-10
 90.52829    -57.9 1.093e+04 8.910e-10
 90.53941    -60.7 1.248e+04 1.252e-09
 90.54986    -58.7 1.206e+04 1.339e-09
 90.57009    -61.8 1.385e+04 2.517e-09
 90.58829    -62.8 1.524e+04 5.265e-09
 90.59874    -61.8 1.530e+04 4.903e-09
 90.61188    -62.0 1.683e+04 9.629e-09
 90.62830    -62.2 1.822e+04 1.540e-08
 90.63875    -62.2 1.803e+04 1.464e-08
 90.64762    -63.5 1.874e+04 1.709e-08
 90.65279    -63.7 1.988e+04 2.146e-08
 90.65880    -64.5 2.006e+04 2.291e-08
 90.66925    -65.3 2.005e+04 2.315e-08
 90.67718    -66.1 1.998e+04 2.253e-08
 90.68241    -66.7 2.153e+04 2.811e-08
 90.69015    -68.2 2.228e+04 2.778e-08
 90.70060    -70.4 2.349e+04 2.583e-08
 90.70684    -73.1 2.464e+04 2.353e-08
 90.71207    -75.3 2.626e+04 5.600e-08
 90.72150    -77.9 2.628e+04 5.774e-08
 90.73128    -79.7 2.621e+04 5.247e-08
 90.73651    -81.8 2.345e+04 1.798e-07
 90.74240    -82.3 2.362e+04 1.220e-07
 90.75284    -82.3 2.432e+04 6.532e-08
 90.76095    -82.4 2.504e+04 3.280e-08
 90.76617    -83.6 2.345e+04 6.335e-08
 90.77262    -83.6 2.439e+04 2.975e-08
 90.77785    -83.8 2.512e+04 3.318e-08
 90.78419    -84.4 2.474e+04 1.641e-08
 90.79061    -86.0 2.231e+04 9.691e-09
 90.79584    -86.4 2.331e+04 1.350e-08
 90.80509    -87.5 2.093e+04 8.550e-09
 90.81510    -88.1 1.877e+04 6.043e-09
 90.82032    -89.7 1.893e+04 8.610e-09
 90.82599    -89.8 1.770e+04 7.192e-09
 90.84171    -89.5 1.672e+04 6.132e-09
 90.86266    -87.9 1.560e+04 3.910e-09
 90.87448    -85.8 1.481e+04 2.591e-09
 90.88493    -86.0 1.514e+04 4.732e-09
 90.90445    -84.5 1.455e+04 3.280e-09
 90.91714    -83.3 1.383e+04 2.326e-09
 90.92559    -83.1 1.462e+04 2.682e-09
 90.93380    -83.0 1.522e+04 4.942e-09
 90.94625    -81.9 1.467e+04 3.710e-09
 90.96714    -80.7 1.406e+04 2.722e-09
 90.98268    -79.5 1.339e+04 1.957e-09
 90.99313    -79.1 1.411e+04 3.510e-09
 91.00894    -77.8 1.352e+04 2.548e-09
 91.02984    -76.6 1.285e+04 1.779e-09
 91.04201    -75.2 1.212e+04 1.208e-09
 91.05246    -74.7 1.297e+04 2.184e-09
 91.07163    -73.4 1.241e+04 1.468e-09
 91.09089    -72.1 1.170e+04 9.621e-10
 91.10134    -71.5 1.253e+04 1.700e-09
 91.11343    -70.4 1.193e+04 1.127e-09
 91.13433    -69.4 1.139e+04 7.171e-10
 91.15022    -68.7 1.085e+04 5.083e-10
 91.16066    -67.9 1.154e+04 7.860e-10
 91.18667    -67.8 1.050e+04 4.196e-10
 91.20974    -64.9 8.965e+03 1.771e-10
 91.23064    -63.4 1.095e+04 5.485e-10
 91.27036    -61.7 9.628e+03 2.168e-10
 91.30750    -60.3 8.854e+03 1.236e-10
 91.32839    -59.6 1.117e+04 5.084e-10
 91.35395    -59.0 1.006e+04 2.848e-10
 91.39574    -58.2 9.503e+03 2.494e-10
 91.42615    -57.0 9.580e+03 2.772e-10
 91.44705    -58.7 1.115e+04 7.936e-10
 91.47412    -57.4 1.103e+04 7.849e-10
 91.49502    -57.0 1.108e+04 8.044e-10
 91.52113    -55.5 1.112e+04 8.370e-10
 91.54481    -54.0 1.119e+04 8.779e-10
 91.56570    -54.9 1.185e+04 1.393e-09
 91.60472    -53.4 1.174e+04 1.249e-09
 91.64256    -52.0 1.160e+04 1.110e-09
 91.66346    -53.2 1.162e+04 9.951e-10
 91.68831    -51.9 1.126e+04 7.868e-10
 91.73011    -50.6 1.101e+04 6.618e-10
 91.76122    -49.4 1.089e+04 5.975e-10
 91.78212    -50.1 1.079e+04 5.316e-10
 91.81370    -48.8 1.072e+04 5.109e-10
 91.85549    -47.4 1.057e+04 4.559e-10
 91.87987    -46.0 1.034e+04 3.678e-10
 91.90077    -46.2 1.056e+04 4.585e-10
 91.93908    -44.9 1.040e+04 3.712e-10
 91.97763    -43.7 1.024e+04 2.856e-10
 91.99853    -43.5 1.051e+04 4.871e-10
 92.02267    -42.3 1.032e+04 3.847e-10
 92.05181    -41.0 1.012e+04 3.024e-10
 92.07271    -40.1 1.025e+04 3.526e-10
 92.09628    -38.9 1.006e+04 2.927e-10
 92.11718    -38.4 1.021e+04 3.908e-10
 92.14806    -37.3 1.000e+04 2.996e-10
 92.18986    -36.1 9.863e+03 2.472e-10
 92.21494    -34.9 9.837e+03 2.186e-10
 92.23584    -34.8 9.889e+03 2.753e-10
 92.27345    -33.7 9.980e+03 2.755e-10
 92.31270    -32.8 1.011e+04 2.822e-10
 92.33359    -32.6 1.027e+04 3.768e-10
 92.35704    -31.7 1.032e+04 3.799e-10
 92.39883    -30.9 1.028e+04 3.632e-10
 92.43135    -29.9 1.004e+04 3.123e-10
 92.45225    -29.5 1.002e+04 3.012e-10
 92.48242    -28.7 9.672e+03 2.108e-10
 92.52422    -27.9 9.436e+03 1.570e-10
 92.55001    -27.3 9.317e+03 1.363e-10
 92.57090    -27.1 9.290e+03 1.217e-10
 92.60781    -26.3 9.220e+03 1.208e-10
 92.62950    -25.4 9.188e+03 1.418e-10
 92.64855    -25.5 9.256e+03 1.746e-10
 92.66866    -25.4 9.335e+03 1.877e-10
 92.69140    -24.5 9.519e+03 2.440e-10
 92.73320    -24.2 9.838e+03 3.161e-10
 92.76642    -24.4 1.023e+04 4.312e-10
 92.78732    -24.6 1.038e+04 5.162e-10
 92.80624    -24.3 1.076e+04 6.669e-10
 92.82555    -24.6 1.084e+04 7.318e-10
 92.83600    -24.8 1.095e+04 7.609e-10
 92.84794    -24.7 1.113e+04 8.289e-10
 92.86884    -25.1 1.116e+04 8.116e-10
 92.88488    -25.7 1.103e+04 7.042e-10
 92.89533    -26.3 1.114e+04 8.197e-10
 92.90770    -26.7 1.096e+04 7.240e-10
 92.91814    -26.8 1.096e+04 7.322e-10
 92.93153    -27.2 1.067e+04 6.263e-10
 92.94421    -27.3 1.057e+04 5.538e-10
 92.95465    -27.4 1.065e+04 6.265e-10
 92.98273    -27.6 1.032e+04 4.648e-10
 93.00363    -27.4 1.025e+04 4.734e-10
 93.02567    -27.5 1.001e+04 3.684e-10
 93.06756    -26.5 9.545e+03 2.200e-10
 93.10149    -25.4 9.223e+03 1.313e-10
 93.12238    -25.5 9.310e+03 1.673e-10
 93.15115    -24.4 9.098e+03 1.214e-10
 93.18628    -23.0 8.959e+03 1.028e-10
 93.20718    -22.7 8.944e+03 1.094e-10
 93.22014    -21.1 8.916e+03 1.067e-10
 93.24104    -20.9 8.935e+03 1.152e-10
 93.27654    -19.3 9.017e+03 1.168e-10
 93.31790    -18.0 9.119e+03 1.340e-10
 93.33880    -17.5 9.053e+03 1.300e-10
 93.36013    -16.1 9.138e+03 1.475e-10
 93.40192    -14.9 9.223e+03 1.693e-10
 93.43655    -13.7 9.308e+03 1.933e-10
 93.45745    -13.4 9.123e+03 1.715e-10
 93.48551    -12.0 9.223e+03 1.845e-10
 93.52731    -10.9 9.374e+03 1.998e-10
 93.55521    -10.0 9.705e+03 2.566e-10
 93.57611     -9.0 9.367e+03 1.710e-10
 93.61090     -8.6 9.830e+03 2.512e-10
 93.65270     -7.4 1.024e+04 4.412e-10
 93.67386     -5.4 1.037e+04 6.229e-10
 93.69476     -4.6 1.013e+04 4.738e-10
 93.73629     -2.8 1.035e+04 5.404e-10
 93.76397     -1.5 1.060e+04 4.559e-10
 93.77841     -1.9 1.069e+04 4.597e-10
 93.79252     -0.7 1.025e+04 4.110e-10
 93.81988      0.6 1.048e+04 3.970e-10
 93.86167      2.0 1.070e+04 4.149e-10
 93.89027      3.6 1.076e+04 4.847e-10
 93.91117      5.4 1.055e+04 3.516e-10
 93.94526      6.9 1.078e+04 4.203e-10
 93.97651      8.1 1.084e+04 4.627e-10
 93.99731      8.1 1.091e+04 4.944e-10
 94.00873      8.7 1.102e+04 6.519e-10
 94.01918      9.6 1.108e+04 5.207e-10
 94.03911      9.9 1.123e+04 7.318e-10
 94.05262      9.9 1.184e+04 1.070e-09
 94.06068     10.1 1.215e+04 1.183e-09
 94.06806     10.6 1.199e+04 1.002e-09
 94.08090      8.9 1.370e+04 2.124e-09
 94.10180      7.4 1.559e+04 4.710e-09
 94.11689      4.6 1.743e+04 8.377e-09
 94.12207      5.1 1.768e+04 8.631e-09
 94.12783      2.4 1.967e+04 1.467e-08
 94.13827      0.7 2.022e+04 2.332e-08
 94.14651      0.1 1.938e+04 3.118e-08
 94.15173      0.9 2.002e+04 3.123e-08
 94.15917      0.5 1.898e+04 3.753e-08
 94.16962      0.6 1.826e+04 3.761e-08
 94.17617      0.7 1.802e+04 3.564e-08
 94.18139      0.5 1.878e+04 3.115e-08
 94.19052      0.1 1.876e+04 2.648e-08
 94.20624     -1.8 1.913e+04 1.808e-08
 94.22515     -4.7 1.839e+04 1.007e-08
 94.23560     -6.4 1.777e+04 6.912e-09
 94.24809     -8.8 1.667e+04 4.391e-09
 94.26898    -10.6 1.561e+04 3.063e-09
 94.28447    -11.7 1.482e+04 2.467e-09
 94.29492    -12.4 1.426e+04 2.254e-09
 94.31078    -12.8 1.389e+04 2.035e-09
 94.33101    -12.7 1.381e+04 2.022e-09
 94.34146    -14.0 1.386e+04 2.210e-09
 94.34380    -13.4 1.373e+04 2.227e-09
 94.36480    -13.8 1.333e+04 1.658e-09
 94.40501    -12.2 1.306e+04 1.569e-09
 94.44175    -10.1 1.274e+04 1.330e-09
 94.46265    -10.4 1.249e+04 7.748e-10
 94.48860     -8.9 1.231e+04 6.624e-10
 94.53040     -7.8 1.209e+04 5.995e-10
 94.56041     -6.0 1.199e+04 5.984e-10
 94.58131     -6.3 1.205e+04 5.381e-10
 94.60344     -4.4 1.212e+04 6.092e-10
 94.61954     -4.2 1.213e+04 6.115e-10
 94.62560     -4.4 1.216e+04 6.328e-10
 94.63031     -4.6 1.223e+04 6.329e-10
 94.64514     -3.6 1.190e+04 6.822e-10
 94.66604     -2.2 1.188e+04 6.659e-10
 94.67887     -1.3 1.276e+04 4.999e-10
 94.68932     -1.7 1.260e+04 6.437e-10
 94.70784     -1.3 1.241e+04 6.700e-10
 94.72775     -1.3 1.280e+04 6.678e-10
 94.73820     -1.7 1.276e+04 9.179e-10
 94.74963     -2.0 1.297e+04 1.007e-09
 94.77053     -1.9 1.285e+04 1.279e-09
 94.78707     -1.6 1.288e+04 1.572e-09
 94.79752     -1.4 1.313e+04 1.815e-09
 94.81232     -0.8 1.348e+04 2.081e-09
 94.83322     -0.6 1.382e+04 2.239e-09
 94.84640     -0.8 1.409e+04 2.399e-09
 94.85685     -1.7 1.425e+04 2.280e-09
 94.87502     -2.2 1.420e+04 2.278e-09
 94.89528     -2.4 1.391e+04 2.309e-09
 94.90573     -3.0 1.379e+04 2.263e-09
 94.90870     -2.3 1.347e+04 2.107e-09
 94.91915     -2.6 1.335e+04 1.980e-09
 94.93771     -2.0 1.325e+04 1.617e-09
 94.95461     -1.3 1.287e+04 1.354e-09
 94.96506     -1.6 1.281e+04 1.321e-09
 94.97951     -1.1 1.291e+04 9.131e-10
 95.00040     -1.0 1.247e+04 7.750e-10
 95.01394     -0.8 1.239e+04 6.231e-10
 95.02438     -1.0 1.236e+04 6.981e-10
 95.04220     -0.8 1.229e+04 6.661e-10
 95.06281     -0.2 1.220e+04 6.769e-10
 95.07326     -0.1 1.243e+04 7.864e-10
 95.08399      0.4 1.240e+04 8.604e-10
 95.10489      0.9 1.263e+04 9.731e-10
 95.12214      1.4 1.275e+04 1.001e-09
 95.13269      0.6 1.300e+04 1.196e-09
 95.15733      0.8 1.349e+04 1.618e-09
 95.18157      1.0 1.396e+04 1.736e-09
 95.19053     -0.5 1.411e+04 2.443e-09
 95.19754     -0.4 1.395e+04 2.326e-09
 95.20938     -0.9 1.425e+04 3.262e-09
 95.23028     -1.0 1.468e+04 4.784e-09
 95.25118     -0.3 1.519e+04 6.790e-09
 95.27207      0.1 1.581e+04 8.885e-09
 95.28968      1.1 1.577e+04 1.110e-08
 95.30012      2.3 1.551e+04 4.963e-09
 95.31387      2.5 1.542e+04 4.824e-09
 95.33477      3.3 1.487e+04 4.373e-09
 95.34900      3.9 1.409e+04 3.542e-09
 95.35945      2.8 1.321e+04 1.103e-09
 95.37656      3.1 1.288e+04 1.036e-09
 95.39746      3.5 1.262e+04 1.010e-09
 95.40833      3.7 1.252e+04 9.685e-10
 95.41878      2.8 1.175e+04 6.244e-10
 95.44686      5.2 1.200e+04 7.382e-10
 95.46785      5.4 1.112e+04 4.406e-10
 95.47613      7.5 1.129e+04 3.926e-10
 95.49703      7.8 1.133e+04 5.383e-10
 95.53349      9.7 1.147e+04 4.309e-10
 95.56561     11.0 1.173e+04 3.738e-10
 95.58651     11.7 1.148e+04 3.661e-10
 95.61708     12.8 1.175e+04 3.884e-10
 95.65888     13.5 1.183e+04 4.650e-10
 95.68417     14.6 1.179e+04 5.243e-10
 95.69452     14.6 1.172e+04 6.081e-10
 95.71093     15.2 1.172e+04 6.806e-10
 95.73182     16.7 1.179e+04 6.672e-10
 95.74340     17.3 1.200e+04 6.228e-10
 95.75385     17.7 1.184e+04 7.335e-10
 95.76478     18.3 1.212e+04 5.874e-10
 95.77523     18.7 1.222e+04 7.625e-10
 95.79228     18.6 1.237e+04 6.217e-10
 95.80272     19.4 1.241e+04 7.152e-10
 95.81541     19.2 1.243e+04 5.631e-10
 95.83631     18.8 1.222e+04 5.052e-10
 95.86776     19.4 1.192e+04 4.746e-10
 95.90068     20.8 1.144e+04 3.859e-10
 95.92157     21.2 1.147e+04 3.789e-10
 95.95144     23.3 1.112e+04 2.372e-10
 95.99324     24.8 1.103e+04 1.480e-10
 96.01933     26.0 1.083e+04 1.143e-10
 96.03812     25.8 1.078e+04 9.207e-11
 96.05382     25.0 1.079e+04 1.225e-10
 96.07683     26.8 1.076e+04 1.260e-10
 96.11709     28.4 1.072e+04 1.532e-10
 96.13799     28.2 1.057e+04 1.756e-10
 96.16042     30.2 1.056e+04 2.518e-10
 96.20222     32.5 1.065e+04 3.270e-10
 96.23574     34.5 1.077e+04 3.414e-10
 96.25664     34.5 1.070e+04 2.907e-10
 96.28581     36.1 1.064e+04 2.533e-10
 96.32760     37.6 1.059e+04 2.106e-10
 96.35440     39.1 1.050e+04 1.846e-10
 96.37530     38.9 1.040e+04 1.630e-10
 96.41119     40.8 1.034e+04 1.649e-10
 96.45216     42.9 1.032e+04 1.687e-10
 96.47305     43.2 1.029e+04 1.469e-10
 96.49479     45.5 1.029e+04 1.532e-10
 96.53658     47.9 1.031e+04 1.596e-10
 96.57081     50.3 1.034e+04 1.648e-10
 96.59171     50.7 1.029e+04 1.240e-10
 96.61061     53.2 1.033e+04 1.276e-10
 96.63151     52.8 1.024e+04 8.462e-11
 96.66197     55.2 1.030e+04 7.813e-11
 96.68947     57.6 1.034e+04 7.294e-11
 96.71036     58.0 1.021e+04 5.545e-11
 96.74556     60.5 1.027e+04 5.358e-11
 96.78722     62.9 1.034e+04 5.241e-11
 96.82902     65.8 1.038e+04 4.774e-11
 96.87094     68.3 1.044e+04 4.983e-11
 96.90588     70.7 1.045e+04 5.395e-11
 96.92678     71.4 1.053e+04 5.382e-11
 96.95453     73.9 1.049e+04 5.758e-11
 96.99633     76.4 1.044e+04 6.193e-11
 97.02453     78.9 1.042e+04 6.528e-11
 97.04543     79.7 1.056e+04 6.432e-11
 97.07992     82.2 1.045e+04 6.443e-11
 97.12172     84.8 1.041e+04 6.537e-11
 97.14319     87.3 1.041e+04 6.726e-11
 97.16409     88.1 1.048e+04 6.715e-11
 97.18829     90.8 1.044e+04 6.912e-11
 97.20919     90.9 1.046e+04 6.898e-11
 97.24095     93.6 1.046e+04 7.378e-11
 97.26184     94.3 1.066e+04 8.721e-11
 97.28890     96.9 1.065e+04 8.795e-11
 97.33069     99.6 1.071e+04 8.959e-11
 97.35960    102.2 1.076e+04 9.046e-11
 97.38050    103.0 1.093e+04 1.068e-10
 97.41428    105.7 1.094e+04 1.110e-10
 97.45608    108.3 1.100e+04 1.163e-10
 97.47825    111.0 1.105e+04 1.204e-10
 97.49915    112.0 1.110e+04 1.621e-10
 97.53967    114.8 1.112e+04 1.709e-10
 97.57601    117.5 1.116e+04 1.746e-10
 97.59691    118.5 1.120e+04 2.787e-10
 97.62326    121.2 1.121e+04 2.940e-10
 97.66506    123.6 1.133e+04 2.951e-10
 97.69467    126.0 1.136e+04 2.939e-10
 97.70502    126.3 1.172e+04 5.220e-10
 97.71711    127.3 1.171e+04 5.250e-10
 97.73800    128.5 1.169e+04 5.302e-10
 97.75380    129.8 1.169e+04 5.357e-10
 97.76068    129.8 1.191e+04 6.970e-10
 97.76578    129.8 1.182e+04 6.601e-10
 97.77980    131.1 1.192e+04 7.182e-10
 97.80070    132.4 1.203e+04 7.528e-10
 97.81313    133.6 1.210e+04 7.745e-10
 97.82358    134.5 1.224e+04 1.022e-09
 97.84249    135.7 1.232e+04 1.083e-09
 97.86201    136.8 1.238e+04 1.148e-09
 97.87245    137.4 1.286e+04 1.288e-09
 97.88429    138.5 1.296e+04 1.415e-09
 97.90519    139.6 1.313e+04 1.588e-09
 97.92133    140.5 1.342e+04 1.859e-09
 97.93178    140.1 1.422e+04 2.277e-09
 97.94698    140.8 1.496e+04 3.091e-09
 97.96788    142.0 1.576e+04 4.433e-09
 97.98066    142.6 1.617e+04 5.434e-09
 97.98584    141.4 1.632e+04 6.211e-09
 97.99390    141.5 1.674e+04 7.419e-09
 98.00435    141.6 1.725e+04 9.307e-09
 98.01023    141.7 1.778e+04 1.195e-08
 98.01545    140.6 1.885e+04 1.341e-08
 98.02525    140.7 1.950e+04 1.657e-08
 98.03467    140.9 2.006e+04 2.020e-08
 98.03989    139.3 2.173e+04 1.877e-08
 98.04408    139.7 2.296e+04 2.044e-08
 98.04931    139.5 2.298e+04 2.146e-08
 98.05660    139.8 2.431e+04 2.356e-08
 98.06433    140.0 2.565e+04 2.606e-08
 98.06955    137.1 2.373e+04 1.333e-08
 98.07749    136.8 2.414e+04 1.232e-08
 98.08794    136.4 2.457e+04 1.124e-08
 98.09399    135.8 2.492e+04 1.017e-08
 98.09922    129.0 1.647e+04 3.744e-09
 98.10884    128.1 1.683e+04 3.540e-09
 98.11843    126.8 1.709e+04 3.361e-09
 98.12366    124.5 1.648e+04 2.489e-09
 98.12974    122.4 1.670e+04 2.460e-09
 98.14019    120.7 1.665e+04 2.393e-09
 98.14810    118.3 1.664e+04 2.386e-09
 98.15859    114.0 1.560e+04 2.135e-09
 98.17686    110.7 1.537e+04 2.154e-09
 98.19707    107.8 1.486e+04 2.134e-09
 98.20752    105.5 1.431e+04 2.495e-09
 98.21865    103.8 1.415e+04 2.359e-09
 98.23955    102.4 1.379e+04 2.150e-09
 98.25640    101.2 1.346e+04 1.861e-09
 98.26685    100.3 1.311e+04 1.367e-09
 98.28134     99.1 1.268e+04 1.026e-09
 98.30224     98.0 1.239e+04 8.145e-10
 98.31573     97.0 1.212e+04 6.891e-10
 98.32561     95.8 1.129e+04 4.757e-10
 98.33302     95.2 1.129e+04 5.270e-10
 98.34404     94.9 1.127e+04 5.322e-10
 98.36461     94.9 1.126e+04 5.664e-10
 98.37505     95.0 1.096e+04 4.840e-10
 98.38583     95.2 1.105e+04 5.495e-10
 98.40673     95.6 1.120e+04 6.508e-10
 98.42393     96.1 1.142e+04 7.990e-10
 98.43438     96.4 1.115e+04 6.590e-10
 98.44853     97.1 1.141e+04 8.230e-10
 98.46942     97.7 1.161e+04 9.457e-10
 98.48326     98.4 1.182e+04 1.106e-09
 98.50426     98.9 1.152e+04 9.666e-10
 98.54276    100.2 1.151e+04 1.019e-09
 98.58121    101.7 1.141e+04 9.800e-10
 98.60211    102.3 1.067e+04 6.043e-10
 98.62635    103.8 1.060e+04 5.841e-10
 98.66815    105.3 1.050e+04 5.623e-10
 98.69987    106.9 1.044e+04 5.622e-10
 98.72077    107.0 1.029e+04 5.016e-10
 98.75174    108.6 1.033e+04 5.460e-10
 98.79353    110.3 1.036e+04 5.742e-10
 98.81852    111.8 1.034e+04 5.694e-10
 98.83942    111.9 1.034e+04 5.800e-10
 98.87712    113.4 1.029e+04 5.619e-10
 98.90046    114.9 1.013e+04 5.037e-10
 98.91871    114.5 9.664e+03 3.435e-10
 98.93718    114.6 9.679e+03 3.487e-10
 98.96072    116.3 9.459e+03 2.790e-10
 99.00251    118.0 9.224e+03 2.154e-10
 99.03494    119.8 9.004e+03 1.685e-10
 99.05583    119.5 8.993e+03 1.573e-10
 99.08610    121.3 8.771e+03 1.384e-10
 99.12790    123.4 8.680e+03 1.368e-10
 99.15359    125.7 8.660e+03 1.403e-10
 99.17449    125.2 8.665e+03 1.321e-10
 99.21149    127.5 8.687e+03 1.391e-10
 99.25135    129.7 8.742e+03 1.497e-10
 99.27225    129.0 8.748e+03 1.272e-10
 99.29508    130.9 8.815e+03 1.348e-10
 99.33687    132.7 8.898e+03 1.451e-10
 99.37000    134.4 8.994e+03 1.593e-10
 99.39090    133.3 9.018e+03 1.473e-10
 99.42047    134.8 9.136e+03 1.700e-10
 99.45724    136.2 9.296e+03 1.982e-10
 99.47814    135.3 9.353e+03 2.017e-10
 99.48866    136.5 9.523e+03 2.250e-10
 99.50955    134.7 9.773e+03 2.358e-10
 99.54585    135.6 9.827e+03 2.373e-10
 99.58641    136.5 9.816e+03 2.309e-10
 99.60731    134.2 1.013e+04 2.784e-10
 99.62944    134.8 1.015e+04 2.691e-10
 99.67124    135.2 1.020e+04 2.773e-10
 99.70507    135.8 1.035e+04 3.084e-10
 99.72597    133.9 1.096e+04 5.085e-10
 99.74428    134.5 1.094e+04 5.166e-10
 99.75634    134.8 1.099e+04 5.525e-10
 99.76591    134.7 1.093e+04 5.112e-10
 99.77465    133.1 1.106e+04 5.701e-10
 99.78598    132.9 1.105e+04 5.880e-10
 99.80688    132.7 1.102e+04 5.935e-10
 99.82353    132.5 1.101e+04 5.880e-10
 99.83398    130.5 1.099e+04 5.567e-10
 99.84867    129.9 1.095e+04 5.475e-10
 99.86957    129.2 1.095e+04 5.490e-10
 99.88286    128.5 1.092e+04 5.566e-10
 99.89331    126.5 1.084e+04 5.826e-10
 99.91137    125.9 1.077e+04 5.951e-10
 99.93173    125.4 1.075e+04 5.899e-10
 99.94218    123.7 1.069e+04 5.902e-10
 99.95316    123.2 1.065e+04 5.625e-10
 99.97406    122.3 1.064e+04 5.416e-10
 99.99106    120.9 1.082e+04 5.239e-10
100.00151    117.9 1.102e+04 5.304e-10
