# Columns:
#   distance along LOS (in CHIMPs)
#   peculiar velocity  (in km/s)
#   temperature (K)
#   HI number density
# pos=(240.571,237.8,120.126), angles=(1.77764,3.19558)
  0.00065   -240.3 1.245e+04 1.328e-09
  0.00645   -240.9 1.253e+04 1.535e-09
  0.02160   -240.0 1.268e+04 1.590e-09
  0.04158   -239.2 1.273e+04 1.598e-09
  0.06157   -238.6 1.272e+04 1.480e-09
  0.08155   -238.1 1.265e+04 1.319e-09
  0.09407   -237.7 1.253e+04 1.174e-09
  0.10407   -237.4 1.291e+04 1.752e-09
  0.12152   -236.8 1.285e+04 1.589e-09
  0.14026   -236.3 1.283e+04 1.488e-09
  0.15026   -235.8 1.238e+04 1.145e-09
  0.16150   -235.3 1.237e+04 1.040e-09
  0.18148   -235.1 1.241e+04 9.820e-10
  0.20147   -235.2 1.260e+04 1.116e-09
  0.23154   -235.6 1.265e+04 1.072e-09
  0.26922   -236.3 1.309e+04 1.377e-09
  0.28910   -236.1 1.360e+04 1.832e-09
  0.30140   -236.7 1.416e+04 2.266e-09
  0.32138   -238.0 1.479e+04 2.871e-09
  0.34137   -239.8 1.529e+04 3.473e-09
  0.36135   -242.1 1.551e+04 3.819e-09
  0.37653   -244.6 1.554e+04 3.889e-09
  0.38652   -245.4 1.662e+04 5.697e-09
  0.40133   -247.6 1.628e+04 5.365e-09
  0.42131   -249.6 1.552e+04 4.261e-09
  0.44130   -251.3 1.460e+04 3.222e-09
  0.46128   -252.7 1.377e+04 2.467e-09
  0.47404   -253.5 1.316e+04 1.945e-09
  0.48404   -253.5 1.321e+04 1.850e-09
  0.50125   -253.8 1.261e+04 1.385e-09
  0.51506   -253.9 1.214e+04 1.115e-09
  0.52505   -254.1 1.169e+04 8.476e-10
  0.54123   -253.7 1.155e+04 7.381e-10
  0.56121   -253.1 1.155e+04 6.956e-10
  0.57156   -252.5 1.156e+04 6.897e-10
  0.58155   -252.3 1.134e+04 6.094e-10
  0.60118   -251.6 1.145e+04 6.125e-10
  0.62117   -251.1 1.177e+04 6.628e-10
  0.64115   -250.6 1.205e+04 7.673e-10
  0.65908   -250.1 1.228e+04 8.998e-10
  0.66907   -249.7 1.230e+04 8.188e-10
  0.68113   -249.3 1.254e+04 9.560e-10
  0.70111   -249.0 1.265e+04 1.094e-09
  0.72110   -248.7 1.264e+04 1.206e-09
  0.74108   -248.5 1.262e+04 1.279e-09
  0.75660   -248.3 1.262e+04 1.343e-09
  0.76659   -248.5 1.311e+04 1.529e-09
  0.78106   -248.3 1.321e+04 1.705e-09
  0.80104   -248.0 1.333e+04 1.868e-09
  0.82103   -247.6 1.341e+04 1.963e-09
  0.84101   -247.2 1.343e+04 1.983e-09
  0.85411   -246.8 1.341e+04 1.976e-09
  0.86410   -246.8 1.404e+04 2.603e-09
  0.87987   -246.3 1.392e+04 2.448e-09
  0.88986   -246.0 1.381e+04 2.913e-09
  0.90097   -245.4 1.379e+04 2.910e-09
  0.92096   -244.8 1.370e+04 2.813e-09
  0.94094   -244.2 1.359e+04 2.647e-09
  0.95163   -243.7 1.348e+04 2.468e-09
  0.96162   -244.0 1.432e+04 3.228e-09
  0.98091   -243.6 1.427e+04 3.052e-09
  1.00090   -243.2 1.419e+04 2.852e-09
  1.02088   -242.8 1.406e+04 2.607e-09
  1.03915   -242.4 1.387e+04 2.301e-09
  1.04914   -243.1 1.472e+04 3.140e-09
  1.06086   -242.6 1.433e+04 2.690e-09
  1.08084   -241.8 1.390e+04 2.254e-09
  1.10083   -241.0 1.348e+04 1.897e-09
  1.12081   -240.0 1.317e+04 1.679e-09
  1.13666   -239.1 1.296e+04 1.581e-09
  1.14666   -239.6 1.319e+04 1.683e-09
  1.16078   -238.3 1.300e+04 1.597e-09
  1.19086   -237.0 1.288e+04 1.569e-09
  1.22438   -234.4 1.279e+04 1.553e-09
  1.24437   -235.0 1.294e+04 1.581e-09
  1.27090   -232.4 1.284e+04 1.607e-09
  1.31087   -230.1 1.292e+04 1.741e-09
  1.35084   -227.8 1.298e+04 1.876e-09
  1.39082   -225.7 1.304e+04 1.963e-09
  1.41941   -223.8 1.303e+04 1.992e-09
  1.43940   -223.5 1.260e+04 1.461e-09
  1.47076   -221.3 1.257e+04 1.525e-09
  1.51073   -219.0 1.243e+04 1.551e-09
  1.55070   -216.5 1.235e+04 1.441e-09
  1.59067   -214.0 1.228e+04 1.315e-09
  1.61444   -211.7 1.230e+04 1.262e-09
  1.62345   -210.8 1.233e+04 1.296e-09
  1.63965   -210.9 1.234e+04 1.248e-09
  1.67062   -208.8 1.250e+04 1.303e-09
  1.71059   -206.9 1.262e+04 1.346e-09
  1.75056   -205.1 1.271e+04 1.363e-09
  1.78948   -203.5 1.278e+04 1.365e-09
  1.80947   -202.9 1.289e+04 1.422e-09
  1.83050   -201.3 1.295e+04 1.423e-09
  1.87047   -200.0 1.296e+04 1.425e-09
  1.91045   -198.8 1.297e+04 1.421e-09
  1.95042   -197.8 1.298e+04 1.404e-09
  1.98452   -196.7 1.301e+04 1.374e-09
  2.00450   -195.9 1.291e+04 1.262e-09
  2.03036   -194.8 1.296e+04 1.276e-09
  2.07033   -193.7 1.304e+04 1.303e-09
  2.09193   -193.4 1.311e+04 1.345e-09
  2.10182   -192.6 1.314e+04 1.354e-09
  2.12010   -192.4 1.306e+04 1.335e-09
  2.14009   -192.0 1.291e+04 1.289e-09
  2.16007   -191.5 1.273e+04 1.203e-09
  2.17935   -191.0 1.253e+04 1.085e-09
  2.18934   -190.4 1.270e+04 1.188e-09
  2.20004   -189.8 1.248e+04 1.055e-09
  2.22003   -189.1 1.227e+04 9.132e-10
  2.24002   -188.4 1.208e+04 7.819e-10
  2.26000   -187.7 1.192e+04 6.721e-10
  2.27686   -186.9 1.182e+04 5.859e-10
  2.28686   -186.3 1.193e+04 6.432e-10
  2.29997   -185.5 1.184e+04 5.684e-10
  2.31996   -184.7 1.179e+04 5.136e-10
  2.33994   -184.0 1.178e+04 4.727e-10
  2.35907   -183.3 1.174e+04 4.430e-10
  2.36916   -184.1 1.148e+04 4.217e-10
  2.37458   -182.3 1.140e+04 4.019e-10
  2.39456   -181.2 1.162e+04 4.379e-10
  2.43008   -179.3 1.158e+04 4.318e-10
  2.47005   -177.4 1.157e+04 4.314e-10
  2.51002   -175.6 1.160e+04 4.271e-10
  2.54962   -173.9 1.161e+04 4.093e-10
  2.56961   -173.0 1.204e+04 5.240e-10
  2.58996   -171.3 1.208e+04 5.323e-10
  2.62993   -169.5 1.201e+04 5.243e-10
  2.66991   -167.6 1.192e+04 5.103e-10
  2.70988   -165.7 1.186e+04 5.004e-10
  2.74465   -163.8 1.185e+04 5.009e-10
  2.76464   -163.1 1.256e+04 8.019e-10
  2.78982   -161.6 1.268e+04 8.962e-10
  2.82979   -160.1 1.275e+04 9.840e-10
  2.86976   -158.8 1.274e+04 1.036e-09
  2.90973   -157.5 1.270e+04 1.049e-09
  2.93968   -156.3 1.259e+04 1.028e-09
  2.95967   -156.2 1.303e+04 1.387e-09
  2.98968   -155.0 1.279e+04 1.181e-09
  3.02965   -153.8 1.251e+04 9.314e-10
  3.06962   -152.5 1.219e+04 6.943e-10
  3.09887   -151.2 1.189e+04 5.080e-10
  3.11886   -150.9 1.196e+04 5.999e-10
  3.13471   -149.7 1.172e+04 4.577e-10
  3.15470   -149.7 1.181e+04 4.678e-10
  3.18954   -148.4 1.163e+04 3.806e-10
  3.22951   -147.1 1.159e+04 3.452e-10
  3.26948   -145.8 1.157e+04 3.303e-10
  3.30945   -144.4 1.156e+04 3.225e-10
  3.32974   -143.1 1.156e+04 3.171e-10
  3.34973   -143.1 1.156e+04 3.118e-10
  3.38939   -141.7 1.156e+04 3.115e-10
  3.42936   -140.3 1.156e+04 3.125e-10
  3.46934   -138.9 1.160e+04 3.216e-10
  3.50478   -137.6 1.164e+04 3.437e-10
  3.52477   -137.7 1.160e+04 3.409e-10
  3.54928   -136.5 1.165e+04 3.735e-10
  3.58925   -135.2 1.167e+04 3.960e-10
  3.62922   -133.9 1.166e+04 4.004e-10
  3.66919   -132.5 1.156e+04 3.934e-10
  3.69981   -130.9 1.141e+04 3.397e-10
  3.71980   -130.9 1.140e+04 3.445e-10
  3.74914   -129.1 1.124e+04 2.685e-10
  3.78911   -127.4 1.110e+04 1.990e-10
  3.82848   -125.7 1.097e+04 1.556e-10
  3.84847   -125.9 1.107e+04 1.773e-10
  3.86905   -124.2 1.103e+04 1.717e-10
  3.89484   -122.4 1.099e+04 1.743e-10
  3.91483   -122.4 1.094e+04 1.535e-10
  3.94899   -120.7 1.085e+04 1.720e-10
  3.98897   -118.9 1.074e+04 1.941e-10
  4.02894   -117.1 1.068e+04 2.012e-10
  4.06891   -115.2 1.058e+04 2.002e-10
  4.08987   -113.1 1.031e+04 1.732e-10
  4.10986   -113.2 1.025e+04 1.557e-10
  4.14885   -111.0 1.014e+04 1.276e-10
  4.18882   -108.8 1.009e+04 1.046e-10
  4.22879   -106.7 1.003e+04 8.878e-11
  4.26492   -104.4 9.978e+03 7.887e-11
  4.28490   -104.5 9.940e+03 7.714e-11
  4.30874   -102.2 9.888e+03 7.100e-11
  4.34871   -100.0 9.834e+03 6.696e-11
  4.38868    -97.7 9.787e+03 6.465e-11
  4.42865    -95.5 9.772e+03 6.390e-11
  4.45995    -93.4 9.777e+03 6.401e-11
  4.47994    -93.5 9.758e+03 6.284e-11
  4.50860    -91.6 9.735e+03 6.943e-11
  4.54857    -89.6 9.679e+03 8.024e-11
  4.57808    -87.6 9.625e+03 8.926e-11
  4.59806    -87.2 9.614e+03 9.530e-11
  4.62851    -85.1 9.594e+03 9.730e-11
  4.65498    -83.0 9.515e+03 9.680e-11
  4.67497    -83.1 9.442e+03 9.092e-11
  4.70845    -80.8 9.350e+03 7.834e-11
  4.74842    -78.6 9.316e+03 6.455e-11
  4.78840    -76.5 9.290e+03 5.416e-11
  4.82837    -74.5 9.238e+03 4.816e-11
  4.85001    -72.6 9.175e+03 4.557e-11
  4.87000    -72.7 9.175e+03 4.339e-11
  4.90831    -70.7 9.148e+03 4.311e-11
  4.94828    -68.6 9.115e+03 4.411e-11
  4.98825    -66.5 9.086e+03 4.556e-11
  5.02505    -64.4 9.069e+03 4.648e-11
  5.04504    -64.8 9.099e+03 4.669e-11
  5.06820    -62.7 9.086e+03 4.736e-11
  5.10817    -60.6 9.067e+03 4.713e-11
  5.14814    -58.6 9.053e+03 4.660e-11
  5.18811    -56.6 9.035e+03 4.652e-11
  5.22008    -54.6 9.012e+03 4.778e-11
  5.24007    -55.0 9.034e+03 5.665e-11
  5.26805    -53.0 8.981e+03 5.758e-11
  5.30769    -50.8 8.913e+03 5.829e-11
  5.32767    -50.3 8.991e+03 6.782e-11
  5.34800    -48.1 8.945e+03 6.622e-11
  5.38797    -45.9 8.918e+03 6.018e-11
  5.41511    -44.0 8.875e+03 5.409e-11
  5.43510    -44.1 8.877e+03 5.280e-11
  5.46791    -42.2 8.767e+03 5.026e-11
  5.50788    -40.0 8.650e+03 5.137e-11
  5.54786    -37.6 8.591e+03 5.463e-11
  5.58783    -35.4 8.683e+03 5.351e-11
  5.61014    -33.8 8.872e+03 5.216e-11
  5.63013    -34.2 9.013e+03 6.888e-11
  5.66777    -32.4 8.799e+03 8.995e-11
  5.70774    -29.9 8.629e+03 1.088e-10
  5.74771    -27.2 8.681e+03 1.035e-10
  5.78519    -25.0 8.734e+03 8.958e-11
  5.80517    -25.0 8.761e+03 8.521e-11
  5.82766    -23.3 8.676e+03 7.494e-11
  5.86763    -21.4 8.556e+03 7.227e-11
  5.90760    -19.2 8.521e+03 7.368e-11
  5.94757    -16.9 8.515e+03 7.589e-11
  5.98022    -14.5 8.522e+03 7.739e-11
  6.00020    -14.5 8.532e+03 7.566e-11
  6.02751    -12.2 8.543e+03 7.846e-11
  6.05728    -10.0 8.589e+03 8.492e-11
  6.07727     -9.9 8.578e+03 9.303e-11
  6.10746     -7.8 8.666e+03 1.086e-10
  6.14743     -5.7 8.804e+03 1.371e-10
  6.17525     -3.7 9.009e+03 1.882e-10
  6.19523     -3.6 9.126e+03 2.142e-10
  6.22737     -1.5 9.401e+03 2.975e-10
  6.26734      0.6 9.661e+03 3.892e-10
  6.30731      2.7 9.853e+03 4.648e-10
  6.34729      4.7 9.978e+03 5.033e-10
  6.37028      6.5 1.002e+04 5.071e-10
  6.39026      6.4 1.006e+04 5.152e-10
  6.42723      8.2 1.007e+04 5.125e-10
  6.46720     10.1 1.005e+04 5.059e-10
  6.50717     11.9 1.006e+04 4.988e-10
  6.54532     13.8 1.012e+04 5.102e-10
  6.56531     13.6 1.026e+04 5.587e-10
  6.58711     15.2 1.042e+04 6.202e-10
  6.62709     16.6 1.061e+04 7.216e-10
  6.66706     17.9 1.084e+04 8.523e-10
  6.70703     19.1 1.101e+04 9.756e-10
  6.74035     20.1 1.109e+04 1.045e-09
  6.76034     19.7 1.103e+04 9.780e-10
  6.78689     20.3 1.097e+04 9.112e-10
  6.81678     21.7 1.114e+04 9.708e-10
  6.83674     21.5 1.108e+04 9.122e-10
  6.84767     21.1 1.088e+04 8.479e-10
  6.85766     20.6 1.067e+04 7.723e-10
  6.87671     20.4 1.051e+04 7.482e-10
  6.89670     20.1 1.058e+04 7.736e-10
  6.91668     19.0 1.077e+04 8.363e-10
  6.93519     15.7 1.218e+04 9.839e-10
  6.94518     10.5 1.495e+04 1.653e-09
  6.95666      7.2 1.564e+04 3.106e-09
  6.97664      5.4 1.565e+04 4.668e-09
  6.99663      4.1 1.549e+04 5.442e-09
  7.01661      2.5 1.539e+04 5.240e-09
  7.03270     -0.1 1.525e+04 4.529e-09
  7.04270     -2.7 1.533e+04 4.447e-09
  7.05659     -6.4 1.437e+04 3.233e-09
  7.07657     -9.5 1.311e+04 2.482e-09
  7.09656    -11.1 1.221e+04 2.063e-09
  7.11654    -11.7 1.177e+04 1.777e-09
  7.13022    -12.0 1.149e+04 1.485e-09
  7.14021    -12.4 1.103e+04 1.177e-09
  7.15651    -13.0 1.073e+04 9.064e-10
  7.17149    -14.0 1.045e+04 7.137e-10
  7.18148    -16.2 1.049e+04 7.233e-10
  7.19649    -17.3 1.044e+04 7.145e-10
  7.21647    -18.3 1.068e+04 8.163e-10
  7.22773    -18.7 1.106e+04 1.035e-09
  7.23773    -17.7 1.016e+04 6.624e-10
  7.25644    -17.7 1.055e+04 8.524e-10
  7.27643    -17.7 1.123e+04 1.197e-09
  7.29641    -18.4 1.297e+04 1.998e-09
  7.31526    -19.7 1.490e+04 3.730e-09
  7.32525    -17.7 1.307e+04 1.868e-09
  7.33639    -18.9 1.459e+04 3.491e-09
  7.35637    -19.1 1.532e+04 5.871e-09
  7.37636    -18.3 1.550e+04 7.862e-09
  7.39634    -17.3 1.579e+04 9.000e-09
  7.41277    -17.0 1.618e+04 9.187e-09
  7.42276    -16.1 1.539e+04 7.781e-09
  7.43631    -16.0 1.592e+04 8.073e-09
  7.45630    -16.5 1.613e+04 7.646e-09
  7.47629    -17.3 1.592e+04 6.596e-09
  7.49627    -18.0 1.530e+04 5.263e-09
  7.51029    -18.5 1.442e+04 3.982e-09
  7.52028    -17.6 1.508e+04 4.962e-09
  7.53624    -17.7 1.420e+04 3.699e-09
  7.55623    -18.3 1.234e+04 1.986e-09
  7.57621    -17.9 1.187e+04 1.499e-09
  7.59620    -17.1 1.145e+04 1.106e-09
  7.62628    -15.8 1.100e+04 7.520e-10
  7.66635    -14.9 1.031e+04 4.527e-10
  7.69552    -13.3 9.824e+03 3.580e-10
  7.71550    -13.7 9.805e+03 3.476e-10
  7.74629    -11.2 9.799e+03 3.475e-10
  7.77617     -9.4 9.860e+03 3.725e-10
  7.79284     -8.3 9.960e+03 4.036e-10
  7.80283     -8.9 9.906e+03 3.933e-10
  7.81604     -7.7 9.947e+03 4.149e-10
  7.83603     -6.4 1.002e+04 4.401e-10
  7.85602     -5.0 1.018e+04 4.895e-10
  7.87600     -3.8 1.045e+04 5.691e-10
  7.89035     -2.8 1.072e+04 6.651e-10
  7.90035     -3.4 1.062e+04 6.390e-10
  7.91109     -2.5 1.083e+04 7.488e-10
  7.92109     -1.9 1.077e+04 7.323e-10
  7.93596     -1.1 1.105e+04 9.043e-10
  7.95594     -0.2 1.145e+04 1.172e-09
  7.97593      0.5 1.181e+04 1.532e-09
  7.98787      1.4 1.215e+04 1.930e-09
  7.99786      1.3 1.164e+04 1.608e-09
  8.01590      2.6 1.193e+04 1.839e-09
  8.03589      3.8 1.228e+04 2.039e-09
  8.05587      4.7 1.268e+04 2.219e-09
  8.07539      5.4 1.306e+04 2.397e-09
  8.08538      5.5 1.225e+04 1.432e-09
  8.09584      6.1 1.248e+04 1.487e-09
  8.11583      6.5 1.265e+04 1.595e-09
  8.13582      7.1 1.271e+04 1.745e-09
  8.15580      8.0 1.274e+04 1.933e-09
  8.17291      8.9 1.289e+04 2.177e-09
  8.18290      8.9 1.194e+04 1.259e-09
  8.19577      9.6 1.232e+04 1.492e-09
  8.21576     10.0 1.292e+04 1.895e-09
  8.23575     10.2 1.378e+04 2.620e-09
  8.25573     10.4 1.475e+04 3.783e-09
  8.27042     10.8 1.567e+04 5.343e-09
  8.28041     10.8 1.457e+04 3.748e-09
  8.28589     11.5 1.522e+04 4.755e-09
  8.29588     11.4 1.595e+04 5.534e-09
  8.31569     12.0 1.631e+04 6.387e-09
  8.33567     12.4 1.630e+04 6.467e-09
  8.35566     12.8 1.609e+04 6.249e-09
  8.36794     13.3 1.566e+04 5.703e-09
  8.37793     13.2 1.470e+04 3.782e-09
  8.39563     13.6 1.430e+04 3.420e-09
  8.41562     14.2 1.393e+04 3.129e-09
  8.43560     14.9 1.377e+04 2.992e-09
  8.45546     15.7 1.379e+04 3.000e-09
  8.46545     15.7 1.313e+04 1.880e-09
  8.47557     16.6 1.321e+04 1.914e-09
  8.49556     17.4 1.355e+04 2.090e-09
  8.51555     17.9 1.418e+04 2.605e-09
  8.53553     18.0 1.488e+04 3.595e-09
  8.55297     18.0 1.557e+04 5.275e-09
  8.56297     17.7 1.465e+04 3.167e-09
  8.57550     17.4 1.554e+04 5.278e-09
  8.59549     17.2 1.657e+04 9.320e-09
  8.61547     17.5 1.756e+04 1.522e-08
  8.63546     17.8 1.803e+04 1.754e-08
  8.65049     17.9 1.792e+04 1.672e-08
  8.65573     18.0 1.750e+04 1.442e-08
  8.66069     17.9 1.838e+04 1.861e-08
  8.67543     18.3 1.782e+04 1.468e-08
  8.69542     18.4 1.729e+04 1.042e-08
  8.71540     17.2 1.729e+04 7.748e-09
  8.73539     15.3 1.739e+04 7.225e-09
  8.74800     13.6 1.742e+04 7.489e-09
  8.75800     13.5 1.770e+04 7.593e-09
  8.77536     12.0 1.777e+04 8.744e-09
  8.79535     11.1 1.772e+04 1.053e-08
  8.81533     10.5 1.781e+04 1.288e-08
  8.83532     10.1 1.812e+04 1.596e-08
  8.84552      9.6 1.851e+04 1.948e-08
  8.85551      8.7 1.820e+04 1.539e-08
  8.87529      7.7 1.822e+04 1.732e-08
  8.89528      6.5 1.799e+04 1.724e-08
  8.91526      5.4 1.727e+04 1.566e-08
  8.93304      4.6 1.627e+04 1.262e-08
  8.94303      3.9 1.558e+04 8.766e-09
  8.95523      3.7 1.449e+04 6.915e-09
  8.97522      4.0 1.367e+04 5.206e-09
  8.99520      4.0 1.318e+04 3.790e-09
  9.01519      3.8 1.285e+04 2.640e-09
  9.02549      3.1 1.258e+04 1.718e-09
  9.03087      1.9 1.220e+04 1.183e-09
  9.04055      1.7 1.206e+04 1.177e-09
  9.05516      0.5 1.105e+04 7.567e-10
  9.07515     -0.6 1.010e+04 5.345e-10
  9.09513     -1.3 9.680e+03 4.223e-10
  9.11512     -1.9 9.606e+03 3.658e-10
  9.12807     -2.5 9.596e+03 3.603e-10
  9.13806     -3.2 9.676e+03 3.676e-10
  9.15509     -4.5 9.881e+03 3.955e-10
  9.17508     -6.3 1.025e+04 5.022e-10
  9.19506     -7.5 1.045e+04 6.894e-10
  9.21505     -7.4 1.060e+04 9.160e-10
  9.22559     -7.0 1.070e+04 1.039e-09
  9.23558     -7.3 1.078e+04 1.049e-09
  9.25502     -6.7 1.077e+04 1.036e-09
  9.27500     -6.7 1.086e+04 9.390e-10
  9.29499     -7.1 1.086e+04 7.922e-10
  9.31311     -7.8 1.069e+04 6.763e-10
  9.32310     -8.6 1.055e+04 6.553e-10
  9.33496     -9.1 1.024e+04 6.207e-10
  9.35495     -9.0 9.996e+03 6.266e-10
  9.37493     -8.6 9.818e+03 6.232e-10
  9.39030     -8.1 9.725e+03 6.225e-10
  9.40029     -7.0 9.934e+03 6.119e-10
  9.41062     -6.5 9.868e+03 6.369e-10
  9.42062     -6.3 9.643e+03 5.521e-10
  9.43489     -5.9 9.631e+03 5.525e-10
  9.45488     -5.0 9.622e+03 5.385e-10
  9.47486     -4.6 9.658e+03 5.415e-10
  9.49485     -3.9 9.729e+03 5.520e-10
  9.50814     -3.3 9.835e+03 5.730e-10
  9.51813     -3.4 9.460e+03 4.113e-10
  9.53482     -2.6 9.611e+03 4.426e-10
  9.55481     -2.1 9.729e+03 4.666e-10
  9.57479     -1.6 9.887e+03 5.112e-10
  9.59478     -1.2 1.007e+04 5.519e-10
  9.60565     -0.9 1.026e+04 5.963e-10
  9.61565     -0.9 1.007e+04 5.184e-10
  9.63475     -0.6 1.033e+04 5.915e-10
  9.65473     -0.5 1.080e+04 7.318e-10
  9.67472     -0.3 1.093e+04 7.712e-10
  9.69317     -0.1 1.111e+04 8.631e-10
  9.70317      0.1 1.105e+04 8.539e-10
  9.71469      0.5 1.137e+04 1.015e-09
  9.73468      0.8 1.156e+04 1.109e-09
  9.75466      1.4 1.155e+04 1.100e-09
  9.76510      2.0 1.143e+04 1.038e-09
  9.77509      2.7 1.140e+04 9.520e-10
  9.79069      3.3 1.126e+04 9.035e-10
  9.80068      3.7 1.127e+04 9.050e-10
  9.81462      4.5 1.106e+04 7.918e-10
  9.83461      5.2 1.086e+04 6.652e-10
  9.85459      5.8 1.072e+04 5.537e-10
  9.87458      6.3 1.064e+04 4.709e-10
  9.88821      6.6 1.059e+04 4.184e-10
  9.89820      6.5 1.077e+04 4.334e-10
  9.91455      6.7 1.074e+04 4.137e-10
  9.93454      7.1 1.075e+04 4.223e-10
  9.95452      7.4 1.085e+04 4.571e-10
  9.97451      7.7 1.100e+04 5.331e-10
  9.98572      8.1 1.117e+04 6.541e-10
  9.99571      7.8 1.164e+04 9.337e-10
 10.01448      8.3 1.185e+04 1.157e-09
 10.03446      8.9 1.207e+04 1.408e-09
 10.05445      9.7 1.229e+04 1.659e-09
 10.07324     10.4 1.246e+04 1.848e-09
 10.08324     10.4 1.283e+04 2.166e-09
 10.09442     11.0 1.279e+04 2.143e-09
 10.11441     11.7 1.261e+04 2.010e-09
 10.12990     12.3 1.236e+04 1.802e-09
 10.13990     12.8 1.246e+04 1.891e-09
 10.15438     13.4 1.219e+04 1.685e-09
 10.17076     14.0 1.194e+04 1.493e-09
 10.18075     13.8 1.181e+04 1.394e-09
 10.19435     14.3 1.153e+04 1.206e-09
 10.21434     14.7 1.128e+04 1.069e-09
 10.23432     15.4 1.110e+04 9.749e-10
 10.25431     16.1 1.100e+04 9.128e-10
 10.26827     16.7 1.090e+04 8.571e-10
 10.27827     16.7 1.072e+04 7.621e-10
 10.29428     17.5 1.062e+04 7.183e-10
 10.31426     18.4 1.056e+04 6.843e-10
 10.33425     19.1 1.049e+04 6.540e-10
 10.35424     19.9 1.039e+04 6.292e-10
 10.36579     20.8 1.037e+04 6.279e-10
 10.37578     21.0 1.021e+04 5.681e-10
 10.39421     21.9 1.023e+04 5.773e-10
 10.41419     22.9 1.025e+04 5.972e-10
 10.43418     24.0 1.031e+04 6.351e-10
 10.45331     25.2 1.048e+04 7.054e-10
 10.46330     25.5 1.028e+04 6.252e-10
 10.47415     26.5 1.056e+04 7.216e-10
 10.49414     27.4 1.099e+04 8.811e-10
 10.50470     27.6 1.164e+04 1.185e-09
 10.51469     28.2 1.177e+04 1.273e-09
 10.53411     28.1 1.289e+04 1.947e-09
 10.55082     27.3 1.439e+04 3.447e-09
 10.56082     27.9 1.358e+04 2.728e-09
 10.57408     27.9 1.520e+04 5.181e-09
 10.59407     28.6 1.677e+04 9.428e-09
 10.61405     29.4 1.810e+04 1.468e-08
 10.63404     30.2 1.900e+04 1.706e-08
 10.64834     30.8 1.920e+04 1.637e-08
 10.65833     32.1 1.771e+04 1.217e-08
 10.67401     32.6 1.787e+04 1.114e-08
 10.69399     32.6 1.793e+04 8.366e-09
 10.71398     31.4 1.804e+04 6.216e-09
 10.73397     29.4 1.818e+04 6.063e-09
 10.74585     27.6 1.834e+04 6.542e-09
 10.75585     29.6 1.682e+04 5.125e-09
 10.77394     27.6 1.706e+04 5.994e-09
 10.79392     25.8 1.710e+04 7.166e-09
 10.81391     24.4 1.720e+04 7.623e-09
 10.83338     22.9 1.726e+04 6.949e-09
 10.84337     22.2 1.721e+04 7.101e-09
 10.85388     17.9 1.807e+04 5.450e-09
 10.86882     13.6 1.894e+04 5.309e-09
 10.87441      8.7 1.877e+04 5.229e-09
 10.87940      7.1 2.120e+04 7.520e-09
 10.88703     -0.4 2.048e+04 8.547e-09
 10.89203     -0.8 2.142e+04 1.006e-08
 10.89875     -6.1 1.915e+04 1.058e-08
 10.90874     -8.3 1.788e+04 1.196e-08
 10.91874     -8.5 1.762e+04 1.498e-08
 10.92873     -7.5 1.789e+04 1.665e-08
 10.93579     -7.4 1.839e+04 1.789e-08
 10.94079     -7.6 1.898e+04 2.235e-08
 10.94872     -6.5 1.871e+04 1.955e-08
 10.95871     -6.7 1.878e+04 1.894e-08
 10.97375     -6.3 1.836e+04 1.387e-08
 10.99378     -7.0 1.775e+04 6.871e-09
 11.01377    -10.6 1.634e+04 3.255e-09
 11.02841    -15.1 1.379e+04 2.406e-09
 11.03840    -14.3 1.433e+04 2.569e-09
 11.05374    -16.5 1.313e+04 2.413e-09
 11.07372    -16.5 1.334e+04 2.714e-09
 11.09371    -16.0 1.386e+04 3.371e-09
 11.11370    -15.7 1.431e+04 4.059e-09
 11.12592    -16.3 1.518e+04 5.161e-09
 11.13592    -15.5 1.398e+04 3.457e-09
 11.15367    -16.3 1.464e+04 4.389e-09
 11.17365    -16.3 1.490e+04 5.395e-09
 11.19364    -15.7 1.483e+04 5.537e-09
 11.21344    -14.2 1.444e+04 4.794e-09
 11.22344    -13.5 1.382e+04 3.637e-09
 11.23361    -12.7 1.348e+04 2.835e-09
 11.24430    -12.4 1.277e+04 1.810e-09
 11.25430    -13.7 1.198e+04 1.383e-09
 11.27358    -13.7 1.128e+04 9.412e-10
 11.29357    -13.5 1.081e+04 6.636e-10
 11.31096    -13.3 1.066e+04 5.126e-10
 11.32095    -12.2 1.060e+04 5.084e-10
 11.33354    -11.8 1.044e+04 4.145e-10
 11.35352    -11.6 1.034e+04 3.811e-10
 11.38360     -9.8 1.008e+04 3.651e-10
 11.42367     -7.9 9.898e+03 3.537e-10
 11.46364     -6.0 9.772e+03 3.397e-10
 11.49619     -4.1 9.754e+03 3.357e-10
 11.51618     -2.7 9.803e+03 3.414e-10
 11.54358     -1.2 9.870e+03 3.529e-10
 11.58356     -0.2 1.007e+04 4.184e-10
 11.62353      1.2 1.035e+04 5.742e-10
 11.66350      2.8 1.047e+04 6.578e-10
 11.69122      4.7 1.039e+04 6.264e-10
 11.71121      5.8 1.037e+04 6.190e-10
 11.74344      7.7 1.023e+04 5.399e-10
 11.78341      9.4 1.005e+04 4.312e-10
 11.82339     11.0 9.880e+03 3.452e-10
 11.86336     12.6 9.702e+03 2.862e-10
 11.88625     14.3 9.554e+03 2.450e-10
 11.90624     15.5 9.598e+03 2.595e-10
 11.94330     17.3 9.488e+03 2.238e-10
 11.97411     19.2 9.415e+03 1.957e-10
 11.99410     19.1 9.491e+03 2.160e-10
 12.02324     20.9 9.437e+03 1.919e-10
 12.06130     22.7 9.419e+03 1.906e-10
 12.08128     23.8 9.404e+03 1.733e-10
 12.10319     25.5 9.408e+03 1.780e-10
 12.14316     27.1 9.456e+03 2.000e-10
 12.18313     28.8 9.581e+03 2.505e-10
 12.22310     30.5 9.780e+03 3.254e-10
 12.25633     32.0 1.004e+04 4.179e-10
 12.27631     33.0 9.829e+03 3.234e-10
 12.30304     34.2 1.009e+04 4.262e-10
 12.34302     35.3 1.046e+04 5.690e-10
 12.38299     36.1 1.074e+04 7.013e-10
 12.42296     36.3 1.105e+04 8.496e-10
 12.45136     36.4 1.140e+04 1.018e-09
 12.47134     37.6 1.129e+04 9.216e-10
 12.49281     37.2 1.155e+04 1.073e-09
 12.51270     37.1 1.171e+04 1.171e-09
 12.53268     36.9 1.183e+04 1.263e-09
 12.54868     36.8 1.201e+04 1.375e-09
 12.55867     37.5 1.186e+04 1.260e-09
 12.57266     37.2 1.214e+04 1.440e-09
 12.59264     36.7 1.256e+04 1.748e-09
 12.61263     36.3 1.303e+04 2.213e-09
 12.63261     35.8 1.357e+04 2.944e-09
 12.64619     35.6 1.394e+04 3.638e-09
 12.65618     36.1 1.387e+04 3.583e-09
 12.67258     36.2 1.417e+04 4.153e-09
 12.69257     36.3 1.419e+04 4.115e-09
 12.71256     36.5 1.407e+04 3.646e-09
 12.72361     36.8 1.376e+04 2.708e-09
 12.74369     36.9 1.355e+04 2.364e-09
 12.78270     37.1 1.301e+04 1.583e-09
 12.82143     37.5 1.242e+04 1.064e-09
 12.84142     39.1 1.263e+04 1.198e-09
 12.86264     39.9 1.201e+04 7.714e-10
 12.90262     41.2 1.152e+04 5.168e-10
 12.94259     42.8 1.123e+04 3.653e-10
 12.98256     44.5 1.111e+04 2.749e-10
 13.01646     46.4 1.108e+04 2.230e-10
 13.03645     47.5 1.121e+04 2.345e-10
 13.06250     49.4 1.120e+04 2.138e-10
 13.10247     51.3 1.121e+04 2.035e-10
 13.14245     53.2 1.126e+04 1.929e-10
 13.18242     55.1 1.135e+04 1.772e-10
 13.21149     56.8 1.143e+04 1.589e-10
 13.23148     57.6 1.141e+04 2.345e-10
 13.26236     59.2 1.140e+04 2.186e-10
 13.30233     60.9 1.136e+04 2.098e-10
 13.34230     62.6 1.133e+04 2.093e-10
 13.38227     64.4 1.131e+04 2.127e-10
 13.40652     66.3 1.123e+04 2.162e-10
 13.42651     66.9 1.128e+04 2.807e-10
 13.45332     68.8 1.121e+04 2.724e-10
 13.47330     69.3 1.112e+04 2.380e-10
 13.50219     71.4 1.105e+04 2.304e-10
 13.54216     73.5 1.099e+04 2.120e-10
 13.58157     75.7 1.095e+04 1.918e-10
 13.60155     76.3 1.104e+04 2.314e-10
 13.62210     78.5 1.099e+04 2.064e-10
 13.66208     80.7 1.095e+04 1.918e-10
 13.70205     83.0 1.093e+04 1.898e-10
 13.74202     85.4 1.093e+04 1.913e-10
 13.77660     87.8 1.095e+04 1.980e-10
 13.79658     88.2 1.099e+04 2.106e-10
 13.82196     90.6 1.099e+04 2.196e-10
 13.86193     93.0 1.098e+04 2.385e-10
 13.90190     95.4 1.095e+04 2.642e-10
 13.94188     97.7 1.096e+04 2.974e-10
 13.97163    100.0 1.100e+04 3.387e-10
 13.99161    100.2 1.094e+04 2.816e-10
 14.02182    102.4 1.101e+04 3.149e-10
 14.06179    104.5 1.111e+04 3.522e-10
 14.10176    106.5 1.122e+04 3.920e-10
 14.14173    108.4 1.133e+04 4.343e-10
 14.16666    110.3 1.142e+04 4.785e-10
 14.18664    110.4 1.132e+04 4.024e-10
 14.20291    112.3 1.138e+04 4.454e-10
 14.22290    112.4 1.167e+04 6.235e-10
 14.26165    114.2 1.168e+04 6.108e-10
 14.30162    116.0 1.166e+04 5.749e-10
 14.34159    117.9 1.163e+04 5.368e-10
 14.38156    120.0 1.140e+04 3.802e-10
 14.42153    121.9 1.135e+04 3.466e-10
 14.46151    123.7 1.130e+04 3.231e-10
 14.50148    125.6 1.126e+04 3.096e-10
 14.53673    127.4 1.126e+04 3.091e-10
 14.55672    127.7 1.117e+04 2.388e-10
 14.58142    129.5 1.117e+04 2.554e-10
 14.62139    131.3 1.116e+04 2.841e-10
 14.66136    133.1 1.117e+04 3.267e-10
 14.70134    134.8 1.123e+04 3.660e-10
 14.73176    136.4 1.129e+04 4.013e-10
 14.75175    136.9 1.119e+04 3.628e-10
 14.78128    138.4 1.128e+04 3.720e-10
 14.82125    139.6 1.131e+04 3.667e-10
 14.86122    140.7 1.134e+04 3.578e-10
 14.90119    141.7 1.135e+04 3.422e-10
 14.92679    142.7 1.131e+04 3.156e-10
 14.93814    143.3 1.131e+04 3.247e-10
 14.95251    143.1 1.166e+04 5.179e-10
 14.98114    144.0 1.155e+04 4.311e-10
 15.02111    145.0 1.139e+04 3.277e-10
 15.06108    146.2 1.124e+04 2.363e-10
 15.10105    147.4 1.104e+04 1.789e-10
 15.12182    148.8 1.083e+04 1.615e-10
 15.14181    149.5 1.085e+04 1.744e-10
 15.18099    151.1 1.081e+04 1.728e-10
 15.22097    152.8 1.079e+04 1.761e-10
 15.26094    154.4 1.078e+04 1.935e-10
 15.29687    155.9 1.083e+04 2.322e-10
 15.31685    156.5 1.086e+04 2.623e-10
 15.34088    157.9 1.102e+04 3.566e-10
 15.38085    159.3 1.128e+04 4.981e-10
 15.42082    160.6 1.157e+04 6.591e-10
 15.46079    161.5 1.176e+04 7.662e-10
 15.49190    161.8 1.178e+04 7.672e-10
 15.51188    162.2 1.184e+04 8.232e-10
 15.54074    162.3 1.176e+04 7.830e-10
 15.58071    162.5 1.155e+04 6.757e-10
 15.62068    162.7 1.130e+04 5.393e-10
 15.66065    162.7 1.106e+04 4.126e-10
 15.68212    162.6 1.086e+04 3.138e-10
 15.68841    163.0 1.091e+04 3.218e-10
 15.70691    163.5 1.095e+04 3.388e-10
 15.74060    163.5 1.081e+04 2.679e-10
 15.78057    163.5 1.066e+04 2.188e-10
 15.82054    163.5 1.045e+04 2.047e-10
 15.86051    163.8 1.043e+04 2.040e-10
 15.88196    164.3 1.042e+04 2.072e-10
 15.90194    164.9 1.042e+04 2.433e-10
 15.94045    165.4 1.046e+04 2.505e-10
 15.98042    165.9 1.046e+04 2.475e-10
 16.02040    166.3 1.045e+04 2.322e-10
 16.05700    166.9 1.038e+04 1.932e-10
 16.07699    167.5 1.041e+04 2.163e-10
 16.10034    168.2 1.032e+04 1.611e-10
 16.14031    169.0 1.020e+04 1.199e-10
 16.18028    169.9 1.003e+04 1.052e-10
 16.22025    171.1 1.000e+04 1.042e-10
 16.25203    172.5 9.998e+03 1.045e-10
 16.27202    173.4 1.005e+04 1.132e-10
 16.30020    174.9 1.005e+04 1.154e-10
 16.34017    176.4 1.004e+04 1.240e-10
 16.38014    177.9 1.011e+04 1.448e-10
 16.41173    179.4 1.035e+04 1.897e-10
 16.43172    180.1 1.055e+04 2.197e-10
 16.44706    181.4 1.092e+04 2.987e-10
 16.46705    182.3 1.085e+04 2.664e-10
 16.50005    182.7 1.110e+04 3.326e-10
 16.52994    182.5 1.118e+04 3.761e-10
 16.54438    182.4 1.126e+04 4.435e-10
 16.55437    182.9 1.121e+04 4.063e-10
 16.56981    183.0 1.138e+04 5.169e-10
 16.58979    182.9 1.167e+04 7.190e-10
 16.60978    182.6 1.207e+04 1.042e-09
 16.62977    182.4 1.251e+04 1.483e-09
 16.64190    182.2 1.298e+04 1.937e-09
 16.65189    182.9 1.290e+04 1.862e-09
 16.66974    182.6 1.340e+04 2.204e-09
 16.68972    181.9 1.357e+04 2.201e-09
 16.70971    180.8 1.360e+04 2.081e-09
 16.72942    179.6 1.350e+04 1.687e-09
 16.73941    180.5 1.382e+04 2.015e-09
 16.74968    178.9 1.358e+04 1.507e-09
 16.76967    176.7 1.307e+04 1.085e-09
 16.78633    174.1 1.229e+04 9.281e-10
 16.79632    175.2 1.311e+04 1.135e-09
 16.80964    172.6 1.232e+04 1.084e-09
 16.82693    170.6 1.226e+04 1.091e-09
 16.83693    170.7 1.263e+04 1.389e-09
 16.84961    169.1 1.255e+04 1.426e-09
 16.86960    167.9 1.253e+04 1.478e-09
 16.89967    166.8 1.245e+04 1.394e-09
 16.93974    165.8 1.218e+04 1.258e-09
 16.97971    165.0 1.175e+04 9.765e-10
 17.01217    164.0 1.125e+04 6.407e-10
 17.03215    162.2 1.144e+04 6.509e-10
 17.05966    161.0 1.096e+04 4.617e-10
 17.09963    160.4 1.068e+04 4.247e-10
 17.13960    160.3 1.058e+04 4.187e-10
 17.16133    160.2 1.051e+04 4.134e-10
 17.18131    158.3 1.059e+04 4.299e-10
 17.20720    158.3 1.047e+04 4.054e-10
 17.22718    157.4 1.050e+04 4.308e-10
 17.25951    157.6 1.028e+04 3.544e-10
 17.29948    157.9 9.997e+03 2.795e-10
 17.33946    158.1 9.809e+03 2.389e-10
 17.37943    158.7 9.808e+03 2.375e-10
 17.40223    159.2 9.853e+03 2.452e-10
 17.42221    159.1 1.001e+04 2.856e-10
 17.45937    160.0 1.021e+04 3.385e-10
 17.49934    160.0 1.036e+04 3.958e-10
 17.52603    159.8 1.049e+04 4.694e-10
 17.53593    159.5 1.046e+04 4.610e-10
 17.54911    159.1 1.053e+04 5.240e-10
 17.56910    158.7 1.058e+04 5.726e-10
 17.58707    158.3 1.063e+04 6.057e-10
 17.59706    158.3 1.078e+04 6.580e-10
 17.60907    157.9 1.079e+04 6.737e-10
 17.62905    157.5 1.078e+04 6.821e-10
 17.64904    157.1 1.077e+04 6.911e-10
 17.66903    156.8 1.074e+04 6.940e-10
 17.68458    156.4 1.071e+04 6.942e-10
 17.69458    156.6 1.070e+04 6.961e-10
 17.70900    156.2 1.064e+04 6.921e-10
 17.72898    155.7 1.057e+04 6.838e-10
 17.74897    155.2 1.050e+04 6.717e-10
 17.76895    154.5 1.047e+04 6.657e-10
 17.78210    153.8 1.047e+04 6.669e-10
 17.79209    153.7 1.044e+04 6.503e-10
 17.80893    152.8 1.046e+04 6.545e-10
 17.82891    151.7 1.053e+04 6.771e-10
 17.84890    150.4 1.070e+04 7.440e-10
 17.86888    148.8 1.100e+04 8.743e-10
 17.87961    146.8 1.142e+04 1.108e-09
 17.88961    146.6 1.159e+04 1.201e-09
 17.90073    144.6 1.212e+04 1.651e-09
 17.91073    143.2 1.236e+04 2.005e-09
 17.92884    141.6 1.283e+04 2.548e-09
 17.94883    140.1 1.322e+04 2.761e-09
 17.96713    138.4 1.326e+04 2.730e-09
 17.97713    138.6 1.340e+04 2.881e-09
 17.98880    136.8 1.326e+04 2.455e-09
 18.00878    135.2 1.282e+04 1.756e-09
 18.02877    133.2 1.216e+04 1.119e-09
 18.04876    130.6 1.141e+04 7.245e-10
 18.06465    127.7 1.092e+04 6.170e-10
 18.07464    127.3 1.071e+04 5.448e-10
 18.08873    124.7 1.073e+04 5.533e-10
 18.10871    122.7 1.083e+04 6.006e-10
 18.12870    119.3 1.182e+04 8.466e-10
 18.14868    117.4 1.237e+04 1.130e-09
 18.16216    115.7 1.307e+04 1.476e-09
 18.18225    114.9 1.345e+04 1.736e-09
 18.21883    113.1 1.358e+04 1.776e-09
 18.25880    111.6 1.335e+04 1.474e-09
 18.29877    110.4 1.263e+04 9.181e-10
 18.33740    109.2 1.147e+04 5.103e-10
 18.35739    108.7 1.161e+04 4.071e-10
 18.37872    107.7 1.006e+04 2.884e-10
 18.41869    107.9 9.836e+03 2.811e-10
 18.45866    109.0 9.858e+03 2.814e-10
 18.49863    110.2 9.902e+03 2.805e-10
 18.53243    111.2 9.938e+03 2.732e-10
 18.55242    111.3 9.776e+03 2.141e-10
 18.57857    112.3 9.807e+03 1.883e-10
 18.61855    113.3 9.723e+03 1.548e-10
 18.64053    114.2 9.570e+03 1.241e-10
 18.66052    112.8 9.576e+03 1.592e-10
 18.69849    113.7 9.500e+03 1.465e-10
 18.72746    114.7 9.505e+03 1.476e-10
 18.74745    115.3 9.375e+03 1.345e-10
 18.77843    116.4 9.415e+03 1.418e-10
 18.81840    117.3 9.544e+03 1.721e-10
 18.85837    118.2 9.875e+03 2.504e-10
 18.89835    118.7 1.023e+04 3.585e-10
 18.92240    119.0 1.041e+04 4.333e-10
 18.93229    119.1 1.043e+04 4.464e-10
 18.94811    119.0 1.072e+04 5.901e-10
 18.96810    118.9 1.102e+04 7.703e-10
 18.98809    118.7 1.131e+04 9.526e-10
 19.00514    118.4 1.153e+04 1.095e-09
 19.01513    118.0 1.158e+04 1.062e-09
 19.01981    117.4 1.171e+04 1.071e-09
 19.02981    117.2 1.185e+04 1.141e-09
 19.04804    116.3 1.183e+04 1.130e-09
 19.06803    115.5 1.174e+04 1.073e-09
 19.08802    114.6 1.154e+04 9.477e-10
 19.10734    113.6 1.124e+04 8.019e-10
 19.11733    112.9 1.128e+04 8.063e-10
 19.13808    112.5 1.082e+04 6.003e-10
 19.17815    111.8 9.993e+03 3.648e-10
 19.21812    111.3 9.282e+03 2.444e-10
 19.25809    111.0 9.121e+03 2.259e-10
 19.29257    111.2 9.124e+03 2.278e-10
 19.31256    110.6 9.069e+03 2.242e-10
 19.33803    111.2 9.142e+03 2.434e-10
 19.37014    111.7 9.361e+03 2.863e-10
 19.39013    112.2 9.219e+03 2.237e-10
 19.41798    112.6 9.642e+03 3.058e-10
 19.44786    112.3 9.972e+03 3.888e-10
 19.46774    112.1 1.013e+04 4.463e-10
 19.48740    111.8 1.045e+04 5.482e-10
 19.50749    111.8 1.065e+04 6.535e-10
 19.53789    111.6 1.084e+04 7.110e-10
 19.57786    110.9 1.082e+04 7.040e-10
 19.61783    110.0 1.064e+04 6.664e-10
 19.65780    109.1 1.037e+04 6.197e-10
 19.68263    108.4 1.015e+04 5.855e-10
 19.70262    108.2 1.022e+04 6.139e-10
 19.73775    107.5 1.010e+04 5.931e-10
 19.77772    107.0 9.889e+03 5.360e-10
 19.81769    106.8 9.590e+03 4.312e-10
 19.85766    106.7 9.212e+03 3.123e-10
 19.89763    106.7 8.827e+03 2.128e-10
 19.93761    106.6 8.684e+03 1.887e-10
 19.97758    106.7 8.681e+03 1.893e-10
 20.01755    107.2 8.715e+03 1.965e-10
 20.05270    107.7 8.853e+03 2.219e-10
 20.07269    108.3 8.963e+03 2.331e-10
 20.09749    109.1 9.137e+03 2.781e-10
 20.11974    110.3 9.409e+03 3.405e-10
 20.12963    109.4 9.678e+03 3.840e-10
 20.14726    109.7 9.896e+03 4.386e-10
 20.16002    109.8 1.026e+04 5.388e-10
 20.17001    110.2 1.031e+04 5.532e-10
 20.18723    110.4 1.071e+04 6.900e-10
 20.20722    110.7 1.115e+04 8.731e-10
 20.22720    110.8 1.160e+04 1.128e-09
 20.24719    110.8 1.219e+04 1.513e-09
 20.25753    110.7 1.283e+04 2.086e-09
 20.26752    110.9 1.293e+04 2.191e-09
 20.28716    110.9 1.373e+04 3.264e-09
 20.30715    110.9 1.447e+04 4.503e-09
 20.32209    110.6 1.506e+04 5.635e-09
 20.33203    110.2 1.576e+04 7.288e-09
 20.34202    109.7 1.658e+04 9.784e-09
 20.34995    109.0 1.768e+04 1.356e-08
 20.35495    109.6 1.727e+04 1.285e-08
 20.36201    108.6 1.884e+04 1.856e-08
 20.37200    107.0 2.065e+04 2.901e-08
 20.38200    104.9 2.207e+04 4.834e-08
 20.39199    102.9 2.253e+04 8.759e-08
 20.39871    101.2 2.231e+04 1.642e-07
 20.40371    100.6 2.238e+04 1.352e-07
 20.41197     99.3 2.175e+04 2.470e-07
 20.42197     98.1 2.143e+04 3.797e-07
 20.43196     96.2 2.153e+04 3.797e-07
 20.44195     94.1 2.180e+04 3.117e-07
 20.44747     92.7 2.241e+04 1.708e-07
 20.45246     92.7 2.227e+04 1.231e-07
 20.46194     91.8 2.348e+04 5.241e-08
 20.47193     89.8 2.568e+04 2.014e-08
 20.48192     85.5 2.799e+04 7.542e-09
 20.48925     81.6 2.829e+04 3.622e-09
 20.49429     79.1 2.418e+04 2.558e-09
 20.50700     70.1 1.555e+04 1.376e-09
 20.52699     66.4 1.227e+04 1.559e-09
 20.54008     65.9 1.235e+04 1.862e-09
 20.55008     66.0 1.257e+04 2.002e-09
 20.56696     66.0 1.320e+04 2.836e-09
 20.58695     66.0 1.388e+04 3.535e-09
 20.60693     65.9 1.409e+04 3.581e-09
 20.62692     65.6 1.405e+04 3.385e-09
 20.63760     65.2 1.373e+04 2.706e-09
 20.64759     66.0 1.411e+04 3.457e-09
 20.66689     65.8 1.350e+04 2.356e-09
 20.68688     65.0 1.262e+04 1.398e-09
 20.70686     63.5 1.156e+04 7.924e-10
 20.72512     61.7 1.053e+04 4.779e-10
 20.73511     62.8 1.088e+04 5.038e-10
 20.74683     60.5 1.004e+04 3.488e-10
 20.76682     59.4 9.957e+03 3.420e-10
 20.78681     58.4 1.014e+04 3.648e-10
 20.80679     54.8 1.122e+04 5.290e-10
 20.82264     49.2 1.333e+04 1.368e-09
 20.83263     49.8 1.331e+04 1.359e-09
 20.84676     46.2 1.476e+04 3.316e-09
 20.85915     44.0 1.557e+04 4.908e-09
 20.86914     44.9 1.528e+04 4.425e-09
 20.88673     42.7 1.559e+04 4.633e-09
 20.90672     40.3 1.542e+04 3.941e-09
 20.92015     37.3 1.458e+04 2.345e-09
 20.93014     37.7 1.449e+04 2.309e-09
 20.94669     33.5 1.299e+04 1.208e-09
 20.96668     29.1 1.226e+04 9.648e-10
 20.98666     24.8 1.299e+04 1.127e-09
 21.00665     20.5 1.446e+04 2.010e-09
 21.01767     18.3 1.520e+04 3.876e-09
 21.02766     18.0 1.561e+04 4.588e-09
 21.04662     16.3 1.670e+04 7.364e-09
 21.06661     11.8 1.931e+04 1.242e-08
 21.08659      7.3 1.980e+04 1.669e-08
 21.10519      5.6 1.871e+04 1.365e-08
 21.11518      4.2 1.806e+04 1.155e-08
 21.12656      3.2 1.632e+04 6.867e-09
 21.14655      1.4 1.503e+04 3.761e-09
 21.16653     -1.2 1.368e+04 2.086e-09
 21.18652     -4.1 1.215e+04 1.230e-09
 21.20280     -3.8 1.125e+04 8.768e-10
 21.22288     -4.3 1.130e+04 9.384e-10
 21.25667     -3.5 1.081e+04 7.369e-10
 21.29664     -2.2 1.077e+04 7.077e-10
 21.33661     -0.6 1.083e+04 7.237e-10
 21.37658      0.9 1.106e+04 7.974e-10
 21.39793      2.4 1.137e+04 9.737e-10
 21.41792      2.1 1.137e+04 1.020e-09
 21.45652      3.5 1.141e+04 1.169e-09
 21.49650      5.1 1.171e+04 1.376e-09
 21.52638      6.3 1.184e+04 1.501e-09
 21.54626      6.7 1.202e+04 1.625e-09
 21.56625      7.3 1.204e+04 1.600e-09
 21.58277      7.7 1.213e+04 1.534e-09
 21.59276      7.1 1.197e+04 1.428e-09
 21.59875      7.6 1.183e+04 1.256e-09
 21.60874      9.5 1.249e+04 1.382e-09
 21.62621      9.3 1.253e+04 1.137e-09
 21.64619      8.8 1.226e+04 8.928e-10
 21.66618      7.9 1.163e+04 7.059e-10
 21.68029      6.5 1.088e+04 6.206e-10
 21.69028      6.1 1.063e+04 6.018e-10
 21.70615      5.7 1.027e+04 5.742e-10
 21.72614      5.8 1.002e+04 5.615e-10
 21.74612      5.8 9.890e+03 5.650e-10
 21.76611      6.2 9.717e+03 5.491e-10
 21.77780      6.2 9.783e+03 5.562e-10
 21.78779      6.1 9.603e+03 5.008e-10
 21.80608      6.3 9.550e+03 4.856e-10
 21.82606      6.3 9.596e+03 4.922e-10
 21.84605      5.6 9.934e+03 5.538e-10
 21.86532      5.2 1.015e+04 6.150e-10
 21.87532      5.3 9.891e+03 5.215e-10
 21.88602      4.4 1.025e+04 6.798e-10
 21.90601      4.6 1.029e+04 7.813e-10
 21.92599      5.4 1.044e+04 9.127e-10
 21.94598      5.7 1.049e+04 9.349e-10
 21.96284      7.2 1.036e+04 8.689e-10
 21.97042      7.3 1.011e+04 7.544e-10
 21.97355      7.5 1.021e+04 7.784e-10
 21.98595      7.3 1.023e+04 7.599e-10
 22.01603      8.0 9.860e+03 5.948e-10
 22.05610      9.0 9.267e+03 4.358e-10
 22.09607      9.6 8.840e+03 3.529e-10
 22.13604     10.6 8.603e+03 3.186e-10
 22.15806     12.0 8.493e+03 3.013e-10
 22.17805     12.4 8.335e+03 2.583e-10
 22.21598     13.7 8.295e+03 2.585e-10
 22.25595     15.0 8.301e+03 2.626e-10
 22.29593     16.1 8.371e+03 2.757e-10
 22.32855     16.7 8.604e+03 3.249e-10
 22.34575     19.1 8.392e+03 2.657e-10
 22.35309     18.9 8.267e+03 2.464e-10
 22.37587     19.0 8.513e+03 2.984e-10
 22.41584     19.3 8.720e+03 3.525e-10
 22.45581     19.6 8.729e+03 3.480e-10
 22.49578     20.4 8.756e+03 3.197e-10
 22.52566     20.1 8.803e+03 3.105e-10
 22.53794     19.9 8.815e+03 3.049e-10
 22.54793     19.1 8.720e+03 2.843e-10
 22.56554     18.4 9.069e+03 3.229e-10
 22.58552     16.0 1.007e+04 4.723e-10
 22.60551     12.6 1.120e+04 8.264e-10
 22.62546     10.9 1.189e+04 1.373e-09
 22.64544     10.7 1.199e+04 1.772e-09
 22.66547     11.0 1.196e+04 1.754e-09
 22.68545     11.5 1.166e+04 1.512e-09
 22.70316     11.2 1.122e+04 1.091e-09
 22.71315     10.5 1.096e+04 9.758e-10
 22.72297      9.2 1.071e+04 6.679e-10
 22.73297      9.0 1.064e+04 6.911e-10
 22.74541      6.6 1.017e+04 4.478e-10
 22.76540      3.7 9.550e+03 3.323e-10
 22.78538      2.2 9.245e+03 3.159e-10
 22.80537      1.1 9.211e+03 3.307e-10
 22.82049      0.8 9.265e+03 3.658e-10
 22.83048      1.0 9.430e+03 4.249e-10
 22.84534      1.0 9.508e+03 4.802e-10
 22.86532      0.9 9.651e+03 5.247e-10
 22.88531      0.7 9.783e+03 5.392e-10
 22.90530     -0.1 9.965e+03 5.641e-10
 22.91800     -0.9 1.001e+04 5.922e-10
 22.92800     -0.3 1.015e+04 6.462e-10
 22.94527     -0.9 1.017e+04 6.713e-10
 22.96525     -0.7 1.006e+04 6.476e-10
 22.98524     -0.6 1.001e+04 6.402e-10
 23.00523      0.7 9.568e+03 5.168e-10
 23.01552      0.6 9.575e+03 4.852e-10
 23.02551      1.5 9.453e+03 4.642e-10
 23.05529      3.0 9.042e+03 3.035e-10
 23.07815      3.2 8.739e+03 2.055e-10
 23.08805      0.2 9.252e+03 2.720e-10
 23.10304      0.3 9.355e+03 2.836e-10
 23.11303      0.7 9.292e+03 2.786e-10
 23.12514      1.6 9.015e+03 2.933e-10
 23.14513      1.9 9.053e+03 3.188e-10
 23.17520      3.3 9.235e+03 4.130e-10
 23.21527      4.7 9.761e+03 6.076e-10
 23.25524      5.9 1.072e+04 1.066e-09
 23.28827      7.5 1.151e+04 1.537e-09
 23.30816      8.5 1.095e+04 1.346e-09
 23.32500      8.6 1.139e+04 1.642e-09
 23.34498      8.6 1.189e+04 1.982e-09
 23.36497      8.5 1.247e+04 2.411e-09
 23.38495      8.6 1.295e+04 2.704e-09
 23.39559      9.1 1.302e+04 2.670e-09
 23.40558      9.0 1.285e+04 2.490e-09
 23.42493      9.2 1.274e+04 2.218e-09
 23.44276      8.6 1.247e+04 1.770e-09
 23.45275      5.5 1.147e+04 1.314e-09
 23.46490      4.6 1.070e+04 9.590e-10
 23.48311      2.7 1.042e+04 8.861e-10
 23.49310      2.3 1.022e+04 8.225e-10
 23.50487      1.7 9.817e+03 7.654e-10
 23.52485      1.1 9.811e+03 7.287e-10
 23.54484      0.9 9.729e+03 7.173e-10
 23.56483      0.2 9.812e+03 7.410e-10
 23.58062     -0.1 9.742e+03 7.381e-10
 23.59062     -0.5 9.731e+03 7.385e-10
 23.60480     -1.1 9.701e+03 7.285e-10
 23.62478     -1.2 9.569e+03 7.005e-10
 23.64477     -0.8 9.247e+03 5.924e-10
 23.66476     -0.9 9.021e+03 5.244e-10
 23.67824     -0.7 8.837e+03 4.136e-10
 23.69832     -0.6 8.616e+03 3.460e-10
 23.73490     -2.3 7.914e+03 1.870e-10
 23.77487     -4.5 7.900e+03 1.876e-10
 23.80776     -7.8 8.759e+03 3.029e-10
 23.82775     -7.6 8.879e+03 3.340e-10
 23.84472     -9.5 9.214e+03 5.591e-10
 23.86318     -9.6 9.592e+03 7.260e-10
 23.87317     -9.4 9.538e+03 7.199e-10
 23.88460    -10.9 1.074e+04 9.818e-10
 23.90458    -14.5 1.221e+04 1.325e-09
 23.92457    -18.9 1.250e+04 1.668e-09
 23.94456    -22.6 1.235e+04 1.810e-09
 23.96069    -24.9 1.250e+04 1.864e-09
 23.97068    -25.0 1.251e+04 1.878e-09
 23.98453    -27.3 1.290e+04 1.844e-09
 24.00451    -31.5 1.219e+04 1.251e-09
 24.02450    -32.2 1.230e+04 1.190e-09
 24.04448    -37.4 1.113e+04 8.233e-10
 24.05821    -38.6 1.109e+04 8.074e-10
 24.06820    -38.2 1.106e+04 7.994e-10
 24.08446    -39.7 1.051e+04 7.064e-10
 24.10444    -40.2 1.032e+04 6.509e-10
 24.12443    -40.8 1.011e+04 5.556e-10
 24.14441    -41.4 1.007e+04 4.849e-10
 24.15572    -42.2 9.972e+03 4.427e-10
 24.16571    -41.7 9.799e+03 3.948e-10
 24.18236    -42.1 9.815e+03 3.965e-10
 24.19236    -42.0 9.780e+03 3.849e-10
 24.21446    -43.0 9.803e+03 4.277e-10
 24.24344    -43.0 9.757e+03 4.821e-10
 24.26342    -42.3 9.674e+03 4.707e-10
 24.29450    -41.9 9.642e+03 5.090e-10
 24.33447    -41.3 9.356e+03 4.350e-10
 24.37445    -40.8 8.954e+03 2.831e-10
 24.41442    -40.8 8.451e+03 1.401e-10
 24.43847    -41.4 8.214e+03 8.781e-11
 24.45845    -40.6 8.420e+03 1.204e-10
 24.49436    -41.3 8.373e+03 8.896e-11
 24.53433    -41.9 8.379e+03 8.305e-11
 24.55736    -42.6 8.516e+03 1.092e-10
 24.57734    -42.2 8.524e+03 1.535e-10
 24.61351    -42.1 8.705e+03 1.890e-10
 24.63350    -41.7 8.728e+03 1.907e-10
 24.65425    -41.3 8.898e+03 2.105e-10
 24.69422    -41.0 8.970e+03 2.115e-10
 24.73419    -40.7 9.002e+03 1.848e-10
 24.77416    -40.4 8.891e+03 1.440e-10
 24.80854    -40.0 8.731e+03 1.118e-10
 24.82853    -39.5 8.740e+03 1.097e-10
 24.85410    -38.8 8.580e+03 9.081e-11
 24.89408    -38.0 8.503e+03 8.306e-11
 24.93405    -37.3 8.504e+03 8.188e-11
 24.97402    -36.9 8.645e+03 9.075e-11
 25.00357    -36.5 8.776e+03 1.142e-10
 25.02356    -36.2 8.866e+03 1.146e-10
 25.05396    -35.7 8.935e+03 1.404e-10
 25.09393    -35.3 9.038e+03 1.619e-10
 25.13390    -35.2 9.187e+03 1.831e-10
 25.17388    -35.7 9.429e+03 2.222e-10
 25.19860    -36.6 9.671e+03 3.022e-10
 25.21859    -35.6 9.571e+03 2.654e-10
 25.25382    -36.1 9.663e+03 3.356e-10
 25.28697    -36.2 9.645e+03 3.787e-10
 25.30695    -36.5 9.553e+03 3.323e-10
 25.33376    -36.6 9.481e+03 3.352e-10
 25.37365    -36.4 9.286e+03 2.938e-10
 25.41362    -35.7 9.121e+03 2.615e-10
 25.45368    -35.7 9.233e+03 2.830e-10
 25.49365    -35.8 9.479e+03 3.671e-10
 25.53362    -35.6 9.667e+03 4.503e-10
 25.56868    -35.4 9.689e+03 4.688e-10
 25.58866    -34.6 9.904e+03 5.568e-10
 25.61356    -34.2 9.536e+03 4.419e-10
 25.65353    -33.8 8.978e+03 2.434e-10
 25.69351    -34.0 8.438e+03 1.372e-10
 25.73348    -34.2 8.031e+03 1.063e-10
 25.76371    -33.2 7.859e+03 9.828e-11
 25.78369    -32.1 7.818e+03 8.717e-11
 25.81342    -30.9 7.710e+03 7.951e-11
 25.85339    -29.6 7.618e+03 7.081e-11
 25.89336    -28.3 7.563e+03 6.237e-11
 25.93333    -27.2 7.579e+03 5.769e-11
 25.95874    -26.3 7.687e+03 5.761e-11
 25.97872    -25.1 7.677e+03 4.723e-11
 26.01328    -24.7 7.959e+03 6.378e-11
 26.03656    -24.6 8.200e+03 1.088e-10
 26.05655    -25.7 8.360e+03 1.730e-10
 26.09322    -25.4 8.855e+03 2.822e-10
 26.13319    -25.2 9.297e+03 3.930e-10
 26.15377    -26.7 9.852e+03 4.915e-10
 26.17375    -26.2 1.034e+04 5.725e-10
 26.20304    -30.8 1.160e+04 8.179e-10
 26.22293    -35.1 1.261e+04 1.106e-09
 26.24109    -40.3 1.360e+04 1.714e-09
 26.25109    -41.1 1.388e+04 1.922e-09
 26.26290    -45.3 1.451e+04 3.124e-09
 26.28289    -47.6 1.541e+04 3.850e-09
 26.30288    -49.5 1.585e+04 3.848e-09
 26.32286    -52.2 1.571e+04 2.356e-09
 26.33861    -56.5 1.350e+04 1.140e-09
 26.34860    -58.4 1.244e+04 9.289e-10
 26.36283    -60.3 1.099e+04 6.371e-10
 26.38282    -60.6 1.061e+04 5.594e-10
 26.40117    -60.4 1.050e+04 5.086e-10
 26.41117    -59.6 1.069e+04 6.143e-10
 26.42279    -59.4 1.056e+04 5.581e-10
 26.43612    -59.1 1.039e+04 4.987e-10
 26.44612    -59.6 1.023e+04 3.928e-10
 26.46276    -59.4 1.007e+04 3.767e-10
 26.49284    -58.9 1.002e+04 3.796e-10
 26.52384    -57.9 9.770e+03 3.363e-10
 26.54383    -57.8 9.284e+03 2.090e-10
 26.57288    -56.9 9.111e+03 1.793e-10
 26.61285    -56.1 8.998e+03 1.541e-10
 26.65282    -55.6 8.915e+03 1.377e-10
 26.69279    -55.2 8.774e+03 1.286e-10
 26.71887    -54.8 8.580e+03 1.254e-10
 26.73886    -54.7 8.741e+03 1.377e-10
 26.76617    -54.2 8.574e+03 1.393e-10
 26.78616    -54.4 8.598e+03 1.749e-10
 26.81271    -53.6 8.391e+03 1.561e-10
 26.85268    -52.8 8.151e+03 1.328e-10
 26.89265    -51.8 7.934e+03 1.060e-10
 26.91390    -50.6 7.705e+03 7.982e-11
 26.93389    -50.7 7.716e+03 7.668e-11
 26.97259    -49.5 7.520e+03 5.642e-11
 27.01257    -48.4 7.376e+03 4.456e-11
 27.05254    -47.1 7.310e+03 3.999e-11
 27.08895    -45.6 7.291e+03 3.927e-11
 27.10893    -46.0 7.418e+03 4.504e-11
 27.13248    -44.8 7.432e+03 4.641e-11
 27.17245    -44.2 7.655e+03 6.495e-11
 27.21242    -44.3 8.145e+03 1.183e-10
 27.25240    -44.6 8.951e+03 2.582e-10
 27.28398    -44.7 9.888e+03 5.415e-10
 27.30396    -45.9 1.008e+04 5.942e-10
 27.33234    -45.9 1.078e+04 8.869e-10
 27.37231    -46.5 1.101e+04 9.625e-10
 27.41228    -48.4 1.096e+04 7.976e-10
 27.45225    -50.2 1.057e+04 5.256e-10
 27.47901    -51.9 1.021e+04 4.043e-10
 27.49899    -52.4 1.002e+04 3.797e-10
 27.51577    -52.8 9.633e+03 2.997e-10
 27.53576    -53.4 9.940e+03 4.432e-10
 27.57217    -53.3 9.637e+03 3.297e-10
 27.61214    -53.1 9.385e+03 2.187e-10
 27.65211    -53.2 9.067e+03 1.630e-10
 27.67404    -53.1 8.993e+03 1.553e-10
 27.69402    -52.3 8.634e+03 1.098e-10
 27.73205    -51.8 8.598e+03 1.333e-10
 27.77203    -50.9 8.865e+03 2.308e-10
 27.81200    -49.3 9.222e+03 3.634e-10
 27.84908    -47.5 9.499e+03 4.495e-10
 27.86907    -46.7 9.131e+03 3.375e-10
 27.89194    -45.0 9.273e+03 3.625e-10
 27.93191    -43.7 9.375e+03 3.255e-10
 27.97188    -43.3 9.551e+03 2.451e-10
 28.01185    -43.4 9.662e+03 2.185e-10
 28.04411    -44.2 1.002e+04 2.234e-10
 28.06410    -45.2 1.066e+04 3.429e-10
 28.09180    -45.9 1.090e+04 5.991e-10
 28.13177    -45.7 1.098e+04 8.004e-10
 28.17174    -45.2 1.090e+04 8.257e-10
 28.21171    -44.6 1.058e+04 6.400e-10
 28.23914    -43.9 1.022e+04 3.994e-10
 28.25282    -44.1 1.018e+04 3.913e-10
 28.26537    -43.8 1.010e+04 4.524e-10
 28.29165    -43.1 9.779e+03 2.759e-10
 28.33163    -42.4 9.567e+03 1.703e-10
 28.37160    -41.6 9.463e+03 1.195e-10
 28.41157    -40.7 9.399e+03 1.015e-10
 28.43417    -39.5 9.386e+03 9.818e-11
 28.45416    -39.2 9.412e+03 9.984e-11
 28.49151    -38.2 9.557e+03 1.043e-10
 28.53148    -37.3 9.706e+03 1.320e-10
 28.57146    -36.4 9.736e+03 1.756e-10
 28.60922    -35.3 9.717e+03 2.200e-10
 28.62920    -34.8 9.629e+03 2.275e-10
 28.65140    -33.5 9.632e+03 2.386e-10
 28.69137    -32.3 9.570e+03 2.184e-10
 28.73134    -31.2 9.453e+03 1.673e-10
 28.77131    -30.4 9.333e+03 1.243e-10
 28.80425    -29.5 9.180e+03 1.008e-10
 28.82423    -29.0 9.150e+03 8.300e-11
 28.85126    -28.0 8.953e+03 7.690e-11
 28.89123    -26.7 8.828e+03 7.577e-11
 28.93120    -25.1 8.746e+03 7.383e-11
 28.97117    -23.4 8.655e+03 6.820e-11
 28.99498    -21.7 8.573e+03 6.042e-11
 29.00310    -21.4 8.490e+03 5.290e-11
 29.01926    -20.9 8.459e+03 5.081e-11
 29.05111    -19.1 8.401e+03 4.240e-11
 29.09109    -17.5 8.383e+03 3.594e-11
 29.13106    -16.2 8.391e+03 3.332e-11
 29.17103    -15.2 8.566e+03 3.509e-11
 29.19431    -14.7 8.515e+03 5.076e-11
 29.21429    -14.6 8.479e+03 5.238e-11
 29.25097    -12.9 8.447e+03 8.774e-11
 29.29094    -10.8 8.639e+03 1.171e-10
 29.33091     -9.0 8.756e+03 1.242e-10
 29.36935     -7.5 8.720e+03 1.074e-10
 29.38934     -6.9 8.644e+03 9.055e-11
 29.41086     -5.8 8.676e+03 6.995e-11
 29.45083     -4.8 8.753e+03 5.695e-11
 29.49080     -4.1 8.877e+03 5.332e-11
 29.53077     -3.7 8.965e+03 6.215e-11
 29.56438     -3.4 9.124e+03 8.558e-11
 29.58437     -3.0 9.032e+03 8.172e-11
 29.61072     -1.5 8.876e+03 1.201e-10
 29.65069      0.6 8.918e+03 1.389e-10
 29.69066      1.9 9.315e+03 1.289e-10
 29.72459      1.8 9.648e+03 1.447e-10
 29.74457      2.5 9.616e+03 1.424e-10
 29.75941      2.7 9.869e+03 2.423e-10
 29.77940      2.7 9.613e+03 2.238e-10
 29.81057      4.1 9.995e+03 3.624e-10
 29.85054      4.9 1.040e+04 4.619e-10
 29.88043      4.8 1.055e+04 5.087e-10
 29.90031      5.1 1.044e+04 5.190e-10
 29.92030      5.5 1.047e+04 4.987e-10
 29.94029      5.8 1.034e+04 4.737e-10
 29.95434      7.6 1.014e+04 3.817e-10
 29.97443      7.6 9.996e+03 4.042e-10
 30.01043      8.8 9.828e+03 2.423e-10
 30.05040      8.7 9.756e+03 1.506e-10
 30.09037      9.1 9.427e+03 1.355e-10
 30.12949     10.5 9.359e+03 1.396e-10
 30.14947     11.1 9.466e+03 1.639e-10
 30.17032     12.6 9.574e+03 1.634e-10
 30.21029     13.9 9.764e+03 1.710e-10
 30.25026     14.4 9.981e+03 2.008e-10
 30.29023     15.3 9.989e+03 2.863e-10
 30.32452     16.9 9.946e+03 3.560e-10
 30.34450     17.1 1.036e+04 5.509e-10
 30.37017     19.1 1.025e+04 5.141e-10
 30.41015     20.9 1.010e+04 4.069e-10
 30.45012     22.0 9.909e+03 3.027e-10
 30.47418     23.0 9.920e+03 2.972e-10
 30.49417     24.2 1.014e+04 3.755e-10
 30.51945     24.0 1.034e+04 4.171e-10
 30.52934     23.5 1.066e+04 5.116e-10
 30.53986     23.7 1.068e+04 5.675e-10
 30.55984     24.1 1.075e+04 6.629e-10
 30.57983     24.7 1.087e+04 7.705e-10
 30.59982     25.6 1.092e+04 8.359e-10
 30.61687     26.1 1.095e+04 8.505e-10
 30.62686     25.9 1.077e+04 7.794e-10
 30.64988     27.4 1.068e+04 7.286e-10
 30.68995     28.5 1.029e+04 5.189e-10
 30.71458     29.1 9.923e+03 3.623e-10
 30.73456     28.2 9.566e+03 2.351e-10
 30.76989     28.9 9.229e+03 2.087e-10
 30.80986     30.4 9.013e+03 1.949e-10
 30.84983     32.4 8.827e+03 1.677e-10
 30.88962     34.5 8.697e+03 1.326e-10
 30.92959     36.6 8.554e+03 8.535e-11
 30.96975     38.2 8.521e+03 6.437e-11
 31.00972     39.6 8.434e+03 5.589e-11
 31.04969     41.2 8.410e+03 5.645e-11
 31.08465     42.7 8.386e+03 6.128e-11
 31.10464     43.0 8.387e+03 5.604e-11
 31.12963     44.5 8.440e+03 6.703e-11
 31.16961     45.9 8.504e+03 8.329e-11
 31.20379     47.2 8.606e+03 1.030e-10
 31.22378     47.9 8.686e+03 1.184e-10
 31.24955     49.0 8.807e+03 1.463e-10
 31.27968     49.9 8.919e+03 1.793e-10
 31.29967     50.1 8.997e+03 1.970e-10
 31.32949     50.8 9.079e+03 2.302e-10
 31.36946     51.3 9.174e+03 2.569e-10
 31.40943     51.6 9.253e+03 2.590e-10
 31.44941     51.4 9.269e+03 2.545e-10
 31.47471     50.9 9.311e+03 2.403e-10
 31.49470     49.9 9.288e+03 2.536e-10
 31.52935     48.8 9.441e+03 3.001e-10
 31.55923     48.0 9.598e+03 3.226e-10
 31.57203     47.0 9.868e+03 3.723e-10
 31.58130     46.4 9.874e+03 4.193e-10
 31.58839     47.4 9.854e+03 4.290e-10
 31.59910     46.2 1.023e+04 5.562e-10
 31.61909     44.6 1.071e+04 7.458e-10
 31.63908     42.9 1.119e+04 9.992e-10
 31.65906     41.2 1.158e+04 1.210e-09
 31.66955     39.4 1.161e+04 1.205e-09
 31.67954     39.1 1.165e+04 1.133e-09
 31.69903     36.7 1.161e+04 1.049e-09
 31.71902     33.4 1.159e+04 9.148e-10
 31.73900     29.1 1.169e+04 9.276e-10
 31.75707     23.8 1.210e+04 1.141e-09
 31.76706     23.2 1.228e+04 1.272e-09
 31.77898     19.8 1.242e+04 1.745e-09
 31.79896     18.6 1.230e+04 2.004e-09
 31.81895     17.4 1.250e+04 1.980e-09
 31.83893     14.5 1.295e+04 2.013e-09
 31.85458     11.1 1.304e+04 1.974e-09
 31.86458     10.3 1.290e+04 1.815e-09
 31.87890      7.2 1.274e+04 2.100e-09
 31.89889      5.1 1.287e+04 2.365e-09
 31.91888      2.8 1.384e+04 2.412e-09
 31.93886     -0.4 1.428e+04 2.377e-09
 31.95210     -2.8 1.295e+04 2.384e-09
 31.95644     -1.1 1.297e+04 2.289e-09
 31.97328     -2.4 1.235e+04 1.724e-09
 32.00901     -2.4 1.182e+04 1.426e-09
 32.03889     -3.3 1.099e+04 5.746e-10
 32.04961     -4.9 1.017e+04 4.566e-10
 32.05970     -5.1 1.008e+04 4.365e-10
 32.07886     -6.7 9.448e+03 3.001e-10
 32.09875     -7.2 9.295e+03 2.880e-10
 32.12882     -7.5 9.274e+03 3.083e-10
 32.16889     -7.5 9.314e+03 3.276e-10
 32.20886     -7.2 9.282e+03 3.334e-10
 32.23485     -6.9 9.251e+03 3.221e-10
 32.25483     -6.0 9.266e+03 3.418e-10
 32.28881     -6.5 9.270e+03 3.144e-10
 32.31810     -7.5 9.313e+03 3.210e-10
 32.32799     -7.5 9.468e+03 3.586e-10
 32.33217     -8.1 9.604e+03 3.893e-10
 32.34216     -7.8 9.589e+03 3.890e-10
 32.36865     -8.3 9.785e+03 5.278e-10
 32.40872     -8.3 1.022e+04 7.428e-10
 32.42988     -8.3 1.039e+04 8.237e-10
 32.44986     -7.9 9.977e+03 6.799e-10
 32.47857     -8.3 9.905e+03 6.802e-10
 32.49846     -8.3 9.875e+03 6.622e-10
 32.51720     -8.9 9.745e+03 5.747e-10
 32.52720     -9.0 9.634e+03 5.887e-10
 32.53843     -9.2 9.605e+03 5.782e-10
 32.55842     -9.7 9.398e+03 5.417e-10
 32.57841     -9.9 9.302e+03 5.316e-10
 32.59839     -9.8 9.164e+03 5.184e-10
 32.61472     -9.6 9.010e+03 4.896e-10
 32.62481     -9.4 9.159e+03 5.206e-10
 32.64855     -8.5 8.691e+03 4.126e-10
 32.68300     -7.6 8.272e+03 2.859e-10
 32.70299     -8.0 8.411e+03 3.178e-10
 32.72849     -8.3 8.283e+03 2.685e-10
 32.76847     -9.8 8.835e+03 3.485e-10
 32.79995    -11.1 9.637e+03 6.513e-10
 32.81994    -12.1 9.855e+03 8.723e-10
 32.84841    -10.4 1.054e+04 1.168e-09
 32.88838     -9.8 1.049e+04 9.922e-10
 32.92835    -10.3 9.630e+03 4.492e-10
 32.96832    -13.2 8.709e+03 2.130e-10
 32.99498    -14.7 8.325e+03 1.602e-10
 33.01497    -16.4 8.512e+03 2.036e-10
 33.04827    -16.0 8.790e+03 2.720e-10
 33.08824    -15.3 9.215e+03 3.952e-10
 33.12821    -14.2 9.765e+03 5.674e-10
 33.16818    -13.1 1.028e+04 7.315e-10
 33.19001    -12.4 1.058e+04 8.058e-10
 33.21000    -13.7 1.053e+04 8.100e-10
 33.24812    -13.1 1.042e+04 7.490e-10
 33.27743    -12.1 1.030e+04 7.696e-10
 33.28733    -12.1 1.005e+04 5.747e-10
 33.29789    -11.6 1.006e+04 5.048e-10
 33.31788    -11.8 1.010e+04 3.951e-10
 33.33787    -11.9 1.007e+04 3.593e-10
 33.35785    -12.4 1.012e+04 3.293e-10
 33.37485    -12.6 1.008e+04 3.263e-10
 33.38494    -13.1 9.741e+03 2.471e-10
 33.40801    -12.9 9.809e+03 2.937e-10
 33.43250    -12.3 9.927e+03 3.620e-10
 33.44239    -12.5 9.971e+03 3.491e-10
 33.45778    -12.1 1.034e+04 3.937e-10
 33.47237    -12.1 1.074e+04 4.566e-10
 33.48236    -13.4 1.090e+04 4.205e-10
 33.49775    -14.0 1.134e+04 5.684e-10
 33.51774    -14.2 1.163e+04 8.207e-10
 33.53772    -13.7 1.188e+04 1.142e-09
 33.55771    -13.0 1.215e+04 1.437e-09
 33.56988    -12.3 1.243e+04 1.651e-09
 33.57988    -12.8 1.294e+04 2.281e-09
 33.59768    -12.4 1.309e+04 2.320e-09
 33.61767    -12.3 1.309e+04 2.267e-09
 33.63765    -12.2 1.321e+04 2.284e-09
 33.65740    -12.5 1.355e+04 2.513e-09
 33.66740    -12.9 1.331e+04 2.192e-09
 33.67762    -13.1 1.357e+04 2.292e-09
 33.69761    -13.1 1.385e+04 2.486e-09
 33.71759    -12.8 1.397e+04 2.841e-09
 33.73758    -12.0 1.395e+04 3.133e-09
 33.75492    -11.0 1.396e+04 3.222e-09
 33.76491    -12.4 1.277e+04 1.784e-09
 33.77755    -11.8 1.267e+04 1.728e-09
 33.79721    -11.2 1.231e+04 1.597e-09
 33.80720    -11.6 1.151e+04 1.087e-09
 33.81752    -11.0 1.137e+04 1.011e-09
 33.83751    -10.4 1.122e+04 9.270e-10
 33.85243     -9.8 1.118e+04 8.699e-10
 33.86243    -10.2 1.075e+04 6.803e-10
 33.87748     -9.8 1.090e+04 7.057e-10
 33.89747     -9.2 1.090e+04 6.931e-10
 33.91745     -8.6 1.090e+04 7.205e-10
 33.93744     -7.7 1.094e+04 7.492e-10
 33.94995     -6.9 1.099e+04 7.378e-10
 33.95994     -7.4 1.082e+04 6.959e-10
 33.97741     -6.4 1.086e+04 7.267e-10
 33.99740     -5.6 1.101e+04 7.604e-10
 34.01738     -6.4 1.181e+04 9.042e-10
 34.03737    -11.0 1.479e+04 1.656e-09
 34.04746    -15.8 1.615e+04 3.787e-09
 34.05746    -17.4 1.575e+04 5.502e-09
 34.07734    -16.9 1.601e+04 9.561e-09
 34.09732    -15.3 1.657e+04 1.208e-08
 34.11226    -14.2 1.633e+04 9.783e-09
 34.12221    -13.9 1.591e+04 8.817e-09
 34.13220    -14.4 1.679e+04 4.825e-09
 34.13989    -15.0 1.660e+04 4.631e-09
 34.14493    -14.7 1.654e+04 3.730e-09
 34.15728    -20.5 1.492e+04 1.342e-09
 34.17200    -28.1 1.064e+04 4.643e-10
 34.18200    -30.3 9.839e+03 3.608e-10
 34.19725    -31.5 9.363e+03 2.814e-10
 34.21724    -32.0 9.271e+03 2.384e-10
 34.23250    -32.9 9.074e+03 2.043e-10
 34.24250    -33.2 9.118e+03 2.115e-10
 34.25721    -33.4 9.270e+03 2.160e-10
 34.27720    -34.6 9.190e+03 2.081e-10
 34.29718    -35.0 9.306e+03 2.245e-10
 34.31717    -35.7 9.445e+03 2.738e-10
 34.33002    -37.1 9.830e+03 4.047e-10
 34.34001    -37.4 1.004e+04 4.575e-10
 34.35714    -41.3 1.239e+04 9.004e-10
 34.37712    -46.2 1.472e+04 2.212e-09
 34.39711    -48.8 1.555e+04 4.661e-09
 34.41710    -49.3 1.587e+04 7.018e-09
 34.42753    -49.1 1.607e+04 7.679e-09
 34.43753    -49.1 1.598e+04 7.044e-09
 34.45707    -49.3 1.625e+04 6.615e-09
 34.47705    -50.8 1.689e+04 3.706e-09
 34.49704    -56.5 1.576e+04 1.450e-09
 34.51505    -62.9 1.143e+04 5.960e-10
 34.52505    -63.2 1.131e+04 5.873e-10
 34.53681    -65.2 9.497e+03 4.082e-10
 34.54680    -66.8 9.151e+03 2.933e-10
 34.55700    -67.4 8.874e+03 2.428e-10
 34.57698    -68.1 8.623e+03 2.183e-10
 34.60706    -68.3 8.695e+03 2.256e-10
 34.64713    -69.1 8.609e+03 2.199e-10
 34.68710    -70.5 8.594e+03 2.386e-10
 34.71028    -72.3 9.249e+03 3.770e-10
 34.73027    -72.9 9.183e+03 3.791e-10
 34.75695    -74.3 9.382e+03 4.644e-10
 34.77684    -75.0 9.766e+03 5.848e-10
 34.79683    -75.7 1.026e+04 7.714e-10
 34.80760    -76.5 1.063e+04 9.206e-10
 34.81759    -76.4 1.033e+04 8.164e-10
 34.83680    -77.2 1.046e+04 8.625e-10
 34.85678    -78.3 1.045e+04 8.601e-10
 34.87677    -79.4 1.026e+04 7.701e-10
 34.89512    -80.9 1.004e+04 6.658e-10
 34.90511    -80.4 9.983e+03 6.493e-10
 34.91161    -82.3 9.968e+03 6.215e-10
 34.92160    -83.1 9.764e+03 5.711e-10
 34.93673    -85.6 9.842e+03 5.763e-10
 34.95671    -88.6 1.031e+04 7.021e-10
 34.97670    -91.2 1.093e+04 9.827e-10
 34.99264    -93.1 1.145e+04 1.320e-09
 35.00263    -92.4 1.140e+04 1.263e-09
 35.01667    -94.0 1.171e+04 1.487e-09
 35.03666    -95.8 1.187e+04 1.557e-09
 35.05664    -99.2 1.212e+04 1.587e-09
 35.07663   -106.6 1.365e+04 1.598e-09
 35.09015   -118.1 1.641e+04 2.029e-09
 35.10014   -117.9 1.675e+04 2.237e-09
 35.11660   -129.4 1.770e+04 3.730e-09
 35.13658   -138.7 1.774e+04 5.085e-09
 35.15657   -146.8 1.756e+04 5.260e-09
 35.17656   -154.0 1.589e+04 3.683e-09
 35.18767   -160.8 1.309e+04 1.806e-09
 35.19766   -161.6 1.254e+04 1.559e-09
 35.21653   -166.3 1.094e+04 9.043e-10
 35.23651   -168.7 1.048e+04 7.196e-10
 35.25650   -170.3 1.031e+04 6.404e-10
 35.27519   -171.9 1.015e+04 5.793e-10
 35.28511   -172.2 1.013e+04 5.641e-10
 35.29640   -173.3 9.940e+03 5.138e-10
 35.31646   -174.5 9.865e+03 5.005e-10
 35.33644   -175.6 9.823e+03 4.899e-10
 35.35643   -176.5 9.790e+03 4.780e-10
 35.37270   -177.3 9.760e+03 4.654e-10
 35.38270   -177.6 9.767e+03 4.648e-10
 35.39640   -178.4 9.759e+03 4.573e-10
 35.41638   -179.0 9.758e+03 4.558e-10
 35.43637   -179.5 9.789e+03 4.558e-10
 35.45636   -180.0 9.874e+03 4.679e-10
 35.47022   -180.3 9.938e+03 4.929e-10
 35.48021   -180.6 1.001e+04 5.117e-10
 35.49633   -180.6 1.004e+04 5.300e-10
 35.51631   -180.6 1.005e+04 5.336e-10
 35.53630   -180.4 1.003e+04 5.097e-10
 35.56638   -180.4 9.958e+03 4.422e-10
 35.60644   -180.3 9.832e+03 3.715e-10
 35.64141   -180.5 9.631e+03 2.909e-10
 35.66034   -178.6 9.833e+03 3.599e-10
 35.66535   -179.1 9.906e+03 3.662e-10
 35.68639   -179.5 9.844e+03 3.291e-10
 35.72636   -180.2 9.752e+03 2.994e-10
 35.76633   -180.9 9.704e+03 2.886e-10
 35.80630   -181.8 9.698e+03 2.886e-10
 35.84049   -182.8 9.858e+03 3.243e-10
 35.86047   -184.1 9.866e+03 3.386e-10
 35.88625   -185.4 1.013e+04 3.959e-10
 35.92622   -186.9 1.035e+04 4.322e-10
 35.96619   -188.7 1.040e+04 4.381e-10
 35.99607   -190.2 1.018e+04 4.091e-10
 36.01596   -190.6 1.014e+04 3.918e-10
 36.03542   -191.5 9.990e+03 3.534e-10
 36.05551   -192.4 9.923e+03 3.503e-10
 36.08610   -193.1 9.529e+03 2.731e-10
 36.12607   -193.4 9.163e+03 2.058e-10
 36.16605   -193.5 8.865e+03 1.572e-10
 36.20602   -193.0 8.602e+03 1.251e-10
 36.23055   -191.9 8.424e+03 1.078e-10
 36.25054   -192.0 8.439e+03 1.054e-10
 36.28596   -190.8 8.366e+03 9.919e-11
 36.32593   -189.5 8.350e+03 9.792e-11
 36.36590   -188.2 8.349e+03 9.784e-11
 36.39101   -187.1 8.369e+03 9.858e-11
 36.41071   -187.2 8.541e+03 1.112e-10
 36.42558   -187.3 8.503e+03 1.031e-10
 36.44585   -186.7 8.579e+03 1.294e-10
 36.48582   -186.5 8.822e+03 1.925e-10
 36.52579   -186.5 9.444e+03 3.319e-10
 36.56576   -186.6 1.043e+04 6.192e-10
 36.60062   -186.8 1.161e+04 1.147e-09
 36.62061   -187.2 1.161e+04 1.142e-09
 36.63561   -187.6 1.230e+04 1.605e-09
 36.65550   -188.2 1.274e+04 1.951e-09
 36.67549   -188.5 1.310e+04 2.232e-09
 36.69547   -189.4 1.331e+04 2.368e-09
 36.70794   -190.3 1.335e+04 2.394e-09
 36.71793   -190.3 1.316e+04 2.141e-09
 36.73545   -191.4 1.316e+04 2.144e-09
 36.75543   -192.6 1.312e+04 2.109e-09
 36.76561   -194.1 1.312e+04 2.103e-09
 36.77560   -193.6 1.332e+04 2.372e-09
 36.79540   -195.4 1.334e+04 2.338e-09
 36.81539   -198.3 1.414e+04 2.641e-09
 36.83537   -201.7 1.495e+04 3.316e-09
 36.85536   -205.6 1.536e+04 3.957e-09
 36.87535   -209.6 1.541e+04 4.140e-09
 36.89297   -213.5 1.508e+04 4.024e-09
 36.90297   -214.1 1.483e+04 3.774e-09
 36.91532   -217.5 1.389e+04 2.447e-09
 36.93530   -220.8 1.278e+04 1.269e-09
 36.95529   -223.9 1.167e+04 6.077e-10
 36.97527   -226.3 1.081e+04 3.219e-10
 36.99049   -227.5 1.049e+04 2.257e-10
 37.00048   -227.7 1.039e+04 2.113e-10
 37.01525   -228.0 1.030e+04 1.915e-10
 37.04532   -228.4 1.021e+04 1.747e-10
 37.08539   -228.8 1.006e+04 1.459e-10
 37.12062   -228.9 1.003e+04 1.308e-10
 37.14060   -229.0 9.963e+03 1.295e-10
 37.16533   -228.5 9.975e+03 1.264e-10
 37.18571   -228.0 1.001e+04 1.265e-10
 37.20570   -227.6 1.001e+04 1.166e-10
 37.24528   -227.2 1.013e+04 1.225e-10
 37.28525   -226.8 1.028e+04 1.574e-10
 37.32522   -226.1 1.042e+04 2.174e-10
 37.36076   -225.4 1.060e+04 2.884e-10
 37.38074   -225.2 1.056e+04 2.831e-10
 37.40516   -224.6 1.071e+04 3.412e-10
 37.44514   -224.1 1.086e+04 3.715e-10
 37.48511   -223.7 1.099e+04 3.809e-10
 37.52508   -223.3 1.113e+04 3.886e-10
 37.55579   -223.0 1.128e+04 4.052e-10
 37.57577   -223.0 1.111e+04 4.000e-10
 37.60502   -222.8 1.139e+04 4.313e-10
 37.64499   -222.9 1.174e+04 4.984e-10
 37.67487   -222.9 1.197e+04 5.701e-10
 37.69476   -223.3 1.218e+04 6.506e-10
 37.71475   -223.9 1.253e+04 8.994e-10
 37.73473   -224.3 1.300e+04 1.301e-09
 37.75062   -224.4 1.351e+04 1.786e-09
 37.76062   -224.5 1.350e+04 1.778e-09
 37.77470   -224.7 1.393e+04 2.238e-09
 37.79469   -225.0 1.416e+04 2.488e-09
 37.81468   -225.4 1.418e+04 2.523e-09
 37.83466   -225.8 1.401e+04 2.356e-09
 37.84814   -226.2 1.355e+04 1.945e-09
 37.85813   -226.3 1.349e+04 1.925e-09
 37.87002   -226.6 1.295e+04 1.537e-09
 37.88001   -225.4 1.387e+04 2.300e-09
 37.89462   -225.7 1.339e+04 1.861e-09
 37.91461   -226.1 1.289e+04 1.513e-09
 37.93459   -226.5 1.247e+04 1.284e-09
 37.94565   -226.7 1.219e+04 1.150e-09
 37.95565   -226.5 1.232e+04 1.184e-09
 37.97456   -226.6 1.217e+04 1.120e-09
 37.99455   -226.6 1.208e+04 1.084e-09
 38.01453   -226.6 1.200e+04 1.057e-09
 38.03318   -226.5 1.191e+04 1.025e-09
 38.04317   -226.1 1.193e+04 1.048e-09
 38.05451   -225.8 1.179e+04 9.944e-10
 38.07449   -225.5 1.165e+04 9.323e-10
 38.09448   -225.0 1.151e+04 8.644e-10
 38.11446   -224.5 1.139e+04 8.031e-10
 38.13069   -224.0 1.130e+04 7.490e-10
 38.14068   -223.7 1.127e+04 7.244e-10
 38.15443   -223.1 1.120e+04 6.802e-10
 38.17442   -222.2 1.113e+04 6.322e-10
 38.19441   -221.2 1.105e+04 5.797e-10
 38.21439   -220.2 1.098e+04 5.338e-10
 38.22821   -219.0 1.093e+04 4.995e-10
 38.23820   -218.6 1.093e+04 4.999e-10
 38.24482   -217.9 1.093e+04 4.848e-10
 38.25481   -217.8 1.096e+04 5.046e-10
 38.28444   -217.1 1.093e+04 4.654e-10
 38.31592   -215.6 1.078e+04 4.070e-10
 38.33591   -214.9 1.082e+04 4.234e-10
 38.36448   -213.0 1.062e+04 3.642e-10
 38.40445   -211.1 1.042e+04 3.115e-10
 38.44442   -209.1 1.025e+04 2.724e-10
 38.48439   -207.0 1.018e+04 2.534e-10
 38.51095   -205.0 1.018e+04 2.496e-10
 38.53094   -204.3 1.022e+04 2.592e-10
 38.56434   -202.4 1.026e+04 2.644e-10
 38.59983   -200.6 1.042e+04 3.151e-10
 38.61981   -199.8 1.024e+04 2.648e-10
 38.64428   -198.1 1.043e+04 3.206e-10
 38.68425   -196.6 1.064e+04 4.162e-10
 38.70598   -195.2 1.079e+04 5.219e-10
 38.72597   -194.5 1.065e+04 4.566e-10
 38.76420   -193.2 1.070e+04 5.069e-10
 38.80417   -192.0 1.067e+04 5.227e-10
 38.84414   -190.8 1.055e+04 5.150e-10
 38.88103   -189.4 1.038e+04 4.850e-10
 38.90101   -188.6 1.024e+04 4.038e-10
 38.92408   -187.2 1.010e+04 3.808e-10
 38.96405   -185.7 9.995e+03 3.586e-10
 39.00402   -184.2 9.906e+03 3.369e-10
 39.04400   -182.7 9.820e+03 3.148e-10
 39.07606   -181.1 9.722e+03 2.934e-10
 39.09604   -180.4 9.577e+03 2.341e-10
 39.12394   -178.8 9.471e+03 2.110e-10
 39.16391   -177.1 9.391e+03 1.964e-10
 39.20388   -175.3 9.346e+03 1.914e-10
 39.24385   -173.3 9.336e+03 1.903e-10
 39.27109   -171.4 9.330e+03 1.921e-10
 39.29107   -170.6 9.265e+03 1.464e-10
 39.32380   -168.7 9.305e+03 1.582e-10
 39.34942   -166.7 9.360e+03 1.743e-10
 39.36941   -166.5 9.519e+03 2.035e-10
 39.40374   -164.6 9.636e+03 2.404e-10
 39.44371   -162.7 9.805e+03 2.909e-10
 39.46612   -161.1 1.004e+04 3.633e-10
 39.48610   -160.5 1.000e+04 3.358e-10
 39.52365   -159.3 1.037e+04 4.639e-10
 39.56363   -158.8 1.087e+04 6.622e-10
 39.60360   -158.6 1.151e+04 9.648e-10
 39.64116   -158.8 1.232e+04 1.440e-09
 39.66115   -157.7 1.228e+04 1.466e-09
 39.67345   -158.1 1.281e+04 1.834e-09
 39.69334   -158.6 1.355e+04 2.564e-09
 39.71332   -159.2 1.433e+04 3.661e-09
 39.72402   -159.7 1.501e+04 4.897e-09
 39.73402   -159.6 1.473e+04 4.474e-09
 39.74848   -160.1 1.505e+04 5.083e-09
 39.75847   -159.4 1.515e+04 5.120e-09
 39.77328   -160.0 1.528e+04 5.417e-09
 39.79327   -160.8 1.528e+04 5.455e-09
 39.81325   -161.3 1.497e+04 5.053e-09
 39.83324   -161.6 1.443e+04 4.185e-09
 39.84599   -161.7 1.392e+04 3.361e-09
 39.85598   -161.2 1.409e+04 3.163e-09
 39.87321   -161.3 1.352e+04 2.566e-09
 39.89320   -161.3 1.311e+04 2.118e-09
 39.91318   -161.1 1.273e+04 1.783e-09
 39.93317   -160.7 1.242e+04 1.542e-09
 39.94351   -160.2 1.217e+04 1.367e-09
 39.95350   -159.7 1.201e+04 1.190e-09
 39.97314   -159.1 1.181e+04 1.079e-09
 39.99312   -158.5 1.165e+04 9.946e-10
 40.01311   -157.9 1.151e+04 9.337e-10
 40.03103   -157.3 1.139e+04 9.057e-10
 40.04102   -156.6 1.125e+04 7.939e-10
 40.05308   -155.8 1.117e+04 7.753e-10
 40.07893   -154.8 1.110e+04 7.645e-10
 40.09902   -154.2 1.089e+04 5.891e-10
 40.12323   -152.6 1.086e+04 5.849e-10
 40.16320   -151.1 1.086e+04 5.952e-10
 40.20317   -149.8 1.089e+04 6.110e-10
 40.22625   -148.7 1.091e+04 6.112e-10
 40.24624   -147.2 1.087e+04 5.326e-10
 40.28311   -146.3 1.089e+04 5.736e-10
 40.32309   -145.4 1.085e+04 5.845e-10
 40.36306   -144.6 1.076e+04 5.696e-10
 40.40130   -143.7 1.067e+04 5.402e-10
 40.42128   -142.4 1.078e+04 5.668e-10
 40.44300   -141.5 1.070e+04 5.423e-10
 40.48297   -140.5 1.057e+04 5.083e-10
 40.52294   -139.5 1.045e+04 4.685e-10
 40.56291   -138.3 1.034e+04 4.304e-10
 40.59633   -137.1 1.027e+04 4.014e-10
 40.61631   -136.8 1.054e+04 5.142e-10
 40.64286   -135.6 1.051e+04 5.040e-10
 40.68283   -134.4 1.050e+04 4.957e-10
 40.72280   -133.1 1.049e+04 4.855e-10
 40.76277   -131.7 1.042e+04 4.518e-10
 40.79136   -130.1 1.026e+04 3.793e-10
 40.81134   -130.1 1.030e+04 3.927e-10
 40.82863   -128.4 1.006e+04 2.987e-10
 40.84861   -127.8 1.040e+04 3.983e-10
 40.88269   -125.9 1.018e+04 3.151e-10
 40.92266   -123.9 9.984e+03 2.458e-10
 40.96263   -121.9 9.826e+03 1.961e-10
 40.98639   -119.7 9.739e+03 1.666e-10
 41.00637   -119.4 9.655e+03 1.545e-10
 41.04257   -117.2 9.638e+03 1.389e-10
 41.08254   -115.0 9.665e+03 1.313e-10
 41.12252   -112.9 9.704e+03 1.276e-10
 41.16143   -110.9 9.724e+03 1.262e-10
 41.18142   -110.4 9.635e+03 1.052e-10
 41.20246   -108.5 9.649e+03 1.035e-10
 41.24243   -106.7 9.803e+03 1.021e-10
 41.28240   -105.2 9.992e+03 1.163e-10
 41.32237   -103.9 1.019e+04 1.568e-10
 41.35646   -102.8 1.048e+04 2.467e-10
 41.37645   -102.6 1.067e+04 2.608e-10
 41.40232   -101.8 1.131e+04 5.151e-10
 41.44229   -101.1 1.211e+04 9.829e-10
 41.46387   -100.6 1.257e+04 1.382e-09
 41.47377   -100.7 1.280e+04 1.604e-09
 41.49206   -100.6 1.320e+04 2.052e-09
 41.51204   -100.3 1.358e+04 2.588e-09
 41.53203    -99.9 1.407e+04 3.247e-09
 41.55130    -99.5 1.453e+04 3.976e-09
 41.56129    -99.4 1.472e+04 4.283e-09
 41.56804    -99.1 1.509e+04 4.886e-09
 41.57803    -98.7 1.481e+04 4.346e-09
 41.59199    -98.4 1.517e+04 4.922e-09
 41.61197    -98.3 1.545e+04 5.265e-09
 41.63196    -98.4 1.565e+04 5.435e-09
 41.64881    -98.5 1.580e+04 5.528e-09
 41.65881    -99.2 1.608e+04 6.485e-09
 41.67193    -99.3 1.623e+04 6.953e-09
 41.69191    -99.3 1.631e+04 7.329e-09
 41.71190    -99.3 1.631e+04 7.477e-09
 41.73189    -99.3 1.621e+04 7.389e-09
 41.74633    -99.3 1.607e+04 6.878e-09
 41.75632    -99.1 1.589e+04 6.901e-09
 41.77186    -99.1 1.564e+04 5.840e-09
 41.79184    -99.4 1.559e+04 5.277e-09
 41.81183   -100.0 1.560e+04 5.170e-09
 41.83181   -100.8 1.575e+04 5.248e-09
 41.84384   -101.6 1.617e+04 6.261e-09
 41.85384   -101.2 1.541e+04 4.730e-09
 41.87179   -101.7 1.597e+04 6.455e-09
 41.89177   -101.7 1.666e+04 8.904e-09
 41.91176   -101.4 1.731e+04 1.167e-08
 41.93136   -101.1 1.776e+04 1.364e-08
 41.94136   -100.8 1.724e+04 1.110e-08
 41.94283   -100.7 1.741e+04 1.183e-08
 41.95283   -100.7 1.772e+04 1.302e-08
 41.97172   -100.7 1.758e+04 1.268e-08
 41.99170   -100.4 1.692e+04 9.860e-09
 42.01169   -100.1 1.614e+04 6.896e-09
 42.02888    -99.9 1.539e+04 4.814e-09
 42.03887    -99.7 1.535e+04 4.644e-09
 42.05166    -99.7 1.467e+04 3.379e-09
 42.07164    -99.4 1.414e+04 2.566e-09
 42.09163    -99.0 1.375e+04 2.025e-09
 42.11162    -98.6 1.344e+04 1.655e-09
 42.12639    -98.2 1.323e+04 1.462e-09
 42.13639    -97.9 1.317e+04 1.427e-09
 42.15159    -97.4 1.295e+04 1.262e-09
 42.17157    -96.8 1.284e+04 1.191e-09
 42.20165    -96.2 1.280e+04 1.174e-09
 42.24172    -95.1 1.268e+04 1.097e-09
 42.28169    -94.7 1.266e+04 1.079e-09
 42.30783    -94.3 1.276e+04 1.145e-09
 42.31779    -93.1 1.244e+04 8.643e-10
 42.33161    -91.9 1.212e+04 6.987e-10
 42.36163    -91.0 1.218e+04 7.127e-10
 42.40160    -90.0 1.217e+04 7.456e-10
 42.44158    -89.0 1.210e+04 7.512e-10
 42.48155    -87.7 1.195e+04 6.966e-10
 42.50666    -86.2 1.175e+04 5.957e-10
 42.52664    -84.8 1.138e+04 4.717e-10
 42.56149    -83.4 1.120e+04 4.130e-10
 42.60146    -81.9 1.103e+04 3.588e-10
 42.64143    -80.5 1.086e+04 3.146e-10
 42.68141    -79.0 1.072e+04 2.809e-10
 42.70169    -77.6 1.059e+04 2.525e-10
 42.72167    -76.0 1.052e+04 2.414e-10
 42.76135    -74.5 1.041e+04 2.198e-10
 42.80132    -73.0 1.036e+04 2.041e-10
 42.84129    -71.4 1.037e+04 1.987e-10
 42.87673    -70.0 1.045e+04 2.029e-10
 42.89672    -68.1 1.033e+04 1.872e-10
 42.92123    -66.7 1.043e+04 1.877e-10
 42.96121    -65.6 1.061e+04 2.195e-10
 43.00118    -64.4 1.074e+04 2.947e-10
 43.03744    -63.2 1.088e+04 4.108e-10
 43.05743    -62.3 1.099e+04 4.310e-10
 43.07176    -61.3 1.113e+04 5.193e-10
 43.09175    -59.7 1.103e+04 4.250e-10
 43.12109    -58.8 1.115e+04 5.142e-10
 43.16106    -58.1 1.126e+04 5.743e-10
 43.20104    -57.6 1.140e+04 6.186e-10
 43.24101    -57.0 1.153e+04 6.766e-10
 43.26669    -56.8 1.143e+04 6.593e-10
 43.27659    -55.6 1.158e+04 6.492e-10
 43.29078    -55.6 1.164e+04 6.697e-10
 43.31076    -55.6 1.175e+04 7.314e-10
 43.33075    -55.5 1.187e+04 8.272e-10
 43.35073    -55.3 1.195e+04 9.498e-10
 43.36411    -54.9 1.197e+04 1.077e-09
 43.37410    -54.6 1.204e+04 9.611e-10
 43.39070    -54.1 1.201e+04 1.049e-09
 43.41069    -53.6 1.195e+04 1.106e-09
 43.42204    -52.9 1.190e+04 1.128e-09
 43.43203    -52.9 1.199e+04 1.144e-09
 43.45066    -52.5 1.177e+04 1.030e-09
 43.46172    -52.2 1.152e+04 8.997e-10
 43.48181    -50.9 1.175e+04 9.413e-10
 43.52081    -49.7 1.133e+04 7.367e-10
 43.54925    -48.5 1.097e+04 5.853e-10
 43.55914    -48.3 1.112e+04 6.041e-10
 43.57058    -47.4 1.101e+04 5.350e-10
 43.60065    -46.2 1.084e+04 4.484e-10
 43.63687    -44.2 1.062e+04 3.342e-10
 43.65685    -43.6 1.114e+04 5.952e-10
 43.68069    -41.6 1.098e+04 4.927e-10
 43.72067    -39.5 1.085e+04 3.940e-10
 43.76064    -37.3 1.079e+04 3.178e-10
 43.78704    -35.2 1.079e+04 2.678e-10
 43.80703    -35.3 1.063e+04 2.302e-10
 43.83190    -33.1 1.063e+04 2.127e-10
 43.85188    -32.9 1.138e+04 6.429e-10
 43.88055    -30.9 1.143e+04 6.368e-10
 43.92052    -29.4 1.163e+04 7.296e-10
 43.96049    -29.0 1.224e+04 1.068e-09
 43.99038    -30.1 1.349e+04 1.816e-09
 44.01026    -33.3 1.525e+04 3.653e-09
 44.02673    -34.6 1.613e+04 7.385e-09
 44.03672    -34.0 1.589e+04 1.041e-08
 44.05023    -33.1 1.656e+04 1.644e-08
 44.07022    -32.5 1.691e+04 1.880e-08
 44.08044    -32.2 1.681e+04 1.779e-08
 44.08538    -31.8 1.638e+04 1.703e-08
 44.09511    -31.1 1.591e+04 1.240e-08
 44.11014    -31.3 1.524e+04 7.553e-09
 44.12425    -31.7 1.408e+04 3.835e-09
 44.13424    -32.0 1.380e+04 3.598e-09
 44.15016    -32.9 1.223e+04 1.638e-09
 44.16164    -33.6 1.153e+04 9.971e-10
 44.17164    -33.4 1.184e+04 1.022e-09
 44.20023    -33.6 1.094e+04 6.485e-10
 44.22196    -31.5 1.015e+04 4.006e-10
 44.24194    -29.9 1.062e+04 6.514e-10
 44.28027    -27.3 9.899e+03 3.652e-10
 44.32024    -25.1 9.546e+03 2.419e-10
 44.36021    -23.2 9.389e+03 2.034e-10
 44.39700    -20.9 9.284e+03 1.814e-10
 44.41699    -19.4 9.423e+03 2.198e-10
 44.44015    -17.2 9.361e+03 2.048e-10
 44.48012    -15.0 9.341e+03 1.912e-10
 44.51665    -12.9 9.330e+03 1.755e-10
 44.53664    -12.4 9.141e+03 1.500e-10
 44.56007    -10.3 9.118e+03 1.398e-10
 44.59203     -8.4 9.100e+03 1.369e-10
 44.61202     -6.8 9.478e+03 1.912e-10
 44.64001     -5.1 9.548e+03 2.010e-10
 44.67998     -3.6 9.493e+03 2.200e-10
 44.71995     -1.8 9.545e+03 2.385e-10
 44.75992     -0.2 9.655e+03 2.415e-10
 44.78706      0.5 9.987e+03 2.523e-10
 44.80705      2.3 1.091e+04 5.757e-10
 44.83987      2.3 1.115e+04 5.989e-10
 44.87984      1.0 1.177e+04 8.134e-10
 44.90134     -1.1 1.335e+04 1.737e-09
 44.91124      0.2 1.256e+04 1.172e-09
 44.92961     -1.6 1.383e+04 2.083e-09
 44.94959     -2.2 1.480e+04 3.707e-09
 44.96958     -2.2 1.539e+04 5.407e-09
 44.98190     -1.1 1.573e+04 6.278e-09
 44.99189     -1.0 1.644e+04 1.038e-08
 45.00955     -0.5 1.604e+04 8.831e-09
 45.02954     -0.6 1.537e+04 6.583e-09
 45.04952     -1.1 1.457e+04 5.030e-09
 45.06942     -1.2 1.414e+04 4.099e-09
 45.08940     -1.4 1.380e+04 3.825e-09
 45.10948     -1.1 1.361e+04 3.271e-09
 45.12947     -0.8 1.339e+04 2.790e-09
 45.14945     -0.5 1.311e+04 2.435e-09
 45.16693      0.1 1.289e+04 2.182e-09
 45.17693      0.4 1.298e+04 2.426e-09
 45.18942      0.9 1.278e+04 2.039e-09
 45.20941      1.3 1.258e+04 1.693e-09
 45.22939      1.1 1.209e+04 1.348e-09
 45.24938      1.5 1.193e+04 1.186e-09
 45.26445      1.7 1.172e+04 1.057e-09
 45.27113      2.1 1.170e+04 1.037e-09
 45.27604      1.9 1.170e+04 1.056e-09
 45.28935      2.1 1.154e+04 1.017e-09
 45.30934      2.8 1.147e+04 1.008e-09
 45.32932      3.7 1.156e+04 1.046e-09
 45.35207      3.8 1.141e+04 1.007e-09
 45.37215      5.0 1.170e+04 1.148e-09
 45.39947      6.0 1.162e+04 1.037e-09
 45.43944      5.9 1.150e+04 9.604e-10
 45.45958      5.5 1.137e+04 9.647e-10
 45.46947      5.6 1.169e+04 1.088e-09
 45.48921      5.4 1.174e+04 1.180e-09
 45.50920      5.9 1.182e+04 1.351e-09
 45.52918      6.2 1.184e+04 1.372e-09
 45.54710      6.9 1.146e+04 1.124e-09
 45.55709      6.5 1.239e+04 1.733e-09
 45.56915      7.2 1.221e+04 1.565e-09
 45.59923      7.6 1.194e+04 1.286e-09
 45.63930      8.7 1.121e+04 7.771e-10
 45.67927      9.8 1.053e+04 4.428e-10
 45.71924     10.7 1.013e+04 2.987e-10
 45.74223     12.2 9.688e+03 2.608e-10
 45.76221     12.9 9.681e+03 2.878e-10
 45.79918     15.0 9.471e+03 2.305e-10
 45.83916     16.8 9.435e+03 1.784e-10
 45.87913     18.3 9.480e+03 1.585e-10
 45.91727     19.9 9.419e+03 1.606e-10
 45.93726     20.7 9.387e+03 1.612e-10
 45.95907     22.5 9.360e+03 1.590e-10
 45.99586     23.9 9.480e+03 1.646e-10
 46.01584     24.0 9.179e+03 1.581e-10
 46.03901     24.8 9.425e+03 1.854e-10
 46.07899     25.8 9.533e+03 2.694e-10
 46.11230     27.4 9.714e+03 3.664e-10
 46.13229     28.2 9.548e+03 2.941e-10
 46.15893     29.3 9.896e+03 3.166e-10
 46.19890     28.9 1.029e+04 3.657e-10
 46.23887     27.8 1.075e+04 5.483e-10
 46.27884     27.8 1.107e+04 8.646e-10
 46.30733     28.4 1.138e+04 1.107e-09
 46.31723     28.3 1.127e+04 1.016e-09
 46.32861     28.7 1.131e+04 1.046e-09
 46.35869     29.2 1.129e+04 1.028e-09
 46.39876     30.4 1.086e+04 7.784e-10
 46.43873     31.0 1.052e+04 4.695e-10
 46.47870     31.0 1.029e+04 3.219e-10
 46.50236     31.7 9.969e+03 2.697e-10
 46.52235     32.1 9.922e+03 2.558e-10
 46.55864     33.4 9.732e+03 2.243e-10
 46.59862     34.9 9.750e+03 1.916e-10
 46.63859     36.1 9.855e+03 1.808e-10
 46.67741     37.1 9.892e+03 1.886e-10
 46.69739     37.6 9.816e+03 1.521e-10
 46.71853     38.6 9.808e+03 1.683e-10
 46.74545     39.9 9.762e+03 1.771e-10
 46.76544     39.7 9.697e+03 1.740e-10
 46.79847     41.3 9.594e+03 1.664e-10
 46.83844     43.0 9.566e+03 1.409e-10
 46.87244     44.2 9.656e+03 1.117e-10
 46.89242     45.1 9.626e+03 1.110e-10
 46.91839     46.1 9.674e+03 9.137e-11
 46.95836     47.1 9.648e+03 8.889e-11
 46.99833     48.2 9.683e+03 9.180e-11
 47.03830     49.3 9.763e+03 1.027e-10
 47.06747     50.4 9.928e+03 1.207e-10
 47.08745     51.9 9.819e+03 1.196e-10
 47.11824     53.1 9.988e+03 1.439e-10
 47.15822     53.8 1.040e+04 2.054e-10
 47.19819     54.6 1.085e+04 4.112e-10
 47.23816     55.6 1.130e+04 7.269e-10
 47.26250     56.7 1.169e+04 9.563e-10
 47.28248     58.0 1.129e+04 6.701e-10
 47.31810     58.9 1.159e+04 8.056e-10
 47.35807     59.8 1.165e+04 7.690e-10
 47.39805     60.8 1.157e+04 6.437e-10
 47.43754     61.9 1.140e+04 5.345e-10
 47.45753     63.0 1.133e+04 5.050e-10
 47.47506     64.1 1.115e+04 4.506e-10
 47.49505     63.4 1.093e+04 3.510e-10
 47.51796     64.9 1.082e+04 3.616e-10
 47.55793     66.7 1.075e+04 3.613e-10
 47.59790     68.6 1.067e+04 3.446e-10
 47.63257     70.5 1.062e+04 2.947e-10
 47.65256     71.3 1.057e+04 2.929e-10
 47.67785     73.0 1.053e+04 2.328e-10
 47.71782     74.5 1.052e+04 1.760e-10
 47.75779     75.6 1.043e+04 1.518e-10
 47.79776     76.6 1.043e+04 1.536e-10
 47.82760     77.4 1.046e+04 1.730e-10
 47.84759     78.6 1.035e+04 1.704e-10
 47.87770     79.6 1.035e+04 2.044e-10
 47.91768     80.8 1.037e+04 2.365e-10
 47.95765     82.0 1.038e+04 2.533e-10
 47.99762     83.4 1.037e+04 2.574e-10
 48.02263     84.8 1.036e+04 2.616e-10
 48.04262     85.8 1.035e+04 2.864e-10
 48.07756     87.3 1.036e+04 3.003e-10
 48.11753     88.8 1.039e+04 3.075e-10
 48.15750     90.3 1.044e+04 3.111e-10
 48.19748     91.8 1.047e+04 3.079e-10
 48.21766     93.2 1.044e+04 2.955e-10
 48.22486     94.3 1.045e+04 3.047e-10
 48.24465     94.0 1.048e+04 3.038e-10
 48.27742     95.3 1.039e+04 2.752e-10
 48.31739     96.7 1.037e+04 2.756e-10
 48.35736     98.2 1.041e+04 2.945e-10
 48.39271     99.7 1.051e+04 3.586e-10
 48.41269    100.7 1.049e+04 3.483e-10
 48.43731    102.2 1.069e+04 4.699e-10
 48.47728    103.7 1.092e+04 6.433e-10
 48.51725    105.2 1.115e+04 8.369e-10
 48.55722    106.7 1.124e+04 9.793e-10
 48.58774    108.1 1.118e+04 9.562e-10
 48.60772    109.2 1.136e+04 1.027e-09
 48.63716    110.6 1.127e+04 9.869e-10
 48.67713    112.2 1.095e+04 8.156e-10
 48.71711    113.9 1.054e+04 5.861e-10
 48.75708    115.8 1.010e+04 3.752e-10
 48.78277    117.7 9.765e+03 2.185e-10
 48.80275    118.7 9.971e+03 2.921e-10
 48.83702    120.4 9.662e+03 1.739e-10
 48.87699    122.1 9.360e+03 1.156e-10
 48.91696    124.0 9.003e+03 1.032e-10
 48.95427    126.3 8.978e+03 1.038e-10
 48.97426    126.4 9.014e+03 1.091e-10
 48.97780    128.8 9.015e+03 1.112e-10
 48.99778    129.8 9.062e+03 1.289e-10
 49.03688    132.2 9.080e+03 1.407e-10
 49.07685    134.4 9.191e+03 1.738e-10
 49.11682    136.6 9.396e+03 2.355e-10
 49.15284    138.6 9.646e+03 3.220e-10
 49.17283    139.8 9.832e+03 3.700e-10
 49.19676    141.6 1.008e+04 4.785e-10
 49.23674    143.1 1.014e+04 5.027e-10
 49.27671    143.8 1.023e+04 5.042e-10
 49.31668    144.4 1.026e+04 4.781e-10
 49.34787    145.3 1.016e+04 3.889e-10
 49.36786    145.9 1.038e+04 4.763e-10
 49.39662    146.8 1.015e+04 3.531e-10
 49.43659    147.6 9.873e+03 2.535e-10
 49.47657    148.4 9.680e+03 2.113e-10
 49.51654    149.4 9.669e+03 2.129e-10
 49.54290    150.3 9.693e+03 2.237e-10
 49.56289    151.1 9.821e+03 2.616e-10
 49.59648    152.0 9.889e+03 2.951e-10
 49.63645    152.9 1.001e+04 3.466e-10
 49.67642    153.4 1.025e+04 4.135e-10
 49.70387    153.1 1.055e+04 4.860e-10
 49.72385    153.6 1.062e+04 5.772e-10
 49.73783    153.5 1.077e+04 6.206e-10
 49.75782    154.2 1.119e+04 7.970e-10
 49.78625    153.6 1.139e+04 8.282e-10
 49.80613    153.1 1.158e+04 8.602e-10
 49.82526    152.7 1.166e+04 8.643e-10
 49.83525    152.8 1.173e+04 9.130e-10
 49.84611    152.3 1.173e+04 8.750e-10
 49.86609    151.8 1.165e+04 7.340e-10
 49.88608    151.6 1.160e+04 6.447e-10
 49.91288    151.6 1.143e+04 4.797e-10
 49.93296    151.9 1.148e+04 4.687e-10
 49.95622    151.7 1.129e+04 3.381e-10
 49.99619    151.6 1.131e+04 3.366e-10
 50.03617    151.5 1.145e+04 3.642e-10
 50.06605    150.7 1.181e+04 4.726e-10
 50.07847    150.1 1.210e+04 6.612e-10
 50.08846    150.7 1.200e+04 5.960e-10
 50.10592    150.4 1.234e+04 8.629e-10
 50.11780    150.3 1.254e+04 1.088e-09
 50.12780    150.2 1.253e+04 1.049e-09
 50.15598    150.0 1.276e+04 1.121e-09
 50.19605    149.2 1.281e+04 1.119e-09
 50.23602    147.9 1.277e+04 1.047e-09
 50.27600    147.1 1.257e+04 8.868e-10
 50.30303    147.0 1.234e+04 7.125e-10
 50.32302    146.9 1.215e+04 6.160e-10
 50.35594    147.1 1.197e+04 5.029e-10
 50.39591    147.7 1.180e+04 4.081e-10
 50.43348    148.7 1.165e+04 3.352e-10
 50.45346    149.7 1.166e+04 3.457e-10
 50.47585    151.0 1.154e+04 2.801e-10
 50.49806    152.7 1.145e+04 2.345e-10
 50.51805    152.8 1.138e+04 1.742e-10
 50.55580    154.5 1.114e+04 1.574e-10
 50.59577    156.5 1.103e+04 1.571e-10
 50.63574    158.6 1.100e+04 1.602e-10
 50.67311    160.6 1.091e+04 1.778e-10
 50.69309    160.9 1.089e+04 1.700e-10
 50.71568    162.9 1.088e+04 2.099e-10
 50.75565    164.9 1.088e+04 2.579e-10
 50.79563    166.6 1.087e+04 2.929e-10
 50.83560    168.1 1.087e+04 2.949e-10
 50.86814    169.4 1.083e+04 2.870e-10
 50.88813    169.8 1.088e+04 2.961e-10
 50.91554    171.1 1.079e+04 2.697e-10
 50.95551    172.4 1.070e+04 2.281e-10
 50.99548    173.6 1.064e+04 1.859e-10
 51.03545    174.8 1.058e+04 1.533e-10
 51.06317    175.8 1.049e+04 1.429e-10
 51.08316    176.4 1.052e+04 1.436e-10
 51.11540    177.5 1.049e+04 1.427e-10
 51.15537    178.8 1.048e+04 1.436e-10
 51.18307    180.1 1.041e+04 1.464e-10
 51.20306    180.3 1.027e+04 1.344e-10
 51.23531    181.7 1.023e+04 1.351e-10
 51.25820    183.3 1.018e+04 1.357e-10
 51.27819    183.9 1.021e+04 1.373e-10
 51.31526    185.6 1.016e+04 1.413e-10
 51.35523    187.3 1.013e+04 1.456e-10
 51.39520    189.0 1.012e+04 1.489e-10
 51.43324    190.6 1.012e+04 1.519e-10
 51.45323    191.1 1.024e+04 1.857e-10
 51.47514    192.5 1.028e+04 1.950e-10
 51.51511    193.8 1.034e+04 2.099e-10
 51.55508    195.0 1.045e+04 2.368e-10
 51.59506    196.1 1.063e+04 2.796e-10
 51.62827    197.1 1.083e+04 3.358e-10
 51.64826    196.9 1.086e+04 3.300e-10
 51.67500    197.6 1.104e+04 3.699e-10
 51.71497    197.9 1.118e+04 3.904e-10
 51.75494    198.0 1.121e+04 3.875e-10
 51.79491    198.1 1.121e+04 3.794e-10
 51.82330    198.1 1.116e+04 3.743e-10
 51.84329    198.5 1.120e+04 3.499e-10
 51.87486    198.7 1.121e+04 3.698e-10
 51.91268    198.9 1.123e+04 4.140e-10
 51.93267    198.9 1.122e+04 4.119e-10
 51.95480    199.0 1.116e+04 4.536e-10
 51.99477    199.2 1.107e+04 4.703e-10
 52.01833    199.5 1.096e+04 4.492e-10
 52.03832    200.2 1.123e+04 5.281e-10
 52.07471    200.5 1.098e+04 4.684e-10
 52.11469    200.9 1.068e+04 3.729e-10
 52.15466    201.3 1.040e+04 3.030e-10
 52.19338    201.7 1.015e+04 2.714e-10
 52.21336    202.5 1.042e+04 3.136e-10
 52.23460    202.9 1.021e+04 2.877e-10
 52.27457    203.4 1.005e+04 2.747e-10
 52.31454    204.2 9.937e+03 2.665e-10
 52.35452    205.1 9.812e+03 2.587e-10
 52.38841    206.2 9.661e+03 2.458e-10
 52.40839    206.8 9.875e+03 2.506e-10
 52.43446    208.0 9.757e+03 2.462e-10
 52.47443    209.2 9.628e+03 2.318e-10
 52.51440    210.4 9.509e+03 2.089e-10
 52.55437    211.6 9.387e+03 1.867e-10
 52.58344    212.9 9.295e+03 1.734e-10
 52.60342    213.5 9.622e+03 2.345e-10
 52.63432    214.7 9.624e+03 2.354e-10
 52.66228    215.7 9.647e+03 2.410e-10
 52.68227    215.5 9.507e+03 2.243e-10
 52.71426    216.5 9.526e+03 2.272e-10
 52.75423    217.1 9.621e+03 2.410e-10
 52.77847    217.2 9.783e+03 2.666e-10
 52.79845    217.4 1.007e+04 3.250e-10
 52.82408    217.1 1.011e+04 3.360e-10
 52.84397    217.0 1.013e+04 3.439e-10
 52.86396    216.8 1.022e+04 3.773e-10
 52.87579    216.7 1.032e+04 4.140e-10
 52.88578    217.4 1.056e+04 5.177e-10
 52.90393    217.3 1.078e+04 5.963e-10
 52.92391    217.0 1.090e+04 6.210e-10
 52.95342    216.5 1.080e+04 5.816e-10
 52.97340    216.3 1.120e+04 7.396e-10
 52.98387    215.6 1.107e+04 6.754e-10
 53.00386    215.3 1.096e+04 6.309e-10
 53.03393    214.8 1.081e+04 5.653e-10
 53.07400    214.3 1.052e+04 4.817e-10
 53.11397    214.2 1.029e+04 4.252e-10
 53.14854    214.4 1.009e+04 3.866e-10
 53.16853    214.3 1.034e+04 4.087e-10
 53.19392    214.8 1.017e+04 3.918e-10
 53.23389    215.7 1.005e+04 3.916e-10
 53.27386    216.6 9.973e+03 3.960e-10
 53.31383    217.4 9.950e+03 3.969e-10
 53.34357    218.1 9.914e+03 3.917e-10
 53.36356    217.6 1.011e+04 4.185e-10
 53.39189    218.1 1.000e+04 3.919e-10
 53.41188    217.4 1.006e+04 4.156e-10
 53.43375    217.8 9.958e+03 3.746e-10
 53.47372    218.3 9.937e+03 3.446e-10
 53.51369    218.8 9.966e+03 3.428e-10
 53.53860    219.2 1.007e+04 3.521e-10
 53.55859    217.7 1.020e+04 3.552e-10
 53.59363    217.7 1.032e+04 3.650e-10
 53.63360    217.5 1.042e+04 3.662e-10
 53.67358    217.2 1.046e+04 3.391e-10
 53.71355    216.8 1.038e+04 2.966e-10
 53.75352    215.4 9.779e+03 1.626e-10
 53.79349    215.6 9.612e+03 1.591e-10
 53.83346    216.2 9.583e+03 1.641e-10
 53.87343    217.3 9.576e+03 1.841e-10
 53.90868    218.5 9.666e+03 2.254e-10
 53.92866    218.5 9.585e+03 1.714e-10
 53.95338    219.8 9.709e+03 2.187e-10
 53.99335    221.3 9.850e+03 2.794e-10
 54.03332    222.7 9.986e+03 3.464e-10
 54.07329    224.2 1.012e+04 4.054e-10
 54.10371    225.6 1.022e+04 4.391e-10
 54.12369    225.8 1.001e+04 3.378e-10
 54.14149    227.2 1.010e+04 3.763e-10
 54.16147    226.7 1.009e+04 3.760e-10
 54.19321    227.8 1.010e+04 3.697e-10
 54.23318    228.9 1.006e+04 3.373e-10
 54.27315    229.9 9.925e+03 2.743e-10
 54.29874    230.9 9.726e+03 2.022e-10
 54.31872    231.7 9.818e+03 2.428e-10
 54.35309    232.8 9.620e+03 1.806e-10
 54.39306    234.1 9.392e+03 1.313e-10
 54.43303    235.5 9.166e+03 1.038e-10
 54.47301    237.2 9.045e+03 9.733e-11
 54.49377    239.0 9.036e+03 9.824e-11
 54.51375    239.8 9.105e+03 1.045e-10
 54.55295    241.7 9.101e+03 1.066e-10
 54.59292    243.6 9.117e+03 1.153e-10
 54.63289    245.5 9.200e+03 1.334e-10
 54.66881    247.4 9.348e+03 1.636e-10
 54.68880    248.1 9.408e+03 1.710e-10
 54.71284    249.9 9.602e+03 2.141e-10
 54.75281    251.5 9.839e+03 2.670e-10
 54.79278    252.9 1.007e+04 3.194e-10
 54.83275    254.1 1.025e+04 3.599e-10
 54.86384    255.1 1.048e+04 4.036e-10
 54.88220    256.0 1.036e+04 3.459e-10
 54.89108    255.7 1.040e+04 3.491e-10
 54.91269    256.7 1.050e+04 3.585e-10
 54.95266    257.9 1.071e+04 3.908e-10
 54.99264    259.2 1.091e+04 4.372e-10
 55.03261    260.4 1.127e+04 5.367e-10
 55.05878    261.0 1.133e+04 5.533e-10
 55.07876    262.4 1.111e+04 4.396e-10
 55.10246    262.9 1.129e+04 4.946e-10
 55.12235    263.2 1.146e+04 5.591e-10
 55.14233    263.6 1.163e+04 6.457e-10
 55.15619    264.0 1.179e+04 7.423e-10
 55.16619    264.8 1.146e+04 5.468e-10
 55.18231    265.2 1.160e+04 6.164e-10
 55.20229    265.7 1.172e+04 6.931e-10
 55.22228    266.2 1.185e+04 7.659e-10
 55.24226    266.7 1.202e+04 8.340e-10
 55.25371    267.2 1.221e+04 9.020e-10
 55.25714    268.0 1.185e+04 7.099e-10
 55.26568    267.8 1.186e+04 7.312e-10
 55.28223    268.4 1.207e+04 8.028e-10
 55.30222    268.8 1.234e+04 8.820e-10
 55.32221    269.1 1.263e+04 9.695e-10
 55.34123    269.3 1.292e+04 1.060e-09
 55.35122    270.2 1.255e+04 8.728e-10
 55.36218    270.4 1.281e+04 9.288e-10
 55.38216    270.6 1.301e+04 9.454e-10
 55.40215    270.7 1.303e+04 9.400e-10
 55.42213    270.8 1.306e+04 9.195e-10
 55.43875    271.1 1.308e+04 8.802e-10
 55.44874    272.1 1.280e+04 6.794e-10
 55.46211    272.4 1.282e+04 6.376e-10
 55.48209    272.7 1.282e+04 6.333e-10
 55.50208    272.9 1.283e+04 6.436e-10
 55.52206    273.1 1.284e+04 6.966e-10
 55.53626    273.4 1.288e+04 8.152e-10
 55.54625    274.5 1.276e+04 6.006e-10
 55.56204    274.7 1.283e+04 7.499e-10
 55.58202    275.0 1.292e+04 9.738e-10
 55.60201    275.5 1.301e+04 1.248e-09
 55.62050    276.1 1.310e+04 1.514e-09
 55.63049    276.0 1.303e+04 1.479e-09
 55.63378    276.6 1.312e+04 1.670e-09
 55.64377    277.6 1.314e+04 1.597e-09
 55.66196    278.3 1.326e+04 1.831e-09
 55.68195    279.1 1.324e+04 1.822e-09
 55.70194    279.8 1.314e+04 1.721e-09
 55.72130    280.5 1.297e+04 1.482e-09
 55.73129    281.5 1.333e+04 1.920e-09
 55.74191    282.2 1.317e+04 1.661e-09
 55.76189    282.9 1.293e+04 1.314e-09
 55.78188    283.4 1.263e+04 9.686e-10
 55.80186    283.6 1.228e+04 6.900e-10
 55.81881    283.6 1.189e+04 4.952e-10
 55.82881    285.3 1.239e+04 7.658e-10
 55.84184    285.4 1.194e+04 5.544e-10
 55.86182    285.4 1.142e+04 4.395e-10
 55.88181    285.6 1.101e+04 3.925e-10
 55.90179    285.9 1.082e+04 3.936e-10
 55.91633    286.5 1.081e+04 3.955e-10
 55.92632    287.7 1.096e+04 4.594e-10
 55.94176    288.2 1.095e+04 4.656e-10
 55.96175    288.8 1.096e+04 4.867e-10
 55.98174    289.4 1.102e+04 5.226e-10
 55.99530    289.6 1.107e+04 5.555e-10
 56.00529    289.0 1.113e+04 5.931e-10
 56.01394    290.0 1.109e+04 6.034e-10
 56.02393    289.9 1.119e+04 6.486e-10
 56.04169    290.0 1.117e+04 6.503e-10
 56.06168    290.4 1.113e+04 6.598e-10
 56.08166    290.6 1.111e+04 6.617e-10
 56.11174    291.8 1.112e+04 6.591e-10
 56.15181    292.3 1.100e+04 6.247e-10
 56.18908    292.7 1.078e+04 5.508e-10
 56.20907    292.9 1.086e+04 5.679e-10
 56.23175    293.3 1.053e+04 4.625e-10
 56.27172    294.0 1.016e+04 3.595e-10
 56.31170    294.8 9.800e+03 2.795e-10
 56.35030    295.9 9.538e+03 2.335e-10
 56.37029    295.5 9.344e+03 2.020e-10
 56.38411    297.1 9.327e+03 2.000e-10
 56.40410    297.4 9.316e+03 1.989e-10
 56.43161    299.1 9.318e+03 1.993e-10
 56.47158    300.9 9.334e+03 2.025e-10
 56.51155    302.7 9.367e+03 2.102e-10
 56.55153    304.6 9.409e+03 2.199e-10
 56.57914    306.4 9.435e+03 2.278e-10
 56.59913    306.7 9.443e+03 2.282e-10
 56.63147    308.5 9.459e+03 2.331e-10
 56.67144    310.4 9.458e+03 2.354e-10
 56.71141    312.2 9.453e+03 2.366e-10
 56.75138    314.1 9.449e+03 2.385e-10
 56.77417    315.9 9.450e+03 2.438e-10
 56.79416    316.0 9.637e+03 2.694e-10
 56.83133    317.6 9.695e+03 2.853e-10
 56.87130    319.4 9.793e+03 3.092e-10
 56.91127    321.1 9.952e+03 3.428e-10
 56.94922    322.6 1.012e+04 3.832e-10
 56.96920    321.6 1.018e+04 3.888e-10
 56.98112    322.6 1.015e+04 4.001e-10
 57.00101    324.3 1.016e+04 4.258e-10
 57.02100    326.2 1.029e+04 4.890e-10
 57.04098    327.7 1.053e+04 5.813e-10
 57.05653    328.7 1.082e+04 6.863e-10
 57.06652    328.3 1.086e+04 6.769e-10
 57.08095    329.0 1.113e+04 7.800e-10
 57.09970    329.6 1.142e+04 8.996e-10
 57.10970    330.2 1.157e+04 1.017e-09
 57.12092    330.9 1.192e+04 1.187e-09
 57.14091    331.5 1.233e+04 1.404e-09
 57.15404    332.1 1.283e+04 1.695e-09
 57.16404    331.6 1.286e+04 1.673e-09
 57.18088    331.9 1.350e+04 2.099e-09
 57.20087    332.0 1.431e+04 2.727e-09
 57.22085    331.9 1.522e+04 3.630e-09
 57.24084    331.5 1.598e+04 4.663e-09
 57.25151    330.9 1.627e+04 5.095e-09
 57.25646    330.3 1.632e+04 5.144e-09
 57.26572    330.4 1.642e+04 5.271e-09
 57.27572    330.7 1.654e+04 5.437e-09
 57.28571    331.1 1.676e+04 5.641e-09
 57.29200    331.4 1.698e+04 5.782e-09
 57.29652    332.6 1.753e+04 6.897e-09
 57.30022    332.4 1.782e+04 7.155e-09
 57.30570    333.0 1.807e+04 7.148e-09
 57.31569    333.4 1.810e+04 7.102e-09
 57.32568    333.9 1.814e+04 6.873e-09
 57.33567    334.6 1.810e+04 6.360e-09
 57.34398    335.0 1.812e+04 5.895e-09
 57.34898    334.7 1.854e+04 6.053e-09
 57.35566    333.7 2.067e+04 6.089e-09
 57.36565    329.0 2.831e+04 7.310e-09
 57.37083    325.6 3.109e+04 9.190e-09
 57.37331    324.6 3.239e+04 1.013e-08
 57.37809    320.6 3.072e+04 2.326e-08
 57.38309    307.2 2.530e+04 2.018e-07
 57.38565    284.7 2.125e+04 2.538e-06
 57.38815    283.6 2.013e+04 4.641e-06
 57.39269    264.1 1.818e+04 1.699e-05
 57.39519    264.9 1.604e+04 6.182e-05
 57.39808    252.1 1.614e+04 6.085e-05
 57.40308    244.4 1.717e+04 2.464e-05
 57.40807    240.6 1.885e+04 7.139e-06
 57.41307    239.8 2.478e+04 1.400e-06
 57.41707    238.1 3.603e+04 1.914e-07
 57.41957    242.3 4.047e+04 1.142e-07
 57.42559    235.1 6.885e+04 6.413e-09
 57.43560    217.1 5.065e+04 3.545e-09
 57.44150    200.3 1.853e+04 6.876e-09
 57.44649    197.3 1.764e+04 4.616e-09
 57.46063    199.2 1.790e+04 4.796e-09
 57.47450    200.5 1.678e+04 5.290e-09
 57.48449    199.6 1.618e+04 4.909e-09
 57.50065    201.3 1.576e+04 4.628e-09
 57.52064    202.8 1.534e+04 3.875e-09
 57.53411    203.9 1.466e+04 2.896e-09
 57.54411    204.5 1.477e+04 3.020e-09
 57.56061    205.0 1.379e+04 2.045e-09
 57.58060    205.2 1.265e+04 1.331e-09
 57.60058    205.1 1.155e+04 8.805e-10
 57.62057    205.0 1.066e+04 6.206e-10
 57.63163    205.1 1.010e+04 4.793e-10
 57.64162    204.7 1.011e+04 4.811e-10
 57.66054    204.9 9.868e+03 4.199e-10
 57.68053    205.5 9.826e+03 4.142e-10
 57.70051    206.4 9.823e+03 4.142e-10
 57.71915    207.5 9.831e+03 4.183e-10
 57.72914    206.3 1.001e+04 4.558e-10
 57.74048    206.7 1.012e+04 4.900e-10
 57.76047    206.5 1.040e+04 5.778e-10
 57.78045    205.4 1.129e+04 8.405e-10
 57.80044    202.1 1.386e+04 1.583e-09
 57.81666    197.6 1.579e+04 2.894e-09
 57.82661    194.4 1.634e+04 3.938e-09
 57.83532    193.0 1.711e+04 4.883e-09
 57.84421    190.6 1.836e+04 6.524e-09
 57.84920    188.6 1.929e+04 8.177e-09
 57.85530    184.0 2.178e+04 1.163e-08
 57.86530    177.8 2.514e+04 1.652e-08
 57.87529    164.7 2.865e+04 2.706e-08
 57.88528    157.4 2.867e+04 3.528e-08
 57.89528    150.8 2.744e+04 4.402e-08
 57.90527    145.6 2.621e+04 4.946e-08
 57.91408    141.5 2.552e+04 4.988e-08
 57.91908    140.9 2.499e+04 4.236e-08
 57.92525    138.1 2.477e+04 4.056e-08
 57.93525    135.5 2.461e+04 3.621e-08
 57.94524    133.0 2.434e+04 3.007e-08
 57.95523    130.1 2.384e+04 2.185e-08
 57.96284    128.0 2.322e+04 1.580e-08
 57.96784    128.2 2.238e+04 1.289e-08
 57.98026    124.0 2.093e+04 6.086e-09
 58.00030    120.5 1.813e+04 2.883e-09
 58.01169    117.3 1.490e+04 1.548e-09
 58.02169    117.6 1.269e+04 1.687e-09
 58.04027    115.4 1.193e+04 1.231e-09
 58.06026    114.2 1.171e+04 1.093e-09
 58.08024    113.7 1.160e+04 1.038e-09
 58.09922    112.7 1.184e+04 9.940e-10
 58.11930    113.8 1.110e+04 7.951e-10
 58.15039    112.9 1.103e+04 7.216e-10
 58.19036    112.9 1.117e+04 7.356e-10
 58.21420    113.1 1.130e+04 7.533e-10
 58.22410    113.2 1.083e+04 6.468e-10
 58.24013    113.8 1.067e+04 6.150e-10
 58.27020    114.8 1.139e+04 7.771e-10
 58.29434    115.5 1.111e+04 7.150e-10
 58.30424    115.4 1.055e+04 5.749e-10
 58.32007    116.1 1.057e+04 5.994e-10
 58.34006    116.8 1.073e+04 6.581e-10
 58.36004    117.4 1.092e+04 7.358e-10
 58.38003    117.8 1.110e+04 8.189e-10
 58.39176    118.0 1.125e+04 8.984e-10
 58.40175    117.6 1.095e+04 8.060e-10
 58.42000    117.6 1.116e+04 9.048e-10
 58.43999    117.5 1.135e+04 9.995e-10
 58.45997    117.3 1.157e+04 1.101e-09
 58.47928    116.9 1.188e+04 1.243e-09
 58.48928    116.4 1.186e+04 1.235e-09
 58.49994    115.5 1.228e+04 1.452e-09
 58.51993    114.0 1.336e+04 1.821e-09
 58.53991    111.5 1.620e+04 2.764e-09
 58.55990    108.7 1.863e+04 4.873e-09
 58.57680    106.0 1.993e+04 8.355e-09
 58.58582    107.2 1.766e+04 3.797e-09
 58.58890    106.7 1.649e+04 2.800e-09
 58.59987    100.5 2.044e+04 4.682e-09
 58.61481     93.6 2.409e+04 9.843e-09
 58.62476     88.5 2.503e+04 2.257e-08
 58.63046     85.1 2.414e+04 5.933e-08
 58.63545     85.9 2.588e+04 1.801e-08
 58.64474     83.4 2.545e+04 3.154e-08
 58.65473     81.8 2.439e+04 3.736e-08
 58.66473     80.5 2.413e+04 3.483e-08
 58.67422     79.3 2.370e+04 2.577e-08
 58.68426     76.8 2.214e+04 1.151e-08
 58.69980     73.4 2.004e+04 7.566e-09
 58.71979     69.3 1.807e+04 2.847e-09
 58.73977     63.4 1.422e+04 8.144e-10
 58.75976     59.3 1.045e+04 3.924e-10
 58.77183     59.2 9.556e+03 2.851e-10
 58.78182     60.1 9.962e+03 3.099e-10
 58.79973     60.3 9.507e+03 2.597e-10
 58.82981     61.0 9.384e+03 2.217e-10
 58.85955     61.3 9.036e+03 1.640e-10
 58.87953     62.5 9.081e+03 1.727e-10
 58.90985     62.5 8.961e+03 1.574e-10
 58.94982     62.1 9.008e+03 1.671e-10
 58.98979     60.8 9.506e+03 2.591e-10
 59.02976     60.0 1.031e+04 5.136e-10
 59.05458     59.6 1.072e+04 7.128e-10
 59.07456     61.1 1.029e+04 5.433e-10
 59.10970     60.1 1.046e+04 5.438e-10
 59.13958     58.8 1.053e+04 5.258e-10
 59.15190     57.8 1.051e+04 5.092e-10
 59.16189     58.8 1.031e+04 4.519e-10
 59.17946     56.0 1.082e+04 5.178e-10
 59.19944     50.1 1.274e+04 9.350e-10
 59.21943     45.9 1.385e+04 2.029e-09
 59.23942     44.6 1.430e+04 3.344e-09
 59.25940     45.2 1.427e+04 3.440e-09
 59.27939     44.1 1.432e+04 3.301e-09
 59.29937     42.4 1.397e+04 2.545e-09
 59.31851     40.0 1.289e+04 1.565e-09
 59.32851     37.2 1.201e+04 1.070e-09
 59.33693     34.9 1.045e+04 6.161e-10
 59.34693     36.4 1.089e+04 7.325e-10
 59.35933     35.0 9.837e+03 4.986e-10
 59.37932     33.6 9.551e+03 3.359e-10
 59.39930     33.4 9.345e+03 3.026e-10
 59.42455     31.9 9.125e+03 2.724e-10
 59.44464     33.6 9.364e+03 2.923e-10
 59.46945     33.0 9.178e+03 2.962e-10
 59.50942     33.6 8.990e+03 3.124e-10
 59.54939     34.6 8.975e+03 2.537e-10
 59.58936     34.0 8.925e+03 1.803e-10
 59.61968     32.9 8.948e+03 1.561e-10
 59.63967     34.6 8.606e+03 1.426e-10
 59.66930     34.2 8.529e+03 1.286e-10
 59.70928     33.8 8.704e+03 1.427e-10
 59.74925     33.5 9.253e+03 2.286e-10
 59.78922     33.5 9.785e+03 3.807e-10
 59.81461     33.0 9.902e+03 4.921e-10
 59.83460     34.7 1.001e+04 4.566e-10
 59.85907     34.5 1.030e+04 6.091e-10
 59.87896     35.3 1.017e+04 5.801e-10
 59.90904     36.2 9.973e+03 4.950e-10
 59.94911     36.1 9.826e+03 3.369e-10
 59.98908     35.6 9.394e+03 2.204e-10
 60.00974     34.8 9.053e+03 1.895e-10
 60.02973     35.7 9.159e+03 1.973e-10
 60.05831     35.6 9.062e+03 2.171e-10
 60.07830     34.5 8.927e+03 1.808e-10
 60.10899     35.7 8.712e+03 2.075e-10
 60.14896     37.6 8.580e+03 1.920e-10
 60.18479     39.3 8.389e+03 1.475e-10
 60.20477     39.7 8.542e+03 1.683e-10
 60.22891     41.1 8.356e+03 1.166e-10
 60.26888     41.6 8.163e+03 8.822e-11
 60.30885     42.8 8.042e+03 8.638e-11
 60.34882     43.9 8.088e+03 9.862e-11
 60.37982     45.5 8.210e+03 1.261e-10
 60.39980     45.9 8.282e+03 1.391e-10
 60.42876     47.4 8.544e+03 1.755e-10
 60.46874     48.6 9.068e+03 2.320e-10
 60.49862     47.9 9.491e+03 2.875e-10
 60.51850     47.3 9.867e+03 3.754e-10
 60.53849     45.7 1.090e+04 6.434e-10
 60.55848     43.6 1.205e+04 1.273e-09
 60.57465     43.2 1.287e+04 2.326e-09
 60.58464     43.2 1.286e+04 2.389e-09
 60.59845     44.2 1.318e+04 3.056e-09
 60.61843     45.3 1.314e+04 2.920e-09
 60.63842     45.5 1.307e+04 2.415e-09
 60.65840     44.2 1.311e+04 1.842e-09
 60.67217     41.5 1.276e+04 1.364e-09
 60.68216     40.0 1.257e+04 1.414e-09
 60.69838     38.6 1.190e+04 1.346e-09
 60.71836     39.0 1.167e+04 1.321e-09
 60.74844     39.9 1.162e+04 1.267e-09
 60.76988     40.6 1.192e+04 1.477e-09
 60.78928     39.9 1.194e+04 1.411e-09
 60.80791     38.6 1.151e+04 1.018e-09
 60.82848     39.8 1.156e+04 1.031e-09
 60.86845     41.1 1.169e+04 1.125e-09
 60.90842     42.0 1.202e+04 1.322e-09
 60.93830     41.6 1.239e+04 1.657e-09
 60.95472     42.6 1.249e+04 1.867e-09
 60.96481     41.6 1.240e+04 1.669e-09
 60.97827     42.6 1.280e+04 2.181e-09
 60.99816     43.4 1.321e+04 2.585e-09
 61.01815     43.3 1.379e+04 3.232e-09
 61.03813     41.1 1.586e+04 5.115e-09
 61.05223     37.1 1.809e+04 9.768e-09
 61.06223     36.9 1.804e+04 9.851e-09
 61.07811     35.9 1.838e+04 1.634e-08
 61.09809     36.2 1.854e+04 2.073e-08
 61.11808     37.9 1.789e+04 1.712e-08
 61.13806     39.4 1.710e+04 9.427e-09
 61.14975     38.0 1.638e+04 4.045e-09
 61.15974     36.4 1.558e+04 3.285e-09
 61.17252     33.3 1.307e+04 1.448e-09
 61.18251     31.4 1.212e+04 9.861e-10
 61.19802     30.4 1.105e+04 7.485e-10
 61.22810     30.4 1.066e+04 5.183e-10
 61.26817     29.7 1.018e+04 3.866e-10
 61.30814     29.6 1.014e+04 4.169e-10
 61.33488     29.0 1.007e+04 4.735e-10
 61.34478     29.4 1.017e+04 5.093e-10
 61.35791     29.2 1.021e+04 5.185e-10
 61.37789     28.7 1.042e+04 5.739e-10
 61.39788     28.2 1.046e+04 5.882e-10
 61.41786     27.8 1.012e+04 5.745e-10
 61.43230     27.6 9.955e+03 5.311e-10
 61.44229     27.6 9.871e+03 5.169e-10
 61.45784     27.2 9.927e+03 4.345e-10
 61.47782     26.3 9.860e+03 3.948e-10
 61.49781     24.7 9.802e+03 3.615e-10
 61.51779     23.1 9.799e+03 3.722e-10
 61.52982     21.4 9.977e+03 4.309e-10
 61.53935     21.6 9.897e+03 4.307e-10
 61.54732     20.4 9.977e+03 4.742e-10
 61.55776     19.8 9.899e+03 5.493e-10
 61.57775     20.0 9.883e+03 6.017e-10
 61.59774     20.6 9.845e+03 6.029e-10
 61.62781     20.7 9.800e+03 4.699e-10
 61.66788     19.4 9.479e+03 3.379e-10
 61.70506     18.6 9.217e+03 2.867e-10
 61.72504     20.2 8.775e+03 2.059e-10
 61.74782     20.8 8.833e+03 2.445e-10
 61.78780     21.7 9.138e+03 3.050e-10
 61.82777     23.1 9.476e+03 4.023e-10
 61.85765     25.3 9.848e+03 5.020e-10
 61.87754     25.7 9.870e+03 5.093e-10
 61.89752     27.0 9.747e+03 5.115e-10
 61.90988     28.4 9.713e+03 4.967e-10
 61.91449     29.1 9.705e+03 5.011e-10
 61.92211     28.1 9.763e+03 4.807e-10
 61.93749     29.0 9.779e+03 4.782e-10
 61.95748     28.5 1.050e+04 4.927e-10
 61.97747     25.5 1.244e+04 8.021e-10
 61.99741     22.2 1.386e+04 1.728e-09
 62.01739     22.3 1.417e+04 2.562e-09
 62.03742     21.8 1.469e+04 4.626e-09
 62.05741     22.7 1.531e+04 6.280e-09
 62.07235     23.4 1.596e+04 7.132e-09
 62.08229     23.6 1.639e+04 7.364e-09
 62.09229     22.8 1.693e+04 6.374e-09
 62.09942     22.6 1.691e+04 5.606e-09
 62.10196     21.7 1.619e+04 4.803e-09
 62.10482     21.7 1.636e+04 5.070e-09
 62.11227     19.8 1.569e+04 3.956e-09
 62.12226     19.6 1.550e+04 3.806e-09
 62.13730     16.7 1.466e+04 3.082e-09
 62.15734     14.6 1.337e+04 2.348e-09
 62.17732     14.4 1.393e+04 2.446e-09
 62.19244     14.6 1.410e+04 2.491e-09
 62.20243     14.0 1.569e+04 4.615e-09
 62.21729     14.4 1.609e+04 5.212e-09
 62.23728     14.1 1.701e+04 6.527e-09
 62.25727     13.0 1.837e+04 9.191e-09
 62.27693     11.3 1.980e+04 1.368e-08
 62.28687     10.3 2.010e+04 1.481e-08
 62.28985      9.7 2.110e+04 2.311e-08
 62.29485      9.2 2.134e+04 3.080e-08
 62.30214      8.6 2.090e+04 4.142e-08
 62.31213      9.5 2.096e+04 5.800e-08
 62.32212     10.0 2.112e+04 7.200e-08
 62.33212     10.3 2.142e+04 8.086e-08
 62.33861     10.1 2.124e+04 7.451e-08
 62.34361      9.8 2.135e+04 7.825e-08
 62.35210     10.8 2.101e+04 5.374e-08
 62.36209     11.1 2.108e+04 3.610e-08
 62.37209     11.0 2.085e+04 2.430e-08
 62.38208     10.4 2.052e+04 1.702e-08
 62.38742      8.5 1.926e+04 1.162e-08
 62.39746      7.7 1.932e+04 1.128e-08
 62.41715      6.5 1.821e+04 7.579e-09
 62.43714      5.9 1.748e+04 6.549e-09
 62.45712      6.6 1.731e+04 6.415e-09
 62.47499      7.4 1.765e+04 7.260e-09
 62.48498      6.9 1.746e+04 7.003e-09
 62.49710      7.7 1.771e+04 7.940e-09
 62.51708      8.9 1.790e+04 8.826e-09
 62.53707     10.1 1.828e+04 9.899e-09
 62.55705     11.3 1.864e+04 1.081e-08
 62.57250     12.5 1.886e+04 1.114e-08
 62.58250     11.8 1.755e+04 6.931e-09
 62.59702     12.6 1.776e+04 6.307e-09
 62.61701     12.8 1.794e+04 5.420e-09
 62.63700     12.5 1.806e+04 4.483e-09
 62.65172     11.8 1.789e+04 3.599e-09
 62.66172     14.2 1.912e+04 4.363e-09
 62.67002     13.6 1.884e+04 3.502e-09
 62.68001      9.4 1.446e+04 1.866e-09
 62.69695      8.6 1.339e+04 1.803e-09
 62.71694      8.2 1.279e+04 1.630e-09
 62.73692      8.3 1.231e+04 1.317e-09
 62.75691      7.8 1.172e+04 9.130e-10
 62.76753      6.1 1.130e+04 5.989e-10
 62.77753      5.9 1.125e+04 6.098e-10
 62.79688      3.6 1.154e+04 5.042e-10
 62.81687     -0.5 1.295e+04 6.036e-10
 62.83685     -3.8 1.367e+04 9.898e-10
 62.85506     -4.9 1.374e+04 1.647e-09
 62.86505     -3.6 1.351e+04 1.537e-09
 62.87682     -3.5 1.364e+04 2.228e-09
 62.89681     -2.5 1.388e+04 2.717e-09
 62.91680     -1.5 1.413e+04 2.839e-09
 62.93678     -1.2 1.412e+04 2.602e-09
 62.95257     -1.1 1.396e+04 2.413e-09
 62.96256     -0.4 1.371e+04 2.141e-09
 62.97675     -0.8 1.346e+04 1.807e-09
 62.99674     -0.6 1.336e+04 1.746e-09
 63.01653     -0.3 1.324e+04 1.689e-09
 63.03661     -2.3 1.265e+04 1.181e-09
 63.05028     -0.8 1.237e+04 1.183e-09
 63.07027      1.2 1.187e+04 8.861e-10
 63.10686      2.9 1.166e+04 8.362e-10
 63.14683      4.6 1.145e+04 7.449e-10
 63.18680      5.9 1.130e+04 6.932e-10
 63.22533      7.3 1.123e+04 6.887e-10
 63.24531      9.3 1.106e+04 5.884e-10
 63.26674     10.7 1.116e+04 6.643e-10
 63.30671     12.1 1.119e+04 7.579e-10
 63.33274     12.8 1.131e+04 8.218e-10
 63.34263     13.7 1.139e+04 8.619e-10
 63.35648     14.4 1.134e+04 8.580e-10
 63.37647     15.5 1.135e+04 8.420e-10
 63.39133     16.5 1.125e+04 7.539e-10
 63.40132     16.9 1.092e+04 5.346e-10
 63.41644     17.6 1.074e+04 4.401e-10
 63.43015     18.3 1.056e+04 3.969e-10
 63.44015     19.2 1.068e+04 4.226e-10
 63.45641     20.1 1.053e+04 3.543e-10
 63.47640     20.4 1.048e+04 3.268e-10
 63.49638     21.2 1.049e+04 3.009e-10
 63.51637     21.3 1.044e+04 2.947e-10
 63.52767     22.1 1.048e+04 3.165e-10
 63.53766     22.7 1.042e+04 3.152e-10
 63.55634     22.7 1.049e+04 3.266e-10
 63.57633     23.7 1.068e+04 3.870e-10
 63.59631     24.1 1.100e+04 4.376e-10
 63.61519     24.6 1.130e+04 5.340e-10
 63.62518     25.3 1.123e+04 5.005e-10
 63.63628     25.5 1.145e+04 5.804e-10
 63.65627     26.1 1.146e+04 7.192e-10
 63.67626     27.0 1.170e+04 8.333e-10
 63.69624     27.9 1.171e+04 9.340e-10
 63.71271     29.0 1.179e+04 9.985e-10
 63.72270     29.3 1.183e+04 1.068e-09
 63.73621     30.4 1.201e+04 1.081e-09
 63.75613     31.3 1.211e+04 1.120e-09
 63.77612     32.8 1.221e+04 9.244e-10
 63.79617     33.1 1.241e+04 9.502e-10
 63.81022     33.6 1.239e+04 1.033e-09
 63.82021     34.3 1.242e+04 1.057e-09
 63.83614     34.8 1.239e+04 1.116e-09
 63.85613     35.6 1.234e+04 1.160e-09
 63.87611     36.5 1.230e+04 1.179e-09
 63.89610     37.4 1.233e+04 1.185e-09
 63.90774     38.2 1.233e+04 1.198e-09
 63.91773     38.6 1.234e+04 1.254e-09
 63.93607     39.5 1.236e+04 1.257e-09
 63.95606     40.4 1.233e+04 1.230e-09
 63.97604     41.0 1.235e+04 1.208e-09
 63.99526     41.7 1.223e+04 1.155e-09
 64.00525     42.3 1.230e+04 1.215e-09
 64.01601     42.8 1.223e+04 1.154e-09
 64.03600     43.6 1.209e+04 1.088e-09
 64.05598     44.2 1.210e+04 1.013e-09
 64.07597     44.8 1.202e+04 9.222e-10
 64.09277     45.2 1.205e+04 8.489e-10
 64.10277     45.7 1.210e+04 8.617e-10
 64.11594     46.0 1.199e+04 7.858e-10
 64.13093     46.0 1.189e+04 7.917e-10
 64.14092     47.5 1.242e+04 9.799e-10
 64.15591     47.3 1.220e+04 8.892e-10
 64.17590     46.7 1.221e+04 9.723e-10
 64.19029     46.6 1.205e+04 9.727e-10
 64.20028     47.2 1.185e+04 9.185e-10
 64.22596     47.6 1.185e+04 9.794e-10
 64.26603     47.9 1.182e+04 9.986e-10
 64.30600     48.9 1.142e+04 8.729e-10
 64.34597     50.2 1.090e+04 6.483e-10
 64.37552     51.3 1.044e+04 4.631e-10
 64.39551     52.2 1.048e+04 4.964e-10
 64.42592     53.3 1.015e+04 3.674e-10
 64.46589     54.5 9.925e+03 2.977e-10
 64.49593     55.8 9.714e+03 2.615e-10
 64.51592     55.7 9.826e+03 2.656e-10
 64.54583     57.5 9.707e+03 2.603e-10
 64.57055     59.6 9.743e+03 2.682e-10
 64.59054     59.7 9.798e+03 2.851e-10
 64.62577     61.7 1.001e+04 3.148e-10
 64.66575     63.5 1.012e+04 3.453e-10
 64.69563     64.8 1.014e+04 3.825e-10
 64.71552     66.0 1.029e+04 4.185e-10
 64.73550     67.1 1.044e+04 4.450e-10
 64.75539     68.0 1.054e+04 4.539e-10
 64.77538     68.3 1.038e+04 3.921e-10
 64.79546     68.8 1.036e+04 3.834e-10
 64.81544     69.1 1.032e+04 3.816e-10
 64.83543     69.2 1.024e+04 3.886e-10
 64.85291     69.2 1.015e+04 4.142e-10
 64.86290     68.8 1.010e+04 4.131e-10
 64.87053     69.5 1.012e+04 4.486e-10
 64.88053     68.7 1.036e+04 4.670e-10
 64.89539     67.3 1.156e+04 6.182e-10
 64.91537     58.2 1.778e+04 2.401e-09
 64.93536     51.2 2.012e+04 1.236e-08
 64.95030     50.4 2.012e+04 2.697e-08
 64.95532     51.6 1.977e+04 4.412e-08
 64.96032     51.9 1.979e+04 4.347e-08
 64.97024     53.9 2.013e+04 5.775e-08
 64.98023     54.8 2.068e+04 5.831e-08
 64.99022     57.3 2.073e+04 4.318e-08
 64.99908     57.3 2.165e+04 2.664e-08
 65.00408     57.2 2.126e+04 2.590e-08
 65.01525     55.6 2.160e+04 8.212e-09
 65.03529     47.5 1.802e+04 2.066e-09
 65.04794     40.6 1.155e+04 9.616e-10
 65.05793     42.0 1.180e+04 8.883e-10
 65.07526     41.9 1.079e+04 7.012e-10
 65.09524     42.9 1.053e+04 6.076e-10
 65.11523     43.8 1.027e+04 5.060e-10
 65.13522     44.8 1.000e+04 4.220e-10
 65.14545     45.4 9.747e+03 3.556e-10
 65.15545     45.8 9.738e+03 3.517e-10
 65.18528     47.4 9.611e+03 3.046e-10
 65.22535     48.7 9.280e+03 2.217e-10
 65.26532     49.9 9.401e+03 2.731e-10
 65.30529     51.1 9.589e+03 3.069e-10
 65.33068     51.9 9.796e+03 3.599e-10
 65.35067     52.7 9.919e+03 3.698e-10
 65.37514     52.5 9.883e+03 3.763e-10
 65.39503     52.1 1.010e+04 4.515e-10
 65.41502     52.1 1.032e+04 5.514e-10
 65.42800     52.3 1.051e+04 6.555e-10
 65.43800     52.3 1.061e+04 7.068e-10
 65.45499     52.4 1.089e+04 8.549e-10
 65.47497     52.7 1.109e+04 9.472e-10
 65.49496     52.7 1.127e+04 1.006e-09
 65.51495     52.5 1.126e+04 1.008e-09
 65.52552     52.8 1.109e+04 9.373e-10
 65.53551     52.7 1.113e+04 9.548e-10
 65.55492     52.4 1.108e+04 8.947e-10
 65.57490     52.5 1.087e+04 7.895e-10
 65.59489     52.0 1.084e+04 7.297e-10
 65.61014     51.6 1.072e+04 6.876e-10
 65.61830     52.1 1.034e+04 5.483e-10
 65.62303     51.8 1.035e+04 5.549e-10
 65.63486     51.5 1.037e+04 5.667e-10
 65.65485     51.0 1.047e+04 6.133e-10
 65.67483     50.9 1.056e+04 6.666e-10
 65.70066     50.4 1.096e+04 8.035e-10
 65.72075     49.9 1.100e+04 7.953e-10
 65.74498     49.6 1.119e+04 8.707e-10
 65.78495     48.8 1.134e+04 9.112e-10
 65.80817     49.2 1.133e+04 9.327e-10
 65.81806     48.8 1.143e+04 9.768e-10
 65.83472     47.9 1.187e+04 1.158e-09
 65.85470     46.0 1.289e+04 1.623e-09
 65.87469     41.4 1.547e+04 3.356e-09
 65.89468     35.3 1.989e+04 9.703e-09
 65.90554     33.7 2.141e+04 1.529e-08
 65.91049     33.4 2.149e+04 1.609e-08
 65.91956     32.1 2.291e+04 2.031e-08
 65.92955     29.7 2.300e+04 3.192e-08
 65.93955     29.0 2.295e+04 3.719e-08
 65.94925     28.1 2.204e+04 3.631e-08
 65.95425     28.1 2.177e+04 3.397e-08
 65.95953     27.0 2.131e+04 2.841e-08
 65.96952     25.7 2.061e+04 2.295e-08
 65.97952     24.1 2.001e+04 1.637e-08
 65.98489     19.4 1.834e+04 7.512e-09
 65.99343     22.2 1.921e+04 1.457e-08
 66.00310     21.8 1.899e+04 1.200e-08
 66.01459     17.0 1.746e+04 5.341e-09
 66.03458     10.7 1.548e+04 2.261e-09
 66.05456      3.8 1.237e+04 1.357e-09
 66.07455      0.7 1.151e+04 1.218e-09
 66.09062     -0.7 1.146e+04 1.216e-09
 66.10062     -0.4 1.140e+04 1.154e-09
 66.11452     -2.0 1.097e+04 1.046e-09
 66.13450     -3.1 1.036e+04 8.489e-10
 66.15449     -3.9 9.865e+03 6.382e-10
 66.17448     -4.6 9.447e+03 4.512e-10
 66.18814     -5.6 9.139e+03 3.366e-10
 66.19813     -5.2 9.201e+03 3.491e-10
 66.22454     -6.4 9.093e+03 2.873e-10
 66.26461     -9.8 9.211e+03 2.561e-10
 66.28585    -13.2 9.641e+03 3.057e-10
 66.29575    -13.4 9.916e+03 3.285e-10
 66.31438    -14.6 1.014e+04 4.155e-10
 66.33436    -16.4 1.014e+04 6.070e-10
 66.34974    -16.7 1.013e+04 6.575e-10
 66.35973    -15.9 9.800e+03 5.574e-10
 66.37318    -16.2 9.775e+03 5.693e-10
 66.38317    -16.4 1.010e+04 7.185e-10
 66.39432    -17.0 1.012e+04 6.214e-10
 66.41431    -18.7 9.988e+03 4.804e-10
 66.43429    -20.6 9.881e+03 4.199e-10
 66.45428    -21.8 9.855e+03 4.115e-10
 66.47069    -22.6 9.904e+03 4.232e-10
 66.48068    -23.9 9.927e+03 4.746e-10
 66.49425    -24.5 9.993e+03 5.164e-10
 66.51423    -25.0 1.009e+04 5.559e-10
 66.53422    -25.4 1.019e+04 5.858e-10
 66.55421    -25.8 1.029e+04 6.101e-10
 66.56821    -26.1 1.034e+04 6.251e-10
 66.57820    -26.9 1.046e+04 6.603e-10
 66.59418    -27.1 1.049e+04 6.718e-10
 66.61416    -27.3 1.056e+04 6.955e-10
 66.63415    -27.4 1.069e+04 7.217e-10
 66.65413    -27.6 1.088e+04 7.133e-10
 66.66572    -27.8 1.084e+04 6.913e-10
 66.67581    -29.6 1.077e+04 6.702e-10
 66.70429    -29.2 1.076e+04 6.691e-10
 66.72473    -29.0 1.071e+04 6.761e-10
 66.74472    -26.2 1.111e+04 7.920e-10
 66.78424    -25.9 1.117e+04 8.477e-10
 66.82421    -25.7 1.138e+04 9.539e-10
 66.85095    -25.2 1.158e+04 1.093e-09
 66.87094    -26.6 1.130e+04 8.958e-10
 66.90415    -26.1 1.131e+04 8.157e-10
 66.94412    -25.7 1.112e+04 6.548e-10
 66.98409    -25.5 1.065e+04 4.854e-10
 67.02407    -25.5 1.021e+04 3.915e-10
 67.04598    -25.7 9.997e+03 3.766e-10
 67.06597    -27.7 9.930e+03 3.820e-10
 67.10401    -27.7 1.028e+04 5.123e-10
 67.14398    -27.3 1.073e+04 7.244e-10
 67.18395    -26.9 1.107e+04 9.208e-10
 67.22103    -26.8 1.125e+04 9.975e-10
 67.24101    -28.2 1.101e+04 9.050e-10
 67.26390    -28.1 1.077e+04 7.778e-10
 67.30387    -28.1 1.038e+04 6.273e-10
 67.34384    -28.3 9.941e+03 5.159e-10
 67.38381    -28.5 9.596e+03 4.519e-10
 67.41606    -28.6 9.498e+03 4.311e-10
 67.43604    -29.2 9.512e+03 4.371e-10
 67.45434    -29.2 9.361e+03 4.034e-10
 67.47433    -27.0 9.688e+03 4.870e-10
 67.50372    -27.2 9.562e+03 4.604e-10
 67.54370    -28.0 9.392e+03 4.304e-10
 67.58367    -29.1 9.199e+03 4.056e-10
 67.61109    -30.6 9.084e+03 3.824e-10
 67.63107    -31.1 9.232e+03 4.302e-10
 67.66361    -32.8 9.171e+03 3.726e-10
 67.70358    -35.4 9.333e+03 3.449e-10
 67.74355    -40.2 9.541e+03 3.437e-10
 67.78353    -45.6 9.957e+03 4.336e-10
 67.80602    -49.1 1.021e+04 5.893e-10
 67.82601    -49.5 1.044e+04 6.179e-10
 67.85338    -51.8 1.060e+04 7.305e-10
 67.87327    -53.3 1.066e+04 7.598e-10
 67.89325    -55.2 1.062e+04 7.650e-10
 67.90344    -56.4 1.039e+04 7.003e-10
 67.91343    -56.2 1.044e+04 7.249e-10
 67.93322    -57.2 1.022e+04 6.446e-10
 67.95321    -57.9 9.996e+03 5.715e-10
 67.97319    -58.4 9.753e+03 4.913e-10
 67.99096    -58.9 9.590e+03 4.256e-10
 68.00095    -58.7 9.634e+03 4.446e-10
 68.02326    -59.2 9.512e+03 3.926e-10
 68.06333    -60.0 9.467e+03 3.705e-10
 68.08857    -61.0 9.483e+03 3.749e-10
 68.09847    -61.2 9.588e+03 4.068e-10
 68.11309    -62.0 9.709e+03 4.388e-10
 68.13308    -63.2 9.865e+03 4.928e-10
 68.15307    -64.5 1.016e+04 5.863e-10
 68.17305    -66.2 1.072e+04 7.601e-10
 68.18599    -68.1 1.159e+04 1.079e-09
 68.19598    -68.3 1.180e+04 1.190e-09
 68.20374    -70.3 1.278e+04 1.738e-09
 68.21374    -71.2 1.326e+04 2.219e-09
 68.23301    -72.9 1.401e+04 2.899e-09
 68.25300    -74.2 1.460e+04 3.531e-09
 68.27298    -75.2 1.504e+04 3.956e-09
 68.28351    -76.1 1.520e+04 4.081e-09
 68.29350    -76.2 1.513e+04 4.049e-09
 68.31295    -77.0 1.524e+04 3.895e-09
 68.33294    -77.7 1.521e+04 3.718e-09
 68.35292    -78.3 1.521e+04 3.599e-09
 68.37103    -78.9 1.525e+04 3.588e-09
 68.38102    -78.8 1.523e+04 3.611e-09
 68.39290    -79.8 1.578e+04 3.811e-09
 68.41288    -81.1 1.659e+04 4.829e-09
 68.43287    -82.3 1.725e+04 6.569e-09
 68.45285    -83.2 1.767e+04 8.523e-09
 68.46854    -84.0 1.799e+04 1.005e-08
 68.47854    -84.4 1.807e+04 1.051e-08
 68.49282    -85.0 1.804e+04 1.152e-08
 68.51281    -85.6 1.768e+04 1.079e-08
 68.53280    -86.3 1.728e+04 8.198e-09
 68.55278    -87.4 1.686e+04 5.409e-09
 68.56606    -88.8 1.660e+04 3.750e-09
 68.57183    -88.9 1.635e+04 3.211e-09
 68.57849    -85.6 1.795e+04 6.411e-09
 68.58766    -87.9 1.711e+04 3.581e-09
 68.59765    -89.7 1.654e+04 2.804e-09
 68.60765    -92.9 1.526e+04 1.883e-09
 68.61472    -94.9 1.461e+04 1.572e-09
 68.61972    -95.5 1.432e+04 1.431e-09
 68.63268    -98.2 1.376e+04 1.213e-09
 68.65271   -101.0 1.276e+04 9.489e-10
 68.66357   -102.2 1.214e+04 7.745e-10
 68.67357   -103.1 1.179e+04 6.137e-10
 68.69268   -103.4 1.150e+04 5.560e-10
 68.71267   -103.6 1.133e+04 5.263e-10
 68.73265   -103.5 1.124e+04 5.116e-10
 68.75110   -103.5 1.122e+04 5.094e-10
 68.76109   -104.0 1.106e+04 4.852e-10
 68.77263   -104.2 1.146e+04 5.325e-10
 68.79261   -105.4 1.235e+04 6.749e-10
 68.81260   -106.8 1.357e+04 1.066e-09
 68.83258   -108.0 1.466e+04 1.851e-09
 68.84861   -108.7 1.529e+04 2.980e-09
 68.85860   -108.3 1.498e+04 2.497e-09
 68.87255   -108.7 1.532e+04 3.525e-09
 68.89254   -108.9 1.541e+04 4.313e-09
 68.91253   -108.9 1.542e+04 4.589e-09
 68.93251   -109.0 1.499e+04 4.400e-09
 68.94335   -109.4 1.446e+04 3.365e-09
 68.94697   -110.7 1.441e+04 3.230e-09
 68.95612   -110.4 1.451e+04 3.380e-09
 68.97248   -111.0 1.386e+04 2.568e-09
 68.99247   -111.7 1.318e+04 1.941e-09
 69.01245   -112.2 1.256e+04 1.533e-09
 69.03244   -112.4 1.211e+04 1.285e-09
 69.04364   -112.4 1.180e+04 1.128e-09
 69.05363   -112.0 1.206e+04 1.276e-09
 69.07241   -111.9 1.179e+04 1.140e-09
 69.09240   -111.7 1.154e+04 1.018e-09
 69.11238   -111.3 1.129e+04 9.038e-10
 69.13116   -110.9 1.105e+04 7.985e-10
 69.14116   -110.7 1.118e+04 8.539e-10
 69.15235   -110.2 1.093e+04 7.366e-10
 69.17234   -109.6 1.069e+04 6.283e-10
 69.19233   -108.8 1.046e+04 5.276e-10
 69.22240   -107.8 1.022e+04 4.325e-10
 69.26247   -106.4 9.931e+03 3.435e-10
 69.30244   -104.3 9.513e+03 2.488e-10
 69.32639   -102.6 9.287e+03 1.953e-10
 69.34637   -102.2 9.189e+03 1.725e-10
 69.38239   -100.6 9.057e+03 1.450e-10
 69.42236    -99.1 8.989e+03 1.306e-10
 69.46233    -97.7 8.968e+03 1.255e-10
 69.50143    -96.6 8.978e+03 1.310e-10
 69.52142    -96.1 8.982e+03 1.319e-10
 69.54227    -95.3 9.252e+03 1.687e-10
 69.58224    -94.8 9.633e+03 2.431e-10
 69.62222    -94.4 1.001e+04 3.529e-10
 69.66219    -94.3 1.031e+04 4.650e-10
 69.68315    -94.3 1.046e+04 5.196e-10
 69.69744    -93.5 9.943e+03 3.226e-10
 69.71645    -92.6 9.935e+03 3.248e-10
 69.74213    -92.7 1.010e+04 3.701e-10
 69.78210    -93.2 1.017e+04 3.894e-10
 69.82207    -93.8 1.019e+04 3.969e-10
 69.86204    -94.4 1.030e+04 4.320e-10
 69.89149    -94.8 1.062e+04 5.169e-10
 69.91148    -93.9 1.063e+04 5.164e-10
 69.94199    -94.2 1.104e+04 6.320e-10
 69.97187    -94.4 1.118e+04 6.618e-10
 69.98881    -94.7 1.115e+04 6.507e-10
 69.99881    -94.6 1.102e+04 6.042e-10
 70.01174    -94.8 1.099e+04 6.028e-10
 70.03173    -94.8 1.092e+04 5.416e-10
 70.04776    -94.5 1.080e+04 4.430e-10
 70.05775    -94.4 1.100e+04 5.597e-10
 70.07170    -94.3 1.084e+04 4.150e-10
 70.08643    -94.5 1.069e+04 3.184e-10
 70.10651    -93.7 1.068e+04 3.227e-10
 70.14185    -93.3 1.039e+04 2.285e-10
 70.18182    -92.1 1.009e+04 1.746e-10
 70.22179    -90.6 9.986e+03 1.615e-10
 70.26157    -89.1 9.981e+03 1.608e-10
 70.30154    -87.3 1.035e+04 2.278e-10
 70.34170    -86.1 1.064e+04 2.921e-10
 70.38167    -85.0 1.089e+04 3.631e-10
 70.41156    -84.5 1.098e+04 4.217e-10
 70.42255    -84.7 1.096e+04 4.521e-10
 70.43255    -84.9 1.097e+04 4.788e-10
 70.45143    -84.9 1.098e+04 4.923e-10
 70.46640    -84.9 1.100e+04 4.929e-10
 70.47639    -84.7 1.110e+04 5.231e-10
 70.49140    -84.8 1.112e+04 5.223e-10
 70.51139    -85.3 1.132e+04 5.425e-10
 70.53137    -86.1 1.158e+04 6.163e-10
 70.55136    -86.9 1.184e+04 7.197e-10
 70.56391    -87.6 1.204e+04 8.185e-10
 70.57390    -88.0 1.246e+04 1.044e-09
 70.59133    -88.7 1.251e+04 1.106e-09
 70.61132    -89.4 1.248e+04 1.113e-09
 70.63130    -90.0 1.221e+04 1.019e-09
 70.65129    -90.7 1.184e+04 8.315e-10
 70.66143    -91.8 1.154e+04 6.885e-10
 70.67142    -91.9 1.178e+04 8.147e-10
 70.69126    -93.5 1.170e+04 7.560e-10
 70.71124    -95.2 1.171e+04 7.560e-10
 70.73123    -96.9 1.192e+04 8.851e-10
 70.74895    -98.2 1.213e+04 1.127e-09
 70.75894    -98.3 1.227e+04 1.278e-09
 70.77120    -99.3 1.233e+04 1.433e-09
 70.78736   -100.3 1.233e+04 1.466e-09
 70.79735   -100.9 1.279e+04 1.892e-09
 70.81117   -101.7 1.260e+04 1.810e-09
 70.83116   -102.5 1.206e+04 1.370e-09
 70.84646   -103.4 1.142e+04 9.116e-10
 70.85646   -103.8 1.134e+04 8.863e-10
 70.87113   -104.7 1.070e+04 5.976e-10
 70.89112   -105.4 1.024e+04 4.218e-10
 70.91110   -105.7 9.957e+03 3.397e-10
 70.94118   -105.4 9.787e+03 2.940e-10
 70.98125   -105.0 9.409e+03 2.242e-10
 71.02122   -103.9 9.046e+03 1.731e-10
 71.04169   -102.6 8.937e+03 1.531e-10
 71.06167   -102.6 9.018e+03 1.808e-10
 71.10116   -101.3 9.003e+03 1.786e-10
 71.14113   -100.2 9.097e+03 1.895e-10
 71.16235    -99.2 9.310e+03 2.322e-10
 71.18234    -99.7 9.445e+03 2.760e-10
 71.21673    -98.6 9.633e+03 3.314e-10
 71.23672    -98.2 9.708e+03 3.563e-10
 71.26105    -97.1 9.874e+03 3.892e-10
 71.30102    -96.0 1.005e+04 4.120e-10
 71.34099    -95.4 1.021e+04 4.301e-10
 71.37087    -95.2 1.030e+04 4.503e-10
 71.39076    -95.2 1.031e+04 4.506e-10
 71.41075    -95.1 1.032e+04 4.492e-10
 71.42156    -95.5 1.047e+04 4.458e-10
 71.43155    -95.0 1.050e+04 4.568e-10
 71.45072    -96.5 1.104e+04 4.962e-10
 71.47070    -98.6 1.143e+04 6.409e-10
 71.49069   -100.5 1.174e+04 9.154e-10
 71.50908   -102.2 1.215e+04 1.302e-09
 71.51908   -101.9 1.309e+04 1.761e-09
 71.52696   -104.2 1.394e+04 2.302e-09
 71.53696   -105.0 1.418e+04 2.250e-09
 71.55065   -108.3 1.492e+04 2.561e-09
 71.57063   -111.5 1.528e+04 2.793e-09
 71.59062   -114.0 1.527e+04 2.910e-09
 71.60660   -115.6 1.499e+04 2.908e-09
 71.61654   -118.5 1.630e+04 4.542e-09
 71.63054   -120.2 1.628e+04 5.270e-09
 71.65058   -122.0 1.624e+04 6.210e-09
 71.67056   -124.7 1.715e+04 7.831e-09
 71.69055   -127.5 1.851e+04 1.060e-08
 71.70411   -130.3 1.976e+04 1.417e-08
 71.71411   -132.6 1.952e+04 1.330e-08
 71.73052   -135.7 2.007e+04 1.488e-08
 71.75050   -139.3 2.015e+04 1.508e-08
 71.77049   -142.6 1.952e+04 1.245e-08
 71.79048   -146.2 1.801e+04 7.868e-09
 71.80163   -149.7 1.598e+04 4.690e-09
 71.81162   -151.4 1.565e+04 4.711e-09
 71.83045   -153.6 1.429e+04 3.073e-09
 71.85043   -155.2 1.346e+04 2.388e-09
 71.87042   -156.4 1.321e+04 2.211e-09
 71.88915   -157.2 1.316e+04 2.184e-09
 71.89914   -158.1 1.289e+04 1.961e-09
 71.90176   -159.0 1.289e+04 2.001e-09
 71.91175   -159.5 1.281e+04 1.993e-09
 71.93038   -160.6 1.290e+04 2.116e-09
 71.95036   -161.8 1.292e+04 2.155e-09
 71.97035   -162.9 1.278e+04 2.118e-09
 71.98666   -163.9 1.230e+04 1.809e-09
 71.99666   -164.0 1.204e+04 1.678e-09
 72.01032   -164.8 1.161e+04 1.391e-09
 72.03030   -165.4 1.114e+04 1.103e-09
 72.05029   -165.9 1.071e+04 8.770e-10
 72.07028   -166.3 1.037e+04 7.110e-10
 72.08418   -166.6 1.011e+04 5.898e-10
 72.09417   -166.7 1.028e+04 6.220e-10
 72.11025   -167.0 1.007e+04 5.344e-10
 72.13023   -167.2 9.910e+03 4.738e-10
 72.15022   -167.3 9.807e+03 4.353e-10
 72.17021   -167.3 9.775e+03 4.187e-10
 72.18170   -167.4 9.774e+03 4.160e-10
 72.19169   -167.8 1.000e+04 4.775e-10
 72.21018   -168.1 1.004e+04 4.829e-10
 72.23016   -168.5 1.017e+04 5.148e-10
 72.25015   -168.8 1.030e+04 5.587e-10
 72.26657   -169.2 1.043e+04 5.996e-10
 72.27564   -169.8 1.056e+04 6.552e-10
 72.27921   -170.1 1.076e+04 7.209e-10
 72.29012   -170.5 1.082e+04 7.279e-10
 72.31011   -170.9 1.083e+04 7.256e-10
 72.33009   -171.4 1.076e+04 6.752e-10
 72.35008   -172.0 1.063e+04 6.187e-10
 72.36673   -172.6 1.044e+04 5.631e-10
 72.37673   -172.9 1.033e+04 5.477e-10
 72.39005   -173.3 1.015e+04 5.126e-10
 72.41003   -173.4 1.005e+04 4.975e-10
 72.43002   -173.4 1.004e+04 4.932e-10
 72.45001   -173.2 1.003e+04 4.929e-10
 72.46425   -173.1 1.007e+04 4.984e-10
 72.47424   -173.3 1.006e+04 5.113e-10
 72.48998   -173.7 1.036e+04 5.350e-10
 72.50996   -179.8 1.218e+04 6.022e-10
 72.52995   -192.2 1.964e+04 1.401e-09
 72.54489   -199.4 2.357e+04 1.144e-08
 72.55483   -200.8 2.365e+04 5.202e-08
 72.56166   -202.0 2.360e+04 1.614e-07
 72.56666   -204.0 2.381e+04 2.211e-07
 72.57482   -206.9 2.351e+04 3.531e-07
 72.58481   -211.3 2.340e+04 3.843e-07
 72.59480   -215.5 2.311e+04 3.460e-07
 72.60480   -218.9 2.307e+04 1.798e-07
 72.61042   -222.1 2.290e+04 5.973e-08
 72.61542   -223.1 2.293e+04 3.804e-08
 72.62478   -228.1 2.106e+04 9.456e-09
 72.63478   -233.7 1.704e+04 3.348e-09
 72.64127   -237.1 1.445e+04 2.229e-09
 72.64626   -237.0 1.416e+04 2.282e-09
 72.65418   -237.6 1.359e+04 2.073e-09
 72.65923   -237.6 1.355e+04 1.811e-09
 72.66985   -238.6 1.279e+04 1.335e-09
 72.68984   -240.0 1.144e+04 7.826e-10
 72.70982   -241.1 1.019e+04 5.052e-10
 72.72981   -241.6 9.668e+03 4.134e-10
 72.74680   -241.7 9.540e+03 3.732e-10
 72.75679   -241.7 9.543e+03 3.943e-10
 72.76978   -241.3 9.451e+03 3.609e-10
 72.78976   -240.5 9.415e+03 3.489e-10
 72.81984   -239.7 9.494e+03 3.633e-10
 72.85991   -238.7 9.546e+03 3.714e-10
 72.89988   -237.8 9.640e+03 3.927e-10
 72.93203   -236.8 9.724e+03 4.214e-10
 72.95192   -237.6 9.774e+03 4.927e-10
 72.96964   -237.1 9.749e+03 5.009e-10
 72.98962   -236.6 9.705e+03 5.033e-10
 73.00617   -236.0 9.658e+03 5.053e-10
 73.01616   -235.8 9.681e+03 5.191e-10
 73.02935   -235.1 9.668e+03 5.224e-10
 73.03934   -235.2 9.671e+03 5.192e-10
 73.04958   -234.5 9.695e+03 5.176e-10
 73.06956   -233.9 9.734e+03 5.166e-10
 73.08955   -233.3 9.772e+03 5.122e-10
 73.10954   -232.7 9.793e+03 5.063e-10
 73.12687   -232.2 9.808e+03 4.989e-10
 73.14695   -232.8 9.534e+03 4.061e-10
 73.17968   -231.5 9.513e+03 3.980e-10
 73.21965   -230.2 9.500e+03 3.939e-10
 73.25962   -228.9 9.468e+03 3.852e-10
 73.29960   -227.8 9.374e+03 3.615e-10
 73.32209   -226.8 9.216e+03 3.235e-10
 73.34208   -226.8 9.047e+03 2.972e-10
 73.37117   -225.5 8.908e+03 2.645e-10
 73.39116   -225.2 9.032e+03 2.798e-10
 73.41951   -223.8 8.845e+03 2.377e-10
 73.45948   -222.3 8.694e+03 2.051e-10
 73.49714   -220.7 8.613e+03 1.837e-10
 73.51712   -220.5 8.563e+03 1.824e-10
 73.53943   -219.0 8.558e+03 1.724e-10
 73.57940   -217.5 8.576e+03 1.681e-10
 73.61937   -216.0 8.591e+03 1.670e-10
 73.65934   -214.7 8.616e+03 1.666e-10
 73.69217   -213.4 8.644e+03 1.655e-10
 73.71215   -213.1 8.587e+03 1.562e-10
 73.73928   -211.8 8.595e+03 1.481e-10
 73.77925   -210.3 8.577e+03 1.373e-10
 73.81923   -208.8 8.543e+03 1.248e-10
 73.85920   -207.3 8.502e+03 1.122e-10
 73.88720   -205.7 8.466e+03 1.005e-10
 73.90718   -205.2 8.462e+03 9.901e-11
 73.93914   -203.6 8.440e+03 8.998e-11
 73.97911   -202.0 8.420e+03 8.127e-11
 74.01908   -200.4 8.408e+03 7.334e-11
 74.05906   -198.8 8.404e+03 6.649e-11
 74.08223   -197.2 8.412e+03 6.116e-11
 74.10221   -196.8 8.452e+03 6.401e-11
 74.12077   -195.3 8.482e+03 6.158e-11
 74.14075   -195.0 8.523e+03 6.768e-11
 74.17897   -193.4 8.534e+03 6.716e-11
 74.21894   -192.0 8.611e+03 6.704e-11
 74.25727   -190.7 8.725e+03 7.099e-11
 74.27726   -190.6 8.874e+03 9.089e-11
 74.29888   -189.5 8.969e+03 1.050e-10
 74.33886   -188.4 9.062e+03 1.224e-10
 74.37883   -187.3 9.158e+03 1.419e-10
 74.41880   -186.2 9.256e+03 1.615e-10
 74.45230   -185.0 9.343e+03 1.781e-10
 74.47229   -185.3 9.689e+03 2.607e-10
 74.49874   -184.2 9.725e+03 2.693e-10
 74.53871   -183.0 9.730e+03 2.706e-10
 74.57869   -181.8 9.719e+03 2.568e-10
 74.61866   -180.5 9.683e+03 2.301e-10
 74.64733   -179.3 9.665e+03 2.035e-10
 74.66732   -179.6 9.817e+03 2.301e-10
 74.69860   -178.4 9.760e+03 1.985e-10
 74.73857   -177.2 9.725e+03 1.725e-10
 74.77854   -175.9 9.706e+03 1.513e-10
 74.81851   -174.6 9.697e+03 1.344e-10
 74.84236   -173.3 9.697e+03 1.216e-10
 74.85424   -173.8 9.817e+03 1.375e-10
 74.87036   -173.5 9.884e+03 1.445e-10
 74.89846   -172.1 9.892e+03 1.391e-10
 74.93843   -170.7 9.904e+03 1.375e-10
 74.97840   -169.3 9.917e+03 1.371e-10
 75.01741   -167.8 9.972e+03 1.364e-10
 75.03739   -168.2 1.009e+04 1.546e-10
 75.05834   -166.7 1.013e+04 1.425e-10
 75.09831   -165.2 1.016e+04 1.355e-10
 75.13829   -163.7 1.018e+04 1.341e-10
 75.17826   -162.2 1.024e+04 1.339e-10
 75.21244   -160.9 1.042e+04 1.401e-10
 75.23242   -161.2 1.050e+04 1.370e-10
 75.25820   -160.0 1.059e+04 1.616e-10
 75.29817   -158.8 1.067e+04 1.963e-10
 75.33814   -157.6 1.074e+04 2.393e-10
 75.37812   -156.5 1.083e+04 2.882e-10
 75.40747   -155.7 1.096e+04 3.473e-10
 75.42745   -156.6 1.136e+04 5.100e-10
 75.45806   -156.6 1.185e+04 7.183e-10
 75.49803   -157.0 1.252e+04 1.082e-09
 75.53800   -157.9 1.325e+04 1.679e-09
 75.56788   -158.7 1.373e+04 2.404e-09
 75.58777   -159.0 1.402e+04 2.861e-09
 75.59978   -159.3 1.416e+04 3.108e-09
 75.60431   -159.0 1.405e+04 2.905e-09
 75.62238   -160.1 1.316e+04 1.598e-09
 75.65792   -160.6 1.243e+04 9.309e-10
 75.69789   -161.0 1.147e+04 4.789e-10
 75.73786   -161.2 1.063e+04 2.454e-10
 75.77754   -161.4 1.029e+04 1.455e-10
 75.79753   -161.5 9.850e+03 6.448e-11
 75.81780   -160.3 9.855e+03 5.533e-11
 75.85777   -158.7 9.893e+03 5.385e-11
 75.89775   -157.3 9.912e+03 5.424e-11
 75.93772   -156.1 9.982e+03 5.928e-11
 75.97257   -155.1 1.007e+04 8.211e-11
 75.99256   -154.8 1.004e+04 5.824e-11
 76.01766   -154.0 1.018e+04 9.619e-11
 76.05763   -153.1 1.032e+04 1.517e-10
 76.09760   -152.4 1.050e+04 2.146e-10
 76.13757   -151.8 1.062e+04 2.639e-10
 76.16760   -151.4 1.065e+04 2.821e-10
 76.18759   -151.0 1.056e+04 2.439e-10
 76.21752   -150.6 1.056e+04 2.487e-10
 76.25749   -150.0 1.041e+04 2.381e-10
 76.29746   -148.9 1.020e+04 1.993e-10
 76.32958   -147.7 1.004e+04 1.602e-10
 76.34957   -146.9 1.011e+04 1.592e-10
 76.36263   -145.5 9.989e+03 1.327e-10
 76.38262   -145.3 9.924e+03 1.225e-10
 76.41738   -143.8 9.869e+03 1.036e-10
 76.45735   -142.3 9.852e+03 9.340e-11
 76.49732   -140.8 9.871e+03 9.066e-11
 76.53729   -139.3 9.876e+03 9.098e-11
 76.55766   -138.4 9.960e+03 9.345e-11
 76.57765   -138.1 9.960e+03 9.499e-11
 76.61723   -137.6 1.040e+04 1.454e-10
 76.65720   -137.1 1.086e+04 2.899e-10
 76.69718   -136.5 1.128e+04 5.233e-10
 76.73271   -136.2 1.164e+04 7.610e-10
 76.75269   -135.7 1.136e+04 6.202e-10
 76.77712   -135.5 1.151e+04 7.296e-10
 76.81709   -135.4 1.152e+04 7.548e-10
 76.85706   -135.2 1.143e+04 7.239e-10
 76.89703   -134.6 1.121e+04 6.038e-10
 76.92774   -133.9 1.103e+04 4.973e-10
 76.94772   -133.1 1.088e+04 4.266e-10
 76.97698   -132.2 1.084e+04 3.988e-10
 77.01695   -131.4 1.082e+04 3.950e-10
 77.05692   -130.5 1.081e+04 4.018e-10
 77.07918   -129.3 1.083e+04 4.192e-10
 77.09916   -129.0 1.103e+04 5.162e-10
 77.12277   -127.4 1.108e+04 5.191e-10
 77.13266   -126.9 1.116e+04 5.242e-10
 77.14666   -126.4 1.116e+04 5.230e-10
 77.17674   -125.1 1.125e+04 5.340e-10
 77.21681   -123.8 1.128e+04 4.827e-10
 77.25678   -122.5 1.118e+04 3.844e-10
 77.29675   -121.2 1.102e+04 2.920e-10
 77.31780   -119.8 1.090e+04 2.337e-10
 77.33778   -119.1 1.118e+04 3.243e-10
 77.37669   -117.6 1.118e+04 3.069e-10
 77.41666   -116.1 1.125e+04 3.091e-10
 77.45664   -114.9 1.159e+04 3.488e-10
 77.48652   -114.2 1.178e+04 4.334e-10
 77.50264   -113.9 1.192e+04 5.158e-10
 77.51263   -113.4 1.201e+04 5.525e-10
 77.52639   -113.0 1.209e+04 6.340e-10
 77.54638   -112.9 1.220e+04 7.395e-10
 77.56636   -113.2 1.261e+04 9.403e-10
 77.58635   -114.5 1.362e+04 1.377e-09
 77.60015   -116.6 1.521e+04 2.387e-09
 77.61015   -119.7 1.724e+04 4.936e-09
 77.62632   -120.8 1.856e+04 1.074e-08
 77.64630   -121.2 1.936e+04 1.822e-08
 77.66125   -121.9 2.015e+04 2.875e-08
 77.67119   -122.3 2.018e+04 3.472e-08
 77.68118   -122.3 2.014e+04 3.882e-08
 77.69117   -122.0 2.012e+04 3.943e-08
 77.69757   -121.8 1.988e+04 3.339e-08
 77.70257   -122.3 1.966e+04 2.835e-08
 77.71116   -122.6 1.917e+04 2.111e-08
 77.72620   -123.3 1.844e+04 1.438e-08
 77.74623   -123.9 1.765e+04 8.647e-09
 77.76622   -124.8 1.729e+04 5.832e-09
 77.78519   -126.6 1.650e+04 3.755e-09
 77.79518   -129.2 1.523e+04 1.337e-09
 77.80619   -130.4 1.451e+04 1.199e-09
 77.81859   -131.0 1.425e+04 1.186e-09
 77.82858   -131.9 1.517e+04 2.525e-09
 77.84616   -132.6 1.521e+04 2.947e-09
 77.86615   -133.6 1.580e+04 3.597e-09
 77.88271   -134.8 1.644e+04 4.631e-09
 77.89270   -135.4 1.495e+04 2.782e-09
 77.90612   -136.4 1.622e+04 4.174e-09
 77.92611   -137.8 1.760e+04 6.762e-09
 77.94609   -139.2 1.872e+04 1.135e-08
 77.96608   -140.3 1.950e+04 1.815e-08
 77.98022   -140.8 2.004e+04 2.637e-08
 77.99021   -141.3 1.986e+04 2.335e-08
 78.00605   -141.7 1.996e+04 2.938e-08
 78.02603   -142.2 1.994e+04 3.057e-08
 78.04602   -142.6 1.955e+04 2.832e-08
 78.06601   -142.8 1.881e+04 2.140e-08
 78.07774   -143.1 1.782e+04 1.337e-08
 78.08773   -144.5 1.754e+04 1.212e-08
 78.10598   -145.7 1.660e+04 8.210e-09
 78.12596   -147.0 1.571e+04 6.105e-09
 78.14595   -147.9 1.508e+04 5.004e-09
 78.16526   -148.4 1.470e+04 4.463e-09
 78.17525   -148.1 1.492e+04 5.443e-09
 78.18339   -148.3 1.459e+04 4.740e-09
 78.19338   -148.7 1.384e+04 3.239e-09
 78.20591   -148.7 1.346e+04 2.711e-09
 78.22589   -148.6 1.297e+04 2.121e-09
 78.24588   -148.4 1.244e+04 1.589e-09
 78.26277   -147.9 1.193e+04 1.166e-09
 78.27277   -147.9 1.177e+04 1.081e-09
 78.28585   -147.6 1.130e+04 7.731e-10
 78.30583   -147.1 1.092e+04 5.688e-10
 78.32582   -146.7 1.065e+04 4.491e-10
 78.34581   -146.1 1.046e+04 3.897e-10
 78.37588   -145.3 1.028e+04 3.433e-10
 78.41595   -142.8 9.964e+03 2.640e-10
 78.44801   -140.5 9.926e+03 2.485e-10
 78.46799   -141.4 9.804e+03 2.590e-10
 78.49589   -139.5 9.803e+03 2.573e-10
 78.53587   -137.8 9.771e+03 2.905e-10
 78.55838   -136.4 1.010e+04 4.054e-10
 78.57837   -136.1 1.010e+04 3.871e-10
 78.61581   -134.8 1.070e+04 6.175e-10
 78.64304   -134.0 1.142e+04 9.956e-10
 78.66302   -134.8 1.050e+04 4.940e-10
 78.69575   -134.7 1.075e+04 5.740e-10
 78.73572   -135.0 1.079e+04 6.303e-10
 78.77570   -136.0 1.081e+04 6.938e-10
 78.81567   -137.0 1.084e+04 7.365e-10
 78.83807   -138.0 1.083e+04 7.391e-10
 78.85805   -137.6 9.918e+03 4.222e-10
 78.89561   -138.0 1.008e+04 4.612e-10
 78.93558   -138.3 1.017e+04 4.936e-10
 78.97555   -138.5 1.034e+04 5.212e-10
 79.01311   -138.5 1.059e+04 5.837e-10
 79.03310   -136.7 9.643e+03 3.136e-10
 79.05550   -136.5 9.770e+03 3.305e-10
 79.09547   -136.2 9.892e+03 3.541e-10
 79.13544   -135.2 9.931e+03 3.683e-10
 79.17541   -133.8 9.876e+03 3.664e-10
 79.20814   -132.1 9.660e+03 3.244e-10
 79.22813   -130.6 9.328e+03 2.086e-10
 79.25535   -128.8 9.182e+03 1.962e-10
 79.28800   -126.9 9.047e+03 1.816e-10
 79.30798   -126.9 9.253e+03 2.003e-10
 79.33530   -124.8 9.193e+03 1.913e-10
 79.37527   -122.5 9.186e+03 1.876e-10
 79.40317   -120.1 9.188e+03 1.864e-10
 79.42316   -119.1 8.988e+03 1.575e-10
 79.45521   -116.9 9.002e+03 1.562e-10
 79.49518   -114.6 9.043e+03 1.552e-10
 79.53515   -112.4 9.094e+03 1.563e-10
 79.57513   -110.1 9.200e+03 1.705e-10
 79.59820   -108.0 9.522e+03 2.273e-10
 79.61819   -107.0 9.159e+03 1.633e-10
 79.65507   -104.9 9.518e+03 2.214e-10
 79.69504   -102.7 9.966e+03 3.358e-10
 79.73501   -100.6 1.045e+04 5.050e-10
 79.77324    -98.6 1.088e+04 7.006e-10
 79.79323    -97.6 9.989e+03 3.507e-10
 79.81496    -95.6 1.034e+04 4.615e-10
 79.85493    -93.8 1.062e+04 5.717e-10
 79.89490    -92.0 1.082e+04 6.593e-10
 79.93487    -90.5 1.092e+04 7.126e-10
 79.96827    -89.0 1.106e+04 7.769e-10
 79.98826    -87.8 1.097e+04 7.336e-10
 80.01481    -86.2 1.131e+04 9.201e-10
 80.03759    -84.7 1.159e+04 1.068e-09
 80.04749    -85.3 1.155e+04 1.030e-09
 80.06458    -84.8 1.159e+04 1.024e-09
 80.07559    -84.0 1.165e+04 1.026e-09
 80.08558    -83.3 1.172e+04 1.119e-09
 80.10455    -82.8 1.173e+04 1.062e-09
 80.12454    -82.2 1.173e+04 9.673e-10
 80.14453    -82.0 1.165e+04 7.944e-10
 80.16321    -81.9 1.143e+04 5.530e-10
 80.18329    -80.2 1.171e+04 7.782e-10
 80.21467    -78.7 1.134e+04 5.188e-10
 80.25464    -76.7 1.098e+04 3.405e-10
 80.29461    -74.3 1.072e+04 2.282e-10
 80.33459    -72.3 1.048e+04 1.684e-10
 80.35834    -70.3 1.031e+04 1.415e-10
 80.37832    -68.8 1.058e+04 2.016e-10
 80.41453    -66.6 1.045e+04 1.815e-10
 80.45450    -64.2 1.035e+04 1.702e-10
 80.49447    -61.9 1.033e+04 1.668e-10
 80.53338    -59.6 1.042e+04 2.019e-10
 80.55337    -58.6 1.091e+04 3.405e-10
 80.57441    -56.1 1.101e+04 4.001e-10
 80.61439    -53.3 1.127e+04 4.796e-10
 80.64079    -52.4 1.113e+04 4.310e-10
 80.65069    -51.8 1.139e+04 5.356e-10
 80.66415    -51.3 1.156e+04 5.789e-10
 80.68414    -51.1 1.181e+04 6.705e-10
 80.70413    -51.2 1.216e+04 8.566e-10
 80.72411    -51.3 1.260e+04 1.190e-09
 80.73821    -51.3 1.307e+04 1.682e-09
 80.74820    -51.5 1.401e+04 2.778e-09
 80.76408    -51.0 1.458e+04 3.902e-09
 80.77700    -50.3 1.491e+04 4.645e-09
 80.78699    -50.8 1.496e+04 4.728e-09
 80.80406    -50.5 1.496e+04 4.819e-09
 80.82404    -49.8 1.448e+04 4.202e-09
 80.83572    -49.0 1.363e+04 2.836e-09
 80.84572    -48.5 1.455e+04 4.080e-09
 80.86401    -48.2 1.339e+04 2.217e-09
 80.88400    -48.4 1.250e+04 1.263e-09
 80.90398    -48.8 1.192e+04 8.285e-10
 80.92324    -48.9 1.153e+04 6.304e-10
 80.93324    -49.1 1.182e+04 7.232e-10
 80.94396    -48.7 1.147e+04 6.116e-10
 80.96394    -47.9 1.126e+04 5.477e-10
 80.98393    -47.3 1.112e+04 5.025e-10
 81.00391    -46.6 1.103e+04 4.700e-10
 81.02076    -46.1 1.101e+04 4.543e-10
 81.03075    -46.5 1.152e+04 6.445e-10
 81.04388    -46.1 1.153e+04 6.488e-10
 81.06387    -45.7 1.158e+04 6.862e-10
 81.08386    -45.2 1.161e+04 7.376e-10
 81.10384    -44.6 1.164e+04 7.859e-10
 81.11827    -44.0 1.168e+04 8.203e-10
 81.12827    -44.2 1.244e+04 1.273e-09
 81.14180    -43.8 1.263e+04 1.278e-09
 81.15180    -43.9 1.261e+04 1.286e-09
 81.17389    -43.6 1.287e+04 1.266e-09
 81.21396    -43.0 1.263e+04 1.105e-09
 81.25393    -42.5 1.257e+04 1.080e-09
 81.29351    -42.1 1.281e+04 1.251e-09
 81.31350    -43.2 1.278e+04 1.203e-09
 81.33387    -42.8 1.289e+04 1.388e-09
 81.37384    -42.2 1.278e+04 1.384e-09
 81.41382    -41.4 1.212e+04 9.991e-10
 81.45379    -40.5 1.127e+04 5.397e-10
 81.48367    -40.0 1.080e+04 3.183e-10
 81.49834    -39.4 1.063e+04 2.560e-10
 81.50833    -39.1 1.063e+04 2.748e-10
 81.51670    -38.1 1.042e+04 2.210e-10
 81.53678    -37.9 1.018e+04 1.769e-10
 81.57370    -35.6 9.769e+03 1.137e-10
 81.61367    -33.5 9.574e+03 9.660e-11
 81.65365    -31.1 9.433e+03 9.026e-11
 81.68357    -28.4 9.322e+03 8.729e-11
 81.70356    -27.2 9.620e+03 1.316e-10
 81.73359    -24.7 9.524e+03 1.281e-10
 81.77356    -22.0 9.424e+03 1.254e-10
 81.81353    -19.4 9.334e+03 1.221e-10
 81.85350    -16.7 9.244e+03 1.150e-10
 81.87860    -14.2 9.148e+03 1.053e-10
 81.89859    -13.4 9.743e+03 1.914e-10
 81.93345    -10.9 9.635e+03 1.717e-10
 81.97342     -8.4 9.593e+03 1.601e-10
 82.01339     -6.1 9.638e+03 1.590e-10
 82.05336     -4.1 9.968e+03 1.959e-10
 82.07354     -3.3 1.024e+04 2.594e-10
 82.08343     -3.5 1.052e+04 3.289e-10
 82.10313     -4.1 1.120e+04 5.258e-10
 82.12312     -5.2 1.242e+04 1.039e-09
 82.14310     -6.4 1.357e+04 2.192e-09
 82.16096     -6.6 1.463e+04 4.375e-09
 82.17095     -6.3 1.516e+04 5.561e-09
 82.18307     -5.4 1.619e+04 8.822e-09
 82.20306     -4.2 1.700e+04 1.152e-08
 82.22304     -3.6 1.729e+04 1.198e-08
 82.24303     -3.2 1.662e+04 9.224e-09
 82.25621     -3.2 1.541e+04 5.524e-09
 82.26166     -4.5 1.486e+04 3.824e-09
 82.26847     -5.9 1.479e+04 3.343e-09
 82.28300     -7.3 1.321e+04 2.148e-09
 82.30299     -8.0 1.209e+04 1.583e-09
 82.32297     -7.6 1.142e+04 1.307e-09
 82.34296     -6.4 1.108e+04 1.160e-09
 82.35599     -5.3 1.082e+04 1.036e-09
 82.36598     -5.7 1.090e+04 1.108e-09
 82.38293     -4.3 1.063e+04 9.691e-10
 82.40292     -3.0 1.040e+04 8.463e-10
 82.42290     -1.9 1.018e+04 7.360e-10
 82.44289     -0.9 9.985e+03 6.579e-10
 82.45351     -0.1 9.894e+03 6.306e-10
 82.46350     -0.5 9.973e+03 6.655e-10
 82.48286      0.7 9.919e+03 6.493e-10
 82.50285      1.3 9.889e+03 6.449e-10
 82.52283      2.9 9.927e+03 6.595e-10
 82.54103      3.1 9.974e+03 6.818e-10
 82.55102      2.8 1.017e+04 7.724e-10
 82.56280      3.7 1.031e+04 8.580e-10
 82.58279      4.5 1.030e+04 8.965e-10
 82.60277      5.8 1.035e+04 9.405e-10
 82.62101      6.7 1.029e+04 9.348e-10
 82.63100      7.2 9.768e+03 7.107e-10
 82.63854      8.5 9.692e+03 6.909e-10
 82.64854      8.5 9.752e+03 7.134e-10
 82.66273      9.8 9.596e+03 6.465e-10
 82.68272     10.9 9.444e+03 5.743e-10
 82.70270     12.1 9.305e+03 4.992e-10
 82.72269     12.6 9.239e+03 4.583e-10
 82.73606     13.3 9.125e+03 4.309e-10
 82.74605     13.2 9.167e+03 4.390e-10
 82.76266     14.1 9.107e+03 4.225e-10
 82.78265     14.8 9.190e+03 4.457e-10
 82.80263     15.7 9.291e+03 4.917e-10
 82.82262     16.8 9.312e+03 5.299e-10
 82.83357     18.0 9.426e+03 5.908e-10
 82.84357     18.3 9.678e+03 6.720e-10
 82.86259     19.7 9.947e+03 7.437e-10
 82.88257     20.8 1.017e+04 8.081e-10
 82.90256     21.6 1.038e+04 8.575e-10
 82.92110     21.9 1.055e+04 9.607e-10
 82.93109     22.5 1.049e+04 9.289e-10
 82.94253     21.6 1.097e+04 1.105e-09
 82.96252     19.6 1.245e+04 1.593e-09
 82.98250     18.0 1.359e+04 2.431e-09
 82.99581     17.6 1.430e+04 3.580e-09
 83.00580     20.1 1.263e+04 2.096e-09
 83.01861     20.3 1.340e+04 2.822e-09
 83.02860     20.3 1.351e+04 2.693e-09
 83.04246     20.0 1.435e+04 3.466e-09
 83.06245     17.6 1.626e+04 4.650e-09
 83.08243     12.8 1.775e+04 6.542e-09
 83.10242      8.6 1.754e+04 8.511e-09
 83.11613      7.5 1.660e+04 1.034e-08
 83.12612      8.4 1.684e+04 1.078e-08
 83.13734      8.1 1.638e+04 1.048e-08
 83.14729      8.6 1.620e+04 9.768e-09
 83.15728      9.5 1.563e+04 7.182e-09
 83.16479     10.0 1.567e+04 6.400e-09
 83.16978     10.3 1.565e+04 6.143e-09
 83.18231     10.3 1.558e+04 4.635e-09
 83.20235      5.1 1.372e+04 1.791e-09
 83.21364     -1.0 1.040e+04 7.852e-10
 83.22363     -0.8 1.039e+04 7.823e-10
 83.24232     -2.1 9.930e+03 6.878e-10
 83.26230     -2.7 9.924e+03 6.853e-10
 83.28229     -3.4 1.009e+04 7.386e-10
 83.30116     -4.0 1.024e+04 8.155e-10
 83.31116     -4.4 1.021e+04 8.060e-10
 83.32226     -4.7 1.044e+04 9.143e-10
 83.34225     -4.9 1.067e+04 1.028e-09
 83.36061     -4.8 1.085e+04 1.126e-09
 83.37061     -5.2 1.083e+04 1.130e-09
 83.38222     -4.9 1.090e+04 1.163e-09
 83.39868     -4.6 1.090e+04 1.163e-09
 83.40867     -5.2 1.109e+04 1.248e-09
 83.42219     -4.9 1.101e+04 1.213e-09
 83.44218     -4.5 1.080e+04 1.114e-09
 83.46216     -4.0 1.054e+04 9.943e-10
 83.48215     -3.4 1.028e+04 8.746e-10
 83.49619     -2.8 1.000e+04 7.581e-10
 83.50619     -3.5 1.001e+04 7.557e-10
 83.52212     -2.6 9.706e+03 6.478e-10
 83.54211     -1.7 9.446e+03 5.543e-10
 83.56209     -0.9 9.235e+03 4.805e-10
 83.58208      0.0 9.108e+03 4.371e-10
 83.59381      1.3 9.079e+03 4.136e-10
 83.61389      0.4 8.955e+03 3.800e-10
 83.65222      2.4 8.784e+03 3.436e-10
 83.69219      4.6 8.666e+03 3.142e-10
 83.72561      6.6 8.637e+03 2.936e-10
 83.74560      6.2 8.897e+03 3.517e-10
 83.76895      7.6 8.917e+03 3.415e-10
 83.78893      7.4 8.835e+03 3.256e-10
 83.81211      8.1 9.024e+03 3.674e-10
 83.84199      9.7 9.171e+03 4.208e-10
 83.86188      9.9 9.158e+03 4.276e-10
 83.87626     11.5 9.321e+03 4.828e-10
 83.88625     11.3 9.310e+03 4.810e-10
 83.90185     11.8 9.341e+03 4.908e-10
 83.92183     12.8 9.355e+03 4.999e-10
 83.94182     13.4 9.336e+03 4.909e-10
 83.96181     13.9 9.299e+03 4.757e-10
 83.97378     14.3 9.273e+03 4.683e-10
 83.98377     13.7 9.511e+03 5.087e-10
 84.00178     13.7 9.729e+03 5.371e-10
 84.02176     13.3 1.008e+04 6.022e-10
 84.04175     12.5 1.070e+04 7.582e-10
 84.06130     10.9 1.159e+04 1.030e-09
 84.07129      8.6 1.311e+04 2.143e-09
 84.08172      8.1 1.310e+04 2.497e-09
 84.09666      7.9 1.278e+04 2.465e-09
 84.10512      7.9 1.274e+04 2.484e-09
 84.11011      8.0 1.268e+04 2.592e-09
 84.11495      7.9 1.271e+04 2.729e-09
 84.11995      7.0 1.443e+04 3.005e-09
 84.12659      6.0 1.697e+04 3.049e-09
 84.13658      4.1 2.095e+04 3.221e-09
 84.14658      1.3 2.679e+04 3.582e-09
 84.15657     -2.7 3.349e+04 4.313e-09
 84.16371     -7.0 3.790e+04 6.176e-09
 84.16871    -15.8 3.707e+04 1.693e-08
 84.17656    -19.6 3.050e+04 2.237e-08
 84.18655    -22.3 2.684e+04 2.391e-08
 84.19654    -24.3 2.317e+04 2.263e-08
 84.20653    -25.0 2.057e+04 2.140e-08
 84.22157    -25.1 1.892e+04 1.824e-08
 84.24161    -23.8 1.913e+04 1.373e-08
 84.25633    -23.2 1.971e+04 7.463e-09
 84.26632    -25.6 2.138e+04 2.923e-09
 84.28158    -30.0 1.826e+04 9.029e-10
 84.30156    -34.4 1.166e+04 4.194e-10
 84.32155    -35.3 8.668e+03 3.482e-10
 84.34154    -33.9 8.428e+03 3.207e-10
 84.35384    -32.5 8.332e+03 2.981e-10
 84.37393    -32.8 8.453e+03 2.993e-10
 84.41168    -30.1 8.231e+03 2.701e-10
 84.45165    -26.7 8.163e+03 2.534e-10
 84.47521    -23.4 8.104e+03 2.353e-10
 84.49520    -23.3 8.792e+03 3.816e-10
 84.52908    -19.7 8.564e+03 3.340e-10
 84.54907    -19.9 8.544e+03 3.624e-10
 84.57157    -16.2 8.177e+03 2.669e-10
 84.61154    -12.9 7.877e+03 1.989e-10
 84.65151     -9.9 7.656e+03 1.558e-10
 84.69148     -6.7 7.610e+03 1.454e-10
 84.72411     -3.7 7.735e+03 1.505e-10
 84.74410     -4.9 7.447e+03 1.253e-10
 84.77142     -1.5 7.507e+03 1.511e-10
 84.81140      2.5 7.586e+03 1.674e-10
 84.85137      6.3 7.660e+03 1.561e-10
 84.89134      9.6 7.807e+03 1.300e-10
 84.91914     12.4 7.870e+03 1.161e-10
 84.93913     11.4 7.621e+03 1.164e-10
 84.97128     14.3 7.644e+03 1.219e-10
 85.01125     17.2 7.673e+03 1.367e-10
 85.05123     20.4 7.728e+03 1.558e-10
 85.09120     23.7 7.860e+03 1.781e-10
 85.11417     26.8 8.021e+03 1.972e-10
 85.13416     26.3 7.929e+03 1.635e-10
 85.17114     29.0 8.129e+03 1.788e-10
 85.20482     31.4 8.306e+03 1.974e-10
 85.22481     31.0 8.238e+03 1.894e-10
 85.25108     33.2 8.374e+03 2.082e-10
 85.28922     35.4 8.520e+03 2.168e-10
 85.30920     34.9 8.690e+03 2.488e-10
 85.33103     36.8 8.960e+03 2.602e-10
 85.37100     38.2 9.224e+03 2.765e-10
 85.41097     39.1 9.493e+03 3.176e-10
 85.45094     40.0 9.710e+03 4.126e-10
 85.48425     41.6 9.874e+03 5.512e-10
 85.50423     41.6 1.029e+04 7.000e-10
 85.53088     43.5 1.033e+04 6.783e-10
 85.57086     45.2 1.043e+04 6.146e-10
 85.61083     46.5 1.056e+04 6.208e-10
 85.65080     47.2 1.079e+04 7.190e-10
 85.67928     48.2 1.103e+04 1.038e-09
 85.68917     45.9 1.108e+04 1.210e-09
 85.70057     47.1 1.108e+04 1.502e-09
 85.73064     49.5 1.139e+04 1.742e-09
 85.77071     52.3 1.161e+04 1.839e-09
 85.81068     55.1 1.160e+04 1.724e-09
 85.85066     57.8 1.136e+04 1.295e-09
 85.87431     60.3 1.084e+04 8.017e-10
 85.89429     59.8 1.022e+04 5.630e-10
 85.93060     61.8 9.626e+03 3.369e-10
 85.95442     63.9 9.104e+03 2.133e-10
 85.97440     62.4 8.419e+03 9.397e-11
 86.01054     65.1 8.180e+03 8.677e-11
 86.04935     68.1 8.122e+03 8.608e-11
 86.06934     68.2 8.135e+03 9.722e-11
 86.09049     71.3 8.126e+03 9.808e-11
 86.13046     74.3 8.101e+03 1.019e-10
 86.17043     77.3 8.103e+03 1.098e-10
 86.21040     80.3 8.155e+03 1.223e-10
 86.24438     83.3 8.232e+03 1.411e-10
 86.26437     83.7 8.321e+03 1.287e-10
 86.29034     86.7 8.428e+03 1.400e-10
 86.33031     89.6 8.570e+03 1.601e-10
 86.37029     92.3 8.731e+03 1.915e-10
 86.41026     95.0 8.912e+03 2.357e-10
 86.43941     97.6 9.103e+03 2.935e-10
 86.45940     97.5 8.775e+03 2.272e-10
 86.49020    100.0 8.937e+03 2.853e-10
 86.53017    103.0 9.201e+03 3.576e-10
 86.57014    105.6 9.485e+03 4.300e-10
 86.61012    107.6 9.633e+03 4.719e-10
 86.63435    109.4 9.633e+03 4.788e-10
 86.65433    111.1 9.670e+03 5.119e-10
 86.67997    112.6 9.699e+03 5.292e-10
 86.69382    113.8 9.706e+03 5.360e-10
 86.70392    113.3 9.294e+03 3.687e-10
 86.73003    116.0 9.318e+03 3.689e-10
 86.77000    119.0 9.468e+03 3.820e-10
 86.80949    121.1 9.627e+03 4.081e-10
 86.82938    121.9 9.886e+03 6.044e-10
 86.83976    123.2 1.000e+04 6.724e-10
 86.85974    124.5 1.015e+04 7.540e-10
 86.87973    125.7 1.034e+04 8.495e-10
 86.89971    126.8 1.055e+04 9.537e-10
 86.91680    127.8 1.077e+04 1.061e-09
 86.92679    127.7 1.145e+04 1.354e-09
 86.93968    128.6 1.167e+04 1.503e-09
 86.95967    129.3 1.185e+04 1.610e-09
 86.97966    129.9 1.192e+04 1.630e-09
 86.99964    130.5 1.191e+04 1.617e-09
 87.01432    131.1 1.183e+04 1.550e-09
 87.02431    130.7 1.212e+04 1.815e-09
 87.03961    131.1 1.187e+04 1.600e-09
 87.05863    131.4 1.162e+04 1.395e-09
 87.06862    131.6 1.149e+04 1.310e-09
 87.07959    131.9 1.128e+04 1.137e-09
 87.09957    132.1 1.110e+04 9.900e-10
 87.11183    132.0 1.094e+04 8.791e-10
 87.12182    131.0 1.086e+04 8.894e-10
 87.13954    130.9 1.075e+04 8.620e-10
 87.15953    131.0 1.065e+04 8.585e-10
 87.17951    131.2 1.061e+04 8.593e-10
 87.19935    131.5 1.061e+04 8.597e-10
 87.20935    131.1 1.061e+04 9.039e-10
 87.21949    131.4 1.062e+04 9.040e-10
 87.23947    131.8 1.066e+04 9.053e-10
 87.25946    132.2 1.073e+04 9.109e-10
 87.27944    132.5 1.086e+04 9.289e-10
 87.29687    132.6 1.103e+04 9.676e-10
 87.30686    132.1 1.111e+04 1.070e-09
 87.31941    132.1 1.138e+04 1.191e-09
 87.33940    132.1 1.175e+04 1.343e-09
 87.35939    132.1 1.218e+04 1.507e-09
 87.37937    132.2 1.263e+04 1.680e-09
 87.39438    132.2 1.309e+04 1.886e-09
 87.40438    131.1 1.510e+04 2.825e-09
 87.41934    130.9 1.547e+04 3.292e-09
 87.43343    130.7 1.574e+04 3.852e-09
 87.44342    132.9 1.270e+04 1.815e-09
 87.45931    132.7 1.317e+04 2.194e-09
 87.47930    132.7 1.363e+04 2.715e-09
 87.49190    133.0 1.406e+04 3.368e-09
 87.50189    131.9 1.528e+04 4.757e-09
 87.51927    132.6 1.587e+04 5.666e-09
 87.53926    133.3 1.653e+04 6.614e-09
 87.55924    133.9 1.723e+04 7.699e-09
 87.57923    134.5 1.802e+04 8.905e-09
 87.58941    135.1 1.864e+04 9.472e-09
 87.59941    134.0 1.861e+04 9.348e-09
 87.61920    134.1 1.826e+04 8.880e-09
 87.63919    134.0 1.764e+04 8.246e-09
 87.65917    133.9 1.700e+04 7.598e-09
 87.67693    133.8 1.650e+04 7.001e-09
 87.68693    132.7 1.634e+04 6.668e-09
 87.69914    132.7 1.619e+04 6.336e-09
 87.71913    132.6 1.597e+04 5.803e-09
 87.73912    132.6 1.564e+04 5.124e-09
 87.75910    132.4 1.523e+04 4.413e-09
 87.77445    132.2 1.476e+04 3.749e-09
 87.78444    131.9 1.484e+04 3.650e-09
 87.79823    131.7 1.430e+04 3.020e-09
 87.80823    132.1 1.483e+04 4.046e-09
 87.81906    131.9 1.419e+04 3.170e-09
 87.83904    131.7 1.351e+04 2.464e-09
 87.85903    131.7 1.292e+04 1.923e-09
 87.87196    131.8 1.241e+04 1.527e-09
 87.88196    132.1 1.237e+04 1.358e-09
 87.89900    132.4 1.197e+04 1.119e-09
 87.91899    132.9 1.167e+04 9.648e-10
 87.93897    133.4 1.141e+04 8.522e-10
 87.95896    134.1 1.119e+04 7.624e-10
 87.96948    134.8 1.100e+04 6.891e-10
 87.97947    135.3 1.080e+04 5.782e-10
 87.99893    136.2 1.065e+04 5.262e-10
 88.01892    137.0 1.055e+04 4.904e-10
 88.04899    138.8 1.044e+04 4.121e-10
 88.08906    140.9 1.038e+04 3.840e-10
 88.12903    142.9 1.035e+04 3.610e-10
 88.15471    144.9 1.031e+04 3.326e-10
 88.16893    146.1 1.017e+04 3.170e-10
 88.18322    145.3 1.006e+04 2.575e-10
 88.20898    147.3 1.005e+04 2.395e-10
 88.24895    149.3 1.008e+04 2.336e-10
 88.28892    151.2 1.010e+04 2.341e-10
 88.32889    153.2 1.020e+04 2.414e-10
 88.34974    154.6 1.028e+04 2.542e-10
 88.36973    157.1 1.013e+04 2.538e-10
 88.39874    157.7 1.011e+04 2.650e-10
 88.41863    158.4 1.006e+04 2.743e-10
 88.43707    159.4 9.979e+03 2.982e-10
 88.44706    160.2 9.900e+03 2.898e-10
 88.45860    161.5 9.910e+03 3.287e-10
 88.47859    162.6 1.010e+04 3.879e-10
 88.49857    163.6 1.041e+04 4.732e-10
 88.51856    164.5 1.085e+04 5.961e-10
 88.53458    165.4 1.137e+04 7.719e-10
 88.54387    166.6 1.096e+04 6.606e-10
 88.54783    166.2 1.150e+04 8.200e-10
 88.55853    167.0 1.193e+04 1.098e-09
 88.57852    168.0 1.224e+04 1.437e-09
 88.59850    169.0 1.250e+04 1.796e-09
 88.61849    170.1 1.274e+04 2.146e-09
 88.63210    171.1 1.304e+04 2.489e-09
 88.64209    172.1 1.306e+04 2.439e-09
 88.65846    173.1 1.327e+04 2.841e-09
 88.67845    174.0 1.352e+04 3.241e-09
 88.69843    174.9 1.382e+04 3.647e-09
 88.71842    175.8 1.409e+04 4.049e-09
 88.72961    176.6 1.431e+04 4.285e-09
 88.73961    177.9 1.423e+04 4.348e-09
 88.75839    178.5 1.427e+04 4.366e-09
 88.77838    179.1 1.426e+04 4.290e-09
 88.79836    179.7 1.436e+04 4.059e-09
 88.81714    180.4 1.448e+04 4.018e-09
 88.82713    181.9 1.469e+04 4.102e-09
 88.83833    182.4 1.487e+04 4.156e-09
 88.85832    182.9 1.530e+04 4.374e-09
 88.87830    183.5 1.617e+04 5.087e-09
 88.89324    183.7 1.663e+04 5.600e-09
 88.90319    184.0 1.709e+04 6.137e-09
 88.91254    184.2 1.767e+04 6.908e-09
 88.91753    184.4 1.870e+04 7.672e-09
 88.91955    184.5 1.942e+04 8.626e-09
 88.92455    185.5 1.888e+04 8.644e-09
 88.93317    185.5 1.991e+04 1.020e-08
 88.94316    185.3 2.121e+04 1.219e-08
 88.95315    185.0 2.271e+04 1.461e-08
 88.96315    184.7 2.422e+04 1.752e-08
 88.96831    184.4 2.562e+04 2.111e-08
 88.97330    185.2 2.356e+04 2.604e-08
 88.98313    184.9 2.451e+04 3.285e-08
 88.99312    184.4 2.538e+04 4.033e-08
 89.00312    183.7 2.633e+04 4.671e-08
 89.01207    182.6 2.701e+04 5.222e-08
 89.01707    184.1 2.442e+04 7.263e-08
 89.02310    182.8 2.510e+04 7.329e-08
 89.03310    181.4 2.537e+04 7.149e-08
 89.04309    180.1 2.597e+04 6.610e-08
 89.05308    178.7 2.637e+04 6.084e-08
 89.06083    177.3 2.649e+04 5.801e-08
 89.06582    179.3 2.533e+04 7.783e-08
 89.07307    177.9 2.546e+04 7.447e-08
 89.08306    176.5 2.542e+04 7.325e-08
 89.09305    175.3 2.548e+04 7.142e-08
 89.09994    174.2 2.544e+04 6.864e-08
 89.10493    173.5 2.614e+04 5.870e-08
 89.10958    172.5 2.618e+04 5.061e-08
 89.11458    173.7 2.539e+04 8.062e-08
 89.12303    172.1 2.553e+04 6.908e-08
 89.13302    170.8 2.574e+04 5.288e-08
 89.14302    169.9 2.576e+04 3.723e-08
 89.15301    169.2 2.552e+04 2.553e-08
 89.15834    168.7 2.508e+04 1.800e-08
 89.16334    169.3 2.562e+04 2.511e-08
 89.17300    168.6 2.559e+04 1.811e-08
 89.18299    168.1 2.537e+04 1.419e-08
 89.19716    168.5 2.438e+04 1.209e-08
 89.20715    167.9 2.485e+04 1.186e-08
 89.21297    167.6 2.443e+04 1.116e-08
 89.22296    167.5 2.354e+04 1.022e-08
 89.23800    168.7 2.370e+04 1.135e-08
 89.25803    168.3 2.092e+04 9.799e-09
 89.27744    167.9 1.891e+04 8.857e-09
 89.28743    167.9 1.711e+04 7.981e-09
 89.29472    168.3 1.745e+04 8.305e-09
 89.30471    168.2 1.836e+04 1.000e-08
 89.31799    168.0 1.820e+04 9.516e-09
 89.33798    167.9 1.800e+04 8.134e-09
 89.35796    167.8 1.738e+04 6.023e-09
 89.37795    167.7 1.610e+04 4.038e-09
 89.39223    167.5 1.448e+04 2.610e-09
 89.40223    166.7 1.409e+04 2.431e-09
 89.41792    166.7 1.263e+04 1.650e-09
 89.43791    166.8 1.172e+04 1.212e-09
 89.45789    167.3 1.125e+04 9.528e-10
 89.47788    168.3 1.099e+04 7.954e-10
 89.48975    169.5 1.079e+04 6.977e-10
 89.49974    169.7 1.089e+04 7.639e-10
 89.51785    171.1 1.074e+04 7.034e-10
 89.53783    172.3 1.060e+04 6.563e-10
 89.55782    173.5 1.046e+04 6.199e-10
 89.57727    174.7 1.036e+04 5.947e-10
 89.58726    175.4 1.050e+04 6.209e-10
 89.59779    176.5 1.042e+04 6.011e-10
 89.61778    177.5 1.036e+04 5.883e-10
 89.63776    178.5 1.031e+04 5.831e-10
 89.65224    179.4 1.028e+04 5.821e-10
 89.66223    179.3 1.006e+04 5.279e-10
 89.67479    180.1 1.011e+04 5.478e-10
 89.68478    181.2 9.940e+03 4.544e-10
 89.69772    182.0 9.955e+03 4.565e-10
 89.71771    182.7 9.976e+03 4.616e-10
 89.73769    183.3 1.001e+04 4.680e-10
 89.75768    183.9 1.005e+04 4.765e-10
 89.77230    184.5 1.011e+04 4.890e-10
 89.78229    185.1 9.858e+03 3.889e-10
 89.79765    185.6 9.878e+03 3.933e-10
 89.81764    186.1 9.951e+03 4.093e-10
 89.83762    186.6 1.010e+04 4.440e-10
 89.85761    187.1 1.034e+04 5.051e-10
 89.86982    187.5 1.070e+04 6.016e-10
 89.87981    188.3 1.024e+04 4.436e-10
 89.89758    188.7 1.069e+04 5.496e-10
 89.91756    189.2 1.130e+04 7.126e-10
 89.93755    189.6 1.206e+04 9.639e-10
 89.95734    189.9 1.302e+04 1.344e-09
 89.96733    190.7 1.232e+04 9.719e-10
 89.97752    191.0 1.327e+04 1.392e-09
 89.99751    191.2 1.424e+04 2.016e-09
 90.01704    191.5 1.515e+04 2.913e-09
 90.02704    192.4 1.357e+04 2.086e-09
 90.03748    193.0 1.443e+04 2.750e-09
 90.05485    193.3 1.533e+04 3.601e-09
 90.06485    194.0 1.461e+04 2.918e-09
 90.07745    194.1 1.538e+04 3.745e-09
 90.09744    194.2 1.627e+04 4.798e-09
 90.11742    194.1 1.724e+04 6.132e-09
 90.13741    193.8 1.836e+04 7.749e-09
 90.15237    193.1 1.950e+04 9.485e-09
 90.16236    194.0 1.927e+04 8.766e-09
 90.17738    193.2 2.061e+04 1.080e-08
 90.19736    192.0 2.223e+04 1.311e-08
 90.20939    190.9 2.388e+04 1.520e-08
 90.21434    191.4 2.222e+04 1.239e-08
 90.22225    190.6 2.284e+04 1.165e-08
 90.23224    189.9 2.330e+04 1.166e-08
 90.24223    189.5 2.372e+04 1.156e-08
 90.24979    189.4 2.377e+04 1.152e-08
 90.25478    190.1 2.396e+04 1.055e-08
 90.26222    190.1 2.410e+04 1.020e-08
 90.27221    190.2 2.393e+04 9.195e-09
 90.28221    190.2 2.384e+04 8.618e-09
 90.29220    189.9 2.499e+04 8.533e-09
 90.29854    188.5 3.130e+04 8.181e-09
 90.30354    187.5 3.544e+04 7.034e-09
 90.31219    183.9 5.149e+04 7.518e-09
 90.32218    181.2 5.507e+04 1.553e-08
 90.33217    179.9 4.425e+04 5.943e-08
 90.34216    180.3 3.316e+04 2.081e-07
 90.34730    180.7 2.536e+04 5.432e-07
 90.35230    181.8 2.556e+04 4.137e-07
 90.35963    181.9 2.383e+04 5.201e-07
 90.36460    182.1 2.240e+04 6.696e-07
 90.36913    182.2 2.132e+04 8.419e-07
 90.37163    182.9 2.156e+04 7.242e-07
 90.37459    183.0 2.065e+04 9.088e-07
 90.37959    183.1 2.006e+04 1.076e-06
 90.38458    183.5 1.966e+04 1.243e-06
 90.38958    184.2 1.940e+04 1.449e-06
 90.39351    185.1 1.904e+04 1.740e-06
 90.39563    185.6 1.921e+04 1.642e-06
 90.39669    185.0 1.928e+04 1.653e-06
 90.39957    185.6 1.898e+04 2.017e-06
 90.40457    186.5 1.886e+04 2.225e-06
 90.40957    187.5 1.890e+04 2.194e-06
 90.41456    188.6 1.908e+04 2.043e-06
 90.41789    189.8 1.960e+04 1.629e-06
 90.42039    189.9 1.946e+04 1.842e-06
 90.42456    190.0 1.990e+04 1.506e-06
 90.43208    191.1 2.010e+04 1.259e-06
 90.43982    191.5 2.101e+04 7.110e-07
 90.44482    191.9 2.088e+04 9.260e-07
 90.45209    191.7 2.234e+04 5.261e-07
 90.46208    190.4 2.435e+04 2.850e-07
 90.47207    188.7 2.627e+04 1.757e-07
 90.48206    187.8 2.783e+04 1.220e-07
 90.48858    187.6 2.902e+04 8.725e-08
 90.49357    183.9 4.083e+04 1.953e-08
 90.50205    180.2 4.684e+04 8.789e-09
 90.51204    174.5 5.181e+04 4.161e-09
 90.52204    167.1 5.089e+04 2.466e-09
 90.53203    158.3 4.198e+04 2.230e-09
 90.53734    149.4 3.047e+04 3.408e-09
 90.54233    138.2 2.412e+04 9.421e-09
 90.55201    133.5 2.444e+04 1.672e-08
 90.56201    129.0 2.543e+04 2.788e-08
 90.57200    124.8 2.662e+04 3.935e-08
 90.57914    120.8 2.884e+04 4.145e-08
 90.58324    120.5 2.971e+04 4.100e-08
 90.58609    112.8 3.097e+04 3.499e-08
 90.59199    105.7 3.159e+04 1.935e-08
 90.60198     96.2 2.817e+04 8.480e-09
 90.61197     85.5 2.129e+04 4.616e-09
 90.62196     80.1 1.898e+04 4.279e-09
 90.62985     76.4 1.979e+04 3.835e-09
 90.63485     73.1 1.727e+04 2.733e-09
 90.64195     70.6 1.723e+04 2.469e-09
 90.65194     64.4 2.140e+04 2.234e-09
 90.66194     53.1 4.806e+04 1.665e-09
 90.67193     35.4 1.283e+05 9.807e-10
 90.67861     48.1 1.443e+05 1.619e-09
 90.68361     49.1 1.336e+05 2.326e-09
 90.69696     56.8 1.308e+05 1.521e-09
 90.71699     64.5 9.635e+04 1.161e-09
 90.72747     53.1 2.078e+04 3.050e-09
 90.73746     52.3 1.507e+04 3.357e-09
 90.75665     53.8 1.495e+04 3.512e-09
 90.76664     50.2 1.561e+04 3.880e-09
 90.77695     52.3 1.507e+04 3.243e-09
 90.79694     54.2 1.468e+04 2.613e-09
 90.81499     55.9 1.411e+04 2.003e-09
 90.82498     58.3 1.422e+04 2.215e-09
 90.83691     59.8 1.365e+04 1.747e-09
 90.85689     61.4 1.304e+04 1.402e-09
 90.87688     63.1 1.244e+04 1.156e-09
 90.89687     65.0 1.191e+04 9.818e-10
 90.91250     67.0 1.152e+04 8.693e-10
 90.92250     68.4 1.182e+04 9.691e-10
 90.93684     70.3 1.155e+04 8.914e-10
 90.95682     72.3 1.131e+04 8.065e-10
 90.97681     73.8 1.110e+04 7.517e-10
 90.99680     75.6 1.083e+04 6.830e-10
 91.01002     77.5 1.067e+04 6.513e-10
 91.02001     78.5 1.090e+04 7.344e-10
 91.03677     80.3 1.081e+04 7.232e-10
 91.05675     82.3 1.073e+04 7.111e-10
 91.07674     84.2 1.069e+04 7.038e-10
 91.09672     86.1 1.065e+04 6.926e-10
 91.10753     87.9 1.058e+04 6.754e-10
 91.11753     88.8 1.099e+04 8.081e-10
 91.13144     90.7 1.097e+04 8.058e-10
 91.14144     89.8 1.125e+04 9.115e-10
 91.15668     91.6 1.115e+04 8.824e-10
 91.17667     93.4 1.101e+04 8.448e-10
 91.19506     95.1 1.084e+04 7.979e-10
 91.20505     95.9 1.178e+04 1.146e-09
 91.21664     97.6 1.171e+04 1.100e-09
 91.23662     99.3 1.160e+04 1.042e-09
 91.25661    100.9 1.144e+04 9.815e-10
 91.27660    102.3 1.124e+04 9.152e-10
 91.29257    103.7 1.095e+04 8.371e-10
 91.30256    104.7 1.255e+04 1.361e-09
 91.31657    106.0 1.224e+04 1.208e-09
 91.33655    107.3 1.179e+04 1.035e-09
 91.35654    108.6 1.126e+04 8.718e-10
 91.37652    109.8 1.074e+04 7.385e-10
 91.39009    111.1 1.031e+04 6.391e-10
 91.40008    111.9 1.175e+04 1.029e-09
 91.41650    113.1 1.108e+04 8.333e-10
 91.43648    114.3 1.052e+04 7.020e-10
 91.45647    115.7 1.015e+04 6.360e-10
 91.47645    117.1 1.003e+04 6.259e-10
 91.48760    118.6 1.002e+04 6.271e-10
 91.49740    119.0 1.024e+04 6.942e-10
 91.50624    118.5 1.026e+04 7.040e-10
 91.51642    120.2 1.029e+04 7.153e-10
 91.53641    121.9 1.040e+04 7.543e-10
 91.55640    123.4 1.059e+04 8.250e-10
 91.57512    124.8 1.082e+04 9.253e-10
 91.58512    124.7 1.101e+04 9.541e-10
 91.59637    126.1 1.136e+04 1.098e-09
 91.61635    127.4 1.177e+04 1.289e-09
 91.63634    128.7 1.219e+04 1.521e-09
 91.65633    130.0 1.259e+04 1.775e-09
 91.67264    131.3 1.295e+04 2.029e-09
 91.68263    130.9 1.312e+04 2.074e-09
 91.69630    132.1 1.333e+04 2.263e-09
 91.71628    133.2 1.355e+04 2.454e-09
 91.73627    134.1 1.379e+04 2.655e-09
 91.75121    134.4 1.404e+04 2.867e-09
 91.76115    134.7 1.429e+04 3.049e-09
 91.77006    134.7 1.452e+04 3.215e-09
 91.77505    134.3 1.409e+04 3.158e-09
 91.78114    134.3 1.426e+04 3.275e-09
 91.79113    134.3 1.444e+04 3.399e-09
 91.80112    134.2 1.462e+04 3.530e-09
 91.81112    134.1 1.477e+04 3.659e-09
 91.81881    133.9 1.496e+04 3.846e-09
 91.82381    132.9 1.575e+04 4.564e-09
 91.83110    132.2 1.630e+04 5.068e-09
 91.84110    131.3 1.707e+04 5.881e-09
 91.85109    129.8 1.812e+04 7.174e-09
 91.86108    128.0 1.938e+04 9.373e-09
 91.86757    126.3 2.059e+04 1.280e-08
 91.87244    124.9 2.330e+04 1.704e-08
 91.87595    122.5 2.605e+04 3.436e-08
 91.88107    121.1 2.684e+04 4.455e-08
 91.89106    119.8 2.759e+04 5.840e-08
 91.90105    118.6 2.806e+04 7.727e-08
 91.91105    117.4 2.808e+04 9.799e-08
 91.91633    116.0 2.824e+04 1.081e-07
 91.92133    114.9 2.761e+04 7.283e-08
 91.93103    113.4 2.758e+04 7.259e-08
 91.94102    112.1 2.726e+04 7.155e-08
 91.95102    111.1 2.677e+04 6.979e-08
 91.96009    110.3 2.631e+04 6.737e-08
 91.96509    110.2 2.441e+04 4.666e-08
 91.97100    109.8 2.402e+04 4.578e-08
 91.98100    109.3 2.369e+04 4.538e-08
 91.99099    108.8 2.341e+04 4.464e-08
 92.00098    108.2 2.314e+04 4.292e-08
 92.00885    107.8 2.280e+04 4.045e-08
 92.01384    108.4 2.175e+04 2.751e-08
 92.02097    108.3 2.154e+04 2.655e-08
 92.03096    108.4 2.126e+04 2.545e-08
 92.04095    108.5 2.107e+04 2.471e-08
 92.05095    108.8 2.076e+04 2.387e-08
 92.05760    109.0 2.050e+04 2.343e-08
 92.06265    109.1 1.900e+04 1.296e-08
 92.07098    109.2 1.897e+04 1.300e-08
 92.08093    109.4 1.897e+04 1.310e-08
 92.09092    109.8 1.896e+04 1.334e-08
 92.10091    110.4 1.902e+04 1.378e-08
 92.10636    111.1 1.905e+04 1.437e-08
 92.11136    111.6 1.869e+04 9.201e-09
 92.12090    112.2 1.887e+04 9.476e-09
 92.13089    113.1 1.914e+04 1.009e-08
 92.14088    113.9 1.951e+04 1.121e-08
 92.15012    114.8 1.994e+04 1.292e-08
 92.16017    115.1 1.965e+04 7.408e-09
 92.17596    116.2 2.032e+04 8.255e-09
 92.19594    117.0 2.054e+04 8.292e-09
 92.21593    117.6 2.048e+04 8.025e-09
 92.23585    117.9 2.024e+04 7.506e-09
 92.24768    116.6 1.785e+04 2.030e-09
 92.25773    115.0 1.191e+04 5.014e-10
 92.27588    115.6 1.167e+04 5.872e-10
 92.29587    116.2 1.172e+04 7.102e-10
 92.31586    116.7 1.192e+04 8.981e-10
 92.33526    117.4 1.245e+04 1.127e-09
 92.34525    117.4 1.083e+04 6.751e-10
 92.35583    118.0 1.154e+04 8.538e-10
 92.37581    118.8 1.226e+04 1.052e-09
 92.39580    119.5 1.298e+04 1.275e-09
 92.41578    120.3 1.373e+04 1.531e-09
 92.43277    121.1 1.450e+04 1.850e-09
 92.44277    120.7 1.296e+04 1.313e-09
 92.45576    121.4 1.366e+04 1.563e-09
 92.47574    122.1 1.436e+04 1.866e-09
 92.49573    122.8 1.499e+04 2.221e-09
 92.51571    123.3 1.546e+04 2.621e-09
 92.53029    124.0 1.574e+04 3.029e-09
 92.54028    122.9 1.379e+04 2.022e-09
 92.55568    123.5 1.389e+04 2.085e-09
 92.57567    124.1 1.385e+04 2.062e-09
 92.59566    124.7 1.369e+04 1.960e-09
 92.61065    124.9 1.357e+04 1.727e-09
 92.62064    124.6 1.252e+04 1.353e-09
 92.62780    124.4 1.230e+04 1.201e-09
 92.63780    122.9 1.182e+04 1.014e-09
 92.65561    122.5 1.171e+04 8.985e-10
 92.67560    121.9 1.167e+04 8.327e-10
 92.69559    121.2 1.170e+04 8.208e-10
 92.71533    120.0 1.180e+04 8.237e-10
 92.73541    120.6 1.181e+04 8.071e-10
 92.76573    118.7 1.210e+04 8.157e-10
 92.80570    117.6 1.207e+04 8.992e-10
 92.84567    118.2 1.190e+04 9.067e-10
 92.88565    119.3 1.155e+04 8.752e-10
 92.91055    121.1 1.119e+04 7.795e-10
 92.93054    122.4 1.028e+04 4.277e-10
 92.96559    124.1 1.007e+04 3.722e-10
 93.00556    126.1 9.928e+03 3.538e-10
 93.04553    128.3 9.933e+03 3.586e-10
 93.08550    130.4 9.962e+03 3.831e-10
 93.12547    133.1 9.802e+03 3.566e-10
 93.16545    135.0 1.007e+04 4.529e-10
 93.20542    137.1 1.070e+04 6.913e-10
 93.23530    137.9 1.101e+04 8.774e-10
 93.25519    138.6 1.129e+04 1.059e-09
 93.27517    139.2 1.160e+04 1.293e-09
 93.29042    139.7 1.191e+04 1.565e-09
 93.30042    140.5 1.179e+04 1.520e-09
 93.31514    140.9 1.207e+04 1.747e-09
 93.33513    141.3 1.229e+04 1.926e-09
 93.35025    141.5 1.246e+04 2.081e-09
 93.36025    141.9 1.204e+04 1.721e-09
 93.37510    142.1 1.224e+04 1.924e-09
 93.38794    142.4 1.248e+04 2.196e-09
 93.39793    142.9 1.218e+04 1.723e-09
 93.41507    143.1 1.244e+04 2.025e-09
 93.43506    143.6 1.273e+04 2.441e-09
 93.45504    144.3 1.303e+04 2.715e-09
 93.47503    145.0 1.308e+04 2.689e-09
 93.48545    145.6 1.308e+04 2.526e-09
 93.49545    145.8 1.300e+04 2.507e-09
 93.51500    146.3 1.297e+04 2.310e-09
 93.53499    146.7 1.278e+04 1.891e-09
 93.55497    146.9 1.238e+04 1.388e-09
 93.57298    147.0 1.171e+04 9.267e-10
 93.58297    147.2 1.210e+04 1.216e-09
 93.59494    147.2 1.141e+04 8.359e-10
 93.61493    146.9 1.057e+04 5.677e-10
 93.63492    146.6 9.799e+03 4.074e-10
 93.65490    146.4 9.235e+03 3.274e-10
 93.67049    146.5 8.924e+03 2.888e-10
 93.68048    147.3 9.599e+03 4.017e-10
 93.69487    147.4 9.282e+03 3.496e-10
 93.71486    147.5 9.108e+03 3.219e-10
 93.72505    147.6 9.047e+03 3.166e-10
 93.73504    147.7 9.640e+03 4.094e-10
 93.75483    147.7 9.356e+03 3.968e-10
 93.76801    147.8 9.332e+03 3.985e-10
 93.77800    148.1 9.838e+03 4.640e-10
 93.79480    148.2 9.690e+03 4.563e-10
 93.81479    148.4 9.698e+03 4.577e-10
 93.83477    148.8 9.750e+03 4.668e-10
 93.85476    149.3 9.840e+03 4.849e-10
 93.86552    149.7 9.946e+03 5.091e-10
 93.87551    149.6 1.041e+04 5.997e-10
 93.89473    150.0 1.057e+04 6.468e-10
 93.91472    150.3 1.077e+04 7.044e-10
 93.93470    150.3 1.100e+04 7.708e-10
 93.95304    150.2 1.128e+04 8.468e-10
 93.96304    149.2 1.286e+04 1.440e-09
 93.97467    148.4 1.368e+04 1.770e-09
 93.99466    147.4 1.443e+04 2.128e-09
 94.01465    146.4 1.488e+04 2.405e-09
 94.03463    145.3 1.518e+04 2.626e-09
 94.05056    144.1 1.533e+04 2.863e-09
 94.06055    143.3 1.604e+04 5.105e-09
 94.07460    142.4 1.566e+04 5.101e-09
 94.08986    142.0 1.539e+04 5.190e-09
 94.09985    142.1 1.657e+04 9.343e-09
 94.11457    141.9 1.638e+04 8.334e-09
 94.13456    141.5 1.650e+04 7.361e-09
 94.14807    141.1 1.656e+04 6.555e-09
 94.15807    140.4 1.619e+04 5.054e-09
 94.17453    139.8 1.592e+04 4.335e-09
 94.19452    139.3 1.558e+04 3.574e-09
 94.21450    138.9 1.502e+04 2.835e-09
 94.23449    138.5 1.432e+04 2.129e-09
 94.24559    138.2 1.359e+04 1.655e-09
 94.25568    136.8 1.281e+04 1.300e-09
 94.28465    137.8 1.198e+04 9.382e-10
 94.31453    138.5 1.168e+04 8.370e-10
 94.33311    139.4 1.148e+04 7.660e-10
 94.34310    139.5 1.121e+04 6.742e-10
 94.35440    140.3 1.106e+04 6.224e-10
 94.37439    141.1 1.104e+04 6.190e-10
 94.39438    142.0 1.105e+04 6.250e-10
 94.41436    142.8 1.108e+04 6.519e-10
 94.43063    143.6 1.115e+04 7.067e-10
 94.44062    143.1 1.101e+04 6.904e-10
 94.45433    144.0 1.111e+04 7.721e-10
 94.46466    144.9 1.121e+04 8.701e-10
 94.47465    144.5 1.121e+04 8.628e-10
 94.49430    145.5 1.130e+04 9.577e-10
 94.51429    146.5 1.138e+04 1.039e-09
 94.52814    147.5 1.143e+04 1.082e-09
 94.53813    147.4 1.137e+04 9.752e-10
 94.55426    148.3 1.137e+04 9.657e-10
 94.57425    149.2 1.136e+04 9.344e-10
 94.59423    150.3 1.144e+04 9.071e-10
 94.61422    150.8 1.153e+04 9.165e-10
 94.62566    150.7 1.171e+04 9.666e-10
 94.63565    149.3 1.267e+04 1.000e-09
 94.64701    148.9 1.287e+04 1.114e-09
 94.65196    148.9 1.290e+04 1.108e-09
 94.65909    148.2 1.338e+04 1.252e-09
 94.66908    146.6 1.480e+04 1.598e-09
 94.67432    144.3 1.686e+04 2.343e-09
 94.67931    141.2 2.123e+04 3.980e-09
 94.68907    138.8 2.192e+04 6.356e-09
 94.69906    136.6 2.225e+04 9.867e-09
 94.70905    135.0 2.238e+04 1.465e-08
 94.71808    133.8 2.237e+04 2.067e-08
 94.72307    133.1 2.222e+04 2.761e-08
 94.72904    132.8 2.204e+04 3.358e-08
 94.73903    132.6 2.217e+04 3.702e-08
 94.74902    132.0 2.228e+04 3.692e-08
 94.75902    131.2 2.223e+04 3.525e-08
 94.76683    130.3 2.193e+04 3.006e-08
 94.77183    129.5 2.143e+04 2.581e-08
 94.77900    128.6 2.093e+04 2.091e-08
 94.79404    128.1 2.040e+04 1.659e-08
 94.81069    126.0 1.862e+04 9.852e-09
 94.82069    124.2 1.721e+04 6.935e-09
 94.82946    121.8 1.505e+04 4.133e-09
 94.83945    119.9 1.385e+04 2.075e-09
 94.85405    118.9 1.273e+04 1.565e-09
 94.87403    118.9 1.244e+04 1.426e-09
 94.89402    119.2 1.230e+04 1.396e-09
 94.92410    119.8 1.173e+04 1.060e-09
 94.96416    120.9 1.147e+04 9.834e-10
 94.99593    122.2 1.128e+04 9.037e-10
 95.01591    122.6 1.095e+04 7.626e-10
 95.04411    124.1 1.102e+04 8.097e-10
 95.08408    125.7 1.100e+04 8.029e-10
 95.12405    127.3 1.086e+04 7.528e-10
 95.16402    129.0 1.064e+04 6.669e-10
 95.19096    130.9 1.038e+04 5.606e-10
 95.21094    131.2 1.039e+04 6.326e-10
 95.24397    133.0 1.020e+04 5.612e-10
 95.28394    134.7 1.002e+04 4.986e-10
 95.32391    136.5 9.887e+03 4.469e-10
 95.36388    138.1 9.781e+03 4.010e-10
 95.38599    139.8 9.689e+03 3.533e-10
 95.40597    139.8 9.987e+03 4.540e-10
 95.44382    141.0 9.893e+03 3.769e-10
 95.48379    142.0 9.804e+03 3.074e-10
 95.52377    142.9 9.802e+03 2.798e-10
 95.55927    143.8 9.818e+03 2.814e-10
 95.57654    143.8 9.617e+03 2.730e-10
 95.58102    142.9 9.927e+03 2.887e-10
 95.60371    143.6 1.005e+04 3.135e-10
 95.64368    144.3 1.022e+04 3.716e-10
 95.68365    145.1 1.038e+04 4.507e-10
 95.72362    146.0 1.057e+04 5.410e-10
 95.75606    146.8 1.080e+04 6.313e-10
 95.77605    146.3 1.038e+04 5.018e-10
 95.80357    147.0 1.051e+04 5.278e-10
 95.84354    147.6 1.066e+04 5.538e-10
 95.88351    148.1 1.076e+04 5.708e-10
 95.92348    148.7 1.077e+04 5.746e-10
 95.95109    149.5 1.075e+04 5.639e-10
 95.96099    149.7 1.059e+04 5.311e-10
 95.97325    150.1 1.069e+04 5.540e-10
 95.99324    150.5 1.071e+04 5.690e-10
 96.01322    151.0 1.067e+04 5.745e-10
 96.03321    151.5 1.064e+04 5.805e-10
 96.04841    152.2 1.062e+04 5.880e-10
 96.05840    152.7 1.066e+04 5.986e-10
 96.07318    153.4 1.071e+04 6.230e-10
 96.09316    154.2 1.076e+04 6.480e-10
 96.11315    155.1 1.081e+04 6.711e-10
 96.13314    155.9 1.087e+04 6.948e-10
 96.14592    156.8 1.097e+04 7.256e-10
 96.15592    156.9 1.143e+04 8.053e-10
 96.17311    157.6 1.175e+04 8.881e-10
 96.19309    157.8 1.222e+04 1.033e-09
 96.21308    157.7 1.292e+04 1.308e-09
 96.23307    157.0 1.398e+04 1.863e-09
 96.24344    156.0 1.514e+04 3.006e-09
 96.25343    155.4 1.501e+04 3.279e-09
 96.27304    154.8 1.595e+04 5.057e-09
 96.29302    154.4 1.680e+04 7.258e-09
 96.30867    153.6 1.751e+04 8.692e-09
 96.31866    153.0 1.742e+04 8.428e-09
 96.33096    151.1 1.751e+04 8.196e-09
 96.34095    151.1 1.586e+04 4.337e-09
 96.35298    148.5 1.576e+04 3.794e-09
 96.37297    145.5 1.572e+04 3.754e-09
 96.39295    142.8 1.575e+04 4.022e-09
 96.40789    141.8 1.570e+04 4.349e-09
 96.41784    141.6 1.567e+04 4.512e-09
 96.42783    141.5 1.576e+04 4.832e-09
 96.43338    141.4 1.609e+04 5.365e-09
 96.43842    142.2 1.554e+04 4.553e-09
 96.44786    142.0 1.603e+04 5.434e-09
 96.45781    141.9 1.659e+04 6.343e-09
 96.46780    141.8 1.716e+04 7.298e-09
 96.47714    141.7 1.757e+04 8.042e-09
 96.48213    142.5 1.717e+04 7.263e-09
 96.48779    142.4 1.741e+04 7.699e-09
 96.49597    142.3 1.750e+04 7.830e-09
 96.50096    142.1 1.790e+04 8.187e-09
 96.50777    140.9 1.883e+04 9.039e-09
 96.51776    137.8 2.154e+04 1.169e-08
 96.52589    133.4 2.466e+04 1.904e-08
 96.53089    132.8 2.530e+04 2.022e-08
 96.53775    128.4 2.531e+04 4.007e-08
 96.54774    126.3 2.378e+04 8.293e-08
 96.55774    126.3 2.260e+04 1.658e-07
 96.56773    126.4 2.201e+04 2.759e-07
 96.57465    126.1 2.229e+04 3.111e-07
 96.57965    126.2 2.242e+04 2.588e-07
 96.58772    125.2 2.255e+04 2.377e-07
 96.59771    124.4 2.290e+04 1.634e-07
 96.60770    123.4 2.379e+04 8.156e-08
 96.61769    121.2 2.558e+04 2.986e-08
 96.62341    116.5 2.693e+04 1.004e-08
 96.62841    118.3 2.603e+04 8.040e-09
 96.63768    112.9 2.558e+04 3.314e-09
 96.65272    106.4 1.915e+04 1.721e-09
 96.67275    100.9 1.272e+04 1.376e-09
 96.68346    101.1 1.198e+04 1.316e-09
 96.69346    101.7 1.173e+04 9.590e-10
 96.71103    102.8 1.160e+04 9.676e-10
 96.72102    104.0 1.128e+04 7.897e-10
 96.73271    104.9 1.123e+04 8.109e-10
 96.75270    105.8 1.122e+04 8.524e-10
 96.77268    106.7 1.128e+04 9.153e-10
 96.79267    107.5 1.141e+04 1.001e-09
 96.80854    108.3 1.163e+04 1.111e-09
 96.81854    108.5 1.124e+04 8.589e-10
 96.83264    109.1 1.134e+04 9.177e-10
 96.85262    109.7 1.146e+04 9.843e-10
 96.87261    110.2 1.163e+04 1.058e-09
 96.89260    110.7 1.185e+04 1.146e-09
 96.90606    111.1 1.216e+04 1.261e-09
 96.91605    111.6 1.099e+04 8.411e-10
 96.93257    112.3 1.109e+04 8.601e-10
 96.95255    113.0 1.132e+04 8.948e-10
 96.97254    113.6 1.166e+04 9.515e-10
 96.99252    114.3 1.206e+04 1.033e-09
 97.00357    114.9 1.239e+04 1.134e-09
 97.01357    115.5 1.078e+04 5.504e-10
 97.03250    115.9 1.096e+04 5.586e-10
 97.04827    116.4 1.111e+04 5.908e-10
 97.05826    115.1 1.018e+04 3.775e-10
 97.07247    115.7 1.030e+04 4.070e-10
 97.09110    116.4 1.045e+04 4.637e-10
 97.10109    116.5 9.721e+03 2.895e-10
 97.11244    117.1 9.833e+03 3.326e-10
 97.13242    117.7 1.000e+04 4.082e-10
 97.15241    118.3 1.023e+04 5.186e-10
 97.17240    119.0 1.053e+04 6.643e-10
 97.18861    119.6 1.088e+04 8.419e-10
 97.19860    119.8 1.036e+04 6.394e-10
 97.21237    120.4 1.071e+04 8.050e-10
 97.23235    120.9 1.103e+04 9.698e-10
 97.25234    121.3 1.131e+04 1.122e-09
 97.27233    121.7 1.158e+04 1.263e-09
 97.28613    122.1 1.185e+04 1.404e-09
 97.29612    122.2 1.119e+04 1.064e-09
 97.31230    122.6 1.136e+04 1.164e-09
 97.33228    122.9 1.154e+04 1.269e-09
 97.35227    123.3 1.172e+04 1.372e-09
 97.37225    123.6 1.190e+04 1.438e-09
 97.38364    123.9 1.194e+04 1.437e-09
 97.39363    124.1 1.143e+04 1.172e-09
 97.41223    124.2 1.145e+04 1.171e-09
 97.42307    124.5 1.143e+04 1.152e-09
 97.43306    124.2 1.137e+04 1.108e-09
 97.45220    124.3 1.139e+04 1.085e-09
 97.47116    124.6 1.136e+04 1.019e-09
 97.49125    126.2 1.098e+04 9.288e-10
 97.52234    127.1 1.100e+04 8.650e-10
 97.56231    127.8 1.107e+04 8.566e-10
 97.60229    128.5 1.129e+04 8.797e-10
 97.64226    129.3 1.169e+04 9.774e-10
 97.66639    130.2 1.202e+04 1.086e-09
 97.68638    132.0 1.165e+04 1.054e-09
 97.72220    132.9 1.197e+04 1.168e-09
 97.76217    133.6 1.204e+04 1.173e-09
 97.78807    134.5 1.196e+04 1.076e-09
 97.80805    135.3 1.243e+04 1.492e-09
 97.84143    136.2 1.226e+04 1.309e-09
 97.86142    137.4 1.274e+04 1.832e-09
 97.87200    137.6 1.258e+04 1.702e-09
 97.89188    138.0 1.237e+04 1.532e-09
 97.91187    138.5 1.213e+04 1.342e-09
 97.93186    139.0 1.188e+04 1.148e-09
 97.94875    139.6 1.167e+04 9.861e-10
 97.95874    139.6 1.212e+04 1.415e-09
 97.97183    140.4 1.204e+04 1.344e-09
 98.00190    141.4 1.185e+04 9.846e-10
 98.03646    142.6 1.163e+04 7.392e-10
 98.05635    143.2 1.219e+04 1.385e-09
 98.07176    143.7 1.204e+04 1.174e-09
 98.09174    144.2 1.184e+04 9.620e-10
 98.11173    144.7 1.160e+04 7.782e-10
 98.13171    145.3 1.132e+04 6.325e-10
 98.14378    145.8 1.102e+04 5.288e-10
 98.15377    145.8 1.108e+04 7.256e-10
 98.16267    146.2 1.081e+04 6.184e-10
 98.17266    145.9 1.088e+04 6.705e-10
 98.19167    146.4 1.063e+04 6.173e-10
 98.21166    147.0 1.042e+04 6.091e-10
 98.23130    147.8 1.036e+04 6.093e-10
 98.24129    148.0 1.056e+04 7.161e-10
 98.25163    148.8 1.049e+04 7.133e-10
 98.27161    149.7 1.045e+04 7.145e-10
 98.29160    150.6 1.043e+04 7.200e-10
 98.31158    151.6 1.043e+04 7.358e-10
 98.32881    152.7 1.048e+04 7.634e-10
 98.33881    152.8 1.041e+04 7.301e-10
 98.35156    153.7 1.042e+04 7.308e-10
 98.37154    154.6 1.047e+04 7.312e-10
 98.39153    155.5 1.052e+04 7.353e-10
 98.41151    156.3 1.058e+04 7.443e-10
 98.42633    157.0 1.068e+04 7.654e-10
 98.43632    156.2 1.056e+04 7.251e-10
 98.45149    156.7 1.076e+04 8.084e-10
 98.47147    157.0 1.106e+04 9.496e-10
 98.49146    157.1 1.142e+04 1.166e-09
 98.51144    157.2 1.181e+04 1.474e-09
 98.52384    157.3 1.225e+04 1.900e-09
 98.52988    157.1 1.253e+04 2.361e-09
 98.53747    157.1 1.223e+04 2.058e-09
 98.55141    157.5 1.272e+04 2.481e-09
 98.57140    157.7 1.316e+04 2.888e-09
 98.59139    157.7 1.351e+04 3.184e-09
 98.61137    157.6 1.361e+04 3.191e-09
 98.63135    156.6 1.315e+04 2.401e-09
 98.65134    156.0 1.278e+04 2.037e-09
 98.67133    155.3 1.231e+04 1.708e-09
 98.69131    154.5 1.188e+04 1.462e-09
 98.70888    153.7 1.156e+04 1.290e-09
 98.71887    152.6 1.105e+04 1.048e-09
 98.73129    152.1 1.093e+04 9.720e-10
 98.75127    151.6 1.084e+04 9.094e-10
 98.77126    151.1 1.074e+04 8.584e-10
 98.79124    150.5 1.063e+04 8.238e-10
 98.80640    149.9 1.054e+04 8.187e-10
 98.81639    149.3 1.050e+04 8.074e-10
 98.83121    148.8 1.051e+04 8.360e-10
 98.85120    148.3 1.058e+04 9.027e-10
 98.87119    147.8 1.073e+04 1.004e-09
 98.89117    147.5 1.093e+04 1.134e-09
 98.90227    147.3 1.116e+04 1.270e-09
 98.90502    147.6 1.125e+04 1.288e-09
 98.91390    147.4 1.141e+04 1.357e-09
 98.93114    146.8 1.150e+04 1.358e-09
 98.95113    146.0 1.148e+04 1.314e-09
 98.97112    145.3 1.136e+04 1.222e-09
 98.99110    144.5 1.113e+04 1.057e-09
 99.00143    144.0 1.087e+04 9.112e-10
 99.01142    143.3 1.086e+04 8.744e-10
 99.04116    142.1 1.035e+04 6.883e-10
 99.08123    141.1 1.023e+04 6.759e-10
 99.12120    140.7 1.032e+04 7.436e-10
 99.16118    140.7 1.064e+04 9.169e-10
 99.18666    141.2 1.092e+04 1.073e-09
 99.20664    140.6 1.094e+04 1.099e-09
 99.24112    141.2 1.089e+04 1.051e-09
 99.26727    141.9 1.065e+04 8.635e-10
 99.28726    141.2 9.962e+03 5.215e-10
 99.32106    141.8 9.583e+03 3.825e-10
 99.36103    142.4 9.181e+03 2.730e-10
 99.38169    142.9 8.793e+03 1.957e-10
 99.40167    143.0 8.885e+03 2.035e-10
 99.44098    143.6 8.770e+03 1.763e-10
 99.48095    144.2 8.790e+03 1.779e-10
 99.52092    144.7 8.901e+03 1.945e-10
 99.55673    144.9 9.136e+03 2.422e-10
 99.57672    144.3 9.815e+03 4.007e-10
 99.60086    144.5 9.974e+03 4.665e-10
 99.64083    145.0 1.007e+04 5.079e-10
 99.68080    145.5 1.004e+04 4.873e-10
 99.72078    146.0 9.930e+03 4.283e-10
 99.75176    146.2 9.699e+03 3.597e-10
 99.77175    145.6 9.702e+03 3.105e-10
 99.80072    145.6 9.300e+03 2.511e-10
 99.84069    145.8 9.152e+03 2.507e-10
 99.88066    146.0 9.187e+03 2.707e-10
 99.92063    146.1 9.371e+03 3.220e-10
 99.94679    146.0 9.547e+03 3.701e-10
 99.96678    146.0 9.255e+03 2.706e-10
 99.99689    145.7 9.414e+03 2.974e-10
