# Columns:
#   distance along LOS (in CHIMPs)
#   peculiar velocity  (in km/s)
#   temperature (K)
#   HI number density
# pos=(17.0289,10.7221,16.1149), angles=(1.25308,3.10267)
  0.00257   -265.0 1.091e+04 2.843e-10
  0.02572   -264.3 1.082e+04 2.462e-10
  0.05712   -263.4 1.077e+04 2.120e-10
  0.07770   -263.3 1.075e+04 2.147e-10
  0.10295   -262.5 1.071e+04 1.817e-10
  0.12352   -261.9 1.061e+04 1.730e-10
  0.14918   -261.1 1.059e+04 1.490e-10
  0.18137   -260.4 1.058e+04 1.330e-10
  0.20194   -260.1 1.049e+04 1.214e-10
  0.23148   -259.4 1.051e+04 1.172e-10
  0.27263   -258.8 1.053e+04 1.166e-10
  0.30562   -258.5 1.071e+04 1.246e-10
  0.32619   -258.5 1.072e+04 1.223e-10
  0.35494   -258.5 1.091e+04 1.455e-10
  0.39609   -258.7 1.106e+04 1.734e-10
  0.42986   -259.0 1.118e+04 2.030e-10
  0.45044   -259.2 1.118e+04 1.916e-10
  0.47839   -259.5 1.121e+04 2.120e-10
  0.51954   -259.8 1.116e+04 2.341e-10
  0.55411   -259.9 1.108e+04 2.661e-10
  0.57469   -259.7 1.096e+04 2.162e-10
  0.60185   -259.5 1.088e+04 2.460e-10
  0.64300   -259.3 1.096e+04 2.980e-10
  0.67836   -259.2 1.120e+04 3.767e-10
  0.69893   -258.8 1.103e+04 2.898e-10
  0.72530   -258.8 1.138e+04 3.837e-10
  0.76645   -258.9 1.175e+04 5.149e-10
  0.80261   -259.7 1.205e+04 6.590e-10
  0.82318   -259.2 1.189e+04 5.584e-10
  0.84876   -260.4 1.203e+04 6.943e-10
  0.88991   -261.9 1.198e+04 7.536e-10
  0.92685   -263.3 1.190e+04 7.578e-10
  0.94743   -262.6 1.179e+04 6.987e-10
  0.97221   -263.7 1.142e+04 6.660e-10
  1.01336   -264.5 1.097e+04 5.092e-10
  1.05110   -265.1 1.063e+04 3.629e-10
  1.07168   -264.0 1.058e+04 3.441e-10
  1.09567   -264.4 1.037e+04 2.523e-10
  1.13682   -264.7 1.023e+04 2.110e-10
  1.16635   -264.8 1.011e+04 1.974e-10
  1.18430   -264.3 1.012e+04 2.039e-10
  1.19593   -263.1 1.010e+04 1.833e-10
  1.21912   -263.2 9.995e+03 1.742e-10
  1.26027   -263.1 9.899e+03 1.679e-10
  1.29960   -262.9 9.797e+03 1.586e-10
  1.32017   -261.5 9.808e+03 1.520e-10
  1.34258   -261.2 9.700e+03 1.424e-10
  1.38373   -260.8 9.575e+03 1.266e-10
  1.42384   -260.1 9.453e+03 1.083e-10
  1.44442   -258.6 9.503e+03 1.148e-10
  1.46603   -257.8 9.412e+03 9.866e-11
  1.50718   -256.9 9.333e+03 8.527e-11
  1.54809   -255.9 9.268e+03 7.572e-11
  1.56867   -254.4 9.354e+03 8.377e-11
  1.58949   -253.5 9.312e+03 7.693e-11
  1.63064   -252.6 9.287e+03 7.247e-11
  1.67179   -251.8 9.270e+03 6.985e-11
  1.69292   -251.0 9.257e+03 6.885e-11
  1.71349   -249.5 9.321e+03 7.525e-11
  1.75409   -248.8 9.286e+03 7.266e-11
  1.79525   -248.0 9.268e+03 7.186e-11
  1.81716   -247.2 9.261e+03 7.497e-11
  1.83774   -245.6 9.293e+03 7.378e-11
  1.87755   -244.8 9.246e+03 7.602e-11
  1.91870   -243.9 9.254e+03 7.866e-11
  1.94141   -242.9 9.207e+03 8.451e-11
  1.96199   -241.4 9.262e+03 7.985e-11
  2.00101   -240.4 9.218e+03 8.553e-11
  2.04216   -239.3 9.227e+03 9.157e-11
  2.06566   -238.3 9.279e+03 9.790e-11
  2.08624   -237.1 9.316e+03 9.382e-11
  2.12446   -236.2 9.408e+03 1.031e-10
  2.16561   -235.5 9.517e+03 1.178e-10
  2.18991   -235.0 9.638e+03 1.459e-10
  2.21048   -234.1 9.677e+03 1.505e-10
  2.22975   -233.6 9.829e+03 2.047e-10
  2.25032   -234.4 9.984e+03 2.844e-10
  2.28907   -233.8 1.014e+04 3.641e-10
  2.31415   -233.3 1.027e+04 4.264e-10
  2.33473   -232.8 1.027e+04 4.304e-10
  2.37137   -232.5 1.032e+04 4.566e-10
  2.41252   -232.2 1.033e+04 4.602e-10
  2.43840   -231.8 1.025e+04 4.441e-10
  2.45898   -231.2 1.024e+04 4.461e-10
  2.49483   -230.6 1.012e+04 3.906e-10
  2.53598   -229.8 9.986e+03 3.222e-10
  2.56265   -228.9 9.838e+03 2.570e-10
  2.58323   -228.5 9.796e+03 2.549e-10
  2.61828   -227.4 9.621e+03 1.990e-10
  2.65943   -226.2 9.452e+03 1.591e-10
  2.68690   -224.9 9.334e+03 1.359e-10
  2.70747   -224.5 9.326e+03 1.357e-10
  2.74174   -223.1 9.287e+03 1.260e-10
  2.78289   -221.7 9.282e+03 1.236e-10
  2.81115   -220.4 9.285e+03 1.233e-10
  2.83172   -220.1 9.288e+03 1.235e-10
  2.86519   -218.9 9.348e+03 1.243e-10
  2.90634   -217.7 9.418e+03 1.306e-10
  2.93539   -216.4 9.467e+03 1.411e-10
  2.95597   -216.3 9.564e+03 1.492e-10
  2.98865   -214.9 9.602e+03 1.652e-10
  3.02980   -213.3 9.634e+03 1.809e-10
  3.05964   -211.6 9.672e+03 1.931e-10
  3.08022   -211.6 9.661e+03 2.199e-10
  3.11210   -209.9 9.677e+03 2.249e-10
  3.15325   -208.4 9.730e+03 2.348e-10
  3.18389   -207.1 9.892e+03 2.661e-10
  3.20446   -207.1 9.859e+03 2.780e-10
  3.23556   -205.9 1.019e+04 3.472e-10
  3.27257   -204.9 1.054e+04 4.712e-10
  3.29315   -204.8 1.065e+04 4.674e-10
  3.30814   -204.6 1.113e+04 6.937e-10
  3.32871   -205.1 1.065e+04 6.010e-10
  3.35901   -206.5 1.186e+04 1.111e-09
  3.38045   -207.5 1.269e+04 1.812e-09
  3.39064   -208.7 1.290e+04 1.838e-09
  3.41026   -210.0 1.438e+04 3.313e-09
  3.43083   -211.0 1.591e+04 6.078e-09
  3.44248   -211.9 1.720e+04 9.981e-09
  3.45276   -213.5 1.680e+04 9.247e-09
  3.47198   -215.2 1.708e+04 1.052e-08
  3.49256   -217.1 1.702e+04 1.057e-08
  3.50460   -218.3 1.625e+04 8.034e-09
  3.51489   -219.7 1.508e+04 5.366e-09
  3.53371   -220.8 1.389e+04 3.031e-09
  3.55429   -222.3 1.262e+04 1.588e-09
  3.56672   -223.6 1.161e+04 8.929e-10
  3.57701   -223.9 1.111e+04 7.754e-10
  3.59544   -224.0 1.066e+04 5.281e-10
  3.61601   -223.8 1.041e+04 4.036e-10
  3.64698   -222.5 1.030e+04 3.482e-10
  3.68088   -222.0 1.032e+04 3.417e-10
  3.70146   -222.0 1.021e+04 3.304e-10
  3.72938   -221.3 1.019e+04 3.293e-10
  3.77053   -220.7 1.037e+04 3.974e-10
  3.80513   -220.0 1.081e+04 5.783e-10
  3.82570   -220.0 1.084e+04 6.446e-10
  3.85283   -219.5 1.124e+04 8.362e-10
  3.89398   -219.1 1.139e+04 8.853e-10
  3.92475   -218.8 1.145e+04 8.003e-10
  3.93947   -218.7 1.127e+04 6.081e-10
  3.94985   -219.0 1.147e+04 8.285e-10
  3.96590   -218.6 1.114e+04 4.709e-10
  3.98638   -218.6 1.082e+04 3.366e-10
  4.00159   -218.5 1.063e+04 2.853e-10
  4.01188   -218.4 1.072e+04 2.980e-10
  4.02753   -218.1 1.058e+04 2.711e-10
  4.05353   -218.1 1.055e+04 2.511e-10
  4.07410   -217.2 1.064e+04 2.408e-10
  4.09964   -216.9 1.081e+04 2.239e-10
  4.14089   -215.6 1.054e+04 1.856e-10
  4.17787   -214.5 1.036e+04 1.695e-10
  4.19845   -215.0 1.117e+04 2.157e-10
  4.22320   -215.0 1.118e+04 1.949e-10
  4.26435   -215.8 1.181e+04 2.425e-10
  4.30212   -216.4 1.233e+04 4.896e-10
  4.32269   -217.9 1.302e+04 1.200e-09
  4.33587   -217.4 1.264e+04 1.221e-09
  4.35645   -214.7 1.254e+04 6.965e-10
  4.38780   -214.5 1.258e+04 1.101e-09
  4.42637   -214.2 1.249e+04 1.456e-09
  4.44694   -215.0 1.268e+04 1.838e-09
  4.47011   -214.1 1.263e+04 1.879e-09
  4.51126   -213.4 1.259e+04 1.883e-09
  4.55061   -212.7 1.251e+04 1.806e-09
  4.57119   -213.1 1.276e+04 2.051e-09
  4.59356   -212.5 1.274e+04 1.939e-09
  4.63471   -212.1 1.261e+04 1.644e-09
  4.67486   -211.7 1.227e+04 1.245e-09
  4.69544   -212.0 1.265e+04 1.525e-09
  4.71702   -211.3 1.216e+04 1.116e-09
  4.75817   -210.2 1.163e+04 7.875e-10
  4.79911   -208.6 1.122e+04 5.761e-10
  4.81969   -208.5 1.146e+04 7.308e-10
  4.84047   -206.4 1.114e+04 5.743e-10
  4.88162   -204.2 1.101e+04 4.896e-10
  4.92278   -202.0 1.094e+04 4.412e-10
  4.94393   -199.6 1.091e+04 4.160e-10
  4.96451   -199.2 1.090e+04 4.052e-10
  5.00508   -196.8 1.087e+04 3.703e-10
  5.04623   -194.4 1.084e+04 3.440e-10
  5.06818   -192.1 1.083e+04 3.217e-10
  5.08876   -191.5 1.075e+04 2.693e-10
  5.12853   -189.0 1.074e+04 2.462e-10
  5.16969   -186.6 1.075e+04 2.276e-10
  5.19243   -184.0 1.077e+04 2.142e-10
  5.21300   -183.2 1.067e+04 1.842e-10
  5.25199   -180.6 1.071e+04 1.789e-10
  5.29314   -178.0 1.073e+04 1.783e-10
  5.31668   -175.6 1.080e+04 1.783e-10
  5.33725   -174.8 1.068e+04 1.633e-10
  5.37545   -172.6 1.100e+04 1.806e-10
  5.39937   -170.7 1.108e+04 2.360e-10
  5.41995   -170.0 1.132e+04 3.600e-10
  5.44092   -168.2 1.144e+04 4.476e-10
  5.46150   -167.4 1.135e+04 4.036e-10
  5.49890   -165.7 1.148e+04 5.009e-10
  5.54005   -164.2 1.159e+04 5.920e-10
  5.56517   -162.9 1.167e+04 6.509e-10
  5.58575   -161.7 1.162e+04 6.116e-10
  5.62236   -160.2 1.165e+04 6.248e-10
  5.66351   -159.0 1.161e+04 6.096e-10
  5.68942   -157.9 1.151e+04 5.491e-10
  5.71000   -156.6 1.147e+04 5.163e-10
  5.74581   -155.0 1.140e+04 4.598e-10
  5.78696   -153.1 1.143e+04 4.252e-10
  5.81367   -151.4 1.146e+04 4.155e-10
  5.83424   -150.3 1.145e+04 4.158e-10
  5.86927   -148.7 1.151e+04 4.253e-10
  5.91042   -147.3 1.160e+04 4.481e-10
  5.93791   -145.9 1.167e+04 4.937e-10
  5.95849   -145.0 1.166e+04 5.098e-10
  5.99272   -143.6 1.169e+04 5.553e-10
  6.02349   -142.2 1.165e+04 6.326e-10
  6.04396   -141.2 1.170e+04 6.828e-10
  6.06197   -140.4 1.177e+04 7.236e-10
  6.07226   -140.0 1.169e+04 7.093e-10
  6.08512   -139.1 1.172e+04 7.317e-10
  6.11608   -138.1 1.170e+04 7.339e-10
  6.14694   -136.4 1.164e+04 7.518e-10
  6.16742   -135.9 1.162e+04 7.656e-10
  6.18622   -135.0 1.158e+04 7.890e-10
  6.19650   -134.4 1.152e+04 7.501e-10
  6.20857   -133.6 1.150e+04 7.557e-10
  6.22915   -132.9 1.146e+04 7.585e-10
  6.24834   -132.3 1.123e+04 7.484e-10
  6.25863   -131.8 1.129e+04 7.142e-10
  6.27030   -130.8 1.105e+04 7.193e-10
  6.29088   -129.7 1.099e+04 6.542e-10
  6.31056   -128.7 1.087e+04 5.517e-10
  6.33123   -127.8 1.088e+04 5.948e-10
  6.36309   -126.3 1.065e+04 4.885e-10
  6.40424   -124.2 1.033e+04 3.597e-10
  6.43491   -122.0 1.006e+04 2.533e-10
  6.45229   -120.8 1.012e+04 2.965e-10
  6.46277   -121.0 1.044e+04 4.134e-10
  6.48654   -118.5 1.015e+04 3.013e-10
  6.52769   -116.1 9.937e+03 2.258e-10
  6.55915   -113.6 9.744e+03 1.790e-10
  6.57973   -112.7 9.845e+03 1.932e-10
  6.61000   -110.2 9.717e+03 1.627e-10
  6.65115   -107.6 9.616e+03 1.483e-10
  6.68340   -104.9 9.573e+03 1.435e-10
  6.70398   -104.2 9.703e+03 1.603e-10
  6.73345   -101.5 9.687e+03 1.573e-10
  6.77460    -98.8 9.689e+03 1.568e-10
  6.80765    -96.4 9.763e+03 1.582e-10
  6.82822    -96.1 9.881e+03 1.875e-10
  6.85691    -94.3 1.012e+04 2.256e-10
  6.89806    -92.8 1.036e+04 3.501e-10
  6.93190    -91.3 1.075e+04 6.011e-10
  6.95247    -90.9 1.071e+04 5.639e-10
  6.98036    -89.5 1.108e+04 7.936e-10
  7.02151    -88.6 1.142e+04 1.004e-09
  7.05614    -88.2 1.170e+04 1.144e-09
  7.07672    -87.8 1.139e+04 8.438e-10
  7.10382    -87.7 1.167e+04 9.476e-10
  7.14497    -87.7 1.199e+04 1.091e-09
  7.17573    -87.2 1.223e+04 1.197e-09
  7.19048    -87.0 1.228e+04 1.236e-09
  7.20087    -86.9 1.223e+04 1.171e-09
  7.21689    -86.7 1.237e+04 1.290e-09
  7.23736    -86.3 1.240e+04 1.312e-09
  7.25261    -86.1 1.235e+04 1.318e-09
  7.26290    -85.8 1.244e+04 1.332e-09
  7.27852    -85.3 1.232e+04 1.291e-09
  7.29909    -85.1 1.206e+04 1.140e-09
  7.31473    -84.8 1.174e+04 9.403e-10
  7.32502    -84.4 1.193e+04 1.044e-09
  7.34024    -83.9 1.152e+04 8.312e-10
  7.36082    -83.1 1.132e+04 6.535e-10
  7.39178    -82.4 1.135e+04 5.311e-10
  7.42889    -81.9 1.128e+04 4.698e-10
  7.44946    -81.0 1.135e+04 5.270e-10
  7.47418    -80.1 1.116e+04 4.529e-10
  7.50560    -78.9 1.099e+04 3.807e-10
  7.52617    -79.3 1.100e+04 4.041e-10
  7.55314    -78.2 1.102e+04 3.668e-10
  7.57371    -77.9 1.116e+04 4.068e-10
  7.59764    -76.9 1.120e+04 3.774e-10
  7.63879    -76.1 1.133e+04 3.883e-10
  7.67738    -75.2 1.148e+04 4.376e-10
  7.69796    -74.6 1.141e+04 3.645e-10
  7.72109    -73.6 1.147e+04 3.789e-10
  7.76224    -72.5 1.149e+04 3.925e-10
  7.80163    -71.5 1.146e+04 3.858e-10
  7.82221    -70.6 1.120e+04 2.600e-10
  7.84455    -69.5 1.120e+04 2.439e-10
  7.88570    -68.7 1.133e+04 2.307e-10
  7.92588    -68.0 1.140e+04 2.306e-10
  7.94645    -67.5 1.156e+04 2.732e-10
  7.96800    -66.9 1.159e+04 3.546e-10
  8.00915    -66.2 1.159e+04 4.549e-10
  8.05013    -65.4 1.165e+04 5.343e-10
  8.09128    -63.6 1.172e+04 7.836e-10
  8.13261    -62.7 1.156e+04 6.050e-10
  8.17376    -62.0 1.140e+04 4.927e-10
  8.19495    -61.3 1.132e+04 4.618e-10
  8.21553    -60.8 1.114e+04 3.858e-10
  8.25606    -60.1 1.122e+04 4.138e-10
  8.29722    -59.4 1.146e+04 5.280e-10
  8.31920    -58.6 1.162e+04 6.111e-10
  8.33977    -57.8 1.144e+04 5.421e-10
  8.37952    -57.2 1.147e+04 5.325e-10
  8.42067    -56.9 1.145e+04 4.446e-10
  8.44345    -57.0 1.145e+04 4.098e-10
  8.46402    -56.3 1.141e+04 2.904e-10
  8.50297    -56.6 1.148e+04 3.089e-10
  8.54413    -56.7 1.151e+04 4.953e-10
  8.56769    -56.0 1.155e+04 7.430e-10
  8.57199    -55.8 1.136e+04 5.133e-10
  8.58957    -56.1 1.137e+04 7.038e-10
  8.62643    -55.3 1.154e+04 7.860e-10
  8.66758    -55.0 1.168e+04 7.549e-10
  8.69194    -55.1 1.180e+04 6.103e-10
  8.71252    -54.6 1.168e+04 5.346e-10
  8.74988    -55.2 1.182e+04 4.909e-10
  8.79104    -56.5 1.193e+04 5.115e-10
  8.81619    -58.1 1.208e+04 7.793e-10
  8.83676    -57.3 1.191e+04 5.526e-10
  8.87334    -58.7 1.209e+04 8.537e-10
  8.91449    -59.4 1.226e+04 1.096e-09
  8.94044    -59.8 1.225e+04 1.118e-09
  8.96101    -59.2 1.188e+04 8.024e-10
  8.99680    -59.0 1.163e+04 6.240e-10
  9.03795    -58.4 1.137e+04 3.963e-10
  9.06468    -58.0 1.113e+04 3.033e-10
  9.08526    -57.1 1.107e+04 2.550e-10
  9.12025    -56.2 1.103e+04 2.371e-10
  9.16140    -55.3 1.106e+04 2.421e-10
  9.18893    -54.4 1.107e+04 3.019e-10
  9.20951    -53.4 1.106e+04 2.944e-10
  9.24371    -52.1 1.106e+04 3.824e-10
  9.28486    -50.6 1.108e+04 4.375e-10
  9.31318    -49.2 1.105e+04 4.439e-10
  9.33376    -48.1 1.107e+04 4.233e-10
  9.36716    -46.5 1.089e+04 3.828e-10
  9.40831    -44.7 1.078e+04 2.748e-10
  9.43743    -43.1 1.070e+04 1.895e-10
  9.45800    -42.2 1.068e+04 1.889e-10
  9.49062    -40.5 1.057e+04 1.374e-10
  9.53177    -38.6 1.049e+04 1.015e-10
  9.56168    -36.5 1.050e+04 7.377e-11
  9.58225    -35.7 1.045e+04 8.188e-11
  9.61182    -33.6 1.050e+04 6.179e-11
  9.63240    -33.7 1.047e+04 7.638e-11
  9.65522    -31.7 1.044e+04 6.821e-11
  9.68592    -29.7 1.045e+04 6.745e-11
  9.70650    -28.9 1.043e+04 7.919e-11
  9.73753    -26.8 1.047e+04 8.165e-11
  9.77868    -24.7 1.036e+04 1.040e-10
  9.81017    -22.4 1.034e+04 1.310e-10
  9.83075    -21.1 1.045e+04 1.146e-10
  9.86098    -18.8 1.052e+04 1.262e-10
  9.90213    -16.8 1.068e+04 1.450e-10
  9.93442    -14.8 1.080e+04 1.708e-10
  9.95499    -14.5 1.100e+04 1.454e-10
  9.98444    -12.2 1.088e+04 1.922e-10
 10.02559     -9.9 1.090e+04 2.036e-10
 10.05867     -7.7 1.080e+04 1.828e-10
 10.07924     -7.3 1.085e+04 2.207e-10
 10.10789     -5.5 1.091e+04 1.984e-10
 10.14904     -4.3 1.109e+04 2.242e-10
 10.18291     -3.9 1.141e+04 3.232e-10
 10.20349     -3.6 1.167e+04 4.608e-10
 10.23135     -2.2 1.185e+04 8.743e-10
 10.27250     -0.3 1.206e+04 1.241e-09
 10.30716      1.7 1.190e+04 1.095e-09
 10.32774      2.0 1.177e+04 1.084e-09
 10.35480      4.1 1.127e+04 6.241e-10
 10.39595      5.4 1.118e+04 3.264e-10
 10.43141      5.9 1.117e+04 2.107e-10
 10.45199      6.6 1.101e+04 1.723e-10
 10.47826      8.2 1.093e+04 1.679e-10
 10.51941      9.8 1.108e+04 1.839e-10
 10.55566     11.0 1.126e+04 2.495e-10
 10.57623     11.9 1.114e+04 2.333e-10
 10.60171     13.2 1.117e+04 4.393e-10
 10.64286     15.2 1.140e+04 8.505e-10
 10.67522     17.2 1.176e+04 1.096e-09
 10.69168     17.2 1.162e+04 7.766e-10
 10.70048     18.2 1.174e+04 7.842e-10
 10.72517     19.6 1.187e+04 8.098e-10
 10.76632     20.9 1.176e+04 7.324e-10
 10.80415     21.8 1.164e+04 5.626e-10
 10.82473     22.4 1.194e+04 6.744e-10
 10.84862     22.9 1.206e+04 5.748e-10
 10.88977     23.0 1.218e+04 5.911e-10
 10.92840     23.4 1.227e+04 6.869e-10
 10.94898     22.9 1.206e+04 6.640e-10
 10.97208     23.7 1.178e+04 7.266e-10
 11.01323     25.0 1.167e+04 6.811e-10
 11.05265     26.5 1.149e+04 5.468e-10
 11.07322     26.4 1.150e+04 3.844e-10
 11.09553     27.7 1.148e+04 2.716e-10
 11.13668     28.6 1.152e+04 1.907e-10
 11.17690     29.5 1.129e+04 1.515e-10
 11.19747     29.3 1.151e+04 1.626e-10
 11.21899     30.8 1.143e+04 1.660e-10
 11.26014     32.3 1.127e+04 1.869e-10
 11.30114     33.8 1.103e+04 2.485e-10
 11.34230     36.0 1.076e+04 4.412e-10
 11.38359     38.1 1.083e+04 4.752e-10
 11.42475     40.0 1.083e+04 4.598e-10
 11.44597     41.9 1.077e+04 4.133e-10
 11.46654     41.8 1.044e+04 3.663e-10
 11.50705     43.5 1.032e+04 3.079e-10
 11.54820     45.3 1.020e+04 2.541e-10
 11.57021     47.2 1.013e+04 2.076e-10
 11.59079     47.3 9.896e+03 2.093e-10
 11.63050     49.2 9.851e+03 1.881e-10
 11.67166     51.1 9.803e+03 1.741e-10
 11.69446     53.1 9.802e+03 1.736e-10
 11.71504     53.5 9.734e+03 1.991e-10
 11.73862     55.4 9.760e+03 2.070e-10
 11.75920     55.4 9.485e+03 1.200e-10
 11.79511     57.3 9.477e+03 1.369e-10
 11.81871     59.2 9.494e+03 1.609e-10
 11.83929     59.6 9.591e+03 1.523e-10
 11.87741     61.4 9.640e+03 1.759e-10
 11.91857     63.2 9.738e+03 2.048e-10
 11.94296     64.7 9.863e+03 2.378e-10
 11.96353     64.8 9.962e+03 2.145e-10
 12.00087     66.1 1.011e+04 2.599e-10
 12.04202     67.3 1.044e+04 3.396e-10
 12.06721     68.5 1.097e+04 5.008e-10
 12.08778     68.6 1.061e+04 4.548e-10
 12.12432     69.7 1.114e+04 7.603e-10
 12.16548     70.7 1.169e+04 1.368e-09
 12.19145     71.9 1.213e+04 2.071e-09
 12.21203     72.4 1.184e+04 2.034e-09
 12.24778     73.6 1.225e+04 2.345e-09
 12.28893     74.4 1.227e+04 2.334e-09
 12.31570     75.2 1.205e+04 2.167e-09
 12.33628     75.9 1.222e+04 2.398e-09
 12.37124     76.7 1.179e+04 1.917e-09
 12.41239     77.8 1.095e+04 1.273e-09
 12.43995     79.0 1.011e+04 7.409e-10
 12.46052     79.6 1.013e+04 6.491e-10
 12.49469     80.1 9.529e+03 3.477e-10
 12.53584     80.5 9.158e+03 2.174e-10
 12.56420     81.3 8.938e+03 1.710e-10
 12.58477     81.6 8.660e+03 2.057e-10
 12.61815     83.0 8.649e+03 2.055e-10
 12.65930     84.6 8.665e+03 2.063e-10
 12.68844     86.1 8.690e+03 2.078e-10
 12.70902     86.9 8.794e+03 3.028e-10
 12.74160     88.2 8.792e+03 3.000e-10
 12.78144     89.6 8.757e+03 2.889e-10
 12.80202     89.3 8.962e+03 3.310e-10
 12.81269     90.8 8.909e+03 3.168e-10
 12.83327     91.6 9.010e+03 3.652e-10
 12.86506     93.1 8.917e+03 3.225e-10
 12.90621     94.6 8.846e+03 2.764e-10
 12.93694     96.0 8.817e+03 2.283e-10
 12.95752     96.1 8.838e+03 1.888e-10
 12.98851     97.1 8.808e+03 1.606e-10
 13.02966     98.0 8.750e+03 1.571e-10
 13.06119     98.9 8.749e+03 1.604e-10
 13.08176     99.1 8.660e+03 1.759e-10
 13.11197    100.0 8.713e+03 2.002e-10
 13.15312    100.8 8.797e+03 2.295e-10
 13.18544    101.6 8.883e+03 2.565e-10
 13.20601    101.9 8.877e+03 2.178e-10
 13.23542    102.5 8.947e+03 2.334e-10
 13.27657    103.0 9.056e+03 2.585e-10
 13.30968    103.4 9.234e+03 3.015e-10
 13.33026    103.3 9.166e+03 2.582e-10
 13.35888    103.7 9.407e+03 3.363e-10
 13.40003    104.0 9.701e+03 4.358e-10
 13.43393    103.8 9.994e+03 5.401e-10
 13.45451    103.7 1.006e+04 5.606e-10
 13.48233    103.3 1.055e+04 7.152e-10
 13.52348    102.7 1.110e+04 8.175e-10
 13.55818    101.6 1.127e+04 8.186e-10
 13.57875    101.1 1.156e+04 1.146e-09
 13.60579     99.9 1.153e+04 1.080e-09
 13.64694     99.2 1.133e+04 7.775e-10
 13.68243     98.6 1.110e+04 4.028e-10
 13.70300     97.9 1.100e+04 6.565e-10
 13.72924     97.3 1.065e+04 3.355e-10
 13.77039     96.7 1.018e+04 2.226e-10
 13.80667     96.8 9.848e+03 2.143e-10
 13.82725     97.3 1.001e+04 3.015e-10
 13.84484     98.1 9.823e+03 2.487e-10
 13.86542     98.5 9.798e+03 2.655e-10
 13.89385     99.4 9.552e+03 2.505e-10
 13.93092    100.5 9.414e+03 2.332e-10
 13.95150    100.9 9.494e+03 1.775e-10
 13.97615    101.8 9.476e+03 1.495e-10
 14.01730    102.7 9.503e+03 1.333e-10
 14.05517    103.7 9.529e+03 1.221e-10
 14.07575    103.8 9.468e+03 1.079e-10
 14.09961    104.9 9.456e+03 1.037e-10
 14.14076    106.0 9.447e+03 9.383e-11
 14.17942    106.9 9.443e+03 7.884e-11
 14.19999    107.4 9.425e+03 8.337e-11
 14.22306    108.3 9.444e+03 6.830e-11
 14.26421    108.9 9.464e+03 5.789e-11
 14.30366    109.6 9.468e+03 5.760e-11
 14.32424    110.1 9.550e+03 6.760e-11
 14.34652    110.7 9.588e+03 7.089e-11
 14.38767    111.1 9.753e+03 8.591e-11
 14.42791    111.4 1.003e+04 1.234e-10
 14.44849    110.5 1.057e+04 2.277e-10
 14.45959    110.2 1.069e+04 2.675e-10
 14.48006    110.1 1.074e+04 2.975e-10
 14.50013    109.8 1.087e+04 3.541e-10
 14.51042    108.8 1.142e+04 4.898e-10
 14.52122    108.2 1.170e+04 7.005e-10
 14.54179    107.5 1.206e+04 9.839e-10
 14.56225    106.7 1.251e+04 1.344e-09
 14.57254    105.7 1.314e+04 2.842e-09
 14.58294    104.9 1.365e+04 3.522e-09
 14.60352    104.2 1.400e+04 4.105e-09
 14.62410    103.7 1.398e+04 4.225e-09
 14.63466    103.3 1.389e+04 4.189e-09
 14.64495    102.2 1.384e+04 3.625e-09
 14.66525    102.4 1.331e+04 2.814e-09
 14.68582    102.5 1.281e+04 2.017e-09
 14.69679    102.5 1.245e+04 1.375e-09
 14.70708    100.3 1.221e+04 7.205e-10
 14.72697    100.1 1.188e+04 5.377e-10
 14.74755    100.0 1.134e+04 4.707e-10
 14.75891    100.2 1.110e+04 4.748e-10
 14.76920     99.2 1.101e+04 4.362e-10
 14.78870     99.9 1.099e+04 4.637e-10
 14.80928    100.7 1.107e+04 5.205e-10
 14.82104    101.5 1.122e+04 6.112e-10
 14.83132    100.8 1.125e+04 6.385e-10
 14.85043    101.6 1.149e+04 7.734e-10
 14.87101    102.2 1.173e+04 9.359e-10
 14.88316    102.8 1.200e+04 1.138e-09
 14.89345    102.1 1.206e+04 1.192e-09
 14.90805    102.5 1.233e+04 1.435e-09
 14.91834    102.3 1.221e+04 1.382e-09
 14.93273    102.6 1.253e+04 1.697e-09
 14.94528    102.8 1.287e+04 2.063e-09
 14.95557    102.4 1.272e+04 1.825e-09
 14.97389    102.4 1.302e+04 2.050e-09
 14.99446    102.2 1.336e+04 2.263e-09
 15.00741    101.6 1.374e+04 2.502e-09
 15.01770    100.7 1.356e+04 2.076e-09
 15.03561     99.4 1.395e+04 2.520e-09
 15.05619     98.0 1.426e+04 3.250e-09
 15.06953     97.0 1.443e+04 4.191e-09
 15.07982     96.7 1.428e+04 4.382e-09
 15.09734     96.3 1.455e+04 5.319e-09
 15.11792     95.9 1.459e+04 5.403e-09
 15.13166     95.5 1.454e+04 5.257e-09
 15.14194     95.7 1.450e+04 5.111e-09
 15.15907     95.3 1.441e+04 4.556e-09
 15.17964     94.7 1.430e+04 3.783e-09
 15.19378     93.8 1.417e+04 3.070e-09
 15.20407     92.8 1.404e+04 2.436e-09
 15.22080     91.7 1.386e+04 2.187e-09
 15.24137     90.8 1.362e+04 2.015e-09
 15.25590     90.3 1.337e+04 1.847e-09
 15.26619     89.3 1.336e+04 1.819e-09
 15.28252     89.2 1.317e+04 1.644e-09
 15.30310     89.1 1.295e+04 1.429e-09
 15.31803     88.9 1.273e+04 1.205e-09
 15.33870     88.1 1.275e+04 1.245e-09
 15.37531     88.0 1.271e+04 1.073e-09
 15.40608     87.5 1.282e+04 1.072e-09
 15.42655     86.6 1.328e+04 1.124e-09
 15.43975     84.9 1.410e+04 1.357e-09
 15.44518     84.9 1.392e+04 1.275e-09
 15.45256     81.3 1.489e+04 1.881e-09
 15.46771     79.4 1.492e+04 2.640e-09
 15.48828     78.0 1.483e+04 3.633e-09
 15.50440     77.6 1.488e+04 4.722e-09
 15.51469     76.4 1.492e+04 5.298e-09
 15.52943     76.1 1.507e+04 5.335e-09
 15.55001     75.7 1.503e+04 5.051e-09
 15.56652     75.2 1.483e+04 4.214e-09
 15.57681     73.4 1.411e+04 2.563e-09
 15.59116     72.9 1.346e+04 1.982e-09
 15.62212     71.9 1.262e+04 1.423e-09
 15.66337     72.1 1.206e+04 1.078e-09
 15.69097     72.5 1.164e+04 7.907e-10
 15.71154     71.7 1.099e+04 5.136e-10
 15.74567     72.7 1.073e+04 4.209e-10
 15.78683     73.9 1.057e+04 3.720e-10
 15.81521     75.4 1.049e+04 3.482e-10
 15.83579     75.6 1.025e+04 3.046e-10
 15.86913     77.2 1.026e+04 3.105e-10
 15.91028     78.8 1.028e+04 3.118e-10
 15.93946     80.3 1.031e+04 3.058e-10
 15.95967     80.5 1.022e+04 3.203e-10
 15.97164     80.5 1.023e+04 2.303e-10
 15.99259     81.8 1.033e+04 2.150e-10
 16.03374     83.0 1.042e+04 2.013e-10
 16.06371     84.0 1.046e+04 1.977e-10
 16.08428     84.4 1.051e+04 2.771e-10
 16.11604     85.2 1.058e+04 2.712e-10
 16.15719     86.0 1.063e+04 2.591e-10
 16.18796     86.6 1.061e+04 2.405e-10
 16.20853     86.5 1.078e+04 2.999e-10
 16.23950     86.9 1.070e+04 2.438e-10
 16.28065     87.3 1.064e+04 1.967e-10
 16.31220     87.6 1.064e+04 1.596e-10
 16.33278     87.2 1.078e+04 2.054e-10
 16.36295     87.4 1.078e+04 1.699e-10
 16.40410     87.8 1.081e+04 1.414e-10
 16.43645     88.3 1.084e+04 1.176e-10
 16.45703     88.2 1.082e+04 1.505e-10
 16.48641     88.8 1.085e+04 1.196e-10
 16.52756     89.5 1.075e+04 1.022e-10
 16.56070     90.2 1.058e+04 1.007e-10
 16.58128     89.7 1.067e+04 1.247e-10
 16.60986     90.5 1.062e+04 1.309e-10
 16.65101     91.3 1.058e+04 1.485e-10
 16.68495     92.1 1.053e+04 1.710e-10
 16.70552     91.6 1.056e+04 2.457e-10
 16.73332     92.5 1.052e+04 2.445e-10
 16.77447     93.5 1.042e+04 2.297e-10
 16.80920     94.4 1.035e+04 1.987e-10
 16.82977     94.2 1.023e+04 1.955e-10
 16.85677     95.1 1.004e+04 1.603e-10
 16.89792     96.0 9.986e+03 1.581e-10
 16.93344     97.0 1.001e+04 1.643e-10
 16.95402     97.1 9.876e+03 1.362e-10
 16.98023     98.0 1.005e+04 1.846e-10
 17.01447     98.5 1.045e+04 3.061e-10
 17.03504     97.7 1.063e+04 4.333e-10
 17.05769     97.5 1.109e+04 6.737e-10
 17.07827     97.2 1.125e+04 7.733e-10
 17.10368     96.7 1.187e+04 1.037e-09
 17.14483     95.7 1.209e+04 1.056e-09
 17.18194     94.4 1.206e+04 9.641e-10
 17.20251     93.7 1.210e+04 9.528e-10
 17.22714     92.7 1.178e+04 6.477e-10
 17.26829     92.1 1.133e+04 3.593e-10
 17.30619     91.7 1.096e+04 1.796e-10
 17.32676     90.9 1.100e+04 1.727e-10
 17.35059     90.4 1.075e+04 8.937e-11
 17.39174     90.1 1.007e+04 7.768e-11
 17.43043     90.6 9.983e+03 7.790e-11
 17.45101     90.2 9.928e+03 1.033e-10
 17.47405     91.7 9.881e+03 1.066e-10
 17.51520     93.5 9.846e+03 1.158e-10
 17.55468     95.2 9.845e+03 1.261e-10
 17.57526     95.1 9.892e+03 1.407e-10
 17.59750     96.9 9.912e+03 1.363e-10
 17.63865     98.7 9.904e+03 1.287e-10
 17.67893    100.5 9.860e+03 1.187e-10
 17.69951    100.5 9.773e+03 1.084e-10
 17.72096    102.3 9.769e+03 9.568e-11
 17.76211    104.1 9.781e+03 8.545e-11
 17.80318    105.8 9.792e+03 7.776e-11
 17.84433    107.7 9.757e+03 7.178e-11
 17.88556    109.7 9.762e+03 7.227e-11
 17.92672    111.6 9.786e+03 7.329e-11
 17.94800    113.6 9.839e+03 7.630e-11
 17.96858    113.9 9.841e+03 8.436e-11
 18.00902    115.8 9.894e+03 9.501e-11
 18.05017    117.7 9.958e+03 1.113e-10
 18.07225    119.6 1.004e+04 1.354e-10
 18.07937    120.0 1.004e+04 1.540e-10
 18.09844    119.7 9.970e+03 1.406e-10
 18.13247    121.6 1.009e+04 1.718e-10
 18.17363    123.6 1.025e+04 2.153e-10
 18.19650    125.5 1.047e+04 2.728e-10
 18.21707    125.8 1.043e+04 2.596e-10
 18.25593    127.6 1.071e+04 3.194e-10
 18.29708    129.2 1.102e+04 3.856e-10
 18.32074    130.4 1.133e+04 4.481e-10
 18.34132    130.2 1.136e+04 4.382e-10
 18.37938    131.1 1.161e+04 5.027e-10
 18.42054    131.9 1.176e+04 5.523e-10
 18.44489    132.1 1.182e+04 5.806e-10
 18.45508    131.9 1.176e+04 5.777e-10
 18.47178    132.5 1.182e+04 6.087e-10
 18.49236    133.0 1.198e+04 6.706e-10
 18.50692    133.4 1.216e+04 7.660e-10
 18.51721    133.3 1.211e+04 7.254e-10
 18.53351    133.3 1.228e+04 8.101e-10
 18.55408    133.2 1.239e+04 8.639e-10
 18.56904    133.3 1.247e+04 8.994e-10
 18.58972    133.1 1.224e+04 8.083e-10
 18.62629    132.8 1.222e+04 7.996e-10
 18.66745    132.4 1.213e+04 7.466e-10
 18.69349    131.6 1.200e+04 6.862e-10
 18.71406    131.4 1.201e+04 6.822e-10
 18.74975    130.8 1.191e+04 6.582e-10
 18.79090    130.2 1.187e+04 6.628e-10
 18.81774    129.8 1.184e+04 6.775e-10
 18.83831    130.1 1.170e+04 5.450e-10
 18.87320    130.0 1.161e+04 5.221e-10
 18.91436    130.1 1.153e+04 4.858e-10
 18.94198    130.5 1.144e+04 4.120e-10
 18.96256    130.9 1.128e+04 2.901e-10
 18.99666    131.6 1.123e+04 2.433e-10
 19.03781    132.2 1.124e+04 1.928e-10
 19.06623    132.7 1.127e+04 1.528e-10
 19.08681    133.4 1.128e+04 1.562e-10
 19.12011    134.0 1.126e+04 1.479e-10
 19.14127    134.7 1.125e+04 1.491e-10
 19.16184    134.5 1.114e+04 1.065e-10
 19.19048    135.4 1.107e+04 1.195e-10
 19.21105    135.8 1.117e+04 1.436e-10
 19.24357    136.7 1.108e+04 1.720e-10
 19.28472    137.6 1.105e+04 2.101e-10
 19.31473    138.5 1.110e+04 2.499e-10
 19.33530    138.6 1.116e+04 2.471e-10
 19.36703    139.1 1.121e+04 2.635e-10
 19.40818    139.5 1.126e+04 2.724e-10
 19.43897    139.7 1.129e+04 2.791e-10
 19.45955    139.9 1.128e+04 2.740e-10
 19.49048    140.1 1.131e+04 2.902e-10
 19.53163    140.4 1.135e+04 3.202e-10
 19.56322    140.8 1.139e+04 3.628e-10
 19.58380    140.9 1.145e+04 3.743e-10
 19.61394    141.3 1.155e+04 4.261e-10
 19.65509    141.3 1.165e+04 4.758e-10
 19.68585    141.0 1.173e+04 5.416e-10
 19.69756    140.7 1.191e+04 6.727e-10
 19.70785    140.6 1.186e+04 6.510e-10
 19.72691    140.1 1.212e+04 9.049e-10
 19.74748    139.6 1.250e+04 1.357e-09
 19.75969    139.1 1.298e+04 2.072e-09
 19.76997    138.7 1.298e+04 2.076e-09
 19.78863    138.3 1.349e+04 2.903e-09
 19.80921    137.8 1.395e+04 3.318e-09
 19.82181    137.0 1.401e+04 3.299e-09
 19.83210    136.6 1.396e+04 3.209e-09
 19.86075    135.5 1.389e+04 3.023e-09
 19.90200    134.2 1.342e+04 1.930e-09
 19.93596    133.3 1.257e+04 8.840e-10
 19.95654    132.8 1.241e+04 8.861e-10
 19.98430    132.4 1.161e+04 4.957e-10
 20.02545    132.5 1.148e+04 4.731e-10
 20.06021    133.2 1.148e+04 4.922e-10
 20.08079    133.6 1.158e+04 6.110e-10
 20.10776    134.5 1.170e+04 7.457e-10
 20.14891    135.5 1.182e+04 8.774e-10
 20.18409    136.1 1.185e+04 9.088e-10
 20.19907    135.7 1.157e+04 7.738e-10
 20.20504    135.6 1.164e+04 7.896e-10
 20.23121    135.3 1.163e+04 7.739e-10
 20.27236    134.8 1.150e+04 7.043e-10
 20.30871    134.5 1.128e+04 6.261e-10
 20.32928    134.2 1.127e+04 6.110e-10
 20.35467    134.1 1.123e+04 6.100e-10
 20.39582    134.2 1.121e+04 6.440e-10
 20.43296    134.4 1.132e+04 7.678e-10
 20.45353    134.2 1.127e+04 7.084e-10
 20.47812    134.6 1.135e+04 7.593e-10
 20.51927    135.1 1.147e+04 8.096e-10
 20.55720    135.4 1.160e+04 8.527e-10
 20.57778    135.6 1.113e+04 4.612e-10
 20.60158    135.8 1.121e+04 4.839e-10
 20.64273    135.8 1.132e+04 5.505e-10
 20.68145    135.9 1.145e+04 6.504e-10
 20.70203    136.4 1.117e+04 4.333e-10
 20.72503    136.6 1.132e+04 5.337e-10
 20.76618    136.6 1.140e+04 6.089e-10
 20.80570    136.7 1.140e+04 6.141e-10
 20.82627    137.5 1.122e+04 4.604e-10
 20.84849    137.5 1.117e+04 4.513e-10
 20.88964    137.7 1.102e+04 4.142e-10
 20.92995    137.9 1.080e+04 3.492e-10
 20.95052    138.7 1.072e+04 2.932e-10
 20.97194    139.0 1.053e+04 2.473e-10
 21.01309    139.5 1.035e+04 2.083e-10
 21.05419    140.1 1.021e+04 1.776e-10
 21.09535    141.6 1.011e+04 1.610e-10
 21.13655    142.4 1.003e+04 1.492e-10
 21.17770    143.3 1.001e+04 1.374e-10
 21.19902    144.1 1.002e+04 1.246e-10
 21.21959    145.0 1.006e+04 1.474e-10
 21.24749    145.7 1.007e+04 1.433e-10
 21.26807    145.7 1.009e+04 1.309e-10
 21.30116    146.3 1.011e+04 1.294e-10
 21.32327    146.9 1.012e+04 1.292e-10
 21.34384    147.8 1.023e+04 2.032e-10
 21.38346    148.0 1.025e+04 2.095e-10
 21.42461    148.1 1.029e+04 2.240e-10
 21.44751    147.9 1.040e+04 2.653e-10
 21.46809    148.9 1.061e+04 4.166e-10
 21.50691    148.2 1.093e+04 5.592e-10
 21.54807    146.7 1.144e+04 8.260e-10
 21.57176    144.6 1.196e+04 1.174e-09
 21.59234    145.7 1.226e+04 1.432e-09
 21.63037    142.8 1.262e+04 1.559e-09
 21.67152    139.4 1.262e+04 1.515e-09
 21.69601    136.0 1.244e+04 1.341e-09
 21.71658    136.4 1.264e+04 1.368e-09
 21.75382    133.1 1.217e+04 1.087e-09
 21.79498    130.6 1.161e+04 7.913e-10
 21.82026    128.8 1.108e+04 5.190e-10
 21.84083    128.6 1.123e+04 5.978e-10
 21.87728    127.4 1.085e+04 3.721e-10
 21.91843    126.3 1.049e+04 2.162e-10
 21.94450    125.5 1.014e+04 1.700e-10
 21.96508    125.4 1.032e+04 2.730e-10
 22.00073    125.3 1.029e+04 2.708e-10
 22.04189    125.3 1.026e+04 2.782e-10
 22.06875    125.5 1.031e+04 3.025e-10
 22.08933    125.3 1.051e+04 3.649e-10
 22.12419    125.5 1.053e+04 3.566e-10
 22.16534    125.5 1.060e+04 3.338e-10
 22.19300    125.2 1.067e+04 3.095e-10
 22.21358    124.7 1.058e+04 2.346e-10
 22.24764    124.2 1.059e+04 2.320e-10
 22.28880    123.5 1.062e+04 2.437e-10
 22.31089    122.9 1.072e+04 2.915e-10
 22.31877    122.9 1.075e+04 3.189e-10
 22.33782    123.1 1.052e+04 2.276e-10
 22.37110    122.5 1.061e+04 2.941e-10
 22.41225    121.6 1.069e+04 3.698e-10
 22.44150    120.3 1.062e+04 4.146e-10
 22.46207    121.2 1.030e+04 2.974e-10
 22.49455    119.8 1.026e+04 3.260e-10
 22.53571    118.2 1.018e+04 3.337e-10
 22.56574    116.4 1.004e+04 3.327e-10
 22.58632    118.0 1.008e+04 3.438e-10
 22.61801    116.2 1.002e+04 3.478e-10
 22.65916    114.4 9.947e+03 3.488e-10
 22.68999    112.8 9.884e+03 3.554e-10
 22.71057    114.3 9.975e+03 3.513e-10
 22.74146    113.1 9.884e+03 3.472e-10
 22.76230    112.5 9.896e+03 3.593e-10
 22.77250    112.6 9.882e+03 3.564e-10
 22.79271    112.1 9.963e+03 3.973e-10
 22.81329    111.5 1.019e+04 5.005e-10
 22.82433    110.9 1.055e+04 6.752e-10
 22.83287    111.3 1.055e+04 6.788e-10
 22.84240    110.8 1.053e+04 6.915e-10
 22.85444    110.4 1.098e+04 9.412e-10
 22.87501    109.9 1.148e+04 1.302e-09
 22.88645    109.5 1.200e+04 1.784e-09
 22.89674    109.9 1.208e+04 1.817e-09
 22.91616    109.6 1.264e+04 2.413e-09
 22.93674    109.3 1.312e+04 2.990e-09
 22.94858    108.9 1.338e+04 3.172e-09
 22.95887    109.2 1.364e+04 3.390e-09
 22.97789    108.5 1.370e+04 3.384e-09
 22.99847    107.7 1.362e+04 3.238e-09
 23.01070    106.9 1.329e+04 2.814e-09
 23.02099    107.0 1.349e+04 3.011e-09
 23.03962    106.3 1.305e+04 2.506e-09
 23.06020    105.7 1.269e+04 2.109e-09
 23.07283    105.2 1.232e+04 1.819e-09
 23.08321    105.6 1.262e+04 2.041e-09
 23.11183    104.7 1.202e+04 1.601e-09
 23.15298    104.4 1.152e+04 1.320e-09
 23.18698    104.4 1.111e+04 1.061e-09
 23.20756    104.7 1.064e+04 7.179e-10
 23.23529    104.9 1.021e+04 4.978e-10
 23.27644    105.1 9.883e+03 3.525e-10
 23.31123    105.6 9.657e+03 2.771e-10
 23.33181    106.0 9.369e+03 1.789e-10
 23.35372    106.8 9.296e+03 1.620e-10
 23.37429    106.5 9.195e+03 1.730e-10
 23.39989    107.6 9.186e+03 1.721e-10
 23.43548    108.7 9.184e+03 1.734e-10
 23.45605    109.4 8.930e+03 1.052e-10
 23.48220    110.3 8.923e+03 1.042e-10
 23.52335    111.3 8.925e+03 1.046e-10
 23.55972    112.3 8.924e+03 1.069e-10
 23.58030    112.9 8.699e+03 6.051e-11
 23.60565    113.9 8.708e+03 6.095e-11
 23.64680    114.9 8.745e+03 6.343e-11
 23.68397    115.8 8.804e+03 7.055e-11
 23.70455    115.8 8.588e+03 5.464e-11
 23.72911    116.5 8.753e+03 6.980e-11
 23.77026    117.0 9.051e+03 1.043e-10
 23.80822    116.9 9.490e+03 1.732e-10
 23.82880    116.0 9.767e+03 2.674e-10
 23.84218    115.7 1.002e+04 3.399e-10
 23.86265    115.3 1.025e+04 4.349e-10
 23.88044    114.9 1.051e+04 6.050e-10
 23.89072    114.7 1.070e+04 7.491e-10
 23.89551    114.6 1.092e+04 9.406e-10
 23.90580    114.5 1.085e+04 8.888e-10
 23.93237    114.3 1.115e+04 1.045e-09
 23.95304    113.5 1.124e+04 1.012e-09
 23.97602    111.7 1.122e+04 9.721e-10
 24.01717    109.6 1.109e+04 9.008e-10
 24.05672    107.1 1.106e+04 8.566e-10
 24.07729    105.4 1.103e+04 8.786e-10
 24.09947    102.9 1.141e+04 9.484e-10
 24.12903    101.4 1.168e+04 9.863e-10
 24.13922    100.1 1.238e+04 1.226e-09
 24.15072     97.2 1.327e+04 1.674e-09
 24.17129     94.1 1.389e+04 2.231e-09
 24.19106     90.9 1.429e+04 2.745e-09
 24.20134     90.4 1.465e+04 3.889e-09
 24.21244     87.6 1.477e+04 4.033e-09
 24.23302     84.8 1.475e+04 3.970e-09
 24.25318     82.3 1.452e+04 3.701e-09
 24.26347     82.3 1.476e+04 4.157e-09
 24.27417     80.3 1.418e+04 3.478e-09
 24.29475     79.2 1.344e+04 2.551e-09
 24.31530     78.3 1.279e+04 1.862e-09
 24.34627     77.2 1.204e+04 1.134e-09
 24.38753     75.8 1.077e+04 5.085e-10
 24.41712     74.9 9.823e+03 2.539e-10
 24.43769     74.4 9.592e+03 2.118e-10
 24.45003     74.4 9.451e+03 1.666e-10
 24.47061     74.8 9.610e+03 2.144e-10
 24.51099     75.4 9.423e+03 1.827e-10
 24.55214     76.8 9.239e+03 1.534e-10
 24.57428     78.3 9.059e+03 1.196e-10
 24.59486     78.7 9.172e+03 1.406e-10
 24.63444     80.2 9.014e+03 9.884e-11
 24.67560     81.5 8.884e+03 6.890e-11
 24.69853     82.8 8.681e+03 5.869e-11
 24.71911     83.3 8.734e+03 8.067e-11
 24.75790     85.1 8.707e+03 8.066e-11
 24.79905     86.9 8.705e+03 8.221e-11
 24.82278     88.8 8.720e+03 8.982e-11
 24.84335     89.6 8.853e+03 1.101e-10
 24.88135     91.5 8.921e+03 1.260e-10
 24.92251     93.3 9.022e+03 1.501e-10
 24.94703     95.0 9.167e+03 1.861e-10
 24.96760     95.8 9.168e+03 1.737e-10
 25.00481     97.4 9.337e+03 2.019e-10
 25.04596     98.9 9.526e+03 2.399e-10
 25.07127    100.3 9.710e+03 2.955e-10
 25.09185    101.0 9.273e+03 1.680e-10
 25.12826    102.3 9.434e+03 1.961e-10
 25.16942    103.4 9.602e+03 2.237e-10
 25.19552    104.5 9.756e+03 2.314e-10
 25.21610    105.1 9.291e+03 1.623e-10
 25.25172    106.2 9.425e+03 1.718e-10
 25.29287    107.1 9.447e+03 1.701e-10
 25.31977    108.1 9.490e+03 1.618e-10
 25.34034    109.4 9.375e+03 1.554e-10
 25.37517    110.4 9.421e+03 1.443e-10
 25.41633    111.5 9.466e+03 1.356e-10
 25.44402    112.7 9.507e+03 1.358e-10
 25.46459    114.2 9.473e+03 1.145e-10
 25.48052    115.5 9.495e+03 1.147e-10
 25.50109    115.3 9.698e+03 1.181e-10
 25.53978    116.8 9.765e+03 1.215e-10
 25.56826    118.3 9.931e+03 1.374e-10
 25.58884    119.6 9.842e+03 1.199e-10
 25.62208    121.3 9.993e+03 1.467e-10
 25.66324    123.2 1.019e+04 1.894e-10
 25.69251    125.2 1.048e+04 2.428e-10
 25.71309    126.3 1.066e+04 3.181e-10
 25.73515    127.1 1.077e+04 3.504e-10
 25.75444    127.8 1.090e+04 3.730e-10
 25.76473    127.7 1.092e+04 4.610e-10
 25.77621    128.7 1.127e+04 5.838e-10
 25.79678    129.5 1.179e+04 6.846e-10
 25.81656    130.0 1.242e+04 6.966e-10
 25.82685    130.5 1.251e+04 1.433e-09
 25.83794    130.6 1.307e+04 1.527e-09
 25.85851    130.7 1.370e+04 1.523e-09
 25.87869    130.6 1.432e+04 1.473e-09
 25.88898    130.6 1.417e+04 3.468e-09
 25.89966    130.0 1.492e+04 3.635e-09
 25.92024    129.0 1.576e+04 3.548e-09
 25.94081    127.8 1.615e+04 3.429e-09
 25.96139    126.9 1.602e+04 6.678e-09
 25.98197    125.7 1.636e+04 5.569e-09
 26.00173    124.3 1.669e+04 5.277e-09
 26.01202    123.2 1.656e+04 5.237e-09
 26.01322    121.3 1.664e+04 5.356e-09
 26.01832    123.6 1.638e+04 6.457e-09
 26.02816    122.8 1.642e+04 6.368e-09
 26.03845    121.9 1.653e+04 6.444e-09
 26.04419    120.8 1.672e+04 6.738e-09
 26.04933    120.6 1.683e+04 6.800e-09
 26.05903    119.4 1.712e+04 7.443e-09
 26.06932    118.2 1.750e+04 8.550e-09
 26.07525    116.9 1.804e+04 1.043e-08
 26.08039    116.1 1.825e+04 1.025e-08
 26.08989    114.7 1.876e+04 1.300e-08
 26.10018    113.5 1.914e+04 1.721e-08
 26.10631    112.6 1.932e+04 2.327e-08
 26.11146    111.4 2.011e+04 2.071e-08
 26.12076    110.5 2.035e+04 2.661e-08
 26.13104    109.6 2.089e+04 3.272e-08
 26.13737    107.5 2.225e+04 4.143e-08
 26.14252    105.0 2.470e+04 2.685e-08
 26.15162    101.3 2.733e+04 2.904e-08
 26.16191     96.4 3.051e+04 2.721e-08
 26.16844     91.6 3.128e+04 2.551e-08
 26.17358     88.5 3.063e+04 1.108e-08
 26.18248     84.5 3.083e+04 9.012e-09
 26.19277     80.8 2.967e+04 7.061e-09
 26.19955     74.9 2.513e+04 6.173e-09
 26.20988     72.8 1.861e+04 1.714e-09
 26.22888     66.3 1.774e+04 1.925e-09
 26.24945     63.4 1.697e+04 2.747e-09
 26.26172     62.6 1.718e+04 3.892e-09
 26.27201     62.7 1.460e+04 1.759e-09
 26.29060     61.7 1.588e+04 3.114e-09
 26.31118     61.2 1.734e+04 5.250e-09
 26.32384     60.4 1.934e+04 8.315e-09
 26.33413     60.1 1.604e+04 5.028e-09
 26.35233     58.4 1.848e+04 7.883e-09
 26.37291     55.7 2.033e+04 9.471e-09
 26.38597     52.8 2.016e+04 9.044e-09
 26.39626     54.5 1.958e+04 9.903e-09
 26.41406     52.5 1.932e+04 8.794e-09
 26.43464     51.6 1.780e+04 6.496e-09
 26.44809     51.4 1.592e+04 4.461e-09
 26.45838     52.7 1.660e+04 4.816e-09
 26.47579     52.7 1.652e+04 4.093e-09
 26.49117     52.9 1.676e+04 3.763e-09
 26.50141     52.6 1.760e+04 3.936e-09
 26.51012     48.5 2.208e+04 5.833e-09
 26.51526     47.7 2.178e+04 5.342e-09
 26.52198     37.5 2.745e+04 2.024e-08
 26.53227     36.2 2.601e+04 1.341e-07
 26.53845     33.5 2.599e+04 3.033e-07
 26.54100     32.2 2.960e+04 1.315e-07
 26.54370     29.7 2.599e+04 4.153e-07
 26.54627     29.0 2.717e+04 2.041e-07
 26.55023     25.4 2.402e+04 5.547e-07
 26.55537     22.6 2.157e+04 1.109e-06
 26.56311     22.5 2.220e+04 5.829e-07
 26.57224     24.4 2.237e+04 3.430e-07
 26.57739     24.0 2.503e+04 7.199e-08
 26.58371     23.4 2.493e+04 3.569e-08
 26.59400     22.6 2.589e+04 1.543e-08
 26.60330     20.2 2.738e+04 8.383e-09
 26.60845     18.8 2.530e+04 9.405e-09
 26.61977      9.1 2.425e+04 4.646e-09
 26.63446      1.8 1.577e+04 4.705e-09
 26.64475      3.2 1.678e+04 6.098e-09
 26.66097      3.9 1.459e+04 5.459e-09
 26.68155      5.9 1.447e+04 3.793e-09
 26.69659      4.7 1.555e+04 2.048e-09
 26.70687      4.0 1.558e+04 2.333e-09
 26.72270     -0.2 1.384e+04 1.507e-09
 26.74327     -4.0 1.203e+04 1.143e-09
 26.77423     -3.9 1.172e+04 1.162e-09
 26.81074     -4.2 1.134e+04 6.347e-10
 26.83132     -4.2 1.163e+04 8.018e-10
 26.85664     -5.7 1.064e+04 5.414e-10
 26.89779     -5.5 1.007e+04 3.341e-10
 26.93499     -4.9 9.843e+03 1.848e-10
 26.95557     -4.5 9.741e+03 1.962e-10
 26.98009     -4.5 9.531e+03 1.329e-10
 27.02124     -3.8 9.375e+03 1.189e-10
 27.05924     -2.5 9.330e+03 1.197e-10
 27.07981     -2.1 9.314e+03 1.275e-10
 27.10355     -0.6 9.239e+03 1.279e-10
 27.14470      1.2 9.167e+03 1.200e-10
 27.18349      3.0 9.230e+03 1.021e-10
 27.20406      3.5 9.031e+03 1.111e-10
 27.22700      5.0 9.073e+03 9.779e-11
 27.26815      5.7 9.158e+03 1.083e-10
 27.30773      7.0 9.117e+03 1.546e-10
 27.32831      7.9 9.017e+03 1.327e-10
 27.35046     10.2 9.041e+03 1.826e-10
 27.39161     12.5 9.262e+03 2.024e-10
 27.43198     14.2 9.339e+03 2.010e-10
 27.45256     14.6 9.297e+03 1.758e-10
 27.47391     16.2 9.311e+03 1.878e-10
 27.51506     17.7 9.308e+03 2.071e-10
 27.55621     19.3 9.355e+03 2.364e-10
 27.58674     22.0 9.361e+03 2.277e-10
 27.60732     22.4 9.228e+03 1.947e-10
 27.63852     24.0 9.380e+03 2.270e-10
 27.67967     25.2 9.673e+03 2.950e-10
 27.70105     26.5 1.001e+04 4.067e-10
 27.72163     26.8 9.809e+03 3.050e-10
 27.76197     28.2 1.020e+04 4.406e-10
 27.80312     29.4 1.038e+04 4.674e-10
 27.82530     30.4 1.039e+04 4.188e-10
 27.84588     30.6 1.032e+04 4.259e-10
 27.88543     30.9 1.030e+04 3.767e-10
 27.92658     30.6 1.028e+04 3.633e-10
 27.94955     30.4 1.030e+04 3.847e-10
 27.97012     30.7 1.032e+04 4.145e-10
 28.00888     31.0 1.024e+04 4.082e-10
 28.05003     31.8 1.013e+04 3.644e-10
 28.07380     32.8 9.971e+03 2.796e-10
 28.09437     33.3 9.932e+03 2.571e-10
 28.13234     34.3 9.837e+03 1.786e-10
 28.17349     35.0 9.794e+03 1.265e-10
 28.19804     35.8 9.744e+03 1.187e-10
 28.21862     36.3 9.854e+03 9.858e-11
 28.25579     37.2 9.874e+03 1.043e-10
 28.29695     38.1 9.912e+03 1.372e-10
 28.32229     39.2 1.004e+04 2.100e-10
 28.34287     39.8 1.001e+04 2.156e-10
 28.37925     41.5 1.028e+04 3.264e-10
 28.42040     43.2 1.066e+04 4.236e-10
 28.44654     44.3 1.088e+04 4.457e-10
 28.46711     45.2 1.058e+04 3.439e-10
 28.50270     46.3 1.070e+04 3.237e-10
 28.54386     47.2 1.086e+04 3.069e-10
 28.57079     48.1 1.103e+04 3.008e-10
 28.59136     48.9 1.066e+04 2.105e-10
 28.62616     50.0 1.090e+04 2.253e-10
 28.65014     50.9 1.106e+04 2.476e-10
 28.67072     50.6 1.069e+04 1.951e-10
 28.69503     51.8 1.093e+04 2.567e-10
 28.71561     52.6 1.074e+04 2.629e-10
 28.74961     53.7 1.097e+04 3.455e-10
 28.79077     54.7 1.152e+04 5.180e-10
 28.81918     54.7 1.206e+04 7.653e-10
 28.83976     55.5 1.206e+04 8.780e-10
 28.87307     55.9 1.271e+04 1.230e-09
 28.91422     56.2 1.320e+04 1.412e-09
 28.94353     56.3 1.321e+04 1.314e-09
 28.96411     56.5 1.273e+04 8.021e-10
 28.99652     56.4 1.252e+04 5.687e-10
 29.03768     56.2 1.205e+04 4.555e-10
 29.06778     56.2 1.182e+04 4.710e-10
 29.08835     56.8 1.146e+04 2.955e-10
 29.11998     57.1 1.128e+04 3.676e-10
 29.16113     57.8 1.125e+04 5.006e-10
 29.19202     58.6 1.129e+04 5.329e-10
 29.21260     59.0 1.095e+04 2.398e-10
 29.24343     59.6 1.093e+04 1.995e-10
 29.28459     59.4 1.085e+04 1.248e-10
 29.31627     58.7 1.083e+04 8.940e-11
 29.33685     59.3 1.024e+04 8.054e-11
 29.36689     59.4 1.026e+04 7.836e-11
 29.40804     59.6 1.046e+04 8.823e-11
 29.44052     60.2 1.054e+04 1.361e-10
 29.46110     61.6 1.036e+04 1.082e-10
 29.49034     62.4 1.054e+04 1.860e-10
 29.53150     63.1 1.092e+04 3.644e-10
 29.56477     63.3 1.172e+04 8.185e-10
 29.58534     64.5 1.138e+04 5.563e-10
 29.61380     64.7 1.213e+04 1.160e-09
 29.65495     64.8 1.247e+04 1.606e-09
 29.68902     64.4 1.235e+04 1.518e-09
 29.70645     65.3 1.207e+04 1.221e-09
 29.71354     66.3 1.160e+04 8.070e-10
 29.73725     65.9 1.147e+04 7.748e-10
 29.77841     65.6 1.104e+04 5.749e-10
 29.81326     64.9 1.054e+04 3.547e-10
 29.83384     65.6 1.061e+04 3.793e-10
 29.86071     64.2 1.031e+04 3.255e-10
 29.90186     62.9 1.030e+04 3.492e-10
 29.93751     61.9 1.039e+04 4.482e-10
 29.95809     62.1 1.084e+04 7.026e-10
 29.98417     61.2 1.079e+04 7.432e-10
 30.02532     61.2 1.057e+04 6.565e-10
 30.06176     61.2 1.014e+04 4.228e-10
 30.08233     61.5 1.043e+04 5.435e-10
 30.10762     61.0 9.969e+03 2.830e-10
 30.14877     60.1 9.413e+03 2.019e-10
 30.18601     60.1 9.227e+03 2.046e-10
 30.20658     60.6 9.350e+03 2.443e-10
 30.23108     61.3 9.126e+03 2.415e-10
 30.27223     62.2 8.990e+03 2.328e-10
 30.31025     63.3 8.804e+03 2.104e-10
 30.33083     63.8 8.742e+03 1.877e-10
 30.35453     64.9 8.514e+03 1.472e-10
 30.39568     65.8 8.327e+03 1.096e-10
 30.43450     66.6 8.189e+03 8.147e-11
 30.45508     66.9 8.195e+03 9.757e-11
 30.47799     67.9 8.100e+03 8.551e-11
 30.51914     69.0 8.001e+03 7.377e-11
 30.55875     70.1 7.886e+03 6.271e-11
 30.57933     71.0 7.999e+03 8.194e-11
 30.60144     72.1 7.863e+03 6.038e-11
 30.64259     73.1 7.761e+03 4.415e-11
 30.68300     73.9 7.675e+03 3.433e-11
 30.70357     74.5 7.719e+03 3.197e-11
 30.72490     75.0 7.461e+03 2.820e-11
 30.75636     75.9 7.426e+03 2.814e-11
 30.77694     76.6 7.619e+03 3.370e-11
 30.80720     77.6 7.598e+03 3.445e-11
 30.84835     78.9 7.588e+03 3.983e-11
 30.88950     79.8 7.594e+03 4.978e-11
 30.93065     80.6 7.689e+03 6.952e-11
 30.95207     81.4 7.899e+03 1.059e-10
 30.97264     81.5 7.981e+03 1.268e-10
 31.01296     82.3 8.276e+03 1.829e-10
 31.05411     82.8 8.580e+03 2.454e-10
 31.07632     82.8 8.812e+03 2.998e-10
 31.09689     82.5 8.647e+03 2.479e-10
 31.13641     82.1 8.728e+03 2.535e-10
 31.17756     81.4 8.732e+03 2.517e-10
 31.20056     80.6 8.695e+03 2.428e-10
 31.22114     80.4 8.506e+03 2.116e-10
 31.25987     80.1 8.431e+03 2.052e-10
 31.30102     80.0 8.299e+03 1.855e-10
 31.32481     80.1 8.137e+03 1.571e-10
 31.34539     80.8 8.128e+03 1.652e-10
 31.38332     81.1 7.996e+03 1.455e-10
 31.42447     81.4 7.993e+03 1.452e-10
 31.44906     81.7 8.066e+03 1.562e-10
 31.46964     82.6 8.090e+03 1.633e-10
 31.50678     82.9 8.401e+03 2.050e-10
 31.54793     82.9 8.842e+03 2.849e-10
 31.57321     82.8 9.094e+03 3.457e-10
 31.58340     83.1 9.217e+03 3.719e-10
 31.59917     82.9 9.428e+03 4.612e-10
 31.61975     82.6 9.645e+03 5.685e-10
 31.63524     81.1 1.050e+04 7.861e-10
 31.64552     80.0 1.165e+04 1.164e-09
 31.66090     76.3 1.345e+04 2.218e-09
 31.68148     73.5 1.437e+04 3.618e-09
 31.69736     70.1 1.566e+04 5.077e-09
 31.70765     66.0 1.832e+04 9.535e-09
 31.72263     57.8 2.092e+04 1.317e-08
 31.74321     49.5 2.036e+04 1.581e-08
 31.75948     43.9 1.901e+04 1.567e-08
 31.76977     41.0 1.866e+04 1.582e-08
 31.78436     37.8 1.777e+04 1.366e-08
 31.80493     35.5 1.730e+04 1.132e-08
 31.81957     33.6 1.659e+04 8.850e-09
 31.82596     33.3 1.562e+04 6.675e-09
 31.83190     32.3 1.412e+04 4.281e-09
 31.84608     31.3 1.311e+04 3.186e-09
 31.86666     30.6 1.289e+04 2.504e-09
 31.88373     29.7 1.343e+04 1.998e-09
 31.89402     27.4 1.150e+04 1.085e-09
 31.90781     25.7 1.144e+04 8.895e-10
 31.92839     24.1 1.169e+04 8.783e-10
 31.94586     22.5 1.208e+04 9.418e-10
 31.96653     21.2 1.102e+04 9.565e-10
 31.99021     19.7 1.183e+04 1.378e-09
 32.00798     19.3 1.183e+04 1.466e-09
 32.01827     18.9 1.122e+04 1.345e-09
 32.04165     19.3 1.120e+04 1.229e-09
 32.07030     20.0 1.045e+04 8.542e-10
 32.09087     21.2 1.008e+04 7.565e-10
 32.12405     21.1 9.529e+03 3.697e-10
 32.16521     20.0 9.175e+03 2.516e-10
 32.19455     18.6 9.512e+03 3.462e-10
 32.21512     20.3 8.830e+03 2.014e-10
 32.24751     19.5 9.244e+03 2.936e-10
 32.27828     18.2 9.616e+03 3.374e-10
 32.29875     16.5 1.091e+04 5.615e-10
 32.31860     17.1 1.255e+04 9.031e-10
 32.32889     17.5 1.134e+04 6.281e-10
 32.33990     15.7 1.281e+04 1.051e-09
 32.35127     14.3 1.416e+04 2.183e-09
 32.36156     14.3 1.372e+04 2.014e-09
 32.38072     14.5 1.396e+04 3.567e-09
 32.39101     15.3 1.321e+04 1.584e-09
 32.40163     15.6 1.314e+04 2.438e-09
 32.42221     16.5 1.310e+04 2.904e-09
 32.44278     16.9 1.318e+04 2.737e-09
 32.46336     16.2 1.192e+04 1.305e-09
 32.48394     15.0 1.184e+04 1.160e-09
 32.50451     13.2 1.211e+04 1.210e-09
 32.51526     10.6 1.270e+04 1.567e-09
 32.52555     11.5 1.235e+04 1.309e-09
 32.54566     10.2 1.233e+04 1.753e-09
 32.56624     10.5 1.223e+04 2.417e-09
 32.57738     12.1 1.237e+04 2.746e-09
 32.58767     12.7 1.189e+04 2.149e-09
 32.60739     13.8 1.228e+04 1.861e-09
 32.62797     14.3 1.203e+04 1.367e-09
 32.63951     13.5 1.126e+04 8.385e-10
 32.64979     13.5 1.063e+04 6.739e-10
 32.66912     11.8 9.590e+03 4.037e-10
 32.69144     11.0 9.307e+03 2.762e-10
 32.71211     11.6 8.829e+03 2.177e-10
 32.74133     11.5 8.479e+03 1.480e-10
 32.78248     12.4 8.382e+03 1.453e-10
 32.81578     13.0 8.447e+03 1.903e-10
 32.83636     13.4 8.414e+03 1.815e-10
 32.86259     12.8 9.160e+03 2.495e-10
 32.88316     11.1 9.397e+03 3.029e-10
 32.88810      9.7 9.984e+03 4.835e-10
 32.89829      9.7 9.974e+03 4.994e-10
 32.91603      9.0 1.002e+04 6.566e-10
 32.93660      9.4 1.012e+04 8.236e-10
 32.95013     10.0 1.046e+04 8.595e-10
 32.96041     10.0 1.034e+04 7.632e-10
 32.97776      9.5 1.051e+04 5.894e-10
 32.99833      7.3 1.013e+04 4.374e-10
 33.02929      3.7 9.240e+03 2.889e-10
 33.06428      1.4 9.251e+03 2.872e-10
 33.08486      2.5 9.050e+03 2.716e-10
 33.11169      0.2 9.658e+03 3.845e-10
 33.15285     -1.1 1.017e+04 7.061e-10
 33.18853     -0.5 1.078e+04 1.058e-09
 33.20910      0.2 1.039e+04 8.687e-10
 33.22476      0.6 1.078e+04 1.070e-09
 33.24524      0.8 1.067e+04 9.406e-10
 33.26074      0.0 1.012e+04 6.716e-10
 33.27103      0.7 1.014e+04 6.872e-10
 33.28639      1.1 1.016e+04 5.919e-10
 33.30697     -0.7 9.528e+03 4.367e-10
 33.32287     -0.5 9.535e+03 4.245e-10
 33.33316      0.4 9.569e+03 4.367e-10
 33.35851      0.7 9.316e+03 3.865e-10
 33.39976      2.0 9.221e+03 3.893e-10
 33.43702      3.7 9.052e+03 3.755e-10
 33.45760      5.0 9.117e+03 3.946e-10
 33.48206      6.6 9.048e+03 3.526e-10
 33.52321      7.8 8.968e+03 3.128e-10
 33.56127      8.8 9.000e+03 3.117e-10
 33.58185     10.2 9.034e+03 3.279e-10
 33.60552     11.1 9.145e+03 3.373e-10
 33.64667     11.7 9.304e+03 3.684e-10
 33.68552     12.1 9.551e+03 4.079e-10
 33.70609     13.5 9.557e+03 4.119e-10
 33.72897     13.2 1.002e+04 4.688e-10
 33.75783     12.3 1.057e+04 5.525e-10
 33.76802     13.0 1.041e+04 5.321e-10
 33.78021     11.6 1.071e+04 6.178e-10
 33.80079     10.8 1.081e+04 7.508e-10
 33.81986     10.2 1.073e+04 8.781e-10
 33.83015     11.1 1.059e+04 7.763e-10
 33.84194     11.2 1.084e+04 8.989e-10
 33.86252     11.1 1.105e+04 9.570e-10
 33.88198     10.6 1.121e+04 9.645e-10
 33.89227     10.8 1.124e+04 8.556e-10
 33.90367      9.7 1.129e+04 8.623e-10
 33.92589      8.1 1.103e+04 8.097e-10
 33.94575      9.0 1.184e+04 1.341e-09
 33.95440      8.8 1.168e+04 1.324e-09
 33.97578      9.3 1.202e+04 1.433e-09
 34.01703      9.0 1.135e+04 1.113e-09
 34.05818      9.6 1.090e+04 7.762e-10
 34.09934      9.4 9.687e+03 3.115e-10
 34.14049      9.2 9.375e+03 2.323e-10
 34.18164     10.3 9.333e+03 2.159e-10
 34.20309     11.0 9.498e+03 2.148e-10
 34.22366     10.5 9.478e+03 2.185e-10
 34.26394     10.4 9.605e+03 2.829e-10
 34.30509      9.9 9.799e+03 3.981e-10
 34.32733      8.5 1.039e+04 5.862e-10
 34.34791      8.1 1.023e+04 5.415e-10
 34.38740      6.9 1.074e+04 7.220e-10
 34.42855      5.9 1.071e+04 7.500e-10
 34.45158      5.2 1.011e+04 4.887e-10
 34.47216      4.8 9.954e+03 4.770e-10
 34.51085      4.3 9.737e+03 3.067e-10
 34.55200      4.2 9.330e+03 2.159e-10
 34.57583      4.4 9.006e+03 1.696e-10
 34.59640      4.8 8.933e+03 1.661e-10
 34.63431      5.1 8.820e+03 1.531e-10
 34.67546      5.4 9.047e+03 1.829e-10
 34.70008      5.7 9.436e+03 2.785e-10
 34.72065      6.0 9.428e+03 2.689e-10
 34.75776      6.6 9.960e+03 3.773e-10
 34.79891      6.7 1.041e+04 4.739e-10
 34.82432      6.4 1.070e+04 5.480e-10
 34.84490      5.8 1.077e+04 5.528e-10
 34.88122      3.6 1.133e+04 7.101e-10
 34.92237      0.9 1.182e+04 9.980e-10
 34.94857     -0.6 1.205e+04 1.237e-09
 34.96915     -0.5 1.190e+04 1.180e-09
 34.98939     -1.3 1.162e+04 1.027e-09
 35.00996      0.8 1.201e+04 1.403e-09
 35.04582      0.5 1.175e+04 1.257e-09
 35.07282      0.5 1.123e+04 1.020e-09
 35.09340      0.8 1.068e+04 6.616e-10
 35.12813      1.8 1.041e+04 5.647e-10
 35.16928      2.9 1.032e+04 5.175e-10
 35.19707      3.5 1.049e+04 5.340e-10
 35.21764      3.6 1.060e+04 5.473e-10
 35.25158      3.3 1.144e+04 1.016e-09
 35.28235      3.6 1.249e+04 2.035e-09
 35.30283      3.1 1.280e+04 2.543e-09
 35.32112      4.9 1.336e+04 3.812e-09
 35.33141      5.3 1.337e+04 3.830e-09
 35.34398      6.8 1.346e+04 3.887e-09
 35.36456      8.5 1.379e+04 3.716e-09
 35.38324      9.0 1.370e+04 2.603e-09
 35.39353      9.1 1.357e+04 2.128e-09
 35.40571      6.9 1.264e+04 1.358e-09
 35.42628      4.9 1.169e+04 1.050e-09
 35.44537      3.9 1.141e+04 9.898e-10
 35.45566      3.4 1.119e+04 8.543e-10
 35.46743      2.5 1.166e+04 1.153e-09
 35.48801      1.7 1.216e+04 1.601e-09
 35.50749      1.1 1.259e+04 2.200e-09
 35.51778      1.1 1.236e+04 2.062e-09
 35.52089      1.3 1.276e+04 2.718e-09
 35.53118      1.8 1.298e+04 2.918e-09
 35.54974      2.2 1.351e+04 3.737e-09
 35.56962      2.5 1.412e+04 4.341e-09
 35.57990      3.1 1.365e+04 3.557e-09
 35.59089      2.2 1.411e+04 3.622e-09
 35.61147      0.1 1.432e+04 3.600e-09
 35.63174     -2.3 1.437e+04 3.686e-09
 35.64203     -2.5 1.388e+04 2.480e-09
 35.65262     -5.2 1.392e+04 2.956e-09
 35.67319     -7.1 1.391e+04 3.582e-09
 35.69377     -8.2 1.400e+04 4.019e-09
 35.71434     -9.4 1.401e+04 4.328e-09
 35.73492     -9.7 1.416e+04 4.474e-09
 35.75550    -10.6 1.418e+04 4.225e-09
 35.76628    -11.5 1.381e+04 3.456e-09
 35.77656    -10.9 1.408e+04 3.628e-09
 35.79665    -12.6 1.314e+04 2.677e-09
 35.81722    -13.6 1.244e+04 2.167e-09
 35.82840    -13.9 1.198e+04 1.852e-09
 35.83869    -14.0 1.171e+04 1.666e-09
 35.85838    -13.8 1.141e+04 1.438e-09
 35.87895    -13.4 1.111e+04 1.212e-09
 35.89052    -13.1 1.091e+04 1.036e-09
 35.90081    -13.2 1.074e+04 9.264e-10
 35.92010    -13.2 1.068e+04 8.668e-10
 35.94068    -13.7 1.092e+04 8.871e-10
 35.95265    -14.9 1.179e+04 1.125e-09
 35.96293    -16.0 1.225e+04 1.318e-09
 35.98183    -17.8 1.342e+04 2.159e-09
 36.00241    -19.1 1.430e+04 3.491e-09
 36.01477    -19.6 1.493e+04 5.090e-09
 36.02506    -19.2 1.530e+04 6.261e-09
 36.04230    -18.9 1.575e+04 7.344e-09
 36.05259    -17.6 1.553e+04 6.643e-09
 36.06413    -17.4 1.590e+04 7.467e-09
 36.07689    -17.8 1.606e+04 7.600e-09
 36.08718    -17.9 1.624e+04 7.497e-09
 36.10529    -20.0 1.670e+04 5.882e-09
 36.12586    -25.1 1.670e+04 3.745e-09
 36.13902    -32.2 1.482e+04 2.253e-09
 36.14931    -33.7 1.465e+04 2.296e-09
 36.16701    -38.6 1.258e+04 1.515e-09
 36.18759    -42.1 1.195e+04 1.154e-09
 36.20114    -45.3 1.220e+04 1.067e-09
 36.21143    -43.5 1.177e+04 9.159e-10
 36.22874    -47.2 1.209e+04 8.621e-10
 36.24932    -51.8 1.334e+04 1.152e-09
 36.26327    -55.5 1.473e+04 2.429e-09
 36.27355    -53.1 1.386e+04 1.535e-09
 36.29047    -56.1 1.590e+04 3.791e-09
 36.31104    -58.2 1.782e+04 8.088e-09
 36.32539    -60.1 1.940e+04 1.403e-08
 36.33568    -59.4 1.956e+04 1.371e-08
 36.34700    -61.6 2.053e+04 2.268e-08
 36.35635    -63.0 2.086e+04 3.122e-08
 36.36150    -62.9 2.097e+04 3.649e-08
 36.36753    -63.4 2.112e+04 4.996e-08
 36.37782    -63.9 2.134e+04 5.612e-08
 36.38742    -64.7 2.133e+04 5.806e-08
 36.39256    -64.7 2.142e+04 6.766e-08
 36.39839    -65.4 2.138e+04 5.980e-08
 36.40868    -66.0 2.166e+04 4.635e-08
 36.41848    -66.7 2.248e+04 3.405e-08
 36.42362    -66.6 2.218e+04 3.779e-08
 36.42926    -67.7 2.310e+04 2.808e-08
 36.43955    -69.1 2.363e+04 2.096e-08
 36.44954    -70.7 2.360e+04 1.564e-08
 36.45468    -70.8 2.378e+04 1.804e-08
 36.46012    -72.6 2.321e+04 1.461e-08
 36.47041    -74.1 2.246e+04 1.238e-08
 36.48060    -75.2 2.152e+04 1.131e-08
 36.48575    -75.3 2.231e+04 1.377e-08
 36.49099    -75.8 2.150e+04 1.363e-08
 36.50127    -75.9 2.092e+04 1.379e-08
 36.51156    -75.8 2.030e+04 1.469e-08
 36.51681    -75.1 1.980e+04 1.585e-08
 36.52195    -74.7 2.093e+04 1.583e-08
 36.53214    -73.9 2.052e+04 1.666e-08
 36.54243    -73.1 2.043e+04 1.720e-08
 36.54787    -72.3 2.039e+04 1.777e-08
 36.55301    -72.4 2.099e+04 1.655e-08
 36.56300    -72.5 2.178e+04 1.686e-08
 36.57329    -73.7 2.343e+04 1.833e-08
 36.57893    -75.9 2.582e+04 2.161e-08
 36.57955    -79.4 2.964e+04 1.949e-08
 36.58420    -73.0 2.473e+04 3.075e-08
 36.59386    -75.2 2.767e+04 3.402e-08
 36.60415    -78.9 3.168e+04 3.870e-08
 36.60999    -84.8 3.381e+04 6.006e-08
 36.61514    -90.3 3.370e+04 5.210e-08
 36.62473    -98.1 3.304e+04 1.046e-07
 36.63502   -105.5 3.083e+04 2.006e-07
 36.64106   -111.5 3.005e+04 2.352e-07
 36.64620   -112.6 3.636e+04 5.938e-08
 36.65559   -115.5 3.788e+04 4.381e-08
 36.66588   -116.8 4.015e+04 2.521e-08
 36.67212   -117.4 4.238e+04 1.465e-08
 36.67726   -117.9 4.282e+04 7.711e-09
 36.68646   -118.6 4.172e+04 5.435e-09
 36.69674   -119.1 3.875e+04 3.869e-09
 36.70318   -119.4 3.450e+04 2.738e-09
 36.70832   -121.3 2.608e+04 2.004e-09
 36.71732   -121.4 2.194e+04 1.646e-09
 36.72761   -121.6 1.850e+04 1.443e-09
 36.73424   -121.6 1.598e+04 1.244e-09
 36.73939   -122.6 1.381e+04 1.162e-09
 36.74818   -121.9 1.270e+04 1.106e-09
 36.75847   -121.0 1.198e+04 1.027e-09
 36.76530   -120.1 1.175e+04 1.002e-09
 36.77045   -120.2 1.176e+04 1.145e-09
 36.77905   -119.0 1.172e+04 1.142e-09
 36.78934   -118.3 1.192e+04 1.192e-09
 36.80482   -117.3 1.207e+04 1.209e-09
 36.82238   -116.0 1.184e+04 1.180e-09
 36.83267   -115.7 1.185e+04 1.397e-09
 36.84602   -114.4 1.176e+04 1.328e-09
 36.86659   -113.2 1.174e+04 1.295e-09
 36.88450   -112.4 1.176e+04 1.292e-09
 36.89479   -112.0 1.187e+04 1.405e-09
 36.90774   -111.4 1.189e+04 1.383e-09
 36.92832   -110.8 1.189e+04 1.377e-09
 36.94663   -110.3 1.187e+04 1.374e-09
 36.95692   -109.6 1.187e+04 1.390e-09
 36.96947   -109.0 1.180e+04 1.354e-09
 36.99005   -108.5 1.170e+04 1.306e-09
 37.00875   -107.7 1.157e+04 1.239e-09
 37.01904   -106.8 1.142e+04 1.166e-09
 37.03120   -106.0 1.129e+04 1.099e-09
 37.05178   -105.1 1.117e+04 1.035e-09
 37.07088   -104.1 1.105e+04 9.723e-10
 37.08116   -103.2 1.077e+04 8.497e-10
 37.09293   -102.1 1.070e+04 8.085e-10
 37.10570   -101.0 1.063e+04 7.692e-10
 37.11599   -101.2 1.060e+04 7.723e-10
 37.13300   -100.0 1.057e+04 7.416e-10
 37.14329    -99.2 1.037e+04 6.466e-10
 37.15465    -97.9 1.038e+04 6.355e-10
 37.17523    -96.7 1.039e+04 6.303e-10
 37.19512    -95.4 1.040e+04 6.286e-10
 37.20541    -94.7 1.019e+04 5.297e-10
 37.21638    -93.2 1.028e+04 5.528e-10
 37.23696    -92.0 1.048e+04 5.934e-10
 37.26792    -90.3 1.089e+04 6.792e-10
 37.30917    -88.0 1.158e+04 8.540e-10
 37.33993    -86.9 1.111e+04 7.819e-10
 37.36041    -87.1 1.181e+04 1.059e-09
 37.38099    -87.5 1.315e+04 1.649e-09
 37.39178    -88.2 1.495e+04 2.825e-09
 37.40207    -88.4 1.415e+04 2.290e-09
 37.42214    -89.4 1.554e+04 3.617e-09
 37.44272    -90.6 1.654e+04 5.314e-09
 37.45391    -91.7 1.714e+04 6.870e-09
 37.46420    -91.8 1.567e+04 5.221e-09
 37.48387    -92.8 1.594e+04 5.799e-09
 37.50444    -94.1 1.618e+04 6.044e-09
 37.51603    -95.7 1.653e+04 6.248e-09
 37.52632    -94.6 1.517e+04 4.313e-09
 37.54560    -96.4 1.550e+04 4.207e-09
 37.56617    -98.7 1.678e+04 4.774e-09
 37.57816   -100.5 1.814e+04 8.440e-09
 37.58844    -99.2 1.619e+04 3.324e-09
 37.60732   -100.8 1.694e+04 4.993e-09
 37.62712   -101.9 1.714e+04 7.182e-09
 37.63740   -102.2 1.723e+04 8.815e-09
 37.64028   -102.8 1.727e+04 9.810e-09
 37.65057   -102.8 1.577e+04 4.991e-09
 37.66905   -103.2 1.572e+04 5.294e-09
 37.68963   -103.4 1.523e+04 4.985e-09
 37.70240   -103.6 1.440e+04 3.848e-09
 37.71269   -103.8 1.375e+04 2.925e-09
 37.73078   -104.1 1.318e+04 2.467e-09
 37.75135   -104.2 1.268e+04 2.026e-09
 37.76453   -104.3 1.225e+04 1.696e-09
 37.77481   -104.0 1.221e+04 1.683e-09
 37.79251   -104.0 1.190e+04 1.480e-09
 37.81308   -103.9 1.160e+04 1.318e-09
 37.82665   -103.5 1.137e+04 1.189e-09
 37.84732   -103.2 1.127e+04 1.140e-09
 37.88529   -102.4 1.090e+04 9.587e-10
 37.92644   -101.7 1.073e+04 8.684e-10
 37.95109   -101.1 1.067e+04 8.386e-10
 37.97167   -101.6 1.033e+04 6.961e-10
 38.00875   -101.5 1.034e+04 6.953e-10
 38.04990   -101.7 1.044e+04 7.098e-10
 38.07534   -102.0 1.059e+04 7.239e-10
 38.09592   -102.6 9.952e+03 4.834e-10
 38.13220   -103.6 9.983e+03 4.698e-10
 38.15901   -105.0 9.988e+03 4.548e-10
 38.17959   -107.2 1.012e+04 4.541e-10
 38.19959   -109.1 1.049e+04 5.173e-10
 38.22017   -109.4 1.005e+04 4.462e-10
 38.25566   -111.1 1.013e+04 4.843e-10
 38.29681   -112.6 1.013e+04 4.951e-10
 38.32384   -114.0 9.976e+03 4.769e-10
 38.34441   -114.7 9.797e+03 4.104e-10
 38.37911   -116.4 9.735e+03 3.660e-10
 38.42026   -118.0 9.693e+03 3.504e-10
 38.44808   -119.4 9.675e+03 3.499e-10
 38.46866   -120.3 9.745e+03 3.988e-10
 38.50257   -120.9 9.692e+03 4.234e-10
 38.54372   -121.2 9.620e+03 4.269e-10
 38.57233   -121.1 9.403e+03 3.804e-10
 38.59291   -121.3 9.209e+03 3.438e-10
 38.62602   -120.8 8.912e+03 2.694e-10
 38.66718   -120.3 8.640e+03 2.092e-10
 38.69658   -119.6 8.428e+03 1.643e-10
 38.71716   -119.4 8.226e+03 1.223e-10
 38.74948   -118.5 8.155e+03 1.053e-10
 38.79063   -117.7 8.138e+03 9.940e-11
 38.82083   -116.8 8.139e+03 9.858e-11
 38.84140   -116.3 8.059e+03 8.757e-11
 38.87293   -115.4 8.177e+03 9.995e-11
 38.91409   -114.5 8.281e+03 1.149e-10
 38.94508   -113.5 8.379e+03 1.283e-10
 38.96565   -112.8 8.353e+03 1.240e-10
 38.99639   -111.8 8.451e+03 1.327e-10
 39.03754   -110.8 8.531e+03 1.368e-10
 39.06932   -109.8 8.556e+03 1.376e-10
 39.08990   -109.2 8.532e+03 1.282e-10
 39.11984   -108.2 8.562e+03 1.268e-10
 39.16100   -107.2 8.591e+03 1.201e-10
 39.19357   -106.2 8.592e+03 1.124e-10
 39.21384   -105.6 8.557e+03 1.062e-10
 39.22241   -106.2 8.563e+03 1.142e-10
 39.24330   -105.1 8.577e+03 1.066e-10
 39.28445   -104.1 8.613e+03 1.006e-10
 39.31782   -103.0 8.660e+03 9.623e-11
 39.33839   -102.4 8.662e+03 9.761e-11
 39.36675   -101.3 8.715e+03 9.559e-11
 39.40791   -100.1 8.786e+03 9.506e-11
 39.44207    -98.9 8.868e+03 9.510e-11
 39.46264    -98.2 8.864e+03 9.537e-11
 39.49021    -96.9 8.914e+03 9.445e-11
 39.53136    -95.7 8.963e+03 9.294e-11
 39.56631    -94.3 8.989e+03 9.008e-11
 39.58689    -93.5 8.998e+03 8.672e-11
 39.61366    -92.1 9.035e+03 8.314e-11
 39.65482    -90.7 9.079e+03 7.977e-11
 39.69056    -89.3 9.127e+03 7.773e-11
 39.71114    -88.6 9.126e+03 8.068e-11
 39.73712    -87.1 9.194e+03 8.144e-11
 39.77827    -85.6 9.275e+03 8.495e-11
 39.81481    -84.1 9.285e+03 9.317e-11
 39.83539    -83.2 9.299e+03 1.020e-10
 39.86057    -81.6 9.302e+03 1.108e-10
 39.90173    -80.0 9.286e+03 1.192e-10
 39.93906    -78.4 9.252e+03 1.254e-10
 39.95963    -77.4 9.258e+03 1.226e-10
 39.98403    -75.8 9.223e+03 1.257e-10
 40.02518    -74.1 9.201e+03 1.265e-10
 40.06331    -72.4 9.186e+03 1.258e-10
 40.08388    -71.4 9.198e+03 1.146e-10
 40.10748    -69.8 9.210e+03 1.143e-10
 40.14864    -68.1 9.230e+03 1.143e-10
 40.18755    -66.7 9.280e+03 1.146e-10
 40.20813    -65.6 9.292e+03 1.009e-10
 40.23094    -64.3 9.424e+03 1.063e-10
 40.26524    -63.2 9.539e+03 1.260e-10
 40.28581    -63.6 9.634e+03 1.465e-10
 40.31180    -62.5 9.730e+03 1.723e-10
 40.33238    -61.1 9.640e+03 1.410e-10
 40.35440    -60.0 9.711e+03 1.624e-10
 40.39555    -58.9 9.742e+03 1.755e-10
 40.43605    -57.9 9.735e+03 1.786e-10
 40.45662    -56.4 9.730e+03 1.611e-10
 40.47785    -55.5 9.711e+03 1.656e-10
 40.51900    -54.8 9.656e+03 1.655e-10
 40.56015    -54.1 9.579e+03 1.647e-10
 40.60131    -51.9 9.656e+03 1.764e-10
 40.64246    -51.3 9.489e+03 1.729e-10
 40.68361    -50.5 9.297e+03 1.471e-10
 40.70512    -49.5 9.119e+03 1.090e-10
 40.72570    -48.2 9.293e+03 1.339e-10
 40.76591    -47.3 9.129e+03 8.927e-11
 40.80706    -46.4 9.014e+03 5.964e-11
 40.82937    -45.7 8.924e+03 4.537e-11
 40.84994    -44.6 9.037e+03 5.644e-11
 40.88937    -43.8 8.964e+03 5.134e-11
 40.93052    -42.7 8.944e+03 5.070e-11
 40.95362    -41.7 8.941e+03 5.127e-11
 40.97419    -40.8 9.055e+03 6.746e-11
 41.01282    -39.8 9.063e+03 7.007e-11
 41.05397    -38.7 9.065e+03 7.119e-11
 41.07786    -37.5 9.078e+03 7.075e-11
 41.09844    -36.8 9.200e+03 8.960e-11
 41.13628    -35.6 9.245e+03 8.074e-11
 41.17743    -34.6 9.326e+03 7.446e-11
 41.20211    -33.7 9.398e+03 7.256e-11
 41.22269    -33.1 9.495e+03 7.620e-11
 41.25973    -32.3 9.566e+03 7.609e-11
 41.30088    -31.5 9.713e+03 8.080e-11
 41.32636    -30.9 9.831e+03 8.946e-11
 41.33353    -30.3 9.902e+03 8.434e-11
 41.34921    -30.2 9.969e+03 1.042e-10
 41.38319    -30.1 1.017e+04 1.212e-10
 41.42434    -30.2 1.040e+04 1.501e-10
 41.45061    -30.9 1.075e+04 2.048e-10
 41.47118    -31.0 1.090e+04 2.471e-10
 41.50664    -31.7 1.123e+04 3.494e-10
 41.54779    -32.5 1.140e+04 4.024e-10
 41.57485    -33.3 1.141e+04 4.013e-10
 41.59543    -33.2 1.150e+04 4.344e-10
 41.63010    -33.6 1.133e+04 2.913e-10
 41.67125    -34.1 1.121e+04 1.680e-10
 41.69910    -34.7 1.120e+04 1.063e-10
 41.71968    -34.4 1.117e+04 1.123e-10
 41.75355    -34.7 1.110e+04 9.467e-11
 41.79470    -34.8 1.107e+04 9.200e-11
 41.82335    -34.6 1.104e+04 9.486e-11
 41.84393    -34.1 1.103e+04 1.115e-10
 41.87701    -33.8 1.100e+04 1.188e-10
 41.91816    -33.4 1.097e+04 1.204e-10
 41.94760    -32.7 1.084e+04 1.097e-10
 41.96817    -32.2 1.087e+04 1.093e-10
 42.00046    -31.5 1.079e+04 8.661e-11
 42.04161    -30.9 1.070e+04 6.972e-11
 42.07184    -30.2 1.061e+04 5.967e-11
 42.09242    -29.8 1.064e+04 6.507e-11
 42.12392    -29.0 1.061e+04 6.414e-11
 42.16507    -28.1 1.055e+04 6.871e-11
 42.19609    -27.0 1.051e+04 7.924e-11
 42.21667    -26.7 1.059e+04 1.058e-10
 42.24737    -25.5 1.059e+04 1.241e-10
 42.28853    -24.2 1.062e+04 1.402e-10
 42.32034    -23.0 1.066e+04 1.527e-10
 42.34092    -22.7 1.078e+04 1.870e-10
 42.37083    -21.6 1.089e+04 1.814e-10
 42.39204    -20.6 1.096e+04 1.734e-10
 42.41261    -20.2 1.091e+04 1.589e-10
 42.44459    -19.3 1.094e+04 1.582e-10
 42.46516    -19.3 1.097e+04 1.533e-10
 42.49428    -18.3 1.100e+04 1.500e-10
 42.53544    -17.4 1.102e+04 1.471e-10
 42.56884    -16.4 1.103e+04 1.410e-10
 42.58941    -16.1 1.101e+04 1.173e-10
 42.61774    -15.1 1.099e+04 1.057e-10
 42.65889    -14.2 1.095e+04 9.154e-11
 42.69308    -13.2 1.085e+04 7.850e-11
 42.71366    -12.9 1.081e+04 7.417e-11
 42.74119    -11.6 1.069e+04 7.010e-11
 42.78235    -10.0 1.061e+04 6.563e-11
 42.81733     -8.4 1.058e+04 6.025e-11
 42.83791     -7.8 1.058e+04 5.970e-11
 42.86465     -6.2 1.063e+04 5.128e-11
 42.90580     -4.8 1.075e+04 4.552e-11
 42.94158     -3.6 1.083e+04 4.387e-11
 42.96215     -3.1 1.080e+04 4.223e-11
 42.98810     -2.4 1.105e+04 4.558e-11
 43.02926     -2.0 1.099e+04 7.270e-11
 43.06583     -1.0 1.092e+04 1.269e-10
 43.08640     -0.6 1.091e+04 1.414e-10
 43.11156      0.7 1.108e+04 2.261e-10
 43.15271      1.8 1.129e+04 2.992e-10
 43.19007      2.6 1.139e+04 3.234e-10
 43.21065      3.1 1.147e+04 3.350e-10
 43.23501      3.8 1.140e+04 3.222e-10
 43.27617      4.8 1.123e+04 2.507e-10
 43.31432      5.8 1.107e+04 1.802e-10
 43.33490      6.2 1.108e+04 1.782e-10
 43.35847      7.1 1.100e+04 1.277e-10
 43.39962      8.2 1.095e+04 9.971e-11
 43.43486      9.2 1.093e+04 8.517e-11
 43.45323      9.8 1.084e+04 8.195e-11
 43.45915     10.2 1.085e+04 8.217e-11
 43.48192     11.2 1.084e+04 7.479e-11
 43.52308     12.2 1.088e+04 7.381e-11
 43.56282     12.9 1.092e+04 8.979e-11
 43.58339     13.0 1.098e+04 1.062e-10
 43.60538     14.2 1.101e+04 1.447e-10
 43.64653     15.3 1.120e+04 1.837e-10
 43.68707     15.7 1.149e+04 2.261e-10
 43.70764     15.7 1.149e+04 2.382e-10
 43.72883     15.5 1.167e+04 2.914e-10
 43.76999     15.1 1.186e+04 4.443e-10
 43.81114     15.2 1.217e+04 7.296e-10
 43.85229     15.0 1.228e+04 8.155e-10
 43.89344     15.1 1.251e+04 1.029e-09
 43.93459     14.9 1.267e+04 1.153e-09
 43.95614     14.5 1.270e+04 1.273e-09
 43.97671     14.9 1.234e+04 8.423e-10
 44.01690     14.8 1.234e+04 9.337e-10
 44.05805     14.9 1.230e+04 1.035e-09
 44.08038     15.8 1.200e+04 1.011e-09
 44.10096     16.1 1.185e+04 7.609e-10
 44.14035     17.4 1.166e+04 7.349e-10
 44.18150     18.5 1.139e+04 5.705e-10
 44.20463     19.5 1.116e+04 4.323e-10
 44.22521     20.1 1.118e+04 4.133e-10
 44.26381     21.2 1.103e+04 3.583e-10
 44.30496     22.7 1.095e+04 3.460e-10
 44.32888     24.5 1.090e+04 3.448e-10
 44.34946     24.9 1.099e+04 2.829e-10
 44.38726     26.7 1.100e+04 2.752e-10
 44.42841     28.5 1.107e+04 2.700e-10
 44.45313     29.5 1.146e+04 3.194e-10
 44.47370     29.5 1.137e+04 2.716e-10
 44.49826     30.1 1.179e+04 4.382e-10
 44.51884     29.4 1.223e+04 5.326e-10
 44.55187     29.5 1.295e+04 9.627e-10
 44.57728     27.9 1.335e+04 1.023e-09
 44.59785     29.0 1.292e+04 8.591e-10
 44.62379     26.3 1.308e+04 1.119e-09
 44.63930     25.6 1.315e+04 1.278e-09
 44.64959     26.4 1.292e+04 1.109e-09
 44.67523     25.3 1.281e+04 1.197e-09
 44.70162     24.8 1.223e+04 9.181e-10
 44.72220     27.0 1.212e+04 9.156e-10
 44.75763     27.2 1.171e+04 5.919e-10
 44.79878     27.4 1.145e+04 4.123e-10
 44.82587     27.8 1.134e+04 3.797e-10
 44.84645     29.7 1.133e+04 3.315e-10
 44.88108     30.0 1.158e+04 3.879e-10
 44.92223     30.0 1.171e+04 6.621e-10
 44.95012     30.7 1.185e+04 1.024e-09
 44.97069     31.7 1.192e+04 9.886e-10
 44.99415     32.0 1.208e+04 1.311e-09
 45.01205     32.2 1.190e+04 1.312e-09
 45.02234     32.5 1.201e+04 1.417e-09
 45.02976     33.7 1.170e+04 1.389e-09
 45.04005     33.9 1.179e+04 1.456e-09
 45.05578     35.0 1.151e+04 1.162e-09
 45.07417     35.6 1.128e+04 7.867e-10
 45.08446     36.4 1.142e+04 9.449e-10
 45.09693     36.6 1.113e+04 5.708e-10
 45.11751     35.6 1.058e+04 3.334e-10
 45.13629     35.6 1.041e+04 2.976e-10
 45.14658     36.7 1.044e+04 3.002e-10
 45.16905     36.8 1.004e+04 2.289e-10
 45.19861     38.8 9.620e+03 1.700e-10
 45.21919     40.0 9.747e+03 1.811e-10
 45.25145     41.9 9.552e+03 1.501e-10
 45.29260     43.7 9.545e+03 1.431e-10
 45.32286     45.7 9.515e+03 1.540e-10
 45.34344     46.8 9.572e+03 1.519e-10
 45.37490     49.0 9.526e+03 1.750e-10
 45.41605     51.4 9.597e+03 1.840e-10
 45.44711     53.2 9.737e+03 1.870e-10
 45.46769     54.3 9.778e+03 1.864e-10
 45.49836     55.7 9.899e+03 2.341e-10
 45.53951     57.7 9.692e+03 3.346e-10
 45.56166     60.2 9.774e+03 3.964e-10
 45.57293     60.4 9.902e+03 4.498e-10
 45.59184     60.9 1.011e+04 5.246e-10
 45.62172     62.6 1.021e+04 5.483e-10
 45.64367     63.9 1.003e+04 4.672e-10
 45.65386     64.2 1.020e+04 5.633e-10
 45.67306     64.8 1.014e+04 5.454e-10
 45.69551     65.9 9.961e+03 4.463e-10
 45.71608     67.1 1.019e+04 5.649e-10
 45.73479     68.2 1.003e+04 4.595e-10
 45.75536     68.2 9.990e+03 4.407e-10
 45.78632     70.4 9.757e+03 4.010e-10
 45.81985     72.0 9.511e+03 3.307e-10
 45.84043     72.5 1.003e+04 4.896e-10
 45.86872     74.3 9.992e+03 4.565e-10
 45.90988     76.1 1.006e+04 4.647e-10
 45.94410     77.6 1.028e+04 5.098e-10
 45.96468     77.7 1.091e+04 7.501e-10
 45.99218     78.6 1.137e+04 9.472e-10
 46.03333     79.5 1.169e+04 1.239e-09
 46.06835     80.9 1.151e+04 1.235e-09
 46.08892     80.5 1.165e+04 1.373e-09
 46.11563     82.7 1.092e+04 9.888e-10
 46.15679     84.7 1.021e+04 5.916e-10
 46.19260     85.8 9.641e+03 3.069e-10
 46.21317     85.5 9.458e+03 2.795e-10
 46.23909     86.0 8.886e+03 1.896e-10
 46.28024     87.4 8.737e+03 1.823e-10
 46.31684     89.0 8.764e+03 1.911e-10
 46.33742     89.3 8.747e+03 2.022e-10
 46.36254     90.9 8.860e+03 2.203e-10
 46.40370     92.4 8.863e+03 2.173e-10
 46.44109     94.0 8.779e+03 1.924e-10
 46.46167     94.4 8.702e+03 1.742e-10
 46.48600     95.7 8.531e+03 1.166e-10
 46.52715     96.3 8.338e+03 7.093e-11
 46.56534     96.5 8.113e+03 5.191e-11
 46.58592     96.6 7.915e+03 4.729e-11
 46.60448     97.2 7.931e+03 4.794e-11
 46.62506     97.2 8.052e+03 5.523e-11
 46.65061     97.3 8.219e+03 6.299e-11
 46.68959     97.3 8.424e+03 8.958e-11
 46.71016     98.2 8.274e+03 7.765e-11
 46.73291     98.2 8.572e+03 1.223e-10
 46.76190     97.7 8.806e+03 1.572e-10
 46.77209     98.3 8.684e+03 1.447e-10
 46.78415     97.4 9.250e+03 1.906e-10
 46.80473     93.0 1.100e+04 4.160e-10
 46.82393     85.2 1.351e+04 1.758e-09
 46.83422     84.7 1.403e+04 2.100e-09
 46.84588     78.9 1.591e+04 5.885e-09
 46.86008     77.1 1.680e+04 8.171e-09
 46.86518     77.6 1.675e+04 8.322e-09
 46.87150     76.8 1.688e+04 8.461e-09
 46.88600     71.5 1.862e+04 7.300e-09
 46.89634     73.0 1.841e+04 7.097e-09
 46.90761     62.2 1.767e+04 2.905e-09
 46.92818     50.9 1.250e+04 1.596e-09
 46.94818     47.4 1.150e+04 1.286e-09
 46.95846     48.0 1.115e+04 1.110e-09
 46.97972     46.9 1.095e+04 9.891e-10
 47.02097     44.6 1.040e+04 6.162e-10
 47.06212     42.9 9.803e+03 3.764e-10
 47.08291     41.7 9.259e+03 2.817e-10
 47.10348     43.7 9.266e+03 2.897e-10
 47.14443     43.4 9.152e+03 2.791e-10
 47.18558     43.4 9.213e+03 3.189e-10
 47.20715     44.1 9.541e+03 3.935e-10
 47.21734     44.8 9.608e+03 4.255e-10
 47.23682     44.7 9.630e+03 4.339e-10
 47.25740     44.7 9.614e+03 4.476e-10
 47.26908     44.7 9.547e+03 4.408e-10
 47.27937     45.6 9.691e+03 5.152e-10
 47.29855     45.8 9.645e+03 4.851e-10
 47.31913     45.6 9.558e+03 4.279e-10
 47.33121     45.0 9.411e+03 3.808e-10
 47.34149     45.9 9.787e+03 4.776e-10
 47.36028     45.1 9.574e+03 4.459e-10
 47.38085     44.6 9.464e+03 4.390e-10
 47.39333     44.5 9.360e+03 4.875e-10
 47.40362     45.1 9.714e+03 6.175e-10
 47.42201     45.2 9.910e+03 6.989e-10
 47.44258     45.3 1.013e+04 7.950e-10
 47.45545     45.3 1.040e+04 9.125e-10
 47.46574     45.8 1.064e+04 1.034e-09
 47.48373     45.5 1.084e+04 1.162e-09
 47.50431     45.2 1.101e+04 1.311e-09
 47.51758     45.1 1.120e+04 1.481e-09
 47.52787     45.5 1.122e+04 1.491e-09
 47.54546     45.5 1.139e+04 1.628e-09
 47.56604     45.4 1.150e+04 1.679e-09
 47.57970     44.9 1.153e+04 1.665e-09
 47.58999     45.3 1.152e+04 1.666e-09
 47.60719     44.6 1.132e+04 1.533e-09
 47.62776     44.0 1.115e+04 1.468e-09
 47.64183     43.9 1.101e+04 1.444e-09
 47.65211     44.2 1.116e+04 1.558e-09
 47.66769     44.1 1.093e+04 1.509e-09
 47.67798     44.5 1.096e+04 1.406e-09
 47.68949     44.6 1.072e+04 1.279e-09
 47.70395     45.1 1.046e+04 1.104e-09
 47.71424     45.7 1.077e+04 1.301e-09
 47.73064     46.2 1.052e+04 1.054e-09
 47.75122     46.4 1.020e+04 8.066e-10
 47.76607     45.9 9.722e+03 5.887e-10
 47.77636     46.2 9.995e+03 6.717e-10
 47.79237     45.7 9.423e+03 5.204e-10
 47.81295     45.7 9.202e+03 4.675e-10
 47.82820     45.5 9.077e+03 4.410e-10
 47.83849     45.5 9.263e+03 4.922e-10
 47.85410     45.5 9.261e+03 4.892e-10
 47.87467     45.1 9.463e+03 5.216e-10
 47.89032     44.6 9.662e+03 5.818e-10
 47.90061     44.5 9.814e+03 6.303e-10
 47.91583     44.2 9.848e+03 6.917e-10
 47.93640     44.2 9.809e+03 7.253e-10
 47.95244     44.5 9.706e+03 7.277e-10
 47.96273     44.5 9.731e+03 7.537e-10
 47.97755     45.2 9.533e+03 6.502e-10
 47.99813     45.3 9.320e+03 4.935e-10
 48.01457     44.7 9.004e+03 3.595e-10
 48.02486     44.8 9.015e+03 3.625e-10
 48.04967     44.4 8.687e+03 2.845e-10
 48.07689     44.4 8.470e+03 2.442e-10
 48.09746     44.7 8.595e+03 2.667e-10
 48.12168     44.7 8.834e+03 2.683e-10
 48.13882     44.2 9.160e+03 2.973e-10
 48.14910     43.3 9.632e+03 3.784e-10
 48.16274     41.5 1.014e+04 6.055e-10
 48.18331     40.9 1.037e+04 8.713e-10
 48.19939     41.0 1.051e+04 1.114e-09
 48.20673     42.0 1.037e+04 9.041e-10
 48.21123     41.8 1.056e+04 1.048e-09
 48.22446     42.5 1.070e+04 1.236e-09
 48.24504     43.5 1.089e+04 1.301e-09
 48.26306     44.5 1.109e+04 1.261e-09
 48.27335     44.3 1.125e+04 1.221e-09
 48.28619     44.5 1.125e+04 8.685e-10
 48.30677     43.4 1.084e+04 5.848e-10
 48.32519     41.9 9.951e+03 4.284e-10
 48.33548     41.2 9.694e+03 4.077e-10
 48.34792     40.8 9.293e+03 3.657e-10
 48.37888     41.2 9.214e+03 3.463e-10
 48.42013     42.7 9.288e+03 3.552e-10
 48.44963     43.3 9.549e+03 4.152e-10
 48.45982     43.4 9.524e+03 4.269e-10
 48.47137     43.4 9.523e+03 4.330e-10
 48.49195     43.9 9.795e+03 5.794e-10
 48.51156     43.9 1.002e+04 7.090e-10
 48.52185     44.1 1.000e+04 7.062e-10
 48.53310     44.6 1.022e+04 8.185e-10
 48.55368     44.9 1.046e+04 9.306e-10
 48.57368     45.3 1.067e+04 1.022e-09
 48.58397     45.4 1.047e+04 9.087e-10
 48.59483     45.7 1.054e+04 9.310e-10
 48.61540     45.9 1.052e+04 9.116e-10
 48.63581     46.1 1.047e+04 8.562e-10
 48.64610     46.4 1.026e+04 7.566e-10
 48.65656     46.6 1.032e+04 7.142e-10
 48.67713     46.7 1.046e+04 6.961e-10
 48.69771     46.6 1.053e+04 6.983e-10
 48.70822     46.5 1.054e+04 7.083e-10
 48.71851     46.6 1.050e+04 6.830e-10
 48.73109     46.8 1.051e+04 7.692e-10
 48.74138     48.1 1.043e+04 6.880e-10
 48.75944     48.6 1.045e+04 7.583e-10
 48.77034     48.9 1.070e+04 8.911e-10
 48.78063     49.0 1.082e+04 9.743e-10
 48.80059     48.2 1.188e+04 1.386e-09
 48.82116     46.4 1.348e+04 2.344e-09
 48.83247     45.0 1.484e+04 4.101e-09
 48.84275     44.7 1.557e+04 4.893e-09
 48.85712     43.6 1.605e+04 6.311e-09
 48.86343     42.5 1.644e+04 7.709e-09
 48.86858     41.9 1.669e+04 8.850e-09
 48.87765     41.9 1.698e+04 1.059e-08
 48.88794     42.0 1.740e+04 1.136e-08
 48.89449     42.0 1.786e+04 1.145e-08
 48.89964     41.4 1.803e+04 1.089e-08
 48.90851     40.3 1.858e+04 9.222e-09
 48.91880     38.4 1.804e+04 7.164e-09
 48.92556     37.5 1.759e+04 6.620e-09
 48.93070     36.1 1.735e+04 5.580e-09
 48.94457     36.2 1.764e+04 6.248e-09
 48.95671     34.0 1.695e+04 4.485e-09
 48.96700     29.0 1.550e+04 2.887e-09
 48.98577     26.6 1.387e+04 2.020e-09
 49.00635     25.0 1.280e+04 1.868e-09
 49.01884     24.0 1.261e+04 1.734e-09
 49.02913     21.9 1.260e+04 1.757e-09
 49.04750     22.0 1.254e+04 1.691e-09
 49.06807     22.1 1.251e+04 1.639e-09
 49.08096     22.1 1.250e+04 1.593e-09
 49.09125     20.6 1.247e+04 1.481e-09
 49.10923     20.7 1.234e+04 1.377e-09
 49.12980     20.8 1.225e+04 1.327e-09
 49.14309     21.3 1.225e+04 1.302e-09
 49.15337     20.1 1.209e+04 1.183e-09
 49.17095     19.8 1.199e+04 1.136e-09
 49.19153     19.3 1.179e+04 1.068e-09
 49.20521     19.0 1.170e+04 1.014e-09
 49.21550     17.9 1.147e+04 9.003e-10
 49.23268     17.7 1.142e+04 8.701e-10
 49.25250     17.5 1.130e+04 8.211e-10
 49.26279     17.8 1.128e+04 8.199e-10
 49.28422     17.7 1.101e+04 7.308e-10
 49.31508     18.8 1.087e+04 6.941e-10
 49.32946     19.0 1.077e+04 6.625e-10
 49.33975     18.6 1.062e+04 6.173e-10
 49.35614     19.4 1.043e+04 5.463e-10
 49.37671     19.8 1.022e+04 4.713e-10
 49.40767     20.4 9.917e+03 3.829e-10
 49.44361     22.2 9.487e+03 2.951e-10
 49.46419     21.6 9.363e+03 2.660e-10
 49.49007     23.5 9.051e+03 2.131e-10
 49.53123     25.5 8.802e+03 1.729e-10
 49.56786     27.5 8.632e+03 1.460e-10
 49.58844     27.0 8.693e+03 1.600e-10
 49.61353     29.0 8.604e+03 1.518e-10
 49.65468     31.0 8.528e+03 1.472e-10
 49.69211     32.9 8.476e+03 1.452e-10
 49.71268     32.1 8.812e+03 2.142e-10
 49.73698     34.1 8.794e+03 2.243e-10
 49.77411     36.1 8.760e+03 2.254e-10
 49.79468     36.5 8.607e+03 1.955e-10
 49.81636     38.7 8.554e+03 1.793e-10
 49.83693     37.6 9.294e+03 3.353e-10
 49.86044     39.4 9.154e+03 2.780e-10
 49.90159     40.8 9.105e+03 2.547e-10
 49.94060     42.0 9.247e+03 2.674e-10
 49.96118     40.0 1.010e+04 4.824e-10
 49.97351     41.7 1.040e+04 4.973e-10
 49.99399     41.5 1.039e+04 5.078e-10
 50.02495     42.6 1.101e+04 7.769e-10
 50.06485     43.8 1.147e+04 9.439e-10
 50.08543     40.0 1.193e+04 1.014e-09
 50.09696     41.2 1.258e+04 1.389e-09
 50.11744     40.7 1.299e+04 1.626e-09
 50.13707     39.7 1.359e+04 2.308e-09
 50.14736     37.4 1.356e+04 2.258e-09
 50.15859     35.4 1.476e+04 3.155e-09
 50.17917     32.2 1.655e+04 4.978e-09
 50.19919     28.0 1.805e+04 8.258e-09
 50.20948     24.0 1.777e+04 8.080e-09
 50.22032     21.0 1.842e+04 1.138e-08
 50.24090     18.3 1.857e+04 1.236e-08
 50.26132     15.2 1.802e+04 9.203e-09
 50.27160     12.4 1.717e+04 6.619e-09
 50.28205      6.3 1.491e+04 3.099e-09
 50.30262     -0.2 1.220e+04 1.639e-09
 50.31590     -2.8 1.149e+04 1.305e-09
 50.32619     -1.9 1.152e+04 1.349e-09
 50.33373     -2.9 1.119e+04 1.132e-09
 50.34402     -2.9 1.123e+04 1.136e-09
 50.36435     -4.2 1.087e+04 9.039e-10
 50.38493     -5.9 1.052e+04 6.881e-10
 50.39585     -7.7 1.018e+04 5.347e-10
 50.40614     -8.2 9.954e+03 4.738e-10
 50.43647     -9.5 9.924e+03 4.603e-10
 50.45817    -10.3 9.633e+03 4.009e-10
 50.47875    -10.2 9.175e+03 3.094e-10
 50.51887    -10.7 8.962e+03 2.654e-10
 50.56002    -11.1 8.811e+03 2.428e-10
 50.58242    -11.5 8.791e+03 2.418e-10
 50.60299    -11.2 8.735e+03 2.366e-10
 50.64232    -11.3 8.825e+03 2.493e-10
 50.68347    -11.2 8.923e+03 2.647e-10
 50.70667    -10.9 8.981e+03 2.726e-10
 50.72724    -10.2 9.005e+03 2.805e-10
 50.76578     -9.9 9.014e+03 2.798e-10
 50.80693     -9.5 9.000e+03 2.595e-10
 50.83091     -9.0 8.986e+03 2.369e-10
 50.84092     -8.5 9.074e+03 2.466e-10
 50.85808    -10.2 9.126e+03 2.550e-10
 50.88923     -9.8 9.130e+03 2.527e-10
 50.93038     -9.6 9.310e+03 2.800e-10
 50.95516     -9.3 9.612e+03 3.403e-10
 50.97574     -8.7 9.664e+03 3.468e-10
 51.01269     -8.6 9.928e+03 3.944e-10
 51.05384     -8.8 1.018e+04 4.338e-10
 51.07941     -9.3 1.040e+04 4.726e-10
 51.09999     -8.8 1.040e+04 4.513e-10
 51.13614     -9.6 1.056e+04 4.977e-10
 51.17729    -10.2 1.063e+04 5.179e-10
 51.20366    -10.6 1.051e+04 4.888e-10
 51.22423     -9.7 1.051e+04 4.898e-10
 51.25960     -9.8 1.025e+04 3.404e-10
 51.30075    -10.3 9.926e+03 2.143e-10
 51.32790    -11.0 9.605e+03 1.508e-10
 51.34848     -9.9 9.602e+03 1.530e-10
 51.38305    -10.2 9.445e+03 1.388e-10
 51.42420    -10.1 9.386e+03 1.440e-10
 51.45215     -9.7 9.427e+03 1.626e-10
 51.47273     -8.5 9.450e+03 1.607e-10
 51.50651     -8.1 9.527e+03 1.678e-10
 51.54766     -7.9 9.564e+03 1.686e-10
 51.57640     -7.9 9.601e+03 1.660e-10
 51.59698     -6.9 9.594e+03 1.583e-10
 51.62996     -7.2 9.743e+03 1.661e-10
 51.67111     -8.0 9.848e+03 1.970e-10
 51.70065     -8.9 9.841e+03 2.207e-10
 51.72122     -8.1 9.914e+03 2.391e-10
 51.75342     -9.1 9.908e+03 2.489e-10
 51.79457    -10.1 9.715e+03 2.403e-10
 51.82490    -11.0 9.495e+03 1.995e-10
 51.84547    -10.4 9.615e+03 2.168e-10
 51.87687    -11.3 9.358e+03 1.691e-10
 51.90091    -11.9 9.251e+03 1.491e-10
 51.92148    -12.6 9.100e+03 1.362e-10
 51.94914    -13.0 9.064e+03 1.319e-10
 51.96972    -12.8 9.162e+03 1.495e-10
 52.00033    -13.2 9.260e+03 1.745e-10
 52.04148    -13.7 9.528e+03 2.406e-10
 52.07339    -14.1 9.845e+03 3.338e-10
 52.09397    -13.7 1.004e+04 3.954e-10
 52.11340    -14.5 1.012e+04 4.571e-10
 52.13388    -15.2 1.016e+04 5.216e-10
 52.14561    -15.5 1.023e+04 5.775e-10
 52.15590    -15.3 1.021e+04 5.758e-10
 52.17503    -15.5 1.031e+04 6.098e-10
 52.19560    -15.7 1.040e+04 6.428e-10
 52.20773    -16.1 1.043e+04 6.621e-10
 52.21802    -16.0 1.036e+04 6.329e-10
 52.24714    -16.4 1.026e+04 6.057e-10
 52.28839    -16.4 1.010e+04 5.808e-10
 52.32189    -16.3 9.874e+03 5.135e-10
 52.34246    -15.7 9.663e+03 4.522e-10
 52.37069    -15.1 9.415e+03 3.726e-10
 52.41184    -14.3 9.210e+03 3.079e-10
 52.44613    -13.5 9.052e+03 2.623e-10
 52.46671    -12.6 8.762e+03 1.952e-10
 52.49415    -11.7 8.638e+03 1.721e-10
 52.53530    -10.5 8.522e+03 1.555e-10
 52.57038     -9.3 8.411e+03 1.431e-10
 52.59096     -8.1 8.255e+03 1.223e-10
 52.61760     -6.6 8.214e+03 1.213e-10
 52.65876     -5.1 8.193e+03 1.194e-10
 52.69463     -3.6 8.200e+03 1.159e-10
 52.71521     -2.1 8.145e+03 1.144e-10
 52.74106     -0.6 8.209e+03 1.153e-10
 52.78221      0.7 8.291e+03 1.181e-10
 52.81888      1.8 8.384e+03 1.260e-10
 52.83945      3.8 8.374e+03 1.274e-10
 52.86451      4.9 8.478e+03 1.409e-10
 52.90567      6.2 8.598e+03 1.627e-10
 52.94313      7.8 8.739e+03 1.898e-10
 52.96062      9.7 8.734e+03 1.937e-10
 52.96431     10.4 8.382e+03 1.229e-10
 52.98797     12.1 8.552e+03 1.455e-10
 53.02912     13.8 8.813e+03 1.810e-10
 53.06737     15.4 9.270e+03 2.472e-10
 53.08795     17.6 9.291e+03 2.499e-10
 53.10104     18.1 9.831e+03 3.553e-10
 53.12152     18.0 9.896e+03 3.768e-10
 53.13959     17.9 1.053e+04 6.030e-10
 53.14988     18.5 1.057e+04 5.952e-10
 53.16267     17.7 1.141e+04 9.709e-10
 53.18324     17.2 1.238e+04 1.643e-09
 53.20171     16.9 1.317e+04 2.542e-09
 53.21200     16.9 1.366e+04 3.091e-09
 53.22440     17.0 1.411e+04 4.158e-09
 53.24497     17.2 1.427e+04 4.494e-09
 53.26384     17.2 1.406e+04 4.467e-09
 53.27413     17.9 1.464e+04 5.691e-09
 53.28612     18.0 1.383e+04 4.090e-09
 53.30670     17.0 1.282e+04 2.434e-09
 53.32596     15.7 1.183e+04 1.437e-09
 53.33625     15.7 1.183e+04 1.396e-09
 53.34785     14.4 1.085e+04 8.480e-10
 53.36843     13.8 1.018e+04 5.803e-10
 53.38809     13.6 9.764e+03 4.493e-10
 53.39837     13.7 9.710e+03 4.504e-10
 53.40958     14.1 9.537e+03 3.958e-10
 53.43015     14.6 9.484e+03 3.697e-10
 53.45021     15.1 9.479e+03 3.603e-10
 53.46050     15.6 9.493e+03 3.763e-10
 53.47131     16.8 9.554e+03 3.753e-10
 53.48553     17.3 9.546e+03 3.725e-10
 53.49581     17.6 9.715e+03 4.257e-10
 53.51233     18.7 9.810e+03 4.326e-10
 53.52262     18.8 9.879e+03 4.523e-10
 53.53303     19.5 9.935e+03 4.704e-10
 53.55361     20.4 1.001e+04 5.006e-10
 53.57419     21.1 1.004e+04 5.244e-10
 53.58474     22.3 1.015e+04 5.561e-10
 53.59503     22.2 1.031e+04 6.103e-10
 53.61534     23.1 1.037e+04 6.173e-10
 53.64630     24.2 1.029e+04 5.857e-10
 53.67716     25.9 1.041e+04 6.163e-10
 53.69764     26.0 1.041e+04 6.156e-10
 53.70899     27.0 1.071e+04 6.749e-10
 53.71928     26.4 1.076e+04 7.021e-10
 53.73879     26.6 1.088e+04 7.395e-10
 53.75937     27.3 1.114e+04 8.123e-10
 53.77112     27.7 1.133e+04 8.757e-10
 53.78140     27.1 1.117e+04 7.847e-10
 53.80052     27.6 1.130e+04 7.992e-10
 53.82110     27.9 1.139e+04 8.007e-10
 53.83324     28.1 1.149e+04 8.030e-10
 53.84353     27.2 1.116e+04 6.547e-10
 53.86225     27.2 1.129e+04 6.681e-10
 53.88282     27.1 1.139e+04 7.098e-10
 53.89536     27.1 1.149e+04 7.657e-10
 53.90565     26.5 1.132e+04 7.202e-10
 53.93436     27.4 1.158e+04 8.427e-10
 53.95768     28.2 1.159e+04 8.839e-10
 53.97826     27.6 1.129e+04 7.014e-10
 54.00713     28.1 1.118e+04 6.545e-10
 54.02771     27.8 1.118e+04 6.785e-10
 54.04753     28.2 1.073e+04 5.027e-10
 54.06801     28.3 1.068e+04 4.833e-10
 54.08174     28.5 1.038e+04 3.756e-10
 54.09202     28.4 1.038e+04 3.765e-10
 54.10916     28.4 1.036e+04 3.645e-10
 54.14012     28.9 1.032e+04 3.276e-10
 54.18137     29.6 1.009e+04 2.764e-10
 54.20618     30.4 9.820e+03 2.418e-10
 54.22675     30.1 1.008e+04 3.075e-10
 54.26367     30.9 9.899e+03 2.969e-10
 54.30482     32.1 9.739e+03 2.875e-10
 54.33043     33.5 9.586e+03 2.653e-10
 54.35100     32.8 9.713e+03 2.976e-10
 54.38713     34.3 9.407e+03 2.307e-10
 54.42828     35.7 9.083e+03 1.801e-10
 54.45467     37.0 8.931e+03 1.589e-10
 54.47525     35.8 8.874e+03 1.598e-10
 54.51058     37.2 8.896e+03 1.584e-10
 54.55173     38.1 9.183e+03 1.937e-10
 54.57892     38.6 9.723e+03 3.105e-10
 54.59950     37.4 9.618e+03 3.014e-10
 54.62365     38.5 1.022e+04 4.666e-10
 54.64085     37.7 1.036e+04 5.931e-10
 54.65114     37.0 1.019e+04 5.362e-10
 54.67509     38.1 1.091e+04 8.130e-10
 54.70317     38.6 1.150e+04 1.118e-09
 54.72375     37.1 1.110e+04 9.499e-10
 54.75749     37.2 1.159e+04 1.215e-09
 54.79864     37.2 1.179e+04 1.356e-09
 54.82742     37.2 1.173e+04 1.345e-09
 54.84799     36.8 1.163e+04 1.279e-09
 54.88095     37.3 1.132e+04 1.106e-09
 54.92210     37.9 1.097e+04 9.372e-10
 54.95167     38.8 1.064e+04 7.997e-10
 54.97224     38.9 1.101e+04 9.790e-10
 55.00440     40.1 1.099e+04 9.815e-10
 55.04555     41.1 1.092e+04 9.414e-10
 55.07053     41.9 1.096e+04 9.286e-10
 55.08032     40.6 1.168e+04 1.348e-09
 55.09649     40.4 1.235e+04 1.738e-09
 55.12786     41.0 1.233e+04 1.769e-09
 55.16901     41.8 1.195e+04 1.554e-09
 55.20016     43.0 1.135e+04 1.178e-09
 55.22074     42.6 1.194e+04 1.493e-09
 55.25131     44.1 1.130e+04 1.006e-09
 55.29246     45.3 1.064e+04 6.338e-10
 55.32441     46.1 1.017e+04 4.547e-10
 55.34498     45.1 1.020e+04 4.013e-10
 55.37477     46.0 9.954e+03 3.506e-10
 55.41592     47.7 9.989e+03 3.782e-10
 55.44866     49.8 1.011e+04 4.235e-10
 55.46923     49.2 9.876e+03 2.978e-10
 55.49822     51.3 9.911e+03 2.923e-10
 55.53937     53.4 9.877e+03 2.690e-10
 55.57290     55.2 9.792e+03 2.683e-10
 55.59348     55.2 9.745e+03 2.191e-10
 55.62168     57.5 9.886e+03 2.490e-10
 55.66283     59.9 1.009e+04 2.989e-10
 55.69715     62.4 1.025e+04 3.708e-10
 55.71763     62.8 1.035e+04 3.842e-10
 55.73465     64.6 1.042e+04 4.376e-10
 55.75523     65.7 1.057e+04 4.831e-10
 55.76937     67.4 1.070e+04 5.404e-10
 55.77966     68.4 1.092e+04 5.840e-10
 55.79638     70.2 1.107e+04 6.376e-10
 55.81695     71.9 1.127e+04 6.868e-10
 55.83149     74.0 1.172e+04 7.586e-10
 55.83659     75.4 1.198e+04 8.094e-10
 55.84258     75.8 1.199e+04 8.142e-10
 55.85286     74.5 1.379e+04 9.508e-10
 55.86246     62.0 2.525e+04 1.849e-09
 55.86709     50.9 3.626e+04 5.270e-09
 55.86779     52.9 3.474e+04 1.058e-08
 55.87084     52.9 2.836e+04 1.003e-07
 55.87596     53.4 2.875e+04 1.095e-07
 55.88051     54.4 2.989e+04 1.066e-07
 55.88308     53.3 2.706e+04 3.385e-07
 55.88625     52.8 2.712e+04 2.602e-07
 55.89139     49.6 2.959e+04 1.549e-07
 55.89604     45.0 3.067e+04 1.279e-07
 55.89861     41.8 2.680e+04 5.017e-07
 55.90168     35.4 2.618e+04 3.488e-07
 55.90683     33.1 2.613e+04 2.478e-07
 55.91457     31.0 2.661e+04 1.604e-07
 55.92458     31.7 2.886e+04 4.407e-08
 55.92972     30.2 3.091e+04 3.010e-08
 55.93517     28.7 2.706e+04 1.191e-08
 55.94545     21.6 2.186e+04 4.578e-09
 55.95569     16.5 1.773e+04 3.738e-09
 55.96603     14.4 1.565e+04 2.318e-09
 55.98156     16.9 1.469e+04 2.135e-09
 56.00214     18.8 1.452e+04 2.138e-09
 56.01786     20.3 1.425e+04 2.156e-09
 56.02815     19.9 1.376e+04 1.643e-09
 56.04329     21.5 1.378e+04 1.948e-09
 56.06386     22.7 1.378e+04 2.086e-09
 56.07999     24.3 1.380e+04 2.239e-09
 56.09028     24.0 1.351e+04 1.792e-09
 56.10502     25.1 1.359e+04 1.895e-09
 56.12345     25.7 1.384e+04 2.012e-09
 56.13383     25.2 1.328e+04 1.436e-09
 56.14221     25.5 1.408e+04 1.973e-09
 56.15240     25.5 1.345e+04 1.429e-09
 56.16674     25.1 1.386e+04 1.716e-09
 56.18732     24.8 1.425e+04 2.249e-09
 56.20423     24.6 1.433e+04 3.098e-09
 56.21452     24.6 1.352e+04 1.851e-09
 56.22847     24.5 1.329e+04 2.382e-09
 56.24905     25.2 1.321e+04 2.729e-09
 56.26636     25.8 1.320e+04 2.484e-09
 56.27665     25.3 1.289e+04 2.409e-09
 56.29020     26.2 1.284e+04 2.051e-09
 56.31077     26.7 1.263e+04 1.462e-09
 56.32848     26.0 1.208e+04 9.966e-10
 56.33877     27.2 1.242e+04 1.065e-09
 56.35193     25.8 1.141e+04 7.135e-10
 56.37250     25.4 1.077e+04 5.520e-10
 56.39061     25.7 1.045e+04 4.719e-10
 56.40089     25.6 1.041e+04 4.467e-10
 56.41365     26.3 1.018e+04 3.907e-10
 56.44254     27.0 1.003e+04 3.443e-10
 56.46312     27.2 9.955e+03 3.326e-10
 56.48577     28.6 9.808e+03 2.884e-10
 56.52702     30.5 9.557e+03 2.244e-10
 56.56689     31.9 9.418e+03 1.930e-10
 56.58746     32.1 9.589e+03 2.102e-10
 56.60932     33.7 9.488e+03 1.952e-10
 56.65047     35.5 9.459e+03 1.938e-10
 56.69113     37.1 9.485e+03 2.035e-10
 56.71171     37.3 9.735e+03 2.854e-10
 56.73277     39.0 9.813e+03 3.249e-10
 56.77393     41.0 9.761e+03 3.544e-10
 56.81508     43.0 9.751e+03 3.276e-10
 56.83596     44.6 9.666e+03 2.984e-10
 56.85653     45.0 1.008e+04 4.214e-10
 56.89738     46.4 9.914e+03 3.849e-10
 56.93853     48.1 9.753e+03 3.442e-10
 56.96020     49.7 9.736e+03 2.977e-10
 56.98078     50.0 9.887e+03 3.610e-10
 57.02084     51.2 9.987e+03 3.328e-10
 57.06199     51.6 1.016e+04 3.781e-10
 57.08445     52.7 1.032e+04 4.937e-10
 57.10503     53.3 1.024e+04 4.618e-10
 57.14429     54.6 1.022e+04 4.612e-10
 57.17676     56.4 9.965e+03 3.692e-10
 57.19733     56.5 1.011e+04 4.252e-10
 57.20870     58.0 9.912e+03 3.093e-10
 57.22928     58.7 9.837e+03 3.031e-10
 57.26775     59.9 9.667e+03 2.139e-10
 57.30890     60.8 9.489e+03 1.620e-10
 57.33295     61.9 9.443e+03 1.523e-10
 57.35352     63.1 9.433e+03 1.532e-10
 57.39120     64.1 9.560e+03 1.696e-10
 57.43235     64.7 9.889e+03 2.358e-10
 57.45720     65.6 1.030e+04 4.109e-10
 57.46739     66.0 1.040e+04 4.120e-10
 57.48360     66.1 1.039e+04 4.335e-10
 57.51456     67.3 1.097e+04 7.075e-10
 57.55581     68.2 1.137e+04 8.684e-10
 57.58144     68.2 1.142e+04 8.089e-10
 57.60202     68.6 1.140e+04 7.979e-10
 57.63811     68.0 1.148e+04 6.973e-10
 57.67926     66.5 1.161e+04 7.519e-10
 57.70569     65.5 1.171e+04 9.608e-10
 57.72627     66.9 1.183e+04 8.847e-10
 57.75118     66.2 1.214e+04 1.054e-09
 57.76762     66.2 1.208e+04 1.360e-09
 57.77791     66.6 1.261e+04 1.416e-09
 57.79224     67.1 1.245e+04 1.801e-09
 57.81281     67.4 1.258e+04 1.907e-09
 57.82974     67.2 1.290e+04 1.976e-09
 57.84003     67.8 1.346e+04 2.718e-09
 57.85396     67.1 1.389e+04 3.016e-09
 57.87454     65.9 1.426e+04 3.437e-09
 57.89187     65.0 1.442e+04 3.755e-09
 57.90216     66.4 1.511e+04 5.088e-09
 57.91569     66.0 1.500e+04 4.862e-09
 57.93627     66.0 1.460e+04 3.978e-09
 57.95399     65.4 1.419e+04 2.873e-09
 57.96428     65.9 1.476e+04 3.616e-09
 57.97742     64.4 1.426e+04 2.494e-09
 57.99799     62.2 1.365e+04 1.832e-09
 58.01612     60.5 1.286e+04 1.473e-09
 58.02640     61.2 1.340e+04 1.845e-09
 58.03915     60.0 1.278e+04 1.584e-09
 58.05972     59.6 1.221e+04 1.339e-09
 58.07824     59.5 1.176e+04 1.066e-09
 58.08853     59.8 1.207e+04 1.275e-09
 58.10087     59.8 1.163e+04 9.631e-10
 58.12145     59.9 1.121e+04 6.848e-10
 58.14036     59.7 1.086e+04 4.880e-10
 58.15065     60.2 1.108e+04 6.041e-10
 58.16260     60.0 1.072e+04 4.092e-10
 58.18318     59.3 1.062e+04 3.121e-10
 58.20249     58.3 1.068e+04 2.779e-10
 58.21277     59.2 1.089e+04 3.224e-10
 58.22433     57.4 1.122e+04 3.484e-10
 58.23996     55.9 1.111e+04 4.401e-10
 58.25025     55.2 1.124e+04 6.809e-10
 58.26461     55.9 1.072e+04 8.533e-10
 58.27490     56.1 1.097e+04 9.990e-10
 58.28606     57.4 1.080e+04 9.954e-10
 58.30663     58.9 1.076e+04 8.698e-10
 58.32673     59.8 1.075e+04 6.270e-10
 58.33702     60.1 1.092e+04 6.956e-10
 58.34778     59.6 1.115e+04 4.638e-10
 58.37874     57.0 1.054e+04 2.600e-10
 58.41999     56.6 9.955e+03 2.420e-10
 58.45118     57.2 9.817e+03 2.593e-10
 58.47166     57.1 9.896e+03 2.889e-10
 58.50220     57.6 1.012e+04 3.183e-10
 58.54345     57.1 1.039e+04 3.322e-10
 58.57422     56.5 1.059e+04 3.980e-10
 58.58552     56.2 1.060e+04 4.829e-10
 58.59581     56.3 1.046e+04 4.551e-10
 58.62565     56.8 1.035e+04 4.383e-10
 58.66690     57.8 1.011e+04 3.496e-10
 58.69967     58.4 9.900e+03 2.508e-10
 58.72025     58.0 9.871e+03 2.589e-10
 58.74921     59.1 9.646e+03 2.269e-10
 58.79036     60.6 9.511e+03 2.010e-10
 58.82392     62.6 9.452e+03 1.753e-10
 58.84450     63.0 9.575e+03 1.962e-10
 58.87266     64.9 9.556e+03 1.616e-10
 58.91381     66.6 9.588e+03 1.369e-10
 58.94817     68.5 9.576e+03 1.330e-10
 58.96874     68.7 9.568e+03 1.373e-10
 58.99612     70.5 9.634e+03 1.448e-10
 59.03727     72.3 9.756e+03 1.769e-10
 59.07242     74.1 1.000e+04 2.444e-10
 59.09299     74.6 1.001e+04 2.495e-10
 59.11957     76.4 1.029e+04 3.342e-10
 59.14473     77.0 1.048e+04 3.884e-10
 59.15492     77.4 1.042e+04 3.742e-10
 59.17082     77.9 1.057e+04 4.256e-10
 59.19139     78.4 1.072e+04 4.986e-10
 59.20676     79.0 1.088e+04 5.788e-10
 59.21704     79.4 1.087e+04 5.489e-10
 59.23254     79.8 1.101e+04 6.347e-10
 59.25312     80.2 1.113e+04 7.162e-10
 59.26888     80.7 1.121e+04 7.997e-10
 59.27917     80.8 1.132e+04 8.036e-10
 59.29307     81.3 1.140e+04 9.061e-10
 59.30336     81.3 1.139e+04 8.906e-10
 59.31485     81.9 1.148e+04 9.154e-10
 59.33100     82.4 1.148e+04 8.902e-10
 59.34129     82.6 1.170e+04 1.006e-09
 59.35600     83.1 1.167e+04 9.599e-10
 59.37658     83.5 1.163e+04 8.735e-10
 59.39313     83.9 1.153e+04 7.732e-10
 59.40342     84.0 1.176e+04 8.997e-10
 59.41773     84.3 1.161e+04 7.803e-10
 59.43830     84.5 1.146e+04 6.767e-10
 59.45525     84.8 1.135e+04 5.984e-10
 59.46554     84.8 1.143e+04 6.563e-10
 59.47945     85.1 1.139e+04 5.976e-10
 59.50003     85.3 1.138e+04 5.575e-10
 59.51738     85.7 1.137e+04 5.364e-10
 59.52766     85.6 1.140e+04 5.717e-10
 59.54118     86.0 1.141e+04 5.705e-10
 59.56176     86.3 1.145e+04 5.782e-10
 59.57950     86.6 1.153e+04 6.030e-10
 59.58979     86.5 1.152e+04 6.379e-10
 59.60291     86.5 1.166e+04 7.094e-10
 59.62349     86.6 1.183e+04 8.379e-10
 59.64162     86.8 1.202e+04 1.017e-09
 59.65191     86.5 1.202e+04 1.042e-09
 59.66464     86.8 1.230e+04 1.302e-09
 59.68521     87.4 1.257e+04 1.573e-09
 59.70375     87.8 1.280e+04 1.765e-09
 59.71404     87.6 1.276e+04 1.750e-09
 59.72637     88.2 1.278e+04 1.733e-09
 59.74694     88.2 1.276e+04 1.683e-09
 59.77790     88.9 1.237e+04 1.384e-09
 59.81790     89.7 1.201e+04 1.088e-09
 59.83848     89.4 1.172e+04 9.694e-10
 59.86030     90.2 1.142e+04 8.207e-10
 59.90146     91.5 1.128e+04 8.101e-10
 59.94215     93.1 1.124e+04 8.234e-10
 59.96273     93.3 1.079e+04 6.598e-10
 59.98376     95.2 1.071e+04 6.372e-10
 60.02491     97.4 1.064e+04 5.713e-10
 60.06606     99.6 1.055e+04 4.694e-10
 60.08697    101.7 1.047e+04 3.673e-10
 60.10755    102.1 1.010e+04 2.327e-10
 60.14837    104.1 1.011e+04 1.885e-10
 60.18952    106.2 1.000e+04 1.694e-10
 60.21122    108.4 9.913e+03 1.692e-10
 60.23180    108.9 9.656e+03 1.354e-10
 60.27182    111.1 9.660e+03 1.437e-10
 60.31297    113.2 9.691e+03 1.751e-10
 60.33547    115.3 9.844e+03 2.340e-10
 60.34830    116.1 9.631e+03 1.971e-10
 60.36696    115.8 9.689e+03 1.954e-10
 60.39528    118.1 1.005e+04 3.016e-10
 60.43643    120.2 1.046e+04 4.455e-10
 60.45972    122.3 1.083e+04 5.895e-10
 60.48029    123.2 1.066e+04 5.352e-10
 60.51873    124.9 1.098e+04 6.693e-10
 60.54950    125.9 1.112e+04 7.487e-10
 60.56998    126.8 1.119e+04 8.113e-10
 60.58377    127.7 1.109e+04 7.909e-10
 60.59406    128.1 1.125e+04 8.445e-10
 60.61113    128.9 1.114e+04 8.306e-10
 60.63170    129.8 1.094e+04 7.476e-10
 60.64589    130.5 1.079e+04 6.406e-10
 60.65618    131.0 1.095e+04 7.790e-10
 60.67285    131.7 1.079e+04 6.641e-10
 60.69343    132.3 1.070e+04 5.690e-10
 60.70811    133.1 1.035e+04 4.253e-10
 60.71840    133.6 1.067e+04 5.711e-10
 60.73458    134.0 1.054e+04 4.956e-10
 60.76554    135.4 1.031e+04 4.379e-10
 60.80679    137.0 9.991e+03 3.500e-10
 60.83246    138.8 9.724e+03 2.862e-10
 60.85304    139.2 9.703e+03 2.924e-10
 60.88910    140.9 9.441e+03 2.430e-10
 60.93025    142.8 9.256e+03 2.256e-10
 60.95671    144.7 9.252e+03 2.269e-10
 60.97728    145.1 9.254e+03 2.300e-10
 61.01255    147.1 9.301e+03 2.394e-10
 61.05370    148.9 9.497e+03 2.743e-10
 61.08096    150.1 9.833e+03 3.401e-10
 61.10153    150.5 9.769e+03 3.263e-10
 61.12562    150.9 9.942e+03 3.824e-10
 61.14288    151.6 1.019e+04 4.764e-10
 61.15317    151.6 1.024e+04 4.879e-10
 61.16667    152.2 1.072e+04 6.701e-10
 61.18725    152.5 1.126e+04 9.065e-10
 61.20501    152.7 1.176e+04 1.176e-09
 61.21530    152.8 1.194e+04 1.331e-09
 61.22840    152.9 1.237e+04 1.656e-09
 61.24898    152.9 1.271e+04 1.842e-09
 61.26713    152.6 1.279e+04 1.850e-09
 61.27742    152.5 1.276e+04 1.837e-09
 61.29013    152.1 1.273e+04 1.774e-09
 61.31071    151.7 1.257e+04 1.614e-09
 61.32926    151.1 1.235e+04 1.441e-09
 61.33954    151.1 1.213e+04 1.258e-09
 61.35186    150.4 1.191e+04 1.176e-09
 61.37243    149.7 1.187e+04 1.177e-09
 61.39138    149.3 1.188e+04 1.209e-09
 61.40167    149.2 1.171e+04 1.114e-09
 61.40959    148.9 1.176e+04 1.183e-09
 61.41987    149.3 1.187e+04 1.243e-09
 61.43416    149.1 1.185e+04 1.266e-09
 61.45350    149.1 1.181e+04 1.251e-09
 61.46379    149.1 1.167e+04 1.166e-09
 61.47531    149.1 1.151e+04 1.110e-09
 61.49589    149.4 1.126e+04 9.639e-10
 61.51563    149.5 1.118e+04 9.140e-10
 61.52592    149.6 1.093e+04 7.921e-10
 61.54743    150.0 1.067e+04 6.728e-10
 61.57795    150.4 1.035e+04 5.681e-10
 61.59852    150.6 9.974e+03 4.315e-10
 61.62983    151.1 1.002e+04 4.492e-10
 61.66059    151.3 1.007e+04 4.800e-10
 61.68107    151.5 1.020e+04 5.598e-10
 61.70165    151.8 1.033e+04 6.536e-10
 61.71229    152.3 1.044e+04 7.201e-10
 61.72257    152.6 1.037e+04 6.837e-10
 61.74280    153.1 1.045e+04 7.255e-10
 61.76337    153.5 1.046e+04 7.253e-10
 61.77441    154.0 1.043e+04 7.158e-10
 61.78470    154.4 1.042e+04 7.218e-10
 61.80453    154.9 1.039e+04 7.109e-10
 61.82510    155.3 1.032e+04 6.809e-10
 61.83653    155.7 1.020e+04 6.338e-10
 61.84682    156.2 1.030e+04 6.841e-10
 61.86625    156.6 1.018e+04 6.402e-10
 61.88683    157.0 1.005e+04 5.936e-10
 61.89866    157.3 9.917e+03 5.483e-10
 61.90895    157.8 1.018e+04 6.496e-10
 61.92798    158.0 1.009e+04 6.276e-10
 61.94129    158.2 1.002e+04 6.131e-10
 61.95157    158.7 1.001e+04 5.695e-10
 61.96078    158.9 9.904e+03 5.594e-10
 61.97107    159.3 1.022e+04 6.739e-10
 61.98971    159.5 1.019e+04 6.753e-10
 62.01028    159.7 1.018e+04 6.774e-10
 62.02291    160.0 1.016e+04 6.826e-10
 62.03319    160.0 1.052e+04 8.177e-10
 62.05144    160.2 1.053e+04 8.358e-10
 62.07201    160.0 1.064e+04 8.719e-10
 62.08503    159.3 1.119e+04 9.993e-10
 62.09532    158.9 1.151e+04 1.185e-09
 62.11316    156.1 1.363e+04 1.820e-09
 62.13374    150.0 1.777e+04 5.178e-09
 62.14715    145.0 2.014e+04 1.436e-08
 62.15744    144.8 2.025e+04 1.253e-08
 62.17489    140.5 2.064e+04 1.909e-08
 62.19547    136.6 2.034e+04 1.838e-08
 62.20928    134.0 1.902e+04 1.301e-08
 62.21957    133.3 1.841e+04 1.105e-08
 62.23662    131.1 1.673e+04 6.004e-09
 62.25720    127.2 1.470e+04 2.766e-09
 62.27140    122.0 1.256e+04 1.585e-09
 62.28169    122.2 1.313e+04 2.000e-09
 62.29835    118.7 1.262e+04 1.917e-09
 62.31892    116.8 1.270e+04 2.035e-09
 62.33353    115.5 1.312e+04 2.338e-09
 62.34381    114.0 1.446e+04 3.546e-09
 62.36007    112.3 1.493e+04 3.947e-09
 62.38065    110.5 1.531e+04 4.306e-09
 62.39565    108.6 1.521e+04 4.212e-09
 62.40594    106.1 1.648e+04 6.924e-09
 62.42180    102.5 1.706e+04 7.344e-09
 62.44238     98.4 1.766e+04 7.633e-09
 62.45777     94.6 1.800e+04 7.811e-09
 62.46781     88.7 1.906e+04 8.322e-09
 62.47299     86.5 1.900e+04 8.421e-09
 62.48353     84.0 1.849e+04 7.947e-09
 62.50411     82.4 1.808e+04 7.264e-09
 62.51990     81.0 1.772e+04 6.291e-09
 62.53019     75.7 1.732e+04 5.921e-09
 62.54526     74.3 1.648e+04 4.950e-09
 62.56583     72.5 1.568e+04 4.188e-09
 62.58202     71.4 1.522e+04 4.007e-09
 62.59231     70.1 1.486e+04 3.644e-09
 62.60698     70.4 1.458e+04 3.275e-09
 62.62756     71.2 1.432e+04 2.848e-09
 62.64415     72.1 1.400e+04 2.288e-09
 62.65443     70.4 1.321e+04 1.456e-09
 62.66871     70.3 1.255e+04 1.001e-09
 62.68929     69.7 1.186e+04 7.206e-10
 62.70627     69.2 1.133e+04 6.492e-10
 62.71656     67.3 1.098e+04 6.484e-10
 62.74083     68.0 1.113e+04 6.905e-10
 62.76849     69.0 1.091e+04 6.362e-10
 62.77868     68.5 1.100e+04 6.974e-10
 62.79217     68.8 1.099e+04 7.036e-10
 62.81274     69.4 1.103e+04 7.351e-10
 62.83052     69.9 1.116e+04 7.849e-10
 62.84080     68.8 1.163e+04 9.836e-10
 62.85389     68.8 1.206e+04 1.145e-09
 62.87447     69.0 1.252e+04 1.356e-09
 62.89264     69.5 1.275e+04 1.543e-09
 62.90293     68.5 1.319e+04 2.252e-09
 62.91562     69.7 1.320e+04 2.415e-09
 62.94457     71.7 1.275e+04 1.845e-09
 62.96515     71.1 1.277e+04 1.998e-09
 62.98774     72.5 1.226e+04 1.606e-09
 63.02898     74.6 1.171e+04 1.252e-09
 63.06892     76.9 1.124e+04 9.798e-10
 63.08950     76.2 1.039e+04 6.361e-10
 63.11129     78.6 9.929e+03 4.773e-10
 63.15244     81.2 9.606e+03 3.930e-10
 63.19317     83.9 9.448e+03 3.592e-10
 63.21374     83.5 8.763e+03 2.234e-10
 63.23474     86.3 8.801e+03 2.287e-10
 63.27590     89.2 8.906e+03 2.491e-10
 63.31705     91.9 9.112e+03 2.855e-10
 63.33799     94.7 9.389e+03 3.411e-10
 63.35857     94.8 8.989e+03 2.501e-10
 63.39935     97.6 9.255e+03 3.041e-10
 63.44050    100.3 9.574e+03 3.855e-10
 63.46224    103.1 1.009e+04 5.270e-10
 63.48281    103.4 9.742e+03 4.198e-10
 63.51600    105.9 1.022e+04 5.580e-10
 63.53658    105.4 1.001e+04 4.668e-10
 63.56396    107.8 1.050e+04 6.137e-10
 63.58649    109.9 1.100e+04 7.532e-10
 63.60706    109.7 1.093e+04 7.325e-10
 63.64626    111.4 1.124e+04 7.642e-10
 63.68741    112.8 1.130e+04 7.382e-10
 63.71073    114.4 1.132e+04 6.246e-10
 63.73131    113.9 1.124e+04 6.217e-10
 63.76972    115.6 1.115e+04 4.706e-10
 63.81087    117.3 1.104e+04 3.790e-10
 63.83498    119.4 1.104e+04 3.776e-10
 63.85556    119.2 1.102e+04 3.789e-10
 63.89317    121.6 1.105e+04 3.906e-10
 63.93432    124.3 1.124e+04 4.214e-10
 63.95923    126.2 1.137e+04 4.589e-10
 63.97981    126.7 1.124e+04 4.505e-10
 64.01663    129.4 1.142e+04 5.077e-10
 64.04739    131.1 1.137e+04 5.315e-10
 64.05780    132.2 1.134e+04 5.474e-10
 64.06809    132.4 1.150e+04 6.041e-10
 64.08328    133.8 1.148e+04 6.611e-10
 64.09357    134.1 1.154e+04 6.742e-10
 64.10902    135.5 1.158e+04 7.179e-10
 64.12960    137.0 1.163e+04 7.503e-10
 64.14541    138.5 1.173e+04 7.732e-10
 64.15569    138.6 1.181e+04 7.941e-10
 64.17075    140.1 1.194e+04 8.068e-10
 64.19133    141.5 1.209e+04 8.099e-10
 64.20753    142.9 1.223e+04 8.061e-10
 64.21782    143.0 1.231e+04 8.081e-10
 64.23248    144.4 1.240e+04 7.896e-10
 64.25305    145.6 1.249e+04 7.667e-10
 64.26965    146.7 1.254e+04 7.348e-10
 64.27994    146.5 1.248e+04 6.876e-10
 64.29420    147.4 1.245e+04 6.539e-10
 64.31478    148.2 1.241e+04 6.288e-10
 64.33178    148.9 1.238e+04 6.288e-10
 64.34207    148.4 1.224e+04 5.802e-10
 64.35593    149.1 1.222e+04 5.909e-10
 64.37651    149.9 1.217e+04 6.340e-10
 64.39390    150.5 1.220e+04 7.175e-10
 64.40419    150.3 1.210e+04 7.137e-10
 64.41766    150.9 1.225e+04 8.348e-10
 64.43824    151.6 1.244e+04 9.929e-10
 64.45603    152.4 1.263e+04 1.183e-09
 64.46631    152.3 1.265e+04 1.191e-09
 64.47939    153.0 1.286e+04 1.402e-09
 64.49996    153.6 1.305e+04 1.605e-09
 64.51815    154.3 1.314e+04 1.682e-09
 64.52844    154.0 1.313e+04 1.689e-09
 64.54111    154.7 1.312e+04 1.670e-09
 64.56169    155.4 1.301e+04 1.549e-09
 64.57921    156.0 1.290e+04 1.374e-09
 64.58760    155.1 1.269e+04 1.426e-09
 64.59066    154.4 1.265e+04 1.436e-09
 64.60284    154.8 1.251e+04 1.368e-09
 64.62342    155.2 1.242e+04 1.337e-09
 64.64240    155.7 1.238e+04 1.334e-09
 64.65268    155.6 1.238e+04 1.378e-09
 64.66457    156.2 1.239e+04 1.447e-09
 64.68515    156.7 1.246e+04 1.540e-09
 64.70452    157.3 1.250e+04 1.604e-09
 64.71481    157.3 1.266e+04 1.872e-09
 64.72630    157.8 1.272e+04 1.895e-09
 64.74687    158.2 1.268e+04 1.896e-09
 64.76664    158.5 1.264e+04 1.885e-09
 64.77693    158.6 1.281e+04 2.087e-09
 64.78803    159.0 1.266e+04 1.973e-09
 64.80860    159.4 1.254e+04 1.878e-09
 64.82877    159.8 1.239e+04 1.769e-09
 64.83906    159.9 1.239e+04 1.791e-09
 64.84975    160.2 1.225e+04 1.671e-09
 64.87033    160.6 1.208e+04 1.535e-09
 64.89089    161.0 1.195e+04 1.426e-09
 64.91147    161.5 1.166e+04 1.240e-09
 64.93206    162.0 1.155e+04 1.140e-09
 64.95263    162.8 1.141e+04 1.027e-09
 64.96330    163.3 1.133e+04 9.509e-10
 64.97359    163.3 1.118e+04 8.859e-10
 64.99378    164.2 1.112e+04 8.181e-10
 65.01436    164.7 1.113e+04 8.119e-10
 65.02543    165.4 1.109e+04 7.838e-10
 65.03572    165.5 1.093e+04 7.132e-10
 65.05551    166.3 1.087e+04 6.852e-10
 65.07736    167.7 1.098e+04 7.220e-10
 65.09794    167.9 1.081e+04 6.589e-10
 65.12762    169.2 1.075e+04 6.463e-10
 65.16887    170.8 1.108e+04 7.240e-10
 65.19964    171.2 1.137e+04 8.083e-10
 65.21180    171.4 1.190e+04 9.961e-10
 65.22219    171.4 1.095e+04 6.688e-10
 65.24079    171.4 1.155e+04 8.458e-10
 65.26127    171.7 1.221e+04 1.135e-09
 65.27392    172.1 1.281e+04 1.560e-09
 65.28421    171.6 1.162e+04 9.116e-10
 65.30242    171.8 1.204e+04 1.110e-09
 65.32300    171.9 1.229e+04 1.312e-09
 65.33605    172.0 1.233e+04 1.413e-09
 65.34634    171.6 1.121e+04 8.880e-10
 65.36415    171.7 1.131e+04 9.379e-10
 65.38472    171.8 1.127e+04 9.404e-10
 65.39817    172.0 1.121e+04 9.176e-10
 65.40846    171.8 1.108e+04 8.342e-10
 65.42588    172.0 1.120e+04 8.314e-10
 65.44645    172.3 1.124e+04 8.253e-10
 65.46029    172.6 1.128e+04 8.160e-10
 65.47058    172.7 1.130e+04 8.174e-10
 65.48760    173.1 1.131e+04 8.038e-10
 65.50818    173.7 1.132e+04 7.812e-10
 65.52242    174.4 1.127e+04 7.578e-10
 65.53271    174.6 1.123e+04 7.585e-10
 65.54933    175.3 1.118e+04 7.378e-10
 65.56991    176.0 1.109e+04 7.199e-10
 65.58454    176.7 1.094e+04 7.076e-10
 65.59483    176.7 1.092e+04 7.098e-10
 65.61106    177.4 1.074e+04 6.993e-10
 65.63163    178.0 1.059e+04 6.873e-10
 65.64261    178.6 1.060e+04 6.765e-10
 65.64735    177.2 1.068e+04 7.308e-10
 65.65695    177.1 1.069e+04 7.335e-10
 65.67279    177.3 1.074e+04 7.316e-10
 65.69336    177.5 1.086e+04 7.350e-10
 65.70879    177.5 1.097e+04 7.544e-10
 65.71908    177.4 1.100e+04 7.658e-10
 65.73451    177.3 1.100e+04 7.828e-10
 65.75509    177.2 1.097e+04 7.839e-10
 65.77091    177.2 1.088e+04 7.702e-10
 65.78120    176.9 1.088e+04 7.718e-10
 65.79624    176.9 1.075e+04 7.440e-10
 65.81682    177.0 1.066e+04 7.220e-10
 65.83304    177.1 1.066e+04 7.176e-10
 65.84333    176.7 1.067e+04 7.323e-10
 65.85797    176.8 1.068e+04 7.408e-10
 65.87855    176.9 1.077e+04 7.734e-10
 65.89516    176.9 1.094e+04 8.328e-10
 65.90545    176.8 1.094e+04 8.561e-10
 65.91970    176.7 1.117e+04 9.579e-10
 65.94027    176.6 1.144e+04 1.095e-09
 65.95729    176.5 1.170e+04 1.256e-09
 65.96757    176.5 1.178e+04 1.309e-09
 65.98142    176.3 1.213e+04 1.581e-09
 66.00200    176.2 1.244e+04 1.876e-09
 66.01941    176.0 1.271e+04 2.076e-09
 66.02970    176.2 1.286e+04 2.141e-09
 66.04315    175.9 1.296e+04 2.156e-09
 66.06373    175.5 1.295e+04 2.111e-09
 66.08153    175.0 1.282e+04 1.896e-09
 66.09182    175.2 1.282e+04 1.871e-09
 66.10488    174.7 1.255e+04 1.510e-09
 66.12546    174.1 1.219e+04 1.127e-09
 66.14366    173.3 1.179e+04 8.042e-10
 66.15395    173.1 1.184e+04 8.347e-10
 66.16402    172.1 1.150e+04 6.378e-10
 66.17431    171.2 1.117e+04 5.203e-10
 66.18718    170.1 1.089e+04 4.410e-10
 66.20578    169.2 1.069e+04 4.255e-10
 66.21607    169.4 1.099e+04 5.296e-10
 66.22833    168.6 1.097e+04 5.287e-10
 66.24891    168.0 1.097e+04 5.282e-10
 66.26791    167.3 1.101e+04 5.368e-10
 66.27819    167.1 1.141e+04 6.799e-10
 66.29006    166.4 1.137e+04 6.730e-10
 66.31064    166.0 1.129e+04 6.509e-10
 66.33003    165.8 1.120e+04 6.274e-10
 66.34032    165.4 1.163e+04 8.075e-10
 66.35179    165.3 1.145e+04 7.391e-10
 66.37237    165.2 1.129e+04 6.786e-10
 66.39215    165.2 1.106e+04 5.863e-10
 66.40244    165.0 1.128e+04 6.994e-10
 66.41352    165.0 1.109e+04 6.249e-10
 66.44409    165.4 1.084e+04 5.174e-10
 66.46476    164.8 1.126e+04 7.476e-10
 66.48573    165.5 1.121e+04 7.400e-10
 66.52688    166.3 1.119e+04 7.474e-10
 66.56803    167.0 1.120e+04 7.696e-10
 66.58901    167.6 1.129e+04 8.213e-10
 66.60958    166.8 1.152e+04 8.680e-10
 66.65034    167.0 1.140e+04 8.075e-10
 66.68563    167.0 1.132e+04 7.601e-10
 66.70620    166.2 1.085e+04 5.641e-10
 66.71326    166.5 1.082e+04 5.565e-10
 66.73383    165.3 1.030e+04 3.391e-10
 66.77379    165.9 1.014e+04 3.189e-10
 66.81494    166.7 9.981e+03 2.928e-10
 66.83750    167.5 9.820e+03 2.609e-10
 66.85808    166.8 9.552e+03 2.194e-10
 66.89725    167.7 9.515e+03 2.162e-10
 66.93840    168.5 9.448e+03 2.018e-10
 66.96175    169.4 9.311e+03 1.781e-10
 66.98233    169.3 9.308e+03 1.941e-10
 67.02070    170.3 9.170e+03 1.781e-10
 67.06185    171.4 9.141e+03 1.760e-10
 67.08600    172.6 9.161e+03 1.799e-10
 67.10657    172.7 9.253e+03 2.036e-10
 67.14416    173.7 9.325e+03 2.212e-10
 67.18531    174.7 9.519e+03 2.593e-10
 67.21025    175.6 9.768e+03 3.169e-10
 67.23082    175.6 9.744e+03 3.096e-10
 67.26761    176.3 9.923e+03 3.577e-10
 67.29838    176.5 1.003e+04 4.030e-10
 67.31885    176.9 1.022e+04 4.849e-10
 67.33430    177.3 1.053e+04 6.182e-10
 67.34459    177.1 1.035e+04 5.335e-10
 67.36001    177.3 1.067e+04 6.811e-10
 67.38058    177.4 1.101e+04 8.460e-10
 67.39642    177.3 1.133e+04 1.001e-09
 67.40671    177.1 1.116e+04 9.053e-10
 67.42173    177.0 1.146e+04 1.052e-09
 67.44231    176.8 1.167e+04 1.154e-09
 67.45855    176.7 1.181e+04 1.216e-09
 67.46883    176.6 1.177e+04 1.222e-09
 67.48346    176.6 1.189e+04 1.296e-09
 67.50404    176.7 1.192e+04 1.304e-09
 67.52067    176.8 1.190e+04 1.289e-09
 67.53096    176.9 1.188e+04 1.303e-09
 67.54519    177.1 1.183e+04 1.276e-09
 67.56577    177.3 1.178e+04 1.238e-09
 67.58279    177.5 1.171e+04 1.177e-09
 67.59308    177.8 1.169e+04 1.211e-09
 67.60692    178.1 1.162e+04 1.167e-09
 67.62749    178.4 1.151e+04 1.094e-09
 67.64492    178.9 1.137e+04 9.890e-10
 67.65521    179.3 1.157e+04 1.184e-09
 67.66864    179.9 1.153e+04 1.108e-09
 67.68922    180.5 1.146e+04 9.891e-10
 67.70704    180.8 1.140e+04 8.508e-10
 67.71733    180.6 1.273e+04 1.548e-09
 67.73037    180.4 1.348e+04 1.648e-09
 67.74883    179.5 1.453e+04 1.805e-09
 67.75912    180.6 1.192e+04 7.745e-10
 67.76917    179.4 1.271e+04 8.250e-10
 67.77945    177.5 1.606e+04 2.238e-09
 67.79210    175.3 1.703e+04 2.882e-09
 67.81268    173.2 1.744e+04 3.898e-09
 67.83129    171.5 1.743e+04 5.241e-09
 67.84158    171.4 1.835e+04 1.112e-08
 67.85383    170.7 1.811e+04 1.217e-08
 67.87440    170.1 1.801e+04 1.281e-08
 67.89341    169.4 1.792e+04 1.256e-08
 67.90370    169.4 1.787e+04 1.115e-08
 67.91555    168.0 1.760e+04 9.808e-09
 67.93613    166.3 1.744e+04 9.341e-09
 67.95554    164.7 1.745e+04 9.382e-09
 67.96583    163.7 1.601e+04 5.471e-09
 67.97728    162.5 1.591e+04 5.676e-09
 67.99786    161.2 1.587e+04 6.132e-09
 68.01766    160.0 1.580e+04 6.202e-09
 68.02795    160.4 1.443e+04 4.136e-09
 68.03901    159.0 1.441e+04 4.158e-09
 68.05959    157.3 1.424e+04 3.977e-09
 68.07979    155.5 1.390e+04 3.580e-09
 68.09002    154.8 1.353e+04 3.185e-09
 68.09550    153.5 1.341e+04 3.004e-09
 68.10578    152.8 1.340e+04 2.854e-09
 68.12126    150.6 1.378e+04 2.864e-09
 68.14189    147.3 1.480e+04 2.979e-09
 68.15727    142.4 1.749e+04 4.192e-09
 68.16751    140.5 1.824e+04 4.780e-09
 68.17780    137.9 1.910e+04 5.463e-09
 68.18316    136.3 1.954e+04 5.954e-09
 68.18831    133.0 2.525e+04 9.927e-09
 68.19837    132.1 2.469e+04 1.070e-08
 68.20866    131.8 2.430e+04 1.103e-08
 68.21427    132.0 2.302e+04 1.075e-08
 68.21942    130.1 2.404e+04 1.906e-08
 68.22924    130.1 2.367e+04 1.529e-08
 68.24472    128.3 2.221e+04 1.615e-08
 68.26534    127.9 2.091e+04 1.224e-08
 68.27644    127.7 1.956e+04 9.775e-09
 68.28135    125.5 1.876e+04 1.278e-08
 68.29082    127.1 1.917e+04 1.081e-08
 68.30650    127.8 1.836e+04 9.340e-09
 68.32707    128.6 1.767e+04 8.081e-09
 68.33857    129.6 1.694e+04 6.742e-09
 68.34886    128.8 1.712e+04 7.743e-09
 68.36822    130.3 1.641e+04 5.690e-09
 68.38880    131.8 1.551e+04 3.879e-09
 68.40069    132.8 1.458e+04 2.475e-09
 68.41098    132.3 1.430e+04 2.175e-09
 68.42995    133.2 1.340e+04 1.339e-09
 68.45263    133.2 1.224e+04 7.101e-10
 68.47330    132.3 1.164e+04 7.187e-10
 68.50216    133.3 1.036e+04 3.754e-10
 68.54331    134.8 9.568e+03 2.526e-10
 68.57697    137.0 9.578e+03 2.525e-10
 68.59755    137.4 9.228e+03 2.128e-10
 68.62562    139.6 9.213e+03 2.063e-10
 68.66677    142.0 9.260e+03 2.086e-10
 68.70122    144.4 9.370e+03 2.205e-10
 68.72180    144.4 8.920e+03 1.872e-10
 68.74907    146.6 8.985e+03 1.938e-10
 68.79022    148.7 9.129e+03 2.085e-10
 68.81243    150.5 9.250e+03 2.255e-10
 68.82710    152.0 9.418e+03 2.435e-10
 68.84604    151.9 9.248e+03 2.394e-10
 68.87253    154.0 9.279e+03 2.459e-10
 68.91368    156.3 9.366e+03 2.539e-10
 68.94971    158.8 9.524e+03 2.690e-10
 68.97029    158.9 9.510e+03 2.787e-10
 68.99598    161.6 9.701e+03 3.000e-10
 69.03713    164.0 9.867e+03 3.269e-10
 69.06790    165.2 9.915e+03 3.527e-10
 69.08406    166.6 1.000e+04 3.926e-10
 69.09434    166.8 1.006e+04 3.980e-10
 69.10895    168.2 1.024e+04 4.635e-10
 69.12953    169.7 1.055e+04 5.632e-10
 69.14618    171.0 1.099e+04 7.147e-10
 69.15647    171.1 1.103e+04 7.149e-10
 69.17068    172.3 1.156e+04 9.193e-10
 69.19126    173.3 1.223e+04 1.242e-09
 69.20830    174.4 1.302e+04 1.758e-09
 69.21859    174.5 1.262e+04 1.491e-09
 69.23241    175.6 1.331e+04 1.998e-09
 69.25299    176.7 1.409e+04 2.698e-09
 69.27043    177.6 1.468e+04 3.411e-09
 69.28071    177.6 1.413e+04 2.739e-09
 69.29414    178.4 1.474e+04 3.400e-09
 69.30658    178.9 1.485e+04 3.732e-09
 69.31168    178.8 1.489e+04 3.664e-09
 69.31976    179.4 1.501e+04 3.866e-09
 69.33005    179.7 1.530e+04 4.069e-09
 69.33760    179.3 1.693e+04 4.540e-09
 69.34110    180.1 1.492e+04 3.809e-09
 69.34384    181.1 1.502e+04 4.068e-09
 69.35062    180.9 1.607e+04 4.535e-09
 69.36091    179.4 2.099e+04 6.299e-09
 69.36866    175.5 2.808e+04 1.664e-08
 69.37380    179.3 2.222e+04 7.311e-09
 69.38149    174.4 2.842e+04 2.776e-08
 69.39177    170.4 2.630e+04 1.368e-07
 69.39947    169.0 2.530e+04 2.292e-07
 69.40224    168.1 2.403e+04 3.661e-07
 69.40484    169.5 2.664e+04 1.705e-07
 69.40975    167.2 2.470e+04 3.576e-07
 69.41487    166.1 2.320e+04 5.351e-07
 69.41777    165.1 2.182e+04 7.303e-07
 69.42035    165.2 2.248e+04 6.206e-07
 69.42516    164.6 2.148e+04 7.114e-07
 69.43076    165.0 2.102e+04 8.247e-07
 69.43590    164.8 2.143e+04 6.866e-07
 69.44319    164.9 2.117e+04 7.404e-07
 69.45350    164.2 2.106e+04 6.570e-07
 69.46184    163.3 2.186e+04 3.893e-07
 69.46699    162.8 2.141e+04 5.357e-07
 69.47408    161.8 2.231e+04 2.792e-07
 69.48437    160.5 2.534e+04 9.699e-08
 69.49291    157.7 3.115e+04 2.461e-08
 69.49805    159.0 2.590e+04 6.479e-08
 69.50494    156.0 3.135e+04 1.746e-08
 69.51523    152.2 3.279e+04 6.658e-09
 69.52397    149.6 2.910e+04 4.788e-09
 69.52911    151.9 3.166e+04 6.151e-09
 69.53581    150.0 2.910e+04 4.656e-09
 69.54609    148.1 2.691e+04 3.178e-09
 69.56157    146.3 2.271e+04 2.248e-09
 69.58105    145.1 1.564e+04 2.652e-09
 69.59133    147.1 2.084e+04 1.191e-09
 69.60277    145.7 1.467e+04 1.419e-09
 69.62335    146.0 1.445e+04 1.402e-09
 69.64317    146.7 1.430e+04 1.388e-09
 69.65346    146.6 1.313e+04 8.104e-10
 69.66450    147.3 1.315e+04 8.435e-10
 69.68508    148.1 1.317e+04 9.050e-10
 69.70529    148.8 1.318e+04 1.003e-09
 69.71558    149.0 1.235e+04 6.710e-10
 69.72623    149.8 1.252e+04 7.592e-10
 69.74681    150.5 1.266e+04 8.826e-10
 69.76738    151.3 1.282e+04 1.039e-09
 69.78796    152.6 1.238e+04 8.534e-10
 69.80853    153.4 1.267e+04 1.039e-09
 69.82911    154.2 1.304e+04 1.279e-09
 69.83983    155.0 1.350e+04 1.594e-09
 69.85012    155.4 1.294e+04 1.172e-09
 69.86535    156.1 1.363e+04 1.591e-09
 69.87563    155.6 1.494e+04 2.934e-09
 69.89084    156.4 1.555e+04 4.013e-09
 69.90195    157.0 1.603e+04 4.934e-09
 69.91224    157.4 1.612e+04 4.402e-09
 69.92680    157.8 1.644e+04 4.820e-09
 69.93292    157.9 1.678e+04 5.307e-09
 69.93806    158.1 1.682e+04 4.881e-09
 69.94732    158.1 1.744e+04 5.790e-09
 69.95761    158.1 1.795e+04 7.638e-09
 69.96398    158.3 1.832e+04 1.024e-08
 69.96912    158.3 1.893e+04 8.778e-09
 69.97819    158.5 1.920e+04 1.148e-08
 69.98847    158.7 1.940e+04 1.532e-08
 69.99504    158.9 1.949e+04 1.881e-08
 70.00019    158.5 1.991e+04 1.652e-08
 70.00905    158.6 1.994e+04 1.984e-08
 70.01934    158.9 1.988e+04 2.367e-08
 70.02610    159.2 1.970e+04 2.790e-08
 70.03125    158.6 2.023e+04 2.278e-08
 70.03991    158.9 2.010e+04 2.605e-08
 70.05020    159.1 1.997e+04 2.907e-08
 70.05717    159.3 1.990e+04 2.943e-08
 70.06231    158.9 1.994e+04 2.297e-08
 70.07078    159.1 1.977e+04 2.363e-08
 70.08107    159.2 1.968e+04 2.246e-08
 70.08828    159.0 1.967e+04 2.049e-08
 70.09861    157.1 1.899e+04 1.349e-08
 70.11717    156.4 1.837e+04 1.085e-08
 70.13775    155.9 1.790e+04 8.804e-09
 70.15045    155.8 1.742e+04 7.433e-09
 70.16074    155.5 1.646e+04 6.448e-09
 70.17890    156.0 1.622e+04 5.829e-09
 70.19947    156.9 1.612e+04 5.304e-09
 70.21257    157.8 1.611e+04 4.753e-09
 70.22286    158.0 1.560e+04 4.926e-09
 70.24063    158.9 1.553e+04 4.600e-09
 70.26120    160.0 1.549e+04 4.219e-09
 70.27470    161.0 1.545e+04 3.789e-09
 70.28498    161.1 1.513e+04 3.878e-09
 70.30235    162.0 1.498e+04 3.470e-09
 70.32293    163.1 1.480e+04 3.065e-09
 70.33682    164.2 1.461e+04 2.720e-09
 70.34711    164.3 1.419e+04 2.710e-09
 70.36408    165.2 1.406e+04 2.422e-09
 70.38466    166.2 1.393e+04 2.175e-09
 70.39705    167.2 1.389e+04 1.999e-09
 70.40105    167.1 1.346e+04 1.603e-09
 70.40923    167.4 1.338e+04 1.640e-09
 70.42581    168.3 1.335e+04 1.572e-09
 70.44638    169.1 1.336e+04 1.562e-09
 70.46107    170.0 1.337e+04 1.576e-09
 70.47136    170.3 1.329e+04 1.535e-09
 70.48754    171.3 1.337e+04 1.554e-09
 70.50811    172.3 1.356e+04 1.637e-09
 70.52319    173.2 1.377e+04 1.793e-09
 70.53348    173.5 1.350e+04 1.592e-09
 70.54926    174.5 1.374e+04 1.726e-09
 70.56984    175.7 1.401e+04 1.930e-09
 70.58532    176.9 1.429e+04 2.200e-09
 70.59560    177.1 1.390e+04 1.835e-09
 70.61099    178.2 1.421e+04 2.073e-09
 70.63157    179.4 1.449e+04 2.345e-09
 70.64744    180.7 1.477e+04 2.641e-09
 70.65773    180.6 1.426e+04 2.229e-09
 70.67272    181.9 1.456e+04 2.479e-09
 70.69329    183.1 1.484e+04 2.664e-09
 70.70956    184.2 1.501e+04 2.719e-09
 70.71985    183.5 1.423e+04 2.276e-09
 70.73445    184.4 1.421e+04 2.261e-09
 70.75502    185.3 1.411e+04 2.184e-09
 70.77169    186.1 1.396e+04 2.044e-09
 70.78198    185.4 1.326e+04 1.699e-09
 70.79617    186.2 1.312e+04 1.570e-09
 70.81675    186.9 1.299e+04 1.441e-09
 70.83381    187.6 1.286e+04 1.315e-09
 70.84410    186.6 1.264e+04 1.130e-09
 70.85790    187.0 1.255e+04 1.045e-09
 70.87848    187.3 1.244e+04 9.569e-10
 70.89594    187.4 1.230e+04 8.658e-10
 70.90622    186.4 1.225e+04 8.039e-10
 70.91846    186.4 1.213e+04 7.545e-10
 70.92875    186.7 1.201e+04 7.231e-10
 70.94021    186.8 1.192e+04 7.005e-10
 70.95806    186.9 1.188e+04 6.829e-10
 70.96835    186.2 1.197e+04 7.133e-10
 70.98136    186.3 1.199e+04 7.187e-10
 71.00193    186.4 1.203e+04 7.309e-10
 71.02018    186.5 1.211e+04 7.554e-10
 71.03047    186.1 1.220e+04 8.074e-10
 71.04308    186.1 1.230e+04 8.491e-10
 71.06366    185.9 1.243e+04 9.054e-10
 71.08231    185.6 1.260e+04 9.886e-10
 71.09259    185.5 1.269e+04 1.050e-09
 71.10481    185.1 1.302e+04 1.209e-09
 71.12539    184.4 1.354e+04 1.487e-09
 71.14443    183.4 1.416e+04 1.931e-09
 71.15472    183.9 1.429e+04 2.020e-09
 71.16654    182.9 1.488e+04 2.630e-09
 71.18712    181.8 1.544e+04 3.349e-09
 71.20655    180.8 1.593e+04 4.126e-09
 71.21684    181.8 1.568e+04 3.721e-09
 71.22827    181.0 1.588e+04 4.114e-09
 71.24884    180.2 1.620e+04 4.473e-09
 71.26868    179.6 1.664e+04 4.840e-09
 71.27897    180.8 1.589e+04 3.951e-09
 71.28999    180.3 1.639e+04 4.323e-09
 71.30484    180.0 1.654e+04 4.507e-09
 71.30993    180.2 1.645e+04 4.354e-09
 71.31562    180.1 1.665e+04 4.498e-09
 71.32590    179.9 1.713e+04 4.955e-09
 71.33585    179.4 1.782e+04 5.865e-09
 71.34099    179.6 1.749e+04 5.194e-09
 71.34648    178.7 1.838e+04 6.569e-09
 71.35677    177.3 1.997e+04 8.631e-09
 71.36691    175.1 2.325e+04 1.148e-08
 71.37205    176.0 2.076e+04 1.013e-08
 71.37734    172.9 2.380e+04 1.480e-08
 71.38763    169.1 2.716e+04 2.358e-08
 71.39792    165.3 2.846e+04 4.341e-08
 71.40312    162.2 2.726e+04 8.729e-08
 71.40826    164.5 2.649e+04 5.753e-08
 71.41850    162.4 2.554e+04 9.768e-08
 71.42878    160.7 2.462e+04 1.260e-07
 71.43418    159.1 2.430e+04 1.251e-07
 71.43932    161.3 2.461e+04 1.002e-07
 71.44936    159.8 2.419e+04 9.431e-08
 71.45520    159.2 2.352e+04 7.407e-08
 71.46035    159.0 2.375e+04 9.511e-08
 71.46524    159.1 2.310e+04 6.401e-08
 71.47038    160.1 2.337e+04 6.630e-08
 71.48022    160.0 2.281e+04 4.547e-08
 71.49051    159.9 2.245e+04 3.161e-08
 71.49630    159.7 2.215e+04 2.338e-08
 71.50145    160.5 2.208e+04 2.478e-08
 71.51628    160.0 2.148e+04 1.770e-08
 71.52746    159.9 2.018e+04 1.169e-08
 71.53775    161.0 2.013e+04 1.168e-08
 71.55748    160.9 1.860e+04 8.110e-09
 71.57806    161.1 1.717e+04 5.854e-09
 71.58959    161.5 1.599e+04 4.377e-09
 71.59987    162.1 1.602e+04 4.463e-09
 71.61921    162.4 1.518e+04 3.498e-09
 71.63978    162.8 1.448e+04 2.823e-09
 71.65171    163.3 1.386e+04 2.312e-09
 71.66200    163.9 1.399e+04 2.296e-09
 71.68094    164.8 1.336e+04 1.818e-09
 71.70151    165.9 1.295e+04 1.486e-09
 71.71383    167.1 1.262e+04 1.200e-09
 71.72412    167.5 1.254e+04 1.085e-09
 71.75305    168.4 1.200e+04 8.570e-10
 71.79430    169.0 1.117e+04 6.102e-10
 71.82799    169.9 1.062e+04 4.930e-10
 71.84856    171.0 1.053e+04 4.499e-10
 71.87660    172.2 1.031e+04 4.112e-10
 71.91775    173.4 1.026e+04 3.874e-10
 71.95224    174.5 1.032e+04 3.880e-10
 71.97281    175.5 1.017e+04 3.247e-10
 71.98205    176.2 1.023e+04 3.275e-10
 72.00263    177.1 1.000e+04 2.725e-10
 72.04121    177.5 1.016e+04 2.949e-10
 72.07648    177.7 1.035e+04 3.368e-10
 72.09706    178.6 1.002e+04 2.528e-10
 72.12351    178.4 1.035e+04 3.210e-10
 72.14880    177.2 1.070e+04 4.504e-10
 72.15899    177.7 1.058e+04 3.895e-10
 72.17476    177.2 1.083e+04 5.117e-10
 72.19533    176.7 1.108e+04 6.659e-10
 72.21082    176.4 1.133e+04 7.609e-10
 72.22111    177.1 1.113e+04 6.900e-10
 72.23648    176.8 1.123e+04 7.024e-10
 72.25706    176.4 1.123e+04 6.875e-10
 72.27295    175.8 1.113e+04 5.982e-10
 72.28324    176.6 1.103e+04 5.772e-10
 72.29821    176.1 1.089e+04 5.022e-10
 72.31879    175.4 1.070e+04 4.194e-10
 72.33507    174.9 1.050e+04 3.672e-10
 72.34536    176.0 1.048e+04 3.683e-10
 72.35994    175.4 1.038e+04 3.432e-10
 72.38051    175.0 1.030e+04 3.392e-10
 72.39720    174.5 1.031e+04 3.413e-10
 72.40748    175.4 1.028e+04 3.384e-10
 72.42167    175.1 1.030e+04 3.422e-10
 72.44224    174.8 1.038e+04 3.622e-10
 72.45932    174.4 1.057e+04 4.218e-10
 72.46961    175.6 1.045e+04 3.824e-10
 72.48339    175.0 1.066e+04 4.570e-10
 72.50327    174.3 1.092e+04 5.700e-10
 72.51356    174.3 1.120e+04 6.667e-10
 72.52144    173.4 1.159e+04 8.462e-10
 72.53173    174.7 1.131e+04 7.041e-10
 72.54512    173.7 1.165e+04 8.690e-10
 72.56570    172.8 1.186e+04 1.008e-09
 72.58357    171.8 1.195e+04 1.066e-09
 72.59386    173.0 1.180e+04 9.647e-10
 72.60685    172.1 1.181e+04 1.003e-09
 72.62742    171.2 1.197e+04 1.041e-09
 72.64569    169.4 1.299e+04 1.218e-09
 72.65598    171.3 1.217e+04 1.055e-09
 72.66858    168.3 1.447e+04 1.511e-09
 72.68915    164.1 1.809e+04 3.510e-09
 72.70782    160.5 1.981e+04 9.285e-09
 72.71810    162.8 1.912e+04 5.751e-09
 72.73030    160.0 1.983e+04 1.296e-08
 72.75088    158.9 1.997e+04 2.088e-08
 72.76626    158.9 2.015e+04 2.386e-08
 72.77417    158.7 2.049e+04 2.542e-08
 72.77779    158.0 2.066e+04 2.418e-08
 72.78018    158.8 2.037e+04 2.166e-08
 72.79203    157.8 2.092e+04 2.157e-08
 72.81261    155.8 2.197e+04 1.608e-08
 72.83206    151.9 2.334e+04 7.355e-09
 72.84235    152.7 2.239e+04 8.580e-09
 72.85376    147.4 2.166e+04 3.062e-09
 72.87434    140.7 1.584e+04 1.094e-09
 72.89419    138.8 1.249e+04 7.910e-10
 72.90447    140.1 1.252e+04 7.402e-10
 72.91549    139.4 1.126e+04 5.801e-10
 72.94612    137.8 1.138e+04 4.504e-10
 72.96679    139.5 1.125e+04 4.066e-10
 72.98770    137.4 1.020e+04 2.206e-10
 73.02488    137.2 9.780e+03 1.584e-10
 73.04545    135.4 9.576e+03 1.351e-10
 73.07000    136.4 9.556e+03 1.362e-10
 73.09104    137.7 9.563e+03 1.455e-10
 73.11162    139.5 9.498e+03 1.331e-10
 73.15230    140.7 9.548e+03 1.479e-10
 73.19346    141.5 9.576e+03 1.690e-10
 73.21529    141.9 9.576e+03 1.996e-10
 73.23587    144.0 9.495e+03 1.721e-10
 73.27576    144.4 9.534e+03 2.153e-10
 73.31691    144.8 9.685e+03 2.782e-10
 73.33954    145.1 9.874e+03 3.452e-10
 73.36011    147.3 9.777e+03 3.220e-10
 73.39921    147.4 9.981e+03 3.815e-10
 73.44037    147.4 1.010e+04 3.899e-10
 73.46378    147.5 1.007e+04 3.700e-10
 73.48436    149.9 1.010e+04 3.861e-10
 73.52267    149.9 9.969e+03 3.377e-10
 73.56382    150.2 9.609e+03 2.772e-10
 73.58803    150.0 9.152e+03 2.210e-10
 73.60861    152.2 9.307e+03 2.416e-10
 73.64612    152.2 8.914e+03 2.037e-10
 73.68728    152.4 8.625e+03 1.780e-10
 73.71228    152.8 8.514e+03 1.652e-10
 73.73286    155.0 8.685e+03 1.965e-10
 73.76958    155.4 8.639e+03 1.891e-10
 73.81073    155.5 8.686e+03 1.916e-10
 73.83653    155.1 8.813e+03 2.119e-10
 73.85710    157.8 8.844e+03 2.201e-10
 73.89304    157.2 8.941e+03 2.429e-10
 73.93419    156.6 9.025e+03 2.794e-10
 73.96078    156.2 9.079e+03 3.041e-10
 73.98135    158.1 9.098e+03 3.102e-10
 74.01649    157.7 9.184e+03 3.110e-10
 74.05764    156.8 9.275e+03 3.016e-10
 74.08502    155.1 9.390e+03 2.736e-10
 74.09508    157.4 9.348e+03 2.774e-10
 74.09847    156.6 9.545e+03 3.374e-10
 74.10889    156.4 9.428e+03 2.950e-10
 74.12946    156.1 9.211e+03 2.465e-10
 74.14695    155.1 9.170e+03 2.232e-10
 74.15724    155.8 9.012e+03 2.198e-10
 74.17061    154.2 9.056e+03 2.224e-10
 74.19119    151.5 9.416e+03 2.694e-10
 74.20908    148.3 1.034e+04 5.020e-10
 74.21936    149.7 9.501e+03 3.535e-10
 74.23234    146.6 1.056e+04 7.140e-10
 74.25292    144.0 1.227e+04 1.503e-09
 74.27120    142.2 1.353e+04 2.690e-09
 74.28149    142.6 1.295e+04 2.179e-09
 74.29407    141.2 1.376e+04 3.045e-09
 74.31464    139.7 1.388e+04 3.080e-09
 74.33332    138.3 1.372e+04 2.753e-09
 74.34361    139.0 1.336e+04 2.476e-09
 74.35580    137.5 1.290e+04 1.842e-09
 74.37637    135.5 1.218e+04 1.212e-09
 74.39545    133.4 1.142e+04 8.003e-10
 74.40574    134.0 1.135e+04 7.806e-10
 74.41752    132.2 1.077e+04 5.746e-10
 74.43810    131.2 1.038e+04 4.694e-10
 74.45757    130.2 1.019e+04 4.109e-10
 74.46786    131.0 1.021e+04 4.426e-10
 74.47925    130.7 1.007e+04 4.118e-10
 74.49983    129.9 1.001e+04 3.840e-10
 74.51970    129.8 9.978e+03 3.750e-10
 74.52998    130.6 1.003e+04 3.965e-10
 74.55136    131.0 9.954e+03 3.578e-10
 74.58201    131.0 9.796e+03 3.172e-10
 74.60259    132.0 9.900e+03 3.241e-10
 74.63377    131.5 9.707e+03 2.913e-10
 74.67492    131.4 9.442e+03 2.726e-10
 74.70626    131.7 9.176e+03 2.401e-10
 74.72684    132.2 9.184e+03 2.396e-10
 74.75722    132.9 8.910e+03 1.911e-10
 74.79837    133.5 8.670e+03 1.450e-10
 74.83051    134.2 8.445e+03 1.195e-10
 74.85109    134.8 8.484e+03 1.229e-10
 74.88068    135.8 8.380e+03 1.199e-10
 74.92183    137.1 8.371e+03 1.218e-10
 74.95476    138.5 8.377e+03 1.280e-10
 74.97533    139.0 8.505e+03 1.375e-10
 75.00413    140.4 8.540e+03 1.448e-10
 75.04528    141.9 8.575e+03 1.502e-10
 75.07901    143.3 8.598e+03 1.536e-10
 75.09958    143.7 8.759e+03 1.708e-10
 75.12759    145.3 8.804e+03 1.805e-10
 75.15168    147.0 8.884e+03 1.977e-10
 75.17225    147.2 8.914e+03 2.161e-10
 75.20325    149.0 8.992e+03 2.391e-10
 75.22383    149.4 9.261e+03 2.881e-10
 75.25104    151.3 9.377e+03 3.276e-10
 75.29219    153.1 9.669e+03 4.101e-10
 75.32750    154.8 1.028e+04 5.783e-10
 75.34798    154.9 1.052e+04 6.681e-10
 75.36401    155.0 1.084e+04 7.962e-10
 75.38459    155.3 1.114e+04 9.391e-10
 75.39972    155.6 1.147e+04 1.117e-09
 75.41001    155.6 1.162e+04 1.196e-09
 75.42574    156.0 1.194e+04 1.408e-09
 75.44632    156.4 1.224e+04 1.606e-09
 75.46184    156.7 1.243e+04 1.703e-09
 75.47213    156.4 1.233e+04 1.654e-09
 75.48747    156.7 1.226e+04 1.590e-09
 75.50804    157.0 1.205e+04 1.408e-09
 75.52397    157.2 1.177e+04 1.160e-09
 75.53425    156.6 1.164e+04 1.126e-09
 75.54920    156.3 1.132e+04 8.912e-10
 75.56977    155.6 1.120e+04 7.649e-10
 75.58609    154.9 1.125e+04 7.673e-10
 75.59638    154.1 1.123e+04 7.681e-10
 75.61092    153.1 1.146e+04 8.265e-10
 75.63150    151.6 1.205e+04 1.066e-09
 75.64821    149.9 1.295e+04 1.655e-09
 75.65850    148.9 1.296e+04 1.675e-09
 75.67265    146.3 1.449e+04 3.004e-09
 75.68318    142.7 1.708e+04 5.947e-09
 75.69347    143.6 1.660e+04 5.580e-09
 75.71034    139.8 1.994e+04 1.278e-08
 75.72062    140.1 1.854e+04 1.078e-08
 75.73438    136.5 2.090e+04 1.409e-08
 75.75495    131.3 2.251e+04 1.357e-08
 75.77246    124.4 2.213e+04 1.160e-08
 75.78275    125.4 2.114e+04 7.742e-09
 75.79611    118.0 1.907e+04 6.781e-09
 75.81668    114.3 1.611e+04 5.754e-09
 75.83458    114.2 1.480e+04 4.461e-09
 75.84487    114.1 1.574e+04 5.889e-09
 75.85783    114.8 1.530e+04 4.581e-09
 75.87841    114.1 1.510e+04 2.852e-09
 75.89671    111.0 1.458e+04 1.509e-09
 75.90700    112.6 1.596e+04 2.569e-09
 75.91956    107.8 1.431e+04 1.264e-09
 75.94014    103.3 1.168e+04 8.697e-10
 75.95883    101.7 1.126e+04 8.675e-10
 75.96912    100.7 1.159e+04 1.010e-09
 75.98129     99.7 1.166e+04 1.097e-09
 76.00186     99.6 1.159e+04 1.085e-09
 76.02096     99.0 1.165e+04 9.925e-10
 76.03124     98.1 1.169e+04 9.891e-10
 76.04302     97.4 1.132e+04 7.689e-10
 76.06359     95.6 1.104e+04 6.004e-10
 76.08308     91.9 1.206e+04 5.483e-10
 76.09337     89.8 1.233e+04 5.789e-10
 76.10474     84.6 1.261e+04 9.136e-10
 76.12532     81.7 1.244e+04 1.361e-09
 76.14520     80.7 1.283e+04 1.918e-09
 76.15549     80.2 1.319e+04 2.051e-09
 76.16647     78.8 1.396e+04 2.332e-09
 76.18705     75.0 1.456e+04 2.321e-09
 76.20459     70.1 1.447e+04 2.192e-09
 76.21459     69.0 1.455e+04 2.602e-09
 76.21762     68.9 1.472e+04 2.687e-09
 76.22820     65.3 1.475e+04 2.416e-09
 76.24878     62.4 1.418e+04 1.937e-09
 76.26935     60.1 1.323e+04 1.314e-09
 76.27974     58.5 1.259e+04 8.119e-10
 76.29003     58.1 1.260e+04 8.182e-10
 76.31050     56.2 1.220e+04 4.874e-10
 76.33108     53.3 1.172e+04 3.059e-10
 76.34186     50.1 1.138e+04 2.509e-10
 76.35215     50.1 1.136e+04 2.954e-10
 76.37223     48.1 1.127e+04 2.917e-10
 76.39281     47.0 1.137e+04 3.671e-10
 76.40399     46.8 1.170e+04 4.820e-10
 76.41428     47.1 1.185e+04 5.735e-10
 76.44434     46.3 1.190e+04 5.874e-10
 76.46631     44.8 1.180e+04 5.300e-10
 76.48688     44.6 1.166e+04 4.710e-10
 76.52674     42.8 1.108e+04 2.972e-10
 76.56790     41.7 1.066e+04 2.052e-10
 76.59055     41.4 1.053e+04 1.763e-10
 76.61113     41.5 1.029e+04 1.279e-10
 76.65020     42.1 1.032e+04 1.361e-10
 76.69135     43.1 1.034e+04 1.665e-10
 76.71480     44.4 1.037e+04 2.148e-10
 76.73538     45.0 1.019e+04 1.888e-10
 76.77365     46.5 1.037e+04 2.517e-10
 76.81481     47.8 1.059e+04 3.318e-10
 76.83905     48.6 1.078e+04 4.265e-10
 76.85963     49.1 1.063e+04 3.658e-10
 76.89711     49.4 1.081e+04 4.992e-10
 76.93826     50.0 1.099e+04 6.493e-10
 76.96320     49.8 1.097e+04 7.046e-10
 76.98378     51.2 1.098e+04 7.146e-10
 77.01018     51.8 1.077e+04 6.887e-10
 77.02523     52.8 1.049e+04 5.960e-10
 77.03551     53.1 1.049e+04 5.979e-10
 77.05123     53.7 1.017e+04 4.904e-10
 77.07181     53.9 9.952e+03 4.198e-10
 77.08735     53.9 9.807e+03 3.856e-10
 77.09764     54.1 9.804e+03 3.862e-10
 77.11296     54.3 9.736e+03 3.766e-10
 77.13354     54.8 9.804e+03 3.843e-10
 77.14947     55.6 9.788e+03 3.867e-10
 77.15976     55.6 9.771e+03 3.870e-10
 77.18507     57.1 9.919e+03 4.154e-10
 77.21179     58.6 9.927e+03 4.038e-10
 77.23237     58.5 9.841e+03 3.801e-10
 77.25790     60.1 9.575e+03 3.093e-10
 77.27848     59.4 8.954e+03 1.992e-10
 77.30863     60.9 8.590e+03 1.414e-10
 77.33604     62.4 8.336e+03 1.048e-10
 77.35662     61.9 8.072e+03 8.124e-11
 77.39093     63.7 7.956e+03 7.180e-11
 77.43208     65.5 7.882e+03 6.787e-11
 77.46029     67.6 7.886e+03 6.794e-11
 77.48086     67.3 7.867e+03 6.981e-11
 77.51439     69.4 7.956e+03 8.390e-11
 77.55554     71.6 8.138e+03 1.084e-10
 77.58454     73.8 8.440e+03 1.454e-10
 77.60511     73.9 8.430e+03 1.460e-10
 77.63784     75.9 8.728e+03 1.731e-10
 77.67899     77.4 9.018e+03 2.187e-10
 77.70878     78.9 9.291e+03 3.031e-10
 77.72936     79.2 9.023e+03 2.434e-10
 77.76130     81.0 9.436e+03 3.426e-10
 77.80245     81.7 1.030e+04 4.754e-10
 77.83293     80.2 1.041e+04 5.559e-10
 77.84312     80.5 1.029e+04 5.079e-10
 77.85369     82.1 9.942e+03 4.652e-10
 77.87427     83.1 9.723e+03 5.091e-10
 77.89484     83.5 1.008e+04 4.637e-10
 77.90525     82.8 1.034e+04 5.017e-10
 77.91554     82.7 1.056e+04 5.516e-10
 77.93600     81.5 1.081e+04 6.481e-10
 77.95657     80.2 1.109e+04 7.700e-10
 77.96737     79.2 1.168e+04 9.308e-10
 77.97766     76.9 1.345e+04 1.392e-09
 77.99772     71.1 1.667e+04 2.176e-09
 78.01830     64.8 1.828e+04 3.468e-09
 78.02950     57.3 1.863e+04 6.402e-09
 78.03978     53.6 1.841e+04 8.425e-09
 78.05945     48.8 1.812e+04 8.395e-09
 78.08003     43.4 1.854e+04 6.482e-09
 78.09162     35.1 1.778e+04 3.781e-09
 78.10191     31.7 1.508e+04 3.502e-09
 78.12118     24.9 1.433e+04 2.757e-09
 78.14175     21.3 1.477e+04 2.752e-09
 78.15374     18.0 1.570e+04 3.261e-09
 78.16403     18.8 1.518e+04 2.800e-09
 78.18291     16.0 1.579e+04 3.388e-09
 78.20348     14.0 1.590e+04 4.136e-09
 78.21587     12.8 1.579e+04 4.594e-09
 78.22616     13.1 1.577e+04 4.063e-09
 78.24463     12.2 1.570e+04 4.354e-09
 78.26521     11.9 1.538e+04 4.299e-09
 78.27799     12.0 1.482e+04 3.702e-09
 78.28828     12.0 1.483e+04 3.503e-09
 78.30636     12.1 1.422e+04 2.945e-09
 78.32111     12.3 1.369e+04 2.406e-09
 78.33139     12.7 1.291e+04 1.855e-09
 78.34012     12.8 1.240e+04 1.536e-09
 78.35040     12.6 1.243e+04 1.517e-09
 78.36809     13.0 1.202e+04 1.337e-09
 78.38866     14.0 1.158e+04 1.166e-09
 78.40224     15.0 1.123e+04 1.003e-09
 78.41253     14.5 1.165e+04 1.164e-09
 78.42982     15.6 1.138e+04 1.034e-09
 78.45039     16.6 1.109e+04 8.984e-10
 78.46436     17.7 1.080e+04 7.762e-10
 78.47465     17.2 1.147e+04 1.044e-09
 78.49154     18.3 1.126e+04 9.569e-10
 78.51212     19.5 1.111e+04 9.064e-10
 78.52649     20.7 1.104e+04 8.926e-10
 78.53677     20.0 1.209e+04 1.353e-09
 78.55327     21.3 1.207e+04 1.354e-09
 78.57385     22.6 1.206e+04 1.374e-09
 78.58861     24.1 1.206e+04 1.390e-09
 78.59890     23.3 1.317e+04 2.124e-09
 78.61500     24.8 1.318e+04 2.140e-09
 78.63557     26.2 1.320e+04 2.154e-09
 78.65073     27.5 1.311e+04 2.095e-09
 78.66102     26.4 1.417e+04 2.996e-09
 78.67673     27.8 1.401e+04 2.878e-09
 78.69730     29.2 1.390e+04 2.754e-09
 78.71286     30.4 1.378e+04 2.595e-09
 78.72315     28.9 1.492e+04 3.543e-09
 78.73845     30.3 1.484e+04 3.489e-09
 78.75903     31.6 1.482e+04 3.418e-09
 78.77498     32.8 1.479e+04 3.313e-09
 78.78527     31.1 1.576e+04 4.059e-09
 78.80018     32.5 1.573e+04 4.128e-09
 78.82076     33.9 1.579e+04 4.234e-09
 78.83711     35.3 1.580e+04 4.317e-09
 78.84739     34.0 1.630e+04 4.564e-09
 78.85281     35.5 1.654e+04 4.840e-09
 78.86309     36.6 1.589e+04 4.244e-09
 78.88248     38.3 1.607e+04 4.423e-09
 78.89923     39.8 1.630e+04 4.619e-09
 78.90952     38.0 1.672e+04 4.742e-09
 78.92364     39.2 1.734e+04 5.308e-09
 78.94421     40.0 1.795e+04 6.136e-09
 78.96135     40.7 1.841e+04 7.335e-09
 78.97164     38.8 1.818e+04 6.984e-09
 78.98536     39.9 1.868e+04 8.733e-09
 79.00594     41.1 1.934e+04 1.114e-08
 79.02348     42.0 1.997e+04 1.366e-08
 79.03377     40.6 1.912e+04 9.184e-09
 79.04709     41.5 2.000e+04 1.047e-08
 79.06767     42.4 2.111e+04 1.155e-08
 79.08560     42.9 2.205e+04 1.143e-08
 79.09589     40.6 1.925e+04 3.505e-09
 79.10882     39.6 1.876e+04 2.684e-09
 79.12939     37.8 1.772e+04 2.355e-09
 79.14773     35.6 1.626e+04 2.283e-09
 79.15801     32.8 1.285e+04 1.946e-09
 79.17055     32.3 1.291e+04 2.142e-09
 79.19112     32.0 1.306e+04 2.422e-09
 79.20985     32.1 1.331e+04 2.785e-09
 79.22014     32.6 1.307e+04 2.392e-09
 79.23227     33.0 1.355e+04 2.619e-09
 79.25285     33.3 1.388e+04 2.772e-09
 79.27197     33.7 1.397e+04 2.885e-09
 79.28226     33.8 1.357e+04 2.437e-09
 79.29400     34.6 1.365e+04 2.609e-09
 79.31458     35.2 1.366e+04 2.684e-09
 79.33410     36.2 1.372e+04 2.764e-09
 79.34438     35.7 1.336e+04 2.318e-09
 79.35573     36.2 1.345e+04 2.348e-09
 79.37422     36.7 1.373e+04 2.407e-09
 79.38451     36.9 1.417e+04 2.781e-09
 79.39622     37.0 1.489e+04 3.081e-09
 79.40651     36.3 1.422e+04 2.402e-09
 79.41746     36.4 1.489e+04 2.605e-09
 79.43803     36.2 1.532e+04 2.743e-09
 79.45834     36.1 1.558e+04 2.877e-09
 79.46863     35.2 1.366e+04 1.768e-09
 79.47918     35.4 1.358e+04 1.685e-09
 79.49976     35.5 1.323e+04 1.477e-09
 79.52034     35.7 1.303e+04 1.387e-09
 79.53076     35.9 1.273e+04 1.200e-09
 79.54104     34.5 1.068e+04 6.429e-10
 79.56149     34.4 1.026e+04 5.705e-10
 79.58206     34.1 1.030e+04 5.254e-10
 79.59298     34.9 1.219e+04 7.970e-10
 79.61365     31.9 9.067e+03 1.924e-10
 79.65427     31.6 9.682e+03 2.741e-10
 79.69543     31.3 9.863e+03 3.497e-10
 79.71732     31.0 9.669e+03 3.789e-10
 79.73790     31.6 9.635e+03 3.753e-10
 79.77773     32.6 9.678e+03 3.801e-10
 79.81888     32.0 9.960e+03 3.583e-10
 79.84157     29.9 1.150e+04 5.759e-10
 79.86215     32.3 9.761e+03 3.103e-10
 79.89080     29.1 1.010e+04 3.924e-10
 79.90350     29.5 1.125e+04 7.140e-10
 79.90843     29.8 1.049e+04 4.870e-10
 79.91621     32.0 1.032e+04 4.099e-10
 79.93185     31.2 1.056e+04 5.707e-10
 79.95243     31.4 1.109e+04 8.243e-10
 79.96562     32.1 1.180e+04 1.134e-09
 79.97591     31.8 1.145e+04 9.148e-10
 79.99358     31.8 1.221e+04 1.261e-09
 80.01416     31.8 1.280e+04 1.631e-09
 80.02775     31.4 1.314e+04 1.872e-09
 80.03804     31.0 1.313e+04 1.863e-09
 80.05531     30.5 1.334e+04 2.049e-09
 80.07588     30.0 1.378e+04 2.324e-09
 80.08987     28.9 1.437e+04 2.783e-09
 80.10016     28.3 1.422e+04 2.587e-09
 80.11704     27.0 1.495e+04 3.193e-09
 80.13761     25.6 1.543e+04 3.863e-09
 80.15200     25.1 1.595e+04 4.681e-09
 80.16228     24.1 1.550e+04 3.769e-09
 80.17876     23.6 1.566e+04 4.258e-09
 80.19934     23.3 1.562e+04 4.389e-09
 80.21412     23.0 1.532e+04 4.143e-09
 80.22441     22.6 1.494e+04 3.522e-09
 80.24049     22.4 1.482e+04 3.333e-09
 80.26107     22.0 1.461e+04 2.994e-09
 80.27624     21.0 1.454e+04 2.791e-09
 80.28653     21.1 1.432e+04 2.456e-09
 80.30222     19.9 1.423e+04 2.378e-09
 80.32279     18.1 1.493e+04 2.517e-09
 80.33837     15.9 1.629e+04 3.301e-09
 80.34865     16.6 1.508e+04 2.383e-09
 80.36395     14.8 1.645e+04 3.360e-09
 80.38452     13.9 1.742e+04 4.878e-09
 80.40049     13.8 1.792e+04 6.527e-09
 80.41078     13.9 1.706e+04 4.220e-09
 80.42567     14.3 1.747e+04 5.326e-09
 80.43762     14.9 1.772e+04 6.165e-09
 80.44791     15.4 1.782e+04 6.264e-09
 80.46261     16.2 1.797e+04 6.681e-09
 80.47290     16.5 1.710e+04 4.807e-09
 80.48740     18.1 1.758e+04 5.383e-09
 80.50798     19.5 1.913e+04 6.284e-09
 80.52474     20.5 2.211e+04 8.279e-09
 80.53503     21.0 2.049e+04 5.486e-09
 80.54913     21.9 2.709e+04 9.716e-09
 80.56090     21.3 3.166e+04 1.698e-08
 80.56599     16.9 3.373e+04 1.453e-08
 80.57475     13.3 4.707e+04 1.957e-08
 80.58504      8.8 4.657e+04 6.439e-08
 80.59188      0.4 3.617e+04 3.401e-07
 80.59443     -4.7 3.383e+04 3.716e-07
 80.59785     -7.7 2.518e+04 1.383e-06
 80.60299    -10.5 1.943e+04 5.747e-06
 80.60739    -14.0 1.783e+04 1.478e-05
 80.60996    -15.0 1.956e+04 5.608e-06
 80.61328    -18.5 1.910e+04 6.978e-06
 80.61843    -23.6 1.968e+04 5.706e-06
 80.62292    -29.1 2.204e+04 2.523e-06
 80.62809    -31.9 3.145e+04 3.426e-07
 80.63648    -42.3 3.314e+04 1.271e-07
 80.64677    -47.1 3.299e+04 3.626e-08
 80.65403    -47.1 2.882e+04 2.209e-08
 80.65918    -45.5 2.907e+04 2.135e-08
 80.66734    -44.9 2.763e+04 1.776e-08
 80.67763    -44.4 2.663e+04 1.466e-08
 80.68509    -44.9 2.551e+04 1.205e-08
 80.69024    -46.9 2.685e+04 1.332e-08
 80.69821    -50.1 2.521e+04 1.148e-08
 80.70849    -55.3 2.294e+04 1.075e-08
 80.71616    -57.4 2.148e+04 1.078e-08
 80.72130    -59.2 2.197e+04 1.647e-08
 80.72907    -59.6 2.145e+04 1.681e-08
 80.73936    -59.6 2.076e+04 1.936e-08
 80.74722    -59.4 2.101e+04 2.115e-08
 80.75236    -59.7 2.208e+04 2.522e-08
 80.75993    -59.5 2.213e+04 2.424e-08
 80.77022    -59.1 2.199e+04 2.259e-08
 80.77828    -58.5 2.176e+04 2.115e-08
 80.78342    -60.0 2.202e+04 2.017e-08
 80.79599    -60.4 2.171e+04 1.753e-08
 80.81661    -60.9 2.117e+04 1.311e-08
 80.83536    -61.5 2.072e+04 9.932e-09
 80.84565    -65.1 1.901e+04 5.279e-09
 80.85777    -65.9 1.793e+04 3.825e-09
 80.87834    -66.8 1.664e+04 3.081e-09
 80.89748    -67.7 1.550e+04 2.734e-09
 80.90777    -69.8 1.383e+04 2.655e-09
 80.91949    -70.2 1.363e+04 2.507e-09
 80.94007    -70.4 1.355e+04 2.454e-09
 80.95903    -70.5 1.354e+04 2.445e-09
 80.96828    -70.5 1.367e+04 2.496e-09
 80.96989    -70.4 1.353e+04 2.409e-09
 80.98122    -70.4 1.347e+04 2.344e-09
 81.00180    -70.5 1.335e+04 2.201e-09
 81.02173    -70.5 1.311e+04 1.918e-09
 81.03202    -70.9 1.287e+04 1.691e-09
 81.04295    -71.4 1.251e+04 1.431e-09
 81.06352    -72.0 1.208e+04 1.198e-09
 81.08385    -72.4 1.163e+04 1.016e-09
 81.09414    -73.1 1.160e+04 1.026e-09
 81.10468    -73.2 1.126e+04 8.918e-10
 81.12525    -73.0 1.094e+04 7.775e-10
 81.14583    -72.6 1.068e+04 6.806e-10
 81.15627    -72.1 1.047e+04 6.015e-10
 81.16655    -72.2 1.053e+04 6.203e-10
 81.18698    -71.6 1.033e+04 5.424e-10
 81.20756    -70.9 1.017e+04 4.741e-10
 81.21839    -70.2 1.004e+04 4.119e-10
 81.22868    -70.6 1.007e+04 4.211e-10
 81.24871    -70.0 9.979e+03 3.661e-10
 81.26928    -69.6 9.971e+03 3.300e-10
 81.28051    -69.4 1.002e+04 3.131e-10
 81.29080    -69.5 1.000e+04 3.234e-10
 81.31043    -69.3 1.004e+04 3.131e-10
 81.33101    -69.1 1.007e+04 3.098e-10
 81.34264    -68.9 1.009e+04 3.087e-10
 81.35292    -68.7 1.005e+04 3.185e-10
 81.37216    -68.4 1.006e+04 3.150e-10
 81.39274    -68.2 1.008e+04 3.165e-10
 81.40476    -68.1 1.014e+04 3.266e-10
 81.41505    -67.8 1.013e+04 3.363e-10
 81.43389    -68.1 1.036e+04 3.552e-10
 81.45447    -68.7 1.068e+04 4.043e-10
 81.46688    -69.2 1.099e+04 4.954e-10
 81.47717    -69.9 1.101e+04 5.328e-10
 81.49073    -70.2 1.118e+04 6.512e-10
 81.50102    -70.4 1.147e+04 7.802e-10
 81.51619    -70.1 1.146e+04 8.420e-10
 81.52901    -69.4 1.149e+04 8.614e-10
 81.53930    -69.8 1.121e+04 7.913e-10
 81.55735    -68.9 1.098e+04 6.874e-10
 81.57792    -68.2 1.083e+04 5.711e-10
 81.59113    -67.6 1.073e+04 4.619e-10
 81.60142    -69.0 1.042e+04 3.313e-10
 81.61907    -68.8 1.022e+04 2.709e-10
 81.63965    -68.3 1.014e+04 2.426e-10
 81.65326    -67.6 1.014e+04 2.340e-10
 81.66354    -69.2 1.021e+04 2.398e-10
 81.68080    -67.9 1.023e+04 2.386e-10
 81.70138    -66.7 1.033e+04 2.412e-10
 81.71538    -65.5 1.046e+04 2.480e-10
 81.72567    -68.6 1.417e+04 3.597e-10
 81.74253    -67.1 1.459e+04 3.787e-10
 81.76310    -65.6 1.513e+04 3.975e-10
 81.77750    -64.2 1.557e+04 4.093e-10
 81.78260    -67.1 2.058e+04 6.548e-10
 81.78873    -66.8 2.135e+04 6.675e-10
 81.79901    -66.3 2.239e+04 6.945e-10
 81.80847    -66.2 2.340e+04 7.249e-10
 81.81361    -70.9 2.725e+04 2.538e-09
 81.81959    -71.0 2.750e+04 2.811e-09
 81.82988    -71.2 2.765e+04 3.199e-09
 81.83953    -71.4 2.775e+04 3.766e-09
 81.84467    -72.5 2.239e+04 1.359e-08
 81.85045    -72.1 2.226e+04 1.584e-08
 81.86074    -71.6 2.208e+04 1.824e-08
 81.87059    -71.0 2.195e+04 2.087e-08
 81.87574    -69.9 1.997e+04 3.074e-08
 81.88132    -69.2 2.008e+04 3.093e-08
 81.89161    -68.6 2.027e+04 3.136e-08
 81.90165    -68.1 2.038e+04 3.176e-08
 81.90680    -68.2 2.095e+04 2.680e-08
 81.91218    -68.1 2.145e+04 2.592e-08
 81.92247    -68.3 2.237e+04 2.555e-08
 81.93272    -68.9 2.414e+04 2.334e-08
 81.94300    -71.7 2.887e+04 1.307e-08
 81.95333    -72.8 3.095e+04 1.202e-08
 81.96362    -74.0 3.318e+04 1.093e-08
 81.96892    -75.0 3.500e+04 1.030e-08
 81.97411    -86.6 3.542e+04 2.664e-09
 81.98944    -89.0 3.591e+04 2.752e-09
 82.01001    -90.1 3.960e+04 2.851e-09
 82.02243    -90.3 4.604e+04 2.653e-09
 82.02813    -88.1 4.589e+04 3.278e-09
 82.03629   -103.9 1.836e+04 1.827e-09
 82.05117   -108.2 1.896e+04 1.904e-09
 82.07174   -113.8 1.769e+04 2.058e-09
 82.08812   -119.9 1.577e+04 2.267e-09
 82.09841   -124.0 1.465e+04 1.992e-09
 82.11289   -128.2 1.444e+04 2.105e-09
 82.13347   -131.7 1.424e+04 2.133e-09
 82.15025   -134.6 1.393e+04 2.137e-09
 82.16053   -135.3 1.382e+04 1.869e-09
 82.17462   -137.5 1.330e+04 1.624e-09
 82.19520   -139.9 1.261e+04 1.279e-09
 82.21237   -141.6 1.198e+04 9.720e-10
 82.22266   -141.9 1.156e+04 6.914e-10
 82.23635   -143.5 1.090e+04 5.099e-10
 82.25692   -144.9 1.051e+04 4.021e-10
 82.28789   -146.7 1.027e+04 3.402e-10
 82.32653   -148.7 9.905e+03 2.737e-10
 82.34710   -150.4 9.529e+03 2.077e-10
 82.37029   -151.8 9.321e+03 1.749e-10
 82.41144   -153.4 9.334e+03 1.620e-10
 82.45077   -155.9 9.566e+03 1.626e-10
 82.47135   -156.3 9.594e+03 1.807e-10
 82.49374   -160.0 1.178e+04 3.499e-10
 82.52309   -161.4 1.290e+04 5.126e-10
 82.53328   -160.8 1.275e+04 5.621e-10
 82.54384   -163.4 1.365e+04 9.694e-10
 82.55423   -158.1 1.177e+04 2.762e-10
 82.57502   -162.3 1.381e+04 8.522e-10
 82.59560   -161.3 1.349e+04 9.160e-10
 82.60681   -165.5 1.464e+04 2.221e-09
 82.62729   -167.3 1.545e+04 2.984e-09
 82.64724   -169.7 1.606e+04 3.648e-09
 82.65753   -168.4 1.600e+04 3.627e-09
 82.66844   -171.1 1.627e+04 3.930e-09
 82.68902   -174.1 1.623e+04 3.983e-09
 82.70936   -177.1 1.571e+04 3.633e-09
 82.71965   -176.0 1.577e+04 3.627e-09
 82.73017   -179.1 1.482e+04 2.896e-09
 82.75074   -181.8 1.380e+04 2.228e-09
 82.77132   -183.9 1.293e+04 1.721e-09
 82.78177   -185.2 1.227e+04 1.354e-09
 82.79206   -185.1 1.189e+04 1.202e-09
 82.81247   -186.1 1.141e+04 9.671e-10
 82.83305   -186.7 1.102e+04 8.071e-10
 82.84390   -187.2 1.079e+04 7.079e-10
 82.85419   -187.2 1.067e+04 6.891e-10
 82.87420   -187.6 1.063e+04 6.582e-10
 82.89478   -188.4 1.064e+04 6.524e-10
 82.90602   -190.0 1.091e+04 6.811e-10
 82.91631   -190.9 1.133e+04 7.698e-10
 82.93593   -194.9 1.341e+04 1.182e-09
 82.95650   -199.3 1.508e+04 1.958e-09
 82.96815   -203.2 1.612e+04 2.833e-09
 82.97843   -207.2 1.878e+04 6.283e-09
 82.99765   -209.6 1.842e+04 6.616e-09
 83.01823   -211.3 1.723e+04 6.210e-09
 83.03027   -212.6 1.607e+04 4.948e-09
 83.04056   -213.0 1.607e+04 5.808e-09
 83.05938   -214.0 1.505e+04 4.163e-09
 83.07554   -214.9 1.426e+04 3.114e-09
 83.08583   -214.9 1.439e+04 3.382e-09
 83.09239   -215.8 1.356e+04 2.558e-09
 83.10268   -215.2 1.351e+04 2.443e-09
 83.12111   -215.7 1.285e+04 1.974e-09
 83.14169   -215.8 1.267e+04 1.873e-09
 83.15452   -215.7 1.265e+04 1.863e-09
 83.16480   -215.0 1.229e+04 1.525e-09
 83.18284   -214.8 1.229e+04 1.568e-09
 83.20341   -214.4 1.242e+04 1.727e-09
 83.21664   -213.8 1.256e+04 1.876e-09
 83.22693   -213.0 1.217e+04 1.413e-09
 83.24457   -212.3 1.229e+04 1.557e-09
 83.26514   -211.7 1.238e+04 1.666e-09
 83.27876   -210.9 1.245e+04 1.738e-09
 83.28905   -210.5 1.221e+04 1.366e-09
 83.30629   -209.8 1.237e+04 1.523e-09
 83.32687   -209.2 1.254e+04 1.671e-09
 83.34089   -208.6 1.272e+04 1.799e-09
 83.35118   -208.3 1.263e+04 1.581e-09
 83.36802   -207.7 1.285e+04 1.773e-09
 83.38860   -207.2 1.301e+04 1.912e-09
 83.40301   -206.6 1.307e+04 1.965e-09
 83.41330   -206.3 1.276e+04 1.539e-09
 83.42975   -205.9 1.277e+04 1.545e-09
 83.45032   -205.3 1.274e+04 1.529e-09
 83.46514   -204.7 1.267e+04 1.442e-09
 83.47542   -204.8 1.223e+04 1.058e-09
 83.49148   -204.3 1.212e+04 1.001e-09
 83.51205   -203.7 1.202e+04 9.520e-10
 83.52726   -203.2 1.194e+04 9.139e-10
 83.53755   -203.3 1.166e+04 7.935e-10
 83.55320   -202.7 1.169e+04 8.010e-10
 83.57378   -202.0 1.176e+04 8.194e-10
 83.58938   -201.3 1.186e+04 8.443e-10
 83.59967   -201.4 1.189e+04 8.629e-10
 83.60724   -200.7 1.203e+04 9.260e-10
 83.61753   -200.2 1.176e+04 7.830e-10
 83.63551   -199.5 1.188e+04 8.263e-10
 83.65151   -198.8 1.199e+04 8.679e-10
 83.66180   -198.9 1.214e+04 9.334e-10
 83.67666   -198.2 1.223e+04 9.654e-10
 83.69723   -197.4 1.231e+04 9.887e-10
 83.71363   -196.6 1.238e+04 1.003e-09
 83.73431   -196.8 1.229e+04 9.654e-10
 83.76944   -195.0 1.230e+04 9.479e-10
 83.81060   -193.2 1.232e+04 9.025e-10
 83.83798   -191.6 1.239e+04 9.095e-10
 83.85855   -191.4 1.219e+04 8.203e-10
 83.89290   -189.3 1.221e+04 7.988e-10
 83.93405   -187.4 1.222e+04 7.917e-10
 83.96232   -185.2 1.226e+04 8.003e-10
 83.98290   -185.6 1.229e+04 8.143e-10
 84.01635   -183.8 1.239e+04 8.924e-10
 84.05751   -182.0 1.254e+04 1.003e-09
 84.08657   -180.2 1.272e+04 1.154e-09
 84.10715   -181.4 1.290e+04 1.221e-09
 84.13981   -179.6 1.308e+04 1.403e-09
 84.18096   -177.7 1.326e+04 1.601e-09
 84.21082   -175.8 1.339e+04 1.766e-09
 84.23139   -177.2 1.300e+04 1.460e-09
 84.26327   -175.4 1.297e+04 1.461e-09
 84.29403   -174.0 1.272e+04 1.280e-09
 84.31451   -172.9 1.271e+04 1.315e-09
 84.33497   -172.3 1.274e+04 1.360e-09
 84.35564   -173.2 1.195e+04 8.801e-10
 84.38672   -171.3 1.175e+04 8.006e-10
 84.42787   -169.4 1.165e+04 7.550e-10
 84.45931   -167.4 1.157e+04 7.366e-10
 84.47989   -168.2 1.084e+04 4.328e-10
 84.51018   -166.4 1.082e+04 4.302e-10
 84.55133   -164.7 1.081e+04 4.411e-10
 84.58356   -163.1 1.081e+04 4.505e-10
 84.60414   -163.5 1.029e+04 3.117e-10
 84.63363   -161.8 1.028e+04 3.160e-10
 84.66055   -160.0 1.020e+04 3.140e-10
 84.68113   -159.2 1.042e+04 3.910e-10
 84.70781   -157.2 1.015e+04 3.267e-10
 84.72838   -157.3 9.906e+03 2.644e-10
 84.75709   -155.2 9.735e+03 2.196e-10
 84.79824   -153.0 9.590e+03 1.827e-10
 84.83206   -150.8 9.453e+03 1.536e-10
 84.85263   -150.9 9.506e+03 1.553e-10
 84.88054   -148.7 9.462e+03 1.410e-10
 84.92169   -146.4 9.465e+03 1.353e-10
 84.95630   -144.1 9.470e+03 1.342e-10
 84.97688   -144.4 9.594e+03 1.588e-10
 85.00400   -142.3 9.620e+03 1.597e-10
 85.04515   -140.5 9.692e+03 1.704e-10
 85.08055   -138.7 9.816e+03 2.028e-10
 85.10113   -139.2 9.894e+03 2.300e-10
 85.12745   -137.6 1.015e+04 3.038e-10
 85.16860   -136.2 1.075e+04 4.757e-10
 85.20480   -134.9 1.157e+04 7.785e-10
 85.22538   -136.2 1.202e+04 9.711e-10
 85.25091   -136.0 1.276e+04 1.469e-09
 85.27711   -135.6 1.302e+04 1.724e-09
 85.28730   -136.4 1.307e+04 1.874e-09
 85.30215   -136.3 1.305e+04 1.994e-09
 85.32273   -136.1 1.298e+04 2.022e-09
 85.33914   -136.0 1.293e+04 2.031e-09
 85.34943   -136.4 1.294e+04 2.031e-09
 85.36388   -136.9 1.311e+04 2.055e-09
 85.38445   -138.0 1.346e+04 2.170e-09
 85.40126   -139.3 1.369e+04 2.327e-09
 85.41155   -141.2 1.438e+04 2.836e-09
 85.42561   -142.0 1.422e+04 2.871e-09
 85.44618   -142.4 1.369e+04 2.597e-09
 85.46339   -142.6 1.305e+04 2.069e-09
 85.47368   -143.1 1.323e+04 2.191e-09
 85.48733   -143.6 1.246e+04 1.500e-09
 85.50791   -144.3 1.170e+04 1.031e-09
 85.52551   -145.0 1.099e+04 7.447e-10
 85.53580   -146.0 1.095e+04 7.199e-10
 85.54906   -146.4 1.041e+04 5.772e-10
 85.56964   -146.5 1.007e+04 4.988e-10
 85.58764   -146.0 9.865e+03 4.532e-10
 85.59792   -146.6 1.013e+04 5.492e-10
 85.61079   -145.9 1.004e+04 5.236e-10
 85.63136   -145.4 9.958e+03 4.947e-10
 85.64976   -144.9 9.865e+03 4.652e-10
 85.66005   -145.4 1.020e+04 5.942e-10
 85.67252   -145.0 1.013e+04 5.672e-10
 85.69309   -144.6 1.011e+04 5.587e-10
 85.71188   -144.4 1.012e+04 5.587e-10
 85.72197   -144.9 1.049e+04 7.199e-10
 85.72375   -143.8 1.064e+04 7.868e-10
 85.73424   -143.6 1.076e+04 8.044e-10
 85.75482   -143.4 1.092e+04 8.550e-10
 85.78578   -143.6 1.108e+04 9.152e-10
 85.82604   -143.2 1.098e+04 8.976e-10
 85.84661   -144.4 1.136e+04 1.079e-09
 85.86818   -144.1 1.111e+04 9.851e-10
 85.90933   -143.6 1.078e+04 8.508e-10
 85.95029   -143.2 1.041e+04 6.964e-10
 85.97086   -143.9 1.046e+04 7.211e-10
 85.99164   -143.1 1.010e+04 5.867e-10
 86.03279   -142.3 9.760e+03 4.719e-10
 86.07394   -141.3 9.505e+03 3.959e-10
 86.09511   -140.3 9.425e+03 3.684e-10
 86.11569   -140.4 9.486e+03 3.867e-10
 86.15624   -139.6 9.499e+03 3.807e-10
 86.19740   -139.6 9.800e+03 4.275e-10
 86.21936   -139.8 1.078e+04 6.855e-10
 86.23993   -139.7 1.049e+04 5.796e-10
 86.27970   -140.4 1.156e+04 1.011e-09
 86.32085   -141.1 1.231e+04 1.503e-09
 86.34351   -141.4 1.261e+04 1.756e-09
 86.35370   -141.3 1.238e+04 1.595e-09
 86.37209   -142.0 1.245e+04 1.686e-09
 86.39267   -142.9 1.243e+04 1.734e-09
 86.40553   -143.6 1.220e+04 1.620e-09
 86.41582   -143.4 1.217e+04 1.608e-09
 86.43382   -144.0 1.188e+04 1.434e-09
 86.45440   -144.6 1.157e+04 1.230e-09
 86.46766   -145.2 1.128e+04 1.061e-09
 86.47795   -144.9 1.137e+04 1.105e-09
 86.49555   -145.4 1.109e+04 9.643e-10
 86.51613   -145.6 1.082e+04 8.494e-10
 86.52978   -145.7 1.053e+04 7.372e-10
 86.54007   -145.5 1.062e+04 7.712e-10
 86.55728   -145.4 1.029e+04 6.536e-10
 86.57785   -144.7 9.944e+03 5.330e-10
 86.59200   -143.7 9.580e+03 4.050e-10
 86.60229   -143.9 9.799e+03 4.811e-10
 86.61900   -143.1 9.688e+03 4.286e-10
 86.64997   -142.9 9.611e+03 3.843e-10
 86.69122   -142.3 9.320e+03 3.011e-10
 86.71635   -140.8 8.895e+03 2.200e-10
 86.73692   -140.7 9.162e+03 2.684e-10
 86.76677   -138.9 8.891e+03 2.149e-10
 86.78735   -139.2 9.195e+03 2.757e-10
 86.81467   -137.3 9.154e+03 2.611e-10
 86.84060   -135.4 9.165e+03 2.607e-10
 86.86117   -136.0 9.722e+03 3.836e-10
 86.89697   -134.3 1.009e+04 4.590e-10
 86.92774   -133.0 1.051e+04 5.633e-10
 86.94822   -132.8 1.080e+04 6.450e-10
 86.96465   -132.5 1.134e+04 8.605e-10
 86.97494   -133.3 1.193e+04 1.255e-09
 86.98937   -132.8 1.231e+04 1.538e-09
 87.00995   -132.2 1.267e+04 1.842e-09
 87.02677   -131.7 1.299e+04 2.137e-09
 87.03706   -132.1 1.314e+04 2.249e-09
 87.05110   -131.7 1.338e+04 2.478e-09
 87.07167   -131.3 1.355e+04 2.639e-09
 87.08890   -130.9 1.364e+04 2.686e-09
 87.09918   -131.5 1.331e+04 2.161e-09
 87.11283   -131.1 1.330e+04 2.088e-09
 87.13340   -130.8 1.322e+04 1.901e-09
 87.15102   -130.5 1.299e+04 1.559e-09
 87.16131   -131.4 1.251e+04 1.125e-09
 87.18494   -130.9 1.248e+04 1.071e-09
 87.21334   -130.1 1.227e+04 9.265e-10
 87.23392   -131.7 1.121e+04 5.315e-10
 87.25695   -130.2 1.164e+04 6.283e-10
 87.27527   -129.9 1.160e+04 6.121e-10
 87.28556   -130.1 1.142e+04 5.428e-10
 87.29801   -129.5 1.112e+04 4.643e-10
 87.30857   -129.2 1.085e+04 4.222e-10
 87.31885   -129.4 1.043e+04 3.527e-10
 87.33739   -128.5 1.043e+04 3.452e-10
 87.35807   -128.7 1.038e+04 3.405e-10
 87.39079   -127.2 1.039e+04 3.304e-10
 87.43195   -125.6 1.049e+04 3.310e-10
 87.46183   -123.9 1.053e+04 3.177e-10
 87.48241   -123.6 9.813e+03 2.361e-10
 87.51425   -122.0 9.314e+03 1.956e-10
 87.55540   -121.1 9.074e+03 1.698e-10
 87.58608   -120.8 9.090e+03 1.862e-10
 87.60666   -120.6 9.134e+03 1.878e-10
 87.63770   -120.1 1.040e+04 3.058e-10
 87.67886   -118.9 1.123e+04 5.052e-10
 87.71033   -117.3 1.160e+04 7.149e-10
 87.73091   -116.6 1.146e+04 6.282e-10
 87.76116   -115.2 1.179e+04 8.191e-10
 87.80231   -113.9 1.189e+04 8.897e-10
 87.83017   -112.8 1.184e+04 8.779e-10
 87.84186   -111.3 1.157e+04 7.528e-10
 87.85515   -110.8 1.168e+04 7.995e-10
 87.88462   -109.7 1.167e+04 8.042e-10
 87.92577   -108.4 1.151e+04 7.468e-10
 87.95883   -107.1 1.136e+04 6.809e-10
 87.97940   -106.4 1.149e+04 7.415e-10
 88.00807   -105.2 1.134e+04 6.712e-10
 88.04922   -104.2 1.128e+04 6.459e-10
 88.08307   -103.2 1.124e+04 6.417e-10
 88.10365   -102.4 1.145e+04 7.172e-10
 88.13153   -101.6 1.147e+04 7.386e-10
 88.17268   -100.9 1.148e+04 7.497e-10
 88.20732   -100.3 1.143e+04 7.243e-10
 88.22790   -100.0 1.189e+04 9.444e-10
 88.25498    -99.5 1.180e+04 9.206e-10
 88.29613    -98.9 1.165e+04 8.757e-10
 88.33157    -98.1 1.151e+04 8.384e-10
 88.35214    -98.4 1.185e+04 1.061e-09
 88.37844    -97.7 1.167e+04 9.556e-10
 88.41959    -96.9 1.147e+04 8.312e-10
 88.45582    -96.1 1.126e+04 7.158e-10
 88.47639    -96.4 1.123e+04 6.853e-10
 88.50189    -95.5 1.102e+04 5.883e-10
 88.54304    -94.6 1.096e+04 5.590e-10
 88.58006    -93.9 1.095e+04 5.590e-10
 88.60064    -93.9 1.101e+04 5.788e-10
 88.61496    -92.8 1.132e+04 6.880e-10
 88.63544    -92.6 1.135e+04 7.306e-10
 88.65228    -92.5 1.165e+04 7.892e-10
 88.66257    -92.5 1.184e+04 8.797e-10
 88.67659    -96.9 1.613e+04 8.941e-10
 88.69717   -109.7 2.510e+04 2.988e-09
 88.71255   -115.7 2.424e+04 1.045e-08
 88.71945   -118.2 2.321e+04 2.039e-08
 88.72460   -117.1 2.339e+04 1.680e-08
 88.73308   -119.2 2.210e+04 3.125e-08
 88.74336   -120.1 2.130e+04 4.097e-08
 88.75051   -120.7 2.108e+04 4.347e-08
 88.75566   -120.1 2.129e+04 3.865e-08
 88.76394   -120.8 2.106e+04 3.815e-08
 88.77423   -121.9 2.083e+04 2.881e-08
 88.78157   -124.4 2.066e+04 1.626e-08
 88.78672   -124.6 2.064e+04 1.603e-08
 88.79480   -128.2 1.970e+04 8.343e-09
 88.80509   -132.0 1.823e+04 4.441e-09
 88.82057   -136.5 1.607e+04 2.268e-09
 88.83865   -142.7 1.206e+04 8.323e-10
 88.84894   -142.7 1.224e+04 8.129e-10
 88.86177   -145.8 1.026e+04 4.601e-10
 88.88235   -146.6 9.776e+03 3.869e-10
 88.89338   -147.0 9.655e+03 3.616e-10
 88.90152   -146.8 9.846e+03 4.087e-10
 88.91106   -146.9 9.911e+03 4.216e-10
 88.92350   -147.3 9.868e+03 4.010e-10
 88.94408   -147.7 9.834e+03 3.922e-10
 88.96290   -148.0 9.821e+03 3.933e-10
 88.97319   -148.0 1.005e+04 4.659e-10
 88.98523   -148.3 1.007e+04 4.753e-10
 89.00580   -148.7 1.013e+04 4.998e-10
 89.02502   -149.2 1.028e+04 5.476e-10
 89.03531   -149.0 1.040e+04 5.795e-10
 89.04696   -149.8 1.057e+04 6.373e-10
 89.06753   -150.7 1.080e+04 7.347e-10
 89.08715   -151.8 1.103e+04 8.417e-10
 89.09744   -152.2 1.112e+04 8.569e-10
 89.10868   -153.8 1.131e+04 9.470e-10
 89.12926   -155.5 1.138e+04 9.854e-10
 89.14927   -157.1 1.144e+04 9.904e-10
 89.15956   -159.7 1.285e+04 1.541e-09
 89.17041   -161.2 1.291e+04 1.563e-09
 89.19099   -162.5 1.281e+04 1.530e-09
 89.21140   -163.7 1.270e+04 1.475e-09
 89.22168   -165.7 1.387e+04 2.612e-09
 89.23214   -167.1 1.381e+04 2.553e-09
 89.25271   -168.4 1.387e+04 2.598e-09
 89.27329   -169.8 1.414e+04 2.820e-09
 89.28381   -171.2 1.444e+04 3.151e-09
 89.29410   -173.3 1.507e+04 4.060e-09
 89.31444   -174.6 1.510e+04 4.176e-09
 89.33502   -175.7 1.505e+04 4.195e-09
 89.34593   -176.6 1.481e+04 3.957e-09
 89.35622   -178.8 1.480e+04 3.975e-09
 89.37617   -179.6 1.442e+04 3.401e-09
 89.39675   -180.4 1.397e+04 2.841e-09
 89.40806   -181.2 1.351e+04 2.429e-09
 89.41581   -182.7 1.339e+04 2.680e-09
 89.42508   -182.7 1.368e+04 3.150e-09
 89.43790   -182.9 1.345e+04 2.986e-09
 89.45847   -182.9 1.329e+04 2.840e-09
 89.47018   -182.8 1.314e+04 2.669e-09
 89.48047   -183.2 1.323e+04 2.740e-09
 89.49962   -182.9 1.307e+04 2.513e-09
 89.52020   -182.7 1.286e+04 2.228e-09
 89.53230   -182.5 1.257e+04 1.898e-09
 89.54259   -183.1 1.262e+04 1.922e-09
 89.56135   -182.9 1.224e+04 1.558e-09
 89.58193   -182.7 1.183e+04 1.236e-09
 89.59443   -182.5 1.143e+04 9.762e-10
 89.60471   -182.9 1.133e+04 9.442e-10
 89.62308   -182.6 1.094e+04 7.637e-10
 89.64366   -182.2 1.063e+04 6.422e-10
 89.65655   -181.7 1.041e+04 5.656e-10
 89.66684   -181.8 1.036e+04 5.626e-10
 89.68481   -181.0 1.024e+04 5.108e-10
 89.70538   -180.2 1.019e+04 4.735e-10
 89.71867   -179.6 1.017e+04 4.456e-10
 89.72896   -179.7 1.013e+04 4.229e-10
 89.74653   -178.9 1.009e+04 4.036e-10
 89.77750   -177.9 1.009e+04 3.970e-10
 89.81875   -175.7 1.005e+04 3.887e-10
 89.84312   -173.5 1.010e+04 4.069e-10
 89.86369   -173.1 9.686e+03 3.067e-10
 89.90105   -170.9 9.796e+03 3.325e-10
 89.93640   -168.6 1.006e+04 3.990e-10
 89.95697   -168.4 9.862e+03 3.521e-10
 89.96737   -166.1 1.015e+04 4.324e-10
 89.98794   -165.6 9.937e+03 3.636e-10
 90.02450   -163.2 1.027e+04 4.606e-10
 90.06566   -160.6 1.063e+04 5.729e-10
 90.09161   -158.1 1.101e+04 6.987e-10
 90.11219   -158.1 1.122e+04 7.710e-10
 90.13757   -156.8 1.162e+04 9.943e-10
 90.15354   -156.1 1.206e+04 1.259e-09
 90.16383   -156.4 1.240e+04 1.462e-09
 90.17863   -155.4 1.317e+04 2.097e-09
 90.19920   -154.6 1.384e+04 2.693e-09
 90.21567   -153.9 1.441e+04 3.292e-09
 90.22595   -154.2 1.514e+04 4.244e-09
 90.24036   -153.8 1.562e+04 4.952e-09
 90.26093   -153.7 1.579e+04 5.230e-09
 90.27779   -153.5 1.581e+04 5.263e-09
 90.28808   -154.4 1.601e+04 5.639e-09
 90.30208   -154.0 1.582e+04 5.306e-09
 90.32266   -153.4 1.545e+04 4.587e-09
 90.33991   -153.0 1.506e+04 3.893e-09
 90.35020   -153.9 1.501e+04 3.711e-09
 90.36381   -153.6 1.467e+04 3.219e-09
 90.38439   -153.1 1.437e+04 2.873e-09
 90.40204   -152.6 1.417e+04 2.646e-09
 90.41233   -153.4 1.371e+04 2.004e-09
 90.42554   -152.6 1.359e+04 1.963e-09
 90.44611   -151.6 1.352e+04 1.956e-09
 90.46416   -150.6 1.349e+04 1.952e-09
 90.47445   -151.2 1.293e+04 1.323e-09
 90.47819   -150.0 1.296e+04 1.337e-09
 90.48848   -150.4 1.261e+04 1.026e-09
 90.50784   -149.3 1.270e+04 9.940e-10
 90.52628   -148.3 1.282e+04 9.739e-10
 90.53657   -148.8 1.229e+04 5.973e-10
 90.54899   -147.8 1.244e+04 5.727e-10
 90.56957   -146.9 1.261e+04 5.641e-10
 90.58841   -146.0 1.285e+04 5.778e-10
 90.59870   -146.3 1.214e+04 3.304e-10
 90.61072   -145.5 1.224e+04 3.271e-10
 90.63130   -144.7 1.233e+04 3.306e-10
 90.65053   -143.9 1.242e+04 3.401e-10
 90.66082   -144.0 1.163e+04 2.283e-10
 90.67245   -142.9 1.177e+04 2.382e-10
 90.69302   -142.2 1.186e+04 2.557e-10
 90.71266   -141.0 1.201e+04 2.948e-10
 90.73333   -140.0 1.161e+04 2.442e-10
 90.75485   -138.4 1.176e+04 2.830e-10
 90.77478   -137.4 1.197e+04 3.397e-10
 90.78507   -136.7 1.153e+04 2.661e-10
 90.79590   -135.2 1.183e+04 3.285e-10
 90.81648   -134.6 1.197e+04 3.734e-10
 90.83690   -133.2 1.217e+04 4.836e-10
 90.84719   -132.1 1.198e+04 3.941e-10
 90.85763   -131.2 1.215e+04 4.895e-10
 90.87821   -129.8 1.228e+04 6.219e-10
 90.89878   -128.6 1.238e+04 7.381e-10
 90.90932   -127.4 1.248e+04 8.286e-10
 90.91960   -126.4 1.263e+04 8.704e-10
 90.93993   -125.3 1.276e+04 9.837e-10
 90.96051   -124.2 1.280e+04 1.027e-09
 90.97144   -123.5 1.275e+04 9.897e-10
 90.98173   -122.2 1.321e+04 1.315e-09
 90.99960   -121.5 1.303e+04 1.200e-09
 91.00989   -121.6 1.310e+04 1.216e-09
 91.02224   -121.4 1.302e+04 1.128e-09
 91.03356   -122.3 1.286e+04 1.029e-09
 91.04385   -120.2 1.429e+04 1.515e-09
 91.06339   -121.9 1.454e+04 1.324e-09
 91.08397   -125.2 1.436e+04 1.303e-09
 91.09569   -129.3 1.607e+04 1.927e-09
 91.10598   -133.4 2.573e+04 3.341e-09
 91.11992   -135.6 2.437e+04 2.624e-09
 91.12665   -138.1 2.390e+04 4.242e-09
 91.13180   -140.9 2.595e+04 9.397e-09
 91.14045   -140.4 2.363e+04 1.035e-08
 91.15074   -141.1 2.299e+04 1.459e-08
 91.15771   -142.0 2.229e+04 2.526e-08
 91.16286   -143.3 2.206e+04 4.966e-08
 91.17131   -142.6 2.180e+04 6.372e-08
 91.18160   -141.5 2.176e+04 7.597e-08
 91.18878   -140.4 2.183e+04 8.318e-08
 91.19392   -141.0 2.188e+04 9.597e-08
 91.20218   -140.1 2.190e+04 9.375e-08
 91.21247   -139.3 2.197e+04 9.420e-08
 91.21984   -138.7 2.206e+04 9.690e-08
 91.22498   -139.3 2.171e+04 7.184e-08
 91.23304   -138.9 2.176e+04 6.393e-08
 91.24333   -138.6 2.175e+04 5.522e-08
 91.25090   -138.4 2.167e+04 4.609e-08
 91.25604   -139.7 2.145e+04 2.267e-08
 91.26391   -139.8 2.114e+04 1.843e-08
 91.27050   -139.8 2.089e+04 1.646e-08
 91.27564   -140.2 2.033e+04 1.216e-08
 91.28196   -139.8 2.006e+04 1.085e-08
 91.29230   -141.2 1.939e+04 7.873e-09
 91.31030   -140.6 1.888e+04 6.620e-09
 91.33088   -140.1 1.816e+04 5.218e-09
 91.34418   -139.6 1.731e+04 3.898e-09
 91.35447   -139.9 1.626e+04 2.857e-09
 91.37203   -138.9 1.551e+04 2.233e-09
 91.39260   -137.9 1.479e+04 1.773e-09
 91.40631   -136.9 1.420e+04 1.514e-09
 91.41659   -136.4 1.396e+04 1.428e-09
 91.43375   -135.7 1.366e+04 1.310e-09
 91.45824   -134.8 1.315e+04 1.157e-09
 91.47891   -133.2 1.329e+04 1.224e-09
 91.50597   -131.1 1.309e+04 1.169e-09
 91.54712   -128.9 1.285e+04 1.119e-09
 91.58259   -126.8 1.267e+04 1.090e-09
 91.60316   -125.0 1.297e+04 1.222e-09
 91.62942   -123.3 1.291e+04 1.231e-09
 91.67057   -121.9 1.289e+04 1.239e-09
 91.70683   -120.8 1.288e+04 1.240e-09
 91.72741   -119.5 1.337e+04 1.451e-09
 91.75288   -118.8 1.320e+04 1.403e-09
 91.79403   -118.3 1.298e+04 1.306e-09
 91.83108   -118.0 1.284e+04 1.228e-09
 91.85156   -118.6 1.305e+04 1.388e-09
 91.86585   -118.6 1.304e+04 1.454e-09
 91.88642   -118.4 1.310e+04 1.542e-09
 91.90330   -118.1 1.319e+04 1.671e-09
 91.91359   -118.2 1.359e+04 2.081e-09
 91.92757   -117.8 1.389e+04 2.372e-09
 91.94815   -117.3 1.406e+04 2.526e-09
 91.96542   -116.8 1.409e+04 2.520e-09
 91.97571   -116.9 1.474e+04 3.323e-09
 91.98930   -116.2 1.462e+04 3.117e-09
 92.00988   -115.3 1.421e+04 2.544e-09
 92.02755   -114.5 1.373e+04 1.969e-09
 92.03783   -114.7 1.417e+04 2.352e-09
 92.05103   -114.0 1.367e+04 1.826e-09
 92.06310   -113.3 1.328e+04 1.501e-09
 92.08126   -113.0 1.292e+04 1.252e-09
 92.10006   -112.6 1.319e+04 1.457e-09
 92.12314   -111.5 1.314e+04 1.404e-09
 92.16439   -109.1 1.300e+04 1.313e-09
 92.20382   -106.4 1.297e+04 1.298e-09
 92.22430   -106.3 1.322e+04 1.537e-09
 92.23621   -104.9 1.327e+04 1.577e-09
 92.25679   -103.7 1.353e+04 1.689e-09
 92.27604   -102.9 1.403e+04 1.908e-09
 92.28633   -105.7 1.679e+04 3.227e-09
 92.29794   -105.8 1.825e+04 4.653e-09
 92.31852   -105.8 1.957e+04 6.982e-09
 92.33816   -106.0 2.061e+04 1.010e-08
 92.34840   -108.1 2.139e+04 1.699e-08
 92.35443   -108.4 2.203e+04 2.251e-08
 92.36471   -108.8 2.244e+04 3.132e-08
 92.37427   -108.7 2.261e+04 4.479e-08
 92.37942   -109.6 2.240e+04 4.806e-08
 92.38529   -109.1 2.250e+04 6.435e-08
 92.39558   -108.6 2.229e+04 8.424e-08
 92.40534   -108.0 2.196e+04 1.010e-07
 92.41048   -107.8 2.138e+04 6.210e-08
 92.41615   -106.9 2.137e+04 5.696e-08
 92.42644   -106.0 2.148e+04 4.807e-08
 92.43640   -105.2 2.166e+04 3.808e-08
 92.44154   -105.2 2.103e+04 1.473e-08
 92.44702   -105.2 2.116e+04 1.045e-08
 92.45731   -106.5 2.128e+04 7.281e-09
 92.46746   -108.1 2.084e+04 5.188e-09
 92.47260   -110.8 1.782e+04 2.617e-09
 92.48307   -110.8 1.666e+04 2.052e-09
 92.50370   -110.4 1.553e+04 1.546e-09
 92.52427   -110.5 1.385e+04 9.988e-10
 92.53482   -110.5 1.262e+04 6.510e-10
 92.54511   -111.5 1.096e+04 3.577e-10
 92.56543   -110.9 1.066e+04 3.317e-10
 92.58441   -110.0 1.052e+04 3.213e-10
 92.59470   -110.4 1.050e+04 3.239e-10
 92.59695   -109.2 1.045e+04 3.188e-10
 92.60724   -108.7 1.027e+04 2.942e-10
 92.62715   -107.7 1.025e+04 2.904e-10
 92.64773   -106.1 1.025e+04 2.881e-10
 92.65907   -105.1 1.020e+04 2.782e-10
 92.66936   -105.0 1.017e+04 2.699e-10
 92.68888   -103.0 1.016e+04 2.601e-10
 92.70946   -102.5 1.012e+04 2.546e-10
 92.72120   -100.6 1.013e+04 2.489e-10
 92.74187   -100.2 1.006e+04 2.318e-10
 92.78167    -98.0 1.012e+04 2.322e-10
 92.82282    -96.1 1.025e+04 2.594e-10
 92.84554    -94.6 1.040e+04 3.190e-10
 92.86612    -93.7 1.025e+04 2.765e-10
 92.89474    -92.6 1.048e+04 3.775e-10
 92.90757    -92.1 1.061e+04 4.393e-10
 92.91786    -91.6 1.039e+04 3.484e-10
 92.93579    -90.1 1.060e+04 4.296e-10
 92.95637    -89.8 1.069e+04 4.522e-10
 92.96969    -88.6 1.090e+04 5.127e-10
 92.99037    -87.6 1.063e+04 4.104e-10
 93.01819    -86.9 1.086e+04 4.408e-10
 93.03182    -86.6 1.088e+04 4.160e-10
 93.04210    -86.2 1.070e+04 3.908e-10
 93.06963    -85.5 1.087e+04 4.019e-10
 93.09413    -84.5 1.067e+04 3.364e-10
 93.10985    -83.2 1.042e+04 3.101e-10
 93.12660    -84.3 1.026e+04 2.883e-10
 93.15203    -83.4 1.025e+04 2.847e-10
 93.19319    -82.6 1.026e+04 3.017e-10
 93.21838    -81.8 1.035e+04 3.538e-10
 93.23896    -81.6 1.063e+04 4.377e-10
 93.27549    -81.0 1.102e+04 5.852e-10
 93.31664    -80.6 1.124e+04 6.497e-10
 93.34263    -80.6 1.121e+04 6.146e-10
 93.36321    -80.6 1.164e+04 8.275e-10
 93.39894    -81.2 1.112e+04 5.830e-10
 93.44010    -81.8 1.055e+04 4.161e-10
 93.46688    -81.8 1.024e+04 3.393e-10
 93.48745    -81.8 1.023e+04 3.342e-10
 93.52240    -81.5 9.815e+03 2.562e-10
 93.56355    -80.8 9.431e+03 1.934e-10
 93.59113    -80.2 9.169e+03 1.565e-10
 93.61170    -80.3 9.051e+03 1.502e-10
 93.64585    -79.6 8.892e+03 1.317e-10
 93.68701    -78.7 8.805e+03 1.261e-10
 93.71537    -77.7 8.757e+03 1.277e-10
 93.73595    -77.8 8.668e+03 1.254e-10
 93.76931    -76.9 8.721e+03 1.380e-10
 93.81046    -76.3 8.843e+03 1.629e-10
 93.83962    -75.9 9.053e+03 2.064e-10
 93.86020    -75.7 8.950e+03 2.140e-10
 93.88238    -75.2 9.317e+03 2.729e-10
 93.90155    -75.2 9.318e+03 2.743e-10
 93.91184    -75.2 9.268e+03 2.731e-10
 93.92343    -77.4 1.058e+04 4.083e-10
 93.94401    -83.6 1.343e+04 1.030e-09
 93.96367    -87.3 1.468e+04 2.709e-09
 93.97396    -86.9 1.440e+04 2.378e-09
 93.98516    -88.0 1.481e+04 4.233e-09
 94.00574    -88.1 1.493e+04 5.099e-09
 94.02580    -88.0 1.479e+04 5.046e-09
 94.03609    -87.6 1.446e+04 4.458e-09
 94.04689    -87.1 1.368e+04 2.976e-09
 94.06746    -87.8 1.238e+04 1.268e-09
 94.08792    -94.0 1.018e+04 4.759e-10
 94.09821    -93.3 1.014e+04 4.772e-10
 94.10862    -96.9 8.605e+03 2.864e-10
 94.12919    -97.6 8.317e+03 2.577e-10
 94.14977    -97.8 8.321e+03 2.561e-10
 94.16033    -98.2 8.574e+03 2.933e-10
 94.16950    -97.1 8.403e+03 2.668e-10
 94.17951    -96.2 8.418e+03 2.667e-10
 94.19092    -96.2 8.645e+03 3.243e-10
 94.21149    -96.0 9.002e+03 3.997e-10
 94.22246    -98.4 1.121e+04 5.217e-10
 94.23274    -99.9 1.220e+04 4.332e-10
 94.24745   -127.3 4.226e+04 3.357e-10
 94.25342   -134.3 3.640e+04 2.832e-09
 94.25857   -134.0 3.472e+04 3.031e-09
 94.26798   -138.0 2.563e+04 5.575e-08
 94.27827   -140.2 2.364e+04 2.689e-07
 94.28448   -144.6 2.363e+04 5.179e-07
 94.28963   -143.4 2.353e+04 5.449e-07
 94.29884   -152.2 2.426e+04 5.247e-07
 94.30913   -164.8 2.709e+04 1.877e-07
 94.31554   -179.3 2.745e+04 3.141e-08
 94.32069   -179.4 2.595e+04 2.131e-08
 94.32971   -187.4 2.092e+04 1.045e-08
 94.34000   -189.5 1.903e+04 8.505e-09
 94.34661   -190.1 1.840e+04 7.925e-09
 94.35175   -188.6 1.822e+04 6.686e-09
 94.36057   -189.3 1.781e+04 6.443e-09
 94.37086   -189.7 1.751e+04 6.324e-09
 94.37767   -190.0 1.722e+04 6.335e-09
 94.38281   -189.0 1.725e+04 5.453e-09
 94.39144   -189.4 1.701e+04 5.722e-09
 94.40172   -189.7 1.675e+04 6.020e-09
 94.40873   -189.8 1.665e+04 6.286e-09
 94.41907   -189.5 1.640e+04 5.677e-09
 94.43783   -189.4 1.687e+04 6.755e-09
 94.45840   -189.2 1.719e+04 7.852e-09
 94.47095   -189.2 1.715e+04 8.176e-09
 94.48124   -188.4 1.746e+04 7.954e-09
 94.49956   -188.7 1.749e+04 8.261e-09
 94.52013   -188.8 1.718e+04 8.108e-09
 94.53308   -188.7 1.652e+04 6.897e-09
 94.54336   -188.1 1.662e+04 6.796e-09
 94.56128   -187.8 1.593e+04 5.493e-09
 94.58186   -187.5 1.512e+04 4.097e-09
 94.59520   -187.2 1.428e+04 2.900e-09
 94.60549   -186.9 1.430e+04 2.958e-09
 94.62301   -186.7 1.349e+04 2.071e-09
 94.64359   -186.5 1.274e+04 1.442e-09
 94.65732   -186.4 1.209e+04 1.032e-09
 94.66761   -186.0 1.215e+04 1.080e-09
 94.68474   -185.8 1.166e+04 8.110e-10
 94.70093   -185.6 1.129e+04 6.506e-10
 94.71121   -185.4 1.132e+04 6.680e-10
 94.71945   -185.2 1.107e+04 5.689e-10
 94.72974   -185.0 1.129e+04 6.178e-10
 94.74647   -184.6 1.112e+04 5.478e-10
 94.76704   -184.0 1.102e+04 5.090e-10
 94.78157   -183.5 1.098e+04 4.894e-10
 94.79186   -183.5 1.123e+04 5.652e-10
 94.80819   -182.9 1.117e+04 5.404e-10
 94.82877   -182.3 1.110e+04 5.221e-10
 94.84370   -181.6 1.103e+04 5.099e-10
 94.85398   -181.7 1.122e+04 5.904e-10
 94.86992   -181.0 1.110e+04 5.628e-10
 94.89050   -180.2 1.100e+04 5.456e-10
 94.90582   -179.4 1.093e+04 5.340e-10
 94.91611   -179.5 1.102e+04 5.796e-10
 94.93165   -178.7 1.089e+04 5.419e-10
 94.95223   -177.8 1.076e+04 5.003e-10
 94.96794   -177.0 1.063e+04 4.515e-10
 94.97823   -177.1 1.065e+04 4.699e-10
 94.99338   -176.4 1.048e+04 4.116e-10
 95.01395   -175.8 1.031e+04 3.589e-10
 95.03007   -175.3 1.018e+04 3.170e-10
 95.04036   -175.3 1.023e+04 3.426e-10
 95.05510   -175.0 1.014e+04 3.116e-10
 95.08200   -174.6 1.009e+04 2.896e-10
 95.10267   -174.4 1.016e+04 3.447e-10
 95.12732   -173.9 1.010e+04 3.346e-10
 95.16847   -173.7 1.011e+04 3.389e-10
 95.20635   -174.7 1.029e+04 3.812e-10
 95.22682   -175.1 1.070e+04 5.339e-10
 95.23272   -176.7 1.091e+04 6.291e-10
 95.25340   -175.8 1.134e+04 6.996e-10
 95.29192   -177.2 1.136e+04 7.149e-10
 95.33059   -178.1 1.115e+04 7.152e-10
 95.35107   -178.3 1.208e+04 1.022e-09
 95.36374   -178.6 1.172e+04 9.267e-10
 95.38432   -178.6 1.162e+04 9.084e-10
 95.40281   -178.8 1.142e+04 8.726e-10
 95.41310   -179.1 1.177e+04 1.004e-09
 95.42547   -179.0 1.166e+04 9.885e-10
 95.44605   -178.7 1.151e+04 9.889e-10
 95.46493   -178.2 1.140e+04 9.468e-10
 95.47522   -178.4 1.161e+04 1.067e-09
 95.48720   -177.8 1.146e+04 9.928e-10
 95.50777   -177.2 1.135e+04 9.404e-10
 95.52706   -176.5 1.128e+04 9.099e-10
 95.53735   -176.9 1.127e+04 9.143e-10
 95.54893   -176.0 1.124e+04 8.987e-10
 95.56950   -175.2 1.123e+04 8.971e-10
 95.58918   -174.5 1.127e+04 9.074e-10
 95.59947   -174.9 1.111e+04 8.653e-10
 95.61065   -174.2 1.117e+04 8.871e-10
 95.63123   -173.4 1.133e+04 9.676e-10
 95.65131   -172.6 1.159e+04 1.096e-09
 95.66159   -173.1 1.128e+04 9.660e-10
 95.67238   -172.4 1.151e+04 1.080e-09
 95.69296   -171.7 1.172e+04 1.192e-09
 95.71343   -171.0 1.186e+04 1.278e-09
 95.72372   -171.4 1.135e+04 1.036e-09
 95.73411   -170.7 1.138e+04 1.058e-09
 95.75404   -170.0 1.135e+04 1.057e-09
 95.76433   -170.6 1.106e+04 9.157e-10
 95.77526   -169.8 1.097e+04 8.763e-10
 95.78584   -169.0 1.089e+04 8.335e-10
 95.79613   -169.4 1.048e+04 6.499e-10
 95.81641   -168.7 1.040e+04 5.971e-10
 95.83699   -168.0 1.032e+04 5.496e-10
 95.84797   -167.3 1.027e+04 5.163e-10
 95.85825   -167.9 9.800e+03 3.790e-10
 95.87814   -167.2 9.710e+03 3.586e-10
 95.89871   -166.4 9.666e+03 3.482e-10
 95.91009   -165.6 9.620e+03 3.400e-10
 95.92038   -165.7 9.310e+03 2.915e-10
 95.93987   -164.6 9.278e+03 2.859e-10
 95.96044   -164.1 9.276e+03 2.856e-10
 95.97221   -163.1 9.312e+03 2.909e-10
 95.99289   -162.4 9.237e+03 2.789e-10
 96.03265   -161.1 9.378e+03 3.051e-10
 96.07380   -159.8 9.554e+03 3.485e-10
 96.09666   -158.4 9.722e+03 3.937e-10
 96.11723   -157.3 9.317e+03 3.242e-10
 96.15611   -155.7 9.619e+03 3.992e-10
 96.19726   -154.0 9.825e+03 4.557e-10
 96.22090   -152.3 9.885e+03 4.751e-10
 96.24148   -151.3 1.007e+04 5.491e-10
 96.27565   -149.5 1.016e+04 5.755e-10
 96.29622   -150.8 9.767e+03 4.604e-10
 96.32071   -149.1 9.808e+03 4.660e-10
 96.34515   -147.5 9.840e+03 4.672e-10
 96.36573   -146.4 1.032e+04 6.087e-10
 96.40302   -144.7 1.046e+04 6.632e-10
 96.44417   -142.9 1.054e+04 6.961e-10
 96.46940   -141.1 1.049e+04 6.891e-10
 96.48998   -140.2 1.100e+04 9.056e-10
 96.52647   -138.2 1.096e+04 8.997e-10
 96.56763   -136.0 1.063e+04 7.785e-10
 96.59365   -133.7 1.016e+04 6.234e-10
 96.60384   -133.2 1.082e+04 8.917e-10
 96.61887   -131.9 1.050e+04 7.605e-10
 96.63945   -130.7 1.015e+04 6.361e-10
 96.65558   -129.2 9.811e+03 5.286e-10
 96.66586   -129.0 9.945e+03 5.764e-10
 96.68060   -127.7 9.605e+03 4.721e-10
 96.70117   -127.1 9.419e+03 4.235e-10
 96.71780   -125.4 9.025e+03 3.433e-10
 96.73847   -124.3 9.124e+03 3.591e-10
 96.77338   -121.2 8.751e+03 3.000e-10
 96.81454   -117.7 8.505e+03 2.682e-10
 96.84214   -114.1 8.469e+03 2.595e-10
 96.86272   -113.2 8.516e+03 2.575e-10
 96.89684   -109.8 8.496e+03 2.528e-10
 96.93799   -106.3 8.557e+03 2.528e-10
 96.96639   -103.1 8.696e+03 2.598e-10
 96.97658   -103.0 8.597e+03 2.619e-10
 96.98923   -101.6 8.571e+03 2.610e-10
 97.00981    -99.5 8.642e+03 2.695e-10
 97.02832    -98.3 8.889e+03 2.625e-10
 97.03861    -98.1 9.293e+03 2.827e-10
 97.05096    -96.6 1.038e+04 2.902e-10
 97.07154    -95.9 1.053e+04 2.922e-10
 97.09044    -97.3 1.461e+04 3.105e-10
 97.10073   -104.2 3.466e+04 4.802e-10
 97.10750   -104.8 3.547e+04 3.146e-10
 97.11774   -108.6 4.426e+04 6.108e-10
 97.12655   -110.3 4.638e+04 1.550e-09
 97.13169   -113.5 3.477e+04 1.947e-08
 97.13831   -113.9 3.134e+04 4.646e-08
 97.14860   -114.2 2.940e+04 7.591e-08
 97.15761   -114.5 2.714e+04 1.070e-07
 97.16276   -114.8 2.429e+04 3.225e-07
 97.16918   -114.9 2.314e+04 4.399e-07
 97.17569   -115.4 2.342e+04 3.295e-07
 97.17824   -115.2 2.291e+04 4.331e-07
 97.18199   -116.5 2.220e+04 6.409e-07
 97.18713   -117.7 2.083e+04 1.269e-06
 97.19120   -118.4 1.997e+04 2.120e-06
 97.19377   -118.7 1.966e+04 3.042e-06
 97.19742   -118.9 1.907e+04 4.224e-06
 97.20256   -118.1 1.873e+04 4.654e-06
 97.20673   -117.0 1.867e+04 4.365e-06
 97.20930   -119.2 1.875e+04 4.553e-06
 97.21285   -118.4 1.870e+04 3.938e-06
 97.21607   -117.6 1.877e+04 3.440e-06
 97.21864   -119.5 1.878e+04 2.659e-06
 97.22226   -119.1 1.877e+04 3.110e-06
 97.22483   -123.0 1.867e+04 2.141e-06
 97.22828   -121.9 1.849e+04 3.388e-06
 97.23343   -121.1 1.830e+04 4.965e-06
 97.23779   -121.0 1.824e+04 5.657e-06
 97.24036   -120.8 1.819e+04 4.876e-06
 97.24371   -120.1 1.819e+04 5.154e-06
 97.24886   -119.7 1.863e+04 3.569e-06
 97.25332   -120.2 1.976e+04 1.756e-06
 97.25589   -119.6 1.986e+04 1.779e-06
 97.26174   -121.4 2.250e+04 7.080e-07
 97.27206   -125.6 3.397e+04 1.004e-07
 97.28186   -130.1 5.976e+04 8.140e-09
 97.28700   -130.3 7.116e+04 3.237e-09
 97.29263   -146.4 5.576e+04 9.786e-10
 97.30292   -157.6 1.678e+04 1.688e-09
 97.31292   -159.5 1.294e+04 1.830e-09
 97.31807   -158.8 1.273e+04 1.801e-09
 97.32349   -158.7 1.260e+04 1.794e-09
 97.33378   -157.9 1.240e+04 1.803e-09
 97.34390   -157.6 1.243e+04 1.826e-09
 97.34900   -159.2 1.245e+04 1.716e-09
 97.35951   -158.0 1.217e+04 1.476e-09
 97.38018   -157.6 1.210e+04 1.474e-09
 97.40075   -157.1 1.211e+04 1.513e-09
 97.41135   -156.6 1.219e+04 1.602e-09
 97.42164   -156.4 1.184e+04 1.351e-09
 97.44190   -155.9 1.197e+04 1.485e-09
 97.46248   -155.3 1.213e+04 1.634e-09
 97.47347   -154.6 1.229e+04 1.774e-09
 97.48376   -154.5 1.190e+04 1.497e-09
 97.50363   -153.8 1.209e+04 1.650e-09
 97.52421   -153.1 1.228e+04 1.779e-09
 97.53560   -152.6 1.248e+04 1.874e-09
 97.54589   -152.3 1.206e+04 1.623e-09
 97.56536   -151.8 1.225e+04 1.720e-09
 97.58593   -151.5 1.253e+04 1.841e-09
 97.59772   -151.2 1.295e+04 2.040e-09
 97.60801   -150.8 1.224e+04 1.642e-09
 97.62709   -150.5 1.262e+04 1.836e-09
 97.64766   -150.0 1.309e+04 2.118e-09
 97.65985   -149.6 1.351e+04 2.438e-09
 97.67013   -149.1 1.256e+04 1.771e-09
 97.68881   -148.6 1.281e+04 1.956e-09
 97.70939   -148.0 1.290e+04 2.047e-09
 97.72197   -147.3 1.290e+04 2.052e-09
 97.73226   -146.8 1.223e+04 1.607e-09
 97.75054   -146.1 1.213e+04 1.568e-09
 97.77112   -145.1 1.187e+04 1.394e-09
 97.78409   -144.0 1.152e+04 1.167e-09
 97.79438   -143.6 1.131e+04 1.105e-09
 97.81227   -142.3 1.096e+04 9.002e-10
 97.83284   -140.9 1.058e+04 7.002e-10
 97.84622   -139.5 1.017e+04 5.279e-10
 97.85650   -138.7 1.011e+04 5.189e-10
 97.87055   -137.2 9.711e+03 3.843e-10
 97.88084   -137.0 9.924e+03 4.570e-10
 97.89457   -135.4 9.572e+03 3.451e-10
 97.90834   -133.9 9.449e+03 2.987e-10
 97.91863   -133.3 9.486e+03 2.966e-10
 97.93572   -132.7 9.452e+03 2.871e-10
 97.96027   -130.8 9.377e+03 2.669e-10
 97.98095   -130.5 9.336e+03 2.536e-10
 98.00793   -127.4 9.232e+03 2.406e-10
 98.04909   -124.4 9.279e+03 2.551e-10
 98.08462   -121.8 9.609e+03 3.109e-10
 98.10520   -121.5 9.463e+03 2.885e-10
 98.13139   -119.1 9.753e+03 3.657e-10
 98.15693   -117.4 9.909e+03 4.420e-10
 98.16712   -117.4 9.890e+03 4.354e-10
 98.18263   -116.5 1.003e+04 4.927e-10
 98.20321   -115.2 1.019e+04 5.525e-10
 98.21896   -114.1 1.030e+04 5.901e-10
 98.22925   -114.2 1.034e+04 5.971e-10
 98.24436   -113.2 1.041e+04 6.256e-10
 98.26494   -112.2 1.048e+04 6.438e-10
 98.28108   -111.2 1.055e+04 6.556e-10
 98.29137   -111.4 1.054e+04 6.504e-10
 98.30609   -110.5 1.057e+04 6.411e-10
 98.32667   -109.9 1.064e+04 6.482e-10
 98.34321   -109.4 1.093e+04 7.079e-10
 98.35350   -109.2 1.063e+04 6.189e-10
 98.36782   -108.9 1.089e+04 6.798e-10
 98.38839   -108.6 1.124e+04 8.039e-10
 98.40225   -108.3 1.166e+04 1.007e-09
 98.40890   -108.5 1.175e+04 1.107e-09
 98.41562   -108.2 1.134e+04 9.030e-10
 98.42954   -107.6 1.168e+04 1.112e-09
 98.45012   -106.9 1.202e+04 1.370e-09
 98.46746   -105.9 1.231e+04 1.633e-09
 98.47774   -105.7 1.197e+04 1.405e-09
 98.49127   -104.6 1.225e+04 1.628e-09
 98.51185   -103.7 1.245e+04 1.784e-09
 98.52958   -102.8 1.259e+04 1.874e-09
 98.53987   -102.5 1.243e+04 1.750e-09
 98.55300   -101.8 1.251e+04 1.792e-09
 98.57358   -101.2 1.254e+04 1.803e-09
 98.59170   -100.8 1.259e+04 1.762e-09
 98.60199   -100.8 1.242e+04 1.667e-09
 98.61473   -100.6 1.241e+04 1.619e-09
 98.63530   -100.3 1.232e+04 1.546e-09
 98.65383    -99.9 1.218e+04 1.436e-09
 98.66412   -100.2 1.203e+04 1.412e-09
 98.67645    -99.8 1.183e+04 1.272e-09
 98.69703    -99.3 1.156e+04 1.097e-09
 98.71595    -98.9 1.123e+04 9.309e-10
 98.72624    -99.0 1.113e+04 8.983e-10
 98.73818    -98.5 1.079e+04 7.522e-10
 98.75876    -97.9 1.053e+04 6.491e-10
 98.77807    -97.3 1.033e+04 5.845e-10
 98.78836    -97.3 1.022e+04 5.405e-10
 98.79991    -96.3 1.011e+04 4.895e-10
 98.82049    -95.4 1.007e+04 4.562e-10
 98.84020    -94.5 1.008e+04 4.283e-10
 98.85049    -94.5 1.000e+04 4.083e-10
 98.86164    -93.5 1.001e+04 3.844e-10
 98.88221    -92.7 1.003e+04 3.688e-10
 98.90232    -91.8 1.007e+04 3.473e-10
 98.91261    -91.5 1.002e+04 3.447e-10
 98.92336    -91.1 9.977e+03 3.281e-10
 98.93395    -89.9 9.919e+03 2.858e-10
 98.94424    -89.9 9.880e+03 2.803e-10
 98.96445    -89.6 9.832e+03 2.676e-10
 98.99541    -88.1 9.835e+03 2.367e-10
 99.03673    -86.8 9.824e+03 2.244e-10
 99.07788    -85.3 9.872e+03 2.443e-10
 99.09918    -83.4 9.962e+03 2.787e-10
 99.11975    -82.9 9.898e+03 2.717e-10
 99.16018    -80.9 9.950e+03 2.812e-10
 99.20133    -79.0 9.920e+03 2.462e-10
 99.22343    -77.5 9.908e+03 2.131e-10
 99.24400    -76.5 9.792e+03 1.890e-10
 99.28364    -75.1 9.812e+03 1.768e-10
 99.32479    -73.6 1.017e+04 1.989e-10
 99.34767    -71.9 1.052e+04 2.672e-10
 99.36825    -70.6 1.017e+04 2.064e-10
 99.40709    -68.5 1.061e+04 2.912e-10
 99.44527    -66.2 1.098e+04 3.872e-10
 99.46575    -65.1 1.104e+04 3.905e-10
 99.47173    -64.4 1.119e+04 4.927e-10
 99.48201    -62.6 1.118e+04 4.053e-10
 99.49949    -62.7 1.125e+04 4.563e-10
 99.52006    -61.9 1.131e+04 6.099e-10
 99.53385    -60.9 1.133e+04 6.213e-10
 99.54414    -60.1 1.129e+04 6.095e-10
 99.56122    -58.8 1.138e+04 6.762e-10
 99.58179    -57.3 1.154e+04 6.629e-10
 99.59597    -56.0 1.162e+04 5.008e-10
 99.60626    -55.0 1.164e+04 6.638e-10
 99.62294    -54.2 1.163e+04 6.116e-10
 99.64352    -52.5 1.163e+04 4.207e-10
 99.65810    -52.4 1.148e+04 3.931e-10
 99.66838    -51.4 1.165e+04 5.098e-10
 99.69506    -49.8 1.138e+04 3.571e-10
 99.72042    -47.4 1.082e+04 2.445e-10
 99.74099    -45.3 1.137e+04 3.775e-10
 99.77746    -42.8 1.097e+04 2.790e-10
 99.81861    -40.1 1.075e+04 2.291e-10
 99.84466    -37.3 1.063e+04 2.075e-10
 99.86524    -35.8 1.105e+04 3.123e-10
 99.90091    -33.0 1.095e+04 2.863e-10
 99.94206    -30.2 1.086e+04 2.597e-10
 99.96891    -27.4 1.085e+04 2.510e-10
 99.98949    -25.9 1.123e+04 3.492e-10
