# Columns:
#   distance along LOS (in CHIMPs)
#   peculiar velocity  (in km/s)
#   temperature (K)
#   HI number density
# pos=(21.0148,138.769,34.8377), angles=(0.309102,3.97894)
  0.00586   -143.2 9.169e+03 1.260e-10
  0.01249   -142.8 9.143e+03 1.257e-10
  0.02014   -142.6 9.255e+03 1.502e-10
  0.04752   -140.2 9.204e+03 1.237e-10
  0.08852   -137.8 9.173e+03 1.064e-10
  0.12953   -135.5 9.161e+03 9.732e-11
  0.16808   -133.1 9.168e+03 9.315e-11
  0.18858   -132.9 9.161e+03 8.062e-11
  0.19729   -130.6 9.190e+03 7.619e-11
  0.21779   -130.2 9.147e+03 6.934e-11
  0.25255   -127.9 9.158e+03 6.821e-11
  0.29355   -125.6 9.162e+03 6.805e-11
  0.33456   -123.3 9.234e+03 6.805e-11
  0.35702   -121.2 9.310e+03 7.078e-11
  0.37717   -121.0 9.330e+03 6.351e-11
  0.39571   -120.7 9.270e+03 5.921e-11
  0.41657   -118.6 9.316e+03 6.539e-11
  0.45758   -116.6 9.363e+03 7.239e-11
  0.49858   -114.5 9.425e+03 7.921e-11
  0.52546   -112.5 9.497e+03 8.536e-11
  0.54597   -112.3 9.512e+03 8.122e-11
  0.57363   -110.4 9.574e+03 8.632e-11
  0.59413   -109.8 9.457e+03 6.498e-11
  0.62160   -107.8 9.515e+03 6.465e-11
  0.66261   -105.9 9.590e+03 6.547e-11
  0.69390   -104.2 9.716e+03 6.833e-11
  0.71441   -104.4 9.778e+03 7.716e-11
  0.74462   -102.8 9.845e+03 9.214e-11
  0.77205   -101.2 9.897e+03 1.143e-10
  0.79255   -100.5 9.910e+03 7.921e-11
  0.82663    -98.9 9.941e+03 1.075e-10
  0.86234    -97.3 1.002e+04 1.461e-10
  0.88285    -97.2 9.969e+03 1.560e-10
  0.90864    -95.6 1.001e+04 1.897e-10
  0.94965    -94.2 1.003e+04 2.273e-10
  0.97047    -92.9 1.005e+04 2.659e-10
  0.99098    -92.2 1.001e+04 2.467e-10
  1.03078    -91.2 9.990e+03 2.692e-10
  1.05129    -91.4 9.726e+03 1.743e-10
  1.07267    -90.2 9.632e+03 1.867e-10
  1.11367    -88.9 9.556e+03 1.931e-10
  1.14839    -87.4 9.502e+03 1.962e-10
  1.16890    -86.9 9.499e+03 1.890e-10
  1.19568    -85.3 9.228e+03 1.886e-10
  1.21973    -83.6 9.199e+03 1.666e-10
  1.24023    -83.8 9.319e+03 1.908e-10
  1.27770    -82.2 9.326e+03 2.058e-10
  1.31870    -80.6 9.318e+03 2.191e-10
  1.34682    -78.9 9.325e+03 2.355e-10
  1.36732    -78.9 9.654e+03 3.102e-10
  1.38817    -77.1 9.685e+03 3.485e-10
  1.40867    -77.1 1.005e+04 4.947e-10
  1.44172    -75.3 1.001e+04 4.901e-10
  1.48272    -73.3 9.809e+03 4.328e-10
  1.52373    -71.5 9.594e+03 3.564e-10
  1.54524    -69.8 9.380e+03 2.936e-10
  1.55761    -70.1 9.558e+03 3.112e-10
  1.57711    -70.7 9.417e+03 2.895e-10
  1.60574    -69.0 9.306e+03 2.726e-10
  1.64675    -67.2 9.291e+03 2.715e-10
  1.68775    -65.5 9.323e+03 2.975e-10
  1.72316    -63.6 9.370e+03 3.358e-10
  1.73995    -64.0 9.456e+03 3.276e-10
  1.74555    -64.1 9.399e+03 3.600e-10
  1.76977    -62.2 9.458e+03 3.727e-10
  1.81077    -60.3 9.468e+03 3.714e-10
  1.85178    -58.5 9.422e+03 3.457e-10
  1.89278    -56.9 9.411e+03 3.329e-10
  1.91399    -55.6 9.482e+03 3.444e-10
  1.92228    -55.5 9.416e+03 3.640e-10
  1.94209    -56.2 9.510e+03 3.827e-10
  1.97480    -55.3 9.727e+03 4.988e-10
  2.01580    -54.0 1.004e+04 6.673e-10
  2.05681    -52.5 1.033e+04 8.377e-10
  2.08243    -51.2 1.043e+04 8.912e-10
  2.10293    -51.0 9.940e+03 7.007e-10
  2.12001    -50.0 9.761e+03 5.939e-10
  2.14051    -50.4 9.044e+03 3.418e-10
  2.17983    -50.5 8.699e+03 2.755e-10
  2.22083    -50.5 8.568e+03 2.691e-10
  2.25087    -50.1 8.587e+03 2.914e-10
  2.27137    -49.8 8.245e+03 2.264e-10
  2.29793    -49.6 8.282e+03 2.332e-10
  2.31843    -50.1 8.211e+03 2.146e-10
  2.34385    -51.1 8.322e+03 2.095e-10
  2.38485    -53.9 8.532e+03 2.165e-10
  2.41931    -55.5 9.159e+03 4.202e-10
  2.43981    -54.3 8.503e+03 2.732e-10
  2.46687    -54.5 9.184e+03 5.316e-10
  2.49635    -54.0 9.671e+03 7.198e-10
  2.51685    -54.3 9.895e+03 8.116e-10
  2.54888    -54.5 9.906e+03 7.516e-10
  2.58775    -56.4 9.897e+03 6.719e-10
  2.60825    -56.2 1.010e+04 7.963e-10
  2.62054    -57.6 1.049e+04 9.385e-10
  2.64095    -58.1 1.060e+04 9.969e-10
  2.66145    -59.2 1.065e+04 1.076e-09
  2.68195    -59.5 1.062e+04 1.082e-09
  2.69458    -58.9 1.072e+04 1.169e-09
  2.70483    -59.0 1.057e+04 1.086e-09
  2.72296    -59.0 1.014e+04 8.031e-10
  2.74346    -59.6 9.644e+03 5.612e-10
  2.76396    -60.3 9.157e+03 4.013e-10
  2.77659    -60.9 8.758e+03 3.000e-10
  2.79719    -60.2 8.724e+03 2.722e-10
  2.83592    -60.5 8.129e+03 1.709e-10
  2.87269    -60.5 7.857e+03 1.374e-10
  2.89319    -60.1 7.804e+03 1.235e-10
  2.91793    -59.3 7.753e+03 1.191e-10
  2.94513    -58.6 7.833e+03 1.371e-10
  2.96563    -58.4 8.066e+03 1.778e-10
  2.99994    -57.2 8.190e+03 2.445e-10
  3.04095    -55.7 8.231e+03 2.804e-10
  3.07111    -54.1 8.208e+03 2.858e-10
  3.09162    -53.8 8.245e+03 2.807e-10
  3.11357    -52.2 8.189e+03 2.634e-10
  3.13407    -51.6 8.319e+03 3.096e-10
  3.16397    -50.1 8.106e+03 2.548e-10
  3.20497    -48.7 7.923e+03 2.046e-10
  3.24598    -47.4 7.854e+03 1.715e-10
  3.26954    -46.8 7.916e+03 1.558e-10
  3.28507    -47.4 8.411e+03 2.117e-10
  3.30251    -46.7 8.570e+03 2.610e-10
  3.32799    -46.6 9.056e+03 3.502e-10
  3.36900    -46.1 9.362e+03 4.495e-10
  3.41000    -45.7 9.422e+03 4.988e-10
  3.44746    -45.2 9.216e+03 4.564e-10
  3.46740    -45.0 9.323e+03 4.769e-10
  3.47095    -44.4 9.591e+03 5.555e-10
  3.49201    -44.7 9.094e+03 3.966e-10
  3.53302    -44.3 8.858e+03 3.343e-10
  3.57403    -43.2 8.807e+03 3.071e-10
  3.61503    -42.3 8.835e+03 2.919e-10
  3.63939    -41.3 8.858e+03 2.829e-10
  3.64974    -40.4 8.948e+03 3.183e-10
  3.66638    -40.2 8.943e+03 3.116e-10
  3.69704    -38.9 8.872e+03 2.748e-10
  3.73805    -37.6 8.713e+03 2.286e-10
  3.77905    -36.2 8.578e+03 1.946e-10
  3.80783    -35.0 8.566e+03 1.857e-10
  3.82834    -34.6 8.555e+03 1.657e-10
  3.84430    -34.4 8.857e+03 2.033e-10
  3.86481    -34.2 8.739e+03 1.593e-10
  3.90207    -34.7 9.386e+03 3.054e-10
  3.93273    -34.5 1.046e+04 5.848e-10
  3.94332    -35.8 1.100e+04 8.793e-10
  3.95357    -35.1 1.068e+04 6.797e-10
  3.97364    -34.7 1.131e+04 1.124e-09
  3.98633    -34.9 1.133e+04 1.330e-09
  3.99658    -35.1 1.135e+04 1.464e-09
  4.01464    -33.8 1.152e+04 1.615e-09
  4.03228    -33.1 1.142e+04 1.356e-09
  4.04253    -32.9 1.116e+04 1.160e-09
  4.05565    -32.5 1.126e+04 7.418e-10
  4.07055    -33.7 1.129e+04 4.068e-10
  4.08080    -32.9 1.115e+04 4.771e-10
  4.10700    -35.6 1.051e+04 2.548e-10
  4.14471    -36.8 9.819e+03 1.941e-10
  4.16522    -35.3 9.806e+03 1.968e-10
  4.18911    -35.4 9.612e+03 1.772e-10
  4.22065    -35.1 9.666e+03 1.893e-10
  4.24115    -34.3 9.744e+03 1.925e-10
  4.27113    -34.2 9.883e+03 2.424e-10
  4.31213    -34.0 1.009e+04 3.076e-10
  4.33366    -33.3 1.024e+04 3.634e-10
  4.35416    -31.8 1.023e+04 3.512e-10
  4.39414    -31.1 1.027e+04 3.602e-10
  4.41907    -30.5 1.010e+04 3.215e-10
  4.43957    -29.8 1.009e+04 3.150e-10
  4.47615    -29.1 1.003e+04 2.808e-10
  4.50209    -28.7 1.020e+04 2.872e-10
  4.52260    -27.9 1.020e+04 2.649e-10
  4.55817    -28.3 1.084e+04 4.695e-10
  4.59699    -28.3 1.195e+04 9.620e-10
  4.61749    -27.8 1.156e+04 8.144e-10
  4.62983    -26.9 1.242e+04 1.314e-09
  4.65023    -27.1 1.256e+04 1.609e-09
  4.67034    -26.2 1.258e+04 1.955e-09
  4.69094    -24.5 1.221e+04 1.300e-09
  4.72219    -24.0 1.194e+04 1.196e-09
  4.75285    -23.8 1.149e+04 9.397e-10
  4.76481    -23.7 1.147e+04 9.121e-10
  4.77506    -23.6 1.145e+04 9.005e-10
  4.79375    -23.2 1.152e+04 9.194e-10
  4.80547    -23.3 1.183e+04 9.828e-10
  4.81582    -23.0 1.129e+04 8.208e-10
  4.83486    -22.3 1.200e+04 1.009e-09
  4.84903    -23.2 1.277e+04 1.337e-09
  4.85938    -21.4 1.190e+04 1.082e-09
  4.87586    -21.7 1.305e+04 1.655e-09
  4.89443    -21.8 1.319e+04 2.215e-09
  4.90468    -20.8 1.268e+04 1.430e-09
  4.91677    -20.7 1.271e+04 1.908e-09
  4.93325    -19.4 1.280e+04 2.208e-09
  4.94350    -19.2 1.265e+04 1.601e-09
  4.96813    -18.4 1.310e+04 2.277e-09
  4.99383    -17.5 1.244e+04 1.668e-09
  5.01252    -16.5 1.228e+04 1.665e-09
  5.02792    -15.6 1.152e+04 8.965e-10
  5.05024    -14.0 1.136e+04 9.366e-10
  5.09124    -12.1 1.109e+04 7.850e-10
  5.13225    -10.2 1.076e+04 4.950e-10
  5.17175     -8.7 1.050e+04 2.922e-10
  5.19226     -6.9 1.074e+04 4.637e-10
  5.19636     -5.5 1.062e+04 2.477e-10
  5.21686     -4.4 1.059e+04 3.211e-10
  5.25527     -3.3 1.053e+04 2.115e-10
  5.29627     -2.3 1.032e+04 1.893e-10
  5.33728     -1.1 1.014e+04 2.312e-10
  5.36480      0.9 1.017e+04 2.904e-10
  5.37719      2.0 1.031e+04 3.405e-10
  5.39068      3.2 1.046e+04 4.196e-10
  5.41929      5.4 1.061e+04 3.963e-10
  5.46030      7.0 1.071e+04 3.418e-10
  5.50130      8.0 1.099e+04 3.370e-10
  5.53324      6.2 1.218e+04 5.424e-10
  5.55374      6.1 1.258e+04 6.480e-10
  5.56850      4.7 1.265e+04 1.240e-09
  5.57866      5.7 1.285e+04 9.707e-10
  5.59337      6.4 1.239e+04 1.906e-09
  5.61387      8.3 1.256e+04 2.454e-09
  5.62751      9.3 1.303e+04 2.386e-09
  5.63776      9.8 1.326e+04 2.554e-09
  5.66523      9.0 1.322e+04 1.751e-09
  5.70168      7.2 1.242e+04 9.629e-10
  5.72218      7.7 1.226e+04 9.826e-10
  5.74652      6.7 1.141e+04 6.849e-10
  5.76702      7.5 1.189e+04 8.576e-10
  5.78834      7.8 1.134e+04 7.044e-10
  5.82935      9.3 1.100e+04 5.830e-10
  5.87012     11.0 1.076e+04 4.503e-10
  5.89062     11.3 1.071e+04 5.111e-10
  5.91136     13.2 1.043e+04 4.177e-10
  5.94494     15.2 1.017e+04 2.812e-10
  5.96545     15.6 1.023e+04 2.602e-10
  5.99337     17.2 1.017e+04 2.132e-10
  6.03438     18.5 1.005e+04 2.011e-10
  6.05906     20.3 9.922e+03 2.062e-10
  6.07956     21.0 9.889e+03 2.033e-10
  6.11639     22.9 9.824e+03 2.073e-10
  6.14337     25.2 9.780e+03 1.999e-10
  6.16387     26.3 9.883e+03 2.346e-10
  6.19840     28.3 9.860e+03 1.979e-10
  6.22750     29.9 9.880e+03 1.810e-10
  6.24800     30.6 9.673e+03 1.547e-10
  6.28041     32.3 9.703e+03 1.515e-10
  6.32129     33.8 9.790e+03 1.591e-10
  6.36229     35.7 1.020e+04 2.402e-10
  6.39594     36.9 1.032e+04 3.280e-10
  6.41644     37.7 1.008e+04 2.461e-10
  6.44444     38.8 1.033e+04 3.963e-10
  6.48544     40.2 1.090e+04 6.797e-10
  6.51971     40.9 1.161e+04 1.048e-09
  6.54011     41.4 1.168e+04 1.065e-09
  6.55701     41.7 1.191e+04 1.247e-09
  6.57443     42.0 1.211e+04 1.395e-09
  6.58469     41.8 1.235e+04 1.599e-09
  6.59801     42.0 1.256e+04 1.795e-09
  6.61852     42.2 1.257e+04 1.885e-09
  6.62898     42.3 1.248e+04 1.872e-09
  6.63923     42.6 1.238e+04 1.555e-09
  6.65865     42.7 1.215e+04 1.537e-09
  6.66891     42.6 1.269e+04 2.179e-09
  6.69037     43.2 1.228e+04 1.764e-09
  6.71813     43.8 1.198e+04 1.470e-09
  6.72829     43.9 1.199e+04 1.826e-09
  6.74153     44.3 1.202e+04 1.832e-09
  6.75313     44.6 1.218e+04 1.909e-09
  6.76338     44.2 1.275e+04 2.083e-09
  6.78254     44.2 1.287e+04 2.128e-09
  6.80304     44.0 1.308e+04 2.307e-09
  6.81715     43.9 1.331e+04 2.610e-09
  6.82740     44.5 1.388e+04 3.249e-09
  6.83735     44.6 1.420e+04 3.751e-09
  6.84760     44.3 1.383e+04 2.987e-09
  6.86455     44.9 1.370e+04 2.779e-09
  6.88506     45.7 1.332e+04 2.307e-09
  6.90556     46.4 1.283e+04 1.729e-09
  6.91636     46.8 1.231e+04 1.218e-09
  6.92212     47.4 1.262e+04 1.442e-09
  6.94217     46.5 1.122e+04 3.772e-10
  6.97751     45.3 9.566e+03 1.643e-10
  7.01852     45.3 8.903e+03 1.330e-10
  7.05953     46.8 8.835e+03 1.508e-10
  7.09020     48.9 9.026e+03 2.008e-10
  7.10465     49.3 8.627e+03 1.457e-10
  7.11498     49.7 8.739e+03 1.508e-10
  7.14154     52.1 8.976e+03 2.007e-10
  7.18254     54.3 9.257e+03 2.634e-10
  7.22355     56.3 9.551e+03 3.400e-10
  7.25864     58.1 9.841e+03 4.418e-10
  7.27914     58.6 9.306e+03 2.319e-10
  7.29290     60.1 9.529e+03 3.027e-10
  7.31340     61.0 9.482e+03 3.387e-10
  7.34657     62.4 9.904e+03 4.668e-10
  7.38757     63.5 1.045e+04 6.865e-10
  7.42708     64.5 1.103e+04 9.841e-10
  7.44758     64.9 1.034e+04 6.105e-10
  7.46958     65.8 1.075e+04 8.151e-10
  7.49132     66.4 1.081e+04 8.748e-10
  7.51182     67.0 1.154e+04 1.268e-09
  7.55160     68.0 1.118e+04 1.056e-09
  7.59260     69.3 1.054e+04 6.816e-10
  7.61602     70.6 9.904e+03 3.794e-10
  7.63653     70.7 9.768e+03 3.836e-10
  7.66924     71.7 9.344e+03 2.462e-10
  7.68974     71.9 9.427e+03 2.320e-10
  7.71562     73.0 9.159e+03 1.891e-10
  7.75663     74.6 9.033e+03 1.780e-10
  7.78446     76.4 8.959e+03 1.721e-10
  7.80497     76.8 9.055e+03 2.129e-10
  7.83864     78.6 9.028e+03 2.062e-10
  7.86766     80.4 8.994e+03 1.917e-10
  7.88817     80.6 9.161e+03 2.047e-10
  7.92065     82.3 9.064e+03 1.818e-10
  7.95290     84.0 9.018e+03 1.704e-10
  7.97341     84.4 9.327e+03 2.620e-10
  8.00266     86.1 9.325e+03 2.451e-10
  8.04367     87.9 9.379e+03 2.349e-10
  8.06609     89.7 9.469e+03 2.285e-10
  8.08659     90.0 9.377e+03 2.030e-10
  8.12134     91.6 9.378e+03 1.743e-10
  8.14185     91.9 9.413e+03 1.756e-10
  8.16668     93.2 9.293e+03 1.278e-10
  8.20769     94.3 9.013e+03 1.043e-10
  8.24401     95.6 8.886e+03 1.038e-10
  8.26451     96.5 8.683e+03 8.276e-11
  8.28970     98.3 8.671e+03 8.577e-11
  8.33071    100.6 8.710e+03 9.808e-11
  8.37171    102.6 8.783e+03 1.174e-10
  8.41272    104.6 8.901e+03 1.432e-10
  8.44243    106.6 9.067e+03 1.781e-10
  8.46293    107.9 8.819e+03 1.203e-10
  8.47873    109.7 8.999e+03 1.507e-10
  8.49923    110.3 9.037e+03 1.509e-10
  8.53574    111.9 9.347e+03 2.021e-10
  8.57674    112.9 9.803e+03 2.897e-10
  8.60740    113.5 1.003e+04 3.322e-10
  8.62781    113.7 1.030e+04 3.970e-10
  8.64066    113.9 1.064e+04 5.325e-10
  8.64957    115.5 1.019e+04 3.717e-10
  8.65722    115.8 1.023e+04 3.531e-10
  8.66881    115.6 1.059e+04 4.875e-10
  8.68931    115.4 1.089e+04 6.823e-10
  8.70982    115.4 1.109e+04 8.469e-10
  8.72962    115.0 1.130e+04 8.893e-10
  8.73987    116.4 1.097e+04 7.379e-10
  8.74144    115.9 1.099e+04 7.310e-10
  8.75169    116.1 1.108e+04 7.871e-10
  8.78167    114.9 1.104e+04 6.983e-10
  8.81561    114.1 1.054e+04 4.783e-10
  8.83210    114.1 1.077e+04 5.542e-10
  8.83918    116.0 1.056e+04 4.441e-10
  8.86369    115.8 1.020e+04 3.697e-10
  8.90479    114.9 9.802e+03 3.535e-10
  8.94580    114.4 9.701e+03 3.654e-10
  8.98405    114.1 9.636e+03 3.646e-10
  9.00455    113.7 9.603e+03 3.594e-10
  9.01719    112.9 9.495e+03 3.055e-10
  9.03770    116.0 9.818e+03 4.176e-10
  9.06881    114.9 9.690e+03 3.549e-10
  9.10982    113.4 9.407e+03 2.687e-10
  9.15083    111.9 8.992e+03 2.026e-10
  9.17299    111.0 8.616e+03 1.644e-10
  9.19349    110.1 8.470e+03 1.513e-10
  9.21562    110.0 8.336e+03 1.340e-10
  9.23612    111.6 8.435e+03 1.525e-10
  9.27384    111.5 8.288e+03 1.242e-10
  9.31485    111.3 8.263e+03 1.058e-10
  9.34143    110.9 8.314e+03 1.077e-10
  9.36193    110.1 8.270e+03 9.781e-11
  9.39354    109.3 8.526e+03 1.358e-10
  9.41404    110.3 8.218e+03 8.634e-11
  9.43787    109.1 8.554e+03 1.451e-10
  9.47887    107.8 9.483e+03 3.109e-10
  9.50987    106.2 1.083e+04 6.778e-10
  9.53037    105.6 1.134e+04 9.188e-10
  9.56088    103.3 1.199e+04 1.259e-09
  9.59196    100.6 1.207e+04 1.269e-09
  9.61246    101.8 1.085e+04 6.594e-10
  9.64290     99.3 1.104e+04 7.573e-10
  9.67355     97.6 1.121e+04 8.481e-10
  9.68836     96.3 1.134e+04 9.266e-10
  9.69563     95.7 1.147e+04 9.994e-10
  9.70123     96.8 1.119e+04 8.436e-10
  9.71446     95.4 1.139e+04 9.613e-10
  9.73496     94.2 1.158e+04 1.071e-09
  9.75547     92.8 1.187e+04 1.133e-09
  9.77258     91.6 1.189e+04 1.136e-09
  9.78284     90.9 1.221e+04 1.288e-09
  9.79029     89.2 1.203e+04 1.227e-09
  9.81089     90.6 1.178e+04 9.807e-10
  9.84675     87.7 1.185e+04 1.115e-09
  9.86725     85.8 1.234e+04 1.432e-09
  9.88893     82.7 1.232e+04 1.425e-09
  9.92994     79.6 1.191e+04 1.231e-09
  9.96830     76.9 1.115e+04 8.989e-10
  9.98881     77.6 1.145e+04 1.049e-09
 10.01195     75.6 1.036e+04 5.575e-10
 10.03569     73.5 9.256e+03 2.664e-10
 10.05619     72.5 9.086e+03 2.404e-10
 10.09396     71.3 8.782e+03 1.899e-10
 10.13497     71.1 8.746e+03 1.922e-10
 10.16673     71.4 8.757e+03 2.090e-10
 10.18723     71.7 8.816e+03 2.254e-10
 10.20413     72.4 8.892e+03 2.377e-10
 10.22463     72.5 8.925e+03 2.342e-10
 10.25798     73.3 8.952e+03 2.384e-10
 10.29899     74.1 9.052e+03 2.534e-10
 10.34000     74.9 9.308e+03 3.015e-10
 10.36515     75.0 9.611e+03 3.794e-10
 10.37722     75.8 9.590e+03 3.560e-10
 10.39307     76.0 9.622e+03 3.514e-10
 10.41166     75.9 1.003e+04 5.031e-10
 10.43206     76.1 1.049e+04 7.167e-10
 10.45257     76.4 1.101e+04 1.023e-09
 10.46416     77.0 1.160e+04 1.417e-09
 10.46819     77.7 1.160e+04 1.394e-09
 10.47710     78.0 1.151e+04 1.262e-09
 10.49357     78.0 1.227e+04 1.758e-09
 10.51408     77.0 1.358e+04 2.618e-09
 10.53458     74.5 1.516e+04 3.770e-09
 10.54991     71.4 1.706e+04 5.620e-09
 10.55609     69.2 1.806e+04 7.334e-09
 10.55926     67.6 1.898e+04 1.016e-08
 10.56328     67.3 2.000e+04 1.339e-08
 10.57036     66.5 2.010e+04 1.642e-08
 10.58061     65.6 2.005e+04 1.690e-08
 10.59086     65.2 1.972e+04 1.582e-08
 10.59820     64.5 1.924e+04 1.390e-08
 10.60333     64.5 1.932e+04 1.595e-08
 10.61654     63.9 1.886e+04 1.326e-08
 10.63529     63.0 1.684e+04 6.989e-09
 10.64554     61.6 1.673e+04 6.523e-09
 10.65234     58.5 1.424e+04 3.386e-09
 10.66259     57.7 1.485e+04 4.222e-09
 10.67810     55.9 1.336e+04 2.772e-09
 10.69860     55.6 1.286e+04 2.258e-09
 10.71911     56.2 1.268e+04 2.113e-09
 10.72976     56.7 1.276e+04 2.162e-09
 10.74001     56.8 1.227e+04 1.639e-09
 10.75155     57.5 1.228e+04 1.614e-09
 10.76180     56.5 1.262e+04 1.952e-09
 10.78061     57.4 1.262e+04 2.003e-09
 10.80112     58.3 1.259e+04 1.987e-09
 10.81398     59.3 1.242e+04 1.883e-09
 10.82423     59.0 1.153e+04 1.122e-09
 10.84051     59.8 1.121e+04 9.977e-10
 10.85076     59.6 1.145e+04 1.247e-09
 10.86263     60.5 1.104e+04 1.041e-09
 10.88313     61.2 1.065e+04 8.566e-10
 10.89820     61.8 1.032e+04 7.185e-10
 10.90845     62.0 9.806e+03 5.315e-10
 10.92413     62.7 9.669e+03 4.834e-10
 10.93972     63.8 9.508e+03 4.509e-10
 10.94997     63.8 9.668e+03 5.015e-10
 10.96514     64.9 9.653e+03 4.990e-10
 10.98242     65.9 9.657e+03 5.019e-10
 10.99267     66.2 9.434e+03 4.371e-10
 11.00615     67.3 9.412e+03 4.406e-10
 11.02665     68.5 9.431e+03 4.562e-10
 11.03893     69.6 9.635e+03 5.013e-10
 11.04918     69.9 1.003e+04 5.647e-10
 11.06664     70.5 1.071e+04 7.003e-10
 11.07689     70.8 9.715e+03 5.095e-10
 11.08816     71.3 1.036e+04 6.262e-10
 11.10866     71.1 1.161e+04 8.624e-10
 11.12789     70.8 1.332e+04 1.340e-09
 11.13814     70.4 1.465e+04 2.227e-09
 11.14967     70.4 1.578e+04 3.816e-09
 11.16111     70.4 1.673e+04 5.632e-09
 11.17136     70.6 1.575e+04 2.842e-09
 11.19067     70.2 1.652e+04 4.084e-09
 11.21118     69.6 1.732e+04 5.609e-09
 11.22710     68.8 1.765e+04 6.702e-09
 11.23735     67.9 1.946e+04 1.227e-08
 11.24533     66.3 1.949e+04 1.413e-08
 11.25558     66.7 1.823e+04 6.432e-09
 11.27268     65.3 1.772e+04 6.701e-09
 11.29319     64.2 1.715e+04 6.581e-09
 11.31369     63.5 1.646e+04 6.139e-09
 11.32631     62.8 1.576e+04 5.360e-09
 11.33192     62.2 1.668e+04 7.897e-09
 11.33980     62.3 1.544e+04 4.710e-09
 11.35470     61.1 1.500e+04 4.374e-09
 11.37520     59.1 1.485e+04 4.420e-09
 11.39570     57.1 1.469e+04 4.698e-09
 11.41377     56.2 1.472e+04 5.396e-09
 11.42304     56.1 1.495e+04 5.767e-09
 11.42543     54.7 1.589e+04 6.865e-09
 11.43149     50.5 1.893e+04 1.100e-08
 11.44174     43.2 2.337e+04 2.129e-08
 11.45199     38.6 2.446e+04 3.776e-08
 11.46091     36.1 2.270e+04 4.725e-08
 11.46603     36.4 2.276e+04 5.179e-08
 11.46991     35.2 2.184e+04 4.664e-08
 11.47503     34.1 2.158e+04 4.007e-08
 11.48274     32.1 2.097e+04 2.658e-08
 11.49299     30.2 2.140e+04 1.502e-08
 11.50302     26.8 2.122e+04 7.915e-09
 11.50819     29.7 2.204e+04 1.115e-08
 11.51448     17.6 1.940e+04 2.111e-09
 11.52474     10.7 1.427e+04 1.261e-09
 11.53922      4.8 1.054e+04 6.986e-10
 11.55973      4.2 1.020e+04 6.348e-10
 11.58023      4.2 9.966e+03 5.842e-10
 11.59246      4.6 9.658e+03 5.258e-10
 11.60271      4.3 9.641e+03 5.081e-10
 11.61370      5.1 9.421e+03 4.677e-10
 11.62395      5.3 9.402e+03 4.628e-10
 11.65209      6.4 9.358e+03 4.492e-10
 11.69260      8.7 8.884e+03 3.234e-10
 11.71310      8.8 9.089e+03 3.906e-10
 11.73420     10.4 8.862e+03 2.988e-10
 11.76109     11.3 8.674e+03 2.320e-10
 11.78160     11.4 9.088e+03 2.934e-10
 11.81621     11.8 8.792e+03 2.513e-10
 11.85721     12.8 8.405e+03 2.216e-10
 11.89102     14.5 8.012e+03 1.879e-10
 11.91153     14.1 8.483e+03 2.668e-10
 11.92953     16.2 8.058e+03 1.893e-10
 11.95004     16.3 8.088e+03 1.817e-10
 11.98023     17.7 7.740e+03 1.169e-10
 12.02124     18.9 7.498e+03 9.017e-11
 12.06224     20.7 7.357e+03 8.041e-11
 12.08945     22.9 7.271e+03 7.608e-11
 12.10467     22.1 7.538e+03 1.155e-10
 12.11848     22.2 7.609e+03 1.109e-10
 12.14426     24.5 7.630e+03 1.168e-10
 12.18526     26.7 7.784e+03 1.321e-10
 12.22627     28.3 8.179e+03 1.782e-10
 12.26641     29.9 8.831e+03 3.139e-10
 12.28692     29.8 9.275e+03 3.891e-10
 12.30828     29.9 1.071e+04 9.405e-10
 12.34928     31.0 1.187e+04 1.561e-09
 12.37104     31.9 1.251e+04 2.109e-09
 12.37798     31.8 1.280e+04 2.350e-09
 12.38688     31.3 1.248e+04 1.863e-09
 12.40035     31.8 1.280e+04 2.014e-09
 12.42085     31.8 1.293e+04 2.020e-09
 12.44135     31.7 1.268e+04 1.898e-09
 12.45516     31.7 1.193e+04 1.623e-09
 12.46541     31.2 1.201e+04 1.622e-09
 12.47584     30.9 1.118e+04 1.338e-09
 12.48619     28.6 1.092e+04 1.211e-09
 12.50296     30.0 1.044e+04 9.765e-10
 12.52336     29.9 1.032e+04 8.371e-10
 12.53938     29.8 1.007e+04 6.676e-10
 12.54963     29.8 1.020e+04 7.181e-10
 12.56437     29.1 9.988e+03 5.819e-10
 12.57506     28.5 9.632e+03 4.722e-10
 12.58531     27.8 9.971e+03 5.933e-10
 12.60538     27.8 9.723e+03 5.392e-10
 12.62360     27.9 9.540e+03 4.473e-10
 12.63385     28.1 9.343e+03 3.798e-10
 12.64638     27.7 9.232e+03 3.259e-10
 12.66411     27.3 8.840e+03 2.507e-10
 12.68471     27.2 9.206e+03 3.297e-10
 12.71834     27.2 8.610e+03 2.440e-10
 12.75934     28.0 8.279e+03 2.002e-10
 12.79224     29.1 8.181e+03 1.795e-10
 12.81274     29.8 8.188e+03 1.781e-10
 12.84136     31.4 8.184e+03 1.746e-10
 12.86263     32.8 8.286e+03 1.806e-10
 12.88314     32.4 8.351e+03 1.881e-10
 12.92337     32.8 9.077e+03 3.256e-10
 12.96068     33.3 1.023e+04 6.996e-10
 12.98118     34.1 9.753e+03 4.771e-10
 13.00538     35.4 1.057e+04 8.430e-10
 13.04055     36.6 1.077e+04 9.526e-10
 13.06106     36.5 1.143e+04 1.500e-09
 13.08739     37.7 1.113e+04 1.199e-09
 13.12840     37.4 1.049e+04 7.814e-10
 13.14962     36.8 9.859e+03 5.385e-10
 13.17012     37.2 1.010e+04 6.003e-10
 13.21041     37.2 9.548e+03 4.247e-10
 13.23898     38.1 8.993e+03 2.785e-10
 13.25948     38.7 9.495e+03 4.457e-10
 13.29242     40.4 9.018e+03 2.831e-10
 13.31806     41.7 8.717e+03 1.646e-10
 13.33856     41.5 8.744e+03 1.609e-10
 13.37443     42.3 8.577e+03 1.038e-10
 13.41544     43.6 8.457e+03 9.287e-11
 13.43740     45.4 8.458e+03 9.611e-11
 13.45790     46.1 8.685e+03 1.204e-10
 13.48650     48.0 8.678e+03 1.222e-10
 13.50700     47.2 9.017e+03 1.777e-10
 13.53846     49.1 9.128e+03 2.080e-10
 13.57946     51.1 9.208e+03 2.374e-10
 13.61532     53.1 9.240e+03 2.625e-10
 13.63582     53.6 9.497e+03 3.425e-10
 13.65494     55.8 9.455e+03 3.468e-10
 13.67544     55.5 9.709e+03 4.160e-10
 13.70248     57.8 9.524e+03 3.574e-10
 13.74348     60.0 9.366e+03 3.143e-10
 13.78449     62.3 9.244e+03 2.797e-10
 13.81374     64.6 9.141e+03 2.528e-10
 13.83213     64.8 8.993e+03 1.911e-10
 13.84388     64.2 8.853e+03 1.384e-10
 13.86650     66.5 8.795e+03 1.373e-10
 13.90751     68.9 8.798e+03 1.390e-10
 13.94851     71.2 8.835e+03 1.485e-10
 13.98952     73.5 8.916e+03 1.684e-10
 14.01217     75.9 9.006e+03 1.928e-10
 14.03267     75.7 8.595e+03 9.027e-11
 14.07153     78.1 8.620e+03 9.143e-11
 14.11254     80.4 8.619e+03 8.618e-11
 14.15354     82.5 8.568e+03 7.419e-11
 14.18076     84.5 8.450e+03 6.115e-11
 14.19680     84.0 8.213e+03 4.702e-11
 14.21059     84.6 8.187e+03 4.881e-11
 14.23556     86.6 8.130e+03 4.278e-11
 14.27656     88.6 8.130e+03 4.071e-11
 14.31757     90.5 8.147e+03 4.144e-11
 14.34920     92.4 8.199e+03 4.433e-11
 14.36970     92.4 8.170e+03 4.495e-11
 14.38851     94.3 8.265e+03 5.860e-11
 14.40901     95.1 8.253e+03 5.302e-11
 14.44058     97.1 8.331e+03 7.065e-11
 14.48159     99.1 8.442e+03 9.760e-11
 14.51764    101.2 8.616e+03 1.287e-10
 14.53814    101.4 8.594e+03 1.232e-10
 14.56360    103.2 8.748e+03 1.317e-10
 14.58693    104.7 8.834e+03 1.331e-10
 14.60743    105.9 8.840e+03 1.368e-10
 14.64561    107.2 8.882e+03 1.369e-10
 14.68608    108.4 8.914e+03 1.386e-10
 14.70658    108.2 8.773e+03 1.281e-10
 14.72763    109.4 8.854e+03 1.409e-10
 14.76485    110.7 9.005e+03 1.699e-10
 14.78535    111.6 9.018e+03 1.720e-10
 14.80964    113.1 9.228e+03 2.148e-10
 14.85064    114.6 9.447e+03 2.645e-10
 14.87502    116.1 9.659e+03 3.234e-10
 14.89553    116.0 9.570e+03 2.715e-10
 14.93266    117.3 9.639e+03 2.843e-10
 14.96327    118.7 9.729e+03 2.992e-10
 14.98378    119.1 9.655e+03 2.477e-10
 15.01467    120.4 9.738e+03 2.559e-10
 15.04346    121.7 9.921e+03 2.896e-10
 15.06397    121.4 9.801e+03 2.450e-10
 15.09668    122.9 1.009e+04 3.058e-10
 15.13768    124.0 1.034e+04 3.785e-10
 15.16160    124.6 1.041e+04 4.106e-10
 15.18210    125.4 1.035e+04 3.744e-10
 15.20935    126.1 1.060e+04 5.022e-10
 15.22196    126.8 1.081e+04 6.121e-10
 15.23221    126.4 1.070e+04 5.401e-10
 15.25026    127.2 1.089e+04 6.476e-10
 15.26071    128.0 1.106e+04 7.318e-10
 15.27096    128.1 1.090e+04 6.989e-10
 15.29126    128.7 1.106e+04 7.254e-10
 15.30618    129.2 1.107e+04 7.243e-10
 15.31643    128.8 1.082e+04 6.478e-10
 15.33227    129.1 1.082e+04 6.407e-10
 15.34967    129.3 1.077e+04 6.226e-10
 15.35992    129.4 1.070e+04 6.051e-10
 15.37327    129.6 1.066e+04 6.048e-10
 15.39040    129.7 1.067e+04 6.142e-10
 15.40065    129.4 1.048e+04 5.755e-10
 15.41428    129.6 1.056e+04 6.262e-10
 15.43478    129.8 1.072e+04 6.969e-10
 15.44888    129.8 1.090e+04 7.813e-10
 15.45914    129.9 1.096e+04 8.523e-10
 15.47462    129.6 1.134e+04 1.024e-09
 15.48487    129.3 1.137e+04 1.018e-09
 15.49629    127.7 1.251e+04 1.518e-09
 15.51679    125.1 1.416e+04 2.681e-09
 15.53730    122.3 1.591e+04 5.119e-09
 15.54810    119.7 1.748e+04 9.272e-09
 15.55835    119.7 1.802e+04 1.154e-08
 15.56909    116.9 1.913e+04 1.536e-08
 15.57934    116.0 1.934e+04 1.670e-08
 15.59881    112.8 1.925e+04 1.600e-08
 15.61931    109.9 1.849e+04 1.291e-08
 15.63706    107.5 1.711e+04 8.774e-09
 15.64731    106.2 1.690e+04 9.047e-09
 15.65331    104.5 1.543e+04 6.169e-09
 15.66356    104.3 1.459e+04 4.115e-09
 15.68082    102.4 1.342e+04 2.570e-09
 15.70132    100.8 1.252e+04 1.731e-09
 15.72182     99.6 1.171e+04 1.273e-09
 15.73637     99.2 1.145e+04 1.195e-09
 15.74182     99.2 1.159e+04 1.233e-09
 15.75813     98.7 1.051e+04 7.830e-10
 15.79378     98.7 1.028e+04 7.091e-10
 15.83478     99.2 1.020e+04 6.573e-10
 15.86544     99.1 1.016e+04 6.176e-10
 15.88585     99.2 1.014e+04 5.772e-10
 15.90597     99.4 1.009e+04 5.434e-10
 15.92416    100.5 9.609e+03 4.227e-10
 15.93489     99.6 9.587e+03 4.187e-10
 15.95780    100.1 9.607e+03 3.822e-10
 15.98846    100.4 9.579e+03 3.586e-10
 16.00044    100.6 9.543e+03 3.372e-10
 16.01069    100.9 9.562e+03 3.437e-10
 16.02365    101.3 9.525e+03 3.241e-10
 16.03390    100.5 9.510e+03 3.198e-10
 16.04987    100.7 9.465e+03 3.120e-10
 16.07037    100.8 9.459e+03 3.146e-10
 16.08466    100.7 9.481e+03 3.346e-10
 16.09501    102.5 9.479e+03 3.148e-10
 16.11148    101.9 9.548e+03 3.422e-10
 16.12286    101.6 9.733e+03 4.201e-10
 16.13311    100.6 9.884e+03 4.967e-10
 16.15239    100.6 1.022e+04 6.640e-10
 16.16888    101.0 1.066e+04 8.936e-10
 16.17913    101.8 1.035e+04 7.438e-10
 16.19339    102.2 1.077e+04 9.806e-10
 16.21182    102.6 1.124e+04 1.262e-09
 16.22207    102.3 1.124e+04 1.282e-09
 16.23440    102.6 1.167e+04 1.532e-09
 16.25310    102.6 1.211e+04 1.790e-09
 16.26335    103.6 1.168e+04 1.565e-09
 16.27540    103.6 1.208e+04 1.788e-09
 16.29591    103.2 1.280e+04 2.136e-09
 16.31103    101.6 1.404e+04 2.871e-09
 16.32128    101.5 1.378e+04 2.619e-09
 16.33691     99.5 1.510e+04 4.003e-09
 16.34757     98.0 1.610e+04 6.366e-09
 16.35782     98.6 1.583e+04 5.193e-09
 16.37792     97.6 1.653e+04 7.819e-09
 16.39842     96.9 1.652e+04 8.218e-09
 16.41024     96.6 1.618e+04 7.580e-09
 16.42050     97.3 1.633e+04 7.750e-09
 16.43179     97.4 1.547e+04 5.643e-09
 16.44204     97.9 1.557e+04 6.233e-09
 16.45993     98.0 1.451e+04 3.666e-09
 16.48043     97.1 1.316e+04 1.656e-09
 16.49920     93.9 1.140e+04 6.839e-10
 16.50946     94.5 1.170e+04 8.372e-10
 16.51601     91.3 9.930e+03 4.158e-10
 16.52626     92.4 1.022e+04 4.268e-10
 16.54194     90.6 9.596e+03 2.934e-10
 16.57279     90.9 9.544e+03 2.708e-10
 16.60043     90.7 9.562e+03 2.687e-10
 16.61058     91.2 9.510e+03 2.809e-10
 16.62395     91.1 9.531e+03 2.840e-10
 16.64446     90.8 9.667e+03 3.060e-10
 16.66496     89.9 1.002e+04 3.896e-10
 16.68445     89.0 1.053e+04 5.679e-10
 16.69470     89.4 1.049e+04 5.429e-10
 16.69763     88.8 1.086e+04 7.030e-10
 16.70788     88.9 1.095e+04 7.651e-10
 16.72647     88.3 1.136e+04 9.987e-10
 16.74697     87.6 1.178e+04 1.199e-09
 16.76747     86.1 1.206e+04 1.288e-09
 16.77892     85.2 1.205e+04 1.262e-09
 16.78779     84.4 1.186e+04 1.213e-09
 16.79684     84.4 1.216e+04 1.357e-09
 16.81883     81.6 1.203e+04 1.328e-09
 16.85993     79.0 1.177e+04 1.277e-09
 16.88599     78.0 1.127e+04 1.118e-09
 16.90650     76.3 1.183e+04 1.375e-09
 16.93731     75.9 1.126e+04 1.074e-09
 16.95781     75.1 1.052e+04 6.684e-10
 16.98295     74.5 1.004e+04 5.183e-10
 17.01361     74.1 1.004e+04 5.300e-10
 17.03158     74.1 9.916e+03 5.053e-10
 17.04184     73.9 9.578e+03 4.198e-10
 17.06382     74.6 9.632e+03 4.187e-10
 17.08432     74.0 9.665e+03 4.525e-10
 17.09552     74.5 9.634e+03 4.415e-10
 17.11580     74.7 9.674e+03 4.461e-10
 17.12615     74.6 9.367e+03 3.844e-10
 17.14697     75.4 9.474e+03 4.090e-10
 17.18798     76.1 9.653e+03 4.591e-10
 17.22899     77.1 9.842e+03 5.293e-10
 17.26234     78.1 1.015e+04 6.387e-10
 17.28284     77.1 1.014e+04 6.107e-10
 17.29469     77.8 1.026e+04 6.255e-10
 17.31519     78.5 1.051e+04 7.939e-10
 17.35200     79.1 1.053e+04 7.931e-10
 17.39301     79.8 1.040e+04 7.052e-10
 17.43401     80.6 1.002e+04 5.207e-10
 17.46076     81.3 9.532e+03 3.475e-10
 17.46937     80.1 9.127e+03 2.514e-10
 17.48363     80.9 9.912e+03 4.869e-10
 17.51603     81.4 9.247e+03 3.011e-10
 17.55703     81.8 8.723e+03 2.128e-10
 17.59804     82.5 8.664e+03 2.081e-10
 17.63157     83.2 8.744e+03 2.287e-10
 17.65171     83.9 8.975e+03 2.873e-10
 17.65918     82.6 9.034e+03 3.037e-10
 17.68005     83.4 9.413e+03 4.087e-10
 17.72106     84.4 9.908e+03 5.724e-10
 17.76206     85.3 1.013e+04 6.348e-10
 17.80001     86.1 1.007e+04 6.067e-10
 17.82051     86.6 1.033e+04 7.222e-10
 17.83710     87.5 1.005e+04 5.909e-10
 17.85761     86.8 9.805e+03 4.806e-10
 17.88508     87.8 9.261e+03 2.990e-10
 17.92609     88.8 8.750e+03 1.839e-10
 17.96709     89.7 8.394e+03 1.294e-10
 17.98895     90.9 8.255e+03 1.131e-10
 18.00946     91.3 8.326e+03 1.322e-10
 18.03553     93.0 8.314e+03 1.327e-10
 18.05603     92.5 8.428e+03 1.677e-10
 18.09011     94.4 8.536e+03 1.897e-10
 18.13111     96.2 8.712e+03 2.229e-10
 18.15739     97.9 8.947e+03 2.680e-10
 18.17790     98.4 9.004e+03 2.845e-10
 18.21313    100.3 9.299e+03 3.563e-10
 18.23395    102.1 9.697e+03 4.517e-10
 18.25445    101.4 9.911e+03 5.376e-10
 18.29514    102.9 1.025e+04 6.365e-10
 18.32583    104.2 1.057e+04 7.261e-10
 18.34624    104.5 1.067e+04 7.722e-10
 18.36670    105.1 1.079e+04 8.174e-10
 18.38721    105.4 1.085e+04 8.281e-10
 18.40771    106.0 1.083e+04 8.061e-10
 18.42011    106.4 1.080e+04 7.846e-10
 18.42407    106.6 1.094e+04 8.517e-10
 18.43227    106.0 1.083e+04 8.061e-10
 18.45916    107.2 1.073e+04 7.295e-10
 18.49427    108.4 1.042e+04 5.530e-10
 18.51477    108.9 1.091e+04 7.706e-10
 18.54117    110.3 1.057e+04 5.581e-10
 18.58218    111.5 1.005e+04 3.234e-10
 18.61029    112.4 9.431e+03 1.680e-10
 18.63079    111.2 9.565e+03 1.714e-10
 18.66271    111.7 9.401e+03 1.404e-10
 18.68321    112.8 9.581e+03 1.771e-10
 18.70520    113.5 9.545e+03 1.709e-10
 18.74620    114.5 9.586e+03 1.834e-10
 18.78721    115.6 9.753e+03 2.315e-10
 18.80871    116.9 9.933e+03 2.972e-10
 18.81887    114.9 1.017e+04 3.979e-10
 18.83827    115.5 1.019e+04 4.171e-10
 18.85146    116.2 1.017e+04 4.179e-10
 18.86171    116.7 1.036e+04 4.792e-10
 18.87928    117.3 1.035e+04 4.786e-10
 18.89748    117.9 1.030e+04 4.685e-10
 18.90773    117.1 1.039e+04 5.066e-10
 18.92028    117.9 1.036e+04 4.861e-10
 18.93568    118.6 1.036e+04 4.712e-10
 18.94593    118.8 1.056e+04 5.466e-10
 18.96129    119.4 1.054e+04 5.396e-10
 18.98179    120.1 1.054e+04 5.396e-10
 18.99669    120.9 1.056e+04 5.445e-10
 19.00694    119.9 1.069e+04 6.784e-10
 19.01990    120.6 1.068e+04 7.173e-10
 19.03015    120.6 1.104e+04 8.767e-10
 19.04330    121.4 1.105e+04 9.393e-10
 19.06380    122.3 1.105e+04 9.918e-10
 19.08431    123.2 1.104e+04 1.004e-09
 19.09590    124.1 1.102e+04 1.001e-09
 19.10546    123.7 1.140e+04 1.109e-09
 19.11437    123.7 1.193e+04 1.420e-09
 19.12531    124.5 1.192e+04 1.384e-09
 19.14581    125.3 1.190e+04 1.341e-09
 19.16632    126.0 1.192e+04 1.334e-09
 19.18486    126.7 1.194e+04 1.334e-09
 19.19511    125.7 1.215e+04 1.423e-09
 19.19859    126.3 1.211e+04 1.442e-09
 19.20884    126.3 1.260e+04 1.847e-09
 19.22783    127.0 1.250e+04 1.890e-09
 19.24833    127.7 1.245e+04 1.931e-09
 19.26883    128.4 1.244e+04 1.917e-09
 19.28281    128.7 1.241e+04 1.881e-09
 19.28780    129.0 1.276e+04 2.300e-09
 19.29432    128.5 1.275e+04 1.910e-09
 19.32019    129.4 1.249e+04 1.806e-09
 19.35697    130.2 1.208e+04 1.399e-09
 19.37748    129.8 1.225e+04 1.436e-09
 19.38348    130.6 1.142e+04 8.929e-10
 19.40398    129.3 1.086e+04 5.990e-10
 19.44330    130.4 1.006e+04 3.632e-10
 19.48431    131.5 9.409e+03 2.123e-10
 19.52531    132.6 8.937e+03 1.319e-10
 19.56140    133.9 8.746e+03 1.038e-10
 19.58190    133.7 8.676e+03 9.470e-11
 19.60733    135.0 8.328e+03 9.003e-11
 19.64833    136.6 8.281e+03 8.982e-11
 19.68934    138.3 8.271e+03 9.020e-11
 19.71436    139.9 8.242e+03 9.314e-11
 19.73486    140.2 8.374e+03 1.123e-10
 19.75982    141.8 8.374e+03 1.211e-10
 19.78033    142.0 8.428e+03 1.376e-10
 19.81236    143.4 8.461e+03 1.393e-10
 19.85336    144.4 8.467e+03 1.388e-10
 19.88280    145.2 8.462e+03 1.360e-10
 19.90330    145.9 8.793e+03 1.982e-10
 19.93537    146.6 8.772e+03 1.893e-10
 19.95825    147.2 8.699e+03 1.764e-10
 19.97875    146.7 8.748e+03 1.785e-10
 20.01739    147.0 8.692e+03 1.730e-10
 20.05124    147.3 8.643e+03 1.731e-10
 20.07174    147.8 8.932e+03 2.178e-10
 20.09940    148.2 8.781e+03 1.983e-10
 20.13617    148.7 8.662e+03 1.838e-10
 20.15667    148.1 8.726e+03 1.944e-10
 20.18141    148.8 8.670e+03 1.929e-10
 20.21968    149.6 8.682e+03 2.013e-10
 20.24018    150.0 8.597e+03 1.789e-10
 20.26342    151.0 8.630e+03 1.892e-10
 20.30443    152.0 8.818e+03 2.289e-10
 20.33459    153.0 9.163e+03 2.974e-10
 20.35509    152.3 9.271e+03 3.062e-10
 20.38644    152.7 9.572e+03 3.752e-10
 20.40852    153.1 9.715e+03 4.146e-10
 20.42902    153.6 9.504e+03 3.535e-10
 20.45810    152.9 1.005e+04 5.338e-10
 20.47851    152.9 1.031e+04 6.627e-10
 20.49264    153.0 1.050e+04 7.657e-10
 20.50290    153.4 1.037e+04 7.047e-10
 20.51951    153.5 1.057e+04 7.919e-10
 20.53282    153.6 1.072e+04 8.222e-10
 20.54307    152.4 1.074e+04 8.313e-10
 20.56052    152.4 1.072e+04 8.251e-10
 20.57686    152.3 1.067e+04 8.044e-10
 20.58711    152.7 1.088e+04 8.773e-10
 20.60152    152.5 1.083e+04 8.614e-10
 20.62178    152.3 1.075e+04 8.412e-10
 20.63203    151.2 1.068e+04 8.110e-10
 20.64253    151.0 1.065e+04 7.879e-10
 20.66108    150.8 1.067e+04 7.821e-10
 20.67133    151.0 1.092e+04 9.175e-10
 20.68354    150.8 1.092e+04 9.060e-10
 20.70404    150.5 1.095e+04 9.015e-10
 20.72099    150.2 1.099e+04 9.110e-10
 20.73124    148.8 1.094e+04 8.729e-10
 20.74504    148.4 1.104e+04 9.228e-10
 20.75555    147.8 1.118e+04 1.010e-09
 20.76581    148.4 1.118e+04 9.823e-10
 20.78605    147.5 1.144e+04 1.112e-09
 20.80655    146.4 1.188e+04 1.372e-09
 20.82020    145.1 1.247e+04 1.835e-09
 20.83045    143.4 1.261e+04 2.088e-09
 20.83977    142.6 1.321e+04 2.809e-09
 20.85003    142.9 1.307e+04 2.585e-09
 20.86806    142.2 1.367e+04 3.463e-09
 20.88857    141.2 1.437e+04 3.944e-09
 20.90907    139.9 1.455e+04 3.902e-09
 20.92399    135.7 1.429e+04 2.570e-09
 20.93425    136.2 1.429e+04 2.873e-09
 20.95007    133.3 1.423e+04 2.081e-09
 20.97058    129.8 1.349e+04 1.188e-09
 20.99108    125.1 1.211e+04 5.871e-10
 21.00821    119.2 1.132e+04 4.641e-10
 21.01525    119.7 1.278e+04 7.909e-10
 21.01862    117.6 1.227e+04 7.339e-10
 21.03209    111.0 1.247e+04 8.173e-10
 21.05259    104.7 1.318e+04 1.286e-09
 21.07309    100.4 1.390e+04 2.144e-09
 21.09243     97.6 1.421e+04 2.638e-09
 21.10269     95.9 1.553e+04 4.302e-09
 21.10758     94.1 1.521e+04 3.785e-09
 21.11783     94.1 1.502e+04 3.723e-09
 21.13460     92.4 1.428e+04 2.570e-09
 21.16545     88.1 1.307e+04 1.208e-09
 21.20656     82.9 1.050e+04 4.179e-10
 21.24756     79.9 8.995e+03 1.921e-10
 21.27132     79.4 8.792e+03 1.269e-10
 21.28895     79.2 8.830e+03 1.310e-10
 21.30620     79.0 8.708e+03 1.068e-10
 21.32957     78.7 8.686e+03 9.007e-11
 21.37058     78.7 8.596e+03 8.665e-11
 21.41159     79.0 8.595e+03 8.608e-11
 21.43976     79.3 8.602e+03 8.627e-11
 21.46026     79.2 8.688e+03 1.047e-10
 21.48412     79.5 8.720e+03 1.063e-10
 21.50462     79.4 8.641e+03 9.372e-11
 21.53460     79.6 8.702e+03 9.557e-11
 21.57561     79.3 8.815e+03 1.029e-10
 21.60820     78.9 8.963e+03 1.245e-10
 21.62870     79.2 9.128e+03 1.687e-10
 21.65762     78.9 9.295e+03 2.062e-10
 21.68254     78.7 9.455e+03 2.445e-10
 21.70305     78.4 9.400e+03 2.307e-10
 21.73963     77.8 9.555e+03 2.476e-10
 21.77664     76.6 9.653e+03 2.541e-10
 21.79714     77.6 9.674e+03 2.541e-10
 21.82164     75.5 9.900e+03 2.741e-10
 21.86046     72.7 1.047e+04 3.794e-10
 21.87908     71.0 1.066e+04 4.764e-10
 21.88117     71.5 1.078e+04 5.103e-10
 21.89321     70.2 1.082e+04 7.026e-10
 21.91371     69.5 1.073e+04 7.220e-10
 21.93422     68.7 1.058e+04 6.353e-10
 21.95472     67.9 1.032e+04 4.601e-10
 21.96549     64.8 1.003e+04 2.567e-10
 21.97025     66.6 1.037e+04 3.479e-10
 21.97998     65.7 1.034e+04 3.368e-10
 21.99572     64.1 1.001e+04 2.653e-10
 22.02658     61.5 9.909e+03 2.758e-10
 22.05889     57.5 9.853e+03 3.197e-10
 22.07939     56.1 1.027e+04 4.695e-10
 22.10869     54.3 1.034e+04 5.645e-10
 22.13402     53.4 1.023e+04 5.357e-10
 22.15453     54.6 9.982e+03 4.473e-10
 22.19070     53.9 9.602e+03 3.106e-10
 22.23170     52.8 9.302e+03 1.911e-10
 22.25731     51.5 9.082e+03 1.521e-10
 22.27781     51.2 9.011e+03 1.383e-10
 22.30246     51.3 8.996e+03 1.424e-10
 22.32297     52.7 8.741e+03 1.209e-10
 22.35472     53.2 8.752e+03 1.242e-10
 22.39573     54.1 8.753e+03 1.258e-10
 22.43523     54.9 8.791e+03 1.318e-10
 22.45573     55.6 8.773e+03 1.212e-10
 22.47090     56.4 8.922e+03 1.373e-10
 22.49141     57.6 8.748e+03 1.097e-10
 22.51874     58.0 8.979e+03 1.390e-10
 22.55975     58.2 9.461e+03 2.275e-10
 22.60076     58.4 1.019e+04 4.205e-10
 22.63365     58.5 1.102e+04 6.996e-10
 22.65174     58.4 1.151e+04 9.120e-10
 22.65985     59.9 1.111e+04 6.860e-10
 22.67242     59.0 1.180e+04 1.002e-09
 22.69282     56.9 1.308e+04 1.677e-09
 22.71333     54.0 1.476e+04 3.340e-09
 22.73267     51.9 1.615e+04 6.074e-09
 22.74271     51.2 1.696e+04 8.486e-09
 22.74387     51.6 1.701e+04 8.027e-09
 22.75433     50.9 1.795e+04 1.287e-08
 22.77484     50.6 1.806e+04 1.259e-08
 22.79534     50.2 1.796e+04 9.986e-09
 22.81584     48.6 1.761e+04 5.764e-09
 22.82809     45.2 1.614e+04 2.901e-09
 22.83388     48.7 1.763e+04 5.389e-09
 22.84213     47.3 1.707e+04 4.037e-09
 22.85685     43.3 1.462e+04 1.993e-09
 22.87735     41.0 1.249e+04 1.352e-09
 22.89785     40.9 1.202e+04 1.169e-09
 22.91231     41.3 1.182e+04 1.063e-09
 22.92256     42.0 1.185e+04 1.055e-09
 22.93109     42.4 1.165e+04 9.627e-10
 22.94134     42.4 1.168e+04 9.757e-10
 22.95936     42.8 1.131e+04 8.614e-10
 22.97987     43.2 1.096e+04 7.476e-10
 22.99653     43.6 1.068e+04 6.506e-10
 23.00678     44.3 1.086e+04 7.204e-10
 23.02005     44.7 1.066e+04 6.464e-10
 23.03030     44.7 1.064e+04 6.383e-10
 23.04137     45.0 1.049e+04 5.811e-10
 23.06188     45.2 1.037e+04 5.482e-10
 23.08075     45.3 1.025e+04 5.384e-10
 23.09100     46.0 1.051e+04 6.250e-10
 23.10288     46.2 1.049e+04 6.272e-10
 23.11926     46.2 1.049e+04 6.440e-10
 23.12951     46.3 1.048e+04 6.465e-10
 23.14389     46.3 1.053e+04 6.822e-10
 23.16439     46.4 1.055e+04 7.135e-10
 23.17522     46.4 1.053e+04 7.129e-10
 23.18547     46.6 1.085e+04 8.494e-10
 23.20540     46.6 1.082e+04 8.442e-10
 23.21847     46.4 1.073e+04 8.116e-10
 23.22872     46.4 1.091e+04 8.831e-10
 23.24640     46.1 1.092e+04 8.767e-10
 23.25944     45.9 1.090e+04 8.616e-10
 23.26969     46.0 1.111e+04 9.809e-10
 23.28741     45.4 1.124e+04 1.015e-09
 23.30743     44.7 1.137e+04 1.096e-09
 23.31768     44.9 1.157e+04 1.211e-09
 23.32842     44.1 1.190e+04 1.389e-09
 23.34366     42.8 1.244e+04 1.747e-09
 23.35391     43.1 1.242e+04 1.715e-09
 23.36942     42.1 1.286e+04 2.183e-09
 23.38992     41.6 1.316e+04 2.642e-09
 23.40664     41.2 1.332e+04 2.878e-09
 23.41690     41.5 1.344e+04 2.880e-09
 23.42788     40.4 1.362e+04 2.971e-09
 23.43813     40.4 1.351e+04 2.750e-09
 23.45143     39.2 1.356e+04 2.762e-09
 23.47194     38.0 1.348e+04 2.654e-09
 23.49244     36.9 1.322e+04 2.385e-09
 23.50586     35.2 1.308e+04 2.151e-09
 23.51527     34.9 1.351e+04 2.568e-09
 23.52235     35.3 1.337e+04 2.387e-09
 23.53344     33.5 1.356e+04 2.454e-09
 23.55395     31.7 1.375e+04 2.665e-09
 23.57445     30.5 1.364e+04 2.984e-09
 23.59482     30.4 1.356e+04 3.344e-09
 23.60507     29.7 1.421e+04 4.034e-09
 23.60657     27.4 1.568e+04 5.282e-09
 23.61682     29.3 1.478e+04 4.302e-09
 23.63596     25.9 1.713e+04 6.617e-09
 23.65646     21.9 1.866e+04 9.840e-09
 23.67697     18.6 1.887e+04 1.230e-08
 23.69079     15.1 1.886e+04 1.015e-08
 23.69760     16.5 1.950e+04 1.414e-08
 23.70428     13.4 2.015e+04 1.485e-08
 23.71280      9.6 1.947e+04 8.275e-09
 23.72300      8.9 1.905e+04 7.792e-09
 23.73280      3.2 1.681e+04 4.335e-09
 23.73793      5.5 1.815e+04 5.722e-09
 23.74350      2.3 1.619e+04 4.459e-09
 23.75893     -2.7 1.422e+04 3.068e-09
 23.77501     -5.0 1.330e+04 2.464e-09
 23.78526     -5.5 1.382e+04 2.827e-09
 23.79324     -7.1 1.320e+04 2.330e-09
 23.80349     -8.8 1.323e+04 2.397e-09
 23.82049     -9.6 1.282e+04 2.113e-09
 23.84099    -10.2 1.252e+04 1.872e-09
 23.85923    -10.6 1.223e+04 1.646e-09
 23.86948    -11.1 1.237e+04 1.730e-09
 23.88199    -11.5 1.205e+04 1.480e-09
 23.89245    -11.8 1.167e+04 1.240e-09
 23.90270    -12.8 1.162e+04 1.245e-09
 23.92300    -12.9 1.117e+04 1.024e-09
 23.94345    -12.7 1.072e+04 8.283e-10
 23.96396    -12.5 1.045e+04 7.067e-10
 23.98141    -12.3 1.011e+04 5.645e-10
 23.99166    -13.1 9.826e+03 4.599e-10
 24.00501    -13.1 9.569e+03 3.771e-10
 24.02552    -13.2 9.385e+03 3.306e-10
 24.03792    -13.0 9.344e+03 3.220e-10
 24.04818    -12.9 9.488e+03 3.637e-10
 24.06652    -12.7 9.652e+03 3.843e-10
 24.08062    -12.8 9.831e+03 4.348e-10
 24.09087    -13.5 9.638e+03 3.988e-10
 24.10753    -13.0 9.958e+03 5.232e-10
 24.12214    -12.5 1.022e+04 6.416e-10
 24.13239    -12.4 1.041e+04 7.176e-10
 24.14853    -11.8 1.061e+04 8.325e-10
 24.16904    -10.9 1.079e+04 9.124e-10
 24.17983    -10.1 1.088e+04 9.417e-10
 24.19008    -10.6 1.061e+04 8.110e-10
 24.20636     -9.8 1.051e+04 7.418e-10
 24.21661     -9.9 1.051e+04 7.379e-10
 24.23054     -9.4 1.038e+04 6.490e-10
 24.25105     -9.0 1.031e+04 5.815e-10
 24.26879     -8.8 1.024e+04 5.320e-10
 24.27904     -9.2 1.003e+04 4.438e-10
 24.29058     -9.0 9.958e+03 4.301e-10
 24.30083     -9.0 9.983e+03 4.302e-10
 24.31256     -8.5 1.012e+04 4.470e-10
 24.33306     -8.4 1.020e+04 4.730e-10
 24.35356     -7.9 1.039e+04 5.453e-10
 24.36800     -7.5 1.054e+04 6.018e-10
 24.37826     -7.7 1.035e+04 5.089e-10
 24.38505     -6.8 1.057e+04 6.009e-10
 24.39531     -6.4 1.053e+04 5.598e-10
 24.41507     -5.8 1.067e+04 5.985e-10
 24.43557     -5.1 1.082e+04 6.634e-10
 24.45608     -4.6 1.089e+04 6.906e-10
 24.46722     -4.4 1.093e+04 7.079e-10
 24.47016     -4.6 1.066e+04 5.770e-10
 24.47953     -4.5 1.051e+04 5.157e-10
 24.49708     -4.5 1.052e+04 5.257e-10
 24.52794     -3.8 1.073e+04 6.771e-10
 24.55369     -3.1 1.093e+04 7.905e-10
 24.56153     -2.2 1.071e+04 6.690e-10
 24.57687     -2.1 1.020e+04 4.848e-10
 24.61004     -1.4 1.060e+04 6.291e-10
 24.63781     -0.8 1.104e+04 8.751e-10
 24.64797     -0.3 1.096e+04 8.319e-10
 24.65539     -0.2 1.097e+04 8.389e-10
 24.66564     -0.3 1.065e+04 7.020e-10
 24.68161      0.6 1.091e+04 8.660e-10
 24.70211      0.7 1.092e+04 8.694e-10
 24.72193      2.1 1.108e+04 9.635e-10
 24.73219      2.8 1.100e+04 9.120e-10
 24.74312      2.9 1.100e+04 9.120e-10
 24.75470      4.2 1.115e+04 9.690e-10
 24.77530      4.6 1.069e+04 7.381e-10
 24.81507      4.9 1.092e+04 7.748e-10
 24.85608      4.5 1.126e+04 9.800e-10
 24.89057      4.8 1.175e+04 1.477e-09
 24.91107      5.8 1.172e+04 1.418e-09
 24.93271      7.1 1.200e+04 1.801e-09
 24.95322      6.9 1.165e+04 1.600e-09
 24.97910      8.6 1.124e+04 1.304e-09
 25.02010     10.1 1.020e+04 6.804e-10
 25.05901     10.4 9.209e+03 3.260e-10
 25.07951     11.8 9.290e+03 3.387e-10
 25.10212     11.6 8.566e+03 1.992e-10
 25.13114     12.5 8.167e+03 1.594e-10
 25.15164     12.5 8.056e+03 1.421e-10
 25.18413     14.0 8.142e+03 1.545e-10
 25.22513     15.5 8.257e+03 1.829e-10
 25.24795     17.1 8.308e+03 2.037e-10
 25.26846     18.4 8.183e+03 1.737e-10
 25.30714     20.0 8.211e+03 1.916e-10
 25.32956     21.7 8.161e+03 1.898e-10
 25.35006     21.7 8.008e+03 1.651e-10
 25.38916     23.2 7.934e+03 1.515e-10
 25.41639     24.5 7.928e+03 1.473e-10
 25.43689     26.3 7.907e+03 1.468e-10
 25.47117     27.4 8.022e+03 1.577e-10
 25.50748     27.9 8.515e+03 2.199e-10
 25.52798     27.6 8.463e+03 2.120e-10
 25.55318     28.0 9.314e+03 3.644e-10
 25.58384     27.9 1.029e+04 6.272e-10
 25.59489     27.4 1.082e+04 9.541e-10
 25.60514     28.6 1.084e+04 8.965e-10
 25.61675     28.3 1.133e+04 1.279e-09
 25.62700     28.3 1.131e+04 1.257e-09
 25.64525     28.4 1.185e+04 1.693e-09
 25.66575     28.7 1.209e+04 2.039e-09
 25.67911     28.6 1.246e+04 2.190e-09
 25.68936     29.9 1.261e+04 2.443e-09
 25.70571     29.5 1.295e+04 2.524e-09
 25.71596     29.4 1.297e+04 2.573e-09
 25.72726     28.6 1.302e+04 2.442e-09
 25.74776     27.7 1.263e+04 1.980e-09
 25.76333     26.8 1.158e+04 1.414e-09
 25.77358     28.0 1.196e+04 1.499e-09
 25.78877     26.8 1.101e+04 1.122e-09
 25.80492     26.2 1.026e+04 8.130e-10
 25.81517     26.2 1.033e+04 8.248e-10
 25.82977     22.0 1.110e+04 7.527e-10
 25.84755     10.4 1.668e+04 1.655e-09
 25.85780     15.1 1.667e+04 1.590e-09
 25.87078      6.9 1.895e+04 4.532e-09
 25.88611      2.3 1.780e+04 7.068e-09
 25.89469      1.4 1.781e+04 7.877e-09
 25.89981      1.9 1.840e+04 8.355e-09
 25.90403     -2.2 1.800e+04 1.068e-08
 25.90916     -2.7 1.915e+04 1.340e-08
 25.91681     -6.2 1.979e+04 1.412e-08
 25.92707     -9.8 2.057e+04 1.463e-08
 25.93680    -13.9 2.055e+04 1.378e-08
 25.94192    -13.6 2.123e+04 1.658e-08
 25.94757    -17.9 1.994e+04 1.435e-08
 25.95364    -21.2 1.849e+04 1.258e-08
 25.95876    -22.2 1.815e+04 1.214e-08
 25.96807    -23.6 1.732e+04 1.067e-08
 25.97832    -24.3 1.659e+04 8.944e-09
 25.98403    -24.8 1.598e+04 7.098e-09
 25.98916    -25.1 1.626e+04 7.619e-09
 25.99812    -25.8 1.562e+04 5.695e-09
 26.00324    -26.3 1.551e+04 5.365e-09
 26.01425    -27.2 1.495e+04 3.924e-09
 26.02624    -29.9 1.349e+04 1.995e-09
 26.03649    -31.5 1.352e+04 1.982e-09
 26.05531    -35.6 1.159e+04 9.464e-10
 26.07581    -38.0 1.081e+04 6.900e-10
 26.09230    -38.9 1.061e+04 6.147e-10
 26.10255    -39.2 1.090e+04 7.077e-10
 26.11046    -40.0 1.086e+04 6.641e-10
 26.12071    -41.9 1.111e+04 7.575e-10
 26.13732    -42.6 1.110e+04 7.584e-10
 26.15782    -43.2 1.113e+04 7.931e-10
 26.17832    -43.6 1.120e+04 8.429e-10
 26.19151    -43.9 1.127e+04 8.973e-10
 26.19762    -44.3 1.143e+04 1.025e-09
 26.20493    -45.9 1.180e+04 1.362e-09
 26.21933    -46.2 1.189e+04 1.455e-09
 26.23983    -46.4 1.198e+04 1.537e-09
 26.26034    -46.6 1.205e+04 1.597e-09
 26.27890    -46.8 1.209e+04 1.624e-09
 26.28878    -48.3 1.251e+04 2.000e-09
 26.29072    -48.5 1.238e+04 1.839e-09
 26.30134    -48.7 1.238e+04 1.838e-09
 26.32184    -48.8 1.229e+04 1.749e-09
 26.34235    -48.9 1.211e+04 1.587e-09
 26.36285    -49.2 1.189e+04 1.396e-09
 26.37337    -49.4 1.163e+04 1.205e-09
 26.37995    -50.7 1.162e+04 1.201e-09
 26.38994    -51.2 1.153e+04 1.169e-09
 26.40386    -51.4 1.132e+04 1.031e-09
 26.42436    -51.6 1.107e+04 9.104e-10
 26.44486    -51.8 1.086e+04 8.209e-10
 26.45759    -52.1 1.072e+04 7.696e-10
 26.46784    -52.9 1.077e+04 7.856e-10
 26.47890    -53.1 1.078e+04 7.796e-10
 26.48915    -53.7 1.098e+04 8.401e-10
 26.50637    -54.5 1.133e+04 9.263e-10
 26.52687    -55.7 1.170e+04 1.063e-09
 26.54181    -56.9 1.193e+04 1.208e-09
 26.55206    -58.2 1.244e+04 1.594e-09
 26.56786    -58.9 1.242e+04 1.690e-09
 26.58836    -59.8 1.230e+04 1.725e-09
 26.60889    -60.7 1.200e+04 1.452e-09
 26.62603    -62.1 1.170e+04 1.173e-09
 26.63628    -62.8 1.195e+04 1.257e-09
 26.64989    -64.7 1.166e+04 1.003e-09
 26.66707    -66.0 1.137e+04 8.276e-10
 26.67732    -67.2 1.123e+04 7.147e-10
 26.69090    -68.3 1.119e+04 6.474e-10
 26.71025    -70.1 1.127e+04 6.428e-10
 26.72050    -73.2 1.356e+04 1.126e-09
 26.73190    -76.6 1.495e+04 1.548e-09
 26.75241    -80.2 1.601e+04 2.564e-09
 26.76623    -82.6 1.710e+04 5.030e-09
 26.77131    -83.0 1.728e+04 5.856e-09
 26.77794    -83.7 1.753e+04 6.962e-09
 26.79336    -85.0 1.798e+04 9.814e-09
 26.80467    -85.8 1.885e+04 1.385e-08
 26.80975    -86.1 1.992e+04 1.872e-08
 26.81579    -86.9 2.038e+04 2.283e-08
 26.82091    -87.4 2.034e+04 2.282e-08
 26.82920    -88.3 2.034e+04 2.427e-08
 26.83945    -88.8 1.987e+04 2.340e-08
 26.84673    -89.0 1.943e+04 2.002e-08
 26.85186    -89.5 2.020e+04 2.415e-08
 26.85995    -90.1 1.976e+04 1.949e-08
 26.86539    -91.0 1.931e+04 1.538e-08
 26.87052    -91.9 1.895e+04 1.320e-08
 26.88045    -93.1 1.835e+04 1.050e-08
 26.88884    -94.2 1.764e+04 8.311e-09
 26.89397    -95.0 1.837e+04 1.087e-08
 26.90096    -95.8 1.782e+04 9.213e-09
 26.90987    -96.2 1.736e+04 7.992e-09
 26.91500    -96.5 1.738e+04 8.226e-09
 26.92146    -96.6 1.716e+04 7.707e-09
 26.93688    -96.7 1.673e+04 6.817e-09
 26.95445    -96.8 1.586e+04 5.099e-09
 26.96470    -97.0 1.592e+04 5.483e-09
 26.97316    -96.7 1.515e+04 4.137e-09
 26.98341    -96.8 1.652e+04 6.707e-09
 26.99844    -96.5 1.570e+04 5.074e-09
 27.01894    -96.1 1.484e+04 3.699e-09
 27.03945    -95.8 1.402e+04 2.699e-09
 27.05366    -95.4 1.329e+04 2.020e-09
 27.06134    -95.5 1.358e+04 2.290e-09
 27.06763    -95.6 1.451e+04 3.364e-09
 27.08045    -95.3 1.396e+04 2.749e-09
 27.10096    -94.9 1.343e+04 2.267e-09
 27.12146    -94.3 1.293e+04 1.867e-09
 27.14160    -93.6 1.245e+04 1.517e-09
 27.15185    -93.4 1.327e+04 2.283e-09
 27.15287    -92.7 1.270e+04 1.764e-09
 27.16312    -92.7 1.271e+04 1.860e-09
 27.18297    -91.9 1.214e+04 1.417e-09
 27.20347    -90.9 1.159e+04 1.038e-09
 27.22397    -89.8 1.112e+04 7.371e-10
 27.23607    -88.8 1.075e+04 5.162e-10
 27.24368    -88.8 1.102e+04 6.557e-10
 27.25208    -88.6 1.084e+04 6.250e-10
 27.26498    -87.7 1.052e+04 4.438e-10
 27.28548    -86.8 1.042e+04 3.612e-10
 27.31014    -86.0 1.040e+04 3.130e-10
 27.33074    -85.2 1.044e+04 3.310e-10
 27.35744    -83.7 1.041e+04 3.036e-10
 27.39844    -82.0 1.020e+04 2.747e-10
 27.43020    -80.2 1.002e+04 2.557e-10
 27.45070    -80.1 9.904e+03 2.345e-10
 27.47868    -78.5 9.812e+03 2.260e-10
 27.49918    -77.8 1.011e+04 2.546e-10
 27.52146    -76.3 1.006e+04 2.430e-10
 27.56247    -74.7 1.008e+04 2.367e-10
 27.60347    -73.3 1.014e+04 2.348e-10
 27.62862    -72.2 1.034e+04 2.480e-10
 27.64913    -72.4 1.032e+04 2.276e-10
 27.66762    -72.0 1.044e+04 2.507e-10
 27.67777    -71.8 1.056e+04 2.721e-10
 27.69554    -72.0 1.061e+04 2.880e-10
 27.71604    -72.3 1.071e+04 3.386e-10
 27.72764    -73.0 1.080e+04 4.123e-10
 27.73789    -73.0 1.078e+04 4.041e-10
 27.75164    -73.4 1.094e+04 4.962e-10
 27.76189    -74.2 1.198e+04 8.243e-10
 27.77755    -74.2 1.221e+04 9.692e-10
 27.79806    -74.2 1.215e+04 1.023e-09
 27.81660    -74.8 1.204e+04 1.012e-09
 27.82685    -75.2 1.248e+04 9.923e-10
 27.83586    -76.2 1.237e+04 9.500e-10
 27.84611    -77.4 1.449e+04 1.995e-09
 27.85957    -78.8 1.435e+04 1.868e-09
 27.88007    -80.1 1.417e+04 1.800e-09
 27.90057    -81.1 1.400e+04 1.756e-09
 27.91581    -81.7 1.382e+04 1.695e-09
 27.92507    -82.2 1.420e+04 1.978e-09
 27.93033    -83.6 1.545e+04 3.869e-09
 27.94158    -83.7 1.499e+04 3.344e-09
 27.96208    -83.6 1.446e+04 2.763e-09
 27.98258    -83.5 1.385e+04 2.258e-09
 28.00309    -83.4 1.332e+04 1.833e-09
 28.01455    -83.0 1.285e+04 1.519e-09
 28.01624    -83.6 1.337e+04 2.104e-09
 28.02527    -83.3 1.342e+04 2.265e-09
 28.04409    -82.7 1.301e+04 1.835e-09
 28.06460    -82.0 1.262e+04 1.467e-09
 28.08510    -81.4 1.227e+04 1.164e-09
 28.09877    -81.0 1.196e+04 9.105e-10
 28.10741    -81.5 1.214e+04 1.029e-09
 28.11423    -81.3 1.199e+04 9.586e-10
 28.12610    -81.1 1.162e+04 7.495e-10
 28.14661    -80.9 1.133e+04 6.213e-10
 28.17284    -80.1 1.116e+04 5.318e-10
 28.19344    -80.5 1.102e+04 5.907e-10
 28.20339    -78.5 1.045e+04 4.371e-10
 28.22389    -78.4 1.019e+04 3.504e-10
 28.25957    -76.5 9.877e+03 2.709e-10
 28.30057    -74.9 9.726e+03 2.213e-10
 28.34138    -73.3 9.575e+03 1.862e-10
 28.36188    -73.7 9.463e+03 1.689e-10
 28.38131    -72.0 9.303e+03 1.471e-10
 28.40181    -71.6 9.129e+03 1.197e-10
 28.42359    -69.7 9.022e+03 1.076e-10
 28.46460    -67.7 8.944e+03 9.697e-11
 28.50560    -65.7 8.870e+03 8.559e-11
 28.53032    -63.6 8.795e+03 7.361e-11
 28.55082    -63.8 8.797e+03 7.668e-11
 28.57973    -61.8 8.715e+03 6.827e-11
 28.60023    -61.6 8.642e+03 6.093e-11
 28.62862    -59.6 8.582e+03 5.736e-11
 28.66963    -57.5 8.562e+03 5.652e-11
 28.69876    -55.4 8.548e+03 5.758e-11
 28.71926    -55.5 8.556e+03 6.830e-11
 28.75164    -53.5 8.571e+03 7.610e-11
 28.77815    -51.5 8.623e+03 8.725e-11
 28.79866    -51.6 8.597e+03 7.789e-11
 28.83365    -50.0 8.715e+03 9.588e-11
 28.86720    -48.4 8.829e+03 1.195e-10
 28.88770    -48.7 8.900e+03 1.373e-10
 28.91566    -47.2 9.023e+03 1.671e-10
 28.95607    -45.9 9.128e+03 1.916e-10
 28.97658    -46.5 9.229e+03 2.152e-10
 28.99767    -45.4 9.244e+03 2.176e-10
 29.03564    -44.4 9.184e+03 2.038e-10
 29.05614    -45.3 9.275e+03 2.287e-10
 29.07969    -44.3 9.273e+03 2.291e-10
 29.12069    -43.3 9.288e+03 2.426e-10
 29.15450    -42.2 9.485e+03 2.812e-10
 29.17500    -43.7 9.525e+03 2.805e-10
 29.20270    -43.2 1.001e+04 3.533e-10
 29.22449    -43.3 1.036e+04 4.674e-10
 29.24499    -45.3 1.071e+04 6.096e-10
 29.27437    -47.9 1.190e+04 9.406e-10
 29.29477    -49.6 1.309e+04 1.597e-09
 29.30861    -50.6 1.427e+04 2.718e-09
 29.31886    -51.6 1.454e+04 3.253e-09
 29.33578    -53.0 1.562e+04 5.544e-09
 29.35272    -53.6 1.633e+04 7.745e-09
 29.36298    -54.4 1.631e+04 7.792e-09
 29.37678    -54.9 1.646e+04 8.412e-09
 29.39283    -55.2 1.617e+04 7.142e-09
 29.40308    -55.9 1.582e+04 5.679e-09
 29.41779    -57.7 1.498e+04 3.520e-09
 29.43829    -61.1 1.362e+04 2.059e-09
 29.45194    -64.4 1.220e+04 1.365e-09
 29.46219    -65.4 1.167e+04 1.155e-09
 29.47705    -66.7 1.127e+04 1.011e-09
 29.48730    -67.3 1.130e+04 1.030e-09
 29.49980    -68.1 1.121e+04 9.637e-10
 29.52030    -69.1 1.122e+04 9.460e-10
 29.54081    -70.7 1.146e+04 9.545e-10
 29.56127    -72.6 1.176e+04 1.006e-09
 29.58177    -75.3 1.205e+04 1.367e-09
 29.60232    -75.9 1.217e+04 1.657e-09
 29.62282    -76.0 1.231e+04 1.835e-09
 29.64011    -76.0 1.236e+04 1.867e-09
 29.65036    -75.8 1.206e+04 1.560e-09
 29.65574    -76.0 1.210e+04 1.375e-09
 29.66599    -76.8 1.191e+04 1.103e-09
 29.68433    -78.1 1.176e+04 8.440e-10
 29.70483    -79.7 1.140e+04 6.842e-10
 29.72533    -80.6 1.124e+04 6.545e-10
 29.73932    -81.2 1.129e+04 6.555e-10
 29.74369    -80.6 1.128e+04 6.462e-10
 29.75031    -81.1 1.123e+04 6.461e-10
 29.77679    -82.3 1.156e+04 7.786e-10
 29.80744    -82.5 1.176e+04 9.222e-10
 29.82418    -83.0 1.200e+04 1.061e-09
 29.83443    -83.3 1.213e+04 1.140e-09
 29.83853    -83.7 1.233e+04 1.259e-09
 29.84878    -83.1 1.233e+04 1.239e-09
 29.86885    -83.6 1.246e+04 1.305e-09
 29.88936    -83.9 1.256e+04 1.332e-09
 29.90840    -84.2 1.262e+04 1.336e-09
 29.91865    -85.2 1.259e+04 1.233e-09
 29.92749    -86.0 1.270e+04 1.233e-09
 29.93774    -85.4 1.280e+04 1.292e-09
 29.95087    -86.8 1.320e+04 1.344e-09
 29.97137    -89.5 1.410e+04 1.864e-09
 29.99187    -91.7 1.510e+04 3.189e-09
 30.00287    -93.2 1.605e+04 5.181e-09
 30.01312    -93.5 1.523e+04 4.002e-09
 30.02670    -94.6 1.578e+04 4.951e-09
 30.03695    -93.7 1.592e+04 5.348e-09
 30.05338    -95.0 1.618e+04 5.707e-09
 30.07388    -96.6 1.620e+04 5.408e-09
 30.08709    -98.4 1.566e+04 3.859e-09
 30.09734    -98.4 1.459e+04 3.055e-09
 30.11489   -100.2 1.398e+04 2.291e-09
 30.12591   -101.6 1.373e+04 1.998e-09
 30.13616   -100.1 1.387e+04 2.214e-09
 30.15590   -100.9 1.379e+04 2.109e-09
 30.17131   -101.3 1.386e+04 2.120e-09
 30.18156   -100.0 1.355e+04 1.972e-09
 30.19690   -100.2 1.385e+04 2.152e-09
 30.21487   -100.2 1.418e+04 2.402e-09
 30.22512    -99.2 1.422e+04 2.460e-09
 30.23791    -99.3 1.453e+04 2.809e-09
 30.25553    -99.4 1.465e+04 3.019e-09
 30.26578    -97.8 1.455e+04 2.802e-09
 30.27891    -98.3 1.486e+04 3.096e-09
 30.29942    -99.4 1.527e+04 3.365e-09
 30.31408   -101.2 1.596e+04 3.741e-09
 30.32434   -100.8 1.694e+04 5.432e-09
 30.33975   -102.8 1.785e+04 6.460e-09
 30.34995   -104.7 1.927e+04 9.276e-09
 30.35570   -105.4 1.929e+04 9.268e-09
 30.36359   -106.7 2.001e+04 1.079e-08
 30.36872   -106.5 2.049e+04 1.260e-08
 30.37620   -109.0 2.136e+04 1.594e-08
 30.38646   -111.5 2.229e+04 1.975e-08
 30.39201   -114.4 2.318e+04 2.579e-08
 30.39714   -113.9 2.305e+04 4.262e-08
 30.40696   -116.9 2.327e+04 4.800e-08
 30.41320   -119.9 2.299e+04 5.616e-08
 30.41832   -120.4 2.315e+04 7.219e-08
 30.42746   -122.4 2.230e+04 9.791e-08
 30.43412   -123.6 2.182e+04 1.198e-07
 30.43925   -122.7 2.185e+04 7.687e-08
 30.44796   -123.5 2.150e+04 7.544e-08
 30.45768   -124.1 2.145e+04 5.689e-08
 30.46280   -124.3 2.155e+04 5.395e-08
 30.46847   -125.5 2.156e+04 2.741e-08
 30.47623   -127.5 2.141e+04 1.312e-08
 30.48136   -128.1 2.133e+04 8.460e-09
 30.48897   -129.4 2.093e+04 7.092e-09
 30.50221   -132.7 1.965e+04 4.814e-09
 30.51251   -133.6 1.870e+04 3.722e-09
 30.51844   -136.8 1.635e+04 2.134e-09
 30.52869   -139.0 1.363e+04 9.267e-10
 30.54545   -140.2 1.263e+04 9.664e-10
 30.56595   -140.9 1.265e+04 1.072e-09
 30.58646   -141.6 1.275e+04 1.171e-09
 30.60147   -142.4 1.283e+04 1.248e-09
 30.60742   -142.0 1.273e+04 1.171e-09
 30.61291   -141.3 1.264e+04 1.137e-09
 30.62746   -142.1 1.265e+04 1.145e-09
 30.64797   -142.8 1.265e+04 1.144e-09
 30.66847   -143.5 1.264e+04 1.138e-09
 30.68688   -144.2 1.264e+04 1.135e-09
 30.69713   -144.0 1.256e+04 1.116e-09
 30.70068   -145.2 1.271e+04 1.131e-09
 30.71093   -144.9 1.257e+04 1.064e-09
 30.72998   -146.9 1.310e+04 1.155e-09
 30.75048   -149.4 1.408e+04 1.758e-09
 30.77098   -151.6 1.502e+04 2.990e-09
 30.78135   -153.5 1.578e+04 4.285e-09
 30.78976   -153.8 1.567e+04 3.954e-09
 30.79989   -153.0 1.574e+04 4.155e-09
 30.81199   -155.3 1.627e+04 4.649e-09
 30.83249   -158.8 1.643e+04 4.582e-09
 30.85300   -163.6 1.638e+04 3.346e-09
 30.86557   -169.6 1.538e+04 2.242e-09
 30.87582   -171.2 1.476e+04 1.888e-09
 30.88885   -176.6 1.386e+04 1.589e-09
 30.89910   -175.7 1.434e+04 1.912e-09
 30.91450   -179.8 1.396e+04 1.838e-09
 30.93501   -182.6 1.385e+04 1.851e-09
 30.94979   -184.7 1.379e+04 1.897e-09
 30.96004   -185.2 1.323e+04 1.295e-09
 30.97601   -187.2 1.313e+04 1.193e-09
 30.98806   -189.1 1.293e+04 1.041e-09
 30.99831   -188.5 1.295e+04 1.090e-09
 31.01702   -190.2 1.264e+04 8.990e-10
 31.03401   -191.8 1.235e+04 7.678e-10
 31.04426   -192.7 1.197e+04 5.426e-10
 31.05802   -194.1 1.191e+04 5.319e-10
 31.07702   -195.3 1.187e+04 5.882e-10
 31.08727   -194.3 1.173e+04 5.250e-10
 31.09903   -195.5 1.192e+04 6.353e-10
 31.11823   -196.4 1.212e+04 8.180e-10
 31.12848   -197.3 1.216e+04 8.768e-10
 31.14004   -197.7 1.246e+04 1.144e-09
 31.16054   -198.0 1.277e+04 1.383e-09
 31.17623   -198.4 1.304e+04 1.525e-09
 31.18648   -197.5 1.317e+04 1.693e-09
 31.20155   -198.2 1.345e+04 1.825e-09
 31.21270   -199.4 1.354e+04 1.851e-09
 31.22295   -200.4 1.343e+04 1.664e-09
 31.24255   -202.0 1.337e+04 1.436e-09
 31.26305   -204.0 1.316e+04 1.188e-09
 31.27544   -206.3 1.286e+04 1.008e-09
 31.28570   -205.2 1.329e+04 1.236e-09
 31.29692   -207.7 1.291e+04 1.061e-09
 31.30717   -208.4 1.268e+04 9.948e-10
 31.32456   -210.3 1.263e+04 9.881e-10
 31.34507   -212.1 1.268e+04 1.013e-09
 31.36440   -213.7 1.274e+04 1.040e-09
 31.37466   -213.2 1.272e+04 1.047e-09
 31.38114   -214.8 1.276e+04 1.055e-09
 31.39139   -215.3 1.283e+04 1.096e-09
 31.40657   -216.7 1.277e+04 1.091e-09
 31.42708   -217.9 1.260e+04 1.041e-09
 31.44758   -218.9 1.239e+04 9.627e-10
 31.46362   -219.5 1.216e+04 8.777e-10
 31.47115   -219.1 1.219e+04 8.605e-10
 31.47561   -219.4 1.219e+04 8.640e-10
 31.48859   -220.0 1.197e+04 7.743e-10
 31.50909   -220.3 1.179e+04 6.906e-10
 31.52959   -220.6 1.163e+04 6.150e-10
 31.54958   -220.8 1.149e+04 5.465e-10
 31.55983   -221.3 1.159e+04 5.567e-10
 31.56283   -221.5 1.147e+04 4.925e-10
 31.57308   -220.9 1.139e+04 4.576e-10
 31.59110   -220.7 1.128e+04 4.056e-10
 31.62195   -220.7 1.115e+04 3.746e-10
 31.64425   -220.8 1.112e+04 3.591e-10
 31.65358   -221.7 1.123e+04 3.656e-10
 31.66204   -220.6 1.124e+04 3.569e-10
 31.67311   -221.0 1.128e+04 3.583e-10
 31.69362   -221.7 1.136e+04 3.680e-10
 31.71412   -222.5 1.157e+04 4.154e-10
 31.72827   -223.4 1.188e+04 4.907e-10
 31.73853   -224.9 1.232e+04 6.001e-10
 31.75100   -226.2 1.273e+04 7.520e-10
 31.76125   -225.5 1.264e+04 7.429e-10
 31.77563   -227.0 1.300e+04 9.245e-10
 31.79613   -228.7 1.334e+04 1.143e-09
 31.81249   -230.3 1.364e+04 1.391e-09
 31.82275   -231.4 1.352e+04 1.427e-09
 31.83714   -232.9 1.365e+04 1.501e-09
 31.85021   -234.4 1.369e+04 1.519e-09
 31.86046   -233.6 1.356e+04 1.407e-09
 31.87814   -235.2 1.360e+04 1.314e-09
 31.89671   -236.7 1.351e+04 1.163e-09
 31.90697   -237.5 1.305e+04 8.759e-10
 31.91915   -238.9 1.285e+04 7.225e-10
 31.93917   -240.1 1.262e+04 5.887e-10
 31.94942   -239.4 1.267e+04 6.397e-10
 31.96015   -240.5 1.249e+04 5.451e-10
 31.98066   -241.3 1.231e+04 4.577e-10
 31.99119   -241.9 1.211e+04 3.763e-10
 32.00144   -242.3 1.198e+04 3.607e-10
 32.02823   -242.8 1.181e+04 3.171e-10
 32.04873   -242.0 1.191e+04 3.514e-10
 32.07302   -242.0 1.182e+04 3.386e-10
 32.11412   -241.7 1.158e+04 3.087e-10
 32.14957   -241.5 1.147e+04 3.013e-10
 32.17007   -242.1 1.156e+04 3.612e-10
 32.19613   -241.9 1.144e+04 3.808e-10
 32.22675   -241.7 1.140e+04 3.892e-10
 32.24725   -240.9 1.155e+04 4.023e-10
 32.27815   -240.7 1.133e+04 3.993e-10
 32.31801   -240.1 1.108e+04 3.574e-10
 32.33851   -240.7 1.101e+04 3.297e-10
 32.36016   -239.9 1.074e+04 2.675e-10
 32.40116   -238.9 1.056e+04 2.118e-10
 32.42517   -237.8 1.042e+04 1.742e-10
 32.44567   -237.0 1.042e+04 1.749e-10
 32.48317   -235.7 1.036e+04 1.581e-10
 32.50695   -234.3 1.034e+04 1.542e-10
 32.52745   -235.0 1.032e+04 1.401e-10
 32.56519   -233.6 1.033e+04 1.429e-10
 32.60309   -232.3 1.036e+04 1.518e-10
 32.62359   -231.5 1.037e+04 1.472e-10
 32.64720   -230.3 1.038e+04 1.575e-10
 32.67539   -229.0 1.037e+04 1.651e-10
 32.69589   -230.0 1.043e+04 1.754e-10
 32.72921   -228.6 1.039e+04 1.814e-10
 32.77022   -227.2 1.037e+04 1.837e-10
 32.80151   -225.7 1.034e+04 1.849e-10
 32.82202   -225.0 1.039e+04 2.038e-10
 32.84383   -223.6 1.043e+04 2.179e-10
 32.86433   -224.4 1.059e+04 2.725e-10
 32.89323   -223.0 1.075e+04 3.120e-10
 32.93424   -221.8 1.095e+04 3.615e-10
 32.97525   -220.7 1.113e+04 4.074e-10
 32.99994   -219.9 1.123e+04 4.295e-10
 33.01646   -219.1 1.140e+04 4.900e-10
 33.03277   -220.4 1.156e+04 6.366e-10
 33.05726   -219.7 1.158e+04 6.393e-10
 33.09826   -219.0 1.156e+04 6.234e-10
 33.13927   -218.3 1.150e+04 5.926e-10
 33.17786   -217.6 1.149e+04 5.713e-10
 33.19836   -216.6 1.174e+04 6.850e-10
 33.20121   -216.5 1.195e+04 7.529e-10
 33.22172   -218.0 1.224e+04 1.104e-09
 33.26229   -218.2 1.240e+04 1.188e-09
 33.30329   -218.8 1.243e+04 1.192e-09
 33.34430   -219.5 1.231e+04 1.035e-09
 33.36965   -219.9 1.199e+04 7.991e-10
 33.38113   -221.5 1.212e+04 8.839e-10
 33.39678   -221.2 1.244e+04 1.088e-09
 33.42631   -221.5 1.201e+04 7.731e-10
 33.46732   -221.1 1.163e+04 5.590e-10
 33.50832   -220.3 1.142e+04 4.432e-10
 33.53809   -219.3 1.138e+04 3.906e-10
 33.55860   -220.9 1.136e+04 4.320e-10
 33.57470   -219.9 1.137e+04 4.272e-10
 33.59521   -219.7 1.139e+04 4.259e-10
 33.63134   -218.8 1.146e+04 4.409e-10
 33.67235   -217.9 1.150e+04 4.568e-10
 33.70653   -216.9 1.152e+04 4.651e-10
 33.72704   -218.4 1.141e+04 4.297e-10
 33.75262   -217.5 1.138e+04 3.959e-10
 33.77313   -217.4 1.140e+04 3.886e-10
 33.79536   -216.4 1.129e+04 3.363e-10
 33.83637   -215.4 1.108e+04 2.826e-10
 33.87497   -214.4 1.080e+04 2.311e-10
 33.89548   -215.8 1.055e+04 1.813e-10
 33.91838   -214.5 1.031e+04 1.485e-10
 33.95105   -213.1 1.012e+04 1.261e-10
 33.97155   -212.5 1.006e+04 1.207e-10
 34.00039   -211.0 9.958e+03 1.101e-10
 34.04140   -209.5 9.923e+03 1.078e-10
 34.06392   -208.0 9.918e+03 1.078e-10
 34.08442   -209.4 9.728e+03 1.312e-10
 34.12341   -207.9 9.536e+03 1.455e-10
 34.14947   -206.2 9.412e+03 1.520e-10
 34.16997   -205.6 9.337e+03 1.495e-10
 34.20542   -203.8 9.284e+03 1.514e-10
 34.23236   -202.0 9.137e+03 1.526e-10
 34.25286   -202.6 9.094e+03 1.253e-10
 34.28743   -200.9 9.112e+03 1.137e-10
 34.32739   -199.3 9.112e+03 1.041e-10
 34.34789   -198.6 9.060e+03 9.924e-11
 34.36945   -197.0 9.015e+03 8.999e-11
 34.40080   -195.5 8.974e+03 8.480e-11
 34.42130   -197.2 8.992e+03 6.727e-11
 34.45146   -195.8 8.877e+03 7.104e-11
 34.49246   -194.3 8.811e+03 8.034e-11
 34.52581   -192.8 8.808e+03 9.488e-11
 34.54631   -192.1 8.741e+03 8.718e-11
 34.56924   -190.7 8.836e+03 1.108e-10
 34.58974   -192.2 8.793e+03 1.191e-10
 34.61548   -191.2 9.006e+03 1.420e-10
 34.65649   -190.3 9.225e+03 1.701e-10
 34.69749   -189.6 9.397e+03 2.032e-10
 34.72423   -188.8 9.497e+03 2.397e-10
 34.74391   -187.8 9.412e+03 2.508e-10
 34.75818   -190.0 9.325e+03 2.594e-10
 34.77950   -188.9 9.324e+03 2.845e-10
 34.82051   -187.7 9.323e+03 3.031e-10
 34.86152   -186.3 9.314e+03 3.106e-10
 34.90215   -185.0 9.356e+03 3.131e-10
 34.92266   -184.1 9.401e+03 3.349e-10
 34.92662   -182.9 9.567e+03 3.597e-10
 34.94712   -184.6 9.140e+03 2.256e-10
 34.98453   -184.0 9.171e+03 2.018e-10
 35.02554   -183.9 9.150e+03 1.818e-10
 35.06655   -184.1 9.049e+03 1.707e-10
 35.09506   -184.3 8.992e+03 1.705e-10
 35.10859   -185.8 8.582e+03 1.256e-10
 35.12108   -184.8 8.579e+03 1.193e-10
 35.14856   -184.4 8.540e+03 1.279e-10
 35.18956   -183.8 8.552e+03 1.386e-10
 35.23057   -182.9 8.603e+03 1.532e-10
 35.26350   -181.9 8.672e+03 1.671e-10
 35.28400   -182.8 8.603e+03 1.591e-10
 35.29900   -181.6 8.695e+03 1.741e-10
 35.31950   -180.8 8.517e+03 1.475e-10
 35.35359   -179.5 8.576e+03 1.559e-10
 35.39459   -178.0 8.615e+03 1.611e-10
 35.43194   -176.5 8.629e+03 1.625e-10
 35.45244   -177.4 8.577e+03 1.565e-10
 35.47660   -175.7 8.580e+03 1.507e-10
 35.49742   -173.8 8.601e+03 1.416e-10
 35.51793   -173.3 8.562e+03 1.405e-10
 35.55862   -171.5 8.609e+03 1.378e-10
 35.59962   -169.9 8.636e+03 1.373e-10
 35.62088   -168.4 8.839e+03 1.376e-10
 35.64138   -170.0 8.961e+03 1.463e-10
 35.67534   -168.6 9.089e+03 1.676e-10
 35.69585   -168.0 9.063e+03 1.634e-10
 35.72264   -166.4 9.168e+03 1.813e-10
 35.76365   -164.7 9.219e+03 1.959e-10
 35.78932   -163.0 9.310e+03 2.080e-10
 35.80982   -164.5 9.073e+03 1.629e-10
 35.84566   -163.9 9.577e+03 1.828e-10
 35.87377   -164.3 1.074e+04 2.947e-10
 35.89427   -162.3 1.002e+04 2.109e-10
 35.92767   -162.8 1.132e+04 3.893e-10
 35.95776   -163.3 1.233e+04 7.746e-10
 35.97826   -166.9 1.293e+04 1.392e-09
 36.00968   -167.8 1.318e+04 1.740e-09
 36.05069   -169.3 1.317e+04 1.808e-09
 36.07219   -170.7 1.253e+04 1.493e-09
 36.09269   -169.1 1.326e+04 1.987e-09
 36.12620   -170.0 1.249e+04 1.285e-09
 36.14670   -174.4 1.069e+04 5.134e-10
 36.17370   -175.2 9.968e+03 3.414e-10
 36.21471   -175.3 9.701e+03 2.940e-10
 36.25011   -174.4 9.649e+03 2.864e-10
 36.27061   -173.4 9.874e+03 3.133e-10
 36.29464   -172.9 9.862e+03 3.153e-10
 36.31514   -175.1 9.812e+03 3.056e-10
 36.33773   -175.0 9.810e+03 3.300e-10
 36.37873   -175.0 9.839e+03 3.606e-10
 36.41974   -175.0 9.865e+03 3.855e-10
 36.44853   -175.1 9.854e+03 3.992e-10
 36.46903   -174.7 1.004e+04 4.275e-10
 36.48358   -174.8 9.963e+03 4.394e-10
 36.50409   -177.1 1.006e+04 5.074e-10
 36.54276   -177.2 9.875e+03 4.686e-10
 36.58376   -177.3 9.704e+03 4.474e-10
 36.62477   -177.4 9.592e+03 4.283e-10
 36.64695   -177.5 9.530e+03 4.190e-10
 36.65370   -177.2 9.524e+03 4.003e-10
 36.67253   -178.4 9.353e+03 3.432e-10
 36.70678   -178.3 9.279e+03 3.370e-10
 36.74779   -178.0 9.156e+03 3.233e-10
 36.78879   -177.6 8.978e+03 2.950e-10
 36.82046   -177.0 8.766e+03 2.533e-10
 36.83604   -177.4 8.622e+03 2.201e-10
 36.84538   -177.0 8.714e+03 2.288e-10
 36.87080   -176.1 8.529e+03 1.946e-10
 36.91181   -175.1 8.361e+03 1.631e-10
 36.95282   -174.1 8.231e+03 1.388e-10
 36.98890   -173.2 8.135e+03 1.219e-10
 37.00941   -173.0 8.137e+03 1.182e-10
 37.02330   -172.0 8.085e+03 1.090e-10
 37.04380   -171.5 8.101e+03 1.130e-10
 37.07583   -170.5 8.082e+03 1.083e-10
 37.11684   -169.5 8.082e+03 1.074e-10
 37.15734   -168.7 8.097e+03 1.073e-10
 37.17785   -168.3 8.281e+03 1.137e-10
 37.19885   -168.1 8.530e+03 1.239e-10
 37.22172   -168.1 8.729e+03 1.543e-10
 37.24222   -168.2 8.872e+03 1.755e-10
 37.28086   -168.5 9.104e+03 2.344e-10
 37.32187   -168.8 9.374e+03 3.040e-10
 37.34629   -169.0 9.647e+03 3.737e-10
 37.36679   -168.9 9.867e+03 4.253e-10
 37.39964   -169.0 1.008e+04 4.827e-10
 37.42014   -168.8 9.859e+03 3.960e-10
 37.44489   -168.6 9.896e+03 3.796e-10
 37.48589   -168.6 9.935e+03 3.760e-10
 37.51472   -168.6 1.008e+04 3.858e-10
 37.53523   -168.5 1.013e+04 3.935e-10
 37.56790   -168.6 1.043e+04 4.538e-10
 37.59806   -169.3 1.095e+04 6.025e-10
 37.61857   -168.5 1.073e+04 5.324e-10
 37.64992   -169.6 1.166e+04 8.672e-10
 37.68316   -171.3 1.276e+04 1.503e-09
 37.69967   -172.2 1.383e+04 2.681e-09
 37.70733   -171.4 1.368e+04 2.374e-09
 37.72148   -172.0 1.422e+04 3.123e-09
 37.74198   -172.6 1.451e+04 3.713e-09
 37.76249   -172.8 1.455e+04 3.929e-09
 37.77744   -172.8 1.448e+04 3.932e-09
 37.78769   -173.1 1.455e+04 4.186e-09
 37.79629   -172.8 1.418e+04 3.559e-09
 37.80654   -172.3 1.420e+04 3.292e-09
 37.82400   -172.0 1.394e+04 3.054e-09
 37.84450   -171.6 1.376e+04 2.868e-09
 37.86166   -171.1 1.368e+04 2.755e-09
 37.87191   -171.5 1.350e+04 2.591e-09
 37.88525   -170.8 1.354e+04 2.472e-09
 37.89550   -170.0 1.386e+04 3.081e-09
 37.90601   -169.2 1.405e+04 3.201e-09
 37.92651   -168.4 1.425e+04 3.204e-09
 37.94588   -167.7 1.451e+04 3.126e-09
 37.95613   -167.8 1.456e+04 2.944e-09
 37.96752   -167.4 1.469e+04 2.906e-09
 37.98446   -167.2 1.489e+04 2.890e-09
 37.99471   -166.4 1.655e+04 5.205e-09
 38.00852   -166.5 1.739e+04 5.806e-09
 38.02903   -166.7 1.830e+04 7.268e-09
 38.04035   -166.7 1.906e+04 9.803e-09
 38.05060   -168.2 2.084e+04 1.157e-08
 38.06486   -167.2 2.158e+04 1.838e-08
 38.07506   -166.5 2.158e+04 2.101e-08
 38.08236   -165.4 2.155e+04 2.439e-08
 38.08575   -166.4 2.245e+04 2.672e-08
 38.08870   -167.2 2.431e+04 4.701e-08
 38.09556   -165.6 2.442e+04 5.795e-08
 38.10581   -164.1 2.470e+04 7.332e-08
 38.11607   -162.8 2.497e+04 9.293e-08
 38.12447   -161.9 2.505e+04 1.146e-07
 38.12960   -163.2 2.522e+04 1.266e-07
 38.13318   -162.7 2.497e+04 1.563e-07
 38.13831   -163.0 2.389e+04 3.457e-07
 38.14682   -161.8 2.308e+04 4.560e-07
 38.15707   -159.6 2.233e+04 6.392e-07
 38.16658   -157.1 2.175e+04 9.502e-07
 38.17171   -159.0 2.177e+04 9.352e-07
 38.17757   -158.2 2.151e+04 1.303e-06
 38.18279   -158.9 2.144e+04 1.492e-06
 38.18533   -156.7 1.913e+04 5.479e-06
 38.19015   -157.9 1.878e+04 7.079e-06
 38.19272   -161.5 2.064e+04 2.361e-06
 38.19547   -163.7 2.064e+04 2.301e-06
 38.20059   -165.8 2.094e+04 1.798e-06
 38.20498   -167.3 2.158e+04 1.256e-06
 38.20754   -167.6 2.138e+04 1.555e-06
 38.21084   -167.9 2.207e+04 1.049e-06
 38.21377   -168.0 2.292e+04 7.229e-07
 38.21633   -170.4 2.575e+04 1.888e-07
 38.22109   -171.2 2.619e+04 1.523e-07
 38.22724   -173.7 2.638e+04 9.993e-08
 38.23237   -172.7 2.720e+04 1.027e-07
 38.23906   -175.9 2.787e+04 7.744e-08
 38.24933   -181.5 2.884e+04 5.703e-08
 38.25593   -188.9 2.908e+04 3.609e-08
 38.26106   -190.6 2.290e+04 2.189e-08
 38.26984   -195.7 2.178e+04 1.408e-08
 38.27687   -199.6 2.044e+04 9.593e-09
 38.28200   -199.3 2.170e+04 1.411e-08
 38.29034   -202.3 2.036e+04 1.019e-08
 38.29804   -204.8 1.884e+04 7.644e-09
 38.30317   -203.4 1.885e+04 7.657e-09
 38.31084   -205.6 1.779e+04 6.211e-09
 38.32109   -207.1 1.724e+04 5.390e-09
 38.32648   -208.2 1.700e+04 4.878e-09
 38.33160   -208.6 1.708e+04 4.980e-09
 38.34015   -209.2 1.674e+04 4.484e-09
 38.34528   -209.0 1.665e+04 4.514e-09
 38.35702   -210.0 1.634e+04 3.978e-09
 38.37106   -211.6 1.544e+04 2.904e-09
 38.38096   -212.8 1.568e+04 2.998e-09
 38.38748   -211.8 1.549e+04 3.025e-09
 38.39808   -212.9 1.462e+04 1.919e-09
 38.41858   -213.5 1.382e+04 1.256e-09
 38.43908   -213.6 1.331e+04 9.284e-10
 38.45959   -213.5 1.296e+04 7.706e-10
 38.47027   -212.7 1.275e+04 7.025e-10
 38.47213   -213.3 1.276e+04 6.995e-10
 38.48195   -213.6 1.267e+04 6.132e-10
 38.50059   -212.5 1.256e+04 5.953e-10
 38.52110   -211.3 1.254e+04 5.947e-10
 38.54160   -210.3 1.256e+04 6.001e-10
 38.55592   -209.3 1.259e+04 6.110e-10
 38.56330   -209.5 1.236e+04 5.311e-10
 38.56948   -209.4 1.255e+04 5.921e-10
 38.58260   -208.3 1.254e+04 5.805e-10
 38.60311   -207.2 1.251e+04 5.577e-10
 38.62361   -206.1 1.246e+04 5.251e-10
 38.64014   -205.1 1.239e+04 4.911e-10
 38.65039   -204.7 1.212e+04 3.796e-10
 38.65844   -203.5 1.206e+04 3.645e-10
 38.66869   -203.4 1.216e+04 3.858e-10
 38.68512   -202.5 1.208e+04 3.672e-10
 38.70562   -201.3 1.200e+04 3.572e-10
 38.72436   -200.6 1.195e+04 3.557e-10
 38.73471   -201.2 1.185e+04 3.062e-10
 38.74759   -199.1 1.180e+04 3.147e-10
 38.76810   -198.1 1.188e+04 3.257e-10
 38.79808   -196.1 1.191e+04 3.388e-10
 38.81893   -195.1 1.212e+04 3.937e-10
 38.82909   -194.7 1.199e+04 3.491e-10
 38.84661   -194.5 1.207e+04 3.780e-10
 38.85686   -194.3 1.197e+04 3.856e-10
 38.86965   -193.5 1.209e+04 4.700e-10
 38.89015   -192.9 1.220e+04 5.790e-10
 38.90305   -192.3 1.234e+04 7.075e-10
 38.91331   -192.7 1.221e+04 6.392e-10
 38.93115   -192.4 1.230e+04 7.800e-10
 38.94582   -192.4 1.235e+04 8.710e-10
 38.95607   -191.6 1.268e+04 1.136e-09
 38.97216   -191.6 1.281e+04 1.259e-09
 38.98727   -191.9 1.285e+04 1.293e-09
 38.99753   -192.5 1.256e+04 1.195e-09
 39.01317   -193.3 1.255e+04 1.200e-09
 39.03367   -194.1 1.230e+04 1.135e-09
 39.04503   -194.9 1.200e+04 1.037e-09
 39.05528   -194.9 1.188e+04 1.048e-09
 39.07149   -195.6 1.168e+04 9.515e-10
 39.08175   -196.2 1.151e+04 8.996e-10
 39.09518   -196.7 1.144e+04 8.733e-10
 39.12384   -197.7 1.142e+04 8.549e-10
 39.14434   -198.4 1.143e+04 8.967e-10
 39.15571   -199.3 1.142e+04 8.970e-10
 39.16597   -199.2 1.141e+04 8.860e-10
 39.17719   -200.2 1.142e+04 8.904e-10
 39.19769   -201.6 1.158e+04 9.284e-10
 39.21820   -203.2 1.184e+04 1.066e-09
 39.23320   -204.8 1.219e+04 1.303e-09
 39.24346   -205.4 1.235e+04 1.336e-09
 39.25019   -207.1 1.300e+04 1.827e-09
 39.26044   -207.1 1.283e+04 1.716e-09
 39.27970   -208.5 1.332e+04 2.167e-09
 39.30021   -209.8 1.365e+04 2.537e-09
 39.32071   -211.1 1.375e+04 2.710e-09
 39.33242   -212.4 1.376e+04 2.749e-09
 39.33586   -213.1 1.411e+04 3.490e-09
 39.34466   -213.6 1.366e+04 2.625e-09
 39.36172   -214.8 1.348e+04 2.652e-09
 39.38222   -215.7 1.328e+04 2.724e-09
 39.40272   -216.3 1.312e+04 2.832e-09
 39.41863   -216.6 1.306e+04 2.889e-09
 39.42703   -217.0 1.285e+04 2.573e-09
 39.43163   -217.1 1.310e+04 3.052e-09
 39.44373   -217.2 1.301e+04 3.035e-09
 39.46423   -217.0 1.288e+04 2.901e-09
 39.48473   -216.8 1.268e+04 2.620e-09
 39.50285   -216.5 1.241e+04 2.263e-09
 39.51310   -216.7 1.224e+04 2.074e-09
 39.52059   -216.3 1.191e+04 1.679e-09
 39.53084   -216.4 1.194e+04 1.723e-09
 39.54624   -215.9 1.159e+04 1.376e-09
 39.56675   -215.4 1.125e+04 1.091e-09
 39.58707   -214.6 1.097e+04 8.691e-10
 39.59732   -214.4 1.070e+04 6.706e-10
 39.61810   -213.0 1.050e+04 5.080e-10
 39.65920   -211.9 1.054e+04 4.579e-10
 39.69870   -210.6 1.053e+04 4.011e-10
 39.71921   -210.0 1.050e+04 4.429e-10
 39.74122   -208.5 1.048e+04 3.833e-10
 39.76595   -207.0 1.045e+04 3.284e-10
 39.78645   -207.3 1.017e+04 2.294e-10
 39.82323   -205.4 1.014e+04 1.973e-10
 39.86423   -203.4 1.015e+04 1.833e-10
 39.89713   -201.3 1.016e+04 1.816e-10
 39.91763   -200.4 1.020e+04 2.006e-10
 39.93439   -198.2 1.022e+04 2.000e-10
 39.95489   -198.3 1.012e+04 1.515e-10
 39.98725   -196.2 1.032e+04 1.680e-10
 40.02826   -194.2 1.048e+04 2.008e-10
 40.06926   -192.3 1.063e+04 2.376e-10
 40.09555   -190.5 1.077e+04 2.693e-10
 40.10861   -189.5 1.073e+04 2.694e-10
 40.12333   -189.7 1.068e+04 2.351e-10
 40.15128   -187.9 1.082e+04 2.714e-10
 40.19228   -186.3 1.090e+04 2.889e-10
 40.23329   -184.7 1.092e+04 2.933e-10
 40.27127   -183.0 1.090e+04 2.882e-10
 40.29095   -183.0 1.083e+04 2.637e-10
 40.29397   -182.2 1.089e+04 2.488e-10
 40.31530   -180.4 1.086e+04 2.416e-10
 40.35630   -178.3 1.084e+04 2.119e-10
 40.39731   -176.2 1.083e+04 1.767e-10
 40.43832   -174.1 1.082e+04 1.445e-10
 40.46021   -171.9 1.081e+04 1.185e-10
 40.47329   -171.7 1.075e+04 1.110e-10
 40.49239   -171.2 1.077e+04 1.196e-10
 40.52033   -168.9 1.078e+04 1.004e-10
 40.56133   -166.7 1.079e+04 8.686e-11
 40.60234   -164.4 1.077e+04 8.026e-11
 40.62865   -162.2 1.077e+04 7.909e-11
 40.64916   -162.0 1.071e+04 7.495e-11
 40.67031   -159.7 1.072e+04 7.531e-11
 40.69082   -159.5 1.083e+04 8.915e-11
 40.72536   -157.7 1.109e+04 9.243e-11
 40.76636   -156.1 1.121e+04 1.197e-10
 40.79709   -154.6 1.112e+04 1.813e-10
 40.81760   -154.8 1.119e+04 1.649e-10
 40.84823   -153.2 1.110e+04 2.672e-10
 40.88924   -151.2 1.156e+04 7.481e-10
 40.93039   -149.4 1.183e+04 9.431e-10
 40.96553   -147.8 1.200e+04 1.060e-09
 40.98604   -147.8 1.201e+04 1.102e-09
 41.01240   -146.2 1.207e+04 1.146e-09
 41.04666   -144.7 1.207e+04 1.120e-09
 41.06716   -145.3 1.188e+04 7.629e-10
 41.09441   -143.8 1.161e+04 5.949e-10
 41.13397   -142.1 1.126e+04 4.567e-10
 41.15448   -141.9 1.157e+04 5.100e-10
 41.17642   -140.2 1.138e+04 4.167e-10
 41.21743   -138.4 1.127e+04 3.521e-10
 41.24508   -136.5 1.123e+04 3.072e-10
 41.26558   -136.6 1.124e+04 3.200e-10
 41.29944   -134.5 1.124e+04 3.146e-10
 41.32292   -132.4 1.125e+04 3.155e-10
 41.34342   -132.8 1.143e+04 3.924e-10
 41.38145   -130.7 1.145e+04 4.047e-10
 41.42246   -128.7 1.147e+04 4.460e-10
 41.44350   -126.6 1.149e+04 4.913e-10
 41.46401   -126.6 1.159e+04 5.058e-10
 41.49136   -124.6 1.159e+04 5.187e-10
 41.51186   -125.1 1.161e+04 5.279e-10
 41.54548   -123.0 1.158e+04 5.273e-10
 41.58648   -120.7 1.151e+04 4.967e-10
 41.62142   -118.4 1.145e+04 4.490e-10
 41.64193   -118.6 1.144e+04 4.099e-10
 41.65980   -116.3 1.138e+04 3.885e-10
 41.68030   -116.5 1.127e+04 3.259e-10
 41.70950   -114.1 1.124e+04 3.191e-10
 41.75050   -111.7 1.124e+04 3.200e-10
 41.79151   -109.4 1.125e+04 3.428e-10
 41.81985   -107.1 1.125e+04 3.730e-10
 41.83607   -107.0 1.121e+04 3.556e-10
 41.84874   -107.0 1.108e+04 2.888e-10
 41.87352   -104.7 1.107e+04 3.021e-10
 41.91453   -102.5 1.106e+04 3.043e-10
 41.95553   -100.2 1.099e+04 2.943e-10
 41.99654    -97.8 1.093e+04 2.717e-10
 42.01827    -95.4 1.081e+04 2.187e-10
 42.03877    -95.1 1.075e+04 2.226e-10
 42.07855    -92.6 1.071e+04 2.001e-10
 42.11956    -90.0 1.068e+04 1.768e-10
 42.16056    -87.5 1.068e+04 1.528e-10
 42.18562    -85.0 1.068e+04 1.309e-10
 42.20074    -85.0 1.054e+04 1.214e-10
 42.21669    -84.4 1.055e+04 9.670e-11
 42.24258    -82.0 1.055e+04 8.307e-11
 42.28358    -79.5 1.056e+04 7.371e-11
 42.32459    -77.1 1.056e+04 6.840e-11
 42.35406    -74.7 1.053e+04 6.670e-11
 42.37456    -74.4 1.044e+04 6.581e-11
 42.39461    -71.9 1.047e+04 6.575e-11
 42.41511    -71.3 1.032e+04 5.788e-11
 42.44760    -68.8 1.033e+04 5.851e-11
 42.48861    -66.2 1.033e+04 6.046e-11
 42.52250    -63.7 1.037e+04 6.279e-11
 42.54300    -63.5 1.033e+04 5.871e-11
 42.57062    -61.0 1.040e+04 6.053e-11
 42.59303    -58.7 1.051e+04 6.501e-11
 42.61354    -57.9 1.029e+04 5.819e-11
 42.65263    -55.7 1.043e+04 6.774e-11
 42.69094    -53.7 1.050e+04 8.762e-11
 42.71144    -53.6 1.047e+04 8.711e-11
 42.73465    -51.2 1.044e+04 1.219e-10
 42.77095    -48.5 1.034e+04 1.653e-10
 42.79146    -47.5 1.034e+04 1.425e-10
 42.81666    -44.9 1.030e+04 1.520e-10
 42.85766    -42.3 1.027e+04 1.319e-10
 42.87988    -40.2 1.042e+04 1.048e-10
 42.90038    -40.1 1.045e+04 1.026e-10
 42.93968    -38.6 1.064e+04 9.186e-11
 42.96938    -36.7 1.050e+04 9.726e-11
 42.98988    -35.7 1.051e+04 7.346e-11
 43.02169    -33.5 1.043e+04 8.084e-11
 43.04832    -31.1 1.044e+04 8.769e-11
 43.06882    -31.1 1.044e+04 8.670e-11
 43.10370    -28.9 1.055e+04 9.340e-11
 43.14470    -27.0 1.067e+04 1.082e-10
 43.16780    -25.1 1.074e+04 1.306e-10
 43.18830    -23.8 1.070e+04 1.095e-10
 43.21676    -21.8 1.078e+04 1.382e-10
 43.23726    -22.2 1.084e+04 1.522e-10
 43.26772    -19.9 1.084e+04 1.932e-10
 43.30873    -17.6 1.087e+04 2.207e-10
 43.34572    -15.4 1.091e+04 2.289e-10
 43.36622    -14.5 1.092e+04 2.367e-10
 43.38520    -12.3 1.094e+04 2.383e-10
 43.40570    -12.8 1.099e+04 2.539e-10
 43.43175    -10.5 1.099e+04 2.340e-10
 43.47275     -8.4 1.100e+04 2.103e-10
 43.51376     -6.2 1.101e+04 1.983e-10
 43.54414     -4.1 1.103e+04 2.009e-10
 43.56352     -3.4 1.106e+04 1.885e-10
 43.57414     -4.0 1.104e+04 1.995e-10
 43.59577     -2.0 1.106e+04 2.229e-10
 43.63678      0.1 1.106e+04 2.644e-10
 43.67778      2.4 1.106e+04 3.107e-10
 43.71879      4.6 1.106e+04 3.525e-10
 43.74257      6.8 1.106e+04 4.030e-10
 43.76307      7.3 1.092e+04 3.073e-10
 43.80080      9.5 1.095e+04 2.862e-10
 43.84180     11.5 1.096e+04 2.592e-10
 43.88281     13.4 1.092e+04 2.289e-10
 43.91102     15.1 1.087e+04 1.975e-10
 43.92819     15.3 1.083e+04 1.557e-10
 43.94099     15.8 1.086e+04 1.251e-10
 43.96482     17.3 1.080e+04 1.211e-10
 44.00583     18.9 1.078e+04 1.238e-10
 44.04683     20.6 1.075e+04 1.361e-10
 44.07946     22.3 1.072e+04 1.615e-10
 44.09997     22.8 1.069e+04 1.545e-10
 44.11891     24.8 1.066e+04 1.786e-10
 44.13941     25.4 1.065e+04 1.785e-10
 44.16985     27.4 1.066e+04 1.964e-10
 44.21086     29.4 1.067e+04 1.972e-10
 44.24790     31.3 1.066e+04 1.927e-10
 44.26841     31.7 1.068e+04 1.818e-10
 44.29287     33.7 1.061e+04 1.709e-10
 44.31733     35.6 1.051e+04 1.612e-10
 44.33783     36.2 1.052e+04 1.565e-10
 44.37488     38.2 1.044e+04 1.494e-10
 44.41589     40.3 1.043e+04 1.494e-10
 44.43685     42.5 1.042e+04 1.538e-10
 44.45735     42.9 1.045e+04 1.466e-10
 44.49525     45.1 1.048e+04 1.527e-10
 44.51575     45.7 1.051e+04 1.394e-10
 44.53890     47.9 1.056e+04 1.521e-10
 44.57991     50.3 1.062e+04 1.694e-10
 44.60528     52.6 1.065e+04 1.896e-10
 44.62579     53.0 1.062e+04 1.807e-10
 44.66192     55.4 1.062e+04 2.000e-10
 44.69367     57.7 1.064e+04 2.166e-10
 44.71418     58.2 1.064e+04 2.354e-10
 44.74393     60.5 1.069e+04 2.478e-10
 44.77372     62.8 1.073e+04 2.514e-10
 44.79423     63.4 1.065e+04 2.225e-10
 44.82595     65.7 1.066e+04 2.167e-10
 44.86695     67.9 1.064e+04 2.064e-10
 44.89210     70.1 1.063e+04 1.928e-10
 44.91260     70.7 1.063e+04 2.123e-10
 44.94216     72.9 1.066e+04 1.960e-10
 44.96267     73.7 1.053e+04 1.720e-10
 44.98997     75.8 1.059e+04 1.677e-10
 45.03098     78.0 1.066e+04 1.713e-10
 45.07002     80.0 1.079e+04 1.875e-10
 45.09052     80.6 1.081e+04 2.193e-10
 45.11060     82.7 1.097e+04 2.582e-10
 45.13111     83.4 1.091e+04 2.911e-10
 45.15399     85.5 1.117e+04 3.981e-10
 45.19500     87.5 1.150e+04 5.389e-10
 45.23600     89.3 1.183e+04 6.563e-10
 45.26844     90.6 1.197e+04 6.655e-10
 45.28894     91.1 1.172e+04 5.592e-10
 45.29955     92.3 1.174e+04 5.210e-10
 45.32005     92.6 1.196e+04 7.444e-10
 45.35902     93.7 1.190e+04 6.717e-10
 45.40003     95.0 1.173e+04 5.671e-10
 45.44103     96.6 1.154e+04 4.836e-10
 45.46686     98.5 1.149e+04 4.632e-10
 45.47331     99.0 1.147e+04 4.531e-10
 45.48849     98.9 1.160e+04 5.281e-10
 45.52305    100.6 1.159e+04 5.234e-10
 45.56405    102.0 1.162e+04 5.472e-10
 45.59471    102.7 1.163e+04 5.955e-10
 45.61511    103.5 1.167e+04 6.758e-10
 45.63562    104.3 1.180e+04 7.896e-10
 45.64648    105.0 1.197e+04 9.007e-10
 45.65545    104.8 1.191e+04 8.373e-10
 45.66509    104.9 1.188e+04 8.071e-10
 45.67662    105.5 1.207e+04 9.118e-10
 45.69713    105.8 1.224e+04 9.719e-10
 45.71763    106.0 1.234e+04 9.921e-10
 45.73070    106.1 1.234e+04 9.982e-10
 45.74095    106.0 1.226e+04 9.669e-10
 45.76898    106.4 1.233e+04 9.800e-10
 45.80487    106.8 1.229e+04 9.522e-10
 45.82537    106.7 1.222e+04 9.266e-10
 45.84321    107.0 1.211e+04 8.482e-10
 45.86371    107.3 1.205e+04 7.879e-10
 45.89210    107.9 1.185e+04 6.266e-10
 45.93310    108.8 1.161e+04 4.494e-10
 45.97331    109.7 1.140e+04 3.179e-10
 45.99381    109.9 1.133e+04 2.501e-10
 46.01512    111.0 1.109e+04 2.023e-10
 46.04163    112.4 1.101e+04 1.993e-10
 46.06213    112.9 1.111e+04 2.460e-10
 46.09713    114.7 1.111e+04 2.462e-10
 46.13813    116.4 1.111e+04 2.552e-10
 46.16225    118.1 1.119e+04 2.775e-10
 46.18275    118.0 1.107e+04 2.280e-10
 46.21955    119.7 1.113e+04 2.506e-10
 46.24005    120.0 1.128e+04 3.139e-10
 46.26115    121.5 1.138e+04 3.391e-10
 46.30216    122.9 1.148e+04 3.595e-10
 46.33069    124.2 1.156e+04 3.804e-10
 46.35119    124.3 1.139e+04 3.625e-10
 46.38417    125.8 1.149e+04 4.007e-10
 46.41797    127.2 1.161e+04 4.507e-10
 46.43847    127.4 1.166e+04 4.625e-10
 46.45583    127.7 1.168e+04 4.971e-10
 46.47624    127.9 1.169e+04 5.176e-10
 46.49674    128.4 1.170e+04 5.698e-10
 46.50919    129.0 1.176e+04 6.549e-10
 46.51918    128.5 1.157e+04 5.634e-10
 46.52724    128.7 1.168e+04 6.417e-10
 46.53775    129.4 1.174e+04 7.502e-10
 46.55825    130.2 1.180e+04 8.479e-10
 46.57875    130.9 1.188e+04 9.100e-10
 46.59341    131.4 1.194e+04 9.100e-10
 46.60366    130.9 1.169e+04 7.024e-10
 46.61620    131.4 1.171e+04 6.975e-10
 46.62645    131.6 1.199e+04 9.487e-10
 46.64026    131.9 1.200e+04 9.356e-10
 46.66076    132.2 1.197e+04 8.913e-10
 46.67763    132.4 1.190e+04 8.164e-10
 46.68788    131.9 1.173e+04 6.850e-10
 46.70177    132.1 1.167e+04 6.152e-10
 46.71541    132.2 1.160e+04 5.509e-10
 46.72566    132.6 1.175e+04 7.340e-10
 46.74278    132.8 1.162e+04 6.256e-10
 46.76184    133.0 1.151e+04 5.496e-10
 46.77210    132.3 1.140e+04 5.053e-10
 46.79413    133.1 1.132e+04 4.643e-10
 46.82489    133.9 1.125e+04 4.896e-10
 46.84529    134.1 1.123e+04 4.820e-10
 46.85641    135.2 1.125e+04 4.730e-10
 46.87701    135.3 1.100e+04 4.102e-10
 46.91725    136.7 1.084e+04 3.588e-10
 46.95825    137.9 1.069e+04 3.073e-10
 46.99274    139.2 1.055e+04 2.594e-10
 47.01324    139.1 1.053e+04 2.485e-10
 47.02495    140.3 1.045e+04 2.222e-10
 47.04545    140.6 1.024e+04 1.907e-10
 47.08127    142.0 1.018e+04 1.801e-10
 47.12228    143.6 1.017e+04 1.791e-10
 47.16328    145.2 1.016e+04 1.813e-10
 47.19116    146.9 1.017e+04 1.905e-10
 47.20077    147.3 1.029e+04 2.355e-10
 47.21389    147.8 1.018e+04 2.075e-10
 47.24529    149.7 1.032e+04 2.381e-10
 47.28630    151.6 1.052e+04 2.877e-10
 47.32731    153.4 1.069e+04 3.488e-10
 47.36183    155.1 1.081e+04 4.096e-10
 47.38233    156.0 1.083e+04 4.065e-10
 47.38958    157.5 1.090e+04 4.593e-10
 47.39974    156.3 1.099e+04 4.761e-10
 47.41937    157.1 1.096e+04 4.966e-10
 47.43988    158.3 1.098e+04 5.413e-10
 47.45611    159.6 1.107e+04 6.037e-10
 47.46636    159.9 1.116e+04 6.044e-10
 47.47835    160.9 1.128e+04 6.547e-10
 47.48860    160.9 1.138e+04 6.549e-10
 47.50138    161.7 1.144e+04 6.892e-10
 47.52189    162.7 1.147e+04 7.337e-10
 47.54033    163.2 1.148e+04 7.569e-10
 47.55068    163.4 1.138e+04 7.066e-10
 47.56750    166.0 1.162e+04 8.186e-10
 47.58791    166.1 1.158e+04 8.374e-10
 47.60390    167.2 1.170e+04 9.115e-10
 47.62440    168.2 1.184e+04 9.960e-10
 47.63480    169.1 1.201e+04 1.094e-09
 47.64505    169.8 1.200e+04 1.039e-09
 47.66541    170.6 1.223e+04 1.167e-09
 47.67677    171.2 1.243e+04 1.308e-09
 47.68702    171.0 1.248e+04 1.327e-09
 47.70641    171.2 1.268e+04 1.486e-09
 47.71902    171.3 1.288e+04 1.630e-09
 47.72927    171.9 1.303e+04 1.687e-09
 47.74742    171.9 1.320e+04 1.886e-09
 47.76573    171.9 1.334e+04 2.069e-09
 47.77598    171.6 1.350e+04 2.318e-09
 47.78843    171.3 1.378e+04 2.624e-09
 47.80324    170.7 1.408e+04 2.953e-09
 47.81349    170.5 1.536e+04 4.358e-09
 47.82943    169.5 1.602e+04 5.451e-09
 47.84993    168.0 1.622e+04 5.783e-09
 47.86494    166.5 1.616e+04 5.684e-09
 47.87519    165.3 1.581e+04 5.339e-09
 47.88746    164.1 1.561e+04 4.937e-09
 47.89771    163.5 1.868e+04 1.117e-08
 47.91144    163.4 1.737e+04 7.513e-09
 47.93195    163.6 1.572e+04 4.394e-09
 47.95245    163.6 1.390e+04 2.281e-09
 47.96415    163.2 1.282e+04 1.341e-09
 47.97313    161.7 1.280e+04 1.266e-09
 47.98193    159.6 1.321e+04 1.408e-09
 47.99346    159.1 1.297e+04 1.289e-09
 48.01396    159.7 1.281e+04 1.243e-09
 48.03446    161.0 1.270e+04 1.252e-09
 48.05311    162.1 1.275e+04 1.293e-09
 48.06336    160.8 1.374e+04 1.777e-09
 48.06615    161.3 1.404e+04 2.055e-09
 48.07640    159.7 1.544e+04 3.838e-09
 48.09597    160.2 1.585e+04 4.747e-09
 48.11647    160.6 1.615e+04 5.759e-09
 48.13698    161.1 1.631e+04 6.478e-09
 48.15037    161.6 1.629e+04 6.505e-09
 48.15547    160.7 1.703e+04 8.568e-09
 48.16258    159.0 1.693e+04 7.567e-09
 48.17798    159.5 1.641e+04 5.947e-09
 48.19848    159.6 1.595e+04 4.362e-09
 48.21899    158.9 1.540e+04 2.995e-09
 48.23459    157.5 1.466e+04 2.317e-09
 48.24484    154.8 1.409e+04 1.962e-09
 48.25154    153.0 1.397e+04 1.999e-09
 48.26179    150.6 1.363e+04 1.929e-09
 48.28050    149.4 1.404e+04 2.522e-09
 48.30100    148.5 1.478e+04 3.686e-09
 48.31881    147.9 1.565e+04 5.510e-09
 48.32906    146.8 1.524e+04 5.067e-09
 48.34050    146.7 1.562e+04 5.683e-09
 48.35075    146.4 1.528e+04 5.173e-09
 48.36251    146.1 1.534e+04 5.066e-09
 48.38301    145.8 1.542e+04 4.704e-09
 48.40303    145.2 1.547e+04 4.248e-09
 48.41328    143.7 1.485e+04 3.147e-09
 48.42402    142.6 1.490e+04 2.853e-09
 48.43971    141.4 1.489e+04 2.716e-09
 48.44996    139.1 1.359e+04 2.394e-09
 48.46502    138.6 1.332e+04 2.739e-09
 48.48553    138.5 1.317e+04 3.114e-09
 48.49750    138.8 1.316e+04 3.355e-09
 48.50775    138.1 1.279e+04 2.883e-09
 48.52653    138.5 1.297e+04 2.864e-09
 48.53892    138.8 1.307e+04 2.843e-09
 48.54917    139.4 1.293e+04 2.583e-09
 48.56754    139.5 1.309e+04 2.545e-09
 48.58172    139.3 1.318e+04 2.484e-09
 48.59197    138.6 1.289e+04 1.922e-09
 48.60854    138.5 1.288e+04 1.807e-09
 48.62788    138.5 1.275e+04 1.650e-09
 48.63813    138.2 1.258e+04 1.550e-09
 48.64955    138.4 1.249e+04 1.474e-09
 48.66594    138.7 1.234e+04 1.359e-09
 48.67619    138.4 1.182e+04 1.037e-09
 48.69056    138.6 1.165e+04 9.440e-10
 48.71106    138.9 1.147e+04 8.481e-10
 48.72709    139.0 1.129e+04 7.601e-10
 48.73734    139.2 1.141e+04 8.689e-10
 48.75016    139.4 1.122e+04 7.631e-10
 48.76041    139.1 1.095e+04 6.634e-10
 48.77257    139.3 1.078e+04 6.241e-10
 48.79307    139.6 1.076e+04 6.229e-10
 48.81357    139.9 1.082e+04 6.379e-10
 48.82630    140.0 1.111e+04 6.990e-10
 48.83655    140.6 1.051e+04 5.886e-10
 48.84463    140.9 1.068e+04 6.213e-10
 48.85488    140.7 1.088e+04 6.354e-10
 48.87508    140.7 1.154e+04 7.641e-10
 48.89558    140.5 1.227e+04 1.010e-09
 48.91526    140.4 1.277e+04 1.396e-09
 48.92551    141.4 1.174e+04 7.602e-10
 48.92885    141.2 1.246e+04 1.054e-09
 48.93910    140.8 1.257e+04 1.093e-09
 48.95709    141.0 1.284e+04 1.522e-09
 48.97760    141.1 1.296e+04 2.099e-09
 48.99810    141.3 1.316e+04 2.825e-09
 49.01307    141.7 1.350e+04 3.614e-09
 49.01919    141.6 1.316e+04 3.289e-09
 49.02472    141.6 1.330e+04 2.550e-09
 49.03911    141.8 1.378e+04 3.430e-09
 49.05961    141.9 1.451e+04 4.496e-09
 49.08011    141.6 1.512e+04 5.375e-09
 49.09544    141.5 1.549e+04 5.801e-09
 49.10232    141.3 1.591e+04 6.404e-09
 49.10745    141.2 1.584e+04 5.854e-09
 49.11359    141.2 1.626e+04 6.444e-09
 49.11871    140.7 1.669e+04 9.916e-09
 49.12615    140.8 1.696e+04 1.117e-08
 49.13640    141.0 1.715e+04 1.221e-08
 49.14443    141.1 1.733e+04 1.291e-08
 49.14956    141.0 1.723e+04 1.183e-08
 49.15690    141.0 1.730e+04 1.179e-08
 49.16319    140.8 1.735e+04 1.167e-08
 49.16832    140.9 1.776e+04 1.405e-08
 49.17740    140.6 1.774e+04 1.397e-08
 49.18654    140.4 1.764e+04 1.361e-08
 49.19167    140.3 1.734e+04 1.190e-08
 49.19791    140.4 1.715e+04 1.107e-08
 49.20767    140.4 1.694e+04 1.004e-08
 49.21285    140.7 1.723e+04 1.301e-08
 49.22363    141.2 1.672e+04 1.052e-08
 49.23896    141.3 1.634e+04 8.773e-09
 49.24916    141.3 1.602e+04 7.444e-09
 49.25728    141.3 1.573e+04 6.397e-09
 49.26240    141.5 1.576e+04 6.613e-09
 49.26967    141.4 1.562e+04 6.124e-09
 49.27589    141.5 1.554e+04 5.621e-09
 49.28619    141.6 1.520e+04 4.804e-09
 49.30186    142.0 1.516e+04 4.296e-09
 49.31211    141.8 1.548e+04 4.866e-09
 49.32615    142.2 1.557e+04 4.825e-09
 49.34665    142.8 1.570e+04 4.751e-09
 49.36020    143.3 1.583e+04 4.674e-09
 49.37045    143.3 1.536e+04 3.671e-09
 49.38766    143.9 1.544e+04 3.576e-09
 49.40107    144.5 1.538e+04 3.427e-09
 49.41132    144.0 1.453e+04 4.744e-09
 49.42866    144.8 1.449e+04 4.690e-09
 49.44442    145.7 1.439e+04 4.508e-09
 49.45467    145.8 1.421e+04 4.305e-09
 49.46967    146.7 1.420e+04 4.255e-09
 49.49003    147.6 1.415e+04 4.127e-09
 49.50028    147.8 1.379e+04 3.901e-09
 49.51067    148.8 1.380e+04 3.861e-09
 49.52864    150.0 1.384e+04 3.879e-09
 49.53889    150.0 1.376e+04 3.866e-09
 49.55168    151.1 1.387e+04 3.919e-09
 49.57218    152.1 1.389e+04 3.903e-09
 49.58924    153.1 1.389e+04 3.832e-09
 49.59949    153.3 1.324e+04 3.096e-09
 49.61286    154.4 1.329e+04 3.115e-09
 49.62311    154.2 1.312e+04 2.647e-09
 49.63369    155.2 1.315e+04 2.646e-09
 49.65419    156.1 1.325e+04 2.670e-09
 49.67470    157.1 1.342e+04 2.760e-09
 49.68845    158.0 1.375e+04 2.987e-09
 49.69870    157.2 1.368e+04 2.606e-09
 49.70733    157.8 1.437e+04 3.220e-09
 49.71759    157.1 1.368e+04 2.288e-09
 49.73621    157.0 1.441e+04 2.918e-09
 49.75671    156.6 1.522e+04 3.889e-09
 49.77721    155.6 1.567e+04 4.605e-09
 49.78761    154.7 1.557e+04 4.579e-09
 49.79165    153.8 1.512e+04 4.533e-09
 49.80176    152.1 1.501e+04 4.188e-09
 49.81304    151.7 1.521e+04 4.638e-09
 49.82325    150.0 1.571e+04 5.432e-09
 49.83204    146.6 1.766e+04 7.522e-09
 49.83717    145.6 1.804e+04 7.879e-09
 49.83869    140.2 2.061e+04 1.310e-08
 49.84382    140.6 1.968e+04 1.065e-08
 49.85400    135.3 2.141e+04 1.821e-08
 49.86425    130.9 2.211e+04 2.957e-08
 49.87450    127.9 2.231e+04 4.111e-08
 49.88080    125.5 2.245e+04 4.416e-08
 49.88282    126.2 2.207e+04 3.679e-08
 49.88677    126.9 2.150e+04 4.076e-08
 49.89501    124.9 2.165e+04 4.057e-08
 49.90526    122.7 2.174e+04 3.799e-08
 49.91551    120.6 2.162e+04 2.978e-08
 49.92291    118.6 2.140e+04 2.159e-08
 49.92804    120.1 2.088e+04 2.155e-08
 49.94119    116.5 2.066e+04 1.161e-08
 49.95999    111.1 1.887e+04 4.204e-09
 49.97025    115.0 1.868e+04 4.866e-09
 49.97583    109.6 1.542e+04 2.229e-09
 49.98608    110.6 1.549e+04 2.126e-09
 50.00274    106.3 1.313e+04 1.815e-09
 50.02325    104.7 1.287e+04 1.771e-09
 50.04375    104.4 1.287e+04 1.778e-09
 50.05447    103.9 1.302e+04 1.839e-09
 50.06472    105.4 1.264e+04 1.504e-09
 50.07504    104.3 1.298e+04 1.662e-09
 50.08530    103.8 1.307e+04 1.730e-09
 50.10526    101.2 1.378e+04 2.231e-09
 50.12576     98.1 1.428e+04 2.981e-09
 50.13869     95.2 1.427e+04 3.445e-09
 50.14894     97.1 1.413e+04 3.094e-09
 50.16400     94.6 1.403e+04 3.153e-09
 50.17426     94.0 1.405e+04 3.220e-09
 50.18727     92.0 1.364e+04 2.710e-09
 50.20777     89.6 1.323e+04 1.759e-09
 50.22290     85.9 1.285e+04 9.829e-10
 50.23316     89.0 1.289e+04 1.152e-09
 50.24878     84.4 1.217e+04 7.217e-10
 50.26322     79.2 1.177e+04 7.152e-10
 50.27347     75.6 1.232e+04 9.252e-10
 50.28978     71.9 1.265e+04 1.447e-09
 50.30712     69.9 1.353e+04 2.446e-09
 50.31738     72.0 1.284e+04 1.704e-09
 50.33079     70.5 1.368e+04 2.766e-09
 50.35129     69.7 1.422e+04 3.673e-09
 50.36243     68.8 1.433e+04 3.764e-09
 50.37268     68.1 1.452e+04 4.287e-09
 50.39134     67.1 1.434e+04 3.679e-09
 50.40160     68.6 1.399e+04 3.252e-09
 50.41280     67.1 1.363e+04 2.422e-09
 50.43331     64.5 1.309e+04 1.629e-09
 50.45139     61.0 1.248e+04 1.357e-09
 50.46164     59.4 1.226e+04 1.333e-09
 50.47431     56.6 1.226e+04 1.377e-09
 50.48582     54.2 1.256e+04 1.675e-09
 50.49607     56.3 1.222e+04 1.402e-09
 50.51532     54.2 1.298e+04 2.004e-09
 50.53582     52.7 1.385e+04 2.825e-09
 50.55060     51.2 1.429e+04 3.041e-09
 50.56085     50.9 1.432e+04 3.122e-09
 50.57004     49.3 1.421e+04 2.886e-09
 50.58029     51.2 1.398e+04 2.792e-09
 50.59733     49.9 1.378e+04 2.329e-09
 50.61783     48.6 1.341e+04 1.591e-09
 50.63834     46.6 1.303e+04 9.142e-10
 50.64981     43.8 1.240e+04 5.717e-10
 50.65548     43.4 1.247e+04 6.118e-10
 50.66451     46.0 1.283e+04 7.278e-10
 50.67934     42.9 1.241e+04 6.447e-10
 50.69984     40.2 1.235e+04 6.705e-10
 50.72035     37.5 1.240e+04 8.955e-10
 50.73848     36.0 1.266e+04 1.256e-09
 50.74665     37.8 1.280e+04 1.241e-09
 50.74902     37.4 1.309e+04 1.457e-09
 50.76135     36.1 1.325e+04 1.868e-09
 50.78186     35.2 1.346e+04 2.271e-09
 50.80236     34.3 1.360e+04 2.434e-09
 50.82270     33.4 1.359e+04 2.399e-09
 50.83295     34.3 1.381e+04 2.633e-09
 50.83798     33.2 1.370e+04 2.495e-09
 50.84823     32.6 1.339e+04 2.087e-09
 50.86387     31.6 1.318e+04 2.024e-09
 50.88437     31.1 1.305e+04 2.027e-09
 50.90487     30.8 1.301e+04 2.066e-09
 50.93573     30.8 1.302e+04 2.168e-09
 50.97683     31.0 1.276e+04 1.972e-09
 51.00158     31.7 1.204e+04 1.437e-09
 51.02035     32.8 1.223e+04 1.556e-09
 51.03660     33.4 1.249e+04 1.777e-09
 51.05884     34.8 1.162e+04 1.143e-09
 51.09985     36.7 1.064e+04 6.478e-10
 51.14085     38.7 9.730e+03 3.554e-10
 51.17002     40.7 9.132e+03 2.212e-10
 51.19053     41.6 9.054e+03 1.811e-10
 51.21452     43.8 8.777e+03 1.370e-10
 51.23502     44.3 9.364e+03 2.332e-10
 51.26387     46.9 9.267e+03 2.299e-10
 51.30488     49.9 9.280e+03 2.346e-10
 51.33846     52.7 9.356e+03 2.564e-10
 51.35897     53.9 9.348e+03 2.484e-10
 51.38689     57.2 9.648e+03 2.943e-10
 51.41294     59.4 9.818e+03 3.256e-10
 51.42310     57.7 9.999e+03 4.475e-10
 51.43274     59.1 1.016e+04 5.235e-10
 51.44299     59.7 1.017e+04 5.172e-10
 51.45845     61.0 1.042e+04 6.203e-10
 51.47896     62.2 1.073e+04 7.441e-10
 51.49946     63.4 1.127e+04 9.263e-10
 51.51196     63.5 1.206e+04 1.229e-09
 51.51921     62.4 1.247e+04 1.642e-09
 51.52721     62.7 1.246e+04 1.635e-09
 51.54046     62.8 1.313e+04 2.320e-09
 51.56097     63.4 1.405e+04 3.547e-09
 51.58147     64.5 1.493e+04 5.180e-09
 51.60092     65.1 1.598e+04 7.441e-09
 51.61037     64.3 1.549e+04 4.176e-09
 51.61143     64.7 1.584e+04 3.648e-09
 51.62248     64.8 1.713e+04 3.708e-09
 51.64298     64.2 1.784e+04 3.518e-09
 51.66348     63.0 1.826e+04 2.968e-09
 51.68399     61.4 1.771e+04 2.082e-09
 51.69565     59.2 1.588e+04 1.352e-09
 51.70154     58.0 1.486e+04 1.119e-09
 51.71038     55.0 1.076e+04 6.557e-10
 51.72499     54.5 1.063e+04 6.205e-10
 51.74549     54.6 1.055e+04 5.896e-10
 51.76600     54.9 1.052e+04 5.604e-10
 51.77987     55.3 1.050e+04 5.398e-10
 51.79012     55.2 1.065e+04 6.202e-10
 51.79934     55.5 1.066e+04 6.147e-10
 51.80959     55.8 1.061e+04 6.456e-10
 51.82751     56.0 1.060e+04 6.213e-10
 51.84801     56.0 1.063e+04 6.293e-10
 51.86409     55.9 1.076e+04 6.739e-10
 51.87434     55.8 1.085e+04 7.203e-10
 51.88830     55.1 1.121e+04 8.535e-10
 51.89855     56.3 1.092e+04 7.491e-10
 51.90952     55.4 1.134e+04 9.128e-10
 51.93002     54.4 1.177e+04 1.234e-09
 51.94831     53.8 1.210e+04 1.680e-09
 51.95856     53.9 1.195e+04 1.587e-09
 51.97103     53.6 1.219e+04 1.782e-09
 51.98751     53.2 1.224e+04 1.762e-09
 51.99776     53.8 1.230e+04 1.797e-09
 52.01203     53.3 1.235e+04 1.745e-09
 52.03253     52.3 1.242e+04 1.505e-09
 52.05303     50.6 1.190e+04 9.020e-10
 52.07354     48.3 1.151e+04 7.477e-10
 52.08672     46.4 1.120e+04 7.351e-10
 52.09698     47.6 1.164e+04 9.485e-10
 52.12490     46.1 1.136e+04 8.188e-10
 52.16563     44.6 1.165e+04 1.034e-09
 52.18613     45.9 1.210e+04 1.288e-09
 52.20116     44.9 1.223e+04 1.394e-09
 52.22167     47.1 1.242e+04 1.508e-09
 52.24801     46.4 1.269e+04 1.720e-09
 52.28902     45.6 1.248e+04 1.559e-09
 52.33002     45.3 1.175e+04 1.062e-09
 52.36405     45.7 1.086e+04 6.240e-10
 52.38313     46.5 1.072e+04 5.428e-10
 52.39011     48.1 1.145e+04 8.353e-10
 52.41203     48.3 1.033e+04 4.389e-10
 52.45304     48.7 9.678e+03 2.905e-10
 52.49405     50.2 9.547e+03 2.707e-10
 52.53505     52.6 9.536e+03 2.717e-10
 52.55855     55.0 9.559e+03 2.804e-10
 52.56547     56.0 9.741e+03 3.388e-10
 52.58298     56.7 9.502e+03 2.036e-10
 52.61706     59.2 9.504e+03 2.112e-10
 52.65807     61.7 9.560e+03 2.287e-10
 52.69908     64.4 9.696e+03 2.638e-10
 52.72699     67.2 9.911e+03 3.198e-10
 52.74749     67.8 1.008e+04 3.621e-10
 52.76080     69.4 1.007e+04 3.649e-10
 52.78130     70.4 9.900e+03 2.542e-10
 52.82209     73.1 1.037e+04 3.576e-10
 52.84976     74.2 1.081e+04 4.862e-10
 52.85991     74.5 1.064e+04 4.112e-10
 52.87316     75.4 1.101e+04 4.855e-10
 52.89366     76.3 1.152e+04 6.331e-10
 52.90548     77.1 1.199e+04 8.483e-10
 52.91573     77.3 1.223e+04 1.016e-09
 52.93466     77.8 1.275e+04 1.469e-09
 52.94887     77.8 1.342e+04 2.274e-09
 52.95912     77.5 1.292e+04 1.441e-09
 52.97567     77.3 1.384e+04 2.407e-09
 52.98970     76.6 1.518e+04 4.249e-09
 52.99995     77.0 1.625e+04 6.449e-09
 53.01150     75.5 1.738e+04 8.664e-09
 53.02170     74.1 1.853e+04 1.200e-08
 53.03172     72.9 1.937e+04 1.617e-08
 53.03684     72.5 2.021e+04 2.161e-08
 53.04221     71.4 2.051e+04 3.648e-08
 53.04799     71.2 2.100e+04 6.901e-08
 53.05311     70.1 2.073e+04 5.277e-08
 53.06271     70.0 2.158e+04 9.516e-08
 53.07296     68.5 2.214e+04 1.114e-07
 53.07895     67.0 2.171e+04 9.910e-08
 53.08408     66.7 2.174e+04 1.075e-07
 53.09247     67.2 2.063e+04 6.645e-08
 53.09759     67.7 2.020e+04 3.725e-08
 53.10372     68.1 1.920e+04 2.685e-08
 53.11914     68.5 1.768e+04 1.416e-08
 53.13704     67.6 1.514e+04 5.349e-09
 53.14730     66.9 1.532e+04 4.631e-09
 53.15814     65.6 1.360e+04 2.647e-09
 53.16839     63.6 1.240e+04 1.776e-09
 53.18070     63.0 1.152e+04 1.243e-09
 53.20120     63.1 1.127e+04 1.049e-09
 53.22171     64.2 1.118e+04 9.615e-10
 53.23626     65.6 1.117e+04 8.901e-10
 53.24651     65.9 1.114e+04 7.578e-10
 53.25261     66.8 1.110e+04 6.740e-10
 53.26287     66.5 1.111e+04 6.702e-10
 53.28321     67.1 1.104e+04 5.955e-10
 53.30372     67.3 1.102e+04 5.269e-10
 53.32422     67.3 1.083e+04 4.968e-10
 53.33547     67.2 1.093e+04 5.030e-10
 53.33783     67.1 1.037e+04 4.427e-10
 53.34709     66.5 1.039e+04 4.836e-10
 53.36523     66.9 1.038e+04 4.725e-10
 53.38573     67.3 1.038e+04 4.592e-10
 53.40623     67.7 1.044e+04 4.513e-10
 53.42105     68.1 1.049e+04 4.512e-10
 53.42900     67.3 1.065e+04 4.483e-10
 53.43468     68.0 1.020e+04 3.559e-10
 53.44724     68.3 1.022e+04 3.503e-10
 53.46774     68.8 1.016e+04 3.458e-10
 53.48824     69.4 1.017e+04 3.492e-10
 53.50527     70.1 1.015e+04 3.578e-10
 53.51553     69.6 1.012e+04 3.529e-10
 53.52364     70.0 1.011e+04 3.596e-10
 53.53399     71.0 9.725e+03 2.757e-10
 53.56020     72.7 9.701e+03 2.791e-10
 53.58969     74.2 9.673e+03 2.784e-10
 53.61019     73.6 9.422e+03 2.408e-10
 53.64221     75.2 9.369e+03 2.357e-10
 53.68322     76.6 9.343e+03 2.329e-10
 53.71200     78.0 9.350e+03 2.339e-10
 53.73251     78.4 9.327e+03 2.337e-10
 53.75813     79.5 9.431e+03 2.522e-10
 53.77863     78.9 9.399e+03 2.430e-10
 53.80623     79.8 9.499e+03 2.499e-10
 53.84724     80.6 9.684e+03 2.633e-10
 53.88825     80.9 9.842e+03 2.784e-10
 53.91033     80.5 1.006e+04 3.037e-10
 53.92048     81.4 1.007e+04 3.387e-10
 53.93662     81.0 1.027e+04 3.625e-10
 53.94688     79.8 1.045e+04 3.966e-10
 53.95981     79.3 1.067e+04 4.591e-10
 53.98031     78.8 1.086e+04 5.745e-10
 53.99919     77.7 1.162e+04 8.812e-10
 54.00944     79.3 1.107e+04 6.500e-10
 54.02084     78.2 1.204e+04 1.009e-09
 54.03110     77.2 1.209e+04 1.046e-09
 54.04182     75.1 1.418e+04 1.879e-09
 54.06233     72.3 1.608e+04 3.663e-09
 54.08283     70.2 1.699e+04 7.294e-09
 54.09840     68.8 1.657e+04 8.526e-09
 54.10866     70.7 1.687e+04 7.213e-09
 54.11532     68.9 1.654e+04 7.698e-09
 54.12557     69.1 1.546e+04 5.730e-09
 54.14434     68.6 1.510e+04 5.511e-09
 54.16484     68.8 1.435e+04 4.383e-09
 54.18534     68.9 1.363e+04 2.634e-09
 54.21620     69.6 1.296e+04 1.375e-09
 54.25730     69.4 1.179e+04 3.875e-10
 54.28395     68.9 1.071e+04 1.440e-10
 54.29292     69.9 1.109e+04 2.101e-10
 54.30727     71.5 1.175e+04 4.644e-10
 54.33931     71.8 1.118e+04 1.924e-10
 54.38032     72.3 1.046e+04 1.313e-10
 54.42132     73.4 1.029e+04 1.282e-10
 54.45239     75.1 1.029e+04 1.298e-10
 54.47289     75.2 1.031e+04 1.316e-10
 54.48519     76.9 1.031e+04 1.369e-10
 54.50570     77.0 1.068e+04 1.768e-10
 54.54434     78.5 1.067e+04 1.917e-10
 54.58535     79.8 1.074e+04 2.391e-10
 54.62083     81.2 1.090e+04 3.174e-10
 54.64133     81.4 1.095e+04 3.248e-10
 54.66311     82.6 1.106e+04 3.997e-10
 54.68362     82.2 1.133e+04 4.882e-10
 54.70836     83.2 1.122e+04 4.659e-10
 54.74937     84.2 1.094e+04 3.812e-10
 54.78927     85.3 1.063e+04 2.644e-10
 54.80977     85.7 1.066e+04 2.578e-10
 54.83138     86.7 1.035e+04 1.641e-10
 54.86154     87.6 1.013e+04 1.051e-10
 54.88204     87.6 1.024e+04 1.122e-10
 54.91339     88.6 1.005e+04 8.726e-11
 54.95440     89.8 9.844e+03 8.252e-11
 54.97821     91.2 9.769e+03 8.199e-11
 54.99872     91.4 9.969e+03 9.326e-11
 55.03641     92.9 9.856e+03 8.763e-11
 55.05996     94.5 9.781e+03 8.318e-11
 55.08046     94.7 9.915e+03 1.116e-10
 55.11842     96.4 9.822e+03 9.750e-11
 55.14665     98.0 9.744e+03 8.241e-11
 55.16716     98.4 9.778e+03 7.266e-11
 55.20044    100.0 9.719e+03 5.750e-11
 55.23788    101.4 9.631e+03 4.746e-11
 55.25838    101.5 9.643e+03 4.630e-11
 55.28245    102.9 9.492e+03 4.495e-11
 55.31509    104.5 9.479e+03 4.514e-11
 55.33560    105.1 9.497e+03 4.470e-11
 55.36446    106.8 9.513e+03 4.645e-11
 55.40546    108.3 9.539e+03 5.302e-11
 55.43630    109.9 9.554e+03 6.451e-11
 55.45680    110.0 9.678e+03 6.552e-11
 55.48353    111.5 9.728e+03 8.327e-11
 55.50404    111.8 9.772e+03 1.023e-10
 55.52848    113.4 9.801e+03 1.318e-10
 55.56949    114.9 9.836e+03 1.671e-10
 55.61049    116.3 9.879e+03 2.068e-10
 55.63472    117.7 9.938e+03 2.456e-10
 55.65523    117.8 1.008e+04 2.820e-10
 55.67248    119.1 1.018e+04 3.310e-10
 55.69298    119.3 1.018e+04 3.146e-10
 55.73351    120.4 1.021e+04 3.213e-10
 55.77452    121.5 1.019e+04 3.169e-10
 55.81264    122.6 1.009e+04 2.928e-10
 55.83315    122.5 1.036e+04 3.285e-10
 55.84092    123.8 1.014e+04 2.808e-10
 55.86142    124.2 9.973e+03 2.349e-10
 55.89754    125.5 9.791e+03 1.934e-10
 55.93854    126.9 9.644e+03 1.592e-10
 55.97955    128.4 9.490e+03 1.405e-10
 56.00936    130.0 9.414e+03 1.380e-10
 56.02037    130.7 9.494e+03 1.397e-10
 56.03157    130.5 9.730e+03 1.862e-10
 56.06156    132.1 9.724e+03 1.867e-10
 56.10256    133.7 9.715e+03 1.850e-10
 56.14357    135.3 9.660e+03 1.748e-10
 56.17780    136.9 9.544e+03 1.543e-10
 56.19830    137.4 9.667e+03 1.776e-10
 56.20949    139.0 9.488e+03 1.394e-10
 56.22999    138.8 9.636e+03 1.976e-10
 56.26659    140.4 9.468e+03 1.626e-10
 56.30759    142.0 9.377e+03 1.513e-10
 56.34624    143.6 9.375e+03 1.521e-10
 56.36674    144.1 9.525e+03 1.859e-10
 56.38741    145.8 9.530e+03 1.902e-10
 56.40791    145.9 9.932e+03 2.809e-10
 56.43061    147.5 1.006e+04 2.969e-10
 56.47162    148.6 1.016e+04 3.193e-10
 56.49678    149.1 1.013e+04 3.278e-10
 56.50693    149.1 1.020e+04 3.445e-10
 56.52268    149.7 1.028e+04 3.860e-10
 56.53498    150.5 1.038e+04 4.514e-10
 56.54523    151.0 1.043e+04 4.315e-10
 56.56369    151.8 1.052e+04 4.936e-10
 56.58419    152.4 1.066e+04 5.899e-10
 56.59589    152.5 1.108e+04 7.709e-10
 56.60614    152.0 1.190e+04 1.209e-09
 56.61920    151.3 1.357e+04 1.838e-09
 56.62945    152.2 1.307e+04 1.628e-09
 56.64032    151.0 1.439e+04 2.044e-09
 56.64540    150.6 1.469e+04 2.195e-09
 56.65073    147.0 1.740e+04 3.564e-09
 56.66098    142.0 1.908e+04 7.921e-09
 56.66634    140.7 1.942e+04 1.941e-08
 56.67147    141.1 1.943e+04 1.526e-08
 56.68148    141.4 1.984e+04 3.831e-08
 56.68988    142.5 2.040e+04 8.364e-08
 56.69500    143.1 2.030e+04 7.865e-08
 56.70198    143.9 2.071e+04 1.214e-07
 56.70845    144.0 2.085e+04 1.302e-07
 56.71358    144.0 2.093e+04 1.348e-07
 56.72249    143.7 2.084e+04 1.300e-07
 56.73274    144.1 2.047e+04 1.047e-07
 56.73948    144.9 1.992e+04 6.080e-08
 56.74461    145.6 1.965e+04 4.144e-08
 56.75056    146.1 1.916e+04 1.909e-08
 56.75569    146.4 1.932e+04 2.513e-08
 56.76867    146.2 1.853e+04 4.942e-09
 56.78406    141.5 1.636e+04 4.664e-10
 56.80466    134.6 1.489e+04 2.469e-10
 56.84067    128.3 9.144e+03 1.602e-10
 56.87206    128.4 8.642e+03 1.400e-10
 56.89256    129.8 8.792e+03 1.660e-10
 56.92268    130.4 8.812e+03 1.511e-10
 56.96218    131.4 8.824e+03 1.505e-10
 56.98268    131.4 9.430e+03 2.431e-10
 57.00469    132.4 9.400e+03 2.433e-10
 57.04050    133.4 9.459e+03 2.648e-10
 57.06100    134.5 9.829e+03 3.486e-10
 57.07154    134.4 9.725e+03 3.402e-10
 57.08170    134.2 9.842e+03 3.536e-10
 57.09676    133.9 9.985e+03 3.999e-10
 57.11726    133.4 1.024e+04 5.088e-10
 57.13477    132.9 1.061e+04 6.855e-10
 57.14503    133.4 1.081e+04 7.979e-10
 57.15827    132.8 1.131e+04 1.100e-09
 57.17066    132.1 1.192e+04 1.548e-09
 57.18091    131.2 1.219e+04 1.740e-09
 57.19928    130.6 1.280e+04 2.324e-09
 57.21899    129.7 1.328e+04 2.678e-09
 57.22925    130.1 1.343e+04 2.745e-09
 57.24028    128.7 1.348e+04 2.728e-09
 57.25962    127.4 1.339e+04 2.540e-09
 57.26987    126.0 1.332e+04 2.329e-09
 57.28129    124.8 1.290e+04 1.827e-09
 57.30179    123.5 1.232e+04 1.329e-09
 57.31346    122.3 1.174e+04 9.721e-10
 57.32372    122.4 1.192e+04 1.047e-09
 57.34280    121.4 1.149e+04 8.146e-10
 57.35883    120.4 1.116e+04 6.549e-10
 57.36908    118.4 1.117e+04 6.366e-10
 57.38380    117.6 1.080e+04 5.370e-10
 57.39778    116.1 1.034e+04 4.246e-10
 57.40803    117.6 1.073e+04 5.666e-10
 57.42481    117.3 1.048e+04 4.988e-10
 57.44531    117.1 1.029e+04 4.518e-10
 57.45804    117.0 1.019e+04 4.226e-10
 57.46829    115.7 1.032e+04 4.315e-10
 57.48190    115.6 1.028e+04 4.219e-10
 57.49216    116.2 1.044e+04 4.834e-10
 57.50682    116.1 1.044e+04 4.769e-10
 57.52732    116.0 1.045e+04 4.792e-10
 57.54700    115.9 1.048e+04 4.915e-10
 57.55725    114.5 1.047e+04 4.880e-10
 57.56612    114.4 1.051e+04 5.153e-10
 57.57638    114.9 1.060e+04 5.520e-10
 57.58883    114.9 1.064e+04 5.754e-10
 57.60934    114.8 1.071e+04 6.049e-10
 57.62984    114.8 1.081e+04 6.353e-10
 57.64621    114.8 1.090e+04 6.642e-10
 57.65646    113.5 1.078e+04 6.112e-10
 57.67084    113.7 1.079e+04 6.257e-10
 57.70170    114.1 1.102e+04 7.243e-10
 57.73476    113.9 1.124e+04 8.961e-10
 57.74783    114.7 1.134e+04 9.342e-10
 57.75587    113.3 1.136e+04 9.875e-10
 57.78381    113.5 1.152e+04 1.150e-09
 57.82481    113.7 1.151e+04 1.155e-09
 57.86582    114.1 1.139e+04 1.098e-09
 57.90320    114.7 1.109e+04 9.335e-10
 57.92370    116.1 1.115e+04 9.705e-10
 57.93379    117.0 1.072e+04 7.584e-10
 57.95429    116.3 1.017e+04 5.366e-10
 57.98884    117.5 9.697e+03 3.803e-10
 58.02984    118.7 9.307e+03 2.861e-10
 58.07085    120.1 9.050e+03 2.456e-10
 58.09214    121.7 8.984e+03 2.423e-10
 58.11250    123.1 8.878e+03 2.139e-10
 58.15271    124.8 8.600e+03 1.750e-10
 58.19386    126.5 8.583e+03 1.774e-10
 58.23487    128.2 8.576e+03 1.898e-10
 58.26058    129.9 8.613e+03 2.101e-10
 58.28109    131.4 8.421e+03 1.577e-10
 58.31013    133.1 8.414e+03 1.697e-10
 58.33063    133.4 8.288e+03 1.589e-10
 58.35789    135.3 8.347e+03 1.830e-10
 58.39889    137.3 8.457e+03 2.146e-10
 58.42902    139.3 8.600e+03 2.385e-10
 58.44953    140.6 8.343e+03 1.821e-10
 58.48091    142.7 8.502e+03 2.162e-10
 58.50855    144.8 8.636e+03 2.389e-10
 58.52906    145.3 8.479e+03 2.188e-10
 58.56292    147.4 8.590e+03 2.362e-10
 58.59746    149.4 8.656e+03 2.443e-10
 58.61796    150.8 8.643e+03 2.428e-10
 58.64493    152.8 8.761e+03 2.683e-10
 58.68594    154.6 8.835e+03 2.875e-10
 58.70698    156.3 8.847e+03 2.917e-10
 58.72748    157.0 9.034e+03 3.392e-10
 58.76590    158.7 9.143e+03 3.725e-10
 58.78640    160.0 9.440e+03 4.539e-10
 58.80895    161.4 9.468e+03 4.555e-10
 58.84996    162.6 9.433e+03 4.314e-10
 58.88490    163.7 9.280e+03 3.711e-10
 58.90540    164.6 9.855e+03 5.836e-10
 58.93197    165.6 9.679e+03 5.037e-10
 58.95484    166.5 9.447e+03 4.204e-10
 58.97535    167.2 9.396e+03 3.757e-10
 59.01398    167.9 9.339e+03 3.604e-10
 59.05499    168.3 9.375e+03 3.725e-10
 59.08332    168.7 9.582e+03 4.420e-10
 59.09347    169.5 1.014e+04 5.966e-10
 59.10605    169.6 1.026e+04 6.345e-10
 59.12309    169.6 1.048e+04 7.110e-10
 59.13334    169.7 1.049e+04 7.174e-10
 59.14706    169.7 1.082e+04 8.759e-10
 59.16756    169.6 1.125e+04 1.107e-09
 59.18234    169.2 1.185e+04 1.481e-09
 59.19259    168.5 1.208e+04 1.738e-09
 59.20731    168.0 1.285e+04 2.481e-09
 59.21756    168.0 1.294e+04 2.527e-09
 59.22907    167.6 1.370e+04 3.590e-09
 59.24957    167.3 1.425e+04 4.392e-09
 59.27007    166.6 1.436e+04 4.442e-09
 59.28155    165.8 1.430e+04 4.232e-09
 59.29180    165.9 1.465e+04 4.862e-09
 59.30178    165.4 1.426e+04 3.939e-09
 59.31203    165.6 1.444e+04 4.388e-09
 59.33158    165.3 1.377e+04 3.207e-09
 59.35209    164.9 1.290e+04 2.162e-09
 59.37051    164.3 1.203e+04 1.482e-09
 59.38076    163.9 1.207e+04 1.500e-09
 59.38600    163.4 1.141e+04 1.129e-09
 59.39625    163.6 1.190e+04 1.323e-09
 59.41359    163.5 1.154e+04 1.101e-09
 59.43410    163.8 1.131e+04 9.913e-10
 59.45460    164.2 1.113e+04 9.403e-10
 59.46972    164.8 1.103e+04 9.344e-10
 59.47509    164.7 1.118e+04 9.204e-10
 59.48047    165.0 1.165e+04 8.674e-10
 59.49561    165.5 1.166e+04 8.660e-10
 59.51611    166.1 1.174e+04 8.714e-10
 59.53661    166.3 1.186e+04 8.898e-10
 59.55444    166.5 1.199e+04 9.192e-10
 59.56469    166.5 1.197e+04 9.561e-10
 59.56893    166.5 1.213e+04 9.847e-10
 59.57918    166.2 1.238e+04 1.172e-09
 59.59812    165.6 1.298e+04 1.379e-09
 59.61862    164.3 1.358e+04 1.738e-09
 59.63866    162.5 1.405e+04 2.317e-09
 59.64891    162.9 1.399e+04 2.379e-09
 59.65789    161.2 1.448e+04 3.214e-09
 59.66814    160.1 1.678e+04 6.134e-09
 59.68013    158.9 1.654e+04 6.765e-09
 59.70064    158.0 1.630e+04 6.635e-09
 59.72114    157.5 1.565e+04 5.975e-09
 59.73313    157.1 1.495e+04 4.959e-09
 59.74338    156.7 1.547e+04 5.627e-09
 59.75710    155.9 1.473e+04 4.794e-09
 59.76735    154.4 1.492e+04 5.348e-09
 59.78265    153.4 1.501e+04 4.888e-09
 59.80315    152.7 1.517e+04 4.914e-09
 59.81735    152.0 1.581e+04 5.032e-09
 59.82760    149.9 1.768e+04 9.375e-09
 59.84416    149.0 1.818e+04 1.097e-08
 59.85631    148.2 1.838e+04 1.237e-08
 59.86656    146.3 1.816e+04 1.372e-08
 59.88516    145.6 1.811e+04 1.496e-08
 59.90157    144.8 1.783e+04 1.576e-08
 59.91182    145.6 1.809e+04 1.711e-08
 59.92617    145.6 1.762e+04 1.537e-08
 59.94527    145.8 1.726e+04 1.313e-08
 59.95552    145.4 1.724e+04 1.189e-08
 59.96717    145.6 1.712e+04 9.253e-09
 59.98579    145.5 1.694e+04 6.379e-09
 59.99604    143.3 1.819e+04 1.562e-09
 60.00818    141.0 1.716e+04 9.965e-10
 60.02868    138.6 1.497e+04 6.636e-10
 60.04448    136.3 1.218e+04 5.046e-10
 60.05474    134.1 1.034e+04 4.185e-10
 60.06969    133.1 1.008e+04 4.235e-10
 60.08026    132.5 1.013e+04 4.554e-10
 60.09051    133.0 9.510e+03 3.636e-10
 60.11069    132.2 9.837e+03 4.234e-10
 60.13120    129.0 1.136e+04 7.093e-10
 60.14370    122.4 1.476e+04 2.159e-09
 60.15395    116.4 1.701e+04 4.616e-09
 60.16448    110.8 1.909e+04 1.029e-08
 60.17473    108.5 1.968e+04 1.072e-08
 60.19271    104.0 2.090e+04 1.654e-08
 60.21321     99.1 2.127e+04 1.619e-08
 60.23266     93.4 2.130e+04 1.253e-08
 60.24291     87.1 2.003e+04 7.540e-09
 60.24870     80.3 1.710e+04 4.109e-09
 60.25895     80.5 1.846e+04 5.555e-09
 60.27472     74.9 1.465e+04 3.256e-09
 60.29522     72.4 1.268e+04 2.446e-09
 60.31572     72.2 1.227e+04 2.057e-09
 60.33187     72.0 1.214e+04 1.727e-09
 60.33881     71.4 1.221e+04 1.707e-09
 60.34317     70.6 1.257e+04 2.059e-09
 60.35673     70.3 1.225e+04 1.766e-09
 60.37723     69.8 1.199e+04 1.602e-09
 60.39774     69.4 1.197e+04 1.588e-09
 60.41714     69.0 1.204e+04 1.620e-09
 60.42739     68.7 1.266e+04 2.148e-09
 60.43108     68.4 1.289e+04 2.316e-09
 60.44133     67.8 1.337e+04 2.794e-09
 60.45924     67.6 1.363e+04 3.069e-09
 60.47975     67.4 1.365e+04 3.087e-09
 60.50025     67.3 1.358e+04 3.022e-09
 60.51161     67.4 1.333e+04 2.756e-09
 60.52115     67.9 1.371e+04 3.356e-09
 60.53029     67.8 1.415e+04 4.026e-09
 60.54126     68.2 1.365e+04 3.278e-09
 60.56176     68.4 1.303e+04 2.449e-09
 60.58226     68.4 1.243e+04 1.797e-09
 60.60910     68.5 1.182e+04 1.261e-09
 60.62960     68.2 1.185e+04 1.299e-09
 60.65412     67.6 1.144e+04 1.011e-09
 60.68025     67.4 1.102e+04 8.243e-10
 60.70075     69.4 1.178e+04 1.226e-09
 60.73623     69.4 1.183e+04 1.125e-09
 60.77724     69.3 1.150e+04 9.424e-10
 60.80762     69.4 1.068e+04 6.615e-10
 60.82812     70.0 1.161e+04 9.839e-10
 60.84869     70.3 1.049e+04 5.759e-10
 60.85884     71.7 1.188e+04 1.174e-09
 60.86930     71.8 1.134e+04 8.620e-10
 60.90016     72.7 1.116e+04 7.553e-10
 60.94126     73.2 9.824e+03 3.579e-10
 60.98226     73.8 8.718e+03 1.656e-10
 61.00604     74.4 8.153e+03 9.070e-11
 61.02040     75.0 8.474e+03 1.431e-10
 61.03763     77.1 9.787e+03 3.252e-10
 61.06428     78.0 8.760e+03 1.655e-10
 61.10528     78.9 8.395e+03 1.034e-10
 61.14629     80.1 8.398e+03 9.275e-11
 61.18396     81.5 8.375e+03 9.310e-11
 61.20274     82.1 8.770e+03 1.297e-10
 61.20607     83.4 9.627e+03 2.382e-10
 61.22830     84.4 9.545e+03 2.173e-10
 61.26931     85.2 9.508e+03 2.158e-10
 61.31031     85.9 9.584e+03 2.232e-10
 61.35132     86.5 9.663e+03 2.285e-10
 61.37451     87.1 9.641e+03 2.235e-10
 61.38507     87.8 1.041e+04 3.473e-10
 61.40288     88.4 1.126e+04 7.470e-10
 61.43333     89.0 1.141e+04 7.196e-10
 61.47434     89.3 1.171e+04 7.084e-10
 61.51534     89.2 1.194e+04 7.111e-10
 61.54295     88.8 1.190e+04 7.263e-10
 61.55310     88.2 1.389e+04 2.141e-09
 61.56640     88.0 1.382e+04 2.116e-09
 61.58061     88.1 1.355e+04 2.006e-09
 61.59086     88.4 1.420e+04 3.150e-09
 61.60741     88.7 1.368e+04 2.593e-09
 61.62698     89.1 1.319e+04 2.191e-09
 61.63723     89.7 1.377e+04 3.112e-09
 61.64842     89.9 1.316e+04 2.321e-09
 61.67927     90.5 1.226e+04 1.439e-09
 61.71139     91.3 1.116e+04 8.282e-10
 61.73189     91.0 1.177e+04 8.945e-10
 61.75872     91.9 1.088e+04 5.089e-10
 61.77923     92.4 1.134e+04 6.210e-10
 61.80238     93.7 1.099e+04 4.058e-10
 61.84339     95.1 1.065e+04 2.486e-10
 61.87983     96.4 1.010e+04 1.534e-10
 61.90033     96.2 1.165e+04 4.198e-10
 61.92540     97.7 1.115e+04 2.877e-10
 61.95715     99.4 1.125e+04 2.712e-10
 61.97520    100.3 1.227e+04 4.226e-10
 61.98436     99.2 1.269e+04 6.113e-10
 61.99697     99.5 1.275e+04 5.756e-10
 62.01747    100.0 1.277e+04 5.593e-10
 62.03797    100.8 1.277e+04 5.586e-10
 62.05616    101.7 1.268e+04 5.614e-10
 62.06627    101.8 1.335e+04 8.428e-10
 62.06858    101.7 1.314e+04 2.037e-09
 62.07898    102.4 1.334e+04 1.877e-09
 62.09948    103.3 1.353e+04 1.858e-09
 62.11998    104.1 1.391e+04 1.903e-09
 62.14049    104.9 1.439e+04 2.022e-09
 62.15280    105.7 1.482e+04 2.195e-09
 62.15744    105.9 1.496e+04 4.298e-09
 62.16563    106.0 1.490e+04 4.247e-09
 62.18149    106.1 1.553e+04 4.605e-09
 62.20199    106.3 1.622e+04 5.170e-09
 62.22250    106.4 1.697e+04 6.136e-09
 62.23702    106.5 1.780e+04 7.528e-09
 62.24209    107.1 1.749e+04 1.007e-08
 62.24803    107.0 1.789e+04 1.104e-08
 62.25449    106.9 1.835e+04 1.235e-08
 62.25961    106.7 1.822e+04 1.103e-08
 62.26853    106.5 1.863e+04 1.234e-08
 62.27878    106.1 1.918e+04 1.403e-08
 62.28416    105.5 1.981e+04 1.604e-08
 62.28928    105.8 1.967e+04 2.151e-08
 62.29897    105.0 2.054e+04 2.662e-08
 62.30409    104.8 2.023e+04 2.031e-08
 62.30954    103.8 2.096e+04 2.290e-08
 62.31979    102.6 2.144e+04 2.357e-08
 62.32627    101.3 2.145e+04 2.315e-08
 62.33139    101.4 2.193e+04 3.614e-08
 62.34029    100.3 2.189e+04 3.560e-08
 62.34857     99.4 2.166e+04 3.276e-08
 62.35370     99.3 2.098e+04 2.434e-08
 62.36079     98.5 2.046e+04 2.148e-08
 62.36838     97.8 1.988e+04 1.826e-08
 62.37350     98.1 2.082e+04 2.402e-08
 62.38647     97.5 1.918e+04 1.396e-08
 62.40546     97.0 1.763e+04 7.648e-09
 62.41571     97.0 1.936e+04 1.073e-08
 62.42753     95.7 1.769e+04 5.292e-09
 62.44276     93.4 1.578e+04 2.699e-09
 62.45301     94.7 1.557e+04 2.878e-09
 62.46853     92.4 1.387e+04 1.732e-09
 62.48904     90.6 1.282e+04 1.296e-09
 62.49993     90.0 1.231e+04 1.194e-09
 62.51018     88.6 1.272e+04 1.558e-09
 62.53004     88.4 1.245e+04 1.389e-09
 62.54197     88.0 1.236e+04 1.325e-09
 62.55222     88.6 1.227e+04 1.308e-09
 62.57105     88.1 1.227e+04 1.302e-09
 62.58415     87.5 1.231e+04 1.322e-09
 62.59440     85.3 1.234e+04 1.360e-09
 62.61205     84.1 1.235e+04 1.370e-09
 62.63093     82.9 1.240e+04 1.386e-09
 62.64118     83.3 1.238e+04 1.379e-09
 62.65306     81.6 1.246e+04 1.379e-09
 62.66837     79.6 1.249e+04 1.361e-09
 62.67862     77.9 1.237e+04 1.219e-09
 62.69407     75.9 1.232e+04 1.099e-09
 62.71457     73.8 1.220e+04 9.544e-10
 62.73014     72.0 1.190e+04 7.679e-10
 62.74039     71.2 1.200e+04 8.261e-10
 62.75259     69.5 1.163e+04 6.973e-10
 62.76284     68.9 1.210e+04 7.791e-10
 62.77608     67.8 1.184e+04 7.199e-10
 62.79658     67.1 1.152e+04 6.599e-10
 62.81708     66.7 1.118e+04 6.057e-10
 62.82935     66.5 1.103e+04 5.807e-10
 62.83883     66.2 1.117e+04 6.659e-10
 62.84706     64.6 1.336e+04 1.084e-09
 62.85809     63.0 1.544e+04 1.166e-09
 62.87859     56.6 2.233e+04 1.754e-09
 62.89909     45.5 2.921e+04 5.582e-09
 62.91442     38.7 2.613e+04 2.184e-08
 62.92334     36.0 2.352e+04 4.464e-08
 62.92847     35.2 2.351e+04 6.009e-08
 62.93118     33.6 2.202e+04 8.716e-08
 62.93631     35.8 2.113e+04 1.014e-07
 62.94513     36.0 2.102e+04 1.076e-07
 62.95538     36.4 2.124e+04 1.033e-07
 62.96563     36.7 2.183e+04 9.097e-08
 62.97295     36.7 2.295e+04 7.119e-08
 62.97548     35.9 2.312e+04 9.242e-08
 62.97842     37.8 2.583e+04 3.350e-08
 62.98613     35.5 3.102e+04 1.265e-08
 62.99639     29.8 3.664e+04 3.724e-09
 63.00664     19.2 3.032e+04 1.327e-09
 63.01540      9.0 1.626e+04 9.304e-10
 63.02111      6.6 1.166e+04 6.252e-10
 63.02778      6.2 1.227e+04 8.581e-10
 63.04262      6.8 1.174e+04 8.388e-10
 63.06312      7.3 1.184e+04 8.138e-10
 63.08362      7.7 1.191e+04 8.003e-10
 63.09972      7.9 1.191e+04 7.664e-10
 63.10997      7.5 1.030e+04 4.091e-10
 63.11674      7.4 1.026e+04 3.993e-10
 63.12699      8.0 1.095e+04 5.361e-10
 63.14513      7.9 1.084e+04 5.125e-10
 63.16563      7.6 1.074e+04 5.080e-10
 63.18394      7.2 1.075e+04 5.262e-10
 63.19419      7.0 1.031e+04 4.160e-10
 63.20570      6.5 1.051e+04 4.539e-10
 63.21595      6.7 1.075e+04 5.453e-10
 63.22714      6.1 1.090e+04 6.279e-10
 63.24764      5.8 1.109e+04 7.473e-10
 63.26815      5.7 1.137e+04 8.976e-10
 63.28865      5.5 1.088e+04 6.968e-10
 63.30491      5.3 1.097e+04 7.407e-10
 63.31516      5.9 1.135e+04 8.973e-10
 63.32966      5.6 1.152e+04 8.982e-10
 63.35016      4.9 1.157e+04 8.725e-10
 63.36263      4.3 1.150e+04 8.083e-10
 63.37288      3.6 1.057e+04 5.836e-10
 63.39117      3.2 1.069e+04 5.913e-10
 63.40412      3.0 1.074e+04 5.953e-10
 63.41437      3.2 1.074e+04 5.934e-10
 63.43670      2.6 1.153e+04 7.543e-10
 63.45730      2.4 1.056e+04 5.021e-10
 63.48302      1.3 1.095e+04 5.974e-10
 63.50352      1.2 1.146e+04 8.207e-10
 63.52463     -0.1 1.205e+04 1.177e-09
 63.56564     -0.9 1.268e+04 1.633e-09
 63.59239     -0.8 1.275e+04 1.698e-09
 63.60254     -0.9 1.279e+04 1.758e-09
 63.61529     -1.1 1.291e+04 1.814e-09
 63.62564     -0.8 1.248e+04 1.543e-09
 63.64765     -0.8 1.249e+04 1.531e-09
 63.68144     -0.3 1.217e+04 1.288e-09
 63.70195     -0.4 1.209e+04 1.269e-09
 63.72966      0.8 1.144e+04 8.724e-10
 63.77067      2.0 1.081e+04 5.732e-10
 63.79418      3.2 1.032e+04 4.023e-10
 63.81468      4.0 1.007e+04 2.978e-10
 63.85268      5.4 9.815e+03 2.583e-10
 63.87987      7.3 9.729e+03 2.507e-10
 63.90037      7.9 9.621e+03 2.513e-10
 63.93469     10.0 9.606e+03 2.504e-10
 63.96262     12.0 9.631e+03 2.705e-10
 63.98312     12.5 9.775e+03 2.928e-10
 64.01670     14.5 9.985e+03 3.593e-10
 64.05771     16.5 1.032e+04 4.469e-10
 64.08836     17.8 1.049e+04 5.276e-10
 64.10877     18.3 1.065e+04 5.965e-10
 64.12927     18.9 1.081e+04 6.831e-10
 64.14111     19.4 1.099e+04 7.841e-10
 64.15137     19.6 1.116e+04 8.788e-10
 64.16706     20.2 1.142e+04 1.019e-09
 64.17731     20.3 1.142e+04 1.026e-09
 64.19078     20.6 1.171e+04 1.188e-09
 64.21128     20.5 1.203e+04 1.388e-09
 64.22533     20.2 1.246e+04 1.676e-09
 64.23559     20.4 1.261e+04 1.757e-09
 64.25229     19.8 1.316e+04 2.216e-09
 64.26627     19.3 1.372e+04 2.837e-09
 64.27652     19.5 1.363e+04 2.805e-09
 64.29329     19.2 1.407e+04 3.345e-09
 64.30955     18.8 1.413e+04 3.381e-09
 64.31980     18.9 1.407e+04 3.358e-09
 64.33430     18.7 1.384e+04 3.089e-09
 64.35480     18.7 1.337e+04 2.467e-09
 64.36548     18.2 1.290e+04 1.830e-09
 64.37573     19.0 1.276e+04 1.782e-09
 64.39377     18.0 1.237e+04 1.325e-09
 64.40402     18.0 1.206e+04 1.159e-09
 64.41631     16.6 1.168e+04 9.175e-10
 64.43682     15.6 1.163e+04 9.091e-10
 64.45444     14.5 1.184e+04 9.918e-10
 64.46469     16.0 1.155e+04 8.429e-10
 64.47782     14.6 1.218e+04 1.065e-09
 64.48824     12.8 1.311e+04 1.693e-09
 64.49850     13.7 1.283e+04 1.540e-09
 64.51883     12.7 1.365e+04 2.649e-09
 64.53933     13.2 1.433e+04 4.176e-09
 64.55365     14.2 1.488e+04 5.317e-09
 64.56390     14.7 1.464e+04 4.847e-09
 64.57246     15.5 1.505e+04 5.397e-09
 64.58272     16.0 1.515e+04 5.555e-09
 64.60084     16.4 1.519e+04 5.401e-09
 64.62134     16.8 1.505e+04 4.530e-09
 64.64184     16.8 1.478e+04 3.208e-09
 64.65286     16.1 1.456e+04 2.033e-09
 64.65745     17.6 1.475e+04 2.570e-09
 64.66694     17.6 1.502e+04 3.036e-09
 64.68285     16.4 1.463e+04 2.017e-09
 64.70335     15.2 1.417e+04 1.449e-09
 64.72386     14.2 1.438e+04 1.474e-09
 64.74090     11.0 1.598e+04 2.138e-09
 64.74862      9.6 1.563e+04 2.681e-09
 64.75207     12.2 1.560e+04 2.652e-09
 64.75969      9.4 1.667e+04 3.515e-09
 64.76989      8.1 1.708e+04 4.401e-09
 64.78014      7.1 1.726e+04 5.638e-09
 64.78804      6.5 1.709e+04 6.944e-09
 64.79317      6.2 1.662e+04 6.599e-09
 64.79645      5.1 1.669e+04 6.930e-09
 64.80158      6.2 1.691e+04 7.379e-09
 64.81090      4.9 1.778e+04 7.900e-09
 64.82115      0.4 2.188e+04 9.047e-09
 64.83015     -1.3 2.484e+04 8.633e-09
 64.83533      0.1 1.833e+04 5.571e-09
 64.84103     -7.6 1.991e+04 4.342e-09
 64.85128     -5.6 2.161e+04 5.536e-09
 64.86738    -13.5 1.897e+04 3.399e-09
 64.88788    -19.4 1.467e+04 2.262e-09
 64.90838    -20.9 1.347e+04 1.657e-09
 64.91960    -21.0 1.309e+04 1.455e-09
 64.92985    -19.6 1.224e+04 9.669e-10
 64.95974    -20.1 1.193e+04 9.697e-10
 64.99376    -19.7 1.094e+04 5.954e-10
 65.01426    -17.5 1.045e+04 4.176e-10
 65.02940    -17.7 1.013e+04 2.992e-10
 65.04990    -17.6 1.065e+04 3.609e-10
 65.08285    -17.6 1.129e+04 4.724e-10
 65.12386    -18.5 1.280e+04 8.765e-10
 65.15452    -20.2 1.399e+04 1.471e-09
 65.17226    -20.9 1.468e+04 2.531e-09
 65.18251    -23.5 1.477e+04 2.162e-09
 65.19542    -21.9 1.463e+04 3.356e-09
 65.21593    -20.6 1.474e+04 3.287e-09
 65.22763    -18.7 1.455e+04 2.352e-09
 65.23788    -18.0 1.544e+04 3.153e-09
 65.25648    -18.7 1.520e+04 1.594e-09
 65.26673    -18.1 1.559e+04 2.286e-09
 65.27744    -20.5 1.505e+04 1.287e-09
 65.29794    -24.3 1.358e+04 7.541e-10
 65.32879    -26.5 1.237e+04 6.593e-10
 65.35114    -26.1 1.179e+04 7.013e-10
 65.36130    -25.7 1.349e+04 7.661e-10
 65.37995    -25.4 1.312e+04 7.239e-10
 65.40045    -25.1 1.284e+04 6.948e-10
 65.41580    -25.1 1.262e+04 6.506e-10
 65.42615    -25.8 1.239e+04 7.483e-10
 65.45191    -25.6 1.192e+04 7.039e-10
 65.49291    -25.4 1.188e+04 7.350e-10
 65.51958    -25.4 1.204e+04 1.011e-09
 65.52974    -25.4 1.262e+04 1.371e-09
 65.54397    -25.4 1.271e+04 1.438e-09
 65.56448    -24.3 1.277e+04 1.757e-09
 65.58498    -24.0 1.287e+04 1.804e-09
 65.60361    -23.3 1.292e+04 1.923e-09
 65.61234    -23.2 1.304e+04 2.015e-09
 65.61422    -23.3 1.275e+04 1.622e-09
 65.62599    -23.0 1.282e+04 1.611e-09
 65.64649    -23.2 1.284e+04 1.592e-09
 65.66699    -23.6 1.283e+04 1.595e-09
 65.68792    -24.4 1.273e+04 1.449e-09
 65.70361    -25.4 1.291e+04 2.115e-09
 65.71343    -25.4 1.269e+04 1.937e-09
 65.72850    -25.3 1.268e+04 1.911e-09
 65.74900    -25.2 1.274e+04 1.924e-09
 65.76951    -25.9 1.307e+04 1.567e-09
 65.78230    -26.5 1.296e+04 1.483e-09
 65.79255    -26.5 1.339e+04 1.839e-09
 65.80239    -28.8 1.317e+04 1.676e-09
 65.81264    -29.6 1.256e+04 1.275e-09
 65.83102    -31.5 1.235e+04 1.207e-09
 65.85152    -33.6 1.248e+04 1.317e-09
 65.86652    -36.4 1.285e+04 1.573e-09
 65.87677    -36.9 1.275e+04 1.617e-09
 65.89135    -39.8 1.302e+04 1.946e-09
 65.90160    -40.3 1.302e+04 1.901e-09
 65.91303    -42.6 1.319e+04 2.317e-09
 65.93353    -44.3 1.331e+04 2.562e-09
 65.95074    -45.6 1.340e+04 2.597e-09
 65.96099    -46.9 1.319e+04 2.304e-09
 65.97454    -49.3 1.313e+04 2.047e-09
 65.99056    -52.4 1.262e+04 1.643e-09
 66.00082    -52.7 1.265e+04 1.668e-09
 66.01554    -55.4 1.199e+04 1.422e-09
 66.03496    -57.0 1.151e+04 1.255e-09
 66.04521    -57.6 1.173e+04 1.411e-09
 66.05655    -58.5 1.130e+04 1.197e-09
 66.07705    -59.2 1.093e+04 1.003e-09
 66.10790    -60.1 1.054e+04 8.014e-10
 66.14901    -61.1 9.810e+03 5.182e-10
 66.17893    -61.7 9.487e+03 4.247e-10
 66.19943    -60.8 9.389e+03 3.898e-10
 66.21384    -60.4 9.275e+03 3.663e-10
 66.23435    -62.0 9.302e+03 3.899e-10
 66.27202    -61.2 9.284e+03 3.915e-10
 66.31303    -60.1 9.208e+03 3.830e-10
 66.35404    -58.5 8.938e+03 3.005e-10
 66.37735    -57.2 8.598e+03 1.934e-10
 66.38510    -56.5 8.800e+03 2.167e-10
 66.40279    -58.1 8.846e+03 2.725e-10
 66.43605    -58.4 8.777e+03 2.191e-10
 66.47705    -59.4 9.361e+03 2.389e-10
 66.51806    -60.7 1.057e+04 3.767e-10
 66.55072    -61.8 1.163e+04 6.752e-10
 66.56734    -64.2 1.316e+04 1.937e-09
 66.57558    -63.6 1.343e+04 2.098e-09
 66.58962    -64.2 1.354e+04 2.222e-09
 66.61013    -65.1 1.353e+04 2.301e-09
 66.63063    -66.0 1.340e+04 2.172e-09
 66.64500    -67.1 1.322e+04 2.014e-09
 66.65525    -69.3 1.334e+04 2.067e-09
 66.66454    -70.6 1.293e+04 1.753e-09
 66.67479    -70.5 1.322e+04 1.960e-09
 66.69214    -71.8 1.286e+04 1.657e-09
 66.71264    -73.3 1.251e+04 1.404e-09
 66.72922    -75.7 1.239e+04 1.284e-09
 66.73947    -78.1 1.233e+04 1.275e-09
 66.75350    -83.5 1.369e+04 1.364e-09
 66.76375    -87.6 1.651e+04 1.946e-09
 66.77415    -96.1 1.888e+04 5.591e-09
 66.79465   -100.5 1.965e+04 1.450e-08
 66.80818   -102.3 1.989e+04 1.973e-08
 66.81326   -102.9 2.052e+04 2.689e-08
 66.81847   -104.1 2.073e+04 2.902e-08
 66.82359   -104.3 2.075e+04 3.073e-08
 66.83044   -105.6 2.099e+04 2.970e-08
 66.84069   -107.5 2.139e+04 2.628e-08
 66.85094   -110.3 2.178e+04 2.267e-08
 66.85774   -112.9 2.190e+04 1.989e-08
 66.86225   -115.5 2.215e+04 1.882e-08
 66.86570   -115.4 2.213e+04 1.973e-08
 66.87662   -120.2 2.150e+04 1.614e-08
 66.89717   -128.0 1.885e+04 1.068e-08
 66.90791   -131.5 1.634e+04 6.769e-09
 66.91816   -130.7 1.780e+04 9.803e-09
 66.93817   -132.4 1.594e+04 5.507e-09
 66.95192   -133.9 1.396e+04 2.614e-09
 66.96218   -135.0 1.387e+04 2.409e-09
 66.97918   -137.6 1.152e+04 9.688e-10
 66.99213   -139.7 1.019e+04 4.886e-10
 67.00238   -139.8 1.056e+04 5.334e-10
 67.02019   -140.7 9.870e+03 3.558e-10
 67.04069   -141.0 9.594e+03 3.033e-10
 67.05114   -140.6 9.471e+03 2.749e-10
 67.06139   -141.2 9.417e+03 2.719e-10
 67.07645   -140.2 9.311e+03 2.417e-10
 67.09705   -140.9 9.530e+03 2.702e-10
 67.13004   -139.6 9.235e+03 2.152e-10
 67.15054   -140.8 9.166e+03 2.320e-10
 67.17415   -139.2 8.959e+03 1.997e-10
 67.21516   -137.7 8.920e+03 1.855e-10
 67.24499   -136.3 8.915e+03 1.814e-10
 67.26549   -137.3 8.958e+03 1.806e-10
 67.29717   -135.9 8.955e+03 1.797e-10
 67.32846   -134.6 9.019e+03 1.871e-10
 67.34896   -135.7 9.328e+03 2.578e-10
 67.37918   -134.4 9.442e+03 2.750e-10
 67.41343   -133.3 9.620e+03 3.007e-10
 67.43393   -134.3 9.702e+03 3.017e-10
 67.46119   -133.2 9.928e+03 3.494e-10
 67.50220   -132.4 1.021e+04 4.198e-10
 67.52688   -131.7 1.057e+04 5.242e-10
 67.54739   -133.2 1.065e+04 5.538e-10
 67.58187   -132.8 1.105e+04 7.010e-10
 67.60237   -134.0 1.105e+04 6.904e-10
 67.62522   -133.6 1.145e+04 8.588e-10
 67.66622   -133.2 1.179e+04 1.020e-09
 67.70480   -132.9 1.198e+04 1.113e-09
 67.72531   -134.0 1.156e+04 9.118e-10
 67.74824   -133.5 1.157e+04 9.111e-10
 67.77081   -132.9 1.145e+04 8.406e-10
 67.79131   -133.6 1.094e+04 6.057e-10
 67.83025   -132.7 1.075e+04 5.011e-10
 67.87125   -131.8 1.050e+04 3.732e-10
 67.90323   -130.9 1.030e+04 2.725e-10
 67.92373   -131.2 1.006e+04 2.251e-10
 67.93925   -130.2 1.010e+04 1.978e-10
 67.95975   -130.3 1.006e+04 1.995e-10
 67.99427   -129.2 1.012e+04 1.966e-10
 68.03528   -128.3 1.041e+04 2.010e-10
 68.07628   -127.6 1.072e+04 2.401e-10
 68.10165   -126.9 1.093e+04 3.298e-10
 68.11255   -126.8 1.087e+04 3.123e-10
 68.12819   -127.4 1.098e+04 3.458e-10
 68.15829   -126.5 1.114e+04 4.475e-10
 68.19930   -125.5 1.130e+04 5.625e-10
 68.24031   -124.4 1.144e+04 6.558e-10
 68.27613   -123.2 1.156e+04 7.119e-10
 68.29489   -123.6 1.143e+04 6.334e-10
 68.30007   -123.1 1.119e+04 5.743e-10
 68.32232   -121.8 1.121e+04 5.725e-10
 68.36332   -120.2 1.137e+04 5.926e-10
 68.40433   -119.0 1.162e+04 6.854e-10
 68.44457   -117.8 1.197e+04 8.925e-10
 68.46507   -117.8 1.151e+04 6.457e-10
 68.47799   -116.5 1.179e+04 8.675e-10
 68.49850   -115.8 1.181e+04 8.945e-10
 68.52735   -114.4 1.219e+04 1.166e-09
 68.56835   -113.3 1.232e+04 1.247e-09
 68.60936   -112.2 1.210e+04 1.073e-09
 68.63351   -110.8 1.151e+04 6.770e-10
 68.65401   -110.1 1.102e+04 5.737e-10
 68.67642   -108.9 1.067e+04 3.976e-10
 68.69692   -108.3 1.095e+04 4.959e-10
 68.73238   -107.3 1.080e+04 4.087e-10
 68.77338   -106.2 1.076e+04 3.918e-10
 68.80195   -105.1 1.077e+04 3.847e-10
 68.82245   -104.0 1.045e+04 3.076e-10
 68.85434   -102.9 1.047e+04 3.136e-10
 68.87484   -102.4 1.060e+04 3.548e-10
 68.89640   -101.6 1.058e+04 3.280e-10
 68.93741   -101.0 1.053e+04 2.947e-10
 68.97039   -100.6 1.047e+04 2.782e-10
 68.99089    -98.9 1.047e+04 2.666e-10
 69.01942    -98.5 1.044e+04 2.639e-10
 69.05276    -98.1 1.036e+04 2.756e-10
 69.07326    -98.0 1.063e+04 3.905e-10
 69.10143    -97.4 1.051e+04 3.767e-10
 69.13883    -96.8 1.046e+04 3.623e-10
 69.15933    -95.5 1.067e+04 4.336e-10
 69.18344    -95.0 1.074e+04 4.673e-10
 69.22445    -94.8 1.096e+04 5.492e-10
 69.25118    -94.6 1.131e+04 7.294e-10
 69.27168    -94.4 1.109e+04 6.154e-10
 69.29611    -93.9 1.169e+04 9.164e-10
 69.31652    -94.0 1.182e+04 9.693e-10
 69.32758    -94.0 1.252e+04 1.363e-09
 69.33783    -93.7 1.251e+04 1.388e-09
 69.35020    -94.4 1.307e+04 1.713e-09
 69.36045    -94.2 1.286e+04 1.533e-09
 69.37802    -94.6 1.349e+04 2.196e-09
 69.39853    -95.0 1.375e+04 2.629e-09
 69.41180    -95.1 1.384e+04 2.834e-09
 69.42205    -94.7 1.383e+04 2.874e-09
 69.43916    -94.8 1.381e+04 2.905e-09
 69.44941    -94.5 1.381e+04 2.939e-09
 69.46004    -94.6 1.373e+04 2.785e-09
 69.48054    -95.3 1.323e+04 2.021e-09
 69.49612    -96.4 1.231e+04 1.260e-09
 69.51672    -95.3 1.256e+04 1.397e-09
 69.55250    -97.0 1.133e+04 7.550e-10
 69.59350    -98.9 1.052e+04 4.414e-10
 69.62752   -100.5 1.017e+04 3.515e-10
 69.64803    -99.8 1.013e+04 3.440e-10
 69.66465   -101.4 1.005e+04 3.300e-10
 69.68516   -100.0 9.855e+03 2.934e-10
 69.71652   -101.4 9.884e+03 2.965e-10
 69.75752   -102.6 9.996e+03 3.219e-10
 69.79853   -103.4 1.001e+04 3.343e-10
 69.82595   -103.8 9.857e+03 3.074e-10
 69.84001   -103.6 9.992e+03 3.506e-10
 69.85360   -102.1 1.012e+04 4.016e-10
 69.88054   -102.3 9.975e+03 3.392e-10
 69.92155   -102.5 9.856e+03 2.795e-10
 69.96255   -103.0 9.848e+03 2.642e-10
 70.00153   -105.2 1.008e+04 2.749e-10
 70.02204   -102.4 1.036e+04 3.690e-10
 70.02427   -107.4 1.084e+04 6.359e-10
 70.04478   -107.2 1.198e+04 7.998e-10
 70.07522   -113.4 1.463e+04 2.481e-09
 70.09563   -117.3 1.723e+04 5.553e-09
 70.10606   -122.1 1.863e+04 9.028e-09
 70.11332   -121.1 1.891e+04 9.601e-09
 70.12339   -120.3 1.868e+04 8.875e-09
 70.13663   -126.7 1.895e+04 9.858e-09
 70.15714   -133.6 1.769e+04 7.258e-09
 70.17764   -141.1 1.444e+04 2.831e-09
 70.19028   -148.0 1.114e+04 9.949e-10
 70.20053   -148.7 1.103e+04 8.574e-10
 70.21235   -152.0 9.944e+03 5.149e-10
 70.22260   -151.2 1.011e+04 5.549e-10
 70.23915   -152.7 9.678e+03 4.313e-10
 70.25965   -153.9 9.435e+03 3.471e-10
 70.29050   -155.1 9.158e+03 2.935e-10
 70.33161   -155.9 9.037e+03 2.820e-10
 70.35892   -156.7 9.024e+03 2.890e-10
 70.37942   -156.6 8.982e+03 2.854e-10
 70.40071   -156.7 9.084e+03 3.337e-10
 70.42122   -155.4 8.946e+03 2.968e-10
 70.45462   -155.3 9.063e+03 3.463e-10
 70.49563   -154.9 9.193e+03 3.974e-10
 70.52736   -154.4 9.237e+03 4.247e-10
 70.54786   -153.5 9.153e+03 4.028e-10
 70.57764   -153.1 9.153e+03 4.074e-10
 70.59914   -153.0 9.046e+03 3.867e-10
 70.61964   -152.2 9.196e+03 4.095e-10
 70.65965   -152.6 9.089e+03 3.944e-10
 70.69579   -153.3 9.050e+03 3.897e-10
 70.71630   -153.0 9.105e+03 3.948e-10
 70.74167   -156.1 9.533e+03 4.967e-10
 70.77232   -158.8 1.067e+04 9.395e-10
 70.78711   -161.4 1.208e+04 1.524e-09
 70.79471   -160.1 1.164e+04 1.355e-09
 70.80032   -160.2 1.122e+04 1.138e-09
 70.81323   -162.8 1.214e+04 1.607e-09
 70.83373   -165.5 1.298e+04 2.244e-09
 70.85424   -167.9 1.359e+04 2.914e-09
 70.87429   -170.0 1.386e+04 3.337e-09
 70.88454   -169.8 1.316e+04 2.659e-09
 70.88632   -171.6 1.330e+04 2.843e-09
 70.89658   -170.1 1.283e+04 2.337e-09
 70.91575   -171.6 1.292e+04 2.423e-09
 70.93625   -173.1 1.313e+04 2.537e-09
 70.95675   -174.9 1.371e+04 2.841e-09
 70.96876   -176.9 1.475e+04 3.567e-09
 70.97704   -177.7 1.580e+04 5.116e-09
 70.98553   -175.8 1.497e+04 3.646e-09
 70.99776   -177.7 1.660e+04 6.331e-09
 71.01826   -179.0 1.782e+04 9.916e-09
 71.03876   -180.7 1.849e+04 1.220e-08
 71.05298   -183.2 1.862e+04 1.258e-08
 71.06323   -182.9 1.974e+04 1.955e-08
 71.07449   -185.6 1.947e+04 1.603e-08
 71.08475   -184.3 1.984e+04 1.978e-08
 71.10027   -187.0 1.912e+04 1.138e-08
 71.12077   -191.3 1.783e+04 4.710e-09
 71.13720   -198.4 1.486e+04 1.464e-09
 71.14745   -197.1 1.638e+04 2.236e-09
 71.16178   -204.6 1.262e+04 8.585e-10
 71.17371   -207.9 1.127e+04 6.393e-10
 71.18396   -207.0 1.161e+04 6.528e-10
 71.20279   -208.6 1.097e+04 5.640e-10
 71.22142   -209.2 1.090e+04 5.547e-10
 71.23167   -209.7 1.082e+04 5.558e-10
 71.24379   -210.0 1.081e+04 5.548e-10
 71.26267   -210.2 1.090e+04 5.757e-10
 71.27292   -210.1 1.059e+04 5.081e-10
 71.28480   -210.2 1.065e+04 5.185e-10
 71.30530   -210.3 1.067e+04 5.222e-10
 71.31589   -210.2 1.067e+04 5.197e-10
 71.32614   -210.2 1.048e+04 4.844e-10
 71.34631   -209.8 1.046e+04 4.617e-10
 71.36188   -209.3 1.040e+04 4.259e-10
 71.37223   -208.7 1.025e+04 3.891e-10
 71.39006   -208.3 1.028e+04 3.522e-10
 71.41056   -207.9 1.025e+04 3.520e-10
 71.43877   -207.2 1.016e+04 3.056e-10
 71.47977   -205.9 9.999e+03 2.547e-10
 71.52078   -204.4 9.868e+03 2.105e-10
 71.55024   -202.6 9.790e+03 1.782e-10
 71.56746   -201.9 9.721e+03 1.582e-10
 71.57900   -201.5 9.821e+03 1.966e-10
 71.60279   -199.7 9.856e+03 1.758e-10
 71.64380   -197.8 9.908e+03 1.670e-10
 71.68480   -195.7 9.933e+03 1.652e-10
 71.72581   -193.7 1.005e+04 1.667e-10
 71.74744   -191.6 1.018e+04 1.723e-10
 71.74980   -191.0 1.019e+04 2.126e-10
 71.76917   -190.4 1.015e+04 1.868e-10
 71.80782   -188.2 1.025e+04 1.871e-10
 71.84882   -186.0 1.029e+04 1.896e-10
 71.88983   -183.8 1.028e+04 1.922e-10
 71.91588   -181.7 1.026e+04 1.929e-10
 71.93213   -181.0 1.042e+04 2.330e-10
 71.94709   -180.0 1.031e+04 1.811e-10
 71.97184   -177.8 1.026e+04 1.874e-10
 72.01285   -175.7 1.020e+04 1.944e-10
 72.05385   -173.5 1.013e+04 2.001e-10
 72.08432   -171.4 1.008e+04 2.026e-10
 72.10482   -170.7 1.033e+04 2.708e-10
 72.12501   -168.6 1.032e+04 2.792e-10
 72.14551   -167.3 1.019e+04 2.292e-10
 72.17687   -165.3 1.016e+04 2.487e-10
 72.21788   -163.3 1.015e+04 2.522e-10
 72.25276   -161.3 1.006e+04 2.231e-10
 72.27326   -160.5 1.035e+04 3.453e-10
 72.29989   -158.5 1.020e+04 2.943e-10
 72.32343   -156.4 1.005e+04 2.111e-10
 72.34394   -155.4 1.015e+04 3.201e-10
 72.38190   -153.4 9.971e+03 2.392e-10
 72.42120   -151.3 9.852e+03 1.624e-10
 72.44170   -150.5 1.002e+04 2.723e-10
 72.46391   -148.5 9.892e+03 1.868e-10
 72.50135   -146.6 9.868e+03 1.376e-10
 72.52186   -145.3 9.876e+03 2.416e-10
 72.54592   -143.3 9.841e+03 1.900e-10
 72.58693   -141.5 9.875e+03 1.650e-10
 72.61014   -139.8 9.909e+03 1.574e-10
 72.63064   -139.0 1.008e+04 2.073e-10
 72.66894   -137.5 1.012e+04 1.956e-10
 72.69978   -136.1 1.014e+04 1.915e-10
 72.72028   -134.5 1.009e+04 1.960e-10
 72.75095   -133.2 1.015e+04 1.900e-10
 72.77858   -132.0 1.018e+04 1.881e-10
 72.79908   -131.4 1.040e+04 2.297e-10
 72.83297   -130.4 1.049e+04 2.216e-10
 72.87397   -129.5 1.059e+04 2.040e-10
 72.89820   -128.7 1.058e+04 1.806e-10
 72.91870   -127.5 1.064e+04 2.791e-10
 72.94702   -126.7 1.061e+04 2.712e-10
 72.96752   -126.4 1.070e+04 2.995e-10
 72.99699   -125.6 1.058e+04 2.655e-10
 73.03800   -124.7 1.046e+04 2.317e-10
 73.07612   -123.5 1.032e+04 1.984e-10
 73.09662   -122.0 1.048e+04 2.771e-10
 73.11546   -120.7 1.037e+04 2.143e-10
 73.13596   -120.6 1.038e+04 2.181e-10
 73.16101   -119.2 1.030e+04 1.718e-10
 73.20202   -117.8 1.026e+04 1.413e-10
 73.24302   -116.4 1.031e+04 1.273e-10
 73.27454   -115.5 1.035e+04 1.251e-10
 73.29492   -114.5 1.051e+04 1.623e-10
 73.32491   -114.3 1.074e+04 1.581e-10
 73.36604   -114.5 1.118e+04 2.579e-10
 73.40705   -114.5 1.151e+04 4.911e-10
 73.44805   -114.5 1.186e+04 7.750e-10
 73.47284   -115.2 1.208e+04 9.342e-10
 73.49335   -113.1 1.185e+04 8.364e-10
 73.53007   -114.0 1.193e+04 8.811e-10
 73.57107   -115.3 1.198e+04 8.922e-10
 73.61208   -117.2 1.221e+04 9.474e-10
 73.64128   -119.8 1.245e+04 1.095e-09
 73.65959   -120.0 1.235e+04 1.092e-09
 73.67139   -117.7 1.295e+04 1.405e-09
 73.69409   -120.9 1.308e+04 1.594e-09
 73.72475   -123.8 1.273e+04 1.477e-09
 73.73556   -124.8 1.241e+04 1.364e-09
 73.74581   -124.5 1.240e+04 1.349e-09
 73.76015   -125.8 1.177e+04 1.030e-09
 73.77040   -125.4 1.196e+04 1.145e-09
 73.78616   -126.1 1.141e+04 7.588e-10
 73.80666   -127.0 1.091e+04 4.813e-10
 73.81978   -127.9 1.055e+04 3.293e-10
 73.83003   -128.0 1.058e+04 3.248e-10
 73.84921   -129.1 1.042e+04 2.621e-10
 73.86981   -129.0 1.043e+04 2.633e-10
 73.89912   -129.8 1.041e+04 2.534e-10
 73.94012   -130.9 1.056e+04 2.904e-10
 73.97816   -131.7 1.085e+04 4.419e-10
 73.99867   -131.9 1.092e+04 5.420e-10
 74.02214   -132.2 1.106e+04 6.674e-10
 74.04763   -132.5 1.106e+04 6.796e-10
 74.05779   -132.6 1.097e+04 6.108e-10
 74.07244   -132.7 1.088e+04 5.733e-10
 74.08269   -132.6 1.081e+04 5.642e-10
 74.09370   -132.7 1.071e+04 5.139e-10
 74.11420   -132.7 1.059e+04 4.623e-10
 74.13471   -132.8 1.046e+04 4.131e-10
 74.14675   -132.9 1.034e+04 3.738e-10
 74.15700   -133.0 1.029e+04 3.599e-10
 74.16701   -133.1 1.022e+04 3.406e-10
 74.18761   -132.8 1.035e+04 3.750e-10
 74.22565   -132.5 1.015e+04 3.362e-10
 74.24615   -132.5 9.998e+03 3.218e-10
 74.26817   -132.2 9.806e+03 3.062e-10
 74.30918   -131.7 9.627e+03 2.899e-10
 74.33555   -131.1 9.452e+03 2.765e-10
 74.35605   -130.4 9.563e+03 2.843e-10
 74.39119   -129.5 9.351e+03 2.568e-10
 74.42407   -128.4 9.157e+03 2.275e-10
 74.44458   -128.1 9.130e+03 2.366e-10
 74.47320   -126.9 8.948e+03 1.979e-10
 74.50399   -125.7 8.785e+03 1.644e-10
 74.52449   -125.0 8.895e+03 1.839e-10
 74.55521   -123.9 8.822e+03 1.643e-10
 74.59622   -123.0 8.821e+03 1.547e-10
 74.62250   -122.3 8.845e+03 1.518e-10
 74.64300   -122.0 8.815e+03 1.522e-10
 74.67243   -121.7 8.877e+03 1.534e-10
 74.69293   -121.5 9.190e+03 2.143e-10
 74.71924   -121.6 9.333e+03 2.309e-10
 74.76024   -121.9 9.525e+03 2.611e-10
 74.80042   -122.2 9.747e+03 3.098e-10
 74.82092   -121.6 9.698e+03 3.081e-10
 74.84087   -122.2 9.958e+03 3.714e-10
 74.86137   -123.2 1.023e+04 4.588e-10
 74.88326   -124.5 1.043e+04 5.328e-10
 74.92427   -126.2 1.061e+04 6.271e-10
 74.96527   -128.1 1.072e+04 6.830e-10
 74.99884   -130.0 1.075e+04 6.875e-10
 75.01934   -130.3 1.123e+04 8.309e-10
 75.02971   -131.9 1.071e+04 6.485e-10
 75.05021   -133.9 1.003e+04 4.674e-10
 75.08829   -135.1 9.767e+03 3.943e-10
 75.12930   -136.0 9.420e+03 3.384e-10
 75.17030   -136.5 9.308e+03 3.275e-10
 75.19726   -136.6 9.193e+03 3.242e-10
 75.20471   -136.7 9.163e+03 3.403e-10
 75.21875   -136.4 8.691e+03 2.280e-10
 75.25231   -135.6 8.518e+03 2.053e-10
 75.29332   -134.8 8.452e+03 1.980e-10
 75.33432   -133.9 8.445e+03 1.971e-10
 75.36669   -133.4 8.489e+03 2.030e-10
 75.38704   -133.4 8.355e+03 1.723e-10
 75.41619   -133.3 8.348e+03 1.725e-10
 75.45734   -133.6 8.532e+03 2.044e-10
 75.49835   -134.6 9.027e+03 2.752e-10
 75.53513   -136.8 9.856e+03 4.307e-10
 75.55563   -137.7 1.027e+04 5.491e-10
 75.57360   -140.9 1.108e+04 8.770e-10
 75.59411   -139.9 1.052e+04 6.609e-10
 75.62137   -143.1 1.096e+04 8.814e-10
 75.66237   -146.3 1.105e+04 9.568e-10
 75.70338   -148.9 1.086e+04 9.233e-10
 75.74438   -151.1 1.014e+04 5.801e-10
 75.77203   -151.9 9.486e+03 3.337e-10
 75.79253   -149.8 9.367e+03 3.266e-10
 75.82640   -150.3 9.031e+03 2.138e-10
 75.86740   -150.4 8.903e+03 1.616e-10
 75.89251   -150.3 8.904e+03 1.403e-10
 75.91301   -150.1 8.754e+03 1.226e-10
 75.94941   -149.8 8.775e+03 1.143e-10
 75.97045   -149.4 8.787e+03 1.130e-10
 75.99095   -147.4 8.753e+03 1.164e-10
 76.03142   -147.2 8.778e+03 1.164e-10
 76.06095   -147.6 9.227e+03 1.342e-10
 76.08145   -147.2 9.111e+03 1.231e-10
 76.11344   -147.9 9.643e+03 2.005e-10
 76.14837   -148.5 1.010e+04 3.345e-10
 76.16887   -146.5 9.941e+03 3.085e-10
 76.19545   -147.2 1.033e+04 4.344e-10
 76.22939   -147.8 1.051e+04 5.041e-10
 76.24989   -147.8 1.052e+04 5.035e-10
 76.27746   -148.1 1.052e+04 5.117e-10
 76.31847   -148.1 1.034e+04 4.409e-10
 76.34679   -147.6 1.007e+04 2.984e-10
 76.36730   -146.1 1.024e+04 3.603e-10
 76.39783   -145.2 9.964e+03 2.409e-10
 76.41833   -145.0 9.912e+03 2.214e-10
 76.44148   -143.7 9.727e+03 1.497e-10
 76.48249   -142.2 9.710e+03 1.133e-10
 76.52350   -140.8 9.820e+03 9.582e-11
 76.54522   -139.3 9.922e+03 8.957e-11
 76.56572   -138.0 9.936e+03 1.003e-10
 76.58677   -136.5 9.997e+03 9.733e-11
 76.60728   -136.3 1.002e+04 9.818e-11
 76.64651   -134.9 1.005e+04 9.789e-11
 76.68752   -133.6 1.007e+04 9.840e-11
 76.72314   -132.3 1.007e+04 9.901e-11
 76.74364   -131.1 1.010e+04 1.095e-10
 76.75521   -129.8 1.005e+04 1.098e-10
 76.77572   -129.6 9.930e+03 1.069e-10
 76.81054   -128.2 9.808e+03 1.031e-10
 76.85154   -126.7 9.712e+03 9.840e-11
 76.89255   -125.2 9.661e+03 9.503e-11
 76.92156   -123.7 9.654e+03 9.414e-11
 76.93216   -122.7 9.699e+03 1.182e-10
 76.94416   -122.2 9.610e+03 9.792e-11
 76.97456   -120.8 9.616e+03 9.803e-11
 77.01557   -119.5 9.692e+03 1.066e-10
 77.05657   -118.3 9.779e+03 1.270e-10
 77.09209   -117.2 9.868e+03 1.533e-10
 77.11260   -116.6 9.832e+03 1.483e-10
 77.11998   -115.5 9.926e+03 1.804e-10
 77.14048   -114.5 9.822e+03 1.609e-10
 77.17959   -113.4 9.921e+03 1.798e-10
 77.22060   -112.5 1.005e+04 2.072e-10
 77.26053   -111.7 1.017e+04 2.471e-10
 77.28104   -110.8 1.003e+04 2.105e-10
 77.29790   -110.0 1.008e+04 2.378e-10
 77.31840   -109.2 1.007e+04 2.160e-10
 77.34361   -108.5 1.012e+04 2.597e-10
 77.38462   -107.6 1.014e+04 2.926e-10
 77.42563   -106.6 1.016e+04 3.116e-10
 77.44948   -105.7 1.016e+04 3.282e-10
 77.46998   -104.5 9.963e+03 2.657e-10
 77.49632   -103.6 9.974e+03 2.945e-10
 77.51683   -103.2 9.945e+03 2.887e-10
 77.54864   -102.5 1.016e+04 3.719e-10
 77.58965   -101.9 1.081e+04 5.790e-10
 77.61792   -101.6 1.160e+04 9.746e-10
 77.63842   -100.5 1.091e+04 6.085e-10
 77.67166   -100.1 1.144e+04 9.061e-10
 77.69475   -100.1 1.195e+04 1.266e-09
 77.71525    -99.5 1.163e+04 1.045e-09
 77.74332   -100.8 1.201e+04 1.360e-09
 77.76373   -103.0 1.384e+04 2.193e-09
 77.78351   -105.9 1.621e+04 4.431e-09
 77.79376   -105.6 1.642e+04 4.537e-09
 77.79641   -108.3 1.819e+04 9.081e-09
 77.80666   -109.3 1.952e+04 1.862e-08
 77.82006   -110.3 1.996e+04 2.247e-08
 77.83027   -111.3 2.029e+04 2.538e-08
 77.83815   -112.6 2.037e+04 2.621e-08
 77.84118   -112.8 2.044e+04 2.625e-08
 77.84355   -112.8 2.104e+04 3.877e-08
 77.85077   -113.8 2.033e+04 2.926e-08
 77.86619   -114.8 1.921e+04 1.945e-08
 77.88063   -116.8 1.718e+04 9.183e-09
 77.88571   -116.3 1.749e+04 8.393e-09
 77.88775   -117.9 1.642e+04 5.484e-09
 77.89288   -118.1 1.635e+04 5.346e-09
 77.90720   -119.8 1.524e+04 3.417e-09
 77.92775   -122.8 1.226e+04 1.376e-09
 77.94825   -124.6 1.055e+04 7.007e-10
 77.96485   -125.0 9.948e+03 5.114e-10
 77.97510   -125.0 9.763e+03 3.956e-10
 77.98193   -124.9 9.563e+03 3.478e-10
 77.99219   -124.6 9.567e+03 3.494e-10
 78.00976   -124.1 9.495e+03 3.211e-10
 78.04062   -123.7 9.413e+03 2.929e-10
 78.07109   -122.5 9.213e+03 2.521e-10
 78.09159   -122.1 9.229e+03 2.552e-10
 78.12273   -120.8 9.111e+03 2.350e-10
 78.14374   -119.5 9.091e+03 2.318e-10
 78.16424   -119.3 8.707e+03 1.653e-10
 78.20474   -118.1 8.731e+03 1.663e-10
 78.24574   -117.2 8.897e+03 1.851e-10
 78.26951   -116.5 9.151e+03 2.314e-10
 78.29002   -116.1 9.088e+03 2.201e-10
 78.31218   -115.4 9.315e+03 2.671e-10
 78.33268   -115.0 9.013e+03 2.052e-10
 78.36876   -114.2 9.281e+03 2.717e-10
 78.40977   -113.4 9.576e+03 3.486e-10
 78.44743   -112.6 9.857e+03 4.172e-10
 78.46794   -112.4 9.789e+03 3.706e-10
 78.48062   -111.8 1.005e+04 4.379e-10
 78.50112   -111.4 1.006e+04 4.631e-10
 78.53278   -110.9 1.038e+04 5.747e-10
 78.55680   -110.7 1.056e+04 6.399e-10
 78.56695   -110.8 1.056e+04 6.623e-10
 78.57489   -110.5 1.074e+04 7.579e-10
 78.58514   -110.4 1.086e+04 8.284e-10
 78.60435   -110.2 1.106e+04 9.301e-10
 78.62485   -110.0 1.121e+04 1.012e-09
 78.64535   -109.9 1.130e+04 1.069e-09
 78.65591   -109.7 1.136e+04 1.104e-09
 78.65942   -109.8 1.140e+04 1.117e-09
 78.66936   -109.7 1.151e+04 1.185e-09
 78.68636   -109.5 1.154e+04 1.198e-09
 78.70686   -109.3 1.154e+04 1.201e-09
 78.72737   -109.0 1.148e+04 1.191e-09
 78.74333   -108.6 1.138e+04 1.137e-09
 78.75059   -108.7 1.134e+04 1.125e-09
 78.75512   -108.6 1.111e+04 9.847e-10
 78.76837   -108.1 1.093e+04 8.785e-10
 78.78888   -107.5 1.073e+04 7.602e-10
 78.80938   -106.9 1.054e+04 6.435e-10
 78.82755   -106.3 1.038e+04 5.385e-10
 78.83780   -106.7 1.023e+04 4.869e-10
 78.84408   -106.2 1.015e+04 4.399e-10
 78.86468   -106.0 9.912e+03 3.535e-10
 78.90184   -104.6 9.877e+03 3.328e-10
 78.94284   -103.3 9.886e+03 3.296e-10
 78.98385   -102.2 1.002e+04 3.567e-10
 79.00644   -101.2 1.016e+04 3.929e-10
 79.02429   -101.4 1.012e+04 4.088e-10
 79.04270   -100.7 9.813e+03 2.949e-10
 79.06586    -99.7 9.848e+03 3.017e-10
 79.10687    -98.6 9.836e+03 2.985e-10
 79.14787    -97.4 9.740e+03 2.666e-10
 79.17488    -96.0 9.627e+03 2.275e-10
 79.19538    -96.0 9.503e+03 2.168e-10
 79.22062    -94.6 9.452e+03 1.905e-10
 79.24112    -93.7 9.449e+03 1.930e-10
 79.27089    -92.2 9.436e+03 1.797e-10
 79.31190    -90.6 9.423e+03 1.634e-10
 79.34332    -89.0 9.415e+03 1.458e-10
 79.36382    -89.1 9.409e+03 1.657e-10
 79.39391    -87.5 9.430e+03 1.553e-10
 79.41904    -85.8 9.469e+03 1.477e-10
 79.43955    -84.8 9.483e+03 1.558e-10
 79.47592    -83.2 9.501e+03 1.540e-10
 79.51176    -81.8 9.607e+03 1.536e-10
 79.53226    -82.0 9.663e+03 1.867e-10
 79.55793    -80.6 9.800e+03 1.942e-10
 79.59696    -79.2 9.985e+03 2.126e-10
 79.61747    -78.4 1.028e+04 2.817e-10
 79.63994    -77.1 1.053e+04 3.375e-10
 79.68020    -76.2 1.066e+04 3.929e-10
 79.70070    -76.5 1.047e+04 3.235e-10
 79.72195    -75.5 1.057e+04 3.837e-10
 79.76296    -74.3 1.063e+04 4.554e-10
 79.79539    -73.1 1.073e+04 5.374e-10
 79.81589    -73.0 1.061e+04 5.015e-10
 79.84497    -71.3 1.056e+04 4.809e-10
 79.86914    -69.8 1.046e+04 4.203e-10
 79.88964    -69.6 1.045e+04 4.092e-10
 79.92698    -67.8 1.029e+04 3.356e-10
 79.96799    -65.9 1.025e+04 2.835e-10
 79.99381    -64.0 1.027e+04 2.662e-10
 80.01431    -63.5 9.965e+03 1.925e-10
 80.03758    -61.7 1.008e+04 2.034e-10
 80.05808    -61.4 1.006e+04 2.004e-10
 80.09101    -60.1 1.072e+04 3.414e-10
 80.13201    -58.7 1.166e+04 7.269e-10
 80.16267    -57.7 1.240e+04 1.250e-09
 80.18179    -57.5 1.309e+04 1.798e-09
 80.19204    -57.4 1.309e+04 1.932e-09
 80.20358    -57.4 1.445e+04 3.334e-09
 80.21608    -57.5 1.619e+04 6.060e-09
 80.22633    -58.8 1.646e+04 6.581e-09
 80.24458    -58.9 1.784e+04 1.084e-08
 80.26509    -59.4 1.904e+04 1.585e-08
 80.28042    -60.7 1.994e+04 2.084e-08
 80.28603    -61.2 2.030e+04 2.261e-08
 80.29115    -62.1 2.067e+04 2.733e-08
 80.30020    -63.4 2.126e+04 3.178e-08
 80.30533    -64.6 2.101e+04 2.637e-08
 80.31112    -66.3 2.151e+04 2.762e-08
 80.32137    -68.0 2.208e+04 2.892e-08
 80.33051    -70.2 2.254e+04 2.956e-08
 80.33563    -70.7 2.252e+04 2.910e-08
 80.34188    -73.6 2.281e+04 2.823e-08
 80.34744    -76.4 2.278e+04 2.395e-08
 80.35256    -78.3 2.117e+04 1.734e-08
 80.36238    -81.6 2.010e+04 1.348e-08
 80.37263    -83.5 1.923e+04 1.096e-08
 80.38011    -86.5 1.800e+04 7.447e-09
 80.38524    -86.4 1.820e+04 8.103e-09
 80.38955    -87.8 1.752e+04 6.323e-09
 80.39467    -88.5 1.676e+04 5.124e-09
 80.40856    -92.3 1.512e+04 3.118e-09
 80.42911    -95.1 1.416e+04 2.237e-09
 80.44961    -97.7 1.334e+04 1.716e-09
 80.46874    -99.1 1.286e+04 1.484e-09
 80.47804    -98.9 1.220e+04 1.137e-09
 80.47942    -98.3 1.277e+04 1.486e-09
 80.49062    -98.6 1.257e+04 1.404e-09
 80.51112    -98.6 1.252e+04 1.387e-09
 80.53163    -98.4 1.252e+04 1.374e-09
 80.55213    -97.9 1.248e+04 1.319e-09
 80.56321    -97.4 1.243e+04 1.228e-09
 80.56921    -97.0 1.228e+04 1.115e-09
 80.57863    -96.7 1.249e+04 1.217e-09
 80.59313    -96.2 1.241e+04 1.140e-09
 80.61364    -95.7 1.237e+04 1.109e-09
 80.63414    -95.0 1.236e+04 1.104e-09
 80.64743    -94.4 1.243e+04 1.149e-09
 80.65768    -94.4 1.239e+04 1.076e-09
 80.66759    -93.7 1.262e+04 1.221e-09
 80.67784    -93.1 1.271e+04 1.308e-09
 80.70600    -93.1 1.289e+04 1.424e-09
 80.73184    -92.1 1.304e+04 1.561e-09
 80.75174    -92.5 1.289e+04 1.378e-09
 80.76700    -90.5 1.270e+04 1.343e-09
 80.78811    -89.7 1.301e+04 1.534e-09
 80.82911    -88.7 1.328e+04 1.654e-09
 80.85586    -88.8 1.334e+04 1.665e-09
 80.86601    -88.1 1.336e+04 1.681e-09
 80.88018    -87.8 1.336e+04 1.647e-09
 80.90009    -87.5 1.341e+04 1.577e-09
 80.91034    -87.8 1.364e+04 1.722e-09
 80.92118    -87.6 1.368e+04 1.693e-09
 80.94168    -87.5 1.366e+04 1.653e-09
 80.95497    -87.2 1.358e+04 1.582e-09
 80.96523    -87.1 1.415e+04 2.305e-09
 80.98269    -86.8 1.413e+04 2.336e-09
 80.99456    -86.4 1.408e+04 2.354e-09
 81.00481    -86.6 1.420e+04 2.943e-09
 81.02370    -86.0 1.398e+04 2.770e-09
 81.04393    -85.2 1.374e+04 2.522e-09
 81.05419    -84.9 1.459e+04 4.119e-09
 81.06470    -84.1 1.444e+04 3.685e-09
 81.07878    -83.5 1.431e+04 3.322e-09
 81.08903    -83.5 1.361e+04 2.654e-09
 81.10571    -82.9 1.339e+04 2.319e-09
 81.12621    -82.3 1.326e+04 2.117e-09
 81.14315    -81.7 1.318e+04 2.002e-09
 81.15340    -82.1 1.385e+04 2.546e-09
 81.16300    -81.4 1.384e+04 2.517e-09
 81.17325    -81.1 1.301e+04 1.755e-09
 81.18772    -80.2 1.308e+04 1.790e-09
 81.20822    -79.4 1.320e+04 1.852e-09
 81.22873    -78.6 1.332e+04 1.914e-09
 81.24236    -77.7 1.345e+04 1.966e-09
 81.25060    -78.5 1.401e+04 2.491e-09
 81.25747    -77.9 1.315e+04 1.686e-09
 81.26973    -77.1 1.329e+04 1.747e-09
 81.29023    -76.6 1.347e+04 1.861e-09
 81.31074    -76.2 1.372e+04 2.052e-09
 81.33124    -76.1 1.400e+04 2.332e-09
 81.34169    -76.8 1.456e+04 3.487e-09
 81.35194    -75.9 1.404e+04 2.686e-09
 81.37225    -76.0 1.448e+04 3.238e-09
 81.39275    -76.2 1.513e+04 3.999e-09
 81.41325    -76.7 1.592e+04 5.029e-09
 81.42591    -77.1 1.664e+04 6.113e-09
 81.43294    -76.1 1.630e+04 5.800e-09
 81.44078    -75.7 1.563e+04 4.540e-09
 81.45426    -76.2 1.607e+04 4.768e-09
 81.47476    -77.0 1.628e+04 4.736e-09
 81.49526    -77.9 1.631e+04 4.437e-09
 81.51013    -78.8 1.599e+04 3.897e-09
 81.52038    -77.1 1.622e+04 4.499e-09
 81.52974    -77.9 1.572e+04 3.663e-09
 81.53999    -78.4 1.536e+04 3.019e-09
 81.55677    -79.4 1.530e+04 3.309e-09
 81.57728    -80.0 1.546e+04 3.965e-09
 81.59435    -80.0 1.575e+04 5.088e-09
 81.60460    -79.0 1.566e+04 4.303e-09
 81.61828    -78.9 1.592e+04 5.491e-09
 81.62895    -78.7 1.622e+04 6.678e-09
 81.63920    -78.4 1.676e+04 8.419e-09
 81.65929    -78.6 1.733e+04 9.372e-09
 81.67857    -80.7 1.825e+04 1.052e-08
 81.68882    -79.7 1.806e+04 1.040e-08
 81.70029    -82.7 1.923e+04 1.269e-08
 81.71791    -86.1 2.038e+04 1.740e-08
 81.72816    -86.6 2.025e+04 1.650e-08
 81.73612    -88.3 2.086e+04 2.177e-08
 81.74633    -89.4 2.112e+04 2.484e-08
 81.75658    -90.7 2.128e+04 2.771e-08
 81.76683    -91.8 2.132e+04 2.847e-08
 81.77255    -93.2 2.116e+04 2.857e-08
 81.77353    -93.4 2.098e+04 2.746e-08
 81.78324    -93.4 2.064e+04 2.388e-08
 81.80281    -94.5 1.949e+04 1.870e-08
 81.81712    -95.0 1.804e+04 1.203e-08
 81.82737    -94.7 1.761e+04 1.050e-08
 81.84381    -94.9 1.633e+04 6.692e-09
 81.85726    -95.1 1.531e+04 4.620e-09
 81.86751    -94.8 1.522e+04 4.637e-09
 81.88482    -94.8 1.473e+04 3.808e-09
 81.90532    -94.5 1.455e+04 3.492e-09
 81.91633    -93.9 1.453e+04 3.445e-09
 81.92659    -93.2 1.384e+04 2.489e-09
 81.94148    -92.9 1.388e+04 2.505e-09
 81.95173    -92.7 1.402e+04 2.716e-09
 81.96683    -92.5 1.430e+04 2.909e-09
 81.98733    -92.5 1.467e+04 3.312e-09
 82.00529    -92.5 1.502e+04 3.869e-09
 82.01555    -91.6 1.397e+04 2.464e-09
 82.02570    -91.6 1.430e+04 2.935e-09
 82.03595    -91.4 1.441e+04 3.217e-09
 82.04884    -91.4 1.469e+04 3.770e-09
 82.06935    -91.3 1.486e+04 4.270e-09
 82.08985    -91.1 1.488e+04 4.488e-09
 82.10451    -90.8 1.477e+04 4.356e-09
 82.11433    -89.8 1.460e+04 3.956e-09
 82.12017    -89.6 1.479e+04 4.431e-09
 82.13086    -89.4 1.478e+04 4.431e-09
 82.15136    -89.3 1.482e+04 4.255e-09
 82.17186    -89.7 1.494e+04 4.020e-09
 82.19236    -90.7 1.537e+04 3.866e-09
 82.20372    -92.2 1.585e+04 4.177e-09
 82.20550    -92.3 1.687e+04 7.175e-09
 82.21464    -91.0 1.658e+04 6.075e-09
 82.23337    -92.4 1.722e+04 7.745e-09
 82.25387    -93.4 1.759e+04 9.989e-09
 82.27438    -93.9 1.757e+04 1.163e-08
 82.28861    -94.0 1.744e+04 1.207e-08
 82.29666    -93.3 1.704e+04 8.874e-09
 82.30293    -93.0 1.828e+04 1.538e-08
 82.31538    -92.9 1.745e+04 1.274e-08
 82.33588    -92.5 1.639e+04 8.335e-09
 82.35639    -92.3 1.537e+04 5.040e-09
 82.37283    -92.5 1.455e+04 3.305e-09
 82.38308    -91.7 1.442e+04 3.027e-09
 82.39189    -91.8 1.386e+04 2.201e-09
 82.40214    -92.1 1.383e+04 2.181e-09
 82.41790    -92.0 1.337e+04 1.733e-09
 82.43840    -91.4 1.304e+04 1.469e-09
 82.45705    -90.6 1.286e+04 1.295e-09
 82.46730    -89.9 1.274e+04 1.204e-09
 82.47941    -89.2 1.263e+04 1.080e-09
 82.49110    -88.6 1.252e+04 9.624e-10
 82.50135    -88.5 1.249e+04 9.301e-10
 82.52041    -87.9 1.232e+04 8.215e-10
 82.55126    -87.0 1.211e+04 7.083e-10
 82.59237    -85.1 1.177e+04 5.578e-10
 82.62569    -83.1 1.150e+04 4.172e-10
 82.64619    -81.5 1.150e+04 4.374e-10
 82.66922    -79.8 1.137e+04 3.525e-10
 82.68972    -79.4 1.137e+04 3.337e-10
 82.71538    -77.8 1.126e+04 2.534e-10
 82.75639    -76.2 1.119e+04 1.923e-10
 82.79413    -74.6 1.114e+04 1.497e-10
 82.81463    -73.3 1.106e+04 1.924e-10
 82.83840    -71.8 1.107e+04 1.526e-10
 82.86764    -70.2 1.108e+04 1.296e-10
 82.88814    -70.0 1.110e+04 1.291e-10
 82.92041    -68.5 1.107e+04 1.202e-10
 82.96142    -66.9 1.105e+04 1.186e-10
 82.98307    -65.5 1.105e+04 1.195e-10
 83.00357    -64.5 1.100e+04 1.477e-10
 83.04343    -63.1 1.103e+04 1.504e-10
 83.06606    -61.8 1.108e+04 1.621e-10
 83.08656    -61.9 1.113e+04 1.632e-10
 83.12544    -60.7 1.112e+04 1.700e-10
 83.15151    -59.5 1.112e+04 1.713e-10
 83.17201    -58.3 1.107e+04 1.807e-10
 83.20745    -57.1 1.105e+04 1.620e-10
 83.24398    -55.9 1.105e+04 1.446e-10
 83.26448    -56.2 1.107e+04 1.448e-10
 83.28947    -55.1 1.109e+04 1.365e-10
 83.31995    -53.9 1.108e+04 1.351e-10
 83.34045    -52.9 1.112e+04 1.244e-10
 83.37148    -51.7 1.111e+04 1.258e-10
 83.41248    -50.6 1.108e+04 1.312e-10
 83.44240    -49.6 1.108e+04 1.404e-10
 83.46291    -49.8 1.111e+04 1.460e-10
 83.48839    -49.0 1.117e+04 1.631e-10
 83.50889    -48.3 1.122e+04 1.534e-10
 83.53550    -47.8 1.130e+04 1.857e-10
 83.57651    -47.5 1.144e+04 2.341e-10
 83.61751    -47.4 1.162e+04 3.012e-10
 83.64083    -47.5 1.185e+04 3.945e-10
 83.65964    -47.9 1.189e+04 4.013e-10
 83.67733    -47.4 1.171e+04 4.052e-10
 83.69953    -47.9 1.196e+04 5.245e-10
 83.72969    -48.1 1.214e+04 6.213e-10
 83.73984    -48.5 1.215e+04 6.368e-10
 83.75059    -49.2 1.221e+04 7.139e-10
 83.76136    -50.0 1.224e+04 8.127e-10
 83.77161    -49.5 1.216e+04 7.048e-10
 83.79159    -50.2 1.221e+04 7.205e-10
 83.81210    -51.0 1.222e+04 7.238e-10
 83.82880    -51.8 1.220e+04 7.194e-10
 83.83905    -52.0 1.214e+04 7.437e-10
 83.84558    -52.8 1.209e+04 7.294e-10
 83.86618    -53.0 1.193e+04 5.277e-10
 83.89421    -54.2 1.196e+04 5.629e-10
 83.91461    -55.1 1.203e+04 5.789e-10
 83.92801    -56.0 1.215e+04 6.514e-10
 83.93295    -56.2 1.221e+04 7.230e-10
 83.94005    -55.9 1.208e+04 5.656e-10
 83.95562    -56.7 1.226e+04 6.871e-10
 83.97612    -57.5 1.242e+04 8.389e-10
 83.99662    -58.1 1.249e+04 9.874e-10
 84.01402    -58.7 1.243e+04 1.069e-09
 84.02412    -58.0 1.228e+04 9.239e-10
 84.02723    -58.1 1.239e+04 1.089e-09
 84.03763    -58.4 1.236e+04 1.124e-09
 84.05813    -58.6 1.214e+04 1.112e-09
 84.07863    -58.7 1.181e+04 9.408e-10
 84.09824    -58.9 1.154e+04 7.137e-10
 84.10849    -58.3 1.170e+04 8.045e-10
 84.11619    -58.5 1.143e+04 6.026e-10
 84.12644    -59.0 1.144e+04 6.307e-10
 84.14014    -59.2 1.123e+04 4.890e-10
 84.16065    -59.3 1.112e+04 4.293e-10
 84.18255    -59.3 1.104e+04 3.872e-10
 84.20316    -57.6 1.117e+04 4.361e-10
 84.21559    -57.3 1.096e+04 3.614e-10
 84.23610    -57.6 1.098e+04 4.282e-10
 84.27361    -57.1 1.103e+04 4.489e-10
 84.30426    -56.3 1.108e+04 4.636e-10
 84.31461    -56.4 1.122e+04 5.492e-10
 84.32486    -56.6 1.142e+04 7.126e-10
 84.35099    -56.2 1.150e+04 7.946e-10
 84.37150    -54.9 1.143e+04 7.801e-10
 84.39342    -54.3 1.164e+04 8.362e-10
 84.41402    -55.6 1.227e+04 1.330e-09
 84.43763    -56.2 1.332e+04 2.159e-09
 84.46829    -56.2 1.396e+04 2.829e-09
 84.48869    -57.8 1.478e+04 4.296e-09
 84.50278    -58.8 1.526e+04 5.876e-09
 84.51303    -59.7 1.543e+04 6.308e-09
 84.52959    -60.5 1.549e+04 6.690e-09
 84.53984    -60.0 1.625e+04 9.552e-09
 84.55020    -60.7 1.624e+04 9.610e-09
 84.57071    -61.2 1.580e+04 8.096e-09
 84.59121    -61.8 1.502e+04 5.269e-09
 84.60199    -62.9 1.409e+04 2.957e-09
 84.61224    -64.4 1.361e+04 1.953e-09
 84.62406    -66.2 1.249e+04 1.106e-09
 84.63431    -65.4 1.305e+04 1.509e-09
 84.65272    -67.2 1.205e+04 9.419e-10
 84.68357    -68.2 1.119e+04 6.680e-10
 84.70847    -67.7 1.074e+04 5.312e-10
 84.72898    -67.4 1.123e+04 7.616e-10
 84.76568    -66.5 1.083e+04 5.933e-10
 84.79036    -65.4 1.062e+04 4.843e-10
 84.81086    -65.7 1.061e+04 4.814e-10
 84.84769    -64.6 1.047e+04 3.983e-10
 84.87691    -63.5 1.031e+04 3.307e-10
 84.89742    -63.2 1.031e+04 3.052e-10
 84.92970    -62.0 1.022e+04 2.596e-10
 84.96828    -60.7 1.020e+04 2.409e-10
 84.98878    -61.1 1.011e+04 2.265e-10
 85.01171    -59.9 1.011e+04 2.204e-10
 85.04535    -58.8 1.014e+04 2.233e-10
 85.06586    -58.6 1.022e+04 2.392e-10
 85.09373    -57.5 1.031e+04 2.584e-10
 85.13473    -56.4 1.040e+04 2.633e-10
 85.16670    -55.5 1.048e+04 2.434e-10
 85.18720    -55.8 1.018e+04 1.249e-10
 85.21379    -55.2 1.019e+04 1.034e-10
 85.23430    -55.3 1.035e+04 1.395e-10
 85.25775    -54.9 1.039e+04 1.338e-10
 85.29876    -54.5 1.040e+04 1.327e-10
 85.33976    -53.8 1.042e+04 1.325e-10
 85.36512    -53.0 1.044e+04 1.294e-10
 85.38563    -52.3 1.012e+04 9.989e-11
 85.40274    -51.6 1.040e+04 1.053e-10
 85.42324    -52.1 1.047e+04 1.354e-10
 85.46278    -51.5 1.056e+04 1.690e-10
 85.50378    -50.8 1.070e+04 2.314e-10
 85.54304    -50.1 1.092e+04 3.282e-10
 85.56355    -49.9 1.126e+04 5.093e-10
 85.57118    -49.2 1.159e+04 6.943e-10
 85.59168    -49.7 1.148e+04 5.413e-10
 85.62680    -49.6 1.159e+04 5.701e-10
 85.66781    -49.7 1.172e+04 5.358e-10
 85.70881    -50.1 1.170e+04 4.408e-10
 85.73962    -50.7 1.168e+04 3.686e-10
 85.75177    -51.5 1.156e+04 3.318e-10
 85.76197    -51.5 1.148e+04 2.840e-10
 85.79083    -51.6 1.141e+04 2.525e-10
 85.83183    -51.7 1.134e+04 2.354e-10
 85.87284    -51.8 1.129e+04 2.308e-10
 85.90806    -51.9 1.122e+04 2.376e-10
 85.92856    -52.1 1.120e+04 2.523e-10
 85.93989    -52.1 1.119e+04 2.765e-10
 85.96039    -51.9 1.132e+04 2.942e-10
 85.99586    -51.7 1.139e+04 3.485e-10
 86.03686    -51.5 1.147e+04 3.947e-10
 86.07650    -51.2 1.152e+04 4.154e-10
 86.09700    -51.3 1.157e+04 4.355e-10
 86.11781    -51.1 1.155e+04 4.309e-10
 86.13831    -50.8 1.153e+04 4.194e-10
 86.15988    -50.5 1.145e+04 3.829e-10
 86.20088    -50.1 1.136e+04 3.466e-10
 86.24189    -49.5 1.125e+04 3.170e-10
 86.26544    -48.6 1.113e+04 2.941e-10
 86.28594    -48.4 1.105e+04 2.716e-10
 86.31623    -47.2 1.091e+04 2.441e-10
 86.33674    -46.9 1.092e+04 2.378e-10
 86.36491    -45.7 1.076e+04 2.138e-10
 86.40591    -44.4 1.059e+04 1.790e-10
 86.43388    -43.2 1.044e+04 1.435e-10
 86.45438    -43.0 1.045e+04 1.235e-10
 86.48793    -42.0 1.034e+04 1.109e-10
 86.51466    -40.9 1.024e+04 1.060e-10
 86.53516    -40.4 1.028e+04 1.040e-10
 86.56994    -39.4 1.022e+04 1.033e-10
 86.60232    -38.3 1.015e+04 1.039e-10
 86.62282    -38.1 1.019e+04 1.243e-10
 86.65195    -37.0 1.013e+04 1.243e-10
 86.69258    -36.0 1.011e+04 1.221e-10
 86.71308    -35.4 1.014e+04 1.178e-10
 86.73396    -34.5 1.016e+04 1.169e-10
 86.77076    -34.0 1.029e+04 1.282e-10
 86.79126    -33.9 1.035e+04 1.381e-10
 86.81597    -33.7 1.044e+04 1.816e-10
 86.85698    -33.3 1.041e+04 2.517e-10
 86.89100    -32.7 1.035e+04 3.117e-10
 86.91150    -31.8 1.051e+04 3.252e-10
 86.93899    -31.1 1.043e+04 3.731e-10
 86.95970    -30.3 1.039e+04 3.830e-10
 86.98020    -30.4 1.036e+04 3.688e-10
 87.02100    -29.6 1.025e+04 3.473e-10
 87.06201    -28.7 1.015e+04 3.061e-10
 87.08942    -27.9 1.008e+04 2.611e-10
 87.10992    -27.3 1.029e+04 3.427e-10
 87.12814    -26.4 1.020e+04 2.998e-10
 87.14864    -26.6 1.012e+04 2.219e-10
 87.18503    -25.8 1.007e+04 1.938e-10
 87.22603    -25.0 1.008e+04 1.826e-10
 87.26704    -24.4 1.010e+04 1.811e-10
 87.28784    -23.9 1.024e+04 2.170e-10
 87.29689    -23.7 1.060e+04 3.194e-10
 87.31708    -24.5 1.056e+04 3.130e-10
 87.34905    -24.2 1.081e+04 3.726e-10
 87.39006    -24.0 1.104e+04 4.376e-10
 87.43106    -24.0 1.121e+04 5.090e-10
 87.46502    -23.9 1.132e+04 5.866e-10
 87.47922    -24.4 1.108e+04 3.864e-10
 87.48627    -24.7 1.145e+04 6.005e-10
 87.51307    -24.3 1.145e+04 6.404e-10
 87.55408    -24.0 1.144e+04 6.204e-10
 87.59508    -24.0 1.151e+04 5.653e-10
 87.63346    -24.3 1.173e+04 5.813e-10
 87.65396    -25.6 1.239e+04 7.936e-10
 87.66419    -26.1 1.324e+04 1.416e-09
 87.68469    -25.2 1.264e+04 9.396e-10
 87.70775    -25.6 1.290e+04 1.149e-09
 87.72774    -25.9 1.322e+04 1.390e-09
 87.73799    -26.5 1.387e+04 2.012e-09
 87.74866    -26.6 1.449e+04 3.042e-09
 87.76320    -26.7 1.492e+04 3.807e-09
 87.77345    -26.5 1.408e+04 2.155e-09
 87.78967    -26.5 1.435e+04 2.530e-09
 87.81017    -26.6 1.443e+04 2.770e-09
 87.82221    -26.6 1.442e+04 2.971e-09
 87.83246    -27.0 1.480e+04 4.395e-09
 87.85118    -26.9 1.456e+04 4.236e-09
 87.86241    -26.8 1.439e+04 4.112e-09
 87.87267    -26.8 1.418e+04 2.820e-09
 87.89218    -26.8 1.416e+04 2.978e-09
 87.90643    -26.8 1.407e+04 3.133e-09
 87.91668    -27.1 1.432e+04 4.182e-09
 87.93319    -27.0 1.440e+04 4.335e-09
 87.95137    -27.0 1.455e+04 4.503e-09
 87.96163    -27.3 1.433e+04 3.712e-09
 87.97419    -27.5 1.451e+04 3.917e-09
 87.99065    -27.8 1.477e+04 4.119e-09
 88.00090    -28.7 1.569e+04 5.925e-09
 88.01520    -29.1 1.574e+04 5.961e-09
 88.03570    -29.5 1.557e+04 5.677e-09
 88.05059    -29.6 1.527e+04 5.103e-09
 88.06084    -30.2 1.503e+04 4.925e-09
 88.07487    -30.1 1.482e+04 4.182e-09
 88.08512    -31.6 1.519e+04 3.682e-09
 88.09721    -32.1 1.492e+04 2.606e-09
 88.11771    -32.8 1.436e+04 1.864e-09
 88.13822    -33.6 1.351e+04 1.434e-09
 88.14980    -33.9 1.278e+04 1.208e-09
 88.16005    -34.9 1.279e+04 1.224e-09
 88.16934    -34.1 1.250e+04 1.121e-09
 88.17959    -35.8 1.218e+04 8.578e-10
 88.21008    -35.2 1.192e+04 7.064e-10
 88.23895    -34.1 1.146e+04 4.752e-10
 88.25946    -35.2 1.151e+04 4.935e-10
 88.29218    -34.7 1.139e+04 4.077e-10
 88.32772    -34.4 1.136e+04 3.912e-10
 88.34823    -34.8 1.102e+04 2.912e-10
 88.37420    -34.8 1.120e+04 3.003e-10
 88.41520    -37.0 1.236e+04 3.835e-10
 88.43728    -43.7 1.350e+04 8.112e-10
 88.44743    -43.5 1.330e+04 8.090e-10
 88.46626    -47.4 1.462e+04 1.464e-09
 88.48677    -50.3 1.624e+04 2.925e-09
 88.50622    -54.5 1.761e+04 7.458e-09
 88.51647    -53.5 1.749e+04 5.401e-09
 88.52614    -56.8 1.797e+04 1.002e-08
 88.53639    -56.4 1.733e+04 9.426e-09
 88.54828    -58.8 1.729e+04 1.240e-08
 88.56878    -60.4 1.710e+04 1.270e-08
 88.58928    -60.9 1.598e+04 9.412e-09
 88.60069    -61.2 1.459e+04 4.864e-09
 88.61094    -61.4 1.433e+04 4.459e-09
 88.62535    -61.7 1.312e+04 2.386e-09
 88.63560    -60.7 1.335e+04 2.650e-09
 88.65079    -61.4 1.235e+04 1.400e-09
 88.67129    -61.8 1.172e+04 8.670e-10
 88.68491    -61.8 1.127e+04 6.247e-10
 88.69516    -61.2 1.141e+04 6.855e-10
 88.71230    -60.8 1.111e+04 5.467e-10
 88.74315    -59.9 1.092e+04 4.571e-10
 88.78426    -57.9 1.050e+04 3.166e-10
 88.81372    -55.3 1.010e+04 2.097e-10
 88.83422    -54.7 1.014e+04 2.214e-10
 88.85355    -52.7 1.010e+04 1.716e-10
 88.87405    -52.4 1.012e+04 1.960e-10
 88.90727    -50.5 9.999e+03 1.564e-10
 88.94828    -48.4 9.893e+03 1.275e-10
 88.98928    -46.2 9.825e+03 1.050e-10
 89.01214    -44.0 9.790e+03 8.865e-11
 89.02434    -43.6 9.889e+03 1.010e-10
 89.04249    -43.4 9.713e+03 1.258e-10
 89.07130    -41.3 9.704e+03 1.091e-10
 89.11230    -39.3 9.718e+03 1.021e-10
 89.15331    -37.2 9.725e+03 1.008e-10
 89.19006    -35.2 9.797e+03 1.035e-10
 89.20668    -34.9 9.809e+03 1.121e-10
 89.21093    -34.6 9.831e+03 1.275e-10
 89.23532    -32.7 9.840e+03 1.411e-10
 89.27633    -30.7 9.868e+03 1.555e-10
 89.31733    -28.8 9.921e+03 1.630e-10
 89.35834    -26.8 9.925e+03 1.646e-10
 89.37937    -24.9 9.911e+03 1.594e-10
 89.38901    -24.5 9.922e+03 1.547e-10
 89.40899    -24.2 9.868e+03 1.608e-10
 89.44035    -22.3 9.863e+03 1.545e-10
 89.48136    -20.6 9.871e+03 1.524e-10
 89.52236    -19.0 9.942e+03 1.579e-10
 89.54781    -17.5 9.991e+03 1.818e-10
 89.56831    -17.0 9.979e+03 1.857e-10
 89.58691    -15.3 1.004e+04 2.229e-10
 89.60741    -15.4 1.006e+04 2.392e-10
 89.64538    -13.7 1.015e+04 2.614e-10
 89.68638    -12.2 1.025e+04 2.714e-10
 89.71625    -10.8 1.030e+04 2.731e-10
 89.73675    -10.0 1.027e+04 2.808e-10
 89.76483     -8.8 1.036e+04 2.711e-10
 89.78533     -9.2 1.027e+04 2.610e-10
 89.80940     -8.2 1.029e+04 2.503e-10
 89.85041     -7.3 1.029e+04 2.462e-10
 89.88469     -6.4 1.027e+04 2.614e-10
 89.90519     -5.8 1.037e+04 2.938e-10
 89.93242     -4.8 1.037e+04 3.353e-10
 89.96325     -3.5 1.042e+04 3.814e-10
 89.98375     -4.0 1.023e+04 3.313e-10
 90.01443     -2.5 1.024e+04 3.210e-10
 90.05313     -1.3 1.032e+04 3.082e-10
 90.07363     -1.4 1.032e+04 2.431e-10
 90.09644     -0.9 1.048e+04 2.268e-10
 90.13745     -0.8 1.057e+04 2.497e-10
 90.16167     -0.4 1.051e+04 3.473e-10
 90.18218     -0.7 1.026e+04 3.263e-10
 90.21946      0.4 1.040e+04 4.000e-10
 90.24207      1.5 1.043e+04 4.159e-10
 90.26257      1.3 1.021e+04 3.380e-10
 90.30147      2.6 1.016e+04 2.938e-10
 90.33959      4.0 1.013e+04 2.368e-10
 90.36010      3.9 1.010e+04 2.307e-10
 90.38348      4.9 1.012e+04 2.164e-10
 90.41051      5.8 1.025e+04 2.283e-10
 90.43101      5.5 1.027e+04 2.338e-10
 90.46550      6.1 1.045e+04 3.539e-10
 90.50650      7.3 1.066e+04 5.402e-10
 90.53802      8.9 1.089e+04 6.698e-10
 90.55852      8.5 1.086e+04 6.635e-10
 90.57895      9.8 1.084e+04 5.620e-10
 90.59945      9.9 1.062e+04 4.090e-10
 90.62952     10.9 1.056e+04 2.448e-10
 90.67053     11.1 1.049e+04 1.543e-10
 90.71153     11.4 1.041e+04 1.317e-10
 90.73644     12.4 1.044e+04 1.303e-10
 90.75179     12.0 1.042e+04 9.258e-11
 90.76789     11.7 1.024e+04 8.390e-11
 90.79354     12.5 1.021e+04 1.003e-10
 90.83455     13.6 1.014e+04 1.211e-10
 90.87556     15.0 1.024e+04 1.389e-10
 90.91436     16.3 1.031e+04 1.451e-10
 90.93413     16.2 1.029e+04 1.562e-10
 90.93633     16.1 1.026e+04 1.333e-10
 90.95757     17.3 1.029e+04 1.353e-10
 90.99857     18.9 1.022e+04 1.263e-10
 91.03958     20.8 1.021e+04 9.913e-11
 91.08058     22.5 1.029e+04 7.118e-11
 91.10477     23.6 1.042e+04 5.411e-11
 91.11647     23.5 1.054e+04 4.358e-11
 91.13328     23.5 1.054e+04 4.296e-11
 91.16260     24.6 1.055e+04 4.148e-11
 91.20360     25.7 1.068e+04 4.628e-11
 91.24461     26.9 1.063e+04 5.984e-11
 91.27321     28.7 1.049e+04 7.812e-11
 91.29372     28.9 1.051e+04 8.580e-11
 91.31120     30.7 1.057e+04 9.507e-11
 91.33171     31.0 1.058e+04 9.434e-11
 91.36763     32.2 1.076e+04 9.443e-11
 91.40863     33.0 1.086e+04 1.002e-10
 91.44165     34.3 1.059e+04 1.227e-10
 91.46216     34.8 1.039e+04 1.517e-10
 91.48912     37.2 1.037e+04 1.409e-10
 91.50963     37.4 1.038e+04 1.398e-10
 91.53165     39.6 1.046e+04 1.136e-10
 91.57266     41.0 1.066e+04 9.143e-11
 91.61009     42.3 1.050e+04 8.609e-11
 91.63060     42.4 1.043e+04 8.448e-11
 91.65467     44.5 1.032e+04 8.279e-11
 91.68755     46.8 1.025e+04 7.540e-11
 91.70805     46.9 1.026e+04 7.396e-11
 91.73668     49.0 1.031e+04 6.382e-11
 91.77769     50.8 1.029e+04 5.822e-11
 91.79903     52.7 1.026e+04 5.907e-11
 91.81954     53.0 1.028e+04 5.924e-11
 91.85970     54.8 1.023e+04 6.730e-11
 91.88597     56.8 1.018e+04 8.085e-11
 91.90647     56.8 1.018e+04 8.896e-11
 91.94171     58.9 1.020e+04 1.037e-10
 91.96747     61.0 1.028e+04 1.145e-10
 91.98798     61.4 1.028e+04 1.126e-10
 92.02372     63.2 1.034e+04 1.138e-10
 92.06389     64.9 1.038e+04 1.138e-10
 92.08439     64.4 1.035e+04 1.053e-10
 92.10573     66.0 1.036e+04 1.002e-10
 92.13591     67.7 1.032e+04 9.323e-11
 92.15642     67.8 1.020e+04 8.706e-11
 92.18774     69.8 1.021e+04 7.116e-11
 92.22875     71.6 1.031e+04 5.519e-11
 92.26231     73.1 1.047e+04 4.313e-11
 92.28282     72.5 1.056e+04 3.110e-11
 92.30435     73.8 1.058e+04 2.697e-11
 92.32486     73.5 1.036e+04 2.476e-11
 92.35177     75.1 1.030e+04 2.554e-11
 92.39277     76.6 1.022e+04 2.926e-11
 92.43378     78.3 1.015e+04 3.650e-11
 92.46074     80.1 1.010e+04 4.640e-11
 92.47925     79.8 1.001e+04 4.612e-11
 92.49330     79.9 1.004e+04 4.967e-11
 92.51579     81.9 1.004e+04 5.913e-11
 92.55680     83.8 1.011e+04 6.507e-11
 92.59780     85.6 1.021e+04 6.498e-11
 92.63866     87.3 1.023e+04 6.381e-11
 92.66158     88.6 1.027e+04 6.078e-11
 92.68224     88.5 1.029e+04 7.103e-11
 92.72082     90.1 1.032e+04 6.721e-11
 92.76183     91.7 1.033e+04 6.264e-11
 92.80283     93.3 1.033e+04 5.779e-11
 92.83018     95.0 1.035e+04 5.303e-11
 92.84392     94.9 1.035e+04 5.917e-11
 92.85758     94.6 1.034e+04 5.955e-11
 92.88484     96.1 1.036e+04 5.441e-11
 92.92585     97.8 1.037e+04 5.336e-11
 92.96686     99.3 1.039e+04 5.328e-11
 92.99862    100.9 1.044e+04 5.492e-11
 93.01912    100.8 1.044e+04 6.010e-11
 93.03550    102.3 1.052e+04 6.223e-11
 93.05600    102.1 1.050e+04 6.348e-11
 93.08987    103.5 1.053e+04 6.461e-11
 93.13088    104.9 1.055e+04 6.846e-11
 93.16706    106.3 1.057e+04 7.386e-11
 93.18756    106.2 1.062e+04 7.096e-11
 93.21289    107.6 1.063e+04 7.562e-11
 93.23392    109.1 1.056e+04 7.693e-11
 93.25443    108.8 1.051e+04 7.162e-11
 93.29490    110.3 1.048e+04 7.085e-11
 93.33550    111.9 1.041e+04 6.937e-11
 93.35600    111.9 1.037e+04 7.916e-11
 93.37691    113.5 1.034e+04 7.851e-11
 93.41184    115.1 1.029e+04 7.703e-11
 93.43235    114.9 1.030e+04 7.602e-11
 93.45893    116.5 1.021e+04 7.193e-11
 93.49993    118.1 1.013e+04 6.588e-11
 93.52444    119.7 1.006e+04 5.995e-11
 93.54494    119.8 1.014e+04 7.738e-11
 93.58194    121.3 1.007e+04 6.877e-11
 93.61027    122.7 9.984e+03 6.185e-11
 93.63077    122.3 9.950e+03 6.140e-11
 93.66396    123.8 9.860e+03 5.671e-11
 93.69288    125.5 9.754e+03 5.312e-11
 93.71338    125.7 9.758e+03 6.348e-11
 93.74597    127.5 9.646e+03 5.899e-11
 93.78697    129.4 9.556e+03 5.630e-11
 93.80869    131.3 9.514e+03 5.569e-11
 93.82919    131.0 9.529e+03 6.131e-11
 93.86132    133.0 9.527e+03 6.084e-11
 93.88182    133.2 9.513e+03 5.663e-11
 93.90999    135.2 9.507e+03 5.513e-11
 93.95100    137.1 9.507e+03 5.414e-11
 93.98661    139.0 9.478e+03 5.375e-11
 94.00711    138.5 9.512e+03 5.236e-11
 94.02976    140.4 9.477e+03 5.079e-11
 94.05026    140.4 9.462e+03 4.272e-11
 94.07401    142.3 9.400e+03 4.235e-11
 94.11502    144.3 9.344e+03 4.212e-11
 94.15603    146.4 9.319e+03 4.216e-11
 94.18503    148.4 9.260e+03 4.317e-11
 94.20554    147.9 9.256e+03 4.141e-11
 94.21870    149.9 9.218e+03 4.430e-11
 94.23920    150.0 9.163e+03 4.115e-11
 94.27904    152.0 9.125e+03 4.470e-11
 94.32005    153.9 9.091e+03 4.864e-11
 94.36106    155.8 9.061e+03 5.277e-11
 94.38346    157.7 9.039e+03 5.731e-11
 94.38904    157.3 9.060e+03 6.432e-11
 94.40764    157.5 9.040e+03 6.375e-11
 94.44307    159.5 9.038e+03 6.928e-11
 94.48407    161.5 9.048e+03 7.496e-11
 94.52508    163.5 9.072e+03 8.172e-11
 94.55558    165.4 9.113e+03 9.058e-11
 94.57137    165.5 9.097e+03 8.535e-11
 94.58188    165.0 9.189e+03 8.983e-11
 94.60709    166.7 9.247e+03 9.851e-11
 94.64810    168.3 9.274e+03 1.117e-10
 94.68910    169.9 9.325e+03 1.298e-10
 94.72402    171.5 9.382e+03 1.519e-10
 94.74452    171.5 9.353e+03 1.519e-10
 94.75980    173.0 9.415e+03 1.805e-10
 94.78030    172.3 9.403e+03 1.621e-10
 94.81212    173.8 9.453e+03 1.901e-10
 94.85313    175.3 9.522e+03 2.215e-10
 94.89246    176.7 9.616e+03 2.555e-10
 94.91296    176.8 9.731e+03 2.991e-10
 94.93514    178.1 9.907e+03 3.473e-10
 94.95822    179.3 1.004e+04 3.876e-10
 94.97872    178.4 1.007e+04 3.739e-10
 95.01715    179.2 1.010e+04 3.730e-10
 95.05816    180.0 1.009e+04 3.539e-10
 95.08140    180.8 9.965e+03 3.018e-10
 95.10191    180.4 9.914e+03 2.950e-10
 95.13614    181.4 9.667e+03 2.281e-10
 95.15664    180.6 9.453e+03 1.640e-10
 95.18117    181.7 9.221e+03 1.259e-10
 95.22218    182.9 9.042e+03 1.028e-10
 95.24984    184.3 8.941e+03 9.095e-11
 95.27035    184.5 8.994e+03 1.144e-10
 95.30419    186.1 8.965e+03 1.102e-10
 95.33456    187.7 8.949e+03 1.065e-10
 95.35507    187.3 9.023e+03 1.086e-10
 95.38620    188.9 9.006e+03 1.045e-10
 95.41828    190.5 8.970e+03 9.828e-11
 95.43879    191.0 9.094e+03 1.275e-10
 95.46821    192.7 9.060e+03 1.220e-10
 95.50922    194.3 9.061e+03 1.206e-10
 95.53299    195.8 9.065e+03 1.214e-10
 95.55349    195.1 9.146e+03 1.250e-10
 95.58672    196.5 9.170e+03 1.289e-10
 95.60723    197.0 9.308e+03 1.693e-10
 95.63224    198.2 9.432e+03 1.881e-10
 95.67324    199.1 9.680e+03 2.237e-10
 95.71091    199.7 1.003e+04 2.828e-10
 95.73141    198.8 1.004e+04 2.994e-10
 95.75516    199.1 1.030e+04 3.792e-10
 95.78582    199.0 1.074e+04 5.143e-10
 95.80632    198.9 1.091e+04 5.938e-10
 95.82017    198.7 1.112e+04 6.968e-10
 95.83043    198.1 1.132e+04 7.838e-10
 95.84732    197.4 1.165e+04 9.747e-10
 95.85969    196.6 1.212e+04 1.280e-09
 95.86994    196.0 1.254e+04 1.594e-09
 95.88833    195.0 1.320e+04 2.253e-09
 95.90883    194.1 1.380e+04 3.046e-09
 95.91939    193.2 1.425e+04 3.643e-09
 95.92964    192.2 1.398e+04 3.037e-09
 95.94391    191.1 1.393e+04 2.925e-09
 95.95416    190.3 1.412e+04 3.033e-09
 95.97034    189.5 1.373e+04 2.416e-09
 96.00119    187.2 1.272e+04 1.037e-09
 96.04230    185.4 1.131e+04 4.057e-10
 96.08330    184.4 9.940e+03 1.989e-10
 96.10775    184.1 9.556e+03 1.632e-10
 96.11649    183.4 9.551e+03 1.649e-10
 96.13305    182.5 9.368e+03 1.390e-10
 96.16531    184.4 9.352e+03 1.392e-10
 96.20632    186.6 9.353e+03 1.398e-10
 96.24733    188.6 9.357e+03 1.404e-10
 96.28099    190.6 9.355e+03 1.405e-10
 96.29883    190.4 9.268e+03 1.280e-10
 96.30618    189.9 9.280e+03 1.241e-10
 96.32934    191.8 9.276e+03 1.225e-10
 96.37034    193.7 9.259e+03 1.168e-10
 96.41135    195.6 9.233e+03 1.072e-10
 96.44943    197.6 9.213e+03 9.507e-11
 96.46993    197.5 9.196e+03 8.077e-11
 96.48410    199.5 9.212e+03 6.842e-11
 96.50460    199.1 9.234e+03 5.786e-11
 96.53437    201.0 9.243e+03 4.900e-11
 96.57537    202.8 9.249e+03 4.244e-11
 96.61638    204.6 9.237e+03 3.861e-11
 96.63837    206.4 9.201e+03 3.776e-11
 96.65887    206.1 9.100e+03 3.661e-11
 96.68252    208.0 9.100e+03 3.682e-11
 96.70302    207.9 9.110e+03 3.815e-11
 96.73940    209.8 9.129e+03 3.963e-11
 96.78040    211.7 9.158e+03 4.224e-11
 96.80681    213.7 9.185e+03 4.570e-11
 96.82731    213.6 9.191e+03 4.399e-11
 96.86044    215.6 9.212e+03 4.647e-11
 96.88094    215.7 9.251e+03 5.205e-11
 96.90342    217.7 9.284e+03 5.460e-11
 96.94443    219.7 9.333e+03 5.737e-11
 96.97525    221.6 9.398e+03 6.089e-11
 96.99575    221.5 9.471e+03 5.090e-11
 97.02644    223.4 9.538e+03 5.624e-11
 97.05886    225.2 9.619e+03 6.426e-11
 97.07936    225.1 9.647e+03 7.676e-11
 97.10845    226.9 9.735e+03 9.155e-11
 97.14369    228.7 9.847e+03 1.074e-10
 97.16419    228.9 9.808e+03 1.015e-10
 97.19046    230.6 9.879e+03 1.147e-10
 97.23147    232.1 9.932e+03 1.215e-10
 97.25728    233.6 9.947e+03 1.222e-10
 97.27779    233.6 1.003e+04 1.361e-10
 97.31213    235.0 1.003e+04 1.358e-10
 97.33263    235.5 1.006e+04 1.515e-10
 97.35449    236.9 1.006e+04 1.520e-10
 97.39549    238.3 1.005e+04 1.515e-10
 97.43520    239.6 1.002e+04 1.477e-10
 97.45571    239.5 1.020e+04 1.489e-10
 97.47750    240.7 1.015e+04 1.403e-10
 97.50107    241.9 1.009e+04 1.286e-10
 97.52157    242.5 1.010e+04 1.572e-10
 97.55951    243.7 1.000e+04 1.409e-10
 97.60052    244.9 9.907e+03 1.243e-10
 97.63363    246.0 9.853e+03 1.085e-10
 97.65413    245.8 9.992e+03 1.144e-10
 97.66951    247.0 9.916e+03 1.045e-10
 97.69001    247.6 9.968e+03 1.271e-10
 97.72354    248.8 9.888e+03 1.157e-10
 97.76454    249.9 9.885e+03 1.077e-10
 97.80555    251.0 9.921e+03 1.058e-10
 97.83205    252.0 9.925e+03 1.059e-10
 97.84395    251.9 1.002e+04 1.204e-10
 97.85845    252.5 1.011e+04 1.367e-10
 97.88756    253.5 1.012e+04 1.356e-10
 97.92857    254.4 1.015e+04 1.350e-10
 97.96957    255.2 1.017e+04 1.351e-10
 98.00639    255.9 1.024e+04 1.366e-10
 98.02628    256.5 1.029e+04 1.341e-10
 98.03047    256.3 1.040e+04 1.379e-10
 98.05159    256.7 1.051e+04 1.390e-10
 98.09259    256.9 1.068e+04 1.417e-10
 98.13360    256.7 1.080e+04 1.449e-10
 98.17460    256.5 1.084e+04 1.480e-10
 98.19533    256.2 1.083e+04 1.487e-10
 98.20862    256.5 1.082e+04 1.512e-10
 98.22890    256.1 1.082e+04 1.376e-10
 98.25661    255.6 1.077e+04 1.361e-10
 98.29762    255.1 1.069e+04 1.340e-10
 98.33863    254.9 1.058e+04 1.315e-10
 98.36377    254.7 1.049e+04 1.301e-10
 98.38428    254.7 1.055e+04 1.444e-10
 98.40682    254.6 1.048e+04 1.502e-10
 98.42732    254.5 1.051e+04 1.411e-10
 98.46164    254.5 1.050e+04 1.537e-10
 98.50265    254.6 1.053e+04 1.668e-10
 98.53221    254.7 1.055e+04 1.711e-10
 98.55272    254.0 1.057e+04 1.807e-10
 98.58466    254.1 1.050e+04 1.678e-10
 98.62567    254.2 1.040e+04 1.339e-10
 98.66667    254.4 1.027e+04 1.142e-10
 98.70065    254.7 1.014e+04 1.067e-10
 98.72115    254.1 1.001e+04 8.914e-11
 98.74869    254.6 9.990e+03 8.844e-11
 98.78316    255.3 9.986e+03 8.810e-11
 98.80366    255.0 9.996e+03 8.437e-11
 98.83070    255.7 9.988e+03 8.454e-11
 98.86909    256.4 9.975e+03 8.758e-11
 98.88959    256.3 9.924e+03 6.940e-11
 98.91271    257.0 9.980e+03 7.787e-11
 98.95372    257.6 1.010e+04 9.648e-11
 98.98158    257.9 1.028e+04 1.279e-10
 99.00208    257.5 1.032e+04 1.357e-10
 99.03573    257.4 1.053e+04 1.814e-10
 99.05803    257.1 1.076e+04 2.343e-10
 99.07854    257.3 1.071e+04 2.208e-10
 99.11774    257.0 1.094e+04 2.686e-10
 99.15874    256.4 1.116e+04 3.086e-10
 99.18000    255.6 1.133e+04 3.363e-10
 99.20051    255.4 1.137e+04 3.567e-10
 99.22647    254.7 1.148e+04 3.717e-10
 99.24698    254.6 1.152e+04 3.977e-10
 99.28176    254.0 1.151e+04 4.038e-10
 99.31060    253.8 1.156e+04 4.015e-10
 99.32075    254.0 1.162e+04 4.496e-10
 99.33282    253.6 1.172e+04 4.773e-10
 99.35333    253.1 1.182e+04 5.042e-10
 99.36798    252.4 1.194e+04 5.354e-10
 99.37823    252.5 1.195e+04 5.315e-10
 99.39433    251.5 1.212e+04 5.810e-10
 99.40497    250.2 1.237e+04 6.707e-10
 99.41522    249.8 1.258e+04 8.510e-10
 99.43534    247.6 1.296e+04 1.122e-09
 99.45584    245.0 1.341e+04 1.597e-09
 99.46719    242.1 1.393e+04 2.294e-09
 99.47744    241.8 1.424e+04 2.659e-09
 99.48919    238.7 1.498e+04 3.660e-09
 99.49944    236.2 1.664e+04 5.427e-09
 99.51735    232.4 1.703e+04 5.517e-09
 99.53785    228.5 1.700e+04 5.248e-09
 99.55615    224.8 1.659e+04 4.244e-09
 99.56640    224.7 1.695e+04 5.402e-09
 99.57341    221.2 1.593e+04 3.637e-09
 99.58366    219.6 1.500e+04 3.350e-09
 99.59936    216.1 1.381e+04 2.107e-09
 99.61987    212.8 1.291e+04 1.401e-09
 99.65072    208.4 1.226e+04 8.445e-10
 99.69182    202.8 1.147e+04 4.376e-10
 99.73179    197.6 1.072e+04 2.657e-10
 99.75230    197.5 1.149e+04 4.352e-10
 99.75477    193.6 1.056e+04 2.560e-10
 99.77527    194.7 1.057e+04 2.629e-10
 99.81484    192.3 9.736e+03 1.687e-10
 99.85584    191.6 9.077e+03 1.240e-10
 99.89685    191.5 8.951e+03 1.181e-10
 99.92074    191.6 8.946e+03 1.179e-10
 99.93607    191.5 8.802e+03 1.152e-10
 99.95319    192.6 8.807e+03 1.179e-10
 99.97886    193.3 8.799e+03 1.193e-10
100.01987    194.2 8.799e+03 1.281e-10
