# Columns:
#   distance along LOS (in CHIMPs)
#   peculiar velocity  (in km/s)
#   temperature (K)
#   HI number density
# pos=(205.257,103.107,225.281), angles=(1.65138,0.215864)
  0.01968      7.1 9.746e+03 4.313e-10
  0.04979      8.7 9.900e+03 5.425e-10
  0.06985      8.7 9.751e+03 4.740e-10
  0.09216      9.8 1.004e+04 5.033e-10
  0.11212      8.8 1.078e+04 8.841e-10
  0.12944      8.7 1.076e+04 9.667e-10
  0.14950      9.2 1.068e+04 1.044e-09
  0.16957      9.8 1.057e+04 1.062e-09
  0.18786     10.8 1.042e+04 1.080e-09
  0.19789     10.9 1.049e+04 1.108e-09
  0.20969     11.0 1.113e+04 9.369e-10
  0.22975     10.6 1.135e+04 8.892e-10
  0.24981      9.8 1.137e+04 7.829e-10
  0.26987      9.3 1.094e+04 6.937e-10
  0.28375      9.2 1.039e+04 6.485e-10
  0.29378      7.0 1.040e+04 7.670e-10
  0.30130      7.2 1.036e+04 7.586e-10
  0.31133      7.3 1.029e+04 7.308e-10
  0.34018      7.5 1.025e+04 7.163e-10
  0.38039      8.2 1.030e+04 7.729e-10
  0.42052      9.6 1.062e+04 9.480e-10
  0.45567     11.8 1.086e+04 1.081e-09
  0.47573     10.2 1.133e+04 1.199e-09
  0.50076     11.8 1.133e+04 1.170e-09
  0.53075     13.9 1.107e+04 1.054e-09
  0.54297     14.4 1.122e+04 1.105e-09
  0.55300     15.2 1.103e+04 9.950e-10
  0.56140     15.9 1.093e+04 1.012e-09
  0.57143     15.0 1.105e+04 1.080e-09
  0.59083     15.8 1.103e+04 1.113e-09
  0.61089     16.7 1.127e+04 1.210e-09
  0.63095     16.4 1.184e+04 1.416e-09
  0.64726     16.3 1.227e+04 1.730e-09
  0.65729     15.6 1.230e+04 1.812e-09
  0.67108     16.0 1.246e+04 2.179e-09
  0.69114     16.5 1.279e+04 2.740e-09
  0.71120     16.4 1.353e+04 3.532e-09
  0.73126     15.5 1.488e+04 4.911e-09
  0.74315     14.7 1.543e+04 5.923e-09
  0.75318     13.8 1.503e+04 5.180e-09
  0.77138     13.9 1.452e+04 5.296e-09
  0.78465     15.3 1.376e+04 4.545e-09
  0.79468     15.8 1.342e+04 3.706e-09
  0.81150     16.8 1.282e+04 2.332e-09
  0.82901     16.5 1.238e+04 1.204e-09
  0.83904     15.0 1.187e+04 8.987e-10
  0.86175     13.1 1.047e+04 4.050e-10
  0.90197     10.1 8.703e+03 1.887e-10
  0.94209     10.1 8.363e+03 1.630e-10
  0.98221     11.3 8.245e+03 1.621e-10
  1.01096     12.8 8.232e+03 1.597e-10
  1.02518     12.8 8.203e+03 1.517e-10
  1.03654     13.0 8.221e+03 1.590e-10
  1.06245     13.9 8.292e+03 1.627e-10
  1.10257     15.0 8.348e+03 1.673e-10
  1.14269     16.0 8.367e+03 1.619e-10
  1.18269     16.9 8.426e+03 1.622e-10
  1.22281     17.0 8.433e+03 1.582e-10
  1.26305     18.0 8.468e+03 1.592e-10
  1.30317     19.5 8.441e+03 1.571e-10
  1.34329     21.2 8.384e+03 1.529e-10
  1.37447     23.1 8.365e+03 1.501e-10
  1.39453     22.4 8.341e+03 1.374e-10
  1.42354     24.2 8.368e+03 1.370e-10
  1.46366     25.8 8.460e+03 1.464e-10
  1.49983     27.4 8.579e+03 1.711e-10
  1.51989     27.4 8.729e+03 1.774e-10
  1.54390     28.9 8.957e+03 2.159e-10
  1.56616     30.2 9.076e+03 2.526e-10
  1.57609     29.0 9.143e+03 2.658e-10
  1.59385     29.7 9.342e+03 3.039e-10
  1.61391     29.6 9.716e+03 3.676e-10
  1.63398     29.0 1.055e+04 5.106e-10
  1.65192     28.1 1.158e+04 7.616e-10
  1.66196     25.6 1.261e+04 1.227e-09
  1.67410     25.7 1.283e+04 1.698e-09
  1.69416     26.8 1.263e+04 1.975e-09
  1.71422     27.9 1.256e+04 2.059e-09
  1.73428     29.6 1.239e+04 1.716e-09
  1.74782     29.6 1.237e+04 1.563e-09
  1.75485     28.8 1.244e+04 1.522e-09
  1.76137     28.3 1.289e+04 1.614e-09
  1.78453     29.0 1.191e+04 8.853e-10
  1.82474     29.3 1.103e+04 5.392e-10
  1.86487     30.2 1.059e+04 4.407e-10
  1.90499     31.8 1.033e+04 4.300e-10
  1.92977     33.9 1.024e+04 4.413e-10
  1.94983     32.9 1.034e+04 4.621e-10
  1.98318     35.2 1.025e+04 4.384e-10
  2.00324     34.4 1.031e+04 4.331e-10
  2.02535     36.7 1.019e+04 3.805e-10
  2.06547     38.8 1.005e+04 3.172e-10
  2.10149     40.9 9.819e+03 2.585e-10
  2.12155     39.8 9.751e+03 2.422e-10
  2.14571     41.9 9.506e+03 1.990e-10
  2.18583     44.0 9.324e+03 1.644e-10
  2.22595     46.1 9.202e+03 1.386e-10
  2.26607     48.0 9.106e+03 1.212e-10
  2.29328     49.9 9.106e+03 1.168e-10
  2.31334     48.6 9.293e+03 1.329e-10
  2.34632     50.3 9.361e+03 1.476e-10
  2.38644     51.8 9.496e+03 1.764e-10
  2.42656     53.2 9.673e+03 2.183e-10
  2.46500     54.4 9.879e+03 2.749e-10
  2.48491     53.1 1.004e+04 3.146e-10
  2.50664     53.7 1.029e+04 4.032e-10
  2.54692     54.8 1.025e+04 4.030e-10
  2.58704     55.7 1.015e+04 3.758e-10
  2.62716     56.4 9.954e+03 3.094e-10
  2.65679     56.8 9.666e+03 2.337e-10
  2.67685     55.5 9.334e+03 1.599e-10
  2.70740     55.9 9.225e+03 1.463e-10
  2.74752     56.5 9.168e+03 1.363e-10
  2.78764     57.1 9.080e+03 1.330e-10
  2.82776     57.9 9.040e+03 1.346e-10
  2.84857     58.9 9.007e+03 1.354e-10
  2.86863     57.8 9.082e+03 1.590e-10
  2.90801     58.9 8.955e+03 1.428e-10
  2.94813     60.1 8.843e+03 1.285e-10
  2.96993     61.5 8.678e+03 1.128e-10
  2.98999     61.5 8.669e+03 1.131e-10
  3.02030     63.0 8.534e+03 9.984e-11
  3.04036     61.9 8.479e+03 8.887e-11
  3.06849     63.5 8.372e+03 7.864e-11
  3.10861     65.2 8.290e+03 7.148e-11
  3.14873     67.0 8.236e+03 6.736e-11
  3.18885     68.8 8.207e+03 6.595e-11
  3.21208     70.7 8.179e+03 6.660e-11
  3.23214     70.0 8.202e+03 6.976e-11
  3.26909     71.9 8.186e+03 7.399e-11
  3.30921     74.0 8.176e+03 7.961e-11
  3.34934     76.0 8.201e+03 8.751e-11
  3.38381     78.1 8.244e+03 9.870e-11
  3.40387     77.4 8.250e+03 9.935e-11
  3.42958     79.5 8.304e+03 1.124e-10
  3.45327     81.6 8.371e+03 1.297e-10
  3.47333     81.7 8.353e+03 1.313e-10
  3.50982     83.8 8.433e+03 1.515e-10
  3.54994     86.0 8.536e+03 1.739e-10
  3.57559     88.1 8.649e+03 1.957e-10
  3.59565     87.3 8.579e+03 1.754e-10
  3.63018     89.4 8.634e+03 1.835e-10
  3.67030     91.4 8.634e+03 1.835e-10
  3.71042     93.4 8.610e+03 1.816e-10
  3.74732     95.5 8.555e+03 1.750e-10
  3.76738     95.2 8.529e+03 1.641e-10
  3.79066     97.5 8.461e+03 1.532e-10
  3.83079    100.0 8.393e+03 1.427e-10
  3.87091    102.5 8.344e+03 1.342e-10
  3.91103    105.1 8.331e+03 1.286e-10
  3.93662    107.8 8.329e+03 1.260e-10
  3.94463    108.1 8.303e+03 1.264e-10
  3.95916    107.8 8.330e+03 1.240e-10
  3.99127    110.5 8.332e+03 1.253e-10
  4.03139    113.1 8.343e+03 1.280e-10
  4.07151    115.8 8.359e+03 1.318e-10
  4.11083    118.5 8.370e+03 1.372e-10
  4.13089    118.2 8.447e+03 1.474e-10
  4.15175    120.9 8.485e+03 1.579e-10
  4.19187    123.6 8.533e+03 1.704e-10
  4.23199    126.3 8.604e+03 1.857e-10
  4.27211    129.0 8.712e+03 2.050e-10
  4.30261    131.6 8.856e+03 2.285e-10
  4.32267    131.0 9.011e+03 2.497e-10
  4.35236    133.5 9.184e+03 2.767e-10
  4.39248    135.7 9.364e+03 3.031e-10
  4.41997    137.9 9.512e+03 3.249e-10
  4.44003    137.3 9.884e+03 4.431e-10
  4.46259    139.1 9.818e+03 4.175e-10
  4.48255    140.0 9.839e+03 4.210e-10
  4.49420    141.3 9.885e+03 4.351e-10
  4.50423    141.0 9.901e+03 4.481e-10
  4.52267    142.0 9.937e+03 4.599e-10
  4.54273    143.6 1.006e+04 4.901e-10
  4.56280    144.6 1.018e+04 5.215e-10
  4.58006    145.6 1.031e+04 5.590e-10
  4.59009    145.3 1.040e+04 5.904e-10
  4.60292    146.2 1.061e+04 6.580e-10
  4.62298    147.0 1.085e+04 7.443e-10
  4.64304    147.8 1.113e+04 8.551e-10
  4.66144    148.5 1.145e+04 9.970e-10
  4.67147    147.7 1.177e+04 1.178e-09
  4.67596    148.3 1.206e+04 1.342e-09
  4.68599    147.8 1.208e+04 1.359e-09
  4.70322    148.4 1.231e+04 1.491e-09
  4.72328    148.9 1.242e+04 1.550e-09
  4.74334    149.3 1.242e+04 1.538e-09
  4.76182    149.6 1.238e+04 1.482e-09
  4.77185    149.3 1.221e+04 1.334e-09
  4.79359    150.8 1.225e+04 1.327e-09
  4.83381    151.9 1.192e+04 1.046e-09
  4.85791    152.8 1.153e+04 7.686e-10
  4.87797    152.2 1.148e+04 7.460e-10
  4.90331    153.2 1.156e+04 7.574e-10
  4.92337    152.4 1.096e+04 5.940e-10
  4.95417    153.3 1.114e+04 5.824e-10
  4.99429    154.2 1.148e+04 6.228e-10
  5.02963    155.1 1.195e+04 7.114e-10
  5.04969    154.7 1.278e+04 1.152e-09
  5.06440    154.8 1.305e+04 1.241e-09
  5.08437    154.5 1.342e+04 1.510e-09
  5.10443    154.3 1.375e+04 1.974e-09
  5.12449    154.2 1.407e+04 2.584e-09
  5.13536    154.0 1.446e+04 3.366e-09
  5.14539    153.4 1.500e+04 4.549e-09
  5.15482    153.4 1.552e+04 5.841e-09
  5.16485    152.7 1.556e+04 5.460e-09
  5.18467    153.1 1.604e+04 7.086e-09
  5.20473    153.7 1.634e+04 8.255e-09
  5.22122    154.3 1.654e+04 8.615e-09
  5.23125    153.9 1.676e+04 9.368e-09
  5.24485    154.5 1.650e+04 8.058e-09
  5.26491    155.3 1.598e+04 5.940e-09
  5.28497    155.9 1.531e+04 3.902e-09
  5.30503    156.0 1.454e+04 2.435e-09
  5.31711    155.7 1.374e+04 1.567e-09
  5.32714    154.1 1.287e+04 1.061e-09
  5.34515    153.7 1.225e+04 8.878e-10
  5.36521    153.9 1.197e+04 8.600e-10
  5.38527    154.8 1.193e+04 8.523e-10
  5.39649    156.1 1.194e+04 8.566e-10
  5.40426    155.5 1.177e+04 7.581e-10
  5.41320    155.5 1.146e+04 7.010e-10
  5.43562    157.7 1.155e+04 7.492e-10
  5.47574    159.4 1.183e+04 8.647e-10
  5.51586    160.6 1.194e+04 9.416e-10
  5.55598    161.4 1.189e+04 9.263e-10
  5.58493    162.4 1.162e+04 8.249e-10
  5.60499    162.6 1.150e+04 8.389e-10
  5.63622    163.9 1.093e+04 6.250e-10
  5.67634    165.2 1.023e+04 4.267e-10
  5.71646    167.3 1.003e+04 3.243e-10
  5.74646    168.3 9.920e+03 2.971e-10
  5.76642    169.2 9.874e+03 2.933e-10
  5.78648    169.8 9.887e+03 3.092e-10
  5.80654    170.5 9.900e+03 3.184e-10
  5.82660    171.3 9.969e+03 3.444e-10
  5.84666    172.0 1.013e+04 3.859e-10
  5.86238    172.6 1.037e+04 4.385e-10
  5.87241    172.5 1.053e+04 4.631e-10
  5.87984    173.1 1.079e+04 5.223e-10
  5.88987    173.5 1.005e+04 4.340e-10
  5.90684    174.0 1.021e+04 4.686e-10
  5.92690    174.5 1.037e+04 4.994e-10
  5.94696    175.0 1.050e+04 5.271e-10
  5.95827    175.5 1.059e+04 5.531e-10
  5.96830    175.5 1.048e+04 5.247e-10
  5.98708    176.2 1.050e+04 5.537e-10
  6.00714    176.9 1.048e+04 5.787e-10
  6.02721    177.6 1.048e+04 5.959e-10
  6.04413    178.4 1.046e+04 6.076e-10
  6.05416    178.7 1.038e+04 5.851e-10
  6.06733    179.6 1.034e+04 5.896e-10
  6.08739    180.4 1.032e+04 5.960e-10
  6.10745    181.3 1.033e+04 6.081e-10
  6.12151    182.2 1.037e+04 6.279e-10
  6.13154    182.5 1.018e+04 5.261e-10
  6.14003    183.4 1.026e+04 5.564e-10
  6.15006    184.0 1.021e+04 5.279e-10
  6.16763    184.9 1.030e+04 5.639e-10
  6.18769    185.9 1.040e+04 6.056e-10
  6.20775    186.9 1.053e+04 6.510e-10
  6.22589    187.8 1.065e+04 6.971e-10
  6.23592    188.7 1.048e+04 6.434e-10
  6.24787    189.7 1.056e+04 6.785e-10
  6.26793    190.6 1.068e+04 7.136e-10
  6.28799    191.6 1.085e+04 7.616e-10
  6.30805    192.4 1.106e+04 8.279e-10
  6.32178    192.7 1.132e+04 8.866e-10
  6.33181    193.7 1.281e+04 7.918e-10
  6.34817    192.7 1.801e+04 7.813e-10
  6.36318    189.7 2.409e+04 1.194e-09
  6.37321    194.0 1.164e+04 9.887e-10
  6.38829    190.7 1.488e+04 1.455e-09
  6.40764    184.1 2.136e+04 2.877e-09
  6.41767    183.7 2.295e+04 5.191e-09
  6.42335    178.4 2.668e+04 7.398e-09
  6.43333    173.0 2.835e+04 1.342e-08
  6.44336    168.6 2.740e+04 2.601e-08
  6.45339    166.0 2.579e+04 4.251e-08
  6.46051    164.6 2.437e+04 5.577e-08
  6.46552    162.7 2.373e+04 1.191e-07
  6.47345    162.4 2.355e+04 1.099e-07
  6.48348    162.4 2.364e+04 8.691e-08
  6.48894    162.6 2.372e+04 6.550e-08
  6.49395    164.2 2.380e+04 6.223e-08
  6.50344    164.2 2.373e+04 4.831e-08
  6.50845    163.0 2.435e+04 6.422e-08
  6.51357    163.1 2.404e+04 4.657e-08
  6.52360    163.1 2.352e+04 3.419e-08
  6.53363    163.0 2.289e+04 2.603e-08
  6.54366    163.1 2.222e+04 2.161e-08
  6.55138    163.1 2.165e+04 1.882e-08
  6.55640    162.2 2.152e+04 2.025e-08
  6.56879    161.7 2.034e+04 1.561e-08
  6.58890    161.1 1.916e+04 1.354e-08
  6.59943    160.8 1.871e+04 1.293e-08
  6.60536    160.8 1.928e+04 1.493e-08
  6.61489    162.3 2.040e+04 2.029e-08
  6.62902    162.0 2.031e+04 2.029e-08
  6.64908    161.9 2.029e+04 2.062e-08
  6.66914    161.6 2.029e+04 2.053e-08
  6.68529    161.0 2.022e+04 1.961e-08
  6.69532    160.7 2.017e+04 1.957e-08
  6.70926    160.1 1.960e+04 1.584e-08
  6.72932    159.6 1.872e+04 1.171e-08
  6.74938    158.9 1.765e+04 8.312e-09
  6.76944    157.8 1.662e+04 5.709e-09
  6.78118    156.2 1.555e+04 3.765e-09
  6.79121    155.8 1.501e+04 3.198e-09
  6.80956    153.9 1.407e+04 2.175e-09
  6.82962    152.2 1.317e+04 1.528e-09
  6.84653    150.7 1.238e+04 1.138e-09
  6.85656    150.1 1.197e+04 1.001e-09
  6.86705    149.3 1.172e+04 9.088e-10
  6.87708    149.7 1.173e+04 8.967e-10
  6.88980    149.1 1.172e+04 8.876e-10
  6.90986    148.5 1.174e+04 8.914e-10
  6.92992    147.7 1.182e+04 9.148e-10
  6.94998    146.8 1.196e+04 9.736e-10
  6.96294    145.8 1.212e+04 1.062e-09
  6.97297    145.7 1.228e+04 1.149e-09
  6.99010    144.7 1.251e+04 1.301e-09
  7.01017    143.6 1.274e+04 1.445e-09
  7.03023    142.6 1.295e+04 1.584e-09
  7.04880    141.6 1.317e+04 1.672e-09
  7.05883    141.3 1.350e+04 1.948e-09
  7.07035    140.3 1.353e+04 1.919e-09
  7.08820    139.3 1.343e+04 1.722e-09
  7.09823    137.7 1.288e+04 1.222e-09
  7.11047    136.4 1.239e+04 9.207e-10
  7.13053    134.7 1.176e+04 7.073e-10
  7.14469    132.7 1.122e+04 6.260e-10
  7.15472    131.1 1.188e+04 6.767e-10
  7.17065    127.7 1.220e+04 7.569e-10
  7.19071    124.9 1.276e+04 9.837e-10
  7.21077    122.9 1.318e+04 1.394e-09
  7.23056    122.0 1.348e+04 1.884e-09
  7.24059    120.8 1.392e+04 2.519e-09
  7.25089    120.6 1.395e+04 2.626e-09
  7.27095    120.4 1.376e+04 2.469e-09
  7.29101    119.6 1.359e+04 2.014e-09
  7.31107    117.1 1.448e+04 1.452e-09
  7.32607    113.9 1.557e+04 1.400e-09
  7.33137    105.9 2.106e+04 1.813e-09
  7.33512    104.6 2.159e+04 1.623e-09
  7.33981     92.1 2.802e+04 3.814e-09
  7.34608     79.9 2.698e+04 1.242e-08
  7.35611     77.8 2.352e+04 2.888e-08
  7.36614     78.1 2.118e+04 4.574e-08
  7.37430     78.3 2.100e+04 4.858e-08
  7.37931     78.1 2.114e+04 5.646e-08
  7.38620     78.0 2.166e+04 5.539e-08
  7.39623     76.7 2.371e+04 5.003e-08
  7.40626     72.9 2.845e+04 3.670e-08
  7.41629     66.7 3.371e+04 2.258e-08
  7.42224     59.9 3.563e+04 1.377e-08
  7.42726     61.8 3.578e+04 1.652e-08
  7.43635     54.7 3.283e+04 1.120e-08
  7.45145     41.7 2.253e+04 8.678e-09
  7.47155     37.7 1.614e+04 7.036e-09
  7.49162     38.2 1.522e+04 5.411e-09
  7.50820     38.9 1.486e+04 3.755e-09
  7.51823     39.3 1.450e+04 3.107e-09
  7.53174     39.2 1.399e+04 2.065e-09
  7.55180     38.5 1.320e+04 1.353e-09
  7.57155     38.3 1.266e+04 1.098e-09
  7.58158     37.0 1.222e+04 8.701e-10
  7.59416     37.4 1.165e+04 7.349e-10
  7.61432     38.2 1.136e+04 7.074e-10
  7.64226     39.2 1.092e+04 6.669e-10
  7.68238     40.2 1.093e+04 7.091e-10
  7.72251     40.8 1.136e+04 9.619e-10
  7.76263     41.5 1.213e+04 1.465e-09
  7.78605     42.1 1.242e+04 1.697e-09
  7.80611     43.3 1.257e+04 1.809e-09
  7.82345     43.9 1.252e+04 1.753e-09
  7.84351     44.1 1.237e+04 1.600e-09
  7.88299     44.8 1.219e+04 1.483e-09
  7.92311     45.9 1.150e+04 1.038e-09
  7.95777     46.9 1.050e+04 5.284e-10
  7.97783     47.7 1.088e+04 6.841e-10
  8.00335     48.4 9.743e+03 3.081e-10
  8.04347     48.6 8.753e+03 1.464e-10
  8.08359     49.3 8.534e+03 1.223e-10
  8.12371     51.0 8.506e+03 1.224e-10
  8.14956     52.8 8.520e+03 1.293e-10
  8.16962     53.4 8.857e+03 1.912e-10
  8.20395     55.0 9.037e+03 2.335e-10
  8.24408     56.7 9.271e+03 2.922e-10
  8.28420     58.3 9.469e+03 3.496e-10
  8.30679     59.9 9.617e+03 3.906e-10
  8.32382     60.5 9.800e+03 4.241e-10
  8.34134     61.1 1.018e+04 5.584e-10
  8.36444     62.7 1.032e+04 6.113e-10
  8.40456     64.2 1.040e+04 6.384e-10
  8.44468     65.6 1.049e+04 6.594e-10
  8.48480     66.8 1.059e+04 6.910e-10
  8.51306     67.9 1.076e+04 7.510e-10
  8.53313     68.8 1.071e+04 7.318e-10
  8.56504     69.8 1.101e+04 8.500e-10
  8.60516     70.2 1.152e+04 1.093e-09
  8.64528     70.3 1.223e+04 1.513e-09
  8.68479     70.3 1.271e+04 1.867e-09
  8.70475     70.9 1.332e+04 2.637e-09
  8.71530     71.0 1.350e+04 2.895e-09
  8.73536     71.4 1.343e+04 2.765e-09
  8.75542     71.7 1.315e+04 2.268e-09
  8.77548     71.8 1.276e+04 1.601e-09
  8.79004     71.7 1.205e+04 7.554e-10
  8.81020     72.9 1.264e+04 1.238e-09
  8.84589     71.4 1.106e+04 3.654e-10
  8.87657     68.5 9.639e+03 2.178e-10
  8.89664     69.8 1.023e+04 2.894e-10
  8.92613     67.1 9.988e+03 2.982e-10
  8.96625     66.1 9.981e+03 3.552e-10
  9.00637     66.1 1.009e+04 4.140e-10
  9.04649     66.2 1.008e+04 4.117e-10
  9.06836     66.4 9.947e+03 3.720e-10
  9.08842     66.6 1.009e+04 4.317e-10
  9.12673     66.9 9.953e+03 3.948e-10
  9.16685     67.3 9.976e+03 4.024e-10
  9.20698     67.6 1.009e+04 4.368e-10
  9.24008     67.7 1.023e+04 4.712e-10
  9.26014     68.4 1.096e+04 7.593e-10
  9.27349     68.2 1.125e+04 8.346e-10
  9.29355     68.2 1.193e+04 1.201e-09
  9.32734     67.4 1.196e+04 1.193e-09
  9.36746     66.3 1.167e+04 1.025e-09
  9.40758     65.6 1.104e+04 7.424e-10
  9.43187     65.3 1.035e+04 4.989e-10
  9.45193     65.5 1.063e+04 5.775e-10
  9.48782     65.3 9.853e+03 3.534e-10
  9.52794     65.4 9.472e+03 2.559e-10
  9.56806     65.9 9.248e+03 2.045e-10
  9.60359     66.9 9.097e+03 1.673e-10
  9.62365     67.1 8.958e+03 1.339e-10
  9.64830     68.3 8.843e+03 1.143e-10
  9.68843     69.5 8.773e+03 1.044e-10
  9.72855     70.7 8.752e+03 9.994e-11
  9.75683     71.9 8.748e+03 1.003e-10
  9.77689     72.5 8.755e+03 1.002e-10
  9.79538     73.8 8.780e+03 1.026e-10
  9.81544     73.9 8.747e+03 1.011e-10
  9.84891     75.2 8.738e+03 9.999e-11
  9.88903     76.4 8.707e+03 9.606e-11
  9.92915     77.7 8.668e+03 9.038e-11
  9.96710     79.1 8.645e+03 8.410e-11
  9.98716     79.2 8.592e+03 7.030e-11
 10.00939     80.6 8.593e+03 6.444e-11
 10.04951     82.0 8.601e+03 6.426e-11
 10.08963     83.4 8.625e+03 6.548e-11
 10.12975     84.7 8.692e+03 7.110e-11
 10.15889     86.0 8.787e+03 8.299e-11
 10.17895     86.4 8.749e+03 8.025e-11
 10.21000     87.7 8.878e+03 1.001e-10
 10.24018     88.9 9.038e+03 1.304e-10
 10.26024     89.2 9.170e+03 1.571e-10
 10.29024     90.3 9.371e+03 1.983e-10
 10.33036     91.1 9.578e+03 2.392e-10
 10.35067     91.7 9.767e+03 2.625e-10
 10.37073     92.4 9.945e+03 3.347e-10
 10.41060     92.6 1.013e+04 3.633e-10
 10.45072     92.7 1.019e+04 3.596e-10
 10.49084     92.5 1.023e+04 3.469e-10
 10.52240     92.1 1.027e+04 3.399e-10
 10.54246     92.3 1.059e+04 4.542e-10
 10.57108     91.8 1.056e+04 4.312e-10
 10.61120     91.4 1.052e+04 4.221e-10
 10.65133     91.2 1.054e+04 4.290e-10
 10.69145     91.2 1.065e+04 4.323e-10
 10.71418     91.2 1.072e+04 4.253e-10
 10.72620     91.7 1.058e+04 3.385e-10
 10.74358     92.0 1.055e+04 3.352e-10
 10.77169     92.2 1.059e+04 3.234e-10
 10.81181     92.6 1.065e+04 3.309e-10
 10.85193     93.3 1.077e+04 3.586e-10
 10.88591     94.2 1.118e+04 4.409e-10
 10.90597     94.6 1.124e+04 4.687e-10
 10.92204     94.1 1.165e+04 5.789e-10
 10.94201     93.4 1.215e+04 7.844e-10
 10.96207     92.5 1.270e+04 1.194e-09
 10.97503     91.9 1.325e+04 1.881e-09
 10.98454     92.5 1.287e+04 1.387e-09
 10.99164     92.9 1.277e+04 1.425e-09
 11.00219     92.8 1.326e+04 2.206e-09
 11.02225     93.1 1.382e+04 3.205e-09
 11.04231     93.5 1.431e+04 4.038e-09
 11.06237     93.6 1.459e+04 4.216e-09
 11.07750     93.5 1.458e+04 4.127e-09
 11.08753     94.1 1.405e+04 3.236e-09
 11.10249     94.1 1.398e+04 2.950e-09
 11.12255     93.8 1.379e+04 2.545e-09
 11.14261     93.5 1.350e+04 2.177e-09
 11.16267     93.3 1.334e+04 1.958e-09
 11.17339     93.1 1.331e+04 1.839e-09
 11.18342     93.7 1.306e+04 1.724e-09
 11.20677     93.2 1.328e+04 1.713e-09
 11.22693     93.6 1.321e+04 1.562e-09
 11.24942     93.5 1.309e+04 1.417e-09
 11.26948     95.2 1.291e+04 1.421e-09
 11.29326     95.7 1.312e+04 1.448e-09
 11.32325     95.1 1.329e+04 1.515e-09
 11.34321     94.9 1.345e+04 1.557e-09
 11.35515     94.6 1.354e+04 1.588e-09
 11.36518     95.3 1.409e+04 2.031e-09
 11.38333     94.9 1.441e+04 2.261e-09
 11.40340     94.4 1.440e+04 2.354e-09
 11.42346     93.8 1.432e+04 2.324e-09
 11.44101     93.3 1.408e+04 2.195e-09
 11.45104     93.9 1.533e+04 3.723e-09
 11.45838     93.4 1.480e+04 3.225e-09
 11.46841     94.1 1.480e+04 2.947e-09
 11.48364     93.6 1.414e+04 2.382e-09
 11.50370     93.1 1.356e+04 1.938e-09
 11.52376     92.8 1.322e+04 1.652e-09
 11.53690     92.7 1.302e+04 1.388e-09
 11.54693     92.9 1.345e+04 1.981e-09
 11.56388     92.8 1.332e+04 1.728e-09
 11.58394     92.7 1.325e+04 1.533e-09
 11.61283     92.5 1.311e+04 1.116e-09
 11.63289     92.8 1.354e+04 1.894e-09
 11.64412     92.7 1.361e+04 1.851e-09
 11.66418     92.7 1.372e+04 1.781e-09
 11.68424     92.7 1.385e+04 1.709e-09
 11.70005     92.6 1.393e+04 1.540e-09
 11.71008     93.0 1.381e+04 1.295e-09
 11.71866     92.8 1.383e+04 1.116e-09
 11.72869     92.7 1.473e+04 2.416e-09
 11.74442     92.4 1.469e+04 2.036e-09
 11.77461     92.1 1.388e+04 8.178e-10
 11.80471     91.5 1.314e+04 5.032e-10
 11.82468     91.6 1.353e+04 1.229e-09
 11.85485     91.1 1.320e+04 1.010e-09
 11.89507     91.3 1.252e+04 6.963e-10
 11.93519     92.1 1.206e+04 5.458e-10
 11.97531     93.4 1.180e+04 4.559e-10
 11.99650     94.8 1.159e+04 4.240e-10
 12.01656     94.2 1.189e+04 5.338e-10
 12.05555     95.8 1.168e+04 4.886e-10
 12.09567     97.5 1.160e+04 4.921e-10
 12.13580     99.5 1.157e+04 5.244e-10
 12.16822    101.5 1.167e+04 5.987e-10
 12.18593    100.9 1.149e+04 4.767e-10
 12.19362    100.9 1.194e+04 7.137e-10
 12.21604    103.0 1.214e+04 8.232e-10
 12.25616    105.0 1.234e+04 9.374e-10
 12.29628    106.7 1.234e+04 9.759e-10
 12.33640    108.4 1.230e+04 9.687e-10
 12.36001    110.0 1.216e+04 9.210e-10
 12.38007    109.8 1.157e+04 6.275e-10
 12.41664    111.6 1.135e+04 5.485e-10
 12.45676    113.3 1.111e+04 4.643e-10
 12.49688    115.1 1.089e+04 3.910e-10
 12.53173    116.9 1.070e+04 3.320e-10
 12.55179    117.1 1.025e+04 1.834e-10
 12.57712    118.9 1.014e+04 1.639e-10
 12.61725    120.8 1.006e+04 1.517e-10
 12.65691    122.6 9.984e+03 1.423e-10
 12.67697    122.7 1.010e+04 1.792e-10
 12.69749    124.7 1.003e+04 1.673e-10
 12.72352    126.7 9.980e+03 1.583e-10
 12.74358    127.3 9.824e+03 1.416e-10
 12.77773    129.4 9.848e+03 1.538e-10
 12.81785    131.5 9.877e+03 1.713e-10
 12.85797    133.4 9.943e+03 1.951e-10
 12.89524    135.4 1.002e+04 2.237e-10
 12.91530    136.0 9.979e+03 2.387e-10
 12.93821    137.9 1.005e+04 2.674e-10
 12.97833    139.6 1.010e+04 2.844e-10
 13.01845    141.2 1.012e+04 2.877e-10
 13.05857    142.6 1.013e+04 2.884e-10
 13.08703    143.8 1.012e+04 2.899e-10
 13.10709    144.4 1.002e+04 2.786e-10
 13.13882    145.4 1.003e+04 2.845e-10
 13.16031    146.2 1.008e+04 3.118e-10
 13.18037    146.4 1.039e+04 4.091e-10
 13.21906    146.9 1.042e+04 4.323e-10
 13.25875    147.2 1.042e+04 4.404e-10
 13.27881    147.6 1.028e+04 4.019e-10
 13.29930    147.7 1.026e+04 3.977e-10
 13.33942    147.8 1.014e+04 3.696e-10
 13.37954    148.2 9.936e+03 3.084e-10
 13.41966    148.7 9.703e+03 2.414e-10
 13.45054    149.3 9.485e+03 1.878e-10
 13.47060    149.1 9.465e+03 1.908e-10
 13.49990    149.8 9.223e+03 1.699e-10
 13.54002    150.9 9.155e+03 1.692e-10
 13.58015    152.2 9.147e+03 1.707e-10
 13.62027    153.7 9.132e+03 1.771e-10
 13.64232    155.1 9.122e+03 1.874e-10
 13.64566    155.0 9.112e+03 1.910e-10
 13.66372    154.9 9.084e+03 1.862e-10
 13.70051    156.4 9.060e+03 1.891e-10
 13.74063    157.9 9.052e+03 1.934e-10
 13.78075    159.3 9.066e+03 2.063e-10
 13.81405    160.7 9.216e+03 2.444e-10
 13.83411    160.4 9.053e+03 2.192e-10
 13.86099    161.6 9.351e+03 2.916e-10
 13.90111    162.7 9.732e+03 3.962e-10
 13.94123    163.1 9.932e+03 4.728e-10
 13.97123    163.6 9.996e+03 5.023e-10
 13.99119    164.0 1.006e+04 5.273e-10
 14.00564    164.3 1.011e+04 5.377e-10
 14.02580    164.6 9.973e+03 4.675e-10
 14.06159    165.1 9.915e+03 4.378e-10
 14.10172    165.8 9.811e+03 3.903e-10
 14.12700    166.5 9.663e+03 3.461e-10
 14.14706    166.5 9.636e+03 3.367e-10
 14.17756    167.2 9.583e+03 3.293e-10
 14.19762    167.5 9.315e+03 2.782e-10
 14.22208    168.2 9.431e+03 3.051e-10
 14.26220    168.7 9.597e+03 3.528e-10
 14.30232    169.0 9.742e+03 4.022e-10
 14.34244    169.2 9.905e+03 4.531e-10
 14.36934    169.4 1.009e+04 5.047e-10
 14.38940    169.7 9.920e+03 4.647e-10
 14.42268    169.5 9.956e+03 4.709e-10
 14.46280    168.9 1.004e+04 4.768e-10
 14.50292    167.8 1.019e+04 4.944e-10
 14.54107    166.3 1.043e+04 5.370e-10
 14.56113    165.5 1.071e+04 6.510e-10
 14.58317    163.7 1.108e+04 7.605e-10
 14.61035    161.8 1.114e+04 7.609e-10
 14.63041    160.2 1.114e+04 7.452e-10
 14.66341    158.7 1.085e+04 5.735e-10
 14.70353    157.6 1.030e+04 3.527e-10
 14.73285    156.8 9.607e+03 1.845e-10
 14.75291    156.0 9.419e+03 1.555e-10
 14.78377    155.2 8.644e+03 7.806e-11
 14.82389    154.9 8.501e+03 6.888e-11
 14.86401    155.2 8.494e+03 6.820e-11
 14.90413    156.2 8.493e+03 6.911e-11
 14.92464    157.2 8.542e+03 7.477e-11
 14.94470    157.0 8.512e+03 8.115e-11
 14.98437    157.8 8.655e+03 9.650e-11
 15.02449    158.5 8.810e+03 1.162e-10
 15.06462    159.1 8.944e+03 1.378e-10
 15.09370    159.7 9.044e+03 1.574e-10
 15.10538    159.8 9.065e+03 1.584e-10
 15.11642    159.6 9.110e+03 1.658e-10
 15.14486    160.0 9.133e+03 1.677e-10
 15.18498    160.4 9.122e+03 1.662e-10
 15.22510    160.8 9.076e+03 1.571e-10
 15.26522    161.3 8.984e+03 1.388e-10
 15.28815    161.9 8.857e+03 1.196e-10
 15.30821    161.8 8.815e+03 1.052e-10
 15.34546    162.5 8.713e+03 9.772e-11
 15.38558    163.5 8.708e+03 9.828e-11
 15.42570    164.5 8.736e+03 1.040e-10
 15.45987    165.5 8.888e+03 1.286e-10
 15.47993    165.3 9.030e+03 1.344e-10
 15.50594    165.7 9.550e+03 2.122e-10
 15.54607    165.6 9.953e+03 3.035e-10
 15.57606    165.0 1.041e+04 4.441e-10
 15.58688    165.0 1.091e+04 6.728e-10
 15.59691    165.0 1.069e+04 5.770e-10
 15.61608    164.8 1.134e+04 9.070e-10
 15.63614    164.9 1.173e+04 1.166e-09
 15.65156    164.9 1.226e+04 1.486e-09
 15.67172    164.9 1.203e+04 1.333e-09
 15.70655    164.5 1.221e+04 1.376e-09
 15.74667    163.5 1.221e+04 1.344e-09
 15.78679    162.6 1.209e+04 1.223e-09
 15.82338    161.5 1.198e+04 1.098e-09
 15.84334    161.5 1.257e+04 1.413e-09
 15.85681    160.9 1.270e+04 1.441e-09
 15.87687    160.4 1.277e+04 1.449e-09
 15.89693    159.7 1.280e+04 1.475e-09
 15.91699    159.1 1.277e+04 1.478e-09
 15.92911    158.4 1.265e+04 1.463e-09
 15.93914    158.9 1.387e+04 2.445e-09
 15.95711    158.3 1.356e+04 2.268e-09
 15.97717    157.9 1.316e+04 2.050e-09
 15.99723    157.5 1.276e+04 1.846e-09
 16.01497    157.1 1.242e+04 1.676e-09
 16.02500    157.1 1.299e+04 2.164e-09
 16.03735    156.7 1.257e+04 1.873e-09
 16.05741    156.6 1.254e+04 1.727e-09
 16.07022    156.5 1.257e+04 1.723e-09
 16.08025    155.9 1.223e+04 1.427e-09
 16.09753    155.8 1.227e+04 1.439e-09
 16.11086    155.7 1.241e+04 1.488e-09
 16.12089    155.3 1.241e+04 1.495e-09
 16.13765    155.0 1.262e+04 1.597e-09
 16.15771    154.3 1.297e+04 1.811e-09
 16.17777    153.3 1.340e+04 2.151e-09
 16.19673    152.3 1.385e+04 2.590e-09
 16.20676    151.3 1.374e+04 2.571e-09
 16.21789    150.3 1.427e+04 3.127e-09
 16.23795    149.2 1.485e+04 3.673e-09
 16.25801    147.9 1.541e+04 4.151e-09
 16.27807    146.5 1.589e+04 4.605e-09
 16.29262    145.1 1.626e+04 5.081e-09
 16.30265    144.2 1.741e+04 8.942e-09
 16.31190    143.2 1.770e+04 1.010e-08
 16.32193    144.4 1.756e+04 8.992e-09
 16.33826    143.2 1.777e+04 1.025e-08
 16.35832    142.3 1.776e+04 1.097e-08
 16.37838    141.8 1.765e+04 1.131e-08
 16.38851    141.6 1.752e+04 1.112e-08
 16.39854    141.4 1.758e+04 1.146e-08
 16.41850    141.3 1.701e+04 9.173e-09
 16.43856    140.9 1.638e+04 6.793e-09
 16.45862    140.0 1.564e+04 4.773e-09
 16.47437    138.7 1.480e+04 3.376e-09
 16.48440    136.4 1.271e+04 1.675e-09
 16.49874    134.8 1.164e+04 1.270e-09
 16.51880    133.8 1.099e+04 1.068e-09
 16.53886    133.3 1.071e+04 9.674e-10
 16.55357    133.0 1.062e+04 9.177e-10
 16.56360    132.6 1.081e+04 1.034e-09
 16.57027    132.3 1.080e+04 1.017e-09
 16.58030    132.5 1.061e+04 9.321e-10
 16.59904    132.3 1.059e+04 9.278e-10
 16.61910    132.2 1.053e+04 9.106e-10
 16.63916    132.0 1.049e+04 8.899e-10
 16.65613    131.5 1.053e+04 8.974e-10
 16.66616    131.9 1.043e+04 8.478e-10
 16.67928    131.1 1.058e+04 8.854e-10
 16.69934    129.6 1.102e+04 1.009e-09
 16.71940    127.4 1.185e+04 1.331e-09
 16.73946    124.9 1.289e+04 1.979e-09
 16.75202    122.6 1.382e+04 2.959e-09
 16.76205    123.0 1.370e+04 2.777e-09
 16.77959    120.9 1.449e+04 3.872e-09
 16.79524    118.8 1.483e+04 4.202e-09
 16.80527    118.9 1.434e+04 3.718e-09
 16.81971    117.0 1.436e+04 3.693e-09
 16.83788    115.1 1.426e+04 3.495e-09
 16.84791    115.3 1.445e+04 3.757e-09
 16.85983    113.4 1.422e+04 3.416e-09
 16.87989    111.8 1.389e+04 3.013e-09
 16.89995    110.4 1.350e+04 2.651e-09
 16.92001    109.5 1.311e+04 2.351e-09
 16.93378    109.4 1.279e+04 2.062e-09
 16.94381    109.5 1.282e+04 2.150e-09
 16.96013    109.5 1.251e+04 1.836e-09
 16.98019    109.6 1.223e+04 1.525e-09
 17.00025    109.5 1.215e+04 1.340e-09
 17.01964    109.2 1.224e+04 1.338e-09
 17.02967    108.9 1.229e+04 1.347e-09
 17.03691    108.0 1.283e+04 1.429e-09
 17.04694    109.5 1.222e+04 1.389e-09
 17.06043    108.7 1.282e+04 1.565e-09
 17.08049    107.6 1.412e+04 2.135e-09
 17.10055    106.6 1.531e+04 3.219e-09
 17.11548    105.6 1.613e+04 4.348e-09
 17.12551    105.1 1.618e+04 4.557e-09
 17.13561    104.6 1.703e+04 6.093e-09
 17.14559    104.3 1.768e+04 7.689e-09
 17.15562    104.0 1.830e+04 9.765e-09
 17.16267    103.8 1.880e+04 1.201e-08
 17.16541    103.9 1.852e+04 9.827e-09
 17.16839    103.8 1.783e+04 8.232e-09
 17.17568    103.1 1.843e+04 9.845e-09
 17.18571    102.8 1.875e+04 1.100e-08
 17.19574    102.3 1.904e+04 1.193e-08
 17.20577    101.6 1.945e+04 1.299e-08
 17.21133    100.8 1.985e+04 1.407e-08
 17.21634    100.4 1.922e+04 1.152e-08
 17.22583     99.4 1.960e+04 1.252e-08
 17.23586     98.4 2.013e+04 1.394e-08
 17.24589     97.1 2.105e+04 1.663e-08
 17.25426     95.8 2.194e+04 2.042e-08
 17.25927     95.8 2.129e+04 1.616e-08
 17.26595     94.4 2.227e+04 1.900e-08
 17.27598     93.2 2.290e+04 2.158e-08
 17.28351     92.0 2.307e+04 2.368e-08
 17.28852     92.2 2.213e+04 1.414e-08
 17.29604     90.5 2.208e+04 1.445e-08
 17.30220     89.4 2.195e+04 1.442e-08
 17.30727     90.2 2.072e+04 9.591e-09
 17.32122     87.6 2.025e+04 9.194e-09
 17.34128     85.5 1.925e+04 8.955e-09
 17.35627     84.7 1.842e+04 8.347e-09
 17.36625     84.4 1.816e+04 8.366e-09
 17.37628     84.3 1.809e+04 8.566e-09
 17.38631     84.3 1.801e+04 8.975e-09
 17.39308     84.4 1.791e+04 9.320e-09
 17.39810     84.5 1.763e+04 8.230e-09
 17.40434     84.6 1.756e+04 8.596e-09
 17.40936     84.7 1.717e+04 6.935e-09
 17.41641     85.1 1.719e+04 7.289e-09
 17.42644     85.7 1.732e+04 7.842e-09
 17.43601     86.2 1.755e+04 8.649e-09
 17.44103     86.1 1.733e+04 7.833e-09
 17.44650     86.5 1.753e+04 8.505e-09
 17.45653     86.9 1.767e+04 9.148e-09
 17.46656     87.4 1.775e+04 9.703e-09
 17.47659     88.0 1.786e+04 1.019e-08
 17.48396     88.4 1.802e+04 1.069e-08
 17.48897     88.3 1.778e+04 9.448e-09
 17.49665     88.7 1.791e+04 9.870e-09
 17.50668     89.2 1.802e+04 1.027e-08
 17.51671     89.7 1.813e+04 1.067e-08
 17.52518     90.1 1.824e+04 1.106e-08
 17.53019     89.5 1.850e+04 9.404e-09
 17.53190     90.0 1.869e+04 1.002e-08
 17.53692     89.6 1.869e+04 8.475e-09
 17.54680     90.0 1.889e+04 9.024e-09
 17.55683     90.6 1.904e+04 9.647e-09
 17.56686     91.2 1.924e+04 1.038e-08
 17.57484     91.8 1.957e+04 1.112e-08
 17.57985     91.1 1.945e+04 9.173e-09
 17.58692     91.4 1.965e+04 9.478e-09
 17.59695     91.7 1.982e+04 9.882e-09
 17.60698     92.1 2.000e+04 1.029e-08
 17.61701     92.6 2.027e+04 1.048e-08
 17.62278     93.2 2.040e+04 1.043e-08
 17.62780     92.0 1.921e+04 8.012e-09
 17.63707     92.4 1.928e+04 7.933e-09
 17.64601     92.6 1.924e+04 7.715e-09
 17.65103     91.6 1.820e+04 6.587e-09
 17.66075     93.2 1.974e+04 7.804e-09
 17.67083     91.0 1.801e+04 6.108e-09
 17.68230     90.3 1.775e+04 5.683e-09
 17.70236     88.1 1.789e+04 5.359e-09
 17.72242     84.0 1.939e+04 5.505e-09
 17.74248     79.0 2.411e+04 5.945e-09
 17.75669     75.0 2.450e+04 6.817e-09
 17.76611     78.7 1.703e+04 5.818e-09
 17.77196     78.6 1.500e+04 4.149e-09
 17.78261     76.0 1.509e+04 4.141e-09
 17.80267     73.6 1.496e+04 4.107e-09
 17.82273     71.7 1.464e+04 3.949e-09
 17.84255     70.6 1.423e+04 3.725e-09
 17.85258     73.1 1.431e+04 3.621e-09
 17.86285     72.2 1.395e+04 3.364e-09
 17.88291     72.1 1.369e+04 3.170e-09
 17.90297     72.5 1.358e+04 3.013e-09
 17.92303     73.0 1.361e+04 2.872e-09
 17.93844     73.6 1.371e+04 2.744e-09
 17.94847     74.3 1.342e+04 2.769e-09
 17.96315     75.1 1.342e+04 2.711e-09
 17.98321     76.0 1.352e+04 2.644e-09
 18.00327     77.0 1.384e+04 2.494e-09
 18.01364     77.9 1.431e+04 2.503e-09
 18.02367     77.5 1.343e+04 2.523e-09
 18.03434     78.4 1.375e+04 2.680e-09
 18.04437     78.2 1.405e+04 3.463e-09
 18.06345     78.9 1.467e+04 3.804e-09
 18.08351     78.9 1.574e+04 4.446e-09
 18.10357     78.6 1.787e+04 5.810e-09
 18.11857     78.3 1.883e+04 6.948e-09
 18.12512     77.7 1.958e+04 8.282e-09
 18.13013     78.0 1.748e+04 7.246e-09
 18.13438     77.0 1.872e+04 8.870e-09
 18.13939     77.7 1.728e+04 7.626e-09
 18.14861     76.8 1.811e+04 9.127e-09
 18.15864     75.9 1.915e+04 1.154e-08
 18.16805     75.2 2.013e+04 1.509e-08
 18.17306     75.6 1.934e+04 1.313e-08
 18.17870     75.0 2.013e+04 1.663e-08
 18.18873     74.6 2.082e+04 2.123e-08
 18.19876     74.3 2.142e+04 2.646e-08
 18.20879     74.0 2.204e+04 3.158e-08
 18.21599     73.4 2.239e+04 3.348e-08
 18.22101     73.2 2.171e+04 2.784e-08
 18.22885     72.5 2.171e+04 2.772e-08
 18.23888     72.1 2.162e+04 2.672e-08
 18.24891     71.8 2.154e+04 2.512e-08
 18.25521     71.4 2.157e+04 2.249e-08
 18.26529     71.4 2.012e+04 1.744e-08
 18.28412     70.5 1.986e+04 1.500e-08
 18.30195     69.4 1.940e+04 1.237e-08
 18.31198     69.4 1.903e+04 1.279e-08
 18.31917     68.8 1.909e+04 1.205e-08
 18.32915     68.4 1.907e+04 1.157e-08
 18.33918     68.3 1.892e+04 1.092e-08
 18.34921     68.2 1.878e+04 1.042e-08
 18.35482     68.4 1.869e+04 1.002e-08
 18.35983     68.8 1.873e+04 1.008e-08
 18.36928     68.9 1.858e+04 9.862e-09
 18.37605     69.1 1.850e+04 9.626e-09
 18.38106     69.8 1.839e+04 9.649e-09
 18.38934     70.0 1.837e+04 9.667e-09
 18.39780     69.9 1.830e+04 9.391e-09
 18.40788     70.5 1.807e+04 9.297e-09
 18.42454     70.8 1.815e+04 9.617e-09
 18.44460     71.3 1.825e+04 1.008e-08
 18.46466     71.7 1.827e+04 9.741e-09
 18.48371     72.0 1.813e+04 8.598e-09
 18.49374     72.8 1.846e+04 1.016e-08
 18.49698     72.8 1.828e+04 8.936e-09
 18.50701     74.3 1.934e+04 1.445e-08
 18.52484     73.8 1.987e+04 1.406e-08
 18.54490     71.7 2.060e+04 1.323e-08
 18.56496     68.8 2.112e+04 1.100e-08
 18.57960     66.1 2.029e+04 8.254e-09
 18.58963     65.6 2.177e+04 1.089e-08
 18.60508     63.3 1.931e+04 5.902e-09
 18.62514     60.4 1.537e+04 3.313e-09
 18.64520     58.2 1.304e+04 2.355e-09
 18.66526     58.0 1.256e+04 1.963e-09
 18.67549     58.4 1.240e+04 1.722e-09
 18.68552     57.5 1.199e+04 1.408e-09
 18.70538     57.6 1.188e+04 1.240e-09
 18.72545     57.7 1.177e+04 1.143e-09
 18.75142     58.6 1.162e+04 1.035e-09
 18.77158     58.0 1.126e+04 8.690e-10
 18.79585     59.2 1.088e+04 6.912e-10
 18.83597     60.6 1.063e+04 5.951e-10
 18.87609     62.4 1.048e+04 5.498e-10
 18.91621     64.3 1.036e+04 5.188e-10
 18.94331     66.4 1.031e+04 4.917e-10
 18.96337     66.6 1.020e+04 4.627e-10
 18.98052     68.5 1.015e+04 4.357e-10
 19.00058     67.5 9.944e+03 3.943e-10
 19.03658     69.8 9.834e+03 3.541e-10
 19.07670     72.1 9.694e+03 3.150e-10
 19.11503     74.3 9.588e+03 2.802e-10
 19.13509     74.2 9.585e+03 2.640e-10
 19.15694     76.3 9.498e+03 2.375e-10
 19.19706     78.5 9.416e+03 2.188e-10
 19.23718     80.6 9.363e+03 2.097e-10
 19.27730     82.8 9.359e+03 2.080e-10
 19.30682     85.0 9.361e+03 2.089e-10
 19.32688     84.5 9.357e+03 2.089e-10
 19.35754     86.8 9.370e+03 2.140e-10
 19.39766     89.2 9.451e+03 2.237e-10
 19.43778     91.4 9.667e+03 2.354e-10
 19.46387     94.2 9.847e+03 2.513e-10
 19.47380     91.9 1.034e+04 2.447e-10
 19.48774     92.7 1.067e+04 2.622e-10
 19.49841     93.4 1.138e+04 3.030e-10
 19.50844     91.3 1.286e+04 5.573e-10
 19.52786     91.9 1.329e+04 7.777e-10
 19.54792     92.7 1.366e+04 1.081e-09
 19.56798     93.7 1.399e+04 1.467e-09
 19.58427     95.1 1.423e+04 1.888e-09
 19.59430     94.6 1.458e+04 3.383e-09
 19.60810     96.1 1.466e+04 3.721e-09
 19.62816     97.8 1.465e+04 3.721e-09
 19.64822     99.4 1.455e+04 3.622e-09
 19.66828    100.9 1.434e+04 3.342e-09
 19.68016    102.3 1.405e+04 2.956e-09
 19.69019    102.0 1.411e+04 3.454e-09
 19.70535    103.6 1.383e+04 3.007e-09
 19.71538    103.1 1.426e+04 3.575e-09
 19.72847    104.5 1.410e+04 3.204e-09
 19.74853    105.6 1.398e+04 2.914e-09
 19.76602    106.6 1.379e+04 2.700e-09
 19.77605    105.7 1.423e+04 2.457e-09
 19.78865    106.9 1.419e+04 2.482e-09
 19.80871    108.3 1.419e+04 2.561e-09
 19.82877    109.6 1.441e+04 2.671e-09
 19.84883    110.9 1.462e+04 2.861e-09
 19.86192    112.4 1.484e+04 3.102e-09
 19.87195    111.7 1.491e+04 3.156e-09
 19.88895    113.3 1.517e+04 3.447e-09
 19.90901    114.7 1.544e+04 3.757e-09
 19.92907    116.2 1.566e+04 4.055e-09
 19.94702    117.8 1.591e+04 4.365e-09
 19.95570    116.5 1.547e+04 3.863e-09
 19.95781    115.7 1.500e+04 3.328e-09
 19.96919    117.1 1.532e+04 3.672e-09
 19.98925    118.4 1.563e+04 4.038e-09
 20.00931    119.6 1.596e+04 4.448e-09
 20.02937    120.8 1.631e+04 4.962e-09
 20.04367    121.6 1.665e+04 5.604e-09
 20.05370    120.5 1.612e+04 5.180e-09
 20.06949    121.6 1.646e+04 6.000e-09
 20.08955    123.1 1.675e+04 6.932e-09
 20.10961    124.9 1.715e+04 8.114e-09
 20.12461    125.3 1.733e+04 8.684e-09
 20.13445    125.7 1.746e+04 9.049e-09
 20.13946    125.2 1.689e+04 7.459e-09
 20.14462    125.7 1.697e+04 7.591e-09
 20.15465    126.3 1.704e+04 7.645e-09
 20.16468    126.9 1.712e+04 7.664e-09
 20.17471    127.5 1.726e+04 7.670e-09
 20.18240    128.0 1.744e+04 7.676e-09
 20.18741    127.7 1.715e+04 6.025e-09
 20.19361    128.1 1.731e+04 5.972e-09
 20.19863    126.2 1.716e+04 5.763e-09
 20.20480    126.5 1.733e+04 5.863e-09
 20.21483    126.8 1.747e+04 5.938e-09
 20.22486    127.1 1.759e+04 6.013e-09
 20.23034    127.3 1.775e+04 6.147e-09
 20.23536    126.3 1.712e+04 5.060e-09
 20.24492    126.3 1.731e+04 5.247e-09
 20.25495    126.3 1.756e+04 5.525e-09
 20.26498    126.1 1.784e+04 5.861e-09
 20.27327    126.0 1.807e+04 6.217e-09
 20.27829    125.4 1.752e+04 5.412e-09
 20.28504    125.1 1.789e+04 5.913e-09
 20.29507    124.9 1.787e+04 6.058e-09
 20.30510    124.8 1.801e+04 6.230e-09
 20.31445    124.8 1.801e+04 6.263e-09
 20.31946    124.5 1.817e+04 6.447e-09
 20.32127    124.8 1.828e+04 6.564e-09
 20.33135    124.5 1.771e+04 5.733e-09
 20.35034    124.1 1.744e+04 5.244e-09
 20.37040    123.4 1.682e+04 4.172e-09
 20.39046    121.9 1.600e+04 3.032e-09
 20.40718    119.2 1.511e+04 2.172e-09
 20.41721    119.1 1.517e+04 2.521e-09
 20.43037    116.4 1.462e+04 2.155e-09
 20.44040    111.9 1.421e+04 1.978e-09
 20.45064    109.9 1.419e+04 1.976e-09
 20.47070    106.8 1.470e+04 2.151e-09
 20.49076    100.0 1.719e+04 3.226e-09
 20.50307     91.1 2.025e+04 7.346e-09
 20.51310     95.6 1.943e+04 5.565e-09
 20.53088     87.1 2.120e+04 1.095e-08
 20.55094     80.0 2.146e+04 1.303e-08
 20.57100     73.6 2.135e+04 1.179e-08
 20.58893     67.2 2.070e+04 7.161e-09
 20.59896     70.6 2.130e+04 9.493e-09
 20.61112     63.3 2.014e+04 4.562e-09
 20.63118     54.1 1.665e+04 1.723e-09
 20.65124     44.9 1.270e+04 1.110e-09
 20.67130     39.4 1.252e+04 1.127e-09
 20.68207     34.9 1.308e+04 1.356e-09
 20.68556     36.5 1.271e+04 1.226e-09
 20.69486     38.6 1.265e+04 1.209e-09
 20.71143     33.7 1.390e+04 1.795e-09
 20.72642     27.6 1.599e+04 3.060e-09
 20.73268     25.6 1.657e+04 3.846e-09
 20.73769     27.8 1.586e+04 3.274e-09
 20.74643     20.0 2.052e+04 6.737e-09
 20.75646     18.2 2.137e+04 8.513e-09
 20.76649      8.0 2.687e+04 1.912e-08
 20.77561      3.7 2.624e+04 2.561e-08
 20.78062      7.0 2.571e+04 2.031e-08
 20.78655     -0.5 2.834e+04 3.091e-08
 20.79658     -7.7 2.870e+04 3.022e-08
 20.80281    -15.9 3.026e+04 2.245e-08
 20.80782    -13.0 3.061e+04 2.803e-08
 20.81665    -21.9 3.035e+04 2.055e-08
 20.82355    -30.0 2.580e+04 1.434e-08
 20.82857    -27.4 2.705e+04 1.598e-08
 20.83671    -36.3 2.378e+04 1.319e-08
 20.85180    -48.1 1.962e+04 1.050e-08
 20.86658    -56.3 2.155e+04 1.192e-08
 20.87661    -52.8 2.042e+04 1.280e-08
 20.88691    -61.7 2.364e+04 1.467e-08
 20.89689    -68.0 2.532e+04 1.675e-08
 20.90692    -74.3 2.679e+04 2.063e-08
 20.91443    -80.3 2.555e+04 3.053e-08
 20.91945    -77.5 2.590e+04 2.348e-08
 20.92364    -82.8 2.405e+04 3.145e-08
 20.92866    -82.6 2.421e+04 3.158e-08
 20.93701    -85.9 2.279e+04 4.143e-08
 20.94704    -88.4 2.225e+04 4.847e-08
 20.95707    -90.9 2.249e+04 5.027e-08
 20.96238    -94.5 2.302e+04 4.788e-08
 20.96739    -92.9 2.273e+04 4.003e-08
 20.97713    -98.2 2.467e+04 3.543e-08
 20.98716   -106.5 2.767e+04 2.814e-08
 20.99719   -117.7 2.898e+04 2.141e-08
 21.00531   -129.3 2.589e+04 1.761e-08
 21.01032   -126.5 2.769e+04 2.092e-08
 21.01725   -136.5 2.438e+04 1.824e-08
 21.02728   -143.3 2.314e+04 1.700e-08
 21.03731   -148.2 2.260e+04 1.627e-08
 21.04448   -152.4 2.183e+04 1.474e-08
 21.04950   -152.7 2.197e+04 1.519e-08
 21.05325   -156.8 2.076e+04 1.231e-08
 21.05827   -156.5 2.113e+04 1.296e-08
 21.06740   -160.2 1.984e+04 9.578e-09
 21.07743   -163.2 1.860e+04 6.904e-09
 21.09252   -167.0 1.707e+04 4.460e-09
 21.11263   -174.1 1.305e+04 1.754e-09
 21.13269   -178.6 1.123e+04 7.703e-10
 21.14423   -181.9 1.069e+04 5.189e-10
 21.15426   -183.1 1.093e+04 5.507e-10
 21.16542   -186.4 1.076e+04 5.003e-10
 21.17545   -187.7 1.114e+04 5.943e-10
 21.19288   -190.6 1.113e+04 5.965e-10
 21.21294   -192.8 1.135e+04 7.085e-10
 21.23009   -194.5 1.157e+04 8.719e-10
 21.24012   -195.4 1.157e+04 8.670e-10
 21.25306   -196.5 1.163e+04 9.283e-10
 21.27312   -197.4 1.163e+04 9.354e-10
 21.29318   -198.3 1.147e+04 8.904e-10
 21.31324   -199.2 1.127e+04 7.938e-10
 21.32598   -200.3 1.113e+04 7.142e-10
 21.33601   -201.1 1.094e+04 6.091e-10
 21.35336   -202.5 1.087e+04 5.793e-10
 21.37342   -204.1 1.086e+04 5.746e-10
 21.39348   -206.0 1.097e+04 5.961e-10
 21.40709   -207.9 1.133e+04 7.187e-10
 21.41543   -208.6 1.109e+04 6.459e-10
 21.42188   -209.2 1.100e+04 6.144e-10
 21.43360   -210.5 1.132e+04 7.524e-10
 21.45366   -211.8 1.151e+04 8.537e-10
 21.47372   -213.1 1.157e+04 8.881e-10
 21.49378   -214.3 1.156e+04 8.912e-10
 21.50774   -215.3 1.137e+04 8.521e-10
 21.51777   -215.7 1.144e+04 8.656e-10
 21.53390   -216.3 1.109e+04 7.581e-10
 21.55396   -216.8 1.074e+04 6.538e-10
 21.57402   -217.2 1.044e+04 5.762e-10
 21.59360   -217.4 1.023e+04 5.267e-10
 21.60363   -217.8 1.033e+04 5.617e-10
 21.61414   -217.9 1.025e+04 5.443e-10
 21.63420   -218.0 1.024e+04 5.411e-10
 21.64876   -218.0 1.024e+04 5.420e-10
 21.65879   -218.4 9.884e+03 4.526e-10
 21.67433   -218.6 1.001e+04 4.812e-10
 21.68949   -218.8 1.024e+04 5.437e-10
 21.69952   -219.0 1.038e+04 5.931e-10
 21.71445   -219.1 1.062e+04 6.737e-10
 21.73451   -219.2 1.089e+04 7.678e-10
 21.75457   -219.3 1.115e+04 8.716e-10
 21.77463   -219.5 1.140e+04 9.770e-10
 21.78539   -219.6 1.160e+04 1.071e-09
 21.79542   -219.8 1.157e+04 1.068e-09
 21.81475   -220.0 1.169e+04 1.131e-09
 21.83481   -220.2 1.174e+04 1.161e-09
 21.85487   -220.3 1.175e+04 1.168e-09
 21.87125   -220.3 1.173e+04 1.168e-09
 21.88128   -220.2 1.156e+04 1.099e-09
 21.89043   -220.1 1.155e+04 1.100e-09
 21.90046   -220.1 1.134e+04 9.870e-10
 21.91505   -219.9 1.128e+04 9.677e-10
 21.93511   -219.5 1.112e+04 9.102e-10
 21.95517   -219.0 1.094e+04 8.402e-10
 21.96714   -218.4 1.074e+04 7.653e-10
 21.97717   -218.1 1.068e+04 7.405e-10
 21.99529   -217.4 1.051e+04 6.807e-10
 22.01535   -216.7 1.034e+04 6.220e-10
 22.03541   -215.8 1.017e+04 5.662e-10
 22.05300   -214.9 1.001e+04 5.136e-10
 22.06303   -214.8 1.013e+04 5.484e-10
 22.07553   -214.0 1.004e+04 5.214e-10
 22.09559   -213.1 9.961e+03 4.977e-10
 22.11565   -212.3 9.901e+03 4.785e-10
 22.13211   -211.5 9.863e+03 4.660e-10
 22.14214   -211.1 9.914e+03 4.673e-10
 22.14890   -210.3 9.929e+03 4.691e-10
 22.15893   -210.1 1.022e+04 5.424e-10
 22.17584   -209.5 1.027e+04 5.539e-10
 22.19590   -208.8 1.027e+04 5.599e-10
 22.21596   -208.3 1.027e+04 5.595e-10
 22.23476   -207.9 1.020e+04 5.457e-10
 22.24479   -207.5 1.101e+04 8.201e-10
 22.25608   -207.2 1.092e+04 8.048e-10
 22.27614   -207.0 1.077e+04 7.581e-10
 22.29620   -206.9 1.061e+04 7.032e-10
 22.31626   -206.8 1.044e+04 6.426e-10
 22.33065   -206.8 1.045e+04 6.170e-10
 22.34068   -207.2 1.139e+04 9.336e-10
 22.35638   -207.4 1.143e+04 9.270e-10
 22.37378   -207.6 1.153e+04 9.249e-10
 22.38381   -206.4 1.140e+04 9.690e-10
 22.39650   -206.4 1.146e+04 9.661e-10
 22.41651   -206.5 1.160e+04 9.717e-10
 22.43657   -207.2 1.236e+04 1.375e-09
 22.45668   -207.2 1.223e+04 1.346e-09
 22.47674   -207.0 1.208e+04 1.314e-09
 22.49680   -206.8 1.195e+04 1.291e-09
 22.51241   -206.6 1.189e+04 1.287e-09
 22.52244   -207.4 1.258e+04 1.651e-09
 22.53692   -207.6 1.286e+04 1.691e-09
 22.55698   -207.8 1.343e+04 1.894e-09
 22.57704   -207.8 1.397e+04 2.205e-09
 22.59710   -207.7 1.432e+04 2.518e-09
 22.60830   -207.4 1.443e+04 2.695e-09
 22.61662   -208.7 1.525e+04 3.766e-09
 22.62548   -207.7 1.571e+04 4.901e-09
 22.63723   -207.2 1.568e+04 5.025e-09
 22.65729   -206.5 1.549e+04 5.033e-09
 22.67735   -205.7 1.504e+04 4.644e-09
 22.69416   -204.7 1.460e+04 3.978e-09
 22.70419   -205.5 1.464e+04 4.432e-09
 22.71747   -204.5 1.428e+04 3.787e-09
 22.73753   -203.7 1.399e+04 3.216e-09
 22.75759   -202.9 1.372e+04 2.703e-09
 22.77765   -202.1 1.343e+04 2.226e-09
 22.79005   -201.3 1.308e+04 1.791e-09
 22.80008   -201.8 1.324e+04 2.311e-09
 22.81777   -200.9 1.287e+04 1.862e-09
 22.83783   -200.0 1.239e+04 1.455e-09
 22.85713   -199.1 1.182e+04 1.112e-09
 22.86716   -198.1 1.254e+04 1.656e-09
 22.87592   -197.3 1.206e+04 1.236e-09
 22.88595   -197.5 1.220e+04 1.537e-09
 22.89801   -196.6 1.173e+04 1.155e-09
 22.91807   -195.8 1.119e+04 8.557e-10
 22.93813   -194.9 1.065e+04 6.374e-10
 22.95819   -193.9 1.015e+04 4.839e-10
 22.97181   -192.8 9.710e+03 3.789e-10
 22.98184   -192.9 1.055e+04 5.294e-10
 22.99831   -191.8 1.016e+04 4.078e-10
 23.01837   -190.7 9.751e+03 3.205e-10
 23.03843   -189.7 9.440e+03 2.668e-10
 23.05767   -188.6 9.292e+03 2.433e-10
 23.06770   -188.8 1.063e+04 3.199e-10
 23.07855   -187.7 1.026e+04 2.650e-10
 23.09861   -186.5 9.946e+03 2.413e-10
 23.10883   -185.3 9.816e+03 2.347e-10
 23.11886   -185.6 1.095e+04 2.993e-10
 23.13874   -184.3 1.051e+04 2.682e-10
 23.15366   -182.9 1.013e+04 2.506e-10
 23.16369   -184.0 1.151e+04 5.003e-10
 23.17886   -182.7 1.142e+04 4.827e-10
 23.19892   -181.3 1.138e+04 4.811e-10
 23.21898   -180.0 1.135e+04 5.316e-10
 23.23904   -178.7 1.140e+04 6.107e-10
 23.24946   -177.6 1.150e+04 7.311e-10
 23.25949   -177.6 1.180e+04 8.210e-10
 23.28929   -176.5 1.172e+04 9.118e-10
 23.32548   -174.1 1.211e+04 1.192e-09
 23.34545   -173.0 1.187e+04 1.196e-09
 23.35050   -172.0 1.182e+04 1.199e-09
 23.36053   -172.0 1.149e+04 1.047e-09
 23.37946   -171.1 1.165e+04 1.096e-09
 23.39952   -170.4 1.181e+04 1.147e-09
 23.41958   -169.7 1.194e+04 1.198e-09
 23.43121   -169.2 1.206e+04 1.222e-09
 23.44124   -169.2 1.201e+04 1.066e-09
 23.45970   -169.3 1.248e+04 1.195e-09
 23.47976   -170.0 1.360e+04 1.404e-09
 23.49982   -170.7 1.498e+04 1.753e-09
 23.51707   -171.1 1.604e+04 2.190e-09
 23.52710   -172.2 1.774e+04 3.122e-09
 23.53994   -172.1 1.759e+04 3.657e-09
 23.56000   -171.7 1.741e+04 3.760e-09
 23.58006   -171.1 1.662e+04 3.779e-09
 23.59217   -170.3 1.579e+04 3.423e-09
 23.60221   -169.4 1.522e+04 2.175e-09
 23.61297   -168.7 1.489e+04 2.188e-09
 23.62300   -169.1 1.648e+04 3.578e-09
 23.64025   -168.2 1.581e+04 3.395e-09
 23.66031   -167.3 1.535e+04 3.019e-09
 23.68037   -166.7 1.521e+04 2.650e-09
 23.69883   -166.3 1.517e+04 2.557e-09
 23.70886   -168.2 1.848e+04 7.029e-09
 23.72049   -168.5 1.894e+04 7.404e-09
 23.74055   -168.5 1.918e+04 8.375e-09
 23.76061   -168.1 1.929e+04 8.953e-09
 23.78067   -167.6 1.930e+04 8.771e-09
 23.79472   -166.9 1.932e+04 7.973e-09
 23.80475   -167.7 1.969e+04 1.411e-08
 23.82079   -167.4 1.946e+04 1.131e-08
 23.83385   -167.4 1.910e+04 8.986e-09
 23.84388   -166.9 1.959e+04 1.634e-08
 23.86091   -166.9 1.939e+04 1.346e-08
 23.88058   -167.1 1.930e+04 1.210e-08
 23.89061   -168.2 1.841e+04 1.181e-08
 23.90103   -168.4 1.823e+04 1.108e-08
 23.92109   -168.4 1.809e+04 1.068e-08
 23.94115   -168.1 1.778e+04 1.015e-08
 23.96121   -167.6 1.724e+04 9.213e-09
 23.97648   -166.8 1.662e+04 7.950e-09
 23.98651   -167.1 1.565e+04 5.416e-09
 24.00133   -166.2 1.505e+04 4.266e-09
 24.02139   -165.4 1.442e+04 3.266e-09
 24.04145   -164.6 1.378e+04 2.450e-09
 24.06151   -163.6 1.312e+04 1.821e-09
 24.07237   -162.4 1.252e+04 1.358e-09
 24.07634   -162.9 1.184e+04 9.042e-10
 24.08555   -163.1 1.146e+04 7.581e-10
 24.10164   -161.6 1.106e+04 5.750e-10
 24.12170   -160.2 1.075e+04 4.361e-10
 24.14176   -158.9 1.053e+04 3.440e-10
 24.15823   -157.6 1.042e+04 2.910e-10
 24.16826   -157.9 1.032e+04 2.606e-10
 24.18188   -156.9 1.033e+04 2.494e-10
 24.21207   -155.2 1.034e+04 2.317e-10
 24.24429   -152.9 1.019e+04 2.011e-10
 24.26435   -153.8 9.748e+03 1.515e-10
 24.29240   -151.4 9.663e+03 1.426e-10
 24.31739   -148.9 9.645e+03 1.414e-10
 24.33745   -148.0 9.378e+03 1.065e-10
 24.37265   -145.6 9.402e+03 1.062e-10
 24.41277   -143.1 9.497e+03 1.176e-10
 24.43607   -140.7 9.520e+03 1.474e-10
 24.45613   -141.2 9.450e+03 1.451e-10
 24.49301   -138.7 9.429e+03 1.794e-10
 24.53313   -136.1 9.439e+03 2.074e-10
 24.57325   -133.6 9.436e+03 2.215e-10
 24.60780   -131.2 9.414e+03 2.242e-10
 24.62786   -131.3 9.150e+03 1.893e-10
 24.65349   -128.9 9.057e+03 1.750e-10
 24.69361   -126.5 8.978e+03 1.603e-10
 24.73373   -124.2 8.908e+03 1.521e-10
 24.77385   -122.1 8.874e+03 1.506e-10
 24.79958   -120.0 8.876e+03 1.602e-10
 24.80640   -119.6 8.696e+03 1.264e-10
 24.82080   -119.1 8.785e+03 1.337e-10
 24.85410   -117.1 8.785e+03 1.427e-10
 24.89422   -115.0 8.850e+03 1.589e-10
 24.93434   -112.8 8.974e+03 1.780e-10
 24.97131   -110.7 9.117e+03 1.982e-10
 24.99137   -110.3 8.839e+03 1.631e-10
 25.01458   -108.3 8.979e+03 1.859e-10
 25.05470   -106.4 9.086e+03 2.089e-10
 25.09482   -104.5 9.149e+03 2.303e-10
 25.13494   -102.7 9.195e+03 2.519e-10
 25.16309   -101.4 9.301e+03 2.830e-10
 25.18315   -102.6 9.331e+03 2.788e-10
 25.21518   -102.7 1.002e+04 3.919e-10
 25.25530   -102.9 1.103e+04 6.925e-10
 25.28408   -103.0 1.183e+04 1.177e-09
 25.30414   -102.6 1.144e+04 8.179e-10
 25.33482   -103.6 1.221e+04 1.437e-09
 25.35488   -105.8 1.246e+04 1.838e-09
 25.36554   -105.9 1.277e+04 2.206e-09
 25.38550   -106.1 1.276e+04 2.243e-09
 25.40556   -106.3 1.279e+04 2.324e-09
 25.42562   -106.6 1.271e+04 2.213e-09
 25.44055   -107.3 1.253e+04 2.016e-09
 25.45058   -108.5 1.198e+04 1.597e-09
 25.46574   -109.4 1.170e+04 1.397e-09
 25.48580   -110.5 1.161e+04 1.311e-09
 25.50586   -112.2 1.164e+04 1.302e-09
 25.52556   -114.8 1.220e+04 1.434e-09
 25.53559   -113.5 1.138e+04 1.043e-09
 25.53644   -116.2 1.223e+04 1.426e-09
 25.54647   -116.8 1.191e+04 1.224e-09
 25.56605   -118.7 1.267e+04 1.911e-09
 25.58611   -119.5 1.317e+04 2.609e-09
 25.60617   -119.9 1.336e+04 2.891e-09
 25.62230   -120.3 1.334e+04 2.878e-09
 25.63233   -120.6 1.329e+04 2.798e-09
 25.64629   -120.8 1.288e+04 2.104e-09
 25.66635   -121.7 1.204e+04 1.149e-09
 25.68641   -123.8 1.088e+04 5.651e-10
 25.70647   -126.0 9.913e+03 3.337e-10
 25.71819   -127.0 9.573e+03 2.787e-10
 25.72822   -127.1 9.615e+03 2.878e-10
 25.74659   -127.3 9.531e+03 2.769e-10
 25.76733   -127.6 9.528e+03 2.748e-10
 25.78749   -126.2 9.587e+03 2.939e-10
 25.81700   -126.0 9.752e+03 3.189e-10
 25.85712   -125.6 1.006e+04 3.907e-10
 25.89011   -125.0 1.030e+04 4.686e-10
 25.91017   -124.7 1.038e+04 4.982e-10
 25.93736   -124.0 1.071e+04 6.005e-10
 25.97748   -123.2 1.091e+04 6.328e-10
 26.01760   -122.8 1.092e+04 5.709e-10
 26.04759   -121.8 1.085e+04 5.683e-10
 26.06756   -122.2 1.053e+04 4.771e-10
 26.08180   -122.7 1.020e+04 4.066e-10
 26.09183   -121.6 1.064e+04 5.414e-10
 26.10768   -121.5 1.027e+04 4.661e-10
 26.12774   -121.2 1.002e+04 4.069e-10
 26.14780   -120.6 9.826e+03 3.576e-10
 26.17799   -120.1 9.695e+03 3.203e-10
 26.21820   -118.1 9.357e+03 2.451e-10
 26.25077   -116.3 9.157e+03 2.067e-10
 26.26613   -114.9 9.220e+03 2.244e-10
 26.27359   -114.1 9.505e+03 2.777e-10
 26.29835   -112.7 9.556e+03 2.853e-10
 26.33857   -111.2 9.243e+03 2.403e-10
 26.37869   -110.5 9.062e+03 2.186e-10
 26.41881   -111.2 9.886e+03 4.682e-10
 26.44531   -112.9 1.187e+04 1.251e-09
 26.45524   -113.2 1.178e+04 1.208e-09
 26.46876   -113.9 1.345e+04 2.104e-09
 26.48882   -114.6 1.521e+04 3.743e-09
 26.50228   -114.7 1.654e+04 6.153e-09
 26.51231   -113.0 1.460e+04 3.276e-09
 26.52894   -113.1 1.602e+04 5.475e-09
 26.54110   -112.8 1.714e+04 8.369e-09
 26.55114   -113.4 1.698e+04 8.106e-09
 26.56907   -113.0 1.764e+04 1.056e-08
 26.58913   -112.8 1.790e+04 1.173e-08
 26.60919   -112.7 1.785e+04 1.176e-08
 26.62697   -112.5 1.745e+04 1.066e-08
 26.63700   -112.4 1.639e+04 7.665e-09
 26.64931   -112.1 1.601e+04 6.678e-09
 26.66937   -112.0 1.578e+04 5.913e-09
 26.68943   -112.0 1.578e+04 5.690e-09
 26.70949   -112.8 1.592e+04 5.702e-09
 26.72286   -114.5 1.662e+04 6.682e-09
 26.73289   -114.4 1.616e+04 5.419e-09
 26.74395   -116.1 1.749e+04 8.613e-09
 26.75398   -115.0 1.763e+04 8.108e-09
 26.76967   -115.9 1.903e+04 1.415e-08
 26.78973   -116.6 1.986e+04 2.049e-08
 26.80473   -117.6 1.981e+04 2.054e-08
 26.81364   -118.2 1.983e+04 2.068e-08
 26.81870   -117.9 1.940e+04 1.846e-08
 26.82479   -119.0 1.943e+04 1.945e-08
 26.83477   -119.3 1.911e+04 1.751e-08
 26.84480   -119.5 1.858e+04 1.446e-08
 26.85483   -119.9 1.817e+04 1.110e-08
 26.86159   -120.6 1.764e+04 8.646e-09
 26.86643   -120.0 1.755e+04 9.193e-09
 26.86971   -119.3 1.761e+04 9.421e-09
 26.87489   -120.2 1.711e+04 7.555e-09
 26.88998   -121.4 1.648e+04 5.806e-09
 26.90461   -122.5 1.519e+04 3.657e-09
 26.91464   -121.4 1.563e+04 4.543e-09
 26.93015   -122.3 1.467e+04 3.162e-09
 26.95021   -123.0 1.373e+04 2.363e-09
 26.97027   -123.2 1.294e+04 1.959e-09
 26.98563   -123.1 1.260e+04 1.810e-09
 26.99566   -122.4 1.256e+04 1.766e-09
 27.00051   -121.9 1.248e+04 1.740e-09
 27.01054   -121.4 1.278e+04 1.872e-09
 27.03046   -120.9 1.273e+04 1.867e-09
 27.05052   -120.4 1.275e+04 1.913e-09
 27.07058   -119.9 1.282e+04 1.964e-09
 27.08637   -119.3 1.283e+04 1.976e-09
 27.09640   -118.9 1.304e+04 2.167e-09
 27.11070   -118.3 1.304e+04 2.179e-09
 27.13076   -117.6 1.292e+04 2.100e-09
 27.15082   -116.9 1.271e+04 1.914e-09
 27.17088   -116.2 1.240e+04 1.642e-09
 27.18226   -115.8 1.198e+04 1.329e-09
 27.19229   -115.1 1.244e+04 1.682e-09
 27.21100   -114.7 1.207e+04 1.386e-09
 27.22730   -114.5 1.174e+04 1.157e-09
 27.23743   -113.8 1.228e+04 1.447e-09
 27.26135   -113.1 1.188e+04 1.173e-09
 27.30147   -112.3 1.130e+04 9.107e-10
 27.34159   -111.8 1.066e+04 7.129e-10
 27.36421   -111.6 1.014e+04 5.737e-10
 27.37414   -112.3 1.189e+04 1.077e-09
 27.39154   -112.3 1.179e+04 1.020e-09
 27.41160   -112.3 1.158e+04 9.332e-10
 27.43166   -112.3 1.156e+04 9.159e-10
 27.46185   -112.4 1.192e+04 1.025e-09
 27.50207   -113.0 1.112e+04 8.110e-10
 27.53594   -113.0 1.079e+04 7.388e-10
 27.55590   -113.2 1.128e+04 9.972e-10
 27.57209   -113.1 1.102e+04 9.137e-10
 27.59215   -112.8 1.080e+04 8.389e-10
 27.61221   -112.3 1.055e+04 7.396e-10
 27.63163   -111.8 1.038e+04 6.534e-10
 27.64166   -112.1 1.058e+04 7.278e-10
 27.65233   -111.7 1.041e+04 6.497e-10
 27.67239   -111.3 1.029e+04 5.904e-10
 27.69245   -110.9 1.022e+04 5.501e-10
 27.71065   -110.5 1.021e+04 5.298e-10
 27.72068   -110.5 1.034e+04 5.882e-10
 27.72753   -110.2 1.036e+04 5.874e-10
 27.73756   -110.6 1.063e+04 7.106e-10
 27.75263   -110.5 1.076e+04 7.292e-10
 27.77269   -110.6 1.096e+04 7.715e-10
 27.79275   -111.0 1.126e+04 8.663e-10
 27.81281   -111.5 1.160e+04 1.033e-09
 27.82342   -111.9 1.196e+04 1.265e-09
 27.83345   -112.2 1.212e+04 1.414e-09
 27.85293   -112.6 1.229e+04 1.552e-09
 27.87299   -112.8 1.241e+04 1.624e-09
 27.89305   -113.1 1.244e+04 1.595e-09
 27.90928   -113.4 1.236e+04 1.421e-09
 27.91931   -113.8 1.187e+04 1.117e-09
 27.93317   -114.5 1.153e+04 8.542e-10
 27.95232   -115.4 1.113e+04 6.406e-10
 27.96235   -116.3 1.060e+04 4.890e-10
 27.97329   -117.2 1.032e+04 4.250e-10
 27.99335   -117.7 1.022e+04 4.085e-10
 28.00517   -117.8 1.019e+04 4.043e-10
 28.01520   -117.6 9.932e+03 3.374e-10
 28.03348   -117.2 9.862e+03 3.331e-10
 28.05354   -116.4 9.834e+03 3.334e-10
 28.07360   -115.6 9.828e+03 3.415e-10
 28.09104   -114.8 9.883e+03 3.506e-10
 28.11119   -114.2 9.833e+03 3.201e-10
 28.14400   -112.8 9.837e+03 3.261e-10
 28.18412   -111.1 9.864e+03 3.298e-10
 28.22424   -109.2 9.649e+03 2.644e-10
 28.26296   -107.5 9.633e+03 2.513e-10
 28.28302   -106.3 9.578e+03 2.430e-10
 28.30449   -104.8 9.596e+03 2.398e-10
 28.34461   -103.6 9.680e+03 2.511e-10
 28.38473   -102.8 1.011e+04 3.408e-10
 28.42485   -101.9 1.066e+04 5.255e-10
 28.45474   -100.8 1.119e+04 7.740e-10
 28.47480   -100.1 1.121e+04 7.458e-10
 28.49496    -99.9 1.165e+04 1.056e-09
 28.51493    -99.3 1.187e+04 1.229e-09
 28.53499    -98.6 1.197e+04 1.303e-09
 28.55044    -98.1 1.198e+04 1.312e-09
 28.56047    -97.8 1.211e+04 1.391e-09
 28.57511    -97.2 1.198e+04 1.320e-09
 28.59517    -96.7 1.164e+04 1.116e-09
 28.61523    -96.2 1.125e+04 8.795e-10
 28.63529    -95.9 1.087e+04 6.659e-10
 28.64643    -95.8 1.058e+04 5.284e-10
 28.65646    -95.1 1.076e+04 6.128e-10
 28.67541    -94.9 1.054e+04 5.197e-10
 28.68746    -94.3 1.061e+04 5.294e-10
 28.70762    -95.2 1.006e+04 3.478e-10
 28.74582    -94.0 9.871e+03 3.094e-10
 28.78594    -93.1 9.814e+03 3.004e-10
 28.81825    -92.4 1.011e+04 3.935e-10
 28.83831    -91.6 9.922e+03 3.324e-10
 28.85605    -90.6 1.027e+04 4.524e-10
 28.87601    -90.4 1.033e+04 4.832e-10
 28.89607    -89.7 1.039e+04 5.285e-10
 28.91395    -89.4 1.039e+04 5.345e-10
 28.92398    -89.2 1.032e+04 5.087e-10
 28.94632    -88.7 1.036e+04 5.294e-10
 28.98654    -87.8 1.043e+04 5.642e-10
 29.01004    -87.1 1.053e+04 6.116e-10
 29.03010    -86.3 1.046e+04 5.582e-10
 29.06678    -86.0 1.075e+04 6.935e-10
 29.10690    -85.8 1.100e+04 8.152e-10
 29.14702    -86.2 1.112e+04 8.809e-10
 29.17091    -87.1 1.109e+04 8.857e-10
 29.18559    -87.9 1.137e+04 9.667e-10
 29.20172    -87.8 1.171e+04 1.087e-09
 29.21704    -89.1 1.154e+04 1.020e-09
 29.23710    -89.9 1.164e+04 1.039e-09
 29.26729    -91.8 1.177e+04 1.126e-09
 29.30751    -93.1 1.168e+04 1.158e-09
 29.34763    -93.9 1.181e+04 1.264e-09
 29.37355    -94.7 1.203e+04 1.426e-09
 29.38348    -96.4 1.228e+04 1.697e-09
 29.39758    -97.0 1.249e+04 1.846e-09
 29.41239    -97.4 1.275e+04 2.068e-09
 29.42242    -97.8 1.272e+04 2.025e-09
 29.43770    -98.1 1.302e+04 2.284e-09
 29.45776    -98.2 1.324e+04 2.485e-09
 29.46924    -98.2 1.335e+04 2.593e-09
 29.47927   -100.2 1.371e+04 2.850e-09
 29.49789   -100.2 1.349e+04 2.667e-09
 29.51795    -99.9 1.316e+04 2.396e-09
 29.53801    -99.4 1.285e+04 2.110e-09
 29.55511    -98.7 1.262e+04 1.871e-09
 29.56514   -101.1 1.230e+04 1.664e-09
 29.57813   -100.3 1.210e+04 1.485e-09
 29.59819    -99.9 1.194e+04 1.334e-09
 29.62838   -100.1 1.165e+04 1.140e-09
 29.65425    -98.1 1.106e+04 9.494e-10
 29.67431    -97.3 1.110e+04 9.715e-10
 29.70872    -95.2 1.085e+04 8.845e-10
 29.73706    -92.9 1.082e+04 8.751e-10
 29.75712    -95.0 1.045e+04 7.203e-10
 29.78896    -92.6 1.055e+04 7.730e-10
 29.82908    -90.3 1.091e+04 9.197e-10
 29.86920    -88.3 1.130e+04 1.118e-09
 29.89583    -87.1 1.151e+04 1.268e-09
 29.90576    -87.1 1.159e+04 1.296e-09
 29.91862    -86.6 1.180e+04 1.453e-09
 29.92865    -87.0 1.142e+04 1.225e-09
 29.93921    -86.0 1.172e+04 1.462e-09
 29.95927    -85.0 1.202e+04 1.721e-09
 29.97934    -83.9 1.234e+04 1.996e-09
 29.99940    -82.8 1.265e+04 2.223e-09
 30.01451    -81.8 1.293e+04 2.397e-09
 30.02454    -82.2 1.254e+04 1.988e-09
 30.03952    -81.5 1.286e+04 2.186e-09
 30.05958    -80.8 1.321e+04 2.405e-09
 30.07964    -80.3 1.359e+04 2.681e-09
 30.09970    -79.9 1.390e+04 3.009e-09
 30.11040    -79.5 1.430e+04 3.521e-09
 30.12043    -79.9 1.425e+04 3.605e-09
 30.13741    -79.2 1.469e+04 4.227e-09
 30.14744    -78.8 1.531e+04 6.324e-09
 30.15988    -77.9 1.581e+04 7.035e-09
 30.17994    -76.9 1.606e+04 7.535e-09
 30.19626    -76.0 1.619e+04 7.761e-09
 30.20629    -76.2 1.542e+04 6.014e-09
 30.22006    -75.4 1.547e+04 6.086e-09
 30.24012    -74.6 1.535e+04 5.645e-09
 30.26018    -73.8 1.512e+04 4.881e-09
 30.28024    -73.3 1.482e+04 4.198e-09
 30.29216    -72.9 1.452e+04 3.551e-09
 30.30219    -73.1 1.375e+04 2.644e-09
 30.32036    -72.9 1.349e+04 2.343e-09
 30.34042    -72.7 1.327e+04 2.158e-09
 30.36048    -72.4 1.310e+04 2.054e-09
 30.37802    -71.9 1.295e+04 1.988e-09
 30.38658    -71.7 1.243e+04 1.629e-09
 30.38911    -71.2 1.328e+04 2.234e-09
 30.40060    -70.6 1.310e+04 2.100e-09
 30.42066    -70.1 1.287e+04 1.942e-09
 30.44072    -69.6 1.261e+04 1.787e-09
 30.46079    -69.0 1.239e+04 1.652e-09
 30.47391    -68.2 1.217e+04 1.529e-09
 30.48394    -68.2 1.185e+04 1.333e-09
 30.50091    -67.4 1.166e+04 1.236e-09
 30.52097    -66.4 1.146e+04 1.128e-09
 30.54103    -65.4 1.122e+04 1.012e-09
 30.55977    -64.4 1.097e+04 9.105e-10
 30.56980    -64.3 1.073e+04 7.986e-10
 30.58115    -63.3 1.049e+04 7.154e-10
 30.60121    -62.2 1.031e+04 6.616e-10
 30.62075    -61.3 1.027e+04 6.397e-10
 30.63078    -60.5 1.020e+04 6.371e-10
 30.64133    -59.7 1.043e+04 6.656e-10
 30.65567    -59.1 1.116e+04 7.682e-10
 30.66570    -58.2 9.807e+03 4.836e-10
 30.68145    -57.6 1.033e+04 5.435e-10
 30.70151    -57.4 1.134e+04 7.322e-10
 30.72157    -57.5 1.260e+04 1.135e-09
 30.74153    -57.8 1.403e+04 1.882e-09
 30.75156    -56.2 1.207e+04 8.675e-10
 30.76169    -56.7 1.377e+04 1.552e-09
 30.78175    -57.4 1.538e+04 2.247e-09
 30.79444    -59.9 1.903e+04 5.225e-09
 30.79941    -57.6 1.673e+04 2.843e-09
 30.80673    -59.1 1.881e+04 4.314e-09
 30.81676    -60.8 2.040e+04 8.956e-09
 30.82679    -61.7 2.079e+04 1.531e-08
 30.83682    -61.6 2.074e+04 2.321e-08
 30.84234    -61.1 2.068e+04 2.850e-08
 30.84735    -60.6 2.072e+04 2.082e-08
 30.85688    -60.0 2.057e+04 2.592e-08
 30.86691    -59.3 2.056e+04 2.446e-08
 30.87236    -58.7 2.055e+04 2.190e-08
 30.87737    -58.0 2.079e+04 2.699e-08
 30.88527    -57.7 2.092e+04 2.131e-08
 30.89028    -56.8 2.085e+04 2.597e-08
 30.89700    -56.5 2.104e+04 2.053e-08
 30.90703    -57.3 2.114e+04 1.322e-08
 30.91706    -59.5 2.096e+04 7.011e-09
 30.92709    -60.3 2.127e+04 4.848e-09
 30.93326    -65.2 2.142e+04 1.600e-09
 30.94334    -58.4 2.248e+04 6.722e-09
 30.96230    -66.0 2.203e+04 2.070e-09
 30.98236    -77.2 1.527e+04 6.704e-10
 31.00242    -85.4 9.652e+03 5.075e-10
 31.01918    -88.2 1.007e+04 5.667e-10
 31.02921    -89.6 1.120e+04 8.769e-10
 31.04254    -93.2 1.148e+04 9.599e-10
 31.06260    -97.3 1.239e+04 1.254e-09
 31.08266   -101.6 1.338e+04 1.652e-09
 31.10272   -105.8 1.424e+04 2.177e-09
 31.11413   -109.5 1.488e+04 2.831e-09
 31.11645   -110.5 1.583e+04 3.817e-09
 31.12510   -115.7 1.585e+04 3.820e-09
 31.14284   -117.6 1.604e+04 4.340e-09
 31.16290   -119.1 1.610e+04 4.672e-09
 31.18296   -120.2 1.616e+04 4.774e-09
 31.20093   -120.6 1.568e+04 4.427e-09
 31.21096   -122.1 1.454e+04 3.462e-09
 31.22308   -121.1 1.345e+04 2.582e-09
 31.24314   -120.3 1.249e+04 1.822e-09
 31.26320   -119.8 1.161e+04 1.254e-09
 31.28326   -119.4 1.075e+04 8.569e-10
 31.29682   -118.7 9.967e+03 6.102e-10
 31.30685   -118.3 9.775e+03 5.500e-10
 31.32338   -117.2 9.203e+03 4.194e-10
 31.34344   -115.9 8.877e+03 3.494e-10
 31.35580   -114.5 8.792e+03 3.281e-10
 31.36583   -116.0 8.979e+03 3.568e-10
 31.38269   -114.5 8.973e+03 3.547e-10
 31.39272   -113.6 8.880e+03 3.357e-10
 31.40362   -112.3 8.918e+03 3.386e-10
 31.42368   -111.4 9.108e+03 3.716e-10
 31.44375   -110.6 9.385e+03 4.396e-10
 31.46381   -109.8 9.741e+03 5.451e-10
 31.47858   -108.9 1.010e+04 6.827e-10
 31.48861   -107.9 9.788e+03 5.587e-10
 31.50393   -107.0 1.010e+04 6.843e-10
 31.52399   -106.0 1.039e+04 8.269e-10
 31.54405   -104.9 1.063e+04 9.597e-10
 31.56411   -103.8 1.078e+04 1.053e-09
 31.57447   -102.8 1.083e+04 1.087e-09
 31.58450   -102.2 1.066e+04 9.970e-10
 31.59747   -101.2 1.067e+04 1.011e-09
 31.60750   -101.6 1.134e+04 1.343e-09
 31.62429   -100.7 1.134e+04 1.325e-09
 31.64435    -99.7 1.118e+04 1.183e-09
 31.66033    -99.0 1.095e+04 1.019e-09
 31.67036    -98.0 1.082e+04 1.000e-09
 31.68447    -97.3 1.058e+04 8.462e-10
 31.70453    -96.7 1.032e+04 7.167e-10
 31.72459    -96.1 1.009e+04 6.216e-10
 31.74465    -95.5 9.955e+03 5.683e-10
 31.75623    -94.8 9.923e+03 5.551e-10
 31.76626    -93.8 9.729e+03 4.967e-10
 31.78477    -93.1 9.723e+03 4.930e-10
 31.80483    -92.5 9.905e+03 5.184e-10
 31.82489    -92.1 1.031e+04 6.156e-10
 31.83915    -91.7 1.074e+04 7.624e-10
 31.84631    -92.3 1.123e+04 1.005e-09
 31.85212    -91.5 1.100e+04 8.666e-10
 31.86501    -91.0 1.131e+04 1.030e-09
 31.88507    -90.6 1.154e+04 1.164e-09
 31.91526    -90.0 1.172e+04 1.239e-09
 31.93818    -89.2 1.191e+04 1.347e-09
 31.95824    -88.1 1.194e+04 1.370e-09
 31.99560    -87.7 1.206e+04 1.459e-09
 32.03572    -87.2 1.176e+04 1.173e-09
 32.07098    -86.5 1.090e+04 6.486e-10
 32.09104    -87.6 9.727e+03 2.942e-10
 32.10990    -87.4 8.677e+03 1.355e-10
 32.12996    -86.6 9.423e+03 2.509e-10
 32.15609    -86.1 8.813e+03 1.366e-10
 32.19621    -85.3 8.585e+03 1.154e-10
 32.23633    -84.0 8.654e+03 1.230e-10
 32.27645    -82.7 8.801e+03 1.488e-10
 32.30169    -81.3 8.938e+03 1.749e-10
 32.32175    -80.6 8.934e+03 1.598e-10
 32.35669    -79.2 9.010e+03 1.778e-10
 32.39681    -77.9 9.138e+03 1.951e-10
 32.43693    -76.9 9.383e+03 2.186e-10
 32.46692    -76.4 9.563e+03 2.384e-10
 32.48324    -77.0 9.915e+03 2.858e-10
 32.49328    -76.5 9.859e+03 2.811e-10
 32.50695    -77.5 1.034e+04 4.093e-10
 32.52701    -79.0 1.113e+04 7.019e-10
 32.54707    -81.6 1.279e+04 1.307e-09
 32.56416    -85.1 1.565e+04 2.622e-09
 32.57419    -86.1 1.641e+04 5.089e-09
 32.57914    -87.5 1.775e+04 8.293e-09
 32.58917    -90.1 1.864e+04 1.080e-08
 32.60725    -90.8 1.918e+04 1.425e-08
 32.62731    -91.2 1.931e+04 1.550e-08
 32.64737    -91.8 1.929e+04 1.399e-08
 32.66500    -92.6 1.859e+04 1.068e-08
 32.67503    -93.8 1.771e+04 7.296e-09
 32.68749    -95.3 1.646e+04 4.559e-09
 32.70755    -96.8 1.508e+04 3.136e-09
 32.72761    -97.6 1.400e+04 2.521e-09
 32.74767    -97.5 1.355e+04 2.373e-09
 32.76089    -96.7 1.343e+04 2.392e-09
 32.77092    -97.0 1.299e+04 1.900e-09
 32.78779    -95.8 1.302e+04 2.008e-09
 32.80584    -94.5 1.306e+04 2.092e-09
 32.81587    -94.6 1.264e+04 1.659e-09
 32.82791    -93.6 1.264e+04 1.670e-09
 32.84675    -92.4 1.253e+04 1.658e-09
 32.85678    -92.4 1.222e+04 1.383e-09
 32.86803    -91.2 1.205e+04 1.326e-09
 32.88809    -90.0 1.186e+04 1.223e-09
 32.90816    -88.7 1.169e+04 1.105e-09
 32.92822    -87.4 1.156e+04 1.006e-09
 32.94265    -86.2 1.147e+04 9.189e-10
 32.95268    -86.3 1.133e+04 8.872e-10
 32.96834    -85.1 1.128e+04 8.459e-10
 32.98840    -83.9 1.122e+04 8.106e-10
 33.00846    -82.6 1.122e+04 7.932e-10
 33.02851    -81.5 1.123e+04 7.776e-10
 33.04750    -80.1 1.125e+04 7.861e-10
 33.05764    -81.1 1.118e+04 7.289e-10
 33.07886    -78.3 1.113e+04 7.164e-10
 33.11898    -75.9 1.109e+04 7.015e-10
 33.15911    -73.0 1.097e+04 6.759e-10
 33.19923    -70.2 1.089e+04 6.437e-10
 33.22049    -67.4 1.080e+04 5.955e-10
 33.24055    -67.4 1.108e+04 7.047e-10
 33.27947    -64.9 1.112e+04 6.959e-10
 33.31959    -62.7 1.125e+04 7.189e-10
 33.35971    -61.0 1.162e+04 8.018e-10
 33.39221    -60.1 1.224e+04 1.021e-09
 33.41218    -59.9 1.264e+04 1.437e-09
 33.42973    -59.6 1.291e+04 1.678e-09
 33.44979    -59.2 1.323e+04 2.062e-09
 33.46985    -58.6 1.348e+04 2.429e-09
 33.48791    -57.8 1.375e+04 2.778e-09
 33.49794    -57.8 1.389e+04 2.862e-09
 33.50997    -57.2 1.397e+04 2.968e-09
 33.53003    -56.5 1.397e+04 2.967e-09
 33.54089    -55.8 1.386e+04 2.838e-09
 33.55092    -55.1 1.392e+04 3.135e-09
 33.57015    -54.3 1.360e+04 2.723e-09
 33.58380    -53.5 1.330e+04 2.280e-09
 33.59383    -53.3 1.345e+04 2.404e-09
 33.61027    -52.5 1.316e+04 2.083e-09
 33.63033    -51.9 1.301e+04 1.891e-09
 33.65039    -51.7 1.306e+04 1.852e-09
 33.66967    -53.5 1.459e+04 2.120e-09
 33.67970    -54.0 1.581e+04 2.840e-09
 33.69051    -58.1 1.762e+04 5.378e-09
 33.71057    -60.0 1.857e+04 1.091e-08
 33.73063    -60.3 1.956e+04 1.910e-08
 33.74563    -60.4 1.988e+04 2.061e-08
 33.75561    -60.9 2.002e+04 2.066e-08
 33.76551    -62.2 2.008e+04 1.856e-08
 33.77559    -61.0 2.046e+04 2.044e-08
 33.78256    -63.7 1.998e+04 1.271e-08
 33.79259    -64.6 1.883e+04 1.013e-08
 33.81087    -69.8 1.726e+04 6.560e-09
 33.83093    -74.4 1.631e+04 5.746e-09
 33.85099    -76.6 1.613e+04 5.920e-09
 33.86145    -78.3 1.668e+04 7.001e-09
 33.87148    -79.8 1.625e+04 5.932e-09
 33.89112    -81.7 1.681e+04 7.055e-09
 33.91118    -83.6 1.727e+04 8.182e-09
 33.93124    -85.4 1.780e+04 9.673e-09
 33.94731    -87.0 1.839e+04 1.128e-08
 33.95734    -88.9 1.773e+04 9.542e-09
 33.97136    -90.2 1.801e+04 1.010e-08
 33.99142    -91.3 1.828e+04 1.036e-08
 34.01148    -92.3 1.873e+04 1.080e-08
 34.02423    -93.0 1.920e+04 1.178e-08
 34.02920    -93.2 1.926e+04 1.129e-08
 34.03646    -93.5 1.959e+04 1.191e-08
 34.04311    -94.0 2.010e+04 1.344e-08
 34.04812    -94.8 1.963e+04 1.168e-08
 34.05652    -95.3 2.011e+04 1.325e-08
 34.06655    -95.8 2.071e+04 1.533e-08
 34.07658    -96.5 2.129e+04 1.799e-08
 34.08604    -97.3 2.189e+04 2.500e-08
 34.09106    -97.1 2.115e+04 1.739e-08
 34.09664    -97.8 2.185e+04 2.533e-08
 34.10667    -98.0 2.229e+04 3.759e-08
 34.11670    -98.0 2.264e+04 5.231e-08
 34.12673    -98.7 2.288e+04 6.424e-08
 34.13399   -100.2 2.290e+04 6.774e-08
 34.13900   -100.2 2.337e+04 2.731e-08
 34.14497   -101.2 2.302e+04 2.719e-08
 34.14999   -101.0 2.205e+04 4.252e-08
 34.15682   -101.2 2.181e+04 3.418e-08
 34.16685   -101.6 2.167e+04 2.775e-08
 34.17688   -102.2 2.160e+04 2.350e-08
 34.18691   -103.4 2.096e+04 1.348e-08
 34.19694   -104.1 2.061e+04 1.255e-08
 34.20697   -104.6 2.020e+04 1.200e-08
 34.21700   -105.0 1.989e+04 1.162e-08
 34.22486   -105.3 1.958e+04 1.138e-08
 34.22988   -105.3 1.878e+04 8.780e-09
 34.23706   -105.3 1.875e+04 9.244e-09
 34.25215   -105.0 1.848e+04 9.116e-09
 34.26591   -104.6 1.805e+04 8.946e-09
 34.27594   -104.5 1.757e+04 7.424e-09
 34.29232   -103.9 1.716e+04 6.723e-09
 34.31082   -103.1 1.660e+04 5.624e-09
 34.32085   -102.3 1.596e+04 5.006e-09
 34.33244   -101.4 1.533e+04 4.052e-09
 34.35250   -100.5 1.465e+04 3.058e-09
 34.37257    -99.7 1.396e+04 2.251e-09
 34.39263    -98.8 1.333e+04 1.690e-09
 34.40672    -98.0 1.283e+04 1.315e-09
 34.41675    -96.6 1.278e+04 1.291e-09
 34.43275    -95.7 1.236e+04 1.025e-09
 34.45281    -94.6 1.201e+04 8.486e-10
 34.47287    -93.4 1.171e+04 7.401e-10
 34.49258    -92.2 1.145e+04 6.833e-10
 34.50261    -91.0 1.142e+04 6.146e-10
 34.50758    -89.7 1.118e+04 5.713e-10
 34.51761    -90.0 1.086e+04 5.566e-10
 34.53305    -88.5 1.084e+04 5.545e-10
 34.55311    -87.0 1.086e+04 5.690e-10
 34.57317    -85.6 1.095e+04 6.038e-10
 34.58847    -84.2 1.107e+04 6.503e-10
 34.59850    -83.2 1.082e+04 5.486e-10
 34.61329    -81.8 1.091e+04 5.880e-10
 34.63335    -80.5 1.105e+04 6.321e-10
 34.65341    -79.3 1.125e+04 6.869e-10
 34.67347    -78.3 1.150e+04 7.610e-10
 34.68436    -77.3 1.175e+04 8.659e-10
 34.69439    -76.0 1.137e+04 7.052e-10
 34.71359    -75.0 1.162e+04 7.947e-10
 34.73365    -74.2 1.185e+04 9.206e-10
 34.74925    -73.5 1.201e+04 1.085e-09
 34.75928    -73.7 1.243e+04 1.468e-09
 34.77023    -72.8 1.261e+04 1.680e-09
 34.78026    -71.7 1.235e+04 1.388e-09
 34.79383    -71.0 1.251e+04 1.602e-09
 34.81389    -70.0 1.270e+04 1.803e-09
 34.83395    -69.1 1.290e+04 1.955e-09
 34.85402    -68.2 1.305e+04 2.017e-09
 34.86612    -67.3 1.310e+04 1.939e-09
 34.87615    -66.4 1.318e+04 2.160e-09
 34.89414    -65.3 1.324e+04 2.065e-09
 34.91420    -64.4 1.321e+04 1.826e-09
 34.93426    -63.8 1.301e+04 1.510e-09
 34.95198    -63.3 1.266e+04 1.229e-09
 34.96201    -61.9 1.322e+04 1.625e-09
 34.97438    -61.5 1.283e+04 1.327e-09
 34.99092    -61.2 1.241e+04 1.138e-09
 35.00095    -61.6 1.234e+04 1.198e-09
 35.01450    -60.7 1.216e+04 1.162e-09
 35.03456    -59.8 1.211e+04 1.164e-09
 35.04787    -59.0 1.207e+04 1.175e-09
 35.05800    -58.6 1.242e+04 1.339e-09
 35.08491    -56.5 1.246e+04 1.415e-09
 35.11490    -55.2 1.232e+04 1.356e-09
 35.13374    -54.4 1.220e+04 1.261e-09
 35.14377    -54.0 1.252e+04 1.468e-09
 35.15492    -52.6 1.232e+04 1.332e-09
 35.17498    -51.7 1.215e+04 1.125e-09
 35.19504    -51.1 1.190e+04 9.132e-10
 35.21510    -50.7 1.169e+04 7.480e-10
 35.22963    -50.5 1.150e+04 6.285e-10
 35.23709    -49.8 1.164e+04 7.375e-10
 35.24263    -49.5 1.197e+04 8.167e-10
 35.25522    -49.2 1.177e+04 7.118e-10
 35.27528    -48.9 1.160e+04 6.347e-10
 35.29534    -48.5 1.144e+04 5.769e-10
 35.31540    -48.1 1.127e+04 5.321e-10
 35.33547    -47.0 1.130e+04 5.893e-10
 35.35553    -46.5 1.111e+04 5.331e-10
 35.37559    -46.0 1.095e+04 4.815e-10
 35.39565    -45.5 1.081e+04 4.327e-10
 35.41138    -45.1 1.073e+04 3.927e-10
 35.42141    -44.4 1.085e+04 4.505e-10
 35.43577    -44.1 1.076e+04 4.150e-10
 35.45583    -43.8 1.069e+04 3.951e-10
 35.47427    -43.7 1.069e+04 3.916e-10
 35.48430    -43.3 1.073e+04 4.215e-10
 35.49595    -43.2 1.076e+04 4.364e-10
 35.50728    -43.3 1.080e+04 4.803e-10
 35.51731    -42.8 1.092e+04 5.171e-10
 35.53607    -42.8 1.103e+04 6.040e-10
 35.55613    -42.8 1.119e+04 7.105e-10
 35.57619    -42.7 1.139e+04 8.139e-10
 35.59314    -42.7 1.154e+04 8.686e-10
 35.60317    -42.4 1.166e+04 9.763e-10
 35.61631    -42.4 1.172e+04 9.988e-10
 35.63637    -42.6 1.170e+04 9.548e-10
 35.65643    -43.2 1.171e+04 8.899e-10
 35.67649    -44.6 1.193e+04 8.770e-10
 35.68903    -47.6 1.295e+04 1.050e-09
 35.69906    -46.7 1.273e+04 1.032e-09
 35.71594    -50.1 1.355e+04 1.516e-09
 35.72597    -51.3 1.395e+04 2.039e-09
 35.73667    -53.1 1.436e+04 3.112e-09
 35.75673    -53.9 1.473e+04 3.963e-09
 35.77489    -54.7 1.491e+04 4.129e-09
 35.78492    -54.2 1.471e+04 3.750e-09
 35.79685    -55.4 1.456e+04 3.585e-09
 35.81691    -57.0 1.398e+04 2.552e-09
 35.83698    -59.2 1.297e+04 1.670e-09
 35.85704    -61.1 1.193e+04 1.162e-09
 35.87079    -61.9 1.131e+04 8.929e-10
 35.88082    -61.3 1.138e+04 9.278e-10
 35.89716    -61.7 1.101e+04 7.328e-10
 35.91722    -62.0 1.079e+04 5.945e-10
 35.93728    -62.4 1.063e+04 4.985e-10
 35.95665    -62.8 1.048e+04 4.372e-10
 35.96668    -62.6 1.030e+04 3.927e-10
 35.96765    -62.9 1.009e+04 3.616e-10
 35.97768    -64.1 9.921e+03 3.581e-10
 36.00759    -64.1 9.831e+03 3.525e-10
 36.04780    -63.3 9.782e+03 3.502e-10
 36.08793    -62.1 9.713e+03 3.380e-10
 36.12805    -60.6 9.623e+03 3.106e-10
 36.14863    -58.9 9.586e+03 2.960e-10
 36.16869    -57.9 9.283e+03 2.509e-10
 36.20829    -56.1 9.350e+03 2.552e-10
 36.24841    -54.4 9.640e+03 3.130e-10
 36.28853    -52.6 9.978e+03 4.216e-10
 36.31852    -51.1 1.007e+04 4.947e-10
 36.33019    -50.2 1.042e+04 5.948e-10
 36.34022    -49.9 1.027e+04 5.246e-10
 36.35855    -49.3 1.072e+04 6.718e-10
 36.37861    -48.8 1.122e+04 8.617e-10
 36.40879    -48.2 1.180e+04 1.147e-09
 36.44116    -47.9 1.245e+04 1.601e-09
 36.46122    -48.4 1.213e+04 1.394e-09
 36.48913    -47.8 1.247e+04 1.675e-09
 36.51214    -47.6 1.243e+04 1.661e-09
 36.53220    -46.9 1.257e+04 1.749e-09
 36.56938    -46.5 1.190e+04 1.266e-09
 36.60950    -46.3 1.117e+04 8.192e-10
 36.64962    -46.2 1.074e+04 5.459e-10
 36.68386    -47.0 1.065e+04 4.126e-10
 36.70392    -46.3 1.117e+04 6.236e-10
 36.72986    -48.0 1.169e+04 6.796e-10
 36.76998    -50.6 1.185e+04 7.687e-10
 36.81010    -52.8 1.171e+04 8.198e-10
 36.85022    -54.5 1.148e+04 6.992e-10
 36.87565    -58.1 1.171e+04 5.065e-10
 36.88558    -57.4 1.170e+04 5.337e-10
 36.90018    -61.9 1.215e+04 4.791e-10
 36.92024    -68.1 1.494e+04 5.227e-10
 36.93434    -74.9 1.669e+04 1.192e-09
 36.94437    -73.2 1.466e+04 8.293e-10
 36.96036    -76.7 1.565e+04 1.796e-09
 36.97135    -79.4 1.650e+04 3.123e-09
 36.98138    -81.0 1.702e+04 5.137e-09
 37.00048    -83.1 1.683e+04 5.750e-09
 37.02054    -85.0 1.652e+04 5.768e-09
 37.04060    -86.4 1.596e+04 5.535e-09
 37.05721    -86.9 1.537e+04 5.054e-09
 37.06724    -87.1 1.462e+04 4.368e-09
 37.08072    -87.3 1.422e+04 3.677e-09
 37.10078    -87.3 1.375e+04 2.885e-09
 37.12084    -87.3 1.314e+04 2.105e-09
 37.14090    -87.4 1.252e+04 1.480e-09
 37.15310    -87.5 1.200e+04 1.060e-09
 37.16313    -87.4 1.167e+04 1.089e-09
 37.17601    -87.4 1.147e+04 8.679e-10
 37.18604    -86.4 1.152e+04 9.030e-10
 37.20108    -86.5 1.133e+04 7.395e-10
 37.22114    -87.1 1.137e+04 6.945e-10
 37.23896    -92.1 1.330e+04 7.080e-10
 37.24899    -90.6 1.301e+04 7.500e-10
 37.26126   -101.8 1.954e+04 1.803e-09
 37.28132   -109.4 2.053e+04 7.972e-09
 37.29188   -111.7 2.038e+04 1.508e-08
 37.29684   -112.5 2.058e+04 1.773e-08
 37.30177   -113.6 2.063e+04 2.217e-08
 37.30678   -114.0 2.062e+04 2.507e-08
 37.31633   -114.9 2.051e+04 2.833e-08
 37.32636   -115.4 2.052e+04 2.847e-08
 37.33476   -115.9 2.065e+04 2.226e-08
 37.33977   -115.5 2.032e+04 2.988e-08
 37.34642   -115.4 2.071e+04 1.574e-08
 37.35645   -118.9 2.071e+04 6.217e-09
 37.36648   -124.6 1.890e+04 2.365e-09
 37.38158   -130.1 1.632e+04 1.193e-09
 37.40169   -136.9 1.353e+04 5.669e-10
 37.41768   -142.0 1.180e+04 3.273e-10
 37.42668   -140.5 1.178e+04 3.346e-10
 37.43075   -138.9 1.215e+04 3.921e-10
 37.44181   -140.9 1.160e+04 3.103e-10
 37.46187   -141.5 1.149e+04 2.953e-10
 37.48193   -141.5 1.146e+04 2.941e-10
 37.50199   -141.2 1.141e+04 2.979e-10
 37.53218   -140.7 1.137e+04 2.995e-10
 37.57240   -140.6 1.121e+04 2.909e-10
 37.60267   -140.3 1.116e+04 2.874e-10
 37.62263   -139.1 1.138e+04 3.674e-10
 37.64241   -138.9 1.143e+04 3.671e-10
 37.65936   -138.9 1.168e+04 3.942e-10
 37.66939   -138.2 1.156e+04 3.471e-10
 37.68253   -138.4 1.179e+04 4.503e-10
 37.69837   -138.6 1.214e+04 6.425e-10
 37.70840   -138.4 1.215e+04 6.484e-10
 37.73278   -139.1 1.277e+04 1.022e-09
 37.76287   -139.1 1.355e+04 1.724e-09
 37.78284   -140.0 1.400e+04 2.230e-09
 37.79426   -141.0 1.416e+04 2.503e-09
 37.80429   -140.5 1.425e+04 2.605e-09
 37.82296   -141.6 1.427e+04 2.662e-09
 37.84302   -142.6 1.393e+04 2.508e-09
 37.86308   -143.2 1.338e+04 1.914e-09
 37.88012   -143.9 1.278e+04 1.297e-09
 37.89015   -143.5 1.284e+04 1.281e-09
 37.90103   -144.5 1.219e+04 8.043e-10
 37.91106   -144.3 1.233e+04 9.400e-10
 37.92326   -145.4 1.172e+04 6.024e-10
 37.94332   -146.5 1.123e+04 4.110e-10
 37.96338   -147.3 1.088e+04 3.132e-10
 37.97601   -147.8 1.072e+04 2.752e-10
 37.98604   -147.6 1.086e+04 2.865e-10
 38.01363   -148.0 1.076e+04 2.664e-10
 38.05385   -148.7 1.053e+04 2.121e-10
 38.09397   -149.4 1.026e+04 1.583e-10
 38.13409   -150.0 1.006e+04 1.231e-10
 38.15796   -150.6 9.987e+03 1.084e-10
 38.17802   -150.9 1.005e+04 1.403e-10
 38.21433   -151.5 1.004e+04 1.400e-10
 38.25445   -152.1 9.991e+03 1.451e-10
 38.29457   -152.5 9.928e+03 1.511e-10
 38.32969   -152.7 9.895e+03 1.530e-10
 38.34975   -153.1 9.958e+03 2.091e-10
 38.37454   -153.2 9.824e+03 1.876e-10
 38.39460   -153.2 9.810e+03 1.961e-10
 38.41493   -153.0 9.626e+03 1.589e-10
 38.45505   -152.4 9.441e+03 1.264e-10
 38.49518   -151.5 9.281e+03 1.015e-10
 38.52147   -150.4 9.164e+03 8.455e-11
 38.54153   -150.7 9.112e+03 7.892e-11
 38.57542   -149.5 9.031e+03 7.139e-11
 38.61554   -148.2 9.004e+03 6.973e-11
 38.65566   -147.0 8.998e+03 6.964e-11
 38.69320   -145.8 8.978e+03 7.313e-11
 38.71326   -145.8 8.880e+03 6.759e-11
 38.73590   -144.6 8.868e+03 7.613e-11
 38.77602   -143.2 8.889e+03 8.592e-11
 38.81614   -141.8 8.935e+03 9.419e-11
 38.85626   -140.4 8.982e+03 9.851e-11
 38.87795   -139.0 8.996e+03 9.939e-11
 38.88661   -138.9 8.946e+03 7.673e-11
 38.90504   -138.6 8.899e+03 7.113e-11
 38.93650   -137.1 8.905e+03 7.098e-11
 38.97662   -135.6 8.925e+03 6.881e-11
 39.01675   -134.0 8.962e+03 6.655e-11
 39.05671   -132.3 8.983e+03 6.595e-11
 39.09683   -130.1 9.008e+03 6.393e-11
 39.13711   -128.8 9.239e+03 7.515e-11
 39.17723   -127.7 9.596e+03 1.081e-10
 39.21735   -126.8 1.001e+04 1.850e-10
 39.24849   -126.3 1.053e+04 3.288e-10
 39.26855   -126.9 1.126e+04 7.025e-10
 39.29759   -126.7 1.203e+04 1.168e-09
 39.33771   -126.9 1.263e+04 1.660e-09
 39.36120   -127.3 1.305e+04 2.179e-09
 39.38126   -127.7 1.295e+04 2.032e-09
 39.41795   -128.2 1.300e+04 2.114e-09
 39.44028   -128.5 1.281e+04 1.961e-09
 39.46034   -129.3 1.221e+04 1.292e-09
 39.49820   -129.8 1.136e+04 8.399e-10
 39.53832   -130.0 1.083e+04 6.262e-10
 39.57844   -129.4 1.043e+04 4.980e-10
 39.61200   -128.6 1.015e+04 4.150e-10
 39.63206   -128.3 9.687e+03 2.706e-10
 39.65868   -127.3 9.602e+03 2.441e-10
 39.69880   -126.1 9.521e+03 2.235e-10
 39.73892   -124.8 9.442e+03 2.100e-10
 39.77904   -123.4 9.379e+03 2.040e-10
 39.80379   -121.8 9.367e+03 2.029e-10
 39.82385   -121.6 9.081e+03 1.550e-10
 39.84464   -120.0 9.105e+03 1.546e-10
 39.86470   -119.6 9.050e+03 1.544e-10
 39.89940   -118.1 9.109e+03 1.578e-10
 39.93952   -116.6 9.217e+03 1.793e-10
 39.97551   -115.1 9.349e+03 2.188e-10
 39.99557   -114.9 9.132e+03 1.505e-10
 40.01977   -113.3 9.262e+03 1.952e-10
 40.05989   -111.6 9.418e+03 2.518e-10
 40.10001   -109.9 9.590e+03 3.119e-10
 40.14013   -108.3 9.756e+03 3.638e-10
 40.16730   -106.8 9.905e+03 4.042e-10
 40.18736   -106.8 9.418e+03 2.311e-10
 40.22037   -105.5 9.512e+03 2.644e-10
 40.26049   -104.3 9.721e+03 3.269e-10
 40.30061   -103.2 1.012e+04 4.471e-10
 40.32798   -102.0 1.062e+04 6.525e-10
 40.34633   -101.7 1.042e+04 5.912e-10
 40.35908   -101.6 9.840e+03 3.476e-10
 40.38085   -100.5 1.026e+04 4.825e-10
 40.42097    -99.5 1.061e+04 6.246e-10
 40.46110    -98.7 1.082e+04 7.169e-10
 40.50122    -98.0 1.086e+04 7.394e-10
 40.53081    -97.1 1.083e+04 7.365e-10
 40.55087    -97.4 1.091e+04 8.203e-10
 40.58146    -96.3 1.095e+04 8.638e-10
 40.62158    -95.1 1.100e+04 9.024e-10
 40.66170    -94.0 1.106e+04 9.374e-10
 40.70182    -92.9 1.104e+04 9.426e-10
 40.72259    -91.5 1.076e+04 8.438e-10
 40.74265    -91.7 1.033e+04 6.257e-10
 40.78206    -90.3 9.939e+03 4.720e-10
 40.81133    -88.9 9.685e+03 3.769e-10
 40.83139    -89.3 9.817e+03 4.092e-10
 40.86230    -88.1 9.770e+03 3.781e-10
 40.89432    -87.0 9.789e+03 3.784e-10
 40.91438    -87.6 9.750e+03 3.826e-10
 40.94255    -86.7 1.000e+04 4.620e-10
 40.98267    -85.8 1.025e+04 5.519e-10
 41.02279    -85.2 1.049e+04 6.268e-10
 41.06291    -85.0 1.070e+04 6.631e-10
 41.08610    -85.2 1.079e+04 6.672e-10
 41.10616    -86.0 1.049e+04 5.522e-10
 41.14315    -86.7 1.054e+04 5.471e-10
 41.18327    -87.5 1.062e+04 5.794e-10
 41.22339    -88.0 1.072e+04 6.306e-10
 41.25783    -88.3 1.079e+04 6.600e-10
 41.27789    -88.7 1.072e+04 6.552e-10
 41.29468    -89.0 1.072e+04 6.616e-10
 41.31474    -89.4 1.065e+04 6.516e-10
 41.34375    -89.5 1.035e+04 5.169e-10
 41.38387    -89.7 9.993e+03 3.924e-10
 41.42399    -90.0 9.655e+03 3.088e-10
 41.44961    -90.0 9.360e+03 2.471e-10
 41.46967    -90.0 9.222e+03 2.119e-10
 41.50424    -89.4 8.979e+03 1.663e-10
 41.54436    -88.7 8.800e+03 1.315e-10
 41.58448    -88.1 8.690e+03 1.085e-10
 41.62134    -87.5 8.655e+03 9.539e-11
 41.64140    -87.4 8.585e+03 9.934e-11
 41.66472    -86.8 8.574e+03 9.545e-11
 41.70484    -86.2 8.511e+03 9.125e-11
 41.74496    -85.4 8.354e+03 8.728e-11
 41.77802    -84.4 8.189e+03 8.056e-11
 41.79808    -84.1 8.180e+03 8.074e-11
 41.81312    -82.8 8.088e+03 7.130e-11
 41.83318    -82.5 8.050e+03 7.397e-11
 41.86532    -81.2 8.046e+03 6.531e-11
 41.90544    -79.8 8.064e+03 6.319e-11
 41.94557    -78.5 8.123e+03 6.395e-11
 41.98485    -77.3 8.287e+03 7.674e-11
 42.00491    -77.2 8.362e+03 8.214e-11
 42.02581    -75.8 8.503e+03 1.112e-10
 42.06593    -74.2 8.642e+03 1.481e-10
 42.10605    -72.4 8.782e+03 1.836e-10
 42.14617    -70.7 8.894e+03 2.088e-10
 42.17663    -69.1 8.947e+03 2.198e-10
 42.19669    -68.9 9.065e+03 2.657e-10
 42.22641    -67.3 9.097e+03 2.785e-10
 42.26137    -65.6 9.105e+03 2.822e-10
 42.28143    -65.5 8.933e+03 2.220e-10
 42.30665    -63.7 8.852e+03 2.073e-10
 42.34677    -61.9 8.776e+03 1.895e-10
 42.36842    -60.1 8.756e+03 1.739e-10
 42.38848    -59.6 8.848e+03 2.010e-10
 42.42702    -58.3 8.877e+03 1.985e-10
 42.46714    -58.0 9.270e+03 2.344e-10
 42.50726    -58.1 9.929e+03 3.809e-10
 42.54014    -58.0 1.065e+04 6.528e-10
 42.56020    -57.5 1.079e+04 7.737e-10
 42.58750    -57.5 1.122e+04 9.244e-10
 42.62762    -58.7 1.133e+04 9.377e-10
 42.66774    -60.6 1.115e+04 7.813e-10
 42.70786    -63.2 1.101e+04 6.979e-10
 42.73193    -66.9 1.132e+04 7.573e-10
 42.74186    -67.8 1.134e+04 6.790e-10
 42.75455    -71.2 1.233e+04 1.001e-09
 42.76458    -70.5 1.229e+04 9.545e-10
 42.77788    -73.6 1.342e+04 1.696e-09
 42.79794    -76.2 1.468e+04 2.994e-09
 42.81759    -78.4 1.551e+04 4.267e-09
 42.82762    -80.7 1.582e+04 4.887e-09
 42.83806    -83.1 1.576e+04 4.954e-09
 42.85812    -85.7 1.503e+04 3.804e-09
 42.87818    -88.7 1.385e+04 2.276e-09
 42.89824    -91.6 1.263e+04 1.329e-09
 42.91349    -93.6 1.177e+04 8.503e-10
 42.92352    -95.3 1.124e+04 6.050e-10
 42.93836    -96.0 1.084e+04 4.696e-10
 42.95842    -96.2 1.057e+04 3.928e-10
 42.98861    -96.0 1.042e+04 3.406e-10
 43.02883    -95.2 1.037e+04 3.249e-10
 43.06895    -93.8 1.024e+04 3.021e-10
 43.09544    -92.2 1.019e+04 2.914e-10
 43.11550    -92.5 1.006e+04 2.860e-10
 43.14919    -90.7 1.009e+04 2.893e-10
 43.18931    -88.8 1.012e+04 2.940e-10
 43.22806    -86.9 1.015e+04 3.000e-10
 43.24812    -86.4 1.004e+04 2.655e-10
 43.26716    -84.6 1.010e+04 2.844e-10
 43.28722    -84.9 1.000e+04 2.845e-10
 43.30967    -83.3 1.007e+04 3.048e-10
 43.34979    -81.7 1.007e+04 3.188e-10
 43.38992    -80.1 1.013e+04 3.296e-10
 43.43004    -78.9 1.033e+04 3.566e-10
 43.45895    -78.5 1.076e+04 4.314e-10
 43.47901    -79.4 9.923e+03 2.565e-10
 43.51028    -79.9 1.040e+04 3.550e-10
 43.55040    -80.4 1.129e+04 6.454e-10
 43.59052    -80.3 1.200e+04 1.096e-09
 43.63064    -79.8 1.245e+04 1.555e-09
 43.67076    -79.3 1.194e+04 1.284e-09
 43.71088    -78.5 1.198e+04 1.303e-09
 43.73147    -77.3 1.181e+04 1.227e-09
 43.75153    -77.0 1.189e+04 1.321e-09
 43.79112    -75.5 1.136e+04 9.731e-10
 43.82246    -73.6 1.085e+04 7.035e-10
 43.84252    -73.6 1.055e+04 5.423e-10
 43.87137    -71.7 1.031e+04 4.457e-10
 43.91149    -69.6 1.013e+04 3.890e-10
 43.95161    -67.5 1.005e+04 3.654e-10
 43.99173    -65.3 1.006e+04 3.648e-10
 44.01424    -63.2 1.010e+04 3.879e-10
 44.03430    -63.5 1.028e+04 4.529e-10
 44.07197    -61.4 1.044e+04 5.510e-10
 44.11209    -59.3 1.060e+04 6.455e-10
 44.15221    -57.2 1.068e+04 6.997e-10
 44.18597    -55.2 1.069e+04 7.113e-10
 44.20603    -55.8 1.092e+04 8.256e-10
 44.21481    -53.7 1.071e+04 7.422e-10
 44.23487    -53.8 1.061e+04 7.132e-10
 44.27257    -51.5 1.029e+04 5.809e-10
 44.31269    -49.2 9.968e+03 4.503e-10
 44.35281    -46.8 9.667e+03 3.414e-10
 44.37775    -44.3 9.402e+03 2.574e-10
 44.39781    -44.9 9.334e+03 2.273e-10
 44.43306    -42.3 9.142e+03 1.661e-10
 44.47318    -39.7 9.005e+03 1.258e-10
 44.51330    -37.0 8.844e+03 1.053e-10
 44.54948    -34.2 8.803e+03 9.724e-11
 44.56954    -34.5 8.813e+03 8.787e-11
 44.59354    -31.6 8.806e+03 8.643e-11
 44.63366    -28.5 8.805e+03 8.978e-11
 44.67378    -25.4 8.906e+03 9.988e-11
 44.69816    -22.5 9.030e+03 1.142e-10
 44.71822    -22.6 8.644e+03 8.180e-11
 44.74126    -19.9 8.757e+03 9.522e-11
 44.76132    -21.0 9.182e+03 1.081e-10
 44.79414    -19.5 9.787e+03 1.846e-10
 44.83426    -18.2 1.082e+04 3.918e-10
 44.87439    -18.1 1.187e+04 8.618e-10
 44.90438    -18.4 1.282e+04 2.062e-09
 44.92282    -17.8 1.335e+04 2.898e-09
 44.93285    -18.0 1.345e+04 3.085e-09
 44.93964    -17.4 1.379e+04 3.658e-09
 44.94967    -17.6 1.317e+04 2.748e-09
 44.96446    -16.8 1.327e+04 2.902e-09
 44.98452    -16.1 1.311e+04 2.576e-09
 45.00458    -15.6 1.284e+04 2.067e-09
 45.01871    -15.7 1.234e+04 1.539e-09
 45.02874    -16.6 1.185e+04 1.220e-09
 45.04470    -16.7 1.158e+04 1.106e-09
 45.07489    -16.0 1.137e+04 9.732e-10
 45.10477    -14.9 1.074e+04 7.293e-10
 45.12483    -15.2 1.035e+04 5.303e-10
 45.15523    -13.7 1.009e+04 4.912e-10
 45.18150    -11.7 1.001e+04 4.798e-10
 45.20156    -11.8 1.012e+04 5.853e-10
 45.23547     -9.7 1.003e+04 5.107e-10
 45.27559     -7.9 9.892e+03 3.871e-10
 45.29656     -6.6 9.672e+03 3.029e-10
 45.31662     -6.7 9.418e+03 2.347e-10
 45.35584     -5.1 9.159e+03 1.987e-10
 45.39596     -3.0 8.886e+03 1.595e-10
 45.43608     -0.5 8.656e+03 1.160e-10
 45.46828      2.2 8.528e+03 7.556e-11
 45.48834      2.1 8.560e+03 6.508e-11
 45.51632      4.5 8.579e+03 4.113e-11
 45.55644      6.3 8.608e+03 2.894e-11
 45.59656      8.3 8.386e+03 2.610e-11
 45.63668     10.7 8.369e+03 2.655e-11
 45.66006     13.1 8.405e+03 2.925e-11
 45.66817     13.0 8.426e+03 2.918e-11
 45.68491     12.5 8.430e+03 2.975e-11
 45.71692     15.0 8.500e+03 3.559e-11
 45.75704     17.5 8.578e+03 4.538e-11
 45.79716     20.0 8.658e+03 5.888e-11
 45.83179     22.6 8.770e+03 7.469e-11
 45.85185     22.4 8.863e+03 8.953e-11
 45.87741     24.7 9.058e+03 1.161e-10
 45.91753     26.8 9.277e+03 1.471e-10
 45.95765     28.7 9.477e+03 1.791e-10
 45.99777     30.6 9.635e+03 2.071e-10
 46.02357     32.5 9.652e+03 2.156e-10
 46.04364     32.2 9.796e+03 2.730e-10
 46.07801     34.1 9.646e+03 2.213e-10
 46.11813     36.0 9.455e+03 1.703e-10
 46.14820     37.8 9.232e+03 1.253e-10
 46.16826     37.2 9.075e+03 1.219e-10
 46.19530     39.1 9.006e+03 1.031e-10
 46.21536     38.3 8.860e+03 8.621e-11
 46.23849     40.4 8.834e+03 8.676e-11
 46.27861     42.6 8.825e+03 9.085e-11
 46.31874     44.7 8.848e+03 1.009e-10
 46.35886     46.8 8.879e+03 1.159e-10
 46.38708     49.0 8.905e+03 1.347e-10
 46.40714     48.6 8.820e+03 1.293e-10
 46.43910     50.7 8.888e+03 1.460e-10
 46.47922     52.7 8.989e+03 1.631e-10
 46.51934     54.4 9.093e+03 1.834e-10
 46.55881     55.9 9.248e+03 2.130e-10
 46.57887     54.6 9.359e+03 2.527e-10
 46.59958     56.0 9.604e+03 3.513e-10
 46.63154     57.5 9.888e+03 4.841e-10
 46.65160     56.9 9.956e+03 5.248e-10
 46.67982     58.5 1.026e+04 6.757e-10
 46.71994     60.0 1.022e+04 6.667e-10
 46.75059     61.6 1.004e+04 5.800e-10
 46.77065     61.0 9.449e+03 3.314e-10
 46.80019     62.8 9.112e+03 2.235e-10
 46.84031     64.5 8.770e+03 1.486e-10
 46.88043     66.1 8.484e+03 1.110e-10
 46.92055     68.1 8.385e+03 1.058e-10
 46.94238     70.3 8.386e+03 1.115e-10
 46.96244     69.9 8.311e+03 1.027e-10
 47.00079     72.2 8.415e+03 1.236e-10
 47.04091     74.4 8.539e+03 1.503e-10
 47.08103     76.4 8.671e+03 1.817e-10
 47.11410     78.2 8.760e+03 2.109e-10
 47.12790     77.7 9.006e+03 2.784e-10
 47.13495     77.3 8.871e+03 2.599e-10
 47.16127     79.2 8.867e+03 2.710e-10
 47.20139     81.1 8.818e+03 2.671e-10
 47.24151     82.9 8.746e+03 2.615e-10
 47.28163     84.7 8.687e+03 2.528e-10
 47.30589     86.4 8.636e+03 2.442e-10
 47.32595     86.2 8.459e+03 2.062e-10
 47.36188     87.9 8.412e+03 1.973e-10
 47.40200     89.6 8.383e+03 1.923e-10
 47.44212     91.2 8.349e+03 1.896e-10
 47.47761     92.9 8.319e+03 1.891e-10
 47.49767     93.1 8.298e+03 1.834e-10
 47.52236     94.9 8.290e+03 1.850e-10
 47.56248     96.7 8.293e+03 1.927e-10
 47.59823     98.3 8.360e+03 2.136e-10
 47.61829     98.2 8.322e+03 2.134e-10
 47.64272     99.9 8.458e+03 2.493e-10
 47.66940    101.4 8.604e+03 2.900e-10
 47.68946    102.0 8.585e+03 2.868e-10
 47.72296    103.5 8.702e+03 3.187e-10
 47.76308    104.8 8.729e+03 3.231e-10
 47.80321    106.1 8.703e+03 3.144e-10
 47.84112    107.4 8.597e+03 2.859e-10
 47.86118    107.9 8.562e+03 2.695e-10
 47.88345    109.2 8.353e+03 2.168e-10
 47.92357    110.4 8.124e+03 1.703e-10
 47.96369    111.7 7.912e+03 1.394e-10
 48.00381    112.9 7.780e+03 1.290e-10
 48.03291    114.3 7.767e+03 1.292e-10
 48.05297    114.4 7.794e+03 1.293e-10
 48.08158    115.7 7.815e+03 1.326e-10
 48.10164    116.3 7.810e+03 1.336e-10
 48.12417    117.6 7.868e+03 1.411e-10
 48.16429    118.9 7.939e+03 1.471e-10
 48.20441    120.0 7.958e+03 1.475e-10
 48.22469    121.2 7.956e+03 1.454e-10
 48.24475    120.8 8.441e+03 1.972e-10
 48.28466    122.0 8.347e+03 1.726e-10
 48.32478    123.2 8.218e+03 1.484e-10
 48.36490    124.5 8.108e+03 1.333e-10
 48.39642    126.0 8.049e+03 1.279e-10
 48.41648    125.6 8.795e+03 2.504e-10
 48.44514    127.4 8.778e+03 2.530e-10
 48.48526    129.3 8.758e+03 2.549e-10
 48.52538    131.3 8.722e+03 2.523e-10
 48.56493    133.4 8.657e+03 2.461e-10
 48.58499    134.3 8.631e+03 2.437e-10
 48.58820    136.5 8.629e+03 2.442e-10
 48.60826    136.5 9.232e+03 3.725e-10
 48.64574    138.7 9.267e+03 3.657e-10
 48.68586    141.0 9.326e+03 3.688e-10
 48.72598    143.1 9.490e+03 3.888e-10
 48.75598    143.5 9.685e+03 4.430e-10
 48.76976    143.9 9.884e+03 5.208e-10
 48.77979    143.6 1.010e+04 6.302e-10
 48.79600    144.3 1.030e+04 7.295e-10
 48.81606    145.0 1.054e+04 8.560e-10
 48.82646    145.7 1.084e+04 1.011e-09
 48.83649    146.3 1.066e+04 9.119e-10
 48.85563    147.1 1.099e+04 1.082e-09
 48.86566    146.8 1.107e+04 1.122e-09
 48.87624    147.2 1.138e+04 1.307e-09
 48.89630    147.3 1.173e+04 1.528e-09
 48.91636    147.3 1.214e+04 1.792e-09
 48.93642    147.1 1.270e+04 2.177e-09
 48.95152    146.5 1.341e+04 2.766e-09
 48.96155    146.7 1.289e+04 2.279e-09
 48.97654    146.2 1.343e+04 2.747e-09
 48.99660    145.5 1.388e+04 3.156e-09
 49.01667    144.6 1.405e+04 3.232e-09
 49.03673    143.6 1.404e+04 3.173e-09
 49.04741    142.7 1.385e+04 2.882e-09
 49.05744    143.5 1.301e+04 2.031e-09
 49.06814    142.7 1.261e+04 1.701e-09
 49.07817    143.3 1.296e+04 1.925e-09
 49.09691    142.8 1.246e+04 1.589e-09
 49.11697    142.7 1.235e+04 1.548e-09
 49.13327    142.5 1.180e+04 1.290e-09
 49.14340    144.2 1.157e+04 1.119e-09
 49.16731    144.3 1.109e+04 9.663e-10
 49.20743    145.0 1.076e+04 8.895e-10
 49.24756    146.0 1.050e+04 8.262e-10
 49.28768    147.4 1.025e+04 7.434e-10
 49.31522    149.0 9.970e+03 6.393e-10
 49.33528    151.0 9.881e+03 5.942e-10
 49.36792    152.6 9.695e+03 5.410e-10
 49.40804    154.4 9.450e+03 4.624e-10
 49.44816    156.2 9.188e+03 3.886e-10
 49.48695    158.1 8.904e+03 3.182e-10
 49.50701    159.9 9.152e+03 3.824e-10
 49.52840    161.6 9.046e+03 3.663e-10
 49.55168    163.3 8.944e+03 3.492e-10
 49.57174    162.9 9.045e+03 3.781e-10
 49.60864    164.6 9.008e+03 3.754e-10
 49.64876    166.2 9.032e+03 3.801e-10
 49.67873    167.7 9.078e+03 3.877e-10
 49.69879    169.4 9.985e+03 7.092e-10
 49.72900    170.6 1.022e+04 7.881e-10
 49.76913    171.3 1.028e+04 7.922e-10
 49.80925    171.7 1.025e+04 7.771e-10
 49.84937    172.0 1.009e+04 7.242e-10
 49.87052    172.4 9.856e+03 6.529e-10
 49.89058    172.9 1.066e+04 9.585e-10
 49.92961    173.1 1.024e+04 7.720e-10
 49.96973    173.2 9.886e+03 6.515e-10
 50.00985    173.3 9.818e+03 6.273e-10
 50.03502    173.5 9.881e+03 6.325e-10
 50.04736    173.9 9.636e+03 5.452e-10
 50.06230    173.6 9.214e+03 3.655e-10
 50.09009    174.0 9.072e+03 3.206e-10
 50.13021    174.6 8.980e+03 2.915e-10
 50.17033    175.3 8.914e+03 2.697e-10
 50.21045    176.0 8.847e+03 2.495e-10
 50.23403    176.5 8.780e+03 2.309e-10
 50.25409    176.1 8.546e+03 1.919e-10
 50.29070    176.9 8.562e+03 1.956e-10
 50.33082    177.7 8.586e+03 2.005e-10
 50.37094    178.6 8.632e+03 2.109e-10
 50.40575    179.6 8.858e+03 2.495e-10
 50.42581    180.0 9.208e+03 3.129e-10
 50.45118    180.5 9.478e+03 3.659e-10
 50.48117    181.2 9.770e+03 4.259e-10
 50.50114    181.0 1.015e+04 5.186e-10
 50.51148    180.5 1.071e+04 6.987e-10
 50.51849    180.4 1.094e+04 8.477e-10
 50.52820    181.4 1.083e+04 7.689e-10
 50.54126    180.7 1.148e+04 1.107e-09
 50.56132    179.9 1.220e+04 1.646e-09
 50.58138    179.4 1.291e+04 2.365e-09
 50.59734    178.8 1.353e+04 2.995e-09
 50.60737    179.4 1.354e+04 3.006e-09
 50.62150    178.6 1.380e+04 3.082e-09
 50.64156    177.5 1.381e+04 2.987e-09
 50.66162    176.4 1.369e+04 2.562e-09
 50.68168    175.5 1.333e+04 1.879e-09
 50.69324    174.6 1.295e+04 1.434e-09
 50.70327    175.0 1.288e+04 1.363e-09
 50.73193    174.0 1.225e+04 9.353e-10
 50.76926    173.0 1.147e+04 7.048e-10
 50.78932    173.5 1.151e+04 7.102e-10
 50.80214    173.6 1.129e+04 6.670e-10
 50.82210    173.6 1.130e+04 6.683e-10
 50.84216    173.4 1.143e+04 6.971e-10
 50.86222    172.9 1.171e+04 7.960e-10
 50.87499    172.3 1.207e+04 9.963e-10
 50.88502    172.2 1.205e+04 9.782e-10
 50.90234    171.9 1.235e+04 1.234e-09
 50.92240    171.8 1.261e+04 1.511e-09
 50.94246    172.0 1.282e+04 1.735e-09
 50.96085    172.0 1.300e+04 1.801e-09
 50.97088    171.4 1.254e+04 1.348e-09
 50.98259    171.1 1.247e+04 1.294e-09
 51.00162    170.7 1.214e+04 1.083e-09
 51.01165    172.0 1.237e+04 1.253e-09
 51.02271    171.6 1.228e+04 1.211e-09
 51.05289    172.5 1.217e+04 1.146e-09
 51.09311    172.6 1.195e+04 9.936e-10
 51.13277    172.8 1.161e+04 7.838e-10
 51.15283    173.6 1.146e+04 7.170e-10
 51.17335    173.9 1.113e+04 5.473e-10
 51.21348    174.4 1.086e+04 4.410e-10
 51.25360    175.1 1.081e+04 4.296e-10
 51.29372    176.0 1.085e+04 4.482e-10
 51.32456    176.7 1.099e+04 5.108e-10
 51.34462    177.5 1.118e+04 5.978e-10
 51.37396    177.7 1.146e+04 7.360e-10
 51.41408    177.8 1.172e+04 8.796e-10
 51.45420    177.7 1.180e+04 9.110e-10
 51.48506    177.6 1.176e+04 8.871e-10
 51.50512    178.3 1.148e+04 7.385e-10
 51.51634    178.4 1.131e+04 6.729e-10
 51.53640    178.3 1.138e+04 5.656e-10
 51.57456    178.7 1.108e+04 5.007e-10
 51.61468    179.3 1.089e+04 4.887e-10
 51.65480    180.2 1.078e+04 4.796e-10
 51.68807    181.3 1.063e+04 4.540e-10
 51.70813    181.6 1.057e+04 3.773e-10
 51.73505    183.0 1.048e+04 3.700e-10
 51.77517    184.4 1.035e+04 3.386e-10
 51.81529    185.8 1.018e+04 2.862e-10
 51.85541    187.2 9.967e+03 2.284e-10
 51.87985    188.7 9.755e+03 1.826e-10
 51.89991    189.3 1.016e+04 2.799e-10
 51.93565    191.0 9.959e+03 2.423e-10
 51.96841    192.7 9.856e+03 2.293e-10
 51.98847    194.0 9.835e+03 2.297e-10
 52.01589    195.7 9.812e+03 2.295e-10
 52.05158    197.5 9.840e+03 2.354e-10
 52.07164    198.2 1.041e+04 3.843e-10
 52.09613    199.4 1.065e+04 4.463e-10
 52.13625    200.1 1.111e+04 5.896e-10
 52.17638    200.2 1.167e+04 8.289e-10
 52.21650    200.0 1.237e+04 1.212e-09
 52.24326    199.6 1.284e+04 1.486e-09
 52.25320    198.6 1.362e+04 2.555e-09
 52.26645    197.9 1.387e+04 3.026e-09
 52.28651    197.1 1.386e+04 3.069e-09
 52.30657    196.4 1.382e+04 2.994e-09
 52.32663    195.8 1.357e+04 2.613e-09
 52.33906    195.1 1.318e+04 2.152e-09
 52.34909    194.7 1.322e+04 2.216e-09
 52.36675    194.4 1.274e+04 1.728e-09
 52.38681    194.3 1.229e+04 1.373e-09
 52.40687    194.3 1.193e+04 1.158e-09
 52.42492    194.4 1.165e+04 1.019e-09
 52.43495    193.5 1.144e+04 9.381e-10
 52.44700    194.0 1.120e+04 8.503e-10
 52.46159    194.7 1.093e+04 7.564e-10
 52.47162    194.4 1.124e+04 8.964e-10
 52.49724    195.5 1.114e+04 8.127e-10
 52.53746    197.6 1.070e+04 6.608e-10
 52.57758    199.6 1.038e+04 5.685e-10
 52.60687    201.6 1.037e+04 5.613e-10
 52.61680    200.4 1.006e+04 4.455e-10
 52.62754    200.9 1.006e+04 4.456e-10
 52.64760    202.1 1.009e+04 4.526e-10
 52.66766    202.8 1.012e+04 4.616e-10
 52.69785    204.1 1.040e+04 5.472e-10
 52.73807    205.9 1.057e+04 6.165e-10
 52.77819    207.9 1.065e+04 6.722e-10
 52.79866    209.7 1.080e+04 7.344e-10
 52.80859    208.5 1.110e+04 8.921e-10
 52.82814    209.5 1.131e+04 9.805e-10
 52.84820    210.3 1.153e+04 1.076e-09
 52.86826    211.1 1.176e+04 1.174e-09
 52.88432    211.8 1.198e+04 1.271e-09
 52.89435    211.8 1.235e+04 1.720e-09
 52.90838    212.5 1.266e+04 1.962e-09
 52.92845    213.0 1.298e+04 2.204e-09
 52.94493    213.6 1.334e+04 2.418e-09
 52.95496    213.3 1.354e+04 2.665e-09
 52.96857    213.7 1.401e+04 2.913e-09
 52.98022    214.0 1.455e+04 3.010e-09
 52.99025    214.4 1.527e+04 5.297e-09
 53.00869    214.2 1.600e+04 6.063e-09
 53.02875    213.8 1.693e+04 6.833e-09
 53.04881    212.9 1.819e+04 7.113e-09
 53.06608    211.2 1.972e+04 7.200e-09
 53.07606    209.7 2.079e+04 2.041e-08
 53.08382    208.5 2.133e+04 2.345e-08
 53.09385    206.9 2.178e+04 2.622e-08
 53.10388    205.2 2.200e+04 2.852e-08
 53.11391    203.3 2.204e+04 3.036e-08
 53.12394    201.8 2.204e+04 6.242e-08
 53.13397    199.7 2.212e+04 6.048e-08
 53.14400    197.5 2.201e+04 5.488e-08
 53.15403    196.3 2.146e+04 4.550e-08
 53.16187    196.3 2.073e+04 3.505e-08
 53.16689    196.2 2.109e+04 4.402e-08
 53.17409    196.4 2.028e+04 3.069e-08
 53.18656    196.7 1.930e+04 1.952e-08
 53.19664    195.7 1.915e+04 1.705e-08
 53.20929    195.4 1.793e+04 1.165e-08
 53.22935    195.1 1.708e+04 8.726e-09
 53.24783    194.8 1.641e+04 7.084e-09
 53.25786    193.4 1.481e+04 3.720e-09
 53.26947    193.2 1.456e+04 3.750e-09
 53.28953    193.2 1.450e+04 3.925e-09
 53.30959    193.5 1.456e+04 4.496e-09
 53.32965    194.1 1.493e+04 5.391e-09
 53.34373    194.4 1.539e+04 6.249e-09
 53.35376    194.2 1.465e+04 4.377e-09
 53.36977    194.1 1.483e+04 4.446e-09
 53.38983    193.9 1.482e+04 4.370e-09
 53.40990    193.6 1.466e+04 3.889e-09
 53.42828    193.2 1.414e+04 3.034e-09
 53.43794    192.6 1.413e+04 3.005e-09
 53.43962    191.5 1.298e+04 1.859e-09
 53.45002    191.5 1.245e+04 1.439e-09
 53.47008    191.5 1.196e+04 1.157e-09
 53.50026    191.3 1.125e+04 8.289e-10
 53.52568    190.6 1.034e+04 4.826e-10
 53.54574    189.9 1.011e+04 4.385e-10
 53.58060    189.8 1.000e+04 3.555e-10
 53.62072    189.9 1.004e+04 3.594e-10
 53.66085    189.6 1.017e+04 3.875e-10
 53.69084    189.1 1.033e+04 4.651e-10
 53.70724    189.1 1.049e+04 5.582e-10
 53.71727    188.8 1.069e+04 6.646e-10
 53.73086    188.6 1.088e+04 7.461e-10
 53.75092    188.1 1.114e+04 8.449e-10
 53.77098    187.2 1.155e+04 9.860e-10
 53.79104    185.7 1.217e+04 1.223e-09
 53.80313    183.8 1.301e+04 1.656e-09
 53.81316    182.1 1.359e+04 2.069e-09
 53.83116    180.1 1.426e+04 2.777e-09
 53.85122    178.0 1.490e+04 3.601e-09
 53.87128    175.7 1.521e+04 3.881e-09
 53.88899    172.9 1.516e+04 3.783e-09
 53.89902    171.3 1.448e+04 3.108e-09
 53.91141    168.6 1.412e+04 2.674e-09
 53.92166    166.0 1.356e+04 2.046e-09
 53.93169    165.0 1.335e+04 1.854e-09
 53.95153    162.5 1.267e+04 1.237e-09
 53.97159    159.8 1.196e+04 8.194e-10
 53.98488    157.0 1.123e+04 5.745e-10
 53.99491    156.7 1.167e+04 7.882e-10
 54.01171    154.3 1.118e+04 6.607e-10
 54.03177    152.1 1.090e+04 6.360e-10
 54.05183    150.5 1.086e+04 6.379e-10
 54.07075    149.0 1.085e+04 6.442e-10
 54.08078    149.1 1.126e+04 8.697e-10
 54.09195    147.6 1.126e+04 8.693e-10
 54.11201    146.1 1.125e+04 8.592e-10
 54.13207    144.5 1.122e+04 8.146e-10
 54.15213    142.7 1.108e+04 7.319e-10
 54.16333    139.9 1.112e+04 6.954e-10
 54.16781    140.0 1.120e+04 7.433e-10
 54.17667    140.1 1.164e+04 9.465e-10
 54.19225    137.7 1.165e+04 9.188e-10
 54.21231    135.0 1.176e+04 9.441e-10
 54.23237    132.2 1.207e+04 1.060e-09
 54.25243    129.5 1.245e+04 1.308e-09
 54.27249    127.1 1.327e+04 2.131e-09
 54.29255    125.3 1.324e+04 2.184e-09
 54.31261    123.8 1.315e+04 2.115e-09
 54.34280    122.4 1.280e+04 1.830e-09
 54.38302    119.9 1.227e+04 1.491e-09
 54.40520    117.9 1.162e+04 1.106e-09
 54.42526    115.6 1.139e+04 1.009e-09
 54.44448    114.5 1.081e+04 7.534e-10
 54.46454    115.2 1.051e+04 6.313e-10
 54.50338    115.1 1.029e+04 5.363e-10
 54.54350    115.2 1.006e+04 4.420e-10
 54.58362    115.4 9.822e+03 3.690e-10
 54.61621    115.7 9.690e+03 3.536e-10
 54.63627    117.3 9.745e+03 3.629e-10
 54.66387    117.9 9.712e+03 3.615e-10
 54.70399    118.5 9.731e+03 3.731e-10
 54.74411    119.1 9.822e+03 4.092e-10
 54.78423    119.6 9.972e+03 4.660e-10
 54.80799    119.9 1.016e+04 5.357e-10
 54.82805    121.5 1.043e+04 6.409e-10
 54.86447    121.5 1.075e+04 7.958e-10
 54.88854    121.4 1.094e+04 8.990e-10
 54.90860    118.7 1.117e+04 9.423e-10
 54.94471    118.1 1.104e+04 9.100e-10
 54.97972    117.5 1.083e+04 8.601e-10
 54.99978    118.9 1.135e+04 1.052e-09
 55.02495    118.2 1.084e+04 8.576e-10
 55.06507    117.5 1.027e+04 6.795e-10
 55.10520    117.1 9.731e+03 5.274e-10
 55.14532    117.0 9.232e+03 4.068e-10
 55.17150    117.2 8.818e+03 3.155e-10
 55.19156    118.7 8.843e+03 3.305e-10
 55.22556    119.1 8.530e+03 2.646e-10
 55.26568    119.7 8.253e+03 2.155e-10
 55.30580    120.4 8.086e+03 1.897e-10
 55.34323    121.3 8.074e+03 1.879e-10
 55.36329    122.6 8.081e+03 1.919e-10
 55.37189    123.5 8.104e+03 1.956e-10
 55.39195    123.2 8.444e+03 2.494e-10
 55.42616    124.3 8.634e+03 2.760e-10
 55.46628    124.6 8.874e+03 3.194e-10
 55.49628    124.9 9.073e+03 3.723e-10
 55.51624    124.9 9.483e+03 4.841e-10
 55.53482    124.3 1.028e+04 7.277e-10
 55.54485    124.4 1.036e+04 7.775e-10
 55.55636    123.6 1.148e+04 1.373e-09
 55.57642    122.5 1.307e+04 2.491e-09
 55.58773    121.7 1.394e+04 3.364e-09
 55.59269    121.7 1.387e+04 3.397e-09
 55.60140    120.7 1.488e+04 4.439e-09
 55.61143    118.5 1.695e+04 6.111e-09
 55.61828    115.8 1.918e+04 8.355e-09
 55.62330    112.9 2.172e+04 1.327e-08
 55.63061    110.6 2.250e+04 1.658e-08
 55.63563    109.1 2.221e+04 2.310e-08
 55.64152    107.8 2.177e+04 2.333e-08
 55.65155    106.6 2.121e+04 2.244e-08
 55.66158    105.3 2.062e+04 2.123e-08
 55.67161    104.0 1.986e+04 2.024e-08
 55.67856    102.8 1.921e+04 1.908e-08
 55.68357    102.4 1.858e+04 1.658e-08
 55.69167    101.6 1.827e+04 1.504e-08
 55.70170    101.2 1.813e+04 1.425e-08
 55.71652    101.1 1.814e+04 1.453e-08
 55.72660    101.0 1.698e+04 8.455e-09
 55.73690    100.5 1.643e+04 5.596e-09
 55.75696     99.3 1.562e+04 3.351e-09
 55.77702     97.4 1.423e+04 1.863e-09
 55.79708     94.7 1.220e+04 1.075e-09
 55.82727     93.8 1.136e+04 8.573e-10
 55.85523     93.6 1.053e+04 6.882e-10
 55.87530     93.2 1.033e+04 6.229e-10
 55.89852     94.0 1.004e+04 4.992e-10
 55.91858     94.8 9.662e+03 3.846e-10
 55.94773     94.9 9.505e+03 3.102e-10
 55.98785     94.9 9.256e+03 2.259e-10
 56.02797     94.8 8.945e+03 1.648e-10
 56.06809     94.7 8.609e+03 1.396e-10
 56.09031     95.0 8.457e+03 1.387e-10
 56.11037     95.1 8.679e+03 1.776e-10
 56.14834     95.8 8.588e+03 1.731e-10
 56.18846     96.6 8.529e+03 1.668e-10
 56.22858     97.5 8.447e+03 1.548e-10
 56.26203     98.5 8.321e+03 1.358e-10
 56.28209     98.3 8.446e+03 1.477e-10
 56.30882     99.1 8.309e+03 1.269e-10
 56.33858     99.9 8.260e+03 1.231e-10
 56.35864    100.3 8.233e+03 1.285e-10
 56.38906    101.2 8.259e+03 1.352e-10
 56.42918    102.1 8.405e+03 1.631e-10
 56.45382    103.1 8.748e+03 2.218e-10
 56.47388    103.0 9.047e+03 2.890e-10
 56.50942    103.8 9.405e+03 3.769e-10
 56.54954    104.2 9.671e+03 4.449e-10
 56.58967    104.3 9.814e+03 4.770e-10
 56.62554    104.3 9.826e+03 4.565e-10
 56.64560    104.1 9.687e+03 3.704e-10
 56.66991    103.8 9.649e+03 3.380e-10
 56.71003    103.4 9.660e+03 3.337e-10
 56.75015    102.9 9.711e+03 3.397e-10
 56.79027    102.5 9.880e+03 3.651e-10
 56.81733    101.6 1.031e+04 4.589e-10
 56.82892    102.1 1.003e+04 3.931e-10
 56.84189    101.6 1.022e+04 4.500e-10
 56.87041    101.3 1.080e+04 6.228e-10
 56.91063     99.9 1.171e+04 1.014e-09
 56.95075     97.8 1.226e+04 1.290e-09
 56.98905     95.2 1.221e+04 1.216e-09
 57.00911     96.7 1.265e+04 1.518e-09
 57.03099     94.4 1.237e+04 1.218e-09
 57.07112     92.2 1.153e+04 5.751e-10
 57.11124     88.9 1.020e+04 2.445e-10
 57.15136     85.4 9.950e+03 2.371e-10
 57.18084     82.4 1.015e+04 3.177e-10
 57.20090     84.7 1.017e+04 3.124e-10
 57.23160     82.2 1.066e+04 4.638e-10
 57.27172     79.8 1.137e+04 7.267e-10
 57.30527     77.5 1.192e+04 9.781e-10
 57.32533     75.4 1.195e+04 9.447e-10
 57.35196     73.9 1.187e+04 8.593e-10
 57.37262     72.7 1.150e+04 6.640e-10
 57.38255     74.3 1.195e+04 9.643e-10
 57.40192     73.7 1.174e+04 8.600e-10
 57.42198     73.1 1.147e+04 7.402e-10
 57.44204     72.9 1.114e+04 6.000e-10
 57.45829     72.7 1.086e+04 4.813e-10
 57.46832     73.4 1.110e+04 5.906e-10
 57.48216     73.3 1.083e+04 4.707e-10
 57.50222     73.1 1.068e+04 4.104e-10
 57.52228     73.0 1.067e+04 4.081e-10
 57.54234     72.8 1.073e+04 4.264e-10
 57.55418     72.7 1.086e+04 4.816e-10
 57.55859     73.2 1.084e+04 5.296e-10
 57.56681     72.7 1.097e+04 6.133e-10
 57.58246     72.8 1.121e+04 7.766e-10
 57.60252     73.0 1.154e+04 9.976e-10
 57.62258     73.1 1.195e+04 1.270e-09
 57.64004     73.2 1.237e+04 1.576e-09
 57.65007     74.0 1.230e+04 1.536e-09
 57.66270     74.0 1.270e+04 1.797e-09
 57.68276     73.9 1.308e+04 2.004e-09
 57.71295     72.8 1.323e+04 1.950e-09
 57.73613     71.8 1.291e+04 1.717e-09
 57.75619     73.7 1.291e+04 1.707e-09
 57.78862     73.3 1.217e+04 1.213e-09
 57.80868     72.4 1.236e+04 1.422e-09
 57.83341     72.9 1.120e+04 7.385e-10
 57.87353     73.7 1.002e+04 2.827e-10
 57.90785     73.9 9.040e+03 9.076e-11
 57.92792     75.7 9.492e+03 1.596e-10
 57.95377     76.1 8.901e+03 6.782e-11
 57.99389     76.8 8.519e+03 5.334e-11
 58.03401     78.3 8.436e+03 5.295e-11
 58.07414     80.2 8.405e+03 5.484e-11
 58.09964     82.1 8.373e+03 6.414e-11
 58.11970     83.2 8.561e+03 6.490e-11
 58.15438     84.8 8.581e+03 8.224e-11
 58.19450     86.4 8.716e+03 1.118e-10
 58.23462     87.9 8.890e+03 1.505e-10
 58.27136     89.4 9.071e+03 1.911e-10
 58.28865     90.1 9.291e+03 2.447e-10
 58.29202     89.6 9.569e+03 2.848e-10
 58.31486     90.9 9.890e+03 3.710e-10
 58.35498     91.8 1.024e+04 4.613e-10
 58.39510     92.3 1.058e+04 5.603e-10
 58.43522     92.8 1.103e+04 7.030e-10
 58.46305     92.8 1.113e+04 7.483e-10
 58.47298     92.6 1.099e+04 6.828e-10
 58.48518     92.5 1.117e+04 7.636e-10
 58.50524     92.3 1.137e+04 8.695e-10
 58.52347     92.2 1.155e+04 9.875e-10
 58.53350     91.9 1.167e+04 1.071e-09
 58.54536     91.9 1.174e+04 1.108e-09
 58.55885     91.9 1.182e+04 1.113e-09
 58.56888     91.3 1.210e+04 1.384e-09
 58.58548     91.0 1.227e+04 1.468e-09
 58.60554     90.5 1.256e+04 1.585e-09
 58.62560     89.6 1.294e+04 1.763e-09
 58.64471     88.5 1.324e+04 1.996e-09
 58.65474     87.7 1.360e+04 2.686e-09
 58.66572     86.9 1.362e+04 2.834e-09
 58.68578     86.3 1.359e+04 2.829e-09
 58.70584     85.7 1.354e+04 2.778e-09
 58.72590     85.0 1.344e+04 2.540e-09
 58.74060     84.1 1.331e+04 2.172e-09
 58.75063     83.0 1.280e+04 1.560e-09
 58.76515     81.5 1.232e+04 1.255e-09
 58.77518     80.0 1.229e+04 1.433e-09
 58.78609     78.6 1.189e+04 1.266e-09
 58.80615     77.9 1.161e+04 1.168e-09
 58.82656     77.1 1.183e+04 1.275e-09
 58.84672     76.2 1.090e+04 8.329e-10
 58.87655     75.3 1.072e+04 7.510e-10
 58.91667     74.3 1.058e+04 7.023e-10
 58.95679     73.5 1.040e+04 6.617e-10
 58.99691     73.3 1.015e+04 6.120e-10
 59.01844     73.5 9.805e+03 5.338e-10
 59.03851     74.0 9.404e+03 4.113e-10
 59.07716     74.7 9.102e+03 3.570e-10
 59.11728     75.8 8.769e+03 2.958e-10
 59.15740     77.0 8.461e+03 2.390e-10
 59.19017     78.3 8.220e+03 1.916e-10
 59.21023     78.8 8.071e+03 1.674e-10
 59.23764     80.2 7.885e+03 1.421e-10
 59.25872     81.6 7.766e+03 1.278e-10
 59.27878     81.5 8.102e+03 1.898e-10
 59.31788     83.1 8.094e+03 1.888e-10
 59.35800     84.6 8.123e+03 1.926e-10
 59.38195     86.1 8.228e+03 2.073e-10
 59.40201     86.7 7.911e+03 1.380e-10
 59.43824     88.0 8.006e+03 1.484e-10
 59.47836     89.2 8.135e+03 1.657e-10
 59.51849     90.2 8.269e+03 1.879e-10
 59.55368     91.2 8.362e+03 2.099e-10
 59.57374     91.8 7.929e+03 1.334e-10
 59.59873     92.7 7.973e+03 1.439e-10
 59.63885     93.6 7.982e+03 1.500e-10
 59.67897     94.4 7.992e+03 1.539e-10
 59.71909     94.8 8.029e+03 1.595e-10
 59.74206     94.9 8.101e+03 1.697e-10
 59.74838     95.3 7.843e+03 1.323e-10
 59.76552     96.2 7.922e+03 1.329e-10
 59.79933     96.0 8.229e+03 1.761e-10
 59.83945     95.5 8.814e+03 2.726e-10
 59.86944     94.9 9.148e+03 3.411e-10
 59.88941     94.3 9.535e+03 4.249e-10
 59.90947     93.2 1.005e+04 5.601e-10
 59.92702     91.9 1.058e+04 7.322e-10
 59.93705     93.1 1.074e+04 8.369e-10
 59.94959     91.5 1.130e+04 1.053e-09
 59.96965     89.4 1.188e+04 1.313e-09
 59.98354     87.0 1.238e+04 1.611e-09
 59.99357     87.0 1.238e+04 1.603e-09
 60.00977     84.3 1.252e+04 1.774e-09
 60.02292     81.6 1.250e+04 1.770e-09
 60.03295     82.1 1.328e+04 2.269e-09
 60.04989     78.7 1.331e+04 2.251e-09
 60.06995     75.1 1.334e+04 2.244e-09
 60.09001     70.8 1.359e+04 2.329e-09
 60.10878     64.1 1.459e+04 2.851e-09
 60.11881     63.5 1.525e+04 3.621e-09
 60.12507     59.4 1.610e+04 4.231e-09
 60.13505     55.6 1.697e+04 5.258e-09
 60.15014     51.6 1.767e+04 7.816e-09
 60.17025     48.5 1.826e+04 9.643e-09
 60.19031     47.0 1.831e+04 8.887e-09
 60.20467     45.8 1.820e+04 5.546e-09
 60.21470     40.6 1.509e+04 1.952e-09
 60.22521     35.5 1.344e+04 9.470e-10
 60.23524     36.9 1.533e+04 1.200e-09
 60.25050     30.6 1.204e+04 5.756e-10
 60.28060     26.0 1.128e+04 4.322e-10
 60.32082     23.2 1.054e+04 4.513e-10
 60.36102     23.1 1.048e+04 4.192e-10
 60.40114     23.0 1.020e+04 3.230e-10
 60.44126     22.2 1.006e+04 2.689e-10
 60.47248     19.8 1.037e+04 3.253e-10
 60.49254     17.8 1.064e+04 4.217e-10
 60.51138     15.4 1.114e+04 5.706e-10
 60.53134     15.5 1.113e+04 6.418e-10
 60.55140     14.3 1.178e+04 8.734e-10
 60.56818     14.2 1.174e+04 8.811e-10
 60.57821     13.5 1.195e+04 9.303e-10
 60.60165     11.4 1.214e+04 9.400e-10
 60.64187     10.3 1.116e+04 6.750e-10
 60.66427     10.2 9.991e+03 2.899e-10
 60.68433      8.9 9.705e+03 2.294e-10
 60.70875      5.7 9.581e+03 9.014e-11
 60.72881      4.0 9.231e+03 7.838e-11
 60.76223      1.2 9.220e+03 9.116e-11
 60.80235     -0.5 9.358e+03 1.670e-10
 60.83599     -0.1 9.809e+03 3.142e-10
 60.85605      0.1 9.670e+03 2.932e-10
 60.88259      0.2 1.013e+04 3.320e-10
 60.92271     -0.0 1.019e+04 2.827e-10
 60.96283     -0.6 1.012e+04 2.031e-10
 61.00296     -1.0 9.841e+03 1.478e-10
 61.02778     -1.1 9.548e+03 1.309e-10
 61.04784     -0.7 9.762e+03 1.555e-10
 61.08320     -1.4 9.976e+03 1.923e-10
 61.12332     -2.1 1.057e+04 3.667e-10
 61.15331     -4.4 1.145e+04 6.750e-10
 61.17327     -6.3 1.259e+04 1.010e-09
 61.19190     -8.4 1.363e+04 1.535e-09
 61.20194     -9.1 1.281e+04 1.240e-09
 61.20934     -9.9 1.258e+04 1.474e-09
 61.21937    -10.6 1.239e+04 1.280e-09
 61.23346    -12.3 1.210e+04 1.210e-09
 61.25352    -13.9 1.225e+04 9.630e-10
 61.27358    -15.5 1.218e+04 6.552e-10
 61.29364    -18.0 1.107e+04 4.317e-10
 61.30523    -20.6 1.070e+04 2.851e-10
 61.31526    -19.3 1.065e+04 2.559e-10
 61.33376    -21.3 1.069e+04 1.981e-10
 61.35382    -24.0 1.060e+04 1.741e-10
 61.37388    -26.4 1.120e+04 2.073e-10
 61.39109    -30.1 1.170e+04 3.609e-10
 61.40112    -29.5 1.156e+04 2.640e-10
 61.41400    -32.1 1.172e+04 5.169e-10
 61.43358    -32.9 1.188e+04 9.798e-10
 61.44361    -32.9 1.176e+04 9.596e-10
 61.45412    -32.2 1.214e+04 1.339e-09
 61.47418    -31.4 1.230e+04 1.453e-09
 61.48699    -31.1 1.240e+04 1.285e-09
 61.49702    -30.6 1.224e+04 1.027e-09
 61.51430    -31.4 1.238e+04 6.936e-10
 61.53436    -35.3 1.230e+04 4.980e-10
 61.55442    -39.5 1.142e+04 4.313e-10
 61.57285    -40.9 1.119e+04 4.543e-10
 61.58288    -40.7 1.122e+04 4.485e-10
 61.59454    -41.6 1.143e+04 5.924e-10
 61.61460    -42.1 1.180e+04 7.148e-10
 61.63466    -43.1 1.220e+04 8.135e-10
 61.65472    -45.0 1.262e+04 8.978e-10
 61.66874    -47.8 1.329e+04 9.700e-10
 61.67877    -46.9 1.313e+04 9.702e-10
 61.68528    -50.6 1.419e+04 1.171e-09
 61.69531    -52.2 1.391e+04 1.203e-09
 61.71491    -57.4 1.444e+04 1.609e-09
 61.73497    -61.2 1.481e+04 2.859e-09
 61.75460    -63.4 1.555e+04 4.544e-09
 61.76463    -62.0 1.539e+04 4.355e-09
 61.77509    -63.6 1.631e+04 5.870e-09
 61.79515    -66.6 1.748e+04 6.375e-09
 61.81521    -71.0 1.809e+04 6.420e-09
 61.83527    -75.9 1.797e+04 5.518e-09
 61.85050    -79.5 1.663e+04 4.614e-09
 61.86053    -77.2 1.796e+04 5.430e-09
 61.87539    -80.2 1.748e+04 5.023e-09
 61.89545    -82.4 1.690e+04 4.156e-09
 61.91551    -84.8 1.644e+04 2.930e-09
 61.92695    -88.0 1.584e+04 1.821e-09
 61.93698    -88.7 1.678e+04 2.584e-09
 61.94639    -92.6 1.542e+04 1.544e-09
 61.95642    -91.3 1.858e+04 5.069e-09
 61.97569    -93.7 1.720e+04 3.013e-09
 61.99575    -95.7 1.465e+04 1.748e-09
 62.01581    -96.5 1.258e+04 1.216e-09
 62.03225    -96.6 1.185e+04 1.037e-09
 62.04228    -96.2 1.350e+04 1.467e-09
 62.05593    -96.4 1.248e+04 1.096e-09
 62.07599    -96.3 1.209e+04 9.201e-10
 62.09605    -96.0 1.176e+04 7.944e-10
 62.11611    -95.7 1.152e+04 7.119e-10
 62.12814    -95.4 1.130e+04 6.592e-10
 62.13817    -95.3 1.140e+04 7.090e-10
 62.15623    -94.9 1.115e+04 6.697e-10
 62.16863    -94.4 1.096e+04 6.555e-10
 62.17866    -94.9 1.096e+04 5.828e-10
 62.19635    -94.7 1.107e+04 6.017e-10
 62.21401    -97.4 1.354e+04 7.197e-10
 62.22404    -96.3 1.334e+04 7.011e-10
 62.23648   -103.6 1.976e+04 1.331e-09
 62.25654   -109.0 2.005e+04 5.637e-09
 62.26692   -109.7 1.928e+04 1.172e-08
 62.27188   -110.3 1.955e+04 1.314e-08
 62.28151   -110.3 1.932e+04 2.499e-08
 62.28937   -110.0 1.923e+04 4.568e-08
 62.29438   -109.6 1.913e+04 5.077e-08
 62.30157   -107.8 1.957e+04 7.469e-08
 62.30980   -106.4 2.014e+04 9.833e-08
 62.31482   -106.2 2.080e+04 1.148e-07
 62.32163   -106.1 2.115e+04 1.252e-07
 62.33166   -106.4 2.117e+04 1.140e-07
 62.34170   -105.7 2.033e+04 6.381e-08
 62.35173   -104.1 1.941e+04 2.837e-08
 62.35775   -103.8 1.959e+04 1.254e-08
 62.36276   -104.1 1.979e+04 1.184e-08
 62.37179   -106.0 2.025e+04 5.932e-09
 62.38182   -110.0 1.941e+04 3.459e-09
 62.39571   -112.1 1.748e+04 2.874e-09
 62.40579   -113.4 1.697e+04 3.086e-09
 62.41030   -116.2 1.526e+04 2.301e-09
 62.42033   -120.0 1.274e+04 1.458e-09
 62.43708   -120.7 1.228e+04 1.420e-09
 62.45714   -120.6 1.228e+04 1.477e-09
 62.47720   -120.5 1.231e+04 1.493e-09
 62.49165   -120.3 1.235e+04 1.407e-09
 62.50168   -120.4 1.228e+04 1.333e-09
 62.51732   -120.6 1.212e+04 1.088e-09
 62.53738   -121.7 1.182e+04 8.899e-10
 62.55744   -122.7 1.142e+04 7.544e-10
 62.57750   -123.3 1.108e+04 6.801e-10
 62.59756   -123.3 1.067e+04 5.553e-10
 62.61762   -123.3 1.057e+04 5.282e-10
 62.63768   -123.1 1.052e+04 5.186e-10
 62.65197   -122.7 1.050e+04 5.163e-10
 62.66200   -122.6 1.035e+04 4.583e-10
 62.67341   -122.2 1.034e+04 4.586e-10
 62.69357   -121.4 1.028e+04 3.580e-10
 62.72815   -120.2 1.034e+04 3.806e-10
 62.76827   -118.5 1.033e+04 3.979e-10
 62.79826   -117.2 1.035e+04 3.917e-10
 62.81823   -116.4 1.035e+04 3.909e-10
 62.83829   -115.7 1.046e+04 3.945e-10
 62.85516   -115.1 1.070e+04 4.060e-10
 62.86519   -115.8 1.073e+04 3.613e-10
 62.87841   -115.7 1.102e+04 4.683e-10
 62.89365   -115.7 1.139e+04 6.521e-10
 62.90368   -115.6 1.108e+04 5.200e-10
 62.91853   -115.7 1.134e+04 7.847e-10
 62.93859   -115.7 1.182e+04 1.232e-09
 62.95106   -115.6 1.285e+04 1.953e-09
 62.96109   -116.6 1.345e+04 2.437e-09
 62.97871   -116.9 1.463e+04 3.457e-09
 62.99877   -118.3 1.595e+04 4.541e-09
 63.01883   -120.8 1.717e+04 5.621e-09
 63.03692   -123.7 1.790e+04 6.448e-09
 63.04695   -124.9 1.591e+04 5.735e-09
 63.05895   -127.1 1.601e+04 6.127e-09
 63.07901   -129.1 1.600e+04 6.198e-09
 63.09907   -130.5 1.560e+04 5.775e-09
 63.11913   -131.5 1.503e+04 4.457e-09
 63.13281   -132.5 1.436e+04 3.174e-09
 63.13896   -131.4 1.419e+04 3.172e-09
 63.14535   -131.8 1.431e+04 3.443e-09
 63.15925   -132.5 1.364e+04 2.437e-09
 63.17931   -133.3 1.299e+04 1.796e-09
 63.19938   -133.9 1.251e+04 1.452e-09
 63.21867   -134.2 1.233e+04 1.311e-09
 63.22870   -133.4 1.266e+04 1.472e-09
 63.23950   -133.4 1.246e+04 1.391e-09
 63.25956   -133.2 1.244e+04 1.346e-09
 63.27962   -133.2 1.251e+04 1.288e-09
 63.29968   -133.2 1.265e+04 1.239e-09
 63.31456   -133.3 1.277e+04 1.224e-09
 63.32460   -132.9 1.359e+04 1.886e-09
 63.33980   -133.1 1.384e+04 1.961e-09
 63.35986   -133.3 1.403e+04 2.054e-09
 63.37699   -133.5 1.418e+04 2.192e-09
 63.38702   -134.1 1.481e+04 3.327e-09
 63.39998   -134.0 1.491e+04 3.515e-09
 63.41046   -133.7 1.494e+04 3.575e-09
 63.42049   -133.7 1.527e+04 4.647e-09
 63.44010   -133.3 1.499e+04 4.328e-09
 63.46016   -132.7 1.466e+04 3.764e-09
 63.48022   -132.0 1.431e+04 3.115e-09
 63.49632   -131.4 1.393e+04 2.498e-09
 63.50635   -131.6 1.411e+04 2.892e-09
 63.52034   -131.1 1.389e+04 2.406e-09
 63.54040   -130.7 1.365e+04 2.001e-09
 63.56046   -130.2 1.337e+04 1.687e-09
 63.58052   -129.7 1.309e+04 1.455e-09
 63.59221   -129.2 1.284e+04 1.272e-09
 63.60224   -129.2 1.295e+04 1.759e-09
 63.61866   -128.6 1.275e+04 1.512e-09
 63.62869   -128.5 1.265e+04 1.602e-09
 63.64070   -127.8 1.246e+04 1.405e-09
 63.66076   -127.1 1.220e+04 1.204e-09
 63.67807   -126.3 1.188e+04 1.009e-09
 63.68810   -125.8 1.172e+04 1.156e-09
 63.70089   -124.9 1.144e+04 9.049e-10
 63.72095   -124.0 1.116e+04 6.989e-10
 63.74101   -123.1 1.092e+04 5.433e-10
 63.76107   -122.1 1.076e+04 4.389e-10
 63.77397   -121.4 1.068e+04 3.847e-10
 63.78400   -120.9 1.074e+04 3.384e-10
 63.81132   -120.2 1.074e+04 3.042e-10
 63.85153   -118.8 1.061e+04 2.630e-10
 63.89165   -116.9 1.043e+04 2.323e-10
 63.93178   -115.3 1.036e+04 2.184e-10
 63.95592   -113.8 1.037e+04 2.158e-10
 63.97598   -115.0 1.066e+04 2.352e-10
 64.01202   -114.7 1.097e+04 2.785e-10
 64.05214   -114.7 1.142e+04 4.545e-10
 64.09218   -114.6 1.181e+04 7.538e-10
 64.12756   -114.9 1.246e+04 1.282e-09
 64.14770   -115.8 1.214e+04 1.211e-09
 64.17250   -115.8 1.212e+04 1.215e-09
 64.21262   -115.8 1.196e+04 1.056e-09
 64.25274   -116.0 1.167e+04 8.261e-10
 64.29286   -116.2 1.135e+04 6.128e-10
 64.31943   -116.3 1.103e+04 4.526e-10
 64.33949   -115.7 1.058e+04 2.337e-10
 64.37310   -114.7 1.051e+04 2.034e-10
 64.41323   -113.3 1.048e+04 1.969e-10
 64.45335   -111.8 1.051e+04 2.006e-10
 64.49115   -110.3 1.069e+04 2.496e-10
 64.51121   -109.5 1.060e+04 1.355e-10
 64.53359   -108.0 1.077e+04 1.843e-10
 64.57371   -106.4 1.091e+04 2.669e-10
 64.59558   -104.7 1.108e+04 3.629e-10
 64.61564   -105.6 1.126e+04 4.498e-10
 64.65395   -103.7 1.146e+04 5.226e-10
 64.68294   -101.7 1.152e+04 5.411e-10
 64.70300   -100.9 1.128e+04 4.484e-10
 64.73419    -98.9 1.129e+04 4.563e-10
 64.77431    -96.5 1.124e+04 4.312e-10
 64.81443    -93.9 1.118e+04 3.770e-10
 64.85455    -91.3 1.120e+04 3.367e-10
 64.89468    -88.0 1.117e+04 2.970e-10
 64.93480    -86.8 1.258e+04 3.620e-10
 64.96049    -88.4 1.458e+04 7.816e-10
 64.97042    -87.6 1.447e+04 7.215e-10
 64.98475    -89.2 1.693e+04 1.448e-09
 65.00481    -91.4 1.926e+04 3.764e-09
 65.02487    -93.9 2.021e+04 1.067e-08
 65.03987    -94.9 2.034e+04 2.092e-08
 65.04985    -95.1 2.043e+04 3.284e-08
 65.05618    -95.0 2.011e+04 4.997e-08
 65.06120    -94.5 2.004e+04 4.742e-08
 65.06991    -93.8 2.005e+04 5.676e-08
 65.07863    -93.3 2.021e+04 5.931e-08
 65.08365    -92.8 1.973e+04 2.921e-08
 65.08997    -92.7 2.031e+04 2.194e-08
 65.09912    -93.6 2.106e+04 1.362e-08
 65.10413    -92.9 2.126e+04 1.425e-08
 65.11003    -95.5 2.185e+04 7.640e-09
 65.12006    -99.8 2.082e+04 3.598e-09
 65.13009   -103.7 1.789e+04 2.004e-09
 65.14210   -106.5 1.510e+04 1.395e-09
 65.15217   -107.2 1.480e+04 1.189e-09
 65.16530   -108.3 1.340e+04 9.627e-10
 65.18536   -108.6 1.234e+04 7.821e-10
 65.20542   -108.3 1.219e+04 7.825e-10
 65.22548   -108.1 1.216e+04 8.900e-10
 65.23804   -107.7 1.236e+04 1.040e-09
 65.24807   -107.9 1.235e+04 1.002e-09
 65.26560   -107.6 1.261e+04 1.159e-09
 65.28566   -107.6 1.288e+04 1.306e-09
 65.30572   -107.7 1.318e+04 1.423e-09
 65.32041   -108.0 1.334e+04 1.520e-09
 65.32856   -107.8 1.290e+04 1.339e-09
 65.33393   -108.1 1.306e+04 1.471e-09
 65.34584   -108.6 1.316e+04 1.606e-09
 65.36590   -109.0 1.316e+04 1.686e-09
 65.38596   -109.3 1.314e+04 1.707e-09
 65.40602   -109.4 1.305e+04 1.695e-09
 65.41979   -109.5 1.290e+04 1.628e-09
 65.42982   -109.5 1.291e+04 1.687e-09
 65.44614   -109.5 1.271e+04 1.518e-09
 65.46620   -109.5 1.247e+04 1.321e-09
 65.48626   -109.3 1.219e+04 1.116e-09
 65.50565   -109.0 1.192e+04 9.185e-10
 65.51568   -109.4 1.180e+04 8.256e-10
 65.52638   -109.1 1.151e+04 6.641e-10
 65.54644   -108.7 1.129e+04 5.351e-10
 65.56208   -108.4 1.120e+04 4.369e-10
 65.57211   -107.9 1.102e+04 4.333e-10
 65.58656   -107.7 1.105e+04 3.993e-10
 65.60164   -107.4 1.096e+04 3.873e-10
 65.62180   -107.8 1.061e+04 3.116e-10
 65.65697   -106.9 1.039e+04 2.768e-10
 65.69709   -106.0 1.024e+04 2.362e-10
 65.73721   -105.3 1.009e+04 1.880e-10
 65.77347   -104.8 9.903e+03 1.447e-10
 65.79353   -104.8 9.863e+03 1.211e-10
 65.81745   -104.3 9.731e+03 1.085e-10
 65.85758   -103.9 9.671e+03 1.071e-10
 65.89770   -103.6 9.629e+03 1.276e-10
 65.93782   -103.3 9.714e+03 1.776e-10
 65.96525   -103.0 9.885e+03 2.476e-10
 65.98531   -102.2 9.952e+03 2.562e-10
 66.01806   -101.8 1.008e+04 3.292e-10
 66.04562   -101.6 1.019e+04 3.900e-10
 66.06568   -103.2 1.040e+04 3.962e-10
 66.09830   -103.0 1.038e+04 4.274e-10
 66.13698   -102.8 1.043e+04 4.645e-10
 66.15704   -102.6 1.102e+04 6.803e-10
 66.17854   -102.7 1.131e+04 8.383e-10
 66.21866   -103.7 1.215e+04 1.224e-09
 66.24280   -104.0 1.238e+04 1.407e-09
 66.25273   -104.1 1.265e+04 1.676e-09
 66.26862   -104.8 1.331e+04 2.182e-09
 66.28710   -105.3 1.398e+04 2.799e-09
 66.29713   -106.3 1.544e+04 4.856e-09
 66.30874   -106.4 1.616e+04 6.330e-09
 66.32857   -106.8 1.645e+04 6.967e-09
 66.33860   -106.9 1.658e+04 7.023e-09
 66.34886   -107.6 1.657e+04 7.021e-09
 66.36892   -108.2 1.614e+04 5.987e-09
 66.38898   -109.2 1.560e+04 4.705e-09
 66.40904   -110.7 1.514e+04 3.880e-09
 66.42446   -112.1 1.479e+04 3.427e-09
 66.43449   -112.5 1.529e+04 4.412e-09
 66.44916   -113.3 1.505e+04 4.203e-09
 66.46922   -113.9 1.485e+04 3.970e-09
 66.48928   -114.5 1.473e+04 3.728e-09
 66.50934   -115.6 1.475e+04 3.596e-09
 66.52035   -117.1 1.485e+04 3.580e-09
 66.52975   -117.6 1.585e+04 5.151e-09
 66.53880   -118.3 1.603e+04 5.454e-09
 66.54946   -120.2 1.645e+04 6.167e-09
 66.56952   -121.9 1.661e+04 6.895e-09
 66.58958   -123.2 1.659e+04 7.105e-09
 66.60621   -123.8 1.611e+04 6.907e-09
 66.61624   -123.5 1.666e+04 9.303e-09
 66.62971   -123.6 1.565e+04 6.484e-09
 66.64977   -123.5 1.446e+04 3.793e-09
 66.66983   -123.6 1.320e+04 2.012e-09
 66.68989   -125.2 1.224e+04 1.185e-09
 66.70211   -127.1 1.169e+04 9.005e-10
 66.71214   -127.9 1.175e+04 9.589e-10
 66.73001   -129.0 1.163e+04 9.195e-10
 66.75007   -129.9 1.166e+04 9.697e-10
 66.77013   -130.6 1.210e+04 1.312e-09
 66.78047   -130.9 1.255e+04 1.772e-09
 66.78828   -130.9 1.218e+04 1.469e-09
 66.79800   -131.2 1.237e+04 1.637e-09
 66.81025   -131.4 1.243e+04 1.740e-09
 66.83031   -131.5 1.242e+04 1.753e-09
 66.85037   -131.5 1.217e+04 1.646e-09
 66.87043   -131.4 1.184e+04 1.390e-09
 66.88386   -131.5 1.148e+04 1.122e-09
 66.89389   -131.6 1.142e+04 1.030e-09
 66.91055   -131.8 1.110e+04 8.296e-10
 66.93061   -132.0 1.081e+04 6.866e-10
 66.95067   -132.1 1.057e+04 5.897e-10
 66.96972   -132.0 1.037e+04 5.258e-10
 66.97975   -132.2 1.042e+04 5.408e-10
 66.99079   -132.0 1.034e+04 5.112e-10
 67.01085   -131.8 1.031e+04 4.930e-10
 67.02215   -131.6 1.032e+04 4.839e-10
 67.03218   -131.5 1.023e+04 4.377e-10
 67.05097   -131.4 1.024e+04 4.369e-10
 67.06562   -131.4 1.031e+04 4.367e-10
 67.07565   -131.8 1.035e+04 5.543e-10
 67.09110   -131.7 1.037e+04 5.652e-10
 67.11116   -131.6 1.039e+04 5.827e-10
 67.13122   -131.6 1.044e+04 6.052e-10
 67.15128   -131.6 1.049e+04 6.242e-10
 67.16151   -131.5 1.052e+04 6.303e-10
 67.17154   -131.5 1.053e+04 6.507e-10
 67.19140   -131.5 1.048e+04 6.185e-10
 67.21146   -131.4 1.041e+04 5.636e-10
 67.23152   -131.1 1.031e+04 4.997e-10
 67.24747   -130.6 1.022e+04 4.322e-10
 67.26763   -131.0 1.039e+04 3.719e-10
 67.30192   -130.8 1.033e+04 3.163e-10
 67.34205   -130.5 1.019e+04 2.964e-10
 67.38217   -129.9 1.013e+04 2.947e-10
 67.41929   -129.2 1.001e+04 3.288e-10
 67.43935   -129.2 1.022e+04 3.552e-10
 67.45228   -128.2 1.024e+04 3.860e-10
 67.47224   -128.3 1.029e+04 4.294e-10
 67.49230   -128.4 1.044e+04 5.489e-10
 67.50549   -128.5 1.074e+04 7.038e-10
 67.51552   -127.9 1.054e+04 5.841e-10
 67.52502   -127.9 1.088e+04 7.666e-10
 67.53505   -127.9 1.098e+04 7.774e-10
 67.55248   -127.9 1.133e+04 9.359e-10
 67.57254   -127.9 1.167e+04 1.093e-09
 67.59261   -128.0 1.200e+04 1.243e-09
 67.61088   -128.2 1.230e+04 1.388e-09
 67.62091   -129.3 1.245e+04 1.222e-09
 67.63273   -130.0 1.272e+04 1.355e-09
 67.65279   -130.7 1.294e+04 1.521e-09
 67.67285   -131.3 1.308e+04 1.707e-09
 67.69291   -131.9 1.310e+04 1.874e-09
 67.70677   -132.4 1.309e+04 1.958e-09
 67.71680   -132.7 1.280e+04 1.751e-09
 67.73303   -132.9 1.266e+04 1.615e-09
 67.74717   -133.1 1.252e+04 1.475e-09
 67.75720   -132.7 1.258e+04 1.535e-09
 67.77315   -133.1 1.255e+04 1.490e-09
 67.79264   -133.9 1.258e+04 1.489e-09
 67.80267   -133.5 1.189e+04 1.034e-09
 67.81327   -134.9 1.220e+04 1.044e-09
 67.83333   -137.1 1.319e+04 1.358e-09
 67.85339   -139.0 1.390e+04 2.347e-09
 67.87345   -140.0 1.451e+04 3.941e-09
 67.88853   -140.4 1.514e+04 5.641e-09
 67.89856   -140.7 1.566e+04 6.206e-09
 67.91357   -141.3 1.672e+04 9.231e-09
 67.93363   -142.8 1.776e+04 1.077e-08
 67.95369   -145.7 1.818e+04 1.083e-08
 67.97375   -149.6 1.851e+04 8.111e-09
 67.98442   -155.0 1.792e+04 4.405e-09
 67.98939   -152.0 2.066e+04 1.027e-08
 67.99873   -153.6 1.994e+04 8.070e-09
 68.00876   -157.2 1.879e+04 5.009e-09
 68.01879   -160.3 1.740e+04 3.503e-09
 68.03389   -162.8 1.617e+04 2.818e-09
 68.05399   -167.4 1.406e+04 1.938e-09
 68.07028   -171.0 1.200e+04 1.393e-09
 68.08031   -171.4 1.212e+04 1.541e-09
 68.09412   -172.5 1.143e+04 1.170e-09
 68.11418   -172.9 1.120e+04 9.135e-10
 68.13424   -173.2 1.099e+04 7.430e-10
 68.15430   -173.7 1.076e+04 6.417e-10
 68.16618   -174.1 1.059e+04 6.052e-10
 68.17621   -174.4 1.065e+04 6.221e-10
 68.19442   -174.5 1.063e+04 6.207e-10
 68.21448   -174.4 1.066e+04 6.357e-10
 68.23051   -174.3 1.075e+04 6.648e-10
 68.24054   -174.0 1.069e+04 6.296e-10
 68.25204   -173.8 1.074e+04 6.445e-10
 68.26207   -173.9 1.091e+04 6.567e-10
 68.27466   -173.8 1.091e+04 6.586e-10
 68.29472   -173.6 1.091e+04 6.310e-10
 68.31478   -173.3 1.093e+04 5.600e-10
 68.33484   -173.1 1.092e+04 4.856e-10
 68.34793   -172.7 1.088e+04 4.254e-10
 68.35796   -174.0 1.119e+04 4.929e-10
 68.37496   -173.8 1.111e+04 4.547e-10
 68.39502   -173.3 1.102e+04 4.240e-10
 68.41508   -172.6 1.093e+04 4.018e-10
 68.43379   -172.0 1.086e+04 3.835e-10
 68.44382   -172.2 1.090e+04 4.222e-10
 68.45520   -171.5 1.080e+04 3.857e-10
 68.47218   -171.1 1.075e+04 3.677e-10
 68.48231   -171.3 1.066e+04 3.205e-10
 68.50555   -170.3 1.045e+04 2.766e-10
 68.52988   -169.0 1.022e+04 2.296e-10
 68.54994   -169.4 1.036e+04 2.838e-10
 68.58579   -168.0 1.015e+04 2.383e-10
 68.62591   -166.2 9.944e+03 2.025e-10
 68.66603   -164.1 9.755e+03 1.768e-10
 68.70161   -162.0 9.589e+03 1.595e-10
 68.72167   -162.5 9.686e+03 1.901e-10
 68.74627   -160.2 9.490e+03 1.671e-10
 68.78640   -157.9 9.340e+03 1.511e-10
 68.82652   -155.5 9.259e+03 1.422e-10
 68.86664   -153.1 9.245e+03 1.393e-10
 68.89339   -150.7 9.251e+03 1.385e-10
 68.91345   -151.3 9.238e+03 1.348e-10
 68.94569   -149.0 9.235e+03 1.363e-10
 68.96576   -147.9 9.088e+03 1.142e-10
 68.98700   -145.6 9.131e+03 1.187e-10
 69.02712   -143.5 9.190e+03 1.361e-10
 69.06512   -141.3 9.253e+03 1.615e-10
 69.08518   -142.0 9.238e+03 1.528e-10
 69.10736   -139.9 9.295e+03 1.834e-10
 69.14748   -137.6 9.369e+03 2.218e-10
 69.18760   -135.2 9.486e+03 2.651e-10
 69.22772   -132.8 9.631e+03 3.122e-10
 69.25690   -130.6 9.773e+03 3.591e-10
 69.27696   -132.5 1.006e+04 3.544e-10
 69.30797   -131.5 1.069e+04 4.712e-10
 69.34809   -130.4 1.139e+04 6.950e-10
 69.38821   -129.8 1.216e+04 1.112e-09
 69.41820   -128.7 1.244e+04 1.392e-09
 69.43816   -128.4 1.246e+04 1.747e-09
 69.44849   -128.5 1.258e+04 2.457e-09
 69.44920   -130.3 1.353e+04 2.975e-09
 69.45894   -129.9 1.270e+04 2.380e-09
 69.47828   -132.0 1.515e+04 3.477e-09
 69.49834   -135.9 1.838e+04 6.196e-09
 69.51840   -140.3 2.052e+04 1.146e-08
 69.53435   -144.6 2.144e+04 1.790e-08
 69.54438   -147.6 2.032e+04 1.558e-08
 69.55853   -150.9 2.018e+04 1.629e-08
 69.57859   -153.8 1.924e+04 1.438e-08
 69.59865   -156.8 1.784e+04 9.410e-09
 69.61871   -160.0 1.610e+04 5.690e-09
 69.63024   -162.6 1.440e+04 3.659e-09
 69.64028   -163.3 1.304e+04 2.352e-09
 69.65883   -164.1 1.233e+04 1.886e-09
 69.67889   -164.2 1.197e+04 1.605e-09
 69.69058   -164.2 1.159e+04 1.349e-09
 69.70061   -164.3 1.139e+04 1.330e-09
 69.71611   -163.6 1.085e+04 1.035e-09
 69.72614   -163.2 1.059e+04 8.499e-10
 69.73907   -162.5 1.015e+04 6.589e-10
 69.75913   -161.7 9.773e+03 5.100e-10
 69.77919   -160.8 9.521e+03 4.122e-10
 69.79925   -160.2 9.408e+03 3.653e-10
 69.81200   -159.7 9.354e+03 3.358e-10
 69.82203   -159.3 9.340e+03 3.293e-10
 69.83937   -158.8 9.308e+03 3.168e-10
 69.85943   -157.9 9.286e+03 3.036e-10
 69.87949   -157.3 9.288e+03 3.020e-10
 69.89786   -156.3 9.324e+03 3.015e-10
 69.90789   -156.1 9.296e+03 2.983e-10
 69.91961   -155.6 9.411e+03 3.113e-10
 69.93225   -154.5 9.526e+03 3.274e-10
 69.95241   -153.8 9.154e+03 2.581e-10
 69.98392   -151.8 9.270e+03 2.713e-10
 70.00398   -151.2 9.272e+03 2.734e-10
 70.03014   -149.2 9.424e+03 2.886e-10
 70.06013   -148.1 9.794e+03 3.529e-10
 70.07962   -147.5 1.007e+04 3.996e-10
 70.08965   -147.4 1.012e+04 4.037e-10
 70.10016   -146.8 1.051e+04 5.044e-10
 70.12022   -146.5 1.098e+04 6.782e-10
 70.14028   -146.1 1.151e+04 9.571e-10
 70.16034   -145.7 1.209e+04 1.351e-09
 70.17392   -145.3 1.271e+04 1.906e-09
 70.17907   -144.3 1.191e+04 1.063e-09
 70.18554   -144.3 1.195e+04 1.168e-09
 70.20046   -143.9 1.265e+04 1.762e-09
 70.22052   -143.4 1.332e+04 2.492e-09
 70.24058   -142.9 1.388e+04 3.187e-09
 70.26064   -142.6 1.428e+04 3.563e-09
 70.27140   -142.4 1.443e+04 3.660e-09
 70.28143   -142.3 1.414e+04 3.362e-09
 70.30076   -142.1 1.405e+04 3.313e-09
 70.32082   -141.8 1.389e+04 2.950e-09
 70.34088   -141.5 1.357e+04 2.455e-09
 70.35726   -141.3 1.319e+04 1.993e-09
 70.36729   -141.1 1.289e+04 1.793e-09
 70.38100   -140.9 1.247e+04 1.473e-09
 70.40106   -140.6 1.208e+04 1.256e-09
 70.41560   -140.1 1.177e+04 1.114e-09
 70.42563   -138.9 1.230e+04 1.341e-09
 70.44118   -138.4 1.204e+04 1.217e-09
 70.45316   -137.8 1.184e+04 1.142e-09
 70.46319   -137.6 1.160e+04 1.022e-09
 70.48130   -136.9 1.142e+04 9.541e-10
 70.50136   -136.0 1.127e+04 8.904e-10
 70.52143   -135.1 1.113e+04 8.355e-10
 70.53902   -134.2 1.101e+04 7.829e-10
 70.54905   -134.0 1.078e+04 6.746e-10
 70.56155   -132.9 1.066e+04 6.163e-10
 70.58161   -131.9 1.059e+04 5.684e-10
 70.60167   -130.9 1.053e+04 5.248e-10
 70.62173   -130.0 1.049e+04 4.928e-10
 70.63491   -129.0 1.047e+04 4.727e-10
 70.64494   -128.7 1.029e+04 3.914e-10
 70.65727   -127.9 1.029e+04 3.891e-10
 70.66730   -127.2 1.056e+04 4.786e-10
 70.68191   -126.4 1.057e+04 4.703e-10
 70.70197   -125.7 1.061e+04 4.706e-10
 70.72077   -125.1 1.069e+04 5.070e-10
 70.73080   -124.9 1.059e+04 4.586e-10
 70.75222   -124.2 1.079e+04 5.369e-10
 70.79244   -122.8 1.126e+04 8.053e-10
 70.83256   -121.7 1.174e+04 1.185e-09
 70.87268   -121.0 1.211e+04 1.471e-09
 70.89914   -120.5 1.221e+04 1.556e-09
 70.90913   -120.1 1.236e+04 1.470e-09
 70.92279   -119.5 1.250e+04 1.546e-09
 70.94279   -119.8 1.270e+04 1.922e-09
 70.96275   -119.7 1.271e+04 1.970e-09
 70.98281   -119.6 1.264e+04 1.851e-09
 70.99842   -119.8 1.252e+04 1.595e-09
 71.00845   -118.8 1.304e+04 2.093e-09
 71.02294   -119.5 1.283e+04 1.690e-09
 71.04300   -120.4 1.241e+04 1.339e-09
 71.07318   -121.1 1.211e+04 1.164e-09
 71.09451   -121.4 1.141e+04 8.361e-10
 71.11457   -121.4 1.186e+04 9.398e-10
 71.15352   -121.4 1.104e+04 6.219e-10
 71.19364   -120.7 1.049e+04 4.260e-10
 71.23377   -119.3 1.025e+04 3.154e-10
 71.26623   -117.8 1.024e+04 2.766e-10
 71.28629   -117.9 1.023e+04 2.639e-10
 71.31401   -116.6 1.025e+04 2.577e-10
 71.35413   -115.7 1.059e+04 2.943e-10
 71.38248   -115.1 1.131e+04 5.337e-10
 71.40255   -114.8 1.090e+04 4.495e-10
 71.43437   -114.1 1.130e+04 6.652e-10
 71.45802   -113.6 1.165e+04 9.043e-10
 71.47808   -112.9 1.131e+04 6.787e-10
 71.51461   -112.5 1.157e+04 8.344e-10
 71.55473   -112.3 1.178e+04 9.769e-10
 71.59485   -112.2 1.189e+04 1.066e-09
 71.62974   -112.6 1.186e+04 1.090e-09
 71.64980   -112.4 1.243e+04 1.335e-09
 71.67509   -113.3 1.255e+04 1.454e-09
 71.71522   -114.1 1.235e+04 1.356e-09
 71.75534   -114.3 1.177e+04 1.029e-09
 71.79546   -114.4 1.098e+04 6.929e-10
 71.82153   -114.2 1.043e+04 5.020e-10
 71.84159   -114.9 1.094e+04 6.788e-10
 71.86583   -114.7 1.059e+04 5.462e-10
 71.88589   -113.7 1.036e+04 4.628e-10
 71.91582   -113.2 1.010e+04 3.804e-10
 71.95594   -112.4 1.002e+04 3.597e-10
 71.99325   -111.7 9.941e+03 3.469e-10
 72.01331   -112.3 1.005e+04 3.567e-10
 72.03618   -111.4 1.005e+04 3.472e-10
 72.07630   -110.7 1.011e+04 3.372e-10
 72.11642   -110.9 1.048e+04 3.367e-10
 72.15654   -112.1 1.149e+04 4.023e-10
 72.18504   -114.0 1.225e+04 5.882e-10
 72.19497   -117.3 1.337e+04 1.496e-09
 72.20650   -117.8 1.326e+04 1.816e-09
 72.22656   -118.1 1.320e+04 2.122e-09
 72.24662   -118.5 1.330e+04 2.396e-09
 72.26668   -119.2 1.360e+04 2.643e-09
 72.28074   -120.2 1.397e+04 2.936e-09
 72.29077   -121.5 1.411e+04 3.010e-09
 72.30680   -122.5 1.419e+04 2.962e-09
 72.32686   -123.5 1.407e+04 2.680e-09
 72.34692   -124.5 1.369e+04 2.181e-09
 72.35901   -125.8 1.304e+04 1.585e-09
 72.36866   -128.0 1.201e+04 1.078e-09
 72.37663   -129.4 1.118e+04 7.748e-10
 72.38704   -130.7 1.074e+04 5.731e-10
 72.40710   -132.1 1.046e+04 4.604e-10
 72.42716   -133.4 1.039e+04 4.245e-10
 72.44722   -134.7 1.038e+04 4.194e-10
 72.46249   -136.3 1.054e+04 4.361e-10
 72.47252   -136.6 1.032e+04 3.681e-10
 72.48735   -138.1 1.054e+04 4.391e-10
 72.50741   -139.5 1.072e+04 5.354e-10
 72.52747   -140.8 1.088e+04 6.199e-10
 72.54753   -142.1 1.099e+04 6.740e-10
 72.55838   -143.3 1.104e+04 6.939e-10
 72.56841   -143.4 1.105e+04 7.003e-10
 72.58765   -144.6 1.113e+04 7.228e-10
 72.60068   -145.6 1.116e+04 7.279e-10
 72.61071   -146.1 1.102e+04 6.474e-10
 72.62777   -147.1 1.103e+04 6.019e-10
 72.64425   -148.0 1.100e+04 5.162e-10
 72.65428   -148.3 1.123e+04 6.733e-10
 72.66789   -149.2 1.111e+04 5.557e-10
 72.68795   -149.9 1.095e+04 4.286e-10
 72.70801   -150.5 1.079e+04 3.382e-10
 72.72807   -150.9 1.068e+04 2.970e-10
 72.74024   -151.3 1.058e+04 2.559e-10
 72.76039   -151.6 1.072e+04 3.083e-10
 72.79848   -151.9 1.052e+04 2.480e-10
 72.83252   -151.4 1.036e+04 2.228e-10
 72.85258   -150.8 1.020e+04 1.958e-10
 72.87872   -150.0 1.019e+04 1.970e-10
 72.91206   -149.3 1.049e+04 2.761e-10
 72.93212   -149.6 1.035e+04 2.484e-10
 72.95896   -149.0 1.070e+04 3.870e-10
 72.99908   -148.3 1.105e+04 5.736e-10
 73.02907   -147.9 1.121e+04 6.968e-10
 73.04904   -147.9 1.126e+04 7.551e-10
 73.06910   -147.7 1.129e+04 8.188e-10
 73.08403   -147.5 1.127e+04 8.240e-10
 73.09406   -147.1 1.106e+04 7.610e-10
 73.10365   -146.6 1.098e+04 7.623e-10
 73.11368   -146.8 1.080e+04 6.833e-10
 73.12928   -146.3 1.064e+04 6.654e-10
 73.14934   -145.6 1.049e+04 6.254e-10
 73.16940   -144.9 1.035e+04 5.710e-10
 73.18946   -144.0 1.021e+04 5.067e-10
 73.20952   -143.2 1.006e+04 4.379e-10
 73.23971   -142.7 1.004e+04 4.019e-10
 73.27557   -141.6 9.875e+03 3.479e-10
 73.29563   -141.5 9.850e+03 3.518e-10
 73.31587   -140.2 9.671e+03 3.053e-10
 73.33593   -139.1 9.650e+03 3.188e-10
 73.36017   -137.8 9.543e+03 2.899e-10
 73.40029   -136.7 9.538e+03 2.834e-10
 73.44041   -136.1 9.605e+03 2.956e-10
 73.46735   -135.9 1.002e+04 4.126e-10
 73.48741   -136.2 9.935e+03 3.947e-10
 73.52065   -136.1 1.022e+04 5.465e-10
 73.55064   -136.2 1.045e+04 6.952e-10
 73.56305   -136.6 1.051e+04 7.452e-10
 73.56985   -136.5 1.033e+04 6.512e-10
 73.57741   -135.6 1.045e+04 6.827e-10
 73.59067   -136.0 1.047e+04 7.279e-10
 73.61073   -136.6 1.047e+04 7.303e-10
 73.63079   -137.2 1.045e+04 7.056e-10
 73.64891   -138.4 1.046e+04 6.626e-10
 73.65894   -139.3 1.064e+04 7.091e-10
 73.67091   -141.1 1.086e+04 7.467e-10
 73.69097   -143.2 1.113e+04 8.379e-10
 73.71103   -145.1 1.138e+04 9.973e-10
 73.73109   -146.6 1.157e+04 1.198e-09
 73.74481   -147.8 1.168e+04 1.365e-09
 73.75484   -148.6 1.190e+04 1.543e-09
 73.77121   -149.6 1.181e+04 1.548e-09
 73.79127   -150.2 1.150e+04 1.409e-09
 73.80905   -150.4 1.110e+04 1.189e-09
 73.81908   -150.5 1.097e+04 1.160e-09
 73.83067   -150.6 1.052e+04 9.066e-10
 73.84070   -151.0 1.029e+04 7.796e-10
 73.85145   -150.8 9.758e+03 5.501e-10
 73.88164   -150.5 9.183e+03 3.593e-10
 73.92186   -149.2 8.564e+03 2.168e-10
 73.96198   -146.9 7.999e+03 1.260e-10
 74.00210   -145.0 7.903e+03 9.452e-11
 74.02265   -142.9 7.858e+03 7.938e-11
 74.04271   -142.7 7.813e+03 6.489e-11
 74.08234   -140.5 7.814e+03 6.200e-11
 74.12246   -138.2 7.818e+03 6.152e-11
 74.16259   -136.0 7.874e+03 6.184e-11
 74.19437   -134.0 8.090e+03 7.226e-11
 74.21443   -133.9 8.105e+03 7.207e-11
 74.24283   -132.1 8.305e+03 1.002e-10
 74.28256   -130.1 8.521e+03 1.409e-10
 74.30262   -129.8 8.504e+03 1.388e-10
 74.32307   -127.8 8.720e+03 1.915e-10
 74.36319   -125.9 8.909e+03 2.402e-10
 74.38616   -124.0 9.026e+03 2.690e-10
 74.40622   -123.9 8.983e+03 2.618e-10
 74.44343   -122.0 9.003e+03 2.662e-10
 74.48355   -120.1 8.997e+03 2.643e-10
 74.52367   -118.0 8.952e+03 2.418e-10
 74.55788   -115.9 8.896e+03 2.095e-10
 74.57794   -115.9 8.913e+03 2.057e-10
 74.60391   -113.8 8.875e+03 1.824e-10
 74.64403   -111.8 8.852e+03 1.631e-10
 74.68416   -109.8 8.850e+03 1.513e-10
 74.72428   -107.7 8.855e+03 1.478e-10
 74.74967   -105.7 8.907e+03 1.471e-10
 74.76973   -105.7 8.825e+03 1.362e-10
 74.78597   -103.7 8.904e+03 1.386e-10
 74.80603   -103.4 8.768e+03 1.120e-10
 74.84464   -101.5 8.905e+03 1.230e-10
 74.88476    -99.7 9.001e+03 1.424e-10
 74.92139    -97.7 9.074e+03 1.610e-10
 74.94145    -97.4 8.970e+03 1.308e-10
 74.96500    -95.4 9.007e+03 1.385e-10
 75.00512    -93.3 9.012e+03 1.402e-10
 75.04524    -91.1 8.979e+03 1.369e-10
 75.08536    -88.7 8.924e+03 1.204e-10
 75.11318    -86.3 8.893e+03 1.010e-10
 75.13324    -86.0 8.893e+03 9.766e-11
 75.16561    -83.5 8.889e+03 8.328e-11
 75.20573    -81.1 8.904e+03 6.963e-11
 75.24585    -78.7 8.924e+03 5.698e-11
 75.26931    -76.2 8.944e+03 4.710e-11
 75.28831    -75.7 8.880e+03 4.861e-11
 75.30496    -75.4 8.933e+03 5.511e-11
 75.32609    -72.9 8.957e+03 4.819e-11
 75.36621    -70.4 8.986e+03 4.317e-11
 75.40633    -68.0 9.038e+03 4.008e-11
 75.44645    -65.6 9.080e+03 3.898e-11
 75.47669    -63.6 9.210e+03 3.833e-11
 75.49675    -63.7 9.420e+03 5.074e-11
 75.52669    -61.9 9.596e+03 6.140e-11
 75.56681    -59.9 9.541e+03 8.641e-11
 75.60693    -57.6 9.566e+03 1.127e-10
 75.64706    -55.1 9.637e+03 1.275e-10
 75.66847    -52.8 9.671e+03 1.283e-10
 75.68853    -53.2 9.858e+03 1.812e-10
 75.72730    -51.1 9.859e+03 1.509e-10
 75.75266    -49.2 9.853e+03 1.254e-10
 75.77272    -48.4 9.771e+03 1.234e-10
 75.80754    -46.5 9.751e+03 1.026e-10
 75.84020    -44.6 9.675e+03 9.420e-11
 75.86026    -45.0 9.707e+03 9.832e-11
 75.88778    -42.8 9.621e+03 9.281e-11
 75.92790    -40.3 9.550e+03 8.781e-11
 75.96802    -37.8 9.578e+03 7.992e-11
 76.00814    -35.4 9.692e+03 7.215e-11
 76.03198    -33.2 9.752e+03 6.943e-11
 76.05204    -33.6 9.764e+03 6.889e-11
 76.08838    -31.2 9.820e+03 6.926e-11
 76.12851    -28.8 9.865e+03 6.898e-11
 76.16863    -26.5 9.937e+03 6.374e-11
 76.20371    -24.5 9.935e+03 6.279e-11
 76.22377    -24.9 1.007e+04 7.976e-11
 76.23600    -23.1 1.005e+04 9.365e-11
 76.25606    -22.7 1.009e+04 8.749e-11
 76.28899    -21.2 1.024e+04 1.129e-10
 76.32911    -20.0 1.043e+04 1.758e-10
 76.36923    -18.9 1.070e+04 3.564e-10
 76.39549    -17.4 1.137e+04 7.698e-10
 76.41555    -17.7 1.179e+04 9.407e-10
 76.44947    -16.8 1.262e+04 1.668e-09
 76.48959    -16.0 1.289e+04 2.217e-09
 76.52971    -14.3 1.232e+04 1.544e-09
 76.56722    -13.8 1.135e+04 6.840e-10
 76.58728    -15.0 1.250e+04 8.029e-10
 76.60996    -17.5 1.179e+04 4.217e-10
 76.65008    -17.7 1.155e+04 4.431e-10
 76.69020    -16.2 1.130e+04 5.293e-10
 76.71935    -14.0 1.141e+04 6.126e-10
 76.73941    -15.1 1.126e+04 4.664e-10
 76.75900    -12.9 1.146e+04 5.927e-10
 76.77906    -15.6 1.196e+04 8.315e-10
 76.81056    -13.6 1.239e+04 1.065e-09
 76.85068    -11.7 1.277e+04 1.288e-09
 76.88067    -11.2 1.338e+04 1.582e-09
 76.90064    -11.0 1.398e+04 1.969e-09
 76.92070    -11.0 1.445e+04 2.627e-09
 76.94056    -11.0 1.499e+04 3.541e-09
 76.95059    -12.3 1.471e+04 3.604e-09
 76.96082    -11.3 1.481e+04 4.638e-09
 76.98088     -9.0 1.399e+04 2.667e-09
 77.00094     -7.9 1.450e+04 2.644e-09
 77.02100     -7.3 1.501e+04 2.694e-09
 77.03645     -7.5 1.596e+04 2.894e-09
 77.04648    -10.7 1.468e+04 1.646e-09
 77.06112    -12.1 1.540e+04 2.077e-09
 77.08118    -13.8 1.568e+04 2.736e-09
 77.10124    -15.6 1.595e+04 3.754e-09
 77.11624    -17.3 1.595e+04 4.584e-09
 77.12622    -17.4 1.622e+04 4.871e-09
 77.13225    -18.8 1.691e+04 6.380e-09
 77.13726    -19.4 1.640e+04 6.152e-09
 77.14628    -19.4 1.646e+04 6.973e-09
 77.15631    -19.8 1.679e+04 8.510e-09
 77.16634    -19.6 1.692e+04 9.789e-09
 77.17518    -19.8 1.727e+04 1.135e-08
 77.18020    -19.5 1.655e+04 9.031e-09
 77.18640    -19.4 1.673e+04 9.627e-09
 77.19643    -19.2 1.693e+04 1.011e-08
 77.20646    -19.0 1.710e+04 1.052e-08
 77.21243    -18.7 1.717e+04 1.063e-08
 77.21745    -18.4 1.702e+04 8.876e-09
 77.22313    -18.3 1.708e+04 8.868e-09
 77.22814    -18.4 1.631e+04 6.051e-09
 77.23655    -18.5 1.621e+04 5.815e-09
 77.24658    -18.7 1.606e+04 5.699e-09
 77.26167    -18.9 1.561e+04 4.962e-09
 77.28178    -19.2 1.559e+04 5.046e-09
 77.30184    -19.6 1.531e+04 5.059e-09
 77.31410    -19.6 1.497e+04 5.193e-09
 77.32413    -20.3 1.396e+04 3.369e-09
 77.34196    -19.8 1.406e+04 3.883e-09
 77.36203    -19.1 1.432e+04 4.412e-09
 77.38209    -18.3 1.454e+04 4.757e-09
 77.39996    -17.5 1.456e+04 4.744e-09
 77.40999    -17.6 1.402e+04 3.543e-09
 77.42221    -17.0 1.405e+04 3.475e-09
 77.44227    -16.6 1.401e+04 3.279e-09
 77.45420    -16.2 1.376e+04 2.950e-09
 77.46423    -15.7 1.380e+04 3.156e-09
 77.48239    -15.1 1.354e+04 2.767e-09
 77.49586    -14.6 1.341e+04 2.446e-09
 77.50589    -15.3 1.331e+04 2.400e-09
 77.52251    -14.4 1.325e+04 2.125e-09
 77.54257    -13.6 1.319e+04 1.922e-09
 77.56263    -12.9 1.310e+04 1.794e-09
 77.58172    -11.6 1.296e+04 1.728e-09
 77.59175    -11.9 1.304e+04 1.741e-09
 77.60275    -10.5 1.287e+04 1.708e-09
 77.62281     -8.9 1.276e+04 1.712e-09
 77.64287     -6.8 1.274e+04 1.737e-09
 77.66293     -4.7 1.298e+04 1.895e-09
 77.67761     -3.1 1.377e+04 2.326e-09
 77.68764     -4.5 1.361e+04 2.271e-09
 77.69588     -2.5 1.571e+04 3.276e-09
 77.70591     -3.3 1.328e+04 2.351e-09
 77.71805     -2.5 1.414e+04 2.827e-09
 77.72546     -2.1 1.461e+04 3.190e-09
 77.73048     -3.7 1.471e+04 3.425e-09
 77.73806     -4.6 1.582e+04 4.397e-09
 77.74809     -5.0 1.661e+04 5.532e-09
 77.75812     -5.8 1.748e+04 7.075e-09
 77.76815     -6.4 1.789e+04 8.334e-09
 77.77341     -6.8 1.803e+04 9.508e-09
 77.77842     -8.0 1.763e+04 9.444e-09
 77.78821     -8.7 1.769e+04 1.016e-08
 77.79824     -9.9 1.790e+04 1.046e-08
 77.80827    -11.7 1.806e+04 1.018e-08
 77.81634    -14.7 1.850e+04 1.012e-08
 77.81967    -15.9 1.795e+04 8.431e-09
 77.82163    -16.6 1.782e+04 8.599e-09
 77.82833    -18.9 1.768e+04 8.018e-09
 77.83836    -21.8 1.743e+04 7.137e-09
 77.84839    -24.6 1.682e+04 6.222e-09
 77.85842    -27.5 1.628e+04 5.249e-09
 77.86428    -30.3 1.582e+04 4.698e-09
 77.86930    -29.1 1.514e+04 3.947e-09
 77.87848    -31.3 1.520e+04 3.658e-09
 77.88851    -33.0 1.532e+04 3.619e-09
 77.89854    -34.5 1.632e+04 3.576e-09
 77.90722    -35.1 1.646e+04 3.557e-09
 77.91223    -34.2 1.619e+04 3.016e-09
 77.91860    -35.0 1.620e+04 3.073e-09
 77.92863    -35.6 1.611e+04 3.056e-09
 77.93745    -35.9 1.586e+04 3.364e-09
 77.94247    -37.1 1.791e+04 4.552e-09
 77.94869    -37.4 1.765e+04 4.610e-09
 77.95516    -37.6 1.699e+04 5.416e-09
 77.96018    -37.5 1.749e+04 5.267e-09
 77.96876    -37.5 1.768e+04 5.573e-09
 77.97879    -37.5 1.737e+04 6.614e-09
 77.98882    -37.2 1.777e+04 6.845e-09
 77.99809    -37.1 1.837e+04 8.437e-09
 78.00311    -36.6 1.808e+04 8.025e-09
 78.00888    -36.2 1.909e+04 9.380e-09
 78.01891    -37.3 2.085e+04 1.263e-08
 78.02894    -40.4 2.449e+04 1.932e-08
 78.03897    -46.1 2.886e+04 4.332e-08
 78.04604    -54.0 2.808e+04 1.597e-07
 78.05105    -49.1 3.043e+04 6.662e-08
 78.05829    -57.1 2.711e+04 2.628e-07
 78.06330    -55.1 3.105e+04 7.407e-08
 78.06906    -61.0 2.744e+04 2.109e-07
 78.07909    -65.1 2.536e+04 3.641e-07
 78.08897    -69.2 2.668e+04 2.832e-07
 78.09399    -65.7 2.632e+04 3.074e-07
 78.09915    -69.4 2.794e+04 1.948e-07
 78.10918    -72.7 3.045e+04 8.469e-08
 78.11921    -75.9 3.221e+04 3.312e-08
 78.12924    -79.4 2.935e+04 1.450e-08
 78.13692    -79.4 2.220e+04 1.010e-08
 78.14193    -77.9 2.964e+04 1.181e-08
 78.14930    -80.8 2.301e+04 7.179e-09
 78.16439    -81.7 2.051e+04 5.570e-09
 78.17922    -84.6 1.568e+04 3.268e-09
 78.18925    -79.2 2.187e+04 4.973e-09
 78.20456    -82.3 1.771e+04 3.545e-09
 78.22288    -83.1 1.551e+04 3.037e-09
 78.23291    -77.1 2.804e+04 2.913e-09
 78.24468    -80.8 1.945e+04 2.182e-09
 78.26474    -81.5 1.285e+04 1.907e-09
 78.28480    -80.5 1.250e+04 1.541e-09
 78.30486    -79.5 1.217e+04 1.301e-09
 78.31877    -78.4 1.189e+04 1.168e-09
 78.32880    -77.8 1.191e+04 1.163e-09
 78.34499    -76.5 1.179e+04 1.112e-09
 78.36505    -75.2 1.179e+04 1.106e-09
 78.38511    -74.1 1.189e+04 1.180e-09
 78.40463    -73.0 1.207e+04 1.332e-09
 78.41466    -72.0 1.210e+04 1.276e-09
 78.42090    -70.7 1.232e+04 1.458e-09
 78.43093    -70.7 1.260e+04 1.648e-09
 78.44529    -69.5 1.264e+04 1.717e-09
 78.46535    -68.2 1.261e+04 1.726e-09
 78.48541    -66.9 1.234e+04 1.617e-09
 78.50052    -65.7 1.191e+04 1.343e-09
 78.51055    -64.6 1.217e+04 1.489e-09
 78.52553    -63.6 1.160e+04 1.157e-09
 78.54559    -62.9 1.093e+04 8.367e-10
 78.56565    -62.5 1.017e+04 5.737e-10
 78.58571    -62.3 9.407e+03 3.864e-10
 78.59642    -61.9 8.791e+03 2.723e-10
 78.60645    -60.3 9.063e+03 3.237e-10
 78.62583    -59.8 8.654e+03 2.467e-10
 78.64589    -59.0 8.489e+03 2.137e-10
 78.66257    -58.3 8.369e+03 1.959e-10
 78.67270    -59.9 8.502e+03 2.118e-10
 78.69624    -58.4 8.389e+03 1.965e-10
 78.73636    -57.8 8.553e+03 2.222e-10
 78.76834    -58.2 9.595e+03 3.857e-10
 78.78840    -54.8 9.359e+03 3.514e-10
 78.81660    -56.3 1.052e+04 5.808e-10
 78.84659    -58.6 1.160e+04 9.653e-10
 78.86403    -61.4 1.253e+04 1.481e-09
 78.87406    -59.2 1.203e+04 1.117e-09
 78.88662    -62.3 1.267e+04 1.540e-09
 78.90424    -65.3 1.320e+04 1.981e-09
 78.91427    -65.3 1.257e+04 1.563e-09
 78.92674    -68.4 1.306e+04 1.918e-09
 78.94680    -72.0 1.356e+04 2.237e-09
 78.95993    -76.4 1.389e+04 2.405e-09
 78.96996    -76.0 1.362e+04 2.238e-09
 78.98692    -81.3 1.408e+04 2.505e-09
 79.00698    -90.2 1.714e+04 2.994e-09
 79.02704   -103.5 2.394e+04 4.832e-09
 79.04579   -116.3 2.492e+04 8.898e-09
 79.05582   -122.0 2.709e+04 1.330e-08
 79.06716   -131.2 2.368e+04 1.553e-08
 79.08722   -136.9 1.968e+04 1.223e-08
 79.10728   -141.2 1.778e+04 6.358e-09
 79.12734   -145.3 1.564e+04 2.702e-09
 79.14168   -148.9 1.247e+04 1.220e-09
 79.15022   -153.4 1.119e+04 7.935e-10
 79.15594   -151.3 1.275e+04 1.368e-09
 79.16746   -152.9 1.055e+04 7.641e-10
 79.18752   -153.2 9.807e+03 5.380e-10
 79.20758   -151.7 9.482e+03 4.202e-10
 79.22754   -150.3 9.218e+03 3.522e-10
 79.23757   -152.6 9.106e+03 3.119e-10
 79.24770   -151.1 9.106e+03 2.976e-10
 79.26776   -149.5 9.088e+03 2.911e-10
 79.29795   -146.9 8.883e+03 2.788e-10
 79.32363   -144.0 8.299e+03 2.300e-10
 79.34369   -146.2 7.869e+03 1.883e-10
 79.37829   -142.5 7.604e+03 1.570e-10
 79.41841   -138.8 7.425e+03 1.352e-10
 79.45853   -135.3 7.277e+03 1.202e-10
 79.49536   -131.8 7.173e+03 1.110e-10
 79.51542   -132.3 7.015e+03 9.540e-11
 79.53878   -128.8 6.944e+03 9.053e-11
 79.57890   -125.5 6.909e+03 8.892e-11
 79.61902   -122.4 6.901e+03 8.862e-11
 79.63949   -119.6 6.924e+03 8.998e-11
 79.65955   -119.3 6.809e+03 8.266e-11
 79.68714   -116.7 6.935e+03 9.181e-11
 79.70720   -116.7 6.817e+03 8.022e-11
 79.73938   -114.2 6.986e+03 9.592e-11
 79.77950   -111.7 7.178e+03 1.189e-10
 79.81962   -109.4 7.374e+03 1.442e-10
 79.85887   -107.2 7.536e+03 1.648e-10
 79.87893   -107.0 7.296e+03 1.317e-10
 79.89986   -104.8 7.383e+03 1.402e-10
 79.93998   -102.7 7.414e+03 1.426e-10
 79.98010   -100.6 7.426e+03 1.433e-10
 80.02023    -98.6 7.449e+03 1.442e-10
 80.05065    -96.6 7.564e+03 1.491e-10
 80.07071    -96.3 7.387e+03 1.290e-10
 80.10047    -94.4 7.586e+03 1.428e-10
 80.12283    -92.6 7.869e+03 1.830e-10
 80.14289    -91.8 7.645e+03 1.528e-10
 80.18071    -89.9 7.912e+03 1.948e-10
 80.22083    -88.0 8.213e+03 2.546e-10
 80.24244    -86.1 8.545e+03 3.203e-10
 80.26250    -86.0 8.370e+03 2.958e-10
 80.30107    -84.4 8.761e+03 3.753e-10
 80.34119    -83.0 9.130e+03 4.567e-10
 80.38131    -81.8 9.518e+03 5.553e-10
 80.41416    -80.7 9.906e+03 6.671e-10
 80.43422    -80.7 9.639e+03 6.004e-10
 80.46155    -79.8 1.004e+04 7.237e-10
 80.50167    -79.1 1.038e+04 8.301e-10
 80.53167    -78.1 1.045e+04 8.539e-10
 80.55163    -78.0 1.065e+04 9.385e-10
 80.57169    -77.8 1.098e+04 1.081e-09
 80.59175    -77.9 1.137e+04 1.243e-09
 80.60575    -78.6 1.205e+04 1.560e-09
 80.60995    -77.8 1.161e+04 1.341e-09
 80.61601    -77.4 1.217e+04 1.679e-09
 80.63187    -78.8 1.318e+04 2.495e-09
 80.65193    -79.7 1.417e+04 4.073e-09
 80.67199    -80.0 1.484e+04 5.363e-09
 80.69161    -80.1 1.525e+04 5.906e-09
 80.70164    -79.7 1.486e+04 5.531e-09
 80.71211    -79.9 1.502e+04 5.754e-09
 80.73217    -80.4 1.494e+04 4.898e-09
 80.75223    -81.4 1.422e+04 3.286e-09
 80.77230    -83.1 1.319e+04 2.014e-09
 80.78751    -84.9 1.208e+04 1.310e-09
 80.79754    -83.6 1.235e+04 1.424e-09
 80.81242    -84.9 1.136e+04 9.811e-10
 80.83248    -85.1 1.093e+04 7.861e-10
 80.84766    -84.9 1.072e+04 6.523e-10
 80.85769    -84.5 1.064e+04 6.008e-10
 80.87260    -83.7 1.049e+04 4.940e-10
 80.90279    -82.8 1.032e+04 3.732e-10
 80.94300    -81.7 1.002e+04 2.697e-10
 80.96946    -79.9 9.677e+03 1.877e-10
 80.98952    -78.7 9.653e+03 1.849e-10
 81.02325    -77.1 9.589e+03 1.629e-10
 81.06337    -75.3 9.582e+03 1.612e-10
 81.08952    -73.7 9.609e+03 1.718e-10
 81.10958    -72.9 9.474e+03 1.518e-10
 81.14118    -71.3 9.535e+03 1.743e-10
 81.16124    -70.3 9.475e+03 1.525e-10
 81.18373    -68.7 9.525e+03 1.687e-10
 81.22385    -67.0 9.555e+03 1.745e-10
 81.26397    -65.4 9.576e+03 1.705e-10
 81.30409    -63.8 9.528e+03 1.597e-10
 81.33297    -62.1 9.429e+03 1.485e-10
 81.35303    -61.4 9.465e+03 1.543e-10
 81.38433    -59.7 9.337e+03 1.416e-10
 81.42445    -58.0 9.211e+03 1.255e-10
 81.46457    -56.2 9.104e+03 1.071e-10
 81.50469    -54.5 9.030e+03 9.226e-11
 81.54481    -52.4 8.990e+03 1.012e-10
 81.57287    -50.6 8.971e+03 1.004e-10
 81.59293    -49.9 9.043e+03 1.099e-10
 81.62506    -48.0 9.003e+03 1.012e-10
 81.66518    -46.0 8.980e+03 9.473e-11
 81.69648    -44.1 8.971e+03 9.355e-11
 81.71654    -43.9 8.931e+03 1.058e-10
 81.74542    -42.0 8.906e+03 1.065e-10
 81.78554    -40.0 8.959e+03 1.142e-10
 81.82566    -37.9 8.982e+03 1.276e-10
 81.86578    -35.9 9.152e+03 1.436e-10
 81.88826    -34.4 9.479e+03 1.723e-10
 81.90832    -34.3 9.279e+03 1.400e-10
 81.94602    -33.6 9.715e+03 1.872e-10
 81.98615    -33.4 1.005e+04 3.148e-10
 82.02627    -32.4 1.042e+04 5.466e-10
 82.05622    -30.8 1.091e+04 7.666e-10
 82.06987    -30.0 1.054e+04 6.080e-10
 82.08005    -30.0 1.028e+04 5.080e-10
 82.10651    -28.5 1.067e+04 6.191e-10
 82.14663    -27.9 1.066e+04 5.767e-10
 82.18675    -26.8 1.037e+04 3.951e-10
 82.22687    -25.8 1.003e+04 2.624e-10
 82.25177    -24.4 9.757e+03 1.881e-10
 82.27183    -24.1 9.715e+03 1.663e-10
 82.30711    -22.6 9.585e+03 1.285e-10
 82.34723    -20.9 9.532e+03 1.075e-10
 82.38735    -19.3 9.555e+03 9.952e-11
 82.42349    -18.1 9.825e+03 1.093e-10
 82.44356    -17.9 9.847e+03 1.102e-10
 82.46760    -17.2 9.886e+03 1.708e-10
 82.50772    -15.7 9.955e+03 2.883e-10
 82.53956    -13.8 1.021e+04 4.048e-10
 82.55962    -14.0 1.016e+04 4.081e-10
 82.58796    -12.9 1.020e+04 4.141e-10
 82.61528    -11.3 9.878e+03 3.572e-10
 82.63534    -10.8 9.872e+03 3.466e-10
 82.66820     -9.1 9.576e+03 2.322e-10
 82.70832     -8.0 9.359e+03 1.417e-10
 82.74844     -7.6 9.398e+03 1.087e-10
 82.78700     -6.8 9.458e+03 1.173e-10
 82.80707     -7.2 9.544e+03 1.698e-10
 82.82868     -6.3 9.717e+03 2.191e-10
 82.86880     -5.2 9.927e+03 3.033e-10
 82.90892     -4.1 1.021e+04 4.198e-10
 82.94904     -3.0 1.046e+04 5.507e-10
 82.97879     -2.2 1.069e+04 6.346e-10
 82.99885     -2.3 1.057e+04 6.041e-10
 83.02291     -2.0 1.062e+04 6.052e-10
 83.04297     -1.1 1.069e+04 6.438e-10
 83.06941     -0.9 1.072e+04 7.053e-10
 83.10953     -0.3 1.070e+04 7.965e-10
 83.14965      0.8 1.056e+04 7.838e-10
 83.17057      2.2 1.027e+04 6.496e-10
 83.19064      2.6 1.030e+04 6.726e-10
 83.22989      4.0 1.016e+04 5.682e-10
 83.27001      5.0 9.983e+03 4.480e-10
 83.31013      5.9 9.722e+03 3.676e-10
 83.34230      7.2 9.364e+03 3.032e-10
 83.36236      7.8 9.756e+03 4.150e-10
 83.39037      9.7 9.388e+03 3.361e-10
 83.43049     11.8 9.087e+03 2.307e-10
 83.47062     13.5 8.894e+03 1.407e-10
 83.50625     14.6 8.727e+03 8.972e-11
 83.52631     15.5 8.889e+03 1.267e-10
 83.53408     16.5 8.743e+03 9.800e-11
 83.55415     17.2 9.059e+03 1.714e-10
 83.59098     18.3 8.902e+03 1.502e-10
 83.63110     19.7 8.815e+03 1.510e-10
 83.67122     21.4 8.689e+03 1.540e-10
 83.70581     23.1 8.597e+03 1.485e-10
 83.72587     23.6 8.641e+03 1.484e-10
 83.75146     25.3 8.504e+03 1.252e-10
 83.79158     26.7 8.367e+03 1.074e-10
 83.83170     28.1 8.288e+03 9.812e-11
 83.87182     29.4 8.291e+03 1.010e-10
 83.89759     30.4 8.360e+03 1.148e-10
 83.91765     30.8 8.373e+03 1.002e-10
 83.95207     31.8 8.484e+03 1.340e-10
 83.98960     33.0 8.583e+03 1.758e-10
 84.00966     33.8 8.509e+03 1.446e-10
 84.03231     35.2 8.591e+03 1.798e-10
 84.06932     36.6 8.588e+03 1.803e-10
 84.08938     36.9 8.589e+03 1.722e-10
 84.11255     38.4 8.528e+03 1.624e-10
 84.15267     39.9 8.421e+03 1.355e-10
 84.19279     41.4 8.292e+03 1.094e-10
 84.23291     43.0 8.184e+03 9.051e-11
 84.26110     44.6 8.033e+03 8.375e-11
 84.28116     45.1 8.056e+03 8.261e-11
 84.31315     47.1 8.025e+03 8.251e-11
 84.35327     49.2 8.024e+03 8.367e-11
 84.39339     51.4 8.035e+03 8.901e-11
 84.43283     53.6 8.094e+03 1.003e-10
 84.45289     53.8 8.192e+03 1.003e-10
 84.47294     55.9 8.304e+03 1.188e-10
 84.49301     56.5 8.303e+03 1.196e-10
 84.51376     58.5 8.474e+03 1.474e-10
 84.55388     60.4 8.708e+03 1.899e-10
 84.59400     62.0 9.117e+03 2.747e-10
 84.62461     63.6 9.632e+03 4.141e-10
 84.64467     63.6 9.517e+03 3.708e-10
 84.67424     64.9 9.992e+03 5.242e-10
 84.71436     66.1 1.044e+04 6.989e-10
 84.75448     67.1 1.080e+04 8.358e-10
 84.78447     67.7 1.098e+04 8.497e-10
 84.80444     67.9 1.101e+04 8.484e-10
 84.81620     68.2 1.103e+04 8.351e-10
 84.83636     68.4 1.089e+04 7.566e-10
 84.87484     69.2 1.087e+04 7.335e-10
 84.91497     70.8 1.087e+04 7.322e-10
 84.94496     71.1 1.079e+04 6.961e-10
 84.96492     70.4 1.127e+04 7.693e-10
 84.97616     67.3 1.370e+04 1.274e-09
 84.98619     70.1 1.182e+04 8.034e-10
 84.99796     67.1 1.467e+04 1.613e-09
 85.00799     67.1 1.489e+04 1.675e-09
 85.02510     64.3 1.731e+04 5.346e-09
 85.04516     63.1 1.841e+04 1.310e-08
 85.06522     63.0 1.893e+04 2.024e-08
 85.08382     63.0 1.892e+04 2.032e-08
 85.09385     63.7 1.889e+04 2.068e-08
 85.10534     64.2 1.851e+04 1.598e-08
 85.12540     64.7 1.784e+04 8.236e-09
 85.14546     62.6 1.698e+04 3.324e-09
 85.16553     57.6 1.455e+04 1.394e-09
 85.17971     54.2 1.224e+04 1.183e-09
 85.18974     54.7 1.212e+04 1.104e-09
 85.20565     54.6 1.203e+04 1.155e-09
 85.21783     55.0 1.225e+04 1.409e-09
 85.22786     55.9 1.229e+04 1.336e-09
 85.24577     56.2 1.234e+04 1.457e-09
 85.27595     56.6 1.263e+04 1.728e-09
 85.31617     57.0 1.260e+04 1.713e-09
 85.35163     57.8 1.226e+04 1.469e-09
 85.37169     58.7 1.251e+04 1.702e-09
 85.39642     59.9 1.180e+04 1.239e-09
 85.43654     61.3 1.088e+04 7.439e-10
 85.45970     62.9 1.004e+04 4.200e-10
 85.47976     64.3 1.048e+04 5.494e-10
 85.51678     66.0 9.873e+03 3.642e-10
 85.54342     67.9 9.484e+03 2.599e-10
 85.56348     68.7 9.515e+03 2.495e-10
 85.59702     70.6 9.199e+03 1.881e-10
 85.63714     72.7 9.013e+03 1.691e-10
 85.67726     75.0 8.976e+03 1.702e-10
 85.71514     77.3 8.973e+03 1.772e-10
 85.73520     78.0 8.918e+03 1.630e-10
 85.75750     80.3 8.950e+03 1.725e-10
 85.79762     82.4 9.037e+03 1.863e-10
 85.83774     84.4 9.141e+03 2.002e-10
 85.87786     86.3 9.238e+03 2.042e-10
 85.90693     88.1 9.344e+03 2.118e-10
 85.92699     88.9 9.245e+03 1.640e-10
 85.94304     90.6 9.396e+03 1.819e-10
 85.96310     91.7 9.242e+03 1.457e-10
 85.99823     93.1 9.324e+03 1.510e-10
 86.03835     94.4 9.468e+03 1.701e-10
 86.07847     95.5 9.693e+03 2.139e-10
 86.11859     97.4 9.926e+03 2.405e-10
 86.15871     98.4 1.021e+04 3.048e-10
 86.19883     99.3 1.034e+04 3.385e-10
 86.23895    100.3 1.033e+04 3.349e-10
 86.27044    101.6 1.020e+04 3.005e-10
 86.29050    102.8 1.017e+04 2.873e-10
 86.31919    104.4 9.995e+03 2.421e-10
 86.35931    105.9 9.805e+03 2.094e-10
 86.39944    107.8 9.765e+03 2.066e-10
 86.42639    109.7 9.776e+03 2.100e-10
 86.44645    110.8 9.693e+03 1.754e-10
 86.46222    112.6 9.754e+03 1.821e-10
 86.48228    113.9 9.793e+03 1.781e-10
 86.51980    115.7 9.888e+03 1.858e-10
 86.55992    117.5 9.980e+03 1.935e-10
 86.60004    119.2 1.006e+04 2.038e-10
 86.63395    120.8 1.016e+04 2.268e-10
 86.65401    121.9 1.017e+04 2.318e-10
 86.68028    123.2 1.027e+04 2.799e-10
 86.72040    124.5 1.048e+04 3.824e-10
 86.76052    125.7 1.084e+04 5.680e-10
 86.80064    126.9 1.131e+04 8.465e-10
 86.82573    127.9 1.175e+04 1.146e-09
 86.84579    128.5 1.141e+04 9.448e-10
 86.88089    129.3 1.166e+04 1.098e-09
 86.90973    129.9 1.170e+04 1.112e-09
 86.92980    130.5 1.147e+04 9.465e-10
 86.96113    131.3 1.145e+04 9.317e-10
 86.99746    132.3 1.135e+04 8.534e-10
 87.01752    132.9 1.110e+04 7.170e-10
 87.04137    134.1 1.109e+04 7.105e-10
 87.08149    135.6 1.106e+04 6.875e-10
 87.10328    136.1 1.102e+04 6.657e-10
 87.11322    136.3 1.098e+04 6.658e-10
 87.13145    137.0 1.090e+04 6.551e-10
 87.15121    137.7 1.083e+04 6.416e-10
 87.16124    138.2 1.089e+04 6.514e-10
 87.17157    139.0 1.085e+04 6.516e-10
 87.18905    139.9 1.085e+04 6.514e-10
 87.19908    140.4 1.084e+04 6.489e-10
 87.21169    141.3 1.082e+04 6.438e-10
 87.23175    142.2 1.084e+04 6.472e-10
 87.25181    143.1 1.090e+04 6.586e-10
 87.27187    143.9 1.102e+04 6.815e-10
 87.28494    144.7 1.114e+04 7.125e-10
 87.29497    145.3 1.086e+04 5.892e-10
 87.31199    146.2 1.102e+04 6.229e-10
 87.33205    147.1 1.117e+04 6.731e-10
 87.35211    147.8 1.130e+04 7.397e-10
 87.37080    148.5 1.140e+04 8.215e-10
 87.38083    149.3 1.126e+04 6.520e-10
 87.39223    150.0 1.142e+04 7.520e-10
 87.40292    150.7 1.157e+04 8.813e-10
 87.41295    151.3 1.152e+04 7.932e-10
 87.43235    152.0 1.170e+04 9.461e-10
 87.45241    152.7 1.194e+04 1.136e-09
 87.46670    153.0 1.225e+04 1.362e-09
 87.47673    153.8 1.207e+04 1.062e-09
 87.49253    153.9 1.251e+04 1.338e-09
 87.51259    153.6 1.312e+04 1.807e-09
 87.53265    153.1 1.383e+04 2.654e-09
 87.55256    152.6 1.454e+04 4.009e-09
 87.56259    153.3 1.470e+04 3.442e-09
 87.57277    152.9 1.546e+04 5.480e-09
 87.59283    152.7 1.581e+04 7.223e-09
 87.61290    152.4 1.579e+04 7.323e-09
 87.63296    152.4 1.556e+04 6.831e-09
 87.64459    152.7 1.514e+04 5.550e-09
 87.65005    153.5 1.517e+04 5.459e-09
 87.65848    153.9 1.547e+04 5.281e-09
 87.67308    153.9 1.503e+04 4.338e-09
 87.69314    154.0 1.446e+04 3.232e-09
 87.71320    153.8 1.401e+04 2.209e-09
 87.73326    153.6 1.370e+04 1.466e-09
 87.74434    153.5 1.342e+04 1.013e-09
 87.75437    154.1 1.336e+04 1.495e-09
 87.77338    154.2 1.312e+04 1.183e-09
 87.79344    154.6 1.290e+04 9.905e-10
 87.81350    155.3 1.270e+04 8.807e-10
 87.83021    156.2 1.253e+04 8.240e-10
 87.84024    156.4 1.268e+04 1.062e-09
 87.85362    157.4 1.249e+04 1.012e-09
 87.87368    158.6 1.234e+04 1.013e-09
 87.88626    159.8 1.232e+04 1.020e-09
 87.89629    160.5 1.231e+04 1.011e-09
 87.91380    161.7 1.224e+04 1.044e-09
 87.92610    162.9 1.220e+04 1.107e-09
 87.93613    163.0 1.254e+04 1.085e-09
 87.95392    164.3 1.251e+04 1.140e-09
 87.97398    165.5 1.256e+04 1.240e-09
 87.99404    166.7 1.274e+04 1.392e-09
 88.01196    168.0 1.312e+04 1.612e-09
 88.02199    168.3 1.266e+04 1.282e-09
 88.03416    169.5 1.305e+04 1.419e-09
 88.05422    170.6 1.361e+04 1.587e-09
 88.07428    171.7 1.429e+04 1.790e-09
 88.09434    172.6 1.500e+04 2.049e-09
 88.10785    173.3 1.559e+04 2.448e-09
 88.11788    172.7 1.373e+04 1.539e-09
 88.12793    172.8 1.410e+04 1.902e-09
 88.13796    174.5 1.425e+04 1.678e-09
 88.15453    174.2 1.477e+04 2.303e-09
 88.17459    173.8 1.545e+04 3.571e-09
 88.19371    173.7 1.592e+04 5.158e-09
 88.20375    172.3 1.577e+04 3.755e-09
 88.21471    171.3 1.680e+04 5.884e-09
 88.23477    169.8 1.814e+04 9.200e-09
 88.25483    167.5 2.006e+04 1.381e-08
 88.27489    164.3 2.198e+04 1.725e-08
 88.28961    160.7 2.229e+04 1.726e-08
 88.29964    161.1 1.728e+04 6.926e-09
 88.31501    158.4 1.769e+04 6.879e-09
 88.33507    156.4 1.784e+04 6.731e-09
 88.35513    155.2 1.788e+04 6.366e-09
 88.36961    154.5 1.754e+04 5.913e-09
 88.37964    154.1 1.741e+04 5.686e-09
 88.38550    154.3 1.715e+04 5.021e-09
 88.39553    156.7 1.636e+04 4.081e-09
 88.41531    157.1 1.647e+04 3.982e-09
 88.43537    157.6 1.648e+04 3.834e-09
 88.45543    158.2 1.630e+04 3.874e-09
 88.47136    158.6 1.616e+04 4.016e-09
 88.48139    160.8 1.620e+04 3.279e-09
 88.49555    161.0 1.621e+04 3.435e-09
 88.51561    161.0 1.609e+04 3.867e-09
 88.53567    160.9 1.590e+04 4.496e-09
 88.55573    161.2 1.571e+04 5.134e-09
 88.56725    161.5 1.558e+04 5.588e-09
 88.57729    162.4 1.553e+04 4.349e-09
 88.59586    162.8 1.535e+04 4.848e-09
 88.61128    163.2 1.529e+04 5.100e-09
 88.62131    163.4 1.528e+04 4.866e-09
 88.63598    164.0 1.528e+04 5.041e-09
 88.65312    164.6 1.526e+04 4.992e-09
 88.66315    164.9 1.493e+04 4.343e-09
 88.67610    165.3 1.489e+04 4.266e-09
 88.69616    165.8 1.471e+04 3.911e-09
 88.71622    166.2 1.443e+04 3.274e-09
 88.73628    166.6 1.409e+04 2.582e-09
 88.74901    166.9 1.373e+04 1.997e-09
 88.75904    166.8 1.370e+04 2.062e-09
 88.77640    167.1 1.341e+04 1.684e-09
 88.79646    167.1 1.319e+04 1.344e-09
 88.81652    167.0 1.308e+04 1.165e-09
 88.83497    167.7 1.295e+04 9.957e-10
 88.84500    167.2 1.327e+04 1.291e-09
 88.85295    167.3 1.324e+04 1.205e-09
 88.86298    166.9 1.335e+04 1.236e-09
 88.87670    167.3 1.329e+04 1.208e-09
 88.89676    167.7 1.312e+04 1.104e-09
 88.92695    167.9 1.306e+04 1.035e-09
 88.96717    169.2 1.251e+04 7.648e-10
 89.00679    170.7 1.198e+04 5.680e-10
 89.02685    170.3 1.182e+04 4.648e-10
 89.04741    171.8 1.117e+04 2.647e-10
 89.08753    173.6 1.099e+04 1.874e-10
 89.12765    175.5 1.104e+04 1.908e-10
 89.16777    177.6 1.101e+04 2.026e-10
 89.19858    179.8 1.094e+04 2.329e-10
 89.21864    179.6 1.062e+04 1.152e-10
 89.24801    181.8 1.059e+04 1.402e-10
 89.28813    184.1 1.059e+04 1.885e-10
 89.32646    186.3 1.072e+04 2.695e-10
 89.34652    186.8 1.048e+04 1.758e-10
 89.36838    189.0 1.069e+04 2.639e-10
 89.39036    191.0 1.097e+04 3.874e-10
 89.41042    191.4 1.044e+04 2.104e-10
 89.44862    193.5 1.059e+04 3.033e-10
 89.48874    195.6 1.076e+04 4.020e-10
 89.52886    197.6 1.095e+04 4.758e-10
 89.56209    199.4 1.116e+04 4.986e-10
 89.58215    200.6 1.063e+04 3.860e-10
 89.60910    202.8 1.087e+04 4.432e-10
 89.64922    205.0 1.113e+04 4.837e-10
 89.68934    206.1 1.131e+04 5.151e-10
 89.71934    207.4 1.132e+04 5.812e-10
 89.73930    208.9 1.134e+04 6.536e-10
 89.75368    210.1 1.137e+04 7.096e-10
 89.76371    210.7 1.142e+04 7.083e-10
 89.77942    211.6 1.150e+04 8.187e-10
 89.79948    212.6 1.157e+04 9.014e-10
 89.81954    213.6 1.170e+04 9.568e-10
 89.82968    214.5 1.189e+04 9.905e-10
 89.83964    214.7 1.183e+04 1.124e-09
 89.85960    216.2 1.215e+04 1.480e-09
 89.87972    217.1 1.260e+04 1.563e-09
 89.89978    217.9 1.263e+04 1.560e-09
 89.91984    218.6 1.269e+04 1.529e-09
 89.93543    219.2 1.276e+04 1.450e-09
 89.94546    219.9 1.285e+04 1.864e-09
 89.95996    220.5 1.291e+04 1.765e-09
 89.98002    221.0 1.290e+04 1.602e-09
 90.00008    221.4 1.283e+04 1.417e-09
 90.02014    221.8 1.272e+04 1.266e-09
 90.03132    222.1 1.265e+04 1.167e-09
 90.04135    222.9 1.275e+04 1.214e-09
 90.06027    223.2 1.270e+04 1.115e-09
 90.07135    223.4 1.264e+04 1.046e-09
 90.08138    223.9 1.264e+04 1.036e-09
 90.10039    224.1 1.256e+04 9.814e-10
 90.11719    224.4 1.249e+04 9.370e-10
 90.12722    225.1 1.259e+04 8.489e-10
 90.14051    225.4 1.247e+04 7.868e-10
 90.16057    225.9 1.233e+04 7.272e-10
 90.18063    226.5 1.221e+04 6.665e-10
 90.20069    227.0 1.212e+04 6.065e-10
 90.21308    227.6 1.208e+04 5.518e-10
 90.22311    228.2 1.205e+04 5.269e-10
 90.24081    228.7 1.199e+04 4.849e-10
 90.26087    229.2 1.199e+04 4.613e-10
 90.28093    229.6 1.203e+04 4.571e-10
 90.29894    230.0 1.203e+04 4.645e-10
 90.30897    230.6 1.206e+04 4.725e-10
 90.31302    230.9 1.214e+04 4.968e-10
 90.32305    231.2 1.223e+04 5.554e-10
 90.34111    231.4 1.230e+04 5.815e-10
 90.36117    231.6 1.236e+04 6.189e-10
 90.38123    231.8 1.240e+04 6.616e-10
 90.39483    232.1 1.241e+04 7.038e-10
 90.40486    232.4 1.254e+04 7.722e-10
 90.42135    232.5 1.255e+04 8.028e-10
 90.44141    232.8 1.249e+04 8.107e-10
 90.46147    233.0 1.247e+04 8.127e-10
 90.48079    233.9 1.248e+04 8.075e-10
 90.50095    233.3 1.265e+04 8.935e-10
 90.53188    234.6 1.264e+04 9.458e-10
 90.57200    236.0 1.268e+04 1.049e-09
 90.61212    237.1 1.282e+04 1.180e-09
 90.65224    238.1 1.299e+04 1.297e-09
 90.67268    239.0 1.309e+04 1.356e-09
 90.69274    238.2 1.298e+04 1.273e-09
 90.73248    239.3 1.288e+04 1.169e-09
 90.77261    240.5 1.258e+04 9.412e-10
 90.79656    241.7 1.209e+04 6.932e-10
 90.81662    240.4 1.146e+04 4.288e-10
 90.84440    241.8 1.110e+04 3.369e-10
 90.86446    241.2 1.047e+04 1.803e-10
 90.89297    243.0 1.039e+04 1.812e-10
 90.93309    245.2 1.040e+04 1.844e-10
 90.97321    247.6 1.048e+04 1.983e-10
 91.01333    250.0 1.064e+04 2.311e-10
 91.03619    252.3 1.092e+04 2.925e-10
 91.05625    252.3 1.013e+04 1.772e-10
 91.09357    254.5 1.040e+04 1.954e-10
 91.13369    256.3 1.113e+04 2.643e-10
 91.17381    257.9 1.195e+04 4.427e-10
 91.20791    259.0 1.274e+04 7.692e-10
 91.22797    259.8 1.179e+04 4.680e-10
 91.24393    259.6 1.201e+04 5.577e-10
 91.26389    259.2 1.257e+04 7.939e-10
 91.27971    258.3 1.323e+04 1.344e-09
 91.28974    259.7 1.271e+04 9.145e-10
 91.30361    258.8 1.343e+04 1.540e-09
 91.31364    259.6 1.297e+04 1.211e-09
 91.32407    259.2 1.354e+04 1.916e-09
 91.34413    259.2 1.398e+04 2.756e-09
 91.36419    259.4 1.431e+04 3.402e-09
 91.38425    259.7 1.449e+04 3.770e-09
 91.39950    259.9 1.446e+04 3.579e-09
 91.40953    260.2 1.416e+04 2.864e-09
 91.42437    260.2 1.410e+04 2.581e-09
 91.44443    260.2 1.394e+04 2.093e-09
 91.46449    260.1 1.371e+04 1.544e-09
 91.48455    259.8 1.343e+04 1.083e-09
 91.49539    259.5 1.313e+04 7.680e-10
 91.50542    259.7 1.308e+04 9.844e-10
 91.52139    259.8 1.286e+04 8.188e-10
 91.53142    260.6 1.324e+04 1.129e-09
 91.54474    260.7 1.302e+04 9.424e-10
 91.56480    260.9 1.287e+04 8.289e-10
 91.58126    261.3 1.277e+04 7.663e-10
 91.59129    261.2 1.331e+04 1.215e-09
 91.60492    261.7 1.334e+04 1.187e-09
 91.62498    262.4 1.336e+04 1.168e-09
 91.64504    263.2 1.335e+04 1.163e-09
 91.66510    264.0 1.335e+04 1.163e-09
 91.67715    265.0 1.336e+04 1.172e-09
 91.68718    264.7 1.395e+04 1.919e-09
 91.70522    265.7 1.397e+04 1.941e-09
 91.72528    266.6 1.405e+04 2.043e-09
 91.74534    267.4 1.425e+04 2.294e-09
 91.76301    268.2 1.457e+04 2.760e-09
 91.77304    267.9 1.489e+04 3.001e-09
 91.78546    268.7 1.525e+04 3.583e-09
 91.80552    269.6 1.574e+04 4.469e-09
 91.82558    270.5 1.629e+04 5.604e-09
 91.84564    271.0 1.675e+04 6.593e-09
 91.85890    271.1 1.687e+04 6.770e-09
 91.86893    270.9 1.604e+04 3.738e-09
 91.88576    271.1 1.599e+04 3.611e-09
 91.90582    271.4 1.574e+04 3.279e-09
 91.92588    272.0 1.535e+04 2.813e-09
 91.94477    272.8 1.487e+04 2.317e-09
 91.95480    272.1 1.392e+04 9.526e-10
 91.96600    273.0 1.358e+04 8.649e-10
 91.98606    274.0 1.330e+04 8.134e-10
 92.00473    275.1 1.310e+04 7.859e-10
 92.01476    275.0 1.306e+04 7.448e-10
 92.02619    276.2 1.297e+04 7.365e-10
 92.04066    277.3 1.296e+04 7.372e-10
 92.05069    277.6 1.278e+04 5.323e-10
 92.06631    279.0 1.278e+04 5.371e-10
 92.08637    280.3 1.281e+04 5.489e-10
 92.10643    281.6 1.287e+04 5.680e-10
 92.12649    282.8 1.295e+04 5.936e-10
 92.14665    285.4 1.266e+04 3.865e-10
 92.16671    286.4 1.282e+04 3.900e-10
 92.18667    287.2 1.301e+04 4.251e-10
 92.20673    288.2 1.313e+04 4.913e-10
 92.22241    289.3 1.321e+04 5.819e-10
 92.23244    289.6 1.309e+04 3.829e-10
 92.24640    290.8 1.319e+04 4.500e-10
 92.25644    290.3 1.325e+04 3.827e-10
 92.26691    291.6 1.332e+04 4.885e-10
 92.28697    292.8 1.342e+04 6.613e-10
 92.30703    294.0 1.363e+04 9.280e-10
 92.31831    295.2 1.395e+04 1.318e-09
 92.32834    295.6 1.353e+04 7.939e-10
 92.34715    296.9 1.385e+04 1.190e-09
 92.36721    298.3 1.429e+04 1.744e-09
 92.38727    299.7 1.479e+04 2.430e-09
 92.40417    301.0 1.528e+04 3.127e-09
 92.41420    301.6 1.475e+04 2.332e-09
 92.42739    302.9 1.520e+04 2.977e-09
 92.44745    304.0 1.551e+04 3.311e-09
 92.46751    305.0 1.555e+04 3.304e-09
 92.48757    306.1 1.552e+04 3.223e-09
 92.49811    307.1 1.538e+04 3.030e-09
 92.50056    307.1 1.521e+04 2.386e-09
 92.51009    308.2 1.505e+04 2.192e-09
 92.52770    309.3 1.500e+04 2.099e-09
 92.54776    310.4 1.491e+04 2.011e-09
 92.56782    311.4 1.485e+04 1.989e-09
 92.58592    312.4 1.485e+04 2.023e-09
 92.59595    313.5 1.489e+04 1.909e-09
 92.60794    314.4 1.498e+04 2.038e-09
 92.62800    315.1 1.519e+04 2.452e-09
 92.64806    315.9 1.568e+04 3.301e-09
 92.66812    316.5 1.618e+04 4.541e-09
 92.68177    316.5 1.651e+04 5.360e-09
 92.68673    317.1 1.664e+04 4.918e-09
 92.69310    317.3 1.692e+04 5.784e-09
 92.70313    317.5 1.731e+04 7.270e-09
 92.71316    317.6 1.775e+04 9.342e-09
 92.72319    317.7 1.816e+04 1.216e-08
 92.72966    317.8 1.854e+04 1.586e-08
 92.73468    317.9 1.864e+04 1.559e-08
 92.73968    317.9 1.909e+04 2.112e-08
 92.74470    318.3 1.958e+04 2.464e-08
 92.75328    318.4 2.016e+04 3.496e-08
 92.76331    318.6 2.085e+04 4.790e-08
 92.77260    318.5 2.171e+04 5.717e-08
 92.77761    318.5 2.142e+04 7.435e-08
 92.78337    318.3 2.198e+04 9.655e-08
 92.79340    318.0 2.240e+04 9.836e-08
 92.80343    317.5 2.253e+04 9.459e-08
 92.81346    317.1 2.287e+04 7.985e-08
 92.82054    316.4 2.317e+04 5.743e-08
 92.82556    315.7 2.248e+04 1.652e-07
 92.83352    314.9 2.264e+04 1.186e-07
 92.84355    314.4 2.277e+04 6.918e-08
 92.85358    314.2 2.310e+04 3.239e-08
 92.86052    313.8 2.359e+04 1.251e-08
 92.86540    313.4 2.415e+04 1.542e-08
 92.86849    312.4 2.290e+04 5.261e-08
 92.87364    312.2 2.381e+04 1.997e-08
 92.88367    311.2 2.475e+04 7.724e-09
 92.89370    308.9 2.408e+04 3.797e-09
 92.90373    307.0 2.100e+04 2.666e-09
 92.91142    306.0 1.765e+04 2.342e-09
 92.91643    306.9 2.261e+04 4.167e-09
 92.92379    306.1 1.985e+04 2.945e-09
 92.93382    305.7 1.711e+04 2.325e-09
 92.94892    306.1 1.538e+04 1.838e-09
 92.95946    306.8 1.460e+04 1.478e-09
 92.96949    306.0 1.636e+04 1.771e-09
 92.98145    306.6 1.512e+04 1.381e-09
 92.98642    306.4 1.566e+04 1.592e-09
 92.99400    306.5 1.519e+04 1.470e-09
 93.00910    307.4 1.508e+04 1.296e-09
 93.02921    308.3 1.426e+04 1.004e-09
 93.04533    309.3 1.340e+04 7.838e-10
 93.05536    308.2 1.549e+04 1.232e-09
 93.06933    309.3 1.458e+04 1.031e-09
 93.08939    310.4 1.380e+04 9.391e-10
 93.10945    311.6 1.329e+04 9.280e-10
 93.12951    312.8 1.324e+04 9.294e-10
 93.14122    314.1 1.305e+04 9.443e-10
 93.15125    312.5 1.510e+04 1.743e-09
 93.16963    313.5 1.485e+04 1.886e-09
 93.18969    314.4 1.473e+04 2.146e-09
 93.20975    315.3 1.482e+04 2.541e-09
 93.22313    316.4 1.498e+04 3.045e-09
 93.23043    315.3 1.695e+04 5.764e-09
 93.23706    315.0 1.851e+04 8.537e-09
 93.24476    315.7 1.865e+04 9.889e-09
 93.25479    316.2 1.876e+04 1.109e-08
 93.26482    316.8 1.889e+04 1.249e-08
 93.27485    317.3 1.900e+04 1.364e-08
 93.27994    317.8 1.911e+04 1.465e-08
 93.28496    317.6 1.983e+04 2.162e-08
 93.29491    318.2 1.989e+04 2.261e-08
 93.30494    318.7 1.994e+04 2.298e-08
 93.31497    319.1 1.996e+04 2.295e-08
 93.32288    319.5 1.998e+04 2.254e-08
 93.32789    319.9 2.053e+04 3.431e-08
 93.33503    319.9 2.063e+04 3.352e-08
 93.34387    319.9 2.070e+04 3.121e-08
 93.34888    319.6 2.148e+04 3.620e-08
 93.35509    319.6 2.132e+04 3.241e-08
 93.36512    319.8 2.107e+04 2.842e-08
 93.37082    320.1 2.068e+04 2.546e-08
 93.37584    320.3 2.174e+04 3.319e-08
 93.38518    321.0 2.142e+04 2.841e-08
 93.39521    321.4 2.128e+04 2.551e-08
 93.40879    321.6 2.075e+04 2.193e-08
 93.41887    321.2 2.128e+04 2.232e-08
 93.43041    321.1 2.087e+04 1.942e-08
 93.45047    321.4 2.058e+04 1.773e-08
 93.46480    321.8 2.036e+04 1.643e-08
 93.47483    320.3 2.042e+04 1.581e-08
 93.49060    320.6 2.026e+04 1.488e-08
 93.50473    320.8 2.013e+04 1.411e-08
 93.51476    320.6 2.014e+04 1.192e-08
 93.53072    320.6 2.009e+04 1.190e-08
 93.55078    320.6 2.004e+04 1.201e-08
 93.57084    320.5 1.996e+04 1.223e-08
 93.59059    320.5 1.991e+04 1.243e-08
 93.60062    320.7 2.035e+04 1.420e-08
 93.61096    320.7 2.036e+04 1.458e-08
 93.63102    320.6 2.031e+04 1.447e-08
 93.65108    320.3 2.012e+04 1.375e-08
 93.67114    320.2 1.981e+04 1.253e-08
 93.68648    320.4 1.951e+04 1.121e-08
 93.69651    321.2 1.957e+04 9.705e-09
 93.70647    321.1 1.925e+04 8.028e-09
 93.71650    319.6 1.717e+04 2.946e-09
 93.73132    319.5 1.674e+04 2.500e-09
 93.75138    319.6 1.635e+04 2.275e-09
 93.77144    319.8 1.600e+04 2.217e-09
 93.78238    320.4 1.581e+04 2.256e-09
 93.79241    320.0 1.454e+04 1.780e-09
 93.81156    320.8 1.437e+04 1.955e-09
 93.83162    321.6 1.440e+04 2.153e-09
 93.85168    322.5 1.452e+04 2.359e-09
 93.86824    323.2 1.480e+04 2.563e-09
 93.87827    322.8 1.424e+04 2.478e-09
 93.89180    323.4 1.461e+04 2.651e-09
 93.91186    324.1 1.505e+04 2.858e-09
 93.93192    324.8 1.564e+04 3.152e-09
 93.94815    325.5 1.612e+04 3.477e-09
 93.95818    324.6 1.485e+04 3.256e-09
 93.96413    325.3 1.520e+04 3.591e-09
 93.97416    323.5 1.658e+04 5.108e-09
 93.99211    324.4 1.686e+04 5.838e-09
 94.01217    325.5 1.719e+04 6.802e-09
 94.02716    325.6 1.742e+04 7.704e-09
 94.03714    325.9 1.763e+04 8.399e-09
 94.04717    326.3 1.782e+04 9.087e-09
 94.05491    326.7 1.796e+04 9.734e-09
 94.05993    326.5 1.797e+04 1.220e-08
 94.06723    327.0 1.797e+04 1.278e-08
 94.07390    327.6 1.796e+04 1.331e-08
 94.07891    327.6 1.838e+04 1.379e-08
 94.08730    328.3 1.840e+04 1.469e-08
 94.09733    328.9 1.847e+04 1.570e-08
 94.10286    329.4 1.858e+04 1.672e-08
 94.10787    329.3 1.907e+04 1.908e-08
 94.11739    329.6 1.916e+04 2.015e-08
 94.12742    329.9 1.918e+04 2.105e-08
 94.13745    330.4 1.917e+04 2.186e-08
 94.14579    331.0 1.916e+04 2.266e-08
 94.15080    330.6 1.922e+04 2.163e-08
 94.15751    331.3 1.920e+04 2.209e-08
 94.16754    332.0 1.921e+04 2.262e-08
 94.17757    332.7 1.927e+04 2.334e-08
 94.18760    333.5 1.940e+04 2.435e-08
 94.19373    334.1 1.964e+04 2.567e-08
 94.19586    333.4 1.982e+04 1.909e-08
 94.19975    333.7 2.060e+04 3.256e-08
 94.20766    333.9 2.089e+04 3.342e-08
 94.21769    333.9 2.097e+04 3.316e-08
 94.22772    333.9 2.110e+04 3.144e-08
 94.23666    334.0 2.115e+04 2.826e-08
 94.24168    333.8 2.085e+04 1.806e-08
 94.25284    333.5 2.083e+04 1.245e-08
 94.27295    333.3 2.019e+04 8.354e-09
 94.29301    333.0 1.895e+04 5.670e-09
 94.31307    332.9 1.744e+04 4.145e-09
 94.32764    333.1 1.613e+04 3.314e-09
 94.33767    333.2 1.385e+04 2.153e-09
 94.35319    334.4 1.368e+04 2.047e-09
 94.37325    335.7 1.363e+04 1.962e-09
 94.39331    336.9 1.359e+04 1.879e-09
 94.41337    338.0 1.358e+04 1.740e-09
 94.42353    338.7 1.350e+04 1.586e-09
 94.43162    339.3 1.321e+04 1.295e-09
 94.44152    337.7 1.285e+04 1.077e-09
 94.45350    337.7 1.280e+04 1.059e-09
 94.47356    337.8 1.251e+04 9.411e-10
 94.49362    338.1 1.205e+04 7.861e-10
 94.50939    338.6 1.165e+04 6.708e-10
 94.51952    340.9 1.142e+04 6.421e-10
 94.54396    343.0 1.122e+04 5.458e-10
 94.57396    342.8 1.094e+04 4.661e-10
 94.59392    342.9 1.077e+04 4.197e-10
 94.60529    343.0 1.059e+04 3.892e-10
 94.61532    343.5 1.069e+04 3.875e-10
 94.63404    343.7 1.058e+04 3.676e-10
 94.65410    343.8 1.051e+04 3.659e-10
 94.67316    343.9 1.049e+04 3.692e-10
 94.68319    342.0 1.046e+04 3.684e-10
 94.69115    342.2 1.047e+04 3.918e-10
 94.71131    343.8 1.029e+04 3.489e-10
 94.73444    343.4 1.043e+04 3.962e-10
 94.75440    343.5 1.062e+04 4.608e-10
 94.77446    343.6 1.086e+04 5.443e-10
 94.78704    343.6 1.109e+04 6.229e-10
 94.79707    344.6 1.087e+04 5.488e-10
 94.81458    344.5 1.106e+04 6.189e-10
 94.83464    344.4 1.121e+04 6.588e-10
 94.85470    344.2 1.125e+04 6.609e-10
 94.87290    343.9 1.124e+04 6.560e-10
 94.88293    345.3 1.111e+04 6.211e-10
 94.89482    345.1 1.110e+04 6.167e-10
 94.91484    344.8 1.103e+04 5.976e-10
 94.93490    343.7 1.096e+04 5.811e-10
 94.95501    343.7 1.092e+04 5.764e-10
 94.96880    343.6 1.093e+04 5.813e-10
 94.97883    345.2 1.090e+04 5.671e-10
 94.99513    345.1 1.094e+04 5.804e-10
 95.01519    344.9 1.109e+04 6.277e-10
 95.03525    344.4 1.141e+04 7.272e-10
 95.05466    343.7 1.189e+04 9.016e-10
 95.06469    345.5 1.170e+04 8.006e-10
 95.07537    344.6 1.229e+04 1.039e-09
 95.09543    343.6 1.294e+04 1.406e-09
 95.11549    342.6 1.357e+04 1.904e-09
 95.13555    341.7 1.411e+04 2.457e-09
 95.15055    340.9 1.453e+04 2.828e-09
 95.16058    342.3 1.436e+04 2.662e-09
 95.16654    341.4 1.454e+04 2.729e-09
 95.17657    339.6 1.454e+04 2.676e-09
 95.19573    338.6 1.443e+04 2.499e-09
 95.21579    337.8 1.411e+04 2.104e-09
 95.23585    337.0 1.362e+04 1.641e-09
 95.24644    336.3 1.301e+04 1.232e-09
 95.25647    337.8 1.300e+04 1.217e-09
 95.27597    337.1 1.235e+04 9.158e-10
 95.29603    336.5 1.172e+04 7.036e-10
 95.31609    336.0 1.118e+04 5.663e-10
 95.33231    335.7 1.077e+04 4.838e-10
 95.34234    336.6 1.082e+04 4.900e-10
 95.35621    336.5 1.057e+04 4.505e-10
 95.37627    336.5 1.043e+04 4.365e-10
 95.39633    336.7 1.040e+04 4.360e-10
 95.40821    337.1 1.039e+04 4.418e-10
 95.41824    336.2 1.031e+04 4.388e-10
 95.42820    336.7 1.040e+04 4.607e-10
 95.43823    337.1 1.049e+04 4.873e-10
 95.45652    337.6 1.055e+04 5.019e-10
 95.47658    338.0 1.059e+04 5.132e-10
 95.49664    338.4 1.064e+04 5.247e-10
 95.51406    338.7 1.070e+04 5.372e-10
 95.52409    339.0 1.064e+04 5.171e-10
 95.53676    339.3 1.071e+04 5.276e-10
 95.55682    339.5 1.080e+04 5.448e-10
 95.57688    339.6 1.091e+04 5.676e-10
 95.59694    339.7 1.104e+04 5.941e-10
 95.60995    339.6 1.115e+04 6.216e-10
 95.61998    339.6 1.119e+04 6.293e-10
 95.63706    339.5 1.132e+04 6.670e-10
 95.64989    339.3 1.145e+04 7.072e-10
 95.65992    337.4 1.171e+04 8.165e-10
 95.67718    337.1 1.185e+04 8.710e-10
 95.69582    336.4 1.206e+04 9.502e-10
 95.70585    336.7 1.216e+04 1.003e-09
 95.71730    336.3 1.228e+04 1.056e-09
 95.73736    335.9 1.231e+04 1.082e-09
 95.75742    335.6 1.229e+04 1.080e-09
 95.77748    335.3 1.221e+04 1.051e-09
 95.79171    335.2 1.211e+04 1.001e-09
 95.80174    335.6 1.201e+04 9.590e-10
 95.81760    335.4 1.181e+04 8.712e-10
 95.83766    335.2 1.161e+04 7.921e-10
 95.85772    335.0 1.146e+04 7.186e-10
 95.87757    334.7 1.141e+04 6.783e-10
 95.88760    335.5 1.118e+04 6.165e-10
 95.89156    335.2 1.119e+04 6.150e-10
 95.90159    333.7 1.103e+04 5.640e-10
 95.91791    333.3 1.115e+04 5.889e-10
 95.94809    333.7 1.158e+04 6.937e-10
 95.97366    332.7 1.187e+04 7.620e-10
 95.98359    332.1 1.155e+04 6.994e-10
 95.99815    331.4 1.175e+04 7.197e-10
 96.01821    330.2 1.196e+04 7.238e-10
 96.03827    329.0 1.209e+04 7.250e-10
 96.06846    327.3 1.214e+04 6.921e-10
 96.10867    322.1 1.268e+04 7.727e-10
 96.13343    315.7 1.346e+04 1.069e-09
 96.15008    310.9 1.319e+04 1.029e-09
 96.16544    312.5 1.307e+04 1.027e-09
 96.18892    306.8 1.397e+04 1.204e-09
 96.22904    300.4 1.421e+04 1.141e-09
 96.26916    292.6 1.454e+04 8.282e-10
 96.30928    283.6 1.389e+04 4.895e-10
 96.33717    274.8 1.202e+04 3.123e-10
 96.35723    277.0 1.273e+04 3.492e-10
 96.38952    269.7 1.060e+04 2.456e-10
 96.42964    265.1 9.560e+03 1.900e-10
 96.46976    262.1 9.342e+03 1.422e-10
 96.50889    259.4 9.290e+03 1.043e-10
 96.52895    261.0 9.253e+03 1.056e-10
 96.55000    258.6 9.118e+03 8.580e-11
 96.59012    256.3 8.964e+03 8.344e-11
 96.61677    254.5 8.958e+03 8.361e-11
 96.63683    254.2 8.937e+03 8.594e-11
 96.67037    252.9 8.964e+03 8.927e-11
 96.70068    251.4 9.067e+03 9.978e-11
 96.72074    253.9 9.056e+03 9.946e-11
 96.75061    252.5 9.242e+03 1.187e-10
 96.79073    251.0 9.486e+03 1.490e-10
 96.83085    249.5 9.706e+03 1.867e-10
 96.87097    247.9 9.819e+03 2.157e-10
 96.89246    246.4 9.812e+03 2.184e-10
 96.91252    248.7 1.010e+04 2.647e-10
 96.95121    247.2 1.012e+04 2.673e-10
 96.99133    245.5 1.017e+04 2.698e-10
 97.03145    242.9 1.033e+04 2.735e-10
 97.06419    239.1 1.046e+04 2.746e-10
 97.08425    240.7 1.079e+04 3.238e-10
 97.10012    237.3 1.069e+04 3.166e-10
 97.12018    239.1 1.058e+04 3.098e-10
 97.14169    236.7 1.046e+04 3.111e-10
 97.15989    235.7 1.042e+04 3.156e-10
 97.16992    236.1 1.047e+04 3.203e-10
 97.18171    235.3 1.045e+04 3.413e-10
 97.20177    233.3 1.088e+04 4.509e-10
 97.22183    229.4 1.273e+04 1.003e-09
 97.24189    225.1 1.573e+04 2.724e-09
 97.25578    221.3 1.790e+04 6.081e-09
 97.26581    222.7 1.747e+04 5.309e-09
 97.28201    219.1 1.919e+04 8.967e-09
 97.30207    214.8 2.027e+04 9.665e-09
 97.32213    209.3 2.036e+04 9.167e-09
 97.34160    202.9 2.011e+04 7.148e-09
 97.35163    208.7 2.051e+04 7.841e-09
 97.36225    201.4 2.000e+04 5.501e-09
 97.38232    193.3 1.814e+04 4.128e-09
 97.40238    186.5 1.640e+04 3.776e-09
 97.42244    181.9 1.612e+04 3.678e-09
 97.43753    178.2 1.620e+04 3.518e-09
 97.44756    178.3 1.618e+04 3.536e-09
 97.46256    174.5 1.649e+04 3.019e-09
 97.48262    169.7 1.684e+04 2.386e-09
 97.50268    163.8 1.684e+04 1.859e-09
 97.52274    157.6 1.603e+04 1.549e-09
 97.53343    152.4 1.482e+04 1.477e-09
 97.54346    152.3 1.419e+04 1.365e-09
 97.56286    149.1 1.393e+04 1.397e-09
 97.58292    147.4 1.382e+04 1.534e-09
 97.59330    147.1 1.401e+04 1.665e-09
 97.60343    151.7 1.432e+04 1.453e-09
 97.61948    148.7 1.392e+04 1.446e-09
 97.63954    149.6 1.377e+04 1.590e-09
 97.67339    148.6 1.339e+04 1.438e-09
 97.71351    149.0 1.275e+04 9.883e-10
 97.75363    149.6 1.183e+04 5.080e-10
 97.79121    150.4 1.075e+04 2.245e-10
 97.81127    151.2 1.098e+04 3.041e-10
 97.83387    152.1 9.847e+03 1.435e-10
 97.87399    153.5 9.104e+03 9.898e-11
 97.91411    156.1 8.994e+03 9.501e-11
 97.95423    159.1 9.050e+03 9.964e-11
 97.98299    162.1 9.220e+03 1.128e-10
 98.00305    162.0 9.228e+03 1.145e-10
 98.03447    165.1 9.542e+03 1.395e-10
 98.06681    167.6 1.014e+04 1.893e-10
 98.08687    169.7 1.030e+04 2.009e-10
 98.11472    170.1 1.091e+04 2.693e-10
 98.14471    169.1 1.113e+04 3.056e-10
 98.16455    168.6 1.118e+04 3.278e-10
 98.17468    169.4 1.135e+04 3.264e-10
 98.18483    168.1 1.136e+04 3.564e-10
 98.20479    168.1 1.132e+04 3.915e-10
 98.22485    168.0 1.161e+04 4.554e-10
 98.24491    167.9 1.212e+04 5.415e-10
 98.26045    167.6 1.233e+04 6.373e-10
 98.27048    167.8 1.202e+04 6.307e-10
 98.28503    167.6 1.233e+04 7.122e-10
 98.30509    167.2 1.257e+04 7.481e-10
 98.31832    166.7 1.274e+04 7.616e-10
 98.32835    167.7 1.294e+04 8.207e-10
 98.34521    166.9 1.307e+04 8.501e-10
 98.35634    163.4 1.403e+04 9.170e-10
 98.36637    166.8 1.327e+04 9.308e-10
 98.38534    163.5 1.387e+04 1.041e-09
 98.40540    157.8 1.706e+04 1.350e-09
 98.42546    151.8 2.055e+04 3.200e-09
 98.44220    147.3 2.234e+04 7.344e-09
 98.45223    152.0 1.960e+04 3.434e-09
 98.46558    147.4 2.180e+04 7.350e-09
 98.48564    143.4 2.350e+04 1.346e-08
 98.50570    139.6 2.447e+04 1.937e-08
 98.52576    135.6 2.454e+04 2.106e-08
 98.53809    132.6 2.366e+04 1.809e-08
 98.54812    135.5 2.348e+04 1.609e-08
 98.55999    133.4 2.230e+04 1.242e-08
 98.57002    134.3 2.270e+04 1.392e-08
 98.58594    132.5 2.119e+04 8.607e-09
 98.60600    130.1 1.940e+04 4.295e-09
 98.62396    126.3 1.705e+04 1.941e-09
 98.63399    128.9 1.837e+04 3.107e-09
 98.64612    124.9 1.605e+04 1.495e-09
 98.66618    121.4 1.363e+04 7.883e-10
 98.68624    119.2 1.233e+04 5.412e-10
 98.70630    118.3 1.183e+04 4.453e-10
 98.71985    117.9 1.153e+04 3.846e-10
 98.72988    118.5 1.151e+04 3.904e-10
 98.74642    117.8 1.143e+04 3.617e-10
 98.76648    117.3 1.145e+04 3.646e-10
 98.78654    116.6 1.154e+04 3.797e-10
 98.80167    115.4 1.185e+04 4.348e-10
 98.81080    114.2 1.228e+04 5.126e-10
 98.81574    114.5 1.229e+04 5.221e-10
 98.82666    111.7 1.313e+04 7.388e-10
 98.84673    108.9 1.405e+04 1.167e-09
 98.86679    104.6 1.590e+04 2.259e-09
 98.88178    101.4 1.741e+04 3.178e-09
 98.89176     99.0 1.852e+04 4.251e-09
 98.90151     93.7 2.183e+04 6.982e-09
 98.90652     91.1 2.329e+04 8.022e-09
 98.91182     79.8 2.968e+04 1.679e-08
 98.92185     67.7 3.179e+04 3.924e-08
 98.92742     58.5 2.952e+04 6.607e-08
 98.93243     54.2 2.911e+04 7.190e-08
 98.94191     45.1 2.989e+04 5.380e-08
 98.94945     37.2 3.238e+04 2.154e-08
 98.95447     34.4 3.260e+04 1.599e-08
 98.96197     29.6 3.221e+04 7.812e-09
 98.97200     16.9 3.001e+04 3.169e-09
 98.98710     -1.5 1.657e+04 1.747e-09
 98.99750     -7.8 1.377e+04 8.933e-10
 99.00753     -7.1 1.387e+04 8.989e-10
 99.02727    -12.5 1.233e+04 4.757e-10
 99.04334    -16.4 1.154e+04 3.553e-10
 99.05337    -18.7 1.147e+04 3.529e-10
 99.06739    -20.0 1.136e+04 3.390e-10
 99.08336    -20.9 1.158e+04 3.524e-10
 99.09339    -20.9 1.155e+04 3.550e-10
 99.11764    -23.3 1.170e+04 3.682e-10
 99.15786    -26.6 1.164e+04 3.645e-10
 99.19798    -29.2 1.122e+04 3.322e-10
 99.23810    -30.4 1.089e+04 3.030e-10
 99.26531    -31.0 1.069e+04 2.780e-10
 99.28537    -29.4 1.084e+04 3.101e-10
 99.31834    -29.7 1.081e+04 2.796e-10
 99.35846    -30.6 1.082e+04 2.492e-10
 99.39858    -31.8 1.083e+04 2.421e-10
 99.43703    -32.9 1.096e+04 2.580e-10
 99.45709    -33.6 1.115e+04 2.747e-10
 99.46870    -34.1 1.112e+04 3.182e-10
 99.48866    -34.2 1.115e+04 3.423e-10
 99.50872    -34.9 1.111e+04 4.129e-10
 99.52668    -33.4 1.112e+04 4.737e-10
 99.53671    -33.8 1.133e+04 5.255e-10
 99.54276    -32.5 1.154e+04 6.131e-10
 99.55279    -32.6 1.206e+04 7.782e-10
 99.56890    -31.7 1.233e+04 8.657e-10
 99.58896    -31.2 1.249e+04 9.189e-10
 99.60902    -31.1 1.258e+04 9.549e-10
 99.62862    -31.3 1.263e+04 1.009e-09
 99.63865    -32.3 1.294e+04 1.227e-09
 99.64914    -33.5 1.340e+04 1.414e-09
 99.66920    -35.0 1.420e+04 1.753e-09
 99.68926    -36.3 1.500e+04 2.191e-09
 99.70932    -37.3 1.559e+04 2.585e-09
 99.72452    -38.5 1.605e+04 2.870e-09
 99.73455    -41.2 1.686e+04 3.525e-09
 99.74944    -43.2 1.703e+04 3.615e-09
 99.76836    -46.1 1.717e+04 3.631e-09
 99.77839    -49.4 1.921e+04 6.263e-09
 99.78956    -54.0 1.966e+04 6.980e-09
 99.80962    -57.9 1.965e+04 8.724e-09
 99.82041    -60.2 1.967e+04 1.104e-08
 99.83044    -60.8 1.973e+04 1.135e-08
 99.84975    -62.1 1.988e+04 1.218e-08
 99.86981    -63.6 1.981e+04 1.183e-08
 99.88987    -65.0 1.946e+04 8.615e-09
 99.90627    -67.9 1.891e+04 5.500e-09
 99.91630    -69.2 1.850e+04 4.617e-09
 99.92999    -74.2 1.764e+04 3.565e-09
 99.95005    -78.7 1.747e+04 3.425e-09
 99.97011    -81.9 1.803e+04 4.159e-09
 99.99017    -83.9 1.877e+04 5.764e-09
