# Columns:
#   distance along LOS (in CHIMPs)
#   peculiar velocity  (in km/s)
#   temperature (K)
#   HI number density
# pos=(179.331,244.025,247.468), angles=(0.39936,0.181919)
  0.00293   -142.1 1.172e+04 9.498e-10
  0.02706   -142.2 1.119e+04 6.604e-10
  0.05878   -142.1 1.106e+04 5.475e-10
  0.07998   -143.4 1.076e+04 4.193e-10
  0.11186   -143.2 1.082e+04 4.117e-10
  0.15226   -143.2 1.090e+04 4.012e-10
  0.17345   -145.2 1.068e+04 3.660e-10
  0.19665   -145.7 1.079e+04 3.791e-10
  0.23905   -146.7 1.100e+04 4.098e-10
  0.26693   -148.6 1.133e+04 4.967e-10
  0.28813   -150.2 1.123e+04 5.189e-10
  0.32385   -152.5 1.162e+04 6.856e-10
  0.35555   -155.7 1.178e+04 8.555e-10
  0.37080   -157.2 1.191e+04 9.506e-10
  0.38140   -158.0 1.193e+04 9.615e-10
  0.39785   -159.7 1.200e+04 9.991e-10
  0.41754   -161.5 1.200e+04 1.004e-09
  0.42814   -162.3 1.197e+04 9.999e-10
  0.44025   -164.0 1.188e+04 9.258e-10
  0.46145   -165.5 1.184e+04 8.373e-10
  0.47497   -166.9 1.193e+04 7.645e-10
  0.48557   -168.2 1.158e+04 6.821e-10
  0.49680   -169.5 1.156e+04 6.220e-10
  0.50740   -171.5 1.137e+04 5.711e-10
  0.52161   -172.6 1.141e+04 5.475e-10
  0.53221   -173.4 1.121e+04 5.210e-10
  0.54625   -174.3 1.121e+04 5.136e-10
  0.56845   -175.6 1.129e+04 5.131e-10
  0.58974   -176.2 1.093e+04 4.757e-10
  0.62064   -177.8 1.090e+04 4.602e-10
  0.66202   -178.8 1.075e+04 4.322e-10
  0.68322   -179.1 1.046e+04 3.581e-10
  0.70544   -179.8 1.022e+04 3.195e-10
  0.74784   -180.1 9.969e+03 2.828e-10
  0.77669   -180.2 9.743e+03 2.515e-10
  0.79789   -179.5 9.534e+03 2.215e-10
  0.83264   -179.2 9.436e+03 2.087e-10
  0.87016   -178.7 9.412e+03 2.038e-10
  0.89136   -178.0 9.316e+03 1.870e-10
  0.91743   -177.6 9.372e+03 1.934e-10
  0.95983   -177.5 9.482e+03 2.081e-10
  0.98483   -177.5 9.611e+03 2.300e-10
  1.00603   -176.9 9.519e+03 2.059e-10
  1.03963   -177.1 9.628e+03 2.263e-10
  1.06083   -177.6 9.679e+03 2.273e-10
  1.07831   -177.8 9.695e+03 2.382e-10
  1.09951   -177.3 9.666e+03 2.276e-10
  1.12943   -177.4 9.697e+03 2.356e-10
  1.17178   -177.3 9.668e+03 2.334e-10
  1.21418   -176.7 9.645e+03 2.237e-10
  1.25663   -176.4 9.534e+03 2.057e-10
  1.28645   -176.0 9.450e+03 1.931e-10
  1.30765   -175.6 9.480e+03 1.919e-10
  1.34142   -175.0 9.455e+03 1.891e-10
  1.37992   -174.4 9.474e+03 1.933e-10
  1.40112   -173.9 9.505e+03 1.867e-10
  1.42622   -173.4 9.671e+03 2.138e-10
  1.46862   -173.0 9.876e+03 2.638e-10
  1.49460   -172.6 1.006e+04 3.171e-10
  1.51580   -172.1 1.005e+04 2.919e-10
  1.55342   -171.7 1.022e+04 3.516e-10
  1.58807   -171.3 1.031e+04 3.776e-10
  1.60632   -170.7 1.036e+04 3.918e-10
  1.61407   -169.7 1.023e+04 3.316e-10
  1.63822   -169.2 1.037e+04 3.732e-10
  1.68061   -168.9 1.039e+04 3.805e-10
  1.70274   -168.7 1.033e+04 3.244e-10
  1.72394   -168.2 1.044e+04 3.637e-10
  1.76541   -168.2 1.031e+04 2.700e-10
  1.79621   -168.3 1.024e+04 2.017e-10
  1.81741   -167.9 1.032e+04 2.178e-10
  1.85021   -168.1 1.030e+04 1.785e-10
  1.88969   -168.1 1.031e+04 1.735e-10
  1.91089   -167.9 1.033e+04 1.735e-10
  1.93501   -167.9 1.025e+04 1.848e-10
  1.97741   -168.0 1.052e+04 2.569e-10
  2.00436   -167.9 1.085e+04 3.981e-10
  2.02556   -167.5 1.080e+04 3.554e-10
  2.06220   -167.3 1.115e+04 5.158e-10
  2.09783   -167.0 1.152e+04 6.582e-10
  2.11903   -166.8 1.142e+04 6.044e-10
  2.14611   -166.5 1.163e+04 6.494e-10
  2.16731   -166.4 1.166e+04 6.423e-10
  2.17870   -165.6 1.167e+04 6.285e-10
  2.19980   -165.5 1.165e+04 6.276e-10
  2.21231   -164.8 1.160e+04 6.079e-10
  2.23360   -164.2 1.158e+04 5.544e-10
  2.27420   -163.4 1.156e+04 5.207e-10
  2.30598   -161.9 1.152e+04 4.854e-10
  2.32717   -161.2 1.143e+04 4.269e-10
  2.35900   -159.3 1.144e+04 4.236e-10
  2.39945   -157.5 1.146e+04 4.267e-10
  2.42065   -157.0 1.134e+04 3.466e-10
  2.44379   -155.6 1.164e+04 3.765e-10
  2.48619   -154.6 1.205e+04 5.416e-10
  2.51412   -153.9 1.264e+04 9.543e-10
  2.53532   -154.0 1.261e+04 9.811e-10
  2.57099   -153.7 1.326e+04 1.634e-09
  2.60269   -153.5 1.354e+04 2.007e-09
  2.61800   -153.7 1.367e+04 2.127e-09
  2.62869   -153.6 1.327e+04 1.723e-09
  2.64509   -153.9 1.341e+04 1.849e-09
  2.66473   -154.2 1.342e+04 1.844e-09
  2.67533   -154.1 1.317e+04 1.612e-09
  2.68739   -154.7 1.314e+04 1.538e-09
  2.70859   -155.0 1.312e+04 1.483e-09
  2.72035   -155.8 1.312e+04 1.437e-09
  2.72323   -155.9 1.318e+04 1.590e-09
  2.73267   -156.1 1.304e+04 1.456e-09
  2.75099   -157.0 1.312e+04 1.468e-09
  2.76881   -158.2 1.342e+04 1.552e-09
  2.77941   -158.5 1.327e+04 1.429e-09
  2.79339   -160.1 1.359e+04 1.520e-09
  2.81459   -162.1 1.394e+04 1.654e-09
  2.82614   -164.5 1.417e+04 1.847e-09
  2.83674   -164.0 1.378e+04 1.522e-09
  2.85699   -166.2 1.384e+04 1.596e-09
  2.87288   -168.0 1.386e+04 1.627e-09
  2.88348   -166.8 1.356e+04 1.406e-09
  2.89939   -168.6 1.327e+04 1.406e-09
  2.91961   -169.4 1.281e+04 1.276e-09
  2.93021   -168.1 1.277e+04 1.170e-09
  2.94179   -168.6 1.227e+04 9.325e-10
  2.96298   -168.6 1.197e+04 6.885e-10
  2.97695   -168.6 1.178e+04 5.077e-10
  2.98755   -167.5 1.178e+04 4.909e-10
  2.99697   -167.8 1.172e+04 4.219e-10
  3.00757   -167.9 1.169e+04 4.267e-10
  3.02378   -168.4 1.154e+04 3.502e-10
  3.04508   -166.7 1.149e+04 3.404e-10
  3.07978   -166.4 1.111e+04 2.378e-10
  3.11735   -165.7 1.080e+04 1.864e-10
  3.13855   -164.2 1.079e+04 1.707e-10
  3.16457   -163.2 1.064e+04 1.521e-10
  3.20697   -162.1 1.061e+04 1.486e-10
  3.23203   -161.0 1.057e+04 1.526e-10
  3.25323   -159.8 1.055e+04 1.326e-10
  3.27379   -158.6 1.051e+04 1.573e-10
  3.29499   -158.7 1.046e+04 1.361e-10
  3.32550   -157.3 1.046e+04 1.757e-10
  3.34670   -156.3 1.045e+04 1.561e-10
  3.37657   -154.7 1.047e+04 2.007e-10
  3.41897   -153.1 1.050e+04 2.416e-10
  3.46137   -150.5 1.046e+04 2.440e-10
  3.50377   -148.8 1.046e+04 2.572e-10
  3.53364   -147.0 1.045e+04 2.595e-10
  3.55484   -146.2 1.037e+04 2.460e-10
  3.58856   -144.5 1.036e+04 2.477e-10
  3.62712   -142.7 1.026e+04 2.308e-10
  3.64832   -142.0 1.025e+04 2.303e-10
  3.67336   -140.2 1.017e+04 2.126e-10
  3.71576   -138.3 1.011e+04 1.932e-10
  3.74179   -136.4 1.003e+04 1.779e-10
  3.76299   -135.8 9.973e+03 1.751e-10
  3.80056   -134.0 9.952e+03 1.652e-10
  3.82703   -132.1 9.957e+03 1.619e-10
  3.84053   -132.6 9.924e+03 1.721e-10
  3.85646   -132.2 9.908e+03 1.719e-10
  3.88536   -130.7 9.927e+03 1.698e-10
  3.92775   -129.6 1.004e+04 2.047e-10
  3.94993   -128.6 1.018e+04 3.087e-10
  3.97113   -128.2 1.006e+04 2.795e-10
  4.01255   -127.0 1.018e+04 3.906e-10
  4.04341   -125.8 1.030e+04 5.098e-10
  4.06461   -125.4 1.005e+04 3.883e-10
  4.09735   -124.3 1.006e+04 4.202e-10
  4.13688   -123.1 1.003e+04 4.202e-10
  4.15808   -122.6 9.775e+03 3.136e-10
  4.18215   -121.5 9.690e+03 2.959e-10
  4.22455   -120.3 9.605e+03 2.797e-10
  4.25155   -119.0 9.542e+03 2.686e-10
  4.27275   -118.5 9.410e+03 2.331e-10
  4.30934   -117.2 9.387e+03 2.329e-10
  4.34502   -115.9 9.358e+03 2.369e-10
  4.36622   -115.3 9.264e+03 2.205e-10
  4.38026   -113.9 9.216e+03 2.207e-10
  4.40146   -113.9 8.960e+03 1.415e-10
  4.43654   -112.4 8.902e+03 1.398e-10
  4.45970   -110.6 8.853e+03 1.353e-10
  4.48089   -109.9 8.736e+03 1.179e-10
  4.52134   -107.9 8.679e+03 1.070e-10
  4.55317   -105.9 8.634e+03 9.843e-11
  4.57437   -105.1 8.552e+03 8.490e-11
  4.60614   -102.9 8.517e+03 7.843e-11
  4.64664   -100.7 8.509e+03 7.545e-11
  4.66784   -100.0 8.448e+03 6.901e-11
  4.69093    -97.5 8.434e+03 6.788e-11
  4.73333    -94.8 8.435e+03 6.734e-11
  4.76131    -91.9 8.460e+03 6.718e-11
  4.78251    -91.3 8.424e+03 6.501e-11
  4.81813    -88.4 8.500e+03 6.628e-11
  4.85479    -86.2 8.783e+03 7.467e-11
  4.87598    -85.6 8.725e+03 7.270e-11
  4.90293    -85.3 9.437e+03 1.260e-10
  4.93350    -86.3 1.190e+04 6.051e-10
  4.94401    -89.8 1.199e+04 8.678e-10
  4.95573    -89.8 1.344e+04 2.209e-09
  4.96926    -89.7 1.480e+04 4.817e-09
  4.97986    -90.4 1.486e+04 4.946e-09
  4.99813    -89.1 1.602e+04 8.399e-09
  5.01600    -88.2 1.664e+04 1.041e-08
  5.02660    -88.8 1.606e+04 9.057e-09
  5.04053    -87.9 1.604e+04 8.459e-09
  5.06173    -87.8 1.563e+04 5.397e-09
  5.07333    -90.9 1.525e+04 3.041e-09
  5.08393    -92.2 1.423e+04 2.206e-09
  5.10413    -98.2 1.352e+04 1.596e-09
  5.12007   -103.5 1.325e+04 1.538e-09
  5.13067   -105.1 1.190e+04 1.195e-09
  5.14653   -107.9 1.227e+04 1.520e-09
  5.16681   -109.6 1.316e+04 2.152e-09
  5.17741   -110.4 1.199e+04 1.489e-09
  5.18893   -111.8 1.253e+04 1.689e-09
  5.20993   -112.5 1.316e+04 1.950e-09
  5.22053   -112.0 1.215e+04 1.402e-09
  5.22414   -113.4 1.289e+04 1.642e-09
  5.23474   -115.3 1.144e+04 1.056e-09
  5.25252   -118.2 1.289e+04 1.439e-09
  5.27088   -121.8 1.488e+04 2.691e-09
  5.28148   -123.0 1.343e+04 1.735e-09
  5.29492   -125.6 1.479e+04 3.246e-09
  5.31612   -126.6 1.550e+04 5.031e-09
  5.32822   -127.2 1.580e+04 6.124e-09
  5.33881   -128.8 1.453e+04 4.003e-09
  5.35852   -129.2 1.470e+04 4.255e-09
  5.37495   -129.9 1.465e+04 3.858e-09
  5.38555   -132.1 1.363e+04 2.846e-09
  5.40092   -133.7 1.325e+04 2.096e-09
  5.42169   -136.0 1.272e+04 1.473e-09
  5.43229   -136.8 1.251e+04 1.439e-09
  5.44332   -138.8 1.235e+04 1.266e-09
  5.46452   -140.4 1.232e+04 1.237e-09
  5.47902   -141.9 1.239e+04 1.247e-09
  5.48962   -142.2 1.240e+04 1.267e-09
  5.49715   -143.5 1.263e+04 1.377e-09
  5.50775   -142.7 1.241e+04 1.218e-09
  5.52576   -143.7 1.262e+04 1.362e-09
  5.53636   -143.7 1.245e+04 1.315e-09
  5.54932   -144.5 1.261e+04 1.472e-09
  5.57051   -144.9 1.278e+04 1.620e-09
  5.58310   -145.3 1.292e+04 1.701e-09
  5.59370   -144.9 1.255e+04 1.503e-09
  5.61291   -145.1 1.262e+04 1.534e-09
  5.62983   -145.4 1.271e+04 1.523e-09
  5.64043   -144.7 1.245e+04 1.334e-09
  5.65531   -144.9 1.252e+04 1.335e-09
  5.67651   -145.1 1.251e+04 1.293e-09
  5.69771   -144.2 1.235e+04 1.211e-09
  5.71891   -144.0 1.228e+04 1.177e-09
  5.73390   -143.6 1.212e+04 1.091e-09
  5.74450   -142.6 1.214e+04 1.128e-09
  5.76131   -142.0 1.197e+04 1.004e-09
  5.77377   -141.5 1.177e+04 8.438e-10
  5.78250   -141.0 1.164e+04 7.367e-10
  5.79124   -140.0 1.178e+04 7.850e-10
  5.80371   -139.7 1.155e+04 5.971e-10
  5.82491   -139.5 1.129e+04 4.635e-10
  5.83798   -139.4 1.104e+04 3.891e-10
  5.84858   -138.8 1.137e+04 4.086e-10
  5.86731   -138.8 1.121e+04 3.751e-10
  5.88471   -138.6 1.116e+04 3.691e-10
  5.89531   -138.4 1.144e+04 4.355e-10
  5.90971   -138.2 1.141e+04 4.421e-10
  5.93091   -138.1 1.139e+04 4.986e-10
  5.94205   -138.0 1.143e+04 5.883e-10
  5.95265   -137.7 1.158e+04 7.220e-10
  5.97330   -137.4 1.165e+04 8.216e-10
  5.98879   -137.1 1.175e+04 9.337e-10
  5.99939   -136.7 1.185e+04 9.999e-10
  6.01570   -136.5 1.190e+04 1.064e-09
  6.03552   -136.3 1.199e+04 1.133e-09
  6.04612   -135.9 1.195e+04 1.056e-09
  6.05039   -135.8 1.201e+04 1.058e-09
  6.06099   -135.4 1.180e+04 9.836e-10
  6.07930   -135.2 1.186e+04 9.968e-10
  6.09286   -135.1 1.196e+04 1.007e-09
  6.10346   -134.6 1.182e+04 8.616e-10
  6.12170   -134.6 1.196e+04 8.701e-10
  6.13959   -134.6 1.209e+04 8.936e-10
  6.15019   -134.0 1.200e+04 7.866e-10
  6.16410   -134.0 1.208e+04 8.274e-10
  6.18530   -133.8 1.206e+04 8.541e-10
  6.19693   -133.6 1.204e+04 8.624e-10
  6.20753   -132.8 1.203e+04 8.301e-10
  6.22770   -132.4 1.186e+04 8.305e-10
  6.24367   -131.7 1.157e+04 7.267e-10
  6.25427   -130.9 1.162e+04 7.548e-10
  6.27010   -130.3 1.147e+04 5.885e-10
  6.29040   -129.9 1.138e+04 4.562e-10
  6.30100   -129.1 1.142e+04 4.751e-10
  6.31250   -128.7 1.133e+04 3.944e-10
  6.34439   -128.2 1.126e+04 3.601e-10
  6.38407   -127.8 1.110e+04 3.168e-10
  6.40527   -126.2 1.106e+04 3.064e-10
  6.42929   -125.5 1.092e+04 2.841e-10
  6.47169   -124.5 1.089e+04 2.843e-10
  6.49874   -123.4 1.092e+04 2.974e-10
  6.51994   -122.2 1.081e+04 2.633e-10
  6.55648   -121.1 1.084e+04 2.728e-10
  6.59222   -119.8 1.086e+04 2.872e-10
  6.60775   -118.7 1.080e+04 2.535e-10
  6.61442   -117.5 1.080e+04 2.509e-10
  6.64128   -116.3 1.080e+04 2.565e-10
  6.68368   -114.9 1.076e+04 2.628e-10
  6.70689   -113.4 1.070e+04 2.648e-10
  6.72809   -112.4 1.063e+04 2.163e-10
  6.76848   -110.7 1.053e+04 2.025e-10
  6.80036   -109.0 1.045e+04 1.817e-10
  6.82156   -108.0 1.043e+04 1.483e-10
  6.85328   -106.3 1.043e+04 1.396e-10
  6.89383   -104.6 1.045e+04 1.383e-10
  6.91503   -103.9 1.049e+04 1.317e-10
  6.93807   -102.8 1.068e+04 1.412e-10
  6.98047   -102.2 1.104e+04 2.144e-10
  7.00851   -101.5 1.140e+04 4.116e-10
  7.02970   -101.0 1.137e+04 4.141e-10
  7.06527   -100.2 1.181e+04 7.202e-10
  7.09697    -99.1 1.201e+04 8.617e-10
  7.11238    -99.0 1.229e+04 1.022e-09
  7.12308    -99.0 1.200e+04 8.022e-10
  7.14646    -98.3 1.213e+04 8.815e-10
  7.16766    -96.8 1.194e+04 7.825e-10
  7.19247    -96.2 1.210e+04 8.478e-10
  7.21665    -95.6 1.212e+04 8.082e-10
  7.22715    -95.4 1.177e+04 6.431e-10
  7.24527    -94.9 1.177e+04 6.254e-10
  7.26319    -94.5 1.167e+04 5.993e-10
  7.27379    -93.8 1.150e+04 5.149e-10
  7.28767    -93.5 1.146e+04 5.067e-10
  7.30887    -93.0 1.141e+04 5.015e-10
  7.32053    -92.8 1.142e+04 5.180e-10
  7.33122    -92.3 1.126e+04 4.341e-10
  7.36206    -91.5 1.115e+04 4.346e-10
  7.40360    -90.5 1.108e+04 4.594e-10
  7.42479    -89.8 1.071e+04 3.572e-10
  7.44686    -88.6 1.067e+04 3.847e-10
  7.48926    -87.2 1.066e+04 3.965e-10
  7.51827    -85.8 1.066e+04 3.694e-10
  7.53947    -85.4 1.042e+04 3.462e-10
  7.57406    -84.1 1.050e+04 3.323e-10
  7.61174    -82.9 1.045e+04 3.114e-10
  7.63294    -82.4 1.020e+04 2.962e-10
  7.65885    -81.1 1.018e+04 2.741e-10
  7.69970    -79.9 1.017e+04 2.654e-10
  7.72090    -79.2 9.994e+03 2.096e-10
  7.72641    -78.1 9.967e+03 2.093e-10
  7.74761    -77.4 9.855e+03 1.807e-10
  7.78605    -76.2 9.815e+03 1.823e-10
  7.81988    -75.1 9.748e+03 1.860e-10
  7.84108    -74.3 9.678e+03 1.675e-10
  7.87085    -73.1 9.586e+03 1.611e-10
  7.91325    -71.9 9.512e+03 1.500e-10
  7.95565    -69.9 9.369e+03 1.168e-10
  7.99805    -68.7 9.237e+03 1.103e-10
  8.02803    -67.4 9.151e+03 1.102e-10
  8.04923    -66.8 9.091e+03 8.759e-11
  8.08284    -65.4 8.994e+03 9.083e-11
  8.12150    -64.1 8.950e+03 9.727e-11
  8.14270    -63.6 8.921e+03 8.550e-11
  8.16764    -62.6 8.942e+03 9.439e-11
  8.21004    -61.9 8.958e+03 1.093e-10
  8.23617    -61.3 8.958e+03 1.347e-10
  8.25737    -60.7 8.964e+03 1.273e-10
  8.27414    -60.1 8.978e+03 1.547e-10
  8.29534    -59.4 8.917e+03 1.448e-10
  8.32965    -58.8 8.896e+03 1.559e-10
  8.35085    -58.2 8.923e+03 1.480e-10
  8.37964    -58.0 8.915e+03 1.611e-10
  8.42203    -58.0 8.969e+03 1.748e-10
  8.44432    -58.4 9.039e+03 1.972e-10
  8.46552    -58.2 9.234e+03 2.448e-10
  8.50683    -58.9 9.291e+03 2.624e-10
  8.53779    -59.6 9.158e+03 2.586e-10
  8.55899    -59.6 9.301e+03 3.081e-10
  8.59163    -60.1 8.946e+03 2.373e-10
  8.63126    -60.4 8.648e+03 1.695e-10
  8.65246    -60.7 8.753e+03 1.794e-10
  8.67643    -61.2 8.534e+03 1.255e-10
  8.71883    -61.8 8.444e+03 1.142e-10
  8.74594    -61.8 8.385e+03 1.215e-10
  8.76714    -61.6 8.407e+03 1.353e-10
  8.80362    -61.0 8.376e+03 1.555e-10
  8.82738    -60.0 8.376e+03 1.651e-10
  8.84196    -60.2 8.419e+03 1.884e-10
  8.86061    -59.7 8.254e+03 1.537e-10
  8.88842    -58.8 8.193e+03 1.418e-10
  8.93082    -57.9 8.151e+03 1.322e-10
  8.95408    -57.0 8.151e+03 1.273e-10
  8.97528    -56.4 8.023e+03 1.056e-10
  9.01562    -55.8 8.203e+03 1.137e-10
  9.04755    -55.8 8.472e+03 1.447e-10
  9.06875    -55.2 8.438e+03 1.460e-10
  9.10042    -55.4 8.802e+03 2.235e-10
  9.14103    -55.5 9.298e+03 3.680e-10
  9.16223    -54.5 9.175e+03 3.300e-10
  9.18521    -54.9 9.664e+03 4.641e-10
  9.22761    -55.7 1.002e+04 5.819e-10
  9.25570    -56.4 1.013e+04 6.323e-10
  9.27690    -55.9 9.959e+03 5.520e-10
  9.31241    -56.0 1.007e+04 6.200e-10
  9.34917    -55.9 1.011e+04 5.777e-10
  9.37037    -55.3 1.009e+04 5.906e-10
  9.38061    -55.0 1.008e+04 5.222e-10
  9.40181    -55.4 1.020e+04 5.570e-10
  9.43961    -55.5 1.016e+04 4.736e-10
  9.46384    -55.4 1.002e+04 4.201e-10
  9.48504    -54.6 1.014e+04 4.877e-10
  9.52440    -53.9 9.929e+03 4.301e-10
  9.55732    -52.7 9.544e+03 3.019e-10
  9.57851    -51.7 9.703e+03 3.754e-10
  9.60920    -50.4 9.279e+03 2.074e-10
  9.65079    -49.4 8.965e+03 1.015e-10
  9.67199    -48.3 9.134e+03 1.322e-10
  9.69400    -47.7 8.910e+03 7.136e-11
  9.73640    -47.0 8.635e+03 5.777e-11
  9.76546    -45.9 8.533e+03 5.608e-11
  9.78666    -44.9 8.773e+03 6.639e-11
  9.82120    -43.9 8.751e+03 6.400e-11
  9.85893    -43.4 8.718e+03 7.688e-11
  9.88013    -43.1 9.320e+03 9.369e-11
  9.90599    -43.7 9.396e+03 1.447e-10
  9.93385    -44.4 9.605e+03 2.256e-10
  9.95505    -44.3 1.019e+04 4.763e-10
  9.97360    -45.1 1.031e+04 4.903e-10
  9.99480    -45.1 1.077e+04 6.875e-10
 10.03319    -47.0 1.031e+04 4.642e-10
 10.06708    -48.1 1.020e+04 4.463e-10
 10.08828    -48.7 1.021e+04 3.916e-10
 10.11799    -49.0 1.013e+04 3.586e-10
 10.16039    -48.8 1.017e+04 3.558e-10
 10.20279    -50.4 1.052e+04 3.528e-10
 10.24519    -50.9 1.101e+04 6.495e-10
 10.27522    -50.4 1.187e+04 1.179e-09
 10.29642    -50.5 1.127e+04 7.658e-10
 10.31929    -50.1 1.161e+04 8.179e-10
 10.33236    -50.0 1.175e+04 7.900e-10
 10.34296    -50.0 1.139e+04 6.562e-10
 10.36159    -51.2 1.117e+04 4.583e-10
 10.37910    -51.4 1.134e+04 4.336e-10
 10.38970    -51.2 1.100e+04 3.443e-10
 10.40399    -51.8 1.105e+04 3.323e-10
 10.42519    -51.8 1.128e+04 3.452e-10
 10.43643    -51.9 1.160e+04 3.757e-10
 10.44703    -51.2 1.147e+04 3.125e-10
 10.46758    -51.4 1.183e+04 3.492e-10
 10.48317    -51.9 1.218e+04 4.326e-10
 10.49188    -51.4 1.206e+04 3.702e-10
 10.49750    -50.5 1.175e+04 2.794e-10
 10.50998    -50.7 1.193e+04 3.452e-10
 10.52991    -51.0 1.197e+04 4.914e-10
 10.54051    -50.6 1.198e+04 4.665e-10
 10.55238    -50.4 1.221e+04 7.339e-10
 10.57358    -49.6 1.257e+04 1.066e-09
 10.58724    -48.9 1.307e+04 1.448e-09
 10.59784    -48.4 1.289e+04 1.412e-09
 10.61598    -47.9 1.329e+04 1.774e-09
 10.63398    -48.2 1.411e+04 2.291e-09
 10.64458    -47.1 1.361e+04 2.125e-09
 10.65838    -47.8 1.489e+04 2.959e-09
 10.67958    -49.0 1.586e+04 4.635e-09
 10.69132    -49.5 1.601e+04 6.803e-09
 10.70192    -49.1 1.670e+04 7.164e-09
 10.72198    -49.2 1.690e+04 1.045e-08
 10.73805    -49.0 1.730e+04 1.150e-08
 10.74865    -49.6 1.841e+04 1.872e-08
 10.76352    -49.6 1.921e+04 1.897e-08
 10.77407    -49.2 1.964e+04 3.709e-08
 10.78018    -48.9 2.037e+04 3.392e-08
 10.78999    -49.1 2.152e+04 2.374e-08
 10.79529    -49.2 2.092e+04 4.301e-08
 10.80138    -50.0 2.219e+04 2.770e-08
 10.81198    -52.0 2.384e+04 1.578e-08
 10.81866    -54.4 2.364e+04 1.091e-08
 10.82396    -54.6 2.299e+04 1.840e-08
 10.83318    -56.7 2.267e+04 1.151e-08
 10.84208    -59.7 2.081e+04 7.612e-09
 10.84738    -58.9 2.135e+04 1.397e-08
 10.85438    -61.0 1.998e+04 1.103e-08
 10.87032    -62.1 1.877e+04 1.197e-08
 10.88886    -62.6 1.666e+04 6.974e-09
 10.89946    -62.3 1.760e+04 1.402e-08
 10.91277    -62.1 1.593e+04 7.974e-09
 10.93397    -61.3 1.490e+04 4.492e-09
 10.94620    -60.7 1.412e+04 2.756e-09
 10.95680    -60.3 1.455e+04 4.030e-09
 10.97637    -59.9 1.397e+04 2.657e-09
 10.99303    -59.6 1.332e+04 1.888e-09
 11.00363    -59.6 1.375e+04 2.672e-09
 11.01877    -58.8 1.350e+04 2.277e-09
 11.03967    -57.9 1.334e+04 2.134e-09
 11.05027    -57.6 1.354e+04 2.430e-09
 11.05073    -56.8 1.346e+04 2.294e-09
 11.06133    -57.0 1.348e+04 2.085e-09
 11.08650    -56.8 1.340e+04 2.030e-09
 11.10770    -55.6 1.378e+04 2.593e-09
 11.13546    -55.4 1.387e+04 2.767e-09
 11.16726    -54.4 1.389e+04 2.994e-09
 11.18837    -53.9 1.388e+04 2.972e-09
 11.20108    -53.6 1.382e+04 2.877e-09
 11.21168    -52.8 1.381e+04 3.207e-09
 11.23076    -52.5 1.383e+04 3.116e-09
 11.24781    -52.5 1.394e+04 3.118e-09
 11.25841    -52.1 1.439e+04 3.745e-09
 11.27316    -52.5 1.460e+04 4.309e-09
 11.29436    -52.3 1.477e+04 5.006e-09
 11.30515    -51.9 1.489e+04 5.331e-09
 11.31575    -51.4 1.561e+04 7.727e-09
 11.32735    -50.9 1.572e+04 7.810e-09
 11.33795    -51.0 1.597e+04 8.912e-09
 11.35189    -50.4 1.563e+04 6.669e-09
 11.36249    -50.0 1.639e+04 9.653e-09
 11.37916    -49.5 1.584e+04 6.276e-09
 11.39862    -49.3 1.512e+04 4.015e-09
 11.40922    -49.1 1.558e+04 5.942e-09
 11.42156    -48.9 1.492e+04 3.896e-09
 11.44276    -48.4 1.404e+04 2.692e-09
 11.45596    -47.6 1.334e+04 2.129e-09
 11.46656    -47.0 1.389e+04 2.666e-09
 11.48516    -46.2 1.340e+04 2.135e-09
 11.50279    -45.9 1.298e+04 1.773e-09
 11.51339    -44.9 1.316e+04 2.153e-09
 11.52756    -43.7 1.309e+04 1.965e-09
 11.55945    -42.9 1.301e+04 1.816e-09
 11.59357    -41.1 1.259e+04 1.362e-09
 11.60918    -40.6 1.248e+04 1.321e-09
 11.61756    -39.4 1.263e+04 1.357e-09
 11.64435    -38.0 1.233e+04 1.184e-09
 11.68675    -36.0 1.222e+04 1.163e-09
 11.71104    -33.9 1.214e+04 1.250e-09
 11.73223    -33.0 1.218e+04 1.272e-09
 11.77154    -30.7 1.213e+04 1.383e-09
 11.80451    -28.1 1.188e+04 1.278e-09
 11.82571    -27.0 1.206e+04 1.341e-09
 11.85634    -24.5 1.184e+04 1.106e-09
 11.89798    -22.3 1.174e+04 9.746e-10
 11.91918    -21.3 1.184e+04 9.145e-10
 11.94114    -19.1 1.182e+04 9.033e-10
 11.98354    -17.3 1.198e+04 1.085e-09
 12.01265    -15.7 1.215e+04 1.467e-09
 12.03385    -15.4 1.225e+04 1.393e-09
 12.06834    -13.2 1.254e+04 2.299e-09
 12.10612    -10.6 1.310e+04 3.002e-09
 12.12732     -9.6 1.267e+04 2.612e-09
 12.14681     -8.0 1.286e+04 2.692e-09
 12.16764     -7.0 1.233e+04 2.149e-09
 12.17387     -5.8 1.245e+04 2.121e-09
 12.19544     -5.5 1.283e+04 2.314e-09
 12.22080     -3.7 1.296e+04 2.107e-09
 12.24200     -2.1 1.214e+04 1.591e-09
 12.28033     -0.3 1.249e+04 1.610e-09
 12.31427      1.3 1.312e+04 1.618e-09
 12.33547      2.7 1.202e+04 1.206e-09
 12.36513      4.5 1.249e+04 1.639e-09
 12.40753      6.5 1.296e+04 1.906e-09
 12.42894      8.5 1.304e+04 1.845e-09
 12.45014     10.0 1.281e+04 1.822e-09
 12.49233     12.0 1.294e+04 1.631e-09
 12.52241     13.4 1.300e+04 1.561e-09
 12.54361     15.6 1.281e+04 1.431e-09
 12.57712     16.8 1.288e+04 1.377e-09
 12.61589     17.5 1.283e+04 1.703e-09
 12.63709     19.7 1.277e+04 1.243e-09
 12.66192     20.2 1.269e+04 1.645e-09
 12.70005     21.4 1.248e+04 1.961e-09
 12.72125     22.2 1.330e+04 2.795e-09
 12.73056     23.4 1.327e+04 2.807e-09
 12.75176     25.0 1.328e+04 2.465e-09
 12.78912     26.4 1.283e+04 2.041e-09
 12.82403     27.7 1.234e+04 1.283e-09
 12.84523     29.4 1.242e+04 1.306e-09
 12.87392     29.8 1.204e+04 6.551e-10
 12.91631     29.8 1.154e+04 4.545e-10
 12.93870     30.7 1.129e+04 4.687e-10
 12.95990     32.1 1.113e+04 4.138e-10
 13.00111     33.5 1.099e+04 4.646e-10
 13.03218     35.3 1.097e+04 5.202e-10
 13.05338     36.5 1.089e+04 4.748e-10
 13.08591     38.4 1.100e+04 5.072e-10
 13.12565     40.2 1.107e+04 4.946e-10
 13.14685     40.9 1.124e+04 4.980e-10
 13.17071     42.6 1.141e+04 5.408e-10
 13.21311     44.1 1.152e+04 5.833e-10
 13.24032     45.6 1.161e+04 6.479e-10
 13.25930     46.0 1.193e+04 1.134e-09
 13.27449     46.8 1.201e+04 1.237e-09
 13.29790     48.2 1.216e+04 1.333e-09
 13.33379     49.4 1.233e+04 1.488e-09
 13.35499     49.8 1.240e+04 1.597e-09
 13.38270     51.2 1.248e+04 1.660e-09
 13.42510     52.5 1.256e+04 1.740e-09
 13.44847     53.8 1.252e+04 1.708e-09
 13.46967     54.3 1.203e+04 1.098e-09
 13.50990     55.9 1.192e+04 1.011e-09
 13.54194     57.5 1.180e+04 8.535e-10
 13.56314     58.0 1.151e+04 6.042e-10
 13.59470     59.8 1.146e+04 5.583e-10
 13.63541     61.8 1.151e+04 5.218e-10
 13.65661     62.6 1.137e+04 4.188e-10
 13.67949     64.5 1.153e+04 4.117e-10
 13.72189     66.8 1.187e+04 4.523e-10
 13.74999     67.3 1.206e+04 4.708e-10
 13.77118     69.2 1.197e+04 3.925e-10
 13.79599     69.5 1.222e+04 5.008e-10
 13.80722     70.2 1.231e+04 6.637e-10
 13.81766     70.8 1.211e+04 5.034e-10
 13.82753     71.8 1.157e+04 7.315e-10
 13.83829     72.7 1.178e+04 9.367e-10
 13.85396     73.6 1.209e+04 1.220e-09
 13.86456     74.1 1.183e+04 1.015e-09
 13.88069     75.0 1.215e+04 1.334e-09
 13.90070     75.9 1.249e+04 1.733e-09
 13.91130     76.3 1.220e+04 1.493e-09
 13.92309     77.2 1.245e+04 1.906e-09
 13.94429     78.2 1.272e+04 2.352e-09
 13.95803     79.2 1.297e+04 2.797e-09
 13.96863     79.7 1.263e+04 2.489e-09
 13.98669     80.7 1.280e+04 2.849e-09
 14.00477     81.7 1.299e+04 3.161e-09
 14.01537     82.2 1.264e+04 2.716e-09
 14.02909     83.3 1.277e+04 2.932e-09
 14.05029     84.4 1.297e+04 3.166e-09
 14.06210     85.4 1.319e+04 3.413e-09
 14.07270     85.9 1.278e+04 2.761e-09
 14.09269     87.0 1.299e+04 2.969e-09
 14.10415     88.1 1.319e+04 3.173e-09
 14.10970     88.3 1.325e+04 3.580e-09
 14.11944     88.8 1.294e+04 3.031e-09
 14.13509     89.9 1.305e+04 3.157e-09
 14.15558     91.0 1.315e+04 3.234e-09
 14.16618     91.3 1.301e+04 2.783e-09
 14.17749     92.4 1.308e+04 2.832e-09
 14.19868     93.4 1.315e+04 2.823e-09
 14.21291     94.3 1.329e+04 2.780e-09
 14.22351     94.7 1.329e+04 2.714e-09
 14.24108     95.5 1.342e+04 2.714e-09
 14.25965     95.9 1.371e+04 2.754e-09
 14.27025     96.4 1.380e+04 2.822e-09
 14.28348     96.6 1.417e+04 2.966e-09
 14.30468     96.9 1.461e+04 3.245e-09
 14.31699     97.0 1.500e+04 3.633e-09
 14.32759     97.3 1.517e+04 4.037e-09
 14.34708     97.5 1.545e+04 4.427e-09
 14.36372     97.7 1.551e+04 4.717e-09
 14.37432     97.8 1.620e+04 6.257e-09
 14.38077     98.0 1.621e+04 6.212e-09
 14.39137     98.4 1.518e+04 4.449e-09
 14.41046     98.8 1.511e+04 4.331e-09
 14.42106     99.0 1.602e+04 6.590e-09
 14.43188     99.4 1.592e+04 5.868e-09
 14.45308     99.9 1.573e+04 4.962e-09
 14.46779    100.3 1.537e+04 3.983e-09
 14.47839    100.3 1.611e+04 5.955e-09
 14.49548    100.7 1.575e+04 4.461e-09
 14.51453    101.1 1.524e+04 3.284e-09
 14.52513    101.1 1.558e+04 5.048e-09
 14.53788    101.4 1.504e+04 3.782e-09
 14.55908    101.8 1.440e+04 2.825e-09
 14.57187    102.5 1.378e+04 2.131e-09
 14.58247    102.4 1.412e+04 3.312e-09
 14.60147    103.2 1.368e+04 2.476e-09
 14.61860    103.7 1.334e+04 1.925e-09
 14.62920    103.9 1.368e+04 2.944e-09
 14.65457    105.2 1.327e+04 2.026e-09
 14.67613    107.1 1.300e+04 1.820e-09
 14.69733    107.7 1.367e+04 2.948e-09
 14.72277    108.8 1.365e+04 2.732e-09
 14.73328    108.6 1.372e+04 2.964e-09
 14.74987    109.5 1.377e+04 2.951e-09
 14.76941    110.5 1.377e+04 2.906e-09
 14.78001    110.3 1.381e+04 2.898e-09
 14.79227    111.3 1.377e+04 2.861e-09
 14.81347    112.4 1.373e+04 2.819e-09
 14.82675    113.5 1.369e+04 2.753e-09
 14.83735    113.2 1.358e+04 2.676e-09
 14.85587    114.3 1.350e+04 2.591e-09
 14.87348    115.4 1.342e+04 2.491e-09
 14.88408    115.0 1.323e+04 2.354e-09
 14.89827    116.1 1.320e+04 2.324e-09
 14.91947    117.1 1.314e+04 2.272e-09
 14.93082    118.1 1.311e+04 2.174e-09
 14.93476    117.5 1.316e+04 2.309e-09
 14.94461    117.8 1.329e+04 2.302e-09
 14.96186    118.6 1.332e+04 2.378e-09
 14.97756    119.3 1.338e+04 2.406e-09
 14.99885    119.0 1.340e+04 2.506e-09
 15.03626    120.5 1.356e+04 2.839e-09
 15.07122    121.8 1.364e+04 2.968e-09
 15.09242    120.3 1.316e+04 2.353e-09
 15.12106    121.1 1.309e+04 2.200e-09
 15.16345    121.9 1.275e+04 1.626e-09
 15.18590    122.8 1.219e+04 8.839e-10
 15.20710    121.4 1.114e+04 4.739e-10
 15.24825    122.1 1.060e+04 2.616e-10
 15.27937    122.9 1.018e+04 1.600e-10
 15.30057    123.4 1.006e+04 1.774e-10
 15.33305    125.0 9.899e+03 1.423e-10
 15.37284    127.0 9.874e+03 1.401e-10
 15.39404    128.0 9.830e+03 1.362e-10
 15.41785    130.0 9.835e+03 1.373e-10
 15.46025    132.1 9.856e+03 1.473e-10
 15.48744    134.1 9.904e+03 1.757e-10
 15.50864    135.1 9.727e+03 1.342e-10
 15.54504    137.2 9.801e+03 1.694e-10
 15.58099    139.3 9.910e+03 2.184e-10
 15.60219    140.0 9.778e+03 1.726e-10
 15.62984    142.0 9.909e+03 2.266e-10
 15.67224    143.9 1.006e+04 2.905e-10
 15.69566    145.7 1.023e+04 3.510e-10
 15.71686    146.4 1.005e+04 2.871e-10
 15.75704    148.0 1.021e+04 3.460e-10
 15.78913    149.6 1.035e+04 3.855e-10
 15.81033    150.3 1.013e+04 3.009e-10
 15.84184    151.8 1.025e+04 3.327e-10
 15.88260    153.3 1.034e+04 3.497e-10
 15.90380    154.0 1.015e+04 2.877e-10
 15.92663    155.4 1.025e+04 3.242e-10
 15.96903    156.9 1.041e+04 3.760e-10
 15.99728    158.2 1.067e+04 4.553e-10
 16.01848    159.0 1.066e+04 5.039e-10
 16.04068    160.3 1.102e+04 6.543e-10
 16.06188    160.6 1.119e+04 8.399e-10
 16.09075    161.6 1.154e+04 1.052e-09
 16.11195    162.8 1.180e+04 1.356e-09
 16.13863    163.2 1.194e+04 1.408e-09
 16.18103    163.6 1.191e+04 1.373e-09
 16.20542    164.1 1.171e+04 1.199e-09
 16.22662    164.9 1.185e+04 1.313e-09
 16.26583    165.5 1.138e+04 9.136e-10
 16.29889    166.5 1.084e+04 5.706e-10
 16.32009    167.2 1.075e+04 5.077e-10
 16.35062    168.4 1.022e+04 2.826e-10
 16.39237    169.5 9.833e+03 1.773e-10
 16.41356    170.0 9.668e+03 1.418e-10
 16.43542    171.5 9.569e+03 1.367e-10
 16.47782    173.4 9.540e+03 1.370e-10
 16.50704    175.4 9.536e+03 1.377e-10
 16.52824    176.2 9.433e+03 1.275e-10
 16.56262    178.1 9.437e+03 1.320e-10
 16.59392    179.8 9.445e+03 1.373e-10
 16.61061    179.9 9.428e+03 1.367e-10
 16.62171    180.7 9.378e+03 1.367e-10
 16.64741    182.4 9.429e+03 1.426e-10
 16.68981    183.9 9.496e+03 1.501e-10
 16.71518    185.3 9.587e+03 1.604e-10
 16.73638    186.2 9.590e+03 1.605e-10
 16.77461    187.5 9.698e+03 1.677e-10
 16.80865    188.6 9.793e+03 1.723e-10
 16.82985    189.4 9.730e+03 1.632e-10
 16.85941    190.6 9.762e+03 1.576e-10
 16.90181    191.8 9.758e+03 1.517e-10
 16.92333    193.1 9.721e+03 1.483e-10
 16.94453    193.9 9.631e+03 1.228e-10
 16.98661    195.5 9.631e+03 1.244e-10
 17.01680    197.2 9.636e+03 1.297e-10
 17.03800    197.9 9.579e+03 1.074e-10
 17.07140    199.7 9.626e+03 1.190e-10
 17.11027    201.6 9.676e+03 1.400e-10
 17.13147    202.3 9.627e+03 1.205e-10
 17.14716    204.3 9.713e+03 1.452e-10
 17.16836    204.6 9.614e+03 1.242e-10
 17.19860    206.6 9.695e+03 1.552e-10
 17.22494    208.6 9.807e+03 2.015e-10
 17.24614    209.4 9.731e+03 1.578e-10
 17.28340    211.4 9.847e+03 2.008e-10
 17.31842    213.3 1.000e+04 2.611e-10
 17.33962    214.2 9.852e+03 1.993e-10
 17.36820    216.1 1.002e+04 2.577e-10
 17.41059    218.0 1.028e+04 3.409e-10
 17.43309    219.8 1.059e+04 4.368e-10
 17.45429    220.6 1.037e+04 3.604e-10
 17.49539    222.1 1.067e+04 4.570e-10
 17.52646    222.7 1.077e+04 4.987e-10
 17.54766    224.1 1.079e+04 4.894e-10
 17.56949    224.6 1.089e+04 5.466e-10
 17.58370    225.5 1.101e+04 6.124e-10
 17.59430    225.5 1.093e+04 5.694e-10
 17.61179    226.5 1.105e+04 6.303e-10
 17.63044    227.4 1.124e+04 6.931e-10
 17.64104    227.4 1.111e+04 6.197e-10
 17.65419    228.3 1.129e+04 6.739e-10
 17.67539    229.0 1.150e+04 7.115e-10
 17.68777    229.6 1.170e+04 7.356e-10
 17.69837    229.8 1.153e+04 6.788e-10
 17.71080    230.3 1.171e+04 6.975e-10
 17.72140    230.5 1.175e+04 7.889e-10
 17.73451    231.0 1.190e+04 8.054e-10
 17.74511    231.2 1.175e+04 7.730e-10
 17.76019    231.6 1.190e+04 7.959e-10
 17.78125    232.0 1.206e+04 8.293e-10
 17.79185    232.0 1.199e+04 8.280e-10
 17.80259    232.4 1.213e+04 8.688e-10
 17.82379    232.7 1.231e+04 9.300e-10
 17.83858    232.9 1.252e+04 1.018e-09
 17.84918    232.4 1.254e+04 1.029e-09
 17.86619    232.1 1.282e+04 1.181e-09
 17.88532    231.6 1.320e+04 1.463e-09
 17.89592    230.8 1.329e+04 1.533e-09
 17.90859    229.6 1.377e+04 2.039e-09
 17.92979    228.2 1.428e+04 2.714e-09
 17.94266    226.4 1.482e+04 3.244e-09
 17.95326    225.4 1.457e+04 2.834e-09
 17.97218    222.7 1.467e+04 2.808e-09
 17.98742    219.1 1.493e+04 2.660e-09
 17.99403    218.9 1.432e+04 2.149e-09
 17.99999    218.3 1.387e+04 1.710e-09
 18.01458    215.0 1.400e+04 1.544e-09
 18.03578    211.1 1.419e+04 1.577e-09
 18.04673    207.0 1.465e+04 1.829e-09
 18.05733    207.6 1.439e+04 1.606e-09
 18.07818    204.5 1.448e+04 2.175e-09
 18.09346    203.1 1.431e+04 2.778e-09
 18.10406    204.1 1.405e+04 2.417e-09
 18.12058    204.3 1.385e+04 2.882e-09
 18.14020    204.7 1.377e+04 2.868e-09
 18.15080    205.6 1.338e+04 2.470e-09
 18.16298    206.2 1.330e+04 2.427e-09
 18.18418    207.1 1.314e+04 2.271e-09
 18.19754    208.1 1.295e+04 1.863e-09
 18.20814    209.0 1.276e+04 1.736e-09
 18.22658    210.0 1.263e+04 1.369e-09
 18.24427    211.0 1.245e+04 1.007e-09
 18.25487    211.8 1.234e+04 9.995e-10
 18.26404    212.7 1.219e+04 7.388e-10
 18.27464    213.8 1.242e+04 1.250e-09
 18.29018    214.7 1.233e+04 9.690e-10
 18.30161    215.5 1.222e+04 7.184e-10
 18.31221    216.3 1.214e+04 7.557e-10
 18.33257    217.0 1.204e+04 5.523e-10
 18.34835    217.4 1.182e+04 4.263e-10
 18.35894    218.3 1.180e+04 4.608e-10
 18.37497    219.0 1.158e+04 3.656e-10
 18.39508    219.5 1.137e+04 3.070e-10
 18.40568    220.0 1.133e+04 3.149e-10
 18.41737    220.7 1.108e+04 2.823e-10
 18.43857    221.2 1.086e+04 2.710e-10
 18.45252    223.0 1.100e+04 3.221e-10
 18.47381    224.0 1.081e+04 2.845e-10
 18.51297    225.4 1.072e+04 2.850e-10
 18.54609    227.0 1.069e+04 2.977e-10
 18.56728    227.7 1.050e+04 2.777e-10
 18.59776    229.3 1.051e+04 2.834e-10
 18.63956    231.0 1.056e+04 3.031e-10
 18.66076    231.9 1.053e+04 3.035e-10
 18.68256    233.5 1.063e+04 3.316e-10
 18.72496    235.0 1.074e+04 3.648e-10
 18.75423    236.4 1.081e+04 3.998e-10
 18.77543    236.9 1.084e+04 4.336e-10
 18.80687    237.9 1.078e+04 4.503e-10
 18.82798    239.5 1.085e+04 5.033e-10
 18.84136    240.8 1.094e+04 5.494e-10
 18.85811    241.8 1.103e+04 5.945e-10
 18.86871    242.3 1.113e+04 6.384e-10
 18.88376    243.0 1.116e+04 6.597e-10
 18.90484    243.8 1.125e+04 6.992e-10
 18.91544    244.2 1.125e+04 7.063e-10
 18.92616    244.7 1.139e+04 7.582e-10
 18.94736    244.9 1.162e+04 8.554e-10
 18.96218    245.1 1.197e+04 1.026e-09
 18.97278    245.6 1.183e+04 9.526e-10
 18.98976    245.7 1.222e+04 1.170e-09
 19.00892    245.6 1.272e+04 1.518e-09
 19.01952    246.4 1.246e+04 1.333e-09
 19.03216    246.2 1.292e+04 1.691e-09
 19.05336    245.9 1.335e+04 2.155e-09
 19.06625    245.7 1.370e+04 2.662e-09
 19.07685    246.5 1.340e+04 2.232e-09
 19.09390    246.3 1.361e+04 2.537e-09
 19.10450    246.7 1.359e+04 2.549e-09
 19.11299    246.3 1.362e+04 2.606e-09
 19.12359    247.1 1.337e+04 2.268e-09
 19.13815    246.6 1.335e+04 2.262e-09
 19.15935    246.2 1.325e+04 2.219e-09
 19.17032    245.8 1.307e+04 2.130e-09
 19.18092    246.6 1.286e+04 1.871e-09
 19.20175    246.3 1.269e+04 1.810e-09
 19.21706    246.1 1.256e+04 1.773e-09
 19.22766    246.8 1.238e+04 1.598e-09
 19.24415    246.6 1.234e+04 1.601e-09
 19.26380    246.4 1.232e+04 1.601e-09
 19.27440    247.2 1.221e+04 1.484e-09
 19.28655    247.0 1.220e+04 1.483e-09
 19.30775    246.9 1.215e+04 1.463e-09
 19.32113    246.7 1.204e+04 1.389e-09
 19.33173    247.5 1.204e+04 1.353e-09
 19.35015    247.3 1.189e+04 1.251e-09
 19.36787    247.1 1.171e+04 1.140e-09
 19.37764    247.9 1.178e+04 1.138e-09
 19.38112    248.1 1.184e+04 1.174e-09
 19.39255    247.6 1.169e+04 1.098e-09
 19.41375    247.2 1.159e+04 1.084e-09
 19.42521    247.0 1.157e+04 1.092e-09
 19.43580    247.3 1.183e+04 1.208e-09
 19.45614    247.2 1.177e+04 1.255e-09
 19.47194    247.2 1.177e+04 1.333e-09
 19.48254    247.3 1.202e+04 1.514e-09
 19.49854    247.4 1.202e+04 1.619e-09
 19.51868    247.7 1.202e+04 1.719e-09
 19.52928    248.0 1.225e+04 1.885e-09
 19.54094    248.5 1.226e+04 1.940e-09
 19.56214    249.1 1.232e+04 1.996e-09
 19.57601    249.7 1.246e+04 2.108e-09
 19.58661    250.0 1.250e+04 2.091e-09
 19.60454    250.3 1.278e+04 2.321e-09
 19.62275    250.3 1.317e+04 2.736e-09
 19.63335    250.5 1.339e+04 2.780e-09
 19.64694    250.1 1.403e+04 3.614e-09
 19.65774    249.0 1.512e+04 5.210e-09
 19.66834    248.3 1.478e+04 4.477e-09
 19.68009    246.4 1.624e+04 7.061e-09
 19.69069    245.9 1.709e+04 9.129e-09
 19.71054    243.4 1.850e+04 1.287e-08
 19.72682    240.4 1.882e+04 1.324e-08
 19.73742    238.6 2.015e+04 1.725e-08
 19.75294    235.9 1.962e+04 1.181e-08
 19.77356    233.0 1.812e+04 5.095e-09
 19.78416    230.8 1.784e+04 3.901e-09
 19.79534    226.1 1.374e+04 1.300e-09
 19.81654    222.6 1.198e+04 9.668e-10
 19.83089    222.2 1.168e+04 9.011e-10
 19.84149    221.7 1.170e+04 9.365e-10
 19.85893    222.9 1.161e+04 9.017e-10
 19.87763    224.3 1.157e+04 8.679e-10
 19.88823    224.6 1.162e+04 9.032e-10
 19.90133    225.8 1.158e+04 8.485e-10
 19.92253    226.8 1.158e+04 8.080e-10
 19.93436    227.8 1.160e+04 7.992e-10
 19.93619    228.3 1.166e+04 9.055e-10
 19.94557    228.5 1.166e+04 9.203e-10
 19.96493    229.3 1.168e+04 9.230e-10
 19.98170    230.2 1.173e+04 9.386e-10
 19.99230    230.4 1.169e+04 9.289e-10
 20.00733    231.2 1.175e+04 9.570e-10
 20.02844    231.9 1.186e+04 1.000e-09
 20.04964    232.8 1.193e+04 1.046e-09
 20.07093    233.4 1.209e+04 1.117e-09
 20.08578    233.8 1.226e+04 1.191e-09
 20.09638    234.1 1.222e+04 1.184e-09
 20.11333    234.3 1.237e+04 1.253e-09
 20.13251    234.5 1.249e+04 1.313e-09
 20.14311    234.8 1.246e+04 1.307e-09
 20.15573    234.9 1.259e+04 1.361e-09
 20.17693    234.9 1.271e+04 1.405e-09
 20.18985    234.7 1.281e+04 1.413e-09
 20.20045    235.0 1.279e+04 1.409e-09
 20.21098    234.7 1.280e+04 1.408e-09
 20.22158    235.0 1.313e+04 1.654e-09
 20.23658    234.4 1.313e+04 1.604e-09
 20.24718    234.9 1.310e+04 1.612e-09
 20.26172    234.3 1.301e+04 1.506e-09
 20.28292    233.5 1.292e+04 1.386e-09
 20.29392    232.5 1.285e+04 1.301e-09
 20.30452    233.5 1.270e+04 1.253e-09
 20.32532    232.4 1.273e+04 1.208e-09
 20.34066    231.4 1.271e+04 1.200e-09
 20.35126    232.5 1.262e+04 1.150e-09
 20.37689    231.4 1.260e+04 1.129e-09
 20.39819    233.5 1.247e+04 1.070e-09
 20.42091    232.1 1.249e+04 1.065e-09
 20.46331    230.5 1.245e+04 9.940e-10
 20.48779    229.1 1.223e+04 7.886e-10
 20.49494    228.0 1.268e+04 1.059e-09
 20.51286    230.3 1.287e+04 1.227e-09
 20.54811    229.4 1.241e+04 8.994e-10
 20.58513    228.8 1.184e+04 5.442e-10
 20.60633    230.7 1.215e+04 7.792e-10
 20.63291    230.2 1.157e+04 4.582e-10
 20.67531    229.9 1.103e+04 2.484e-10
 20.69981    229.8 1.054e+04 1.478e-10
 20.72100    231.4 1.077e+04 2.213e-10
 20.76011    231.5 1.034e+04 1.432e-10
 20.79328    231.9 1.012e+04 1.309e-10
 20.81448    233.2 1.018e+04 1.441e-10
 20.84490    233.7 1.009e+04 1.388e-10
 20.88675    234.9 1.007e+04 1.399e-10
 20.90795    235.8 1.009e+04 1.486e-10
 20.92970    237.2 1.006e+04 1.525e-10
 20.97210    238.6 1.006e+04 1.606e-10
 21.00142    240.2 1.005e+04 1.691e-10
 21.02262    240.8 1.003e+04 1.712e-10
 21.04103    242.4 1.002e+04 1.745e-10
 21.06223    241.4 9.895e+03 1.377e-10
 21.09490    243.2 9.893e+03 1.380e-10
 21.11609    243.7 9.851e+03 1.422e-10
 21.14170    245.5 9.843e+03 1.460e-10
 21.18409    247.3 9.866e+03 1.575e-10
 21.20957    249.0 9.936e+03 1.770e-10
 21.23077    249.6 9.890e+03 1.877e-10
 21.26889    251.3 1.000e+04 2.132e-10
 21.30304    252.8 1.016e+04 2.419e-10
 21.32424    253.4 1.012e+04 2.557e-10
 21.35369    254.8 1.033e+04 2.895e-10
 21.39609    255.9 1.057e+04 3.269e-10
 21.41771    256.6 1.078e+04 3.684e-10
 21.43891    257.0 1.077e+04 3.949e-10
 21.48089    257.3 1.092e+04 4.315e-10
 21.51118    257.7 1.095e+04 4.542e-10
 21.52169    257.6 1.094e+04 4.761e-10
 21.53369    258.3 1.101e+04 5.007e-10
 21.55489    258.8 1.107e+04 5.309e-10
 21.56833    259.2 1.109e+04 5.606e-10
 21.57893    259.4 1.107e+04 5.536e-10
 21.59407    259.7 1.109e+04 5.789e-10
 21.60467    259.3 1.112e+04 6.192e-10
 21.61506    259.7 1.114e+04 6.495e-10
 21.62566    259.8 1.114e+04 6.337e-10
 21.63969    260.1 1.120e+04 6.747e-10
 21.66089    260.4 1.128e+04 7.313e-10
 21.67240    260.6 1.138e+04 8.050e-10
 21.68300    260.8 1.139e+04 8.031e-10
 21.70328    261.0 1.149e+04 8.953e-10
 21.71913    261.2 1.161e+04 1.009e-09
 21.72973    261.4 1.171e+04 1.023e-09
 21.74568    261.6 1.186e+04 1.166e-09
 21.76587    261.7 1.204e+04 1.333e-09
 21.77647    261.8 1.217e+04 1.347e-09
 21.78808    261.9 1.234e+04 1.492e-09
 21.80928    262.0 1.250e+04 1.625e-09
 21.82321    262.0 1.266e+04 1.752e-09
 21.83381    262.2 1.266e+04 1.646e-09
 21.85168    262.2 1.279e+04 1.719e-09
 21.86994    262.1 1.295e+04 1.801e-09
 21.87835    262.2 1.282e+04 1.619e-09
 21.88129    262.4 1.341e+04 2.376e-09
 21.89408    262.3 1.356e+04 2.492e-09
 21.91528    262.1 1.375e+04 2.661e-09
 21.92728    261.6 1.397e+04 2.912e-09
 21.93788    261.7 1.373e+04 2.504e-09
 21.95768    261.0 1.400e+04 2.902e-09
 21.97402    260.3 1.431e+04 3.508e-09
 21.98461    260.4 1.421e+04 3.350e-09
 22.00008    259.9 1.467e+04 4.354e-09
 22.02075    259.5 1.518e+04 5.567e-09
 22.03135    259.8 1.523e+04 5.590e-09
 22.04248    259.4 1.572e+04 6.634e-09
 22.06368    258.5 1.592e+04 6.760e-09
 22.07809    257.4 1.588e+04 6.499e-09
 22.08869    257.3 1.584e+04 6.320e-09
 22.10607    256.2 1.556e+04 5.267e-09
 22.12482    255.0 1.497e+04 3.855e-09
 22.13542    254.8 1.477e+04 3.351e-09
 22.14731    253.2 1.395e+04 2.310e-09
 22.15791    251.3 1.311e+04 1.679e-09
 22.16967    249.8 1.219e+04 1.271e-09
 22.18216    248.9 1.154e+04 1.063e-09
 22.19276    248.8 1.144e+04 1.013e-09
 22.21207    248.8 1.119e+04 9.093e-10
 22.22890    248.8 1.109e+04 8.422e-10
 22.23950    248.9 1.102e+04 7.683e-10
 22.25447    249.0 1.087e+04 7.051e-10
 22.27563    249.2 1.073e+04 6.838e-10
 22.29683    249.6 1.054e+04 6.081e-10
 22.31807    250.1 1.054e+04 6.119e-10
 22.33297    250.6 1.059e+04 6.326e-10
 22.34357    250.8 1.044e+04 5.718e-10
 22.36047    251.3 1.057e+04 6.230e-10
 22.37970    251.7 1.074e+04 7.028e-10
 22.39030    251.9 1.067e+04 6.660e-10
 22.40287    252.3 1.092e+04 7.867e-10
 22.42393    252.7 1.120e+04 9.351e-10
 22.43453    252.8 1.135e+04 1.050e-09
 22.43704    253.1 1.160e+04 1.226e-09
 22.44764    253.3 1.170e+04 1.269e-09
 22.46646    253.5 1.186e+04 1.431e-09
 22.48378    253.6 1.186e+04 1.445e-09
 22.49438    253.8 1.195e+04 1.504e-09
 22.50886    253.9 1.193e+04 1.498e-09
 22.53006    254.1 1.183e+04 1.459e-09
 22.54111    254.4 1.170e+04 1.359e-09
 22.55171    254.7 1.175e+04 1.426e-09
 22.57246    255.1 1.163e+04 1.336e-09
 22.58785    255.4 1.153e+04 1.229e-09
 22.59845    255.7 1.165e+04 1.364e-09
 22.61486    256.1 1.164e+04 1.311e-09
 22.63459    256.4 1.164e+04 1.255e-09
 22.64519    256.7 1.190e+04 1.519e-09
 22.65726    257.0 1.199e+04 1.538e-09
 22.67846    257.3 1.207e+04 1.551e-09
 22.69192    257.5 1.212e+04 1.561e-09
 22.70252    257.8 1.256e+04 1.980e-09
 22.71115    257.9 1.269e+04 2.047e-09
 22.72175    258.1 1.305e+04 2.456e-09
 22.73866    258.0 1.334e+04 2.674e-09
 22.74926    258.1 1.390e+04 3.260e-09
 22.76326    257.5 1.448e+04 3.910e-09
 22.78446    256.7 1.521e+04 4.948e-09
 22.79599    255.8 1.593e+04 6.217e-09
 22.80659    255.4 1.618e+04 6.347e-09
 22.82685    253.9 1.652e+04 6.847e-09
 22.84273    252.2 1.651e+04 6.748e-09
 22.85333    251.8 1.627e+04 6.028e-09
 22.86925    250.5 1.597e+04 5.147e-09
 22.88947    249.4 1.544e+04 3.807e-09
 22.90007    249.2 1.471e+04 2.465e-09
 22.91165    247.3 1.410e+04 1.717e-09
 22.93285    245.0 1.345e+04 1.359e-09
 22.94680    242.7 1.292e+04 1.307e-09
 22.95740    242.1 1.231e+04 9.610e-10
 22.97525    240.6 1.224e+04 9.944e-10
 22.98777    239.3 1.229e+04 1.050e-09
 22.99546    237.4 1.229e+04 1.051e-09
 23.00414    237.7 1.217e+04 1.010e-09
 23.01765    236.3 1.256e+04 1.194e-09
 23.03885    234.8 1.291e+04 1.451e-09
 23.05088    233.5 1.310e+04 1.788e-09
 23.06147    233.7 1.329e+04 1.930e-09
 23.08125    233.1 1.349e+04 2.461e-09
 23.09761    233.1 1.373e+04 2.897e-09
 23.10821    233.1 1.409e+04 3.427e-09
 23.12365    233.0 1.441e+04 3.632e-09
 23.14435    232.7 1.448e+04 3.546e-09
 23.15495    232.2 1.500e+04 4.336e-09
 23.16605    231.3 1.510e+04 3.964e-09
 23.18725    229.9 1.505e+04 3.213e-09
 23.20168    228.0 1.470e+04 2.505e-09
 23.21228    226.7 1.521e+04 3.379e-09
 23.22964    224.9 1.440e+04 2.588e-09
 23.24842    223.6 1.349e+04 2.082e-09
 23.25902    223.0 1.349e+04 2.229e-09
 23.26439    222.2 1.258e+04 1.724e-09
 23.27499    222.0 1.225e+04 1.528e-09
 23.29324    221.9 1.216e+04 1.377e-09
 23.30576    222.1 1.218e+04 1.354e-09
 23.31636    220.9 1.179e+04 1.141e-09
 23.33564    221.6 1.180e+04 1.150e-09
 23.35249    222.3 1.190e+04 1.214e-09
 23.36309    221.5 1.155e+04 1.058e-09
 23.37804    222.2 1.186e+04 1.260e-09
 23.39923    222.9 1.228e+04 1.600e-09
 23.42043    223.3 1.258e+04 1.880e-09
 23.44164    224.1 1.332e+04 2.639e-09
 23.45656    224.9 1.413e+04 3.723e-09
 23.46716    224.6 1.352e+04 2.756e-09
 23.48404    225.4 1.436e+04 3.737e-09
 23.50330    226.1 1.526e+04 4.885e-09
 23.51390    226.0 1.398e+04 2.673e-09
 23.52644    226.4 1.452e+04 2.886e-09
 23.54101    226.4 1.460e+04 2.810e-09
 23.55161    226.8 1.549e+04 4.109e-09
 23.56064    226.7 1.532e+04 3.828e-09
 23.57124    225.3 1.238e+04 1.402e-09
 23.59003    224.2 1.228e+04 1.359e-09
 23.60737    222.8 1.233e+04 1.379e-09
 23.61797    222.2 1.191e+04 1.299e-09
 23.63243    221.6 1.223e+04 1.420e-09
 23.65363    220.9 1.264e+04 1.569e-09
 23.66471    220.3 1.323e+04 1.863e-09
 23.67531    221.6 1.314e+04 1.824e-09
 23.69603    221.0 1.366e+04 2.222e-09
 23.71145    220.6 1.402e+04 2.553e-09
 23.71670    221.9 1.364e+04 2.398e-09
 23.72243    221.5 1.401e+04 2.639e-09
 23.73303    220.2 1.528e+04 3.393e-09
 23.74002    217.1 1.832e+04 5.497e-09
 23.74532    217.7 1.846e+04 5.274e-09
 23.75423    212.9 2.180e+04 1.203e-08
 23.76338    208.9 2.283e+04 3.257e-08
 23.76868    208.4 2.334e+04 3.970e-08
 23.77543    205.8 2.291e+04 1.111e-07
 23.78603    203.9 2.242e+04 2.381e-07
 23.79205    201.8 2.242e+04 3.216e-07
 23.79735    201.0 2.223e+04 3.473e-07
 23.80723    198.3 2.238e+04 3.314e-07
 23.81542    195.3 2.309e+04 2.462e-07
 23.82042    194.9 2.326e+04 2.561e-07
 23.82283    193.1 2.437e+04 1.611e-07
 23.82843    187.6 2.613e+04 6.135e-08
 23.83879    181.3 2.571e+04 2.297e-08
 23.84409    179.2 2.601e+04 2.102e-08
 23.84963    173.6 2.146e+04 1.194e-08
 23.86221    168.3 1.759e+04 8.520e-09
 23.87285    165.9 1.721e+04 1.033e-08
 23.88683    164.5 1.578e+04 7.059e-09
 23.90803    164.2 1.513e+04 4.816e-09
 23.91959    164.1 1.455e+04 3.502e-09
 23.93019    163.5 1.494e+04 4.628e-09
 23.95042    163.8 1.448e+04 3.502e-09
 23.96633    164.0 1.424e+04 2.637e-09
 23.97693    163.3 1.490e+04 3.859e-09
 23.99282    163.2 1.495e+04 3.051e-09
 24.01306    162.8 1.483e+04 2.375e-09
 24.02366    162.0 1.581e+04 4.174e-09
 24.03522    161.9 1.540e+04 3.254e-09
 24.05642    161.7 1.456e+04 2.413e-09
 24.07040    161.7 1.343e+04 1.756e-09
 24.08100    161.7 1.450e+04 2.691e-09
 24.09425    161.5 1.319e+04 1.755e-09
 24.10485    160.0 1.139e+04 8.931e-10
 24.11714    159.9 1.096e+04 7.172e-10
 24.12774    159.1 1.128e+04 8.380e-10
 24.14122    159.2 1.103e+04 7.222e-10
 24.16242    159.7 1.095e+04 6.526e-10
 24.17447    160.4 1.088e+04 5.808e-10
 24.18507    160.2 1.108e+04 7.016e-10
 24.20482    160.8 1.099e+04 6.177e-10
 24.23671    162.1 1.114e+04 6.958e-10
 24.26814    163.3 1.082e+04 5.439e-10
 24.28934    163.8 1.097e+04 6.225e-10
 24.32161    165.0 1.057e+04 4.464e-10
 24.36046    166.0 1.010e+04 3.040e-10
 24.37926    165.7 9.895e+03 2.449e-10
 24.38281    166.6 9.912e+03 2.234e-10
 24.40641    167.5 9.461e+03 1.683e-10
 24.44881    168.6 9.394e+03 1.666e-10
 24.47628    169.8 9.376e+03 1.710e-10
 24.49748    171.0 9.317e+03 1.370e-10
 24.53360    172.3 9.326e+03 1.529e-10
 24.56976    173.5 9.394e+03 1.808e-10
 24.59096    174.9 9.371e+03 1.547e-10
 24.61840    176.0 9.457e+03 1.833e-10
 24.66080    177.0 9.426e+03 1.969e-10
 24.68443    177.7 9.412e+03 1.957e-10
 24.70563    179.2 9.426e+03 1.890e-10
 24.74560    179.9 9.385e+03 1.862e-10
 24.77790    180.4 9.279e+03 1.751e-10
 24.79910    182.0 9.355e+03 1.816e-10
 24.83040    182.3 9.253e+03 1.704e-10
 24.87137    182.6 9.243e+03 1.695e-10
 24.89257    184.2 9.504e+03 1.994e-10
 24.91370    184.2 9.548e+03 2.081e-10
 24.93490    184.3 9.516e+03 2.020e-10
 24.95759    184.3 9.757e+03 2.487e-10
 24.98605    183.9 1.004e+04 3.265e-10
 25.00725    184.6 1.015e+04 3.645e-10
 25.03169    183.9 1.023e+04 4.119e-10
 25.04319    183.6 1.041e+04 4.981e-10
 25.05379    184.0 1.060e+04 5.913e-10
 25.07399    183.7 1.096e+04 7.565e-10
 25.08992    183.2 1.132e+04 9.218e-10
 25.10052    183.4 1.166e+04 1.091e-09
 25.11639    182.2 1.202e+04 1.152e-09
 25.13666    180.4 1.207e+04 1.135e-09
 25.14726    180.2 1.236e+04 1.320e-09
 25.16949    177.8 1.221e+04 1.154e-09
 25.19419    174.4 1.173e+04 8.859e-10
 25.21539    173.1 1.185e+04 9.455e-10
 25.25439    169.4 1.101e+04 6.888e-10
 25.28766    166.6 1.034e+04 5.218e-10
 25.30886    165.2 1.035e+04 5.588e-10
 25.33918    163.5 9.851e+03 3.802e-10
 25.38114    161.7 9.296e+03 2.296e-10
 25.40234    161.3 9.359e+03 2.420e-10
 25.42398    159.6 8.904e+03 1.623e-10
 25.46638    158.1 8.877e+03 1.638e-10
 25.48814    157.0 8.984e+03 1.949e-10
 25.49637    157.8 8.992e+03 2.029e-10
 25.51701    158.3 8.822e+03 1.826e-10
 25.55118    157.5 9.021e+03 2.201e-10
 25.58288    157.3 9.175e+03 2.471e-10
 25.59968    157.1 9.361e+03 2.868e-10
 25.61038    157.7 9.028e+03 2.325e-10
 25.62528    157.1 9.422e+03 3.100e-10
 25.64638    156.3 1.022e+04 4.220e-10
 25.66758    152.7 1.231e+04 8.743e-10
 25.68878    147.3 1.593e+04 3.288e-09
 25.70376    143.5 1.791e+04 9.425e-09
 25.71436    144.0 1.756e+04 8.096e-09
 25.73118    141.5 1.778e+04 1.193e-08
 25.75049    139.7 1.752e+04 1.148e-08
 25.76109    140.1 1.716e+04 9.908e-09
 25.76456    139.1 1.624e+04 7.710e-09
 25.77516    139.7 1.564e+04 5.133e-09
 25.79478    138.3 1.457e+04 3.700e-09
 25.80783    136.6 1.327e+04 2.100e-09
 25.81843    137.0 1.309e+04 2.095e-09
 25.83717    134.9 1.167e+04 1.111e-09
 25.85457    132.8 1.087e+04 6.958e-10
 25.86517    134.0 1.081e+04 7.461e-10
 25.89027    131.3 1.031e+04 5.010e-10
 25.91210    131.5 9.678e+03 3.964e-10
 25.93330    133.1 9.743e+03 4.086e-10
 25.97517    133.6 9.372e+03 3.622e-10
 26.00557    134.5 9.122e+03 3.353e-10
 26.02677    135.7 9.182e+03 3.510e-10
 26.04138    136.8 9.037e+03 3.329e-10
 26.06258    138.4 8.977e+03 2.668e-10
 26.09904    139.4 8.849e+03 2.570e-10
 26.12024    140.5 8.886e+03 2.627e-10
 26.14476    141.7 8.783e+03 2.479e-10
 26.18716    143.0 8.747e+03 2.267e-10
 26.21371    144.4 8.836e+03 2.191e-10
 26.23491    145.4 8.812e+03 2.262e-10
 26.27196    146.8 8.894e+03 2.292e-10
 26.30719    147.9 9.184e+03 2.550e-10
 26.32839    148.9 9.188e+03 2.577e-10
 26.35676    149.1 9.601e+03 3.067e-10
 26.39915    149.4 1.010e+04 4.491e-10
 26.42186    149.4 1.093e+04 8.502e-10
 26.44306    150.3 1.090e+04 8.328e-10
 26.48395    150.3 1.188e+04 1.463e-09
 26.51533    150.1 1.223e+04 1.570e-09
 26.53653    150.9 1.232e+04 1.632e-09
 26.56875    150.6 1.224e+04 1.423e-09
 26.59462    150.0 1.191e+04 9.334e-10
 26.61347    153.2 1.272e+04 1.580e-09
 26.63000    153.6 1.270e+04 1.564e-09
 26.64285    152.9 1.261e+04 1.322e-09
 26.66395    152.0 1.234e+04 1.072e-09
 26.67654    151.0 1.199e+04 8.945e-10
 26.68714    151.4 1.213e+04 9.799e-10
 26.70635    150.5 1.195e+04 9.550e-10
 26.72328    149.9 1.196e+04 9.627e-10
 26.73388    150.4 1.198e+04 9.959e-10
 26.74875    149.9 1.204e+04 1.014e-09
 26.76995    149.6 1.203e+04 1.020e-09
 26.79115    149.8 1.200e+04 9.986e-10
 26.81235    149.7 1.190e+04 9.662e-10
 26.82735    149.5 1.176e+04 9.293e-10
 26.83795    150.1 1.175e+04 9.003e-10
 26.85475    150.0 1.161e+04 8.677e-10
 26.87104    150.0 1.148e+04 8.481e-10
 26.87978    150.6 1.136e+04 7.575e-10
 26.88469    151.2 1.142e+04 7.570e-10
 26.89715    151.2 1.140e+04 7.686e-10
 26.91835    151.2 1.139e+04 8.191e-10
 26.93143    151.3 1.145e+04 9.036e-10
 26.94203    151.8 1.157e+04 9.425e-10
 26.96074    152.0 1.169e+04 1.083e-09
 26.97816    152.3 1.183e+04 1.226e-09
 26.98876    152.8 1.198e+04 1.338e-09
 27.00314    153.1 1.216e+04 1.521e-09
 27.02434    153.3 1.236e+04 1.659e-09
 27.03550    153.4 1.259e+04 1.782e-09
 27.04610    154.0 1.281e+04 2.030e-09
 27.06674    153.8 1.311e+04 2.187e-09
 27.08223    153.3 1.337e+04 2.348e-09
 27.09283    154.1 1.368e+04 2.693e-09
 27.10914    153.4 1.376e+04 2.721e-09
 27.12897    152.6 1.370e+04 2.678e-09
 27.13957    153.5 1.408e+04 3.076e-09
 27.14766    152.8 1.382e+04 2.832e-09
 27.15826    152.5 1.393e+04 3.048e-09
 27.17274    152.1 1.359e+04 2.760e-09
 27.18631    151.9 1.318e+04 2.415e-09
 27.19691    152.4 1.368e+04 2.859e-09
 27.21514    152.2 1.340e+04 2.577e-09
 27.23304    152.2 1.312e+04 2.255e-09
 27.24364    152.5 1.398e+04 3.095e-09
 27.25754    152.5 1.385e+04 2.805e-09
 27.27874    152.2 1.363e+04 2.402e-09
 27.29038    151.3 1.327e+04 1.996e-09
 27.30098    152.4 1.451e+04 3.209e-09
 27.32113    151.4 1.398e+04 2.570e-09
 27.33712    150.0 1.316e+04 2.010e-09
 27.34772    151.8 1.458e+04 3.223e-09
 27.36353    150.2 1.343e+04 2.302e-09
 27.38385    147.9 1.221e+04 1.699e-09
 27.39445    149.9 1.396e+04 2.617e-09
 27.40593    146.4 1.329e+04 2.309e-09
 27.42428    142.5 1.346e+04 2.413e-09
 27.43488    142.0 1.404e+04 2.863e-09
 27.44119    137.8 1.501e+04 3.669e-09
 27.45179    138.0 1.565e+04 4.564e-09
 27.46418    134.3 1.561e+04 4.699e-09
 27.46976    133.8 1.550e+04 4.677e-09
 27.47506    133.8 1.571e+04 5.000e-09
 27.48788    130.9 1.564e+04 4.797e-09
 27.49852    131.6 1.633e+04 5.782e-09
 27.51193    126.5 1.589e+04 4.302e-09
 27.53313    120.4 1.439e+04 2.658e-09
 27.54526    114.3 1.261e+04 1.718e-09
 27.55586    113.8 1.230e+04 1.528e-09
 27.58623    110.3 1.107e+04 1.112e-09
 27.62833    108.4 1.045e+04 7.737e-10
 27.64953    109.1 1.046e+04 8.188e-10
 27.67112    107.8 1.048e+04 6.430e-10
 27.70109    105.7 1.045e+04 6.116e-10
 27.72229    107.7 1.057e+04 6.802e-10
 27.74300    106.9 1.026e+04 5.994e-10
 27.76420    108.7 1.023e+04 5.684e-10
 27.79832    108.7 9.779e+03 4.558e-10
 27.83647    108.8 9.365e+03 3.238e-10
 27.85767    110.6 9.478e+03 3.722e-10
 27.88312    110.8 9.248e+03 2.854e-10
 27.92551    111.1 9.031e+03 2.233e-10
 27.95115    111.9 8.765e+03 1.884e-10
 27.97234    113.9 9.331e+03 2.719e-10
 28.01031    114.8 9.116e+03 2.358e-10
 28.04462    115.8 8.782e+03 1.898e-10
 28.06582    117.2 9.326e+03 2.763e-10
 28.09511    117.9 8.950e+03 2.044e-10
 28.13751    118.3 8.762e+03 1.555e-10
 28.15929    118.6 8.698e+03 1.336e-10
 28.18049    119.7 8.882e+03 1.558e-10
 28.22231    119.9 8.777e+03 1.345e-10
 28.25276    120.4 8.670e+03 1.177e-10
 28.26359    121.2 8.723e+03 1.214e-10
 28.27553    122.5 8.864e+03 1.405e-10
 28.30710    122.7 8.675e+03 1.053e-10
 28.34624    123.0 8.568e+03 8.636e-11
 28.36743    123.8 8.572e+03 9.256e-11
 28.39190    124.0 8.569e+03 9.323e-11
 28.43430    124.1 8.667e+03 1.055e-10
 28.46091    124.5 8.719e+03 1.234e-10
 28.48211    125.0 8.875e+03 1.473e-10
 28.51910    125.5 8.918e+03 1.542e-10
 28.55438    125.7 8.984e+03 1.578e-10
 28.57558    125.6 9.266e+03 1.975e-10
 28.60390    125.2 9.367e+03 2.060e-10
 28.64629    124.3 9.620e+03 2.410e-10
 28.66905    123.2 1.005e+04 3.260e-10
 28.69025    122.9 1.012e+04 3.408e-10
 28.73109    122.1 1.049e+04 4.739e-10
 28.76252    121.4 1.062e+04 5.275e-10
 28.78372    120.8 1.069e+04 5.576e-10
 28.80519    120.4 1.066e+04 5.201e-10
 28.81798    119.8 1.067e+04 4.933e-10
 28.82867    120.1 1.062e+04 5.010e-10
 28.84759    119.4 1.066e+04 5.163e-10
 28.86640    119.0 1.062e+04 5.164e-10
 28.87700    119.1 1.076e+04 5.857e-10
 28.88989    119.2 1.075e+04 5.875e-10
 28.91109    119.2 1.083e+04 6.008e-10
 28.92374    117.4 1.219e+04 7.642e-10
 28.93434    118.2 1.197e+04 7.961e-10
 28.95349    107.6 1.740e+04 2.223e-09
 28.97047    105.6 1.720e+04 8.125e-09
 28.98107    105.5 1.727e+04 7.882e-09
 28.99589    107.9 1.684e+04 1.426e-08
 29.01709    111.8 1.652e+04 1.345e-08
 29.02781    114.8 1.623e+04 9.280e-09
 29.03841    114.6 1.611e+04 8.872e-09
 29.05949    114.4 1.590e+04 3.744e-09
 29.07455    110.1 1.493e+04 1.159e-09
 29.08515    109.9 1.456e+04 1.116e-09
 29.09460    103.4 1.086e+04 4.565e-10
 29.10520    103.8 1.157e+04 5.272e-10
 29.12128    102.0 1.006e+04 4.546e-10
 29.13188    102.1 9.918e+03 4.282e-10
 29.14429    102.1 1.001e+04 4.546e-10
 29.16549    100.7 1.090e+04 6.393e-10
 29.17862     98.9 1.215e+04 1.008e-09
 29.18922     99.8 1.166e+04 8.125e-10
 29.20788     98.6 1.201e+04 1.273e-09
 29.22535     98.2 1.224e+04 1.799e-09
 29.23595     98.6 1.192e+04 1.445e-09
 29.25028     97.7 1.241e+04 1.765e-09
 29.27148     96.1 1.279e+04 1.935e-09
 29.28269     94.0 1.267e+04 1.960e-09
 29.29329     94.3 1.231e+04 1.795e-09
 29.31388     92.2 1.225e+04 1.780e-09
 29.32943     90.2 1.244e+04 1.764e-09
 29.34003     90.7 1.246e+04 1.727e-09
 29.35628     88.0 1.262e+04 1.737e-09
 29.37122     85.4 1.221e+04 1.719e-09
 29.38050     84.9 1.184e+04 1.472e-09
 29.38676     85.1 1.195e+04 1.519e-09
 29.39868     83.5 1.155e+04 1.586e-09
 29.41988     82.1 1.200e+04 1.710e-09
 29.43350     78.9 1.293e+04 1.936e-09
 29.44410     78.9 1.310e+04 2.102e-09
 29.46228     70.8 1.562e+04 2.918e-09
 29.48024     55.2 2.387e+04 7.445e-09
 29.49084     55.2 2.380e+04 7.759e-09
 29.49933     41.1 2.753e+04 1.738e-08
 29.50881     34.5 2.749e+04 2.320e-08
 29.51366     34.6 2.740e+04 2.233e-08
 29.51473     36.3 2.724e+04 2.194e-08
 29.52048     29.5 2.683e+04 2.539e-08
 29.53108     22.6 2.517e+04 2.307e-08
 29.53752     14.6 2.223e+04 1.400e-08
 29.54817     14.6 2.183e+04 1.209e-08
 29.56089      8.1 1.955e+04 5.845e-09
 29.56614      7.7 1.916e+04 5.124e-09
 29.57348      2.7 1.819e+04 2.969e-09
 29.58426     -4.1 1.552e+04 1.789e-09
 29.59491     -4.2 1.490e+04 1.823e-09
 29.61067    -10.3 1.320e+04 1.361e-09
 29.63104    -12.4 1.291e+04 1.302e-09
 29.64164    -11.7 1.276e+04 1.249e-09
 29.64784    -12.8 1.269e+04 1.259e-09
 29.65843    -10.7 1.287e+04 1.311e-09
 29.67427    -12.0 1.284e+04 1.404e-09
 29.68838    -13.0 1.279e+04 1.458e-09
 29.69898    -13.0 1.249e+04 1.239e-09
 29.71667    -13.8 1.238e+04 1.218e-09
 29.73512    -14.3 1.225e+04 1.152e-09
 29.74572    -14.4 1.200e+04 9.706e-10
 29.75907    -14.9 1.186e+04 8.894e-10
 29.78027    -15.2 1.167e+04 7.845e-10
 29.79245    -15.4 1.142e+04 6.620e-10
 29.80305    -15.5 1.125e+04 5.777e-10
 29.82267    -15.6 1.098e+04 4.747e-10
 29.83919    -15.9 1.067e+04 3.881e-10
 29.84979    -16.2 1.052e+04 3.478e-10
 29.87542    -16.2 1.036e+04 3.286e-10
 29.89672    -15.7 1.023e+04 2.992e-10
 29.91405    -14.3 1.002e+04 2.775e-10
 29.93525    -13.1 1.000e+04 2.769e-10
 29.96066    -11.5 9.968e+03 2.753e-10
 29.99019    -10.0 9.996e+03 2.811e-10
 30.01139     -9.5 1.014e+04 3.044e-10
 30.04546     -8.1 1.024e+04 3.239e-10
 30.08367     -6.7 1.029e+04 3.328e-10
 30.10487     -6.2 1.050e+04 3.796e-10
 30.13026     -4.7 1.051e+04 3.829e-10
 30.17265     -3.1 1.056e+04 3.701e-10
 30.19834     -1.5 1.060e+04 3.602e-10
 30.20566     -1.7 1.071e+04 3.997e-10
 30.21167     -1.3 1.068e+04 3.866e-10
 30.22546     -1.0 1.071e+04 3.864e-10
 30.24488     -0.1 1.078e+04 3.914e-10
 30.25548     -0.3 1.091e+04 4.469e-10
 30.26786      0.0 1.101e+04 4.810e-10
 30.28906      0.3 1.114e+04 5.435e-10
 30.30221      0.6 1.132e+04 6.303e-10
 30.31281      0.7 1.152e+04 7.639e-10
 30.33145      1.1 1.172e+04 8.732e-10
 30.34895      1.5 1.193e+04 9.796e-10
 30.35955      1.7 1.217e+04 1.119e-09
 30.37385      2.0 1.230e+04 1.174e-09
 30.39505      2.1 1.234e+04 1.187e-09
 30.40629      2.2 1.230e+04 1.147e-09
 30.41689      2.1 1.230e+04 1.136e-09
 30.43745      2.1 1.206e+04 9.950e-10
 30.46719      2.2 1.163e+04 7.867e-10
 30.48839      3.4 1.156e+04 7.427e-10
 30.49976      4.0 1.117e+04 5.784e-10
 30.51036      4.3 1.102e+04 5.346e-10
 30.52225      4.6 1.090e+04 4.795e-10
 30.55415      5.6 1.068e+04 3.717e-10
 30.59343      6.7 1.060e+04 3.299e-10
 30.61463      7.9 1.061e+04 3.412e-10
 30.63904      8.7 1.072e+04 3.466e-10
 30.68144      9.1 1.102e+04 4.000e-10
 30.70800      9.0 1.125e+04 4.820e-10
 30.71850      9.0 1.142e+04 6.003e-10
 30.73424      8.7 1.149e+04 6.666e-10
 30.75431      8.6 1.151e+04 7.078e-10
 30.76411      9.2 1.151e+04 6.584e-10
 30.76524      9.5 1.174e+04 8.730e-10
 30.77664      9.4 1.176e+04 9.084e-10
 30.79784      9.4 1.173e+04 9.149e-10
 30.81198      9.6 1.157e+04 8.552e-10
 30.82258     10.0 1.190e+04 1.098e-09
 30.84024     10.2 1.172e+04 9.277e-10
 30.85871     10.3 1.151e+04 7.388e-10
 30.86931     10.3 1.183e+04 8.633e-10
 30.88264     10.1 1.163e+04 6.777e-10
 30.90384      9.9 1.150e+04 5.447e-10
 30.91605      9.7 1.143e+04 4.688e-10
 30.92665      9.3 1.168e+04 5.376e-10
 30.94624      9.0 1.169e+04 5.146e-10
 30.96279      8.7 1.176e+04 5.208e-10
 30.97339      8.1 1.198e+04 6.162e-10
 30.98864      7.7 1.210e+04 7.005e-10
 31.00952      7.4 1.222e+04 8.205e-10
 31.02012      6.9 1.233e+04 9.496e-10
 31.03093      6.8 1.239e+04 1.061e-09
 31.04153      6.9 1.207e+04 6.987e-10
 31.05224      6.9 1.205e+04 7.617e-10
 31.06686      7.1 1.203e+04 7.930e-10
 31.07746      6.8 1.201e+04 8.189e-10
 31.09463      7.0 1.199e+04 7.450e-10
 31.11359      6.8 1.191e+04 6.036e-10
 31.12419      6.3 1.183e+04 5.326e-10
 31.14773      5.8 1.156e+04 4.024e-10
 31.19023      6.2 1.122e+04 3.558e-10
 31.21786      7.2 1.111e+04 3.512e-10
 31.23906      7.2 1.119e+04 3.653e-10
 31.27502      8.5 1.120e+04 3.954e-10
 31.31133      9.6 1.127e+04 4.405e-10
 31.33253      9.1 1.152e+04 5.204e-10
 31.35982     10.2 1.157e+04 5.557e-10
 31.39152     10.9 1.151e+04 5.653e-10
 31.41263     11.4 1.145e+04 5.353e-10
 31.42581     11.9 1.143e+04 5.145e-10
 31.43641     11.5 1.143e+04 5.122e-10
 31.45502     12.0 1.141e+04 4.757e-10
 31.47255     12.5 1.140e+04 4.545e-10
 31.48315     12.2 1.144e+04 4.554e-10
 31.49742     12.4 1.148e+04 4.427e-10
 31.51938     12.7 1.154e+04 4.390e-10
 31.54058     12.6 1.159e+04 4.459e-10
 31.56102     12.8 1.167e+04 4.605e-10
 31.57662     12.8 1.170e+04 4.735e-10
 31.58722     12.2 1.175e+04 5.157e-10
 31.59477     12.3 1.177e+04 5.301e-10
 31.61480     13.8 1.170e+04 4.784e-10
 31.63405     12.7 1.177e+04 5.065e-10
 31.65652     12.2 1.184e+04 4.713e-10
 31.69901     11.9 1.184e+04 4.370e-10
 31.72762     12.0 1.179e+04 4.130e-10
 31.74882     11.7 1.165e+04 3.711e-10
 31.78381     11.8 1.163e+04 3.414e-10
 31.82110     11.6 1.162e+04 3.290e-10
 31.84230     11.0 1.168e+04 3.320e-10
 31.86861      9.9 1.186e+04 3.675e-10
 31.91101      8.2 1.267e+04 7.152e-10
 31.93577      7.0 1.350e+04 1.381e-09
 31.95697      6.0 1.363e+04 1.508e-09
 31.99581      4.5 1.387e+04 1.736e-09
 32.02924      3.2 1.366e+04 1.517e-09
 32.05044      2.4 1.340e+04 1.169e-09
 32.08060      2.0 1.278e+04 6.071e-10
 32.12271      1.8 1.225e+04 3.579e-10
 32.14391      0.9 1.218e+04 3.469e-10
 32.14821      1.4 1.197e+04 3.095e-10
 32.16940      1.7 1.189e+04 2.700e-10
 32.20780      2.9 1.184e+04 2.656e-10
 32.23739      4.0 1.184e+04 2.885e-10
 32.25859      4.2 1.177e+04 2.947e-10
 32.29260      5.2 1.183e+04 3.192e-10
 32.33086      5.8 1.192e+04 3.365e-10
 32.35206      6.3 1.190e+04 3.413e-10
 32.37740      7.0 1.206e+04 3.741e-10
 32.39870      7.1 1.224e+04 4.222e-10
 32.40920      7.4 1.224e+04 4.224e-10
 32.42463      7.4 1.227e+04 4.382e-10
 32.43523      8.1 1.224e+04 4.270e-10
 32.44534      8.4 1.230e+04 4.661e-10
 32.45593      9.0 1.233e+04 4.811e-10
 32.47260      9.3 1.235e+04 5.089e-10
 32.49207      9.2 1.245e+04 5.932e-10
 32.50267      9.9 1.252e+04 5.943e-10
 32.51500      7.4 1.365e+04 9.314e-10
 32.53620      3.6 1.561e+04 2.198e-09
 32.54941      0.6 1.693e+04 5.189e-09
 32.56001     -0.4 1.773e+04 6.855e-09
 32.57859     -2.3 1.868e+04 1.234e-08
 32.59445     -3.6 1.946e+04 1.636e-08
 32.60135     -5.7 1.969e+04 1.833e-08
 32.60665     -6.8 2.009e+04 2.248e-08
 32.61560     -8.1 1.996e+04 2.272e-08
 32.62471     -8.7 1.920e+04 2.026e-08
 32.63001     -9.1 1.937e+04 2.219e-08
 32.63680    -10.0 1.863e+04 1.503e-08
 32.64740    -11.7 1.767e+04 9.698e-09
 32.65338    -13.6 1.650e+04 6.498e-09
 32.65868    -14.4 1.629e+04 5.990e-09
 32.66859    -15.5 1.546e+04 4.579e-09
 32.68454    -16.0 1.491e+04 3.410e-09
 32.70022    -16.9 1.391e+04 1.852e-09
 32.70627    -18.7 1.339e+04 1.219e-09
 32.71185    -17.7 1.359e+04 1.462e-09
 32.72699    -19.8 1.241e+04 7.842e-10
 32.74695    -20.8 1.167e+04 5.523e-10
 32.76825    -21.5 1.129e+04 4.522e-10
 32.80138    -18.9 1.088e+04 3.645e-10
 32.84062    -16.6 1.058e+04 2.755e-10
 32.86182    -16.6 1.038e+04 2.205e-10
 32.88618    -15.0 1.036e+04 1.807e-10
 32.92858    -13.5 1.025e+04 1.565e-10
 32.95529    -12.0 1.017e+04 1.377e-10
 32.97649    -11.6 1.009e+04 1.341e-10
 33.01338    -10.0 9.987e+03 1.205e-10
 33.04877     -8.3 9.910e+03 1.134e-10
 33.06996     -7.7 9.867e+03 1.106e-10
 33.09818     -6.0 9.793e+03 1.075e-10
 33.14057     -4.4 9.745e+03 1.066e-10
 33.16344     -2.7 9.681e+03 1.069e-10
 33.18464     -2.0 9.628e+03 1.004e-10
 33.22537     -0.3 9.558e+03 9.754e-11
 33.25468      1.4 9.498e+03 9.206e-11
 33.26502      2.0 9.532e+03 1.049e-10
 33.27811      2.7 9.461e+03 9.312e-11
 33.31017      4.3 9.391e+03 8.564e-11
 33.35038      5.8 9.332e+03 7.818e-11
 33.37158      6.6 9.264e+03 7.183e-11
 33.39497      8.2 9.239e+03 6.990e-11
 33.43737      9.6 9.226e+03 6.987e-11
 33.46505     10.7 9.359e+03 7.240e-11
 33.48625     11.6 9.354e+03 7.650e-11
 33.52216     12.2 9.528e+03 1.006e-10
 33.55853     12.4 9.770e+03 1.516e-10
 33.57973     13.3 9.885e+03 1.906e-10
 33.60696     13.4 1.025e+04 3.033e-10
 33.64936     13.4 1.059e+04 4.345e-10
 33.67320     13.0 1.081e+04 5.167e-10
 33.69440     13.6 1.093e+04 5.770e-10
 33.73416     12.7 1.091e+04 5.689e-10
 33.76667     12.0 1.068e+04 4.588e-10
 33.78787     12.5 1.064e+04 4.472e-10
 33.80792     12.1 1.040e+04 3.451e-10
 33.82912     12.9 1.037e+04 3.515e-10
 33.86014     12.8 1.018e+04 2.749e-10
 33.88134     13.5 1.019e+04 2.821e-10
 33.90375     13.7 1.003e+04 2.289e-10
 33.94615     14.0 9.942e+03 1.987e-10
 33.97482     14.3 9.940e+03 1.917e-10
 33.99602     15.3 9.933e+03 2.017e-10
 34.03095     15.5 1.003e+04 2.074e-10
 34.06829     15.5 1.018e+04 2.531e-10
 34.08949     16.6 1.032e+04 2.983e-10
 34.11575     16.7 1.053e+04 3.708e-10
 34.15815     16.6 1.064e+04 4.004e-10
 34.18296     16.2 1.065e+04 4.019e-10
 34.20416     16.9 1.096e+04 5.103e-10
 34.24295     16.4 1.093e+04 4.955e-10
 34.27643     15.9 1.092e+04 4.759e-10
 34.29763     16.2 1.129e+04 6.325e-10
 34.32774     15.6 1.119e+04 5.792e-10
 34.36116     14.9 1.119e+04 5.147e-10
 34.38212     15.9 1.100e+04 4.833e-10
 34.39111     15.8 1.115e+04 5.272e-10
 34.41254     15.2 1.105e+04 4.483e-10
 34.45494     15.2 1.111e+04 4.436e-10
 34.48448     14.7 1.133e+04 5.133e-10
 34.49498     14.7 1.134e+04 5.212e-10
 34.50774     14.5 1.148e+04 5.698e-10
 34.52894     14.4 1.163e+04 6.307e-10
 34.54172     14.5 1.169e+04 6.661e-10
 34.55232     14.3 1.170e+04 6.597e-10
 34.57134     14.3 1.182e+04 7.124e-10
 34.58846     14.3 1.186e+04 7.242e-10
 34.59915     14.7 1.171e+04 6.409e-10
 34.62454     14.5 1.179e+04 6.567e-10
 34.66693     14.2 1.170e+04 6.049e-10
 34.69272     13.9 1.139e+04 5.105e-10
 34.71392     14.4 1.112e+04 4.233e-10
 34.75173     14.2 1.089e+04 3.686e-10
 34.78620     14.1 1.074e+04 3.330e-10
 34.80740     14.4 1.062e+04 3.013e-10
 34.83653     14.2 1.057e+04 2.986e-10
 34.87893     14.0 1.053e+04 3.014e-10
 34.90087     13.9 1.045e+04 2.992e-10
 34.91514     14.2 1.044e+04 2.969e-10
 34.93560     14.4 1.034e+04 2.814e-10
 34.96373     14.3 1.027e+04 2.779e-10
 34.99434     14.3 1.011e+04 2.551e-10
 35.01554     14.6 1.010e+04 2.514e-10
 35.04852     14.6 9.934e+03 2.220e-10
 35.08781     14.8 9.790e+03 2.025e-10
 35.10901     15.2 9.735e+03 1.934e-10
 35.13332     15.5 9.656e+03 1.894e-10
 35.17572     16.0 9.613e+03 1.896e-10
 35.20249     16.5 9.562e+03 1.904e-10
 35.22368     17.1 9.546e+03 1.916e-10
 35.26052     17.8 9.492e+03 1.873e-10
 35.29596     18.5 9.414e+03 1.711e-10
 35.31716     19.1 9.411e+03 1.712e-10
 35.34532     19.8 9.313e+03 1.483e-10
 35.38772     20.6 9.195e+03 1.256e-10
 35.41063     21.3 9.067e+03 1.085e-10
 35.43183     21.8 9.063e+03 1.085e-10
 35.46764     22.6 9.027e+03 9.859e-11
 35.48884     22.5 9.024e+03 1.004e-10
 35.50410     23.2 9.018e+03 9.868e-11
 35.52530     23.7 9.013e+03 9.997e-11
 35.55731     24.2 9.046e+03 1.024e-10
 35.59757     24.6 9.114e+03 1.142e-10
 35.61877     25.2 9.110e+03 1.146e-10
 35.64211     25.6 9.132e+03 1.223e-10
 35.68451     26.0 9.125e+03 1.252e-10
 35.71225     26.5 9.115e+03 1.257e-10
 35.73345     27.2 9.109e+03 1.262e-10
 35.76930     27.9 9.088e+03 1.248e-10
 35.80572     28.7 9.080e+03 1.227e-10
 35.82692     29.4 9.084e+03 1.285e-10
 35.85410     30.2 9.118e+03 1.311e-10
 35.89650     31.0 9.257e+03 1.515e-10
 35.92039     31.8 9.537e+03 1.949e-10
 35.94159     32.2 9.805e+03 2.402e-10
 35.98130     33.1 1.023e+04 3.254e-10
 36.01386     33.9 1.052e+04 3.881e-10
 36.03224     33.6 1.057e+04 4.351e-10
 36.04198     34.1 1.055e+04 4.329e-10
 36.05530     34.6 1.061e+04 4.436e-10
 36.07101     34.7 1.066e+04 4.399e-10
 36.08160     34.6 1.072e+04 4.767e-10
 36.10724     35.3 1.069e+04 4.272e-10
 36.12854     35.1 1.082e+04 4.758e-10
 36.15089     36.2 1.052e+04 4.071e-10
 36.19329     37.3 1.048e+04 3.962e-10
 36.22201     38.4 1.054e+04 4.502e-10
 36.24321     38.0 1.055e+04 4.767e-10
 36.27809     39.2 1.083e+04 6.081e-10
 36.31548     40.3 1.106e+04 7.402e-10
 36.33668     39.7 1.092e+04 6.639e-10
 36.36289     40.4 1.097e+04 6.906e-10
 36.40529     41.1 1.094e+04 6.763e-10
 36.43015     41.8 1.077e+04 6.054e-10
 36.45135     41.3 1.050e+04 4.898e-10
 36.49009     42.1 1.035e+04 4.127e-10
 36.52363     43.0 1.022e+04 3.671e-10
 36.54483     42.8 1.007e+04 3.288e-10
 36.57412     43.7 1.006e+04 3.222e-10
 36.59532     43.2 1.004e+04 3.164e-10
 36.61710     43.7 1.024e+04 3.386e-10
 36.65950     43.9 1.068e+04 4.587e-10
 36.70208     43.8 1.113e+04 6.599e-10
 36.73177     43.0 1.158e+04 9.282e-10
 36.75297     43.1 1.150e+04 8.726e-10
 36.78688     42.2 1.174e+04 1.037e-09
 36.81858     41.9 1.180e+04 1.056e-09
 36.83565     41.4 1.181e+04 1.060e-09
 36.84625     41.6 1.173e+04 1.006e-09
 36.86088     41.2 1.161e+04 8.949e-10
 36.87174     41.0 1.142e+04 6.930e-10
 36.88234     40.4 1.140e+04 7.288e-10
 36.89298     40.1 1.115e+04 5.320e-10
 36.90358     40.4 1.107e+04 4.689e-10
 36.92448     39.8 1.077e+04 3.476e-10
 36.93982     39.8 1.053e+04 2.795e-10
 36.96112     40.6 1.045e+04 2.507e-10
 36.99887     41.9 9.941e+03 1.564e-10
 37.03339     43.4 9.689e+03 1.057e-10
 37.05459     44.1 9.658e+03 1.047e-10
 37.08367     45.5 9.631e+03 8.890e-11
 37.12607     46.9 9.600e+03 8.542e-11
 37.14806     48.3 9.622e+03 9.054e-11
 37.14935     48.9 9.549e+03 8.957e-11
 37.16975     48.4 9.645e+03 1.090e-10
 37.21087     49.9 9.801e+03 1.434e-10
 37.24153     51.4 1.009e+04 1.943e-10
 37.26273     51.9 9.889e+03 1.693e-10
 37.29566     53.2 1.026e+04 2.207e-10
 37.33501     54.3 1.070e+04 2.980e-10
 37.35621     54.8 1.050e+04 2.584e-10
 37.36976     55.6 1.071e+04 3.099e-10
 37.39087     55.5 1.081e+04 3.384e-10
 37.40275     55.5 1.115e+04 5.120e-10
 37.41335     55.7 1.105e+04 4.516e-10
 37.42498     55.6 1.131e+04 6.858e-10
 37.43558     55.0 1.150e+04 8.625e-10
 37.44948     55.6 1.176e+04 1.148e-09
 37.46008     55.6 1.171e+04 1.096e-09
 37.47566     56.3 1.200e+04 1.350e-09
 37.49622     56.9 1.221e+04 1.488e-09
 37.50682     56.9 1.217e+04 1.451e-09
 37.51806     57.3 1.227e+04 1.491e-09
 37.53926     57.6 1.222e+04 1.421e-09
 37.55355     57.9 1.207e+04 1.272e-09
 37.56415     57.8 1.205e+04 1.258e-09
 37.58166     58.0 1.189e+04 1.132e-09
 37.60029     58.1 1.179e+04 1.054e-09
 37.61089     57.9 1.179e+04 1.045e-09
 37.62406     58.1 1.190e+04 1.027e-09
 37.64526     58.1 1.204e+04 1.097e-09
 37.65763     58.1 1.236e+04 1.219e-09
 37.66823     57.3 1.267e+04 1.261e-09
 37.68766     57.0 1.303e+04 1.473e-09
 37.70160     56.7 1.346e+04 1.831e-09
 37.70770     55.6 1.412e+04 2.512e-09
 37.71496     54.6 1.411e+04 2.491e-09
 37.73006     54.6 1.446e+04 3.070e-09
 37.75110     54.7 1.473e+04 3.580e-09
 37.76170     53.7 1.450e+04 3.151e-09
 37.77246     53.7 1.460e+04 3.272e-09
 37.79366     53.6 1.465e+04 3.189e-09
 37.80844     53.2 1.462e+04 3.112e-09
 37.81904     52.1 1.399e+04 2.309e-09
 37.83605     51.4 1.402e+04 2.319e-09
 37.85517     50.6 1.405e+04 2.385e-09
 37.86577     49.8 1.357e+04 1.752e-09
 37.87845     49.1 1.359e+04 1.858e-09
 37.89965     48.6 1.358e+04 1.885e-09
 37.91251     48.2 1.360e+04 1.875e-09
 37.92311     47.4 1.331e+04 1.547e-09
 37.94205     46.9 1.326e+04 1.524e-09
 37.95934     46.0 1.309e+04 1.384e-09
 37.98064     43.9 1.236e+04 9.551e-10
 38.01644     43.1 1.198e+04 8.955e-10
 38.05291     42.4 1.159e+04 8.375e-10
 38.07411     41.3 1.103e+04 6.894e-10
 38.10124     41.0 1.078e+04 6.629e-10
 38.14364     41.2 1.054e+04 5.942e-10
 38.16758     41.8 1.024e+04 4.642e-10
 38.18878     41.7 9.979e+03 3.505e-10
 38.22844     42.4 9.660e+03 2.431e-10
 38.25503     43.1 9.336e+03 1.721e-10
 38.26645     42.3 8.990e+03 1.360e-10
 38.28226     42.3 8.871e+03 1.185e-10
 38.31324     43.5 8.807e+03 1.133e-10
 38.35453     45.0 8.800e+03 1.125e-10
 38.37573     45.1 8.808e+03 1.090e-10
 38.39803     46.2 8.981e+03 1.302e-10
 38.44043     47.2 9.297e+03 1.979e-10
 38.46920     48.3 9.783e+03 3.210e-10
 38.49040     48.1 9.790e+03 3.197e-10
 38.52523     49.1 1.036e+04 4.954e-10
 38.56267     49.9 1.090e+04 6.805e-10
 38.58387     49.3 1.064e+04 5.384e-10
 38.61003     49.4 1.084e+04 5.565e-10
 38.65243     49.0 1.093e+04 5.443e-10
 38.67735     48.4 1.100e+04 5.414e-10
 38.69855     47.8 1.075e+04 5.147e-10
 38.72398     47.7 1.105e+04 5.854e-10
 38.73449     47.6 1.102e+04 5.845e-10
 38.74763     46.9 1.136e+04 6.874e-10
 38.76883     45.7 1.209e+04 9.889e-10
 38.78122     44.6 1.279e+04 1.437e-09
 38.79182     44.3 1.298e+04 1.597e-09
 38.80808     43.6 1.356e+04 2.152e-09
 38.81868     42.6 1.407e+04 2.603e-09
 38.82796     41.9 1.444e+04 2.994e-09
 38.83856     41.8 1.446e+04 2.965e-09
 38.85363     40.8 1.451e+04 2.968e-09
 38.87470     39.6 1.430e+04 2.377e-09
 38.88530     39.2 1.420e+04 2.166e-09
 38.89603     37.8 1.354e+04 1.549e-09
 38.91723     36.7 1.305e+04 1.228e-09
 38.94912     35.5 1.261e+04 1.010e-09
 38.97887     36.1 1.217e+04 7.776e-10
 38.98937     36.2 1.214e+04 7.559e-10
 39.00202     36.4 1.206e+04 7.040e-10
 39.02322     36.4 1.186e+04 6.383e-10
 39.03610     36.8 1.179e+04 6.233e-10
 39.04670     36.9 1.175e+04 6.009e-10
 39.06562     37.4 1.172e+04 5.963e-10
 39.08284     37.9 1.175e+04 6.108e-10
 39.09131     38.0 1.172e+04 5.962e-10
 39.09529     36.9 1.181e+04 6.198e-10
 39.10802     37.4 1.186e+04 6.426e-10
 39.12922     37.8 1.191e+04 6.613e-10
 39.14018     38.3 1.196e+04 6.803e-10
 39.15078     38.3 1.185e+04 6.367e-10
 39.17162     38.8 1.193e+04 6.572e-10
 39.18691     39.3 1.201e+04 6.824e-10
 39.19751     39.3 1.187e+04 6.249e-10
 39.21402     39.8 1.193e+04 6.406e-10
 39.23365     40.3 1.200e+04 6.648e-10
 39.24425     40.2 1.180e+04 5.807e-10
 39.25642     40.5 1.187e+04 6.078e-10
 39.27762     40.9 1.194e+04 6.505e-10
 39.29099     41.3 1.201e+04 7.078e-10
 39.30159     41.0 1.191e+04 6.859e-10
 39.32001     41.3 1.207e+04 7.866e-10
 39.33772     41.6 1.229e+04 9.243e-10
 39.34832     41.2 1.231e+04 9.511e-10
 39.36131     41.4 1.265e+04 1.175e-09
 39.37191     40.3 1.286e+04 1.293e-09
 39.38361     40.4 1.343e+04 1.714e-09
 39.39506     40.5 1.410e+04 2.286e-09
 39.40566     40.5 1.383e+04 2.113e-09
 39.42601     40.5 1.429e+04 2.541e-09
 39.44179     40.5 1.466e+04 2.922e-09
 39.45239     40.5 1.408e+04 2.330e-09
 39.46841     40.5 1.421e+04 2.435e-09
 39.48853     40.6 1.431e+04 2.506e-09
 39.49913     40.6 1.364e+04 1.913e-09
 39.51081     40.7 1.372e+04 1.929e-09
 39.53201     40.8 1.399e+04 2.034e-09
 39.54587     40.5 1.457e+04 2.334e-09
 39.55647     40.7 1.379e+04 1.677e-09
 39.57441     40.0 1.465e+04 2.122e-09
 39.59260     39.1 1.554e+04 3.059e-09
 39.60320     39.4 1.485e+04 2.079e-09
 39.61681     38.5 1.568e+04 3.230e-09
 39.63793     38.0 1.607e+04 4.870e-09
 39.64987     37.1 1.584e+04 5.865e-09
 39.66054     36.9 1.547e+04 5.043e-09
 39.68041     37.3 1.558e+04 5.634e-09
 39.69667     37.6 1.542e+04 5.469e-09
 39.70727     37.4 1.539e+04 5.346e-09
 39.72280     37.7 1.503e+04 4.728e-09
 39.74341     37.9 1.454e+04 3.086e-09
 39.75401     38.0 1.462e+04 3.527e-09
 39.76520     37.8 1.392e+04 2.148e-09
 39.78640     37.0 1.297e+04 1.229e-09
 39.80075     36.3 1.201e+04 7.916e-10
 39.81135     36.7 1.237e+04 9.969e-10
 39.83950     37.1 1.209e+04 8.896e-10
 39.88200     37.7 1.123e+04 6.082e-10
 39.90501     38.9 1.075e+04 4.657e-10
 39.91657     39.4 1.128e+04 6.398e-10
 39.93595     38.2 1.081e+04 4.613e-10
 39.96679     39.3 1.046e+04 3.830e-10
 39.99849     40.6 1.021e+04 3.324e-10
 40.01969     40.5 1.019e+04 3.293e-10
 40.05159     41.8 9.956e+03 2.724e-10
 40.09196     43.3 9.725e+03 2.149e-10
 40.11316     43.1 9.545e+03 1.785e-10
 40.13639     44.4 9.269e+03 1.404e-10
 40.17879     45.7 9.028e+03 1.271e-10
 40.20663     47.3 8.984e+03 1.260e-10
 40.22783     47.4 8.970e+03 1.263e-10
 40.26359     49.1 8.956e+03 1.315e-10
 40.30010     50.6 9.021e+03 1.466e-10
 40.32130     51.0 9.009e+03 1.616e-10
 40.34838     52.3 9.201e+03 1.924e-10
 40.39078     53.1 9.540e+03 2.510e-10
 40.41468     53.3 9.882e+03 3.306e-10
 40.42518     53.6 9.866e+03 3.303e-10
 40.44358     53.4 9.918e+03 3.500e-10
 40.46132     52.5 1.029e+04 4.981e-10
 40.47192     52.8 1.034e+04 5.145e-10
 40.47839     51.7 1.101e+04 7.881e-10
 40.48899     50.5 1.122e+04 8.813e-10
 40.50718     49.3 1.208e+04 1.374e-09
 40.51865     48.1 1.280e+04 1.956e-09
 40.52925     48.4 1.286e+04 2.009e-09
 40.54958     47.0 1.323e+04 2.407e-09
 40.56539     45.5 1.327e+04 2.497e-09
 40.57599     45.9 1.329e+04 2.523e-09
 40.59198     44.6 1.288e+04 2.344e-09
 40.61213     43.7 1.229e+04 1.826e-09
 40.62273     44.1 1.229e+04 1.833e-09
 40.63438     43.2 1.173e+04 1.309e-09
 40.65558     41.9 1.112e+04 8.928e-10
 40.66946     40.3 1.044e+04 6.394e-10
 40.68006     41.0 1.046e+04 6.495e-10
 40.69798     39.7 1.003e+04 5.488e-10
 40.71620     39.2 9.921e+03 5.306e-10
 40.72680     40.0 9.920e+03 5.301e-10
 40.74038     39.8 9.935e+03 5.501e-10
 40.75501     39.7 1.021e+04 6.537e-10
 40.76561     39.4 1.035e+04 7.259e-10
 40.77353     39.4 1.069e+04 8.861e-10
 40.78413     40.4 1.067e+04 8.777e-10
 40.80398     40.2 1.115e+04 1.098e-09
 40.82027     39.2 1.198e+04 1.472e-09
 40.83087     40.8 1.172e+04 1.350e-09
 40.84637     39.0 1.287e+04 1.914e-09
 40.86701     36.2 1.424e+04 2.920e-09
 40.87761     37.6 1.406e+04 2.650e-09
 40.88877     34.1 1.535e+04 4.078e-09
 40.90093     31.5 1.619e+04 5.371e-09
 40.90618     31.8 1.637e+04 5.366e-09
 40.91517     29.3 1.725e+04 6.495e-09
 40.92425     26.7 1.784e+04 7.915e-09
 40.92955     26.2 1.825e+04 8.635e-09
 40.93637     23.8 1.847e+04 9.854e-09
 40.94697     21.5 1.849e+04 1.062e-08
 40.95291     19.2 1.857e+04 1.114e-08
 40.95821     18.0 1.913e+04 1.260e-08
 40.96817     15.3 1.944e+04 1.312e-08
 40.97628     12.7 1.967e+04 1.334e-08
 40.98158     10.4 2.068e+04 1.550e-08
 40.98937      7.5 2.067e+04 1.380e-08
 40.99965      4.9 2.026e+04 1.228e-08
 41.00495      2.6 2.066e+04 1.258e-08
 41.01592      2.6 1.994e+04 1.160e-08
 41.02842      0.1 1.988e+04 1.161e-08
 41.03348     -6.6 2.083e+04 9.928e-09
 41.04223     -7.1 2.062e+04 9.961e-09
 41.05837     -9.2 2.001e+04 8.479e-09
 41.07515    -10.7 1.961e+04 7.978e-09
 41.08575    -16.4 1.863e+04 5.018e-09
 41.10077    -17.0 1.847e+04 5.116e-09
 41.12189    -17.8 1.854e+04 5.895e-09
 41.14309    -21.2 1.745e+04 4.620e-09
 41.16437    -21.5 1.771e+04 5.063e-09
 41.17922    -22.0 1.775e+04 5.218e-09
 41.18982    -23.8 1.583e+04 3.552e-09
 41.20676    -24.1 1.579e+04 3.555e-09
 41.22596    -24.4 1.547e+04 3.360e-09
 41.23656    -25.3 1.377e+04 2.507e-09
 41.24916    -25.3 1.346e+04 2.293e-09
 41.27036    -25.1 1.317e+04 2.066e-09
 41.28330    -24.9 1.298e+04 1.886e-09
 41.29390    -24.9 1.244e+04 1.651e-09
 41.30825    -24.5 1.231e+04 1.577e-09
 41.31885    -23.7 1.245e+04 1.639e-09
 41.33003    -23.2 1.230e+04 1.563e-09
 41.34063    -22.7 1.223e+04 1.550e-09
 41.35516    -22.0 1.212e+04 1.488e-09
 41.37636    -21.3 1.204e+04 1.429e-09
 41.38737    -20.6 1.198e+04 1.377e-09
 41.39797    -19.5 1.208e+04 1.448e-09
 41.41876    -19.8 1.255e+04 1.511e-09
 41.43411    -22.9 1.478e+04 2.309e-09
 41.44471    -22.9 1.641e+04 3.317e-09
 41.46116    -26.2 1.818e+04 7.415e-09
 41.48084    -28.5 1.907e+04 1.320e-08
 41.49139    -28.1 1.991e+04 1.688e-08
 41.49816    -30.0 2.017e+04 2.235e-08
 41.50876    -31.5 2.024e+04 2.518e-08
 41.51471    -32.7 2.020e+04 2.588e-08
 41.52001    -32.7 2.082e+04 3.146e-08
 41.52996    -34.1 2.099e+04 2.684e-08
 41.53808    -36.7 2.155e+04 1.861e-08
 41.54338    -39.0 2.260e+04 1.766e-08
 41.55116    -44.5 2.195e+04 9.632e-09
 41.56145    -50.6 1.936e+04 5.390e-09
 41.56675    -54.8 1.815e+04 4.592e-09
 41.57236    -57.3 1.581e+04 3.731e-09
 41.58482    -57.2 1.530e+04 3.377e-09
 41.59547    -61.8 1.557e+04 3.772e-09
 41.60955    -61.5 1.452e+04 3.033e-09
 41.63075    -61.7 1.362e+04 2.411e-09
 41.64225    -61.8 1.318e+04 1.965e-09
 41.65285    -62.2 1.321e+04 1.868e-09
 41.67315    -61.9 1.275e+04 1.463e-09
 41.68899    -61.7 1.222e+04 1.117e-09
 41.69959    -61.9 1.220e+04 1.117e-09
 41.71555    -61.7 1.164e+04 8.544e-10
 41.73572    -61.3 1.110e+04 6.456e-10
 41.74632    -61.0 1.115e+04 6.731e-10
 41.75795    -60.4 1.072e+04 5.178e-10
 41.77915    -59.8 1.041e+04 4.087e-10
 41.79306    -59.3 1.024e+04 3.480e-10
 41.80366    -59.1 1.035e+04 3.724e-10
 41.82929    -58.7 1.021e+04 3.275e-10
 41.85049    -58.5 1.032e+04 3.581e-10
 41.86149    -58.2 1.032e+04 3.555e-10
 41.87209    -58.4 1.031e+04 3.520e-10
 41.88515    -58.3 1.034e+04 3.643e-10
 41.89713    -58.1 1.043e+04 4.011e-10
 41.90773    -58.8 1.059e+04 4.867e-10
 41.92755    -58.5 1.064e+04 5.404e-10
 41.94387    -58.1 1.068e+04 5.891e-10
 41.95447    -58.2 1.079e+04 6.509e-10
 41.96994    -57.8 1.076e+04 6.445e-10
 41.99060    -57.5 1.068e+04 6.088e-10
 42.00120    -57.8 1.064e+04 5.790e-10
 42.01234    -57.8 1.051e+04 5.126e-10
 42.03354    -57.9 1.041e+04 4.572e-10
 42.04794    -58.0 1.038e+04 4.381e-10
 42.05854    -58.6 1.026e+04 3.887e-10
 42.08664    -58.5 1.023e+04 3.728e-10
 42.12770    -57.9 1.017e+04 3.636e-10
 42.14890    -58.0 9.807e+03 2.966e-10
 42.15221    -57.9 9.809e+03 2.953e-10
 42.17341    -58.1 9.602e+03 2.555e-10
 42.21393    -58.3 9.979e+03 3.433e-10
 42.24568    -58.6 1.053e+04 5.034e-10
 42.26688    -58.1 1.042e+04 4.862e-10
 42.29873    -58.2 1.072e+04 6.263e-10
 42.33043    -58.8 1.073e+04 7.040e-10
 42.34956    -59.0 1.068e+04 7.023e-10
 42.36016    -59.0 1.053e+04 6.862e-10
 42.37273    -59.1 1.026e+04 5.844e-10
 42.39393    -59.4 1.001e+04 4.586e-10
 42.40689    -60.1 9.844e+03 3.602e-10
 42.41709    -60.4 9.758e+03 3.237e-10
 42.42533    -60.6 9.809e+03 3.414e-10
 42.43633    -61.7 9.818e+03 3.096e-10
 42.45363    -63.0 9.839e+03 3.040e-10
 42.47493    -63.6 9.801e+03 2.825e-10
 42.51073    -65.5 1.017e+04 3.539e-10
 42.54243    -66.6 1.045e+04 5.251e-10
 42.55770    -67.1 1.052e+04 5.959e-10
 42.56840    -66.1 1.016e+04 4.254e-10
 42.58483    -67.2 1.030e+04 5.269e-10
 42.60444    -67.8 1.026e+04 5.232e-10
 42.61504    -67.9 1.014e+04 4.577e-10
 42.62713    -69.1 1.013e+04 4.147e-10
 42.64833    -71.1 1.018e+04 3.917e-10
 42.66177    -73.7 1.020e+04 3.884e-10
 42.67237    -73.3 1.006e+04 3.776e-10
 42.69072    -76.0 1.038e+04 3.855e-10
 42.70195    -79.4 1.099e+04 4.681e-10
 42.72324    -82.4 1.184e+04 5.577e-10
 42.75442    -88.1 1.387e+04 1.564e-09
 42.76585    -91.4 1.552e+04 3.450e-09
 42.77645    -90.9 1.549e+04 3.414e-09
 42.79672    -93.7 1.661e+04 5.746e-09
 42.81258    -97.0 1.706e+04 7.003e-09
 42.82318    -96.4 1.714e+04 7.161e-09
 42.83912   -100.4 1.714e+04 7.321e-09
 42.85932   -105.1 1.703e+04 6.523e-09
 42.86992   -104.2 1.686e+04 6.449e-09
 42.88152   -109.9 1.706e+04 5.501e-09
 42.90272   -116.9 1.764e+04 5.382e-09
 42.91666   -124.2 1.930e+04 7.110e-09
 42.92725   -123.2 1.923e+04 6.409e-09
 42.94512   -129.3 2.016e+04 1.002e-08
 42.96339   -134.6 2.034e+04 1.193e-08
 42.97399   -133.6 2.056e+04 1.243e-08
 42.97857   -138.8 2.050e+04 1.269e-08
 42.98917   -141.7 2.023e+04 1.130e-08
 43.00872   -147.0 1.846e+04 6.967e-09
 43.02073   -152.5 1.540e+04 2.790e-09
 43.03133   -150.7 1.616e+04 3.314e-09
 43.05112   -155.4 1.289e+04 1.169e-09
 43.06746   -157.8 1.160e+04 6.688e-10
 43.07806   -156.7 1.172e+04 6.231e-10
 43.09351   -157.5 1.126e+04 5.093e-10
 43.11420   -157.7 1.118e+04 4.844e-10
 43.12480   -156.8 1.117e+04 4.241e-10
 43.13591   -157.0 1.116e+04 4.208e-10
 43.15711   -157.3 1.117e+04 4.214e-10
 43.17154   -157.7 1.121e+04 4.376e-10
 43.18214   -156.8 1.120e+04 4.023e-10
 43.19951   -157.4 1.126e+04 4.560e-10
 43.21827   -158.0 1.135e+04 5.257e-10
 43.22887   -157.0 1.138e+04 5.172e-10
 43.24191   -157.5 1.151e+04 6.149e-10
 43.25519   -158.1 1.166e+04 7.141e-10
 43.26579   -158.9 1.166e+04 7.167e-10
 43.27561   -159.5 1.183e+04 7.818e-10
 43.28621   -158.3 1.197e+04 8.380e-10
 43.30551   -159.0 1.208e+04 8.698e-10
 43.32234   -159.9 1.211e+04 8.748e-10
 43.33294   -158.9 1.224e+04 9.458e-10
 43.34791   -159.8 1.221e+04 9.324e-10
 43.36908   -160.6 1.210e+04 8.735e-10
 43.39028   -160.3 1.206e+04 8.581e-10
 43.41151   -161.0 1.197e+04 7.999e-10
 43.42642   -161.6 1.195e+04 7.735e-10
 43.43702   -160.5 1.206e+04 8.318e-10
 43.45390   -161.0 1.206e+04 8.266e-10
 43.47315   -161.4 1.212e+04 8.255e-10
 43.48375   -160.2 1.232e+04 9.032e-10
 43.49630   -160.7 1.251e+04 9.155e-10
 43.51750   -161.3 1.267e+04 9.383e-10
 43.53049   -162.0 1.275e+04 9.569e-10
 43.53419   -161.6 1.286e+04 1.053e-09
 43.54241   -161.6 1.288e+04 1.023e-09
 43.55990   -162.6 1.292e+04 1.005e-09
 43.57723   -163.3 1.287e+04 9.601e-10
 43.58783   -162.8 1.288e+04 1.003e-09
 43.60230   -163.2 1.278e+04 9.397e-10
 43.62350   -163.3 1.265e+04 8.684e-10
 43.63456   -163.2 1.250e+04 7.937e-10
 43.64516   -162.4 1.253e+04 8.581e-10
 43.66590   -162.3 1.240e+04 7.921e-10
 43.68130   -162.1 1.221e+04 7.119e-10
 43.69190   -161.3 1.228e+04 7.926e-10
 43.70830   -161.1 1.209e+04 7.105e-10
 43.72803   -160.8 1.182e+04 6.125e-10
 43.73863   -159.9 1.197e+04 7.032e-10
 43.75070   -159.5 1.171e+04 6.077e-10
 43.77190   -158.8 1.146e+04 5.145e-10
 43.78537   -158.1 1.126e+04 4.406e-10
 43.79597   -157.6 1.148e+04 5.267e-10
 43.80842   -157.1 1.132e+04 4.681e-10
 43.81902   -157.2 1.132e+04 5.531e-10
 43.83211   -156.8 1.125e+04 5.249e-10
 43.84271   -156.2 1.143e+04 6.658e-10
 43.85669   -155.9 1.140e+04 6.530e-10
 43.87789   -155.6 1.138e+04 6.454e-10
 43.88944   -155.2 1.138e+04 6.391e-10
 43.90004   -154.9 1.150e+04 7.875e-10
 43.92029   -154.5 1.147e+04 7.642e-10
 43.93618   -154.0 1.142e+04 7.351e-10
 43.94678   -153.5 1.150e+04 8.244e-10
 43.96269   -153.0 1.142e+04 7.705e-10
 43.98292   -152.5 1.134e+04 7.276e-10
 43.99352   -151.8 1.140e+04 7.480e-10
 44.00509   -151.3 1.132e+04 7.061e-10
 44.02629   -150.7 1.127e+04 6.799e-10
 44.04025   -150.1 1.125e+04 6.630e-10
 44.05085   -149.5 1.136e+04 6.779e-10
 44.06869   -149.0 1.137e+04 6.733e-10
 44.08504   -148.5 1.139e+04 6.698e-10
 44.09274   -148.8 1.157e+04 6.647e-10
 44.09759   -148.4 1.168e+04 6.827e-10
 44.11109   -148.1 1.167e+04 6.633e-10
 44.13229   -147.8 1.162e+04 6.352e-10
 44.14432   -147.5 1.151e+04 5.982e-10
 44.15492   -147.0 1.159e+04 6.387e-10
 44.17469   -146.7 1.142e+04 5.949e-10
 44.19106   -146.3 1.123e+04 5.462e-10
 44.20166   -145.7 1.131e+04 5.840e-10
 44.21708   -145.4 1.117e+04 5.381e-10
 44.23780   -145.1 1.110e+04 4.983e-10
 44.24840   -144.6 1.127e+04 5.356e-10
 44.25948   -144.5 1.126e+04 5.075e-10
 44.28068   -144.5 1.129e+04 4.973e-10
 44.29513   -144.5 1.133e+04 4.970e-10
 44.30573   -144.1 1.152e+04 5.642e-10
 44.33378   -144.0 1.163e+04 5.858e-10
 44.36186   -142.7 1.156e+04 5.827e-10
 44.38306   -142.7 1.125e+04 4.553e-10
 44.39940   -142.9 1.168e+04 5.538e-10
 44.42060   -141.6 1.198e+04 6.356e-10
 44.46107   -142.8 1.277e+04 9.796e-10
 44.49287   -144.2 1.337e+04 1.400e-09
 44.51397   -144.1 1.389e+04 1.693e-09
 44.53508   -146.3 1.419e+04 2.102e-09
 44.55001   -148.2 1.415e+04 2.288e-09
 44.56061   -148.6 1.440e+04 2.627e-09
 44.57747   -149.7 1.411e+04 2.588e-09
 44.59675   -150.3 1.364e+04 2.136e-09
 44.60735   -150.1 1.371e+04 2.116e-09
 44.61987   -150.5 1.323e+04 1.464e-09
 44.63828   -151.1 1.281e+04 1.010e-09
 44.64888   -151.3 1.264e+04 9.704e-10
 44.65409   -151.9 1.229e+04 7.151e-10
 44.66469   -152.2 1.231e+04 6.901e-10
 44.68347   -152.7 1.210e+04 6.012e-10
 44.70082   -152.8 1.203e+04 5.772e-10
 44.71142   -153.0 1.215e+04 6.388e-10
 44.72587   -153.0 1.214e+04 6.461e-10
 44.74707   -152.9 1.220e+04 7.101e-10
 44.75816   -152.6 1.232e+04 8.168e-10
 44.76876   -152.8 1.252e+04 9.598e-10
 44.78947   -152.4 1.267e+04 1.121e-09
 44.80489   -152.0 1.280e+04 1.255e-09
 44.81549   -152.2 1.286e+04 1.296e-09
 44.83187   -152.2 1.323e+04 1.534e-09
 44.85163   -152.6 1.398e+04 1.930e-09
 44.86223   -154.2 1.488e+04 2.334e-09
 44.87427   -156.0 1.650e+04 3.850e-09
 44.89547   -157.7 1.783e+04 6.377e-09
 44.90897   -159.1 1.877e+04 9.619e-09
 44.91780   -160.7 2.007e+04 1.539e-08
 44.92550   -161.4 1.971e+04 1.458e-08
 44.93229   -161.1 1.962e+04 1.507e-08
 44.93754   -161.9 2.080e+04 2.219e-08
 44.94307   -163.1 2.140e+04 2.918e-08
 44.95367   -164.8 2.174e+04 3.779e-08
 44.96091   -166.7 2.172e+04 4.335e-08
 44.96621   -168.1 2.286e+04 6.790e-08
 44.97487   -170.0 2.225e+04 6.772e-08
 44.98427   -171.0 2.151e+04 5.740e-08
 44.98957   -172.2 2.206e+04 6.131e-08
 44.99607   -172.6 2.113e+04 4.283e-08
 45.00667   -172.9 2.047e+04 3.032e-08
 45.01294   -173.3 1.978e+04 2.143e-08
 45.01824   -174.2 1.953e+04 1.806e-08
 45.02786   -174.6 1.862e+04 1.318e-08
 45.04381   -174.8 1.768e+04 9.632e-09
 45.05978   -174.4 1.633e+04 6.037e-09
 45.07038   -174.7 1.567e+04 4.416e-09
 45.08626   -174.7 1.416e+04 2.424e-09
 45.10651   -174.9 1.300e+04 1.403e-09
 45.11711   -175.5 1.252e+04 1.131e-09
 45.12866   -175.5 1.181e+04 7.757e-10
 45.14986   -175.1 1.145e+04 6.005e-10
 45.16385   -174.4 1.133e+04 5.042e-10
 45.17445   -174.1 1.133e+04 5.144e-10
 45.19152   -173.2 1.124e+04 4.556e-10
 45.20212   -172.8 1.126e+04 5.618e-10
 45.21058   -172.0 1.116e+04 4.993e-10
 45.22118   -171.6 1.116e+04 5.044e-10
 45.23466   -170.7 1.108e+04 4.572e-10
 45.26655   -169.6 1.100e+04 4.091e-10
 45.30425   -167.8 1.083e+04 3.598e-10
 45.32545   -167.3 1.071e+04 3.814e-10
 45.35145   -166.1 1.057e+04 3.454e-10
 45.39385   -164.0 1.042e+04 3.197e-10
 45.41892   -162.1 1.037e+04 3.131e-10
 45.44012   -161.2 1.078e+04 4.185e-10
 45.46834   -159.5 1.099e+04 4.165e-10
 45.48944   -159.8 1.158e+04 5.263e-10
 45.51025   -160.1 1.178e+04 6.002e-10
 45.52280   -160.3 1.186e+04 6.748e-10
 45.53340   -161.5 1.216e+04 9.339e-10
 45.55265   -161.4 1.212e+04 9.931e-10
 45.56954   -161.2 1.210e+04 1.039e-09
 45.58014   -162.0 1.229e+04 1.239e-09
 45.59505   -161.8 1.227e+04 1.236e-09
 45.61625   -161.6 1.228e+04 1.230e-09
 45.63745   -162.5 1.238e+04 1.242e-09
 45.65865   -162.4 1.235e+04 1.217e-09
 45.67361   -162.4 1.232e+04 1.168e-09
 45.68421   -163.5 1.227e+04 1.113e-09
 45.70104   -163.5 1.215e+04 9.906e-10
 45.72035   -163.5 1.195e+04 8.437e-10
 45.73095   -164.5 1.179e+04 8.013e-10
 45.74344   -164.3 1.148e+04 6.790e-10
 45.75536   -164.0 1.119e+04 5.739e-10
 45.76596   -164.1 1.114e+04 5.910e-10
 45.77768   -163.7 1.083e+04 4.767e-10
 45.78828   -164.1 1.081e+04 4.762e-10
 45.80704   -163.4 1.060e+04 3.996e-10
 45.82442   -162.7 1.051e+04 3.650e-10
 45.83502   -162.7 1.049e+04 3.705e-10
 45.86014   -161.8 1.049e+04 3.600e-10
 45.90263   -161.0 1.045e+04 3.376e-10
 45.92869   -159.8 1.035e+04 3.119e-10
 45.94989   -160.2 1.047e+04 3.480e-10
 45.98743   -158.9 1.037e+04 3.278e-10
 46.02158   -157.4 1.024e+04 3.094e-10
 46.03510   -156.9 1.044e+04 3.450e-10
 46.04336   -157.8 1.064e+04 4.062e-10
 46.07223   -156.2 1.053e+04 3.790e-10
 46.11463   -154.4 1.039e+04 3.467e-10
 46.13683   -152.5 1.026e+04 3.165e-10
 46.15803   -153.3 1.038e+04 3.463e-10
 46.19943   -151.4 1.032e+04 3.315e-10
 46.23030   -149.7 1.028e+04 3.233e-10
 46.25150   -150.7 1.033e+04 3.350e-10
 46.28422   -149.1 1.027e+04 3.283e-10
 46.32378   -147.6 1.021e+04 3.180e-10
 46.34498   -148.8 1.014e+04 3.082e-10
 46.36902   -147.2 1.004e+04 2.888e-10
 46.41142   -145.7 9.958e+03 2.690e-10
 46.43845   -144.2 9.909e+03 2.563e-10
 46.45965   -145.0 9.788e+03 2.482e-10
 46.49622   -143.5 9.865e+03 2.623e-10
 46.53192   -142.1 9.952e+03 2.826e-10
 46.55312   -142.9 9.997e+03 3.008e-10
 46.57481   -141.5 1.010e+04 3.152e-10
 46.59601   -141.7 1.021e+04 3.332e-10
 46.62342   -140.3 1.021e+04 3.318e-10
 46.64659   -138.9 1.018e+04 3.087e-10
 46.66779   -139.8 1.011e+04 2.852e-10
 46.70821   -138.2 1.002e+04 2.467e-10
 46.74007   -136.7 9.951e+03 2.141e-10
 46.76126   -137.6 9.920e+03 1.960e-10
 46.79301   -136.0 9.892e+03 1.775e-10
 46.83354   -134.3 9.874e+03 1.647e-10
 46.85474   -135.2 9.823e+03 1.447e-10
 46.87781   -133.5 9.803e+03 1.320e-10
 46.92021   -131.8 9.783e+03 1.216e-10
 46.94821   -130.0 9.772e+03 1.132e-10
 46.96941   -131.1 9.640e+03 9.171e-11
 47.00501   -129.3 9.627e+03 8.677e-11
 47.04168   -127.5 9.624e+03 8.485e-11
 47.06288   -128.5 9.592e+03 8.452e-11
 47.08980   -126.8 9.600e+03 8.460e-11
 47.12805   -125.4 9.768e+03 8.768e-11
 47.14925   -125.0 9.850e+03 1.002e-10
 47.15635   -123.7 1.001e+04 1.238e-10
 47.17755   -124.6 1.001e+04 1.412e-10
 47.21700   -123.4 1.018e+04 1.871e-10
 47.24983   -122.2 1.038e+04 2.460e-10
 47.27103   -123.0 1.055e+04 3.021e-10
 47.30180   -121.9 1.073e+04 3.689e-10
 47.34330   -120.8 1.084e+04 4.233e-10
 47.36450   -121.6 1.099e+04 4.503e-10
 47.38660   -120.4 1.097e+04 4.699e-10
 47.42899   -119.1 1.096e+04 4.734e-10
 47.45797   -117.5 1.086e+04 4.703e-10
 47.47917   -118.1 1.092e+04 4.751e-10
 47.51379   -116.3 1.082e+04 4.424e-10
 47.55144   -114.6 1.074e+04 4.006e-10
 47.57264   -115.1 1.095e+04 4.551e-10
 47.59859   -113.3 1.090e+04 4.449e-10
 47.64099   -111.6 1.080e+04 4.620e-10
 47.66612   -109.9 1.079e+04 4.939e-10
 47.68522   -110.2 1.126e+04 6.870e-10
 47.70249   -109.3 1.141e+04 7.138e-10
 47.72579   -107.6 1.150e+04 7.998e-10
 47.75959   -106.0 1.158e+04 8.868e-10
 47.78079   -106.7 1.205e+04 9.785e-10
 47.81058   -105.4 1.215e+04 1.044e-09
 47.85298   -103.8 1.226e+04 1.102e-09
 47.88468   -102.7 1.246e+04 1.159e-09
 47.90579   -102.7 1.255e+04 1.174e-09
 47.92080   -102.6 1.260e+04 1.208e-09
 47.93140   -103.6 1.256e+04 1.095e-09
 47.94818   -103.5 1.239e+04 1.018e-09
 47.96754   -103.3 1.218e+04 9.372e-10
 47.97707   -103.8 1.196e+04 8.235e-10
 47.97892   -103.5 1.220e+04 9.666e-10
 47.99058   -103.1 1.211e+04 9.623e-10
 48.01178   -102.7 1.211e+04 9.715e-10
 48.02487   -102.3 1.209e+04 9.712e-10
 48.03547   -102.6 1.216e+04 9.897e-10
 48.05418   -102.3 1.220e+04 9.975e-10
 48.07161   -102.1 1.225e+04 9.974e-10
 48.08221   -102.7 1.255e+04 1.159e-09
 48.09658   -102.6 1.260e+04 1.196e-09
 48.11778   -102.5 1.261e+04 1.211e-09
 48.12895   -102.4 1.258e+04 1.210e-09
 48.13955   -103.0 1.306e+04 1.621e-09
 48.16018   -102.8 1.297e+04 1.612e-09
 48.17568   -102.5 1.281e+04 1.544e-09
 48.18628   -103.2 1.337e+04 2.148e-09
 48.20258   -102.7 1.322e+04 2.034e-09
 48.22242   -102.2 1.314e+04 1.916e-09
 48.23302   -102.7 1.367e+04 2.552e-09
 48.24494   -102.2 1.360e+04 2.346e-09
 48.26613   -101.5 1.336e+04 1.939e-09
 48.27976   -101.2 1.322e+04 1.747e-09
 48.29036   -102.1 1.324e+04 1.754e-09
 48.31927   -101.5 1.292e+04 1.525e-09
 48.36177    -99.0 1.251e+04 1.285e-09
 48.38402    -96.9 1.227e+04 1.094e-09
 48.40522    -97.3 1.232e+04 1.090e-09
 48.44657    -95.6 1.227e+04 9.437e-10
 48.47750    -94.1 1.229e+04 8.179e-10
 48.49870    -94.8 1.222e+04 7.458e-10
 48.53136    -93.6 1.216e+04 6.327e-10
 48.57097    -92.5 1.203e+04 5.604e-10
 48.59217    -93.1 1.168e+04 4.557e-10
 48.61616    -91.8 1.139e+04 4.294e-10
 48.65856    -90.3 1.121e+04 4.048e-10
 48.68564    -88.9 1.108e+04 3.740e-10
 48.70684    -89.1 1.099e+04 3.581e-10
 48.74336    -88.0 1.095e+04 3.255e-10
 48.77911    -87.0 1.094e+04 3.002e-10
 48.80031    -87.6 1.093e+04 3.012e-10
 48.80897    -87.1 1.087e+04 2.824e-10
 48.83017    -85.6 1.121e+04 4.749e-10
 48.87056    -85.3 1.119e+04 4.476e-10
 48.89379    -84.9 1.122e+04 4.113e-10
 48.91498    -85.8 1.115e+04 3.788e-10
 48.95535    -84.8 1.112e+04 3.168e-10
 48.98726    -84.3 1.093e+04 2.464e-10
 49.00846    -85.7 1.071e+04 2.058e-10
 49.04015    -85.7 1.053e+04 1.716e-10
 49.08073    -85.5 1.048e+04 1.659e-10
 49.10193    -86.3 1.048e+04 1.658e-10
 49.12495    -85.7 1.047e+04 1.670e-10
 49.16735    -85.1 1.047e+04 1.792e-10
 49.19540    -84.4 1.047e+04 1.902e-10
 49.21660    -84.8 1.046e+04 1.898e-10
 49.25215    -84.2 1.044e+04 1.909e-10
 49.28888    -83.6 1.044e+04 1.911e-10
 49.31007    -83.7 1.045e+04 1.906e-10
 49.33694    -83.3 1.057e+04 2.004e-10
 49.36221    -83.1 1.077e+04 2.512e-10
 49.38341    -82.5 1.070e+04 2.820e-10
 49.40355    -82.2 1.089e+04 3.457e-10
 49.42475    -82.2 1.092e+04 3.888e-10
 49.46414    -82.1 1.103e+04 4.411e-10
 49.49702    -82.1 1.107e+04 4.667e-10
 49.51822    -82.4 1.117e+04 5.392e-10
 49.54894    -82.3 1.117e+04 5.484e-10
 49.59049    -82.3 1.124e+04 5.749e-10
 49.61169    -82.9 1.155e+04 7.082e-10
 49.63374    -83.1 1.180e+04 8.443e-10
 49.67613    -83.0 1.202e+04 9.990e-10
 49.70507    -82.9 1.222e+04 1.128e-09
 49.71557    -83.9 1.226e+04 1.117e-09
 49.72894    -84.3 1.229e+04 1.132e-09
 49.75014    -84.7 1.222e+04 1.106e-09
 49.76231    -85.1 1.210e+04 1.013e-09
 49.77291    -85.9 1.193e+04 9.278e-10
 49.79854    -85.5 1.187e+04 8.941e-10
 49.81984    -86.9 1.171e+04 7.766e-10
 49.84573    -86.8 1.164e+04 7.082e-10
 49.88813    -86.4 1.167e+04 7.019e-10
 49.91321    -87.0 1.211e+04 8.012e-10
 49.91923    -89.0 1.236e+04 9.083e-10
 49.92585    -88.6 1.255e+04 9.946e-10
 49.94093    -89.8 1.286e+04 1.235e-09
 49.95985    -90.7 1.308e+04 1.480e-09
 49.97045    -92.1 1.283e+04 1.391e-09
 49.98333    -92.8 1.287e+04 1.445e-09
 50.00453    -93.7 1.282e+04 1.385e-09
 50.01719    -94.6 1.264e+04 1.240e-09
 50.02779    -96.3 1.219e+04 8.916e-10
 50.04693    -97.6 1.197e+04 7.549e-10
 50.06392    -98.9 1.173e+04 6.571e-10
 50.07452   -100.6 1.148e+04 5.673e-10
 50.08933   -101.5 1.140e+04 5.642e-10
 50.11053   -102.1 1.134e+04 6.321e-10
 50.12126   -102.5 1.136e+04 7.227e-10
 50.13186   -103.0 1.131e+04 7.424e-10
 50.15293   -103.1 1.145e+04 8.356e-10
 50.16799   -103.2 1.162e+04 9.522e-10
 50.17859   -103.5 1.152e+04 8.947e-10
 50.19187   -103.5 1.165e+04 9.688e-10
 50.20247   -103.6 1.169e+04 9.583e-10
 50.21473   -103.6 1.181e+04 9.987e-10
 50.22533   -104.1 1.157e+04 8.151e-10
 50.23772   -104.4 1.172e+04 8.190e-10
 50.25892   -104.8 1.194e+04 8.858e-10
 50.27207   -105.2 1.213e+04 1.026e-09
 50.28267   -106.5 1.214e+04 1.005e-09
 50.30132   -106.9 1.243e+04 1.235e-09
 50.31880   -107.2 1.276e+04 1.561e-09
 50.32940   -108.3 1.273e+04 1.671e-09
 50.34372   -108.0 1.301e+04 2.130e-09
 50.36492   -107.5 1.333e+04 2.673e-09
 50.37614   -107.0 1.371e+04 3.258e-09
 50.38674   -107.4 1.340e+04 2.949e-09
 50.40732   -106.8 1.362e+04 3.260e-09
 50.42288   -106.2 1.378e+04 3.462e-09
 50.43348   -106.6 1.319e+04 2.489e-09
 50.44972   -106.2 1.321e+04 2.377e-09
 50.46849   -105.8 1.322e+04 2.227e-09
 50.47779   -106.5 1.289e+04 1.487e-09
 50.48021   -108.0 1.221e+04 9.985e-10
 50.49212   -107.9 1.213e+04 9.516e-10
 50.51332   -107.7 1.208e+04 9.376e-10
 50.52695   -107.3 1.186e+04 9.878e-10
 50.53755   -108.2 1.124e+04 8.924e-10
 50.55572   -107.5 1.142e+04 9.774e-10
 50.57368   -106.8 1.161e+04 1.089e-09
 50.58428   -107.0 1.145e+04 1.053e-09
 50.59811   -106.1 1.169e+04 1.184e-09
 50.61931   -105.3 1.196e+04 1.339e-09
 50.63102   -104.6 1.221e+04 1.509e-09
 50.64162   -104.9 1.221e+04 1.490e-09
 50.66171   -104.4 1.250e+04 1.705e-09
 50.67776   -104.1 1.279e+04 1.962e-09
 50.68836   -105.0 1.302e+04 2.162e-09
 50.70411   -105.0 1.338e+04 2.679e-09
 50.72449   -105.0 1.373e+04 3.370e-09
 50.73509   -105.9 1.415e+04 4.277e-09
 50.74511   -105.6 1.449e+04 5.328e-09
 50.75571   -105.4 1.442e+04 5.048e-09
 50.76771   -104.9 1.474e+04 5.948e-09
 50.78183   -104.4 1.497e+04 6.605e-09
 50.79243   -104.8 1.513e+04 7.108e-09
 50.81011   -104.2 1.512e+04 6.928e-09
 50.82857   -103.5 1.485e+04 6.148e-09
 50.83917   -103.8 1.461e+04 5.172e-09
 50.85251   -103.1 1.423e+04 4.080e-09
 50.87371   -102.6 1.381e+04 3.163e-09
 50.88590   -102.3 1.330e+04 2.439e-09
 50.89650   -103.3 1.276e+04 1.906e-09
 50.91611   -103.1 1.219e+04 1.550e-09
 50.93264   -102.6 1.174e+04 1.332e-09
 50.94324   -102.9 1.137e+04 1.171e-09
 50.95850   -101.9 1.118e+04 1.096e-09
 50.97937   -101.0 1.107e+04 1.057e-09
 50.98997   -100.8 1.089e+04 9.765e-10
 51.00090    -99.8 1.080e+04 9.475e-10
 51.02173    -98.5 1.074e+04 9.326e-10
 51.03233    -98.6 1.035e+04 8.110e-10
 51.03671    -97.4 1.036e+04 7.892e-10
 51.04731    -97.5 1.022e+04 5.920e-10
 51.07520    -96.7 1.019e+04 5.123e-10
 51.11770    -94.3 1.018e+04 5.019e-10
 51.14098    -92.2 1.022e+04 5.098e-10
 51.16218    -91.3 9.731e+03 3.611e-10
 51.20249    -89.3 9.886e+03 3.845e-10
 51.23445    -87.5 1.045e+04 5.054e-10
 51.25555    -87.3 1.048e+04 4.860e-10
 51.27650    -87.0 1.091e+04 6.292e-10
 51.29159    -87.3 1.124e+04 7.907e-10
 51.30219    -88.6 1.134e+04 8.775e-10
 51.30895    -88.9 1.166e+04 1.162e-09
 51.31955    -88.7 1.131e+04 7.733e-10
 51.33833    -88.9 1.165e+04 1.071e-09
 51.34893    -90.4 1.198e+04 1.441e-09
 51.36129    -89.8 1.224e+04 1.851e-09
 51.38249    -88.9 1.248e+04 2.189e-09
 51.39566    -88.2 1.271e+04 2.389e-09
 51.40626    -88.9 1.264e+04 2.272e-09
 51.42489    -88.6 1.260e+04 1.997e-09
 51.44240    -88.6 1.247e+04 1.561e-09
 51.45300    -90.8 1.178e+04 9.374e-10
 51.46729    -91.8 1.121e+04 6.807e-10
 51.49919    -92.7 1.060e+04 5.386e-10
 51.53607    -92.3 9.938e+03 4.393e-10
 51.55727    -94.0 9.092e+03 2.565e-10
 51.57516    -92.7 9.153e+03 2.596e-10
 51.59636    -92.8 8.990e+03 2.191e-10
 51.62648    -91.6 9.103e+03 2.274e-10
 51.65074    -90.4 9.476e+03 2.622e-10
 51.67194    -91.4 9.375e+03 2.535e-10
 51.71128    -90.1 9.717e+03 3.238e-10
 51.74421    -88.4 1.009e+04 4.341e-10
 51.76541    -88.8 1.012e+04 4.695e-10
 51.78538    -87.3 1.040e+04 5.663e-10
 51.80135    -87.0 1.059e+04 6.462e-10
 51.81195    -87.6 1.067e+04 7.028e-10
 51.82768    -86.7 1.095e+04 8.448e-10
 51.84809    -86.0 1.118e+04 9.707e-10
 51.85869    -87.0 1.109e+04 9.726e-10
 51.88078    -86.3 1.139e+04 1.129e-09
 51.92327    -85.0 1.207e+04 1.539e-09
 51.95226    -84.4 1.224e+04 1.691e-09
 51.96276    -85.1 1.202e+04 1.553e-09
 51.97608    -85.0 1.231e+04 1.723e-09
 51.99728    -84.9 1.261e+04 1.896e-09
 52.00950    -84.9 1.288e+04 2.041e-09
 52.02010    -86.3 1.245e+04 1.812e-09
 52.03968    -86.3 1.242e+04 1.796e-09
 52.05623    -86.2 1.227e+04 1.654e-09
 52.06683    -87.5 1.215e+04 1.640e-09
 52.08207    -87.2 1.187e+04 1.428e-09
 52.10297    -87.0 1.157e+04 1.220e-09
 52.11357    -87.9 1.153e+04 1.247e-09
 52.12447    -87.4 1.123e+04 1.053e-09
 52.13881    -86.9 1.096e+04 8.955e-10
 52.14941    -86.9 1.059e+04 8.156e-10
 52.16031    -86.3 1.042e+04 7.051e-10
 52.17091    -86.8 1.036e+04 7.433e-10
 52.18807    -86.1 1.029e+04 6.459e-10
 52.20704    -85.5 1.026e+04 5.756e-10
 52.21764    -86.2 1.041e+04 6.233e-10
 52.23047    -85.5 1.042e+04 5.759e-10
 52.25167    -84.9 1.044e+04 5.517e-10
 52.26438    -84.3 1.045e+04 5.442e-10
 52.27498    -85.2 1.069e+04 6.380e-10
 52.29407    -84.3 1.064e+04 6.355e-10
 52.31112    -83.4 1.059e+04 6.338e-10
 52.32171    -84.0 1.074e+04 7.286e-10
 52.33647    -82.9 1.065e+04 6.993e-10
 52.35767    -81.7 1.059e+04 6.614e-10
 52.36845    -80.5 1.054e+04 6.123e-10
 52.37905    -81.1 1.058e+04 6.094e-10
 52.40007    -80.1 1.047e+04 5.451e-10
 52.41519    -78.9 1.034e+04 4.819e-10
 52.41995    -79.6 1.030e+04 4.720e-10
 52.42603    -79.6 1.022e+04 4.135e-10
 52.44246    -78.4 1.022e+04 3.945e-10
 52.46192    -77.3 1.025e+04 3.841e-10
 52.47252    -77.8 1.026e+04 3.843e-10
 52.48486    -76.7 1.026e+04 3.781e-10
 52.50606    -75.5 1.027e+04 3.769e-10
 52.51926    -74.6 1.037e+04 3.806e-10
 52.52986    -75.2 1.047e+04 4.112e-10
 52.54846    -74.5 1.063e+04 4.525e-10
 52.56600    -73.8 1.079e+04 5.053e-10
 52.57660    -74.6 1.108e+04 6.292e-10
 52.59086    -74.0 1.131e+04 7.331e-10
 52.61206    -73.5 1.152e+04 8.266e-10
 52.62333    -73.2 1.179e+04 9.387e-10
 52.63393    -74.6 1.234e+04 1.292e-09
 52.65446    -74.6 1.298e+04 1.725e-09
 52.67007    -74.9 1.365e+04 2.366e-09
 52.68067    -76.1 1.462e+04 3.855e-09
 52.69205    -75.9 1.502e+04 4.638e-09
 52.70265    -76.3 1.575e+04 6.568e-09
 52.71680    -76.1 1.586e+04 6.997e-09
 52.72740    -76.6 1.662e+04 8.401e-09
 52.73926    -76.2 1.624e+04 6.921e-09
 52.76046    -75.9 1.559e+04 4.781e-09
 52.77414    -76.3 1.513e+04 2.968e-09
 52.78474    -79.5 1.525e+04 2.800e-09
 52.80286    -81.7 1.448e+04 2.103e-09
 52.82088    -83.4 1.373e+04 1.857e-09
 52.83148    -85.1 1.371e+04 2.589e-09
 52.84525    -85.1 1.349e+04 2.692e-09
 52.86645    -84.6 1.343e+04 2.729e-09
 52.87821    -83.9 1.331e+04 2.742e-09
 52.88881    -83.7 1.330e+04 2.688e-09
 52.90885    -83.0 1.302e+04 2.382e-09
 52.92495    -82.2 1.274e+04 2.059e-09
 52.93555    -82.2 1.252e+04 1.585e-09
 52.95125    -81.7 1.223e+04 1.313e-09
 52.96867    -81.2 1.193e+04 1.087e-09
 52.97850    -81.4 1.214e+04 9.942e-10
 52.98229    -82.2 1.211e+04 6.458e-10
 52.99365    -81.8 1.175e+04 5.677e-10
 53.01485    -81.2 1.147e+04 5.180e-10
 53.02902    -80.5 1.128e+04 4.908e-10
 53.03962    -81.7 1.147e+04 5.061e-10
 53.05725    -81.2 1.144e+04 5.047e-10
 53.07576    -80.8 1.151e+04 5.147e-10
 53.08636    -82.8 1.205e+04 7.727e-10
 53.09965    -82.3 1.193e+04 8.472e-10
 53.12085    -81.6 1.181e+04 9.212e-10
 53.13309    -80.7 1.172e+04 9.937e-10
 53.14369    -80.6 1.182e+04 1.363e-09
 53.16325    -79.6 1.179e+04 1.222e-09
 53.17983    -78.6 1.168e+04 1.138e-09
 53.19043    -78.8 1.171e+04 1.022e-09
 53.20564    -77.9 1.161e+04 8.887e-10
 53.22657    -77.0 1.156e+04 7.733e-10
 53.23717    -77.6 1.185e+04 5.124e-10
 53.24528    -77.0 1.190e+04 4.062e-10
 53.25588    -76.9 1.170e+04 4.240e-10
 53.26924    -76.3 1.163e+04 3.438e-10
 53.28390    -75.7 1.148e+04 3.145e-10
 53.29460    -78.2 1.143e+04 2.493e-10
 53.32244    -76.5 1.103e+04 2.027e-10
 53.36484    -74.6 1.073e+04 1.792e-10
 53.38817    -72.7 1.060e+04 1.716e-10
 53.40937    -73.3 1.050e+04 1.835e-10
 53.44963    -71.3 1.045e+04 1.913e-10
 53.48164    -69.2 1.041e+04 2.035e-10
 53.50284    -69.9 1.055e+04 2.064e-10
 53.53443    -67.8 1.061e+04 2.108e-10
 53.57512    -65.6 1.065e+04 2.114e-10
 53.59632    -67.4 1.099e+04 2.582e-10
 53.61923    -65.6 1.114e+04 2.685e-10
 53.66163    -64.1 1.133e+04 3.021e-10
 53.68979    -62.5 1.152e+04 3.849e-10
 53.71099    -63.8 1.113e+04 6.291e-10
 53.74643    -61.7 1.120e+04 7.374e-10
 53.78326    -59.3 1.124e+04 7.848e-10
 53.80375    -60.0 1.084e+04 5.475e-10
 53.80932    -60.6 1.158e+04 5.328e-10
 53.83122    -58.7 1.167e+04 4.742e-10
 53.87362    -57.0 1.158e+04 4.418e-10
 53.89793    -55.5 1.135e+04 4.354e-10
 53.91913    -56.7 9.991e+03 5.046e-10
 53.95842    -54.4 9.942e+03 5.195e-10
 53.99141    -52.0 9.816e+03 5.256e-10
 54.01260    -51.3 9.578e+03 2.774e-10
 54.04322    -49.3 9.671e+03 2.413e-10
 54.08488    -47.7 9.771e+03 2.101e-10
 54.10608    -49.0 9.498e+03 1.138e-10
 54.12802    -47.4 9.237e+03 1.214e-10
 54.17041    -45.6 9.066e+03 1.235e-10
 54.19955    -43.5 8.764e+03 1.189e-10
 54.22075    -43.2 8.568e+03 7.526e-11
 54.25521    -40.7 8.558e+03 5.728e-11
 54.29302    -38.4 8.586e+03 4.197e-11
 54.31422    -39.1 8.624e+03 2.545e-11
 54.34001    -37.1 8.624e+03 1.880e-11
 54.36256    -35.1 8.531e+03 1.510e-11
 54.38376    -35.2 8.453e+03 1.702e-11
 54.40769    -32.9 8.326e+03 1.451e-11
 54.42889    -33.1 8.103e+03 1.343e-11
 54.46721    -30.8 8.083e+03 1.191e-11
 54.50117    -28.6 8.077e+03 1.152e-11
 54.52237    -28.9 8.006e+03 1.390e-11
 54.55200    -27.2 8.224e+03 1.443e-11
 54.59440    -25.8 8.282e+03 1.920e-11
 54.61584    -24.2 8.072e+03 3.110e-11
 54.63704    -24.1 8.073e+03 5.267e-11
 54.67920    -21.8 8.109e+03 7.800e-11
 54.70931    -19.6 8.253e+03 1.090e-10
 54.73051    -19.9 8.856e+03 1.437e-10
 54.76400    -18.3 8.897e+03 1.741e-10
 54.80278    -17.0 8.959e+03 2.190e-10
 54.82398    -17.3 8.987e+03 2.734e-10
 54.84880    -16.0 9.409e+03 3.369e-10
 54.89119    -14.8 9.909e+03 4.149e-10
 54.91580    -13.4 1.017e+04 5.022e-10
 54.92086    -12.7 9.771e+03 4.919e-10
 54.93866    -12.6 9.497e+03 5.197e-10
 54.97599    -10.9 9.798e+03 5.279e-10
 55.01093    -10.7 1.080e+04 5.801e-10
 55.03213    -14.9 1.151e+04 7.511e-10
 55.06079    -14.3 1.130e+04 1.240e-09
 55.10319    -11.8 1.133e+04 1.586e-09
 55.12560     -8.7 1.153e+04 1.709e-09
 55.14680    -10.3 1.136e+04 8.701e-10
 55.18799    -12.1 1.077e+04 5.376e-10
 55.21907    -13.8 9.721e+03 4.459e-10
 55.24027    -17.2 8.634e+03 2.825e-10
 55.27278    -16.3 8.878e+03 3.340e-10
 55.31255    -16.6 9.033e+03 3.741e-10
 55.33375    -18.5 8.664e+03 3.516e-10
 55.35758    -17.8 8.840e+03 4.359e-10
 55.38038    -17.3 9.012e+03 4.969e-10
 55.39089    -17.1 8.955e+03 4.845e-10
 55.41039    -17.0 8.980e+03 4.870e-10
 55.42702    -16.9 9.165e+03 4.997e-10
 55.44832    -16.8 8.910e+03 4.365e-10
 55.46894    -17.2 9.172e+03 4.718e-10
 55.47922    -17.9 8.958e+03 4.710e-10
 55.48436    -17.8 8.663e+03 4.093e-10
 55.49518    -18.4 9.078e+03 4.828e-10
 55.51638    -21.5 1.120e+04 8.238e-10
 55.53110    -25.7 1.315e+04 1.677e-09
 55.54170    -25.4 1.269e+04 1.487e-09
 55.55878    -27.5 1.346e+04 3.140e-09
 55.57783    -27.2 1.401e+04 5.102e-09
 55.58843    -26.2 1.359e+04 4.584e-09
 55.60118    -24.0 1.404e+04 5.985e-09
 55.62238    -21.5 1.422e+04 6.311e-09
 55.63517    -19.3 1.368e+04 4.514e-09
 55.64577    -18.4 1.345e+04 3.929e-09
 55.66478    -17.8 1.294e+04 2.286e-09
 55.68190    -20.9 1.143e+04 1.151e-09
 55.69250    -20.0 1.147e+04 1.018e-09
 55.70718    -20.9 1.019e+04 6.522e-10
 55.72838    -20.6 9.805e+03 5.265e-10
 55.73924    -19.8 9.573e+03 4.369e-10
 55.74572    -19.0 9.454e+03 3.666e-10
 55.75606    -19.4 9.375e+03 3.250e-10
 55.78147    -18.3 9.119e+03 2.816e-10
 55.82231    -16.2 8.896e+03 2.083e-10
 55.84351    -15.2 8.733e+03 2.240e-10
 55.86637    -13.2 8.772e+03 1.930e-10
 55.90877    -11.0 8.831e+03 1.425e-10
 55.93698     -8.8 8.754e+03 1.016e-10
 55.95818     -7.7 9.077e+03 1.554e-10
 55.99357     -5.8 9.204e+03 9.474e-11
 56.02227     -4.1 9.114e+03 6.008e-11
 56.03796     -3.6 8.929e+03 7.408e-11
 56.05165     -2.3 8.679e+03 1.266e-10
 56.07836     -0.6 8.840e+03 8.626e-11
 56.12076      0.9 8.861e+03 7.001e-11
 56.14513      2.6 8.812e+03 7.192e-11
 56.16632      4.2 9.158e+03 8.183e-11
 56.20556      6.1 9.108e+03 8.176e-11
 56.23860      8.2 9.070e+03 8.747e-11
 56.25980      9.7 9.416e+03 8.186e-11
 56.29036     11.7 9.359e+03 8.316e-11
 56.33207     12.9 9.549e+03 9.963e-11
 56.35327     14.4 9.506e+03 1.135e-10
 56.37516     14.7 9.876e+03 1.702e-10
 56.41755     14.7 1.061e+04 4.751e-10
 56.44674     14.7 1.213e+04 1.342e-09
 56.46794     17.0 1.165e+04 1.060e-09
 56.50235     17.1 1.247e+04 1.658e-09
 56.54022     17.3 1.194e+04 1.331e-09
 56.56141     19.5 1.221e+04 1.428e-09
 56.57551     19.1 1.135e+04 9.592e-10
 56.59671     20.3 1.092e+04 6.941e-10
 56.62955     19.7 9.925e+03 4.217e-10
 56.65489     19.6 9.115e+03 2.764e-10
 56.67609     21.9 9.461e+03 3.649e-10
 56.71435     22.1 8.959e+03 2.690e-10
 56.74836     22.6 8.754e+03 2.441e-10
 56.76956     24.6 8.908e+03 2.600e-10
 56.79914     25.0 8.653e+03 2.458e-10
 56.84154     25.6 8.601e+03 2.570e-10
 56.86303     26.8 8.408e+03 2.547e-10
 56.88423     28.0 8.456e+03 2.617e-10
 56.92634     29.5 8.197e+03 2.349e-10
 56.95650     31.2 7.936e+03 1.733e-10
 56.97770     32.4 7.967e+03 1.862e-10
 57.01114     33.6 7.762e+03 1.298e-10
 57.04998     34.3 7.584e+03 9.916e-11
 57.07118     35.7 7.557e+03 9.629e-11
 57.09594     36.8 7.389e+03 8.311e-11
 57.12875     38.1 7.309e+03 8.005e-11
 57.14995     38.3 7.244e+03 7.472e-11
 57.16465     39.9 7.182e+03 7.113e-11
 57.18585     41.0 7.085e+03 5.660e-11
 57.22313     42.4 7.013e+03 5.363e-11
 57.25812     43.9 6.969e+03 5.313e-11
 57.27932     44.9 6.968e+03 5.238e-11
 57.30793     46.3 6.977e+03 5.583e-11
 57.35033     47.8 7.040e+03 6.266e-11
 57.37279     49.3 7.171e+03 7.621e-11
 57.39399     50.2 7.199e+03 8.470e-11
 57.43513     51.7 7.365e+03 1.041e-10
 57.46627     53.2 7.594e+03 1.374e-10
 57.48747     54.0 7.631e+03 1.444e-10
 57.51992     55.3 7.847e+03 1.726e-10
 57.55974     56.7 8.341e+03 2.436e-10
 57.58094     57.0 7.982e+03 1.882e-10
 57.60472     58.0 8.342e+03 2.323e-10
 57.62758     58.4 8.604e+03 2.736e-10
 57.63808     58.3 8.453e+03 2.422e-10
 57.65753     57.9 8.820e+03 2.978e-10
 57.67422     57.2 9.422e+03 4.503e-10
 57.68482     56.0 9.545e+03 4.727e-10
 57.69240     55.1 1.031e+04 7.953e-10
 57.70299     56.1 1.004e+04 6.422e-10
 57.72095     55.5 1.090e+04 1.107e-09
 57.73155     54.5 1.105e+04 1.320e-09
 57.74232     55.0 1.170e+04 1.927e-09
 57.76352     55.6 1.232e+04 2.469e-09
 57.77829     56.1 1.282e+04 2.691e-09
 57.78889     55.8 1.238e+04 2.160e-09
 57.80592     55.6 1.255e+04 1.730e-09
 57.82502     54.6 1.253e+04 1.147e-09
 57.83562     51.6 1.128e+04 5.776e-10
 57.84832     47.8 9.797e+03 2.787e-10
 57.86952     44.5 8.760e+03 1.923e-10
 57.88236     43.9 8.528e+03 1.893e-10
 57.89296     43.8 8.444e+03 1.765e-10
 57.91192     43.9 8.514e+03 1.818e-10
 57.92910     44.3 8.570e+03 1.921e-10
 57.93970     44.5 8.601e+03 1.939e-10
 57.95432     45.0 8.763e+03 2.147e-10
 57.96901     45.5 8.992e+03 2.456e-10
 57.97961     43.3 1.002e+04 4.256e-10
 57.98643     43.7 1.044e+04 5.371e-10
 57.99703     43.0 1.125e+04 7.324e-10
 58.01792     43.2 1.181e+04 9.978e-10
 58.03317     43.5 1.232e+04 1.335e-09
 58.04377     42.7 1.344e+04 2.274e-09
 58.06032     43.4 1.381e+04 2.922e-09
 58.07991     44.4 1.410e+04 3.546e-09
 58.09051     44.7 1.490e+04 5.551e-09
 58.10271     45.7 1.484e+04 5.556e-09
 58.12391     46.7 1.476e+04 5.380e-09
 58.13724     47.5 1.460e+04 5.253e-09
 58.14784     48.2 1.517e+04 7.008e-09
 58.16631     49.1 1.502e+04 6.336e-09
 58.18398     49.6 1.516e+04 5.624e-09
 58.19458     49.6 1.597e+04 7.248e-09
 58.20871     49.6 1.644e+04 6.170e-09
 58.22991     49.4 1.695e+04 5.188e-09
 58.24131     49.0 1.726e+04 4.151e-09
 58.24644     48.6 1.823e+04 5.140e-09
 58.25623     46.0 1.604e+04 1.526e-09
 58.27231     45.1 1.462e+04 1.387e-09
 58.28805     44.2 1.339e+04 1.355e-09
 58.29865     43.7 1.454e+04 1.889e-09
 58.31471     43.1 1.387e+04 1.975e-09
 58.33479     42.8 1.333e+04 1.990e-09
 58.34539     42.7 1.533e+04 3.453e-09
 58.35711     42.9 1.460e+04 3.196e-09
 58.37831     43.1 1.370e+04 2.730e-09
 58.39212     43.4 1.296e+04 2.261e-09
 58.40272     43.8 1.404e+04 3.412e-09
 58.42071     43.7 1.319e+04 2.708e-09
 58.43886     44.4 1.250e+04 2.121e-09
 58.44946     44.6 1.282e+04 2.770e-09
 58.46310     45.3 1.254e+04 2.343e-09
 58.48430     46.5 1.241e+04 2.016e-09
 58.49619     47.6 1.235e+04 1.770e-09
 58.50679     47.8 1.237e+04 2.013e-09
 58.52225     49.0 1.238e+04 1.765e-09
 58.53285     49.2 1.177e+04 1.407e-09
 58.54293     50.3 1.157e+04 1.183e-09
 58.55353     50.4 1.163e+04 1.189e-09
 58.56910     51.6 1.148e+04 9.853e-10
 58.58967     52.9 1.143e+04 8.347e-10
 58.60027     52.9 1.143e+04 8.315e-10
 58.61150     54.1 1.148e+04 7.331e-10
 58.63270     55.1 1.147e+04 6.498e-10
 58.64700     56.1 1.133e+04 5.765e-10
 58.65760     56.1 1.139e+04 6.148e-10
 58.67510     57.3 1.134e+04 5.955e-10
 58.69374     58.6 1.141e+04 6.042e-10
 58.70434     58.5 1.155e+04 7.041e-10
 58.71750     59.5 1.187e+04 7.690e-10
 58.73870     60.3 1.228e+04 8.716e-10
 58.75108     61.0 1.275e+04 1.012e-09
 58.76168     60.4 1.283e+04 1.321e-09
 58.78110     61.1 1.335e+04 1.589e-09
 58.79781     61.8 1.383e+04 1.900e-09
 58.80499     61.3 1.355e+04 2.441e-09
 58.80947     61.7 1.345e+04 1.767e-09
 58.82349     61.3 1.418e+04 2.223e-09
 58.84455     60.1 1.567e+04 3.129e-09
 58.85515     56.5 1.756e+04 6.778e-09
 58.86589     56.1 1.756e+04 8.877e-09
 58.88709     56.3 1.724e+04 9.554e-09
 58.90188     57.3 1.703e+04 9.906e-09
 58.91248     57.6 1.554e+04 7.691e-09
 58.92949     59.1 1.509e+04 6.874e-09
 58.94862     60.6 1.479e+04 5.891e-09
 58.95922     60.0 1.362e+04 1.948e-09
 58.97189     60.5 1.368e+04 1.227e-09
 58.99309     60.4 1.379e+04 7.464e-10
 59.00596     59.9 1.378e+04 4.372e-10
 59.01665     53.1 1.170e+04 1.075e-10
 59.04628     54.0 9.414e+03 7.670e-11
 59.08868     56.2 8.110e+03 6.093e-11
 59.11022     59.2 8.122e+03 5.570e-11
 59.13142     59.3 7.881e+03 4.742e-11
 59.17348     62.3 7.905e+03 4.784e-11
 59.20370     65.3 7.971e+03 4.990e-11
 59.22490     65.3 7.794e+03 5.011e-11
 59.25828     68.2 7.810e+03 5.454e-11
 59.29717     71.0 7.880e+03 6.081e-11
 59.31837     71.3 7.802e+03 5.698e-11
 59.34171     74.0 7.848e+03 5.941e-11
 59.36291     74.8 7.724e+03 5.650e-11
 59.38548     77.5 7.791e+03 5.952e-11
 59.41184     80.0 7.865e+03 6.216e-11
 59.43304     79.7 7.955e+03 4.658e-11
 59.47027     81.9 8.054e+03 4.894e-11
 59.50531     84.1 8.239e+03 5.522e-11
 59.52651     83.2 8.287e+03 6.120e-11
 59.55507     85.2 8.469e+03 7.827e-11
 59.59747     87.3 8.624e+03 1.094e-10
 59.61999     89.4 8.795e+03 1.651e-10
 59.64119     89.5 8.607e+03 1.828e-10
 59.68227     91.7 8.906e+03 2.704e-10
 59.71346     93.7 9.441e+03 4.396e-10
 59.73466     93.7 9.501e+03 3.862e-10
 59.76706     95.9 1.023e+04 6.692e-10
 59.79877     96.9 1.051e+04 8.287e-10
 59.81734     97.5 1.070e+04 9.375e-10
 59.82794     97.6 1.083e+04 1.006e-09
 59.84107     98.2 1.094e+04 1.073e-09
 59.86227     98.6 1.094e+04 1.072e-09
 59.87467     98.8 1.086e+04 1.044e-09
 59.88527     99.1 1.111e+04 1.144e-09
 59.90467     99.4 1.086e+04 1.039e-09
 59.91595     99.6 1.051e+04 8.947e-10
 59.92209    100.1 1.110e+04 1.157e-09
 59.93201    100.4 1.144e+04 1.286e-09
 59.94706    100.5 1.103e+04 1.066e-09
 59.96814    100.4 1.060e+04 8.763e-10
 59.97874     99.5 1.229e+04 1.285e-09
 59.98946     99.1 1.177e+04 1.113e-09
 60.01066     98.9 1.140e+04 1.070e-09
 60.02548     98.9 1.135e+04 1.071e-09
 60.03608     97.9 1.335e+04 2.020e-09
 60.05306     98.2 1.300e+04 1.991e-09
 60.07222     98.7 1.277e+04 1.993e-09
 60.08282     98.3 1.346e+04 3.089e-09
 60.09546     99.2 1.323e+04 2.986e-09
 60.11666    100.2 1.303e+04 2.849e-09
 60.12955    101.2 1.284e+04 2.688e-09
 60.14015    101.4 1.318e+04 3.303e-09
 60.15906    102.4 1.304e+04 3.053e-09
 60.17629    103.1 1.293e+04 2.818e-09
 60.18689    103.2 1.308e+04 2.973e-09
 60.19257    103.9 1.286e+04 2.703e-09
 60.20317    103.5 1.242e+04 2.189e-09
 60.22266    104.0 1.220e+04 1.960e-09
 60.23363    104.8 1.197e+04 1.782e-09
 60.24423    104.8 1.209e+04 1.400e-09
 60.26506    105.6 1.191e+04 1.291e-09
 60.28036    106.4 1.176e+04 1.217e-09
 60.29096    106.2 1.189e+04 8.740e-10
 60.30746    107.2 1.173e+04 8.357e-10
 60.32710    108.4 1.158e+04 8.218e-10
 60.33770    108.1 1.109e+04 5.827e-10
 60.34985    109.3 1.100e+04 5.790e-10
 60.37105    110.6 1.100e+04 5.817e-10
 60.38443    112.0 1.101e+04 5.971e-10
 60.39503    111.8 1.004e+04 4.180e-10
 60.41345    113.2 1.019e+04 4.372e-10
 60.43117    114.7 1.045e+04 4.776e-10
 60.44177    114.7 9.666e+03 3.449e-10
 60.45585    116.0 9.976e+03 3.824e-10
 60.46919    117.4 1.036e+04 4.394e-10
 60.49049    117.7 8.984e+03 2.620e-10
 60.52484    120.5 9.294e+03 3.014e-10
 60.54604    120.6 8.840e+03 2.473e-10
 60.57264    123.2 9.008e+03 2.870e-10
 60.61504    125.6 9.700e+03 3.600e-10
 60.63951    127.7 1.123e+04 4.664e-10
 60.66071    127.9 9.837e+03 3.475e-10
 60.69984    129.6 1.127e+04 4.106e-10
 60.73298    131.0 1.188e+04 4.712e-10
 60.75418    131.4 1.001e+04 3.283e-10
 60.78464    132.8 1.055e+04 4.024e-10
 60.82646    134.8 1.094e+04 5.613e-10
 60.84766    135.4 1.058e+04 4.816e-10
 60.85874    136.3 1.064e+04 5.777e-10
 60.87984    137.2 1.068e+04 6.638e-10
 60.89420    138.1 1.071e+04 7.621e-10
 60.90480    138.2 1.074e+04 7.659e-10
 60.92224    139.2 1.082e+04 8.814e-10
 60.94093    140.3 1.093e+04 1.000e-09
 60.95153    140.8 1.103e+04 9.792e-10
 60.96464    141.8 1.117e+04 1.112e-09
 60.98584    142.8 1.129e+04 1.223e-09
 60.99827    143.8 1.142e+04 1.276e-09
 61.00887    144.2 1.155e+04 1.345e-09
 61.02243    145.3 1.163e+04 1.357e-09
 61.03303    146.0 1.135e+04 1.272e-09
 61.04500    147.0 1.154e+04 1.437e-09
 61.05560    147.6 1.156e+04 1.389e-09
 61.07063    148.6 1.176e+04 1.518e-09
 61.09174    149.6 1.182e+04 1.530e-09
 61.11294    151.0 1.184e+04 1.519e-09
 61.13423    152.0 1.180e+04 1.460e-09
 61.14908    152.9 1.171e+04 1.337e-09
 61.15968    153.6 1.165e+04 1.303e-09
 61.17663    154.4 1.157e+04 1.175e-09
 61.19581    155.2 1.148e+04 1.022e-09
 61.20641    155.7 1.151e+04 1.048e-09
 61.21903    156.5 1.140e+04 9.041e-10
 61.24023    157.3 1.129e+04 7.682e-10
 61.25315    158.0 1.116e+04 6.529e-10
 61.26375    158.7 1.118e+04 6.769e-10
 61.28263    159.4 1.106e+04 5.893e-10
 61.29905    160.1 1.090e+04 5.220e-10
 61.30570    160.8 1.113e+04 6.421e-10
 61.31049    161.3 1.119e+04 6.543e-10
 61.32503    162.1 1.111e+04 5.881e-10
 61.34623    163.0 1.098e+04 5.616e-10
 61.35722    163.9 1.093e+04 5.613e-10
 61.36782    164.5 1.093e+04 5.458e-10
 61.38863    165.5 1.093e+04 5.472e-10
 61.40396    166.5 1.093e+04 5.605e-10
 61.41456    167.1 1.096e+04 5.258e-10
 61.43103    168.1 1.098e+04 5.544e-10
 61.45069    169.0 1.109e+04 6.072e-10
 61.46129    169.6 1.108e+04 5.482e-10
 61.47342    170.6 1.121e+04 6.135e-10
 61.49462    171.5 1.139e+04 7.141e-10
 61.50803    172.4 1.167e+04 8.673e-10
 61.51863    172.8 1.168e+04 7.740e-10
 61.53702    173.5 1.208e+04 9.853e-10
 61.55477    173.9 1.257e+04 1.320e-09
 61.56537    174.2 1.253e+04 1.224e-09
 61.57567    174.4 1.315e+04 1.720e-09
 61.58627    174.7 1.312e+04 1.383e-09
 61.60062    174.9 1.381e+04 1.890e-09
 61.61210    175.0 1.443e+04 2.475e-09
 61.62270    175.3 1.428e+04 2.204e-09
 61.64302    175.0 1.446e+04 2.321e-09
 61.65884    174.5 1.438e+04 2.253e-09
 61.66944    175.0 1.386e+04 1.733e-09
 61.68542    174.7 1.376e+04 1.592e-09
 61.71732    174.4 1.292e+04 9.469e-10
 61.75251    174.2 1.211e+04 4.994e-10
 61.77371    174.0 1.170e+04 4.515e-10
 61.80221    173.7 1.118e+04 2.812e-10
 61.84461    173.5 1.115e+04 2.623e-10
 61.86708    173.5 1.115e+04 2.695e-10
 61.88828    172.9 1.152e+04 4.241e-10
 61.92941    172.7 1.191e+04 7.066e-10
 61.96065    172.8 1.245e+04 1.239e-09
 61.98185    171.3 1.254e+04 1.294e-09
 62.01420    171.3 1.257e+04 1.313e-09
 62.05412    171.3 1.243e+04 1.181e-09
 62.07532    169.6 1.171e+04 6.258e-10
 62.09900    169.4 1.119e+04 4.450e-10
 62.12910    169.4 1.075e+04 4.051e-10
 62.15030    170.0 1.073e+04 3.438e-10
 62.16880    170.2 1.060e+04 3.444e-10
 62.19000    170.3 1.042e+04 2.971e-10
 62.22620    171.4 1.034e+04 3.084e-10
 62.26227    172.6 1.031e+04 3.082e-10
 62.28347    173.1 1.024e+04 2.771e-10
 62.31100    174.4 1.015e+04 2.649e-10
 62.35340    175.9 1.003e+04 2.406e-10
 62.37694    177.5 9.913e+03 2.110e-10
 62.39814    177.8 9.964e+03 2.355e-10
 62.43819    179.4 9.900e+03 2.261e-10
 62.47041    181.2 9.834e+03 2.191e-10
 62.49161    181.4 1.003e+04 2.924e-10
 62.52299    183.2 1.001e+04 2.904e-10
 62.56389    185.0 9.938e+03 2.805e-10
 62.58509    185.0 1.015e+04 3.561e-10
 62.60779    186.9 1.002e+04 3.234e-10
 62.65019    189.0 9.900e+03 2.820e-10
 62.67856    191.1 9.810e+03 2.431e-10
 62.68951    190.4 9.843e+03 2.430e-10
 62.70354    189.9 9.671e+03 2.184e-10
 62.73499    191.7 9.484e+03 1.872e-10
 62.77203    193.4 9.335e+03 1.681e-10
 62.79323    192.6 9.401e+03 1.748e-10
 62.81978    194.4 9.292e+03 1.723e-10
 62.86218    196.4 9.259e+03 1.719e-10
 62.88670    198.4 9.242e+03 1.715e-10
 62.90790    197.5 9.697e+03 2.212e-10
 62.94698    199.6 9.645e+03 2.167e-10
 62.98018    201.8 9.559e+03 2.082e-10
 63.00137    200.9 1.042e+04 3.821e-10
 63.03178    203.5 1.025e+04 3.362e-10
 63.07365    206.0 9.998e+03 2.796e-10
 63.09485    205.8 1.046e+04 5.088e-10
 63.11658    208.4 1.028e+04 3.836e-10
 63.15897    211.0 1.008e+04 2.768e-10
 63.18832    213.5 9.836e+03 1.987e-10
 63.20952    213.3 1.024e+04 3.518e-10
 63.23558    215.6 1.011e+04 2.644e-10
 63.25678    214.8 9.799e+03 1.262e-10
 63.28179    217.1 9.617e+03 1.079e-10
 63.30299    217.2 9.759e+03 2.367e-10
 63.32857    219.4 9.765e+03 2.189e-10
 63.37097    221.6 9.755e+03 2.026e-10
 63.39646    223.6 9.650e+03 1.928e-10
 63.40697    223.1 1.007e+04 3.180e-10
 63.42377    224.1 1.002e+04 2.980e-10
 63.45567    225.6 1.019e+04 3.470e-10
 63.48994    227.1 1.011e+04 3.150e-10
 63.51104    227.4 1.043e+04 4.656e-10
 63.52260    227.9 1.042e+04 4.286e-10
 63.53320    227.8 1.039e+04 4.288e-10
 63.54708    228.1 1.037e+04 3.925e-10
 63.55768    228.3 1.035e+04 5.081e-10
 63.57217    228.2 1.030e+04 4.641e-10
 63.59337    228.1 1.025e+04 4.266e-10
 63.60441    227.8 1.022e+04 3.983e-10
 63.61501    227.2 1.106e+04 5.461e-10
 63.63577    226.7 1.083e+04 5.238e-10
 63.65115    226.0 1.080e+04 5.262e-10
 63.66175    222.7 1.474e+04 1.350e-09
 63.67817    222.1 1.396e+04 1.306e-09
 63.69789    221.7 1.332e+04 1.333e-09
 63.70849    220.5 1.506e+04 2.985e-09
 63.72056    220.8 1.406e+04 2.568e-09
 63.74176    221.2 1.328e+04 2.290e-09
 63.75522    221.8 1.277e+04 2.121e-09
 63.76582    222.2 1.274e+04 2.407e-09
 63.78416    222.6 1.244e+04 2.000e-09
 63.79922    222.9 1.231e+04 1.692e-09
 63.80642    223.1 1.185e+04 1.415e-09
 63.81266    223.1 1.194e+04 9.132e-10
 63.83736    222.6 1.107e+04 6.283e-10
 63.87976    221.9 1.083e+04 6.101e-10
 63.90623    221.3 1.082e+04 6.142e-10
 63.91673    221.1 1.084e+04 5.284e-10
 63.93256    221.0 1.087e+04 5.417e-10
 63.95277    220.7 1.094e+04 5.784e-10
 63.96337    220.1 1.110e+04 6.348e-10
 63.97496    219.8 1.118e+04 7.041e-10
 63.99616    219.3 1.131e+04 8.104e-10
 64.01010    218.6 1.154e+04 9.752e-10
 64.02070    218.6 1.158e+04 1.124e-09
 64.03856    217.7 1.191e+04 1.396e-09
 64.05684    216.7 1.231e+04 1.786e-09
 64.06744    217.1 1.251e+04 2.040e-09
 64.07584    216.2 1.297e+04 2.568e-09
 64.08644    215.8 1.320e+04 2.662e-09
 64.10215    214.7 1.345e+04 2.743e-09
 64.11418    213.2 1.346e+04 2.691e-09
 64.12478    213.9 1.360e+04 2.917e-09
 64.14455    212.3 1.359e+04 2.488e-09
 64.16091    210.0 1.348e+04 1.813e-09
 64.17151    210.8 1.363e+04 1.744e-09
 64.18695    207.7 1.330e+04 1.106e-09
 64.20775    203.7 1.289e+04 9.277e-10
 64.21835    205.2 1.255e+04 8.325e-10
 64.22935    201.3 1.194e+04 6.903e-10
 64.26125    197.6 1.176e+04 7.809e-10
 64.30132    192.3 1.158e+04 8.238e-10
 64.32252    192.8 1.202e+04 1.064e-09
 64.34206    189.4 1.218e+04 1.362e-09
 64.36326    189.2 1.244e+04 1.553e-09
 64.38854    187.1 1.253e+04 1.676e-09
 64.41599    185.2 1.244e+04 1.627e-09
 64.43719    186.6 1.281e+04 1.895e-09
 64.47334    185.3 1.220e+04 1.382e-09
 64.50946    185.1 1.134e+04 8.103e-10
 64.53066    186.0 1.096e+04 6.085e-10
 64.55814    186.0 9.887e+03 2.666e-10
 64.60054    185.8 8.858e+03 1.041e-10
 64.62413    185.7 8.679e+03 6.964e-11
 64.64533    186.5 8.677e+03 5.828e-11
 64.68533    187.4 8.608e+03 5.766e-11
 64.71761    189.0 8.593e+03 5.849e-11
 64.73881    190.5 8.646e+03 5.872e-11
 64.77013    192.1 8.630e+03 6.384e-11
 64.81108    193.2 8.731e+03 8.644e-11
 64.83228    194.1 8.950e+03 1.036e-10
 64.85493    194.4 9.403e+03 1.688e-10
 64.89530    194.2 9.795e+03 2.485e-10
 64.91649    194.5 9.750e+03 2.548e-10
 64.92575    194.5 1.034e+04 3.956e-10
 64.93625    194.6 1.030e+04 3.926e-10
 64.95013    194.4 1.072e+04 5.207e-10
 64.97133    194.0 1.125e+04 6.829e-10
 64.98289    193.6 1.177e+04 8.295e-10
 64.99349    193.6 1.237e+04 1.238e-09
 65.01373    192.7 1.308e+04 1.419e-09
 65.02963    191.6 1.335e+04 1.417e-09
 65.04023    191.3 1.434e+04 2.573e-09
 65.05613    190.0 1.435e+04 2.501e-09
 65.07636    188.7 1.424e+04 2.209e-09
 65.08696    188.3 1.516e+04 3.976e-09
 65.09853    187.1 1.477e+04 3.396e-09
 65.11973    185.9 1.448e+04 3.231e-09
 65.13370    184.7 1.447e+04 3.276e-09
 65.14430    184.3 1.535e+04 4.846e-09
 65.16213    184.0 1.530e+04 5.117e-09
 65.18044    183.9 1.545e+04 5.935e-09
 65.19003    184.1 1.542e+04 5.911e-09
 65.19292    183.8 1.630e+04 8.034e-09
 65.20452    184.0 1.641e+04 8.915e-09
 65.22572    184.1 1.645e+04 9.106e-09
 65.23777    184.3 1.643e+04 8.980e-09
 65.24837    184.9 1.606e+04 6.890e-09
 65.26812    185.0 1.593e+04 6.196e-09
 65.28451    185.0 1.567e+04 5.260e-09
 65.29511    184.2 1.504e+04 3.037e-09
 65.31052    184.0 1.444e+04 2.588e-09
 65.33125    183.9 1.374e+04 2.229e-09
 65.34184    183.9 1.255e+04 1.414e-09
 65.36362    184.8 1.187e+04 1.129e-09
 65.40611    186.0 1.180e+04 1.198e-09
 65.43551    187.4 1.171e+04 1.151e-09
 65.45671    188.9 1.121e+04 8.503e-10
 65.49091    190.2 1.089e+04 5.791e-10
 65.52899    191.9 1.040e+04 3.844e-10
 65.55018    193.6 1.047e+04 4.211e-10
 65.57571    195.3 1.016e+04 3.140e-10
 65.61811    197.2 9.898e+03 2.548e-10
 65.64366    199.1 9.674e+03 2.340e-10
 65.66486    201.0 9.956e+03 2.732e-10
 65.70291    202.9 9.873e+03 2.664e-10
 65.73713    204.8 9.831e+03 2.656e-10
 65.75833    206.6 1.005e+04 2.979e-10
 65.78770    208.5 1.004e+04 2.958e-10
 65.83010    210.5 1.003e+04 2.954e-10
 65.85180    212.4 1.003e+04 2.965e-10
 65.87300    214.2 1.025e+04 3.219e-10
 65.91490    215.7 1.028e+04 3.225e-10
 65.94527    216.5 1.024e+04 3.282e-10
 65.95578    217.0 1.023e+04 3.374e-10
 65.96770    217.6 1.030e+04 3.530e-10
 65.98890    218.3 1.046e+04 3.853e-10
 66.00242    218.9 1.068e+04 4.356e-10
 66.01302    219.8 1.102e+04 5.348e-10
 66.02278    220.0 1.129e+04 6.013e-10
 66.03338    219.3 1.146e+04 7.276e-10
 66.04915    219.4 1.164e+04 7.808e-10
 66.05975    220.1 1.190e+04 9.428e-10
 66.07370    219.9 1.191e+04 9.408e-10
 66.09490    219.5 1.188e+04 9.173e-10
 66.10649    219.2 1.172e+04 8.394e-10
 66.11709    219.5 1.189e+04 9.846e-10
 66.13730    219.2 1.156e+04 8.228e-10
 66.15322    218.9 1.122e+04 6.968e-10
 66.16382    219.0 1.134e+04 7.891e-10
 66.17970    218.6 1.131e+04 7.720e-10
 66.19996    218.2 1.136e+04 7.825e-10
 66.21056    217.9 1.179e+04 9.349e-10
 66.22210    217.2 1.230e+04 1.071e-09
 66.24330    216.6 1.288e+04 1.324e-09
 66.25730    216.3 1.336e+04 1.677e-09
 66.26790    216.4 1.385e+04 2.084e-09
 66.28570    216.6 1.407e+04 2.453e-09
 66.29940    216.9 1.420e+04 2.750e-09
 66.30713    218.3 1.350e+04 1.983e-09
 66.31463    218.6 1.384e+04 2.191e-09
 66.32809    218.8 1.383e+04 2.287e-09
 66.34929    219.2 1.379e+04 2.325e-09
 66.36137    219.5 1.379e+04 2.327e-09
 66.37197    219.6 1.373e+04 2.174e-09
 66.39169    219.9 1.363e+04 2.051e-09
 66.40811    220.2 1.348e+04 1.893e-09
 66.41870    219.9 1.309e+04 1.690e-09
 66.43409    220.1 1.279e+04 1.499e-09
 66.45484    220.2 1.250e+04 1.336e-09
 66.46544    220.2 1.227e+04 1.308e-09
 66.47649    220.3 1.208e+04 1.191e-09
 66.49769    220.4 1.195e+04 1.112e-09
 66.51218    220.4 1.185e+04 1.056e-09
 66.52278    220.6 1.189e+04 1.081e-09
 66.54009    220.7 1.177e+04 1.016e-09
 66.55891    220.9 1.162e+04 9.518e-10
 66.56951    221.4 1.163e+04 9.565e-10
 66.57602    221.7 1.141e+04 8.950e-10
 66.58662    222.9 1.155e+04 8.849e-10
 66.60369    223.2 1.138e+04 8.406e-10
 66.61625    223.5 1.125e+04 8.237e-10
 66.62685    224.1 1.131e+04 8.525e-10
 66.64609    224.3 1.129e+04 8.545e-10
 66.66299    224.6 1.131e+04 8.745e-10
 66.67359    225.1 1.138e+04 9.089e-10
 66.68848    225.3 1.145e+04 9.638e-10
 66.70968    225.4 1.169e+04 1.090e-09
 66.73088    226.2 1.202e+04 1.234e-09
 66.75208    226.4 1.238e+04 1.423e-09
 66.76706    226.4 1.277e+04 1.612e-09
 66.77766    227.0 1.272e+04 1.512e-09
 66.79448    226.9 1.283e+04 1.512e-09
 66.81379    226.7 1.284e+04 1.463e-09
 66.82439    227.3 1.259e+04 1.310e-09
 66.83688    227.0 1.250e+04 1.163e-09
 66.85264    226.5 1.226e+04 9.628e-10
 66.86324    228.8 1.282e+04 1.354e-09
 66.87113    228.4 1.251e+04 1.079e-09
 66.88173    229.1 1.238e+04 1.011e-09
 66.90048    228.3 1.197e+04 7.936e-10
 66.91787    227.4 1.156e+04 6.605e-10
 66.92847    227.9 1.158e+04 6.792e-10
 66.94288    226.9 1.130e+04 6.106e-10
 66.96408    225.9 1.120e+04 6.117e-10
 66.97520    225.2 1.118e+04 6.416e-10
 66.98580    225.9 1.123e+04 7.020e-10
 67.00648    225.6 1.131e+04 8.401e-10
 67.02194    225.6 1.172e+04 1.021e-09
 67.03254    226.4 1.182e+04 1.062e-09
 67.04888    226.5 1.218e+04 1.220e-09
 67.06868    226.6 1.243e+04 1.310e-09
 67.07928    227.4 1.240e+04 1.261e-09
 67.09127    227.2 1.243e+04 1.257e-09
 67.11247    226.8 1.242e+04 1.221e-09
 67.12601    226.4 1.229e+04 1.088e-09
 67.13219    227.0 1.219e+04 1.002e-09
 67.13985    228.7 1.235e+04 1.143e-09
 67.15487    228.4 1.216e+04 1.024e-09
 67.17275    227.5 1.185e+04 7.845e-10
 67.18335    228.4 1.174e+04 6.900e-10
 67.19727    227.9 1.136e+04 5.515e-10
 67.21847    227.0 1.103e+04 4.329e-10
 67.23008    226.1 1.072e+04 3.662e-10
 67.24068    226.7 1.072e+04 3.581e-10
 67.26087    225.6 1.052e+04 3.295e-10
 67.27682    225.0 1.035e+04 3.197e-10
 67.28752    228.9 1.057e+04 3.196e-10
 67.30337    227.2 1.042e+04 3.147e-10
 67.32356    226.5 1.040e+04 3.178e-10
 67.33416    227.2 1.048e+04 3.200e-10
 67.34567    226.6 1.053e+04 3.386e-10
 67.36687    225.4 1.084e+04 4.287e-10
 67.38089    223.4 1.182e+04 7.021e-10
 67.39149    224.5 1.184e+04 6.974e-10
 67.40587    222.5 1.309e+04 1.289e-09
 67.41647    224.3 1.289e+04 1.110e-09
 67.42763    222.2 1.430e+04 2.122e-09
 67.43823    223.5 1.429e+04 2.093e-09
 67.45166    221.6 1.545e+04 3.518e-09
 67.47286    219.3 1.645e+04 4.678e-09
 67.48497    215.6 1.747e+04 4.942e-09
 67.49556    216.7 1.765e+04 5.097e-09
 67.51526    211.0 1.857e+04 5.111e-09
 67.53170    203.9 1.875e+04 5.207e-09
 67.54230    204.7 1.885e+04 5.322e-09
 67.55766    197.5 1.863e+04 5.289e-09
 67.57844    191.2 1.791e+04 5.244e-09
 67.58904    192.4 1.804e+04 5.293e-09
 67.60006    187.7 1.720e+04 5.062e-09
 67.62126    184.2 1.650e+04 4.431e-09
 67.63577    181.5 1.581e+04 3.533e-09
 67.64637    182.5 1.597e+04 3.597e-09
 67.66366    179.8 1.516e+04 2.648e-09
 67.68249    177.1 1.423e+04 1.880e-09
 67.69309    177.8 1.494e+04 2.499e-09
 67.70606    175.3 1.405e+04 1.835e-09
 67.72726    173.0 1.336e+04 1.431e-09
 67.73985    171.6 1.294e+04 1.236e-09
 67.75045    172.0 1.315e+04 1.369e-09
 67.77608    169.3 1.247e+04 1.005e-09
 67.79738    169.8 1.297e+04 1.192e-09
 67.82285    165.7 1.169e+04 6.607e-10
 67.86525    162.4 1.048e+04 3.975e-10
 67.89085    159.1 9.912e+03 3.346e-10
 67.90135    158.5 1.036e+04 3.816e-10
 67.91805    157.6 1.022e+04 3.779e-10
 67.93739    156.3 1.020e+04 3.778e-10
 67.94799    155.8 1.046e+04 4.282e-10
 67.95911    154.8 1.049e+04 4.369e-10
 67.96971    154.5 1.039e+04 4.160e-10
 67.98165    153.7 1.042e+04 4.258e-10
 67.99473    152.9 1.048e+04 4.388e-10
 68.00533    151.9 1.090e+04 5.355e-10
 68.02405    151.0 1.096e+04 5.537e-10
 68.04146    150.0 1.103e+04 5.730e-10
 68.05206    149.0 1.143e+04 6.852e-10
 68.06645    147.8 1.154e+04 7.168e-10
 68.08765    146.7 1.169e+04 7.618e-10
 68.09880    145.5 1.187e+04 8.221e-10
 68.10940    143.8 1.232e+04 9.761e-10
 68.13005    142.5 1.252e+04 1.057e-09
 68.14554    141.2 1.271e+04 1.148e-09
 68.15614    139.1 1.305e+04 1.322e-09
 68.17245    137.8 1.318e+04 1.405e-09
 68.19227    136.4 1.337e+04 1.510e-09
 68.20287    133.8 1.385e+04 1.747e-09
 68.21484    131.8 1.433e+04 2.011e-09
 68.23573    129.7 1.492e+04 2.459e-09
 68.24633    130.6 1.456e+04 2.231e-09
 68.24961    128.6 1.527e+04 2.836e-09
 68.26021    125.7 1.576e+04 3.510e-09
 68.27844    124.5 1.606e+04 4.332e-09
 68.29634    123.6 1.627e+04 4.912e-09
 68.30694    121.6 1.614e+04 4.757e-09
 68.32084    120.9 1.602e+04 4.684e-09
 68.34204    120.3 1.571e+04 4.289e-09
 68.35368    119.7 1.527e+04 3.646e-09
 68.36428    117.7 1.469e+04 2.869e-09
 68.38444    116.6 1.452e+04 2.549e-09
 68.40042    115.0 1.468e+04 2.602e-09
 68.41102    111.9 1.473e+04 2.618e-09
 68.42149    111.5 1.489e+04 2.842e-09
 68.42899    111.6 1.505e+04 3.047e-09
 68.43429    111.0 1.495e+04 3.073e-09
 68.44264    110.8 1.539e+04 3.441e-09
 68.45236    109.5 1.712e+04 4.381e-09
 68.45766    100.0 2.540e+04 9.019e-09
 68.46384     93.3 2.753e+04 3.268e-08
 68.47444     89.7 2.517e+04 1.153e-07
 68.48102     88.7 2.317e+04 2.752e-07
 68.48632     87.5 2.228e+04 3.128e-07
 68.49268     87.2 2.214e+04 3.738e-07
 68.49531     87.1 2.203e+04 3.662e-07
 68.49824     86.7 2.204e+04 3.648e-07
 68.50354     86.0 2.222e+04 3.393e-07
 68.50699     85.2 2.232e+04 3.073e-07
 68.50967     82.4 2.435e+04 1.465e-07
 68.51684     79.9 2.663e+04 7.790e-08
 68.52285     77.0 2.980e+04 3.442e-08
 68.52815     79.9 2.892e+04 5.969e-08
 68.53306     77.0 3.326e+04 2.320e-08
 68.53836     65.5 3.474e+04 8.041e-09
 68.54864     63.1 3.152e+04 5.463e-09
 68.55643     60.0 2.865e+04 3.996e-09
 68.56178     47.1 2.088e+04 3.387e-09
 68.57523     42.6 1.670e+04 3.315e-09
 68.59643     42.1 1.686e+04 3.453e-09
 68.60856     41.6 1.715e+04 3.682e-09
 68.61381     38.1 1.718e+04 5.436e-09
 68.62284     38.2 1.720e+04 5.500e-09
 68.63183     38.5 1.717e+04 5.881e-09
 68.63713     38.0 1.721e+04 6.366e-09
 68.64404     38.1 1.732e+04 6.677e-09
 68.65463     38.2 1.756e+04 7.390e-09
 68.66050     38.2 1.772e+04 7.926e-09
 68.66173     36.6 1.856e+04 1.092e-08
 68.66646     35.9 1.870e+04 1.123e-08
 68.67583     35.7 1.906e+04 1.180e-08
 68.68387     35.5 1.965e+04 1.258e-08
 68.68917     33.3 2.084e+04 1.431e-08
 68.69703     32.6 2.162e+04 1.521e-08
 68.70724     31.8 2.203e+04 1.610e-08
 68.71254     29.5 2.214e+04 1.422e-08
 68.71823     28.9 2.201e+04 1.380e-08
 68.72883     28.5 2.172e+04 1.321e-08
 68.73590     28.2 2.147e+04 1.236e-08
 68.74120     26.0 2.010e+04 8.424e-09
 68.75003     25.6 1.982e+04 8.017e-09
 68.75927     25.2 1.935e+04 7.098e-09
 68.76992     23.7 1.860e+04 5.296e-09
 68.78723     22.2 1.800e+04 3.759e-09
 68.79957     19.9 1.732e+04 2.358e-09
 68.80785     12.8 1.446e+04 1.063e-09
 68.81671      6.7 1.065e+04 4.919e-10
 68.82963      4.9 9.942e+03 4.266e-10
 68.85083      3.8 9.878e+03 4.078e-10
 68.86344      3.0 9.890e+03 4.041e-10
 68.87404      2.1 9.892e+03 3.962e-10
 68.89323      0.8 1.002e+04 4.114e-10
 68.91018     -1.0 1.020e+04 4.419e-10
 68.92078     -3.0 1.027e+04 4.464e-10
 68.93563     -5.3 1.058e+04 5.204e-10
 68.95682     -7.6 1.102e+04 6.614e-10
 68.97802    -12.0 1.197e+04 1.018e-09
 68.99922    -14.7 1.261e+04 1.286e-09
 69.01425    -17.6 1.320e+04 1.603e-09
 69.02485    -19.9 1.344e+04 1.767e-09
 69.04162    -22.6 1.370e+04 2.001e-09
 69.06099    -24.9 1.383e+04 2.189e-09
 69.07159    -26.7 1.350e+04 1.971e-09
 69.07619    -28.2 1.314e+04 1.756e-09
 69.08679    -28.4 1.277e+04 1.519e-09
 69.10522    -29.7 1.238e+04 1.303e-09
 69.11832    -31.0 1.196e+04 1.080e-09
 69.12892    -32.3 1.145e+04 8.494e-10
 69.14762    -33.6 1.110e+04 6.950e-10
 69.16506    -34.9 1.071e+04 5.732e-10
 69.17566    -35.7 1.017e+04 4.303e-10
 69.19002    -35.9 9.962e+03 4.018e-10
 69.21122    -35.9 9.665e+03 3.504e-10
 69.22240    -35.9 9.621e+03 3.446e-10
 69.23309    -36.8 9.367e+03 2.866e-10
 69.26441    -36.2 9.176e+03 2.584e-10
 69.30546    -35.2 9.112e+03 2.459e-10
 69.32666    -36.0 8.639e+03 1.801e-10
 69.34241    -35.0 8.792e+03 2.045e-10
 69.36361    -35.0 8.994e+03 2.311e-10
 69.39161    -34.2 9.270e+03 2.828e-10
 69.42014    -33.4 9.531e+03 3.405e-10
 69.44134    -34.0 9.493e+03 3.384e-10
 69.47641    -33.1 9.585e+03 3.767e-10
 69.51361    -32.1 9.545e+03 3.824e-10
 69.53481    -32.6 9.558e+03 3.799e-10
 69.55051    -31.7 9.523e+03 3.819e-10
 69.57075    -31.1 9.647e+03 4.004e-10
 69.58135    -31.6 9.693e+03 4.030e-10
 69.59281    -31.7 9.944e+03 4.543e-10
 69.61401    -31.5 1.016e+04 5.278e-10
 69.62809    -31.2 1.043e+04 6.304e-10
 69.63291    -31.9 1.073e+04 7.463e-10
 69.64003    -32.2 1.091e+04 8.087e-10
 69.65641    -31.5 1.119e+04 9.624e-10
 69.67482    -31.0 1.147e+04 1.114e-09
 69.68542    -31.7 1.175e+04 1.248e-09
 69.69880    -31.2 1.196e+04 1.393e-09
 69.72000    -30.6 1.210e+04 1.444e-09
 69.73216    -30.3 1.226e+04 1.484e-09
 69.74276    -31.2 1.241e+04 1.536e-09
 69.76240    -31.0 1.239e+04 1.518e-09
 69.77889    -30.9 1.236e+04 1.482e-09
 69.78949    -32.0 1.242e+04 1.508e-09
 69.80480    -31.7 1.240e+04 1.457e-09
 69.82563    -31.6 1.248e+04 1.470e-09
 69.83623    -33.0 1.268e+04 1.546e-09
 69.84720    -33.0 1.285e+04 1.612e-09
 69.86840    -32.9 1.305e+04 1.717e-09
 69.88297    -33.0 1.328e+04 1.908e-09
 69.89357    -34.2 1.347e+04 2.072e-09
 69.90605    -34.0 1.348e+04 2.251e-09
 69.91665    -32.8 1.279e+04 1.482e-09
 69.92970    -32.6 1.281e+04 1.610e-09
 69.94030    -33.5 1.252e+04 1.456e-09
 69.95320    -32.8 1.240e+04 1.492e-09
 69.97440    -31.9 1.227e+04 1.477e-09
 69.98704    -30.9 1.208e+04 1.404e-09
 69.99764    -31.4 1.169e+04 1.180e-09
 70.01680    -30.3 1.142e+04 1.057e-09
 70.03378    -29.2 1.109e+04 9.075e-10
 70.04437    -29.6 1.083e+04 7.922e-10
 70.05920    -28.5 1.051e+04 6.711e-10
 70.08039    -27.2 1.020e+04 5.635e-10
 70.09111    -25.7 9.978e+03 4.454e-10
 70.10171    -25.9 9.930e+03 4.152e-10
 70.12279    -25.3 9.898e+03 3.852e-10
 70.13795    -23.0 9.870e+03 3.705e-10
 70.15924    -23.7 9.866e+03 3.701e-10
 70.19719    -21.4 9.761e+03 3.576e-10
 70.23152    -18.9 9.760e+03 3.671e-10
 70.25262    -18.7 1.002e+04 4.481e-10
 70.27119    -17.3 1.001e+04 4.623e-10
 70.28866    -16.1 1.003e+04 4.836e-10
 70.29926    -16.2 1.018e+04 5.580e-10
 70.31359    -14.6 1.021e+04 5.780e-10
 70.33479    -13.3 1.026e+04 5.992e-10
 70.34599    -11.8 1.028e+04 6.025e-10
 70.35659    -11.9 1.040e+04 6.788e-10
 70.37719    -10.6 1.044e+04 6.820e-10
 70.39273     -9.2 1.044e+04 6.665e-10
 70.40333     -9.3 1.051e+04 7.380e-10
 70.41959     -8.0 1.050e+04 7.180e-10
 70.43946     -6.5 1.046e+04 6.814e-10
 70.45006     -6.5 1.050e+04 7.475e-10
 70.45929     -5.3 1.046e+04 7.184e-10
 70.46989     -4.9 1.087e+04 1.030e-09
 70.48318     -3.7 1.081e+04 9.870e-10
 70.49680     -2.4 1.071e+04 9.166e-10
 70.50740     -2.3 1.061e+04 9.011e-10
 70.52558     -1.0 1.053e+04 8.569e-10
 70.54354      0.3 1.046e+04 7.953e-10
 70.55414      0.3 1.040e+04 7.831e-10
 70.56798      1.6 1.027e+04 7.232e-10
 70.58918      2.9 1.019e+04 6.607e-10
 70.60087      4.5 1.010e+04 5.700e-10
 70.61147      4.5 1.001e+04 5.697e-10
 70.63158      5.3 9.981e+03 5.311e-10
 70.64761      7.1 9.891e+03 4.721e-10
 70.65821      7.2 9.820e+03 4.754e-10
 70.67398      7.9 9.805e+03 4.543e-10
 70.69435      9.6 9.761e+03 4.232e-10
 70.70495      9.7 9.747e+03 4.229e-10
 70.71638     10.5 9.763e+03 4.225e-10
 70.73591     12.2 9.786e+03 4.201e-10
 70.74651     12.0 9.876e+03 4.748e-10
 70.75168     13.2 9.946e+03 4.862e-10
 70.76238     12.8 9.869e+03 4.488e-10
 70.78007     14.4 1.001e+04 5.173e-10
 70.79842     15.6 1.011e+04 5.593e-10
 70.80902     15.7 1.008e+04 5.630e-10
 70.82237     17.0 1.023e+04 6.149e-10
 70.84357     18.4 1.032e+04 6.613e-10
 70.85575     19.8 1.044e+04 6.937e-10
 70.86635     20.0 1.041e+04 6.962e-10
 70.88597     21.4 1.043e+04 6.935e-10
 70.90249     22.7 1.044e+04 6.856e-10
 70.91309     22.9 1.032e+04 6.219e-10
 70.92837     24.3 1.035e+04 6.050e-10
 70.94923     25.6 1.042e+04 5.976e-10
 70.95983     25.7 1.031e+04 5.480e-10
 70.97077     26.8 1.036e+04 5.494e-10
 70.99197     27.9 1.049e+04 5.622e-10
 71.00656     28.6 1.080e+04 6.219e-10
 71.01652     28.6 1.064e+04 5.665e-10
 71.02313     28.7 1.026e+04 4.530e-10
 71.03437     29.3 1.062e+04 5.224e-10
 71.05330     29.5 1.135e+04 6.964e-10
 71.06390     29.9 1.100e+04 5.897e-10
 71.07677     30.3 1.178e+04 8.155e-10
 71.09797     30.9 1.253e+04 1.155e-09
 71.11064     31.6 1.304e+04 1.543e-09
 71.12123     32.0 1.223e+04 1.038e-09
 71.14037     32.6 1.238e+04 1.181e-09
 71.15737     33.1 1.228e+04 1.212e-09
 71.16797     33.2 1.166e+04 8.810e-10
 71.18277     33.7 1.156e+04 8.690e-10
 71.20396     34.3 1.136e+04 8.176e-10
 71.21471     34.9 1.111e+04 7.396e-10
 71.22531     35.3 1.097e+04 6.719e-10
 71.24636     36.1 1.087e+04 6.343e-10
 71.26144     36.9 1.077e+04 5.888e-10
 71.27204     37.2 1.085e+04 5.914e-10
 71.28876     38.0 1.082e+04 5.498e-10
 71.29975     38.2 1.079e+04 5.296e-10
 71.30856     39.2 1.080e+04 5.422e-10
 71.31878     39.6 1.090e+04 5.643e-10
 71.33116     40.2 1.095e+04 5.578e-10
 71.35236     40.8 1.099e+04 5.591e-10
 71.36552     41.4 1.106e+04 5.681e-10
 71.37612     41.2 1.132e+04 6.728e-10
 71.39476     41.7 1.145e+04 7.187e-10
 71.41225     42.2 1.159e+04 7.451e-10
 71.42285     41.9 1.196e+04 9.464e-10
 71.43716     42.4 1.196e+04 9.397e-10
 71.45836     42.7 1.191e+04 9.015e-10
 71.46959     43.0 1.179e+04 8.349e-10
 71.48019     42.6 1.193e+04 9.235e-10
 71.50076     42.7 1.173e+04 8.127e-10
 71.51632     42.6 1.156e+04 7.424e-10
 71.52692     42.1 1.156e+04 7.368e-10
 71.54316     42.0 1.143e+04 6.653e-10
 71.56306     41.9 1.144e+04 6.395e-10
 71.57366     41.2 1.132e+04 5.353e-10
 71.57637     41.2 1.132e+04 5.354e-10
 71.58697     41.3 1.166e+04 5.990e-10
 71.60675     41.0 1.174e+04 6.129e-10
 71.62040     40.6 1.195e+04 6.632e-10
 71.63100     39.6 1.202e+04 6.325e-10
 71.64915     38.9 1.228e+04 7.442e-10
 71.66713     37.7 1.277e+04 9.516e-10
 71.67773     35.8 1.377e+04 1.258e-09
 71.69155     34.5 1.496e+04 2.111e-09
 71.71275     33.7 1.591e+04 3.336e-09
 71.72447     33.2 1.660e+04 4.538e-09
 71.73507     32.1 1.764e+04 6.858e-09
 71.75515     31.3 1.804e+04 7.483e-09
 71.77121     29.7 1.842e+04 7.596e-09
 71.78181     28.6 1.861e+04 8.110e-09
 71.79220     27.1 1.906e+04 8.477e-09
 71.79978     24.6 2.025e+04 9.382e-09
 71.80508     23.6 2.098e+04 9.794e-09
 71.81335     18.7 2.400e+04 1.410e-08
 71.82314     13.9 2.541e+04 2.443e-08
 71.82844     11.5 2.577e+04 2.900e-08
 71.83455      8.6 2.466e+04 5.876e-08
 71.84515      7.3 2.390e+04 1.209e-07
 71.85181      6.0 2.359e+04 1.749e-07
 71.85425      4.9 2.356e+04 1.933e-07
 71.85819      4.5 2.364e+04 1.984e-07
 71.86635      3.6 2.338e+04 1.778e-07
 71.87518      4.4 2.278e+04 1.154e-07
 71.88048      4.3 2.229e+04 9.622e-08
 71.88755      5.4 2.160e+04 4.561e-08
 71.89815      5.3 2.083e+04 2.091e-08
 71.90385      5.0 1.997e+04 1.105e-08
 71.90915      4.4 1.946e+04 8.757e-09
 71.92197      1.6 1.678e+04 2.942e-09
 71.93261     -0.0 1.541e+04 1.851e-09
 71.94594     -5.0 1.130e+04 6.224e-10
 71.96714     -5.7 1.041e+04 4.029e-10
 71.97935     -4.6 1.003e+04 3.102e-10
 71.98995     -4.6 9.827e+03 2.733e-10
 72.02024     -2.6 9.780e+03 2.645e-10
 72.06242      0.5 9.602e+03 2.294e-10
 72.08362      0.6 9.354e+03 2.127e-10
 72.10514      3.3 9.266e+03 2.128e-10
 72.12980      5.9 9.250e+03 2.219e-10
 72.15100      6.2 8.969e+03 1.553e-10
 72.17709      8.7 9.027e+03 1.787e-10
 72.19829      9.0 9.004e+03 1.818e-10
 72.23233     11.5 9.080e+03 2.082e-10
 72.27056     13.9 9.116e+03 2.257e-10
 72.29176     14.2 9.099e+03 2.246e-10
 72.31713     16.4 9.073e+03 2.173e-10
 72.35953     18.5 9.013e+03 2.028e-10
 72.38524     20.5 8.946e+03 1.874e-10
 72.40643     20.7 8.905e+03 1.747e-10
 72.44433     22.7 8.828e+03 1.563e-10
 72.47871     24.6 8.764e+03 1.408e-10
 72.49991     24.7 8.744e+03 1.292e-10
 72.52912     26.6 8.704e+03 1.198e-10
 72.57152     28.5 8.711e+03 1.188e-10
 72.59338     30.4 8.728e+03 1.207e-10
 72.61458     30.3 8.730e+03 1.201e-10
 72.65632     32.0 8.836e+03 1.316e-10
 72.68304     33.7 8.993e+03 1.557e-10
 72.69237     33.5 9.002e+03 1.568e-10
 72.70805     33.2 9.143e+03 1.954e-10
 72.74112     34.9 9.372e+03 2.458e-10
 72.78033     36.6 9.592e+03 2.933e-10
 72.80152     36.3 9.761e+03 3.667e-10
 72.82592     37.7 9.837e+03 3.774e-10
 72.86832     38.9 9.816e+03 3.682e-10
 72.89500     40.2 9.715e+03 3.295e-10
 72.91620     40.0 9.703e+03 3.479e-10
 72.95311     41.5 9.527e+03 2.845e-10
 72.98847     43.1 9.339e+03 2.225e-10
 73.00967     42.9 9.309e+03 2.264e-10
 73.03791     44.4 9.133e+03 1.775e-10
 73.08031     46.1 9.003e+03 1.443e-10
 73.10314     47.7 8.919e+03 1.240e-10
 73.12434     47.6 8.907e+03 1.286e-10
 73.16511     49.3 8.861e+03 1.161e-10
 73.19661     51.0 8.819e+03 1.077e-10
 73.21781     51.0 8.793e+03 1.090e-10
 73.23628     52.7 8.750e+03 1.010e-10
 73.25748     52.9 8.773e+03 1.053e-10
 73.29009     54.7 8.736e+03 1.000e-10
 73.31129     54.7 8.721e+03 1.005e-10
 73.33470     56.5 8.691e+03 9.675e-11
 73.37710     58.4 8.671e+03 9.470e-11
 73.40476     60.3 8.662e+03 9.282e-11
 73.42596     60.4 8.613e+03 8.636e-11
 73.46190     62.3 8.599e+03 8.288e-11
 73.49823     64.2 8.586e+03 7.932e-11
 73.51943     64.4 8.520e+03 7.044e-11
 73.54670     66.4 8.509e+03 6.723e-11
 73.58910     68.3 8.504e+03 6.479e-11
 73.61290     70.2 8.508e+03 6.311e-11
 73.63410     70.7 8.460e+03 5.834e-11
 73.67389     72.6 8.471e+03 5.889e-11
 73.70638     74.6 8.500e+03 6.043e-11
 73.72758     75.1 8.483e+03 5.863e-11
 73.75869     77.1 8.538e+03 6.265e-11
 73.78952     79.0 8.616e+03 6.927e-11
 73.80947     78.9 8.696e+03 7.635e-11
 73.82105     79.4 8.713e+03 7.800e-11
 73.84349     81.1 8.847e+03 9.698e-11
 73.88589     82.6 9.063e+03 1.333e-10
 73.91452     84.1 9.385e+03 1.966e-10
 73.93572     84.5 9.520e+03 2.352e-10
 73.97069     85.8 9.990e+03 3.574e-10
 74.00799     86.7 1.044e+04 4.922e-10
 74.02919     86.9 1.071e+04 5.720e-10
 74.05548     87.0 1.095e+04 6.075e-10
 74.09788     86.8 1.095e+04 5.975e-10
 74.12267     86.7 1.089e+04 5.308e-10
 74.14387     86.2 1.119e+04 6.143e-10
 74.18268     86.2 1.098e+04 4.466e-10
 74.21614     86.4 1.069e+04 2.800e-10
 74.23734     85.6 1.090e+04 3.476e-10
 74.26748     86.0 1.047e+04 2.335e-10
 74.30961     86.7 1.017e+04 1.896e-10
 74.33081     86.4 1.027e+04 2.300e-10
 74.34275     87.9 1.015e+04 2.127e-10
 74.36395     87.6 1.036e+04 2.710e-10
 74.39467     89.3 1.025e+04 2.274e-10
 74.42428     91.0 1.019e+04 2.026e-10
 74.44548     91.0 1.018e+04 1.892e-10
 74.47947     92.8 1.015e+04 1.699e-10
 74.51776     94.7 1.011e+04 1.458e-10
 74.53896     94.9 1.010e+04 1.320e-10
 74.56427     96.8 1.008e+04 1.102e-10
 74.60667     98.6 1.006e+04 8.928e-11
 74.63243    100.2 1.006e+04 7.228e-11
 74.65363    100.6 1.007e+04 7.220e-11
 74.69147    102.2 1.008e+04 6.062e-11
 74.72590    103.8 1.004e+04 5.664e-11
 74.74710    104.3 1.016e+04 5.772e-11
 74.77626    106.0 1.008e+04 5.657e-11
 74.81866    107.7 1.008e+04 5.668e-11
 74.84057    109.3 1.012e+04 5.741e-11
 74.86177    109.8 1.032e+04 6.016e-11
 74.89599    111.3 1.030e+04 6.233e-11
 74.91719    111.5 1.012e+04 5.628e-11
 74.93405    113.0 1.016e+04 5.940e-11
 74.95524    113.3 1.037e+04 6.347e-11
 74.98826    114.6 1.030e+04 7.233e-11
 75.02752    116.0 1.022e+04 8.530e-11
 75.04872    116.2 1.036e+04 9.856e-11
 75.07306    117.7 1.027e+04 1.125e-10
 75.11546    119.1 1.024e+04 1.318e-10
 75.14219    120.7 1.028e+04 1.587e-10
 75.16339    120.5 1.042e+04 1.692e-10
 75.20025    121.9 1.056e+04 2.141e-10
 75.23566    123.3 1.081e+04 2.828e-10
 75.25686    122.5 1.109e+04 3.269e-10
 75.28505    123.9 1.140e+04 4.373e-10
 75.32745    125.1 1.169e+04 5.609e-10
 75.35033    126.2 1.193e+04 6.733e-10
 75.37153    125.1 1.205e+04 6.979e-10
 75.41225    126.2 1.217e+04 7.500e-10
 75.44381    127.4 1.228e+04 7.870e-10
 75.45959    126.6 1.227e+04 7.697e-10
 75.47043    126.0 1.161e+04 5.051e-10
 75.49705    127.3 1.166e+04 5.325e-10
 75.53728    128.3 1.174e+04 5.772e-10
 75.55848    127.8 1.167e+04 5.727e-10
 75.58184    128.9 1.182e+04 6.528e-10
 75.62424    129.2 1.197e+04 7.518e-10
 75.65195    129.2 1.207e+04 8.755e-10
 75.67315    129.3 1.217e+04 9.934e-10
 75.69834    129.1 1.215e+04 9.971e-10
 75.70909    129.0 1.217e+04 1.020e-09
 75.71969    129.1 1.233e+04 1.128e-09
 75.73626    128.8 1.237e+04 1.144e-09
 75.74686    128.9 1.233e+04 1.116e-09
 75.75583    128.4 1.233e+04 1.116e-09
 75.76643    128.5 1.263e+04 1.306e-09
 75.78304    127.9 1.261e+04 1.294e-09
 75.80257    127.3 1.253e+04 1.239e-09
 75.81316    127.3 1.286e+04 1.471e-09
 75.82544    126.7 1.258e+04 1.295e-09
 75.84664    126.2 1.220e+04 1.072e-09
 75.85990    125.7 1.179e+04 8.525e-10
 75.87050    126.1 1.192e+04 9.305e-10
 75.88904    125.7 1.148e+04 7.045e-10
 75.90664    125.0 1.111e+04 5.432e-10
 75.91724    125.1 1.116e+04 5.464e-10
 75.93144    124.5 1.106e+04 4.908e-10
 75.95347    123.3 1.079e+04 4.346e-10
 75.97477    125.2 1.069e+04 4.431e-10
 76.00247    125.5 1.065e+04 4.437e-10
 76.02367    125.3 1.080e+04 4.837e-10
 76.04704    125.3 1.090e+04 4.997e-10
 76.06824    128.2 1.133e+04 6.190e-10
 76.07993    126.9 1.159e+04 6.573e-10
 76.10103    125.8 1.178e+04 7.135e-10
 76.11478    124.0 1.210e+04 8.429e-10
 76.12538    124.4 1.235e+04 1.002e-09
 76.14343    121.1 1.377e+04 1.793e-09
 76.16152    117.5 1.521e+04 3.323e-09
 76.17212    117.5 1.630e+04 4.998e-09
 76.18583    113.7 1.749e+04 7.010e-09
 76.20703    109.4 1.788e+04 7.142e-09
 76.21885    104.8 1.785e+04 6.636e-09
 76.22945    103.6 1.918e+04 8.216e-09
 76.24943     98.7 1.848e+04 5.620e-09
 76.26559     94.1 1.685e+04 3.140e-09
 76.27619     91.6 1.780e+04 3.419e-09
 76.28950     86.5 1.471e+04 1.607e-09
 76.30010     85.5 1.502e+04 1.900e-09
 76.31233     81.4 1.250e+04 1.082e-09
 76.32293     78.1 1.221e+04 1.034e-09
 76.33423     74.7 1.065e+04 6.103e-10
 76.35543     72.5 1.051e+04 4.311e-10
 76.36966     70.7 1.063e+04 3.363e-10
 76.39096     67.3 1.035e+04 2.736e-10
 76.42982     67.2 9.875e+03 2.539e-10
 76.46333     66.5 9.734e+03 2.567e-10
 76.48453     61.8 9.867e+03 2.643e-10
 76.51462     60.7 1.032e+04 3.304e-10
 76.55571     59.5 1.096e+04 4.712e-10
 76.57670     59.5 1.090e+04 4.866e-10
 76.57800     54.6 1.117e+04 5.960e-10
 76.59942     53.6 1.148e+04 7.325e-10
 76.64181     52.8 1.195e+04 9.168e-10
 76.67148     52.8 1.239e+04 1.113e-09
 76.68198     49.8 1.190e+04 9.175e-10
 76.69462     49.6 1.200e+04 9.570e-10
 76.71582     48.8 1.183e+04 8.693e-10
 76.72862     48.0 1.148e+04 7.209e-10
 76.73922     45.6 1.062e+04 4.356e-10
 76.75822     44.8 1.017e+04 3.642e-10
 76.77535     44.3 9.914e+03 3.399e-10
 76.78595     43.0 9.761e+03 2.899e-10
 76.80062     43.0 9.771e+03 3.074e-10
 76.82181     42.8 9.930e+03 3.634e-10
 76.83269     42.5 1.019e+04 4.465e-10
 76.84301     41.2 1.037e+04 4.553e-10
 76.85333     41.7 1.031e+04 4.301e-10
 76.86421     40.8 1.097e+04 6.029e-10
 76.87943     39.8 1.160e+04 8.726e-10
 76.89002     38.3 1.192e+04 1.140e-09
 76.90661     37.8 1.237e+04 1.579e-09
 76.92616     37.3 1.275e+04 2.007e-09
 76.93676     36.6 1.286e+04 2.244e-09
 76.94901     36.0 1.319e+04 2.479e-09
 76.97021     34.6 1.353e+04 2.647e-09
 76.98350     32.4 1.398e+04 2.846e-09
 76.99410     31.2 1.398e+04 2.827e-09
 77.01261     27.8 1.444e+04 3.162e-09
 77.03023     24.0 1.495e+04 3.827e-09
 77.04083     23.4 1.471e+04 3.757e-09
 77.05501     20.0 1.536e+04 4.756e-09
 77.07621     16.5 1.631e+04 6.140e-09
 77.08757     12.8 1.731e+04 7.542e-09
 77.09817     12.4 1.699e+04 6.622e-09
 77.11861      8.4 1.727e+04 6.962e-09
 77.12995      4.1 1.730e+04 7.132e-09
 77.13505      2.8 1.579e+04 4.914e-09
 77.14491      2.2 1.551e+04 4.778e-09
 77.16101     -3.3 1.703e+04 6.935e-09
 77.18104     -8.1 1.932e+04 1.037e-08
 77.19164     -8.9 1.982e+04 1.155e-08
 77.19806    -12.2 2.137e+04 1.700e-08
 77.20861    -15.5 2.228e+04 3.320e-08
 77.21491    -17.1 2.256e+04 7.722e-08
 77.22021    -17.8 2.225e+04 8.731e-08
 77.22981    -19.0 2.262e+04 1.378e-07
 77.23828    -20.9 2.263e+04 1.407e-07
 77.24358    -20.8 2.229e+04 1.217e-07
 77.25101    -21.7 2.240e+04 9.347e-08
 77.26161    -22.9 2.252e+04 5.206e-08
 77.26817    -25.3 2.189e+04 2.136e-08
 77.27347    -25.2 2.203e+04 2.260e-08
 77.28507    -28.3 2.058e+04 1.334e-08
 77.29571    -28.4 1.960e+04 1.057e-08
 77.30940    -32.3 1.685e+04 5.530e-09
 77.33060    -35.7 1.432e+04 3.230e-09
 77.34245    -37.9 1.297e+04 2.222e-09
 77.35305    -37.3 1.299e+04 2.213e-09
 77.37300    -38.3 1.287e+04 1.912e-09
 77.38919    -39.0 1.282e+04 1.906e-09
 77.39979    -38.3 1.292e+04 1.954e-09
 77.40657    -39.2 1.300e+04 2.069e-09
 77.41717    -39.0 1.286e+04 1.967e-09
 77.43592    -39.6 1.310e+04 2.260e-09
 77.44652    -39.0 1.313e+04 2.270e-09
 77.45780    -39.3 1.342e+04 2.626e-09
 77.47900    -39.5 1.351e+04 2.747e-09
 77.49326    -39.7 1.342e+04 2.641e-09
 77.50386    -39.2 1.355e+04 2.739e-09
 77.52140    -39.4 1.335e+04 2.461e-09
 77.54000    -40.1 1.307e+04 2.105e-09
 77.55060    -39.6 1.325e+04 2.263e-09
 77.56379    -40.8 1.301e+04 1.891e-09
 77.58499    -42.0 1.266e+04 1.538e-09
 77.59743    -44.3 1.213e+04 1.221e-09
 77.61873    -43.4 1.234e+04 1.268e-09
 77.65939    -44.8 1.186e+04 1.039e-09
 77.68339    -45.8 1.179e+04 1.021e-09
 77.69380    -44.5 1.199e+04 1.034e-09
 77.71210    -44.5 1.209e+04 1.050e-09
 77.73339    -44.5 1.209e+04 1.061e-09
 77.74814    -45.2 1.230e+04 1.153e-09
 77.75874    -45.0 1.279e+04 1.306e-09
 77.77579    -48.3 1.509e+04 2.398e-09
 77.79488    -52.0 1.836e+04 6.148e-09
 77.80548    -52.9 2.035e+04 9.443e-09
 77.81284    -54.6 2.100e+04 1.446e-08
 77.82140    -54.7 2.163e+04 2.040e-08
 77.82670    -53.3 2.165e+04 2.135e-08
 77.82875    -53.3 2.218e+04 3.031e-08
 77.83405    -53.2 2.270e+04 3.816e-08
 77.84459    -53.0 2.358e+04 5.785e-08
 77.85212    -54.6 2.396e+04 6.337e-08
 77.85742    -55.5 2.392e+04 7.124e-08
 77.86579    -57.2 2.319e+04 6.447e-08
 77.87548    -57.7 2.210e+04 4.766e-08
 77.88078    -59.0 2.305e+04 6.147e-08
 77.88699    -60.3 2.399e+04 4.082e-08
 77.89759    -62.5 2.559e+04 2.133e-08
 77.90415    -64.6 2.745e+04 1.291e-08
 77.90945    -68.4 3.069e+04 2.085e-08
 77.91879    -70.9 3.180e+04 1.277e-08
 77.92752    -73.2 3.148e+04 9.350e-09
 77.93282    -78.0 3.177e+04 1.881e-08
 77.93999    -78.9 3.175e+04 1.274e-08
 77.95059    -79.9 3.172e+04 9.448e-09
 77.95619    -80.0 3.083e+04 7.172e-09
 77.96001    -84.6 3.154e+04 1.350e-08
 77.96501    -84.3 2.585e+04 1.548e-07
 77.97179    -84.4 2.702e+04 1.001e-07
 77.97956    -85.0 2.894e+04 5.693e-08
 77.98486    -89.7 2.661e+04 1.113e-07
 77.99299    -91.6 2.814e+04 7.393e-08
 78.00292    -94.2 2.800e+04 6.648e-08
 78.00822    -97.0 2.536e+04 1.109e-07
 78.01419    -98.0 2.428e+04 1.226e-07
 78.02478    -98.6 2.325e+04 1.647e-07
 78.03159    -98.8 2.276e+04 2.367e-07
 78.03689    -99.7 2.259e+04 2.465e-07
 78.04598   -100.3 2.235e+04 2.714e-07
 78.05496    -99.9 2.201e+04 2.423e-07
 78.06026    -99.7 2.173e+04 1.719e-07
 78.06718    -98.4 2.142e+04 1.284e-07
 78.07778    -96.8 2.144e+04 9.996e-08
 78.08363    -95.1 2.164e+04 8.393e-08
 78.08893    -95.0 2.183e+04 4.056e-08
 78.09802    -94.0 2.267e+04 3.217e-08
 78.10332    -95.4 2.494e+04 1.668e-08
 78.10700    -95.0 2.619e+04 1.090e-08
 78.11230    -98.2 2.584e+04 3.632e-09
 78.12018    -99.2 2.584e+04 2.479e-09
 78.13036    -99.7 2.373e+04 1.665e-09
 78.13566   -101.7 1.995e+04 9.922e-10
 78.14138   -102.1 1.911e+04 9.604e-10
 78.15198   -101.3 1.718e+04 9.324e-10
 78.15903   -101.3 1.705e+04 9.426e-10
 78.16438   -101.7 1.684e+04 7.402e-10
 78.17858   -100.9 1.544e+04 6.742e-10
 78.19978   -100.3 1.461e+04 6.549e-10
 78.21117    -99.4 1.389e+04 6.281e-10
 78.22177   -100.4 1.234e+04 3.845e-10
 78.23643    -99.4 1.232e+04 4.103e-10
 78.24703   -100.1 1.224e+04 4.738e-10
 78.25790    -98.9 1.221e+04 5.073e-10
 78.26850    -98.7 1.198e+04 4.017e-10
 78.28458    -97.4 1.192e+04 4.265e-10
 78.30464    -96.3 1.189e+04 4.497e-10
 78.31524    -95.9 1.176e+04 3.758e-10
 78.32697    -95.1 1.178e+04 3.937e-10
 78.34817    -94.4 1.183e+04 4.173e-10
 78.36197    -94.3 1.191e+04 4.641e-10
 78.37257    -94.2 1.193e+04 4.261e-10
 78.39057    -94.5 1.218e+04 5.372e-10
 78.40871    -95.4 1.261e+04 7.669e-10
 78.41931    -95.4 1.259e+04 7.547e-10
 78.43297    -96.8 1.333e+04 1.215e-09
 78.45417    -98.2 1.433e+04 2.095e-09
 78.46605    -98.6 1.507e+04 3.585e-09
 78.47665    -98.3 1.462e+04 2.883e-09
 78.49657    -98.1 1.454e+04 3.204e-09
 78.51278    -97.7 1.416e+04 2.950e-09
 78.51866    -97.9 1.357e+04 2.226e-09
 78.52365    -97.4 1.343e+04 2.210e-09
 78.53897    -97.0 1.271e+04 1.550e-09
 78.55952    -97.4 1.214e+04 9.879e-10
 78.57012    -97.8 1.189e+04 8.337e-10
 78.58137    -98.3 1.140e+04 5.105e-10
 78.60257    -99.6 1.110e+04 3.478e-10
 78.61686    -99.9 1.065e+04 3.018e-10
 78.63815    -99.8 1.059e+04 2.763e-10
 78.67696    -98.7 1.022e+04 2.554e-10
 78.71052    -96.9 1.023e+04 2.742e-10
 78.73172    -96.5 1.007e+04 2.199e-10
 78.76176    -94.7 1.009e+04 2.312e-10
 78.78987    -92.7 1.014e+04 2.406e-10
 78.81090    -91.9 9.994e+03 2.100e-10
 78.84640    -89.9 9.931e+03 1.705e-10
 78.88895    -88.0 9.938e+03 1.703e-10
 78.91867    -86.0 9.932e+03 1.697e-10
 78.93987    -85.8 9.742e+03 1.301e-10
 78.97375    -84.0 9.744e+03 1.306e-10
 79.01214    -82.2 9.838e+03 1.394e-10
 79.03334    -81.9 9.604e+03 1.065e-10
 79.05855    -80.4 9.739e+03 1.181e-10
 79.10095    -78.9 9.906e+03 1.386e-10
 79.12681    -77.8 1.012e+04 1.806e-10
 79.14801    -77.8 9.810e+03 1.383e-10
 79.18575    -77.1 1.028e+04 2.175e-10
 79.22029    -77.4 1.081e+04 3.393e-10
 79.24149    -77.3 1.058e+04 2.927e-10
 79.27054    -77.5 1.087e+04 4.149e-10
 79.31294    -77.4 1.097e+04 4.284e-10
 79.33496    -77.8 1.104e+04 3.799e-10
 79.34392    -77.4 1.097e+04 3.527e-10
 79.36430    -77.1 1.085e+04 3.335e-10
 79.39774    -77.7 1.093e+04 2.895e-10
 79.42843    -78.7 1.096e+04 2.732e-10
 79.44963    -78.0 1.083e+04 2.627e-10
 79.48254    -78.9 1.088e+04 2.668e-10
 79.52190    -79.7 1.103e+04 2.851e-10
 79.54310    -79.1 1.089e+04 2.608e-10
 79.56734    -79.5 1.111e+04 2.824e-10
 79.58974    -79.7 1.116e+04 2.932e-10
 79.60024    -79.5 1.117e+04 2.880e-10
 79.61953    -79.6 1.119e+04 2.908e-10
 79.63013    -79.5 1.120e+04 2.942e-10
 79.63638    -80.5 1.136e+04 3.333e-10
 79.64698    -79.9 1.129e+04 3.156e-10
 79.66254    -81.2 1.153e+04 3.920e-10
 79.68312    -82.7 1.216e+04 5.740e-10
 79.69372    -81.7 1.179e+04 4.901e-10
 79.70494    -83.5 1.281e+04 8.004e-10
 79.72614    -85.5 1.409e+04 1.548e-09
 79.74045    -87.1 1.490e+04 2.838e-09
 79.75105    -85.8 1.443e+04 1.982e-09
 79.76854    -86.8 1.474e+04 3.065e-09
 79.78719    -87.4 1.470e+04 3.498e-09
 79.79779    -86.6 1.455e+04 3.179e-09
 79.81093    -86.7 1.437e+04 3.105e-09
 79.83213    -86.8 1.412e+04 2.686e-09
 79.84462    -88.2 1.362e+04 1.359e-09
 79.86592    -85.8 1.373e+04 1.862e-09
 79.89634    -86.5 1.310e+04 8.935e-10
 79.91754    -86.7 1.287e+04 8.322e-10
 79.93819    -87.1 1.213e+04 4.194e-10
 79.95939    -84.6 1.254e+04 7.519e-10
 79.99133    -84.1 1.220e+04 5.725e-10
 80.03167    -82.8 1.220e+04 5.644e-10
 80.05286    -80.6 1.271e+04 9.237e-10
 80.07612    -79.3 1.303e+04 1.039e-09
 80.11852    -78.1 1.320e+04 1.184e-09
 80.14624    -76.5 1.356e+04 1.493e-09
 80.15674    -75.3 1.402e+04 1.883e-09
 80.17133    -75.4 1.489e+04 2.484e-09
 80.18337    -76.7 1.625e+04 3.982e-09
 80.19397    -78.1 1.626e+04 4.196e-09
 80.20348    -79.3 1.743e+04 7.531e-09
 80.21408    -77.7 1.755e+04 7.772e-09
 80.23492    -78.8 1.889e+04 1.288e-08
 80.25021    -80.1 1.977e+04 1.767e-08
 80.26081    -78.5 1.989e+04 1.788e-08
 80.27732    -79.1 1.978e+04 1.748e-08
 80.29695    -79.0 1.904e+04 1.325e-08
 80.30755    -78.2 1.945e+04 1.446e-08
 80.31972    -78.7 1.903e+04 8.001e-09
 80.34092    -81.3 1.842e+04 3.390e-09
 80.35429    -86.7 1.616e+04 1.449e-09
 80.36489    -84.7 1.704e+04 1.395e-09
 80.38332    -91.7 1.282e+04 7.092e-10
 80.40102    -94.5 1.110e+04 5.406e-10
 80.41162    -94.5 1.109e+04 5.335e-10
 80.42572    -95.7 1.069e+04 5.153e-10
 80.44692    -96.4 1.051e+04 5.575e-10
 80.45836    -96.8 1.045e+04 5.734e-10
 80.46083    -96.1 1.033e+04 5.378e-10
 80.47059    -95.4 1.012e+04 4.328e-10
 80.48932    -95.1 1.005e+04 4.845e-10
 80.50510    -94.6 9.964e+03 4.954e-10
 80.51569    -93.9 9.877e+03 4.425e-10
 80.53172    -92.5 9.854e+03 4.178e-10
 80.55183    -92.3 9.851e+03 4.146e-10
 80.56253    -91.6 9.848e+03 3.881e-10
 80.58491    -90.6 9.868e+03 3.349e-10
 80.60927    -91.1 9.930e+03 3.223e-10
 80.61977    -90.3 9.921e+03 3.206e-10
 80.63771    -91.1 1.018e+04 3.363e-10
 80.65590    -94.3 1.134e+04 5.178e-10
 80.66650    -93.2 1.124e+04 5.049e-10
 80.68011    -95.4 1.165e+04 7.284e-10
 80.70131    -95.7 1.128e+04 1.054e-09
 80.71324    -94.5 1.110e+04 1.293e-09
 80.72384    -93.6 1.115e+04 1.243e-09
 80.73661    -93.8 1.146e+04 9.859e-10
 80.74721    -94.1 1.147e+04 1.013e-09
 80.75998    -94.3 1.141e+04 9.774e-10
 80.77058    -93.7 1.140e+04 1.009e-09
 80.79681    -94.9 1.131e+04 6.074e-10
 80.83930    -97.9 1.066e+04 4.992e-10
 80.86424   -100.1 1.127e+04 7.270e-10
 80.88544    -99.9 1.124e+04 7.230e-10
 80.91088   -100.5 1.198e+04 1.169e-09
 80.92138   -100.4 1.189e+04 1.143e-09
 80.93451   -100.9 1.251e+04 1.495e-09
 80.95570   -101.3 1.316e+04 2.299e-09
 80.96812   -101.6 1.413e+04 3.135e-09
 80.97872   -101.2 1.400e+04 2.832e-09
 80.99810   -102.1 1.529e+04 3.663e-09
 81.01323   -104.2 1.603e+04 4.333e-09
 81.01938   -106.2 1.538e+04 3.221e-09
 81.02546   -106.7 1.551e+04 2.893e-09
 81.04050   -109.6 1.508e+04 3.722e-09
 81.06159   -110.8 1.483e+04 4.384e-09
 81.07219   -111.1 1.499e+04 4.716e-09
 81.08290   -110.8 1.519e+04 5.363e-09
 81.10410   -110.3 1.537e+04 4.226e-09
 81.11893   -111.5 1.499e+04 1.855e-09
 81.12953   -109.5 1.533e+04 2.493e-09
 81.14650   -115.5 1.280e+04 9.205e-10
 81.16576   -119.8 1.186e+04 7.091e-10
 81.17636   -117.9 1.300e+04 8.647e-10
 81.18890   -121.2 1.139e+04 6.552e-10
 81.21010   -120.6 1.071e+04 6.804e-10
 81.22300   -121.7 9.837e+03 6.636e-10
 81.23360   -120.2 1.239e+04 9.477e-10
 81.25924   -123.3 1.063e+04 7.195e-10
 81.28044   -121.7 1.070e+04 8.549e-10
 81.30559   -122.6 1.157e+04 9.269e-10
 81.34809   -122.2 1.132e+04 6.971e-10
 81.37401   -122.2 1.044e+04 3.740e-10
 81.39521   -120.8 1.223e+04 9.096e-10
 81.43289   -120.7 1.126e+04 4.985e-10
 81.46748   -121.1 1.003e+04 3.331e-10
 81.48868   -118.0 1.237e+04 6.906e-10
 81.51768   -117.8 1.119e+04 4.751e-10
 81.55606   -117.2 1.021e+04 4.110e-10
 81.57726   -117.3 9.819e+03 3.900e-10
 81.58215   -115.6 8.996e+03 3.349e-10
 81.60335   -111.2 1.106e+04 5.200e-10
 81.64488   -108.5 9.335e+03 3.755e-10
 81.67562   -105.8 9.563e+03 1.999e-10
 81.69682    -99.7 1.071e+04 5.026e-10
 81.72968    -96.1 1.014e+04 2.301e-10
 81.76910    -94.0 9.985e+03 1.705e-10
 81.79020    -85.6 9.330e+03 2.500e-10
 81.80368    -86.8 7.313e+03 3.531e-10
 81.82488    -86.2 1.323e+04 3.197e-10
 81.83684    -83.3 1.061e+04 6.005e-10
 81.84444    -84.2 1.274e+04 7.356e-10
 81.85368    -86.5 1.833e+04 5.122e-10
 81.86016   -106.1 1.244e+05 3.697e-11
 81.86541   -105.6 1.053e+05 5.560e-11
 81.87248   -124.1 1.090e+05 7.541e-10
 81.88308   -123.4 1.512e+05 8.109e-10
 81.88877   -122.4 8.701e+04 1.431e-08
 81.89407   -121.2 7.826e+04 1.883e-08
 81.90043   -119.0 7.049e+04 5.453e-08
 81.90306   -127.0 5.860e+04 1.071e-07
 81.90688   -137.1 3.793e+04 1.094e-06
 81.91209   -159.7 2.278e+04 9.035e-06
 81.91474   -180.0 2.425e+04 4.766e-06
 81.91739   -208.5 2.566e+04 2.064e-06
 81.92004   -199.8 1.987e+04 7.880e-06
 81.92278   -224.5 3.189e+04 3.707e-07
 81.92643   -242.4 5.285e+04 1.804e-08
 81.92908   -244.0 5.638e+04 1.073e-08
 81.93338   -247.8 6.173e+04 5.845e-09
 81.93811   -249.1 6.497e+04 4.630e-09
 81.94079   -249.2 5.847e+04 4.860e-09
 81.94668   -263.8 4.063e+04 1.518e-09
 81.95728   -271.8 2.272e+04 1.132e-09
 81.97323   -272.5 1.495e+04 1.018e-09
 81.98764   -268.2 1.268e+04 8.961e-10
 81.99824   -263.6 1.199e+04 8.145e-10
 82.01568   -259.8 1.172e+04 7.496e-10
 82.03438   -256.8 1.171e+04 7.187e-10
 82.04498   -255.5 1.164e+04 7.014e-10
 82.05808   -253.3 1.164e+04 6.927e-10
 82.07927   -251.6 1.165e+04 6.946e-10
 82.09172   -250.6 1.175e+04 7.223e-10
 82.10232   -250.0 1.177e+04 7.260e-10
 82.11970   -249.3 1.225e+04 8.881e-10
 82.13030   -248.9 1.202e+04 8.214e-10
 82.13845   -248.3 1.252e+04 1.086e-09
 82.14905   -247.9 1.289e+04 1.221e-09
 82.16407   -247.4 1.324e+04 1.563e-09
 82.18519   -247.1 1.358e+04 2.029e-09
 82.20639   -247.3 1.397e+04 2.502e-09
 82.22767   -248.6 1.489e+04 3.315e-09
 82.24253   -250.8 1.698e+04 5.296e-09
 82.25313   -250.8 1.606e+04 4.089e-09
 82.27007   -253.5 1.836e+04 7.156e-09
 82.28926   -255.8 2.023e+04 1.248e-08
 82.29986   -255.6 1.877e+04 8.383e-09
 82.31247   -257.8 1.967e+04 1.118e-08
 82.32318   -258.7 2.017e+04 1.303e-08
 82.32843   -258.7 1.934e+04 1.037e-08
 82.33887   -259.2 1.945e+04 1.061e-08
 82.34650   -260.2 1.945e+04 1.067e-08
 82.35180   -259.8 1.849e+04 8.239e-09
 82.36007   -260.2 1.852e+04 7.936e-09
 82.36987   -261.1 1.809e+04 6.477e-09
 82.37517   -260.8 1.726e+04 5.089e-09
 82.38127   -261.6 1.695e+04 4.396e-09
 82.39329   -263.7 1.633e+04 3.715e-09
 82.40299   -263.1 1.549e+04 2.862e-09
 82.40692   -261.2 1.618e+04 3.495e-09
 82.41847   -263.0 1.500e+04 2.531e-09
 82.43966   -264.0 1.345e+04 1.878e-09
 82.45067   -263.8 1.253e+04 1.597e-09
 82.46127   -262.7 1.200e+04 1.198e-09
 82.48206   -262.1 1.174e+04 1.150e-09
 82.49741   -261.4 1.160e+04 1.115e-09
 82.50801   -260.4 1.131e+04 9.151e-10
 82.52446   -259.4 1.122e+04 9.119e-10
 82.54414   -257.9 1.113e+04 9.156e-10
 82.55474   -257.3 1.092e+04 8.032e-10
 82.56686   -255.9 1.098e+04 8.307e-10
 82.58806   -254.5 1.107e+04 8.370e-10
 82.60148   -253.0 1.104e+04 7.924e-10
 82.61208   -252.5 1.101e+04 8.036e-10
 82.63046   -251.1 1.100e+04 7.739e-10
 82.64822   -249.7 1.099e+04 7.142e-10
 82.65882   -249.3 1.100e+04 7.598e-10
 82.67286   -248.0 1.098e+04 6.964e-10
 82.69406   -246.6 1.094e+04 6.571e-10
 82.70555   -245.7 1.071e+04 5.556e-10
 82.71615   -245.0 1.085e+04 6.108e-10
 82.73646   -244.0 1.061e+04 5.135e-10
 82.75229   -243.1 1.041e+04 4.527e-10
 82.76289   -242.7 1.051e+04 4.687e-10
 82.78852   -242.0 1.032e+04 4.091e-10
 82.80982   -240.9 1.044e+04 4.168e-10
 82.83205   -238.7 1.012e+04 3.431e-10
 82.87445   -236.5 9.934e+03 3.049e-10
 82.90329   -234.3 9.905e+03 2.974e-10
 82.92449   -233.8 9.967e+03 3.083e-10
 82.95925   -231.6 9.977e+03 3.077e-10
 82.99676   -229.7 1.016e+04 3.205e-10
 83.01796   -229.1 1.012e+04 3.240e-10
 83.04404   -227.4 1.030e+04 3.378e-10
 83.08644   -225.9 1.042e+04 3.510e-10
 83.11144   -224.4 1.048e+04 3.596e-10
 83.13264   -223.6 1.048e+04 3.633e-10
 83.17124   -222.0 1.055e+04 3.734e-10
 83.20491   -220.5 1.064e+04 3.838e-10
 83.22611   -219.6 1.063e+04 3.864e-10
 83.23698   -218.2 1.073e+04 4.025e-10
 83.25818   -217.4 1.083e+04 4.300e-10
 83.29838   -216.2 1.095e+04 4.488e-10
 83.34078   -214.0 1.107e+04 4.745e-10
 83.38324   -213.1 1.117e+04 5.019e-10
 83.41305   -212.5 1.121e+04 5.168e-10
 83.43425   -211.0 1.120e+04 5.063e-10
 83.46803   -210.5 1.121e+04 5.117e-10
 83.50653   -209.9 1.113e+04 4.782e-10
 83.52773   -208.2 1.120e+04 5.040e-10
 83.55283   -207.6 1.104e+04 4.198e-10
 83.59523   -206.7 1.082e+04 3.016e-10
 83.62120   -205.6 1.061e+04 2.067e-10
 83.64240   -204.3 1.079e+04 2.588e-10
 83.68003   -203.4 1.070e+04 1.926e-10
 83.71467   -202.7 1.073e+04 1.677e-10
 83.73587   -201.6 1.093e+04 2.143e-10
 83.76482   -201.1 1.095e+04 2.088e-10
 83.79021   -200.9 1.102e+04 2.102e-10
 83.81141   -201.8 1.120e+04 2.543e-10
 83.82934   -201.7 1.120e+04 2.659e-10
 83.85054   -200.6 1.135e+04 3.357e-10
 83.89202   -200.4 1.126e+04 3.230e-10
 83.92282   -200.3 1.109e+04 2.956e-10
 83.94402   -198.8 1.124e+04 3.503e-10
 83.97682   -198.8 1.099e+04 2.977e-10
 84.01629   -199.1 1.090e+04 2.755e-10
 84.03749   -197.6 1.100e+04 2.972e-10
 84.06162   -198.0 1.095e+04 2.868e-10
 84.10402   -198.2 1.097e+04 3.210e-10
 84.13096   -198.3 1.107e+04 3.934e-10
 84.15216   -196.9 1.110e+04 3.907e-10
 84.18881   -196.7 1.118e+04 4.621e-10
 84.22052   -196.1 1.111e+04 5.063e-10
 84.23484   -196.0 1.105e+04 5.158e-10
 84.24544   -195.3 1.109e+04 5.218e-10
 84.26282   -195.1 1.102e+04 5.326e-10
 84.28157   -194.9 1.101e+04 5.411e-10
 84.29217   -194.2 1.103e+04 5.533e-10
 84.30522   -194.1 1.109e+04 5.682e-10
 84.32641   -194.1 1.121e+04 5.809e-10
 84.33901   -194.4 1.132e+04 5.964e-10
 84.34525   -193.5 1.126e+04 6.091e-10
 84.36456   -194.6 1.097e+04 4.819e-10
 84.40081   -194.7 1.114e+04 5.022e-10
 84.43258   -195.7 1.120e+04 5.882e-10
 84.45378   -194.4 1.141e+04 6.910e-10
 84.48561   -195.2 1.148e+04 8.298e-10
 84.52605   -195.8 1.149e+04 9.409e-10
 84.54725   -195.1 1.193e+04 1.158e-09
 84.57040   -195.9 1.188e+04 1.178e-09
 84.61280   -196.4 1.163e+04 1.125e-09
 84.64062   -196.8 1.149e+04 1.048e-09
 84.65113   -197.1 1.184e+04 1.231e-09
 84.66561   -197.4 1.155e+04 1.080e-09
 84.68680   -198.0 1.133e+04 9.705e-10
 84.69786   -198.3 1.133e+04 9.610e-10
 84.70846   -199.0 1.151e+04 1.043e-09
 84.72920   -199.6 1.155e+04 1.041e-09
 84.74460   -201.1 1.213e+04 1.128e-09
 84.75520   -202.0 1.203e+04 1.123e-09
 84.77160   -203.9 1.262e+04 1.401e-09
 84.79134   -205.7 1.309e+04 1.903e-09
 84.80194   -206.3 1.280e+04 1.643e-09
 84.81400   -207.7 1.320e+04 2.169e-09
 84.83520   -208.9 1.347e+04 2.641e-09
 84.84867   -210.0 1.355e+04 2.819e-09
 84.85927   -210.4 1.321e+04 2.506e-09
 84.87760   -211.1 1.320e+04 2.564e-09
 84.89541   -211.5 1.315e+04 2.467e-09
 84.90371   -211.2 1.283e+04 2.291e-09
 84.90710   -210.4 1.244e+04 1.805e-09
 84.92000   -210.7 1.243e+04 1.751e-09
 84.94120   -211.1 1.242e+04 1.686e-09
 84.95274   -211.6 1.246e+04 1.678e-09
 84.96334   -210.8 1.226e+04 1.654e-09
 84.98360   -211.1 1.246e+04 1.660e-09
 84.99948   -211.6 1.273e+04 1.811e-09
 85.01008   -210.5 1.238e+04 1.568e-09
 85.02600   -211.0 1.271e+04 1.770e-09
 85.04622   -211.4 1.288e+04 2.051e-09
 85.05682   -210.3 1.258e+04 1.659e-09
 85.06839   -210.7 1.284e+04 2.030e-09
 85.08959   -210.9 1.297e+04 2.366e-09
 85.10355   -210.8 1.310e+04 2.522e-09
 85.11415   -210.1 1.324e+04 2.667e-09
 85.13199   -210.0 1.360e+04 2.954e-09
 85.15029   -210.2 1.373e+04 2.980e-09
 85.16089   -209.4 1.424e+04 3.624e-09
 85.17312   -209.8 1.439e+04 3.580e-09
 85.18372   -210.1 1.489e+04 4.354e-09
 85.19559   -210.8 1.484e+04 3.811e-09
 85.20762   -212.1 1.435e+04 2.713e-09
 85.21822   -210.7 1.537e+04 4.174e-09
 85.23799   -212.3 1.457e+04 2.754e-09
 85.25436   -214.6 1.322e+04 1.785e-09
 85.26496   -212.8 1.464e+04 2.709e-09
 85.28039   -215.4 1.298e+04 1.737e-09
 85.30110   -217.6 1.185e+04 1.409e-09
 85.31170   -216.2 1.259e+04 1.671e-09
 85.32279   -218.3 1.181e+04 1.454e-09
 85.34399   -219.8 1.172e+04 1.424e-09
 85.35843   -221.3 1.200e+04 1.501e-09
 85.36903   -221.2 1.206e+04 1.553e-09
 85.38639   -223.2 1.269e+04 1.807e-09
 85.40517   -225.3 1.317e+04 2.132e-09
 85.41577   -225.2 1.331e+04 2.258e-09
 85.42879   -227.0 1.342e+04 2.448e-09
 85.44974   -228.3 1.338e+04 2.478e-09
 85.46034   -229.3 1.359e+04 3.105e-09
 85.46251   -230.0 1.295e+04 2.440e-09
 85.47311   -229.8 1.286e+04 2.320e-09
 85.49238   -230.4 1.219e+04 1.652e-09
 85.50924   -231.1 1.158e+04 1.152e-09
 85.51984   -230.9 1.148e+04 1.082e-09
 85.53478   -231.5 1.095e+04 7.804e-10
 85.55598   -232.0 1.053e+04 5.959e-10
 85.57718   -231.6 1.019e+04 4.777e-10
 85.59838   -231.0 1.000e+04 4.046e-10
 85.63028   -230.0 9.923e+03 3.582e-10
 85.66025   -229.4 9.931e+03 3.403e-10
 85.68145   -228.5 1.001e+04 3.558e-10
 85.71517   -227.5 1.001e+04 3.348e-10
 85.75372   -226.2 1.006e+04 3.201e-10
 85.77492   -225.1 1.008e+04 3.264e-10
 85.79997   -223.9 1.014e+04 3.147e-10
 85.84237   -222.3 1.020e+04 3.123e-10
 85.86839   -220.8 1.051e+04 3.197e-10
 85.88959   -219.7 1.042e+04 3.131e-10
 85.92717   -218.1 1.085e+04 3.944e-10
 85.95887   -216.3 1.110e+04 5.345e-10
 85.97227   -215.9 1.114e+04 5.791e-10
 85.98297   -215.4 1.127e+04 6.113e-10
 86.00127   -214.3 1.140e+04 7.741e-10
 86.01357   -213.5 1.147e+04 8.726e-10
 86.02427   -212.6 1.131e+04 6.739e-10
 86.05436   -211.0 1.167e+04 8.279e-10
 86.07654   -209.9 1.178e+04 8.948e-10
 86.09774   -208.6 1.212e+04 1.012e-09
 86.13916   -207.7 1.217e+04 1.074e-09
 86.16991   -207.0 1.215e+04 1.078e-09
 86.18041   -206.4 1.242e+04 1.162e-09
 86.19196   -206.6 1.229e+04 1.119e-09
 86.21316   -206.7 1.206e+04 1.078e-09
 86.22715   -206.8 1.198e+04 1.051e-09
 86.23775   -206.5 1.232e+04 1.238e-09
 86.25556   -206.6 1.225e+04 1.227e-09
 86.27389   -206.8 1.210e+04 1.196e-09
 86.28448   -206.5 1.249e+04 1.444e-09
 86.29019   -206.8 1.236e+04 1.393e-09
 86.30079   -206.6 1.243e+04 1.590e-09
 86.31916   -207.0 1.222e+04 1.438e-09
 86.33122   -207.4 1.200e+04 1.271e-09
 86.34182   -207.6 1.221e+04 1.450e-09
 86.36156   -207.9 1.195e+04 1.278e-09
 86.37806   -208.4 1.191e+04 1.200e-09
 86.38865   -208.6 1.201e+04 1.405e-09
 86.40396   -208.8 1.199e+04 1.367e-09
 86.42469   -208.9 1.208e+04 1.356e-09
 86.43529   -209.3 1.243e+04 1.633e-09
 86.44636   -209.5 1.244e+04 1.574e-09
 86.46756   -209.8 1.248e+04 1.523e-09
 86.48203   -209.9 1.245e+04 1.458e-09
 86.49263   -210.2 1.287e+04 1.642e-09
 86.50996   -210.3 1.275e+04 1.519e-09
 86.52877   -210.3 1.263e+04 1.429e-09
 86.53937   -211.0 1.328e+04 1.811e-09
 86.55236   -210.8 1.312e+04 1.681e-09
 86.56681   -210.5 1.299e+04 1.588e-09
 86.57741   -210.5 1.264e+04 1.349e-09
 86.58610   -210.2 1.262e+04 1.323e-09
 86.59670   -210.5 1.299e+04 1.710e-09
 86.61595   -209.9 1.294e+04 1.661e-09
 86.63284   -209.3 1.295e+04 1.652e-09
 86.64344   -209.4 1.341e+04 2.214e-09
 86.65835   -208.7 1.341e+04 2.195e-09
 86.67955   -208.0 1.351e+04 2.265e-09
 86.70075   -207.1 1.383e+04 2.697e-09
 86.72195   -206.3 1.392e+04 2.721e-09
 86.73691   -205.3 1.399e+04 2.747e-09
 86.74751   -205.5 1.396e+04 2.755e-09
 86.76435   -204.7 1.404e+04 2.749e-09
 86.78365   -203.8 1.409e+04 2.756e-09
 86.79425   -204.1 1.394e+04 2.638e-09
 86.80675   -203.4 1.399e+04 2.640e-09
 86.82795   -203.0 1.406e+04 2.666e-09
 86.84098   -202.8 1.417e+04 2.747e-09
 86.84587   -202.9 1.394e+04 2.553e-09
 86.85403   -202.7 1.380e+04 2.497e-09
 86.87035   -202.7 1.404e+04 2.683e-09
 86.88772   -203.0 1.459e+04 3.063e-09
 86.89832   -202.4 1.402e+04 2.799e-09
 86.91275   -202.5 1.429e+04 2.842e-09
 86.93395   -202.8 1.480e+04 2.877e-09
 86.94506   -203.3 1.541e+04 3.139e-09
 86.95566   -201.9 1.408e+04 2.005e-09
 86.97634   -202.4 1.479e+04 1.948e-09
 86.99179   -202.9 1.513e+04 2.110e-09
 87.00239   -201.2 1.386e+04 1.158e-09
 87.01874   -201.3 1.398e+04 1.189e-09
 87.03853   -201.3 1.397e+04 1.286e-09
 87.04913   -199.9 1.322e+04 7.330e-10
 87.06114   -199.7 1.330e+04 8.280e-10
 87.08234   -199.4 1.316e+04 1.032e-09
 87.09586   -198.8 1.294e+04 1.297e-09
 87.10646   -197.7 1.276e+04 8.052e-10
 87.12005   -197.0 1.259e+04 1.038e-09
 87.13065   -196.8 1.257e+04 1.283e-09
 87.14260   -195.7 1.247e+04 1.383e-09
 87.15320   -194.9 1.232e+04 1.080e-09
 87.16714   -193.7 1.224e+04 1.209e-09
 87.18834   -192.5 1.222e+04 1.264e-09
 87.19994   -191.2 1.216e+04 1.152e-09
 87.21054   -190.6 1.214e+04 1.162e-09
 87.23074   -189.3 1.210e+04 1.081e-09
 87.24667   -188.1 1.206e+04 9.647e-10
 87.25727   -187.5 1.206e+04 1.015e-09
 87.27314   -186.3 1.201e+04 9.110e-10
 87.29341   -185.2 1.194e+04 7.438e-10
 87.30401   -184.6 1.198e+04 8.523e-10
 87.31553   -183.4 1.191e+04 7.009e-10
 87.33673   -182.5 1.186e+04 5.276e-10
 87.35075   -182.0 1.174e+04 3.819e-10
 87.36134   -181.3 1.193e+04 4.987e-10
 87.37913   -181.1 1.179e+04 3.716e-10
 87.39758   -181.3 1.147e+04 2.918e-10
 87.40818   -180.2 1.201e+04 3.851e-10
 87.42153   -180.3 1.198e+04 3.685e-10
 87.45343   -180.4 1.227e+04 4.607e-10
 87.49115   -180.6 1.218e+04 5.113e-10
 87.51225   -181.4 1.331e+04 9.655e-10
 87.53823   -182.2 1.351e+04 1.402e-09
 87.58072   -182.8 1.318e+04 1.551e-09
 87.60582   -182.8 1.296e+04 1.553e-09
 87.62702   -184.1 1.300e+04 1.561e-09
 87.66289   -183.9 1.250e+04 1.402e-09
 87.68409   -184.2 1.240e+04 1.387e-09
 87.69929   -183.8 1.196e+04 1.230e-09
 87.72049   -184.2 1.160e+04 8.777e-10
 87.75032   -183.5 1.128e+04 7.771e-10
 87.79272   -183.0 1.098e+04 6.627e-10
 87.83512   -182.7 1.055e+04 4.403e-10
 87.87752   -182.9 1.033e+04 3.738e-10
 87.90744   -183.8 1.030e+04 3.545e-10
 87.92864   -183.7 1.039e+04 3.501e-10
 87.96231   -186.4 1.078e+04 4.178e-10
 88.00091   -189.5 1.132e+04 6.602e-10
 88.02211   -190.3 1.194e+04 8.003e-10
 88.04711   -193.3 1.239e+04 1.162e-09
 88.08951   -196.7 1.276e+04 1.516e-09
 88.11558   -200.0 1.309e+04 1.809e-09
 88.13678   -202.0 1.313e+04 1.898e-09
 88.17431   -204.9 1.306e+04 1.890e-09
 88.20906   -207.3 1.292e+04 1.632e-09
 88.22967   -208.8 1.192e+04 9.487e-10
 88.23732   -208.5 1.283e+04 1.601e-09
 88.25910   -210.0 1.231e+04 1.234e-09
 88.30150   -210.8 1.163e+04 7.768e-10
 88.32363   -211.1 1.087e+04 4.642e-10
 88.34483   -211.6 1.074e+04 4.128e-10
 88.38630   -212.0 1.033e+04 3.011e-10
 88.41720   -212.2 9.961e+03 2.282e-10
 88.43840   -212.0 9.923e+03 2.175e-10
 88.47110   -211.6 9.780e+03 1.873e-10
 88.51067   -211.3 9.769e+03 1.824e-10
 88.53187   -211.8 9.884e+03 1.865e-10
 88.55590   -212.1 1.017e+04 2.200e-10
 88.59830   -212.4 1.065e+04 3.875e-10
 88.62535   -212.4 1.104e+04 6.623e-10
 88.64654   -212.9 1.075e+04 5.482e-10
 88.68309   -212.7 1.084e+04 6.546e-10
 88.71882   -212.2 1.085e+04 6.818e-10
 88.74002   -212.4 1.041e+04 4.709e-10
 88.76789   -211.6 1.031e+04 4.651e-10
 88.79056   -210.6 1.019e+04 4.256e-10
 88.81176   -210.1 1.059e+04 5.304e-10
 88.83349   -209.1 1.053e+04 5.041e-10
 88.85469   -209.1 1.034e+04 4.065e-10
 88.89509   -208.2 1.038e+04 4.356e-10
 88.92696   -207.7 1.052e+04 5.045e-10
 88.94816   -207.9 1.047e+04 4.775e-10
 88.97989   -207.9 1.080e+04 6.395e-10
 89.02044   -208.0 1.133e+04 8.949e-10
 89.04163   -208.2 1.118e+04 8.521e-10
 89.06468   -208.7 1.196e+04 1.287e-09
 89.10708   -210.0 1.288e+04 1.991e-09
 89.13501   -210.9 1.366e+04 2.983e-09
 89.14551   -211.1 1.369e+04 2.923e-09
 89.15989   -211.7 1.424e+04 3.733e-09
 89.18109   -212.2 1.467e+04 4.467e-09
 89.19225   -212.9 1.493e+04 4.792e-09
 89.20285   -213.2 1.533e+04 5.401e-09
 89.22348   -214.0 1.548e+04 5.590e-09
 89.23898   -215.1 1.551e+04 5.469e-09
 89.24958   -215.9 1.595e+04 6.390e-09
 89.26588   -216.8 1.572e+04 5.541e-09
 89.28572   -217.5 1.521e+04 4.103e-09
 89.29632   -218.2 1.557e+04 5.122e-09
 89.30828   -218.6 1.506e+04 3.767e-09
 89.32948   -218.8 1.453e+04 2.737e-09
 89.34306   -219.0 1.400e+04 2.050e-09
 89.34658   -219.5 1.424e+04 2.435e-09
 89.35421   -219.4 1.423e+04 2.462e-09
 89.37188   -219.3 1.375e+04 1.852e-09
 89.38979   -219.0 1.329e+04 1.421e-09
 89.40039   -219.3 1.342e+04 1.579e-09
 89.41428   -218.9 1.306e+04 1.244e-09
 89.43663   -218.7 1.275e+04 9.997e-10
 89.45783   -218.7 1.262e+04 9.250e-10
 89.48857   -218.5 1.243e+04 8.027e-10
 89.53020   -217.6 1.217e+04 6.884e-10
 89.55140   -217.9 1.220e+04 6.842e-10
 89.57347   -217.0 1.202e+04 6.257e-10
 89.61587   -216.3 1.192e+04 5.807e-10
 89.64487   -215.6 1.183e+04 5.275e-10
 89.66607   -215.5 1.170e+04 4.956e-10
 89.70067   -214.7 1.153e+04 4.215e-10
 89.73834   -213.7 1.136e+04 3.523e-10
 89.75954   -213.4 1.130e+04 3.457e-10
 89.78546   -212.1 1.116e+04 2.938e-10
 89.82786   -210.8 1.100e+04 2.602e-10
 89.85301   -209.4 1.084e+04 2.465e-10
 89.87421   -208.9 1.086e+04 2.470e-10
 89.89704   -207.4 1.078e+04 2.442e-10
 89.91824   -207.1 1.069e+04 2.961e-10
 89.94649   -205.6 1.063e+04 2.849e-10
 89.96769   -205.2 1.065e+04 2.821e-10
 89.99746   -203.7 1.064e+04 2.789e-10
 90.03986   -202.2 1.066e+04 2.835e-10
 90.08226   -200.4 1.065e+04 2.889e-10
 90.12466   -198.9 1.067e+04 3.068e-10
 90.15463   -197.5 1.070e+04 3.247e-10
 90.17583   -197.2 1.070e+04 3.172e-10
 90.20945   -195.9 1.073e+04 3.346e-10
 90.24810   -194.5 1.077e+04 3.395e-10
 90.26930   -194.5 1.081e+04 3.392e-10
 90.29425   -193.2 1.084e+04 3.322e-10
 90.33665   -191.8 1.089e+04 3.156e-10
 90.36278   -190.4 1.094e+04 3.078e-10
 90.38398   -190.6 1.104e+04 3.044e-10
 90.42145   -189.2 1.116e+04 3.006e-10
 90.45028   -188.0 1.130e+04 3.332e-10
 90.46388   -187.4 1.155e+04 5.825e-10
 90.47745   -188.0 1.160e+04 5.364e-10
 90.50625   -186.8 1.178e+04 6.789e-10
 90.54864   -185.6 1.190e+04 8.416e-10
 90.57092   -184.6 1.199e+04 9.361e-10
 90.59212   -185.5 1.184e+04 8.058e-10
 90.63344   -184.4 1.188e+04 8.351e-10
 90.66439   -183.2 1.188e+04 8.359e-10
 90.68559   -183.6 1.163e+04 6.053e-10
 90.71824   -182.3 1.164e+04 5.948e-10
 90.75787   -180.8 1.153e+04 5.604e-10
 90.77907   -181.1 1.141e+04 4.468e-10
 90.80304   -179.5 1.140e+04 4.486e-10
 90.84544   -177.8 1.142e+04 4.523e-10
 90.87254   -176.1 1.147e+04 4.591e-10
 90.89374   -177.0 1.156e+04 4.502e-10
 90.93023   -175.9 1.176e+04 4.861e-10
 90.96601   -174.9 1.205e+04 5.842e-10
 90.98721   -176.8 1.217e+04 6.557e-10
 91.00352   -176.4 1.236e+04 8.455e-10
 91.02472   -177.0 1.223e+04 7.385e-10
 91.05743   -176.7 1.247e+04 1.031e-09
 91.08068   -176.4 1.252e+04 1.267e-09
 91.10188   -177.8 1.203e+04 9.901e-10
 91.14223   -177.3 1.190e+04 9.815e-10
 91.17416   -176.4 1.156e+04 8.507e-10
 91.19535   -176.6 1.104e+04 6.026e-10
 91.22703   -175.1 1.077e+04 4.770e-10
 91.26763   -173.5 1.054e+04 3.632e-10
 91.28883   -173.2 1.037e+04 3.198e-10
 91.31182   -171.4 1.025e+04 2.604e-10
 91.35422   -169.6 1.013e+04 2.087e-10
 91.38230   -167.8 1.006e+04 1.667e-10
 91.40350   -167.3 1.004e+04 1.669e-10
 91.43902   -165.5 9.979e+03 1.335e-10
 91.47577   -163.7 9.922e+03 1.107e-10
 91.49697   -163.1 9.913e+03 1.102e-10
 91.52382   -161.4 9.888e+03 9.674e-11
 91.55676   -159.8 9.895e+03 9.233e-11
 91.57796   -160.2 9.925e+03 8.259e-11
 91.59044   -158.8 9.959e+03 8.311e-11
 91.61164   -158.1 9.922e+03 8.099e-11
 91.65101   -156.9 1.003e+04 8.761e-11
 91.68392   -156.0 1.000e+04 1.184e-10
 91.70512   -155.4 1.008e+04 1.091e-10
 91.73581   -154.6 1.002e+04 1.595e-10
 91.77739   -153.9 1.001e+04 2.240e-10
 91.79859   -153.4 1.004e+04 2.231e-10
 91.82061   -153.0 1.005e+04 2.811e-10
 91.86301   -152.9 1.001e+04 3.015e-10
 91.89206   -152.9 9.958e+03 3.014e-10
 91.91326   -152.3 9.969e+03 2.926e-10
 91.94781   -152.2 9.683e+03 2.442e-10
 91.98553   -152.1 9.426e+03 1.974e-10
 92.00673   -151.2 9.408e+03 1.906e-10
 92.03260   -150.9 9.224e+03 1.776e-10
 92.07500   -150.3 9.170e+03 1.764e-10
 92.10021   -149.7 9.153e+03 1.868e-10
 92.11400   -148.4 9.272e+03 1.992e-10
 92.13120   -148.8 9.351e+03 2.392e-10
 92.15980   -148.2 9.360e+03 2.535e-10
 92.19368   -147.7 9.376e+03 2.651e-10
 92.21488   -146.5 9.570e+03 3.035e-10
 92.24460   -146.2 9.627e+03 3.398e-10
 92.28700   -145.9 9.655e+03 3.897e-10
 92.32940   -144.4 1.013e+04 5.722e-10
 92.37180   -144.1 1.023e+04 6.185e-10
 92.40182   -143.9 1.026e+04 6.241e-10
 92.42302   -143.6 1.083e+04 8.151e-10
 92.45659   -143.5 1.080e+04 7.800e-10
 92.49530   -143.5 1.075e+04 7.362e-10
 92.51650   -144.2 1.145e+04 1.029e-09
 92.54139   -144.3 1.156e+04 1.067e-09
 92.58379   -144.4 1.167e+04 1.155e-09
 92.60997   -144.5 1.185e+04 1.354e-09
 92.62047   -144.8 1.185e+04 1.337e-09
 92.63659   -144.8 1.203e+04 1.502e-09
 92.65651   -144.7 1.209e+04 1.558e-09
 92.66711   -144.9 1.226e+04 1.683e-09
 92.67364   -144.8 1.232e+04 1.773e-09
 92.68434   -143.7 1.141e+04 1.080e-09
 92.70344   -143.6 1.150e+04 1.123e-09
 92.72464   -144.3 1.182e+04 1.336e-09
 92.75339   -144.1 1.182e+04 1.329e-09
 92.79578   -144.4 1.182e+04 1.325e-09
 92.81811   -144.8 1.186e+04 1.352e-09
 92.83931   -144.8 1.216e+04 1.513e-09
 92.88058   -145.4 1.203e+04 1.455e-09
 92.91159   -145.7 1.162e+04 1.149e-09
 92.93279   -145.2 1.166e+04 1.034e-09
 92.96538   -145.3 1.114e+04 6.081e-10
 93.00506   -145.1 1.074e+04 3.601e-10
 93.02626   -144.6 1.075e+04 3.339e-10
 93.05018   -144.3 1.050e+04 2.428e-10
 93.09258   -144.0 1.040e+04 2.268e-10
 93.11973   -144.1 1.043e+04 2.335e-10
 93.14093   -143.8 1.062e+04 2.412e-10
 93.17737   -144.6 1.103e+04 3.799e-10
 93.21320   -145.4 1.150e+04 6.246e-10
 93.23110   -144.9 1.160e+04 6.635e-10
 93.23767   -145.0 1.154e+04 6.600e-10
 93.26217   -146.1 1.188e+04 8.283e-10
 93.29387   -146.8 1.197e+04 8.590e-10
 93.31497   -147.8 1.198e+04 8.515e-10
 93.32768   -148.8 1.196e+04 8.008e-10
 93.33828   -148.6 1.193e+04 7.482e-10
 93.35737   -149.6 1.195e+04 7.002e-10
 93.37442   -150.6 1.201e+04 6.859e-10
 93.38502   -150.5 1.194e+04 6.512e-10
 93.39977   -151.6 1.196e+04 6.518e-10
 93.42097   -152.9 1.215e+04 6.572e-10
 93.43175   -154.1 1.236e+04 7.128e-10
 93.44235   -153.6 1.222e+04 6.668e-10
 93.46337   -154.9 1.232e+04 7.192e-10
 93.47849   -156.2 1.231e+04 7.413e-10
 93.48909   -155.5 1.225e+04 7.085e-10
 93.50350   -156.7 1.215e+04 6.928e-10
 93.51410   -156.2 1.213e+04 7.135e-10
 93.52523   -157.2 1.201e+04 6.210e-10
 93.53582   -156.5 1.201e+04 6.238e-10
 93.55887   -157.5 1.183e+04 5.207e-10
 93.60136   -158.4 1.164e+04 4.707e-10
 93.62949   -158.9 1.160e+04 4.744e-10
 93.65069   -158.3 1.179e+04 5.738e-10
 93.68616   -158.9 1.187e+04 6.588e-10
 93.72297   -159.2 1.196e+04 7.459e-10
 93.74416   -159.0 1.223e+04 9.713e-10
 93.76971   -159.2 1.216e+04 9.469e-10
 93.79091   -159.0 1.219e+04 9.377e-10
 93.81336   -159.5 1.210e+04 8.079e-10
 93.83764   -160.3 1.207e+04 7.573e-10
 93.85884   -159.8 1.206e+04 7.620e-10
 93.89815   -160.2 1.211e+04 7.927e-10
 93.92986   -159.5 1.222e+04 9.484e-10
 93.94151   -159.6 1.241e+04 1.154e-09
 93.95211   -159.0 1.222e+04 1.007e-09
 93.97216   -158.9 1.241e+04 1.216e-09
 93.98825   -158.7 1.266e+04 1.440e-09
 93.99885   -158.2 1.241e+04 1.245e-09
 94.01456   -158.0 1.270e+04 1.485e-09
 94.03499   -157.7 1.304e+04 1.794e-09
 94.04559   -157.3 1.278e+04 1.557e-09
 94.05674   -157.0 1.318e+04 1.915e-09
 94.06734   -157.1 1.304e+04 1.868e-09
 94.07815   -156.7 1.328e+04 2.082e-09
 94.09232   -156.5 1.336e+04 2.156e-09
 94.10292   -156.2 1.330e+04 2.014e-09
 94.12055   -156.0 1.340e+04 2.110e-09
 94.13906   -155.9 1.350e+04 2.045e-09
 94.14966   -155.5 1.326e+04 1.985e-09
 94.16295   -155.4 1.343e+04 1.943e-09
 94.18415   -155.4 1.338e+04 1.821e-09
 94.19640   -155.4 1.327e+04 1.736e-09
 94.20700   -155.0 1.328e+04 1.754e-09
 94.23263   -155.2 1.308e+04 1.681e-09
 94.25383   -154.1 1.300e+04 1.603e-09
 94.27965   -153.8 1.280e+04 1.519e-09
 94.32214   -153.1 1.247e+04 1.218e-09
 94.34415   -152.5 1.212e+04 8.493e-10
 94.34821   -152.0 1.219e+04 9.374e-10
 94.36860   -150.9 1.222e+04 1.036e-09
 94.40694   -150.2 1.209e+04 8.841e-10
 94.44087   -149.7 1.197e+04 7.079e-10
 94.46207   -148.2 1.197e+04 7.988e-10
 94.49174   -147.7 1.187e+04 6.509e-10
 94.53414   -147.2 1.185e+04 5.947e-10
 94.55554   -146.9 1.184e+04 6.302e-10
 94.57674   -145.0 1.184e+04 6.040e-10
 94.61894   -144.7 1.187e+04 6.724e-10
 94.64902   -144.2 1.186e+04 8.038e-10
 94.67022   -142.4 1.194e+04 7.713e-10
 94.70373   -141.9 1.192e+04 9.003e-10
 94.74249   -141.4 1.191e+04 9.340e-10
 94.76369   -139.6 1.211e+04 1.074e-09
 94.78853   -139.0 1.209e+04 1.084e-09
 94.83093   -138.2 1.177e+04 8.193e-10
 94.85716   -137.4 1.138e+04 4.642e-10
 94.87836   -135.6 1.194e+04 8.850e-10
 94.89739   -134.7 1.135e+04 4.726e-10
 94.91859   -134.5 1.101e+04 3.267e-10
 94.95063   -133.7 1.052e+04 2.050e-10
 94.97183   -131.9 1.105e+04 3.825e-10
 95.00053   -131.4 1.053e+04 2.348e-10
 95.04292   -131.0 1.062e+04 1.941e-10
 95.06531   -130.4 1.054e+04 1.862e-10
 95.08651   -129.4 1.091e+04 2.918e-10
 95.12772   -128.9 1.083e+04 2.200e-10
 95.15878   -128.3 1.060e+04 2.283e-10
 95.17998   -128.0 1.136e+04 2.998e-10
 95.21252   -127.1 1.096e+04 2.588e-10
 95.25225   -126.3 1.104e+04 2.918e-10
 95.27335   -126.6 1.191e+04 2.681e-10
 95.28652   -126.4 1.185e+04 2.916e-10
 95.30772   -126.6 1.199e+04 3.023e-10
 95.31999   -126.5 1.201e+04 3.051e-10
 95.33059   -129.2 1.412e+04 9.385e-10
 95.35012   -129.8 1.439e+04 1.180e-09
 95.36673   -130.7 1.467e+04 1.600e-09
 95.37733   -132.0 1.567e+04 4.260e-09
 95.39252   -132.6 1.599e+04 5.234e-09
 95.41346   -133.2 1.660e+04 6.843e-09
 95.42406   -133.5 1.662e+04 9.039e-09
 95.43492   -134.1 1.711e+04 1.021e-08
 95.45043   -134.4 1.734e+04 1.182e-08
 95.46103   -132.8 1.610e+04 6.765e-09
 95.47080   -133.0 1.625e+04 7.566e-09
 95.48140   -133.0 1.530e+04 5.900e-09
 95.49852   -132.9 1.503e+04 5.280e-09
 95.51754   -132.9 1.468e+04 4.717e-09
 95.52814   -133.3 1.329e+04 2.615e-09
 95.54092   -133.4 1.299e+04 2.372e-09
 95.56211   -133.3 1.281e+04 2.292e-09
 95.57487   -133.1 1.277e+04 2.284e-09
 95.58547   -133.5 1.186e+04 1.412e-09
 95.60451   -133.2 1.189e+04 1.490e-09
 95.62161   -133.0 1.195e+04 1.605e-09
 95.63221   -133.0 1.136e+04 1.139e-09
 95.64691   -132.7 1.137e+04 1.211e-09
 95.66811   -132.4 1.137e+04 1.251e-09
 95.67895   -132.0 1.136e+04 1.258e-09
 95.68954   -131.5 1.096e+04 1.011e-09
 95.71051   -131.1 1.095e+04 1.010e-09
 95.72568   -130.6 1.092e+04 9.842e-10
 95.73162   -130.1 1.068e+04 8.474e-10
 95.73765   -129.7 1.073e+04 9.266e-10
 95.75291   -129.3 1.069e+04 8.893e-10
 95.77242   -128.8 1.064e+04 8.468e-10
 95.78302   -128.3 1.048e+04 7.467e-10
 95.79531   -127.9 1.042e+04 7.187e-10
 95.81651   -127.3 1.033e+04 6.850e-10
 95.82975   -126.4 1.021e+04 6.329e-10
 95.84035   -125.9 1.014e+04 6.016e-10
 95.85891   -124.9 1.011e+04 5.573e-10
 95.87659   -124.4 1.013e+04 5.081e-10
 95.89788   -123.5 1.011e+04 5.157e-10
 95.93330   -122.2 9.996e+03 4.301e-10
 95.97016   -120.7 9.767e+03 3.354e-10
 95.99136   -119.8 9.812e+03 3.514e-10
 96.00387   -118.2 9.592e+03 2.781e-10
 96.02507   -117.5 9.394e+03 2.409e-10
 96.06050   -115.9 9.244e+03 1.956e-10
 96.08483   -114.1 9.218e+03 1.809e-10
 96.10603   -113.3 9.300e+03 1.936e-10
 96.14529   -111.5 9.299e+03 1.921e-10
 96.17830   -109.7 9.377e+03 2.042e-10
 96.19950   -109.0 9.538e+03 2.422e-10
 96.23009   -107.4 9.700e+03 2.861e-10
 96.27178   -105.8 9.865e+03 3.510e-10
 96.29297   -105.5 1.018e+04 4.756e-10
 96.31489   -104.1 1.038e+04 5.794e-10
 96.35729   -102.8 1.053e+04 6.514e-10
 96.38645   -101.6 1.060e+04 6.808e-10
 96.40765   -101.5 1.085e+04 8.551e-10
 96.44209   -100.3 1.074e+04 7.680e-10
 96.47992    -99.0 1.054e+04 6.201e-10
 96.50112    -98.9 1.050e+04 6.122e-10
 96.52688    -97.4 1.018e+04 4.550e-10
 96.55711    -95.9 9.919e+03 3.440e-10
 96.57831    -94.7 9.998e+03 3.854e-10
 96.59459    -93.1 9.882e+03 3.384e-10
 96.61579    -92.8 9.656e+03 2.614e-10
 96.65408    -91.1 9.603e+03 2.448e-10
 96.68806    -89.4 9.586e+03 2.404e-10
 96.70926    -88.8 9.371e+03 1.865e-10
 96.73888    -87.0 9.380e+03 1.884e-10
 96.78128    -85.3 9.444e+03 1.936e-10
 96.80274    -83.8 9.562e+03 2.029e-10
 96.82394    -83.1 9.419e+03 1.747e-10
 96.86608    -81.8 9.579e+03 1.988e-10
 96.89621    -80.8 9.805e+03 2.554e-10
 96.91741    -80.0 9.697e+03 2.274e-10
 96.95087    -79.2 9.980e+03 3.146e-10
 96.98968    -78.4 1.031e+04 4.592e-10
 97.01088    -77.8 1.016e+04 3.875e-10
 97.03567    -77.0 1.045e+04 5.274e-10
 97.07807    -76.0 1.069e+04 6.351e-10
 97.10435    -74.9 1.077e+04 6.590e-10
 97.11543    -74.3 1.054e+04 5.617e-10
 97.13155    -73.6 1.046e+04 5.072e-10
 97.16287    -72.3 1.054e+04 4.887e-10
 97.19783    -70.7 1.034e+04 3.584e-10
 97.21903    -70.0 1.022e+04 3.557e-10
 97.24767    -68.3 1.017e+04 2.774e-10
 97.29006    -66.6 1.009e+04 2.372e-10
 97.31250    -64.7 1.005e+04 2.165e-10
 97.33370    -63.7 1.002e+04 2.182e-10
 97.37486    -61.7 1.004e+04 2.066e-10
 97.40597    -59.7 1.006e+04 1.996e-10
 97.42717    -58.7 1.000e+04 1.980e-10
 97.45966    -56.8 1.007e+04 1.890e-10
 97.49944    -54.9 1.010e+04 1.735e-10
 97.52064    -54.0 1.009e+04 1.718e-10
 97.54446    -52.3 1.013e+04 1.587e-10
 97.58686    -50.8 1.017e+04 1.572e-10
 97.61412    -49.5 1.027e+04 1.863e-10
 97.63532    -48.6 1.024e+04 1.805e-10
 97.66359    -47.0 1.022e+04 2.306e-10
 97.68478    -46.4 1.025e+04 2.311e-10
 97.70759    -44.4 1.037e+04 3.294e-10
 97.72879    -43.5 1.029e+04 2.958e-10
 97.75645    -41.7 1.054e+04 3.793e-10
 97.79885    -40.8 1.103e+04 4.530e-10
 97.82226    -40.8 1.151e+04 5.724e-10
 97.84346    -40.0 1.151e+04 6.610e-10
 97.88365    -39.8 1.191e+04 9.686e-10
 97.91573    -39.1 1.217e+04 1.130e-09
 97.93693    -38.3 1.241e+04 1.349e-09
 97.96845    -38.6 1.238e+04 1.050e-09
 98.00921    -39.6 1.198e+04 8.774e-10
 98.03041    -39.5 1.226e+04 1.076e-09
 98.05324    -39.8 1.209e+04 1.135e-09
 98.09564    -39.1 1.196e+04 1.189e-09
 98.12388    -37.8 1.170e+04 1.008e-09
 98.14508    -38.0 1.195e+04 1.276e-09
 98.18044    -36.7 1.164e+04 9.219e-10
 98.21682    -35.5 1.130e+04 6.455e-10
 98.23253    -34.5 1.193e+04 1.057e-09
 98.23855    -34.3 1.217e+04 1.364e-09
 98.26524    -32.3 1.184e+04 1.044e-09
 98.30764    -30.7 1.169e+04 7.714e-10
 98.33202    -30.2 1.189e+04 7.103e-10
 98.34252    -30.0 1.144e+04 6.648e-10
 98.36044    -31.7 1.275e+04 8.040e-10
 98.37856    -35.0 1.637e+04 1.185e-09
 98.38916    -38.3 1.890e+04 2.213e-09
 98.40284    -44.3 2.020e+04 1.117e-08
 98.41869    -45.8 1.974e+04 3.788e-08
 98.42924    -44.2 1.970e+04 6.601e-08
 98.43580    -41.4 2.025e+04 9.494e-08
 98.44110    -41.3 2.063e+04 1.316e-07
 98.45044    -39.8 2.075e+04 1.355e-07
 98.45917    -37.5 2.083e+04 8.052e-08
 98.46447    -37.4 2.091e+04 8.439e-08
 98.47164    -36.4 2.181e+04 3.970e-08
 98.48259    -40.5 2.165e+04 1.510e-08
 98.49324    -42.1 2.135e+04 1.293e-08
 98.50385    -51.1 1.506e+04 3.987e-09
 98.51445    -51.0 1.450e+04 3.358e-09
 98.52937    -52.5 1.276e+04 2.206e-09
 98.53997    -52.0 1.278e+04 2.232e-09
 98.55124    -51.6 1.242e+04 2.011e-09
 98.57243    -50.9 1.212e+04 1.813e-09
 98.58671    -50.1 1.187e+04 1.571e-09
 98.59731    -49.5 1.192e+04 1.658e-09
 98.61483    -48.7 1.166e+04 1.406e-09
 98.63344    -48.1 1.119e+04 1.046e-09
 98.64404    -47.3 1.135e+04 1.194e-09
 98.65723    -46.8 1.087e+04 8.629e-10
 98.67843    -46.1 1.048e+04 5.976e-10
 98.69078    -45.6 1.022e+04 4.171e-10
 98.70138    -44.6 1.045e+04 5.056e-10
 98.72701    -45.7 9.821e+03 3.391e-10
 98.74831    -43.5 1.024e+04 4.170e-10
 98.77006    -43.6 9.682e+03 3.364e-10
 98.79126    -43.1 9.734e+03 3.372e-10
 98.81642    -42.5 9.656e+03 3.505e-10
 98.84178    -42.0 9.766e+03 3.638e-10
 98.86298    -40.3 1.024e+04 5.654e-10
 98.90122    -39.9 1.022e+04 5.345e-10
 98.93526    -39.7 9.658e+03 3.499e-10
 98.95646    -37.8 1.042e+04 5.938e-10
 98.98602    -38.2 9.828e+03 3.360e-10
 99.02842    -38.8 9.550e+03 2.513e-10
 99.04993    -39.6 9.415e+03 2.378e-10
 99.05750    -39.0 9.715e+03 2.851e-10
 99.06769    -38.6 9.890e+03 3.121e-10
 99.08122    -38.9 9.877e+03 3.201e-10
 99.09647    -39.5 9.795e+03 3.697e-10
 99.10707    -39.3 1.002e+04 4.523e-10
 99.12362    -39.7 1.000e+04 5.193e-10
 99.14321    -39.6 1.015e+04 5.979e-10
 99.15381    -39.4 1.060e+04 8.844e-10
 99.16602    -39.3 1.071e+04 9.233e-10
 99.18722    -39.3 1.065e+04 8.638e-10
 99.20054    -39.4 1.037e+04 6.540e-10
 99.21114    -39.0 1.078e+04 9.267e-10
 99.22962    -39.5 1.041e+04 6.486e-10
 99.24728    -40.2 1.009e+04 4.655e-10
 99.25788    -40.0 1.045e+04 6.242e-10
 99.27202    -40.9 1.010e+04 4.703e-10
 99.29322    -41.4 9.881e+03 4.060e-10
 99.30461    -41.6 9.726e+03 3.711e-10
 99.31521    -41.5 9.856e+03 4.330e-10
 99.33371    -41.3 9.765e+03 3.957e-10
 99.34431    -41.6 9.912e+03 4.382e-10
 99.35145    -42.0 9.842e+03 3.696e-10
 99.36205    -41.0 9.877e+03 4.020e-10
 99.37801    -41.0 9.815e+03 3.777e-10
 99.40991    -41.5 9.609e+03 3.088e-10
 99.44502    -40.9 9.291e+03 2.675e-10
 99.46622    -40.7 9.312e+03 2.642e-10
 99.49481    -39.6 9.179e+03 2.473e-10
 99.53720    -38.5 9.146e+03 2.435e-10
 99.55969    -37.3 9.113e+03 2.393e-10
 99.58089    -37.0 9.147e+03 2.430e-10
 99.62200    -35.8 9.094e+03 2.256e-10
 99.65316    -34.6 9.013e+03 1.885e-10
 99.67436    -34.2 9.020e+03 1.920e-10
 99.70680    -33.2 8.945e+03 1.530e-10
 99.74664    -32.4 8.914e+03 1.253e-10
 99.76784    -31.8 8.900e+03 1.304e-10
 99.79160    -30.9 8.892e+03 1.210e-10
 99.83400    -30.3 9.023e+03 1.231e-10
 99.86131    -30.3 9.392e+03 1.577e-10
 99.88251    -29.6 9.518e+03 1.668e-10
 99.91879    -29.5 1.002e+04 2.842e-10
 99.95478    -30.3 1.051e+04 6.192e-10
 99.97598    -29.9 1.077e+04 7.645e-10
100.00359    -29.5 1.152e+04 1.277e-09
