# Columns:
#   distance along LOS (in CHIMPs)
#   peculiar velocity  (in km/s)
#   temperature (K)
#   HI number density
# pos=(157.534,230.052,95.5474), angles=(0.495934,4.8362)
  0.00887     68.9 1.205e+04 1.050e-09
  0.02706     69.7 1.179e+04 9.895e-10
  0.05859     71.7 1.195e+04 1.033e-09
  0.09053     72.6 1.206e+04 1.121e-09
  0.10154     72.9 1.212e+04 1.224e-09
  0.11392     73.6 1.225e+04 1.327e-09
  0.13332     74.2 1.243e+04 1.429e-09
  0.14442     74.4 1.257e+04 1.644e-09
  0.15833     74.9 1.284e+04 1.812e-09
  0.17621     75.4 1.306e+04 1.970e-09
  0.18731     75.4 1.331e+04 2.288e-09
  0.20274     75.8 1.351e+04 2.478e-09
  0.21910     76.1 1.363e+04 2.633e-09
  0.23020     75.8 1.388e+04 3.004e-09
  0.23956     76.0 1.399e+04 3.142e-09
  0.25066     76.5 1.403e+04 3.268e-09
  0.26198     76.8 1.413e+04 3.345e-09
  0.27309     76.2 1.425e+04 3.501e-09
  0.29157     76.1 1.429e+04 3.481e-09
  0.32498     75.5 1.411e+04 2.983e-09
  0.34795     74.7 1.402e+04 2.750e-09
  0.37016     72.1 1.363e+04 1.843e-09
  0.41152     71.2 1.327e+04 1.399e-09
  0.43373     68.6 1.264e+04 1.030e-09
  0.45831     68.3 1.208e+04 6.995e-10
  0.49729     67.9 1.159e+04 4.208e-10
  0.51950     66.8 1.139e+04 3.470e-10
  0.54714     66.7 1.108e+04 2.660e-10
  0.57248     67.5 1.106e+04 2.690e-10
  0.58620     67.6 1.094e+04 2.295e-10
  0.60528     67.1 1.085e+04 1.719e-10
  0.63597     68.2 1.082e+04 1.886e-10
  0.66884     69.3 1.088e+04 2.201e-10
  0.69105     68.9 1.075e+04 1.760e-10
  0.72479     69.9 1.074e+04 2.005e-10
  0.75462     70.8 1.074e+04 2.061e-10
  0.77682     70.6 1.068e+04 1.894e-10
  0.81362     71.5 1.069e+04 1.883e-10
  0.84039     72.4 1.069e+04 1.811e-10
  0.86260     72.4 1.065e+04 1.576e-10
  0.90245     73.4 1.061e+04 1.452e-10
  0.92617     74.4 1.059e+04 1.372e-10
  0.94837     74.2 1.062e+04 9.231e-11
  0.98974     75.3 1.058e+04 8.705e-11
  1.01194     74.8 1.048e+04 6.583e-11
  1.03569     76.2 1.046e+04 6.656e-11
  1.07551     77.7 1.043e+04 7.024e-11
  1.09772     77.3 1.041e+04 7.166e-11
  1.12451     78.9 1.041e+04 7.819e-11
  1.16128     80.6 1.041e+04 8.622e-11
  1.18349     80.4 1.041e+04 9.714e-11
  1.21334     82.1 1.043e+04 1.045e-10
  1.23794     83.9 1.046e+04 1.105e-10
  1.24946     84.3 1.044e+04 1.086e-10
  1.26927     84.2 1.048e+04 1.105e-10
  1.30216     85.9 1.048e+04 1.047e-10
  1.33283     87.4 1.048e+04 9.760e-11
  1.35504     87.3 1.050e+04 8.574e-11
  1.39099     88.8 1.050e+04 8.320e-11
  1.41861     90.4 1.051e+04 8.467e-11
  1.44081     90.2 1.051e+04 8.054e-11
  1.47982     91.6 1.053e+04 9.440e-11
  1.50438     93.2 1.056e+04 1.158e-10
  1.52659     93.1 1.055e+04 1.299e-10
  1.56795     94.8 1.060e+04 1.679e-10
  1.59016     94.7 1.066e+04 1.823e-10
  1.61306     96.3 1.076e+04 2.193e-10
  1.65372     97.8 1.088e+04 2.369e-10
  1.67593     97.2 1.091e+04 2.281e-10
  1.70188     98.4 1.091e+04 2.239e-10
  1.73950     99.7 1.089e+04 2.102e-10
  1.76171     99.0 1.089e+04 1.806e-10
  1.79071    100.3 1.086e+04 1.512e-10
  1.82527    101.7 1.084e+04 1.293e-10
  1.84748    100.8 1.089e+04 1.032e-10
  1.87954    102.2 1.086e+04 9.403e-11
  1.90341    103.6 1.081e+04 9.205e-11
  1.91271    103.5 1.079e+04 8.950e-11
  1.93325    103.1 1.075e+04 8.886e-11
  1.96836    104.7 1.075e+04 9.008e-11
  1.99682    106.3 1.074e+04 9.275e-11
  2.01903    106.2 1.075e+04 1.002e-10
  2.05719    107.8 1.074e+04 1.082e-10
  2.08260    109.4 1.074e+04 1.181e-10
  2.10480    109.3 1.077e+04 1.452e-10
  2.14601    110.9 1.079e+04 1.672e-10
  2.19043    112.3 1.096e+04 2.494e-10
  2.23194    113.6 1.106e+04 2.901e-10
  2.25415    113.5 1.121e+04 3.484e-10
  2.27925    114.6 1.140e+04 3.772e-10
  2.31771    115.6 1.148e+04 3.764e-10
  2.33992    115.1 1.153e+04 3.734e-10
  2.36808    115.7 1.156e+04 3.534e-10
  2.40349    116.2 1.156e+04 2.991e-10
  2.42569    115.4 1.149e+04 2.678e-10
  2.45691    115.7 1.148e+04 2.286e-10
  2.48926    115.5 1.153e+04 2.265e-10
  2.51147    114.4 1.157e+04 2.605e-10
  2.54573    113.3 1.182e+04 3.361e-10
  2.56887    112.1 1.220e+04 5.290e-10
  2.57597    111.7 1.233e+04 5.895e-10
  2.59724    110.2 1.272e+04 8.693e-10
  2.63456    108.5 1.304e+04 1.091e-09
  2.66081    106.6 1.304e+04 1.086e-09
  2.68302    105.0 1.315e+04 1.242e-09
  2.72339    103.9 1.280e+04 9.401e-10
  2.74659    103.1 1.242e+04 6.497e-10
  2.76879    102.2 1.222e+04 4.972e-10
  2.81015    101.7 1.184e+04 4.147e-10
  2.83236    101.0 1.170e+04 3.347e-10
  2.85663    101.5 1.168e+04 3.367e-10
  2.89593    102.2 1.167e+04 3.608e-10
  2.91814    102.2 1.155e+04 2.917e-10
  2.94545    102.9 1.158e+04 3.266e-10
  2.98170    103.6 1.161e+04 3.669e-10
  3.00391    103.7 1.145e+04 2.738e-10
  3.03428    104.4 1.141e+04 2.830e-10
  3.06748    105.1 1.140e+04 2.745e-10
  3.08968    105.5 1.128e+04 2.059e-10
  3.12311    106.3 1.122e+04 1.797e-10
  3.15325    107.1 1.115e+04 1.494e-10
  3.17546    107.3 1.109e+04 1.184e-10
  3.21193    108.1 1.102e+04 1.008e-10
  3.23903    108.4 1.073e+04 7.931e-11
  3.26123    108.7 1.068e+04 8.524e-11
  3.30076    109.8 1.065e+04 8.638e-11
  3.32480    111.0 1.058e+04 9.062e-11
  3.34701    111.3 1.064e+04 1.122e-10
  3.38837    112.4 1.058e+04 1.219e-10
  3.41058    112.8 1.071e+04 1.499e-10
  3.43400    113.7 1.066e+04 1.612e-10
  3.47414    114.6 1.060e+04 1.762e-10
  3.49635    114.7 1.068e+04 1.938e-10
  3.52282    115.4 1.060e+04 2.093e-10
  3.55992    116.1 1.052e+04 2.234e-10
  3.58212    116.1 1.050e+04 2.287e-10
  3.61165    116.7 1.044e+04 2.253e-10
  3.64569    117.3 1.035e+04 2.144e-10
  3.66790    117.2 1.029e+04 1.817e-10
  3.70048    117.8 1.021e+04 1.534e-10
  3.73147    118.3 1.012e+04 1.317e-10
  3.75367    117.8 1.012e+04 9.153e-11
  3.78930    118.2 9.909e+03 8.067e-11
  3.81724    118.7 9.744e+03 7.976e-11
  3.83945    118.3 9.642e+03 7.680e-11
  3.87759    119.0 9.625e+03 7.807e-11
  3.89979    119.0 9.540e+03 7.651e-11
  3.90302    119.8 9.521e+03 8.128e-11
  3.92522    119.7 9.501e+03 8.738e-11
  3.96658    120.5 9.494e+03 9.916e-11
  3.98879    120.6 9.503e+03 1.139e-10
  4.01137    121.4 9.495e+03 1.188e-10
  4.05236    122.2 9.487e+03 1.172e-10
  4.07456    122.2 9.499e+03 1.192e-10
  4.10020    122.9 9.457e+03 1.030e-10
  4.13813    123.5 9.430e+03 8.008e-11
  4.16034    123.1 9.416e+03 7.485e-11
  4.18902    123.4 9.375e+03 5.347e-11
  4.22391    123.5 9.289e+03 3.939e-11
  4.24611    123.2 9.243e+03 4.058e-11
  4.27785    123.4 8.976e+03 3.837e-11
  4.30968    123.9 8.965e+03 3.838e-11
  4.33189    124.0 8.984e+03 4.398e-11
  4.36667    124.6 8.967e+03 4.525e-11
  4.39546    125.2 8.960e+03 4.984e-11
  4.41766    125.0 9.025e+03 5.564e-11
  4.45550    125.3 9.039e+03 6.191e-11
  4.48123    125.4 9.099e+03 7.110e-11
  4.50344    124.9 9.126e+03 7.465e-11
  4.54305    124.9 9.160e+03 8.532e-11
  4.56526    125.2 9.201e+03 9.206e-11
  4.56701    125.1 9.256e+03 1.041e-10
  4.58921    124.6 9.194e+03 1.036e-10
  4.63057    124.0 9.213e+03 1.093e-10
  4.65278    123.6 9.168e+03 1.098e-10
  4.67757    123.0 9.187e+03 1.171e-10
  4.71635    121.7 9.261e+03 1.466e-10
  4.73855    121.6 9.225e+03 1.443e-10
  4.76639    119.5 9.568e+03 2.393e-10
  4.80212    116.9 1.004e+04 4.057e-10
  4.82433    116.8 1.008e+04 4.152e-10
  4.85522    113.5 1.052e+04 5.481e-10
  4.88790    109.7 1.057e+04 5.435e-10
  4.91010    109.0 1.081e+04 6.609e-10
  4.94405    105.0 1.071e+04 6.064e-10
  4.97367    101.5 1.032e+04 4.389e-10
  4.99588    100.3 1.075e+04 6.357e-10
  5.03287     97.6 1.009e+04 3.899e-10
  5.05945     95.4 9.448e+03 2.424e-10
  5.08165     94.9 9.499e+03 2.593e-10
  5.12170     93.6 8.919e+03 1.675e-10
  5.14522     93.1 8.669e+03 1.295e-10
  5.16743     92.9 8.506e+03 9.607e-11
  5.20851     93.2 8.472e+03 7.187e-11
  5.22898     92.8 8.425e+03 6.200e-11
  5.23099     92.4 8.454e+03 4.368e-11
  5.25494     92.8 8.291e+03 4.052e-11
  5.29456     93.3 8.238e+03 4.075e-11
  5.31677     93.5 8.246e+03 4.061e-11
  5.34376     94.1 8.236e+03 4.249e-11
  5.38034     94.6 8.263e+03 4.920e-11
  5.40254     94.6 8.437e+03 5.457e-11
  5.43259     94.9 8.546e+03 7.227e-11
  5.46611     95.2 8.696e+03 1.005e-10
  5.48832     95.1 8.840e+03 1.224e-10
  5.52142     95.4 8.946e+03 1.509e-10
  5.55189     95.6 9.041e+03 1.771e-10
  5.57409     95.9 8.961e+03 1.466e-10
  5.61024     96.1 9.020e+03 1.467e-10
  5.63766     95.8 9.113e+03 1.471e-10
  5.65987     95.6 9.050e+03 9.651e-11
  5.69907     95.0 9.168e+03 1.032e-10
  5.72343     94.1 9.311e+03 1.270e-10
  5.74564     94.2 9.194e+03 1.046e-10
  5.78700     93.7 9.316e+03 1.498e-10
  5.80921     94.3 9.208e+03 1.215e-10
  5.83231     94.0 9.309e+03 1.572e-10
  5.87278     93.1 9.459e+03 1.822e-10
  5.89224     93.8 9.396e+03 1.319e-10
  5.89618     93.3 9.469e+03 1.309e-10
  5.92114     91.2 9.554e+03 1.542e-10
  5.95855     89.0 9.342e+03 1.752e-10
  5.98076     90.2 9.375e+03 1.714e-10
  6.00996     88.6 9.096e+03 1.841e-10
  6.04433     87.5 8.869e+03 1.716e-10
  6.06653     88.8 9.037e+03 1.970e-10
  6.09879     87.9 8.759e+03 1.608e-10
  6.13010     87.1 8.467e+03 1.257e-10
  6.15231     88.3 8.635e+03 1.463e-10
  6.18762     87.5 8.353e+03 1.177e-10
  6.21588     86.9 8.125e+03 1.125e-10
  6.23808     87.9 8.183e+03 1.163e-10
  6.27644     87.6 8.083e+03 1.138e-10
  6.30165     87.4 8.040e+03 1.117e-10
  6.32386     88.5 8.125e+03 1.187e-10
  6.36522     88.3 8.140e+03 1.196e-10
  6.40963     88.6 8.367e+03 1.470e-10
  6.45099     87.4 8.622e+03 1.916e-10
  6.47320     88.3 8.882e+03 2.544e-10
  6.49851     86.8 9.435e+03 4.121e-10
  6.53677     85.3 1.007e+04 6.584e-10
  6.55549     86.3 1.026e+04 6.979e-10
  6.56164     86.1 9.937e+03 5.624e-10
  6.58733     84.3 1.023e+04 5.808e-10
  6.62254     82.2 1.025e+04 5.620e-10
  6.64475     82.9 1.024e+04 5.314e-10
  6.67616     80.7 1.024e+04 5.086e-10
  6.70832     78.4 1.015e+04 4.793e-10
  6.73052     79.5 1.028e+04 5.295e-10
  6.76499     77.6 1.014e+04 4.955e-10
  6.79409     76.0 9.820e+03 3.762e-10
  6.81630     77.5 9.977e+03 4.384e-10
  6.85381     76.2 9.522e+03 2.515e-10
  6.87986     74.5 9.164e+03 1.617e-10
  6.90207     76.3 9.152e+03 1.442e-10
  6.94264     74.7 9.058e+03 1.379e-10
  6.96564     73.5 9.080e+03 1.655e-10
  6.98785     75.4 9.066e+03 1.389e-10
  7.02921     74.6 9.325e+03 2.107e-10
  7.05141     76.4 9.288e+03 1.740e-10
  7.07588     75.7 9.790e+03 3.009e-10
  7.11498     75.1 1.019e+04 4.574e-10
  7.13719     76.5 1.029e+04 4.156e-10
  7.15350     75.9 1.048e+04 5.302e-10
  7.16878     75.5 1.066e+04 6.021e-10
  7.17988     76.2 1.069e+04 5.820e-10
  7.19782     75.7 1.083e+04 6.152e-10
  7.21166     75.0 1.092e+04 6.249e-10
  7.21855     75.9 1.089e+04 5.800e-10
  7.22691     76.0 1.090e+04 5.700e-10
  7.24223     74.9 1.107e+04 6.014e-10
  7.25455     72.9 1.156e+04 7.051e-10
  7.26565     73.4 1.158e+04 6.263e-10
  7.28634     70.3 1.228e+04 9.642e-10
  7.29744     70.5 1.240e+04 8.849e-10
  7.30885     68.3 1.297e+04 1.750e-09
  7.34226     67.3 1.306e+04 1.979e-09
  7.37230     66.4 1.263e+04 1.496e-09
  7.39451     67.3 1.246e+04 1.223e-09
  7.43118     65.5 1.160e+04 4.282e-10
  7.45808     62.0 1.063e+04 2.273e-10
  7.48029     62.8 1.059e+04 2.185e-10
  7.52001     61.1 1.062e+04 2.561e-10
  7.54385     59.9 1.094e+04 4.052e-10
  7.55027     61.3 1.100e+04 3.554e-10
  7.55964     61.2 1.103e+04 3.490e-10
  7.57533     60.3 1.119e+04 5.091e-10
  7.58655     60.5 1.132e+04 7.448e-10
  7.59765     61.1 1.145e+04 8.152e-10
  7.61833     61.1 1.168e+04 9.468e-10
  7.62943     61.8 1.184e+04 1.043e-09
  7.64195     62.0 1.171e+04 9.391e-10
  7.66122     61.7 1.162e+04 8.630e-10
  7.67232     62.0 1.176e+04 9.432e-10
  7.69310     62.2 1.095e+04 4.849e-10
  7.71540     63.2 1.114e+04 5.734e-10
  7.74208     62.5 1.049e+04 2.693e-10
  7.77897     60.9 9.969e+03 1.373e-10
  7.80118     62.5 1.010e+04 1.695e-10
  7.83090     62.1 9.856e+03 1.460e-10
  7.86475     61.7 9.899e+03 1.576e-10
  7.88200     63.0 9.931e+03 1.686e-10
  7.89257     62.4 9.904e+03 1.570e-10
  7.91973     62.2 9.917e+03 1.835e-10
  7.95052     61.8 1.030e+04 2.348e-10
  7.97273     63.2 1.010e+04 2.228e-10
  8.00856     61.9 1.068e+04 2.843e-10
  8.03629     60.2 1.094e+04 3.791e-10
  8.05850     61.5 1.074e+04 3.363e-10
  8.09738     60.1 1.063e+04 4.117e-10
  8.12207     58.6 1.050e+04 3.967e-10
  8.14428     60.1 1.041e+04 4.054e-10
  8.18564     58.1 1.068e+04 4.154e-10
  8.20784     60.1 1.035e+04 4.026e-10
  8.21410     56.9 1.107e+04 4.964e-10
  8.22511     57.1 1.107e+04 4.737e-10
  8.23943     55.2 1.106e+04 5.392e-10
  8.25054     56.4 1.095e+04 5.142e-10
  8.26374     54.3 1.128e+04 6.626e-10
  8.28232     52.2 1.191e+04 7.696e-10
  8.29342     53.4 1.187e+04 7.746e-10
  8.30815     51.4 1.219e+04 9.992e-10
  8.32521     50.5 1.148e+04 1.025e-09
  8.33631     51.3 1.170e+04 1.109e-09
  8.35256     51.4 1.118e+04 1.001e-09
  8.36809     51.6 1.092e+04 7.229e-10
  8.37920     52.5 1.096e+04 8.411e-10
  8.39698     51.8 1.126e+04 4.852e-10
  8.41098     49.9 1.112e+04 3.387e-10
  8.42208     51.1 1.130e+04 3.914e-10
  8.44286     49.0 1.070e+04 2.836e-10
  8.46507     49.5 1.065e+04 2.967e-10
  8.49700     49.3 1.045e+04 3.241e-10
  8.52873     49.0 1.027e+04 3.389e-10
  8.54525     49.9 1.040e+04 4.051e-10
  8.55803     50.6 1.032e+04 3.487e-10
  8.58593     50.9 1.011e+04 3.267e-10
  8.61451     51.0 9.860e+03 2.499e-10
  8.63672     52.2 1.001e+04 2.720e-10
  8.67475     51.9 9.666e+03 2.000e-10
  8.70028     51.6 9.471e+03 1.704e-10
  8.72249     52.5 9.471e+03 1.746e-10
  8.76358     52.8 9.375e+03 1.684e-10
  8.78606     53.4 9.330e+03 1.725e-10
  8.80826     54.2 9.329e+03 1.857e-10
  8.84963     55.1 9.260e+03 1.925e-10
  8.87183     56.0 9.255e+03 2.059e-10
  8.89682     57.2 9.245e+03 1.975e-10
  8.93540     57.8 9.373e+03 1.748e-10
  8.95761     58.7 9.343e+03 1.737e-10
  8.98565     58.9 9.398e+03 1.706e-10
  9.02118     59.1 9.315e+03 1.965e-10
  9.04338     59.9 9.310e+03 1.966e-10
  9.07447     60.9 9.233e+03 2.179e-10
  9.10695     62.2 9.236e+03 2.028e-10
  9.12916     63.0 9.267e+03 2.174e-10
  9.16330     64.2 9.265e+03 1.752e-10
  9.19272     64.8 9.199e+03 1.383e-10
  9.20851     65.5 9.215e+03 1.467e-10
  9.22350     66.9 9.231e+03 1.463e-10
  9.25213     67.3 9.158e+03 1.203e-10
  9.27850     68.1 9.070e+03 1.206e-10
  9.30071     68.8 9.059e+03 1.176e-10
  9.34095     69.9 9.057e+03 1.248e-10
  9.36427     71.1 9.121e+03 1.345e-10
  9.38648     71.7 9.076e+03 1.309e-10
  9.42784     72.9 9.126e+03 1.409e-10
  9.45005     73.5 9.111e+03 1.415e-10
  9.47419     75.0 9.095e+03 1.432e-10
  9.51362     76.7 9.039e+03 1.344e-10
  9.53582     77.2 9.076e+03 1.466e-10
  9.56302     78.7 9.103e+03 1.363e-10
  9.59939     80.2 9.149e+03 1.368e-10
  9.62160     80.6 9.252e+03 1.640e-10
  9.65184     81.7 9.438e+03 1.907e-10
  9.68516     82.8 9.671e+03 2.736e-10
  9.70737     83.2 9.976e+03 3.695e-10
  9.74067     84.9 1.032e+04 5.452e-10
  9.77094     86.6 1.069e+04 6.510e-10
  9.79315     86.6 1.096e+04 7.283e-10
  9.82950     87.8 1.103e+04 7.401e-10
  9.85671     89.1 1.091e+04 6.850e-10
  9.87176     88.7 1.115e+04 7.800e-10
  9.88896     90.0 1.097e+04 7.486e-10
  9.91832     91.3 1.095e+04 7.274e-10
  9.94249     92.6 1.090e+04 6.733e-10
  9.96469     92.4 1.134e+04 9.103e-10
 10.00606     93.9 1.134e+04 8.847e-10
 10.02826     93.6 1.164e+04 9.759e-10
 10.05156     95.0 1.160e+04 8.959e-10
 10.09183     96.1 1.150e+04 8.495e-10
 10.11404     95.4 1.150e+04 7.537e-10
 10.14039     96.4 1.150e+04 7.636e-10
 10.17760     97.2 1.156e+04 8.200e-10
 10.19981     96.2 1.130e+04 5.509e-10
 10.22922     96.9 1.143e+04 6.839e-10
 10.26338     97.8 1.152e+04 8.532e-10
 10.28559     96.7 1.118e+04 7.436e-10
 10.31804     97.4 1.117e+04 7.805e-10
 10.34915     98.0 1.100e+04 7.147e-10
 10.37136     97.1 1.068e+04 6.594e-10
 10.40687     98.0 1.004e+04 4.105e-10
 10.43493     98.7 9.392e+03 2.163e-10
 10.45713     98.4 9.378e+03 2.161e-10
 10.49570     99.1 8.962e+03 1.176e-10
 10.52070     99.8 8.690e+03 7.718e-11
 10.53501    100.4 8.703e+03 8.301e-11
 10.55442    100.7 8.772e+03 8.547e-11
 10.58427    102.1 8.516e+03 7.838e-11
 10.60648    103.0 8.622e+03 8.855e-11
 10.62893    105.0 8.571e+03 8.746e-11
 10.67005    106.9 8.596e+03 9.250e-11
 10.69225    108.0 8.795e+03 1.232e-10
 10.71776    110.0 8.998e+03 1.459e-10
 10.75582    111.4 9.479e+03 2.202e-10
 10.77803    112.2 9.714e+03 2.632e-10
 10.79539    112.1 9.833e+03 2.881e-10
 10.80961    111.6 1.029e+04 4.407e-10
 10.82072    112.0 1.059e+04 5.277e-10
 10.83970    111.9 1.127e+04 1.009e-09
 10.85250    112.6 1.195e+04 1.835e-09
 10.86361    113.1 1.243e+04 2.213e-09
 10.87585    114.4 1.306e+04 3.308e-09
 10.88696    114.3 1.322e+04 3.520e-09
 10.89539    115.1 1.327e+04 3.525e-09
 10.90649    115.2 1.366e+04 3.713e-09
 10.92717    116.0 1.348e+04 3.274e-09
 10.93828    115.8 1.352e+04 3.265e-09
 10.95073    115.9 1.317e+04 2.463e-09
 10.97006    115.4 1.269e+04 1.771e-09
 10.98116    115.1 1.273e+04 1.831e-09
 10.99515    114.0 1.216e+04 1.481e-09
 11.01295    113.4 1.183e+04 1.432e-09
 11.02405    113.5 1.193e+04 1.464e-09
 11.03956    113.5 1.192e+04 1.479e-09
 11.05583    113.6 1.203e+04 1.566e-09
 11.06694    113.7 1.209e+04 1.563e-09
 11.08397    113.9 1.217e+04 1.634e-09
 11.09872    114.0 1.221e+04 1.635e-09
 11.10983    113.9 1.223e+04 1.560e-09
 11.12839    113.9 1.209e+04 1.473e-09
 11.14161    113.9 1.182e+04 1.326e-09
 11.15271    113.7 1.178e+04 1.251e-09
 11.17280    113.8 1.147e+04 1.102e-09
 11.18450    114.0 1.120e+04 9.833e-10
 11.19560    114.0 1.122e+04 9.437e-10
 11.20858    114.3 1.100e+04 8.793e-10
 11.21875    114.9 1.087e+04 8.257e-10
 11.22738    114.9 1.098e+04 8.300e-10
 11.23942    115.4 1.092e+04 8.286e-10
 11.25917    116.0 1.091e+04 8.395e-10
 11.27037    116.1 1.112e+04 8.288e-10
 11.29513    117.2 1.119e+04 9.102e-10
 11.33403    118.3 1.154e+04 1.160e-09
 11.35614    118.1 1.168e+04 1.200e-09
 11.38386    118.9 1.199e+04 1.375e-09
 11.41981    119.7 1.217e+04 1.501e-09
 11.44202    119.2 1.218e+04 1.403e-09
 11.47279    119.6 1.216e+04 1.392e-09
 11.50558    120.1 1.206e+04 1.330e-09
 11.52779    119.8 1.202e+04 1.155e-09
 11.56161    120.3 1.184e+04 1.055e-09
 11.59136    120.8 1.161e+04 9.747e-10
 11.61356    120.9 1.152e+04 7.980e-10
 11.65044    121.6 1.138e+04 7.848e-10
 11.67713    122.5 1.120e+04 7.473e-10
 11.69934    122.9 1.114e+04 6.121e-10
 11.73926    124.1 1.095e+04 5.785e-10
 11.76291    125.4 1.070e+04 4.842e-10
 11.78511    126.0 1.063e+04 3.857e-10
 11.82647    127.4 1.044e+04 2.930e-10
 11.84868    128.0 1.029e+04 2.191e-10
 11.86314    129.2 1.016e+04 1.536e-10
 11.88535    129.4 1.002e+04 1.270e-10
 11.91225    130.4 9.817e+03 9.220e-11
 11.93446    131.0 9.604e+03 8.971e-11
 11.96133    132.2 9.413e+03 8.379e-11
 11.99802    133.7 9.404e+03 8.472e-11
 12.02023    134.3 9.391e+03 8.513e-11
 12.05016    135.8 9.388e+03 9.389e-11
 12.08380    137.4 9.451e+03 1.224e-10
 12.10600    137.9 9.443e+03 1.239e-10
 12.13898    139.5 9.584e+03 1.751e-10
 12.16957    141.0 9.838e+03 2.558e-10
 12.19178    141.2 9.764e+03 2.421e-10
 12.22781    142.6 1.001e+04 3.288e-10
 12.25535    143.9 1.026e+04 4.240e-10
 12.27755    144.0 1.003e+04 3.376e-10
 12.31664    145.2 1.020e+04 3.885e-10
 12.34112    146.4 1.036e+04 4.320e-10
 12.36333    146.3 9.924e+03 2.770e-10
 12.40469    147.3 9.992e+03 2.919e-10
 12.42690    147.1 9.567e+03 2.068e-10
 12.44988    148.1 9.663e+03 2.413e-10
 12.49046    149.3 9.920e+03 3.052e-10
 12.51267    149.1 9.800e+03 2.900e-10
 12.52860    150.0 1.005e+04 3.561e-10
 12.55081    151.1 9.884e+03 3.129e-10
 12.57191    151.3 9.955e+03 3.391e-10
 12.58715    151.6 1.005e+04 3.730e-10
 12.59825    151.6 1.005e+04 3.740e-10
 12.61623    151.9 1.019e+04 4.283e-10
 12.63003    152.2 1.036e+04 4.895e-10
 12.64114    152.1 1.044e+04 5.172e-10
 12.66064    152.2 1.058e+04 5.819e-10
 12.67292    152.4 1.071e+04 6.446e-10
 12.68402    152.2 1.085e+04 7.170e-10
 12.70470    152.3 1.098e+04 7.958e-10
 12.71581    152.0 1.117e+04 9.078e-10
 12.72726    152.0 1.136e+04 1.028e-09
 12.74759    151.9 1.158e+04 1.185e-09
 12.75870    151.5 1.186e+04 1.400e-09
 12.77168    151.5 1.217e+04 1.662e-09
 12.79048    151.7 1.251e+04 1.952e-09
 12.80158    151.3 1.288e+04 2.288e-09
 12.81609    151.5 1.321e+04 2.432e-09
 12.83337    151.5 1.327e+04 2.393e-09
 12.84447    150.8 1.329e+04 2.372e-09
 12.86050    150.7 1.319e+04 2.135e-09
 12.87224    150.4 1.289e+04 1.794e-09
 12.87689    152.2 1.365e+04 2.447e-09
 12.88736    151.5 1.342e+04 2.071e-09
 12.90492    151.0 1.299e+04 1.636e-09
 12.91914    150.2 1.232e+04 1.270e-09
 12.93024    149.0 1.172e+04 9.503e-10
 12.94933    148.4 1.112e+04 8.005e-10
 12.96203    147.9 1.078e+04 7.092e-10
 12.97313    146.9 1.066e+04 6.091e-10
 12.99374    146.7 1.070e+04 6.063e-10
 13.01595    145.4 1.080e+04 6.284e-10
 13.03670    144.8 1.088e+04 6.782e-10
 13.04780    144.1 1.099e+04 7.350e-10
 13.06036    143.3 1.107e+04 8.579e-10
 13.07959    142.6 1.121e+04 1.026e-09
 13.09069    142.3 1.142e+04 1.216e-09
 13.10477    141.9 1.174e+04 1.456e-09
 13.12247    141.5 1.219e+04 1.665e-09
 13.13358    141.7 1.255e+04 1.935e-09
 13.14919    141.0 1.307e+04 1.963e-09
 13.16536    139.7 1.333e+04 1.882e-09
 13.17646    140.1 1.359e+04 1.941e-09
 13.19360    138.0 1.363e+04 1.496e-09
 13.20497    135.0 1.301e+04 1.140e-09
 13.20852    132.3 1.203e+04 9.791e-10
 13.21935    132.6 1.162e+04 8.102e-10
 13.23801    130.7 1.138e+04 8.005e-10
 13.25114    129.2 1.142e+04 8.304e-10
 13.26224    129.9 1.115e+04 7.085e-10
 13.28243    128.8 1.138e+04 8.107e-10
 13.29402    128.0 1.168e+04 9.503e-10
 13.30513    128.9 1.147e+04 8.447e-10
 13.32581    128.3 1.169e+04 9.656e-10
 13.33691    129.3 1.154e+04 8.865e-10
 13.34905    128.9 1.161e+04 9.432e-10
 13.36869    128.8 1.157e+04 9.283e-10
 13.37980    129.7 1.150e+04 8.998e-10
 13.39346    129.9 1.139e+04 8.562e-10
 13.41158    130.1 1.121e+04 7.535e-10
 13.42268    131.1 1.119e+04 7.706e-10
 13.43787    131.4 1.104e+04 6.599e-10
 13.45447    131.4 1.092e+04 5.517e-10
 13.46557    132.5 1.093e+04 5.815e-10
 13.48229    132.5 1.083e+04 4.970e-10
 13.49736    132.5 1.073e+04 4.416e-10
 13.50846    133.6 1.082e+04 4.728e-10
 13.52660    133.5 1.071e+04 4.372e-10
 13.53770    132.8 1.057e+04 4.143e-10
 13.54024    132.9 1.043e+04 3.824e-10
 13.55135    133.9 1.056e+04 4.096e-10
 13.57111    133.8 1.041e+04 3.855e-10
 13.58323    134.0 1.033e+04 3.542e-10
 13.59433    135.0 1.045e+04 3.934e-10
 13.61491    135.0 1.035e+04 3.731e-10
 13.62602    136.2 1.050e+04 4.183e-10
 13.63773    136.1 1.047e+04 4.000e-10
 13.65780    136.2 1.047e+04 3.977e-10
 13.66891    137.3 1.065e+04 4.665e-10
 13.68215    137.2 1.070e+04 4.728e-10
 13.70069    136.9 1.085e+04 5.048e-10
 13.71179    137.7 1.109e+04 5.952e-10
 13.72656    137.1 1.134e+04 6.856e-10
 13.74358    136.3 1.160e+04 8.348e-10
 13.75468    136.7 1.193e+04 9.818e-10
 13.77097    135.8 1.224e+04 1.235e-09
 13.78646    135.1 1.244e+04 1.405e-09
 13.79757    135.0 1.291e+04 1.759e-09
 13.81539    134.4 1.293e+04 1.775e-09
 13.82935    134.0 1.284e+04 1.675e-09
 13.84045    133.7 1.333e+04 2.103e-09
 13.85933    133.4 1.302e+04 1.701e-09
 13.87043    133.4 1.303e+04 1.688e-09
 13.87224    133.0 1.268e+04 1.170e-09
 13.88334    133.0 1.303e+04 1.455e-09
 13.90402    132.1 1.264e+04 9.761e-10
 13.91513    132.1 1.290e+04 1.168e-09
 13.92642    131.0 1.249e+04 8.416e-10
 13.94691    130.1 1.205e+04 7.014e-10
 13.95801    130.4 1.235e+04 8.023e-10
 13.97083    129.9 1.203e+04 7.420e-10
 13.98980    129.7 1.194e+04 7.437e-10
 14.00090    130.1 1.222e+04 8.284e-10
 14.01525    130.0 1.219e+04 8.368e-10
 14.03268    129.8 1.217e+04 8.740e-10
 14.04379    130.4 1.258e+04 1.024e-09
 14.05966    130.1 1.259e+04 1.098e-09
 14.07557    129.8 1.254e+04 1.191e-09
 14.08667    130.3 1.338e+04 1.571e-09
 14.10407    129.9 1.340e+04 1.697e-09
 14.11846    129.7 1.332e+04 1.678e-09
 14.12956    129.7 1.469e+04 2.654e-09
 14.14848    129.3 1.450e+04 2.546e-09
 14.16135    129.2 1.415e+04 2.187e-09
 14.17245    128.9 1.550e+04 3.837e-09
 14.19206    128.7 1.496e+04 3.118e-09
 14.20317    129.8 1.368e+04 1.687e-09
 14.20423    129.4 1.335e+04 1.207e-09
 14.21534    129.0 1.433e+04 2.186e-09
 14.23602    128.6 1.389e+04 1.641e-09
 14.24712    128.2 1.462e+04 2.899e-09
 14.25952    128.0 1.425e+04 2.336e-09
 14.27890    128.0 1.386e+04 1.949e-09
 14.29001    128.3 1.452e+04 3.241e-09
 14.30393    128.2 1.418e+04 2.834e-09
 14.32179    128.0 1.391e+04 2.723e-09
 14.33289    128.6 1.438e+04 3.735e-09
 14.34834    128.5 1.416e+04 3.612e-09
 14.36468    128.2 1.432e+04 3.768e-09
 14.37578    129.1 1.425e+04 3.949e-09
 14.39276    128.9 1.403e+04 3.750e-09
 14.40757    128.7 1.453e+04 3.681e-09
 14.41867    129.6 1.376e+04 3.291e-09
 14.43717    129.3 1.451e+04 3.065e-09
 14.45045    128.1 1.565e+04 3.486e-09
 14.46156    129.7 1.453e+04 2.737e-09
 14.48158    128.2 1.587e+04 3.156e-09
 14.49334    126.3 1.640e+04 4.313e-09
 14.50444    128.4 1.594e+04 3.109e-09
 14.52479    126.8 1.626e+04 4.294e-09
 14.53502    126.2 1.712e+04 6.956e-09
 14.53623    128.3 1.721e+04 5.071e-09
 14.54820    126.8 1.705e+04 7.601e-09
 14.56801    127.0 1.653e+04 9.028e-09
 14.57911    127.7 1.691e+04 7.978e-09
 14.59262    128.2 1.637e+04 8.525e-09
 14.61090    129.4 1.595e+04 7.835e-09
 14.62200    129.6 1.613e+04 7.589e-09
 14.63703    131.0 1.549e+04 6.645e-09
 14.65379    132.6 1.455e+04 4.458e-09
 14.66489    132.5 1.494e+04 5.461e-09
 14.68144    133.8 1.417e+04 3.462e-09
 14.69667    134.2 1.331e+04 1.791e-09
 14.70778    134.9 1.389e+04 2.930e-09
 14.72586    135.1 1.314e+04 1.575e-09
 14.73956    135.0 1.235e+04 7.327e-10
 14.75066    136.4 1.312e+04 1.558e-09
 14.77027    136.3 1.234e+04 7.521e-10
 14.78245    136.1 1.134e+04 3.529e-10
 14.79355    138.1 1.250e+04 8.208e-10
 14.81423    137.6 1.144e+04 3.861e-10
 14.82533    139.9 1.264e+04 9.190e-10
 14.83689    139.7 1.159e+04 4.217e-10
 14.85712    139.0 1.041e+04 2.314e-10
 14.86665    141.5 1.176e+04 4.565e-10
 14.86863    140.6 1.088e+04 2.743e-10
 14.88130    140.2 1.000e+04 1.989e-10
 14.90001    140.4 9.783e+03 1.854e-10
 14.91111    141.5 1.001e+04 2.019e-10
 14.92572    142.0 9.983e+03 2.022e-10
 14.94289    142.5 9.974e+03 2.023e-10
 14.95400    143.4 1.004e+04 2.087e-10
 14.97013    144.0 1.013e+04 2.188e-10
 14.98578    144.4 1.020e+04 2.295e-10
 14.99688    145.4 1.025e+04 2.338e-10
 15.01454    146.0 1.034e+04 2.509e-10
 15.02867    146.4 1.052e+04 2.833e-10
 15.03977    147.6 1.059e+04 2.914e-10
 15.05896    148.1 1.085e+04 3.468e-10
 15.07155    148.3 1.120e+04 4.341e-10
 15.08266    149.6 1.122e+04 4.380e-10
 15.10334    149.7 1.167e+04 5.591e-10
 15.12555    150.4 1.244e+04 7.639e-10
 15.14623    148.5 1.384e+04 1.397e-09
 15.15733    150.1 1.386e+04 1.271e-09
 15.16999    147.8 1.536e+04 2.762e-09
 15.18911    146.4 1.647e+04 5.397e-09
 15.19828    147.7 1.660e+04 5.261e-09
 15.20136    147.7 1.614e+04 4.728e-09
 15.21440    147.0 1.642e+04 7.543e-09
 15.23200    146.8 1.620e+04 7.455e-09
 15.24310    147.4 1.674e+04 8.056e-09
 15.25881    147.3 1.610e+04 7.218e-09
 15.27489    147.1 1.532e+04 4.523e-09
 15.28599    147.2 1.566e+04 5.441e-09
 15.30323    145.7 1.519e+04 3.256e-09
 15.31778    142.0 1.456e+04 1.883e-09
 15.32888    143.5 1.504e+04 2.768e-09
 15.34764    139.8 1.427e+04 1.833e-09
 15.36066    136.4 1.321e+04 1.649e-09
 15.37177    138.6 1.440e+04 1.961e-09
 15.39205    135.5 1.329e+04 1.824e-09
 15.40355    133.6 1.298e+04 1.879e-09
 15.41465    134.6 1.331e+04 1.963e-09
 15.43533    132.5 1.319e+04 1.970e-09
 15.44644    133.4 1.346e+04 2.137e-09
 15.45867    131.2 1.335e+04 2.090e-09
 15.47822    129.4 1.286e+04 1.816e-09
 15.48932    130.5 1.372e+04 2.353e-09
 15.50309    128.8 1.282e+04 1.897e-09
 15.52111    127.4 1.192e+04 1.354e-09
 15.52991    128.7 1.287e+04 2.023e-09
 15.53409    128.9 1.260e+04 1.915e-09
 15.54750    127.0 1.209e+04 1.266e-09
 15.56400    123.2 1.215e+04 8.587e-10
 15.57510    124.2 1.285e+04 1.175e-09
 15.59191    120.1 1.175e+04 7.863e-10
 15.60688    117.2 1.052e+04 6.149e-10
 15.61799    117.3 1.069e+04 7.360e-10
 15.63633    115.5 1.084e+04 6.196e-10
 15.64977    112.5 1.193e+04 6.660e-10
 15.66087    111.6 1.309e+04 9.457e-10
 15.68074    106.0 1.450e+04 1.290e-09
 15.69266    101.5 1.376e+04 2.148e-09
 15.70376    101.0 1.450e+04 3.309e-09
 15.72444    100.5 1.483e+04 4.860e-09
 15.73554    100.7 1.546e+04 6.393e-09
 15.74736    101.2 1.569e+04 5.702e-09
 15.76733    100.5 1.564e+04 4.443e-09
 15.77843    100.2 1.568e+04 3.719e-09
 15.79177     97.4 1.458e+04 1.847e-09
 15.81022     94.9 1.346e+04 1.086e-09
 15.82132     94.1 1.284e+04 7.764e-10
 15.83619     91.2 1.212e+04 6.190e-10
 15.85310     88.9 1.176e+04 6.589e-10
 15.86153     88.9 1.136e+04 5.484e-10
 15.86682     88.9 1.120e+04 4.765e-10
 15.88060     88.6 1.130e+04 4.817e-10
 15.89599     87.6 1.131e+04 4.797e-10
 15.90709     88.6 1.108e+04 4.198e-10
 15.92501     88.1 1.128e+04 4.478e-10
 15.93888     87.4 1.171e+04 6.027e-10
 15.94998     88.6 1.154e+04 5.357e-10
 15.96943     88.3 1.164e+04 5.653e-10
 15.98186     87.5 1.200e+04 8.457e-10
 16.00417     91.0 1.176e+04 6.950e-10
 16.03614     92.1 1.179e+04 8.189e-10
 16.05644     91.3 1.228e+04 9.189e-10
 16.06754     93.1 1.225e+04 8.658e-10
 16.08046     86.9 1.766e+04 1.522e-09
 16.09932     79.4 2.022e+04 4.813e-09
 16.11043     79.8 2.143e+04 5.500e-09
 16.11927     76.6 2.020e+04 1.150e-08
 16.12622     75.3 1.960e+04 1.607e-08
 16.13177     75.9 1.980e+04 1.865e-08
 16.14143     75.6 1.925e+04 2.199e-08
 16.14766     75.5 1.898e+04 2.212e-08
 16.15322     76.3 1.930e+04 2.515e-08
 16.16356     76.7 1.987e+04 1.903e-08
 16.16911     77.5 2.043e+04 2.144e-08
 16.17474     76.9 2.274e+04 1.118e-08
 16.18500     70.0 2.469e+04 4.425e-09
 16.19055     70.4 2.605e+04 4.728e-09
 16.19390     57.5 1.840e+04 1.318e-09
 16.19946     55.1 1.546e+04 1.156e-09
 16.21365     50.5 1.134e+04 7.690e-10
 16.22798     48.1 1.025e+04 5.415e-10
 16.23909     47.6 1.027e+04 5.422e-10
 16.25811     46.4 9.983e+03 4.096e-10
 16.27087     45.1 9.743e+03 3.434e-10
 16.28198     44.8 9.714e+03 3.442e-10
 16.30275     44.3 9.542e+03 2.964e-10
 16.32496     43.9 9.530e+03 3.111e-10
 16.35814     43.5 9.507e+03 3.068e-10
 16.38863     42.5 9.419e+03 2.897e-10
 16.41083     42.2 9.610e+03 3.338e-10
 16.44706     40.8 9.543e+03 3.180e-10
 16.47440     39.3 9.489e+03 3.043e-10
 16.49661     38.6 9.714e+03 3.487e-10
 16.52138     36.7 9.690e+03 3.285e-10
 16.54358     37.3 9.477e+03 2.783e-10
 16.56017     35.2 9.467e+03 2.599e-10
 16.58238     33.8 9.740e+03 3.058e-10
 16.62374     31.5 9.761e+03 3.035e-10
 16.64595     30.5 9.962e+03 3.502e-10
 16.66913     28.4 9.934e+03 3.454e-10
 16.70952     26.4 9.931e+03 3.193e-10
 16.73163     24.3 1.027e+04 4.038e-10
 16.74666     22.9 1.025e+04 3.937e-10
 16.76331     22.3 1.030e+04 3.982e-10
 16.77442     19.6 1.063e+04 5.715e-10
 16.79107     18.6 1.066e+04 5.919e-10
 16.80620     17.6 1.079e+04 6.216e-10
 16.81730     14.4 1.167e+04 9.571e-10
 16.83548     12.9 1.211e+04 1.038e-09
 16.84909     11.2 1.257e+04 1.164e-09
 16.85641      6.5 1.376e+04 1.809e-09
 16.86502      7.1 1.379e+04 1.847e-09
 16.87990      5.4 1.407e+04 2.068e-09
 16.89197      4.0 1.428e+04 2.298e-09
 16.90308     -0.4 1.453e+04 2.534e-09
 16.92376     -1.4 1.449e+04 2.549e-09
 16.93486     -5.0 1.434e+04 2.372e-09
 16.94652     -5.3 1.422e+04 2.274e-09
 16.96665     -5.4 1.414e+04 2.147e-09
 16.98895    -10.1 1.314e+04 9.683e-10
 17.02443     -9.9 1.275e+04 6.381e-10
 17.05261     -9.9 1.203e+04 3.798e-10
 17.07482    -16.9 9.685e+03 2.523e-10
 17.11326    -16.5 9.516e+03 2.269e-10
 17.13839    -15.4 9.409e+03 1.999e-10
 17.16060    -18.0 9.415e+03 2.108e-10
 17.18684    -16.1 9.377e+03 1.918e-10
 17.20892    -16.5 9.707e+03 2.626e-10
 17.24637    -15.8 1.007e+04 3.083e-10
 17.28773    -13.9 1.013e+04 3.014e-10
 17.30984    -15.2 1.089e+04 4.862e-10
 17.32403    -14.4 1.101e+04 5.173e-10
 17.34153    -13.7 1.115e+04 5.550e-10
 17.35263    -15.2 1.159e+04 7.876e-10
 17.36844    -14.4 1.172e+04 8.321e-10
 17.38441    -13.6 1.196e+04 8.727e-10
 17.39552    -16.1 1.267e+04 8.920e-10
 17.42406    -15.9 1.249e+04 8.785e-10
 17.45928    -14.0 1.242e+04 8.768e-10
 17.48149    -18.0 1.242e+04 8.486e-10
 17.51298    -16.7 1.245e+04 9.504e-10
 17.54506    -15.5 1.289e+04 1.167e-09
 17.56726    -19.8 1.264e+04 1.062e-09
 17.60181    -18.3 1.306e+04 1.276e-09
 17.63083    -17.4 1.314e+04 1.345e-09
 17.65304    -20.6 1.218e+04 9.679e-10
 17.69063    -19.9 1.167e+04 8.512e-10
 17.71660    -19.1 1.097e+04 6.280e-10
 17.73881    -21.4 1.043e+04 5.001e-10
 17.77946    -20.3 1.025e+04 4.485e-10
 17.80238    -18.9 1.003e+04 3.683e-10
 17.82459    -20.2 1.021e+04 4.130e-10
 17.85230    -18.5 1.007e+04 3.473e-10
 17.87217    -18.1 9.840e+03 3.091e-10
 17.88815    -19.4 1.016e+04 3.605e-10
 17.91270    -18.1 1.013e+04 3.078e-10
 17.95172    -16.9 1.022e+04 2.788e-10
 17.97393    -18.9 1.045e+04 3.122e-10
 18.00152    -18.0 1.045e+04 3.015e-10
 18.03750    -17.0 1.045e+04 3.020e-10
 18.05970    -18.9 1.050e+04 3.725e-10
 18.09035    -17.7 1.048e+04 3.739e-10
 18.12327    -16.5 1.045e+04 3.843e-10
 18.14548    -17.6 1.056e+04 4.785e-10
 18.17918    -16.4 1.071e+04 5.361e-10
 18.20904    -15.4 1.089e+04 6.208e-10
 18.23125    -16.4 1.112e+04 7.254e-10
 18.26800    -15.5 1.158e+04 9.890e-10
 18.29482    -14.6 1.209e+04 1.331e-09
 18.31703    -15.6 1.203e+04 1.287e-09
 18.35683    -15.0 1.233e+04 1.522e-09
 18.38059    -14.6 1.237e+04 1.579e-09
 18.40280    -15.0 1.171e+04 1.115e-09
 18.44416    -14.2 1.135e+04 8.837e-10
 18.46637    -14.4 1.055e+04 4.929e-10
 18.49007    -13.8 1.012e+04 3.433e-10
 18.51776    -13.1 9.773e+03 2.456e-10
 18.53542    -14.0 9.659e+03 2.265e-10
 18.55214    -13.6 9.562e+03 2.193e-10
 18.57890    -12.8 9.614e+03 2.165e-10
 18.61571    -13.3 1.021e+04 2.379e-10
 18.63792    -12.7 1.014e+04 2.566e-10
 18.66772    -17.0 1.299e+04 7.296e-10
 18.70093    -18.9 1.416e+04 1.735e-09
 18.71239    -18.8 1.540e+04 4.581e-09
 18.72350    -18.4 1.491e+04 3.414e-09
 18.74418    -17.9 1.583e+04 6.393e-09
 18.75528    -17.9 1.513e+04 4.356e-09
 18.76746    -17.5 1.578e+04 6.451e-09
 18.78706    -17.3 1.597e+04 7.149e-09
 18.79817    -17.6 1.530e+04 5.431e-09
 18.81187    -17.7 1.531e+04 5.566e-09
 18.82995    -17.7 1.487e+04 4.306e-09
 18.84105    -18.1 1.441e+04 3.727e-09
 18.85030    -18.4 1.383e+04 2.473e-09
 18.86140    -20.4 1.296e+04 1.533e-09
 18.87284    -21.6 1.195e+04 9.818e-10
 18.89514    -20.3 1.211e+04 1.082e-09
 18.93420    -21.1 1.050e+04 5.023e-10
 18.95881    -20.6 9.673e+03 3.038e-10
 18.98101    -19.7 9.518e+03 2.772e-10
 19.02238    -19.3 9.062e+03 1.855e-10
 19.04458    -18.5 9.049e+03 1.758e-10
 19.06744    -17.6 8.772e+03 1.354e-10
 19.10815    -16.3 8.660e+03 1.260e-10
 19.13036    -15.9 8.571e+03 1.111e-10
 19.15627    -14.6 8.520e+03 1.060e-10
 19.18323    -13.3 8.510e+03 1.060e-10
 19.19868    -14.0 8.524e+03 1.058e-10
 19.21613    -13.9 8.422e+03 9.616e-11
 19.24509    -12.8 8.437e+03 9.660e-11
 19.27970    -11.8 8.523e+03 1.052e-10
 19.30191    -11.9 8.532e+03 1.059e-10
 19.33392    -11.8 8.780e+03 1.365e-10
 19.36547    -12.4 9.292e+03 2.137e-10
 19.38768    -14.4 1.001e+04 3.629e-10
 19.42275    -15.4 1.082e+04 6.941e-10
 19.45125    -16.4 1.141e+04 1.050e-09
 19.47346    -18.2 1.183e+04 1.376e-09
 19.51157    -20.0 1.158e+04 1.104e-09
 19.53702    -22.5 1.071e+04 5.351e-10
 19.55923    -25.0 1.009e+04 3.225e-10
 19.60040    -28.3 9.042e+03 1.453e-10
 19.64481    -30.3 8.651e+03 9.519e-11
 19.68637    -31.0 8.675e+03 9.478e-11
 19.70857    -31.3 8.702e+03 9.066e-11
 19.73364    -33.4 9.357e+03 1.666e-10
 19.77214    -34.9 1.008e+04 3.874e-10
 19.79435    -34.9 1.002e+04 3.965e-10
 19.82247    -35.7 1.052e+04 6.274e-10
 19.84869    -36.8 1.070e+04 6.984e-10
 19.86193    -36.7 1.048e+04 5.970e-10
 19.88012    -36.6 1.029e+04 5.270e-10
 19.91129    -37.4 1.014e+04 4.285e-10
 19.94369    -38.2 9.833e+03 2.926e-10
 19.96590    -37.8 9.649e+03 2.272e-10
 20.00012    -38.5 9.575e+03 2.032e-10
 20.02946    -38.9 9.596e+03 2.064e-10
 20.05167    -38.6 9.539e+03 1.834e-10
 20.08894    -38.9 9.879e+03 2.648e-10
 20.11524    -39.1 1.025e+04 3.580e-10
 20.13744    -38.4 1.016e+04 3.287e-10
 20.17777    -38.9 1.049e+04 3.913e-10
 20.20101    -39.8 1.068e+04 4.156e-10
 20.22322    -39.1 1.065e+04 3.958e-10
 20.26458    -40.1 1.076e+04 4.197e-10
 20.28679    -39.3 1.082e+04 4.289e-10
 20.31101    -40.3 1.091e+04 4.624e-10
 20.35035    -41.3 1.088e+04 4.493e-10
 20.37256    -40.3 1.117e+04 5.749e-10
 20.38864    -41.6 1.092e+04 5.131e-10
 20.40415    -42.2 1.069e+04 4.446e-10
 20.41525    -41.8 1.079e+04 5.230e-10
 20.43603    -42.6 1.045e+04 3.797e-10
 20.45824    -42.3 1.037e+04 4.019e-10
 20.48857    -42.7 1.011e+04 3.265e-10
 20.51415    -43.5 9.708e+03 2.371e-10
 20.52519    -43.5 9.781e+03 2.558e-10
 20.54411    -42.9 9.681e+03 2.486e-10
 20.57749    -43.6 9.334e+03 1.824e-10
 20.60768    -44.2 9.247e+03 1.683e-10
 20.62988    -43.5 9.159e+03 1.674e-10
 20.66632    -43.7 9.182e+03 1.729e-10
 20.69345    -43.9 9.419e+03 2.212e-10
 20.71566    -43.0 9.376e+03 2.245e-10
 20.75514    -43.0 9.562e+03 2.735e-10
 20.77923    -42.9 9.645e+03 2.909e-10
 20.80143    -42.0 9.536e+03 2.856e-10
 20.84280    -41.8 9.488e+03 2.744e-10
 20.86500    -41.0 9.358e+03 2.641e-10
 20.88838    -40.4 9.071e+03 2.060e-10
 20.92857    -39.6 8.796e+03 1.577e-10
 20.95078    -39.1 8.800e+03 1.608e-10
 20.97721    -38.1 8.623e+03 1.292e-10
 21.01434    -36.9 8.523e+03 1.104e-10
 21.03655    -36.6 8.624e+03 1.388e-10
 21.06603    -35.3 8.585e+03 1.308e-10
 21.10012    -34.0 8.585e+03 1.275e-10
 21.12233    -33.8 8.872e+03 1.904e-10
 21.15486    -32.4 8.925e+03 1.927e-10
 21.17961    -31.1 9.052e+03 2.014e-10
 21.18844    -30.5 8.966e+03 1.761e-10
 21.20810    -30.8 9.455e+03 2.820e-10
 21.24369    -29.9 9.659e+03 3.041e-10
 21.27167    -29.3 9.926e+03 3.555e-10
 21.28267    -30.7 1.029e+04 4.960e-10
 21.29901    -30.6 1.045e+04 5.565e-10
 21.31436    -30.6 1.065e+04 6.646e-10
 21.32546    -31.4 1.092e+04 8.376e-10
 21.34342    -31.0 1.102e+04 9.022e-10
 21.35725    -30.6 1.105e+04 9.322e-10
 21.36835    -31.3 1.115e+04 9.644e-10
 21.38784    -30.8 1.107e+04 8.890e-10
 21.40013    -30.4 1.093e+04 7.834e-10
 21.41124    -31.3 1.093e+04 7.714e-10
 21.43192    -30.9 1.073e+04 6.545e-10
 21.44302    -31.7 1.073e+04 6.634e-10
 21.45445    -31.2 1.053e+04 5.552e-10
 21.47481    -30.7 1.037e+04 4.601e-10
 21.48591    -31.2 1.040e+04 4.926e-10
 21.50669    -30.1 1.033e+04 3.961e-10
 21.52889    -30.0 1.033e+04 4.143e-10
 21.55448    -29.4 1.039e+04 3.910e-10
 21.59256    -28.0 1.030e+04 3.223e-10
 21.61477    -28.2 1.043e+04 3.607e-10
 21.64341    -26.4 1.029e+04 2.868e-10
 21.67833    -24.5 1.018e+04 2.159e-10
 21.70054    -24.7 1.030e+04 2.397e-10
 21.73223    -22.8 1.025e+04 1.951e-10
 21.76411    -20.9 1.024e+04 1.746e-10
 21.78631    -20.9 1.037e+04 2.017e-10
 21.82106    -19.0 1.039e+04 1.996e-10
 21.84508    -16.9 1.045e+04 2.123e-10
 21.85169    -16.3 1.045e+04 2.193e-10
 21.87209    -16.2 1.061e+04 2.491e-10
 21.90989    -14.1 1.063e+04 2.609e-10
 21.93566    -12.0 1.067e+04 2.739e-10
 21.95786    -11.8 1.069e+04 2.679e-10
 21.99871     -9.7 1.071e+04 2.780e-10
 22.02143     -7.8 1.071e+04 2.901e-10
 22.04364     -7.6 1.071e+04 2.578e-10
 22.08500     -5.8 1.071e+04 2.819e-10
 22.10721     -5.5 1.067e+04 2.495e-10
 22.13195     -3.6 1.070e+04 2.879e-10
 22.17077     -1.8 1.068e+04 3.098e-10
 22.19298     -1.4 1.070e+04 3.050e-10
 22.22078      0.4 1.068e+04 3.119e-10
 22.25655      2.3 1.050e+04 2.778e-10
 22.27876      2.5 1.059e+04 2.999e-10
 22.30960      4.4 1.039e+04 2.282e-10
 22.34232      6.1 1.023e+04 1.649e-10
 22.36453      6.3 1.041e+04 2.110e-10
 22.39843      7.9 1.031e+04 1.588e-10
 22.42810      9.5 1.024e+04 1.439e-10
 22.45030      9.6 1.053e+04 2.002e-10
 22.48726     11.4 1.052e+04 1.920e-10
 22.51054     13.2 1.058e+04 2.079e-10
 22.51495     13.0 1.069e+04 2.527e-10
 22.53608     12.9 1.085e+04 3.562e-10
 22.57608     14.7 1.093e+04 3.928e-10
 22.59965     16.5 1.105e+04 4.759e-10
 22.62185     16.2 1.103e+04 4.617e-10
 22.66321     18.3 1.119e+04 5.484e-10
 22.68542     17.7 1.100e+04 4.225e-10
 22.70932     19.5 1.114e+04 4.623e-10
 22.74899     21.3 1.121e+04 4.894e-10
 22.77120     20.4 1.074e+04 3.374e-10
 22.79815     22.0 1.079e+04 3.498e-10
 22.83476     23.5 1.084e+04 3.665e-10
 22.85697     22.7 1.040e+04 2.944e-10
 22.88698     24.0 1.044e+04 2.875e-10
 22.92054     25.5 1.059e+04 3.033e-10
 22.94274     24.6 1.032e+04 2.864e-10
 22.97580     25.8 1.043e+04 3.083e-10
 23.00631     27.0 1.055e+04 3.524e-10
 23.02852     26.1 1.039e+04 3.491e-10
 23.06463     27.3 1.060e+04 4.117e-10
 23.09209     28.0 1.119e+04 5.519e-10
 23.11429     26.5 1.114e+04 5.409e-10
 23.15345     26.1 1.174e+04 8.460e-10
 23.17600     26.2 1.244e+04 1.343e-09
 23.17820     24.6 1.257e+04 1.541e-09
 23.20007     23.6 1.215e+04 1.335e-09
 23.24143     24.2 1.205e+04 1.143e-09
 23.26364     22.7 1.147e+04 7.726e-10
 23.28669     21.8 1.082e+04 4.481e-10
 23.32720     20.9 1.056e+04 3.961e-10
 23.34941     19.6 1.052e+04 3.997e-10
 23.37552     19.9 1.063e+04 4.874e-10
 23.41298     21.0 1.098e+04 6.913e-10
 23.43518     20.3 1.069e+04 6.257e-10
 23.46435     21.9 1.097e+04 7.192e-10
 23.49875     22.8 1.125e+04 7.046e-10
 23.52096     22.4 1.045e+04 3.641e-10
 23.55317     22.4 1.034e+04 3.076e-10
 23.58453     22.5 1.025e+04 3.095e-10
 23.60673     21.4 9.877e+03 2.130e-10
 23.64200     22.8 1.011e+04 3.481e-10
 23.67030     24.6 1.057e+04 4.921e-10
 23.69251     23.4 1.070e+04 5.219e-10
 23.73083     23.6 1.179e+04 9.414e-10
 23.75598     22.1 1.294e+04 1.568e-09
 23.76698     20.8 1.284e+04 1.508e-09
 23.78615     19.9 1.369e+04 2.071e-09
 23.79877     18.7 1.470e+04 3.405e-09
 23.80987     19.2 1.363e+04 1.824e-09
 23.83017     19.5 1.409e+04 1.989e-09
 23.84126     19.7 1.442e+04 1.906e-09
 23.86396     15.1 1.171e+04 7.620e-10
 23.90542     13.7 1.052e+04 4.226e-10
 23.92763     12.1 9.961e+03 3.455e-10
 23.95289     11.8 9.450e+03 2.118e-10
 23.99119     12.4 9.059e+03 1.584e-10
 24.01340     12.4 9.085e+03 1.727e-10
 24.04172     13.7 8.981e+03 1.560e-10
 24.07697     15.2 8.972e+03 1.390e-10
 24.09917     14.8 9.079e+03 1.758e-10
 24.13055     15.9 9.094e+03 1.476e-10
 24.16274     16.8 9.132e+03 1.390e-10
 24.18495     16.6 9.080e+03 1.616e-10
 24.21937     17.8 9.073e+03 1.465e-10
 24.24852     18.8 9.142e+03 1.381e-10
 24.27072     18.6 9.165e+03 1.474e-10
 24.30820     19.4 9.155e+03 1.452e-10
 24.33429     20.6 9.093e+03 1.543e-10
 24.35650     21.1 9.093e+03 1.765e-10
 24.39702     22.7 9.026e+03 1.692e-10
 24.42007     24.5 8.933e+03 1.502e-10
 24.44227     25.2 8.952e+03 1.509e-10
 24.48363     26.5 8.937e+03 1.151e-10
 24.50471     27.1 8.947e+03 1.162e-10
 24.50693     26.6 8.974e+03 1.172e-10
 24.53026     27.9 8.950e+03 1.147e-10
 24.56941     29.0 8.959e+03 1.295e-10
 24.59161     29.9 8.935e+03 1.413e-10
 24.61909     31.8 8.975e+03 1.577e-10
 24.65518     33.6 9.012e+03 1.612e-10
 24.67739     34.7 9.044e+03 1.599e-10
 24.70792     36.6 9.012e+03 1.473e-10
 24.74096     38.2 9.011e+03 1.260e-10
 24.76316     39.2 9.022e+03 1.285e-10
 24.79674     40.6 9.034e+03 1.132e-10
 24.82673     42.0 9.036e+03 1.124e-10
 24.84894     43.1 9.052e+03 1.191e-10
 24.88557     44.7 9.066e+03 1.196e-10
 24.91251     46.4 9.101e+03 1.229e-10
 24.93471     47.6 9.121e+03 1.284e-10
 24.97440     49.1 9.169e+03 1.293e-10
 24.99828     50.5 9.243e+03 1.347e-10
 25.02049     51.7 9.250e+03 1.359e-10
 25.06185     53.2 9.271e+03 1.434e-10
 25.08405     54.2 9.286e+03 1.481e-10
 25.10764     55.6 9.265e+03 1.586e-10
 25.14762     57.0 9.212e+03 1.745e-10
 25.16796     57.8 9.257e+03 1.794e-10
 25.17239     58.4 9.271e+03 1.777e-10
 25.19646     59.9 9.224e+03 1.913e-10
 25.23340     61.5 9.189e+03 1.970e-10
 25.25560     62.1 9.385e+03 2.403e-10
 25.28529     63.7 9.353e+03 2.398e-10
 25.31917     65.4 9.251e+03 2.212e-10
 25.34138     65.9 9.389e+03 2.736e-10
 25.37411     67.3 9.182e+03 2.234e-10
 25.40495     68.6 8.994e+03 1.768e-10
 25.42715     68.8 9.003e+03 1.851e-10
 25.46294     70.0 8.847e+03 1.592e-10
 25.49072     71.3 8.759e+03 1.459e-10
 25.51293     71.4 8.715e+03 1.439e-10
 25.55177     73.0 8.626e+03 1.369e-10
 25.57650     74.7 8.570e+03 1.302e-10
 25.59870     75.1 8.468e+03 1.278e-10
 25.64006     76.9 8.393e+03 1.144e-10
 25.66227     77.6 8.396e+03 1.167e-10
 25.68501     79.2 8.297e+03 9.707e-11
 25.72584     80.6 8.161e+03 8.173e-11
 25.74804     81.6 8.181e+03 8.784e-11
 25.77383     83.0 8.053e+03 8.216e-11
 25.81161     84.5 8.050e+03 8.363e-11
 25.83122     85.3 8.194e+03 1.011e-10
 25.83785     85.9 8.116e+03 8.254e-11
 25.86266     87.4 8.123e+03 9.105e-11
 25.89739     89.0 8.217e+03 1.094e-10
 25.91959     89.7 8.435e+03 1.362e-10
 25.95149     91.1 8.538e+03 1.561e-10
 25.98316     92.4 8.632e+03 1.725e-10
 26.00537     92.8 8.867e+03 2.120e-10
 26.04031     93.8 8.920e+03 2.233e-10
 26.06894     94.7 9.063e+03 2.578e-10
 26.09114     94.8 9.207e+03 2.853e-10
 26.12914     95.3 9.386e+03 3.315e-10
 26.15471     95.6 9.627e+03 4.154e-10
 26.17692     95.7 9.630e+03 3.960e-10
 26.21797     95.8 9.732e+03 4.458e-10
 26.24048     95.7 9.693e+03 4.428e-10
 26.26269     96.4 9.762e+03 4.350e-10
 26.30405     96.6 9.628e+03 4.069e-10
 26.32626     97.5 9.686e+03 4.083e-10
 26.35120     97.8 9.503e+03 3.577e-10
 26.38983     98.0 9.486e+03 3.446e-10
 26.41203     98.8 9.755e+03 3.861e-10
 26.42883     98.3 9.690e+03 3.929e-10
 26.44362     98.3 9.704e+03 4.168e-10
 26.45473     98.9 9.938e+03 4.951e-10
 26.47315     99.2 1.014e+04 5.948e-10
 26.48651     99.2 1.035e+04 7.054e-10
 26.49428    100.0 1.068e+04 8.278e-10
 26.50312     99.9 1.091e+04 9.293e-10
 26.51756     98.8 1.178e+04 1.233e-09
 26.52940     96.3 1.341e+04 2.049e-09
 26.54050     96.9 1.390e+04 2.507e-09
 26.56118     94.8 1.540e+04 4.526e-09
 26.57228     95.8 1.587e+04 5.403e-09
 26.58418     94.9 1.692e+04 8.500e-09
 26.60407     93.9 1.749e+04 9.810e-09
 26.61517     94.8 1.788e+04 1.076e-08
 26.62859     93.6 1.780e+04 1.017e-08
 26.64695     92.5 1.723e+04 7.608e-09
 26.65801     92.9 1.713e+04 7.381e-09
 26.67296     91.2 1.647e+04 5.093e-09
 26.68984     87.0 1.570e+04 3.488e-09
 26.70095     88.1 1.604e+04 3.815e-09
 26.71742     83.9 1.608e+04 3.755e-09
 26.73273     79.9 1.628e+04 4.216e-09
 26.74383     80.8 1.683e+04 4.816e-09
 26.75412     77.5 1.716e+04 5.731e-09
 26.75963     78.2 1.734e+04 5.813e-09
 26.76729     76.6 1.756e+04 6.607e-09
 26.77552     73.6 1.847e+04 8.940e-09
 26.78107     73.1 1.932e+04 1.049e-08
 26.78949     70.0 2.038e+04 1.476e-08
 26.79696     67.0 2.104e+04 2.193e-08
 26.80251     66.5 2.172e+04 2.924e-08
 26.81170     65.1 2.139e+04 4.475e-08
 26.81841     64.4 2.165e+04 5.876e-08
 26.82396     64.4 2.170e+04 7.649e-08
 26.83020     63.3 2.171e+04 7.278e-08
 26.83575     63.7 2.204e+04 8.926e-08
 26.83985     63.7 2.152e+04 6.131e-08
 26.84540     63.9 2.138e+04 5.867e-08
 26.85574     63.2 2.119e+04 3.290e-08
 26.86129     63.0 2.141e+04 2.862e-08
 26.87282     55.5 2.281e+04 1.263e-08
 26.89318     41.0 2.180e+04 6.970e-09
 26.90428     36.1 1.918e+04 5.421e-09
 26.91168     30.6 1.680e+04 5.668e-09
 26.92007     29.7 1.652e+04 5.705e-09
 26.92562     29.0 1.581e+04 5.286e-09
 26.93383     27.9 1.593e+04 5.924e-09
 26.94152     27.5 1.617e+04 6.207e-09
 26.94707     27.0 1.621e+04 5.659e-09
 26.95604     25.4 1.684e+04 5.781e-09
 26.96296     24.2 1.740e+04 5.890e-09
 26.96851     22.4 1.776e+04 5.313e-09
 26.97825     17.8 1.804e+04 4.833e-09
 26.98440     15.7 1.850e+04 5.012e-09
 26.98996     12.1 1.795e+04 4.803e-09
 27.00606      6.2 1.595e+04 4.403e-09
 27.02184      4.2 1.533e+04 4.492e-09
 27.03294      2.8 1.534e+04 4.920e-09
 27.05052      3.3 1.486e+04 4.287e-09
 27.06472      4.0 1.450e+04 3.002e-09
 27.07583      2.8 1.436e+04 2.762e-09
 27.09493      1.4 1.363e+04 1.552e-09
 27.10761     -3.4 1.170e+04 8.517e-10
 27.11871     -4.3 1.159e+04 8.588e-10
 27.13934     -5.5 1.070e+04 6.497e-10
 27.15748     -5.0 1.065e+04 6.591e-10
 27.16858     -4.5 1.066e+04 6.633e-10
 27.18228     -4.2 1.051e+04 6.273e-10
 27.19339     -3.9 1.077e+04 7.108e-10
 27.20596     -3.4 1.063e+04 6.571e-10
 27.22517     -2.9 1.041e+04 5.879e-10
 27.23627     -2.8 1.078e+04 7.119e-10
 27.25038     -2.3 1.055e+04 6.257e-10
 27.26806     -1.9 1.023e+04 5.157e-10
 27.27916     -1.8 1.069e+04 6.872e-10
 27.29479     -1.3 1.036e+04 5.422e-10
 27.31094     -1.2 9.954e+03 4.140e-10
 27.32205     -0.7 1.042e+04 5.673e-10
 27.33920     -0.6 9.974e+03 4.190e-10
 27.35383     -1.2 9.572e+03 3.348e-10
 27.36493     -0.9 1.016e+04 4.500e-10
 27.38362     -2.9 1.023e+04 4.277e-10
 27.39672     -6.4 1.119e+04 5.366e-10
 27.40782     -7.3 1.176e+04 7.729e-10
 27.42803     -9.7 1.197e+04 1.178e-09
 27.43961    -10.1 1.209e+04 1.635e-09
 27.45071     -9.3 1.228e+04 1.859e-09
 27.47139     -9.0 1.233e+04 1.975e-09
 27.48249     -8.3 1.239e+04 1.968e-09
 27.49021     -7.6 1.214e+04 1.507e-09
 27.50131     -7.4 1.209e+04 1.523e-09
 27.51428     -7.4 1.170e+04 8.768e-10
 27.52538     -8.4 1.166e+04 6.742e-10
 27.53906    -13.9 1.067e+04 3.653e-10
 27.55716    -19.0 9.757e+03 2.909e-10
 27.56827    -20.0 9.626e+03 2.896e-10
 27.58348    -22.1 9.801e+03 3.415e-10
 27.60005    -23.5 1.021e+04 5.118e-10
 27.61115    -23.6 1.025e+04 5.646e-10
 27.62789    -24.0 1.049e+04 7.108e-10
 27.64294    -24.2 1.061e+04 7.813e-10
 27.65404    -24.0 1.054e+04 7.592e-10
 27.67230    -24.2 1.053e+04 7.338e-10
 27.68583    -24.8 1.020e+04 5.637e-10
 27.69693    -24.9 1.004e+04 5.052e-10
 27.71771    -26.5 9.530e+03 3.713e-10
 27.74001    -26.4 9.265e+03 3.313e-10
 27.77243    -27.2 8.672e+03 2.405e-10
 27.80358    -27.5 8.422e+03 2.018e-10
 27.82098    -26.4 8.476e+03 2.155e-10
 27.83424    -25.2 8.216e+03 1.739e-10
 27.86125    -25.4 8.168e+03 1.686e-10
 27.88935    -25.8 8.576e+03 2.221e-10
 27.91156    -24.1 8.674e+03 2.436e-10
 27.95008    -24.4 9.435e+03 3.868e-10
 27.97503    -24.5 9.964e+03 5.492e-10
 27.98604    -23.9 9.987e+03 5.532e-10
 28.00540    -24.0 1.043e+04 7.207e-10
 28.01782    -24.0 1.082e+04 8.930e-10
 28.02892    -23.3 1.091e+04 9.221e-10
 28.04960    -23.5 1.126e+04 1.081e-09
 28.06071    -22.8 1.140e+04 1.157e-09
 28.07202    -23.1 1.162e+04 1.302e-09
 28.09249    -23.3 1.167e+04 1.339e-09
 28.10360    -22.6 1.202e+04 1.559e-09
 28.11643    -22.7 1.202e+04 1.559e-09
 28.13538    -23.0 1.186e+04 1.368e-09
 28.14648    -22.4 1.246e+04 1.752e-09
 28.15567    -23.2 1.222e+04 1.459e-09
 28.16678    -22.3 1.242e+04 1.651e-09
 28.17827    -23.3 1.218e+04 1.404e-09
 28.18937    -23.3 1.311e+04 2.005e-09
 28.20526    -24.8 1.294e+04 1.786e-09
 28.22115    -26.4 1.280e+04 1.687e-09
 28.23226    -27.5 1.448e+04 2.762e-09
 28.24967    -29.0 1.436e+04 2.771e-09
 28.26404    -29.8 1.420e+04 2.895e-09
 28.27514    -31.0 1.542e+04 4.886e-09
 28.29409    -31.1 1.534e+04 4.940e-09
 28.30693    -30.5 1.486e+04 4.550e-09
 28.31803    -30.8 1.570e+04 6.521e-09
 28.33850    -30.4 1.505e+04 4.822e-09
 28.34982    -30.8 1.509e+04 3.589e-09
 28.36092    -32.5 1.655e+04 4.933e-09
 28.38160    -36.0 1.777e+04 4.853e-09
 28.39270    -38.5 1.966e+04 4.906e-09
 28.40512    -42.5 1.949e+04 5.274e-09
 28.42449    -44.9 1.861e+04 5.760e-09
 28.43559    -46.5 1.823e+04 5.638e-09
 28.44953    -46.9 1.693e+04 6.064e-09
 28.46737    -46.2 1.525e+04 4.802e-09
 28.47848    -46.6 1.480e+04 3.968e-09
 28.48840    -46.3 1.374e+04 2.615e-09
 28.49951    -46.9 1.423e+04 2.780e-09
 28.51026    -47.7 1.306e+04 1.623e-09
 28.52136    -49.4 1.260e+04 1.369e-09
 28.53836    -50.1 1.165e+04 9.837e-10
 28.55315    -50.3 1.110e+04 8.051e-10
 28.56425    -50.3 1.120e+04 9.158e-10
 28.58277    -49.8 1.106e+04 8.668e-10
 28.59604    -49.3 1.100e+04 8.562e-10
 28.60714    -49.2 1.129e+04 1.031e-09
 28.62719    -48.7 1.127e+04 1.027e-09
 28.63892    -48.3 1.127e+04 1.030e-09
 28.65003    -48.2 1.150e+04 1.195e-09
 28.67071    -47.9 1.147e+04 1.185e-09
 28.68181    -48.0 1.152e+04 1.243e-09
 28.69381    -47.7 1.145e+04 1.215e-09
 28.71359    -47.5 1.139e+04 1.191e-09
 28.72470    -47.6 1.135e+04 1.173e-09
 28.73822    -47.5 1.128e+04 1.145e-09
 28.75648    -47.3 1.118e+04 1.104e-09
 28.76758    -47.5 1.106e+04 1.055e-09
 28.78263    -47.4 1.093e+04 1.009e-09
 28.79937    -47.2 1.071e+04 9.127e-10
 28.81047    -47.2 1.054e+04 8.619e-10
 28.82114    -46.8 1.024e+04 7.369e-10
 28.83224    -46.5 1.049e+04 8.347e-10
 28.84226    -46.1 1.015e+04 6.945e-10
 28.85336    -46.0 1.006e+04 6.677e-10
 28.87146    -45.8 9.766e+03 5.410e-10
 28.88514    -45.7 9.475e+03 4.379e-10
 28.89634    -46.0 9.574e+03 4.548e-10
 28.92717    -45.7 9.187e+03 3.487e-10
 28.96001    -45.4 8.860e+03 2.806e-10
 28.98222    -45.6 9.132e+03 3.308e-10
 29.01600    -45.9 9.060e+03 3.260e-10
 29.04578    -47.4 9.311e+03 3.767e-10
 29.05679    -48.1 1.014e+04 5.203e-10
 29.07132    -48.9 1.061e+04 6.612e-10
 29.10472    -49.5 1.125e+04 9.731e-10
 29.13156    -49.6 1.168e+04 1.380e-09
 29.14256    -50.4 1.245e+04 1.829e-09
 29.15387    -50.3 1.237e+04 1.820e-09
 29.16497    -51.4 1.279e+04 2.211e-09
 29.17425    -51.4 1.257e+04 2.000e-09
 29.18535    -52.1 1.294e+04 2.172e-09
 29.20456    -52.6 1.271e+04 1.954e-09
 29.21714    -53.0 1.253e+04 1.776e-09
 29.22824    -54.0 1.268e+04 1.931e-09
 29.24892    -54.4 1.244e+04 1.809e-09
 29.27113    -55.2 1.234e+04 1.902e-09
 29.29181    -55.2 1.216e+04 1.766e-09
 29.30291    -55.5 1.230e+04 1.919e-09
 29.31559    -55.4 1.213e+04 1.762e-09
 29.33470    -55.4 1.200e+04 1.642e-09
 29.34580    -55.6 1.198e+04 1.590e-09
 29.36000    -55.7 1.193e+04 1.521e-09
 29.37758    -55.8 1.193e+04 1.504e-09
 29.38869    -56.1 1.183e+04 1.370e-09
 29.40442    -56.2 1.185e+04 1.378e-09
 29.42047    -56.4 1.194e+04 1.455e-09
 29.43157    -56.5 1.166e+04 1.183e-09
 29.44883    -56.5 1.177e+04 1.287e-09
 29.46336    -56.3 1.188e+04 1.397e-09
 29.47446    -56.5 1.155e+04 1.023e-09
 29.48660    -56.2 1.165e+04 1.112e-09
 29.49770    -56.5 1.113e+04 7.381e-10
 29.50625    -56.3 1.124e+04 8.123e-10
 29.51735    -57.1 1.095e+04 5.640e-10
 29.53766    -56.8 1.104e+04 6.406e-10
 29.54913    -56.4 1.116e+04 7.156e-10
 29.56024    -57.5 1.095e+04 5.471e-10
 29.58092    -57.2 1.116e+04 6.330e-10
 29.59202    -58.4 1.105e+04 5.764e-10
 29.60428    -58.2 1.130e+04 7.005e-10
 29.62380    -58.0 1.152e+04 8.268e-10
 29.63491    -58.9 1.151e+04 8.711e-10
 29.64869    -58.5 1.162e+04 1.002e-09
 29.66669    -58.0 1.166e+04 1.077e-09
 29.67779    -58.6 1.162e+04 1.071e-09
 29.69310    -57.9 1.145e+04 1.068e-09
 29.70958    -56.9 1.110e+04 9.557e-10
 29.72068    -57.2 1.081e+04 7.824e-10
 29.73752    -56.4 1.058e+04 5.949e-10
 29.75247    -55.9 1.047e+04 4.338e-10
 29.76357    -57.1 1.043e+04 3.130e-10
 29.78193    -57.4 1.039e+04 2.366e-10
 29.79535    -57.8 1.028e+04 2.057e-10
 29.80646    -59.6 1.018e+04 1.852e-10
 29.81933    -60.0 1.027e+04 2.010e-10
 29.83043    -58.6 1.049e+04 2.057e-10
 29.83824    -59.2 1.072e+04 2.333e-10
 29.84934    -63.1 1.124e+04 3.280e-10
 29.87002    -63.5 1.129e+04 4.368e-10
 29.88113    -65.7 1.149e+04 7.515e-10
 29.89296    -65.2 1.160e+04 9.142e-10
 29.91291    -64.5 1.176e+04 1.044e-09
 29.92401    -66.1 1.241e+04 1.346e-09
 29.93737    -65.6 1.247e+04 1.331e-09
 29.95580    -65.4 1.258e+04 1.220e-09
 29.96690    -68.8 1.290e+04 1.330e-09
 29.98179    -69.8 1.295e+04 1.299e-09
 29.99869    -71.0 1.315e+04 1.303e-09
 30.00979    -74.6 1.330e+04 1.513e-09
 30.02620    -75.2 1.330e+04 1.684e-09
 30.04157    -75.5 1.322e+04 1.843e-09
 30.05268    -77.9 1.314e+04 2.068e-09
 30.07061    -78.0 1.312e+04 2.104e-09
 30.08446    -79.4 1.402e+04 2.185e-09
 30.09556    -86.7 1.816e+04 2.552e-09
 30.11503    -93.7 2.117e+04 3.520e-09
 30.12735   -100.5 2.068e+04 5.262e-09
 30.13845   -108.2 1.853e+04 6.794e-09
 30.15206   -111.6 1.776e+04 7.435e-09
 30.16285   -110.7 1.910e+04 1.075e-08
 30.17023   -115.2 1.743e+04 8.982e-09
 30.18165   -118.0 1.694e+04 6.314e-09
 30.20202   -122.2 1.602e+04 3.573e-09
 30.21312   -128.6 1.360e+04 1.647e-09
 30.22606   -132.9 1.189e+04 1.031e-09
 30.24491   -135.1 1.128e+04 8.531e-10
 30.25601   -136.6 1.097e+04 7.464e-10
 30.27047   -137.3 1.091e+04 7.178e-10
 30.28779   -137.8 1.083e+04 6.873e-10
 30.29890   -138.6 1.058e+04 6.034e-10
 30.31489   -138.8 1.046e+04 5.671e-10
 30.33068   -138.9 1.036e+04 5.370e-10
 30.34178   -139.3 1.004e+04 4.432e-10
 30.35930   -139.4 9.972e+03 4.237e-10
 30.37357   -139.3 9.947e+03 4.167e-10
 30.39587   -139.6 9.676e+03 3.400e-10
 30.43722   -139.4 9.749e+03 3.592e-10
 30.47388   -139.5 9.641e+03 3.382e-10
 30.49609   -139.2 9.732e+03 3.606e-10
 30.52311   -138.5 9.938e+03 4.368e-10
 30.54531   -138.5 9.600e+03 3.454e-10
 30.57046   -137.5 9.877e+03 4.289e-10
 30.60888   -136.5 1.002e+04 4.783e-10
 30.63109   -136.5 9.652e+03 3.671e-10
 30.65928   -135.6 9.706e+03 3.778e-10
 30.69465   -134.9 9.667e+03 3.665e-10
 30.71686   -135.1 9.236e+03 2.621e-10
 30.74811   -134.7 9.318e+03 2.647e-10
 30.78043   -135.0 9.717e+03 3.134e-10
 30.80264   -135.9 9.835e+03 3.118e-10
 30.81762   -136.2 1.034e+04 4.629e-10
 30.82611   -135.6 1.013e+04 3.986e-10
 30.83422   -136.0 1.035e+04 4.524e-10
 30.84785   -136.0 1.052e+04 5.266e-10
 30.86601   -136.0 1.081e+04 6.683e-10
 30.87711   -136.2 1.085e+04 6.990e-10
 30.89226   -136.2 1.097e+04 7.719e-10
 30.90890   -136.1 1.101e+04 8.150e-10
 30.92000   -136.1 1.095e+04 8.070e-10
 30.93667   -136.0 1.093e+04 8.080e-10
 30.95178   -135.5 1.076e+04 7.900e-10
 30.97409   -135.2 1.059e+04 7.155e-10
 31.01459   -133.7 1.013e+04 5.082e-10
 31.03775   -132.1 9.751e+03 3.430e-10
 31.05996   -131.7 9.789e+03 3.296e-10
 31.10132   -130.3 9.644e+03 2.518e-10
 31.12353   -130.2 1.002e+04 2.858e-10
 31.13935   -128.6 9.902e+03 2.724e-10
 31.16155   -126.3 9.742e+03 1.689e-10
 31.18709   -124.7 9.704e+03 1.594e-10
 31.20930   -124.4 9.935e+03 2.142e-10
 31.23666   -122.5 9.819e+03 2.124e-10
 31.27287   -120.6 9.643e+03 2.216e-10
 31.29508   -120.1 9.805e+03 3.003e-10
 31.32548   -118.0 9.766e+03 2.984e-10
 31.35864   -116.0 9.888e+03 3.132e-10
 31.38085   -115.5 1.000e+04 3.351e-10
 31.41431   -113.5 1.004e+04 3.269e-10
 31.44442   -111.5 1.007e+04 3.190e-10
 31.46662   -111.2 9.981e+03 2.895e-10
 31.50314   -109.1 9.925e+03 2.735e-10
 31.53019   -106.9 9.886e+03 2.652e-10
 31.55240   -106.6 9.827e+03 2.607e-10
 31.59196   -104.2 9.833e+03 2.591e-10
 31.61597   -101.8 9.849e+03 2.598e-10
 31.63817   -101.7 9.894e+03 2.982e-10
 31.67953    -99.5 9.993e+03 3.164e-10
 31.70174    -99.5 1.014e+04 3.820e-10
 31.72520    -97.7 1.035e+04 4.413e-10
 31.76531    -96.0 1.065e+04 5.483e-10
 31.78752    -96.1 1.069e+04 5.704e-10
 31.80481    -94.6 1.100e+04 7.038e-10
 31.82702    -94.0 1.067e+04 5.623e-10
 31.85108    -92.7 1.091e+04 6.744e-10
 31.87329    -92.8 1.066e+04 5.605e-10
 31.90285    -91.8 1.065e+04 5.621e-10
 31.93686    -90.9 1.057e+04 5.420e-10
 31.95906    -90.8 1.016e+04 3.918e-10
 31.99168    -89.6 1.006e+04 3.569e-10
 32.02263    -88.3 1.003e+04 3.468e-10
 32.04484    -87.9 9.742e+03 2.527e-10
 32.08051    -86.2 9.753e+03 2.495e-10
 32.10841    -84.7 9.965e+03 2.760e-10
 32.13061    -84.2 9.789e+03 2.314e-10
 32.16933    -82.8 1.015e+04 2.992e-10
 32.19418    -81.3 1.063e+04 4.237e-10
 32.21639    -80.9 1.059e+04 4.224e-10
 32.25775    -79.2 1.110e+04 6.004e-10
 32.27996    -78.8 1.108e+04 7.209e-10
 32.30257    -76.8 1.151e+04 9.081e-10
 32.34352    -74.8 1.179e+04 9.983e-10
 32.36573    -74.8 1.174e+04 1.053e-09
 32.39140    -73.1 1.176e+04 1.043e-09
 32.42461    -71.3 1.130e+04 8.940e-10
 32.44021    -70.9 1.156e+04 8.984e-10
 32.45131    -71.3 1.143e+04 8.643e-10
 32.46893    -71.6 1.167e+04 8.583e-10
 32.48118    -72.5 1.290e+04 9.290e-10
 32.49238    -71.1 1.115e+04 7.217e-10
 32.51344    -72.3 1.178e+04 7.589e-10
 32.52598    -72.9 1.241e+04 8.137e-10
 32.53718    -73.7 1.202e+04 8.777e-10
 32.55785    -74.8 1.308e+04 1.112e-09
 32.57996    -76.0 1.285e+04 1.414e-09
 32.60065    -77.4 1.356e+04 1.751e-09
 32.61176    -78.4 1.341e+04 1.697e-09
 32.62437    -81.2 1.505e+04 2.387e-09
 32.64354    -84.7 1.623e+04 3.813e-09
 32.65464    -85.5 1.567e+04 3.651e-09
 32.66879    -87.7 1.596e+04 5.229e-09
 32.68643    -89.0 1.597e+04 6.103e-09
 32.69753    -88.8 1.561e+04 5.614e-09
 32.71320    -89.5 1.553e+04 5.699e-09
 32.72931    -90.1 1.497e+04 4.433e-09
 32.74042    -89.4 1.455e+04 3.807e-09
 32.75761    -90.6 1.355e+04 2.222e-09
 32.77220    -92.7 1.205e+04 1.220e-09
 32.78330    -91.9 1.166e+04 1.055e-09
 32.80203    -93.7 1.043e+04 6.912e-10
 32.81391    -94.3 9.889e+03 5.577e-10
 32.81587    -92.9 1.010e+04 6.160e-10
 32.82619    -92.1 9.957e+03 5.610e-10
 32.84644    -92.3 9.602e+03 4.771e-10
 32.85798    -92.1 9.424e+03 4.323e-10
 32.86908    -91.3 9.378e+03 4.166e-10
 32.88976    -90.9 9.253e+03 3.866e-10
 32.90086    -90.2 9.250e+03 3.848e-10
 32.91306    -89.7 9.193e+03 3.653e-10
 32.93265    -89.3 9.194e+03 3.556e-10
 32.94375    -88.5 9.243e+03 3.735e-10
 32.96867    -88.2 9.288e+03 3.775e-10
 33.00751    -87.6 9.273e+03 3.754e-10
 33.02962    -86.2 9.370e+03 4.124e-10
 33.04630    -86.0 9.361e+03 4.076e-10
 33.06131    -85.7 9.350e+03 4.042e-10
 33.07241    -85.2 9.395e+03 4.339e-10
 33.09071    -84.9 9.390e+03 4.267e-10
 33.10420    -84.6 9.403e+03 4.250e-10
 33.11530    -83.9 9.410e+03 4.384e-10
 33.13512    -83.6 9.421e+03 4.318e-10
 33.14664    -83.1 9.428e+03 4.325e-10
 33.14750    -82.5 9.352e+03 4.225e-10
 33.15819    -82.0 9.335e+03 4.166e-10
 33.17887    -81.5 9.281e+03 4.026e-10
 33.18997    -81.0 9.257e+03 3.959e-10
 33.20174    -80.3 9.212e+03 3.817e-10
 33.23515    -79.2 9.225e+03 3.750e-10
 33.26484    -78.2 9.171e+03 3.617e-10
 33.28704    -77.2 9.139e+03 3.565e-10
 33.32408    -75.9 9.064e+03 3.388e-10
 33.35061    -74.5 8.976e+03 3.174e-10
 33.37282    -73.3 9.023e+03 3.292e-10
 33.41290    -71.8 8.907e+03 3.023e-10
 33.43639    -70.3 8.763e+03 2.726e-10
 33.45859    -69.0 8.840e+03 2.871e-10
 33.49995    -67.4 8.718e+03 2.608e-10
 33.52216    -66.1 8.827e+03 2.797e-10
 33.54614    -64.4 8.746e+03 2.603e-10
 33.58573    -62.7 8.721e+03 2.536e-10
 33.60793    -61.4 8.837e+03 2.742e-10
 33.63497    -59.7 8.842e+03 2.736e-10
 33.67150    -58.2 8.983e+03 3.018e-10
 33.69371    -56.9 9.042e+03 3.115e-10
 33.72379    -55.3 9.186e+03 3.448e-10
 33.75728    -53.6 9.372e+03 3.771e-10
 33.77948    -52.2 9.175e+03 3.209e-10
 33.80120    -50.6 9.242e+03 3.227e-10
 33.82340    -50.9 9.123e+03 2.732e-10
 33.84305    -49.4 9.131e+03 2.569e-10
 33.86526    -48.2 8.979e+03 2.121e-10
 33.90145    -46.9 9.012e+03 2.122e-10
 33.92883    -45.4 9.111e+03 2.346e-10
 33.95103    -44.3 9.102e+03 2.293e-10
 33.99027    -42.6 9.207e+03 2.680e-10
 34.01460    -40.7 9.302e+03 2.857e-10
 34.03681    -39.5 9.329e+03 2.794e-10
 34.07817    -37.7 9.459e+03 2.848e-10
 34.10038    -36.5 9.444e+03 2.746e-10
 34.12351    -34.7 9.498e+03 2.751e-10
 34.16394    -32.9 9.561e+03 2.745e-10
 34.18615    -31.6 9.547e+03 2.662e-10
 34.21234    -29.7 9.542e+03 2.536e-10
 34.24972    -27.6 9.519e+03 2.399e-10
 34.27192    -26.3 9.508e+03 2.158e-10
 34.30117    -24.2 9.485e+03 1.923e-10
 34.33549    -21.9 9.488e+03 1.748e-10
 34.35770    -20.9 9.522e+03 1.706e-10
 34.38999    -18.8 9.614e+03 1.629e-10
 34.42127    -16.7 9.684e+03 1.700e-10
 34.44347    -15.6 9.715e+03 2.066e-10
 34.46666    -13.2 9.778e+03 2.267e-10
 34.48887    -13.6 9.621e+03 1.626e-10
 34.50704    -11.1 9.581e+03 1.748e-10
 34.52925     -9.4 9.708e+03 2.158e-10
 34.56765     -7.2 9.836e+03 2.241e-10
 34.59282     -5.6 1.027e+04 2.937e-10
 34.61502     -4.4 1.049e+04 3.126e-10
 34.63561     -3.8 1.060e+04 4.756e-10
 34.64661     -3.3 1.049e+04 4.727e-10
 34.66729     -2.8 1.108e+04 5.938e-10
 34.68950     -1.3 1.140e+04 8.806e-10
 34.71018     -0.3 1.172e+04 1.137e-09
 34.72128      0.2 1.177e+04 1.108e-09
 34.73400      1.2 1.219e+04 1.418e-09
 34.75307      2.1 1.256e+04 1.669e-09
 34.76417      2.4 1.255e+04 1.656e-09
 34.77841      3.0 1.280e+04 1.845e-09
 34.79595      3.2 1.299e+04 1.887e-09
 34.80563      3.8 1.291e+04 1.924e-09
 34.81030      2.8 1.319e+04 2.095e-09
 34.82283      2.4 1.376e+04 2.299e-09
 34.83884      1.5 1.426e+04 2.605e-09
 34.84994      2.2 1.466e+04 2.952e-09
 34.86724      1.7 1.498e+04 3.425e-09
 34.88173      1.5 1.490e+04 3.742e-09
 34.89283      2.3 1.560e+04 4.678e-09
 34.91165      2.2 1.527e+04 4.672e-09
 34.92461      2.2 1.495e+04 4.568e-09
 34.93572      3.0 1.540e+04 5.693e-09
 34.95607      2.9 1.492e+04 5.104e-09
 34.96750      3.0 1.464e+04 4.520e-09
 34.97861      3.9 1.501e+04 5.419e-09
 34.99929      3.6 1.477e+04 4.691e-09
 35.01039      4.5 1.517e+04 5.396e-09
 35.02269      3.8 1.494e+04 4.718e-09
 35.04217      3.1 1.480e+04 4.627e-09
 35.05328      3.7 1.495e+04 4.718e-09
 35.06710      3.1 1.481e+04 4.828e-09
 35.08506      2.5 1.507e+04 5.386e-09
 35.09616      3.2 1.488e+04 4.980e-09
 35.11151      3.3 1.496e+04 5.690e-09
 35.12795      3.9 1.492e+04 6.295e-09
 35.13726      4.7 1.460e+04 5.166e-09
 35.14303      4.5 1.343e+04 2.445e-09
 35.15592      4.9 1.335e+04 2.473e-09
 35.17084      5.2 1.343e+04 2.250e-09
 35.18194      4.8 1.323e+04 1.310e-09
 35.20034      3.9 1.299e+04 1.417e-09
 35.21372      2.8 1.261e+04 1.470e-09
 35.22483      2.0 1.244e+04 1.459e-09
 35.24475      1.7 1.228e+04 1.713e-09
 35.25671      1.4 1.218e+04 1.795e-09
 35.26781      0.7 1.237e+04 2.032e-09
 35.28839      1.8 1.233e+04 2.112e-09
 35.29950      2.3 1.221e+04 2.354e-09
 35.32028      3.7 1.224e+04 2.109e-09
 35.34258      5.1 1.233e+04 2.252e-09
 35.36708      5.9 1.191e+04 1.655e-09
 35.40615      5.9 1.139e+04 1.190e-09
 35.42835      5.9 1.114e+04 1.006e-09
 35.45591      6.6 1.095e+04 1.086e-09
 35.49192      8.3 1.107e+04 1.127e-09
 35.51413      8.7 1.094e+04 9.821e-10
 35.54474     10.3 1.107e+04 1.039e-09
 35.57770     11.6 1.099e+04 1.046e-09
 35.59990     12.1 1.102e+04 1.001e-09
 35.63356     13.6 1.085e+04 9.624e-10
 35.66347     15.4 1.049e+04 8.252e-10
 35.68568     14.1 1.145e+04 9.543e-10
 35.72239     15.5 1.121e+04 8.058e-10
 35.74925     16.2 1.083e+04 6.920e-10
 35.77145     14.5 1.174e+04 1.444e-09
 35.79759     16.0 1.125e+04 1.244e-09
 35.80859     15.5 1.129e+04 1.229e-09
 35.82212     15.8 1.134e+04 1.240e-09
 35.83482     16.6 1.111e+04 1.154e-09
 35.84593     16.2 1.154e+04 1.393e-09
 35.86654     16.6 1.134e+04 1.225e-09
 35.88874     15.1 1.145e+04 1.141e-09
 35.90950     14.9 1.113e+04 9.930e-10
 35.92060     13.1 1.067e+04 9.591e-10
 35.93316     13.6 1.017e+04 8.104e-10
 35.95238     14.2 9.807e+03 7.012e-10
 35.96349     13.7 9.748e+03 6.827e-10
 35.97757     14.4 9.549e+03 5.841e-10
 35.99527     15.1 9.462e+03 5.164e-10
 36.00637     13.4 9.865e+03 4.811e-10
 36.03318     11.8 9.394e+03 4.017e-10
 36.07014     12.7 9.153e+03 4.019e-10
 36.09234     10.8 8.738e+03 3.666e-10
 36.12211     12.7 8.743e+03 3.726e-10
 36.15591     14.6 8.793e+03 3.570e-10
 36.17812     12.5 8.265e+03 2.324e-10
 36.21093     13.1 8.149e+03 2.077e-10
 36.24169     13.6 8.133e+03 2.113e-10
 36.26389     11.0 7.813e+03 1.827e-10
 36.29976     12.4 7.941e+03 2.100e-10
 36.32746     14.0 8.130e+03 2.397e-10
 36.34967     12.3 7.954e+03 2.057e-10
 36.38859     13.6 7.958e+03 2.022e-10
 36.41323     14.6 7.942e+03 1.961e-10
 36.43544     12.7 7.843e+03 1.837e-10
 36.46305     13.6 7.982e+03 1.996e-10
 36.47405     12.6 8.306e+03 2.535e-10
 36.48771     12.9 8.382e+03 2.647e-10
 36.49881     11.9 8.495e+03 2.908e-10
 36.51053     12.3 8.804e+03 3.544e-10
 36.53060     12.4 9.108e+03 4.142e-10
 36.54170     11.6 9.383e+03 4.718e-10
 36.55494     11.9 9.889e+03 6.246e-10
 36.57349     12.2 1.039e+04 7.844e-10
 36.58459     11.3 1.064e+04 9.193e-10
 36.59935     11.8 1.107e+04 1.114e-09
 36.61637     12.2 1.148e+04 1.309e-09
 36.62748     11.0 1.212e+04 1.558e-09
 36.64377     10.9 1.272e+04 1.788e-09
 36.65926     10.5 1.333e+04 2.003e-09
 36.67036      8.8 1.380e+04 2.350e-09
 36.68818      8.4 1.385e+04 2.489e-09
 36.70215      7.9 1.396e+04 2.529e-09
 36.71325      6.7 1.349e+04 2.583e-09
 36.73259      6.5 1.325e+04 2.549e-09
 36.74503      6.4 1.302e+04 2.526e-09
 36.75614      6.1 1.274e+04 2.515e-09
 36.77682      6.4 1.266e+04 2.468e-09
 36.78792      6.4 1.251e+04 2.321e-09
 36.79558      6.7 1.258e+04 2.282e-09
 36.80669      5.9 1.277e+04 1.992e-09
 36.81971      6.0 1.305e+04 1.998e-09
 36.83081      5.8 1.289e+04 1.580e-09
 36.84363      5.6 1.313e+04 1.578e-09
 36.86259      5.4 1.332e+04 1.591e-09
 36.87370      4.7 1.256e+04 1.157e-09
 36.88804      4.4 1.263e+04 1.226e-09
 36.90548      4.1 1.264e+04 1.335e-09
 36.91658      3.6 1.191e+04 1.076e-09
 36.93245      3.7 1.213e+04 1.237e-09
 36.94837      3.9 1.247e+04 1.415e-09
 36.95947      3.7 1.229e+04 1.345e-09
 36.97687      4.2 1.284e+04 1.582e-09
 36.99125      4.0 1.346e+04 1.812e-09
 37.00236      3.7 1.345e+04 1.887e-09
 37.02128      2.4 1.464e+04 2.493e-09
 37.03414     -0.6 1.573e+04 4.013e-09
 37.04524     -1.1 1.539e+04 4.625e-09
 37.06569     -2.7 1.597e+04 8.842e-09
 37.07703     -2.2 1.670e+04 1.518e-08
 37.08813     -1.3 1.694e+04 1.667e-08
 37.10881     -0.9 1.740e+04 1.850e-08
 37.11992     -0.4 1.736e+04 1.852e-08
 37.12831      0.7 1.704e+04 1.598e-08
 37.13942     -0.6 1.647e+04 1.545e-08
 37.15170      0.7 1.603e+04 1.070e-08
 37.16280      2.1 1.562e+04 8.662e-09
 37.17673      1.6 1.524e+04 4.667e-09
 37.19459     -0.7 1.443e+04 2.402e-09
 37.20569     -1.1 1.380e+04 1.833e-09
 37.22114     -3.9 1.190e+04 1.056e-09
 37.23747     -5.2 1.050e+04 7.404e-10
 37.24858     -4.4 1.034e+04 7.081e-10
 37.26555     -4.3 1.011e+04 6.226e-10
 37.28036     -4.2 9.978e+03 5.804e-10
 37.29146     -3.2 1.002e+04 5.940e-10
 37.30996     -3.0 1.009e+04 6.138e-10
 37.32325     -2.8 1.012e+04 6.212e-10
 37.33445     -1.8 1.019e+04 6.294e-10
 37.36568     -1.2 1.019e+04 6.586e-10
 37.39812     -0.4 1.032e+04 7.231e-10
 37.42032      2.1 1.008e+04 7.000e-10
 37.45450      2.3 1.045e+04 7.781e-10
 37.48379      2.8 1.033e+04 7.466e-10
 37.49480      3.6 1.026e+04 6.838e-10
 37.50982      2.5 1.071e+04 7.985e-10
 37.52658      0.2 1.179e+04 1.174e-09
 37.53769      0.1 1.162e+04 1.112e-09
 37.55424     -1.8 1.219e+04 1.617e-09
 37.56947     -2.2 1.271e+04 2.207e-09
 37.58057     -1.6 1.224e+04 2.035e-09
 37.59865     -1.3 1.257e+04 2.310e-09
 37.61236     -1.1 1.277e+04 2.322e-09
 37.62346     -0.3 1.217e+04 1.995e-09
 37.64306     -0.5 1.236e+04 1.939e-09
 37.65524     -0.8 1.234e+04 1.754e-09
 37.66635     -0.3 1.175e+04 1.415e-09
 37.68703     -0.8 1.151e+04 1.231e-09
 37.69813     -0.4 1.091e+04 9.696e-10
 37.70968     -0.5 1.062e+04 8.546e-10
 37.72991     -0.6 1.053e+04 8.012e-10
 37.74102     -0.1 1.012e+04 6.718e-10
 37.75410      0.3 9.983e+03 6.239e-10
 37.77280      0.5 9.955e+03 6.044e-10
 37.78391      1.0 9.700e+03 5.395e-10
 37.79378      1.8 9.528e+03 5.073e-10
 37.80488      1.9 8.834e+03 3.322e-10
 37.81569      2.2 8.829e+03 3.322e-10
 37.82689      3.0 8.719e+03 3.031e-10
 37.85422      4.3 8.559e+03 2.909e-10
 37.89056      5.9 8.364e+03 2.606e-10
 37.91276      7.9 8.022e+03 2.230e-10
 37.94305      9.2 7.828e+03 1.900e-10
 37.97633     10.5 7.874e+03 1.878e-10
 37.99854     12.1 7.672e+03 1.664e-10
 38.03187     13.3 7.804e+03 1.766e-10
 38.06210     14.4 8.256e+03 2.258e-10
 38.08431     15.5 8.042e+03 2.039e-10
 38.12070     16.7 8.579e+03 2.784e-10
 38.14778     17.4 8.779e+03 3.208e-10
 38.16999     18.4 8.961e+03 3.402e-10
 38.19067     18.4 9.118e+03 3.783e-10
 38.20167     18.6 9.066e+03 3.710e-10
 38.22044     18.6 9.236e+03 4.143e-10
 38.23346     18.4 9.455e+03 4.799e-10
 38.24456     18.5 9.522e+03 4.894e-10
 38.26485     17.8 9.902e+03 6.003e-10
 38.27635     16.9 1.040e+04 7.771e-10
 38.28745     17.1 1.027e+04 7.715e-10
 38.30813     16.8 1.063e+04 9.610e-10
 38.31923     17.5 1.053e+04 9.397e-10
 38.33147     17.8 1.080e+04 1.060e-09
 38.35102     17.8 1.093e+04 1.076e-09
 38.36212     18.3 1.062e+04 9.498e-10
 38.37588     19.0 1.043e+04 8.224e-10
 38.39390     19.2 1.025e+04 7.031e-10
 38.40510     20.3 1.010e+04 6.280e-10
 38.43159     20.9 9.444e+03 3.336e-10
 38.45944     20.1 8.789e+03 1.837e-10
 38.47441     18.3 8.281e+03 1.418e-10
 38.49098     19.4 7.854e+03 1.026e-10
 38.52042     19.6 7.855e+03 1.057e-10
 38.55455     20.2 7.965e+03 1.273e-10
 38.57675     22.1 7.767e+03 1.136e-10
 38.60925     23.3 8.088e+03 1.590e-10
 38.64032     24.6 8.566e+03 2.239e-10
 38.66253     26.1 8.492e+03 2.146e-10
 38.69807     27.0 9.056e+03 2.860e-10
 38.72609     27.1 9.647e+03 3.751e-10
 38.73710     28.8 9.510e+03 3.659e-10
 38.75339     28.9 9.725e+03 3.977e-10
 38.76879     29.1 1.001e+04 4.443e-10
 38.77989     29.8 9.924e+03 4.524e-10
 38.79197     30.0 1.007e+04 4.966e-10
 38.80307     29.5 9.944e+03 5.822e-10
 38.81167     29.7 1.014e+04 6.602e-10
 38.82278     30.7 1.024e+04 7.030e-10
 38.84222     30.4 1.072e+04 8.533e-10
 38.85456     29.3 1.179e+04 1.190e-09
 38.86566     28.8 1.263e+04 1.501e-09
 38.88634     26.8 1.416e+04 2.406e-09
 38.89745     26.4 1.469e+04 3.156e-09
 38.90884     25.1 1.539e+04 4.388e-09
 38.92923     24.7 1.533e+04 5.109e-09
 38.94033     25.0 1.535e+04 5.277e-09
 38.95325     24.6 1.515e+04 5.017e-09
 38.97212     23.7 1.531e+04 4.326e-09
 38.98322     22.0 1.582e+04 4.253e-09
 38.99767     18.8 1.611e+04 3.315e-09
 39.01501     15.3 1.542e+04 2.633e-09
 39.02611     13.1 1.448e+04 2.688e-09
 39.04208     11.7 1.335e+04 2.572e-09
 39.05789     11.9 1.309e+04 2.614e-09
 39.06900     12.2 1.297e+04 2.809e-09
 39.08649     13.1 1.292e+04 2.850e-09
 39.10078     14.0 1.281e+04 2.856e-09
 39.11188     14.9 1.242e+04 2.624e-09
 39.12470     16.0 1.239e+04 2.485e-09
 39.13581     16.2 1.199e+04 1.797e-09
 39.14367     17.1 1.195e+04 1.580e-09
 39.15477     17.3 1.174e+04 9.991e-10
 39.17532     17.5 1.166e+04 8.171e-10
 39.18656     17.5 1.155e+04 6.758e-10
 39.19766     14.7 1.010e+04 3.394e-10
 39.21834     14.4 9.566e+03 2.838e-10
 39.22944     12.8 8.547e+03 2.123e-10
 39.24194     13.2 8.496e+03 2.141e-10
 39.26123     13.7 8.488e+03 2.238e-10
 39.27233     13.5 8.410e+03 2.228e-10
 39.28635     14.0 8.492e+03 2.400e-10
 39.30411     14.4 8.618e+03 2.731e-10
 39.31522     14.5 8.641e+03 2.756e-10
 39.33076     15.1 8.819e+03 3.211e-10
 39.34700     15.5 9.002e+03 3.717e-10
 39.35810     15.7 8.964e+03 3.497e-10
 39.37518     16.2 9.157e+03 4.141e-10
 39.38989     16.8 9.404e+03 5.040e-10
 39.40099     16.9 9.338e+03 4.414e-10
 39.41959     17.8 9.641e+03 5.393e-10
 39.43278     18.5 9.995e+03 6.440e-10
 39.44388     18.5 9.812e+03 5.583e-10
 39.45743     19.2 1.021e+04 6.842e-10
 39.46854     19.0 1.051e+04 8.178e-10
 39.47566     19.4 1.106e+04 1.011e-09
 39.48677     18.7 1.109e+04 9.918e-10
 39.50745     19.2 1.162e+04 1.256e-09
 39.51855     18.6 1.159e+04 1.218e-09
 39.53062     19.6 1.193e+04 1.473e-09
 39.55033     20.7 1.222e+04 1.706e-09
 39.56144     20.2 1.197e+04 1.457e-09
 39.57504     21.4 1.221e+04 1.518e-09
 39.59322     22.8 1.245e+04 1.529e-09
 39.60432     20.7 1.208e+04 1.222e-09
 39.61945     21.1 1.214e+04 1.155e-09
 39.63611     21.2 1.216e+04 1.115e-09
 39.64721     17.8 1.190e+04 1.038e-09
 39.66386     17.3 1.202e+04 1.080e-09
 39.67900     16.5 1.237e+04 1.229e-09
 39.69010     13.0 1.265e+04 1.601e-09
 39.70828     12.3 1.318e+04 1.991e-09
 39.72188     11.6 1.373e+04 2.474e-09
 39.73299      9.1 1.368e+04 2.447e-09
 39.75269      9.0 1.392e+04 2.579e-09
 39.76477      8.8 1.419e+04 2.582e-09
 39.77587      4.9 1.283e+04 1.675e-09
 39.79017      3.5 1.263e+04 1.585e-09
 39.80072      4.0 1.238e+04 1.418e-09
 39.80766      0.4 1.154e+04 1.161e-09
 39.81931     -1.1 1.179e+04 1.293e-09
 39.83944     -2.5 1.219e+04 1.555e-09
 39.85054     -4.2 1.219e+04 1.600e-09
 39.86372     -4.8 1.266e+04 2.014e-09
 39.88233     -4.9 1.315e+04 2.530e-09
 39.89343     -6.3 1.297e+04 2.288e-09
 39.90814     -6.2 1.341e+04 2.646e-09
 39.92522     -6.4 1.381e+04 2.744e-09
 39.93632     -9.7 1.366e+04 2.237e-09
 39.95255    -12.1 1.410e+04 2.377e-09
 39.96810    -15.4 1.439e+04 2.477e-09
 39.97921    -23.6 1.546e+04 2.999e-09
 39.99696    -34.9 2.083e+04 6.675e-09
 40.01094    -46.2 2.387e+04 1.784e-08
 40.01644    -48.4 2.373e+04 2.534e-08
 40.02462    -51.9 2.347e+04 3.631e-08
 40.03234    -54.4 2.307e+04 4.267e-08
 40.03789    -56.7 2.290e+04 4.142e-08
 40.04683    -58.8 2.194e+04 3.363e-08
 40.05378    -61.3 2.161e+04 2.481e-08
 40.05933    -64.3 2.122e+04 1.844e-08
 40.06904    -68.1 2.096e+04 1.261e-08
 40.07522    -73.8 1.951e+04 7.910e-09
 40.08077    -77.3 1.760e+04 6.133e-09
 40.09112    -81.9 1.609e+04 4.669e-09
 40.09667    -82.5 1.560e+04 4.465e-09
 40.10795    -85.8 1.497e+04 3.920e-09
 40.12290    -88.2 1.501e+04 4.077e-09
 40.13235    -87.4 1.533e+04 5.440e-09
 40.13965    -87.1 1.523e+04 5.439e-09
 40.15241    -88.1 1.574e+04 5.970e-09
 40.17144    -89.3 1.616e+04 6.318e-09
 40.18254    -88.6 1.605e+04 6.330e-09
 40.19682    -89.7 1.617e+04 6.372e-09
 40.21432    -90.7 1.601e+04 6.049e-09
 40.22543    -89.6 1.577e+04 5.481e-09
 40.24124    -90.3 1.525e+04 4.875e-09
 40.25721    -90.5 1.478e+04 4.369e-09
 40.26831    -89.6 1.422e+04 3.349e-09
 40.28565    -89.5 1.381e+04 2.904e-09
 40.30010    -88.9 1.340e+04 2.472e-09
 40.31120    -88.6 1.279e+04 1.813e-09
 40.33006    -88.0 1.244e+04 1.556e-09
 40.34298    -87.4 1.213e+04 1.343e-09
 40.35409    -87.2 1.163e+04 1.036e-09
 40.37447    -86.6 1.139e+04 9.315e-10
 40.38587    -85.9 1.121e+04 8.640e-10
 40.39698    -85.7 1.092e+04 7.339e-10
 40.41766    -85.0 1.084e+04 7.215e-10
 40.42876    -84.9 1.067e+04 6.539e-10
 40.44109    -84.1 1.065e+04 6.738e-10
 40.45563    -83.2 1.072e+04 7.033e-10
 40.46397    -82.8 1.079e+04 7.227e-10
 40.47165    -82.9 1.082e+04 7.240e-10
 40.48551    -82.0 1.098e+04 7.804e-10
 40.50343    -81.3 1.104e+04 8.218e-10
 40.51453    -81.6 1.114e+04 8.687e-10
 40.52992    -80.8 1.117e+04 9.196e-10
 40.54632    -79.7 1.142e+04 1.000e-09
 40.55742    -80.1 1.152e+04 1.061e-09
 40.57433    -79.6 1.145e+04 1.047e-09
 40.58920    -78.6 1.161e+04 1.098e-09
 40.60031    -79.2 1.167e+04 1.129e-09
 40.61875    -78.9 1.158e+04 1.093e-09
 40.63209    -78.1 1.180e+04 1.130e-09
 40.64320    -79.0 1.183e+04 1.141e-09
 40.66316    -79.1 1.181e+04 1.130e-09
 40.67498    -78.8 1.216e+04 1.219e-09
 40.68608    -79.8 1.213e+04 1.246e-09
 40.70676    -79.8 1.216e+04 1.247e-09
 40.71796    -81.1 1.221e+04 1.297e-09
 40.72988    -80.5 1.235e+04 1.450e-09
 40.74965    -80.4 1.221e+04 1.509e-09
 40.76075    -81.3 1.220e+04 1.501e-09
 40.77419    -80.2 1.230e+04 1.601e-09
 40.78836    -79.7 1.212e+04 1.505e-09
 40.79560    -79.2 1.203e+04 1.400e-09
 40.80364    -80.0 1.190e+04 1.284e-09
 40.81861    -79.5 1.174e+04 1.101e-09
 40.83543    -79.3 1.138e+04 8.936e-10
 40.84653    -80.0 1.117e+04 7.940e-10
 40.86302    -79.6 1.085e+04 6.790e-10
 40.87831    -79.1 1.054e+04 5.926e-10
 40.88942    -79.5 1.041e+04 5.470e-10
 40.90743    -78.5 1.017e+04 4.839e-10
 40.92120    -77.4 1.002e+04 4.366e-10
 40.93230    -77.7 9.993e+03 4.174e-10
 40.95185    -76.5 9.964e+03 3.933e-10
 40.96409    -75.7 9.858e+03 3.703e-10
 40.97519    -75.9 9.870e+03 3.676e-10
 40.99587    -74.7 9.811e+03 3.541e-10
 41.00697    -75.2 1.009e+04 3.712e-10
 41.01847    -74.9 1.021e+04 3.974e-10
 41.03876    -74.2 1.067e+04 5.259e-10
 41.04986    -75.1 1.111e+04 6.664e-10
 41.06288    -75.0 1.124e+04 7.889e-10
 41.08165    -73.5 1.166e+04 1.093e-09
 41.09275    -73.8 1.200e+04 1.324e-09
 41.10729    -73.3 1.209e+04 1.411e-09
 41.12119    -71.5 1.221e+04 1.585e-09
 41.12742    -70.7 1.227e+04 1.654e-09
 41.14693    -71.5 1.282e+04 2.194e-09
 41.18521    -68.9 1.273e+04 1.987e-09
 41.21050    -67.1 1.227e+04 1.409e-09
 41.23271    -68.1 1.229e+04 1.404e-09
 41.27404    -66.8 1.164e+04 8.207e-10
 41.31845    -67.1 1.109e+04 5.442e-10
 41.35984    -65.5 1.078e+04 5.561e-10
 41.38205    -65.6 1.051e+04 4.045e-10
 41.40728    -63.3 1.034e+04 4.017e-10
 41.44562    -60.7 1.016e+04 3.618e-10
 41.46783    -60.8 9.871e+03 2.273e-10
 41.49610    -58.4 9.654e+03 1.869e-10
 41.53139    -56.3 9.484e+03 1.557e-10
 41.55360    -56.1 9.346e+03 1.036e-10
 41.58493    -54.0 9.277e+03 9.880e-11
 41.61717    -52.0 9.347e+03 1.036e-10
 41.63937    -51.6 9.349e+03 8.291e-11
 41.67376    -49.6 9.475e+03 9.961e-11
 41.70294    -47.4 9.537e+03 1.292e-10
 41.72515    -46.7 9.530e+03 1.046e-10
 41.76258    -44.1 9.544e+03 1.274e-10
 41.78675    -41.6 9.610e+03 1.489e-10
 41.79068    -42.1 9.683e+03 1.608e-10
 41.81092    -41.4 9.640e+03 1.381e-10
 41.85141    -39.0 9.728e+03 1.464e-10
 41.87449    -36.6 9.822e+03 1.615e-10
 41.89670    -36.1 9.792e+03 1.564e-10
 41.93806    -33.6 1.004e+04 2.049e-10
 41.96027    -33.2 1.004e+04 2.130e-10
 41.98465    -31.0 1.043e+04 2.964e-10
 42.01786    -29.7 1.061e+04 3.630e-10
 42.03474    -28.9 1.078e+04 4.607e-10
 42.04585    -28.8 1.082e+04 4.827e-10
 42.06218    -27.9 1.099e+04 6.254e-10
 42.07763    -26.8 1.124e+04 8.128e-10
 42.08873    -26.6 1.126e+04 8.153e-10
 42.10659    -25.5 1.154e+04 1.008e-09
 42.11928    -24.6 1.184e+04 1.197e-09
 42.12211    -25.1 1.190e+04 1.260e-09
 42.13162    -25.4 1.213e+04 1.318e-09
 42.15100    -24.8 1.238e+04 1.492e-09
 42.16340    -24.4 1.255e+04 1.638e-09
 42.17451    -24.8 1.291e+04 1.962e-09
 42.19519    -24.4 1.298e+04 2.077e-09
 42.20629    -24.7 1.325e+04 2.454e-09
 42.21762    -24.1 1.323e+04 2.460e-09
 42.23807    -23.6 1.320e+04 2.417e-09
 42.24918    -23.8 1.323e+04 2.502e-09
 42.26204    -23.3 1.320e+04 2.391e-09
 42.28096    -22.9 1.322e+04 2.371e-09
 42.29207    -23.1 1.300e+04 2.198e-09
 42.30645    -22.8 1.301e+04 2.194e-09
 42.32385    -22.7 1.307e+04 2.231e-09
 42.33495    -23.2 1.275e+04 1.794e-09
 42.35086    -23.3 1.295e+04 1.948e-09
 42.36674    -23.5 1.328e+04 2.242e-09
 42.37784    -24.3 1.296e+04 1.878e-09
 42.39528    -24.7 1.344e+04 2.392e-09
 42.40962    -25.1 1.394e+04 3.153e-09
 42.42073    -25.3 1.340e+04 2.570e-09
 42.43969    -24.9 1.376e+04 3.178e-09
 42.45202    -24.6 1.390e+04 3.454e-09
 42.45374    -24.1 1.330e+04 2.738e-09
 42.46361    -23.9 1.265e+04 1.859e-09
 42.48410    -23.8 1.259e+04 1.770e-09
 42.49540    -24.1 1.259e+04 1.649e-09
 42.50650    -24.2 1.201e+04 1.077e-09
 42.52718    -25.2 1.205e+04 1.071e-09
 42.53829    -25.2 1.156e+04 7.838e-10
 42.55072    -25.9 1.140e+04 8.261e-10
 42.57007    -25.9 1.119e+04 8.934e-10
 42.58117    -25.2 1.091e+04 7.558e-10
 42.60195    -24.3 1.095e+04 8.420e-10
 42.62426    -22.8 1.072e+04 6.980e-10
 42.63965    -22.6 1.064e+04 7.200e-10
 42.65584    -21.9 1.044e+04 6.629e-10
 42.66695    -21.4 1.047e+04 6.572e-10
 42.68396    -20.5 1.032e+04 5.593e-10
 42.69873    -20.2 1.026e+04 5.051e-10
 42.70983    -19.7 1.037e+04 5.602e-10
 42.73958    -18.1 9.999e+03 4.602e-10
 42.77360    -16.6 9.490e+03 3.145e-10
 42.79580    -15.6 9.953e+03 4.790e-10
 42.82850    -14.0 9.646e+03 3.739e-10
 42.85937    -12.2 9.414e+03 3.068e-10
 42.88158    -11.6 1.001e+04 4.996e-10
 42.91733     -9.7 9.889e+03 4.592e-10
 42.94515     -7.8 9.809e+03 4.411e-10
 42.96735     -7.6 1.023e+04 5.790e-10
 43.00615     -5.7 1.015e+04 5.569e-10
 43.03092     -3.8 1.005e+04 5.228e-10
 43.05313     -4.2 1.014e+04 5.475e-10
 43.09449     -2.3 1.002e+04 5.129e-10
 43.11670     -2.8 9.947e+03 4.729e-10
 43.11767     -0.9 9.940e+03 4.752e-10
 43.13988     -0.7 9.593e+03 3.669e-10
 43.18026      1.2 9.633e+03 3.870e-10
 43.20247      1.0 9.458e+03 3.127e-10
 43.22822      3.0 9.606e+03 3.720e-10
 43.26604      5.2 9.850e+03 4.617e-10
 43.28824      5.4 9.662e+03 3.661e-10
 43.31704      7.7 9.868e+03 4.096e-10
 43.35181      9.9 9.968e+03 4.143e-10
 43.37402     10.0 9.792e+03 3.271e-10
 43.40587     12.1 9.853e+03 3.288e-10
 43.43759     14.2 9.870e+03 3.231e-10
 43.45979     14.1 9.838e+03 3.102e-10
 43.49470     16.0 9.936e+03 3.488e-10
 43.52336     17.9 1.007e+04 4.036e-10
 43.54557     17.7 1.034e+04 5.041e-10
 43.58352     19.5 1.060e+04 6.153e-10
 43.60914     21.1 1.084e+04 7.161e-10
 43.63134     20.4 1.125e+04 8.820e-10
 43.67235     21.9 1.164e+04 1.050e-09
 43.69481     22.2 1.190e+04 1.198e-09
 43.70582     21.2 1.206e+04 1.327e-09
 43.72650     21.4 1.223e+04 1.501e-09
 43.73760     20.7 1.226e+04 1.544e-09
 43.74988     21.2 1.232e+04 1.641e-09
 43.76939     21.8 1.234e+04 1.689e-09
 43.78024     21.1 1.221e+04 1.506e-09
 43.78294     21.1 1.211e+04 1.330e-09
 43.79429     21.8 1.201e+04 1.226e-09
 43.81227     22.3 1.188e+04 1.125e-09
 43.82338     21.4 1.155e+04 9.508e-10
 43.83870     21.9 1.137e+04 8.908e-10
 43.85516     22.5 1.123e+04 8.537e-10
 43.86626     21.8 1.105e+04 7.588e-10
 43.89432     22.9 1.095e+04 6.844e-10
 43.93003     25.3 1.101e+04 6.966e-10
 43.95223     25.2 1.085e+04 5.996e-10
 43.98324     27.9 1.104e+04 6.396e-10
 44.01570     29.0 1.119e+04 7.067e-10
 44.02671     28.7 1.121e+04 6.908e-10
 44.03856     29.8 1.138e+04 7.357e-10
 44.05849     30.7 1.174e+04 8.138e-10
 44.06960     30.4 1.192e+04 8.477e-10
 44.08298     31.0 1.295e+04 1.066e-09
 44.10138     31.0 1.437e+04 1.463e-09
 44.11187     30.3 1.441e+04 1.675e-09
 44.11567     32.9 1.220e+04 7.711e-10
 44.12739     32.6 1.408e+04 1.049e-09
 44.14427     31.6 1.565e+04 1.658e-09
 44.15537     30.6 1.556e+04 2.375e-09
 44.17180     30.2 1.601e+04 4.357e-09
 44.18716     30.5 1.627e+04 7.467e-09
 44.19826     30.6 1.634e+04 9.637e-09
 44.21622     31.6 1.650e+04 1.209e-08
 44.23004     32.5 1.647e+04 1.214e-08
 44.24115     32.8 1.649e+04 1.218e-08
 44.26063     34.2 1.618e+04 1.041e-08
 44.27293     35.6 1.580e+04 7.523e-09
 44.28403     35.9 1.590e+04 4.966e-09
 44.30471     36.3 1.566e+04 2.803e-09
 44.31582     35.2 1.565e+04 1.504e-09
 44.32725     34.0 1.418e+04 8.213e-10
 44.34760     33.1 1.219e+04 5.323e-10
 44.35870     31.8 1.105e+04 3.769e-10
 44.37166     32.6 1.084e+04 3.315e-10
 44.39049     33.9 1.097e+04 3.143e-10
 44.40159     33.8 1.099e+04 2.876e-10
 44.42237     35.3 1.096e+04 2.703e-10
 44.44369     35.0 1.076e+04 2.521e-10
 44.44850     36.6 1.090e+04 2.399e-10
 44.47169     38.4 1.089e+04 2.336e-10
 44.50824     40.9 1.086e+04 2.324e-10
 44.53045     41.2 1.070e+04 2.248e-10
 44.56061     43.6 1.074e+04 2.379e-10
 44.59402     45.6 1.079e+04 2.584e-10
 44.61622     45.5 1.069e+04 2.607e-10
 44.64944     47.6 1.055e+04 2.810e-10
 44.67979     49.7 1.052e+04 2.716e-10
 44.70200     49.8 1.024e+04 2.041e-10
 44.73827     51.7 1.018e+04 1.765e-10
 44.76557     53.5 1.013e+04 1.530e-10
 44.78777     53.4 9.900e+03 1.046e-10
 44.82709     55.1 9.854e+03 9.992e-11
 44.85134     56.8 9.849e+03 1.035e-10
 44.87355     57.0 9.736e+03 9.132e-11
 44.91491     58.7 9.787e+03 1.057e-10
 44.93711     59.1 9.769e+03 1.032e-10
 44.96033     60.9 9.823e+03 1.195e-10
 45.00068     62.6 9.858e+03 1.329e-10
 45.02289     62.9 9.843e+03 1.259e-10
 45.04916     64.4 9.837e+03 1.258e-10
 45.08646     65.9 9.801e+03 1.235e-10
 45.10695     66.1 9.777e+03 1.093e-10
 45.11406     66.6 9.825e+03 9.708e-11
 45.13799     68.0 9.718e+03 8.919e-11
 45.17223     69.5 9.671e+03 8.847e-11
 45.19444     69.7 9.702e+03 8.350e-11
 45.22681     71.3 9.687e+03 8.537e-11
 45.25801     72.8 9.677e+03 9.266e-11
 45.28021     73.0 9.696e+03 9.255e-11
 45.31564     74.5 9.762e+03 1.084e-10
 45.34378     76.1 9.872e+03 1.378e-10
 45.36599     76.2 1.004e+04 1.763e-10
 45.40446     78.1 1.022e+04 2.264e-10
 45.42956     80.1 1.049e+04 2.872e-10
 45.45176     80.3 1.062e+04 3.320e-10
 45.49312     82.0 1.080e+04 3.828e-10
 45.52634     82.8 1.079e+04 4.135e-10
 45.54692     83.5 1.079e+04 4.490e-10
 45.55802     83.5 1.070e+04 4.225e-10
 45.57082     84.6 1.068e+04 4.604e-10
 45.58981     85.8 1.075e+04 5.191e-10
 45.60091     85.8 1.060e+04 4.452e-10
 45.61523     87.0 1.071e+04 4.986e-10
 45.63269     88.0 1.090e+04 5.656e-10
 45.64380     88.0 1.074e+04 4.801e-10
 45.66457     89.2 1.104e+04 6.086e-10
 45.68688     89.5 1.083e+04 4.817e-10
 45.71536     91.2 1.103e+04 5.889e-10
 45.75045     92.7 1.115e+04 6.547e-10
 45.77020     93.1 1.091e+04 5.427e-10
 45.77943     93.0 1.096e+04 5.080e-10
 45.80409     94.1 1.091e+04 4.756e-10
 45.83622     95.9 1.082e+04 4.643e-10
 45.85843     96.6 1.055e+04 3.680e-10
 45.89301     98.3 1.034e+04 3.343e-10
 45.92200    100.0 1.004e+04 2.902e-10
 45.94420    100.8 9.876e+03 2.579e-10
 45.98184    102.5 9.683e+03 2.498e-10
 46.00777    104.4 9.658e+03 2.540e-10
 46.02998    105.3 9.669e+03 2.581e-10
 46.07066    107.2 9.751e+03 2.941e-10
 46.09354    109.0 9.905e+03 3.492e-10
 46.11575    109.4 9.942e+03 3.699e-10
 46.14829    109.9 9.989e+03 4.130e-10
 46.16802    110.4 1.007e+04 4.759e-10
 46.17912    110.7 1.003e+04 4.930e-10
 46.19260    111.3 1.015e+04 5.661e-10
 46.21091    112.0 1.023e+04 6.125e-10
 46.22201    112.2 1.017e+04 5.878e-10
 46.23702    112.6 1.019e+04 5.880e-10
 46.25379    112.9 1.018e+04 5.858e-10
 46.26490    113.0 1.017e+04 5.705e-10
 46.28143    113.2 1.013e+04 5.492e-10
 46.29668    113.1 1.005e+04 5.089e-10
 46.30779    112.9 1.007e+04 4.982e-10
 46.32856    113.3 9.898e+03 4.405e-10
 46.35087    113.6 9.886e+03 4.313e-10
 46.38155    114.2 9.523e+03 3.496e-10
 46.41444    114.7 9.173e+03 2.898e-10
 46.43345    114.8 9.150e+03 2.845e-10
 46.44499    113.5 9.209e+03 2.935e-10
 46.47038    113.6 9.253e+03 2.803e-10
 46.50021    113.9 9.315e+03 2.866e-10
 46.51122    114.2 9.576e+03 3.398e-10
 46.52570    114.2 9.564e+03 3.300e-10
 46.54290    114.0 9.593e+03 3.337e-10
 46.55401    113.6 9.948e+03 4.052e-10
 46.57012    112.9 1.022e+04 4.718e-10
 46.58579    112.1 1.045e+04 5.653e-10
 46.59689    111.6 1.075e+04 7.234e-10
 46.61453    111.1 1.089e+04 8.564e-10
 46.62868    110.8 1.102e+04 9.973e-10
 46.63978    110.9 1.128e+04 1.186e-09
 46.65894    110.9 1.135e+04 1.262e-09
 46.67156    110.7 1.141e+04 1.298e-09
 46.68267    110.9 1.150e+04 1.321e-09
 46.70335    110.5 1.152e+04 1.280e-09
 46.72555    109.5 1.148e+04 1.140e-09
 46.74624    108.1 1.133e+04 1.043e-09
 46.75734    107.4 1.114e+04 9.576e-10
 46.76642    105.8 1.082e+04 8.709e-10
 46.77752    104.1 1.034e+04 6.965e-10
 46.78912    102.9 1.013e+04 6.432e-10
 46.80023    102.5 1.009e+04 6.173e-10
 46.81439    101.5 1.015e+04 6.192e-10
 46.83201     99.8 1.066e+04 6.675e-10
 46.84311     98.8 1.088e+04 6.839e-10
 46.85880     93.2 1.364e+04 1.079e-09
 46.87490     86.2 1.770e+04 2.908e-09
 46.88600     85.8 1.801e+04 3.030e-09
 46.89629     82.3 1.985e+04 5.759e-09
 46.90179     81.8 2.050e+04 6.185e-09
 46.90867     78.8 2.148e+04 1.208e-08
 46.91769     76.8 2.156e+04 2.240e-08
 46.92324     76.5 2.158e+04 2.278e-08
 46.93087     76.2 2.139e+04 3.605e-08
 46.93824     76.2 2.138e+04 4.694e-08
 46.94094     76.3 2.129e+04 3.002e-08
 46.94468     76.5 2.117e+04 2.964e-08
 46.95308     76.6 2.133e+04 3.677e-08
 46.96057     76.2 2.138e+04 3.716e-08
 46.96613     76.4 2.148e+04 3.750e-08
 46.97529     75.4 2.144e+04 3.590e-08
 46.98202     74.5 2.114e+04 2.887e-08
 46.98757     74.1 2.125e+04 2.936e-08
 46.99749     72.7 2.131e+04 2.137e-08
 47.00351     70.1 2.241e+04 1.100e-08
 47.01466     68.5 2.270e+04 1.344e-08
 47.03534     61.9 2.300e+04 8.429e-09
 47.04645     61.6 2.328e+04 1.212e-08
 47.05306     58.4 2.246e+04 1.030e-08
 47.06224     54.9 2.159e+04 1.073e-08
 47.06779     54.1 2.214e+04 1.345e-08
 47.07522     50.7 2.131e+04 1.697e-08
 47.08368     48.7 2.075e+04 2.136e-08
 47.08924     48.6 2.114e+04 2.595e-08
 47.09742     47.3 2.107e+04 2.603e-08
 47.10460     46.1 2.087e+04 2.487e-08
 47.11020     46.6 2.062e+04 1.481e-08
 47.12112     44.0 1.968e+04 1.338e-08
 47.13222     42.3 1.996e+04 1.165e-08
 47.14749     39.4 1.846e+04 6.478e-09
 47.16400     35.8 1.639e+04 3.035e-09
 47.17511     31.9 1.485e+04 2.039e-09
 47.19190     28.6 1.242e+04 1.226e-09
 47.20689     27.5 1.184e+04 9.689e-10
 47.21799     26.5 1.192e+04 1.058e-09
 47.23631     27.1 1.190e+04 1.022e-09
 47.24978     27.7 1.188e+04 9.779e-10
 47.26088     27.5 1.196e+04 1.016e-09
 47.28073     27.9 1.179e+04 9.235e-10
 47.29267     28.3 1.165e+04 8.090e-10
 47.30377     28.0 1.158e+04 7.168e-10
 47.32445     28.3 1.136e+04 5.846e-10
 47.33555     27.8 1.126e+04 4.811e-10
 47.34735     27.9 1.107e+04 4.002e-10
 47.36734     27.8 1.094e+04 3.601e-10
 47.37844     27.3 1.089e+04 3.332e-10
 47.39176     27.9 1.074e+04 3.273e-10
 47.41022     28.1 1.073e+04 3.281e-10
 47.42143     28.0 1.073e+04 3.134e-10
 47.44747     29.4 1.071e+04 3.198e-10
 47.48509     30.7 1.070e+04 3.448e-10
 47.50730     31.5 1.066e+04 3.073e-10
 47.53630     32.6 1.066e+04 3.377e-10
 47.57087     33.6 1.059e+04 3.562e-10
 47.59307     34.7 1.062e+04 3.192e-10
 47.61366     35.0 1.057e+04 3.388e-10
 47.62466     35.5 1.058e+04 3.263e-10
 47.63603     35.9 1.058e+04 3.386e-10
 47.65644     35.9 1.070e+04 3.944e-10
 47.66755     36.7 1.068e+04 3.627e-10
 47.68044     36.6 1.087e+04 4.452e-10
 47.69933     36.4 1.116e+04 5.752e-10
 47.71044     37.4 1.108e+04 5.309e-10
 47.72486     37.2 1.141e+04 7.050e-10
 47.74222     36.9 1.177e+04 9.475e-10
 47.75332     38.0 1.168e+04 8.719e-10
 47.76461     37.7 1.203e+04 1.154e-09
 47.77581     37.8 1.221e+04 1.420e-09
 47.80278     37.2 1.226e+04 1.497e-09
 47.82819     36.1 1.201e+04 1.265e-09
 47.85040     38.1 1.270e+04 1.710e-09
 47.89160     37.2 1.213e+04 1.167e-09
 47.93602     37.4 1.212e+04 1.004e-09
 47.97753     35.7 1.092e+04 5.355e-10
 47.99964     36.0 1.137e+04 6.640e-10
 48.01354     34.9 1.092e+04 5.294e-10
 48.03133     33.9 1.080e+04 5.198e-10
 48.04243     34.2 1.106e+04 6.038e-10
 48.05796     33.2 1.072e+04 5.909e-10
 48.07421     32.2 1.064e+04 6.051e-10
 48.08532     32.7 1.061e+04 6.333e-10
 48.09734     32.2 1.051e+04 6.404e-10
 48.10845     31.7 1.056e+04 6.692e-10
 48.11710     31.6 1.052e+04 6.611e-10
 48.12820     32.1 1.044e+04 5.776e-10
 48.14678     32.0 1.039e+04 5.257e-10
 48.15999     31.7 1.037e+04 4.538e-10
 48.17109     31.6 1.033e+04 3.775e-10
 48.20240     30.3 1.055e+04 3.212e-10
 48.23485     28.0 1.070e+04 2.980e-10
 48.24586     27.7 1.065e+04 3.019e-10
 48.25782     25.8 1.060e+04 3.306e-10
 48.27755     24.3 1.053e+04 3.853e-10
 48.28865     23.9 1.063e+04 4.570e-10
 48.30223     23.5 1.064e+04 5.006e-10
 48.32043     23.2 1.067e+04 5.254e-10
 48.33154     23.2 1.075e+04 5.556e-10
 48.34664     22.9 1.074e+04 5.440e-10
 48.36332     22.6 1.078e+04 5.348e-10
 48.37442     22.5 1.079e+04 5.230e-10
 48.39106     22.2 1.081e+04 5.213e-10
 48.40621     21.8 1.087e+04 5.200e-10
 48.41731     21.6 1.085e+04 4.969e-10
 48.43008     21.1 1.085e+04 4.923e-10
 48.44118     21.4 1.091e+04 4.929e-10
 48.46888     21.7 1.080e+04 4.922e-10
 48.49218     21.9 1.079e+04 4.800e-10
 48.51438     22.7 1.101e+04 5.715e-10
 48.55575     22.6 1.096e+04 5.696e-10
 48.57786     22.9 1.110e+04 6.493e-10
 48.59092     22.7 1.097e+04 6.174e-10
 48.60954     22.6 1.078e+04 5.616e-10
 48.62064     23.0 1.092e+04 6.040e-10
 48.63533     22.8 1.069e+04 5.369e-10
 48.65243     22.5 1.048e+04 4.790e-10
 48.66353     22.8 1.060e+04 5.093e-10
 48.67974     22.4 1.040e+04 4.640e-10
 48.69532     21.9 1.029e+04 4.535e-10
 48.70642     22.3 1.038e+04 4.763e-10
 48.72416     21.8 1.038e+04 4.782e-10
 48.73820     21.1 1.043e+04 4.948e-10
 48.74931     21.3 1.053e+04 5.216e-10
 48.76281     20.5 1.067e+04 5.753e-10
 48.77391     20.9 1.085e+04 6.434e-10
 48.78109     20.0 1.108e+04 7.476e-10
 48.79219     20.1 1.110e+04 7.548e-10
 48.81287     19.3 1.131e+04 8.716e-10
 48.82398     19.4 1.124e+04 8.323e-10
 48.83519     18.3 1.144e+04 9.286e-10
 48.85576     16.2 1.210e+04 1.170e-09
 48.86686     16.8 1.169e+04 9.530e-10
 48.87960     13.6 1.283e+04 1.420e-09
 48.89865     10.2 1.416e+04 2.612e-09
 48.90975     11.1 1.327e+04 1.735e-09
 48.92401      8.6 1.405e+04 2.928e-09
 48.94154      6.9 1.432e+04 3.609e-09
 48.95264      7.8 1.374e+04 2.801e-09
 48.96843      6.7 1.380e+04 2.853e-09
 48.98442      5.8 1.367e+04 2.544e-09
 48.99553      6.7 1.348e+04 2.375e-09
 49.01284      5.9 1.325e+04 1.961e-09
 49.04625      4.5 1.263e+04 1.143e-09
 49.07039      2.0 1.130e+04 4.835e-10
 49.08647      5.8 1.191e+04 6.049e-10
 49.10684      5.3 1.190e+04 6.257e-10
 49.13396      3.0 1.014e+04 2.527e-10
 49.15617      5.7 1.083e+04 2.867e-10
 49.17959      4.3 9.838e+03 2.157e-10
 49.21974      4.8 9.814e+03 2.155e-10
 49.24194      6.5 9.830e+03 2.146e-10
 49.26841      7.3 9.808e+03 2.184e-10
 49.30551      8.3 9.907e+03 2.490e-10
 49.32772     10.0 9.774e+03 2.139e-10
 49.35724     11.0 9.929e+03 2.522e-10
 49.39128     12.1 1.024e+04 3.580e-10
 49.41349     14.6 9.904e+03 2.692e-10
 49.44606     15.6 1.103e+04 5.275e-10
 49.47696     15.7 1.191e+04 8.000e-10
 49.48797     16.6 1.197e+04 7.046e-10
 49.50139     14.4 1.349e+04 1.517e-09
 49.51975     13.2 1.495e+04 3.751e-09
 49.53085     13.4 1.537e+04 4.488e-09
 49.54580     14.3 1.677e+04 9.720e-09
 49.56264     15.7 1.800e+04 1.535e-08
 49.57374     16.4 1.815e+04 1.621e-08
 49.59021     16.9 1.862e+04 1.690e-08
 49.60553     17.3 1.855e+04 1.526e-08
 49.61663     18.1 1.809e+04 1.385e-08
 49.63463     18.0 1.757e+04 9.798e-09
 49.64841     16.8 1.644e+04 6.176e-09
 49.65952     17.4 1.532e+04 4.018e-09
 49.67904     15.3 1.388e+04 2.865e-09
 49.69130     14.4 1.363e+04 2.743e-09
 49.70240     15.0 1.285e+04 1.932e-09
 49.72308     14.0 1.348e+04 2.280e-09
 49.73419     14.6 1.292e+04 1.679e-09
 49.74566     12.6 1.447e+04 2.716e-09
 49.76100     10.9 1.565e+04 4.658e-09
 49.77021     12.3 1.513e+04 3.572e-09
 49.77707     12.6 1.463e+04 2.904e-09
 49.79007     11.2 1.573e+04 5.291e-09
 49.80886     10.6 1.621e+04 7.215e-09
 49.81996     11.4 1.590e+04 6.795e-09
 49.83448     11.0 1.594e+04 6.891e-09
 49.85175     10.7 1.573e+04 5.995e-09
 49.86285     11.7 1.559e+04 5.997e-09
 49.87890     10.9 1.506e+04 4.095e-09
 49.89463      9.1 1.400e+04 2.193e-09
 49.90574     10.2 1.402e+04 2.290e-09
 49.92331      7.6 1.252e+04 1.244e-09
 49.93752      5.9 1.124e+04 8.816e-10
 49.94862      7.0 1.142e+04 9.086e-10
 49.96940      5.4 1.038e+04 6.706e-10
 49.99171      7.3 1.039e+04 6.300e-10
 50.02344      7.4 9.896e+03 4.827e-10
 50.05518      7.8 9.738e+03 4.218e-10
 50.07738      9.1 9.639e+03 3.834e-10
 50.11226      9.6 9.588e+03 3.374e-10
 50.14105     10.1 9.546e+03 3.266e-10
 50.16325     12.4 9.208e+03 2.732e-10
 50.20109     13.2 9.097e+03 2.618e-10
 50.22682     14.2 8.963e+03 2.523e-10
 50.24903     16.3 8.763e+03 2.153e-10
 50.28992     17.4 8.635e+03 2.013e-10
 50.31260     18.6 8.661e+03 1.975e-10
 50.33480     20.4 8.552e+03 1.751e-10
 50.37617     21.4 8.617e+03 1.837e-10
 50.39837     23.0 8.560e+03 1.742e-10
 50.41556     23.8 8.820e+03 2.163e-10
 50.43776     24.9 8.452e+03 1.555e-10
 50.46194     25.8 8.705e+03 1.911e-10
 50.48415     27.2 8.635e+03 1.776e-10
 50.51198     28.2 9.000e+03 2.419e-10
 50.54771     29.3 9.377e+03 3.322e-10
 50.56992     30.5 9.302e+03 3.132e-10
 50.60081     31.6 9.682e+03 4.238e-10
 50.63349     32.8 1.001e+04 5.311e-10
 50.65570     34.0 9.984e+03 5.191e-10
 50.68963     35.3 1.030e+04 6.105e-10
 50.71926     36.4 1.034e+04 6.084e-10
 50.74147     37.5 1.038e+04 6.094e-10
 50.77846     38.4 1.039e+04 5.877e-10
 50.80504     39.4 1.043e+04 5.546e-10
 50.81604     39.9 1.031e+04 5.360e-10
 50.83378     40.3 1.018e+04 4.786e-10
 50.84773     40.8 1.016e+04 4.433e-10
 50.85883     41.2 1.020e+04 4.335e-10
 50.87819     41.8 1.033e+04 4.157e-10
 50.89062     42.2 1.036e+04 4.255e-10
 50.90172     42.6 1.047e+04 4.249e-10
 50.92240     42.9 1.067e+04 4.557e-10
 50.93350     43.0 1.083e+04 4.636e-10
 50.94481     43.0 1.112e+04 5.432e-10
 50.96529     43.0 1.136e+04 6.791e-10
 50.97639     43.1 1.142e+04 7.029e-10
 50.98923     43.3 1.149e+04 8.779e-10
 51.00818     43.9 1.149e+04 1.065e-09
 51.01928     44.2 1.130e+04 1.011e-09
 51.03364     45.0 1.127e+04 1.110e-09
 51.05106     45.9 1.123e+04 1.164e-09
 51.06217     46.1 1.094e+04 1.036e-09
 51.07805     47.0 1.088e+04 1.011e-09
 51.09193     47.9 1.084e+04 9.453e-10
 51.09672     47.7 1.108e+04 1.161e-09
 51.10505     48.0 1.097e+04 1.063e-09
 51.12247     48.9 1.107e+04 1.047e-09
 51.13684     49.6 1.116e+04 1.004e-09
 51.14794     49.7 1.110e+04 8.701e-10
 51.16688     50.1 1.118e+04 7.958e-10
 51.17972     50.1 1.120e+04 7.231e-10
 51.19083     50.1 1.095e+04 6.235e-10
 51.21129     49.9 1.083e+04 5.745e-10
 51.22261     49.5 1.057e+04 5.812e-10
 51.23371     49.8 1.052e+04 5.471e-10
 51.25440     49.4 1.048e+04 5.959e-10
 51.26550     49.8 1.054e+04 5.994e-10
 51.27791     49.5 1.068e+04 7.034e-10
 51.29728     49.3 1.083e+04 8.166e-10
 51.30839     49.8 1.086e+04 8.245e-10
 51.32233     49.6 1.090e+04 8.640e-10
 51.34017     49.4 1.089e+04 8.491e-10
 51.35127     49.8 1.091e+04 8.404e-10
 51.36674     49.2 1.078e+04 7.453e-10
 51.38306     48.1 1.061e+04 6.423e-10
 51.39416     48.4 1.048e+04 5.895e-10
 51.41115     47.0 1.031e+04 5.554e-10
 51.42466     45.6 1.033e+04 5.681e-10
 51.42834     45.0 1.042e+04 6.050e-10
 51.43705     45.2 1.035e+04 5.850e-10
 51.45557     44.0 1.042e+04 6.446e-10
 51.46883     43.0 1.071e+04 7.901e-10
 51.47994     43.2 1.061e+04 7.628e-10
 51.49998     42.5 1.091e+04 9.523e-10
 51.51172     42.1 1.115e+04 1.132e-09
 51.52282     42.3 1.102e+04 1.090e-09
 51.54350     42.0 1.117e+04 1.174e-09
 51.55461     42.3 1.097e+04 1.082e-09
 51.56660     42.1 1.094e+04 1.060e-09
 51.58639     41.9 1.088e+04 1.007e-09
 51.59749     42.0 1.071e+04 9.034e-10
 51.61101     41.9 1.057e+04 8.182e-10
 51.62928     41.7 1.041e+04 7.172e-10
 51.64038     41.7 1.036e+04 6.945e-10
 51.66663     41.8 1.016e+04 5.767e-10
 51.70414     41.8 9.784e+03 4.408e-10
 51.72635     41.9 1.021e+04 6.288e-10
 51.74435     42.1 1.008e+04 5.881e-10
 51.75739     42.5 1.001e+04 5.612e-10
 51.75997     41.5 1.016e+04 6.459e-10
 51.76904     41.3 1.031e+04 7.285e-10
 51.78867     41.8 1.039e+04 7.720e-10
 51.80083     42.5 1.055e+04 8.489e-10
 51.81193     42.4 1.090e+04 9.814e-10
 51.83261     43.1 1.117e+04 1.108e-09
 51.84371     42.2 1.183e+04 1.287e-09
 51.85529     42.7 1.217e+04 1.472e-09
 51.87550     43.2 1.268e+04 1.807e-09
 51.88660     41.8 1.334e+04 2.012e-09
 51.89970     42.4 1.385e+04 2.439e-09
 51.91838     43.1 1.441e+04 3.020e-09
 51.92949     41.8 1.424e+04 3.018e-09
 51.94411     42.8 1.451e+04 3.381e-09
 51.96127     43.9 1.472e+04 3.736e-09
 51.97238     43.1 1.414e+04 3.239e-09
 51.98852     44.3 1.418e+04 3.304e-09
 52.00416     45.4 1.415e+04 3.355e-09
 52.01526     45.0 1.383e+04 2.645e-09
 52.03294     46.1 1.376e+04 2.642e-09
 52.04705     47.2 1.365e+04 2.643e-09
 52.05815     46.7 1.337e+04 1.998e-09
 52.07735     48.0 1.339e+04 2.097e-09
 52.08993     49.3 1.342e+04 2.251e-09
 52.09160     48.1 1.342e+04 1.975e-09
 52.10122     47.0 1.321e+04 1.868e-09
 52.12172     48.3 1.374e+04 2.165e-09
 52.14392     48.3 1.425e+04 2.868e-09
 52.16461     49.6 1.485e+04 3.519e-09
 52.17571     48.8 1.461e+04 3.851e-09
 52.18838     50.0 1.515e+04 4.737e-09
 52.20749     51.2 1.552e+04 5.567e-09
 52.21860     50.7 1.528e+04 5.657e-09
 52.23280     51.9 1.563e+04 6.397e-09
 52.25038     53.1 1.591e+04 6.964e-09
 52.26148     52.3 1.530e+04 5.531e-09
 52.27721     53.2 1.560e+04 5.884e-09
 52.29327     54.1 1.590e+04 6.095e-09
 52.30437     51.9 1.522e+04 3.296e-09
 52.32162     52.4 1.553e+04 3.388e-09
 52.33615     53.1 1.595e+04 3.523e-09
 52.34726     48.7 1.407e+04 1.974e-09
 52.36604     49.2 1.406e+04 2.071e-09
 52.37904     49.7 1.412e+04 2.204e-09
 52.39014     46.9 1.264e+04 1.838e-09
 52.41045     47.8 1.260e+04 1.948e-09
 52.42193     48.8 1.265e+04 2.048e-09
 52.42323     47.9 1.236e+04 1.947e-09
 52.43395     46.9 1.253e+04 1.865e-09
 52.45371     47.6 1.265e+04 1.764e-09
 52.46482     46.4 1.259e+04 1.517e-09
 52.47707     46.9 1.250e+04 1.317e-09
 52.49660     47.3 1.224e+04 1.093e-09
 52.50770     46.0 1.139e+04 8.625e-10
 52.52148     46.3 1.097e+04 6.908e-10
 52.53949     46.4 1.062e+04 5.555e-10
 52.55059     45.6 1.019e+04 4.796e-10
 52.56590     45.7 1.001e+04 4.113e-10
 52.58237     45.7 9.831e+03 3.884e-10
 52.59348     45.2 9.729e+03 3.756e-10
 52.61031     45.4 9.711e+03 3.752e-10
 52.62526     46.1 9.715e+03 3.841e-10
 52.64757     46.0 9.699e+03 3.816e-10
 52.68823     46.9 9.762e+03 4.200e-10
 52.71113     47.5 9.841e+03 4.399e-10
 52.73334     47.5 9.802e+03 3.997e-10
 52.77480     48.1 9.775e+03 3.787e-10
 52.79701     48.0 9.622e+03 3.185e-10
 52.82147     48.3 9.457e+03 2.588e-10
 52.86057     48.2 9.285e+03 2.085e-10
 52.88278     48.2 9.210e+03 1.819e-10
 52.91029     47.9 9.237e+03 1.836e-10
 52.94635     47.8 9.375e+03 2.029e-10
 52.96855     47.3 9.417e+03 2.065e-10
 52.99912     47.7 9.700e+03 2.660e-10
 53.03202     47.8 9.871e+03 3.253e-10
 53.04303     47.7 9.973e+03 3.738e-10
 53.05444     47.8 1.010e+04 4.281e-10
 53.07481     48.0 1.034e+04 5.172e-10
 53.08592     47.7 1.053e+04 5.896e-10
 53.08831     47.9 1.079e+04 6.913e-10
 53.09942     47.7 1.088e+04 7.123e-10
 53.11770     48.0 1.098e+04 7.632e-10
 53.12881     47.5 1.101e+04 7.663e-10
 53.14327     47.8 1.100e+04 7.535e-10
 53.16059     48.0 1.096e+04 7.136e-10
 53.17169     47.1 1.090e+04 6.649e-10
 53.18768     47.0 1.083e+04 6.112e-10
 53.20348     46.8 1.077e+04 5.665e-10
 53.21458     45.3 1.074e+04 5.733e-10
 53.23209     45.0 1.065e+04 5.722e-10
 53.24636     44.6 1.066e+04 5.945e-10
 53.25747     43.7 1.071e+04 7.188e-10
 53.27651     43.7 1.082e+04 7.945e-10
 53.28925     43.7 1.094e+04 8.828e-10
 53.30035     43.2 1.095e+04 9.228e-10
 53.32092     43.4 1.106e+04 9.994e-10
 53.33214     43.8 1.117e+04 1.081e-09
 53.34324     43.6 1.088e+04 9.868e-10
 53.36392     44.1 1.086e+04 9.667e-10
 53.37503     43.6 1.036e+04 6.771e-10
 53.38754     44.0 1.022e+04 6.028e-10
 53.40681     44.2 1.004e+04 5.268e-10
 53.41791     43.2 9.453e+03 3.675e-10
 53.42104     43.8 9.219e+03 3.143e-10
 53.43215     43.7 9.082e+03 2.984e-10
 53.44970     43.9 8.960e+03 2.743e-10
 53.46090     43.9 8.782e+03 2.312e-10
 53.48767     45.4 8.472e+03 1.755e-10
 53.52456     47.0 8.159e+03 1.315e-10
 53.54677     47.5 7.704e+03 8.162e-11
 53.57649     49.2 7.603e+03 7.407e-11
 53.61034     51.0 7.603e+03 7.417e-11
 53.63254     51.6 7.546e+03 6.869e-11
 53.66532     53.6 7.573e+03 7.039e-11
 53.69611     55.6 7.608e+03 7.307e-11
 53.71832     56.3 7.613e+03 7.467e-11
 53.74287     58.2 7.648e+03 7.843e-11
 53.76507     58.2 7.672e+03 8.826e-11
 53.78189     60.1 7.690e+03 8.964e-11
 53.80409     60.8 7.814e+03 1.058e-10
 53.84297     62.8 7.810e+03 1.040e-10
 53.86766     64.8 7.807e+03 1.026e-10
 53.88987     65.4 7.907e+03 1.163e-10
 53.93123     67.4 7.924e+03 1.167e-10
 53.95344     68.0 7.957e+03 1.228e-10
 53.97621     70.0 8.038e+03 1.298e-10
 54.01700     71.9 8.128e+03 1.394e-10
 54.03921     72.4 8.211e+03 1.532e-10
 54.06504     74.3 8.394e+03 1.776e-10
 54.10278     76.2 8.632e+03 2.086e-10
 54.12498     76.6 8.841e+03 2.473e-10
 54.15386     78.4 9.216e+03 3.082e-10
 54.18855     79.7 9.511e+03 3.616e-10
 54.21076     79.6 9.619e+03 4.079e-10
 54.23134     80.4 9.794e+03 4.631e-10
 54.24235     80.7 9.878e+03 4.963e-10
 54.25360     81.6 1.016e+04 5.896e-10
 54.27413     82.4 1.049e+04 7.009e-10
 54.28523     82.4 1.077e+04 7.735e-10
 54.29801     82.3 1.134e+04 9.735e-10
 54.31702     81.9 1.211e+04 1.316e-09
 54.32812     81.0 1.287e+04 1.723e-09
 54.34242     80.4 1.406e+04 2.707e-09
 54.35991     79.5 1.608e+04 4.774e-09
 54.37101     79.8 1.590e+04 5.746e-09
 54.38684     79.4 1.777e+04 9.215e-09
 54.40279     77.9 1.977e+04 1.454e-08
 54.41299     78.9 1.867e+04 1.320e-08
 54.41919     78.8 2.057e+04 2.047e-08
 54.42414     77.3 2.149e+04 2.491e-08
 54.42969     77.7 2.049e+04 2.072e-08
 54.43670     76.3 2.115e+04 2.359e-08
 54.44558     74.7 2.171e+04 2.594e-08
 54.45113     75.5 2.086e+04 2.056e-08
 54.45891     73.7 2.144e+04 2.280e-08
 54.46703     72.0 2.163e+04 2.356e-08
 54.47258     72.4 2.120e+04 2.056e-08
 54.48112     71.2 2.122e+04 2.088e-08
 54.48852     68.9 2.126e+04 2.059e-08
 54.49967     70.4 2.065e+04 1.855e-08
 54.52008     69.3 2.021e+04 1.643e-08
 54.53145     69.1 1.920e+04 1.154e-08
 54.54256     71.3 1.921e+04 1.334e-08
 54.56324     72.1 1.838e+04 9.555e-09
 54.57434     74.7 1.851e+04 1.108e-08
 54.58670     75.8 1.780e+04 7.907e-09
 54.60613     76.5 1.708e+04 4.123e-09
 54.61723     79.9 1.732e+04 6.467e-09
 54.63111     80.6 1.675e+04 3.288e-09
 54.64901     79.8 1.595e+04 1.303e-09
 54.66012     85.0 1.634e+04 2.567e-09
 54.67552     83.1 1.553e+04 1.074e-09
 54.69190     79.0 1.396e+04 8.855e-10
 54.70300     86.1 1.607e+04 9.023e-10
 54.71330     81.7 1.639e+04 9.393e-10
 54.71880     83.0 1.706e+04 9.621e-10
 54.72539     69.5 2.576e+04 1.690e-09
 54.73469     49.2 3.017e+04 1.028e-08
 54.74024     51.4 3.120e+04 9.928e-09
 54.74632     40.6 2.460e+04 3.519e-08
 54.75187     41.1 2.421e+04 3.714e-08
 54.75613     38.1 2.169e+04 5.892e-08
 54.76169     37.2 2.249e+04 5.642e-08
 54.76980     33.2 2.385e+04 5.654e-08
 54.77758     28.4 2.508e+04 4.859e-08
 54.78313     24.3 2.673e+04 4.165e-08
 54.79201     18.1 2.928e+04 2.095e-08
 54.80871     -1.2 2.415e+04 6.363e-09
 54.82056    -15.7 1.515e+04 2.548e-09
 54.83167    -21.6 1.469e+04 2.365e-09
 54.85235    -24.1 1.373e+04 1.568e-09
 54.86345    -31.4 1.357e+04 1.158e-09
 54.87538    -31.4 1.226e+04 8.723e-10
 54.89523    -29.8 1.151e+04 7.529e-10
 54.90634    -34.0 1.158e+04 7.381e-10
 54.91980    -30.5 1.140e+04 7.245e-10
 54.93812    -27.5 1.135e+04 7.394e-10
 54.94922    -30.1 1.170e+04 7.644e-10
 54.96421    -26.7 1.155e+04 7.867e-10
 54.98101    -23.0 1.154e+04 8.156e-10
 54.99211    -23.9 1.180e+04 8.441e-10
 55.00862    -22.3 1.191e+04 8.767e-10
 55.02399    -17.8 1.181e+04 9.632e-10
 55.04630    -18.8 1.239e+04 1.110e-09
 55.07379    -13.6 1.242e+04 1.248e-09
 55.09600    -13.8 1.185e+04 1.114e-09
 55.10987     -9.0 1.235e+04 1.380e-09
 55.13207     -8.8 1.228e+04 1.275e-09
 55.16417     -6.9 1.254e+04 1.519e-09
 55.18434     -5.4 1.291e+04 1.828e-09
 55.19544     -5.7 1.242e+04 1.670e-09
 55.20848     -4.1 1.302e+04 2.124e-09
 55.22723     -2.9 1.387e+04 2.745e-09
 55.23833     -2.8 1.302e+04 2.348e-09
 55.25289     -1.9 1.396e+04 3.171e-09
 55.27012     -1.2 1.515e+04 4.369e-09
 55.28122     -0.6 1.393e+04 3.292e-09
 55.29731     -0.1 1.519e+04 4.746e-09
 55.31300      0.3 1.631e+04 6.716e-09
 55.32411      1.2 1.495e+04 4.385e-09
 55.34172      1.4 1.583e+04 6.225e-09
 55.35589      1.7 1.609e+04 7.246e-09
 55.36699      2.8 1.498e+04 4.570e-09
 55.38613      3.1 1.507e+04 5.320e-09
 55.39878      3.7 1.491e+04 5.288e-09
 55.40787      4.5 1.385e+04 3.267e-09
 55.41743      4.8 1.387e+04 3.361e-09
 55.43055      5.5 1.372e+04 3.285e-09
 55.45275      6.3 1.253e+04 1.772e-09
 55.48616      7.0 1.205e+04 1.434e-09
 55.51653      8.3 1.167e+04 1.131e-09
 55.53874      9.7 1.118e+04 1.027e-09
 55.57509     11.0 1.127e+04 1.005e-09
 55.60231     12.1 1.116e+04 8.741e-10
 55.62451     13.6 1.117e+04 9.908e-10
 55.66391     14.7 1.113e+04 9.028e-10
 55.68808     15.7 1.082e+04 6.032e-10
 55.71029     16.9 1.085e+04 7.542e-10
 55.73926     17.7 1.049e+04 4.926e-10
 55.76037     17.9 1.057e+04 5.122e-10
 55.77385     19.2 1.061e+04 6.538e-10
 55.79715     19.5 1.041e+04 4.369e-10
 55.83742     19.3 1.026e+04 3.356e-10
 55.85963     20.7 1.051e+04 4.700e-10
 55.88598     20.4 1.046e+04 4.190e-10
 55.92320     20.2 1.042e+04 4.160e-10
 55.94540     21.5 1.045e+04 4.490e-10
 55.97480     21.5 1.043e+04 4.442e-10
 56.00897     21.6 1.037e+04 4.253e-10
 56.03118     22.7 1.024e+04 4.258e-10
 56.06363     22.5 1.030e+04 4.220e-10
 56.09465     22.1 1.047e+04 4.306e-10
 56.10565     22.7 1.045e+04 4.736e-10
 56.11895     22.0 1.078e+04 5.606e-10
 56.15236     21.1 1.134e+04 8.130e-10
 56.18052     20.0 1.136e+04 8.208e-10
 56.20273     21.8 1.164e+04 1.082e-09
 56.24128     21.0 1.134e+04 9.018e-10
 56.26629     20.5 1.057e+04 4.923e-10
 56.28850     22.4 1.077e+04 6.299e-10
 56.32986     21.7 9.864e+03 2.671e-10
 56.35207     23.8 9.968e+03 3.120e-10
 56.37452     22.7 9.253e+03 1.526e-10
 56.40472     22.6 9.100e+03 1.364e-10
 56.42363     23.6 9.111e+03 1.212e-10
 56.43784     25.8 9.150e+03 1.340e-10
 56.46335     26.1 9.152e+03 1.350e-10
 56.50141     26.5 9.262e+03 1.443e-10
 56.52362     28.5 9.321e+03 1.547e-10
 56.55218     28.4 9.617e+03 1.992e-10
 56.58719     28.0 1.005e+04 2.748e-10
 56.60939     29.2 1.049e+04 4.003e-10
 56.64100     28.3 1.116e+04 6.331e-10
 56.67296     27.4 1.136e+04 6.742e-10
 56.69517     28.1 1.192e+04 1.082e-09
 56.72983     27.7 1.163e+04 8.698e-10
 56.75874     27.4 1.106e+04 5.037e-10
 56.78094     28.1 1.114e+04 5.579e-10
 56.81865     27.4 1.045e+04 2.754e-10
 56.84451     27.0 9.974e+03 1.621e-10
 56.86672     27.5 9.797e+03 1.737e-10
 56.90748     28.0 9.603e+03 1.311e-10
 56.93028     28.9 9.536e+03 1.089e-10
 56.95249     30.0 9.512e+03 1.102e-10
 56.99385     30.9 9.520e+03 9.367e-11
 57.01606     31.9 9.477e+03 9.119e-11
 57.04072     32.7 9.454e+03 8.856e-11
 57.07018     33.5 9.461e+03 9.176e-11
 57.08688     34.4 9.480e+03 1.129e-10
 57.10183     35.5 9.446e+03 9.986e-11
 57.12955     36.4 9.504e+03 1.095e-10
 57.16540     37.3 9.596e+03 1.312e-10
 57.18761     38.3 9.603e+03 1.176e-10
 57.21837     38.9 9.740e+03 1.449e-10
 57.25118     39.5 9.864e+03 2.012e-10
 57.27338     39.9 9.921e+03 1.987e-10
 57.30720     40.7 1.011e+04 3.091e-10
 57.33695     41.9 1.039e+04 4.652e-10
 57.35916     42.1 1.047e+04 4.029e-10
 57.39603     43.1 1.070e+04 4.908e-10
 57.42272     43.7 1.072e+04 4.978e-10
 57.44493     43.2 1.051e+04 4.006e-10
 57.48485     43.6 1.056e+04 4.508e-10
 57.50850     44.1 1.053e+04 4.715e-10
 57.53071     43.7 1.086e+04 7.108e-10
 57.57207     44.5 1.091e+04 7.696e-10
 57.59427     44.8 1.151e+04 1.127e-09
 57.61809     45.3 1.148e+04 1.101e-09
 57.65784     45.6 1.120e+04 9.276e-10
 57.68005     45.1 1.147e+04 1.034e-09
 57.70692     44.9 1.108e+04 8.783e-10
 57.73564     44.7 1.105e+04 8.849e-10
 57.75013     44.1 1.055e+04 6.435e-10
 57.76582     43.6 1.028e+04 5.584e-10
 57.79574     43.9 1.049e+04 6.585e-10
 57.82939     44.2 1.065e+04 7.080e-10
 57.85160     43.7 9.766e+03 3.144e-10
 57.88457     44.1 9.766e+03 3.158e-10
 57.91516     44.6 9.700e+03 2.980e-10
 57.93737     44.1 9.199e+03 1.911e-10
 57.97340     45.1 9.169e+03 1.901e-10
 58.00094     46.2 9.059e+03 1.838e-10
 58.02315     46.8 8.925e+03 1.587e-10
 58.06222     48.3 8.806e+03 1.485e-10
 58.08671     49.7 8.659e+03 1.447e-10
 58.10892     50.4 8.667e+03 1.259e-10
 58.15028     51.7 8.672e+03 1.282e-10
 58.17249     52.2 8.752e+03 1.232e-10
 58.19546     53.4 8.817e+03 1.350e-10
 58.23606     54.5 8.962e+03 1.637e-10
 58.25826     54.5 9.287e+03 2.336e-10
 58.28429     55.8 9.466e+03 3.003e-10
 58.32183     56.9 9.649e+03 3.596e-10
 58.34404     57.5 1.013e+04 5.602e-10
 58.37312     57.7 1.029e+04 6.022e-10
 58.40111     57.7 1.045e+04 6.683e-10
 58.41339     57.4 1.044e+04 6.718e-10
 58.42981     58.0 1.103e+04 9.504e-10
 58.46194     57.9 1.127e+04 1.078e-09
 58.49338     57.4 1.130e+04 1.145e-09
 58.51559     57.6 1.144e+04 1.131e-09
 58.55077     56.6 1.120e+04 9.837e-10
 58.57915     55.5 1.069e+04 7.335e-10
 58.60136     55.2 1.041e+04 5.425e-10
 58.63960     53.4 9.673e+03 3.245e-10
 58.66493     51.5 9.153e+03 2.563e-10
 58.68714     50.3 9.065e+03 2.167e-10
 58.72842     48.7 9.030e+03 2.199e-10
 58.77284     46.3 9.162e+03 2.553e-10
 58.80605     45.4 9.359e+03 3.014e-10
 58.82518     44.3 9.584e+03 3.547e-10
 58.83628     42.2 1.012e+04 4.368e-10
 58.86156     38.1 1.140e+04 7.496e-10
 58.90005     36.2 1.180e+04 1.134e-09
 58.92215     34.1 1.234e+04 1.496e-09
 58.93919     33.4 1.218e+04 1.395e-09
 58.95384     32.7 1.193e+04 1.249e-09
 58.96494     31.5 1.223e+04 1.383e-09
 58.98360     31.1 1.195e+04 1.259e-09
 58.99673     30.2 1.180e+04 1.163e-09
 59.00783     28.6 1.187e+04 1.172e-09
 59.02802     27.8 1.184e+04 1.165e-09
 59.03962     26.7 1.185e+04 1.176e-09
 59.05072     26.0 1.199e+04 1.236e-09
 59.06637     24.8 1.201e+04 1.254e-09
 59.07645     25.5 1.174e+04 1.272e-09
 59.08250     25.4 1.187e+04 1.323e-09
 59.09464     24.1 1.190e+04 1.299e-09
 59.11429     22.4 1.193e+04 1.265e-09
 59.12539     22.4 1.185e+04 1.156e-09
 59.13905     20.7 1.161e+04 1.043e-09
 59.15717     18.7 1.124e+04 8.689e-10
 59.17948     18.9 1.095e+04 7.391e-10
 59.21697     16.4 1.025e+04 5.036e-10
 59.24314     13.8 9.641e+03 3.618e-10
 59.26535     15.5 9.501e+03 3.173e-10
 59.30579     13.9 8.973e+03 2.591e-10
 59.32892     13.9 8.529e+03 2.072e-10
 59.35112     15.9 8.536e+03 1.963e-10
 59.39249     16.2 8.191e+03 1.383e-10
 59.41469     18.1 8.228e+03 1.377e-10
 59.43903     17.9 7.923e+03 8.837e-11
 59.47826     16.9 7.875e+03 6.281e-11
 59.50047     18.6 7.971e+03 7.644e-11
 59.52786     17.9 7.886e+03 7.772e-11
 59.56403     17.8 7.848e+03 8.338e-11
 59.58624     19.8 7.956e+03 9.284e-11
 59.61669     19.7 7.937e+03 9.218e-11
 59.64981     19.5 7.864e+03 8.319e-11
 59.67202     21.2 7.973e+03 8.706e-11
 59.70551     20.1 8.058e+03 8.693e-11
 59.73203     17.4 8.348e+03 1.023e-10
 59.73990     18.4 8.145e+03 8.082e-11
 59.75779     19.5 8.341e+03 9.911e-11
 59.79434     16.6 8.689e+03 1.660e-10
 59.82136     14.2 9.106e+03 2.778e-10
 59.84356     15.3 9.417e+03 3.362e-10
 59.88316     12.3 9.884e+03 3.738e-10
 59.90713      8.6 9.979e+03 3.487e-10
 59.92934      8.4 1.026e+04 4.029e-10
 59.97070      2.9 1.055e+04 4.618e-10
 59.99291      2.1 1.100e+04 5.696e-10
 60.01640     -3.2 1.167e+04 1.007e-09
 60.05648     -5.6 1.142e+04 1.316e-09
 60.07868     -5.2 1.109e+04 1.070e-09
 60.10523     -6.3 1.095e+04 4.333e-10
 60.14225    -13.6 1.045e+04 2.538e-10
 60.16446    -15.4 1.017e+04 2.397e-10
 60.19406    -18.2 9.550e+03 2.550e-10
 60.22802    -19.4 9.574e+03 3.104e-10
 60.25023    -19.7 9.785e+03 3.386e-10
 60.28288    -24.4 1.138e+04 4.480e-10
 60.31380    -32.2 1.310e+04 1.222e-09
 60.33601    -32.4 1.287e+04 1.798e-09
 60.35659    -34.0 1.343e+04 3.104e-09
 60.36759    -33.0 1.343e+04 3.162e-09
 60.38262    -32.3 1.358e+04 3.428e-09
 60.39730    -31.6 1.367e+04 3.052e-09
 60.40295    -31.9 1.377e+04 3.725e-09
 60.41048    -31.3 1.381e+04 3.100e-09
 60.42703    -31.8 1.351e+04 1.835e-09
 60.44227    -36.3 1.236e+04 8.737e-10
 60.45337    -38.6 1.132e+04 6.609e-10
 60.47144    -41.7 9.830e+03 4.300e-10
 60.48515    -42.5 9.421e+03 3.768e-10
 60.49626    -42.5 9.474e+03 3.854e-10
 60.51586    -42.8 9.391e+03 3.729e-10
 60.54882    -43.0 9.378e+03 3.722e-10
 60.57112    -43.3 9.416e+03 3.501e-10
 60.59378    -44.9 9.559e+03 4.075e-10
 60.63469    -46.3 1.032e+04 6.807e-10
 60.65690    -46.5 1.001e+04 5.766e-10
 60.68260    -46.9 1.077e+04 9.425e-10
 60.71581    -47.6 1.127e+04 1.254e-09
 60.73003    -48.4 1.185e+04 1.471e-09
 60.73458    -47.7 1.169e+04 1.360e-09
 60.74248    -46.9 1.157e+04 1.240e-09
 60.76013    -48.2 1.252e+04 1.494e-09
 60.77426    -62.1 2.173e+04 4.645e-09
 60.77976    -61.7 2.206e+04 4.234e-09
 60.78779    -69.2 2.370e+04 1.204e-08
 60.79561    -75.2 2.398e+04 3.184e-08
 60.80116    -76.3 2.396e+04 4.390e-08
 60.81000    -80.0 2.375e+04 7.377e-08
 60.81705    -84.0 2.405e+04 8.240e-08
 60.82260    -85.7 2.456e+04 9.279e-08
 60.83220    -92.6 2.678e+04 4.935e-08
 60.83849   -104.9 2.712e+04 1.025e-08
 60.84404   -113.9 2.504e+04 4.285e-09
 60.85438   -126.7 1.470e+04 1.518e-09
 60.87109   -132.2 1.155e+04 1.118e-09
 60.89182   -131.4 1.101e+04 9.940e-10
 60.90292   -132.8 1.089e+04 9.286e-10
 60.91558   -131.7 1.083e+04 9.224e-10
 60.93471   -131.1 1.085e+04 9.708e-10
 60.94581   -131.9 1.086e+04 9.750e-10
 60.95999   -131.3 1.099e+04 1.068e-09
 60.97759   -130.7 1.107e+04 1.138e-09
 60.98870   -131.2 1.108e+04 1.148e-09
 61.00440   -130.6 1.109e+04 1.169e-09
 61.02048   -130.1 1.107e+04 1.170e-09
 61.03158   -130.3 1.084e+04 1.071e-09
 61.04882   -129.6 1.060e+04 9.420e-10
 61.06276   -129.1 1.032e+04 7.898e-10
 61.06621   -128.8 1.028e+04 7.730e-10
 61.07447   -129.0 9.967e+03 5.929e-10
 61.09323   -128.8 9.653e+03 4.672e-10
 61.12664   -128.9 9.373e+03 3.705e-10
 61.14934   -128.7 9.065e+03 2.915e-10
 61.17154   -129.5 8.714e+03 2.203e-10
 61.21290   -129.1 8.460e+03 1.731e-10
 61.23511   -129.8 8.399e+03 1.573e-10
 61.25997   -129.4 8.385e+03 1.509e-10
 61.29868   -129.2 8.396e+03 1.508e-10
 61.32089   -130.4 8.559e+03 1.675e-10
 61.34880   -130.9 9.055e+03 2.378e-10
 61.38445   -131.5 9.637e+03 3.594e-10
 61.40666   -133.4 1.068e+04 6.749e-10
 61.43763   -134.3 1.129e+04 9.534e-10
 61.47023   -135.4 1.163e+04 1.160e-09
 61.49243   -138.4 1.218e+04 1.487e-09
 61.52645   -139.6 1.200e+04 1.433e-09
 61.55600   -140.4 1.157e+04 1.180e-09
 61.57821   -143.1 1.127e+04 9.889e-10
 61.61528   -142.9 1.059e+04 6.576e-10
 61.64178   -142.5 1.002e+04 4.510e-10
 61.66398   -144.5 9.626e+03 3.395e-10
 61.70411   -143.7 9.507e+03 2.974e-10
 61.72755   -142.7 9.503e+03 2.913e-10
 61.72966   -143.8 9.511e+03 2.913e-10
 61.75063   -143.5 9.790e+03 3.504e-10
 61.79112   -142.6 9.793e+03 3.450e-10
 61.81333   -143.7 9.944e+03 3.727e-10
 61.83735   -142.8 9.815e+03 3.380e-10
 61.87689   -141.9 9.652e+03 2.932e-10
 61.89910   -143.0 9.712e+03 2.916e-10
 61.92617   -142.2 9.571e+03 2.494e-10
 61.96267   -141.4 9.609e+03 2.281e-10
 61.98488   -143.1 9.758e+03 2.537e-10
 62.01500   -142.5 9.904e+03 2.736e-10
 62.04844   -141.9 1.011e+04 3.441e-10
 62.07065   -143.5 1.015e+04 4.034e-10
 62.10382   -142.7 1.025e+04 4.677e-10
 62.13422   -141.8 1.033e+04 5.178e-10
 62.15642   -143.0 1.006e+04 4.798e-10
 62.19265   -141.7 1.002e+04 4.746e-10
 62.21999   -140.4 9.936e+03 4.457e-10
 62.24220   -141.1 9.503e+03 3.324e-10
 62.28148   -139.6 9.487e+03 3.163e-10
 62.30577   -138.1 9.504e+03 3.084e-10
 62.32797   -138.3 9.114e+03 2.246e-10
 62.36933   -136.6 9.126e+03 2.256e-10
 62.39154   -136.6 8.715e+03 1.469e-10
 62.39388   -134.7 8.734e+03 1.471e-10
 62.41609   -135.3 8.633e+03 1.227e-10
 62.45511   -133.4 8.690e+03 1.173e-10
 62.47732   -133.3 8.369e+03 8.045e-11
 62.50354   -131.5 8.451e+03 8.247e-11
 62.54088   -129.8 8.555e+03 8.690e-11
 62.56309   -129.6 8.369e+03 7.110e-11
 62.59237   -127.9 8.503e+03 8.024e-11
 62.62666   -126.3 8.647e+03 9.182e-11
 62.64886   -126.0 8.521e+03 8.131e-11
 62.68120   -124.4 8.679e+03 9.392e-11
 62.71243   -122.7 8.843e+03 1.072e-10
 62.73464   -122.4 8.775e+03 9.762e-11
 62.77002   -120.7 8.937e+03 1.067e-10
 62.79821   -119.0 9.091e+03 1.138e-10
 62.82041   -118.8 9.038e+03 1.040e-10
 62.85885   -117.2 9.196e+03 1.112e-10
 62.88398   -115.8 9.351e+03 1.233e-10
 62.90619   -115.8 9.341e+03 1.209e-10
 62.94755   -114.6 9.499e+03 1.424e-10
 62.99196   -114.0 9.832e+03 1.951e-10
 63.03332   -113.2 1.008e+04 2.436e-10
 63.05553   -114.5 1.066e+04 3.664e-10
 63.05934   -113.8 1.095e+04 4.865e-10
 63.08155   -115.5 1.150e+04 7.910e-10
 63.11910   -114.7 1.158e+04 8.840e-10
 63.14130   -116.0 1.176e+04 1.002e-09
 63.16974   -115.4 1.168e+04 1.002e-09
 63.20487   -114.5 1.158e+04 9.920e-10
 63.22708   -115.8 1.127e+04 7.307e-10
 63.25857   -115.0 1.097e+04 5.945e-10
 63.29065   -114.3 1.067e+04 4.590e-10
 63.31285   -116.0 1.028e+04 2.638e-10
 63.34739   -115.3 1.010e+04 2.275e-10
 63.37642   -114.6 9.938e+03 1.980e-10
 63.39863   -115.9 9.844e+03 1.741e-10
 63.43622   -114.8 9.707e+03 1.603e-10
 63.46220   -113.7 9.609e+03 1.511e-10
 63.48440   -114.3 9.445e+03 1.315e-10
 63.52505   -113.1 9.331e+03 1.231e-10
 63.54797   -111.8 9.288e+03 1.205e-10
 63.57018   -112.0 9.105e+03 9.573e-11
 63.61154   -110.6 9.127e+03 9.512e-11
 63.63375   -110.8 9.055e+03 7.724e-11
 63.65829   -109.7 9.185e+03 8.899e-11
 63.69731   -108.7 9.244e+03 1.152e-10
 63.71942   -109.1 9.235e+03 1.137e-10
 63.74701   -107.9 9.249e+03 1.315e-10
 63.78309   -106.9 9.359e+03 1.822e-10
 63.80529   -107.2 9.368e+03 1.933e-10
 63.83594   -106.2 9.472e+03 2.491e-10
 63.86886   -105.2 9.516e+03 2.730e-10
 63.89107   -105.3 9.471e+03 2.702e-10
 63.92477   -104.4 9.420e+03 2.655e-10
 63.95464   -103.5 9.267e+03 2.205e-10
 63.97684   -103.5 9.279e+03 2.158e-10
 64.01359   -102.9 9.218e+03 1.861e-10
 64.04041   -102.4 9.213e+03 1.752e-10
 64.06262   -102.6 9.370e+03 2.044e-10
 64.10242   -102.0 9.408e+03 2.108e-10
 64.12619   -101.3 9.477e+03 2.422e-10
 64.14839   -101.6 9.594e+03 2.770e-10
 64.18975   -100.9 9.703e+03 3.229e-10
 64.21196   -101.0 9.683e+03 3.232e-10
 64.23566   -100.1 9.807e+03 3.631e-10
 64.27553    -99.2 1.008e+04 4.164e-10
 64.29773    -98.8 9.696e+03 3.052e-10
 64.32448    -97.9 1.002e+04 3.408e-10
 64.35770    -96.9 1.027e+04 3.620e-10
 64.37221    -97.1 1.047e+04 4.132e-10
 64.38258    -96.7 1.016e+04 3.256e-10
 64.39027    -96.3 1.015e+04 3.483e-10
 64.41331    -95.8 1.065e+04 5.436e-10
 64.44708    -94.9 1.115e+04 8.262e-10
 64.46928    -94.0 1.092e+04 6.790e-10
 64.50214    -93.1 1.162e+04 1.031e-09
 64.53285    -93.1 1.226e+04 1.305e-09
 64.55506    -92.6 1.241e+04 1.389e-09
 64.57564    -94.0 1.325e+04 2.093e-09
 64.58665    -93.7 1.334e+04 2.174e-09
 64.60187    -94.0 1.377e+04 2.752e-09
 64.61843    -93.9 1.410e+04 3.187e-09
 64.62953    -93.8 1.434e+04 3.610e-09
 64.64628    -93.9 1.450e+04 3.783e-09
 64.66132    -94.3 1.450e+04 3.610e-09
 64.67242    -94.1 1.490e+04 4.183e-09
 64.69070    -95.0 1.461e+04 3.459e-09
 64.70421    -96.4 1.398e+04 2.764e-09
 64.71411    -96.5 1.436e+04 2.927e-09
 64.72281    -95.4 1.478e+04 3.376e-09
 64.73511    -97.1 1.390e+04 2.572e-09
 64.74709    -98.7 1.357e+04 2.171e-09
 64.75820    -99.9 1.344e+04 1.967e-09
 64.77888   -102.4 1.330e+04 1.721e-09
 64.78998   -103.7 1.291e+04 1.446e-09
 64.80173   -106.3 1.281e+04 1.359e-09
 64.82176   -109.2 1.321e+04 1.414e-09
 64.83287   -109.8 1.246e+04 1.114e-09
 64.84614   -112.6 1.278e+04 1.227e-09
 64.86465   -115.4 1.304e+04 1.449e-09
 64.87575   -115.9 1.247e+04 1.185e-09
 64.89056   -118.5 1.257e+04 1.324e-09
 64.90754   -120.9 1.265e+04 1.398e-09
 64.91864   -121.5 1.247e+04 1.314e-09
 64.93497   -123.8 1.254e+04 1.362e-09
 64.95043   -125.9 1.252e+04 1.424e-09
 64.96153   -126.7 1.260e+04 1.447e-09
 64.97938   -128.2 1.271e+04 1.623e-09
 64.99331   -128.9 1.278e+04 1.745e-09
 65.00442   -129.8 1.305e+04 2.006e-09
 65.02380   -130.1 1.305e+04 2.029e-09
 65.03620   -130.2 1.283e+04 1.819e-09
 65.04573   -130.7 1.299e+04 2.054e-09
 65.05554   -130.8 1.274e+04 1.829e-09
 65.06798   -130.8 1.236e+04 1.431e-09
 65.07909   -131.3 1.239e+04 1.549e-09
 65.09042   -131.4 1.200e+04 1.204e-09
 65.11087   -131.6 1.169e+04 9.993e-10
 65.12197   -132.0 1.165e+04 1.027e-09
 65.13483   -131.9 1.146e+04 9.347e-10
 65.15376   -131.6 1.140e+04 9.126e-10
 65.16486   -132.0 1.135e+04 9.281e-10
 65.17924   -131.4 1.136e+04 9.304e-10
 65.19665   -130.9 1.151e+04 9.814e-10
 65.20775   -131.4 1.149e+04 9.896e-10
 65.22366   -130.9 1.164e+04 1.048e-09
 65.23953   -130.6 1.181e+04 1.117e-09
 65.25064   -131.4 1.179e+04 1.126e-09
 65.26807   -131.2 1.203e+04 1.238e-09
 65.28242   -131.1 1.233e+04 1.399e-09
 65.29352   -132.0 1.233e+04 1.478e-09
 65.31248   -131.9 1.267e+04 1.738e-09
 65.32531   -131.7 1.297e+04 2.028e-09
 65.33641   -132.4 1.293e+04 2.117e-09
 65.35690   -132.3 1.318e+04 2.365e-09
 65.36819   -132.4 1.346e+04 2.576e-09
 65.37736   -133.2 1.343e+04 2.581e-09
 65.38827   -133.6 1.371e+04 2.802e-09
 65.39998   -135.0 1.440e+04 3.247e-09
 65.41108   -136.0 1.430e+04 3.032e-09
 65.42352   -137.9 1.491e+04 3.669e-09
 65.44287   -139.5 1.530e+04 4.468e-09
 65.45397   -140.0 1.491e+04 3.948e-09
 65.46793   -141.2 1.493e+04 4.203e-09
 65.48575   -141.9 1.477e+04 4.180e-09
 65.49686   -141.8 1.411e+04 3.259e-09
 65.51234   -141.9 1.346e+04 2.466e-09
 65.52864   -142.0 1.270e+04 1.630e-09
 65.53974   -142.3 1.208e+04 1.176e-09
 65.55675   -142.9 1.124e+04 7.309e-10
 65.57153   -143.4 1.052e+04 4.659e-10
 65.58263   -143.2 1.027e+04 4.037e-10
 65.60117   -143.1 9.888e+03 2.978e-10
 65.61441   -142.9 9.718e+03 2.534e-10
 65.62552   -142.5 9.675e+03 2.474e-10
 65.65678   -141.7 9.509e+03 2.139e-10
 65.68928   -140.2 9.134e+03 1.667e-10
 65.70918   -139.4 9.089e+03 1.632e-10
 65.72119   -139.4 9.101e+03 1.649e-10
 65.74571   -137.7 8.971e+03 1.478e-10
 65.77506   -136.1 8.962e+03 1.455e-10
 65.79726   -135.7 9.114e+03 1.589e-10
 65.83453   -135.1 9.131e+03 1.622e-10
 65.86083   -135.2 9.497e+03 2.111e-10
 65.88304   -135.6 1.002e+04 3.211e-10
 65.92336   -136.8 1.044e+04 4.232e-10
 65.94660   -138.6 1.117e+04 6.540e-10
 65.96881   -139.5 1.207e+04 1.063e-09
 66.00098   -140.7 1.216e+04 1.158e-09
 66.02108   -142.4 1.239e+04 1.244e-09
 66.03218   -142.9 1.254e+04 1.327e-09
 66.04263   -146.4 1.304e+04 1.649e-09
 66.05373   -147.0 1.315e+04 1.636e-09
 66.06397   -150.6 1.441e+04 2.782e-09
 66.07507   -150.6 1.439e+04 2.658e-09
 66.08971   -153.0 1.542e+04 4.746e-09
 66.10685   -154.4 1.615e+04 6.743e-09
 66.11796   -154.1 1.560e+04 5.862e-09
 66.13413   -155.4 1.580e+04 6.529e-09
 66.14974   -156.7 1.585e+04 6.345e-09
 66.16085   -155.7 1.508e+04 4.989e-09
 66.17854   -157.6 1.513e+04 4.258e-09
 66.19263   -160.9 1.517e+04 3.217e-09
 66.20373   -159.1 1.465e+04 3.119e-09
 66.22295   -162.5 1.499e+04 2.905e-09
 66.23552   -165.9 1.506e+04 2.909e-09
 66.24662   -163.2 1.523e+04 3.041e-09
 66.26730   -166.1 1.528e+04 3.133e-09
 66.28951   -166.2 1.542e+04 3.426e-09
 66.31019   -168.3 1.434e+04 3.018e-09
 66.32129   -166.0 1.524e+04 3.525e-09
 66.33399   -167.8 1.382e+04 2.558e-09
 66.35308   -169.3 1.242e+04 1.556e-09
 66.36418   -167.3 1.326e+04 2.048e-09
 66.37536   -168.7 1.167e+04 1.126e-09
 66.38646   -169.0 1.166e+04 1.117e-09
 66.39596   -170.0 1.072e+04 5.542e-10
 66.40707   -168.4 1.120e+04 8.758e-10
 66.42281   -169.2 1.037e+04 4.217e-10
 66.43885   -169.9 9.868e+03 2.296e-10
 66.44995   -168.1 1.045e+04 3.720e-10
 66.46723   -168.3 9.855e+03 2.095e-10
 66.48174   -168.1 9.253e+03 1.649e-10
 66.49284   -166.9 1.019e+04 2.116e-10
 66.51164   -166.6 9.389e+03 1.617e-10
 66.52472   -166.2 9.176e+03 1.502e-10
 66.53583   -164.4 9.597e+03 1.904e-10
 66.55605   -163.8 9.317e+03 1.791e-10
 66.58829   -162.4 9.374e+03 1.891e-10
 66.61050   -159.7 9.793e+03 2.547e-10
 66.63387   -158.3 9.867e+03 2.708e-10
 66.67416   -156.2 9.725e+03 2.577e-10
 66.69637   -154.2 1.027e+04 3.849e-10
 66.72280   -152.0 1.022e+04 3.737e-10
 66.75994   -150.4 1.070e+04 3.988e-10
 66.78214   -148.4 1.090e+04 5.387e-10
 66.81162   -148.8 1.257e+04 8.030e-10
 66.84484   -149.2 1.415e+04 1.834e-09
 66.85662   -149.6 1.558e+04 4.107e-09
 66.86772   -148.4 1.539e+04 3.360e-09
 66.88840   -148.6 1.669e+04 6.627e-09
 66.89951   -147.4 1.624e+04 4.896e-09
 66.91136   -147.7 1.727e+04 8.106e-09
 66.93129   -148.0 1.784e+04 1.028e-08
 66.94239   -146.9 1.740e+04 8.340e-09
 66.95577   -147.3 1.772e+04 9.203e-09
 66.97418   -148.1 1.777e+04 9.130e-09
 66.98528   -146.9 1.760e+04 8.667e-09
 67.00018   -147.7 1.770e+04 7.953e-09
 67.01679   -148.0 1.819e+04 7.423e-09
 67.02252   -149.3 1.769e+04 5.681e-09
 67.02807   -148.0 1.827e+04 7.453e-09
 67.03841   -149.1 1.808e+04 5.932e-09
 67.04396   -148.2 1.839e+04 7.326e-09
 67.04627   -149.4 1.819e+04 5.750e-09
 67.05183   -149.1 1.907e+04 7.157e-09
 67.05985   -150.5 1.856e+04 5.316e-09
 67.06541   -149.0 1.916e+04 7.665e-09
 67.07226   -150.3 1.885e+04 5.606e-09
 67.08130   -151.6 1.810e+04 4.070e-09
 67.08685   -150.8 1.896e+04 5.492e-09
 67.09446   -152.0 1.831e+04 3.944e-09
 67.10279   -153.7 1.699e+04 2.560e-09
 67.10834   -152.0 1.854e+04 4.112e-09
 67.11667   -152.6 1.814e+04 3.302e-09
 67.13337   -153.5 1.767e+04 2.519e-09
 67.14573   -155.3 1.424e+04 1.089e-09
 67.15683   -153.0 1.764e+04 2.275e-09
 67.17751   -154.8 1.352e+04 9.396e-10
 67.18861   -152.6 1.701e+04 1.941e-09
 67.20004   -154.3 1.275e+04 8.250e-10
 67.22040   -154.7 1.077e+04 5.974e-10
 67.23150   -153.6 1.253e+04 8.086e-10
 67.24446   -153.6 1.069e+04 5.778e-10
 67.26328   -153.5 1.049e+04 5.347e-10
 67.27439   -152.6 1.065e+04 6.720e-10
 67.28887   -152.2 1.043e+04 5.528e-10
 67.30617   -151.2 1.043e+04 4.806e-10
 67.31728   -151.0 1.065e+04 5.863e-10
 67.33328   -150.1 1.043e+04 4.804e-10
 67.34906   -149.2 1.031e+04 4.344e-10
 67.36016   -148.9 1.044e+04 4.898e-10
 67.37355   -147.9 1.032e+04 4.304e-10
 67.38466   -148.8 1.044e+04 5.092e-10
 67.39195   -147.6 1.039e+04 4.870e-10
 67.40305   -147.3 1.042e+04 5.067e-10
 67.42211   -146.1 1.037e+04 4.831e-10
 67.43483   -144.8 1.034e+04 4.640e-10
 67.44594   -144.5 1.031e+04 4.837e-10
 67.46652   -143.1 1.027e+04 4.619e-10
 67.48873   -141.3 1.033e+04 4.701e-10
 67.50950   -139.9 1.033e+04 4.432e-10
 67.52061   -139.6 1.047e+04 4.920e-10
 67.53314   -138.2 1.038e+04 4.539e-10
 67.55239   -136.8 1.026e+04 4.235e-10
 67.56350   -136.3 1.066e+04 4.831e-10
 67.57756   -135.1 1.052e+04 4.426e-10
 67.59528   -134.0 1.038e+04 4.120e-10
 67.60638   -133.4 1.082e+04 4.830e-10
 67.62197   -132.3 1.059e+04 4.397e-10
 67.63817   -131.2 1.042e+04 4.072e-10
 67.64927   -130.9 1.129e+04 5.335e-10
 67.66638   -129.9 1.107e+04 4.886e-10
 67.68105   -129.0 1.082e+04 4.452e-10
 67.69216   -128.8 1.195e+04 6.711e-10
 67.70628   -128.0 1.180e+04 6.121e-10
 67.71739   -128.5 1.247e+04 7.157e-10
 67.72394   -127.9 1.236e+04 6.433e-10
 67.73504   -128.4 1.389e+04 1.397e-09
 67.75521   -128.2 1.430e+04 1.308e-09
 67.76683   -128.1 1.425e+04 1.129e-09
 67.77793   -128.6 1.548e+04 3.145e-09
 67.79861   -128.5 1.564e+04 2.634e-09
 67.80972   -128.5 1.618e+04 6.125e-09
 67.82183   -128.1 1.613e+04 5.037e-09
 67.84150   -127.5 1.568e+04 3.321e-09
 67.85260   -127.2 1.625e+04 7.155e-09
 67.86624   -126.5 1.575e+04 4.589e-09
 67.88439   -125.7 1.521e+04 2.543e-09
 67.89549   -125.8 1.571e+04 5.371e-09
 67.91065   -125.4 1.526e+04 3.269e-09
 67.92727   -125.3 1.468e+04 1.900e-09
 67.93838   -125.2 1.524e+04 4.098e-09
 67.95507   -125.1 1.468e+04 2.719e-09
 67.97016   -124.8 1.398e+04 1.850e-09
 67.98126   -124.7 1.471e+04 3.708e-09
 67.99948   -124.1 1.410e+04 2.698e-09
 68.01305   -123.4 1.349e+04 2.054e-09
 68.02415   -123.2 1.416e+04 3.355e-09
 68.03901   -122.5 1.356e+04 2.542e-09
 68.05012   -122.6 1.378e+04 2.904e-09
 68.05594   -121.7 1.319e+04 2.269e-09
 68.06704   -121.6 1.349e+04 2.418e-09
 68.08772   -120.7 1.290e+04 1.823e-09
 68.09882   -121.0 1.289e+04 1.738e-09
 68.11051   -120.4 1.238e+04 1.251e-09
 68.13061   -119.9 1.210e+04 9.861e-10
 68.14171   -120.6 1.177e+04 9.066e-10
 68.15493   -120.5 1.153e+04 7.545e-10
 68.17349   -120.3 1.147e+04 7.137e-10
 68.18460   -120.7 1.127e+04 6.822e-10
 68.19934   -120.5 1.125e+04 6.750e-10
 68.21638   -120.6 1.135e+04 7.234e-10
 68.22748   -120.3 1.123e+04 7.199e-10
 68.24375   -120.4 1.148e+04 8.308e-10
 68.25927   -120.5 1.176e+04 9.923e-10
 68.27037   -120.0 1.165e+04 9.722e-10
 68.28817   -120.2 1.188e+04 1.069e-09
 68.30216   -120.6 1.196e+04 1.095e-09
 68.31326   -120.6 1.248e+04 1.204e-09
 68.33258   -121.1 1.263e+04 1.190e-09
 68.34504   -121.4 1.281e+04 1.050e-09
 68.35615   -122.4 1.442e+04 1.737e-09
 68.37175   -122.3 1.415e+04 1.434e-09
 68.38268   -123.9 1.444e+04 2.437e-09
 68.38793   -123.7 1.472e+04 4.682e-09
 68.39920   -123.4 1.393e+04 3.313e-09
 68.41971   -123.3 1.339e+04 2.417e-09
 68.43082   -122.7 1.357e+04 3.821e-09
 68.44361   -123.2 1.350e+04 3.243e-09
 68.46260   -123.9 1.353e+04 3.143e-09
 68.47370   -122.8 1.391e+04 3.841e-09
 68.48803   -123.9 1.415e+04 3.831e-09
 68.50549   -124.9 1.453e+04 4.058e-09
 68.51659   -123.8 1.464e+04 3.974e-09
 68.53244   -124.8 1.481e+04 3.924e-09
 68.54838   -125.8 1.502e+04 3.457e-09
 68.55948   -125.8 1.462e+04 2.526e-09
 68.57685   -127.4 1.393e+04 1.787e-09
 68.59126   -129.4 1.289e+04 1.176e-09
 68.60237   -129.8 1.211e+04 8.955e-10
 68.62127   -131.4 1.160e+04 6.754e-10
 68.63415   -132.6 1.152e+04 5.983e-10
 68.64525   -132.1 1.141e+04 5.577e-10
 68.66568   -133.2 1.170e+04 5.504e-10
 68.67704   -134.3 1.233e+04 6.476e-10
 68.68814   -133.9 1.235e+04 6.498e-10
 68.70448   -134.5 1.261e+04 9.166e-10
 68.71431   -136.5 1.273e+04 1.303e-09
 68.71993   -135.8 1.273e+04 1.343e-09
 68.73230   -135.6 1.301e+04 1.660e-09
 68.75171   -135.2 1.319e+04 1.843e-09
 68.76281   -134.8 1.324e+04 1.767e-09
 68.77671   -134.4 1.331e+04 1.760e-09
 68.79460   -134.4 1.334e+04 1.620e-09
 68.80570   -134.3 1.321e+04 1.504e-09
 68.82112   -134.6 1.312e+04 1.356e-09
 68.83748   -135.7 1.319e+04 1.331e-09
 68.84859   -136.0 1.297e+04 1.290e-09
 68.86554   -139.7 1.414e+04 1.374e-09
 68.88037   -145.8 1.773e+04 2.717e-09
 68.89147   -146.0 1.716e+04 2.717e-09
 68.90995   -150.4 1.890e+04 7.292e-09
 68.92326   -153.1 2.001e+04 1.499e-08
 68.93436   -152.6 1.943e+04 1.438e-08
 68.94465   -154.4 1.963e+04 1.752e-08
 68.95016   -154.2 1.951e+04 1.741e-08
 68.95982   -155.0 1.956e+04 1.793e-08
 68.96605   -156.5 1.951e+04 1.801e-08
 68.97720   -156.7 1.922e+04 1.779e-08
 68.99318   -157.7 1.809e+04 1.324e-08
 69.00338   -158.1 1.773e+04 1.144e-08
 69.00898   -157.8 1.766e+04 1.179e-08
 69.02098   -159.1 1.625e+04 7.025e-09
 69.03721   -160.4 1.503e+04 4.426e-09
 69.04594   -160.2 1.439e+04 3.964e-09
 69.05192   -159.6 1.377e+04 3.425e-09
 69.06540   -160.0 1.311e+04 2.694e-09
 69.08370   -160.0 1.279e+04 2.253e-09
 69.09481   -159.2 1.265e+04 2.183e-09
 69.10981   -159.0 1.251e+04 1.943e-09
 69.12659   -158.7 1.244e+04 1.745e-09
 69.13769   -157.8 1.245e+04 1.812e-09
 69.15422   -157.7 1.253e+04 1.710e-09
 69.16948   -157.8 1.252e+04 1.581e-09
 69.18058   -157.2 1.275e+04 1.923e-09
 69.19864   -157.4 1.298e+04 1.781e-09
 69.21237   -157.9 1.262e+04 1.578e-09
 69.22347   -157.4 1.354e+04 2.284e-09
 69.24305   -158.0 1.328e+04 1.932e-09
 69.25525   -158.9 1.276e+04 1.500e-09
 69.26636   -158.6 1.443e+04 2.561e-09
 69.28704   -159.8 1.369e+04 1.875e-09
 69.29814   -159.6 1.525e+04 3.503e-09
 69.30967   -161.0 1.425e+04 2.440e-09
 69.32992   -162.4 1.326e+04 1.778e-09
 69.34103   -162.1 1.433e+04 2.991e-09
 69.35408   -163.3 1.326e+04 2.154e-09
 69.36994   -164.1 1.248e+04 1.698e-09
 69.37756   -164.0 1.178e+04 9.810e-10
 69.38391   -164.0 1.240e+04 1.429e-09
 69.39850   -164.8 1.167e+04 1.115e-09
 69.41570   -165.0 1.116e+04 9.159e-10
 69.42680   -164.9 1.156e+04 1.198e-09
 69.44291   -165.1 1.107e+04 9.415e-10
 69.45859   -165.3 1.068e+04 7.606e-10
 69.46969   -165.2 1.100e+04 9.256e-10
 69.48732   -165.5 1.066e+04 7.554e-10
 69.50147   -165.6 1.042e+04 6.465e-10
 69.51258   -165.8 1.076e+04 7.915e-10
 69.53174   -165.8 1.057e+04 6.971e-10
 69.54436   -165.8 1.048e+04 6.426e-10
 69.55546   -166.0 1.083e+04 7.973e-10
 69.57614   -165.9 1.076e+04 7.445e-10
 69.59835   -166.2 1.105e+04 8.694e-10
 69.61903   -166.4 1.096e+04 8.216e-10
 69.63013   -166.4 1.124e+04 9.899e-10
 69.64277   -166.7 1.109e+04 9.096e-10
 69.66192   -167.0 1.090e+04 8.228e-10
 69.67302   -166.7 1.092e+04 8.764e-10
 69.68718   -167.0 1.065e+04 7.477e-10
 69.70267   -168.2 1.065e+04 7.040e-10
 69.70919   -169.5 1.132e+04 9.343e-10
 69.71591   -173.4 1.497e+04 1.349e-09
 69.73159   -180.8 1.753e+04 2.059e-09
 69.74769   -187.1 1.792e+04 3.824e-09
 69.75880   -189.8 1.848e+04 7.864e-09
 69.77601   -192.8 1.782e+04 9.303e-09
 69.79058   -194.8 1.706e+04 9.156e-09
 69.80168   -195.6 1.694e+04 8.821e-09
 69.82042   -197.6 1.590e+04 5.405e-09
 69.83347   -199.8 1.467e+04 2.803e-09
 69.84457   -203.3 1.329e+04 1.321e-09
 69.86483   -206.0 1.141e+04 6.303e-10
 69.87635   -207.4 1.036e+04 4.059e-10
 69.88746   -209.0 9.961e+03 3.037e-10
 69.90814   -207.9 9.840e+03 2.878e-10
 69.91924   -207.8 9.815e+03 2.704e-10
 69.93145   -206.5 9.844e+03 2.730e-10
 69.96486   -205.9 9.926e+03 2.766e-10
 69.99411   -204.9 9.972e+03 2.872e-10
 70.01632   -204.9 9.945e+03 2.780e-10
 70.05379   -203.4 9.972e+03 2.931e-10
 70.07988   -202.2 1.024e+04 3.599e-10
 70.10209   -201.6 1.020e+04 3.555e-10
 70.14261   -200.4 1.051e+04 4.583e-10
 70.16566   -199.3 1.074e+04 5.429e-10
 70.18786   -198.3 1.070e+04 5.250e-10
 70.22923   -197.3 1.077e+04 5.425e-10
 70.25143   -196.6 1.078e+04 5.368e-10
 70.27585   -195.6 1.082e+04 5.284e-10
 70.31500   -194.9 1.083e+04 5.286e-10
 70.33711   -193.9 1.105e+04 6.083e-10
 70.35338   -193.5 1.114e+04 6.367e-10
 70.36813   -193.1 1.123e+04 6.664e-10
 70.37245   -193.7 1.128e+04 7.353e-10
 70.37990   -193.3 1.147e+04 8.641e-10
 70.39779   -193.0 1.150e+04 8.647e-10
 70.41168   -192.7 1.153e+04 8.450e-10
 70.42279   -192.3 1.170e+04 9.700e-10
 70.44221   -192.0 1.168e+04 9.143e-10
 70.45457   -191.8 1.166e+04 8.653e-10
 70.46567   -191.5 1.170e+04 9.282e-10
 70.48635   -191.4 1.164e+04 8.626e-10
 70.49746   -190.9 1.169e+04 9.344e-10
 70.50883   -190.6 1.166e+04 8.773e-10
 70.52924   -190.4 1.160e+04 8.335e-10
 70.54034   -190.1 1.162e+04 8.686e-10
 70.55324   -189.9 1.156e+04 8.112e-10
 70.57223   -189.9 1.145e+04 7.389e-10
 70.58333   -188.8 1.160e+04 8.456e-10
 70.59765   -188.4 1.150e+04 7.899e-10
 70.63106   -188.1 1.132e+04 6.999e-10
 70.65810   -187.0 1.101e+04 5.463e-10
 70.68030   -186.1 1.101e+04 5.622e-10
 70.71998   -185.0 1.074e+04 4.447e-10
 70.74387   -183.9 1.050e+04 3.552e-10
 70.76608   -182.9 1.040e+04 3.387e-10
 70.80744   -181.4 1.020e+04 2.750e-10
 70.82965   -180.2 1.002e+04 2.416e-10
 70.85322   -178.6 9.983e+03 2.124e-10
 70.89321   -177.0 1.002e+04 2.052e-10
 70.91542   -175.7 9.895e+03 1.799e-10
 70.94205   -174.3 9.969e+03 1.826e-10
 70.97899   -173.1 1.016e+04 1.986e-10
 71.00120   -171.9 1.012e+04 1.818e-10
 71.02269   -171.0 1.034e+04 2.168e-10
 71.04490   -171.6 1.032e+04 1.984e-10
 71.06476   -170.9 1.048e+04 2.347e-10
 71.08697   -169.8 1.054e+04 2.419e-10
 71.11970   -169.4 1.071e+04 2.845e-10
 71.15054   -169.1 1.085e+04 3.105e-10
 71.17274   -168.2 1.102e+04 3.744e-10
 71.20853   -168.1 1.108e+04 3.870e-10
 71.23631   -167.9 1.108e+04 3.883e-10
 71.25852   -167.1 1.145e+04 5.433e-10
 71.29736   -166.9 1.135e+04 4.577e-10
 71.32209   -166.4 1.120e+04 3.486e-10
 71.34429   -165.9 1.153e+04 4.736e-10
 71.38566   -165.5 1.140e+04 3.670e-10
 71.40786   -165.5 1.174e+04 5.329e-10
 71.43059   -165.2 1.162e+04 4.529e-10
 71.47143   -165.1 1.164e+04 4.517e-10
 71.49364   -165.3 1.194e+04 6.426e-10
 71.51942   -165.5 1.218e+04 6.991e-10
 71.55720   -165.9 1.253e+04 8.949e-10
 71.57941   -165.8 1.256e+04 1.012e-09
 71.60825   -166.1 1.263e+04 1.052e-09
 71.64298   -166.7 1.263e+04 1.026e-09
 71.66519   -166.4 1.229e+04 8.436e-10
 71.68815   -167.8 1.213e+04 6.919e-10
 71.71036   -170.2 1.305e+04 1.072e-09
 71.72866   -170.7 1.273e+04 8.252e-10
 71.75086   -171.8 1.307e+04 9.621e-10
 71.78590   -173.5 1.353e+04 1.438e-09
 71.81453   -174.5 1.376e+04 1.935e-09
 71.83673   -173.2 1.375e+04 1.869e-09
 71.87473   -173.7 1.379e+04 2.119e-09
 71.90030   -174.5 1.375e+04 2.114e-09
 71.92251   -173.2 1.368e+04 2.104e-09
 71.96355   -173.7 1.341e+04 2.045e-09
 71.98608   -173.7 1.280e+04 1.645e-09
 72.00828   -172.3 1.277e+04 1.650e-09
 72.04964   -172.1 1.221e+04 1.219e-09
 72.07185   -170.7 1.209e+04 1.159e-09
 72.09679   -170.3 1.167e+04 8.976e-10
 72.13542   -169.8 1.133e+04 7.302e-10
 72.15763   -168.4 1.125e+04 6.976e-10
 72.18562   -167.9 1.103e+04 6.317e-10
 72.22119   -167.3 1.084e+04 5.843e-10
 72.24340   -165.8 1.079e+04 5.356e-10
 72.27445   -165.2 1.061e+04 4.929e-10
 72.30697   -164.7 1.042e+04 4.326e-10
 72.32917   -163.2 1.042e+04 4.194e-10
 72.35361   -162.7 1.022e+04 3.637e-10
 72.37582   -163.6 9.891e+03 2.784e-10
 72.39274   -163.1 9.702e+03 2.326e-10
 72.41495   -161.5 9.761e+03 2.486e-10
 72.45210   -161.0 9.571e+03 2.039e-10
 72.47852   -160.5 9.412e+03 1.626e-10
 72.50072   -159.0 9.475e+03 1.899e-10
 72.54092   -158.5 9.341e+03 1.540e-10
 72.56429   -157.8 9.221e+03 1.289e-10
 72.58650   -156.4 9.290e+03 1.619e-10
 72.62786   -155.6 9.167e+03 1.379e-10
 72.65007   -154.1 9.314e+03 1.793e-10
 72.67416   -153.1 9.215e+03 1.538e-10
 72.71363   -152.0 9.210e+03 1.420e-10
 72.73584   -150.9 9.463e+03 1.830e-10
 72.76299   -150.2 9.479e+03 1.775e-10
 72.79941   -149.8 9.537e+03 1.766e-10
 72.82161   -149.3 9.833e+03 2.613e-10
 72.85182   -149.2 9.982e+03 3.124e-10
 72.88518   -149.0 1.027e+04 4.607e-10
 72.90739   -148.1 1.026e+04 5.436e-10
 72.94064   -147.7 1.042e+04 6.196e-10
 72.97096   -147.4 1.056e+04 6.746e-10
 72.99316   -146.8 1.037e+04 5.517e-10
 73.01375   -146.4 1.036e+04 5.519e-10
 73.02475   -146.3 1.030e+04 5.377e-10
 73.02998   -146.2 1.023e+04 5.192e-10
 73.04119   -146.4 1.034e+04 5.561e-10
 73.05663   -146.0 1.019e+04 5.286e-10
 73.07884   -145.8 9.927e+03 4.135e-10
 73.11830   -144.9 9.704e+03 3.741e-10
 73.14251   -143.9 9.509e+03 3.436e-10
 73.16471   -142.7 9.295e+03 2.601e-10
 73.20607   -141.9 9.288e+03 2.545e-10
 73.22828   -140.8 9.256e+03 2.156e-10
 73.25154   -140.2 9.360e+03 2.250e-10
 73.29185   -139.8 9.526e+03 2.688e-10
 73.31406   -139.0 9.625e+03 3.099e-10
 73.34036   -138.9 9.768e+03 3.920e-10
 73.37762   -138.7 9.932e+03 4.678e-10
 73.39983   -137.7 1.013e+04 5.667e-10
 73.42919   -137.7 1.028e+04 6.509e-10
 73.46340   -137.8 1.037e+04 6.772e-10
 73.48560   -136.8 1.083e+04 8.460e-10
 73.51801   -137.1 1.082e+04 8.510e-10
 73.54917   -137.4 1.065e+04 7.834e-10
 73.57138   -136.7 1.095e+04 8.517e-10
 73.60684   -136.9 1.071e+04 7.273e-10
 73.63495   -136.8 1.049e+04 6.168e-10
 73.65715   -136.2 1.061e+04 5.870e-10
 73.68454   -135.8 1.055e+04 5.231e-10
 73.70675   -135.5 1.029e+04 4.171e-10
 73.72072   -134.9 1.022e+04 3.748e-10
 73.74293   -134.1 1.030e+04 3.526e-10
 73.78429   -133.3 1.012e+04 3.162e-10
 73.80650   -132.3 1.015e+04 3.112e-10
 73.82891   -131.2 9.908e+03 2.554e-10
 73.87006   -129.9 9.699e+03 2.072e-10
 73.89227   -128.7 9.676e+03 1.918e-10
 73.91773   -127.4 9.522e+03 1.523e-10
 73.95584   -126.0 9.435e+03 1.261e-10
 73.97804   -124.6 9.400e+03 1.261e-10
 74.00656   -123.1 9.330e+03 1.086e-10
 74.04161   -121.6 9.272e+03 9.921e-11
 74.06382   -120.0 9.299e+03 1.016e-10
 74.09539   -118.4 9.243e+03 9.605e-11
 74.12739   -116.7 9.218e+03 9.411e-11
 74.14959   -115.3 9.290e+03 9.847e-11
 74.18421   -113.6 9.284e+03 9.790e-11
 74.21316   -112.1 9.291e+03 9.825e-11
 74.23537   -110.9 9.392e+03 1.094e-10
 74.27304   -109.7 9.505e+03 1.183e-10
 74.29894   -108.8 9.668e+03 1.648e-10
 74.32114   -107.6 9.739e+03 1.915e-10
 74.35000   -106.6 9.917e+03 2.676e-10
 74.37221   -106.6 9.828e+03 2.093e-10
 74.38471   -105.9 9.987e+03 2.796e-10
 74.40692   -104.7 1.014e+04 3.100e-10
 74.44828   -104.2 1.034e+04 3.916e-10
 74.47048   -103.1 1.054e+04 4.265e-10
 74.49511   -103.0 1.076e+04 5.188e-10
 74.53405   -103.0 1.100e+04 6.020e-10
 74.55626   -102.1 1.118e+04 7.064e-10
 74.58393   -102.8 1.135e+04 7.674e-10
 74.61983   -103.6 1.136e+04 7.732e-10
 74.64203   -102.6 1.196e+04 1.082e-09
 74.67276   -103.0 1.185e+04 9.235e-10
 74.70560   -103.3 1.150e+04 5.911e-10
 74.71661   -102.9 1.180e+04 7.570e-10
 74.72808   -102.9 1.165e+04 5.997e-10
 74.76149   -103.2 1.145e+04 4.478e-10
 74.79138   -102.6 1.116e+04 3.101e-10
 74.81358   -102.7 1.141e+04 3.618e-10
 74.85041   -101.5 1.115e+04 2.765e-10
 74.87715   -100.1 1.093e+04 2.125e-10
 74.89936    -99.7 1.108e+04 2.143e-10
 74.93924    -98.2 1.086e+04 1.811e-10
 74.96293    -96.7 1.079e+04 1.729e-10
 74.98513    -96.0 1.085e+04 1.754e-10
 75.01546    -94.5 1.084e+04 1.748e-10
 75.03610    -94.1 1.093e+04 1.775e-10
 75.04870    -93.2 1.093e+04 1.840e-10
 75.07248    -91.7 1.091e+04 1.846e-10
 75.11227    -90.2 1.091e+04 1.921e-10
 75.13447    -89.2 1.094e+04 1.972e-10
 75.16130    -87.8 1.092e+04 2.009e-10
 75.19804    -86.5 1.091e+04 2.017e-10
 75.22025    -85.4 1.092e+04 2.021e-10
 75.25013    -84.1 1.088e+04 1.961e-10
 75.28382    -82.9 1.088e+04 1.929e-10
 75.30602    -81.9 1.089e+04 1.954e-10
 75.33896    -80.8 1.090e+04 1.958e-10
 75.36959    -80.2 1.100e+04 2.132e-10
 75.39180    -79.2 1.101e+04 2.258e-10
 75.42778    -78.8 1.109e+04 2.888e-10
 75.45537    -78.5 1.121e+04 3.744e-10
 75.47757    -77.5 1.120e+04 3.600e-10
 75.51661    -77.3 1.130e+04 4.147e-10
 75.54114    -77.5 1.133e+04 4.317e-10
 75.56335    -76.6 1.127e+04 3.854e-10
 75.60471    -76.7 1.119e+04 3.763e-10
 75.62691    -75.7 1.119e+04 3.774e-10
 75.64985    -75.7 1.104e+04 3.143e-10
 75.68093    -75.4 1.092e+04 2.333e-10
 75.69935    -74.8 1.099e+04 2.432e-10
 75.71269    -74.3 1.110e+04 2.732e-10
 75.73867    -73.9 1.095e+04 2.062e-10
 75.77626    -73.4 1.080e+04 1.622e-10
 75.79846    -73.3 1.097e+04 2.322e-10
 75.82750    -72.6 1.079e+04 1.966e-10
 75.86203    -71.9 1.066e+04 1.863e-10
 75.88424    -71.8 1.076e+04 3.040e-10
 75.91633    -71.0 1.074e+04 3.018e-10
 75.94781    -70.4 1.067e+04 3.391e-10
 75.97001    -70.4 1.082e+04 5.305e-10
 76.00515    -70.1 1.094e+04 6.648e-10
 76.03358    -69.9 1.117e+04 8.367e-10
 76.05579    -70.3 1.119e+04 8.632e-10
 76.09398    -70.4 1.121e+04 8.858e-10
 76.11935    -70.7 1.119e+04 8.600e-10
 76.13036    -70.6 1.109e+04 7.916e-10
 76.14930    -70.8 1.107e+04 7.397e-10
 76.16205    -71.3 1.101e+04 6.688e-10
 76.17315    -71.7 1.091e+04 5.980e-10
 76.19371    -72.2 1.081e+04 5.610e-10
 76.20503    -72.6 1.073e+04 5.489e-10
 76.22734    -72.9 1.065e+04 5.440e-10
 76.26870    -72.9 1.062e+04 5.347e-10
 76.29090    -72.9 1.058e+04 5.604e-10
 76.31605    -72.8 1.048e+04 5.283e-10
 76.34639    -72.8 1.021e+04 4.514e-10
 76.36261    -72.2 1.074e+04 7.311e-10
 76.37668    -72.8 1.054e+04 6.753e-10
 76.40487    -73.4 1.045e+04 7.042e-10
 76.44025    -73.8 1.085e+04 8.624e-10
 76.46245    -73.8 1.072e+04 8.020e-10
 76.49370    -73.3 1.098e+04 9.059e-10
 76.52602    -72.6 1.111e+04 9.742e-10
 76.54823    -72.1 1.068e+04 7.604e-10
 76.58253    -71.0 1.065e+04 7.474e-10
 76.61180    -69.9 1.057e+04 6.895e-10
 76.63400    -69.0 1.012e+04 4.960e-10
 76.67135    -67.6 1.007e+04 4.601e-10
 76.69757    -66.3 1.007e+04 4.500e-10
 76.71978    -65.6 9.937e+03 3.586e-10
 76.76018    -64.6 1.034e+04 4.841e-10
 76.78334    -63.6 1.083e+04 7.146e-10
 76.80555    -63.0 1.062e+04 6.061e-10
 76.84691    -61.8 1.095e+04 8.805e-10
 76.86912    -61.1 1.055e+04 6.473e-10
 76.89342    -60.0 1.071e+04 8.138e-10
 76.93269    -59.0 1.072e+04 8.507e-10
 76.95489    -58.2 1.046e+04 7.164e-10
 76.98224    -57.3 1.037e+04 7.059e-10
 77.01185    -56.4 1.017e+04 6.508e-10
 77.02586    -57.9 1.012e+04 6.148e-10
 77.04067    -56.9 1.021e+04 6.551e-10
 77.07107    -55.9 9.980e+03 5.657e-10
 77.10424    -54.9 9.750e+03 4.743e-10
 77.12644    -53.9 9.943e+03 5.582e-10
 77.15990    -53.2 9.708e+03 4.698e-10
 77.19001    -52.6 9.486e+03 4.016e-10
 77.21222    -51.3 9.888e+03 5.609e-10
 77.24872    -50.7 9.709e+03 5.018e-10
 77.27578    -50.1 9.553e+03 4.445e-10
 77.29799    -49.1 9.755e+03 5.333e-10
 77.33755    -48.6 9.465e+03 4.193e-10
 77.36156    -48.5 9.281e+03 3.519e-10
 77.38377    -47.5 9.282e+03 3.491e-10
 77.42513    -47.6 9.232e+03 3.231e-10
 77.44733    -46.6 9.260e+03 3.251e-10
 77.47079    -46.8 9.317e+03 3.299e-10
 77.51090    -47.0 9.607e+03 4.093e-10
 77.53301    -46.7 9.633e+03 4.284e-10
 77.54832    -47.2 9.822e+03 5.240e-10
 77.56470    -47.5 1.012e+04 6.534e-10
 77.57580    -47.4 1.029e+04 7.362e-10
 77.59273    -47.8 1.064e+04 9.301e-10
 77.60758    -48.2 1.098e+04 1.151e-09
 77.61869    -48.0 1.111e+04 1.244e-09
 77.63714    -48.3 1.139e+04 1.416e-09
 77.65047    -48.8 1.156e+04 1.525e-09
 77.66157    -48.8 1.148e+04 1.445e-09
 77.67712    -49.4 1.150e+04 1.454e-09
 77.68822    -48.7 1.153e+04 1.479e-09
 77.69336    -49.1 1.139e+04 1.340e-09
 77.70446    -49.0 1.113e+04 1.126e-09
 77.72514    -49.5 1.091e+04 9.748e-10
 77.73625    -49.4 1.062e+04 8.036e-10
 77.74818    -49.7 1.039e+04 6.907e-10
 77.76803    -49.8 1.017e+04 5.868e-10
 77.79033    -49.4 9.980e+03 4.715e-10
 77.82609    -49.1 9.760e+03 3.970e-10
 77.85400    -48.6 9.624e+03 3.650e-10
 77.87621    -47.7 9.534e+03 3.405e-10
 77.91492    -46.7 9.430e+03 3.075e-10
 77.93977    -45.6 9.348e+03 2.724e-10
 77.96198    -44.6 9.392e+03 2.819e-10
 78.00334    -43.4 9.365e+03 2.659e-10
 78.02555    -42.5 9.455e+03 2.938e-10
 78.04816    -41.3 9.459e+03 2.958e-10
 78.08912    -39.9 9.451e+03 2.964e-10
 78.11132    -39.1 9.555e+03 3.398e-10
 78.13699    -37.7 9.461e+03 3.242e-10
 78.17489    -36.3 9.339e+03 2.950e-10
 78.19710    -35.7 9.335e+03 2.959e-10
 78.22581    -34.4 9.251e+03 2.618e-10
 78.26067    -33.5 9.234e+03 2.461e-10
 78.28287    -33.1 9.134e+03 2.252e-10
 78.31464    -32.7 9.390e+03 2.975e-10
 78.34278    -32.6 9.938e+03 4.816e-10
 78.35237    -30.9 9.777e+03 4.248e-10
 78.36865    -30.7 9.583e+03 3.687e-10
 78.38923    -31.0 1.033e+04 6.656e-10
 78.40023    -30.9 1.009e+04 5.652e-10
 78.41437    -31.5 1.055e+04 7.816e-10
 78.43202    -32.3 1.145e+04 1.398e-09
 78.44312    -33.3 1.186e+04 1.557e-09
 78.45879    -34.3 1.288e+04 2.576e-09
 78.47491    -35.3 1.348e+04 3.392e-09
 78.48601    -36.6 1.412e+04 4.698e-09
 78.50320    -37.1 1.422e+04 5.000e-09
 78.51779    -37.5 1.386e+04 4.302e-09
 78.52890    -37.8 1.433e+04 5.258e-09
 78.54761    -38.5 1.356e+04 3.257e-09
 78.56068    -40.4 1.254e+04 1.755e-09
 78.57178    -41.6 1.295e+04 1.980e-09
 78.59203    -44.4 1.160e+04 1.147e-09
 78.60357    -46.1 1.089e+04 9.222e-10
 78.61467    -47.0 1.115e+04 1.158e-09
 78.63535    -47.2 1.090e+04 1.074e-09
 78.64646    -47.5 1.117e+04 1.335e-09
 78.65865    -47.2 1.089e+04 1.141e-09
 78.67531    -46.9 1.056e+04 9.326e-10
 78.68380    -46.7 1.070e+04 1.030e-09
 78.68934    -46.6 1.072e+04 1.013e-09
 78.70306    -46.6 1.026e+04 7.260e-10
 78.72113    -46.7 9.828e+03 5.297e-10
 78.73223    -46.9 9.720e+03 4.894e-10
 78.74747    -47.0 9.453e+03 4.016e-10
 78.76401    -46.8 9.389e+03 3.695e-10
 78.77512    -46.9 9.380e+03 3.704e-10
 78.80309    -46.6 9.379e+03 3.625e-10
 78.83888    -46.0 9.311e+03 3.459e-10
 78.86109    -45.8 9.391e+03 3.705e-10
 78.89201    -44.9 9.327e+03 3.389e-10
 78.92465    -43.8 9.201e+03 2.898e-10
 78.94686    -43.9 9.300e+03 2.897e-10
 78.98084    -42.7 9.135e+03 2.362e-10
 79.00824    -41.2 9.019e+03 1.991e-10
 79.01562    -41.6 9.019e+03 1.975e-10
 79.03264    -42.1 9.170e+03 2.074e-10
 79.06966    -40.3 9.089e+03 1.907e-10
 79.09620    -38.6 9.079e+03 1.890e-10
 79.11841    -39.2 9.444e+03 2.560e-10
 79.15849    -37.3 9.493e+03 2.672e-10
 79.18198    -35.6 9.627e+03 2.961e-10
 79.19298    -36.1 9.824e+03 3.500e-10
 79.21357    -35.5 9.839e+03 3.519e-10
 79.22467    -35.8 1.012e+04 4.547e-10
 79.23602    -35.0 1.020e+04 4.671e-10
 79.25645    -34.3 1.025e+04 4.870e-10
 79.26756    -34.6 1.054e+04 6.627e-10
 79.28043    -33.8 1.058e+04 6.908e-10
 79.29934    -32.9 1.061e+04 7.204e-10
 79.31044    -32.9 1.084e+04 8.430e-10
 79.32484    -31.9 1.087e+04 8.277e-10
 79.34078    -31.0 1.093e+04 8.047e-10
 79.34706    -31.2 1.130e+04 1.033e-09
 79.35333    -31.6 1.155e+04 1.045e-09
 79.36926    -30.8 1.158e+04 1.027e-09
 79.38512    -30.0 1.162e+04 1.021e-09
 79.39622    -31.0 1.201e+04 1.088e-09
 79.41367    -30.3 1.218e+04 1.132e-09
 79.42800    -29.7 1.237e+04 1.196e-09
 79.43911    -31.0 1.295e+04 1.534e-09
 79.45808    -30.5 1.328e+04 1.758e-09
 79.47089    -30.1 1.368e+04 2.067e-09
 79.48199    -31.5 1.427e+04 3.005e-09
 79.50250    -31.3 1.472e+04 3.743e-09
 79.51378    -31.0 1.509e+04 4.661e-09
 79.52488    -32.0 1.551e+04 6.413e-09
 79.54556    -31.3 1.592e+04 7.728e-09
 79.55666    -32.2 1.603e+04 8.583e-09
 79.56912    -31.6 1.630e+04 9.315e-09
 79.58845    -31.1 1.641e+04 9.522e-09
 79.59955    -32.0 1.625e+04 9.185e-09
 79.61353    -31.4 1.621e+04 8.918e-09
 79.63134    -30.9 1.597e+04 7.733e-09
 79.64244    -31.8 1.511e+04 5.853e-09
 79.65794    -31.5 1.459e+04 4.469e-09
 79.67351    -31.3 1.403e+04 3.342e-09
 79.67868    -32.8 1.323e+04 2.329e-09
 79.68533    -33.7 1.242e+04 1.672e-09
 79.70236    -33.6 1.215e+04 1.418e-09
 79.73576    -33.8 1.198e+04 1.205e-09
 79.76019    -33.4 1.180e+04 1.047e-09
 79.78240    -33.0 1.122e+04 7.694e-10
 79.82376    -32.3 1.117e+04 7.353e-10
 79.84597    -31.4 1.090e+04 5.929e-10
 79.86910    -30.1 1.095e+04 6.149e-10
 79.90954    -28.5 1.096e+04 6.202e-10
 79.93174    -27.3 1.081e+04 5.310e-10
 79.95793    -25.7 1.081e+04 5.189e-10
 79.99531    -24.1 1.079e+04 4.669e-10
 80.01752    -23.2 1.082e+04 4.745e-10
 80.04675    -21.8 1.089e+04 4.935e-10
 80.08108    -20.5 1.096e+04 5.136e-10
 80.10329    -19.6 1.118e+04 6.951e-10
 80.13558    -18.2 1.136e+04 7.705e-10
 80.16686    -17.0 1.151e+04 8.181e-10
 80.18907    -16.5 1.172e+04 9.451e-10
 80.22441    -15.7 1.181e+04 9.333e-10
 80.25263    -14.9 1.189e+04 9.422e-10
 80.27484    -14.8 1.188e+04 9.065e-10
 80.31323    -14.1 1.195e+04 9.173e-10
 80.33841    -13.4 1.197e+04 8.974e-10
 80.34213    -13.4 1.188e+04 7.912e-10
 80.36137    -14.6 1.172e+04 7.154e-10
 80.40198    -13.9 1.176e+04 6.483e-10
 80.44639    -13.3 1.162e+04 4.609e-10
 80.48775    -13.0 1.148e+04 4.083e-10
 80.50996    -13.0 1.139e+04 3.575e-10
 80.52410    -12.9 1.129e+04 3.487e-10
 80.54155    -13.0 1.124e+04 3.674e-10
 80.55265    -13.2 1.130e+04 3.655e-10
 80.56841    -13.8 1.131e+04 4.466e-10
 80.58443    -14.1 1.144e+04 5.937e-10
 80.59554    -14.6 1.153e+04 6.900e-10
 80.61283    -14.4 1.160e+04 8.712e-10
 80.62732    -14.2 1.165e+04 1.002e-09
 80.63842    -14.0 1.167e+04 1.093e-09
 80.65724    -13.8 1.174e+04 1.058e-09
 80.67021    -14.0 1.166e+04 9.615e-10
 80.68141    -14.3 1.158e+04 9.190e-10
 80.71295    -15.1 1.125e+04 6.641e-10
 80.74507    -16.1 1.088e+04 4.667e-10
 80.76728    -16.6 1.051e+04 3.633e-10
 80.80178    -17.1 1.025e+04 3.216e-10
 80.83085    -16.7 1.012e+04 2.842e-10
 80.85305    -16.2 1.002e+04 2.732e-10
 80.89060    -15.7 9.903e+03 2.116e-10
 80.91662    -15.4 9.783e+03 1.685e-10
 80.93883    -14.5 9.703e+03 1.495e-10
 80.97943    -14.3 9.641e+03 1.355e-10
 81.00240    -13.9 9.631e+03 1.383e-10
 81.00539    -12.8 9.551e+03 1.188e-10
 81.02683    -12.4 9.544e+03 1.184e-10
 81.06596    -11.9 9.547e+03 1.439e-10
 81.08817    -10.8 9.467e+03 1.217e-10
 81.11267    -10.0 9.462e+03 1.563e-10
 81.15174     -9.1 9.504e+03 1.780e-10
 81.17395     -8.0 9.479e+03 1.511e-10
 81.20150     -7.4 9.492e+03 1.534e-10
 81.23751     -7.1 9.429e+03 1.495e-10
 81.25972     -6.2 9.442e+03 1.511e-10
 81.29032     -5.9 9.347e+03 1.589e-10
 81.32329     -5.6 9.347e+03 1.609e-10
 81.34549     -4.5 9.460e+03 1.971e-10
 81.37915     -4.1 9.514e+03 2.007e-10
 81.40906     -3.7 9.561e+03 1.989e-10
 81.43127     -2.5 9.682e+03 2.436e-10
 81.46798     -2.1 9.609e+03 2.319e-10
 81.49484     -1.4 9.483e+03 2.193e-10
 81.51704     -0.2 9.604e+03 2.535e-10
 81.55680      0.7 9.442e+03 2.321e-10
 81.58061      1.7 9.272e+03 2.074e-10
 81.60282      2.9 9.395e+03 2.319e-10
 81.64418      4.1 9.231e+03 2.042e-10
 81.66639      5.2 9.358e+03 2.287e-10
 81.67009      6.4 9.210e+03 1.994e-10
 81.69230      7.1 9.145e+03 1.958e-10
 81.72995      8.5 9.040e+03 1.584e-10
 81.75216      9.6 9.193e+03 2.053e-10
 81.77887     10.9 9.097e+03 1.632e-10
 81.81573     12.0 8.997e+03 1.363e-10
 81.83794     13.1 9.146e+03 1.787e-10
 81.86770     14.2 9.074e+03 1.696e-10
 81.90150     15.7 9.036e+03 1.763e-10
 81.92371     16.8 9.169e+03 2.180e-10
 81.95652     18.4 9.248e+03 2.279e-10
 81.98728     20.0 9.321e+03 2.295e-10
 82.00948     20.9 9.458e+03 2.723e-10
 82.04535     22.2 9.496e+03 2.660e-10
 82.07305     23.6 9.473e+03 2.590e-10
 82.09526     24.7 9.871e+03 3.564e-10
 82.13417     26.0 1.002e+04 3.792e-10
 82.15883     26.3 1.040e+04 4.326e-10
 82.18103     26.7 1.092e+04 6.350e-10
 82.22239     25.8 1.202e+04 1.029e-09
 82.24460     26.1 1.238e+04 1.301e-09
 82.25621     24.2 1.335e+04 2.063e-09
 82.27619     23.3 1.356e+04 2.452e-09
 82.28729     23.6 1.363e+04 2.462e-09
 82.30053     22.7 1.377e+04 2.711e-09
 82.31908     21.3 1.380e+04 2.385e-09
 82.33018     20.8 1.348e+04 1.954e-09
 82.33536     17.9 1.298e+04 1.609e-09
 82.34646     19.5 1.391e+04 2.201e-09
 82.36196     15.6 1.342e+04 1.774e-09
 82.37307     13.5 1.449e+04 2.125e-09
 82.38935      8.4 1.546e+04 3.086e-09
 82.40485      5.4 1.560e+04 4.650e-09
 82.41595      5.0 1.616e+04 7.393e-09
 82.43377      4.9 1.603e+04 8.534e-09
 82.44774      5.6 1.600e+04 8.000e-09
 82.45884      6.7 1.637e+04 7.914e-09
 82.47818      7.1 1.534e+04 3.371e-09
 82.49063      4.1 1.426e+04 1.143e-09
 82.50173      2.0 1.384e+04 6.992e-10
 82.53380     -1.5 1.197e+04 3.373e-10
 82.56549     -2.6 1.094e+04 1.976e-10
 82.58770     -2.9 1.061e+04 1.840e-10
 82.62272     -2.5 1.036e+04 1.527e-10
 82.65127     -1.7 1.039e+04 1.499e-10
 82.67347     -1.0 1.038e+04 1.520e-10
 82.71155     -0.8 1.072e+04 1.677e-10
 82.73704     -1.1 1.108e+04 2.413e-10
 82.75925     -0.3 1.104e+04 2.689e-10
 82.77983     -0.5 1.141e+04 3.587e-10
 82.79084     -0.2 1.142e+04 3.683e-10
 82.81128     -0.6 1.160e+04 4.111e-10
 82.82262     -1.7 1.176e+04 5.679e-10
 82.83372     -1.7 1.182e+04 5.615e-10
 82.85440     -2.3 1.204e+04 7.331e-10
 82.86551     -2.6 1.212e+04 7.257e-10
 82.87790     -3.7 1.231e+04 9.173e-10
 82.89729     -5.3 1.288e+04 1.176e-09
 82.90840     -5.3 1.255e+04 1.094e-09
 82.92231     -8.3 1.388e+04 1.405e-09
 82.94018    -14.2 1.674e+04 2.203e-09
 82.95128    -15.4 1.717e+04 1.832e-09
 82.96673    -24.7 1.942e+04 3.942e-09
 82.98307    -33.4 1.934e+04 6.906e-09
 82.99417    -36.3 1.927e+04 7.187e-09
 83.00082    -44.1 1.865e+04 7.980e-09
 83.01192    -42.9 1.891e+04 8.031e-09
 83.02595    -50.4 1.710e+04 6.603e-09
 83.03146    -49.4 1.724e+04 6.937e-09
 83.03880    -51.2 1.700e+04 5.541e-09
 83.05550    -57.3 1.508e+04 2.950e-09
 83.06884    -64.5 1.215e+04 1.219e-09
 83.07994    -64.8 1.195e+04 9.868e-10
 83.09997    -68.7 1.076e+04 5.446e-10
 83.11173    -69.9 1.052e+04 4.560e-10
 83.12283    -69.9 1.034e+04 3.920e-10
 83.14351    -71.0 1.033e+04 3.801e-10
 83.15462    -71.1 1.028e+04 3.587e-10
 83.16659    -72.3 1.042e+04 3.973e-10
 83.19999    -73.6 1.056e+04 4.609e-10
 83.22948    -75.3 1.059e+04 5.709e-10
 83.25169    -74.4 1.046e+04 5.359e-10
 83.28892    -75.6 1.040e+04 5.374e-10
 83.31526    -76.5 9.944e+03 3.978e-10
 83.33746    -75.5 9.750e+03 3.392e-10
 83.37774    -76.0 9.196e+03 1.953e-10
 83.40103    -76.5 8.869e+03 1.236e-10
 83.42324    -75.3 8.737e+03 1.077e-10
 83.46460    -75.6 8.676e+03 9.112e-11
 83.48681    -74.3 8.544e+03 9.015e-11
 83.51098    -74.3 8.540e+03 8.893e-11
 83.55037    -74.2 8.624e+03 9.305e-11
 83.57258    -72.8 8.633e+03 9.427e-11
 83.59981    -72.7 8.806e+03 1.202e-10
 83.63615    -72.5 8.949e+03 1.593e-10
 83.65835    -71.3 9.003e+03 1.852e-10
 83.68864    -71.0 9.125e+03 2.240e-10
 83.72192    -70.4 9.329e+03 2.770e-10
 83.74413    -69.3 9.473e+03 3.195e-10
 83.77746    -68.8 9.574e+03 3.336e-10
 83.80770    -68.3 9.609e+03 3.355e-10
 83.82990    -67.4 9.608e+03 3.266e-10
 83.86629    -66.8 9.568e+03 2.864e-10
 83.89347    -66.1 9.561e+03 2.647e-10
 83.91568    -65.4 9.538e+03 2.599e-10
 83.95512    -64.7 9.547e+03 2.593e-10
 83.97925    -63.9 9.614e+03 2.655e-10
 84.00145    -63.3 9.644e+03 2.808e-10
 84.04281    -62.4 9.694e+03 2.961e-10
 84.06502    -61.8 9.722e+03 3.235e-10
 84.08835    -60.7 9.645e+03 3.184e-10
 84.12859    -59.5 9.600e+03 2.918e-10
 84.15079    -58.8 9.489e+03 2.725e-10
 84.17718    -57.4 9.360e+03 2.344e-10
 84.21436    -56.0 9.259e+03 2.052e-10
 84.23657    -55.3 9.148e+03 1.806e-10
 84.26601    -53.8 9.098e+03 1.684e-10
 84.30014    -52.2 9.077e+03 1.651e-10
 84.32166    -51.4 8.982e+03 1.415e-10
 84.33194    -51.1 8.928e+03 1.227e-10
 84.35483    -49.3 8.927e+03 1.240e-10
 84.38591    -47.6 8.983e+03 1.314e-10
 84.40812    -46.9 8.940e+03 1.209e-10
 84.44366    -45.2 9.006e+03 1.345e-10
 84.47169    -43.6 9.096e+03 1.545e-10
 84.49389    -42.9 9.049e+03 1.476e-10
 84.53249    -41.4 9.163e+03 1.755e-10
 84.55746    -39.9 9.295e+03 2.114e-10
 84.57967    -39.2 9.219e+03 1.940e-10
 84.62103    -37.7 9.324e+03 2.205e-10
 84.64324    -36.9 9.202e+03 1.879e-10
 84.66573    -35.5 9.264e+03 1.940e-10
 84.70680    -34.0 9.292e+03 1.942e-10
 84.72901    -33.2 9.150e+03 1.549e-10
 84.75455    -31.7 9.180e+03 1.503e-10
 84.79258    -30.3 9.204e+03 1.485e-10
 84.81478    -29.2 9.082e+03 1.179e-10
 84.84338    -27.7 9.103e+03 1.185e-10
 84.87835    -26.1 9.155e+03 1.229e-10
 84.90056    -25.0 9.085e+03 9.667e-11
 84.93221    -23.5 9.130e+03 1.049e-10
 84.96413    -22.0 9.176e+03 1.147e-10
 84.98491    -20.9 9.089e+03 9.804e-11
 84.99740    -20.3 9.181e+03 1.020e-10
 85.02103    -18.8 9.199e+03 1.183e-10
 85.04990    -17.2 9.230e+03 1.304e-10
 85.07211    -16.0 9.192e+03 1.294e-10
 85.10986    -14.4 9.262e+03 1.363e-10
 85.13568    -12.7 9.284e+03 1.382e-10
 85.15788    -11.6 9.328e+03 1.460e-10
 85.19868    -10.0 9.368e+03 1.454e-10
 85.22145     -8.3 9.415e+03 1.390e-10
 85.24366     -7.3 9.468e+03 1.591e-10
 85.28502     -5.6 9.485e+03 1.575e-10
 85.30722     -4.7 9.560e+03 1.860e-10
 85.33192     -2.9 9.639e+03 1.907e-10
 85.37079     -1.0 9.718e+03 2.061e-10
 85.39300     -0.1 9.854e+03 2.550e-10
 85.42075      1.8 9.982e+03 2.880e-10
 85.45657      3.7 1.015e+04 3.353e-10
 85.47877      4.4 1.033e+04 4.075e-10
 85.50958      6.3 1.054e+04 4.715e-10
 85.54234      8.2 1.073e+04 5.273e-10
 85.56455      8.7 1.086e+04 5.889e-10
 85.59840     10.6 1.095e+04 5.984e-10
 85.62812     12.4 1.103e+04 5.469e-10
 85.64816     12.9 1.104e+04 5.436e-10
 85.66287     12.8 1.113e+04 5.668e-10
 85.68723     14.8 1.100e+04 4.779e-10
 85.71389     16.8 1.098e+04 4.298e-10
 85.73610     17.3 1.102e+04 4.415e-10
 85.77606     19.3 1.106e+04 4.426e-10
 85.79966     21.2 1.127e+04 4.964e-10
 85.82187     21.6 1.135e+04 5.001e-10
 85.86323     23.4 1.152e+04 6.238e-10
 85.88544     23.7 1.151e+04 6.009e-10
 85.90930     25.5 1.166e+04 7.248e-10
 85.94901     27.2 1.179e+04 7.994e-10
 85.97121     27.5 1.168e+04 6.592e-10
 85.99812     29.0 1.170e+04 6.805e-10
 86.03478     30.5 1.162e+04 6.582e-10
 86.05699     30.8 1.154e+04 5.787e-10
 86.08695     32.6 1.149e+04 6.021e-10
 86.12056     34.4 1.143e+04 6.329e-10
 86.14276     35.0 1.159e+04 7.835e-10
 86.17577     37.1 1.164e+04 9.033e-10
 86.20633     39.1 1.167e+04 9.769e-10
 86.22854     39.8 1.198e+04 1.291e-09
 86.26460     41.9 1.187e+04 1.251e-09
 86.29211     44.0 1.166e+04 1.067e-09
 86.31142     44.6 1.187e+04 1.324e-09
 86.32833     44.8 1.142e+04 9.178e-10
 86.35343     47.1 1.122e+04 7.841e-10
 86.37788     49.4 1.104e+04 5.944e-10
 86.40009     50.2 1.111e+04 6.482e-10
 86.44145     52.5 1.090e+04 4.387e-10
 86.46365     53.3 1.097e+04 4.881e-10
 86.48667     55.7 1.082e+04 3.221e-10
 86.52722     58.0 1.070e+04 2.302e-10
 86.54943     58.8 1.077e+04 2.644e-10
 86.57549     61.1 1.071e+04 2.263e-10
 86.61300     63.4 1.072e+04 2.254e-10
 86.63520     64.2 1.076e+04 2.502e-10
 86.66432     66.7 1.067e+04 2.858e-10
 86.69877     69.4 1.077e+04 3.141e-10
 86.72098     70.5 1.075e+04 2.968e-10
 86.75315     73.3 1.073e+04 2.858e-10
 86.78455     75.5 1.075e+04 2.636e-10
 86.80675     76.4 1.077e+04 2.104e-10
 86.84197     78.5 1.065e+04 2.134e-10
 86.87032     80.8 1.055e+04 2.300e-10
 86.89253     81.7 1.054e+04 1.906e-10
 86.93080     84.2 1.047e+04 2.087e-10
 86.95609     86.8 1.054e+04 2.115e-10
 86.97467     87.8 1.053e+04 1.893e-10
 86.99379     87.8 1.060e+04 1.512e-10
 87.01963     90.3 1.065e+04 1.509e-10
 87.06404     93.7 1.074e+04 1.548e-10
 87.10544     95.9 1.085e+04 1.755e-10
 87.12764     97.0 1.090e+04 1.824e-10
 87.15286     99.1 1.094e+04 2.344e-10
 87.19121    101.3 1.102e+04 3.177e-10
 87.21342    102.3 1.109e+04 3.259e-10
 87.24169    104.4 1.125e+04 4.464e-10
 87.27699    106.4 1.142e+04 5.818e-10
 87.29919    107.1 1.148e+04 5.756e-10
 87.33052    108.9 1.159e+04 6.617e-10
 87.36276    110.7 1.160e+04 6.521e-10
 87.38497    111.2 1.161e+04 6.152e-10
 87.41934    112.9 1.160e+04 5.593e-10
 87.44853    114.4 1.151e+04 4.554e-10
 87.47074    114.7 1.146e+04 4.071e-10
 87.50817    116.1 1.130e+04 3.699e-10
 87.53431    117.7 1.127e+04 3.711e-10
 87.55652    118.3 1.129e+04 3.790e-10
 87.59700    120.1 1.129e+04 3.986e-10
 87.62008    121.8 1.131e+04 4.238e-10
 87.63793    122.5 1.147e+04 4.844e-10
 87.65925    123.2 1.142e+04 4.625e-10
 87.68365    124.8 1.151e+04 5.174e-10
 87.70586    125.2 1.164e+04 5.798e-10
 87.73024    126.7 1.177e+04 6.783e-10
 87.76943    128.0 1.203e+04 9.043e-10
 87.79163    128.3 1.205e+04 8.916e-10
 87.81906    129.3 1.262e+04 1.373e-09
 87.85520    129.4 1.331e+04 2.090e-09
 87.87741    130.1 1.328e+04 1.973e-09
 87.89669    129.7 1.382e+04 2.771e-09
 87.90900    130.1 1.406e+04 3.508e-09
 87.92010    130.2 1.410e+04 3.263e-09
 87.94078    130.7 1.421e+04 3.885e-09
 87.95188    130.7 1.423e+04 3.293e-09
 87.96321    131.2 1.431e+04 3.909e-09
 87.98069    131.7 1.435e+04 4.016e-09
 87.99004    131.8 1.427e+04 3.754e-09
 87.99477    131.8 1.425e+04 3.302e-09
 88.00762    132.0 1.433e+04 3.532e-09
 88.02655    132.2 1.439e+04 3.657e-09
 88.03766    132.0 1.440e+04 3.328e-09
 88.05204    132.2 1.451e+04 3.643e-09
 88.06944    132.5 1.452e+04 3.735e-09
 88.08054    132.2 1.450e+04 3.456e-09
 88.09645    132.4 1.445e+04 3.505e-09
 88.11233    132.7 1.431e+04 3.311e-09
 88.12343    132.4 1.420e+04 2.996e-09
 88.14086    132.6 1.405e+04 2.836e-09
 88.15522    132.9 1.385e+04 2.551e-09
 88.16632    132.5 1.376e+04 2.382e-09
 88.18528    132.7 1.359e+04 2.194e-09
 88.19810    133.1 1.341e+04 1.966e-09
 88.20921    132.7 1.330e+04 1.881e-09
 88.22969    133.1 1.319e+04 1.712e-09
 88.24099    133.6 1.304e+04 1.484e-09
 88.25209    133.3 1.289e+04 1.436e-09
 88.27277    133.8 1.273e+04 1.242e-09
 88.28388    133.7 1.255e+04 1.195e-09
 88.29631    134.3 1.238e+04 1.009e-09
 88.31342    134.8 1.226e+04 8.831e-10
 88.32167    135.3 1.239e+04 1.032e-09
 88.32676    135.3 1.217e+04 9.483e-10
 88.34072    135.9 1.207e+04 8.567e-10
 88.35855    136.2 1.207e+04 8.382e-10
 88.36965    136.3 1.187e+04 7.483e-10
 88.38514    136.7 1.180e+04 7.032e-10
 88.40144    137.4 1.162e+04 6.304e-10
 88.41254    137.5 1.151e+04 6.012e-10
 88.42955    138.3 1.139e+04 5.581e-10
 88.44432    139.4 1.139e+04 5.541e-10
 88.45543    139.4 1.131e+04 5.290e-10
 88.47396    140.5 1.133e+04 5.360e-10
 88.48721    141.6 1.133e+04 5.558e-10
 88.49831    141.6 1.122e+04 5.189e-10
 88.51838    142.8 1.123e+04 5.509e-10
 88.53010    144.0 1.129e+04 6.137e-10
 88.54120    144.1 1.118e+04 5.509e-10
 88.56188    145.1 1.127e+04 6.307e-10
 88.57299    145.3 1.115e+04 5.639e-10
 88.58500    146.3 1.122e+04 6.488e-10
 88.60477    147.3 1.125e+04 7.462e-10
 88.61587    147.4 1.117e+04 6.794e-10
 88.62941    148.5 1.123e+04 7.872e-10
 88.64615    149.6 1.130e+04 9.104e-10
 88.65329    149.6 1.125e+04 9.186e-10
 88.65876    149.6 1.120e+04 8.789e-10
 88.67382    150.7 1.128e+04 9.953e-10
 88.69054    151.8 1.136e+04 1.075e-09
 88.70165    151.8 1.140e+04 1.109e-09
 88.71823    152.8 1.153e+04 1.152e-09
 88.73343    153.7 1.155e+04 1.144e-09
 88.74453    153.7 1.167e+04 1.235e-09
 88.76265    154.5 1.168e+04 1.209e-09
 88.77632    155.2 1.164e+04 1.122e-09
 88.78742    155.1 1.174e+04 1.226e-09
 88.80706    155.8 1.163e+04 1.092e-09
 88.81921    156.5 1.146e+04 9.323e-10
 88.83031    156.4 1.154e+04 1.015e-09
 88.85099    157.0 1.134e+04 8.554e-10
 88.86209    157.0 1.141e+04 9.263e-10
 88.87368    157.7 1.117e+04 7.605e-10
 88.89388    158.0 1.110e+04 6.998e-10
 88.90498    158.1 1.110e+04 7.261e-10
 88.92576    159.0 1.107e+04 6.501e-10
 88.94796    159.0 1.107e+04 6.695e-10
 88.96251    160.0 1.089e+04 5.572e-10
 88.97888    160.3 1.083e+04 5.191e-10
 88.99008    160.8 1.068e+04 5.179e-10
 89.01163    162.3 1.061e+04 4.442e-10
 89.03374    162.4 1.079e+04 5.318e-10
 89.06253    163.9 1.077e+04 5.288e-10
 89.09740    165.4 1.080e+04 5.004e-10
 89.11961    165.4 1.111e+04 7.395e-10
 89.15146    167.0 1.119e+04 7.397e-10
 89.18308    167.6 1.145e+04 8.488e-10
 89.19409    167.5 1.167e+04 1.036e-09
 89.20678    167.9 1.183e+04 1.075e-09
 89.24019    168.9 1.216e+04 1.263e-09
 89.26895    169.8 1.252e+04 1.390e-09
 89.29116    169.0 1.289e+04 1.767e-09
 89.32911    169.4 1.300e+04 1.750e-09
 89.35473    169.7 1.303e+04 1.615e-09
 89.37693    168.5 1.315e+04 1.674e-09
 89.41794    169.0 1.305e+04 1.403e-09
 89.44050    169.7 1.288e+04 1.138e-09
 89.46271    168.3 1.288e+04 1.136e-09
 89.50407    169.2 1.278e+04 9.662e-10
 89.52628    167.8 1.270e+04 9.242e-10
 89.55118    169.0 1.266e+04 8.387e-10
 89.58985    170.3 1.255e+04 7.514e-10
 89.61205    168.8 1.232e+04 6.222e-10
 89.63343    170.4 1.224e+04 5.505e-10
 89.65554    169.4 1.227e+04 5.468e-10
 89.67312    169.9 1.221e+04 5.476e-10
 89.68653    170.6 1.217e+04 5.546e-10
 89.69763    169.4 1.209e+04 5.102e-10
 89.71753    170.0 1.204e+04 5.286e-10
 89.72941    170.5 1.200e+04 5.463e-10
 89.74052    169.3 1.187e+04 5.382e-10
 89.76120    169.7 1.190e+04 5.486e-10
 89.77230    168.4 1.192e+04 5.567e-10
 89.78415    168.6 1.202e+04 5.734e-10
 89.80409    168.5 1.222e+04 6.006e-10
 89.81519    166.9 1.231e+04 6.859e-10
 89.82856    166.4 1.247e+04 7.652e-10
 89.84697    165.7 1.256e+04 8.794e-10
 89.85808    164.8 1.245e+04 1.095e-09
 89.87298    164.2 1.244e+04 1.254e-09
 89.88986    163.8 1.243e+04 1.427e-09
 89.90096    163.5 1.254e+04 1.661e-09
 89.91739    163.3 1.266e+04 1.766e-09
 89.93275    162.9 1.278e+04 1.767e-09
 89.94385    162.7 1.289e+04 1.862e-09
 89.96180    162.1 1.291e+04 1.687e-09
 89.99521    160.4 1.248e+04 1.007e-09
 90.01872    159.4 1.177e+04 5.839e-10
 90.04092    158.1 1.151e+04 4.587e-10
 90.08229    156.4 1.077e+04 2.929e-10
 90.10449    154.9 1.073e+04 2.923e-10
 90.12855    153.8 1.031e+04 2.636e-10
 90.16806    153.0 1.013e+04 2.589e-10
 90.19027    152.2 1.031e+04 3.201e-10
 90.21738    151.4 1.021e+04 3.093e-10
 90.25383    150.6 1.008e+04 2.611e-10
 90.27604    149.9 1.027e+04 3.103e-10
 90.29890    148.9 1.005e+04 2.100e-10
 90.32110    148.7 9.918e+03 1.908e-10
 90.33961    147.8 9.696e+03 1.520e-10
 90.36182    147.1 9.870e+03 1.767e-10
 90.39503    146.5 9.874e+03 1.803e-10
 90.42538    146.3 9.978e+03 2.113e-10
 90.44759    145.6 1.023e+04 2.654e-10
 90.48385    145.5 1.044e+04 3.367e-10
 90.51116    145.4 1.066e+04 4.227e-10
 90.53336    144.9 1.059e+04 4.026e-10
 90.57268    144.9 1.072e+04 4.506e-10
 90.59693    144.7 1.085e+04 4.774e-10
 90.61914    144.7 1.060e+04 3.817e-10
 90.66050    144.3 1.074e+04 4.179e-10
 90.68271    144.4 1.055e+04 3.452e-10
 90.70592    143.9 1.080e+04 4.409e-10
 90.74627    143.2 1.112e+04 5.981e-10
 90.76848    143.5 1.096e+04 5.417e-10
 90.79475    142.6 1.136e+04 7.584e-10
 90.83205    141.3 1.163e+04 8.612e-10
 90.85426    142.1 1.130e+04 7.362e-10
 90.88357    140.8 1.126e+04 7.032e-10
 90.91782    139.8 1.105e+04 5.879e-10
 90.94003    141.2 1.084e+04 5.446e-10
 90.96436    140.6 1.055e+04 4.428e-10
 90.98647    140.8 1.079e+04 5.732e-10
 91.00350    141.0 1.061e+04 5.001e-10
 91.01460    141.7 1.057e+04 5.208e-10
 91.02772    141.7 1.051e+04 4.927e-10
 91.06113    142.9 1.039e+04 4.590e-10
 91.08937    143.4 1.022e+04 4.042e-10
 91.11158    144.4 1.023e+04 4.440e-10
 91.15005    144.8 1.015e+04 4.296e-10
 91.17515    145.7 1.018e+04 4.484e-10
 91.18615    146.1 1.025e+04 5.029e-10
 91.20537    146.2 1.030e+04 5.153e-10
 91.23862    147.2 1.050e+04 6.191e-10
 91.28313    148.2 1.070e+04 7.260e-10
 91.32449    148.3 1.055e+04 6.334e-10
 91.34670    148.9 1.041e+04 5.825e-10
 91.37212    148.7 9.986e+03 4.028e-10
 91.41026    148.2 9.679e+03 2.925e-10
 91.43247    148.8 9.669e+03 2.830e-10
 91.46094    148.1 9.693e+03 2.880e-10
 91.49416    147.3 9.928e+03 3.331e-10
 91.50695    146.4 1.018e+04 4.209e-10
 91.51805    146.6 1.026e+04 4.505e-10
 91.53847    145.8 1.050e+04 5.719e-10
 91.54983    145.0 1.076e+04 7.030e-10
 91.56094    145.2 1.078e+04 7.145e-10
 91.58162    144.4 1.100e+04 8.038e-10
 91.59272    144.4 1.097e+04 7.837e-10
 91.60509    143.4 1.111e+04 8.250e-10
 91.62451    142.3 1.125e+04 8.583e-10
 91.63561    142.1 1.109e+04 8.016e-10
 91.64073    141.1 1.122e+04 8.386e-10
 91.65183    141.7 1.108e+04 8.169e-10
 91.66739    140.8 1.120e+04 8.588e-10
 91.67850    140.5 1.112e+04 8.361e-10
 91.69392    139.7 1.130e+04 9.181e-10
 91.71028    138.9 1.152e+04 1.018e-09
 91.72138    138.6 1.151e+04 1.035e-09
 91.73833    138.1 1.172e+04 1.155e-09
 91.75317    137.7 1.192e+04 1.272e-09
 91.76427    137.2 1.191e+04 1.272e-09
 91.78274    136.7 1.215e+04 1.394e-09
 91.79605    135.9 1.245e+04 1.545e-09
 91.80716    135.1 1.245e+04 1.572e-09
 91.82716    133.8 1.284e+04 1.854e-09
 91.83894    132.2 1.320e+04 2.268e-09
 91.85004    131.1 1.338e+04 2.584e-09
 91.87073    129.8 1.375e+04 3.335e-09
 91.88183    129.2 1.404e+04 4.007e-09
 91.89378    128.7 1.449e+04 5.006e-09
 91.91361    128.1 1.471e+04 5.210e-09
 91.92467    128.0 1.491e+04 5.665e-09
 91.93254    127.7 1.495e+04 5.547e-09
 91.94051    127.5 1.498e+04 5.437e-09
 91.94606    127.4 1.509e+04 5.710e-09
 91.95475    126.9 1.511e+04 5.256e-09
 91.96195    126.5 1.513e+04 4.995e-09
 91.96751    126.6 1.531e+04 5.358e-09
 91.97336    125.6 1.525e+04 4.828e-09
 91.98452    125.2 1.467e+04 4.162e-09
 91.99939    123.0 1.411e+04 3.440e-09
 92.01049    123.0 1.442e+04 3.980e-09
 92.02702    121.1 1.373e+04 3.475e-09
 92.04227    119.4 1.387e+04 3.174e-09
 92.05338    119.9 1.401e+04 3.728e-09
 92.07143    118.0 1.452e+04 3.781e-09
 92.08516    115.2 1.617e+04 4.362e-09
 92.09626    116.2 1.574e+04 4.774e-09
 92.11584    112.9 1.683e+04 6.057e-09
 92.12800    112.0 1.655e+04 6.869e-09
 92.13350    112.5 1.666e+04 7.311e-09
 92.13973    112.1 1.650e+04 7.326e-09
 92.14528    112.6 1.657e+04 7.254e-09
 92.14939    112.6 1.623e+04 7.142e-09
 92.15495    113.0 1.650e+04 7.594e-09
 92.16529    112.8 1.619e+04 7.526e-09
 92.17084    113.1 1.650e+04 8.131e-09
 92.17681    113.3 1.600e+04 7.520e-09
 92.18673    113.3 1.558e+04 6.861e-09
 92.19228    113.6 1.593e+04 7.638e-09
 92.20267    113.8 1.525e+04 5.552e-09
 92.21377    114.0 1.543e+04 6.042e-09
 92.22683    114.1 1.557e+04 4.264e-09
 92.24561    112.4 1.596e+04 2.164e-09
 92.25671    113.6 1.618e+04 3.119e-09
 92.27129    110.8 1.555e+04 1.428e-09
 92.28849    107.7 1.213e+04 7.692e-10
 92.29960    109.0 1.388e+04 1.154e-09
 92.30619    107.1 1.058e+04 8.468e-10
 92.31730    110.3 1.393e+04 1.354e-09
 92.33138    108.3 1.089e+04 9.385e-10
 92.34248    109.3 1.240e+04 1.386e-09
 92.36012    108.3 1.084e+04 1.129e-09
 92.37427    108.0 1.066e+04 1.049e-09
 92.38537    108.4 1.118e+04 1.371e-09
 92.40453    108.2 1.091e+04 1.257e-09
 92.41716    107.9 1.068e+04 1.165e-09
 92.42826    108.1 1.108e+04 1.439e-09
 92.44894    107.5 1.086e+04 1.330e-09
 92.47115    106.7 1.151e+04 1.582e-09
 92.49183    105.9 1.180e+04 1.573e-09
 92.50293    105.1 1.245e+04 2.045e-09
 92.51556    103.9 1.277e+04 2.090e-09
 92.53471    102.8 1.281e+04 2.088e-09
 92.54582    101.6 1.345e+04 2.894e-09
 92.55998    100.5 1.337e+04 2.873e-09
 92.57760     99.8 1.319e+04 2.812e-09
 92.58871     98.8 1.386e+04 3.927e-09
 92.60439     98.5 1.358e+04 3.718e-09
 92.62049     98.4 1.320e+04 3.349e-09
 92.63159     97.9 1.361e+04 4.219e-09
 92.63892     98.3 1.305e+04 3.383e-09
 92.65003     98.2 1.301e+04 3.492e-09
 92.66338     98.8 1.233e+04 2.530e-09
 92.67448     98.3 1.233e+04 2.417e-09
 92.69322     98.6 1.174e+04 1.624e-09
 92.70626     98.7 1.127e+04 1.083e-09
 92.71737     98.1 1.123e+04 8.775e-10
 92.73763     97.8 1.088e+04 5.912e-10
 92.74915     97.6 1.060e+04 4.298e-10
 92.76025     96.9 1.033e+04 3.593e-10
 92.78093     96.9 1.004e+04 2.857e-10
 92.79204     96.5 9.732e+03 2.799e-10
 92.80425     96.5 9.473e+03 2.467e-10
 92.82382     96.8 9.383e+03 2.472e-10
 92.83493     96.6 9.326e+03 2.495e-10
 92.84866     96.8 9.376e+03 2.585e-10
 92.86671     96.9 9.466e+03 2.986e-10
 92.87781     96.9 9.449e+03 3.004e-10
 92.89307     97.1 9.560e+03 3.575e-10
 92.90960     97.8 9.539e+03 4.370e-10
 92.92070     97.9 9.624e+03 4.659e-10
 92.93749     98.8 9.700e+03 5.825e-10
 92.95248    100.2 9.915e+03 6.466e-10
 92.96359    100.2 1.010e+04 6.972e-10
 92.97165    100.9 1.034e+04 7.182e-10
 92.98286    100.7 9.979e+03 5.218e-10
 92.99557    102.5 9.985e+03 5.216e-10
 93.01777    102.3 1.022e+04 6.005e-10
 93.05913    104.0 1.014e+04 5.177e-10
 93.08134    103.9 1.043e+04 6.025e-10
 93.10423    105.4 1.034e+04 4.761e-10
 93.14491    106.8 1.039e+04 4.716e-10
 93.16712    106.7 1.057e+04 4.890e-10
 93.19306    108.5 1.067e+04 5.118e-10
 93.23068    110.4 1.079e+04 5.885e-10
 93.25289    110.2 1.089e+04 5.927e-10
 93.28189    112.3 1.113e+04 7.563e-10
 93.31646    114.1 1.164e+04 1.028e-09
 93.33866    114.3 1.167e+04 1.043e-09
 93.35925    115.0 1.201e+04 1.278e-09
 93.37025    115.0 1.196e+04 1.264e-09
 93.38162    115.5 1.234e+04 1.515e-09
 93.40204    116.0 1.285e+04 1.937e-09
 93.41314    115.8 1.278e+04 1.866e-09
 93.42603    116.3 1.330e+04 2.423e-09
 93.44492    117.1 1.368e+04 2.981e-09
 93.45603    116.7 1.354e+04 2.766e-09
 93.47045    117.4 1.387e+04 3.237e-09
 93.48781    118.0 1.405e+04 3.499e-09
 93.49891    117.5 1.363e+04 2.882e-09
 93.51486    118.0 1.365e+04 2.887e-09
 93.53070    118.6 1.361e+04 2.772e-09
 93.54180    118.0 1.303e+04 2.107e-09
 93.55927    118.4 1.291e+04 1.932e-09
 93.57359    118.8 1.274e+04 1.696e-09
 93.59589    117.6 1.182e+04 1.105e-09
 93.62621    118.4 1.132e+04 8.815e-10
 93.64842    119.6 1.159e+04 9.479e-10
 93.68160    119.9 1.033e+04 5.592e-10
 93.72312    121.6 1.009e+04 5.013e-10
 93.74533    121.6 1.008e+04 5.072e-10
 93.77043    123.4 9.896e+03 4.664e-10
 93.80890    125.3 9.778e+03 4.378e-10
 93.83110    125.4 9.772e+03 4.628e-10
 93.85926    127.2 9.692e+03 4.295e-10
 93.89467    129.0 9.650e+03 3.949e-10
 93.91688    129.2 9.632e+03 3.931e-10
 93.94808    130.9 9.581e+03 3.530e-10
 93.98045    132.6 9.553e+03 3.170e-10
 94.00265    132.8 9.441e+03 2.833e-10
 94.03691    134.4 9.417e+03 2.550e-10
 94.06622    136.1 9.434e+03 2.482e-10
 94.08843    136.3 9.270e+03 2.037e-10
 94.12574    138.0 9.285e+03 2.037e-10
 94.15200    139.8 9.365e+03 2.061e-10
 94.17420    140.0 9.162e+03 1.737e-10
 94.21456    141.8 9.301e+03 1.836e-10
 94.23777    143.6 9.457e+03 1.984e-10
 94.25998    143.9 9.321e+03 1.806e-10
 94.29167    145.6 9.487e+03 1.900e-10
 94.31183    145.5 9.201e+03 1.645e-10
 94.32354    145.8 9.147e+03 1.616e-10
 94.34780    147.3 9.225e+03 1.538e-10
 94.38711    148.8 9.315e+03 1.486e-10
 94.40932    149.0 9.169e+03 1.266e-10
 94.43663    150.4 9.201e+03 1.193e-10
 94.47289    151.7 9.240e+03 1.212e-10
 94.49509    151.9 9.061e+03 9.502e-11
 94.52545    153.2 9.113e+03 9.868e-11
 94.55866    154.3 9.216e+03 1.149e-10
 94.58087    154.7 9.062e+03 9.141e-11
 94.61428    156.0 9.163e+03 1.240e-10
 94.64444    157.4 9.256e+03 1.765e-10
 94.66664    158.0 9.150e+03 1.584e-10
 94.70311    159.6 9.287e+03 2.290e-10
 94.73021    161.0 9.459e+03 2.795e-10
 94.75242    161.8 9.499e+03 3.095e-10
 94.79193    163.2 9.692e+03 3.469e-10
 94.81599    164.5 9.707e+03 3.362e-10
 94.83819    165.1 1.003e+04 4.196e-10
 94.87955    166.2 1.004e+04 3.920e-10
 94.90176    166.6 1.034e+04 4.976e-10
 94.92517    167.4 1.035e+04 4.314e-10
 94.95713    168.0 1.012e+04 3.461e-10
 94.97508    169.4 1.023e+04 4.008e-10
 94.98744    169.6 1.046e+04 4.633e-10
 95.00270    169.9 1.025e+04 3.804e-10
 95.01912    169.9 1.012e+04 3.506e-10
 95.03023    169.9 1.027e+04 4.102e-10
 95.04711    170.0 1.000e+04 3.653e-10
 95.06201    170.1 9.809e+03 3.403e-10
 95.07311    170.0 9.938e+03 4.117e-10
 95.09153    170.2 9.741e+03 3.755e-10
 95.10490    170.3 9.648e+03 3.575e-10
 95.11600    170.2 9.743e+03 4.198e-10
 95.13594    170.2 9.640e+03 3.894e-10
 95.14778    170.2 9.608e+03 3.817e-10
 95.15889    169.7 9.832e+03 4.636e-10
 95.17957    169.7 9.849e+03 4.674e-10
 95.19067    169.0 1.019e+04 5.838e-10
 95.20256    168.7 1.029e+04 6.107e-10
 95.22246    168.3 1.047e+04 6.625e-10
 95.23356    167.3 1.084e+04 8.254e-10
 95.24697    166.7 1.106e+04 9.139e-10
 95.26534    165.9 1.129e+04 1.027e-09
 95.27645    164.8 1.156e+04 1.252e-09
 95.28967    163.9 1.168e+04 1.371e-09
 95.30077    164.7 1.217e+04 1.747e-09
 95.30823    163.8 1.216e+04 1.772e-09
 95.31933    163.3 1.220e+04 1.884e-09
 95.33580    162.2 1.220e+04 1.860e-09
 95.35112    159.9 1.245e+04 1.941e-09
 95.36222    158.3 1.291e+04 2.131e-09
 95.38021    152.1 1.482e+04 3.143e-09
 95.39400    146.3 1.627e+04 5.762e-09
 95.40511    144.4 1.672e+04 7.141e-09
 95.42463    141.3 1.648e+04 7.664e-09
 95.43689    139.5 1.592e+04 6.759e-09
 95.44800    138.3 1.571e+04 5.607e-09
 95.46868    136.2 1.444e+04 2.680e-09
 95.47978    133.3 1.380e+04 1.640e-09
 95.50245    125.4 1.079e+04 4.771e-10
 95.54354    122.0 9.131e+03 2.549e-10
 95.56575    121.8 9.194e+03 3.267e-10
 95.59137    122.5 8.984e+03 2.877e-10
 95.62260    123.8 8.900e+03 2.636e-10
 95.63834    123.4 8.953e+03 2.805e-10
 95.65152    123.8 9.359e+03 3.840e-10
 95.68020    125.2 9.320e+03 3.725e-10
 95.71509    126.5 9.353e+03 3.702e-10
 95.73730    126.6 9.762e+03 4.942e-10
 95.76902    127.1 9.834e+03 4.876e-10
 95.80087    126.8 9.943e+03 4.850e-10
 95.82307    126.8 1.013e+04 5.560e-10
 95.85785    126.0 1.022e+04 5.395e-10
 95.88664    124.9 1.031e+04 5.578e-10
 95.90885    124.8 1.037e+04 5.783e-10
 95.94668    123.4 1.045e+04 5.806e-10
 95.97241    122.5 1.048e+04 5.793e-10
 95.99462    122.6 1.051e+04 5.964e-10
 96.01520    122.3 1.052e+04 5.968e-10
 96.02621    122.4 1.054e+04 6.055e-10
 96.04641    122.2 1.054e+04 5.889e-10
 96.05799    122.0 1.049e+04 5.537e-10
 96.06910    122.1 1.053e+04 5.647e-10
 96.08978    121.8 1.053e+04 5.224e-10
 96.10088    121.8 1.057e+04 5.347e-10
 96.11303    121.3 1.059e+04 4.972e-10
 96.13267    120.4 1.064e+04 4.690e-10
 96.14377    120.3 1.072e+04 4.933e-10
 96.15744    119.1 1.080e+04 5.031e-10
 96.17555    117.7 1.091e+04 5.324e-10
 96.18666    117.1 1.102e+04 5.856e-10
 96.20743    114.6 1.152e+04 8.436e-10
 96.22974    114.2 1.155e+04 9.840e-10
 96.25757    111.5 1.164e+04 1.211e-09
 96.28806    109.6 1.153e+04 1.207e-09
 96.29907    110.7 1.157e+04 1.258e-09
 96.30421    109.7 1.145e+04 1.210e-09
 96.31542    111.2 1.133e+04 1.117e-09
 96.34640    109.9 1.092e+04 9.200e-10
 96.37908    108.5 1.009e+04 5.414e-10
 96.40129    108.6 9.442e+03 3.677e-10
 96.43522    106.8 8.595e+03 2.184e-10
 96.46486    105.4 8.101e+03 1.723e-10
 96.48706    106.2 8.017e+03 1.687e-10
 96.52405    106.2 7.935e+03 1.659e-10
 96.55063    106.4 7.849e+03 1.607e-10
 96.57284    107.3 7.787e+03 1.553e-10
 96.61287    107.7 7.599e+03 1.320e-10
 96.63640    108.1 7.385e+03 1.013e-10
 96.65861    108.8 7.246e+03 8.950e-11
 96.69997    109.1 7.017e+03 6.724e-11
 96.72218    109.9 6.996e+03 6.709e-11
 96.74611    110.2 6.842e+03 5.364e-11
 96.78575    110.6 6.730e+03 4.723e-11
 96.80795    111.6 6.726e+03 4.776e-11
 96.83494    112.2 6.714e+03 4.719e-11
 96.87152    112.9 6.725e+03 4.789e-11
 96.89373    113.9 6.721e+03 4.911e-11
 96.92377    114.7 6.751e+03 5.205e-11
 96.95352    115.7 6.797e+03 5.793e-11
 96.96484    115.2 6.791e+03 6.032e-11
 96.97950    116.1 6.791e+03 6.101e-11
 97.01259    117.1 6.803e+03 6.141e-11
 97.04307    118.1 6.797e+03 5.958e-11
 97.06528    118.8 6.806e+03 6.071e-11
 97.10142    119.7 6.777e+03 5.598e-11
 97.12884    120.6 6.758e+03 5.424e-11
 97.15105    121.1 6.782e+03 5.769e-11
 97.19025    122.1 6.790e+03 5.864e-11
 97.21462    123.2 6.861e+03 6.348e-11
 97.23683    123.5 6.951e+03 7.377e-11
 97.27819    124.6 7.130e+03 9.039e-11
 97.30039    124.8 7.305e+03 1.112e-10
 97.32349    126.0 7.566e+03 1.410e-10
 97.36396    127.0 7.925e+03 1.837e-10
 97.38617    127.1 8.044e+03 2.013e-10
 97.41231    127.9 8.425e+03 2.470e-10
 97.44974    128.1 8.868e+03 3.110e-10
 97.47194    127.9 8.903e+03 3.057e-10
 97.48994    127.8 9.137e+03 3.549e-10
 97.50353    127.5 9.423e+03 4.335e-10
 97.51463    127.4 9.420e+03 4.319e-10
 97.53425    127.2 9.789e+03 5.764e-10
 97.54642    127.0 1.025e+04 7.914e-10
 97.55752    127.0 1.030e+04 8.059e-10
 97.57820    126.8 1.087e+04 1.103e-09
 97.58931    126.5 1.104e+04 1.169e-09
 97.60087    125.6 1.202e+04 1.690e-09
 97.61879    123.9 1.327e+04 2.511e-09
 97.62790    125.4 1.257e+04 2.025e-09
 97.63219    124.4 1.324e+04 2.486e-09
 97.64529    122.4 1.431e+04 3.428e-09
 97.66398    120.7 1.489e+04 4.290e-09
 97.67508    119.6 1.558e+04 5.605e-09
 97.68970    118.3 1.558e+04 5.622e-09
 97.70686    117.0 1.549e+04 5.102e-09
 97.71797    115.9 1.592e+04 5.888e-09
 97.73411    113.6 1.606e+04 4.847e-09
 97.74975    109.8 1.625e+04 4.805e-09
 97.76085    109.2 1.617e+04 4.992e-09
 97.77853    105.8 1.625e+04 5.532e-09
 97.79264    103.6 1.623e+04 6.268e-09
 97.80374    103.8 1.621e+04 6.340e-09
 97.82294    102.8 1.603e+04 5.950e-09
 97.83553    102.3 1.529e+04 4.412e-09
 97.84663    102.4 1.538e+04 4.450e-09
 97.86731    101.5 1.410e+04 2.551e-09
 97.88952    100.0 1.268e+04 1.295e-09
 97.91020     98.3 1.157e+04 6.356e-10
 97.92130     98.2 1.171e+04 7.925e-10
 97.93397     97.2 1.096e+04 4.257e-10
 97.95152     96.8 1.086e+04 3.636e-10
 97.95953     96.4 1.067e+04 3.156e-10
 97.96419     96.8 1.103e+04 4.759e-10
 97.98959     98.0 1.094e+04 4.415e-10
 98.02795     99.4 1.032e+04 3.055e-10
 98.05016     99.8 1.115e+04 6.593e-10
 98.07851    101.8 1.050e+04 4.662e-10
 98.11172    103.4 1.030e+04 4.532e-10
 98.12463    104.0 1.025e+04 4.307e-10
 98.13574    104.2 1.049e+04 5.561e-10
 98.15604    105.2 1.027e+04 4.879e-10
 98.16752    106.0 1.015e+04 4.526e-10
 98.17862    106.2 1.032e+04 5.361e-10
 98.19930    107.0 1.018e+04 4.884e-10
 98.21041    106.9 1.029e+04 5.418e-10
 98.22266    107.7 1.017e+04 5.086e-10
 98.25607    109.0 1.010e+04 4.848e-10
 98.28445    111.0 1.011e+04 4.818e-10
 98.29125    110.5 1.010e+04 4.965e-10
 98.30738    110.9 1.006e+04 5.023e-10
 98.34499    113.0 1.009e+04 5.076e-10
 98.37105    115.0 1.009e+04 5.114e-10
 98.39326    115.2 9.973e+03 5.000e-10
 98.43382    117.3 9.917e+03 4.909e-10
 98.45682    119.5 9.765e+03 4.566e-10
 98.47903    119.9 9.780e+03 4.673e-10
 98.52039    122.0 9.547e+03 4.083e-10
 98.54260    122.5 9.577e+03 4.259e-10
 98.56706    124.7 9.310e+03 3.582e-10
 98.60617    126.9 9.022e+03 2.821e-10
 98.62837    127.5 9.080e+03 3.074e-10
 98.65588    129.6 8.801e+03 2.405e-10
 98.69194    131.7 8.559e+03 1.902e-10
 98.71415    132.5 8.600e+03 2.028e-10
 98.74471    134.6 8.388e+03 1.643e-10
 98.77771    136.7 8.244e+03 1.442e-10
 98.79992    137.6 8.245e+03 1.464e-10
 98.83353    139.8 8.192e+03 1.364e-10
 98.86349    142.0 8.196e+03 1.364e-10
 98.88570    143.1 8.192e+03 1.367e-10
 98.92236    145.3 8.207e+03 1.380e-10
 98.94926    147.4 8.296e+03 1.445e-10
 98.95461    148.6 8.260e+03 1.422e-10
 98.97212    148.2 8.300e+03 1.541e-10
 99.01119    150.2 8.386e+03 1.611e-10
 99.03504    152.1 8.519e+03 1.762e-10
 99.05724    153.4 8.449e+03 1.604e-10
 99.09861    155.2 8.550e+03 1.687e-10
 99.12081    156.4 8.497e+03 1.541e-10
 99.14443    158.0 8.561e+03 1.572e-10
 99.18438    159.6 8.687e+03 1.655e-10
 99.20659    160.7 8.567e+03 1.452e-10
 99.23325    162.1 8.679e+03 1.508e-10
 99.27015    163.5 8.817e+03 1.638e-10
 99.29236    164.5 8.701e+03 1.471e-10
 99.32208    165.9 8.833e+03 1.608e-10
 99.35593    167.5 9.032e+03 1.857e-10
 99.37814    168.5 9.037e+03 1.837e-10
 99.41091    170.0 9.367e+03 2.302e-10
 99.44170    170.9 9.691e+03 2.927e-10
 99.46391    171.2 9.677e+03 2.880e-10
 99.48449    171.5 9.928e+03 3.638e-10
 99.49550    171.7 1.003e+04 3.936e-10
 99.51064    172.0 1.057e+04 5.973e-10
 99.52728    172.0 1.120e+04 9.344e-10
 99.53839    172.0 1.150e+04 1.094e-09
 99.55505    171.6 1.248e+04 1.727e-09
 99.57017    170.8 1.357e+04 2.618e-09
 99.58127    169.7 1.471e+04 3.556e-09
 99.59947    167.5 1.600e+04 5.165e-09
 99.61306    165.0 1.661e+04 6.067e-09
 99.61766    162.9 1.766e+04 8.342e-09
 99.62628    162.0 1.879e+04 1.238e-08
 99.64388    160.0 1.827e+04 1.089e-08
 99.65594    158.4 1.695e+04 6.839e-09
 99.66705    157.3 1.708e+04 6.990e-09
 99.68773    155.3 1.510e+04 3.066e-09
 99.69883    154.0 1.502e+04 2.858e-09
 99.71050    150.8 1.311e+04 1.359e-09
 99.73062    147.9 1.159e+04 8.916e-10
 99.74172    147.2 1.159e+04 9.428e-10
 99.76250    146.2 1.167e+04 9.510e-10
 99.78470    146.0 1.181e+04 1.068e-09
 99.79933    146.0 1.199e+04 1.244e-09
 99.81639    146.0 1.209e+04 1.340e-09
 99.82749    146.0 1.237e+04 1.557e-09
 99.84827    145.5 1.250e+04 1.674e-09
 99.87048    145.0 1.280e+04 1.934e-09
 99.89935    143.5 1.281e+04 1.901e-09
 99.93414    141.6 1.219e+04 1.512e-09
 99.95635    140.9 1.210e+04 1.371e-09
 99.98828    139.1 1.095e+04 8.357e-10
