# Columns:
#   distance along LOS (in CHIMPs)
#   peculiar velocity  (in km/s)
#   temperature (K)
#   HI number density
# pos=(146.883,88.1976,10.2804), angles=(1.55584,3.53486)
  0.00076      6.7 1.005e+04 4.246e-10
  0.01209      7.6 1.012e+04 4.264e-10
  0.04391      9.3 1.026e+04 4.084e-10
  0.07306     11.7 1.011e+04 3.895e-10
  0.09420     14.1 1.004e+04 3.881e-10
  0.12859     16.3 1.006e+04 3.769e-10
  0.16632     18.5 9.981e+03 3.420e-10
  0.18737     20.8 1.025e+04 4.058e-10
  0.20242     22.2 1.025e+04 3.763e-10
  0.22334     22.9 1.016e+04 3.491e-10
  0.23391     23.6 1.051e+04 4.275e-10
  0.25538     24.8 1.021e+04 3.331e-10
  0.28074     26.9 9.983e+03 2.908e-10
  0.29122     28.3 1.058e+04 3.799e-10
  0.30816     28.9 1.035e+04 3.343e-10
  0.32718     30.1 1.006e+04 2.910e-10
  0.33775     31.1 1.059e+04 3.615e-10
  0.35045     31.7 1.019e+04 3.033e-10
  0.37391     33.0 9.798e+03 2.556e-10
  0.39506     35.2 9.855e+03 2.472e-10
  0.42457     37.3 9.749e+03 2.171e-10
  0.46696     39.7 9.592e+03 1.929e-10
  0.48843     42.1 9.475e+03 1.766e-10
  0.50957     44.0 9.488e+03 1.685e-10
  0.55155     46.4 9.365e+03 1.579e-10
  0.58169     48.6 9.278e+03 1.583e-10
  0.60284     50.4 9.398e+03 1.557e-10
  0.63614     52.7 9.457e+03 1.677e-10
  0.67496     55.0 9.633e+03 2.045e-10
  0.69601     56.6 9.754e+03 2.266e-10
  0.70997     57.4 9.903e+03 2.539e-10
  0.73111     57.9 1.013e+04 3.185e-10
  0.74255     58.1 1.042e+04 4.228e-10
  0.75312     58.7 1.051e+04 5.249e-10
  0.77341     59.0 1.106e+04 7.314e-10
  0.78918     59.3 1.164e+04 1.010e-09
  0.79976     60.0 1.210e+04 1.362e-09
  0.81570     60.0 1.281e+04 1.869e-09
  0.83582     60.0 1.329e+04 2.381e-09
  0.84639     60.8 1.373e+04 3.126e-09
  0.85800     61.0 1.402e+04 3.624e-09
  0.87915     61.1 1.386e+04 3.367e-09
  0.89303     61.0 1.358e+04 2.837e-09
  0.90360     62.3 1.406e+04 3.755e-09
  0.92144     62.0 1.365e+04 2.841e-09
  0.93966     60.5 1.344e+04 2.058e-09
  0.95023     62.4 1.372e+04 2.530e-09
  0.96374     59.8 1.319e+04 1.761e-09
  0.98107     56.8 1.260e+04 1.332e-09
  0.99164     54.6 1.191e+04 1.092e-09
  0.99687     53.2 1.145e+04 9.873e-10
  1.00744     54.3 1.129e+04 9.707e-10
  1.02718     53.5 1.102e+04 8.752e-10
  1.04350     52.8 1.059e+04 7.585e-10
  1.05408     53.8 1.077e+04 7.759e-10
  1.06948     52.5 1.038e+04 6.518e-10
  1.09014     50.9 9.955e+03 5.820e-10
  1.10071     51.4 1.051e+04 6.531e-10
  1.11177     49.3 1.036e+04 6.502e-10
  1.13292     46.4 1.057e+04 7.250e-10
  1.14735     43.1 1.147e+04 1.058e-09
  1.15792     41.2 1.329e+04 1.633e-09
  1.17522     38.8 1.364e+04 2.301e-09
  1.19398     37.5 1.367e+04 2.850e-09
  1.20455     36.9 1.448e+04 3.793e-09
  1.21751     35.8 1.423e+04 3.681e-09
  1.23866     34.1 1.396e+04 3.379e-09
  1.25119     32.0 1.373e+04 3.024e-09
  1.26176     32.2 1.409e+04 3.168e-09
  1.28096     29.8 1.343e+04 2.549e-09
  1.29782     27.9 1.269e+04 2.085e-09
  1.30840     27.7 1.233e+04 1.753e-09
  1.32325     26.7 1.155e+04 1.382e-09
  1.34440     26.4 1.069e+04 8.413e-10
  1.36555     26.2 1.060e+04 7.857e-10
  1.39119     25.1 9.435e+03 4.308e-10
  1.41243     24.7 8.904e+03 3.016e-10
  1.43976     24.8 8.073e+03 2.142e-10
  1.48206     25.7 7.801e+03 1.897e-10
  1.50570     27.2 7.905e+03 1.933e-10
  1.52685     27.5 7.986e+03 2.231e-10
  1.56665     29.6 8.142e+03 2.440e-10
  1.59897     32.3 8.466e+03 2.719e-10
  1.62012     31.8 8.822e+03 3.382e-10
  1.64057     33.9 8.694e+03 3.290e-10
  1.65598     35.0 8.681e+03 3.303e-10
  1.66656     34.9 8.797e+03 3.535e-10
  1.68277     35.9 8.937e+03 3.830e-10
  1.70262     36.9 9.135e+03 4.280e-10
  1.71319     36.5 9.549e+03 5.424e-10
  1.72506     37.4 9.731e+03 5.936e-10
  1.74621     38.5 1.001e+04 6.728e-10
  1.75983     39.4 1.068e+04 8.373e-10
  1.77040     38.7 1.087e+04 1.009e-09
  1.78851     39.6 1.147e+04 1.262e-09
  1.80646     40.0 1.352e+04 1.904e-09
  1.81703     39.9 1.192e+04 1.696e-09
  1.83080     40.4 1.354e+04 2.360e-09
  1.85195     40.7 1.586e+04 3.802e-09
  1.86367     41.3 1.754e+04 6.303e-09
  1.87424     41.9 1.468e+04 3.608e-09
  1.89425     42.5 1.651e+04 5.715e-09
  1.91030     43.4 1.769e+04 8.751e-09
  1.92088     43.8 1.530e+04 3.954e-09
  1.93654     44.6 1.655e+04 5.673e-09
  1.95694     45.5 1.722e+04 7.573e-09
  1.96751     45.4 1.482e+04 2.689e-09
  1.97884     45.8 1.618e+04 3.919e-09
  1.99998     45.9 1.710e+04 5.999e-09
  2.01415     45.9 1.773e+04 9.066e-09
  2.02472     44.5 1.644e+04 3.569e-09
  2.04228     44.2 1.755e+04 7.635e-09
  2.06078     43.9 1.843e+04 1.447e-08
  2.07135     43.7 1.827e+04 5.149e-09
  2.08458     43.7 1.922e+04 9.887e-09
  2.10572     43.5 1.948e+04 1.311e-08
  2.11799     42.6 1.965e+04 1.305e-08
  2.12856     41.5 1.635e+04 3.501e-09
  2.14802     39.4 1.592e+04 3.677e-09
  2.16462     36.7 1.589e+04 3.699e-09
  2.17520     34.7 1.359e+04 2.256e-09
  2.19032     32.5 1.412e+04 3.043e-09
  2.21126     31.4 1.419e+04 3.857e-09
  2.22183     31.2 1.482e+04 4.779e-09
  2.23261     31.4 1.512e+04 6.239e-09
  2.25376     32.1 1.502e+04 6.453e-09
  2.26846     33.0 1.492e+04 5.668e-09
  2.27904     33.6 1.526e+04 7.085e-09
  2.28941     34.8 1.477e+04 5.377e-09
  2.29998     34.1 1.445e+04 3.857e-09
  2.31510     34.5 1.386e+04 2.238e-09
  2.32567     35.7 1.387e+04 2.866e-09
  2.33835     35.2 1.327e+04 1.591e-09
  2.37017     34.9 1.245e+04 9.118e-10
  2.40856     36.0 1.161e+04 7.278e-10
  2.42971     37.1 1.123e+04 5.724e-10
  2.45486     38.9 1.128e+04 5.440e-10
  2.49715     41.2 1.135e+04 5.649e-10
  2.52298     43.4 1.134e+04 5.579e-10
  2.54413     44.1 1.091e+04 4.606e-10
  2.58175     46.3 1.080e+04 4.330e-10
  2.61625     48.4 1.060e+04 3.950e-10
  2.63740     49.7 1.051e+04 4.284e-10
  2.66634     51.9 1.036e+04 3.915e-10
  2.70863     54.3 1.032e+04 3.680e-10
  2.73066     56.7 1.033e+04 3.491e-10
  2.75181     58.0 1.020e+04 3.502e-10
  2.79322     60.4 1.009e+04 3.013e-10
  2.82393     62.8 1.005e+04 2.715e-10
  2.84508     63.7 9.919e+03 2.434e-10
  2.87782     65.7 9.823e+03 2.231e-10
  2.91720     68.0 9.823e+03 2.279e-10
  2.93835     68.7 9.593e+03 2.195e-10
  2.96241     70.7 9.635e+03 2.288e-10
  3.00470     72.4 9.898e+03 2.631e-10
  3.03152     72.9 1.003e+04 2.871e-10
  3.04200     73.6 9.910e+03 2.968e-10
  3.05738     73.6 1.007e+04 3.275e-10
  3.07806     73.7 1.025e+04 3.736e-10
  3.08863     73.9 1.030e+04 4.065e-10
  3.09967     74.1 1.045e+04 4.800e-10
  3.12082     74.2 1.059e+04 5.469e-10
  3.13526     74.1 1.076e+04 5.898e-10
  3.14584     74.8 1.089e+04 6.903e-10
  3.16312     74.2 1.115e+04 7.370e-10
  3.18190     73.0 1.145e+04 8.145e-10
  3.19247     73.8 1.157e+04 9.055e-10
  3.20541     72.4 1.192e+04 1.010e-09
  3.22656     70.9 1.233e+04 1.212e-09
  3.23911     69.6 1.268e+04 1.514e-09
  3.24968     70.1 1.278e+04 1.475e-09
  3.26886     68.7 1.306e+04 1.852e-09
  3.28574     67.8 1.319e+04 2.062e-09
  3.29632     67.6 1.348e+04 2.412e-09
  3.31115     67.1 1.344e+04 2.413e-09
  3.33230     66.9 1.323e+04 2.242e-09
  3.35345     67.4 1.302e+04 2.159e-09
  3.37460     67.3 1.243e+04 1.349e-09
  3.38958     66.6 1.201e+04 1.040e-09
  3.40016     67.1 1.205e+04 1.083e-09
  3.42574     66.4 1.116e+04 6.294e-10
  3.44699     67.7 1.082e+04 5.274e-10
  3.46996     66.7 9.596e+03 2.491e-10
  3.51225     66.8 9.224e+03 1.881e-10
  3.54026     67.6 9.120e+03 1.840e-10
  3.56140     68.4 8.841e+03 1.245e-10
  3.59684     69.7 8.827e+03 1.234e-10
  3.63352     71.0 8.831e+03 1.266e-10
  3.65467     72.1 8.622e+03 1.120e-10
  3.68144     73.4 8.616e+03 1.089e-10
  3.72373     74.7 8.623e+03 1.115e-10
  3.74794     75.9 8.662e+03 1.205e-10
  3.76909     76.9 8.572e+03 1.131e-10
  3.80832     78.0 8.585e+03 1.228e-10
  3.84121     79.0 8.665e+03 1.396e-10
  3.86236     80.0 8.715e+03 1.465e-10
  3.89291     80.8 8.860e+03 1.790e-10
  3.93448     81.5 9.149e+03 2.503e-10
  3.95563     82.6 9.189e+03 2.535e-10
  3.97751     83.3 9.596e+03 3.662e-10
  4.01980     84.1 1.003e+04 5.179e-10
  4.04889     84.6 1.026e+04 6.058e-10
  4.07004     85.3 1.026e+04 5.960e-10
  4.10439     85.6 1.029e+04 6.068e-10
  4.14216     86.0 1.018e+04 5.665e-10
  4.16331     86.6 1.022e+04 5.820e-10
  4.18898     87.1 1.005e+04 5.226e-10
  4.23128     87.6 9.895e+03 4.683e-10
  4.25658     88.1 9.910e+03 4.643e-10
  4.27773     88.3 1.026e+04 5.535e-10
  4.31587     88.5 1.039e+04 5.898e-10
  4.34985     88.9 1.046e+04 6.229e-10
  4.37100     88.5 1.081e+04 7.317e-10
  4.40046     88.7 1.088e+04 7.672e-10
  4.44276     88.9 1.092e+04 7.782e-10
  4.46426     89.2 1.089e+04 7.692e-10
  4.48541     87.7 1.123e+04 8.920e-10
  4.52735     88.0 1.110e+04 8.710e-10
  4.55753     88.4 1.100e+04 8.402e-10
  4.57868     86.7 1.130e+04 8.981e-10
  4.60127     86.7 1.119e+04 8.830e-10
  4.61455     86.6 1.116e+04 8.789e-10
  4.62512     85.4 1.124e+04 9.195e-10
  4.64347     85.4 1.121e+04 9.113e-10
  4.66118     85.4 1.120e+04 9.060e-10
  4.67175     84.0 1.183e+04 1.159e-09
  4.68576     84.1 1.194e+04 1.219e-09
  4.70691     84.5 1.205e+04 1.272e-09
  4.71839     84.9 1.217e+04 1.291e-09
  4.72896     82.1 1.423e+04 2.403e-09
  4.74921     82.6 1.460e+04 2.648e-09
  4.76502     82.9 1.503e+04 2.959e-09
  4.77560     81.9 1.528e+04 4.824e-09
  4.79150     82.8 1.541e+04 5.392e-09
  4.81166     83.5 1.566e+04 6.245e-09
  4.82223     83.5 1.545e+04 5.731e-09
  4.83380     84.7 1.574e+04 6.583e-09
  4.85495     85.9 1.615e+04 7.971e-09
  4.86886     87.3 1.690e+04 1.079e-08
  4.87944     85.4 1.862e+04 6.763e-09
  4.89552     87.0 1.973e+04 8.581e-09
  4.90610     86.8 2.027e+04 8.106e-09
  4.91550     87.9 2.088e+04 1.073e-08
  4.92607     83.1 2.152e+04 2.633e-09
  4.93954     84.4 2.219e+04 3.112e-09
  4.96069     85.0 2.281e+04 3.978e-09
  4.97271     85.5 2.396e+04 6.051e-09
  4.98328     81.6 1.389e+04 1.625e-09
  5.00298     82.8 1.603e+04 2.308e-09
  5.01879     82.9 1.583e+04 2.819e-09
  5.02453     83.0 1.564e+04 3.068e-09
  5.02987     81.6 1.260e+04 1.573e-09
  5.03994     81.5 1.337e+04 1.967e-09
  5.04785     81.2 1.404e+04 2.355e-09
  5.05314     81.2 1.397e+04 2.139e-09
  5.06104     80.7 1.476e+04 2.480e-09
  5.07117     80.1 1.576e+04 3.081e-09
  5.07650     78.0 1.295e+04 1.480e-09
  5.08224     76.7 1.464e+04 2.220e-09
  5.09276     74.9 1.703e+04 3.475e-09
  5.09977     72.6 1.998e+04 6.194e-09
  5.10506     71.9 1.708e+04 3.801e-09
  5.11391     69.4 1.912e+04 6.668e-09
  5.12309     67.3 2.009e+04 1.149e-08
  5.12837     66.2 1.894e+04 6.599e-09
  5.13506     64.1 1.997e+04 1.037e-08
  5.14563     62.4 2.114e+04 1.407e-08
  5.15169     58.2 2.627e+04 2.135e-08
  5.15698     56.4 2.043e+04 1.169e-08
  5.16678     51.2 2.542e+04 1.549e-08
  5.17501     47.5 3.507e+04 2.127e-08
  5.18029     45.1 1.974e+04 9.475e-09
  5.18793     41.0 2.064e+04 8.778e-09
  5.19832     38.7 2.068e+04 7.798e-09
  5.20361     38.6 1.803e+04 7.632e-09
  5.21441     36.0 1.912e+04 6.441e-09
  5.22703     33.4 1.898e+04 5.390e-09
  5.23760     32.5 1.484e+04 3.548e-09
  5.25676     30.2 1.479e+04 2.807e-09
  5.27366     28.9 1.565e+04 2.922e-09
  5.28423     27.9 1.333e+04 1.829e-09
  5.29905     27.3 1.350e+04 1.868e-09
  5.32020     26.9 1.411e+04 2.068e-09
  5.34135     26.6 1.337e+04 1.748e-09
  5.36249     26.5 1.372e+04 1.931e-09
  5.37750     26.7 1.405e+04 2.117e-09
  5.38808     26.8 1.360e+04 1.584e-09
  5.40479     27.1 1.380e+04 1.615e-09
  5.42414     27.5 1.376e+04 1.590e-09
  5.43471     26.9 1.343e+04 1.316e-09
  5.44709     27.4 1.342e+04 1.270e-09
  5.46823     28.1 1.335e+04 1.168e-09
  5.48135     28.8 1.327e+04 1.044e-09
  5.49192     28.1 1.313e+04 1.034e-09
  5.51053     28.7 1.303e+04 9.117e-10
  5.52798     29.2 1.290e+04 8.252e-10
  5.53855     28.8 1.267e+04 8.860e-10
  5.55283     29.4 1.266e+04 8.821e-10
  5.57397     30.0 1.272e+04 9.021e-10
  5.58519     30.4 1.280e+04 9.691e-10
  5.59576     30.2 1.279e+04 1.001e-09
  5.61627     30.7 1.291e+04 1.131e-09
  5.63182     31.4 1.309e+04 1.331e-09
  5.64240     31.2 1.283e+04 1.285e-09
  5.65856     31.8 1.307e+04 1.543e-09
  5.67846     32.5 1.321e+04 1.810e-09
  5.68903     32.4 1.275e+04 1.357e-09
  5.70086     33.2 1.292e+04 1.584e-09
  5.72201     33.7 1.308e+04 1.662e-09
  5.73567     34.1 1.309e+04 1.649e-09
  5.74624     33.9 1.253e+04 1.140e-09
  5.76430     34.2 1.254e+04 1.136e-09
  5.78230     34.4 1.254e+04 1.108e-09
  5.79287     34.3 1.209e+04 7.833e-10
  5.80660     34.5 1.212e+04 8.088e-10
  5.82775     34.7 1.219e+04 8.424e-10
  5.83951     34.8 1.234e+04 8.982e-10
  5.85008     35.2 1.195e+04 6.976e-10
  5.87004     35.2 1.220e+04 7.898e-10
  5.88614     35.2 1.252e+04 9.326e-10
  5.89672     35.8 1.208e+04 7.249e-10
  5.91234     35.7 1.248e+04 8.949e-10
  5.93278     35.4 1.299e+04 1.179e-09
  5.94335     36.3 1.247e+04 8.671e-10
  5.95463     36.0 1.309e+04 1.183e-09
  5.97578     35.6 1.379e+04 1.713e-09
  5.98998     35.2 1.441e+04 2.452e-09
  6.00056     36.2 1.374e+04 1.597e-09
  6.01808     35.8 1.422e+04 2.150e-09
  6.03662     35.3 1.453e+04 2.562e-09
  6.04719     35.9 1.421e+04 1.992e-09
  6.06037     34.5 1.482e+04 2.596e-09
  6.08152     32.7 1.544e+04 3.447e-09
  6.09383     30.8 1.555e+04 3.987e-09
  6.10440     31.3 1.613e+04 5.297e-09
  6.12382     30.1 1.601e+04 5.335e-09
  6.14046     29.4 1.542e+04 4.709e-09
  6.15104     30.4 1.613e+04 5.949e-09
  6.16611     30.2 1.504e+04 3.893e-09
  6.18710     28.8 1.373e+04 2.107e-09
  6.19767     29.9 1.401e+04 2.239e-09
  6.20387     27.4 1.215e+04 9.967e-10
  6.21444     26.9 1.175e+04 8.111e-10
  6.22956     25.4 1.094e+04 6.240e-10
  6.24430     25.4 1.059e+04 5.544e-10
  6.25488     25.5 1.044e+04 5.102e-10
  6.27185     25.4 1.026e+04 4.734e-10
  6.29094     25.3 1.028e+04 4.784e-10
  6.30151     25.4 1.017e+04 4.490e-10
  6.31415     25.3 1.035e+04 5.040e-10
  6.33530     25.1 1.053e+04 5.874e-10
  6.34815     25.2 1.066e+04 6.742e-10
  6.35872     25.6 1.061e+04 6.778e-10
  6.37759     25.9 1.059e+04 6.770e-10
  6.39478     26.2 1.053e+04 6.474e-10
  6.40545     26.8 1.041e+04 5.015e-10
  6.43066     26.7 1.023e+04 3.930e-10
  6.47295     26.1 9.912e+03 2.762e-10
  6.49882     25.5 9.815e+03 2.595e-10
  6.51997     26.8 9.505e+03 2.042e-10
  6.55754     26.1 9.761e+03 2.311e-10
  6.59209     25.2 1.036e+04 3.422e-10
  6.61323     26.6 1.011e+04 2.906e-10
  6.63146     25.9 1.042e+04 4.095e-10
  6.64910     25.8 1.062e+04 5.492e-10
  6.65967     26.6 1.042e+04 4.588e-10
  6.67366     26.9 1.056e+04 5.413e-10
  6.69481     27.1 1.072e+04 5.792e-10
  6.70631     27.2 1.073e+04 5.724e-10
  6.71688     27.6 1.045e+04 4.893e-10
  6.73711     27.5 1.043e+04 4.720e-10
  6.75294     27.5 1.032e+04 4.177e-10
  6.76352     27.8 1.026e+04 4.070e-10
  6.77940     27.7 1.022e+04 3.938e-10
  6.79967     27.6 1.016e+04 3.893e-10
  6.82092     29.9 1.024e+04 3.966e-10
  6.85361     30.1 1.027e+04 4.121e-10
  6.88524     30.6 1.025e+04 4.346e-10
  6.90342     30.7 1.026e+04 4.435e-10
  6.91409     32.5 1.050e+04 4.872e-10
  6.93821     33.2 1.065e+04 5.564e-10
  6.98050     33.9 1.078e+04 6.092e-10
  7.00746     34.5 1.091e+04 6.685e-10
  7.02860     36.4 1.124e+04 8.013e-10
  7.06509     37.3 1.129e+04 8.744e-10
  7.10073     38.4 1.106e+04 8.270e-10
  7.12187     40.2 1.148e+04 9.263e-10
  7.14968     41.7 1.114e+04 8.231e-10
  7.19198     43.5 1.064e+04 5.876e-10
  7.21514     45.0 1.030e+04 3.717e-10
  7.23629     46.6 1.071e+04 6.184e-10
  7.27657     48.1 1.039e+04 4.445e-10
  7.30841     49.4 1.020e+04 3.127e-10
  7.32956     51.7 1.064e+04 5.996e-10
  7.36116     53.0 1.032e+04 4.487e-10
  7.40168     54.2 1.030e+04 4.310e-10
  7.42283     57.0 1.088e+04 6.803e-10
  7.44575     58.3 1.108e+04 7.195e-10
  7.46936     58.6 1.113e+04 7.250e-10
  7.47984     58.9 1.124e+04 7.726e-10
  7.49843     59.0 1.150e+04 8.840e-10
  7.51221     59.0 1.185e+04 1.078e-09
  7.51911     59.1 1.170e+04 9.992e-10
  7.52647     60.0 1.190e+04 1.219e-09
  7.54072     60.3 1.224e+04 1.526e-09
  7.56187     60.8 1.269e+04 1.710e-09
  7.57311     61.2 1.290e+04 1.694e-09
  7.58368     62.2 1.334e+04 2.409e-09
  7.60417     62.5 1.353e+04 2.307e-09
  7.61974     62.5 1.356e+04 1.974e-09
  7.63032     63.8 1.414e+04 2.996e-09
  7.64646     63.3 1.438e+04 2.307e-09
  7.66638     62.0 1.400e+04 1.375e-09
  7.67695     64.2 1.496e+04 2.619e-09
  7.68876     63.8 1.426e+04 1.404e-09
  7.70991     62.9 1.356e+04 7.875e-10
  7.72368     59.6 1.227e+04 3.998e-10
  7.73426     62.9 1.374e+04 5.654e-10
  7.75220     60.7 1.271e+04 2.561e-10
  7.78402     61.1 1.462e+04 2.256e-10
  7.81705     54.6 1.071e+04 9.094e-11
  7.83820     61.8 1.918e+04 9.384e-11
  7.86871     52.1 9.751e+03 6.488e-11
  7.91032     52.0 9.344e+03 6.300e-11
  7.93146     52.1 9.449e+03 6.620e-11
  7.95330     53.2 9.448e+03 6.877e-11
  7.99560     54.3 9.633e+03 8.741e-11
  8.02473     55.2 9.884e+03 1.492e-10
  8.04588     55.8 1.006e+04 1.592e-10
  8.08019     57.1 1.044e+04 3.083e-10
  8.11800     58.5 1.084e+04 4.874e-10
  8.13915     59.3 1.147e+04 6.738e-10
  8.16478     60.2 1.147e+04 6.831e-10
  8.20708     61.2 1.133e+04 5.938e-10
  8.23242     62.0 1.112e+04 4.192e-10
  8.25357     62.7 1.158e+04 6.044e-10
  8.29167     63.2 1.127e+04 4.505e-10
  8.32569     63.7 1.114e+04 4.283e-10
  8.34683     64.6 1.148e+04 5.676e-10
  8.37626     65.3 1.135e+04 5.425e-10
  8.41856     66.2 1.126e+04 5.268e-10
  8.44010     67.5 1.109e+04 4.568e-10
  8.46125     68.3 1.112e+04 4.432e-10
  8.50315     69.7 1.095e+04 3.302e-10
  8.53337     70.7 1.086e+04 2.432e-10
  8.55452     71.8 1.083e+04 2.194e-10
  8.58774     72.8 1.067e+04 1.906e-10
  8.62664     74.0 1.063e+04 1.915e-10
  8.64779     75.2 1.062e+04 1.579e-10
  8.67233     76.5 1.061e+04 1.616e-10
  8.71463     77.7 1.066e+04 1.732e-10
  8.74106     78.7 1.080e+04 1.963e-10
  8.76220     79.9 1.075e+04 1.574e-10
  8.79922     80.7 1.089e+04 1.873e-10
  8.83433     81.0 1.108e+04 2.279e-10
  8.85547     82.5 1.093e+04 1.920e-10
  8.88381     82.7 1.109e+04 2.462e-10
  8.92610     82.9 1.126e+04 3.164e-10
  8.94874     82.9 1.147e+04 4.032e-10
  8.96989     84.5 1.134e+04 4.040e-10
  9.01070     84.3 1.164e+04 5.412e-10
  9.04201     84.0 1.204e+04 7.426e-10
  9.06316     85.5 1.186e+04 7.349e-10
  9.09529     85.0 1.220e+04 9.120e-10
  9.13528     84.0 1.221e+04 9.162e-10
  9.15643     85.4 1.184e+04 7.889e-10
  9.17988     85.1 1.165e+04 7.044e-10
  9.22217     85.4 1.133e+04 5.131e-10
  9.24970     85.7 1.104e+04 3.261e-10
  9.27084     86.7 1.085e+04 3.028e-10
  9.30677     87.0 1.073e+04 2.153e-10
  9.34296     87.4 1.066e+04 1.684e-10
  9.36411     88.5 1.060e+04 1.795e-10
  9.39136     89.0 1.059e+04 1.523e-10
  9.43365     89.6 1.056e+04 1.342e-10
  9.45738     90.3 1.050e+04 1.154e-10
  9.47853     91.1 1.047e+04 1.164e-10
  9.51824     91.7 1.042e+04 9.433e-11
  9.55065     92.2 1.032e+04 7.766e-11
  9.57180     93.0 1.026e+04 7.906e-11
  9.60284     93.6 1.014e+04 7.139e-11
  9.64392     94.4 1.013e+04 7.205e-11
  9.66507     95.1 1.006e+04 6.493e-11
  9.68743     95.5 1.010e+04 6.683e-11
  9.72972     95.2 1.025e+04 7.570e-11
  9.75833     93.9 1.056e+04 1.293e-10
  9.77948     94.2 1.047e+04 1.104e-10
  9.81431     92.9 1.094e+04 2.983e-10
  9.85160     91.8 1.153e+04 6.337e-10
  9.87275     92.5 1.125e+04 5.355e-10
  9.89891     91.3 1.165e+04 6.954e-10
  9.94120     89.8 1.167e+04 6.686e-10
  9.96602     88.3 1.153e+04 5.447e-10
  9.98717     89.3 1.145e+04 5.678e-10
 10.02579     88.1 1.115e+04 4.420e-10
 10.05929     87.9 1.078e+04 3.107e-10
 10.08044     89.0 1.088e+04 3.835e-10
 10.10794     89.2 1.056e+04 2.530e-10
 10.12909     88.9 1.056e+04 2.380e-10
 10.15256     89.5 1.032e+04 1.430e-10
 10.19485     91.4 1.023e+04 1.103e-10
 10.23727     92.1 1.015e+04 6.850e-11
 10.26697     93.1 9.867e+03 5.820e-11
 10.28812     94.3 9.912e+03 6.898e-11
 10.32186     95.6 9.804e+03 6.792e-11
 10.36024     97.3 9.799e+03 6.828e-11
 10.38139     98.3 9.812e+03 8.462e-11
 10.40646    100.0 9.828e+03 8.710e-11
 10.44875    101.7 9.857e+03 9.351e-11
 10.47466    103.3 9.893e+03 1.014e-10
 10.49581    104.3 9.939e+03 1.205e-10
 10.53334    105.7 1.007e+04 1.301e-10
 10.56793    107.1 1.020e+04 1.461e-10
 10.58907    107.8 1.036e+04 1.784e-10
 10.61793    109.2 1.049e+04 2.097e-10
 10.66023    110.7 1.059e+04 2.204e-10
 10.68234    112.1 1.060e+04 2.134e-10
 10.70349    112.9 1.078e+04 2.725e-10
 10.74482    114.4 1.075e+04 2.508e-10
 10.77561    116.1 1.073e+04 2.130e-10
 10.79676    116.9 1.089e+04 2.751e-10
 10.82941    118.5 1.092e+04 2.424e-10
 10.86888    120.2 1.094e+04 2.135e-10
 10.89003    120.9 1.113e+04 2.816e-10
 10.91400    122.6 1.115e+04 2.594e-10
 10.95630    124.3 1.110e+04 2.339e-10
 10.98330    126.0 1.100e+04 2.017e-10
 11.00444    126.6 1.116e+04 2.412e-10
 11.04089    128.1 1.100e+04 2.057e-10
 11.07656    129.6 1.084e+04 1.735e-10
 11.09771    130.1 1.092e+04 2.047e-10
 11.12548    131.5 1.075e+04 1.922e-10
 11.16778    132.9 1.069e+04 1.902e-10
 11.19098    134.3 1.070e+04 1.931e-10
 11.21213    134.9 1.075e+04 2.286e-10
 11.25237    136.1 1.075e+04 2.398e-10
 11.28425    136.8 1.086e+04 2.714e-10
 11.30540    137.9 1.090e+04 2.902e-10
 11.33696    138.5 1.109e+04 3.337e-10
 11.36859    138.7 1.119e+04 3.647e-10
 11.38790    139.0 1.128e+04 3.983e-10
 11.39847    139.4 1.132e+04 4.012e-10
 11.41078    139.7 1.146e+04 4.555e-10
 11.42666    139.9 1.167e+04 5.309e-10
 11.43724    139.9 1.166e+04 5.280e-10
 11.44510    140.0 1.191e+04 6.353e-10
 11.45568    140.8 1.191e+04 6.390e-10
 11.47423    140.9 1.218e+04 7.795e-10
 11.49174    140.8 1.254e+04 9.916e-10
 11.50231    141.9 1.253e+04 9.884e-10
 11.51652    141.6 1.325e+04 1.390e-09
 11.53767    140.2 1.483e+04 2.326e-09
 11.54895    137.9 1.708e+04 4.561e-09
 11.55952    140.1 1.724e+04 4.883e-09
 11.57997    137.4 1.950e+04 9.467e-09
 11.59558    134.1 2.048e+04 1.356e-08
 11.60082    135.8 2.085e+04 1.309e-08
 11.60630    134.5 2.112e+04 1.464e-08
 11.61688    131.0 2.107e+04 1.580e-08
 11.62409    129.3 2.082e+04 1.565e-08
 11.62937    129.5 2.186e+04 1.871e-08
 11.63803    125.7 2.136e+04 1.657e-08
 11.64740    122.2 2.058e+04 1.472e-08
 11.65269    120.8 2.304e+04 1.914e-08
 11.65917    115.8 2.236e+04 1.489e-08
 11.66975    113.4 2.181e+04 1.383e-08
 11.67601    108.5 2.145e+04 1.298e-08
 11.68130    105.3 2.251e+04 1.726e-08
 11.69089    104.0 2.232e+04 1.670e-08
 11.69933    102.5 2.206e+04 1.707e-08
 11.70461     99.7 2.272e+04 2.164e-08
 11.71204     99.3 2.242e+04 2.051e-08
 11.72262     98.7 2.205e+04 1.994e-08
 11.73319     96.2 2.180e+04 1.860e-08
 11.74376     96.1 2.162e+04 1.793e-08
 11.75125     95.9 2.154e+04 1.788e-08
 11.75658     92.8 2.130e+04 1.447e-08
 11.77030     92.6 2.099e+04 1.315e-08
 11.79144     92.5 2.084e+04 1.246e-08
 11.80327     92.0 2.058e+04 1.191e-08
 11.81384     89.2 1.703e+04 5.552e-09
 11.83374     88.9 1.658e+04 5.543e-09
 11.84990     88.8 1.634e+04 5.632e-09
 11.86047     88.2 1.396e+04 2.290e-09
 11.87604     88.4 1.422e+04 2.327e-09
 11.89653     88.7 1.439e+04 2.334e-09
 11.90711     87.5 1.292e+04 7.714e-10
 11.91833     87.6 1.302e+04 7.529e-10
 11.93948     87.6 1.304e+04 7.446e-10
 11.95374     87.5 1.313e+04 7.606e-10
 11.96432     85.1 1.112e+04 3.928e-10
 11.98178     84.8 1.141e+04 4.300e-10
 12.00038     83.9 1.220e+04 5.723e-10
 12.01095     82.0 1.143e+04 5.378e-10
 12.02407     80.8 1.214e+04 8.082e-10
 12.04522     80.1 1.304e+04 1.376e-09
 12.05759     80.2 1.398e+04 2.416e-09
 12.06816     79.5 1.304e+04 1.787e-09
 12.08751     79.9 1.373e+04 2.452e-09
 12.10422     80.0 1.405e+04 2.622e-09
 12.11479     78.5 1.279e+04 1.496e-09
 12.12981     77.7 1.262e+04 1.360e-09
 12.15085     76.6 1.218e+04 1.111e-09
 12.16143     74.8 1.124e+04 7.519e-10
 12.17211     73.8 1.088e+04 6.556e-10
 12.19325     73.3 1.065e+04 5.912e-10
 12.20806     73.0 1.054e+04 5.552e-10
 12.21864     72.7 1.039e+04 5.443e-10
 12.23555     72.5 1.030e+04 5.375e-10
 12.25470     72.3 1.019e+04 5.244e-10
 12.26527     71.9 1.019e+04 5.310e-10
 12.27785     71.6 1.003e+04 5.083e-10
 12.29899     71.1 9.834e+03 4.444e-10
 12.31190     70.7 9.702e+03 4.072e-10
 12.32248     70.3 9.709e+03 4.179e-10
 12.34129     70.2 9.539e+03 3.669e-10
 12.35854     70.2 9.530e+03 3.559e-10
 12.36911     69.7 9.534e+03 3.626e-10
 12.38358     69.5 9.516e+03 3.566e-10
 12.40473     69.2 9.565e+03 3.646e-10
 12.41575     68.6 9.727e+03 3.973e-10
 12.42632     67.3 9.937e+03 4.662e-10
 12.44703     65.7 1.054e+04 6.068e-10
 12.46238     63.7 1.139e+04 8.879e-10
 12.47296     61.4 1.237e+04 1.352e-09
 12.48932     60.1 1.287e+04 1.943e-09
 12.50902     59.3 1.310e+04 2.364e-09
 12.51959     58.3 1.311e+04 2.402e-09
 12.53162     57.5 1.291e+04 2.265e-09
 12.55277     56.5 1.249e+04 1.827e-09
 12.56622     54.7 1.192e+04 1.337e-09
 12.57680     52.3 1.105e+04 8.479e-10
 12.59506     49.5 1.015e+04 6.013e-10
 12.61286     46.9 9.574e+03 4.888e-10
 12.62343     44.4 9.306e+03 3.827e-10
 12.63736     42.5 9.519e+03 3.999e-10
 12.65851     40.9 9.617e+03 4.452e-10
 12.67007     38.6 9.869e+03 5.032e-10
 12.68064     37.1 9.826e+03 5.079e-10
 12.70080     35.9 9.772e+03 5.030e-10
 12.71670     34.5 9.664e+03 4.486e-10
 12.72727     33.3 9.664e+03 4.306e-10
 12.73501     33.0 9.615e+03 4.165e-10
 12.74568     32.5 9.528e+03 3.910e-10
 12.77502     29.5 9.222e+03 2.643e-10
 12.81016     24.8 9.105e+03 2.367e-10
 12.83131     22.2 8.886e+03 2.102e-10
 12.85961     20.2 8.432e+03 1.730e-10
 12.90190     18.9 8.241e+03 1.252e-10
 12.92458     16.5 8.569e+03 9.399e-11
 12.94573     14.8 8.562e+03 7.010e-11
 12.98649     11.9 8.572e+03 8.125e-11
 13.01785     10.0 8.642e+03 1.112e-10
 13.03900      9.2 8.703e+03 1.149e-10
 13.07109      7.7 8.962e+03 1.623e-10
 13.11112      5.4 9.336e+03 2.085e-10
 13.13227      5.3 9.282e+03 1.976e-10
 13.15568      2.9 9.380e+03 2.351e-10
 13.19797      0.8 9.251e+03 2.419e-10
 13.22553     -1.0 9.159e+03 2.082e-10
 13.24668     -1.4 9.014e+03 1.883e-10
 13.28256     -2.8 8.903e+03 1.455e-10
 13.31880     -4.3 8.828e+03 1.171e-10
 13.33995     -4.5 8.808e+03 1.204e-10
 13.36716     -5.8 8.897e+03 1.160e-10
 13.39878     -6.7 9.535e+03 1.525e-10
 13.41983    -10.9 1.046e+04 2.873e-10
 13.43302    -17.8 1.317e+04 8.293e-10
 13.44360    -21.5 1.423e+04 1.547e-09
 13.46213    -26.1 1.601e+04 4.215e-09
 13.47966    -28.0 1.716e+04 8.235e-09
 13.49023    -27.8 1.737e+04 8.826e-09
 13.50442    -31.2 1.770e+04 9.231e-09
 13.52557    -36.6 1.759e+04 5.743e-09
 13.53687    -45.1 1.646e+04 2.827e-09
 13.54744    -49.6 1.510e+04 2.094e-09
 13.56787    -56.6 1.270e+04 1.368e-09
 13.58350    -60.5 1.212e+04 1.111e-09
 13.59407    -60.7 1.229e+04 1.202e-09
 13.61016    -65.0 1.239e+04 9.798e-10
 13.63014    -70.1 1.242e+04 9.172e-10
 13.64071    -71.3 1.270e+04 1.039e-09
 13.65246    -74.4 1.285e+04 1.068e-09
 13.67360    -78.4 1.320e+04 1.376e-09
 13.68734    -81.0 1.356e+04 1.864e-09
 13.69792    -82.0 1.372e+04 2.169e-09
 13.71590    -84.6 1.371e+04 2.205e-09
 13.73398    -86.8 1.330e+04 1.778e-09
 13.74455    -87.0 1.322e+04 1.772e-09
 13.75820    -89.5 1.264e+04 1.295e-09
 13.77934    -92.1 1.195e+04 9.012e-10
 13.79119    -94.4 1.168e+04 7.658e-10
 13.80176    -95.6 1.155e+04 7.164e-10
 13.82164    -99.4 1.096e+04 6.310e-10
 13.83782   -101.2 1.089e+04 6.375e-10
 13.84839   -101.7 1.091e+04 6.864e-10
 13.86394   -102.7 1.107e+04 8.596e-10
 13.88445   -103.2 1.122e+04 1.012e-09
 13.89503   -103.3 1.131e+04 1.083e-09
 13.90623   -103.7 1.141e+04 1.140e-09
 13.92738   -104.2 1.142e+04 1.146e-09
 13.94166   -104.7 1.132e+04 1.041e-09
 13.95224   -104.8 1.130e+04 1.015e-09
 13.96967   -105.8 1.102e+04 8.015e-10
 13.98830   -107.0 1.069e+04 6.501e-10
 13.99887   -107.4 1.059e+04 6.206e-10
 14.01197   -108.4 1.044e+04 5.704e-10
 14.03278   -109.3 1.041e+04 5.587e-10
 14.04335   -109.1 1.026e+04 5.250e-10
 14.04551   -109.7 1.027e+04 5.237e-10
 14.05608   -109.8 1.034e+04 5.266e-10
 14.07541   -110.6 1.038e+04 5.262e-10
 14.09214   -111.4 1.040e+04 5.249e-10
 14.10271   -111.4 1.032e+04 5.000e-10
 14.11771   -112.2 1.030e+04 4.850e-10
 14.13877   -112.9 1.027e+04 4.651e-10
 14.17059   -113.7 1.023e+04 4.009e-10
 14.21307   -115.0 9.903e+03 3.322e-10
 14.24281   -116.1 9.464e+03 2.515e-10
 14.26396   -115.5 9.318e+03 2.291e-10
 14.29766   -116.3 9.085e+03 1.854e-10
 14.33608   -116.9 8.932e+03 1.595e-10
 14.35723   -116.3 8.974e+03 1.588e-10
 14.38225   -117.0 8.899e+03 1.487e-10
 14.42455   -117.8 8.879e+03 1.465e-10
 14.45050   -118.7 8.882e+03 1.467e-10
 14.47164   -118.7 8.971e+03 1.697e-10
 14.50914   -120.1 9.143e+03 2.200e-10
 14.54376   -121.4 9.483e+03 3.070e-10
 14.56491   -121.2 9.802e+03 4.017e-10
 14.59373   -122.3 1.009e+04 4.850e-10
 14.63603   -123.5 1.016e+04 5.055e-10
 14.65818   -124.7 1.011e+04 4.984e-10
 14.67933   -124.4 9.843e+03 3.953e-10
 14.72062   -125.1 9.465e+03 2.777e-10
 14.75145   -125.4 9.080e+03 1.932e-10
 14.77260   -125.1 8.831e+03 1.379e-10
 14.80521   -125.1 8.597e+03 1.133e-10
 14.84472   -124.6 8.397e+03 9.667e-11
 14.86587   -123.7 8.339e+03 8.702e-11
 14.88980   -122.7 8.245e+03 7.924e-11
 14.93210   -121.7 8.170e+03 7.152e-11
 14.95913   -120.5 8.109e+03 6.438e-11
 14.98028   -119.7 8.113e+03 6.285e-11
 15.01669   -118.4 8.100e+03 5.860e-11
 15.05240   -117.2 8.109e+03 5.744e-11
 15.07355   -116.4 8.157e+03 6.030e-11
 15.10128   -115.4 8.236e+03 6.284e-11
 15.14358   -114.4 8.362e+03 7.327e-11
 15.16682   -113.5 8.478e+03 8.707e-11
 15.18797   -112.7 8.587e+03 1.241e-10
 15.22817   -111.6 8.733e+03 1.419e-10
 15.26009   -110.5 8.785e+03 1.450e-10
 15.28124   -109.6 9.011e+03 1.998e-10
 15.31276   -108.7 9.006e+03 1.922e-10
 15.34131   -107.8 8.950e+03 1.576e-10
 15.36076   -107.4 8.921e+03 1.669e-10
 15.37450   -106.7 9.040e+03 1.840e-10
 15.39735   -105.9 8.970e+03 1.520e-10
 15.43965   -105.3 8.987e+03 1.391e-10
 15.46777   -105.0 9.007e+03 1.377e-10
 15.48892   -104.1 9.005e+03 1.456e-10
 15.52424   -103.8 9.148e+03 1.525e-10
 15.56104   -103.6 9.299e+03 1.664e-10
 15.58219   -102.4 9.218e+03 1.624e-10
 15.60883   -102.2 9.241e+03 1.580e-10
 15.65112   -102.1 9.256e+03 1.502e-10
 15.67546   -102.3 9.283e+03 1.473e-10
 15.69661   -100.6 9.197e+03 1.341e-10
 15.73572   -100.5 9.230e+03 1.317e-10
 15.76873   -100.5 9.375e+03 1.317e-10
 15.78987    -98.6 9.244e+03 1.209e-10
 15.82031    -98.8 9.590e+03 1.287e-10
 15.86200    -98.9 9.840e+03 1.759e-10
 15.88314    -97.0 9.719e+03 1.588e-10
 15.90490    -97.0 9.995e+03 2.415e-10
 15.94719    -96.7 1.037e+04 3.690e-10
 15.97641    -96.6 1.077e+04 5.091e-10
 15.99756    -95.1 1.085e+04 5.187e-10
 16.03179    -95.4 1.135e+04 7.213e-10
 16.06968    -96.3 1.159e+04 8.203e-10
 16.09083    -95.0 1.180e+04 8.976e-10
 16.11638    -96.4 1.194e+04 9.666e-10
 16.15867    -98.3 1.190e+04 9.131e-10
 16.18410   -100.5 1.162e+04 6.603e-10
 16.20524    -99.6 1.184e+04 7.596e-10
 16.24326   -102.2 1.152e+04 5.340e-10
 16.27737   -104.5 1.145e+04 4.479e-10
 16.29851   -103.7 1.167e+04 4.820e-10
 16.31718   -105.6 1.165e+04 4.327e-10
 16.33438   -107.6 1.156e+04 3.884e-10
 16.34495   -107.9 1.154e+04 3.814e-10
 16.37005   -109.6 1.123e+04 3.393e-10
 16.39178   -111.5 1.084e+04 2.927e-10
 16.41293   -111.5 1.065e+04 2.811e-10
 16.45474   -113.3 1.036e+04 2.613e-10
 16.48505   -114.9 1.028e+04 2.574e-10
 16.50620   -115.1 1.033e+04 2.628e-10
 16.53933   -116.7 1.029e+04 2.803e-10
 16.57832   -118.5 1.043e+04 3.359e-10
 16.59947   -119.1 1.059e+04 3.941e-10
 16.62393   -120.9 1.072e+04 4.611e-10
 16.66622   -122.6 1.077e+04 5.146e-10
 16.69274   -124.1 1.077e+04 5.561e-10
 16.71388   -124.8 1.058e+04 5.043e-10
 16.75081   -125.8 1.045e+04 4.933e-10
 16.78600   -126.3 1.039e+04 4.769e-10
 16.80715   -127.5 1.007e+04 3.509e-10
 16.83541   -127.9 9.986e+03 3.198e-10
 16.87770   -127.7 9.895e+03 2.882e-10
 16.90042   -127.2 9.844e+03 2.616e-10
 16.92157   -128.8 9.601e+03 2.362e-10
 16.96229   -128.2 9.597e+03 2.337e-10
 16.99369   -127.8 9.739e+03 2.467e-10
 17.01484   -129.6 9.711e+03 2.532e-10
 17.04688   -129.8 1.052e+04 4.055e-10
 17.08696   -130.1 1.137e+04 6.499e-10
 17.10811   -133.7 1.210e+04 1.050e-09
 17.13148   -134.8 1.293e+04 1.635e-09
 17.15464   -134.9 1.327e+04 2.114e-09
 17.16512   -136.7 1.354e+04 2.447e-09
 17.18415   -137.5 1.384e+04 2.765e-09
 17.20118   -138.2 1.409e+04 2.912e-09
 17.21175   -140.6 1.375e+04 2.468e-09
 17.22645   -141.7 1.348e+04 2.173e-09
 17.24759   -142.8 1.282e+04 1.650e-09
 17.25839   -144.0 1.197e+04 1.196e-09
 17.26896   -145.7 1.111e+04 8.786e-10
 17.28989   -146.1 1.082e+04 7.300e-10
 17.30502   -146.3 1.060e+04 6.172e-10
 17.31559   -147.9 1.001e+04 4.286e-10
 17.33218   -148.2 9.963e+03 4.041e-10
 17.35166   -148.5 9.931e+03 3.955e-10
 17.36223   -149.2 9.747e+03 3.627e-10
 17.38515   -149.4 9.869e+03 3.965e-10
 17.40906   -149.5 1.004e+04 4.886e-10
 17.43021   -149.9 1.021e+04 5.905e-10
 17.46984   -149.4 1.075e+04 8.145e-10
 17.50233   -149.0 1.120e+04 1.019e-09
 17.52348   -150.7 1.062e+04 6.696e-10
 17.55443   -151.3 1.080e+04 7.081e-10
 17.59560   -152.4 1.114e+04 8.197e-10
 17.61674   -155.0 1.060e+04 6.673e-10
 17.63902   -155.7 1.126e+04 9.450e-10
 17.68132   -156.5 1.179e+04 1.180e-09
 17.71001   -158.2 1.212e+04 1.251e-09
 17.73116   -161.3 1.176e+04 1.062e-09
 17.76591   -164.8 1.179e+04 1.006e-09
 17.80328   -169.1 1.162e+04 8.307e-10
 17.82443   -172.1 1.134e+04 7.475e-10
 17.85050   -176.2 1.133e+04 6.944e-10
 17.89280   -180.3 1.136e+04 6.854e-10
 17.91770   -184.2 1.147e+04 6.825e-10
 17.93884   -185.5 1.136e+04 6.584e-10
 17.95800   -188.7 1.145e+04 6.171e-10
 17.97915   -187.9 1.142e+04 6.161e-10
 18.01097   -190.7 1.142e+04 5.410e-10
 18.03211   -191.7 1.125e+04 4.672e-10
 18.05131   -193.0 1.135e+04 4.333e-10
 18.06798   -194.6 1.125e+04 4.061e-10
 18.07855   -194.7 1.120e+04 3.982e-10
 18.10414   -196.2 1.098e+04 3.700e-10
 18.14653   -196.7 1.049e+04 2.836e-10
 18.18887   -197.3 1.022e+04 2.348e-10
 18.21865   -197.5 9.958e+03 1.942e-10
 18.23980   -196.8 9.897e+03 1.527e-10
 18.27346   -196.6 9.700e+03 1.324e-10
 18.31192   -195.9 9.561e+03 1.226e-10
 18.33307   -194.7 9.662e+03 1.082e-10
 18.35805   -193.8 9.646e+03 1.079e-10
 18.40035   -193.0 9.585e+03 1.182e-10
 18.42634   -192.5 9.680e+03 1.433e-10
 18.44748   -191.9 9.854e+03 1.731e-10
 18.48494   -191.4 1.007e+04 2.455e-10
 18.51960   -191.0 1.037e+04 3.430e-10
 18.54075   -190.2 1.101e+04 4.993e-10
 18.56953   -189.9 1.165e+04 6.912e-10
 18.60115   -190.4 1.235e+04 9.729e-10
 18.62220   -191.8 1.287e+04 1.314e-09
 18.63383   -193.1 1.324e+04 1.744e-09
 18.64440   -193.9 1.374e+04 2.550e-09
 18.66450   -194.7 1.386e+04 2.909e-09
 18.68046   -195.3 1.389e+04 3.020e-09
 18.69103   -195.5 1.432e+04 3.857e-09
 18.70680   -195.9 1.431e+04 3.700e-09
 18.72709   -196.2 1.397e+04 3.052e-09
 18.73767   -197.3 1.458e+04 3.258e-09
 18.74909   -198.2 1.424e+04 2.506e-09
 18.77024   -199.2 1.394e+04 1.919e-09
 18.78430   -200.2 1.367e+04 1.514e-09
 18.79488   -203.2 1.423e+04 2.076e-09
 18.81253   -203.8 1.384e+04 1.925e-09
 18.83094   -203.8 1.353e+04 1.858e-09
 18.84151   -205.3 1.373e+04 2.622e-09
 18.85483   -204.8 1.360e+04 2.490e-09
 18.87598   -204.2 1.355e+04 2.388e-09
 18.88814   -203.8 1.353e+04 2.350e-09
 18.89872   -205.1 1.362e+04 2.400e-09
 18.91827   -204.8 1.361e+04 2.322e-09
 18.93478   -204.5 1.361e+04 2.283e-09
 18.94535   -206.2 1.308e+04 1.416e-09
 18.96057   -205.8 1.294e+04 1.306e-09
 18.98141   -205.5 1.277e+04 1.186e-09
 18.99199   -206.8 1.177e+04 7.854e-10
 19.00287   -206.0 1.203e+04 8.469e-10
 19.02814   -204.9 1.224e+04 8.848e-10
 19.04939   -206.4 1.067e+04 4.726e-10
 19.07708   -205.6 1.047e+04 4.350e-10
 19.11937   -204.8 1.043e+04 4.306e-10
 19.14266   -204.2 1.052e+04 4.764e-10
 19.16381   -205.0 1.041e+04 4.535e-10
 19.20397   -204.2 1.065e+04 5.717e-10
 19.23593   -203.3 1.094e+04 7.046e-10
 19.25708   -204.9 1.100e+04 7.400e-10
 19.28856   -204.4 1.130e+04 8.714e-10
 19.32920   -203.7 1.157e+04 9.610e-10
 19.35034   -206.2 1.170e+04 1.009e-09
 19.36248   -204.9 1.174e+04 1.036e-09
 19.38353   -205.2 1.177e+04 1.046e-09
 19.39678   -206.3 1.186e+04 1.108e-09
 19.40736   -207.8 1.183e+04 1.082e-09
 19.42582   -210.2 1.237e+04 1.137e-09
 19.44342   -213.4 1.437e+04 1.913e-09
 19.45399   -214.3 1.373e+04 1.482e-09
 19.46812   -216.8 1.536e+04 3.031e-09
 19.48927   -218.6 1.634e+04 5.558e-09
 19.50063   -220.4 1.687e+04 7.962e-09
 19.51120   -220.9 1.583e+04 5.147e-09
 19.53156   -222.8 1.591e+04 5.886e-09
 19.54726   -224.5 1.586e+04 5.985e-09
 19.55783   -224.7 1.459e+04 3.511e-09
 19.57386   -226.0 1.430e+04 3.431e-09
 19.59389   -227.1 1.380e+04 3.021e-09
 19.60447   -226.8 1.282e+04 1.888e-09
 19.61615   -227.7 1.258e+04 1.779e-09
 19.63730   -228.3 1.248e+04 1.740e-09
 19.65110   -228.8 1.246e+04 1.745e-09
 19.66168   -228.0 1.177e+04 1.243e-09
 19.67960   -228.3 1.196e+04 1.378e-09
 19.69774   -228.6 1.231e+04 1.611e-09
 19.70831   -227.8 1.169e+04 1.192e-09
 19.72189   -228.0 1.211e+04 1.454e-09
 19.74304   -228.3 1.257e+04 1.821e-09
 19.75494   -228.5 1.303e+04 2.280e-09
 19.76552   -227.6 1.248e+04 1.745e-09
 19.78534   -227.8 1.298e+04 2.236e-09
 19.80158   -228.1 1.340e+04 2.755e-09
 19.81215   -227.2 1.299e+04 2.234e-09
 19.82763   -227.5 1.346e+04 2.820e-09
 19.84821   -227.9 1.382e+04 3.285e-09
 19.85879   -227.1 1.363e+04 3.011e-09
 19.86993   -227.6 1.399e+04 3.575e-09
 19.89108   -228.2 1.414e+04 3.748e-09
 19.90542   -228.9 1.415e+04 3.720e-09
 19.91600   -227.8 1.432e+04 4.096e-09
 19.93337   -228.5 1.424e+04 3.945e-09
 19.95206   -229.5 1.375e+04 3.050e-09
 19.96263   -228.1 1.413e+04 3.868e-09
 19.97567   -229.1 1.342e+04 2.769e-09
 19.99682   -230.9 1.247e+04 1.838e-09
 20.00926   -233.3 1.184e+04 1.343e-09
 20.01984   -231.6 1.224e+04 1.637e-09
 20.03911   -234.1 1.202e+04 1.363e-09
 20.05590   -236.1 1.198e+04 1.318e-09
 20.06647   -235.3 1.220e+04 1.545e-09
 20.08141   -237.2 1.220e+04 1.535e-09
 20.10253   -238.7 1.231e+04 1.602e-09
 20.12368   -239.7 1.296e+04 1.911e-09
 20.14485   -240.5 1.297e+04 1.907e-09
 20.15974   -241.1 1.287e+04 1.858e-09
 20.17031   -240.8 1.341e+04 2.241e-09
 20.18715   -241.1 1.316e+04 2.061e-09
 20.20637   -241.3 1.281e+04 1.864e-09
 20.21695   -241.0 1.352e+04 2.364e-09
 20.22944   -241.4 1.338e+04 2.145e-09
 20.25059   -242.2 1.338e+04 2.070e-09
 20.26358   -243.8 1.377e+04 2.099e-09
 20.27416   -245.1 1.556e+04 3.822e-09
 20.29289   -247.2 1.653e+04 5.332e-09
 20.31022   -248.9 1.719e+04 7.410e-09
 20.32079   -249.1 1.828e+04 1.244e-08
 20.33518   -250.8 1.839e+04 1.359e-08
 20.35633   -252.7 1.822e+04 1.358e-08
 20.36743   -253.8 1.731e+04 1.084e-08
 20.37800   -254.6 1.732e+04 1.070e-08
 20.39862   -255.3 1.594e+04 6.157e-09
 20.41406   -256.5 1.456e+04 3.332e-09
 20.42463   -257.8 1.404e+04 2.542e-09
 20.44092   -259.6 1.297e+04 1.507e-09
 20.46069   -261.1 1.234e+04 1.043e-09
 20.47127   -261.5 1.215e+04 9.491e-10
 20.48322   -262.1 1.191e+04 7.743e-10
 20.50436   -262.3 1.178e+04 6.843e-10
 20.51790   -262.4 1.169e+04 6.393e-10
 20.52848   -262.2 1.164e+04 5.694e-10
 20.54666   -262.1 1.161e+04 5.530e-10
 20.56392   -262.0 1.160e+04 5.520e-10
 20.57122   -262.6 1.165e+04 5.954e-10
 20.57511   -262.2 1.159e+04 5.354e-10
 20.58896   -261.9 1.158e+04 5.488e-10
 20.61010   -261.5 1.157e+04 5.575e-10
 20.62174   -260.7 1.152e+04 5.537e-10
 20.63232   -260.2 1.153e+04 5.182e-10
 20.65240   -259.5 1.150e+04 5.080e-10
 20.66848   -259.2 1.144e+04 4.774e-10
 20.68972   -259.0 1.158e+04 4.945e-10
 20.72661   -257.8 1.148e+04 4.391e-10
 20.76184   -257.0 1.127e+04 3.589e-10
 20.78299   -256.5 1.139e+04 3.628e-10
 20.81120   -255.5 1.112e+04 2.912e-10
 20.85350   -254.3 1.093e+04 2.459e-10
 20.87626   -253.1 1.089e+04 2.315e-10
 20.89741   -252.5 1.095e+04 2.353e-10
 20.93809   -251.2 1.094e+04 2.341e-10
 20.96953   -250.1 1.095e+04 2.369e-10
 20.99068   -249.4 1.110e+04 2.786e-10
 21.02268   -248.4 1.112e+04 2.911e-10
 21.06280   -247.6 1.115e+04 3.236e-10
 21.08394   -247.0 1.110e+04 3.472e-10
 21.10727   -246.2 1.109e+04 3.605e-10
 21.14957   -245.5 1.108e+04 3.670e-10
 21.17721   -244.8 1.102e+04 3.679e-10
 21.19836   -244.0 1.087e+04 3.425e-10
 21.23416   -243.3 1.079e+04 3.312e-10
 21.27048   -242.5 1.076e+04 3.248e-10
 21.29163   -241.7 1.066e+04 3.041e-10
 21.31875   -240.9 1.068e+04 3.066e-10
 21.36105   -240.1 1.079e+04 3.216e-10
 21.38490   -239.4 1.097e+04 3.422e-10
 21.40605   -238.6 1.084e+04 3.307e-10
 21.44564   -237.9 1.098e+04 3.543e-10
 21.47817   -237.2 1.110e+04 3.699e-10
 21.49931   -235.9 1.102e+04 3.831e-10
 21.53023   -235.2 1.112e+04 4.004e-10
 21.57143   -234.6 1.125e+04 4.107e-10
 21.59258   -233.4 1.143e+04 4.730e-10
 21.61482   -233.1 1.160e+04 4.846e-10
 21.65712   -233.1 1.176e+04 4.982e-10
 21.68585   -233.1 1.189e+04 5.147e-10
 21.69633   -232.6 1.202e+04 6.357e-10
 21.70979   -232.9 1.210e+04 6.880e-10
 21.73094   -233.3 1.217e+04 7.431e-10
 21.74286   -233.5 1.221e+04 7.894e-10
 21.75344   -233.8 1.227e+04 9.334e-10
 21.77324   -234.0 1.229e+04 9.791e-10
 21.78950   -234.1 1.231e+04 9.972e-10
 21.80007   -234.0 1.237e+04 1.055e-09
 21.81553   -233.9 1.239e+04 1.053e-09
 21.83613   -233.9 1.250e+04 1.058e-09
 21.84671   -233.7 1.246e+04 1.043e-09
 21.85783   -233.7 1.265e+04 1.048e-09
 21.87226   -233.7 1.279e+04 1.099e-09
 21.88284   -233.4 1.265e+04 1.029e-09
 21.89334   -233.4 1.277e+04 1.093e-09
 21.90391   -233.5 1.275e+04 1.007e-09
 21.92127   -233.5 1.281e+04 1.055e-09
 21.93998   -233.5 1.283e+04 1.072e-09
 21.95055   -233.5 1.278e+04 1.002e-09
 21.96357   -233.4 1.278e+04 1.006e-09
 21.98471   -233.2 1.269e+04 9.935e-10
 21.99718   -232.9 1.258e+04 9.149e-10
 22.00776   -232.8 1.255e+04 8.994e-10
 22.02701   -232.4 1.246e+04 8.075e-10
 22.04382   -231.9 1.238e+04 7.097e-10
 22.05439   -231.8 1.241e+04 7.392e-10
 22.06931   -231.2 1.235e+04 6.593e-10
 22.09045   -230.6 1.227e+04 5.899e-10
 22.11160   -229.7 1.225e+04 5.944e-10
 22.13275   -229.0 1.220e+04 5.511e-10
 22.14766   -228.3 1.219e+04 5.327e-10
 22.15823   -228.1 1.220e+04 5.726e-10
 22.17504   -227.3 1.220e+04 5.605e-10
 22.19429   -226.5 1.221e+04 5.585e-10
 22.20487   -226.2 1.222e+04 5.914e-10
 22.21734   -225.4 1.225e+04 5.898e-10
 22.23849   -224.7 1.244e+04 6.141e-10
 22.25150   -224.1 1.261e+04 6.807e-10
 22.26208   -223.7 1.248e+04 6.437e-10
 22.28078   -223.0 1.263e+04 7.006e-10
 22.29814   -222.4 1.278e+04 7.951e-10
 22.30871   -221.9 1.267e+04 7.259e-10
 22.32308   -221.2 1.282e+04 8.241e-10
 22.34423   -220.4 1.299e+04 9.567e-10
 22.35535   -219.7 1.314e+04 1.108e-09
 22.36592   -219.1 1.311e+04 1.023e-09
 22.38652   -218.4 1.327e+04 1.184e-09
 22.40198   -217.7 1.342e+04 1.311e-09
 22.41255   -217.3 1.350e+04 1.306e-09
 22.42882   -216.6 1.363e+04 1.444e-09
 22.44861   -216.0 1.369e+04 1.516e-09
 22.45919   -215.5 1.385e+04 1.645e-09
 22.47111   -214.8 1.387e+04 1.730e-09
 22.49226   -214.0 1.388e+04 1.746e-09
 22.50582   -213.3 1.395e+04 1.656e-09
 22.51640   -213.5 1.516e+04 2.286e-09
 22.53456   -214.5 1.640e+04 2.497e-09
 22.55246   -217.1 1.785e+04 2.626e-09
 22.56303   -221.5 2.038e+04 1.034e-08
 22.57685   -224.5 2.069e+04 1.747e-08
 22.59267   -227.1 2.056e+04 2.823e-08
 22.60319   -227.9 2.037e+04 2.881e-08
 22.60957   -228.7 1.966e+04 2.120e-08
 22.61485   -228.5 2.028e+04 4.014e-08
 22.62434   -229.2 1.988e+04 3.114e-08
 22.63288   -230.3 1.955e+04 2.478e-08
 22.63817   -230.3 2.034e+04 2.989e-08
 22.64549   -231.9 2.014e+04 2.267e-08
 22.65606   -233.8 1.992e+04 1.857e-08
 22.66149   -236.0 1.973e+04 1.643e-08
 22.66677   -236.9 2.027e+04 1.486e-08
 22.67721   -239.6 1.979e+04 1.311e-08
 22.68481   -242.3 1.942e+04 1.254e-08
 22.69009   -243.4 1.906e+04 1.106e-08
 22.69836   -245.7 1.890e+04 1.094e-08
 22.70812   -248.0 1.880e+04 1.104e-08
 22.71341   -248.3 1.836e+04 1.026e-08
 22.71950   -250.2 1.820e+04 1.092e-08
 22.73008   -251.8 1.815e+04 1.189e-08
 22.73673   -253.3 1.814e+04 1.258e-08
 22.74201   -253.1 1.779e+04 1.119e-08
 22.75123   -254.5 1.776e+04 1.124e-08
 22.76004   -255.7 1.751e+04 1.107e-08
 22.76533   -255.5 1.705e+04 9.729e-09
 22.77237   -256.5 1.669e+04 8.785e-09
 22.78295   -257.2 1.635e+04 7.817e-09
 22.78865   -257.7 1.613e+04 7.206e-09
 22.79393   -257.6 1.612e+04 7.145e-09
 22.80673   -258.9 1.574e+04 6.142e-09
 22.81735   -259.0 1.518e+04 5.263e-09
 22.83063   -259.9 1.431e+04 3.662e-09
 22.85178   -260.5 1.361e+04 2.629e-09
 22.86398   -260.8 1.316e+04 2.097e-09
 22.87456   -260.0 1.295e+04 1.864e-09
 22.89407   -260.0 1.275e+04 1.662e-09
 22.91062   -259.6 1.270e+04 1.612e-09
 22.92119   -258.9 1.250e+04 1.339e-09
 22.93637   -258.5 1.250e+04 1.327e-09
 22.95725   -258.1 1.245e+04 1.339e-09
 22.96783   -257.6 1.235e+04 1.078e-09
 22.97866   -257.3 1.228e+04 1.164e-09
 22.99981   -256.9 1.215e+04 1.312e-09
 23.01446   -256.6 1.224e+04 1.580e-09
 23.02503   -256.5 1.217e+04 1.148e-09
 23.04211   -256.5 1.247e+04 1.535e-09
 23.06109   -257.8 1.455e+04 2.562e-09
 23.07167   -256.8 1.330e+04 1.425e-09
 23.08440   -258.7 1.528e+04 2.438e-09
 23.10555   -261.3 1.733e+04 4.727e-09
 23.11830   -263.6 1.885e+04 8.405e-09
 23.12888   -264.7 1.660e+04 4.715e-09
 23.14785   -266.6 1.764e+04 8.340e-09
 23.16494   -267.7 1.834e+04 1.186e-08
 23.17551   -267.3 1.746e+04 9.925e-09
 23.18060   -268.2 1.791e+04 1.200e-08
 23.19118   -267.9 1.816e+04 1.284e-08
 23.21129   -268.8 1.830e+04 1.366e-08
 23.22215   -269.6 1.814e+04 1.324e-08
 23.22738   -268.3 1.780e+04 1.248e-08
 23.23763   -268.7 1.761e+04 1.184e-08
 23.24536   -268.8 1.727e+04 1.037e-08
 23.25065   -268.5 1.724e+04 1.022e-08
 23.25878   -268.6 1.677e+04 8.375e-09
 23.26868   -268.7 1.629e+04 6.768e-09
 23.27930   -267.5 1.596e+04 6.315e-09
 23.29588   -267.6 1.541e+04 4.679e-09
 23.31541   -267.7 1.446e+04 2.798e-09
 23.32599   -266.7 1.418e+04 2.777e-09
 23.33818   -267.2 1.335e+04 1.769e-09
 23.35933   -267.4 1.271e+04 1.292e-09
 23.37262   -267.2 1.239e+04 1.099e-09
 23.38320   -266.3 1.242e+04 1.223e-09
 23.40162   -265.9 1.231e+04 1.176e-09
 23.41926   -265.4 1.228e+04 1.162e-09
 23.42983   -264.5 1.232e+04 1.288e-09
 23.44392   -263.9 1.237e+04 1.334e-09
 23.46506   -263.3 1.247e+04 1.382e-09
 23.47646   -262.8 1.257e+04 1.423e-09
 23.48704   -261.9 1.266e+04 1.596e-09
 23.50736   -261.6 1.275e+04 1.634e-09
 23.52310   -261.3 1.277e+04 1.641e-09
 23.53367   -260.5 1.280e+04 1.706e-09
 23.54966   -260.2 1.280e+04 1.704e-09
 23.56973   -259.8 1.278e+04 1.663e-09
 23.58031   -259.0 1.273e+04 1.662e-09
 23.59195   -258.7 1.262e+04 1.505e-09
 23.61310   -258.3 1.242e+04 1.292e-09
 23.62694   -257.9 1.217e+04 1.075e-09
 23.63752   -257.2 1.213e+04 1.027e-09
 23.65540   -256.6 1.188e+04 8.387e-10
 23.67358   -255.8 1.163e+04 6.730e-10
 23.68415   -255.1 1.168e+04 6.453e-10
 23.69769   -254.3 1.154e+04 5.298e-10
 23.71884   -253.6 1.146e+04 4.558e-10
 23.73078   -253.0 1.140e+04 4.218e-10
 23.74136   -252.7 1.147e+04 4.108e-10
 23.77181   -252.0 1.143e+04 3.942e-10
 23.81367   -249.9 1.124e+04 3.463e-10
 23.83482   -249.1 1.134e+04 3.835e-10
 23.85650   -247.3 1.129e+04 3.715e-10
 23.89879   -245.6 1.126e+04 3.763e-10
 23.92809   -244.1 1.147e+04 4.657e-10
 23.94924   -244.1 1.202e+04 7.980e-10
 23.98338   -243.0 1.237e+04 1.015e-09
 24.02136   -242.3 1.269e+04 1.220e-09
 24.04251   -242.5 1.299e+04 1.546e-09
 24.06797   -242.4 1.300e+04 1.562e-09
 24.11027   -242.0 1.287e+04 1.479e-09
 24.13578   -241.1 1.263e+04 1.294e-09
 24.15692   -240.8 1.240e+04 1.137e-09
 24.19486   -239.3 1.221e+04 9.872e-10
 24.22904   -237.5 1.211e+04 8.881e-10
 24.25019   -237.2 1.185e+04 7.245e-10
 24.27945   -235.2 1.180e+04 6.596e-10
 24.32175   -233.1 1.180e+04 5.962e-10
 24.34346   -230.8 1.181e+04 5.436e-10
 24.36461   -230.7 1.157e+04 4.360e-10
 24.40634   -228.4 1.155e+04 3.858e-10
 24.43673   -225.9 1.157e+04 3.555e-10
 24.45788   -225.8 1.143e+04 3.164e-10
 24.49093   -223.2 1.146e+04 2.996e-10
 24.53000   -220.6 1.148e+04 2.969e-10
 24.55114   -220.4 1.142e+04 2.760e-10
 24.57552   -217.9 1.143e+04 2.763e-10
 24.61782   -215.6 1.155e+04 2.920e-10
 24.64441   -213.3 1.170e+04 3.595e-10
 24.66556   -212.7 1.164e+04 3.419e-10
 24.70241   -210.5 1.183e+04 4.423e-10
 24.73768   -208.5 1.204e+04 5.610e-10
 24.75873   -207.8 1.200e+04 5.213e-10
 24.77623   -206.9 1.214e+04 6.204e-10
 24.79469   -206.2 1.232e+04 7.334e-10
 24.80527   -206.2 1.258e+04 7.999e-10
 24.81853   -205.9 1.291e+04 9.907e-10
 24.83968   -205.9 1.335e+04 1.259e-09
 24.85190   -206.0 1.393e+04 1.684e-09
 24.86248   -206.4 1.439e+04 2.247e-09
 24.88197   -206.6 1.498e+04 3.257e-09
 24.89854   -206.7 1.547e+04 4.596e-09
 24.90911   -206.6 1.566e+04 5.952e-09
 24.92427   -206.6 1.600e+04 7.538e-09
 24.94517   -206.8 1.631e+04 8.551e-09
 24.95575   -208.1 1.753e+04 1.042e-08
 24.96656   -209.3 1.849e+04 1.114e-08
 24.98771   -210.8 1.950e+04 1.134e-08
 25.00238   -212.8 2.038e+04 1.158e-08
 25.01295   -217.0 2.043e+04 1.773e-08
 25.03001   -218.7 2.005e+04 1.706e-08
 25.04901   -220.4 1.957e+04 1.554e-08
 25.05959   -222.5 1.845e+04 1.320e-08
 25.07230   -224.0 1.773e+04 8.765e-09
 25.09345   -225.9 1.699e+04 5.452e-09
 25.10622   -228.0 1.640e+04 3.585e-09
 25.11680   -229.3 1.465e+04 1.912e-09
 25.13575   -230.9 1.413e+04 1.442e-09
 25.15286   -232.2 1.397e+04 1.319e-09
 25.16343   -232.1 1.288e+04 9.552e-10
 25.17804   -232.7 1.287e+04 9.511e-10
 25.19919   -233.1 1.314e+04 9.878e-10
 25.21006   -233.5 1.365e+04 1.284e-09
 25.22064   -231.9 1.296e+04 9.790e-10
 25.24148   -231.8 1.328e+04 1.255e-09
 25.25670   -231.5 1.352e+04 1.637e-09
 25.26727   -230.2 1.300e+04 1.233e-09
 25.28378   -229.9 1.320e+04 1.500e-09
 25.30333   -229.5 1.339e+04 1.825e-09
 25.31391   -228.4 1.299e+04 1.366e-09
 25.32608   -228.0 1.313e+04 1.606e-09
 25.34722   -227.5 1.329e+04 1.908e-09
 25.36054   -227.0 1.346e+04 2.268e-09
 25.37112   -226.1 1.308e+04 1.651e-09
 25.38952   -225.6 1.329e+04 1.995e-09
 25.40718   -225.0 1.352e+04 2.405e-09
 25.41775   -224.4 1.316e+04 1.757e-09
 25.43182   -223.8 1.340e+04 2.133e-09
 25.45296   -223.2 1.361e+04 2.532e-09
 25.46438   -222.6 1.376e+04 2.895e-09
 25.47496   -222.1 1.335e+04 2.112e-09
 25.49526   -221.5 1.348e+04 2.394e-09
 25.51102   -220.9 1.356e+04 2.607e-09
 25.52159   -220.4 1.315e+04 1.882e-09
 25.53755   -219.9 1.323e+04 2.043e-09
 25.55765   -219.4 1.325e+04 2.132e-09
 25.56823   -219.0 1.284e+04 1.573e-09
 25.57985   -218.5 1.284e+04 1.623e-09
 25.60100   -218.1 1.281e+04 1.641e-09
 25.61486   -217.6 1.256e+04 1.556e-09
 25.62543   -217.2 1.225e+04 1.279e-09
 25.64329   -216.6 1.199e+04 1.164e-09
 25.66150   -215.8 1.181e+04 9.486e-10
 25.67207   -215.1 1.169e+04 8.278e-10
 25.68559   -214.6 1.164e+04 6.662e-10
 25.71741   -214.3 1.155e+04 5.323e-10
 25.75496   -213.1 1.130e+04 3.972e-10
 25.77611   -211.4 1.122e+04 4.093e-10
 25.78691   -210.1 1.101e+04 3.343e-10
 25.80806   -209.0 1.109e+04 3.659e-10
 25.84439   -207.7 1.090e+04 3.056e-10
 25.86938   -206.3 1.085e+04 2.927e-10
 25.89052   -204.7 1.082e+04 2.955e-10
 25.92899   -203.4 1.082e+04 2.947e-10
 25.96264   -202.3 1.087e+04 3.129e-10
 25.98379   -200.8 1.088e+04 3.203e-10
 26.01358   -199.9 1.106e+04 3.984e-10
 26.05587   -199.1 1.138e+04 5.407e-10
 26.09817   -197.3 1.175e+04 8.107e-10
 26.14046   -196.8 1.203e+04 1.078e-09
 26.17033   -196.5 1.221e+04 1.379e-09
 26.19148   -195.5 1.209e+04 1.239e-09
 26.22506   -195.0 1.219e+04 1.449e-09
 26.26360   -194.1 1.231e+04 1.660e-09
 26.28475   -193.3 1.179e+04 9.778e-10
 26.30965   -192.5 1.191e+04 1.105e-09
 26.35194   -191.7 1.203e+04 1.283e-09
 26.37801   -191.1 1.209e+04 1.436e-09
 26.39916   -190.2 1.167e+04 8.145e-10
 26.43653   -189.4 1.178e+04 1.011e-09
 26.47128   -188.6 1.183e+04 1.137e-09
 26.49243   -187.8 1.168e+04 9.326e-10
 26.52113   -186.8 1.185e+04 1.179e-09
 26.56342   -185.8 1.196e+04 1.328e-09
 26.58570   -184.6 1.198e+04 1.371e-09
 26.60685   -183.9 1.211e+04 1.537e-09
 26.64801   -183.0 1.212e+04 1.580e-09
 26.67897   -181.9 1.206e+04 1.565e-09
 26.70012   -181.6 1.215e+04 1.631e-09
 26.73260   -180.6 1.200e+04 1.562e-09
 26.77224   -179.3 1.178e+04 1.385e-09
 26.79338   -179.3 1.204e+04 1.475e-09
 26.81720   -178.0 1.196e+04 1.433e-09
 26.85949   -176.6 1.203e+04 1.527e-09
 26.88665   -175.5 1.233e+04 1.874e-09
 26.89713   -176.0 1.257e+04 2.272e-09
 26.91217   -175.6 1.274e+04 2.730e-09
 26.93309   -175.2 1.285e+04 3.042e-09
 26.94367   -175.5 1.320e+04 3.640e-09
 26.95446   -175.1 1.322e+04 3.709e-09
 26.97561   -174.7 1.313e+04 3.600e-09
 26.99030   -174.2 1.289e+04 3.140e-09
 27.00087   -174.5 1.281e+04 3.043e-09
 27.01791   -174.1 1.253e+04 2.463e-09
 27.03693   -173.9 1.227e+04 2.001e-09
 27.04751   -174.5 1.215e+04 1.814e-09
 27.06020   -174.1 1.192e+04 1.529e-09
 27.08135   -173.6 1.174e+04 1.276e-09
 27.09414   -173.0 1.161e+04 1.045e-09
 27.09728   -173.4 1.155e+04 9.665e-10
 27.10563   -173.3 1.161e+04 1.059e-09
 27.12364   -173.0 1.153e+04 8.963e-10
 27.15546   -173.0 1.144e+04 7.812e-10
 27.18761   -172.2 1.129e+04 6.662e-10
 27.20875   -172.4 1.128e+04 6.608e-10
 27.24015   -171.4 1.122e+04 6.382e-10
 27.28087   -170.4 1.122e+04 6.423e-10
 27.30202   -170.4 1.114e+04 6.960e-10
 27.32474   -169.0 1.114e+04 7.088e-10
 27.36704   -167.7 1.122e+04 7.434e-10
 27.39529   -166.3 1.132e+04 7.734e-10
 27.41644   -165.7 1.134e+04 7.662e-10
 27.45163   -164.3 1.143e+04 7.844e-10
 27.48856   -163.0 1.146e+04 7.811e-10
 27.50971   -162.7 1.122e+04 6.691e-10
 27.53622   -161.3 1.114e+04 6.689e-10
 27.57852   -159.6 1.098e+04 6.361e-10
 27.60298   -157.8 1.083e+04 5.757e-10
 27.62412   -157.0 1.095e+04 6.454e-10
 27.66311   -155.3 1.079e+04 5.662e-10
 27.69624   -153.5 1.068e+04 4.790e-10
 27.71739   -152.8 1.083e+04 6.102e-10
 27.74770   -151.1 1.075e+04 5.344e-10
 27.78951   -149.5 1.074e+04 4.690e-10
 27.81066   -149.2 1.127e+04 6.801e-10
 27.83229   -147.7 1.126e+04 5.962e-10
 27.87459   -146.2 1.126e+04 5.262e-10
 27.90393   -144.6 1.119e+04 4.890e-10
 27.92508   -145.3 1.180e+04 8.396e-10
 27.95918   -143.6 1.166e+04 7.339e-10
 27.99720   -142.0 1.160e+04 6.963e-10
 28.01835   -142.5 1.161e+04 1.155e-09
 28.04377   -140.9 1.164e+04 1.085e-09
 28.08607   -139.3 1.166e+04 1.074e-09
 28.11161   -137.6 1.170e+04 1.078e-09
 28.12209   -137.2 1.185e+04 1.297e-09
 28.13874   -136.9 1.174e+04 1.259e-09
 28.15805   -136.1 1.156e+04 1.194e-09
 28.16863   -135.5 1.179e+04 1.133e-09
 28.18104   -134.7 1.180e+04 1.089e-09
 28.20219   -133.9 1.182e+04 1.076e-09
 28.21526   -133.4 1.186e+04 1.086e-09
 28.22593   -133.9 1.180e+04 8.377e-10
 28.25525   -132.8 1.185e+04 8.767e-10
 28.29755   -131.8 1.194e+04 1.023e-09
 28.31930   -130.8 1.193e+04 1.136e-09
 28.32978   -131.0 1.163e+04 1.025e-09
 28.35022   -130.3 1.168e+04 1.085e-09
 28.36574   -129.6 1.167e+04 1.098e-09
 28.37631   -129.3 1.201e+04 1.171e-09
 28.39252   -128.4 1.192e+04 1.116e-09
 28.40340   -127.2 1.178e+04 1.030e-09
 28.41278   -126.6 1.171e+04 9.377e-10
 28.42304   -127.2 1.176e+04 9.304e-10
 28.43481   -125.9 1.178e+04 8.821e-10
 28.46663   -125.1 1.184e+04 8.502e-10
 28.50584   -123.2 1.175e+04 7.933e-10
 28.52698   -123.5 1.176e+04 7.840e-10
 28.55132   -121.2 1.166e+04 7.048e-10
 28.59362   -118.8 1.152e+04 6.514e-10
 28.62025   -116.2 1.136e+04 6.147e-10
 28.64140   -116.3 1.147e+04 5.007e-10
 28.67821   -113.8 1.148e+04 4.784e-10
 28.71352   -111.3 1.149e+04 4.736e-10
 28.73467   -111.5 1.151e+04 4.463e-10
 28.76280   -109.3 1.152e+04 4.664e-10
 28.80509   -107.2 1.160e+04 5.695e-10
 28.82794   -104.9 1.167e+04 7.138e-10
 28.84909   -104.7 1.182e+04 9.197e-10
 28.88969   -102.4 1.209e+04 1.151e-09
 28.92111   -100.8 1.227e+04 1.307e-09
 28.93158   -101.5 1.236e+04 1.382e-09
 28.94236   -100.3 1.253e+04 1.540e-09
 28.96351    -98.9 1.274e+04 1.719e-09
 28.97822    -97.8 1.289e+04 1.858e-09
 28.98879    -98.4 1.324e+04 2.281e-09
 29.00580    -97.3 1.341e+04 2.465e-09
 29.02485    -96.1 1.361e+04 2.620e-09
 29.03543    -97.5 1.391e+04 3.482e-09
 29.04810    -96.6 1.426e+04 3.865e-09
 29.06925    -96.1 1.460e+04 4.377e-09
 29.08206    -96.1 1.495e+04 5.201e-09
 29.09264    -96.9 1.491e+04 8.372e-09
 29.11154    -97.1 1.561e+04 1.123e-08
 29.12870    -97.3 1.666e+04 1.680e-08
 29.13927    -97.3 1.714e+04 1.897e-08
 29.15384    -97.3 1.827e+04 2.953e-08
 29.17499    -97.2 1.920e+04 4.330e-08
 29.18590    -97.3 1.971e+04 5.226e-08
 29.19648    -97.7 1.937e+04 4.340e-08
 29.21728    -98.4 1.941e+04 4.432e-08
 29.23254    -98.6 1.871e+04 3.362e-08
 29.24311    -98.9 1.796e+04 1.982e-08
 29.25958    -99.1 1.668e+04 1.195e-08
 29.27917    -99.6 1.518e+04 6.552e-09
 29.28975   -100.2 1.433e+04 4.586e-09
 29.30187   -100.6 1.356e+04 3.334e-09
 29.32302   -100.7 1.314e+04 2.726e-09
 29.33648   -100.5 1.281e+04 2.268e-09
 29.35772    -99.2 1.262e+04 2.097e-09
 29.39723    -97.6 1.215e+04 1.556e-09
 29.42984    -95.8 1.180e+04 1.133e-09
 29.45099    -95.0 1.172e+04 1.027e-09
 29.48183    -93.1 1.152e+04 8.335e-10
 29.52311    -91.2 1.135e+04 6.784e-10
 29.54426    -90.3 1.136e+04 7.599e-10
 29.56642    -88.3 1.130e+04 6.919e-10
 29.60871    -86.2 1.126e+04 5.846e-10
 29.63753    -84.2 1.126e+04 4.511e-10
 29.65868    -83.6 1.152e+04 7.923e-10
 29.69330    -82.0 1.160e+04 6.785e-10
 29.73080    -80.8 1.165e+04 5.383e-10
 29.75195    -80.6 1.222e+04 1.342e-09
 29.77790    -79.8 1.220e+04 1.135e-09
 29.82019    -79.1 1.211e+04 9.420e-10
 29.84521    -78.7 1.208e+04 8.814e-10
 29.86636    -79.2 1.276e+04 2.015e-09
 29.90478    -79.5 1.281e+04 2.084e-09
 29.93848    -80.1 1.334e+04 2.714e-09
 29.95953    -80.2 1.368e+04 3.550e-09
 29.97861    -80.6 1.379e+04 3.925e-09
 29.99550    -80.7 1.389e+04 4.385e-09
 30.00607    -80.7 1.350e+04 3.529e-09
 30.02090    -80.9 1.355e+04 3.507e-09
 30.04205    -81.1 1.365e+04 3.466e-09
 30.06320    -82.5 1.322e+04 2.200e-09
 30.08435    -83.3 1.331e+04 2.199e-09
 30.09934    -84.3 1.345e+04 2.269e-09
 30.10991    -84.9 1.295e+04 1.732e-09
 30.12664    -85.5 1.307e+04 1.997e-09
 30.14597    -86.1 1.321e+04 2.375e-09
 30.15655    -85.7 1.299e+04 2.113e-09
 30.16894    -85.8 1.320e+04 2.464e-09
 30.20076    -85.9 1.346e+04 2.780e-09
 30.23944    -85.2 1.366e+04 3.187e-09
 30.26058    -84.6 1.303e+04 1.958e-09
 30.28545    -83.6 1.309e+04 2.064e-09
 30.32774    -82.3 1.313e+04 2.214e-09
 30.35385    -80.8 1.309e+04 2.261e-09
 30.37500    -79.8 1.258e+04 1.483e-09
 30.41233    -78.0 1.266e+04 1.731e-09
 30.44712    -76.2 1.266e+04 1.776e-09
 30.46827    -74.9 1.236e+04 1.331e-09
 30.49692    -73.1 1.245e+04 1.456e-09
 30.53922    -71.4 1.243e+04 1.422e-09
 30.56154    -69.7 1.224e+04 1.103e-09
 30.58269    -68.7 1.221e+04 1.003e-09
 30.62381    -67.2 1.211e+04 8.339e-10
 30.65481    -65.8 1.204e+04 6.265e-10
 30.67595    -65.1 1.184e+04 7.770e-10
 30.70840    -63.7 1.185e+04 7.041e-10
 30.74808    -62.3 1.188e+04 6.379e-10
 30.76922    -61.3 1.185e+04 9.521e-10
 30.79299    -59.7 1.179e+04 8.358e-10
 30.83529    -57.9 1.169e+04 6.909e-10
 30.86249    -55.9 1.157e+04 5.549e-10
 30.88364    -54.6 1.151e+04 6.058e-10
 30.91988    -52.6 1.138e+04 4.557e-10
 30.95576    -50.4 1.129e+04 3.238e-10
 30.97691    -49.5 1.137e+04 3.665e-10
 30.99914    -47.5 1.132e+04 2.834e-10
 31.02028    -47.2 1.143e+04 4.385e-10
 31.04677    -45.3 1.139e+04 3.478e-10
 31.07018    -43.4 1.139e+04 2.771e-10
 31.09132    -42.6 1.131e+04 4.326e-10
 31.13136    -40.6 1.119e+04 3.799e-10
 31.16344    -38.5 1.113e+04 3.643e-10
 31.18459    -37.3 1.119e+04 4.164e-10
 31.21595    -35.3 1.115e+04 4.032e-10
 31.25671    -33.2 1.117e+04 4.212e-10
 31.27786    -32.3 1.134e+04 3.449e-10
 31.30054    -30.4 1.137e+04 3.944e-10
 31.34284    -28.5 1.138e+04 4.355e-10
 31.37113    -26.5 1.142e+04 4.467e-10
 31.39228    -26.2 1.162e+04 4.847e-10
 31.42743    -24.4 1.160e+04 4.975e-10
 31.46440    -22.7 1.152e+04 5.000e-10
 31.48555    -22.2 1.155e+04 5.618e-10
 31.51202    -20.4 1.141e+04 5.372e-10
 31.55432    -18.3 1.123e+04 4.883e-10
 31.57881    -15.9 1.112e+04 3.919e-10
 31.59996    -15.1 1.126e+04 2.848e-10
 31.63891    -13.3 1.128e+04 1.986e-10
 31.67208    -12.2 1.121e+04 1.650e-10
 31.69323    -12.1 1.114e+04 1.467e-10
 31.72350    -10.6 1.121e+04 1.544e-10
 31.76535     -9.4 1.099e+04 2.228e-10
 31.78650     -9.1 1.112e+04 2.510e-10
 31.80809     -7.0 1.112e+04 3.582e-10
 31.85039     -5.0 1.125e+04 4.338e-10
 31.87977     -3.2 1.127e+04 4.524e-10
 31.90092     -3.6 1.152e+04 5.757e-10
 31.93498     -2.0 1.142e+04 4.957e-10
 31.97304     -0.7 1.150e+04 4.564e-10
 31.99418     -1.8 1.134e+04 4.860e-10
 32.00890     -0.8 1.103e+04 6.227e-10
 32.02995      0.1 1.112e+04 6.799e-10
 32.06177      1.6 1.133e+04 8.258e-10
 32.08745      3.1 1.200e+04 1.046e-09
 32.10860      1.2 1.249e+04 6.826e-10
 32.13399      1.2 1.185e+04 8.570e-10
 32.14447      0.6 1.148e+04 9.064e-10
 32.15684      1.2 1.182e+04 7.103e-10
 32.17798      0.2 1.214e+04 8.118e-10
 32.19110     -0.5 1.242e+04 9.867e-10
 32.20167     -1.6 1.283e+04 1.251e-09
 32.22028     -1.9 1.265e+04 1.779e-09
 32.23773     -1.0 1.244e+04 2.119e-09
 32.24831     -0.8 1.263e+04 2.258e-09
 32.26257      0.6 1.240e+04 1.965e-09
 32.28372      1.8 1.189e+04 1.535e-09
 32.29494      2.7 1.138e+04 1.015e-09
 32.30552      3.1 1.123e+04 7.866e-10
 32.31786      3.4 1.070e+04 5.493e-10
 32.32843      3.5 1.069e+04 5.485e-10
 32.35784      2.6 1.084e+04 3.752e-10
 32.38841      3.8 1.047e+04 2.527e-10
 32.40955      4.0 1.049e+04 2.173e-10
 32.44253      5.3 1.041e+04 2.163e-10
 32.48168      6.8 1.038e+04 2.310e-10
 32.50282      7.4 1.022e+04 2.897e-10
 32.52712      9.7 1.025e+04 3.160e-10
 32.56941     11.6 1.040e+04 2.983e-10
 32.59609     13.0 1.051e+04 2.826e-10
 32.61724     14.3 1.054e+04 2.764e-10
 32.65401     15.2 1.060e+04 2.522e-10
 32.68936     15.5 1.073e+04 2.797e-10
 32.71051     16.4 1.075e+04 2.607e-10
 32.73860     16.8 1.090e+04 3.223e-10
 32.78089     17.4 1.097e+04 4.137e-10
 32.80378     18.0 1.096e+04 4.871e-10
 32.82492     18.5 1.105e+04 4.737e-10
 32.85031     19.3 1.088e+04 5.020e-10
 32.86079     19.3 1.090e+04 5.060e-10
 32.87586     19.6 1.090e+04 5.218e-10
 32.89695     19.7 1.102e+04 6.416e-10
 32.91819     20.7 1.084e+04 5.541e-10
 32.95008     21.3 1.080e+04 5.317e-10
 32.99031     22.0 1.078e+04 4.931e-10
 33.01146     23.2 1.053e+04 3.152e-10
 33.03467     24.3 1.034e+04 2.576e-10
 33.07696     25.6 1.014e+04 2.280e-10
 33.10473     27.3 9.962e+03 2.129e-10
 33.12588     28.1 1.004e+04 1.165e-10
 33.16155     29.9 9.898e+03 1.115e-10
 33.19800     31.8 9.816e+03 1.085e-10
 33.21915     32.4 9.884e+03 7.482e-11
 33.24615     34.2 9.848e+03 7.837e-11
 33.28844     36.0 9.833e+03 8.765e-11
 33.31242     37.9 9.833e+03 1.045e-10
 33.33356     38.6 9.789e+03 9.810e-11
 33.37303     40.5 9.826e+03 1.298e-10
 33.40568     42.4 9.943e+03 1.809e-10
 33.42683     43.2 1.002e+04 1.967e-10
 33.45762     45.2 1.034e+04 2.970e-10
 33.49895     46.7 1.068e+04 4.231e-10
 33.52010     47.2 1.093e+04 5.170e-10
 33.54222     48.3 1.145e+04 8.197e-10
 33.58451     49.5 1.201e+04 1.256e-09
 33.61337     50.4 1.261e+04 1.765e-09
 33.62353     50.9 1.325e+04 2.330e-09
 33.63697     52.4 1.322e+04 2.300e-09
 33.65843     52.1 1.351e+04 2.595e-09
 33.67038     52.2 1.368e+04 2.736e-09
 33.68096     51.9 1.413e+04 3.221e-09
 33.70063     51.6 1.470e+04 3.756e-09
 33.71702     51.3 1.514e+04 4.221e-09
 33.72759     50.2 1.620e+04 7.191e-09
 33.74293     50.1 1.625e+04 7.105e-09
 33.76365     49.9 1.614e+04 6.301e-09
 33.77422     49.9 1.685e+04 1.022e-08
 33.78522     49.6 1.631e+04 7.102e-09
 33.80637     48.8 1.539e+04 4.604e-09
 33.82086     47.8 1.429e+04 3.266e-09
 33.83143     47.7 1.415e+04 3.121e-09
 33.84866     47.5 1.330e+04 2.207e-09
 33.88048     47.7 1.286e+04 1.383e-09
 33.91432     48.1 1.232e+04 6.067e-10
 33.93547     46.8 1.210e+04 2.975e-10
 33.96517     46.9 1.157e+04 1.702e-10
 34.00747     47.4 1.093e+04 1.414e-10
 34.04976     49.5 1.072e+04 1.186e-10
 34.09206     50.9 1.072e+04 1.195e-10
 34.12201     52.3 1.076e+04 1.289e-10
 34.14315     53.0 1.073e+04 1.122e-10
 34.17665     54.3 1.076e+04 1.367e-10
 34.21528     55.9 1.076e+04 1.903e-10
 34.23642     56.8 1.067e+04 1.730e-10
 34.26124     58.6 1.073e+04 2.363e-10
 34.30354     60.4 1.084e+04 2.910e-10
 34.32969     62.1 1.092e+04 3.008e-10
 34.35084     63.1 1.086e+04 3.026e-10
 34.38813     64.6 1.086e+04 2.996e-10
 34.42296     66.2 1.085e+04 2.819e-10
 34.44411     67.2 1.081e+04 2.842e-10
 34.47272     68.8 1.077e+04 2.571e-10
 34.51502     70.5 1.076e+04 2.368e-10
 34.53738     72.2 1.078e+04 2.277e-10
 34.55852     73.1 1.073e+04 2.234e-10
 34.59961     74.8 1.075e+04 2.116e-10
 34.63065     76.6 1.079e+04 1.963e-10
 34.65179     77.5 1.069e+04 1.921e-10
 34.68420     79.4 1.072e+04 1.673e-10
 34.72391     81.3 1.076e+04 1.410e-10
 34.74506     82.2 1.068e+04 1.412e-10
 34.76879     84.0 1.069e+04 1.189e-10
 34.81109     85.8 1.058e+04 1.084e-10
 34.83833     87.7 1.054e+04 1.082e-10
 34.85948     88.6 1.051e+04 1.094e-10
 34.89568     90.6 1.050e+04 1.131e-10
 34.93160     92.6 1.050e+04 1.274e-10
 34.95275     93.4 1.045e+04 1.373e-10
 34.98027     95.4 1.050e+04 1.739e-10
 35.02257     97.6 1.056e+04 2.285e-10
 35.04602     99.9 1.069e+04 2.970e-10
 35.06716    100.7 1.071e+04 3.975e-10
 35.10716    103.3 1.104e+04 5.455e-10
 35.13928    105.2 1.137e+04 6.672e-10
 35.16043    106.3 1.164e+04 9.459e-10
 35.18108    106.8 1.160e+04 9.738e-10
 35.19630    107.5 1.161e+04 1.008e-09
 35.20687    107.9 1.178e+04 1.118e-09
 35.22328    108.8 1.185e+04 1.141e-09
 35.24293    109.6 1.186e+04 1.141e-09
 35.25351    109.7 1.187e+04 1.104e-09
 35.26557    110.5 1.188e+04 1.086e-09
 35.28672    111.3 1.189e+04 1.049e-09
 35.30014    112.1 1.189e+04 9.811e-10
 35.31071    112.4 1.170e+04 8.718e-10
 35.32901    113.3 1.164e+04 7.696e-10
 35.34677    114.1 1.167e+04 6.923e-10
 35.36802    114.9 1.148e+04 5.752e-10
 35.40323    116.3 1.146e+04 4.692e-10
 35.44024    117.8 1.142e+04 4.373e-10
 35.46139    118.4 1.111e+04 3.840e-10
 35.48782    120.1 1.113e+04 3.956e-10
 35.53011    121.9 1.124e+04 4.372e-10
 35.55465    123.7 1.140e+04 4.801e-10
 35.57580    124.4 1.119e+04 4.763e-10
 35.61471    126.2 1.139e+04 4.823e-10
 35.64792    128.1 1.145e+04 4.713e-10
 35.66907    128.4 1.139e+04 5.018e-10
 35.69930    130.2 1.150e+04 4.919e-10
 35.74119    131.8 1.164e+04 4.669e-10
 35.76234    131.8 1.147e+04 5.683e-10
 35.77322    132.6 1.155e+04 5.596e-10
 35.79427    133.3 1.164e+04 5.904e-10
 35.80878    134.0 1.174e+04 6.807e-10
 35.81935    134.3 1.170e+04 8.177e-10
 35.83656    135.0 1.182e+04 9.381e-10
 35.85541    135.8 1.197e+04 1.069e-09
 35.86599    135.9 1.195e+04 1.071e-09
 35.87886    136.6 1.210e+04 1.194e-09
 35.90001    137.4 1.224e+04 1.301e-09
 35.91262    138.1 1.233e+04 1.370e-09
 35.92319    138.2 1.217e+04 1.291e-09
 35.94230    138.8 1.217e+04 1.294e-09
 35.95925    139.3 1.214e+04 1.288e-09
 35.96983    139.4 1.190e+04 1.163e-09
 35.98460    139.9 1.183e+04 1.153e-09
 36.00575    140.5 1.182e+04 1.155e-09
 36.01646    140.9 1.183e+04 1.186e-09
 36.02704    141.2 1.150e+04 9.847e-10
 36.04804    141.6 1.158e+04 1.038e-09
 36.06310    141.9 1.173e+04 1.152e-09
 36.07367    142.2 1.133e+04 8.153e-10
 36.09034    142.6 1.146e+04 8.982e-10
 36.10973    142.8 1.160e+04 1.002e-09
 36.12031    143.1 1.121e+04 6.193e-10
 36.13263    143.3 1.130e+04 6.777e-10
 36.15378    143.4 1.139e+04 7.592e-10
 36.16694    143.6 1.146e+04 8.495e-10
 36.17751    143.9 1.119e+04 5.276e-10
 36.19608    144.2 1.127e+04 6.349e-10
 36.21357    144.5 1.135e+04 7.577e-10
 36.22415    144.9 1.120e+04 5.704e-10
 36.23231    145.5 1.128e+04 7.213e-10
 36.24289    145.8 1.121e+04 7.121e-10
 36.25952    146.5 1.133e+04 8.639e-10
 36.27078    147.3 1.153e+04 9.801e-10
 36.28136    147.9 1.140e+04 9.001e-10
 36.30182    148.6 1.166e+04 1.059e-09
 36.31742    148.9 1.194e+04 1.191e-09
 36.32799    149.3 1.196e+04 1.216e-09
 36.34411    148.6 1.269e+04 1.696e-09
 36.36405    146.8 1.384e+04 2.928e-09
 36.37462    146.7 1.425e+04 3.642e-09
 36.38641    144.8 1.540e+04 6.339e-09
 36.40756    143.6 1.680e+04 1.206e-08
 36.42126    142.8 1.789e+04 1.842e-08
 36.43183    142.9 1.758e+04 1.490e-08
 36.44985    141.2 1.762e+04 1.417e-08
 36.46789    139.1 1.743e+04 1.082e-08
 36.47847    138.4 1.667e+04 6.389e-09
 36.49215    134.6 1.548e+04 3.354e-09
 36.51329    130.5 1.333e+04 1.864e-09
 36.52510    129.0 1.217e+04 1.494e-09
 36.53568    128.7 1.177e+04 1.235e-09
 36.55559    127.4 1.096e+04 9.918e-10
 36.57183    127.9 1.088e+04 9.503e-10
 36.58241    127.4 1.089e+04 9.096e-10
 36.59789    127.7 1.074e+04 8.427e-10
 36.61837    128.3 1.058e+04 7.607e-10
 36.62894    128.7 1.047e+04 7.177e-10
 36.64018    129.8 1.033e+04 6.540e-10
 36.66510    131.1 1.019e+04 5.612e-10
 36.68635    131.9 1.014e+04 5.645e-10
 36.71439    134.1 1.007e+04 5.360e-10
 36.75669    136.6 9.919e+03 4.568e-10
 36.77962    139.1 9.705e+03 3.474e-10
 36.80076    139.8 9.956e+03 4.847e-10
 36.84128    142.3 9.769e+03 3.839e-10
 36.87288    144.8 9.556e+03 2.765e-10
 36.89403    145.5 9.864e+03 4.252e-10
 36.92587    147.8 9.666e+03 3.217e-10
 36.96615    150.1 9.470e+03 2.431e-10
 36.98730    150.6 9.876e+03 4.033e-10
 37.01047    152.7 9.773e+03 3.540e-10
 37.05276    154.9 9.766e+03 3.492e-10
 37.08057    157.0 9.780e+03 3.527e-10
 37.10172    156.9 1.029e+04 5.902e-10
 37.13735    158.8 1.035e+04 6.215e-10
 37.17384    160.7 1.046e+04 6.830e-10
 37.19499    160.2 1.098e+04 9.545e-10
 37.22194    161.9 1.108e+04 9.721e-10
 37.26424    163.6 1.119e+04 1.005e-09
 37.28825    165.2 1.135e+04 1.116e-09
 37.30940    164.3 1.114e+04 8.384e-10
 37.34883    165.6 1.119e+04 8.524e-10
 37.38152    166.8 1.130e+04 9.083e-10
 37.40267    165.8 1.061e+04 5.271e-10
 37.43342    166.6 1.064e+04 5.473e-10
 37.47479    167.0 1.074e+04 6.219e-10
 37.49594    166.3 1.028e+04 4.486e-10
 37.51801    166.5 1.030e+04 4.453e-10
 37.56031    166.7 1.034e+04 4.610e-10
 37.58921    167.0 1.040e+04 4.870e-10
 37.61036    166.5 9.974e+03 2.614e-10
 37.64490    167.0 9.984e+03 2.673e-10
 37.68248    167.7 1.004e+04 2.827e-10
 37.70362    167.2 9.630e+03 1.731e-10
 37.72949    168.1 9.665e+03 2.032e-10
 37.77179    169.1 9.867e+03 2.782e-10
 37.79689    170.1 1.006e+04 3.602e-10
 37.81804    170.4 9.790e+03 3.329e-10
 37.85638    171.4 9.914e+03 3.810e-10
 37.89016    172.1 9.978e+03 4.001e-10
 37.91131    173.0 9.928e+03 3.984e-10
 37.94097    173.9 9.920e+03 3.933e-10
 37.98327    174.8 9.972e+03 3.887e-10
 38.02556    176.7 9.886e+03 3.837e-10
 38.06786    177.2 9.966e+03 3.951e-10
 38.09785    177.4 1.025e+04 4.272e-10
 38.11899    178.6 1.007e+04 4.162e-10
 38.15245    178.3 1.041e+04 4.938e-10
 38.19111    177.5 1.124e+04 7.360e-10
 38.21226    178.7 1.102e+04 6.834e-10
 38.23704    177.1 1.212e+04 1.190e-09
 38.25880    175.3 1.321e+04 2.269e-09
 38.26928    175.7 1.323e+04 2.240e-09
 38.28972    175.1 1.340e+04 2.756e-09
 38.30543    174.6 1.294e+04 2.379e-09
 38.31601    175.0 1.335e+04 2.919e-09
 38.33201    174.6 1.333e+04 3.022e-09
 38.36383    174.6 1.294e+04 2.449e-09
 38.39880    174.3 1.252e+04 1.951e-09
 38.41995    175.1 1.273e+04 2.183e-09
 38.44852    175.2 1.232e+04 1.646e-09
 38.49082    175.6 1.189e+04 1.170e-09
 38.51322    176.5 1.152e+04 8.465e-10
 38.53436    176.9 1.153e+04 8.289e-10
 38.57541    178.0 1.129e+04 6.460e-10
 38.60648    179.3 1.120e+04 5.585e-10
 38.62763    179.7 1.104e+04 4.438e-10
 38.66000    181.1 1.102e+04 4.049e-10
 38.69975    182.6 1.099e+04 3.786e-10
 38.72090    183.1 1.080e+04 2.932e-10
 38.74459    184.6 1.078e+04 2.871e-10
 38.78689    186.2 1.070e+04 2.806e-10
 38.81417    187.9 1.067e+04 2.814e-10
 38.83418    188.6 1.064e+04 2.582e-10
 38.84920    188.4 1.077e+04 3.007e-10
 38.87148    190.2 1.076e+04 3.193e-10
 38.90744    192.1 1.076e+04 3.608e-10
 38.92859    192.8 1.085e+04 3.458e-10
 38.95607    194.6 1.086e+04 3.945e-10
 38.99836    196.5 1.100e+04 4.961e-10
 39.02185    198.3 1.128e+04 6.644e-10
 39.04300    198.8 1.123e+04 5.702e-10
 39.08296    200.5 1.170e+04 8.246e-10
 39.11512    202.0 1.211e+04 1.098e-09
 39.13627    202.2 1.188e+04 8.628e-10
 39.16755    203.8 1.246e+04 1.161e-09
 39.19917    204.3 1.261e+04 1.292e-09
 39.21877    204.7 1.286e+04 1.453e-09
 39.22934    204.9 1.258e+04 1.172e-09
 39.24137    204.9 1.293e+04 1.392e-09
 39.26252    204.8 1.347e+04 1.781e-09
 39.27598    204.4 1.405e+04 2.368e-09
 39.28655    204.4 1.371e+04 1.860e-09
 39.30481    203.8 1.417e+04 2.437e-09
 39.32261    203.1 1.453e+04 3.024e-09
 39.33319    202.6 1.467e+04 2.883e-09
 39.34711    201.8 1.487e+04 3.440e-09
 39.36826    200.9 1.487e+04 3.510e-09
 39.37982    200.2 1.481e+04 3.449e-09
 39.39039    199.2 1.517e+04 3.912e-09
 39.41055    198.9 1.496e+04 3.628e-09
 39.42646    198.6 1.464e+04 3.170e-09
 39.43703    197.8 1.486e+04 3.489e-09
 39.45285    197.8 1.437e+04 2.735e-09
 39.47309    197.6 1.396e+04 2.170e-09
 39.48366    196.8 1.402e+04 2.148e-09
 39.49514    196.6 1.372e+04 1.807e-09
 39.51629    196.6 1.352e+04 1.635e-09
 39.53030    196.8 1.339e+04 1.536e-09
 39.54087    196.1 1.348e+04 1.608e-09
 39.55859    196.6 1.338e+04 1.542e-09
 39.57693    197.0 1.330e+04 1.489e-09
 39.58751    196.4 1.361e+04 1.793e-09
 39.60088    196.8 1.362e+04 1.822e-09
 39.62203    197.3 1.365e+04 1.865e-09
 39.63414    197.8 1.368e+04 1.909e-09
 39.64471    197.6 1.407e+04 2.598e-09
 39.66433    198.2 1.410e+04 2.708e-09
 39.68077    199.0 1.412e+04 2.777e-09
 39.69135    199.0 1.450e+04 3.511e-09
 39.70662    199.9 1.453e+04 3.687e-09
 39.72741    200.7 1.458e+04 3.780e-09
 39.73798    200.7 1.487e+04 4.196e-09
 39.74892    201.5 1.501e+04 4.615e-09
 39.77007    202.3 1.524e+04 5.057e-09
 39.78462    202.9 1.558e+04 5.660e-09
 39.79519    202.3 1.621e+04 7.130e-09
 39.81236    202.7 1.685e+04 9.092e-09
 39.83125    203.0 1.755e+04 1.157e-08
 39.84183    202.0 1.854e+04 1.577e-08
 39.85466    202.4 1.925e+04 2.093e-08
 39.87580    202.9 1.964e+04 2.420e-08
 39.88846    203.4 1.995e+04 2.636e-08
 39.89903    201.8 1.991e+04 2.400e-08
 39.91810    201.8 1.989e+04 2.219e-08
 39.93509    201.7 1.959e+04 1.773e-08
 39.94567    199.5 1.868e+04 1.095e-08
 39.96040    198.8 1.792e+04 7.633e-09
 39.98154    197.8 1.685e+04 5.103e-09
 39.99230    196.9 1.559e+04 3.454e-09
 40.00288    195.6 1.461e+04 3.029e-09
 40.02384    196.0 1.404e+04 2.414e-09
 40.03894    196.9 1.376e+04 1.975e-09
 40.06018    197.6 1.343e+04 1.582e-09
 40.09805    198.9 1.287e+04 1.065e-09
 40.13240    200.8 1.244e+04 7.172e-10
 40.15355    201.0 1.175e+04 4.500e-10
 40.18264    203.2 1.152e+04 3.219e-10
 40.22494    205.4 1.124e+04 2.774e-10
 40.24682    207.7 1.107e+04 2.737e-10
 40.26796    208.2 1.068e+04 1.739e-10
 40.30953    210.6 1.067e+04 1.768e-10
 40.34009    212.9 1.068e+04 1.809e-10
 40.36123    213.7 1.043e+04 1.446e-10
 40.39412    215.9 1.042e+04 1.655e-10
 40.43335    218.2 1.043e+04 1.922e-10
 40.45450    219.2 1.037e+04 2.002e-10
 40.47871    221.5 1.044e+04 2.406e-10
 40.52101    223.7 1.052e+04 2.836e-10
 40.54777    225.8 1.062e+04 3.335e-10
 40.56892    227.0 1.066e+04 3.807e-10
 40.60560    229.0 1.082e+04 4.430e-10
 40.64104    230.8 1.101e+04 5.134e-10
 40.66219    231.9 1.098e+04 5.186e-10
 40.69019    233.5 1.119e+04 5.946e-10
 40.73249    234.9 1.137e+04 6.705e-10
 40.75545    236.1 1.150e+04 7.551e-10
 40.76593    236.4 1.138e+04 6.861e-10
 40.78516    236.6 1.146e+04 7.344e-10
 40.81698    237.7 1.141e+04 7.412e-10
 40.84863    238.0 1.135e+04 7.309e-10
 40.86968    238.9 1.111e+04 6.239e-10
 40.89090    239.4 1.106e+04 6.069e-10
 40.90574    239.9 1.099e+04 5.808e-10
 40.91631    240.3 1.089e+04 5.251e-10
 40.93320    240.9 1.083e+04 5.220e-10
 40.95237    241.6 1.080e+04 5.240e-10
 40.96294    242.1 1.074e+04 4.686e-10
 40.97549    242.8 1.069e+04 4.926e-10
 40.99664    243.5 1.067e+04 5.333e-10
 41.00958    244.4 1.065e+04 5.996e-10
 41.02015    244.8 1.063e+04 5.698e-10
 41.03894    246.0 1.065e+04 6.659e-10
 41.05621    247.1 1.071e+04 7.669e-10
 41.06679    247.6 1.070e+04 7.007e-10
 41.08123    248.7 1.079e+04 8.228e-10
 41.10238    249.8 1.090e+04 9.217e-10
 41.11342    251.0 1.102e+04 9.990e-10
 41.12400    251.5 1.098e+04 9.527e-10
 41.14468    252.7 1.112e+04 1.045e-09
 41.16006    253.8 1.126e+04 1.125e-09
 41.17063    254.2 1.125e+04 1.074e-09
 41.18697    255.3 1.141e+04 1.184e-09
 41.20669    256.5 1.160e+04 1.300e-09
 41.21726    256.8 1.159e+04 1.255e-09
 41.22927    257.8 1.185e+04 1.432e-09
 41.25042    258.8 1.219e+04 1.667e-09
 41.26390    259.8 1.266e+04 2.009e-09
 41.27447    259.9 1.260e+04 1.960e-09
 41.29271    260.8 1.316e+04 2.454e-09
 41.31053    261.4 1.384e+04 3.165e-09
 41.32111    261.6 1.355e+04 2.860e-09
 41.33501    262.2 1.428e+04 3.778e-09
 41.35616    262.6 1.509e+04 5.097e-09
 41.36774    262.8 1.591e+04 6.936e-09
 41.37831    263.2 1.512e+04 4.780e-09
 41.39845    263.4 1.585e+04 6.007e-09
 41.41437    263.5 1.649e+04 7.354e-09
 41.42495    263.2 1.534e+04 4.473e-09
 41.44075    263.2 1.589e+04 5.380e-09
 41.45511    263.2 1.638e+04 6.219e-09
 41.46480    264.3 1.641e+04 6.944e-09
 41.47158    264.1 1.535e+04 4.392e-09
 41.48304    264.2 1.590e+04 5.071e-09
 41.50419    264.3 1.630e+04 5.342e-09
 41.51822    264.3 1.637e+04 5.271e-09
 41.52879    263.6 1.478e+04 2.691e-09
 41.54649    263.4 1.454e+04 2.400e-09
 41.56485    263.1 1.408e+04 2.112e-09
 41.57543    262.4 1.216e+04 1.239e-09
 41.58878    262.3 1.184e+04 1.236e-09
 41.60993    262.4 1.183e+04 1.257e-09
 41.62206    262.4 1.196e+04 1.362e-09
 41.63263    263.0 1.159e+04 1.036e-09
 41.65223    263.2 1.200e+04 1.257e-09
 41.66869    263.4 1.261e+04 1.670e-09
 41.67927    264.4 1.229e+04 1.333e-09
 41.69452    264.6 1.296e+04 1.893e-09
 41.71533    264.9 1.375e+04 2.762e-09
 41.72590    266.1 1.334e+04 2.247e-09
 41.73682    266.4 1.418e+04 3.385e-09
 41.75796    266.8 1.499e+04 4.912e-09
 41.77254    267.3 1.573e+04 6.446e-09
 41.78311    268.3 1.555e+04 6.125e-09
 41.80026    268.6 1.632e+04 7.866e-09
 41.81917    268.9 1.685e+04 8.132e-09
 41.82974    269.9 1.698e+04 9.920e-09
 41.84256    270.1 1.753e+04 1.024e-08
 41.86370    270.0 1.758e+04 9.845e-09
 41.87638    269.7 1.760e+04 8.335e-09
 41.88695    271.0 1.848e+04 1.345e-08
 41.90600    270.5 1.848e+04 1.158e-08
 41.92301    269.9 1.809e+04 8.512e-09
 41.93359    271.1 1.920e+04 1.524e-08
 41.94830    270.5 1.857e+04 1.064e-08
 41.96944    270.0 1.746e+04 6.545e-09
 41.98022    269.5 1.590e+04 3.806e-09
 41.99080    270.8 1.718e+04 6.630e-09
 42.01174    270.6 1.551e+04 3.704e-09
 42.02686    270.2 1.381e+04 2.158e-09
 42.03743    271.6 1.518e+04 3.448e-09
 42.05403    271.3 1.381e+04 2.097e-09
 42.07349    270.8 1.288e+04 1.542e-09
 42.08406    272.3 1.408e+04 2.259e-09
 42.09633    271.8 1.348e+04 1.823e-09
 42.11748    271.1 1.304e+04 1.726e-09
 42.13070    270.5 1.303e+04 1.729e-09
 42.14127    271.2 1.380e+04 2.199e-09
 42.15977    270.2 1.357e+04 2.137e-09
 42.17733    269.1 1.351e+04 2.127e-09
 42.18791    269.4 1.427e+04 2.698e-09
 42.20207    268.0 1.395e+04 2.455e-09
 42.22322    266.6 1.372e+04 2.254e-09
 42.23454    265.2 1.350e+04 2.092e-09
 42.24511    264.8 1.354e+04 2.120e-09
 42.26551    263.2 1.317e+04 1.937e-09
 42.28118    261.8 1.297e+04 1.861e-09
 42.29175    261.4 1.283e+04 1.807e-09
 42.30781    260.2 1.276e+04 1.729e-09
 42.32781    259.0 1.266e+04 1.560e-09
 42.33838    259.1 1.257e+04 1.520e-09
 42.35010    257.9 1.244e+04 1.315e-09
 42.37454    256.5 1.232e+04 1.064e-09
 42.39579    257.1 1.231e+04 1.068e-09
 42.42432    254.1 1.156e+04 6.712e-10
 42.46661    251.7 1.054e+04 3.755e-10
 42.48906    250.5 9.641e+03 1.983e-10
 42.51020    251.2 1.002e+04 2.924e-10
 42.55120    250.9 9.408e+03 1.570e-10
 42.58232    250.8 9.099e+03 9.319e-11
 42.60347    251.5 9.381e+03 1.310e-10
 42.63580    251.4 9.140e+03 8.907e-11
 42.67559    251.4 9.051e+03 8.544e-11
 42.69674    251.9 9.141e+03 9.472e-11
 42.72039    252.4 9.097e+03 9.387e-11
 42.76268    253.5 9.096e+03 9.527e-11
 42.79001    254.6 9.140e+03 1.068e-10
 42.81116    255.5 9.199e+03 1.146e-10
 42.84727    256.4 9.333e+03 1.449e-10
 42.88328    256.7 9.588e+03 2.037e-10
 42.90443    258.0 9.616e+03 2.043e-10
 42.93187    258.2 9.941e+03 2.779e-10
 42.97416    258.3 1.036e+04 3.300e-10
 42.99769    257.6 1.054e+04 3.300e-10
 43.01884    259.1 1.058e+04 3.337e-10
 43.05875    257.9 1.062e+04 3.158e-10
 43.09096    256.7 1.060e+04 2.535e-10
 43.11211    258.2 1.063e+04 2.637e-10
 43.14334    257.2 1.038e+04 1.846e-10
 43.18423    256.6 9.972e+03 1.327e-10
 43.20538    258.2 1.006e+04 1.304e-10
 43.22794    258.2 9.695e+03 1.085e-10
 43.27023    258.5 9.643e+03 1.076e-10
 43.29865    259.1 9.638e+03 1.083e-10
 43.31980    260.3 9.589e+03 9.675e-11
 43.35482    261.2 9.585e+03 9.863e-11
 43.39192    262.2 9.599e+03 1.083e-10
 43.41306    263.3 9.533e+03 9.431e-11
 43.43941    264.4 9.593e+03 1.060e-10
 43.48171    265.4 9.675e+03 1.346e-10
 43.50633    266.5 9.810e+03 1.874e-10
 43.52748    267.6 9.671e+03 1.310e-10
 43.56630    268.6 9.796e+03 1.806e-10
 43.59960    269.5 1.001e+04 2.648e-10
 43.62075    270.6 9.773e+03 1.787e-10
 43.65089    271.5 1.000e+04 2.661e-10
 43.69287    272.4 1.032e+04 3.963e-10
 43.71402    273.6 1.005e+04 2.830e-10
 43.73549    274.3 1.037e+04 4.139e-10
 43.77778    275.1 1.064e+04 5.531e-10
 43.80729    276.0 1.081e+04 6.486e-10
 43.82843    277.2 1.063e+04 5.623e-10
 43.86237    278.0 1.073e+04 6.268e-10
 43.90055    279.4 1.078e+04 6.458e-10
 43.92170    280.3 1.065e+04 5.984e-10
 43.94696    281.6 1.070e+04 6.189e-10
 43.98926    282.8 1.072e+04 6.361e-10
 44.01497    284.0 1.078e+04 6.666e-10
 44.03612    284.8 1.066e+04 6.314e-10
 44.06142    285.7 1.078e+04 6.834e-10
 44.07190    284.6 1.037e+04 4.605e-10
 44.08423    285.2 1.042e+04 4.943e-10
 44.10538    285.6 1.045e+04 4.972e-10
 44.11862    285.8 1.047e+04 4.966e-10
 44.12919    286.1 1.040e+04 4.934e-10
 44.15834    286.7 1.027e+04 4.349e-10
 44.20074    286.9 1.024e+04 4.412e-10
 44.22266    287.3 1.020e+04 4.380e-10
 44.24380    287.4 1.015e+04 4.267e-10
 44.28533    287.7 1.003e+04 4.115e-10
 44.31592    288.0 9.883e+03 3.857e-10
 44.33707    287.9 9.888e+03 3.914e-10
 44.36992    288.2 9.758e+03 3.589e-10
 44.40919    288.6 9.599e+03 3.174e-10
 44.43034    288.4 9.696e+03 3.528e-10
 44.45451    288.8 9.498e+03 3.052e-10
 44.49681    289.6 9.252e+03 2.515e-10
 44.52361    290.5 9.010e+03 2.066e-10
 44.54476    290.3 9.142e+03 2.516e-10
 44.58140    291.7 9.103e+03 2.397e-10
 44.61688    293.3 9.120e+03 2.411e-10
 44.63803    293.1 9.407e+03 3.135e-10
 44.66599    294.3 9.516e+03 3.334e-10
 44.70829    295.4 9.630e+03 3.561e-10
 44.73129    296.4 9.721e+03 3.740e-10
 44.74177    296.0 9.799e+03 4.237e-10
 44.76096    296.7 9.860e+03 4.409e-10
 44.77773    297.5 9.929e+03 4.629e-10
 44.78831    298.1 1.020e+04 5.800e-10
 44.80326    298.8 1.030e+04 6.155e-10
 44.82437    299.4 1.041e+04 6.484e-10
 44.84552    300.0 1.073e+04 7.576e-10
 44.86670    300.4 1.077e+04 7.597e-10
 44.88158    300.6 1.079e+04 7.566e-10
 44.89215    300.3 1.078e+04 7.517e-10
 44.90900    300.5 1.077e+04 7.401e-10
 44.92821    300.7 1.074e+04 7.235e-10
 44.93878    300.5 1.064e+04 6.911e-10
 44.95129    300.8 1.061e+04 6.737e-10
 44.97244    301.1 1.057e+04 6.593e-10
 44.98542    301.2 1.055e+04 6.485e-10
 44.99599    301.2 1.048e+04 6.205e-10
 45.01474    301.3 1.050e+04 6.195e-10
 45.03205    301.4 1.051e+04 6.160e-10
 45.04263    301.4 1.046e+04 6.026e-10
 45.05703    301.4 1.049e+04 6.020e-10
 45.07818    301.3 1.049e+04 5.978e-10
 45.08926    301.2 1.050e+04 5.804e-10
 45.09983    301.4 1.049e+04 5.953e-10
 45.12047    301.3 1.049e+04 5.702e-10
 45.13589    301.1 1.044e+04 5.248e-10
 45.14647    301.3 1.050e+04 5.703e-10
 45.16277    301.1 1.044e+04 5.207e-10
 45.18253    300.9 1.037e+04 4.636e-10
 45.19310    301.0 1.048e+04 5.181e-10
 45.20507    300.7 1.040e+04 4.556e-10
 45.22621    300.3 1.031e+04 4.047e-10
 45.23983    299.8 1.019e+04 3.681e-10
 45.25041    300.0 1.041e+04 4.194e-10
 45.26851    299.6 1.036e+04 4.086e-10
 45.28637    299.3 1.035e+04 4.076e-10
 45.29695    299.3 1.056e+04 4.683e-10
 45.31081    299.1 1.056e+04 4.696e-10
 45.33195    298.9 1.060e+04 4.756e-10
 45.34358    298.8 1.068e+04 4.866e-10
 45.35415    298.4 1.087e+04 5.523e-10
 45.36957    298.3 1.094e+04 5.584e-10
 45.38014    298.1 1.103e+04 5.856e-10
 45.39021    297.9 1.105e+04 5.808e-10
 45.40079    297.4 1.123e+04 6.555e-10
 45.41654    297.2 1.125e+04 6.504e-10
 45.43685    297.0 1.127e+04 6.506e-10
 45.44742    296.3 1.156e+04 7.808e-10
 45.45884    296.0 1.165e+04 8.194e-10
 45.47999    295.6 1.179e+04 8.844e-10
 45.49406    295.1 1.198e+04 9.843e-10
 45.50463    294.2 1.253e+04 1.370e-09
 45.52228    293.8 1.280e+04 1.590e-09
 45.54069    293.5 1.310e+04 1.860e-09
 45.55126    292.8 1.360e+04 2.457e-09
 45.56458    292.6 1.388e+04 2.729e-09
 45.58573    292.4 1.415e+04 2.868e-09
 45.59790    292.1 1.423e+04 2.869e-09
 45.60847    291.1 1.425e+04 2.865e-09
 45.62802    290.5 1.424e+04 2.814e-09
 45.64453    290.1 1.413e+04 2.613e-09
 45.65511    289.1 1.388e+04 2.353e-09
 45.67032    288.8 1.361e+04 2.086e-09
 45.69117    288.5 1.333e+04 1.813e-09
 45.70174    287.5 1.282e+04 1.399e-09
 45.71261    287.2 1.273e+04 1.268e-09
 45.73376    286.8 1.276e+04 1.250e-09
 45.74838    286.3 1.282e+04 1.258e-09
 45.75895    285.3 1.205e+04 8.973e-10
 45.77606    284.8 1.215e+04 9.238e-10
 45.79501    283.9 1.247e+04 1.007e-09
 45.80558    283.3 1.148e+04 7.141e-10
 45.81835    282.2 1.182e+04 8.105e-10
 45.83950    280.6 1.232e+04 1.004e-09
 45.85222    278.8 1.285e+04 1.319e-09
 45.86279    278.9 1.209e+04 1.054e-09
 45.88180    277.2 1.267e+04 1.424e-09
 45.89885    275.6 1.311e+04 1.721e-09
 45.90943    276.5 1.305e+04 1.715e-09
 45.92409    274.9 1.323e+04 1.769e-09
 45.94524    273.1 1.318e+04 1.717e-09
 45.95606    271.3 1.289e+04 1.463e-09
 45.96663    272.6 1.309e+04 1.614e-09
 45.98754    270.8 1.251e+04 1.192e-09
 46.00269    268.9 1.160e+04 7.684e-10
 46.01327    270.4 1.195e+04 8.961e-10
 46.02983    268.3 1.088e+04 5.625e-10
 46.04933    266.1 1.034e+04 4.625e-10
 46.05990    267.6 1.051e+04 4.988e-10
 46.07213    265.5 1.046e+04 4.950e-10
 46.09328    263.8 1.053e+04 5.150e-10
 46.10654    262.1 1.092e+04 6.151e-10
 46.11711    262.9 1.110e+04 6.752e-10
 46.13557    261.2 1.171e+04 8.855e-10
 46.15317    259.6 1.234e+04 1.174e-09
 46.16375    260.0 1.290e+04 1.466e-09
 46.17787    258.4 1.350e+04 1.831e-09
 46.19902    256.7 1.396e+04 2.031e-09
 46.21038    254.9 1.406e+04 2.042e-09
 46.22095    255.0 1.513e+04 2.991e-09
 46.24131    252.9 1.512e+04 2.947e-09
 46.25701    250.9 1.500e+04 2.773e-09
 46.26759    250.6 1.589e+04 3.659e-09
 46.28361    248.7 1.571e+04 3.413e-09
 46.30365    247.1 1.540e+04 3.057e-09
 46.31417    246.5 1.570e+04 3.350e-09
 46.32585    245.3 1.587e+04 3.292e-09
 46.34705    242.9 1.576e+04 2.928e-09
 46.36086    239.7 1.584e+04 2.920e-09
 46.36609    239.4 1.630e+04 3.375e-09
 46.37339    238.1 1.631e+04 3.401e-09
 46.38396    235.2 1.659e+04 3.638e-09
 46.38936    233.4 1.678e+04 3.884e-09
 46.39465    232.2 1.724e+04 4.541e-09
 46.40744    228.7 1.788e+04 5.786e-09
 46.41802    226.0 1.870e+04 7.961e-09
 46.43159    221.7 1.972e+04 1.169e-08
 46.45279    216.8 1.977e+04 1.199e-08
 46.46470    212.4 1.940e+04 1.043e-08
 46.47527    208.8 2.041e+04 1.188e-08
 46.49509    200.6 2.009e+04 7.209e-09
 46.51133    188.4 2.058e+04 6.578e-09
 46.52191    175.0 2.277e+04 1.029e-08
 46.53738    164.2 2.183e+04 1.368e-08
 46.55797    158.2 2.130e+04 1.572e-08
 46.56854    151.0 2.137e+04 1.478e-08
 46.57968    148.0 2.167e+04 1.114e-08
 46.60082    144.2 2.173e+04 6.446e-09
 46.61518    138.8 2.035e+04 3.107e-09
 46.62575    128.7 1.413e+04 1.618e-09
 46.64312    125.7 1.161e+04 1.343e-09
 46.66181    125.3 1.127e+04 1.220e-09
 46.67238    124.8 1.130e+04 1.073e-09
 46.67801    125.0 1.087e+04 7.872e-10
 46.69925    123.9 1.004e+04 4.824e-10
 46.73848    123.7 9.099e+03 2.588e-10
 46.76585    123.1 7.995e+03 1.437e-10
 46.78700    120.2 7.078e+03 7.559e-11
 46.82307    121.1 7.062e+03 7.678e-11
 46.85912    122.6 7.124e+03 8.681e-11
 46.88026    122.5 7.087e+03 8.654e-11
 46.90766    124.5 7.257e+03 1.009e-10
 46.94996    126.4 7.398e+03 1.143e-10
 46.97353    128.3 7.513e+03 1.258e-10
 46.99468    128.1 7.516e+03 1.297e-10
 47.03455    129.9 7.662e+03 1.459e-10
 47.06680    131.7 7.841e+03 1.671e-10
 47.08795    131.1 8.049e+03 2.024e-10
 47.11914    132.6 8.470e+03 2.658e-10
 47.16007    134.0 8.946e+03 3.520e-10
 47.18122    133.1 9.698e+03 5.615e-10
 47.20373    134.6 1.019e+04 7.255e-10
 47.24603    136.2 1.046e+04 8.142e-10
 47.27449    137.7 1.047e+04 7.985e-10
 47.29563    136.8 1.059e+04 7.893e-10
 47.33062    138.3 1.020e+04 5.737e-10
 47.36775    139.6 9.650e+03 3.579e-10
 47.38890    137.8 8.966e+03 1.971e-10
 47.41521    138.6 8.186e+03 1.089e-10
 47.45751    139.7 7.624e+03 7.548e-11
 47.48217    141.4 7.453e+03 7.120e-11
 47.50332    140.7 7.491e+03 7.338e-11
 47.54210    143.4 7.487e+03 7.351e-11
 47.57544    146.2 7.491e+03 7.452e-11
 47.59659    146.0 7.588e+03 7.806e-11
 47.62669    148.8 7.648e+03 8.318e-11
 47.66871    151.5 7.768e+03 9.410e-11
 47.68986    151.3 7.920e+03 1.058e-10
 47.71128    153.9 8.098e+03 1.272e-10
 47.75358    156.5 8.300e+03 1.547e-10
 47.78312    159.0 8.505e+03 1.854e-10
 47.80427    159.0 8.696e+03 2.196e-10
 47.83817    161.5 8.903e+03 2.566e-10
 47.87639    163.9 9.093e+03 2.906e-10
 47.89754    164.2 9.223e+03 3.227e-10
 47.92276    166.6 9.380e+03 3.497e-10
 47.96506    168.9 9.554e+03 3.779e-10
 47.99081    171.0 9.749e+03 4.159e-10
 48.01196    171.7 9.593e+03 3.701e-10
 48.04965    174.1 9.781e+03 3.963e-10
 48.08408    176.4 1.002e+04 4.354e-10
 48.10523    177.1 9.591e+03 2.874e-10
 48.13424    179.5 9.738e+03 3.062e-10
 48.17654    181.9 9.914e+03 3.309e-10
 48.19849    184.6 1.010e+04 3.601e-10
 48.21964    185.0 9.763e+03 2.664e-10
 48.26113    187.6 9.969e+03 3.053e-10
 48.29167    188.7 9.940e+03 3.160e-10
 48.31281    190.1 9.879e+03 3.045e-10
 48.33505    191.2 9.838e+03 3.345e-10
 48.34878    192.6 9.884e+03 3.945e-10
 48.35935    192.3 9.901e+03 3.841e-10
 48.37725    193.5 1.017e+04 4.915e-10
 48.39541    193.8 1.103e+04 6.963e-10
 48.40598    194.4 1.047e+04 6.086e-10
 48.41954    194.6 1.126e+04 8.476e-10
 48.44069    194.7 1.244e+04 1.206e-09
 48.45262    194.5 1.365e+04 1.701e-09
 48.46319    195.1 1.235e+04 1.325e-09
 48.48298    194.8 1.321e+04 1.673e-09
 48.49925    194.4 1.379e+04 1.975e-09
 48.50983    195.2 1.303e+04 1.663e-09
 48.52528    194.9 1.334e+04 1.807e-09
 48.54589    194.6 1.332e+04 1.806e-09
 48.55646    195.5 1.302e+04 1.664e-09
 48.56758    195.5 1.297e+04 1.644e-09
 48.58872    195.5 1.276e+04 1.569e-09
 48.60310    195.7 1.243e+04 1.443e-09
 48.61367    196.7 1.250e+04 1.462e-09
 48.63102    197.0 1.221e+04 1.342e-09
 48.64973    197.4 1.191e+04 1.206e-09
 48.66030    198.3 1.207e+04 1.273e-09
 48.67332    198.7 1.178e+04 1.146e-09
 48.69446    199.2 1.150e+04 1.026e-09
 48.70694    199.8 1.126e+04 9.226e-10
 48.71751    200.8 1.142e+04 1.001e-09
 48.73676    201.4 1.122e+04 9.168e-10
 48.75357    202.1 1.107e+04 8.501e-10
 48.76415    202.9 1.120e+04 9.187e-10
 48.77905    203.6 1.108e+04 8.651e-10
 48.80020    204.4 1.099e+04 8.225e-10
 48.82135    205.8 1.103e+04 8.440e-10
 48.84250    206.6 1.097e+04 8.127e-10
 48.85741    207.5 1.092e+04 7.850e-10
 48.86799    208.2 1.102e+04 8.375e-10
 48.88479    209.0 1.098e+04 8.136e-10
 48.90405    210.0 1.093e+04 7.935e-10
 48.91462    210.7 1.104e+04 8.464e-10
 48.92709    211.7 1.102e+04 8.317e-10
 48.94824    212.7 1.100e+04 8.285e-10
 48.96126    213.9 1.101e+04 8.314e-10
 48.97183    214.6 1.115e+04 8.880e-10
 48.99053    215.7 1.119e+04 9.012e-10
 49.00789    216.9 1.126e+04 9.274e-10
 49.01847    217.5 1.141e+04 9.892e-10
 49.03283    218.7 1.153e+04 1.033e-09
 49.05398    219.9 1.168e+04 1.092e-09
 49.06510    221.1 1.185e+04 1.165e-09
 49.07567    221.7 1.206e+04 1.246e-09
 49.09627    222.9 1.227e+04 1.346e-09
 49.11173    224.0 1.249e+04 1.458e-09
 49.12231    224.5 1.275e+04 1.575e-09
 49.13857    225.6 1.299e+04 1.717e-09
 49.15837    226.7 1.320e+04 1.857e-09
 49.16894    227.1 1.347e+04 2.017e-09
 49.18086    228.1 1.364e+04 2.150e-09
 49.20201    229.2 1.375e+04 2.248e-09
 49.21558    230.2 1.380e+04 2.310e-09
 49.22615    230.6 1.399e+04 2.463e-09
 49.24431    231.7 1.401e+04 2.497e-09
 49.26221    232.8 1.400e+04 2.504e-09
 49.27278    233.2 1.415e+04 2.635e-09
 49.28402    234.4 1.412e+04 2.613e-09
 49.29460    233.7 1.432e+04 2.837e-09
 49.30775    234.8 1.418e+04 2.676e-09
 49.31942    236.0 1.403e+04 2.519e-09
 49.32999    236.4 1.412e+04 2.598e-09
 49.35005    237.6 1.393e+04 2.426e-09
 49.36605    238.9 1.372e+04 2.237e-09
 49.37663    239.3 1.376e+04 2.250e-09
 49.39234    240.7 1.353e+04 2.050e-09
 49.41269    242.1 1.336e+04 1.884e-09
 49.42326    242.5 1.338e+04 1.889e-09
 49.43464    243.9 1.340e+04 1.833e-09
 49.45579    245.1 1.342e+04 1.839e-09
 49.46990    246.4 1.352e+04 1.881e-09
 49.48047    246.9 1.363e+04 1.920e-09
 49.49808    248.0 1.390e+04 2.089e-09
 49.51653    249.1 1.433e+04 2.425e-09
 49.52710    249.7 1.454e+04 2.548e-09
 49.54038    251.1 1.524e+04 3.155e-09
 49.56153    252.5 1.619e+04 4.131e-09
 49.57374    252.8 1.684e+04 4.939e-09
 49.57898    253.3 1.682e+04 5.007e-09
 49.58786    253.6 1.706e+04 5.384e-09
 49.59696    254.0 1.738e+04 5.858e-09
 49.60224    254.6 1.752e+04 6.147e-09
 49.60901    255.0 1.796e+04 6.885e-09
 49.61958    255.4 1.840e+04 7.725e-09
 49.62556    255.6 1.882e+04 8.590e-09
 49.63085    256.0 1.904e+04 9.266e-09
 49.64073    256.2 1.948e+04 1.033e-08
 49.64888    256.1 1.992e+04 1.135e-08
 49.65417    256.3 2.018e+04 1.253e-08
 49.66188    255.7 2.069e+04 1.394e-08
 49.67220    255.1 2.104e+04 1.507e-08
 49.67748    254.7 2.148e+04 1.735e-08
 49.68303    251.3 2.333e+04 2.195e-08
 49.69360    245.7 2.674e+04 2.943e-08
 49.70078    241.3 2.882e+04 3.918e-08
 49.70339    235.1 3.085e+04 6.889e-08
 49.70677    221.1 2.843e+04 3.392e-07
 49.71206    197.1 2.213e+04 3.445e-06
 49.71505    174.0 2.049e+04 7.703e-06
 49.71770    161.7 2.118e+04 6.159e-06
 49.72263    146.2 2.267e+04 3.099e-06
 49.72671    136.3 2.977e+04 5.623e-07
 49.72936    134.5 3.826e+04 1.884e-07
 49.73587    113.0 4.592e+04 2.529e-08
 49.74647     98.6 2.527e+04 1.419e-08
 49.75272     97.0 2.330e+04 1.044e-08
 49.75801     97.5 2.296e+04 1.022e-08
 49.77080     94.9 2.197e+04 5.310e-09
 49.78142     94.1 2.205e+04 3.351e-09
 49.79415     88.1 1.650e+04 1.448e-09
 49.81530     85.1 1.328e+04 1.071e-09
 49.82806     85.1 1.274e+04 9.302e-10
 49.83863     84.6 1.241e+04 8.835e-10
 49.85760     85.1 1.227e+04 8.097e-10
 49.87469     85.4 1.209e+04 7.696e-10
 49.88527     84.9 1.208e+04 8.535e-10
 49.89989     84.8 1.212e+04 8.714e-10
 49.92104     84.6 1.225e+04 9.345e-10
 49.93190     84.4 1.247e+04 1.045e-09
 49.94247     84.0 1.273e+04 1.221e-09
 49.96333     84.0 1.292e+04 1.351e-09
 49.97853     84.0 1.305e+04 1.463e-09
 49.98911     83.6 1.308e+04 1.523e-09
 50.00563     84.0 1.306e+04 1.528e-09
 50.02517     84.6 1.315e+04 1.487e-09
 50.03574     83.6 1.280e+04 1.253e-09
 50.04793     82.1 1.374e+04 1.235e-09
 50.06907     68.1 3.212e+04 1.519e-09
 50.08233     55.7 3.736e+04 4.384e-09
 50.08757     54.9 3.356e+04 3.618e-09
 50.09541     50.3 3.468e+04 5.640e-09
 50.10560     46.2 3.996e+04 4.302e-09
 50.11088     48.4 3.831e+04 3.333e-09
 50.11656     34.3 4.609e+04 4.668e-09
 50.12713     15.1 4.560e+04 1.548e-08
 50.13420      3.4 3.331e+04 9.150e-08
 50.13949      7.6 3.360e+04 6.515e-08
 50.14828      2.5 3.256e+04 9.335e-08
 50.15752     -0.0 3.142e+04 8.812e-08
 50.16280      3.3 3.176e+04 6.331e-08
 50.16943      0.8 3.126e+04 4.590e-08
 50.18000     -2.1 2.844e+04 2.629e-08
 50.18612     -3.4 2.493e+04 1.505e-08
 50.19141     -0.2 2.496e+04 1.543e-08
 50.20115     -1.1 2.307e+04 1.167e-08
 50.20944     -0.4 2.119e+04 8.932e-09
 50.21473      2.3 2.186e+04 9.720e-09
 50.22230      2.1 2.132e+04 8.814e-09
 50.23276      2.8 1.977e+04 7.223e-09
 50.24338      5.2 1.983e+04 7.948e-09
 50.25941      6.0 1.855e+04 6.638e-09
 50.27949      6.8 1.766e+04 5.965e-09
 50.29006      9.7 1.784e+04 6.076e-09
 50.30170     10.2 1.736e+04 5.796e-09
 50.32285     10.7 1.719e+04 5.729e-09
 50.33670     10.9 1.717e+04 5.650e-09
 50.34727     13.6 1.740e+04 5.861e-09
 50.36514     13.3 1.762e+04 6.111e-09
 50.38333     12.7 1.758e+04 6.154e-09
 50.39390     15.3 1.795e+04 6.395e-09
 50.40744     14.6 1.774e+04 6.384e-09
 50.42859     14.5 1.724e+04 6.213e-09
 50.44054     14.8 1.663e+04 6.052e-09
 50.45111     16.1 1.719e+04 6.071e-09
 50.47088     16.2 1.664e+04 5.865e-09
 50.48717     16.6 1.603e+04 5.465e-09
 50.49775     17.6 1.624e+04 5.149e-09
 50.51318     17.9 1.562e+04 4.742e-09
 50.53381     18.5 1.503e+04 4.073e-09
 50.54438     19.6 1.489e+04 3.638e-09
 50.55548     20.2 1.442e+04 3.106e-09
 50.57662     20.7 1.408e+04 2.627e-09
 50.59102     21.0 1.371e+04 2.195e-09
 50.59618     21.7 1.334e+04 1.938e-09
 50.60294     20.9 1.297e+04 1.661e-09
 50.61892     20.9 1.270e+04 1.439e-09
 50.63765     20.7 1.249e+04 1.302e-09
 50.64822     21.5 1.250e+04 1.244e-09
 50.66121     21.3 1.248e+04 1.236e-09
 50.68236     21.3 1.244e+04 1.256e-09
 50.69486     21.6 1.237e+04 1.294e-09
 50.70543     22.5 1.239e+04 1.274e-09
 50.72466     23.1 1.236e+04 1.307e-09
 50.74149     23.4 1.248e+04 1.378e-09
 50.75207     23.9 1.315e+04 1.565e-09
 50.76695     21.9 1.469e+04 2.177e-09
 50.78810     17.9 1.697e+04 3.715e-09
 50.80925     16.1 1.917e+04 9.431e-09
 50.82197     17.8 1.868e+04 9.704e-09
 50.82721     16.7 1.977e+04 1.171e-08
 50.83559     16.7 2.020e+04 1.269e-08
 50.84524     16.2 2.044e+04 1.250e-08
 50.85052     15.6 2.274e+04 2.144e-08
 50.85673     14.9 2.283e+04 1.946e-08
 50.86731     14.0 2.264e+04 1.514e-08
 50.87384     12.7 2.196e+04 1.143e-08
 50.87913     13.5 2.365e+04 1.558e-08
 50.88846     10.1 2.224e+04 8.780e-09
 50.89716      9.1 2.136e+04 7.932e-09
 50.90244      2.6 2.417e+04 1.040e-08
 50.90960     -2.3 2.275e+04 8.248e-09
 50.92018     -2.6 2.240e+04 8.017e-09
 50.93609     -6.2 2.050e+04 6.963e-09
 50.94918     -7.7 1.881e+04 6.754e-09
 50.95441     -8.8 1.852e+04 9.225e-09
 50.96247     -8.9 1.818e+04 8.872e-09
 50.97240     -8.8 1.715e+04 8.607e-09
 50.97768     -9.2 1.701e+04 8.844e-09
 50.98362     -9.1 1.663e+04 8.332e-09
 50.99420     -8.6 1.617e+04 7.881e-09
 51.00100     -7.9 1.609e+04 7.736e-09
 51.00629     -7.7 1.643e+04 7.766e-09
 51.01534     -7.1 1.663e+04 7.311e-09
 51.02432     -6.6 1.675e+04 7.032e-09
 51.02960     -6.7 1.758e+04 6.062e-09
 51.03649     -6.6 1.750e+04 5.285e-09
 51.04707     -6.5 1.715e+04 5.073e-09
 51.05297     -6.8 1.656e+04 4.277e-09
 51.06359     -9.8 1.539e+04 2.676e-09
 51.08417    -11.1 1.398e+04 1.900e-09
 51.09965    -11.4 1.347e+04 1.623e-09
 51.11023    -12.8 1.326e+04 1.447e-09
 51.12647    -12.5 1.294e+04 1.317e-09
 51.14629    -12.0 1.270e+04 1.214e-09
 51.15686    -16.3 1.777e+04 1.489e-09
 51.16876    -16.5 1.856e+04 1.463e-09
 51.18991    -16.4 1.864e+04 1.408e-09
 51.20350    -16.3 1.844e+04 1.308e-09
 51.21407    -21.0 1.878e+04 4.425e-09
 51.23221    -20.6 1.815e+04 4.020e-09
 51.25013    -20.3 1.711e+04 3.705e-09
 51.26070    -21.5 1.745e+04 8.160e-09
 51.27450    -20.6 1.699e+04 6.803e-09
 51.29565    -19.6 1.670e+04 5.899e-09
 51.30734    -18.7 1.633e+04 5.082e-09
 51.31791    -19.3 1.677e+04 6.456e-09
 51.33795    -18.2 1.633e+04 5.440e-09
 51.35397    -17.5 1.597e+04 4.810e-09
 51.36455    -18.4 1.577e+04 4.442e-09
 51.38024    -17.9 1.516e+04 3.668e-09
 51.40061    -17.1 1.460e+04 3.113e-09
 51.41118    -18.4 1.361e+04 2.001e-09
 51.42254    -17.6 1.309e+04 1.782e-09
 51.44369    -16.5 1.263e+04 1.588e-09
 51.45782    -15.0 1.223e+04 1.402e-09
 51.46839    -15.8 1.147e+04 9.621e-10
 51.48598    -14.2 1.126e+04 8.784e-10
 51.50445    -12.8 1.106e+04 7.798e-10
 51.51502    -13.3 1.051e+04 5.767e-10
 51.52828    -11.9 1.037e+04 5.316e-10
 51.54942    -10.0 1.014e+04 4.400e-10
 51.56166     -9.4 1.010e+04 4.103e-10
 51.57233    -10.0 9.890e+03 3.682e-10
 51.60249     -7.5 9.863e+03 3.363e-10
 51.64455     -5.0 9.780e+03 3.004e-10
 51.66570     -5.0 9.525e+03 2.720e-10
 51.68708     -2.7 9.463e+03 2.436e-10
 51.72938     -0.5 9.473e+03 2.358e-10
 51.75896      1.5 9.514e+03 2.401e-10
 51.78011      1.6 9.405e+03 2.327e-10
 51.81397      3.6 9.542e+03 2.483e-10
 51.85223      5.5 9.688e+03 2.648e-10
 51.87338      5.8 9.585e+03 2.541e-10
 51.89033      7.8 9.704e+03 2.591e-10
 51.91148      7.5 9.717e+03 2.520e-10
 51.94086      9.4 9.870e+03 2.546e-10
 51.96665     11.2 1.005e+04 2.610e-10
 51.98780     11.5 9.828e+03 2.330e-10
 52.02545     13.1 1.006e+04 2.438e-10
 52.05992     14.7 1.028e+04 2.666e-10
 52.08107     15.1 1.006e+04 2.299e-10
 52.11004     16.9 1.026e+04 2.515e-10
 52.15233     18.6 1.037e+04 2.639e-10
 52.17433     20.2 1.042e+04 2.634e-10
 52.19548     20.7 1.024e+04 2.105e-10
 52.23693     22.1 1.029e+04 2.128e-10
 52.26760     23.3 1.040e+04 2.254e-10
 52.28875     23.8 1.034e+04 2.092e-10
 52.32152     25.0 1.054e+04 2.505e-10
 52.36087     26.1 1.069e+04 2.836e-10
 52.38202     26.8 1.057e+04 2.882e-10
 52.40611     28.0 1.057e+04 2.834e-10
 52.44840     29.4 1.041e+04 2.432e-10
 52.47529     30.6 1.012e+04 1.728e-10
 52.49644     31.6 1.031e+04 2.112e-10
 52.53300     32.4 9.998e+03 1.495e-10
 52.56856     33.3 9.871e+03 1.406e-10
 52.58970     33.9 1.025e+04 2.055e-10
 52.61759     35.0 1.016e+04 2.054e-10
 52.65988     36.3 1.022e+04 2.236e-10
 52.68297     37.6 1.045e+04 2.796e-10
 52.70412     37.8 1.071e+04 3.652e-10
 52.72951     38.5 1.102e+04 4.566e-10
 52.73999     38.4 1.108e+04 4.583e-10
 52.75485     38.6 1.115e+04 5.154e-10
 52.77600     38.7 1.149e+04 6.430e-10
 52.79715     38.5 1.258e+04 1.161e-09
 52.81830     39.4 1.276e+04 1.324e-09
 52.83325     40.4 1.291e+04 1.457e-09
 52.84383     39.6 1.395e+04 1.972e-09
 52.86059     40.6 1.418e+04 2.089e-09
 52.87989     41.2 1.465e+04 2.273e-09
 52.89046     39.4 1.573e+04 3.022e-09
 52.90289     39.5 1.637e+04 3.459e-09
 52.92404     39.4 1.710e+04 4.272e-09
 52.93710     39.3 1.783e+04 5.600e-09
 52.94767     37.8 1.817e+04 6.829e-09
 52.96633     38.0 1.878e+04 8.689e-09
 52.98373     37.9 1.956e+04 1.115e-08
 52.99430     36.5 1.925e+04 1.058e-08
 53.00863     36.3 1.997e+04 1.327e-08
 53.02977     36.0 2.067e+04 1.600e-08
 53.04089     35.0 2.108e+04 1.747e-08
 53.04613     34.6 2.035e+04 1.430e-08
 53.05611     34.0 2.070e+04 1.633e-08
 53.06416     33.5 2.080e+04 1.821e-08
 53.06945     33.2 1.996e+04 1.410e-08
 53.07726     32.9 1.980e+04 1.525e-08
 53.08748     32.9 1.983e+04 1.667e-08
 53.09276     32.8 1.887e+04 1.194e-08
 53.09841     32.7 1.880e+04 1.261e-08
 53.10898     32.6 1.876e+04 1.261e-08
 53.11608     32.6 1.858e+04 1.223e-08
 53.12137     32.6 1.776e+04 8.799e-09
 53.13013     32.6 1.754e+04 8.510e-09
 53.13940     32.7 1.740e+04 8.107e-09
 53.14468     32.3 1.668e+04 6.179e-09
 53.15128     32.2 1.657e+04 6.067e-09
 53.16185     32.1 1.651e+04 5.920e-09
 53.16800     31.9 1.654e+04 5.700e-09
 53.17329     31.9 1.618e+04 5.221e-09
 53.18300     31.8 1.625e+04 5.219e-09
 53.19132     31.7 1.643e+04 5.194e-09
 53.20146     32.1 1.617e+04 5.144e-09
 53.20905     31.4 1.588e+04 4.861e-09
 53.22011     31.0 1.620e+04 5.192e-09
 53.23592     30.7 1.647e+04 5.532e-09
 53.24324     30.2 1.676e+04 5.757e-09
 53.24853     30.5 1.664e+04 6.277e-09
 53.25702     30.0 1.693e+04 6.602e-09
 53.26656     29.4 1.714e+04 6.690e-09
 53.27184     29.7 1.726e+04 7.402e-09
 53.27816     29.0 1.732e+04 7.305e-09
 53.28874     28.1 1.754e+04 7.010e-09
 53.29516     26.6 1.789e+04 6.895e-09
 53.30045     28.0 1.754e+04 6.606e-09
 53.30989     26.4 1.780e+04 6.265e-09
 53.31848     24.4 1.785e+04 6.218e-09
 53.32376     25.8 1.763e+04 5.427e-09
 53.33103     24.2 1.743e+04 5.185e-09
 53.34184     21.0 1.710e+04 5.566e-09
 53.35247     23.8 1.701e+04 4.217e-09
 53.36814     19.9 1.585e+04 3.962e-09
 53.38853     17.1 1.535e+04 3.962e-09
 53.39910     18.5 1.481e+04 3.082e-09
 53.41044     16.3 1.489e+04 3.498e-09
 53.43158     12.7 1.719e+04 5.321e-09
 53.44573      7.3 2.051e+04 9.958e-09
 53.45631     10.9 1.923e+04 7.637e-09
 53.47388      5.7 2.117e+04 1.531e-08
 53.49237      2.5 2.019e+04 1.741e-08
 53.50294      5.1 2.136e+04 2.160e-08
 53.51618      3.0 2.023e+04 2.056e-08
 53.53732      1.9 1.831e+04 1.346e-08
 53.54958      1.0 1.679e+04 6.526e-09
 53.56015      1.4 1.759e+04 1.061e-08
 53.57962      0.3 1.603e+04 4.871e-09
 53.59621     -1.8 1.526e+04 1.863e-09
 53.60679     -0.4 1.500e+04 3.780e-09
 53.62192     -2.0 1.447e+04 1.611e-09
 53.64285     -4.0 1.360e+04 6.221e-10
 53.65342     -1.4 1.405e+04 1.491e-09
 53.66421     -3.1 1.295e+04 6.639e-10
 53.68536     -4.7 1.171e+04 3.709e-10
 53.70005    -10.8 1.979e+04 5.986e-10
 53.71063     -3.5 1.201e+04 4.718e-10
 53.72765    -10.1 2.166e+04 9.026e-10
 53.74669    -14.0 2.388e+04 3.477e-09
 53.75726    -11.4 2.631e+04 1.467e-09
 53.76995    -14.0 2.381e+04 6.570e-09
 53.78576    -12.7 2.041e+04 1.619e-08
 53.79629    -12.2 1.931e+04 2.133e-08
 53.80380    -10.5 1.778e+04 3.007e-08
 53.80909    -10.8 1.830e+04 3.296e-08
 53.81744     -9.2 1.787e+04 3.873e-08
 53.82712     -7.6 1.838e+04 4.823e-08
 53.83240     -7.7 1.860e+04 5.141e-08
 53.83858     -6.2 1.920e+04 5.982e-08
 53.84916     -5.3 1.883e+04 5.519e-08
 53.85572     -3.6 1.853e+04 4.433e-08
 53.85912     -3.3 1.863e+04 4.293e-08
 53.86313     -3.3 1.834e+04 3.860e-08
 53.87030     -2.5 1.851e+04 3.620e-08
 53.87904     -2.2 1.867e+04 3.428e-08
 53.88432     -2.7 1.862e+04 3.459e-08
 53.89145     -2.5 1.895e+04 3.442e-08
 53.90203     -2.5 2.249e+04 2.173e-08
 53.90764     -5.3 3.349e+04 8.535e-09
 53.91293     -2.3 2.282e+04 2.247e-08
 53.92317     -5.8 3.357e+04 1.070e-08
 53.93096    -10.6 4.944e+04 4.243e-09
 53.93625     -4.2 3.043e+04 1.813e-08
 53.94432     -8.6 4.771e+04 5.787e-09
 53.95432    -17.7 3.654e+04 2.551e-09
 53.95961     -8.3 4.732e+04 8.130e-09
 53.96547     -9.9 5.215e+04 4.307e-09
 53.98138    -15.2 3.825e+04 3.590e-09
 54.00101    -27.7 1.744e+04 4.473e-09
 54.01153    -27.2 1.620e+04 4.529e-09
 54.02368    -28.9 1.879e+04 7.653e-09
 54.04487    -32.4 2.229e+04 1.334e-08
 54.05817    -33.8 2.287e+04 1.674e-08
 54.06341    -32.0 2.220e+04 1.551e-08
 54.07121    -34.3 2.324e+04 1.791e-08
 54.08144    -37.5 2.414e+04 2.054e-08
 54.08672    -35.4 2.385e+04 2.027e-08
 54.09236    -38.5 2.452e+04 2.131e-08
 54.10293    -42.2 2.462e+04 1.984e-08
 54.11004    -46.7 2.384e+04 1.394e-08
 54.11533    -44.1 2.465e+04 1.610e-08
 54.12408    -49.3 2.281e+04 1.065e-08
 54.13336    -52.9 2.139e+04 8.771e-09
 54.13864    -51.7 2.196e+04 9.064e-09
 54.15056    -56.8 2.074e+04 8.195e-09
 54.16206    -63.7 1.974e+04 8.204e-09
 54.17263    -61.1 2.014e+04 8.313e-09
 54.19291    -66.9 1.952e+04 8.527e-09
 54.20869    -70.3 1.946e+04 9.558e-09
 54.21927    -69.5 1.946e+04 9.969e-09
 54.23520    -72.5 1.999e+04 1.079e-08
 54.25533    -75.2 1.999e+04 1.124e-08
 54.26590    -74.5 2.011e+04 1.144e-08
 54.27750    -76.8 1.984e+04 1.134e-08
 54.29865    -78.4 1.910e+04 9.640e-09
 54.31253    -79.5 1.818e+04 6.579e-09
 54.32311    -78.8 1.814e+04 6.748e-09
 54.34094    -79.8 1.694e+04 3.811e-09
 54.35917    -81.6 1.542e+04 1.874e-09
 54.36974    -80.5 1.524e+04 1.800e-09
 54.38324    -83.3 1.318e+04 8.825e-10
 54.40439    -86.3 1.188e+04 6.266e-10
 54.41638    -87.9 1.168e+04 5.935e-10
 54.42695    -87.1 1.149e+04 5.090e-10
 54.44668    -87.5 1.142e+04 5.134e-10
 54.46301    -87.4 1.150e+04 5.700e-10
 54.47359    -86.2 1.131e+04 5.009e-10
 54.48898    -86.0 1.143e+04 5.589e-10
 54.50682    -85.8 1.152e+04 6.064e-10
 54.51692    -85.3 1.161e+04 6.580e-10
 54.52022    -84.2 1.144e+04 6.037e-10
 54.53127    -83.9 1.152e+04 6.411e-10
 54.55242    -83.7 1.155e+04 6.541e-10
 54.56685    -83.5 1.155e+04 6.553e-10
 54.57743    -82.4 1.148e+04 6.402e-10
 54.59472    -82.2 1.145e+04 6.143e-10
 54.61349    -82.0 1.129e+04 5.564e-10
 54.62406    -81.0 1.134e+04 5.858e-10
 54.63701    -80.8 1.123e+04 5.451e-10
 54.65816    -80.2 1.121e+04 5.368e-10
 54.68998    -78.8 1.128e+04 5.554e-10
 54.71753    -78.1 1.128e+04 5.514e-10
 54.73867    -76.9 1.160e+04 6.524e-10
 54.77467    -76.9 1.165e+04 6.854e-10
 54.81079    -77.6 1.179e+04 7.473e-10
 54.83194    -76.8 1.220e+04 8.149e-10
 54.85926    -77.8 1.231e+04 7.955e-10
 54.90156    -79.0 1.209e+04 6.295e-10
 54.92521    -80.6 1.140e+04 3.899e-10
 54.94636    -80.9 1.139e+04 3.252e-10
 54.98615    -83.3 1.007e+04 1.944e-10
 55.01848    -85.5 9.398e+03 1.569e-10
 55.03963    -86.3 9.397e+03 1.712e-10
 55.07074    -87.5 9.179e+03 1.741e-10
 55.11175    -88.1 9.330e+03 1.933e-10
 55.13290    -89.7 9.891e+03 2.679e-10
 55.15533    -90.5 1.060e+04 3.842e-10
 55.19763    -91.1 1.126e+04 5.859e-10
 55.22616    -91.1 1.174e+04 8.212e-10
 55.23664    -92.4 1.219e+04 1.098e-09
 55.25030    -92.5 1.237e+04 1.241e-09
 55.27145    -92.5 1.255e+04 1.387e-09
 55.28318    -92.8 1.265e+04 1.423e-09
 55.29375    -93.5 1.289e+04 1.600e-09
 55.31934    -93.3 1.275e+04 1.446e-09
 55.34048    -94.3 1.259e+04 1.275e-09
 55.35604    -94.3 1.224e+04 1.067e-09
 55.37645    -94.1 1.209e+04 9.723e-10
 55.38702    -95.9 1.260e+04 1.070e-09
 55.39834    -96.4 1.285e+04 1.039e-09
 55.41948    -97.4 1.358e+04 1.115e-09
 55.43365    -99.2 1.488e+04 1.418e-09
 55.44423   -104.3 1.783e+04 4.720e-09
 55.46178   -106.4 1.874e+04 7.591e-09
 55.48029   -108.3 1.953e+04 1.199e-08
 55.49086   -109.4 1.973e+04 1.786e-08
 55.49874   -109.8 2.016e+04 2.115e-08
 55.50880   -110.5 2.055e+04 2.611e-08
 55.51408   -110.7 2.054e+04 2.594e-08
 55.51984   -111.1 2.087e+04 3.174e-08
 55.53041   -111.7 2.102e+04 3.602e-08
 55.53740   -112.2 2.106e+04 3.714e-08
 55.54269   -112.5 2.138e+04 2.219e-08
 55.55156   -113.1 2.189e+04 1.972e-08
 55.56072   -113.8 2.235e+04 1.691e-08
 55.56600   -115.3 2.229e+04 1.006e-08
 55.57271   -116.8 2.225e+04 8.495e-09
 55.58328   -118.6 2.201e+04 7.278e-09
 55.58932   -120.1 2.149e+04 6.965e-09
 55.59466   -123.3 1.858e+04 3.077e-09
 55.60981   -126.5 1.627e+04 2.334e-09
 55.63077   -128.4 1.482e+04 2.146e-09
 55.64134   -129.9 1.211e+04 1.343e-09
 55.65211   -130.3 1.210e+04 1.341e-09
 55.67326   -130.4 1.216e+04 1.339e-09
 55.68797   -130.3 1.222e+04 1.340e-09
 55.69855   -129.9 1.174e+04 1.122e-09
 55.71555   -129.7 1.171e+04 1.076e-09
 55.73461   -129.4 1.157e+04 1.008e-09
 55.74518   -129.0 1.119e+04 8.903e-10
 55.75785   -128.5 1.099e+04 8.183e-10
 55.77900   -127.9 1.079e+04 7.491e-10
 55.79182   -127.2 1.060e+04 6.908e-10
 55.80239   -126.7 1.044e+04 6.363e-10
 55.81516   -125.9 1.030e+04 5.935e-10
 55.82574   -125.7 1.021e+04 5.586e-10
 55.83845   -124.9 1.009e+04 5.262e-10
 55.84902   -124.2 9.984e+03 4.846e-10
 55.86359   -123.3 9.931e+03 4.684e-10
 55.88474   -122.6 9.932e+03 4.635e-10
 55.91656   -121.9 9.985e+03 4.624e-10
 55.94249   -120.2 9.947e+03 4.596e-10
 55.96364   -119.1 1.005e+04 4.807e-10
 56.00124   -117.5 1.007e+04 5.002e-10
 56.03576   -116.0 9.950e+03 4.928e-10
 56.05690   -115.0 1.023e+04 5.498e-10
 56.08584   -113.4 1.003e+04 4.981e-10
 56.12813   -111.7 9.663e+03 3.885e-10
 56.15017   -110.0 9.167e+03 2.739e-10
 56.17132   -109.3 9.511e+03 3.470e-10
 56.21272   -107.5 9.159e+03 2.592e-10
 56.24344   -105.5 8.823e+03 1.957e-10
 56.26459   -104.7 9.403e+03 3.112e-10
 56.29731   -102.8 9.232e+03 2.792e-10
 56.33671   -101.0 9.176e+03 2.721e-10
 56.35786   -100.1 9.706e+03 4.230e-10
 56.38191    -98.7 9.612e+03 4.269e-10
 56.42420    -97.5 9.534e+03 4.568e-10
 56.45113    -96.5 9.840e+03 5.138e-10
 56.47227    -96.3 1.015e+04 6.460e-10
 56.50879    -95.1 1.069e+04 7.327e-10
 56.54440    -93.8 1.075e+04 7.490e-10
 56.56554    -93.5 1.148e+04 9.357e-10
 56.59338    -91.9 1.121e+04 8.785e-10
 56.63568    -90.3 1.100e+04 8.346e-10
 56.65881    -88.5 1.095e+04 8.336e-10
 56.66929    -88.6 1.135e+04 9.533e-10
 56.68835    -87.6 1.118e+04 9.158e-10
 56.70525    -86.4 1.114e+04 9.111e-10
 56.71582    -86.2 1.113e+04 9.021e-10
 56.73065    -85.3 1.124e+04 9.287e-10
 56.75180    -84.5 1.142e+04 9.954e-10
 56.77295    -83.2 1.155e+04 1.002e-09
 56.79409    -82.5 1.180e+04 1.136e-09
 56.80909    -81.6 1.204e+04 1.309e-09
 56.81967    -81.4 1.184e+04 1.134e-09
 56.83639    -80.6 1.207e+04 1.298e-09
 56.85573    -79.8 1.231e+04 1.485e-09
 56.86630    -79.6 1.207e+04 1.287e-09
 56.87869    -78.9 1.228e+04 1.438e-09
 56.89983    -78.1 1.249e+04 1.590e-09
 56.91294    -77.4 1.266e+04 1.701e-09
 56.92351    -77.3 1.227e+04 1.423e-09
 56.94213    -76.6 1.227e+04 1.430e-09
 56.95957    -75.8 1.214e+04 1.347e-09
 56.97014    -75.4 1.176e+04 1.133e-09
 56.98443    -74.6 1.152e+04 9.457e-10
 57.00557    -73.8 1.124e+04 7.643e-10
 57.01678    -73.2 1.096e+04 6.179e-10
 57.02735    -72.8 1.081e+04 5.279e-10
 57.04787    -72.2 1.056e+04 4.342e-10
 57.06341    -71.5 1.034e+04 3.837e-10
 57.07399    -70.9 1.024e+04 3.351e-10
 57.09016    -69.9 1.018e+04 3.185e-10
 57.11005    -68.7 1.018e+04 3.162e-10
 57.12062    -68.3 1.020e+04 3.114e-10
 57.12351    -67.4 1.025e+04 3.168e-10
 57.14475    -67.3 1.030e+04 3.262e-10
 57.16745    -64.8 1.053e+04 3.945e-10
 57.18860    -63.5 1.026e+04 3.196e-10
 57.22782    -61.3 1.063e+04 4.223e-10
 57.25944    -59.3 1.063e+04 4.791e-10
 57.27110    -58.2 1.081e+04 5.812e-10
 57.28167    -57.6 1.083e+04 5.430e-10
 57.30164    -56.7 1.114e+04 6.937e-10
 57.31773    -56.1 1.172e+04 9.165e-10
 57.32831    -55.9 1.176e+04 9.379e-10
 57.34394    -55.6 1.250e+04 1.356e-09
 57.36437    -55.3 1.323e+04 1.924e-09
 57.37494    -55.3 1.353e+04 2.329e-09
 57.38623    -54.6 1.424e+04 3.235e-09
 57.40738    -53.8 1.474e+04 3.917e-09
 57.42157    -53.3 1.491e+04 4.110e-09
 57.43215    -52.8 1.531e+04 5.298e-09
 57.44968    -52.3 1.537e+04 5.032e-09
 57.46821    -51.7 1.492e+04 3.809e-09
 57.47878    -51.0 1.508e+04 4.224e-09
 57.49197    -50.7 1.438e+04 2.739e-09
 57.51312    -51.7 1.366e+04 1.883e-09
 57.52542    -52.8 1.311e+04 1.525e-09
 57.53599    -52.3 1.295e+04 1.366e-09
 57.55542    -52.9 1.262e+04 1.231e-09
 57.57205    -53.0 1.256e+04 1.207e-09
 57.58262    -52.4 1.223e+04 1.063e-09
 57.59771    -52.4 1.222e+04 1.060e-09
 57.61868    -52.2 1.232e+04 1.110e-09
 57.62926    -51.4 1.200e+04 9.942e-10
 57.64001    -51.3 1.215e+04 1.042e-09
 57.66116    -51.0 1.228e+04 1.093e-09
 57.67589    -50.6 1.235e+04 1.126e-09
 57.68647    -49.9 1.213e+04 1.027e-09
 57.70345    -49.4 1.216e+04 1.040e-09
 57.72253    -48.8 1.218e+04 1.047e-09
 57.73310    -48.1 1.199e+04 9.676e-10
 57.74575    -47.5 1.202e+04 9.728e-10
 57.76690    -47.1 1.215e+04 9.985e-10
 57.77974    -46.9 1.238e+04 1.095e-09
 57.79031    -45.9 1.210e+04 9.467e-10
 57.80919    -46.1 1.253e+04 1.145e-09
 57.82637    -46.6 1.318e+04 1.565e-09
 57.83694    -45.9 1.300e+04 1.373e-09
 57.85149    -46.6 1.397e+04 2.104e-09
 57.87264    -47.0 1.498e+04 3.244e-09
 57.88358    -47.2 1.586e+04 4.569e-09
 57.89415    -46.5 1.607e+04 4.895e-09
 57.91493    -46.6 1.680e+04 6.195e-09
 57.93021    -47.2 1.700e+04 6.513e-09
 57.94079    -46.4 1.743e+04 7.487e-09
 57.95723    -47.3 1.732e+04 7.178e-09
 57.97685    -47.7 1.655e+04 5.155e-09
 57.98742    -47.1 1.700e+04 6.218e-09
 57.99952    -47.9 1.595e+04 4.035e-09
 58.02067    -49.4 1.479e+04 2.660e-09
 58.03405    -50.7 1.375e+04 1.913e-09
 58.04463    -50.1 1.428e+04 2.412e-09
 58.06297    -50.8 1.354e+04 1.931e-09
 58.08069    -51.2 1.306e+04 1.636e-09
 58.09126    -50.6 1.369e+04 2.080e-09
 58.10526    -50.8 1.323e+04 1.812e-09
 58.12641    -50.9 1.290e+04 1.578e-09
 58.13790    -51.0 1.256e+04 1.364e-09
 58.14847    -50.6 1.319e+04 1.782e-09
 58.16871    -50.6 1.281e+04 1.514e-09
 58.18453    -50.6 1.242e+04 1.266e-09
 58.19511    -50.0 1.301e+04 1.672e-09
 58.21100    -50.1 1.259e+04 1.343e-09
 58.23117    -50.3 1.211e+04 1.082e-09
 58.24174    -49.6 1.260e+04 1.357e-09
 58.25330    -50.0 1.209e+04 1.073e-09
 58.27444    -50.4 1.165e+04 8.837e-10
 58.28837    -51.0 1.136e+04 7.570e-10
 58.29895    -50.3 1.168e+04 8.877e-10
 58.31674    -51.0 1.151e+04 7.907e-10
 58.33501    -51.7 1.148e+04 7.551e-10
 58.34558    -51.0 1.183e+04 8.938e-10
 58.35904    -51.8 1.183e+04 8.888e-10
 58.38018    -52.7 1.188e+04 9.102e-10
 58.39222    -53.7 1.202e+04 9.601e-10
 58.40279    -53.0 1.235e+04 1.125e-09
 58.42128    -54.1 1.248e+04 1.172e-09
 58.43185    -52.9 1.228e+04 1.084e-09
 58.43885    -53.9 1.240e+04 1.123e-09
 58.44942    -53.1 1.276e+04 1.299e-09
 58.46478    -54.3 1.282e+04 1.330e-09
 58.48549    -55.4 1.284e+04 1.347e-09
 58.49606    -54.9 1.334e+04 1.599e-09
 58.50707    -56.1 1.332e+04 1.579e-09
 58.52822    -57.3 1.322e+04 1.500e-09
 58.54269    -58.5 1.309e+04 1.384e-09
 58.55327    -58.6 1.388e+04 1.752e-09
 58.57051    -60.3 1.379e+04 1.637e-09
 58.58933    -62.0 1.357e+04 1.680e-09
 58.59990    -62.0 1.415e+04 2.044e-09
 58.61281    -64.6 1.426e+04 2.315e-09
 58.63396    -72.8 1.992e+04 3.229e-09
 58.64649    -87.6 3.319e+04 5.434e-09
 58.65173    -88.8 3.395e+04 5.354e-09
 58.66030    -93.9 3.806e+04 8.772e-09
 58.66976    -98.2 4.014e+04 1.803e-08
 58.67504    -98.9 3.904e+04 1.904e-08
 58.68144   -106.0 3.377e+04 5.424e-08
 58.69202   -112.3 2.771e+04 1.144e-07
 58.69836   -117.2 2.615e+04 1.398e-07
 58.70365   -116.9 2.595e+04 1.428e-07
 58.71317   -120.3 2.488e+04 1.530e-07
 58.72168   -124.0 2.610e+04 1.077e-07
 58.72696   -123.3 2.651e+04 1.113e-07
 58.73431   -130.0 3.011e+04 3.957e-08
 58.74489   -141.8 3.425e+04 6.153e-09
 58.75028   -157.2 2.458e+04 1.044e-09
 58.75557   -156.5 2.463e+04 1.031e-09
 58.76603   -164.3 1.250e+04 8.324e-10
 58.78194   -165.1 1.181e+04 8.491e-10
 58.79701   -166.1 1.155e+04 7.903e-10
 58.80759   -164.2 1.166e+04 7.758e-10
 58.82429   -165.8 1.086e+04 6.340e-10
 58.84365   -166.5 1.063e+04 5.451e-10
 58.85422   -165.0 1.057e+04 5.241e-10
 58.86658   -165.6 1.047e+04 4.606e-10
 58.88773   -166.2 1.033e+04 4.156e-10
 58.90095   -167.0 1.020e+04 3.831e-10
 58.92220   -164.4 1.014e+04 3.741e-10
 58.96195   -164.0 9.959e+03 3.345e-10
 58.99432   -163.6 9.730e+03 2.920e-10
 59.01547   -161.2 9.719e+03 2.856e-10
 59.04654   -160.6 9.536e+03 2.593e-10
 59.08759   -159.6 9.409e+03 2.458e-10
 59.10874   -157.5 9.488e+03 2.529e-10
 59.13113   -156.6 9.467e+03 2.528e-10
 59.17342   -155.7 9.470e+03 2.601e-10
 59.20200   -154.8 9.499e+03 2.681e-10
 59.22315   -153.0 9.792e+03 3.100e-10
 59.25802   -152.4 9.845e+03 3.232e-10
 59.29527   -151.9 9.894e+03 3.330e-10
 59.31642   -150.8 1.013e+04 3.702e-10
 59.34261   -150.7 1.009e+04 3.563e-10
 59.38490   -150.4 1.007e+04 3.445e-10
 59.40969   -149.8 1.008e+04 3.340e-10
 59.43084   -149.2 9.978e+03 2.876e-10
 59.46949   -148.5 9.850e+03 2.557e-10
 59.50296   -147.6 9.688e+03 2.264e-10
 59.52411   -146.9 9.480e+03 1.826e-10
 59.55409   -145.6 9.404e+03 1.708e-10
 59.59623   -144.1 9.396e+03 1.672e-10
 59.63852   -141.8 9.376e+03 1.673e-10
 59.68097   -140.0 9.753e+03 2.078e-10
 59.71064   -138.3 1.019e+04 2.697e-10
 59.72776   -138.1 1.023e+04 2.893e-10
 59.74039   -137.8 9.960e+03 2.277e-10
 59.76556   -136.4 1.017e+04 2.693e-10
 59.80391   -136.6 1.046e+04 3.021e-10
 59.82506   -136.9 1.076e+04 3.474e-10
 59.83948   -139.2 1.145e+04 4.161e-10
 59.86053   -145.4 1.575e+04 1.129e-09
 59.87150   -150.5 1.945e+04 3.722e-09
 59.88207   -149.7 1.818e+04 2.727e-09
 59.90283   -154.5 1.957e+04 5.331e-09
 59.91813   -159.5 1.983e+04 7.674e-09
 59.92871   -159.8 1.826e+04 5.221e-09
 59.94513   -165.1 1.818e+04 5.654e-09
 59.96477   -169.6 1.767e+04 5.620e-09
 59.97534   -170.3 1.661e+04 4.613e-09
 59.98742   -173.6 1.552e+04 3.860e-09
 60.00857   -175.9 1.452e+04 2.918e-09
 60.02197   -177.4 1.393e+04 2.350e-09
 60.03255   -177.4 1.401e+04 2.568e-09
 60.05086   -178.1 1.384e+04 2.435e-09
 60.06861   -178.3 1.380e+04 2.414e-09
 60.07918   -178.6 1.381e+04 2.488e-09
 60.09316   -178.8 1.376e+04 2.420e-09
 60.11431   -178.9 1.368e+04 2.341e-09
 60.12582   -178.8 1.350e+04 2.186e-09
 60.13639   -179.3 1.325e+04 2.009e-09
 60.15660   -179.0 1.291e+04 1.739e-09
 60.17245   -178.5 1.254e+04 1.458e-09
 60.18303   -179.1 1.219e+04 1.205e-09
 60.19890   -178.7 1.185e+04 1.001e-09
 60.21909   -178.4 1.153e+04 8.329e-10
 60.22966   -179.2 1.134e+04 7.112e-10
 60.24120   -178.9 1.115e+04 6.321e-10
 60.26234   -178.5 1.109e+04 5.900e-10
 60.27629   -178.0 1.109e+04 5.809e-10
 60.28687   -178.3 1.102e+04 5.640e-10
 60.30464   -178.0 1.102e+04 5.661e-10
 60.32293   -178.1 1.108e+04 5.829e-10
 60.33350   -178.3 1.107e+04 5.827e-10
 60.34694   -178.7 1.125e+04 6.316e-10
 60.36808   -180.6 1.225e+04 1.007e-09
 60.38014   -182.8 1.488e+04 2.152e-09
 60.39071   -182.8 1.428e+04 1.865e-09
 60.41038   -184.6 1.636e+04 3.929e-09
 60.42677   -186.0 1.773e+04 7.060e-09
 60.43734   -186.3 1.749e+04 6.534e-09
 60.45267   -187.6 1.848e+04 9.955e-09
 60.47340   -189.2 1.883e+04 1.170e-08
 60.48398   -189.1 1.895e+04 1.195e-08
 60.49497   -190.9 1.904e+04 1.248e-08
 60.51612   -191.9 1.867e+04 1.207e-08
 60.53061   -192.2 1.765e+04 9.084e-09
 60.54119   -192.6 1.781e+04 9.410e-09
 60.55841   -192.6 1.652e+04 6.019e-09
 60.57725   -192.4 1.515e+04 3.604e-09
 60.58782   -192.3 1.505e+04 3.514e-09
 60.60071   -192.1 1.384e+04 2.142e-09
 60.62186   -191.9 1.289e+04 1.409e-09
 60.63446   -191.4 1.223e+04 1.030e-09
 60.64503   -191.3 1.199e+04 9.479e-10
 60.66415   -190.4 1.165e+04 7.880e-10
 60.68109   -189.4 1.147e+04 7.031e-10
 60.69166   -189.2 1.129e+04 6.166e-10
 60.70645   -188.1 1.121e+04 5.819e-10
 60.72760   -186.9 1.118e+04 5.672e-10
 60.73830   -185.6 1.117e+04 5.639e-10
 60.74887   -185.5 1.102e+04 4.943e-10
 60.76989   -184.3 1.103e+04 4.969e-10
 60.78493   -183.1 1.108e+04 5.109e-10
 60.79551   -183.0 1.093e+04 4.428e-10
 60.81219   -181.8 1.099e+04 4.586e-10
 60.83157   -180.6 1.105e+04 4.797e-10
 60.84214   -180.7 1.087e+04 4.031e-10
 60.85448   -179.5 1.093e+04 4.167e-10
 60.87563   -178.3 1.101e+04 4.339e-10
 60.88877   -177.1 1.111e+04 4.563e-10
 60.89935   -177.3 1.085e+04 3.714e-10
 60.91793   -176.2 1.097e+04 3.886e-10
 60.93541   -175.1 1.111e+04 4.188e-10
 60.94598   -175.4 1.081e+04 3.651e-10
 60.96022   -174.4 1.093e+04 3.905e-10
 60.98137   -173.4 1.105e+04 4.268e-10
 60.99262   -172.4 1.120e+04 4.770e-10
 61.00319   -172.7 1.082e+04 3.961e-10
 61.02367   -171.7 1.096e+04 4.386e-10
 61.03796   -170.8 1.115e+04 5.052e-10
 61.04297   -170.6 1.069e+04 3.614e-10
 61.04992   -171.5 1.053e+04 3.609e-10
 61.06606   -169.6 1.049e+04 3.526e-10
 61.08589   -168.9 1.067e+04 3.941e-10
 61.09646   -169.0 1.044e+04 3.505e-10
 61.10826   -168.0 1.062e+04 3.924e-10
 61.12941   -167.6 1.082e+04 4.450e-10
 61.14309   -166.9 1.111e+04 5.395e-10
 61.15367   -167.0 1.073e+04 4.236e-10
 61.17170   -166.5 1.098e+04 4.907e-10
 61.18973   -165.8 1.125e+04 5.892e-10
 61.20030   -165.6 1.099e+04 4.989e-10
 61.21400   -165.1 1.122e+04 5.750e-10
 61.23515   -164.4 1.147e+04 6.981e-10
 61.24694   -164.1 1.163e+04 8.055e-10
 61.25751   -163.9 1.132e+04 6.432e-10
 61.27744   -163.1 1.144e+04 7.519e-10
 61.29357   -162.5 1.146e+04 8.044e-10
 61.30414   -162.3 1.123e+04 6.796e-10
 61.31974   -161.4 1.122e+04 7.284e-10
 61.34020   -160.7 1.121e+04 7.356e-10
 61.35088   -160.9 1.095e+04 6.248e-10
 61.36213   -159.2 1.092e+04 6.368e-10
 61.38318   -158.5 1.084e+04 6.258e-10
 61.39741   -157.3 1.075e+04 5.945e-10
 61.40799   -157.1 1.066e+04 5.588e-10
 61.42548   -156.4 1.059e+04 5.230e-10
 61.44405   -155.5 1.047e+04 4.847e-10
 61.46529   -154.8 1.031e+04 4.428e-10
 61.49969   -152.6 1.011e+04 3.976e-10
 61.53751   -150.5 9.829e+03 3.401e-10
 61.55866   -149.5 9.779e+03 3.412e-10
 61.58428   -147.2 9.540e+03 2.964e-10
 61.62658   -144.7 9.343e+03 2.571e-10
 61.65193   -142.2 9.182e+03 2.264e-10
 61.67308   -141.3 9.183e+03 2.328e-10
 61.71117   -138.7 9.084e+03 2.146e-10
 61.74520   -136.0 9.009e+03 2.017e-10
 61.76634   -135.1 9.002e+03 2.006e-10
 61.79576   -132.4 8.947e+03 1.910e-10
 61.83805   -129.6 8.898e+03 1.823e-10
 61.85961   -126.9 8.847e+03 1.734e-10
 61.88076   -126.0 8.847e+03 1.728e-10
 61.92265   -123.3 8.803e+03 1.645e-10
 61.95288   -120.6 8.756e+03 1.556e-10
 61.97403   -119.6 8.770e+03 1.592e-10
 62.00724   -116.9 8.739e+03 1.535e-10
 62.04615   -114.2 8.719e+03 1.485e-10
 62.06730   -113.2 8.772e+03 1.609e-10
 62.09183   -110.5 8.771e+03 1.602e-10
 62.13412   -107.8 8.781e+03 1.602e-10
 62.16057   -105.1 8.815e+03 1.634e-10
 62.18171   -104.1 8.885e+03 1.864e-10
 62.21872   -101.3 8.912e+03 1.927e-10
 62.25383    -98.5 8.947e+03 2.014e-10
 62.27498    -97.5 8.985e+03 2.216e-10
 62.30331    -94.5 9.004e+03 2.245e-10
 62.33593    -91.5 9.043e+03 2.259e-10
 62.35708    -90.4 9.099e+03 2.355e-10
 62.36825    -87.1 9.186e+03 2.427e-10
 62.38940    -86.1 9.386e+03 2.735e-10
 62.43019    -82.9 9.451e+03 2.759e-10
 62.46152    -79.6 9.520e+03 2.812e-10
 62.48267    -79.8 9.847e+03 3.300e-10
 62.50411    -77.1 9.632e+03 2.936e-10
 62.51853    -76.5 9.835e+03 2.993e-10
 62.52911    -76.6 9.947e+03 3.049e-10
 62.54631    -75.8 1.015e+04 3.373e-10
 62.56517    -75.9 1.047e+04 4.062e-10
 62.57574    -76.4 1.052e+04 4.278e-10
 62.58861    -76.6 1.110e+04 5.803e-10
 62.60976    -76.9 1.200e+04 8.788e-10
 62.62237    -77.2 1.307e+04 1.375e-09
 62.63295    -78.4 1.316e+04 1.356e-09
 62.65205    -79.6 1.422e+04 2.050e-09
 62.66901    -81.2 1.501e+04 2.779e-09
 62.67958    -84.9 1.537e+04 3.154e-09
 62.69435    -86.5 1.551e+04 3.600e-09
 62.71550    -87.8 1.550e+04 3.678e-09
 62.72622    -89.1 1.535e+04 3.657e-09
 62.73679    -90.6 1.564e+04 4.193e-09
 62.75779    -91.9 1.566e+04 3.770e-09
 62.77285    -93.3 1.577e+04 3.315e-09
 62.77809    -94.3 1.613e+04 3.703e-09
 62.78413    -94.9 1.639e+04 3.635e-09
 62.79470    -96.2 1.686e+04 3.517e-09
 62.80136    -97.1 1.770e+04 3.698e-09
 62.80665    -99.8 1.925e+04 4.705e-09
 62.81585   -100.9 1.975e+04 5.393e-09
 62.82468   -101.3 1.985e+04 6.193e-09
 62.83001   -104.9 1.980e+04 8.875e-09
 62.84238   -105.4 1.964e+04 9.588e-09
 62.86353   -105.5 2.001e+04 1.032e-08
 62.87669   -105.0 2.205e+04 1.160e-08
 62.88727   -108.6 1.886e+04 9.427e-09
 62.90583   -108.3 2.171e+04 9.211e-09
 62.92164   -109.5 2.364e+04 6.259e-09
 62.92852   -113.4 2.608e+04 7.809e-09
 62.93385   -113.4 1.964e+04 1.849e-09
 62.94812   -119.5 2.401e+04 1.073e-09
 62.96927   -125.0 2.861e+04 9.828e-10
 62.98054   -127.9 2.680e+04 1.864e-09
 62.99111   -126.5 1.410e+04 6.874e-10
 63.01157   -126.5 1.601e+04 9.063e-10
 63.02717   -125.4 1.584e+04 1.188e-09
 63.03774   -122.9 1.171e+04 8.300e-10
 63.05386   -121.9 1.192e+04 9.208e-10
 63.07381   -120.8 1.199e+04 9.773e-10
 63.08438   -118.2 1.175e+04 9.382e-10
 63.09616   -116.9 1.182e+04 9.810e-10
 63.11730   -115.5 1.182e+04 1.002e-09
 63.13101   -114.0 1.182e+04 1.012e-09
 63.14159   -112.1 1.182e+04 1.011e-09
 63.15960   -110.7 1.183e+04 1.020e-09
 63.17765   -109.2 1.190e+04 1.043e-09
 63.18822   -107.4 1.196e+04 1.065e-09
 63.20190   -106.2 1.210e+04 1.111e-09
 63.22304   -105.1 1.224e+04 1.167e-09
 63.23486   -104.0 1.234e+04 1.224e-09
 63.24543   -102.6 1.234e+04 1.207e-09
 63.26534   -101.4 1.245e+04 1.266e-09
 63.28149   -100.5 1.259e+04 1.353e-09
 63.29206    -99.4 1.254e+04 1.313e-09
 63.30764    -98.4 1.265e+04 1.371e-09
 63.32812    -97.4 1.276e+04 1.459e-09
 63.33870    -96.4 1.274e+04 1.435e-09
 63.36060    -96.6 1.291e+04 1.603e-09
 63.38543    -94.0 1.302e+04 1.794e-09
 63.39591    -93.1 1.285e+04 1.688e-09
 63.41337    -92.3 1.292e+04 1.879e-09
 63.43197    -91.1 1.294e+04 1.976e-09
 63.44254    -90.1 1.293e+04 1.975e-09
 63.45567    -88.9 1.285e+04 1.942e-09
 63.47682    -87.3 1.263e+04 1.744e-09
 63.48918    -85.7 1.227e+04 1.399e-09
 63.49975    -85.6 1.234e+04 1.432e-09
 63.51911    -85.2 1.240e+04 1.097e-09
 63.53581    -86.7 1.305e+04 9.745e-10
 63.54638    -88.6 1.419e+04 1.118e-09
 63.56141   -104.6 3.378e+04 8.152e-10
 63.58244   -120.4 3.148e+04 5.374e-09
 63.59297   -125.5 2.818e+04 1.310e-08
 63.59832   -128.5 2.433e+04 3.527e-08
 63.60890   -129.7 2.292e+04 6.341e-08
 63.61624   -130.2 2.271e+04 8.054e-08
 63.62152   -131.0 2.272e+04 8.918e-08
 63.63004   -131.6 2.278e+04 9.158e-08
 63.63955   -133.1 2.333e+04 8.335e-08
 63.64484   -134.2 2.357e+04 8.713e-08
 63.64926   -137.6 2.452e+04 4.531e-08
 63.65455   -137.9 2.449e+04 3.922e-08
 63.66176   -145.0 2.378e+04 1.312e-08
 63.66816   -153.5 1.991e+04 4.228e-09
 63.67345   -154.5 1.970e+04 4.004e-09
 63.68291   -159.6 1.585e+04 2.388e-09
 63.69148   -160.9 1.454e+04 2.041e-09
 63.69676   -161.3 1.474e+04 2.090e-09
 63.70940   -161.7 1.416e+04 1.831e-09
 63.73059   -163.0 1.295e+04 1.271e-09
 63.74349   -164.0 1.182e+04 8.920e-10
 63.75407   -164.1 1.188e+04 8.979e-10
 63.77289   -164.4 1.129e+04 7.316e-10
 63.79013   -164.4 1.096e+04 6.408e-10
 63.80070   -164.3 1.125e+04 7.182e-10
 63.81518   -164.2 1.094e+04 6.598e-10
 63.83633   -163.8 1.074e+04 6.232e-10
 63.84734   -163.6 1.069e+04 6.106e-10
 63.85791   -163.8 1.147e+04 8.510e-10
 63.87863   -163.6 1.143e+04 8.745e-10
 63.89397   -163.4 1.153e+04 9.412e-10
 63.90455   -163.7 1.259e+04 1.441e-09
 63.92092   -163.4 1.259e+04 1.514e-09
 63.94061   -163.1 1.259e+04 1.544e-09
 63.95118   -163.3 1.332e+04 2.166e-09
 63.96322   -162.8 1.307e+04 2.063e-09
 63.98437   -162.3 1.277e+04 1.913e-09
 63.99781   -161.7 1.242e+04 1.715e-09
 64.00839   -162.1 1.280e+04 2.169e-09
 64.02666   -161.9 1.285e+04 1.993e-09
 64.04445   -162.0 1.324e+04 1.892e-09
 64.05502   -164.7 1.591e+04 3.123e-09
 64.06896   -165.4 1.648e+04 3.496e-09
 64.09011   -166.1 1.689e+04 4.006e-09
 64.10166   -166.1 1.687e+04 4.466e-09
 64.11223   -167.4 1.749e+04 6.466e-09
 64.13240   -166.7 1.731e+04 6.512e-09
 64.14829   -166.0 1.718e+04 6.460e-09
 64.15886   -166.8 1.728e+04 6.344e-09
 64.17470   -165.8 1.718e+04 5.980e-09
 64.19492   -164.8 1.712e+04 5.480e-09
 64.20550   -165.9 1.695e+04 3.297e-09
 64.21699   -165.1 1.677e+04 2.605e-09
 64.23814   -164.3 1.662e+04 2.011e-09
 64.25213   -163.6 1.639e+04 1.592e-09
 64.26271   -165.7 1.474e+04 7.088e-10
 64.28044   -165.1 1.433e+04 6.463e-10
 64.29877   -165.5 1.387e+04 5.908e-10
 64.30944   -172.3 1.110e+04 4.698e-10
 64.33350   -172.5 1.063e+04 4.985e-10
 64.37580   -172.5 1.067e+04 5.652e-10
 64.40280   -172.2 1.112e+04 6.875e-10
 64.42395   -174.0 1.050e+04 5.405e-10
 64.46039   -172.9 1.083e+04 5.901e-10
 64.49607   -172.0 1.103e+04 6.145e-10
 64.51722   -173.3 1.058e+04 4.923e-10
 64.53431   -172.4 1.074e+04 5.286e-10
 64.55309   -172.7 1.067e+04 5.076e-10
 64.56366   -173.3 1.060e+04 4.959e-10
 64.58718   -173.0 1.060e+04 4.783e-10
 64.61049   -172.0 1.040e+04 4.156e-10
 64.63164   -171.4 1.014e+04 3.660e-10
 64.67187   -169.9 1.010e+04 3.473e-10
 64.70376   -168.4 1.002e+04 3.226e-10
 64.72491   -167.5 9.860e+03 2.925e-10
 64.75646   -165.8 9.834e+03 2.861e-10
 64.79703   -164.2 9.828e+03 2.844e-10
 64.81817   -163.1 9.715e+03 2.562e-10
 64.84105   -161.7 9.849e+03 2.797e-10
 64.88335   -160.6 1.018e+04 3.445e-10
 64.91144   -159.7 1.067e+04 4.653e-10
 64.93259   -157.9 1.045e+04 4.087e-10
 64.95261   -157.0 1.087e+04 5.379e-10
 64.97376   -157.2 1.084e+04 5.346e-10
 65.00471   -156.5 1.116e+04 6.655e-10
 65.02586   -154.5 1.101e+04 6.211e-10
 65.05253   -153.7 1.127e+04 7.413e-10
 65.09483   -153.1 1.145e+04 8.225e-10
 65.11913   -152.4 1.157e+04 8.626e-10
 65.14028   -150.3 1.159e+04 8.827e-10
 65.17942   -149.8 1.167e+04 9.122e-10
 65.21240   -149.5 1.174e+04 9.296e-10
 65.23354   -147.6 1.193e+04 1.040e-09
 65.26401   -147.5 1.197e+04 1.053e-09
 65.30567   -147.4 1.196e+04 1.047e-09
 65.32681   -145.8 1.221e+04 1.209e-09
 65.34860   -145.7 1.201e+04 1.116e-09
 65.39090   -145.3 1.158e+04 8.479e-10
 65.42008   -144.8 1.103e+04 5.924e-10
 65.44123   -143.7 1.118e+04 6.425e-10
 65.47549   -142.6 1.063e+04 4.410e-10
 65.51335   -141.0 1.019e+04 3.115e-10
 65.53450   -140.0 1.026e+04 3.155e-10
 65.56008   -138.3 9.978e+03 2.401e-10
 65.60237   -136.8 9.840e+03 2.025e-10
 65.62777   -135.3 9.744e+03 1.870e-10
 65.64891   -134.3 9.758e+03 1.897e-10
 65.68697   -132.9 9.728e+03 1.870e-10
 65.72104   -131.6 9.723e+03 1.902e-10
 65.74218   -130.5 9.810e+03 2.066e-10
 65.77156   -129.3 9.782e+03 2.253e-10
 65.81385   -128.2 9.742e+03 2.321e-10
 65.83545   -127.1 9.665e+03 2.311e-10
 65.85660   -126.1 9.868e+03 2.755e-10
 65.89844   -125.0 9.758e+03 2.682e-10
 65.92872   -123.9 9.618e+03 2.502e-10
 65.94987   -122.9 9.963e+03 3.274e-10
 65.98304   -121.9 9.868e+03 3.120e-10
 66.02199   -121.0 9.746e+03 2.912e-10
 66.04314   -120.3 1.026e+04 4.364e-10
 66.06763   -119.5 1.016e+04 4.177e-10
 66.10992   -118.8 9.973e+03 3.765e-10
 66.13641   -117.9 9.715e+03 3.209e-10
 66.15755   -117.5 1.046e+04 5.556e-10
 66.19451   -116.5 1.008e+04 4.409e-10
 66.22967   -115.3 9.714e+03 3.397e-10
 66.25082   -115.0 1.032e+04 5.261e-10
 66.27911   -113.7 9.884e+03 3.853e-10
 66.32140   -112.5 9.546e+03 2.931e-10
 66.34409   -111.5 9.316e+03 2.362e-10
 66.36524   -111.3 9.734e+03 3.227e-10
 66.40599   -110.2 9.509e+03 2.723e-10
 66.43736   -109.4 9.354e+03 2.443e-10
 66.45851   -109.5 9.891e+03 3.737e-10
 66.49058   -108.8 9.785e+03 3.543e-10
 66.53063   -108.1 9.778e+03 3.495e-10
 66.55178   -108.8 1.046e+04 5.318e-10
 66.57518   -107.9 1.030e+04 4.815e-10
 66.59831   -106.7 1.016e+04 4.303e-10
 66.60879   -107.1 1.032e+04 4.800e-10
 66.62785   -106.7 1.031e+04 4.739e-10
 66.64485   -106.4 1.032e+04 4.740e-10
 66.65542   -107.2 1.045e+04 5.167e-10
 66.67015   -107.3 1.056e+04 5.212e-10
 66.69129   -108.3 1.107e+04 5.948e-10
 66.70206   -109.8 1.163e+04 7.587e-10
 66.71263   -112.5 1.211e+04 1.022e-09
 66.73359   -114.2 1.241e+04 1.342e-09
 66.74869   -115.4 1.251e+04 1.606e-09
 66.75926   -117.6 1.279e+04 1.929e-09
 66.77588   -118.6 1.275e+04 1.943e-09
 66.79533   -120.0 1.251e+04 1.732e-09
 66.80590   -122.2 1.236e+04 1.607e-09
 66.81818   -125.1 1.207e+04 1.304e-09
 66.83933   -129.5 1.201e+04 1.236e-09
 66.85253   -134.9 1.214e+04 1.304e-09
 66.86311   -135.2 1.188e+04 1.197e-09
 66.88162   -138.9 1.336e+04 1.994e-09
 66.89917   -141.8 1.468e+04 3.458e-09
 66.90974   -141.3 1.426e+04 2.909e-09
 66.92392   -143.8 1.495e+04 4.070e-09
 66.94507   -146.3 1.513e+04 4.686e-09
 66.95638   -148.4 1.511e+04 4.787e-09
 66.96695   -148.0 1.475e+04 4.310e-09
 66.98736   -149.6 1.459e+04 4.293e-09
 67.00301   -150.9 1.399e+04 3.619e-09
 67.01358   -150.5 1.414e+04 3.731e-09
 67.02966   -151.7 1.348e+04 2.895e-09
 67.04964   -152.7 1.266e+04 2.026e-09
 67.06022   -152.3 1.281e+04 2.182e-09
 67.07196   -153.2 1.201e+04 1.554e-09
 67.09310   -153.9 1.135e+04 1.161e-09
 67.10685   -154.5 1.091e+04 9.387e-10
 67.11743   -154.3 1.109e+04 1.041e-09
 67.13540   -154.7 1.085e+04 9.191e-10
 67.15349   -154.8 1.075e+04 8.570e-10
 67.16406   -155.0 1.118e+04 1.058e-09
 67.17769   -155.2 1.118e+04 1.052e-09
 67.19884   -155.4 1.122e+04 1.060e-09
 67.21070   -155.5 1.128e+04 1.085e-09
 67.22127   -156.0 1.181e+04 1.458e-09
 67.24114   -156.0 1.180e+04 1.474e-09
 67.25733   -155.9 1.173e+04 1.460e-09
 67.26790   -156.1 1.198e+04 1.642e-09
 67.28343   -156.1 1.185e+04 1.503e-09
 67.30396   -156.2 1.176e+04 1.415e-09
 67.31454   -156.5 1.172e+04 1.368e-09
 67.32573   -156.6 1.165e+04 1.281e-09
 67.34688   -156.7 1.158e+04 1.216e-09
 67.36117   -156.7 1.153e+04 1.165e-09
 67.37175   -156.9 1.117e+04 9.592e-10
 67.38917   -157.0 1.110e+04 9.137e-10
 67.40781   -157.1 1.101e+04 8.682e-10
 67.41838   -157.4 1.068e+04 7.119e-10
 67.43147   -157.7 1.067e+04 6.952e-10
 67.45262   -158.1 1.066e+04 6.897e-10
 67.46501   -158.5 1.072e+04 7.026e-10
 67.47569   -157.9 1.041e+04 5.760e-10
 67.50568   -158.0 1.045e+04 5.732e-10
 67.54790   -158.9 1.061e+04 6.081e-10
 67.56923   -159.9 1.090e+04 6.439e-10
 67.59045   -158.6 1.050e+04 5.917e-10
 67.63257   -159.4 1.124e+04 8.031e-10
 67.66232   -160.1 1.210e+04 1.125e-09
 67.67280   -159.9 1.210e+04 1.113e-09
 67.68524   -160.7 1.269e+04 1.374e-09
 67.70639   -161.8 1.350e+04 1.933e-09
 67.71933   -162.5 1.414e+04 2.577e-09
 67.72991   -162.6 1.418e+04 2.723e-09
 67.74869   -163.5 1.447e+04 3.282e-09
 67.76597   -164.1 1.446e+04 3.496e-09
 67.77654   -163.8 1.425e+04 3.275e-09
 67.79098   -163.9 1.414e+04 3.274e-09
 67.81213   -163.7 1.384e+04 2.981e-09
 67.82318   -163.4 1.345e+04 2.500e-09
 67.83375   -163.0 1.316e+04 2.078e-09
 67.85443   -162.8 1.282e+04 1.649e-09
 67.86981   -162.5 1.246e+04 1.281e-09
 67.88038   -162.4 1.226e+04 1.021e-09
 67.89672   -162.0 1.194e+04 8.018e-10
 67.91644   -161.5 1.166e+04 6.360e-10
 67.92702   -161.7 1.154e+04 5.000e-10
 67.93902   -161.2 1.129e+04 4.232e-10
 67.96017   -160.7 1.109e+04 3.887e-10
 67.97365   -159.9 1.101e+04 3.830e-10
 67.98432   -160.3 1.095e+04 3.266e-10
 68.01323   -157.9 1.066e+04 2.868e-10
 68.05553   -155.8 1.056e+04 2.723e-10
 68.07769   -153.8 1.055e+04 2.704e-10
 68.09884   -153.4 1.034e+04 1.886e-10
 68.14012   -151.8 1.036e+04 1.994e-10
 68.17096   -150.2 1.037e+04 2.174e-10
 68.19211   -150.1 1.015e+04 1.878e-10
 68.22471   -148.6 1.013e+04 1.986e-10
 68.26423   -147.1 1.010e+04 2.026e-10
 68.28538   -146.7 1.008e+04 2.004e-10
 68.30930   -145.1 1.003e+04 2.002e-10
 68.35160   -143.3 9.899e+03 1.903e-10
 68.37864   -141.4 9.790e+03 1.719e-10
 68.39979   -140.9 9.799e+03 1.712e-10
 68.43619   -139.0 9.709e+03 1.496e-10
 68.47191   -137.0 9.640e+03 1.303e-10
 68.49306   -136.5 9.686e+03 1.314e-10
 68.52078   -134.6 9.679e+03 1.189e-10
 68.56307   -132.7 9.710e+03 1.145e-10
 68.58633   -131.0 9.720e+03 1.141e-10
 68.60748   -130.6 9.866e+03 1.291e-10
 68.64767   -129.5 1.008e+04 1.643e-10
 68.67960   -128.7 1.059e+04 2.763e-10
 68.70075   -129.1 1.128e+04 4.540e-10
 68.73226   -128.9 1.209e+04 7.617e-10
 68.76388   -129.7 1.291e+04 1.178e-09
 68.78324   -130.7 1.360e+04 1.618e-09
 68.79382   -133.2 1.484e+04 2.962e-09
 68.80608   -134.4 1.513e+04 3.731e-09
 68.82723   -135.3 1.524e+04 4.231e-09
 68.84045   -136.2 1.525e+04 4.363e-09
 68.85103   -137.7 1.524e+04 4.173e-09
 68.86687   -138.7 1.494e+04 3.360e-09
 68.87745   -138.1 1.485e+04 3.366e-09
 68.88709   -139.5 1.457e+04 2.311e-09
 68.89766   -141.9 1.432e+04 1.396e-09
 68.91182   -143.8 1.385e+04 8.879e-10
 68.93297   -145.6 1.322e+04 6.030e-10
 68.94430   -147.1 1.252e+04 4.742e-10
 68.95487   -148.7 1.215e+04 4.780e-10
 68.97526   -149.1 1.212e+04 4.515e-10
 68.99093   -149.5 1.210e+04 4.458e-10
 69.00150   -150.0 1.214e+04 4.834e-10
 69.01756   -150.2 1.223e+04 4.970e-10
 69.03756   -150.6 1.234e+04 5.468e-10
 69.04814   -151.0 1.234e+04 6.307e-10
 69.05985   -151.3 1.243e+04 7.192e-10
 69.08100   -151.6 1.254e+04 8.352e-10
 69.09477   -151.9 1.270e+04 9.760e-10
 69.10535   -152.2 1.274e+04 1.037e-09
 69.12330   -152.4 1.291e+04 1.175e-09
 69.14141   -152.5 1.307e+04 1.296e-09
 69.15198   -152.8 1.304e+04 1.282e-09
 69.16559   -152.8 1.313e+04 1.355e-09
 69.18674   -152.9 1.315e+04 1.375e-09
 69.19861   -152.9 1.313e+04 1.376e-09
 69.20919   -152.9 1.298e+04 1.296e-09
 69.22904   -152.7 1.286e+04 1.233e-09
 69.24525   -152.5 1.272e+04 1.099e-09
 69.25582   -152.4 1.266e+04 9.617e-10
 69.27133   -152.3 1.255e+04 8.392e-10
 69.29188   -152.2 1.243e+04 7.332e-10
 69.30246   -152.3 1.233e+04 6.381e-10
 69.31363   -152.2 1.215e+04 5.741e-10
 69.33478   -151.9 1.197e+04 5.245e-10
 69.34909   -151.5 1.181e+04 4.860e-10
 69.35967   -151.7 1.167e+04 4.526e-10
 69.37707   -151.2 1.157e+04 4.305e-10
 69.39573   -150.7 1.151e+04 4.142e-10
 69.40630   -150.9 1.150e+04 4.153e-10
 69.41937   -150.4 1.148e+04 4.060e-10
 69.44052   -149.8 1.148e+04 4.009e-10
 69.45293   -149.3 1.148e+04 3.996e-10
 69.46351   -149.7 1.154e+04 4.513e-10
 69.48281   -149.3 1.158e+04 4.759e-10
 69.49957   -148.9 1.163e+04 5.100e-10
 69.51014   -149.4 1.173e+04 6.420e-10
 69.52511   -148.9 1.177e+04 7.056e-10
 69.54620   -148.4 1.179e+04 7.693e-10
 69.56735   -148.0 1.183e+04 9.773e-10
 69.58855   -147.2 1.179e+04 9.874e-10
 69.60341   -146.4 1.161e+04 9.334e-10
 69.61398   -146.4 1.154e+04 9.144e-10
 69.63085   -145.4 1.137e+04 8.065e-10
 69.65004   -144.4 1.122e+04 6.883e-10
 69.66062   -144.5 1.115e+04 6.083e-10
 69.67314   -143.8 1.110e+04 5.385e-10
 69.69678   -143.0 1.106e+04 5.023e-10
 69.71802   -143.1 1.082e+04 4.217e-10
 69.74735   -140.6 1.058e+04 3.705e-10
 69.78965   -138.2 1.039e+04 3.342e-10
 69.81129   -135.8 1.025e+04 3.106e-10
 69.83244   -135.2 1.019e+04 2.924e-10
 69.87424   -132.7 1.018e+04 2.855e-10
 69.90456   -130.2 1.018e+04 2.842e-10
 69.92571   -129.6 1.020e+04 2.748e-10
 69.95883   -127.2 1.021e+04 2.794e-10
 69.99783   -124.8 1.025e+04 2.855e-10
 70.01898   -124.4 1.025e+04 2.829e-10
 70.04342   -122.1 1.033e+04 2.944e-10
 70.08572   -120.0 1.049e+04 3.165e-10
 70.11224   -118.1 1.072e+04 3.586e-10
 70.13339   -117.5 1.092e+04 4.148e-10
 70.15878   -116.1 1.099e+04 4.518e-10
 70.16926   -116.2 1.110e+04 5.067e-10
 70.17522   -115.7 1.128e+04 5.746e-10
 70.18589   -115.3 1.134e+04 6.424e-10
 70.20194   -114.4 1.165e+04 7.584e-10
 70.21589   -114.0 1.180e+04 8.458e-10
 70.22647   -114.4 1.197e+04 9.955e-10
 70.24413   -114.0 1.211e+04 1.092e-09
 70.26253   -113.6 1.222e+04 1.153e-09
 70.27310   -114.0 1.244e+04 1.295e-09
 70.28643   -114.0 1.261e+04 1.332e-09
 70.30758   -114.3 1.285e+04 1.396e-09
 70.31973   -114.7 1.316e+04 1.520e-09
 70.33031   -116.5 1.395e+04 2.111e-09
 70.34987   -117.1 1.432e+04 2.536e-09
 70.36637   -117.6 1.458e+04 3.019e-09
 70.37694   -119.0 1.497e+04 4.156e-09
 70.39217   -119.0 1.503e+04 4.307e-09
 70.41300   -118.8 1.461e+04 4.316e-09
 70.42358   -119.6 1.448e+04 4.090e-09
 70.43447   -119.0 1.407e+04 3.425e-09
 70.45561   -118.5 1.373e+04 2.776e-09
 70.47021   -118.0 1.338e+04 2.202e-09
 70.48078   -119.0 1.296e+04 1.673e-09
 70.49791   -118.6 1.265e+04 1.353e-09
 70.51685   -118.1 1.233e+04 1.119e-09
 70.52742   -118.9 1.187e+04 8.641e-10
 70.54020   -118.1 1.163e+04 7.507e-10
 70.56135   -117.2 1.141e+04 6.527e-10
 70.57405   -116.2 1.122e+04 5.682e-10
 70.58463   -116.6 1.107e+04 4.987e-10
 70.60365   -115.5 1.102e+04 4.735e-10
 70.62079   -114.0 1.098e+04 4.492e-10
 70.64203   -113.5 1.062e+04 3.184e-10
 70.67786   -110.8 1.048e+04 2.719e-10
 70.71415   -108.2 1.042e+04 2.370e-10
 70.73530   -108.2 1.032e+04 1.532e-10
 70.76245   -105.6 1.034e+04 1.466e-10
 70.80475   -103.0 1.036e+04 1.447e-10
 70.82857   -100.5 1.043e+04 1.492e-10
 70.84972   -100.7 1.041e+04 1.132e-10
 70.88934    -98.2 1.045e+04 1.298e-10
 70.92184    -95.7 1.048e+04 1.489e-10
 70.94298    -95.7 1.050e+04 1.386e-10
 70.97393    -93.2 1.053e+04 1.629e-10
 71.01510    -90.8 1.052e+04 1.858e-10
 71.03625    -90.8 1.062e+04 1.991e-10
 71.05852    -88.4 1.061e+04 2.287e-10
 71.10082    -86.0 1.055e+04 2.477e-10
 71.12952    -83.6 1.052e+04 2.521e-10
 71.15067    -83.6 1.063e+04 2.766e-10
 71.18541    -81.0 1.057e+04 2.772e-10
 71.22279    -78.4 1.034e+04 2.597e-10
 71.24394    -78.3 1.044e+04 2.607e-10
 71.27000    -75.5 1.031e+04 2.334e-10
 71.31230    -72.8 1.017e+04 2.012e-10
 71.33721    -70.0 1.005e+04 1.697e-10
 71.35835    -69.9 1.020e+04 1.929e-10
 71.39689    -67.2 1.007e+04 1.698e-10
 71.43047    -64.3 9.932e+03 1.462e-10
 71.45162    -64.2 1.005e+04 1.781e-10
 71.48148    -61.4 9.915e+03 1.558e-10
 71.52374    -58.5 9.793e+03 1.335e-10
 71.56604    -55.4 9.841e+03 1.482e-10
 71.60837    -52.6 9.775e+03 1.300e-10
 71.63816    -49.7 9.724e+03 1.130e-10
 71.65931    -49.4 9.828e+03 1.551e-10
 71.69296    -46.5 9.761e+03 1.345e-10
 71.73143    -43.5 9.713e+03 1.145e-10
 71.75258    -43.2 9.738e+03 1.492e-10
 71.77755    -40.3 9.689e+03 1.252e-10
 71.81985    -37.3 9.665e+03 1.090e-10
 71.84584    -34.6 9.662e+03 1.014e-10
 71.86699    -34.1 9.694e+03 1.221e-10
 71.90444    -31.4 9.699e+03 1.208e-10
 71.93911    -28.9 9.786e+03 1.241e-10
 71.96026    -28.6 9.890e+03 1.521e-10
 71.98903    -26.2 9.976e+03 1.897e-10
 72.03132    -23.8 1.005e+04 2.361e-10
 72.05353    -21.3 1.013e+04 2.741e-10
 72.07468    -21.0 1.032e+04 3.524e-10
 72.11592    -18.7 1.034e+04 3.655e-10
 72.14680    -16.4 1.024e+04 3.508e-10
 72.16795    -16.2 1.044e+04 4.009e-10
 72.20051    -13.8 1.025e+04 2.846e-10
 72.24007    -11.8 1.016e+04 1.949e-10
 72.26121    -12.0 1.025e+04 2.069e-10
 72.28510    -10.3 1.013e+04 1.643e-10
 72.32739     -8.3 1.007e+04 1.548e-10
 72.35448     -6.2 1.001e+04 1.610e-10
 72.37563     -6.3 1.005e+04 2.162e-10
 72.41199     -4.1 1.012e+04 2.587e-10
 72.44775     -1.6 1.020e+04 2.958e-10
 72.46890     -1.3 1.030e+04 3.147e-10
 72.49658      1.1 1.032e+04 3.145e-10
 72.53887      3.3 1.039e+04 2.915e-10
 72.56217      5.3 1.045e+04 2.509e-10
 72.58332      5.2 1.041e+04 2.133e-10
 72.62346      7.1 1.042e+04 1.921e-10
 72.65544      9.0 1.041e+04 1.778e-10
 72.67658      9.1 1.046e+04 1.852e-10
 72.70806     10.8 1.055e+04 1.808e-10
 72.74871     12.3 1.074e+04 1.932e-10
 72.76985     12.0 1.109e+04 2.611e-10
 72.78152     13.2 1.125e+04 3.216e-10
 72.79200     14.0 1.118e+04 3.241e-10
 72.80303     14.0 1.115e+04 3.315e-10
 72.81629     15.1 1.137e+04 3.876e-10
 72.82687     14.8 1.140e+04 4.546e-10
 72.84532     15.3 1.147e+04 4.928e-10
 72.86293     16.2 1.162e+04 5.414e-10
 72.87350     16.0 1.190e+04 6.402e-10
 72.88762     16.6 1.205e+04 6.606e-10
 72.90876     17.1 1.222e+04 6.876e-10
 72.92013     17.6 1.234e+04 7.031e-10
 72.93071     16.8 1.253e+04 9.773e-10
 72.95106     17.4 1.281e+04 1.041e-09
 72.96677     18.0 1.326e+04 1.072e-09
 72.97734     17.1 1.379e+04 1.687e-09
 72.99336     17.7 1.412e+04 1.640e-09
 73.01340     18.3 1.404e+04 1.517e-09
 73.02398     18.0 1.403e+04 2.155e-09
 73.03565     18.5 1.351e+04 1.826e-09
 73.05680     19.0 1.297e+04 1.522e-09
 73.07071     20.2 1.268e+04 1.243e-09
 73.09195     18.2 1.255e+04 1.244e-09
 73.13101     19.8 1.186e+04 9.248e-10
 73.16408     20.9 1.165e+04 8.212e-10
 73.18522     19.6 1.131e+04 7.526e-10
 73.21560     21.1 1.120e+04 7.199e-10
 73.25734     22.7 1.094e+04 7.263e-10
 73.27849     22.3 1.073e+04 7.136e-10
 73.30020     24.8 1.060e+04 7.576e-10
 73.34249     27.8 1.046e+04 6.209e-10
 73.37176     30.3 1.021e+04 4.425e-10
 73.39291     30.1 1.010e+04 4.268e-10
 73.42708     32.0 1.009e+04 3.469e-10
 73.46503     33.7 1.016e+04 3.823e-10
 73.48618     33.3 1.021e+04 3.795e-10
 73.51167     35.2 1.035e+04 5.673e-10
 73.55397     37.7 1.072e+04 8.408e-10
 73.57945     40.3 1.115e+04 1.010e-09
 73.60059     39.6 1.116e+04 1.137e-09
 73.63856     41.4 1.134e+04 1.127e-09
 73.67271     42.6 1.155e+04 1.119e-09
 73.69386     42.0 1.137e+04 1.064e-09
 73.72315     43.2 1.138e+04 1.078e-09
 73.76545     44.6 1.122e+04 1.042e-09
 73.78713     45.9 1.100e+04 9.418e-10
 73.80828     45.8 1.055e+04 7.574e-10
 73.85004     47.1 1.044e+04 7.366e-10
 73.88040     48.6 1.026e+04 6.953e-10
 73.90155     49.0 1.012e+04 6.397e-10
 73.93463     50.8 9.909e+03 5.779e-10
 73.97367     52.7 9.557e+03 4.362e-10
 73.99481     53.5 9.573e+03 4.428e-10
 74.01922     55.5 9.193e+03 2.907e-10
 74.06152     57.3 8.872e+03 1.817e-10
 74.08808     59.0 8.633e+03 1.244e-10
 74.10923     60.0 8.647e+03 1.406e-10
 74.14611     62.0 8.461e+03 1.110e-10
 74.18135     64.4 8.368e+03 9.669e-11
 74.20250     65.4 8.463e+03 1.148e-10
 74.23070     67.9 8.407e+03 9.563e-11
 74.27300     70.5 8.385e+03 7.864e-11
 74.29577     72.9 8.373e+03 6.443e-11
 74.31692     73.7 8.397e+03 6.692e-11
 74.35759     75.9 8.320e+03 5.551e-11
 74.38904     78.3 8.243e+03 5.418e-11
 74.41018     78.9 8.259e+03 5.553e-11
 74.44218     81.3 8.248e+03 5.615e-11
 74.48231     83.9 8.246e+03 6.019e-11
 74.50345     84.4 8.319e+03 6.538e-11
 74.52677     86.9 8.358e+03 7.302e-11
 74.56907     89.5 8.442e+03 8.509e-11
 74.59672     92.1 8.566e+03 1.001e-10
 74.61787     92.5 8.711e+03 1.090e-10
 74.65366     94.8 8.845e+03 1.251e-10
 74.68999     97.0 8.991e+03 1.455e-10
 74.71114     96.9 9.156e+03 1.797e-10
 74.73825     98.6 9.377e+03 2.372e-10
 74.78055    100.1 9.687e+03 3.345e-10
 74.80441    101.5 1.007e+04 4.752e-10
 74.82555    100.6 1.055e+04 7.542e-10
 74.86514    101.8 1.089e+04 9.242e-10
 74.89768    102.5 1.093e+04 9.353e-10
 74.91882    100.8 1.098e+04 9.759e-10
 74.94973    101.5 1.074e+04 8.317e-10
 74.99094    102.2 1.031e+04 6.575e-10
 75.01209    100.7 1.020e+04 6.488e-10
 75.03432    101.9 9.877e+03 5.533e-10
 75.07662    103.4 9.635e+03 4.992e-10
 75.10536    105.2 9.465e+03 4.637e-10
 75.12651    104.6 9.540e+03 4.625e-10
 75.16121    106.7 9.340e+03 4.010e-10
 75.19863    108.7 9.113e+03 3.466e-10
 75.21978    108.0 9.130e+03 3.438e-10
 75.24580    110.1 8.910e+03 3.044e-10
 75.28809    112.4 8.742e+03 2.821e-10
 75.31305    114.7 8.650e+03 2.762e-10
 75.33419    114.1 8.757e+03 2.862e-10
 75.37269    116.4 8.716e+03 2.797e-10
 75.39821    118.7 8.675e+03 2.805e-10
 75.41069    119.0 9.538e+03 5.170e-10
 75.42746    118.2 9.518e+03 4.711e-10
 75.45728    120.4 9.407e+03 4.365e-10
 75.49957    122.7 9.286e+03 4.064e-10
 75.54187    124.0 8.865e+03 2.692e-10
 75.58416    126.5 8.851e+03 2.698e-10
 75.61400    129.2 8.852e+03 2.770e-10
 75.63515    128.2 8.677e+03 2.240e-10
 75.66876    130.9 8.746e+03 2.466e-10
 75.70727    133.6 8.879e+03 2.837e-10
 75.72842    132.8 8.793e+03 2.538e-10
 75.75335    135.3 8.950e+03 2.961e-10
 75.79564    137.6 9.152e+03 3.589e-10
 75.82168    139.8 9.433e+03 4.550e-10
 75.84283    139.1 9.251e+03 3.763e-10
 75.88023    141.2 9.559e+03 4.884e-10
 75.91495    143.1 9.896e+03 6.304e-10
 75.93610    142.3 9.456e+03 4.419e-10
 75.96483    143.7 9.513e+03 4.747e-10
 76.00712    144.6 9.495e+03 4.720e-10
 76.02937    145.3 9.373e+03 4.505e-10
 76.05052    144.8 8.886e+03 3.058e-10
 76.09171    145.8 8.705e+03 2.793e-10
 76.12264    146.9 8.504e+03 2.458e-10
 76.14379    147.0 8.469e+03 2.332e-10
 76.17630    148.3 8.300e+03 2.077e-10
 76.21591    149.8 8.111e+03 1.758e-10
 76.23705    150.1 8.237e+03 1.961e-10
 76.26090    151.6 8.031e+03 1.588e-10
 76.30319    153.1 7.791e+03 1.212e-10
 76.33032    154.7 7.547e+03 9.343e-11
 76.35147    155.1 7.760e+03 1.178e-10
 76.38778    156.9 7.542e+03 9.606e-11
 76.42359    158.9 7.504e+03 9.375e-11
 76.44474    159.2 7.762e+03 1.271e-10
 76.47237    161.3 7.768e+03 1.275e-10
 76.51467    163.6 7.802e+03 1.312e-10
 76.53801    165.8 7.914e+03 1.443e-10
 76.55916    165.9 8.346e+03 2.187e-10
 76.59926    168.1 8.594e+03 2.558e-10
 76.63128    170.2 8.886e+03 3.033e-10
 76.65242    170.0 9.321e+03 4.460e-10
 76.67318    171.1 9.315e+03 4.446e-10
 76.68829    172.0 9.312e+03 4.439e-10
 76.69886    172.0 9.456e+03 5.287e-10
 76.70636    173.3 9.572e+03 5.845e-10
 76.71693    173.5 9.793e+03 7.226e-10
 76.73492    174.9 9.986e+03 8.076e-10
 76.74550    174.9 1.035e+04 1.024e-09
 76.75768    176.0 1.053e+04 1.096e-09
 76.77882    177.1 1.068e+04 1.134e-09
 76.79213    178.1 1.079e+04 1.157e-09
 76.80271    177.8 1.106e+04 1.379e-09
 76.82112    178.7 1.122e+04 1.486e-09
 76.83877    179.7 1.148e+04 1.610e-09
 76.84934    179.4 1.171e+04 1.800e-09
 76.86341    180.3 1.215e+04 2.130e-09
 76.88456    181.1 1.283e+04 2.607e-09
 76.89597    181.8 1.372e+04 3.266e-09
 76.90655    181.1 1.364e+04 3.529e-09
 76.92686    181.7 1.445e+04 4.534e-09
 76.94256    181.9 1.474e+04 4.991e-09
 76.95313    181.3 1.481e+04 5.321e-09
 76.96382    181.6 1.514e+04 5.834e-09
 76.97111    181.8 1.551e+04 6.445e-09
 76.97640    181.4 1.545e+04 6.434e-09
 76.98492    181.5 1.585e+04 7.381e-09
 76.99443    181.6 1.624e+04 8.638e-09
 76.99972    181.2 1.607e+04 8.355e-09
 77.00607    181.2 1.653e+04 9.976e-09
 77.01664    181.0 1.716e+04 1.209e-08
 77.02304    180.3 1.810e+04 1.538e-08
 77.02832    179.7 1.816e+04 1.494e-08
 77.03779    178.2 1.939e+04 2.132e-08
 77.04635    176.3 2.046e+04 3.349e-08
 77.05164    175.2 2.073e+04 3.639e-08
 77.05894    173.6 2.132e+04 7.125e-08
 77.06951    172.4 2.170e+04 1.331e-07
 77.07496    170.7 2.199e+04 1.839e-07
 77.08024    171.2 2.129e+04 5.008e-07
 77.09066    167.8 2.129e+04 5.192e-07
 77.09827    166.0 2.114e+04 4.335e-07
 77.10356    164.8 2.097e+04 8.022e-07
 77.11180    165.1 2.098e+04 3.726e-07
 77.12159    167.0 2.115e+04 9.829e-08
 77.12688    166.8 2.111e+04 9.569e-08
 77.13829    167.5 2.120e+04 8.604e-09
 77.15029    162.1 1.508e+04 8.595e-10
 77.16087    160.9 1.481e+04 8.773e-10
 77.18063    153.8 1.110e+04 6.111e-10
 77.19693    152.5 1.035e+04 5.434e-10
 77.20750    152.6 1.038e+04 5.448e-10
 77.22293    153.0 1.015e+04 5.147e-10
 77.24356    153.5 1.007e+04 4.972e-10
 77.25414    153.9 1.014e+04 5.047e-10
 77.26522    154.4 1.009e+04 4.928e-10
 77.28637    155.0 1.007e+04 4.837e-10
 77.30077    155.6 1.006e+04 4.775e-10
 77.31134    155.7 1.022e+04 5.327e-10
 77.32867    156.1 1.024e+04 5.395e-10
 77.34740    156.6 1.029e+04 5.562e-10
 77.35798    156.6 1.051e+04 6.925e-10
 77.37096    157.1 1.058e+04 7.689e-10
 77.39211    157.7 1.077e+04 7.754e-10
 77.40461    158.2 1.080e+04 7.743e-10
 77.41519    158.1 1.125e+04 1.167e-09
 77.43441    158.6 1.140e+04 1.224e-09
 77.45125    159.0 1.154e+04 1.260e-09
 77.46182    158.5 1.233e+04 2.081e-09
 77.47670    158.7 1.262e+04 2.266e-09
 77.49785    158.8 1.288e+04 2.422e-09
 77.51900    158.7 1.421e+04 4.600e-09
 77.54015    159.0 1.432e+04 4.648e-09
 77.55509    159.3 1.431e+04 4.550e-09
 77.56566    159.1 1.492e+04 5.779e-09
 77.58244    159.3 1.468e+04 5.017e-09
 77.60172    159.4 1.428e+04 4.055e-09
 77.61230    158.8 1.420e+04 3.807e-09
 77.62474    158.4 1.374e+04 2.956e-09
 77.64589    157.9 1.329e+04 2.270e-09
 77.65893    157.1 1.282e+04 1.722e-09
 77.66960    155.9 1.270e+04 1.396e-09
 77.69895    153.8 1.190e+04 8.960e-10
 77.74125    151.6 1.108e+04 5.875e-10
 77.76297    149.3 1.039e+04 4.628e-10
 77.78412    146.7 9.870e+03 4.133e-10
 77.82584    145.3 9.839e+03 4.162e-10
 77.85624    144.0 9.797e+03 4.429e-10
 77.87739    143.6 9.644e+03 4.115e-10
 77.91043    142.6 9.715e+03 4.390e-10
 77.94951    141.5 9.850e+03 4.490e-10
 77.97065    142.1 9.699e+03 3.976e-10
 77.99375    140.8 9.739e+03 3.928e-10
 78.01490    140.5 9.569e+03 3.553e-10
 78.03732    139.0 9.677e+03 3.757e-10
 78.06392    137.3 9.735e+03 3.933e-10
 78.08507    138.7 9.621e+03 3.584e-10
 78.12191    137.0 9.606e+03 3.568e-10
 78.15719    135.6 9.505e+03 3.384e-10
 78.17834    137.0 9.536e+03 3.429e-10
 78.20650    135.9 9.248e+03 2.765e-10
 78.24880    135.1 8.847e+03 1.815e-10
 78.27161    134.6 8.437e+03 9.965e-11
 78.29276    135.7 8.498e+03 1.055e-10
 78.33339    135.0 8.077e+03 5.337e-11
 78.36488    134.6 7.871e+03 4.064e-11
 78.38602    135.6 7.886e+03 4.321e-11
 78.41798    135.7 7.851e+03 4.272e-11
 78.45814    136.0 7.851e+03 4.290e-11
 78.47929    137.1 7.880e+03 4.999e-11
 78.50257    137.6 7.927e+03 5.165e-11
 78.54487    137.9 8.082e+03 5.917e-11
 78.57256    138.0 8.281e+03 7.531e-11
 78.59371    139.3 8.316e+03 7.987e-11
 78.62946    139.3 8.525e+03 9.392e-11
 78.66583    138.9 8.792e+03 1.090e-10
 78.68698    139.9 8.742e+03 1.052e-10
 78.71405    138.9 8.922e+03 1.110e-10
 78.75634    137.5 9.098e+03 1.208e-10
 78.78025    136.1 9.244e+03 1.439e-10
 78.80139    137.2 9.235e+03 1.409e-10
 78.84094    135.9 9.454e+03 1.933e-10
 78.87351    134.9 9.764e+03 2.810e-10
 78.89466    136.0 9.896e+03 2.942e-10
 78.92553    135.0 1.025e+04 4.032e-10
 78.95715    134.5 1.053e+04 5.129e-10
 78.97716    134.1 1.080e+04 6.138e-10
 78.98774    134.7 1.092e+04 6.909e-10
 78.99935    134.3 1.117e+04 7.309e-10
 79.02050    133.8 1.117e+04 7.223e-10
 79.03437    133.2 1.108e+04 6.535e-10
 79.04494    133.9 1.138e+04 7.865e-10
 79.06279    133.5 1.122e+04 6.784e-10
 79.08100    133.1 1.095e+04 5.367e-10
 79.09158    133.7 1.129e+04 6.532e-10
 79.10509    133.3 1.094e+04 4.814e-10
 79.12624    132.7 1.054e+04 3.387e-10
 79.13821    132.1 1.018e+04 2.651e-10
 79.14879    132.7 1.042e+04 2.819e-10
 79.17437    131.8 1.015e+04 2.559e-10
 79.19552    131.8 1.015e+04 2.659e-10
 79.21083    131.6 1.015e+04 2.676e-10
 79.23148    131.5 1.015e+04 2.712e-10
 79.24205    131.7 1.026e+04 2.857e-10
 79.25312    131.6 1.026e+04 2.980e-10
 79.27427    131.5 1.031e+04 3.183e-10
 79.28869    131.4 1.041e+04 3.510e-10
 79.29926    131.4 1.063e+04 4.172e-10
 79.31247    131.3 1.079e+04 4.957e-10
 79.32305    131.1 1.105e+04 5.855e-10
 79.33532    130.9 1.130e+04 7.102e-10
 79.34590    130.8 1.170e+04 8.593e-10
 79.35886    130.4 1.201e+04 1.039e-09
 79.38001    130.0 1.239e+04 1.259e-09
 79.39253    129.5 1.286e+04 1.528e-09
 79.40311    128.8 1.327e+04 1.719e-09
 79.42231    128.0 1.367e+04 1.970e-09
 79.43917    127.3 1.403e+04 2.218e-09
 79.44974    126.5 1.408e+04 2.217e-09
 79.46460    125.8 1.411e+04 2.221e-09
 79.48575    125.1 1.404e+04 2.129e-09
 79.50690    123.9 1.340e+04 1.575e-09
 79.52805    123.2 1.306e+04 1.287e-09
 79.54301    122.5 1.271e+04 1.040e-09
 79.55358    121.8 1.244e+04 9.577e-10
 79.57034    121.2 1.219e+04 8.554e-10
 79.58964    120.9 1.202e+04 7.785e-10
 79.60022    120.9 1.204e+04 8.443e-10
 79.61264    121.0 1.199e+04 8.165e-10
 79.63378    121.1 1.196e+04 7.794e-10
 79.64685    121.2 1.192e+04 7.222e-10
 79.65742    121.6 1.224e+04 8.960e-10
 79.67608    121.9 1.228e+04 8.154e-10
 79.69349    122.2 1.230e+04 7.179e-10
 79.70406    122.5 1.297e+04 9.530e-10
 79.71838    122.8 1.307e+04 8.227e-10
 79.73952    123.2 1.306e+04 7.027e-10
 79.75069    123.6 1.292e+04 6.081e-10
 79.76127    123.6 1.375e+04 8.341e-10
 79.78182    124.1 1.338e+04 7.256e-10
 79.79733    124.5 1.295e+04 6.498e-10
 79.80790    124.5 1.311e+04 9.133e-10
 79.82412    125.0 1.280e+04 8.402e-10
 79.84396    125.5 1.276e+04 8.348e-10
 79.85454    125.3 1.312e+04 1.263e-09
 79.86641    125.6 1.349e+04 1.319e-09
 79.88756    125.8 1.408e+04 1.462e-09
 79.90117    125.7 1.470e+04 1.689e-09
 79.91174    125.5 1.547e+04 2.805e-09
 79.92985    125.6 1.612e+04 3.244e-09
 79.94780    125.7 1.635e+04 3.487e-09
 79.95838    125.6 1.700e+04 5.247e-09
 79.97215    125.5 1.703e+04 5.164e-09
 79.99330    125.4 1.694e+04 4.744e-09
 80.00501    125.1 1.653e+04 4.056e-09
 80.01559    125.2 1.703e+04 5.173e-09
 80.03559    124.9 1.634e+04 4.023e-09
 80.05165    124.7 1.550e+04 3.074e-09
 80.06222    124.9 1.575e+04 3.380e-09
 80.07789    124.9 1.489e+04 2.531e-09
 80.09828    124.8 1.425e+04 2.000e-09
 80.10886    124.9 1.438e+04 2.113e-09
 80.12019    125.0 1.421e+04 1.916e-09
 80.14133    125.8 1.427e+04 1.917e-09
 80.15549    126.4 1.467e+04 1.978e-09
 80.16606    126.2 1.478e+04 2.133e-09
 80.18363    125.8 1.606e+04 2.544e-09
 80.20212    124.7 1.781e+04 3.615e-09
 80.21270    123.0 1.914e+04 4.515e-09
 80.22592    120.5 2.183e+04 7.123e-09
 80.24707    117.9 2.481e+04 8.922e-09
 80.25933    115.4 2.590e+04 8.391e-09
 80.26991    114.4 2.673e+04 1.196e-08
 80.28937    112.4 2.666e+04 5.798e-09
 80.30597    107.5 2.333e+04 1.896e-09
 80.31654    105.1 2.011e+04 1.323e-09
 80.33166     95.2 1.141e+04 5.245e-10
 80.36348     89.4 1.008e+04 4.665e-10
 80.39943     88.2 1.018e+04 5.097e-10
 80.42058     87.7 9.991e+03 4.654e-10
 80.44817     87.3 9.993e+03 4.974e-10
 80.49047     87.0 9.915e+03 4.871e-10
 80.51385     87.3 9.657e+03 4.286e-10
 80.53499     87.0 9.226e+03 2.933e-10
 80.57506     87.7 8.988e+03 2.369e-10
 80.60711     88.7 8.797e+03 1.881e-10
 80.62134     88.3 8.549e+03 1.471e-10
 80.63158     87.4 8.477e+03 1.115e-10
 80.65965     88.9 8.403e+03 1.059e-10
 80.70038     90.6 8.387e+03 1.031e-10
 80.72153     90.5 8.391e+03 1.031e-10
 80.74424     92.4 8.419e+03 1.035e-10
 80.78654     94.3 8.492e+03 1.060e-10
 80.81480     96.2 8.591e+03 1.131e-10
 80.83595     95.6 8.738e+03 1.265e-10
 80.87113     97.4 8.854e+03 1.458e-10
 80.90807     99.5 9.025e+03 1.760e-10
 80.92922     98.6 9.277e+03 2.118e-10
 80.95572    100.8 9.525e+03 2.593e-10
 80.99802    103.2 9.830e+03 3.155e-10
 81.02248    105.4 1.014e+04 3.725e-10
 81.04363    103.7 1.031e+04 3.978e-10
 81.06902    105.3 1.031e+04 4.128e-10
 81.07950    104.8 1.041e+04 4.346e-10
 81.09299    106.0 1.061e+04 4.831e-10
 81.11414    107.0 1.084e+04 5.382e-10
 81.12613    108.0 1.108e+04 5.965e-10
 81.13671    107.2 1.131e+04 6.673e-10
 81.15643    108.2 1.154e+04 7.441e-10
 81.17277    109.0 1.174e+04 8.352e-10
 81.18334    108.1 1.206e+04 9.626e-10
 81.19873    108.9 1.233e+04 1.102e-09
 81.21940    109.5 1.267e+04 1.304e-09
 81.22997    107.7 1.334e+04 1.717e-09
 81.24102    107.8 1.392e+04 2.245e-09
 81.26217    107.9 1.449e+04 3.005e-09
 81.27661    108.5 1.511e+04 4.049e-09
 81.28718    107.4 1.537e+04 5.380e-09
 81.30447    108.0 1.601e+04 6.427e-09
 81.32324    107.9 1.658e+04 7.214e-09
 81.33382    107.0 1.587e+04 6.058e-09
 81.34676    106.7 1.597e+04 6.043e-09
 81.36791    106.2 1.604e+04 6.067e-09
 81.38045    105.7 1.620e+04 6.229e-09
 81.39103    104.0 1.464e+04 3.386e-09
 81.41021    103.1 1.469e+04 3.358e-09
 81.42709    102.0 1.475e+04 3.277e-09
 81.43766     99.8 1.322e+04 1.623e-09
 81.45250     98.4 1.326e+04 1.639e-09
 81.47365     97.0 1.312e+04 1.713e-09
 81.49480     95.4 1.244e+04 1.440e-09
 81.51594     95.4 1.252e+04 1.699e-09
 81.53093     95.7 1.253e+04 1.831e-09
 81.55217     94.6 1.219e+04 1.140e-09
 81.59016     95.1 1.198e+04 1.001e-09
 81.62178     95.5 1.157e+04 8.448e-10
 81.63477     96.1 1.112e+04 6.852e-10
 81.64534     95.3 1.079e+04 5.613e-10
 81.66398     95.6 1.044e+04 4.303e-10
 81.68140     95.8 1.010e+04 3.384e-10
 81.69198     94.5 1.010e+04 3.380e-10
 81.70628     94.5 9.763e+03 2.943e-10
 81.72742     94.8 9.602e+03 2.902e-10
 81.73861     95.4 9.597e+03 2.910e-10
 81.74919     93.8 9.976e+03 3.996e-10
 81.76972     94.4 9.967e+03 4.111e-10
 81.78525     95.0 9.978e+03 4.367e-10
 81.79582     94.0 1.021e+04 5.749e-10
 81.81201     94.7 1.025e+04 6.140e-10
 81.83188     95.5 1.035e+04 6.655e-10
 81.84246     94.8 1.043e+04 7.763e-10
 81.85431     95.6 1.053e+04 8.087e-10
 81.87546     96.3 1.065e+04 8.472e-10
 81.88909     97.1 1.080e+04 8.996e-10
 81.89966     96.1 1.062e+04 8.527e-10
 81.91775     96.7 1.066e+04 8.569e-10
 81.92916     97.3 1.066e+04 8.546e-10
 81.93655     96.4 1.040e+04 7.650e-10
 81.94630     94.9 9.850e+03 6.041e-10
 81.96005     95.3 9.786e+03 5.985e-10
 81.98120     95.8 9.738e+03 5.951e-10
 81.99293     96.5 9.742e+03 5.957e-10
 82.00351     95.1 9.674e+03 5.104e-10
 82.02349     95.7 9.822e+03 5.260e-10
 82.03957     96.3 1.004e+04 5.553e-10
 82.05014     94.0 1.010e+04 5.190e-10
 82.06579     94.2 1.030e+04 5.685e-10
 82.08620     94.2 1.047e+04 6.355e-10
 82.09677     91.8 1.020e+04 6.274e-10
 82.10808     92.2 1.024e+04 7.067e-10
 82.12923     92.8 1.034e+04 7.927e-10
 82.14341     93.4 1.070e+04 9.364e-10
 82.15398     91.7 1.101e+04 9.596e-10
 82.16619     92.0 1.123e+04 1.042e-09
 82.17192     92.3 1.139e+04 1.095e-09
 82.17720     89.7 1.301e+04 1.149e-09
 82.18729     81.0 2.345e+04 1.627e-09
 82.19523     66.0 3.301e+04 6.393e-09
 82.20052     57.8 2.945e+04 1.822e-08
 82.20844     51.7 2.534e+04 6.263e-08
 82.21855     49.5 2.288e+04 1.272e-07
 82.22384     49.2 2.248e+04 1.514e-07
 82.22959     48.3 2.268e+04 1.511e-07
 82.24016     47.8 2.291e+04 1.287e-07
 82.24715     47.1 2.422e+04 6.564e-08
 82.25244     45.2 2.602e+04 3.946e-08
 82.26131     40.4 2.792e+04 1.059e-08
 82.27722     26.2 2.289e+04 1.144e-09
 82.29389      8.6 1.076e+04 1.763e-10
 82.30446      5.9 8.514e+03 1.807e-10
 82.31956      4.4 7.895e+03 1.545e-10
 82.34052      4.3 7.797e+03 1.528e-10
 82.36177      4.4 7.846e+03 1.553e-10
 82.39378      3.7 8.007e+03 1.720e-10
 82.42540      1.7 8.369e+03 1.987e-10
 82.44436     -4.6 1.156e+04 4.095e-10
 82.45494    -10.9 1.343e+04 9.642e-10
 82.46760    -15.7 1.632e+04 4.131e-09
 82.48875    -17.5 1.873e+04 1.342e-08
 82.50152    -19.5 2.014e+04 2.373e-08
 82.50676    -19.8 2.022e+04 2.477e-08
 82.51508    -20.3 2.063e+04 3.734e-08
 82.52479    -20.9 2.082e+04 4.416e-08
 82.53008    -20.7 2.023e+04 3.139e-08
 82.53623    -20.4 1.975e+04 2.651e-08
 82.54681    -20.3 1.899e+04 1.713e-08
 82.55339    -22.4 1.847e+04 1.096e-08
 82.55868    -24.1 1.730e+04 7.383e-09
 82.57329    -27.3 1.496e+04 3.492e-09
 82.59449    -30.3 1.319e+04 1.539e-09
 82.60541    -34.0 1.122e+04 6.450e-10
 82.61599    -35.0 1.062e+04 5.367e-10
 82.63678    -36.4 9.771e+03 2.998e-10
 82.65205    -36.6 9.556e+03 2.644e-10
 82.66272    -36.0 9.717e+03 2.929e-10
 82.68985    -35.3 8.916e+03 1.431e-10
 82.73214    -35.3 8.394e+03 7.555e-11
 82.75609    -35.4 8.109e+03 5.001e-11
 82.77723    -35.5 8.110e+03 4.949e-11
 82.81673    -35.4 7.874e+03 4.371e-11
 82.84935    -35.0 7.896e+03 4.778e-11
 82.87050    -35.2 7.979e+03 5.132e-11
 82.90132    -34.3 7.902e+03 6.491e-11
 82.94262    -34.3 8.226e+03 8.456e-11
 82.96377    -36.1 8.714e+03 1.156e-10
 82.98592    -38.2 9.698e+03 2.847e-10
 83.02821    -37.9 1.021e+04 5.677e-10
 83.05704    -37.5 1.053e+04 5.874e-10
 83.07819    -38.7 1.092e+04 6.455e-10
 83.10213    -38.8 1.069e+04 4.801e-10
 83.11405    -40.4 1.059e+04 4.033e-10
 83.12463    -42.0 1.053e+04 3.845e-10
 83.14433    -52.7 1.969e+04 4.413e-10
 83.16069    -67.9 2.377e+04 2.797e-09
 83.17126    -67.0 2.136e+04 2.815e-09
 83.18663    -71.5 1.970e+04 1.131e-08
 83.20244    -71.4 1.905e+04 1.701e-08
 83.21251    -72.6 1.918e+04 1.784e-08
 83.21780    -72.4 1.906e+04 1.558e-08
 83.22354    -72.9 2.047e+04 1.460e-08
 83.23212    -77.2 2.421e+04 8.753e-09
 83.23740    -80.6 2.245e+04 4.627e-09
 83.25002    -92.9 1.525e+04 1.434e-09
 83.26453   -101.3 1.113e+04 8.269e-10
 83.27510   -100.6 1.108e+04 8.486e-10
 83.29236   -102.7 1.021e+04 6.675e-10
 83.31116   -103.6 9.938e+03 5.826e-10
 83.32174   -102.9 1.000e+04 5.989e-10
 83.33466   -103.5 9.677e+03 4.765e-10
 83.35581   -104.2 9.363e+03 3.679e-10
 83.36837   -104.9 9.218e+03 3.206e-10
 83.37894   -104.4 9.201e+03 3.165e-10
 83.40878   -105.3 9.126e+03 2.858e-10
 83.45117   -107.2 9.193e+03 2.866e-10
 83.48279   -107.7 9.492e+03 3.560e-10
 83.50384   -108.5 9.655e+03 4.282e-10
 83.51885   -109.3 1.010e+04 6.003e-10
 83.52942   -108.8 1.001e+04 5.689e-10
 83.54614   -109.8 1.065e+04 7.674e-10
 83.56548   -111.2 1.152e+04 1.097e-09
 83.57606   -110.5 1.127e+04 9.902e-10
 83.58843   -111.9 1.214e+04 1.459e-09
 83.60958   -113.0 1.297e+04 2.174e-09
 83.62269   -113.5 1.369e+04 3.014e-09
 83.63326   -112.5 1.329e+04 2.589e-09
 83.65188   -112.9 1.386e+04 3.240e-09
 83.66932   -113.3 1.418e+04 3.563e-09
 83.67990   -112.5 1.381e+04 3.082e-09
 83.69417   -113.2 1.390e+04 3.143e-09
 83.71532   -114.0 1.393e+04 3.042e-09
 83.72653   -115.0 1.396e+04 2.894e-09
 83.73711   -113.8 1.362e+04 2.632e-09
 83.75762   -114.9 1.372e+04 2.623e-09
 83.77317   -116.3 1.409e+04 2.802e-09
 83.78374   -114.7 1.371e+04 2.469e-09
 83.79991   -116.1 1.417e+04 2.887e-09
 83.81980   -117.2 1.461e+04 3.531e-09
 83.83037   -115.8 1.428e+04 3.094e-09
 83.84221   -116.5 1.471e+04 3.867e-09
 83.86336   -116.9 1.496e+04 4.419e-09
 83.87701   -117.1 1.499e+04 4.511e-09
 83.88758   -115.7 1.497e+04 4.516e-09
 83.90565   -115.8 1.487e+04 4.440e-09
 83.92364   -115.5 1.441e+04 3.467e-09
 83.93422   -114.3 1.456e+04 3.861e-09
 83.94795   -114.0 1.394e+04 2.612e-09
 83.96910   -114.3 1.312e+04 1.577e-09
 83.98085   -115.0 1.216e+04 9.741e-10
 83.99143   -113.5 1.257e+04 1.113e-09
 84.01139   -114.3 1.163e+04 7.437e-10
 84.02749   -114.8 1.097e+04 6.189e-10
 84.03806   -113.5 1.133e+04 6.572e-10
 84.05369   -113.6 1.098e+04 6.114e-10
 84.07412   -113.5 1.088e+04 6.084e-10
 84.08469   -112.4 1.109e+04 6.586e-10
 84.09598   -112.1 1.106e+04 6.588e-10
 84.11713   -111.9 1.103e+04 7.052e-10
 84.13133   -111.5 1.110e+04 7.574e-10
 84.14190   -111.0 1.132e+04 8.023e-10
 84.16749   -111.0 1.126e+04 8.264e-10
 84.18863   -109.6 1.168e+04 9.577e-10
 84.21239   -109.1 1.176e+04 1.026e-09
 84.25479   -108.9 1.150e+04 9.455e-10
 84.28190   -108.3 1.164e+04 1.034e-09
 84.29238   -107.7 1.199e+04 1.214e-09
 84.30746   -107.5 1.190e+04 1.165e-09
 84.32844   -107.2 1.178e+04 1.101e-09
 84.33901   -106.7 1.196e+04 1.171e-09
 84.34976   -106.4 1.189e+04 1.115e-09
 84.37091   -105.9 1.162e+04 9.509e-10
 84.38565   -105.4 1.141e+04 8.206e-10
 84.39622   -104.8 1.154e+04 8.820e-10
 84.41320   -104.3 1.133e+04 7.545e-10
 84.43228   -103.9 1.122e+04 6.756e-10
 84.44286   -103.4 1.136e+04 7.131e-10
 84.45550   -103.0 1.129e+04 6.693e-10
 84.47665   -102.6 1.127e+04 6.615e-10
 84.48949   -102.1 1.125e+04 6.672e-10
 84.50006   -101.7 1.149e+04 7.294e-10
 84.51894   -101.3 1.153e+04 7.954e-10
 84.53527   -100.7 1.153e+04 8.584e-10
 84.54188   -100.3 1.155e+04 8.557e-10
 84.54670    -99.9 1.182e+04 9.291e-10
 84.56124    -99.3 1.186e+04 1.039e-09
 84.58238    -98.5 1.188e+04 1.089e-09
 84.59333    -97.7 1.186e+04 1.089e-09
 84.60391    -97.4 1.219e+04 1.236e-09
 84.62468    -96.7 1.221e+04 1.226e-09
 84.63997    -96.2 1.221e+04 1.147e-09
 84.65054    -96.0 1.240e+04 1.250e-09
 84.66698    -95.6 1.244e+04 1.208e-09
 84.68660    -95.2 1.252e+04 1.182e-09
 84.69718    -95.0 1.262e+04 1.256e-09
 84.70927    -94.6 1.274e+04 1.272e-09
 84.73042    -94.4 1.287e+04 1.275e-09
 84.76224    -94.4 1.300e+04 1.260e-09
 84.79054    -94.1 1.347e+04 1.480e-09
 84.81169    -94.5 1.304e+04 1.279e-09
 84.83626    -95.1 1.349e+04 1.567e-09
 84.84765    -95.4 1.365e+04 1.708e-09
 84.85823    -95.2 1.354e+04 1.676e-09
 84.87845    -95.5 1.367e+04 1.799e-09
 84.89429    -95.5 1.378e+04 1.852e-09
 84.90496    -95.2 1.347e+04 1.642e-09
 84.93152    -95.4 1.346e+04 1.620e-09
 84.97382    -95.5 1.326e+04 1.377e-09
 84.99823    -95.1 1.291e+04 1.132e-09
 85.01937    -94.6 1.258e+04 9.743e-10
 85.05841    -94.2 1.250e+04 8.867e-10
 85.09003    -93.3 1.226e+04 7.883e-10
 85.10197    -93.3 1.244e+04 8.101e-10
 85.11264    -92.3 1.204e+04 6.859e-10
 85.13233    -92.2 1.218e+04 7.420e-10
 85.14861    -91.9 1.234e+04 8.320e-10
 85.15918    -91.0 1.205e+04 6.964e-10
 85.17452    -90.5 1.214e+04 7.599e-10
 85.19524    -90.4 1.228e+04 8.476e-10
 85.20591    -89.4 1.190e+04 6.336e-10
 85.21692    -89.0 1.208e+04 7.663e-10
 85.23797    -88.6 1.213e+04 8.295e-10
 85.25245    -88.2 1.212e+04 8.805e-10
 85.26302    -87.2 1.194e+04 7.245e-10
 85.28026    -87.0 1.194e+04 7.475e-10
 85.29908    -86.5 1.186e+04 7.604e-10
 85.32033    -85.2 1.173e+04 6.527e-10
 85.34381    -84.8 1.168e+04 6.897e-10
 85.35629    -84.3 1.163e+04 6.824e-10
 85.36686    -83.6 1.167e+04 6.592e-10
 85.38600    -83.1 1.159e+04 6.684e-10
 85.40292    -82.9 1.154e+04 6.537e-10
 85.41360    -82.3 1.172e+04 7.116e-10
 85.42840    -82.0 1.158e+04 7.120e-10
 85.44945    -81.7 1.152e+04 7.243e-10
 85.46013    -81.4 1.142e+04 7.215e-10
 85.47071    -80.7 1.177e+04 9.068e-10
 85.49174    -80.7 1.172e+04 9.082e-10
 85.50677    -80.5 1.161e+04 9.020e-10
 85.51734    -79.8 1.198e+04 1.118e-09
 85.53404    -79.6 1.197e+04 1.117e-09
 85.55340    -79.2 1.168e+04 1.092e-09
 85.56398    -78.7 1.206e+04 1.229e-09
 85.57633    -78.3 1.181e+04 1.107e-09
 85.59748    -77.7 1.135e+04 8.780e-10
 85.61061    -76.9 1.099e+04 6.665e-10
 85.62118    -76.6 1.115e+04 7.413e-10
 85.63978    -75.9 1.076e+04 5.504e-10
 85.65724    -75.3 1.053e+04 4.294e-10
 85.66782    -75.1 1.054e+04 4.425e-10
 85.69274    -74.9 1.035e+04 3.557e-10
 85.71465    -73.8 1.004e+04 2.767e-10
 85.73580    -73.1 1.009e+04 2.868e-10
 85.77743    -71.3 9.712e+03 2.127e-10
 85.80792    -69.5 9.459e+03 1.638e-10
 85.82906    -68.7 9.457e+03 1.590e-10
 85.84381    -67.0 9.331e+03 1.313e-10
 85.86496    -66.8 9.434e+03 1.776e-10
 85.90118    -65.1 9.355e+03 1.586e-10
 85.92233    -64.4 9.366e+03 1.595e-10
 85.94662    -62.8 9.305e+03 1.508e-10
 85.98891    -61.2 9.256e+03 1.500e-10
 86.01560    -59.7 9.218e+03 1.656e-10
 86.03675    -59.2 9.337e+03 1.743e-10
 86.07350    -57.8 9.381e+03 2.064e-10
 86.10887    -56.2 9.368e+03 2.352e-10
 86.13002    -55.8 9.589e+03 2.979e-10
 86.15810    -54.1 9.471e+03 2.976e-10
 86.20039    -52.3 9.250e+03 2.607e-10
 86.22329    -50.4 9.035e+03 2.036e-10
 86.24443    -49.9 8.933e+03 1.973e-10
 86.28498    -48.2 8.681e+03 1.428e-10
 86.31655    -46.6 8.538e+03 1.102e-10
 86.33770    -46.0 8.474e+03 1.055e-10
 86.36957    -44.4 8.448e+03 9.702e-11
 86.40982    -42.7 8.474e+03 9.765e-11
 86.43097    -41.9 8.444e+03 9.915e-11
 86.45417    -40.5 8.583e+03 1.139e-10
 86.49646    -39.0 8.705e+03 1.534e-10
 86.52424    -37.5 8.863e+03 2.158e-10
 86.54539    -36.5 8.867e+03 2.139e-10
 86.58105    -34.8 9.062e+03 2.921e-10
 86.61751    -33.0 9.229e+03 3.673e-10
 86.63866    -31.9 9.225e+03 3.655e-10
 86.66564    -30.2 9.293e+03 4.094e-10
 86.70794    -28.5 9.270e+03 4.179e-10
 86.73192    -26.6 8.964e+03 3.644e-10
 86.75307    -25.4 9.069e+03 3.972e-10
 86.79253    -23.3 8.733e+03 2.966e-10
 86.82519    -21.4 8.387e+03 1.930e-10
 86.84634    -20.1 8.491e+03 2.186e-10
 86.87712    -18.5 8.179e+03 1.420e-10
 86.91846    -16.9 7.940e+03 1.010e-10
 86.93961    -15.7 8.087e+03 1.162e-10
 86.96171    -14.0 7.938e+03 9.240e-11
 87.00401    -12.1 7.864e+03 8.275e-11
 87.03288    -10.3 7.884e+03 8.215e-11
 87.05403     -9.6 8.137e+03 1.132e-10
 87.08860     -8.3 8.327e+03 1.381e-10
 87.12615     -7.0 8.620e+03 2.074e-10
 87.14729     -6.1 8.865e+03 3.117e-10
 87.17319     -4.6 9.257e+03 4.319e-10
 87.21549     -3.0 9.538e+03 5.668e-10
 87.24056     -1.3 9.562e+03 6.535e-10
 87.25104     -0.5 9.552e+03 5.985e-10
 87.26816     -0.4 9.542e+03 5.989e-10
 87.28700      1.2 9.315e+03 5.662e-10
 87.29758      1.2 9.310e+03 5.661e-10
 87.31046      1.4 9.320e+03 5.682e-10
 87.33373      2.9 9.039e+03 5.241e-10
 87.35488      3.4 9.254e+03 5.866e-10
 87.38457      5.4 9.117e+03 5.580e-10
 87.42697      7.6 8.758e+03 4.040e-10
 87.46926     10.2 9.153e+03 4.857e-10
 87.51156     11.3 9.107e+03 3.749e-10
 87.54152     12.5 8.905e+03 3.168e-10
 87.55199     14.1 9.215e+03 4.080e-10
 87.56423     14.4 9.163e+03 3.736e-10
 87.59605     15.3 9.219e+03 3.620e-10
 87.63478     16.4 8.957e+03 3.412e-10
 87.65584     18.2 9.119e+03 3.328e-10
 87.68064     18.8 8.995e+03 3.411e-10
 87.72304     19.4 8.930e+03 3.773e-10
 87.74920     20.5 8.885e+03 3.850e-10
 87.75968     20.7 8.895e+03 4.187e-10
 87.77571     21.2 8.941e+03 4.503e-10
 87.79564     21.8 8.989e+03 4.661e-10
 87.80621     22.1 9.165e+03 5.621e-10
 87.81801     22.6 9.164e+03 5.646e-10
 87.83916     23.4 9.071e+03 5.003e-10
 87.85285     23.8 9.003e+03 4.693e-10
 87.86342     24.3 9.394e+03 6.662e-10
 87.89212     25.2 9.580e+03 6.654e-10
 87.93452     26.7 8.932e+03 4.158e-10
 87.95689     28.2 8.365e+03 2.465e-10
 87.97803     29.3 8.654e+03 2.280e-10
 88.01911     29.7 8.106e+03 1.105e-10
 88.05015     30.6 7.752e+03 8.507e-11
 88.07130     30.8 7.636e+03 7.901e-11
 88.10370     33.0 7.543e+03 7.832e-11
 88.14342     35.4 7.532e+03 8.342e-11
 88.16457     36.3 7.661e+03 8.164e-11
 88.18829     38.8 7.708e+03 9.204e-11
 88.23059     41.2 7.816e+03 1.121e-10
 88.25784     43.6 7.996e+03 1.437e-10
 88.27899     44.5 8.103e+03 1.466e-10
 88.31518     46.9 8.353e+03 1.975e-10
 88.35111     49.2 8.658e+03 2.609e-10
 88.37226     50.3 8.732e+03 2.656e-10
 88.39977     52.4 9.031e+03 3.373e-10
 88.43935     54.4 9.331e+03 4.232e-10
 88.46049     54.5 9.654e+03 5.230e-10
 88.46552     56.3 9.974e+03 6.234e-10
 88.48667     57.2 1.029e+04 7.514e-10
 88.52666     59.0 1.076e+04 9.808e-10
 88.55828     60.0 1.088e+04 1.073e-09
 88.56917     60.8 1.097e+04 1.129e-09
 88.57975     61.4 1.127e+04 1.317e-09
 88.60048     62.1 1.148e+04 1.432e-09
 88.61581     62.8 1.167e+04 1.487e-09
 88.62638     63.2 1.205e+04 1.742e-09
 88.64277     63.7 1.221e+04 1.795e-09
 88.66244     64.1 1.235e+04 1.837e-09
 88.67301     64.3 1.262e+04 2.031e-09
 88.68507     64.7 1.276e+04 2.116e-09
 88.70622     65.1 1.272e+04 2.124e-09
 88.71965     65.7 1.272e+04 2.127e-09
 88.73022     66.2 1.281e+04 2.241e-09
 88.74851     66.8 1.274e+04 2.186e-09
 88.76638     67.2 1.259e+04 2.089e-09
 88.78763     68.1 1.256e+04 2.052e-09
 88.82273     69.0 1.210e+04 1.671e-09
 88.85975     70.2 1.137e+04 1.154e-09
 88.88089     71.1 1.110e+04 9.707e-10
 88.90732     72.5 1.046e+04 6.619e-10
 88.94961     74.1 9.881e+03 4.460e-10
 88.97416     75.8 9.446e+03 3.219e-10
 88.99531     77.0 9.545e+03 3.551e-10
 89.03420     79.0 9.337e+03 3.084e-10
 89.06743     80.9 9.209e+03 2.830e-10
 89.08858     82.3 9.420e+03 3.297e-10
 89.11880     84.3 9.297e+03 3.038e-10
 89.16070     86.1 9.167e+03 2.757e-10
 89.18185     87.4 9.388e+03 3.218e-10
 89.20339     89.1 9.214e+03 2.856e-10
 89.24568     90.7 9.113e+03 2.662e-10
 89.27512     92.3 9.128e+03 2.698e-10
 89.29626     93.5 9.430e+03 3.329e-10
 89.33027     94.8 9.541e+03 3.559e-10
 89.36190     95.3 9.699e+03 3.986e-10
 89.37876     95.9 9.854e+03 4.475e-10
 89.38934     96.3 1.011e+04 5.324e-10
 89.40410     96.6 1.049e+04 6.678e-10
 89.42524     96.6 1.103e+04 9.077e-10
 89.43597     96.4 1.170e+04 1.317e-09
 89.44655     96.0 1.253e+04 1.945e-09
 89.46754     96.4 1.334e+04 2.935e-09
 89.48261     97.5 1.417e+04 4.208e-09
 89.49318     97.6 1.517e+04 6.040e-09
 89.50984     98.0 1.565e+04 6.650e-09
 89.52924     98.1 1.560e+04 6.417e-09
 89.53981     97.2 1.655e+04 8.087e-09
 89.55213     97.5 1.616e+04 6.561e-09
 89.57328     97.4 1.560e+04 4.782e-09
 89.58645     96.1 1.555e+04 3.576e-09
 89.59702     92.8 1.692e+04 5.760e-09
 89.61558     88.1 1.798e+04 6.563e-09
 89.63308     83.1 1.920e+04 9.794e-09
 89.64366     81.0 1.935e+04 1.723e-08
 89.65787     79.5 1.969e+04 2.274e-08
 89.67902     78.1 1.957e+04 2.252e-08
 89.69029     77.5 1.893e+04 1.788e-08
 89.70087     77.8 1.796e+04 1.314e-08
 89.72131     77.3 1.699e+04 7.101e-09
 89.73693     75.4 1.579e+04 3.253e-09
 89.74750     72.4 1.361e+04 1.456e-09
 89.75807     69.6 1.147e+04 8.071e-10
 89.76864     67.0 1.111e+04 8.361e-10
 89.78356     66.9 1.074e+04 6.324e-10
 89.80481     66.8 9.516e+03 2.988e-10
 89.83782     67.3 8.857e+03 2.067e-10
 89.87702     69.1 8.888e+03 1.840e-10
 89.89817     70.6 8.471e+03 1.364e-10
 89.92241     72.8 8.471e+03 1.434e-10
 89.96471     75.2 8.549e+03 1.587e-10
 89.99144     77.5 8.675e+03 1.777e-10
 90.01259     78.7 8.472e+03 1.505e-10
 90.04930     80.9 8.617e+03 1.739e-10
 90.08471     83.1 8.721e+03 1.901e-10
 90.10586     84.2 8.611e+03 1.702e-10
 90.13389     86.4 8.707e+03 1.883e-10
 90.17619     88.5 8.744e+03 1.956e-10
 90.19912     90.8 8.776e+03 1.967e-10
 90.22027     91.9 8.763e+03 1.954e-10
 90.26078     94.1 8.828e+03 2.043e-10
 90.29239     96.3 8.898e+03 2.139e-10
 90.31354     97.3 8.921e+03 2.198e-10
 90.34537     99.4 9.043e+03 2.426e-10
 90.38566    101.4 9.182e+03 2.717e-10
 90.40681    102.3 9.250e+03 2.964e-10
 90.42996    104.3 9.430e+03 3.418e-10
 90.47226    106.3 9.596e+03 3.855e-10
 90.50008    108.1 9.718e+03 4.174e-10
 90.52123    108.5 9.884e+03 4.623e-10
 90.55685    110.4 9.950e+03 4.723e-10
 90.59335    112.2 9.948e+03 4.731e-10
 90.61449    112.6 9.900e+03 4.651e-10
 90.64144    114.3 9.874e+03 4.522e-10
 90.68374    116.0 9.858e+03 4.402e-10
 90.70776    117.5 9.827e+03 4.245e-10
 90.72891    117.9 9.611e+03 3.596e-10
 90.76833    119.3 9.605e+03 3.495e-10
 90.80103    120.7 9.561e+03 3.268e-10
 90.82218    120.9 9.473e+03 2.963e-10
 90.85292    122.1 9.478e+03 2.927e-10
 90.89430    123.3 9.471e+03 2.793e-10
 90.91545    123.5 9.534e+03 2.950e-10
 90.93751    124.7 9.564e+03 2.982e-10
 90.97981    126.1 9.606e+03 3.076e-10
 91.00872    127.8 9.699e+03 3.120e-10
 91.02986    127.8 9.895e+03 4.013e-10
 91.05603    129.8 9.980e+03 4.269e-10
 91.07718    128.8 1.002e+04 4.364e-10
 91.10199    131.0 1.005e+04 4.035e-10
 91.12304    132.0 1.026e+04 6.039e-10
 91.13822    133.3 1.030e+04 5.966e-10
 91.15900    134.5 1.035e+04 5.799e-10
 91.16957    134.5 1.061e+04 7.600e-10
 91.18052    135.6 1.068e+04 7.474e-10
 91.20167    136.5 1.081e+04 7.472e-10
 91.21621    136.9 1.132e+04 7.898e-10
 91.22678    133.9 1.317e+04 1.662e-09
 91.24396    132.9 1.416e+04 2.347e-09
 91.26284    132.0 1.490e+04 3.335e-09
 91.27341    130.4 1.543e+04 5.369e-09
 91.28092    130.8 1.568e+04 5.832e-09
 91.29135    130.9 1.580e+04 6.180e-09
 91.29663    130.9 1.584e+04 6.517e-09
 91.30736    131.0 1.606e+04 6.586e-09
 91.32005    130.5 1.678e+04 6.887e-09
 91.33062    126.3 1.916e+04 5.134e-09
 91.34970    122.2 2.068e+04 4.303e-09
 91.36668    117.3 2.093e+04 3.880e-09
 91.37726    108.2 1.542e+04 3.112e-09
 91.39200    105.9 1.476e+04 3.655e-09
 91.41314    104.5 1.504e+04 4.946e-09
 91.42389    103.2 1.625e+04 6.252e-09
 91.42913    101.2 1.750e+04 7.095e-09
 91.43948    100.1 1.796e+04 7.690e-09
 91.45539     98.4 1.804e+04 7.884e-09
 91.47053     96.7 1.749e+04 7.101e-09
 91.48110     95.0 1.678e+04 8.053e-09
 91.49774     94.2 1.558e+04 5.777e-09
 91.51716     93.5 1.438e+04 3.826e-09
 91.52773     93.8 1.427e+04 3.269e-09
 91.54003     92.7 1.344e+04 1.948e-09
 91.56118     91.4 1.279e+04 1.266e-09
 91.57437     90.4 1.227e+04 9.448e-10
 91.58494     88.8 1.200e+04 8.362e-10
 91.60347     88.9 1.172e+04 7.851e-10
 91.62100     89.6 1.149e+04 7.356e-10
 91.63158     88.6 1.127e+04 7.453e-10
 91.64577     89.3 1.107e+04 7.170e-10
 91.66692     90.2 1.090e+04 7.207e-10
 91.67821     91.0 1.086e+04 7.215e-10
 91.68878     90.6 1.099e+04 8.832e-10
 91.70921     91.4 1.097e+04 8.528e-10
 91.72485     92.4 1.092e+04 8.185e-10
 91.73542     91.9 1.111e+04 9.209e-10
 91.75151     92.5 1.101e+04 8.770e-10
 91.77148     93.3 1.087e+04 8.248e-10
 91.78205     93.1 1.083e+04 7.914e-10
 91.79381     93.9 1.065e+04 7.166e-10
 91.81821     95.3 1.040e+04 6.308e-10
 91.83946     94.0 9.813e+03 4.085e-10
 91.86802     95.6 9.298e+03 2.949e-10
 91.91031     97.2 8.898e+03 2.214e-10
 91.93273     98.9 8.607e+03 1.752e-10
 91.95387     98.0 8.248e+03 1.123e-10
 91.99491    100.0 8.109e+03 9.795e-11
 92.02599    102.0 8.002e+03 8.717e-11
 92.04714    101.2 7.939e+03 8.006e-11
 92.07950    103.3 7.866e+03 7.628e-11
 92.11926    105.3 7.849e+03 7.685e-11
 92.14041    104.6 8.002e+03 1.009e-10
 92.16409    106.7 8.015e+03 1.080e-10
 92.20638    108.8 8.035e+03 1.141e-10
 92.23368    110.9 8.065e+03 1.204e-10
 92.25483    110.0 8.342e+03 1.511e-10
 92.29098    111.9 8.395e+03 1.606e-10
 92.32695    113.8 8.462e+03 1.728e-10
 92.34810    112.5 8.657e+03 1.888e-10
 92.37557    114.3 8.710e+03 2.015e-10
 92.41786    116.1 8.777e+03 2.166e-10
 92.44136    117.9 8.866e+03 2.343e-10
 92.46251    116.5 9.048e+03 2.448e-10
 92.50245    118.3 9.296e+03 2.786e-10
 92.53463    120.1 9.557e+03 3.155e-10
 92.55578    118.3 1.001e+04 3.896e-10
 92.57637    119.2 1.002e+04 3.957e-10
 92.59165    119.9 1.009e+04 4.100e-10
 92.60222    119.1 1.029e+04 4.874e-10
 92.61857    119.6 1.048e+04 5.722e-10
 92.63828    120.1 1.069e+04 6.761e-10
 92.64885    119.2 1.089e+04 8.077e-10
 92.66087    119.9 1.123e+04 9.539e-10
 92.68202    120.2 1.140e+04 1.036e-09
 92.71383    121.3 1.201e+04 1.347e-09
 92.74232    122.1 1.254e+04 1.644e-09
 92.76347    119.8 1.220e+04 1.400e-09
 92.79852    119.7 1.213e+04 1.221e-09
 92.83559    119.9 1.170e+04 8.517e-10
 92.85673    118.5 1.072e+04 4.195e-10
 92.88312    118.9 1.024e+04 2.808e-10
 92.92541    119.4 9.844e+03 2.069e-10
 92.95000    120.4 9.531e+03 1.707e-10
 92.97115    120.0 9.739e+03 2.062e-10
 93.01000    121.6 9.739e+03 2.103e-10
 93.04327    123.2 9.759e+03 2.169e-10
 93.06442    123.0 9.897e+03 2.521e-10
 93.09459    124.4 9.893e+03 2.534e-10
 93.13654    125.8 9.870e+03 2.513e-10
 93.15769    125.5 9.898e+03 2.599e-10
 93.17919    126.8 9.806e+03 2.461e-10
 93.22148    128.2 9.685e+03 2.213e-10
 93.25096    129.5 9.549e+03 1.915e-10
 93.27210    129.1 9.497e+03 1.814e-10
 93.30607    130.3 9.375e+03 1.530e-10
 93.34422    131.5 9.272e+03 1.292e-10
 93.36537    130.8 9.268e+03 1.251e-10
 93.39066    131.9 9.194e+03 1.097e-10
 93.43296    133.1 9.103e+03 1.003e-10
 93.45864    134.4 8.946e+03 9.832e-11
 93.47979    133.6 9.045e+03 1.207e-10
 93.51755    135.2 8.948e+03 1.146e-10
 93.55191    136.9 8.864e+03 1.065e-10
 93.57306    136.4 8.947e+03 1.173e-10
 93.60214    138.1 8.824e+03 9.991e-11
 93.64444    139.8 8.711e+03 8.466e-11
 93.66633    141.6 8.602e+03 7.203e-11
 93.67346    141.3 8.574e+03 6.588e-11
 93.69387    141.7 8.563e+03 6.436e-11
 93.72903    143.6 8.449e+03 5.598e-11
 93.75959    145.6 8.292e+03 5.234e-11
 93.78074    145.6 8.255e+03 4.830e-11
 93.81362    147.8 8.206e+03 4.828e-11
 93.85286    150.0 8.205e+03 4.837e-11
 93.87401    150.0 8.219e+03 4.637e-11
 93.89821    152.1 8.220e+03 4.751e-11
 93.94051    154.2 8.229e+03 5.029e-11
 93.96728    156.2 8.245e+03 5.491e-11
 93.98843    155.9 8.298e+03 5.536e-11
 94.02510    157.7 8.363e+03 6.428e-11
 94.06055    159.5 8.427e+03 7.753e-11
 94.08170    158.9 8.592e+03 9.723e-11
 94.10969    160.6 8.674e+03 1.163e-10
 94.15199    162.3 8.765e+03 1.371e-10
 94.17496    163.9 8.865e+03 1.589e-10
 94.19611    163.0 9.028e+03 1.799e-10
 94.23658    164.4 9.085e+03 1.919e-10
 94.26823    165.9 9.171e+03 2.055e-10
 94.28938    164.6 9.194e+03 2.020e-10
 94.32117    166.5 9.301e+03 2.071e-10
 94.36150    168.2 9.389e+03 2.141e-10
 94.38255    167.2 9.405e+03 2.146e-10
 94.39499    166.2 9.941e+03 2.490e-10
 94.41614    162.6 1.188e+04 4.548e-10
 94.42909    157.4 1.448e+04 1.369e-09
 94.43966    154.2 1.496e+04 2.599e-09
 94.45844    152.6 1.577e+04 4.791e-09
 94.47572    152.1 1.656e+04 7.224e-09
 94.48630    151.2 1.681e+04 7.872e-09
 94.50073    150.1 1.701e+04 7.594e-09
 94.52188    147.9 1.731e+04 6.052e-09
 94.53293    144.2 1.726e+04 3.538e-09
 94.54350    137.9 1.559e+04 1.492e-09
 94.56418    131.6 1.293e+04 8.656e-10
 94.57956    127.1 1.106e+04 8.323e-10
 94.59014    125.6 1.086e+04 7.822e-10
 94.60647    125.2 1.086e+04 8.638e-10
 94.62620    124.9 1.101e+04 9.944e-10
 94.63677    124.2 1.093e+04 9.475e-10
 94.64877    123.7 1.105e+04 9.533e-10
 94.66991    122.7 1.105e+04 9.397e-10
 94.68341    121.2 1.102e+04 8.946e-10
 94.69398    120.0 1.077e+04 7.796e-10
 94.71221    118.1 1.077e+04 7.804e-10
 94.73004    115.8 1.085e+04 8.130e-10
 94.74062    114.1 1.095e+04 8.284e-10
 94.75451    111.3 1.142e+04 1.055e-09
 94.77565    108.7 1.191e+04 1.408e-09
 94.78725    106.8 1.223e+04 1.789e-09
 94.79782    105.5 1.249e+04 2.084e-09
 94.81795    104.4 1.246e+04 2.146e-09
 94.83388    103.3 1.252e+04 2.131e-09
 94.84446    101.8 1.263e+04 2.101e-09
 94.86025     98.9 1.290e+04 2.116e-09
 94.88052     94.6 1.377e+04 2.248e-09
 94.89109     90.6 1.430e+04 2.243e-09
 94.89721     89.0 1.475e+04 2.420e-09
 94.90773     86.1 1.603e+04 3.029e-09
 94.91431     80.8 1.845e+04 5.373e-09
 94.91960     79.2 1.811e+04 5.869e-09
 94.92888     74.8 1.944e+04 1.193e-08
 94.93763     72.2 2.002e+04 2.302e-08
 94.94292     72.6 1.970e+04 2.232e-08
 94.95003     71.7 2.033e+04 3.485e-08
 94.96060     71.2 2.117e+04 4.332e-08
 94.96623     70.1 2.174e+04 4.332e-08
 94.97152     69.3 2.151e+04 3.389e-08
 94.98077     67.2 2.172e+04 3.003e-08
 94.98606     67.6 2.154e+04 2.838e-08
 94.98955     65.2 2.123e+04 2.184e-08
 94.99484     63.8 2.046e+04 1.655e-08
 95.00823     60.7 1.920e+04 1.064e-08
 95.02943     56.2 1.724e+04 5.867e-09
 95.04157     51.6 1.592e+04 4.758e-09
 95.05214     51.2 1.581e+04 4.718e-09
 95.07172     48.0 1.630e+04 5.217e-09
 95.08820     44.3 1.829e+04 8.019e-09
 95.09878     43.5 1.842e+04 8.025e-09
 95.10868     41.7 1.911e+04 9.524e-09
 95.11671     39.5 2.013e+04 1.237e-08
 95.12200     38.6 2.013e+04 1.206e-08
 95.12978     36.0 2.117e+04 1.658e-08
 95.14003     33.2 2.219e+04 2.525e-08
 95.14531     32.6 2.195e+04 2.196e-08
 95.15093     29.6 2.285e+04 3.159e-08
 95.16150     26.3 2.342e+04 3.715e-08
 95.16863     22.8 2.342e+04 3.641e-08
 95.17392     22.1 2.301e+04 2.956e-08
 95.18265     18.7 2.253e+04 2.524e-08
 95.19195     14.1 2.152e+04 1.751e-08
 95.20257     13.5 2.096e+04 1.489e-08
 95.21976      7.3 1.872e+04 7.184e-09
 95.23868      0.3 1.578e+04 3.112e-09
 95.24925     -0.1 1.518e+04 2.658e-09
 95.26205     -6.4 1.337e+04 1.815e-09
 95.28320     -9.6 1.295e+04 1.674e-09
 95.29589    -11.3 1.280e+04 1.614e-09
 95.30646    -10.8 1.278e+04 1.598e-09
 95.32550    -11.9 1.258e+04 1.480e-09
 95.34252    -12.6 1.219e+04 1.241e-09
 95.35310    -12.0 1.212e+04 1.196e-09
 95.36779    -13.3 1.159e+04 7.523e-10
 95.38894    -14.1 1.129e+04 5.816e-10
 95.39983    -16.0 1.060e+04 3.759e-10
 95.42107    -15.0 1.040e+04 3.263e-10
 95.46315    -15.5 9.643e+03 2.158e-10
 95.49319    -15.2 9.275e+03 1.592e-10
 95.51434    -14.1 9.199e+03 1.449e-10
 95.54775    -13.4 9.046e+03 1.129e-10
 95.58646    -12.5 8.965e+03 9.180e-11
 95.60761    -11.6 8.949e+03 9.124e-11
 95.63234    -10.6 8.883e+03 7.859e-11
 95.67463     -9.4 8.835e+03 7.115e-11
 95.70088     -8.1 8.810e+03 6.636e-11
 95.72203     -7.1 8.773e+03 5.921e-11
 95.75922     -5.8 8.771e+03 5.784e-11
 95.79415     -4.3 8.787e+03 5.873e-11
 95.81530     -3.6 8.760e+03 5.527e-11
 95.84382     -2.4 8.827e+03 6.179e-11
 95.88611     -1.4 8.926e+03 8.154e-11
 95.90856     -0.3 9.116e+03 1.222e-10
 95.92971      0.3 9.118e+03 1.221e-10
 95.97070      1.5 9.413e+03 1.855e-10
 96.00183      2.6 9.733e+03 2.659e-10
 96.02298      3.1 9.641e+03 2.494e-10
 96.05529      4.1 9.840e+03 2.985e-10
 96.09510      4.8 9.935e+03 3.109e-10
 96.11625      5.2 9.728e+03 2.592e-10
 96.13989      5.8 9.762e+03 2.552e-10
 96.18218      6.3 9.825e+03 2.518e-10
 96.20952      6.8 9.881e+03 2.588e-10
 96.23067      7.2 9.695e+03 2.081e-10
 96.26677      7.7 9.786e+03 2.294e-10
 96.28941      8.3 9.871e+03 2.609e-10
 96.30427      8.7 9.915e+03 3.039e-10
 96.32393      8.9 9.765e+03 2.589e-10
 96.35136      9.8 9.821e+03 2.798e-10
 96.39366     10.6 9.877e+03 2.935e-10
 96.41720     11.6 9.978e+03 3.060e-10
 96.43835     11.8 9.885e+03 2.740e-10
 96.47825     12.8 9.983e+03 2.901e-10
 96.51047     13.7 1.015e+04 3.161e-10
 96.53162     13.6 1.011e+04 2.880e-10
 96.56284     14.2 1.032e+04 3.355e-10
 96.59447     14.2 1.039e+04 3.792e-10
 96.61412     14.3 1.053e+04 4.598e-10
 96.62469     14.3 1.049e+04 4.373e-10
 96.63667     14.7 1.082e+04 5.723e-10
 96.65781     15.1 1.132e+04 7.684e-10
 96.67133     15.4 1.185e+04 1.013e-09
 96.68190     15.2 1.172e+04 9.142e-10
 96.70011     15.3 1.219e+04 1.169e-09
 96.71796     15.3 1.260e+04 1.457e-09
 96.72854     15.0 1.238e+04 1.254e-09
 96.74240     15.0 1.268e+04 1.490e-09
 96.76355     15.0 1.289e+04 1.647e-09
 96.77517     15.0 1.292e+04 1.660e-09
 96.78574     14.6 1.266e+04 1.447e-09
 96.80585     14.5 1.263e+04 1.424e-09
 96.82180     14.5 1.250e+04 1.348e-09
 96.83238     14.2 1.228e+04 1.213e-09
 96.84814     14.2 1.213e+04 1.149e-09
 96.86844     14.3 1.199e+04 1.099e-09
 96.87901     14.2 1.193e+04 1.056e-09
 96.89044     14.4 1.193e+04 1.064e-09
 96.91159     14.6 1.201e+04 1.112e-09
 96.92565     14.5 1.223e+04 1.243e-09
 96.93622     14.4 1.230e+04 1.285e-09
 96.95388     14.2 1.262e+04 1.540e-09
 96.97228     14.0 1.297e+04 1.895e-09
 96.98285     13.9 1.296e+04 1.917e-09
 96.99618     13.8 1.328e+04 2.316e-09
 97.01733     13.6 1.355e+04 2.673e-09
 97.02949     13.4 1.384e+04 2.960e-09
 97.04006     13.2 1.362e+04 2.634e-09
 97.05962     12.4 1.389e+04 2.805e-09
 97.07612     11.3 1.402e+04 3.018e-09
 97.08670     10.8 1.354e+04 2.589e-09
 97.10192      9.8 1.346e+04 2.589e-09
 97.12276      9.3 1.321e+04 2.519e-09
 97.13333      9.2 1.273e+04 2.131e-09
 97.14421      9.2 1.240e+04 1.899e-09
 97.16536      9.4 1.201e+04 1.561e-09
 97.17997      9.6 1.155e+04 1.198e-09
 97.19054      9.5 1.119e+04 9.684e-10
 97.20766      9.4 1.071e+04 7.002e-10
 97.22660      9.3 1.023e+04 5.021e-10
 97.23717      9.1 9.969e+03 4.132e-10
 97.24995      8.8 9.545e+03 3.238e-10
 97.27110      8.9 9.278e+03 2.952e-10
 97.28381      9.1 9.249e+03 2.919e-10
 97.29438      9.2 9.273e+03 2.951e-10
 97.31997     10.1 9.215e+03 2.855e-10
 97.34121     10.7 9.202e+03 2.893e-10
 97.36646     11.9 9.196e+03 2.890e-10
 97.38775     12.1 9.201e+03 2.976e-10
 97.39822     12.5 9.252e+03 3.077e-10
 97.41914     12.9 9.295e+03 3.230e-10
 97.43428     13.5 9.406e+03 3.561e-10
 97.44486     13.8 9.565e+03 3.988e-10
 97.46143     14.3 9.814e+03 4.776e-10
 97.48092     14.6 9.993e+03 5.755e-10
 97.49149     14.9 1.024e+04 6.651e-10
 97.50373     14.9 1.067e+04 7.853e-10
 97.52488     14.5 1.140e+04 1.010e-09
 97.53813     13.5 1.256e+04 1.459e-09
 97.54870     14.2 1.277e+04 1.673e-09
 97.56717     12.8 1.417e+04 2.612e-09
 97.58476     11.6 1.549e+04 4.276e-09
 97.59399     12.4 1.559e+04 4.414e-09
 97.59755     12.2 1.729e+04 9.082e-09
 97.60947     11.6 1.849e+04 1.438e-08
 97.63062     10.9 1.921e+04 1.848e-08
 97.64197     10.2 1.907e+04 1.776e-08
 97.65254     10.5 1.950e+04 1.971e-08
 97.67291     10.2 1.899e+04 1.713e-08
 97.68860     10.4 1.775e+04 1.133e-08
 97.69918     10.4 1.838e+04 1.396e-08
 97.71521     10.7 1.694e+04 8.580e-09
 97.73524     10.7 1.521e+04 4.638e-09
 97.74581     10.8 1.631e+04 6.940e-09
 97.75750     10.5 1.474e+04 3.862e-09
 97.77865      9.8 1.286e+04 1.944e-09
 97.79245      8.7 1.093e+04 9.898e-10
 97.80302     10.2 1.222e+04 1.555e-09
 97.82095      9.4 1.033e+04 7.806e-10
 97.83908      9.1 9.507e+03 5.493e-10
 97.84965     10.2 9.845e+03 6.733e-10
 97.86324     10.8 9.098e+03 4.552e-10
 97.88439     11.1 9.050e+03 4.080e-10
 97.89629     12.5 8.857e+03 3.520e-10
 97.90686     13.0 8.860e+03 3.521e-10
 97.92669     13.5 8.858e+03 3.476e-10
 97.94292     15.2 8.819e+03 3.454e-10
 97.95350     15.7 8.858e+03 3.448e-10
 97.96898     16.4 8.865e+03 3.468e-10
 97.98956     18.0 8.879e+03 3.547e-10
 98.00013     18.4 8.894e+03 3.548e-10
 98.01128     19.0 8.931e+03 3.629e-10
 98.03242     20.1 8.972e+03 3.827e-10
 98.04677     20.8 9.048e+03 4.070e-10
 98.05734     21.3 9.089e+03 4.096e-10
 98.07472     22.2 9.228e+03 4.579e-10
 98.09340     23.2 9.450e+03 5.279e-10
 98.10397     23.5 9.539e+03 5.489e-10
 98.11702     24.5 9.782e+03 6.395e-10
 98.13816     25.5 1.002e+04 7.322e-10
 98.15061     26.5 1.024e+04 8.193e-10
 98.16118     26.6 1.032e+04 8.514e-10
 98.18046     27.6 1.049e+04 9.243e-10
 98.19724     28.6 1.069e+04 9.998e-10
 98.20782     28.7 1.071e+04 1.011e-09
 98.22276     29.5 1.095e+04 1.106e-09
 98.24388     30.3 1.121e+04 1.232e-09
 98.26502     31.0 1.159e+04 1.434e-09
 98.28620     31.7 1.213e+04 1.754e-09
 98.30108     32.2 1.281e+04 2.251e-09
 98.31166     32.0 1.272e+04 2.227e-09
 98.32849     32.7 1.354e+04 3.000e-09
 98.34772     33.6 1.445e+04 4.136e-09
 98.35829     33.4 1.384e+04 3.403e-09
 98.37079     33.9 1.464e+04 4.463e-09
 98.39194     34.1 1.556e+04 5.884e-09
 98.40493     34.0 1.657e+04 7.787e-09
 98.41550     33.9 1.582e+04 5.841e-09
 98.43423     33.1 1.701e+04 7.993e-09
 98.45156     31.8 1.807e+04 1.073e-08
 98.46214     30.9 1.738e+04 8.495e-09
 98.47653     29.5 1.833e+04 1.177e-08
 98.49768     28.1 1.869e+04 1.396e-08
 98.50877     27.1 1.854e+04 1.347e-08
 98.51934     27.6 1.732e+04 9.633e-09
 98.53997     27.7 1.648e+04 7.569e-09
 98.55540     28.1 1.526e+04 4.932e-09
 98.56598     28.7 1.418e+04 3.523e-09
 98.58227     28.8 1.290e+04 2.001e-09
 98.60204     28.2 1.164e+04 1.037e-09
 98.61261     28.5 1.107e+04 8.073e-10
 98.62456     26.9 1.004e+04 4.357e-10
 98.64571     25.6 9.325e+03 2.864e-10
 98.65925     25.7 9.257e+03 2.662e-10
 98.68049     27.1 9.270e+03 2.664e-10
 98.71993     28.0 8.949e+03 2.125e-10
 98.75271     29.7 9.037e+03 2.143e-10
 98.77386     32.2 8.156e+03 1.250e-10
 98.80452     33.9 8.242e+03 1.298e-10
 98.84598     35.6 8.479e+03 1.467e-10
 98.86713     37.7 7.824e+03 8.848e-11
 98.88494     39.2 8.079e+03 1.097e-10
 98.90609     39.7 7.840e+03 9.217e-11
 98.93140     41.2 8.085e+03 1.138e-10
 98.96040     42.6 8.370e+03 1.445e-10
 98.98154     44.4 8.197e+03 1.279e-10
 99.01600     45.7 8.452e+03 1.641e-10
 99.05366     47.0 8.724e+03 2.083e-10
 99.07481     48.6 8.629e+03 1.992e-10
 99.10059     49.8 8.858e+03 2.420e-10
 99.14288     51.0 9.066e+03 2.856e-10
 99.16808     52.2 9.246e+03 3.259e-10
 99.18923     53.5 9.210e+03 3.221e-10
 99.22747     54.8 9.334e+03 3.572e-10
 99.26135     56.1 9.458e+03 3.793e-10
 99.28250     57.1 9.577e+03 4.154e-10
 99.31207     58.3 9.599e+03 4.152e-10
 99.35436     59.5 9.559e+03 3.999e-10
 99.37577     60.7 9.441e+03 3.664e-10
 99.39691     61.5 9.513e+03 3.875e-10
 99.43895     62.7 9.469e+03 3.741e-10
 99.46903     63.9 9.513e+03 3.811e-10
 99.49018     64.3 9.649e+03 4.139e-10
 99.51287     64.9 9.638e+03 4.163e-10
 99.52605     65.3 9.718e+03 4.477e-10
 99.53662     65.5 9.770e+03 4.636e-10
 99.55507     66.1 9.964e+03 5.374e-10
 99.57268     66.7 1.024e+04 6.346e-10
 99.58325     66.8 1.023e+04 6.370e-10
 99.59737     67.4 1.053e+04 7.415e-10
 99.61851     67.8 1.081e+04 8.335e-10
 99.62989     68.1 1.098e+04 8.675e-10
 99.64046     68.2 1.069e+04 7.632e-10
 99.66081     68.4 1.069e+04 7.599e-10
 99.67652     68.7 1.067e+04 7.401e-10
 99.68710     69.0 1.032e+04 5.864e-10
 99.70311     69.3 1.028e+04 5.538e-10
 99.73492     69.4 1.005e+04 4.425e-10
 99.76999     70.1 9.903e+03 3.891e-10
 99.79114     70.9 9.560e+03 2.993e-10
 99.81961     71.9 9.356e+03 2.676e-10
 99.86191     73.1 9.318e+03 2.645e-10
 99.88440     74.2 9.359e+03 2.736e-10
 99.90555     75.3 9.089e+03 2.251e-10
 99.94650     76.6 9.271e+03 2.623e-10
 99.97767     77.7 9.527e+03 3.201e-10
 99.99882     79.0 9.236e+03 2.586e-10
