# Columns:
#   distance along LOS (in CHIMPs)
#   peculiar velocity  (in km/s)
#   temperature (K)
#   HI number density
# pos=(33.6004,83.8559,229.781), angles=(0.297295,5.92842)
  0.00711    -92.5 1.524e+04 3.618e-09
  0.01493    -92.8 1.477e+04 3.042e-09
  0.02585    -96.0 1.396e+04 2.130e-09
  0.04628    -99.4 1.295e+04 1.509e-09
  0.06671   -103.6 1.262e+04 1.327e-09
  0.08112   -111.1 1.315e+04 1.315e-09
  0.09133   -109.9 1.219e+04 1.047e-09
  0.10756   -119.8 1.778e+04 1.304e-09
  0.12799   -128.9 2.243e+04 4.602e-09
  0.14731   -135.9 2.321e+04 1.354e-08
  0.15752   -131.9 2.252e+04 9.347e-09
  0.16069   -138.3 2.252e+04 1.622e-08
  0.17090   -139.2 2.273e+04 1.966e-08
  0.18927   -145.4 2.227e+04 2.049e-08
  0.20970   -150.4 2.065e+04 1.552e-08
  0.22372   -156.8 1.827e+04 7.004e-09
  0.23393   -155.2 1.841e+04 7.839e-09
  0.25055   -162.0 1.484e+04 2.688e-09
  0.27098   -167.8 1.177e+04 9.315e-10
  0.28991   -170.2 1.059e+04 5.397e-10
  0.30012   -169.1 1.067e+04 5.631e-10
  0.31183   -170.0 1.017e+04 4.354e-10
  0.33226   -170.5 1.006e+04 3.780e-10
  0.34858   -171.1 1.004e+04 3.400e-10
  0.35879   -171.3 1.008e+04 3.513e-10
  0.36641   -172.4 1.001e+04 3.138e-10
  0.38694   -171.4 1.014e+04 3.241e-10
  0.42438   -173.6 1.012e+04 3.069e-10
  0.46523   -175.9 1.007e+04 3.006e-10
  0.49889   -178.0 1.015e+04 3.035e-10
  0.51932   -178.1 1.051e+04 3.444e-10
  0.53657   -179.8 1.108e+04 4.397e-10
  0.55690   -181.9 1.190e+04 8.320e-10
  0.57510   -183.3 1.260e+04 1.296e-09
  0.58532   -183.0 1.240e+04 1.226e-09
  0.59782   -184.1 1.289e+04 1.569e-09
  0.61824   -185.3 1.314e+04 1.783e-09
  0.63867   -186.6 1.319e+04 1.835e-09
  0.65151   -187.8 1.317e+04 1.836e-09
  0.66172   -187.7 1.252e+04 1.391e-09
  0.67953   -188.8 1.225e+04 1.253e-09
  0.69995   -189.9 1.189e+04 1.063e-09
  0.71770   -190.8 1.152e+04 9.010e-10
  0.72792   -190.8 1.106e+04 7.172e-10
  0.73458   -191.5 1.087e+04 6.629e-10
  0.74479   -191.6 1.074e+04 6.296e-10
  0.76124   -192.1 1.070e+04 6.218e-10
  0.78166   -192.8 1.070e+04 6.221e-10
  0.79411   -193.8 1.084e+04 6.754e-10
  0.80432   -193.7 1.084e+04 6.778e-10
  0.82252   -194.7 1.129e+04 8.441e-10
  0.84295   -195.7 1.188e+04 1.104e-09
  0.86030   -196.6 1.251e+04 1.456e-09
  0.87051   -196.4 1.233e+04 1.371e-09
  0.88380   -197.4 1.285e+04 1.710e-09
  0.90423   -198.5 1.323e+04 2.005e-09
  0.92247   -199.7 1.338e+04 2.147e-09
  0.93268   -200.3 1.343e+04 2.180e-09
  0.93671   -201.6 1.343e+04 2.190e-09
  0.94692   -201.2 1.302e+04 1.887e-09
  0.96551   -202.2 1.279e+04 1.812e-09
  0.98594   -203.1 1.237e+04 1.504e-09
  1.00290   -203.9 1.189e+04 1.149e-09
  1.01311   -203.4 1.166e+04 1.037e-09
  1.02679   -204.5 1.125e+04 7.865e-10
  1.04722   -205.8 1.089e+04 6.083e-10
  1.06765   -207.2 1.064e+04 5.043e-10
  1.07930   -208.5 1.055e+04 4.624e-10
  1.08952   -208.0 1.057e+04 4.676e-10
  1.10850   -209.5 1.056e+04 4.601e-10
  1.12058   -211.3 1.060e+04 4.607e-10
  1.13079   -213.3 1.120e+04 5.727e-10
  1.14550   -215.6 1.170e+04 7.384e-10
  1.15571   -215.4 1.195e+04 8.432e-10
  1.16978   -217.7 1.250e+04 1.168e-09
  1.19021   -219.6 1.300e+04 1.596e-09
  1.21064   -221.4 1.342e+04 2.043e-09
  1.22190   -223.0 1.369e+04 2.374e-09
  1.23211   -222.8 1.383e+04 2.549e-09
  1.25149   -224.4 1.386e+04 2.593e-09
  1.27192   -226.0 1.377e+04 2.547e-09
  1.28809   -227.5 1.345e+04 2.156e-09
  1.29831   -227.2 1.329e+04 1.986e-09
  1.30847   -228.9 1.278e+04 1.466e-09
  1.31868   -230.3 1.232e+04 1.116e-09
  1.33320   -232.0 1.180e+04 8.431e-10
  1.35363   -233.5 1.141e+04 6.744e-10
  1.36450   -234.7 1.118e+04 5.764e-10
  1.37471   -234.1 1.099e+04 5.275e-10
  1.39448   -235.0 1.092e+04 4.834e-10
  1.41491   -235.7 1.089e+04 4.541e-10
  1.43069   -236.4 1.085e+04 4.394e-10
  1.44090   -235.6 1.074e+04 4.049e-10
  1.45577   -236.3 1.073e+04 3.993e-10
  1.47619   -236.9 1.073e+04 3.989e-10
  1.49636   -237.4 1.073e+04 4.112e-10
  1.50658   -237.6 1.087e+04 5.024e-10
  1.50710   -238.0 1.093e+04 5.407e-10
  1.51731   -237.4 1.080e+04 4.582e-10
  1.53748   -238.0 1.083e+04 4.714e-10
  1.56821   -239.0 1.088e+04 4.882e-10
  1.60917   -239.8 1.102e+04 5.781e-10
  1.63968   -240.2 1.120e+04 6.762e-10
  1.66010   -238.1 1.081e+04 5.668e-10
  1.68445   -238.1 1.103e+04 6.875e-10
  1.70488   -238.4 1.083e+04 5.950e-10
  1.73173   -238.2 1.104e+04 7.055e-10
  1.77206   -238.5 1.111e+04 7.620e-10
  1.79249   -236.6 1.110e+04 7.589e-10
  1.81344   -236.8 1.112e+04 7.728e-10
  1.85429   -236.7 1.109e+04 7.672e-10
  1.89515   -236.4 1.091e+04 6.881e-10
  1.92487   -236.1 1.068e+04 5.656e-10
  1.93499   -234.9 1.081e+04 6.319e-10
  1.94602   -235.0 1.067e+04 5.831e-10
  1.96645   -235.3 1.051e+04 5.065e-10
  1.98688   -235.4 1.042e+04 4.437e-10
  2.01762   -235.6 1.037e+04 3.982e-10
  2.05726   -236.3 1.030e+04 3.665e-10
  2.07768   -234.9 1.024e+04 3.586e-10
  2.08066   -235.3 1.017e+04 3.323e-10
  2.09078   -236.6 1.055e+04 4.237e-10
  2.10944   -237.3 1.053e+04 4.355e-10
  2.14018   -237.8 1.050e+04 4.396e-10
  2.18113   -237.9 1.030e+04 4.093e-10
  2.21007   -238.0 1.007e+04 3.667e-10
  2.23049   -236.9 1.005e+04 3.571e-10
  2.26284   -237.0 9.823e+03 3.016e-10
  2.30370   -237.0 9.615e+03 2.463e-10
  2.34245   -237.0 9.429e+03 1.971e-10
  2.36288   -236.2 9.382e+03 1.893e-10
  2.38541   -236.3 9.242e+03 1.566e-10
  2.42626   -236.4 9.200e+03 1.406e-10
  2.45645   -236.6 9.203e+03 1.373e-10
  2.47688   -237.1 9.282e+03 1.335e-10
  2.49526   -237.5 9.362e+03 1.353e-10
  2.51569   -236.6 9.295e+03 1.338e-10
  2.54882   -237.2 9.525e+03 1.528e-10
  2.58968   -237.8 9.735e+03 1.831e-10
  2.62765   -238.5 9.858e+03 2.077e-10
  2.64807   -237.6 9.953e+03 2.309e-10
  2.67139   -238.3 1.002e+04 2.436e-10
  2.71224   -239.1 1.003e+04 2.445e-10
  2.75310   -239.7 9.994e+03 2.313e-10
  2.78046   -240.2 9.938e+03 2.081e-10
  2.80089   -239.7 1.016e+04 2.392e-10
  2.83223   -240.3 1.016e+04 2.253e-10
  2.85266   -240.7 1.015e+04 2.074e-10
  2.87566   -241.5 1.020e+04 2.083e-10
  2.91284   -242.6 1.086e+04 2.559e-10
  2.93327   -241.9 1.126e+04 2.975e-10
  2.94706   -242.5 1.174e+04 3.923e-10
  2.96739   -243.2 1.207e+04 4.866e-10
  2.98782   -244.2 1.244e+04 6.478e-10
  2.99927   -245.3 1.255e+04 7.496e-10
  3.00948   -246.4 1.220e+04 7.335e-10
  3.02867   -247.9 1.235e+04 8.956e-10
  3.04036   -249.1 1.247e+04 1.041e-09
  3.05057   -249.2 1.306e+04 1.268e-09
  3.06546   -250.3 1.304e+04 1.321e-09
  3.07567   -250.2 1.268e+04 1.187e-09
  3.08995   -251.3 1.266e+04 1.194e-09
  3.11038   -252.3 1.253e+04 1.199e-09
  3.13081   -253.2 1.228e+04 1.172e-09
  3.14186   -253.9 1.209e+04 1.101e-09
  3.15208   -253.5 1.190e+04 1.022e-09
  3.17166   -253.9 1.176e+04 9.611e-10
  3.19209   -254.2 1.161e+04 8.946e-10
  3.20806   -254.3 1.147e+04 8.294e-10
  3.21827   -254.0 1.139e+04 8.017e-10
  3.22825   -254.1 1.133e+04 7.620e-10
  3.23846   -254.1 1.142e+04 7.591e-10
  3.25337   -254.1 1.140e+04 7.288e-10
  3.27380   -254.1 1.143e+04 7.110e-10
  3.28446   -254.2 1.147e+04 7.008e-10
  3.29468   -254.6 1.149e+04 6.994e-10
  3.31465   -255.3 1.152e+04 6.893e-10
  3.33508   -256.1 1.149e+04 6.765e-10
  3.35065   -256.6 1.143e+04 6.617e-10
  3.37118   -256.8 1.131e+04 6.701e-10
  3.40677   -256.5 1.136e+04 7.151e-10
  3.44763   -256.7 1.155e+04 8.166e-10
  3.48323   -256.9 1.199e+04 1.008e-09
  3.50366   -256.9 1.267e+04 1.360e-09
  3.51903   -256.2 1.264e+04 1.337e-09
  3.53936   -256.4 1.293e+04 1.473e-09
  3.55944   -256.7 1.325e+04 1.651e-09
  3.56966   -258.1 1.377e+04 2.072e-09
  3.58021   -259.4 1.390e+04 2.293e-09
  3.60064   -260.5 1.389e+04 2.394e-09
  3.61425   -261.4 1.371e+04 2.329e-09
  3.62446   -261.3 1.376e+04 2.183e-09
  3.63585   -262.3 1.373e+04 2.204e-09
  3.64606   -263.6 1.355e+04 2.022e-09
  3.66192   -264.4 1.348e+04 1.947e-09
  3.68235   -265.4 1.347e+04 1.893e-09
  3.70204   -266.6 1.349e+04 1.868e-09
  3.71226   -268.1 1.334e+04 1.664e-09
  3.72320   -269.4 1.335e+04 1.720e-09
  3.74363   -270.5 1.332e+04 1.753e-09
  3.76406   -271.4 1.330e+04 1.758e-09
  3.77845   -272.1 1.311e+04 1.755e-09
  3.78866   -272.9 1.287e+04 1.652e-09
  3.80214   -273.2 1.266e+04 1.569e-09
  3.81236   -274.4 1.224e+04 1.350e-09
  3.82534   -274.8 1.203e+04 1.204e-09
  3.84464   -275.1 1.181e+04 1.062e-09
  3.85485   -275.6 1.161e+04 9.495e-10
  3.86619   -276.0 1.138e+04 8.429e-10
  3.88662   -276.2 1.118e+04 7.631e-10
  3.90705   -276.3 1.100e+04 7.081e-10
  3.92105   -276.1 1.088e+04 6.710e-10
  3.93126   -276.6 1.073e+04 5.941e-10
  3.94790   -276.5 1.069e+04 5.513e-10
  3.96833   -276.4 1.065e+04 4.953e-10
  3.98724   -276.5 1.057e+04 4.242e-10
  3.99745   -277.2 1.048e+04 3.724e-10
  4.00035   -276.9 1.044e+04 3.601e-10
  4.02087   -278.2 1.040e+04 3.603e-10
  4.05363   -276.6 1.005e+04 2.852e-10
  4.07405   -276.7 9.483e+03 2.083e-10
  4.10130   -275.4 9.146e+03 1.705e-10
  4.14216   -274.0 9.015e+03 1.545e-10
  4.18301   -272.5 8.999e+03 1.513e-10
  4.20644   -270.9 8.999e+03 1.512e-10
  4.22686   -271.2 8.998e+03 1.514e-10
  4.26472   -269.8 9.064e+03 1.586e-10
  4.30558   -268.5 9.247e+03 1.894e-10
  4.33882   -267.3 9.469e+03 2.369e-10
  4.35925   -268.0 9.521e+03 2.432e-10
  4.37623   -266.9 9.772e+03 3.054e-10
  4.39666   -267.5 9.864e+03 3.443e-10
  4.42814   -266.6 1.008e+04 3.996e-10
  4.46900   -265.7 1.025e+04 4.458e-10
  4.49163   -264.9 1.038e+04 4.773e-10
  4.51206   -265.3 1.051e+04 5.209e-10
  4.55070   -264.2 1.056e+04 5.269e-10
  4.59156   -263.3 1.058e+04 5.222e-10
  4.62210   -263.5 1.054e+04 4.980e-10
  4.63404   -263.6 1.055e+04 4.889e-10
  4.64425   -264.6 1.063e+04 4.836e-10
  4.66286   -264.6 1.062e+04 4.660e-10
  4.68329   -264.7 1.065e+04 4.466e-10
  4.70023   -264.8 1.067e+04 4.242e-10
  4.71044   -266.1 1.059e+04 3.699e-10
  4.72414   -266.1 1.051e+04 3.423e-10
  4.74457   -266.0 1.044e+04 3.251e-10
  4.76203   -265.7 1.039e+04 3.189e-10
  4.77234   -265.1 1.037e+04 3.486e-10
  4.77683   -264.4 1.026e+04 3.270e-10
  4.79726   -265.1 9.596e+03 2.051e-10
  4.83669   -264.4 9.473e+03 1.791e-10
  4.87754   -263.7 9.457e+03 1.659e-10
  4.90921   -263.0 9.468e+03 1.626e-10
  4.92964   -263.3 9.211e+03 1.243e-10
  4.95925   -262.3 9.262e+03 1.248e-10
  5.00011   -261.2 9.360e+03 1.285e-10
  5.04096   -259.9 9.454e+03 1.366e-10
  5.06202   -258.6 9.527e+03 1.489e-10
  5.08245   -258.3 9.332e+03 1.208e-10
  5.12267   -256.8 9.415e+03 1.321e-10
  5.14823   -255.4 9.486e+03 1.445e-10
  5.16865   -256.3 9.533e+03 1.663e-10
  5.19441   -254.9 9.562e+03 1.712e-10
  5.21484   -254.6 9.584e+03 1.726e-10
  5.24523   -253.2 9.587e+03 1.769e-10
  5.28609   -251.7 9.578e+03 1.768e-10
  5.32679   -250.0 9.514e+03 1.678e-10
  5.36765   -248.1 9.345e+03 1.581e-10
  5.40865   -246.2 9.224e+03 1.315e-10
  5.44951   -244.1 9.110e+03 1.101e-10
  5.47960   -242.1 9.045e+03 9.540e-11
  5.50003   -242.2 8.926e+03 8.539e-11
  5.52401   -240.2 8.935e+03 7.732e-11
  5.54444   -241.2 8.930e+03 7.465e-11
  5.57207   -239.4 8.934e+03 7.422e-11
  5.61199   -237.7 8.987e+03 7.469e-11
  5.63242   -238.1 8.887e+03 6.655e-11
  5.65378   -236.5 9.002e+03 7.344e-11
  5.69464   -235.0 9.089e+03 8.166e-11
  5.73549   -233.4 9.137e+03 8.734e-11
  5.76480   -231.8 9.146e+03 8.932e-11
  5.78523   -231.8 9.038e+03 8.984e-11
  5.81720   -230.1 9.038e+03 9.005e-11
  5.85805   -228.3 9.014e+03 8.829e-11
  5.89718   -226.5 9.002e+03 8.424e-11
  5.91761   -226.4 8.996e+03 8.442e-11
  5.92023   -224.5 9.017e+03 8.138e-11
  5.94065   -225.6 9.040e+03 8.185e-11
  5.98062   -223.9 9.056e+03 8.171e-11
  6.02147   -222.3 9.230e+03 8.437e-11
  6.05000   -220.7 9.401e+03 1.016e-10
  6.07042   -220.7 9.340e+03 1.096e-10
  6.10318   -218.9 9.447e+03 1.374e-10
  6.14404   -217.0 9.543e+03 1.713e-10
  6.18238   -215.0 9.650e+03 2.042e-10
  6.20281   -214.8 9.536e+03 2.011e-10
  6.22575   -212.7 9.599e+03 2.186e-10
  6.26660   -210.5 9.653e+03 2.312e-10
  6.29601   -208.2 9.680e+03 2.353e-10
  6.31644   -209.2 9.576e+03 2.060e-10
  6.33519   -206.9 9.537e+03 1.919e-10
  6.35562   -206.7 9.416e+03 1.795e-10
  6.38917   -204.3 9.416e+03 1.720e-10
  6.43002   -202.0 9.436e+03 1.659e-10
  6.46758   -199.6 9.442e+03 1.603e-10
  6.48800   -199.5 9.467e+03 1.666e-10
  6.51173   -197.2 9.480e+03 1.653e-10
  6.55258   -194.8 9.495e+03 1.664e-10
  6.59344   -192.3 9.508e+03 1.691e-10
  6.62039   -189.8 9.521e+03 1.715e-10
  6.64081   -189.8 9.637e+03 2.080e-10
  6.67180   -187.3 9.656e+03 2.112e-10
  6.69222   -187.5 9.463e+03 1.715e-10
  6.71600   -184.9 9.488e+03 1.722e-10
  6.75277   -182.2 9.529e+03 1.745e-10
  6.77320   -182.4 9.704e+03 2.225e-10
  6.79771   -179.9 9.767e+03 2.301e-10
  6.83857   -177.3 9.836e+03 2.393e-10
  6.87942   -174.7 9.920e+03 2.503e-10
  6.90558   -172.1 1.002e+04 2.646e-10
  6.92601   -172.8 1.023e+04 3.267e-10
  6.96113   -170.4 1.037e+04 3.525e-10
  7.00199   -168.0 1.057e+04 4.014e-10
  7.03797   -165.6 1.081e+04 4.797e-10
  7.05839   -166.4 1.097e+04 5.696e-10
  7.06801   -164.2 1.117e+04 6.431e-10
  7.08844   -163.9 1.094e+04 5.267e-10
  7.12455   -161.8 1.115e+04 6.128e-10
  7.16541   -159.9 1.132e+04 6.742e-10
  7.19078   -158.1 1.143e+04 7.060e-10
  7.21121   -158.9 1.143e+04 6.935e-10
  7.24711   -157.2 1.148e+04 6.948e-10
  7.28797   -155.4 1.152e+04 6.893e-10
  7.32316   -153.7 1.158e+04 6.936e-10
  7.34359   -154.2 1.148e+04 5.796e-10
  7.36968   -152.5 1.169e+04 6.235e-10
  7.39947   -150.8 1.190e+04 7.300e-10
  7.40959   -151.6 1.190e+04 6.897e-10
  7.42055   -151.2 1.195e+04 7.069e-10
  7.44098   -150.6 1.201e+04 7.392e-10
  7.45381   -149.9 1.210e+04 7.927e-10
  7.46403   -149.8 1.259e+04 1.130e-09
  7.47578   -149.0 1.276e+04 1.230e-09
  7.48599   -149.6 1.274e+04 1.170e-09
  7.50226   -148.7 1.297e+04 1.317e-09
  7.52269   -148.0 1.320e+04 1.485e-09
  7.54197   -147.3 1.342e+04 1.666e-09
  7.55218   -147.6 1.337e+04 1.615e-09
  7.57385   -146.6 1.362e+04 1.868e-09
  7.60836   -144.8 1.366e+04 1.953e-09
  7.62879   -145.4 1.322e+04 1.467e-09
  7.65566   -143.5 1.305e+04 1.405e-09
  7.69652   -141.6 1.269e+04 1.208e-09
  7.73737   -139.2 1.225e+04 9.798e-10
  7.76117   -136.7 1.192e+04 8.118e-10
  7.78160   -136.8 1.154e+04 5.319e-10
  7.81908   -134.2 1.146e+04 5.143e-10
  7.84001   -131.6 1.142e+04 5.294e-10
  7.86043   -131.5 1.164e+04 6.353e-10
  7.89355   -128.8 1.165e+04 6.616e-10
  7.91398   -129.0 1.148e+04 5.145e-10
  7.94164   -126.5 1.163e+04 6.176e-10
  7.98250   -124.2 1.180e+04 7.523e-10
  8.02335   -122.0 1.200e+04 9.152e-10
  8.04636   -119.9 1.217e+04 1.079e-09
  8.06679   -120.3 1.214e+04 1.050e-09
  8.10506   -118.4 1.228e+04 1.201e-09
  8.14592   -116.6 1.231e+04 1.253e-09
  8.17875   -114.8 1.230e+04 1.259e-09
  8.19918   -115.4 1.218e+04 1.203e-09
  8.21579   -113.3 1.200e+04 1.155e-09
  8.23622   -113.0 1.149e+04 8.116e-10
  8.26848   -110.9 1.137e+04 7.686e-10
  8.30934   -108.7 1.125e+04 7.197e-10
  8.33156   -106.6 1.116e+04 6.745e-10
  8.35199   -106.7 1.108e+04 6.711e-10
  8.39105   -104.5 1.100e+04 6.349e-10
  8.43190   -102.3 1.091e+04 6.028e-10
  8.46394   -100.0 1.083e+04 5.694e-10
  8.48437   -100.2 1.066e+04 5.376e-10
  8.51361    -97.9 1.059e+04 5.081e-10
  8.55446    -95.6 1.052e+04 4.781e-10
  8.59158    -93.2 1.045e+04 4.470e-10
  8.61201    -93.0 1.051e+04 4.851e-10
  8.61676    -90.6 1.041e+04 4.454e-10
  8.63718    -90.8 1.049e+04 4.996e-10
  8.67703    -88.3 1.039e+04 4.619e-10
  8.71788    -85.7 1.032e+04 4.350e-10
  8.74914    -83.0 1.029e+04 4.188e-10
  8.76957    -83.0 1.030e+04 4.277e-10
  8.79959    -80.3 1.025e+04 4.066e-10
  8.84045    -77.6 1.020e+04 3.946e-10
  8.88130    -74.9 1.018e+04 3.881e-10
  8.90195    -72.2 1.018e+04 3.839e-10
  8.92238    -72.0 1.013e+04 3.432e-10
  8.96301    -69.5 1.023e+04 3.472e-10
  8.98779    -67.2 1.038e+04 4.158e-10
  9.00822    -67.1 1.027e+04 3.662e-10
  9.03434    -64.8 1.040e+04 4.475e-10
  9.05476    -64.8 1.081e+04 5.826e-10
  9.08558    -62.8 1.145e+04 8.824e-10
  9.12643    -61.4 1.234e+04 1.392e-09
  9.15697    -61.2 1.352e+04 2.562e-09
  9.17549    -61.0 1.426e+04 3.761e-09
  9.18514    -61.0 1.387e+04 2.972e-09
  9.18695    -60.7 1.429e+04 3.807e-09
  9.19773    -59.9 1.486e+04 5.005e-09
  9.21816    -59.1 1.521e+04 5.682e-09
  9.23859    -58.7 1.528e+04 5.810e-09
  9.25314    -58.1 1.502e+04 5.317e-09
  9.26336    -57.7 1.501e+04 4.971e-09
  9.27944    -57.3 1.440e+04 3.478e-09
  9.29987    -57.3 1.362e+04 2.243e-09
  9.31934    -58.5 1.286e+04 1.508e-09
  9.32955    -58.5 1.282e+04 1.505e-09
  9.34072    -59.1 1.235e+04 1.247e-09
  9.36348    -59.0 1.218e+04 1.160e-09
  9.38391    -60.1 1.174e+04 9.426e-10
  9.39574    -60.2 1.155e+04 8.772e-10
  9.40596    -59.7 1.178e+04 9.934e-10
  9.42243    -59.7 1.160e+04 9.321e-10
  9.44286    -59.7 1.147e+04 8.736e-10
  9.46193    -59.6 1.134e+04 8.078e-10
  9.47215    -59.3 1.168e+04 1.018e-09
  9.48371    -59.4 1.153e+04 9.333e-10
  9.50414    -59.6 1.136e+04 8.448e-10
  9.52457    -59.9 1.116e+04 7.654e-10
  9.53834    -60.1 1.097e+04 7.061e-10
  9.54855    -60.3 1.136e+04 9.164e-10
  9.56149    -60.4 1.121e+04 8.703e-10
  9.57170    -60.2 1.094e+04 7.815e-10
  9.58585    -60.1 1.080e+04 7.371e-10
  9.60453    -59.7 1.067e+04 6.936e-10
  9.61475    -60.0 1.097e+04 8.714e-10
  9.62671    -59.5 1.079e+04 7.931e-10
  9.64713    -58.9 1.062e+04 7.164e-10
  9.66756    -58.2 1.048e+04 6.473e-10
  9.68094    -57.4 1.036e+04 5.892e-10
  9.69115    -57.9 1.045e+04 6.188e-10
  9.70841    -57.3 1.032e+04 5.557e-10
  9.72884    -56.8 1.025e+04 5.152e-10
  9.74713    -56.2 1.025e+04 5.010e-10
  9.75734    -57.2 1.031e+04 5.163e-10
  9.75959    -56.8 1.034e+04 5.167e-10
  9.76981    -56.3 1.036e+04 5.577e-10
  9.79012    -56.0 1.052e+04 5.825e-10
  9.81055    -55.7 1.072e+04 6.684e-10
  9.82354    -55.3 1.096e+04 7.947e-10
  9.83375    -55.8 1.097e+04 8.330e-10
  9.86172    -54.7 1.126e+04 9.651e-10
  9.88992    -53.2 1.166e+04 1.225e-09
  9.91035    -54.5 1.137e+04 1.079e-09
  9.94352    -53.3 1.153e+04 1.144e-09
  9.98438    -52.5 1.157e+04 1.113e-09
 10.02231    -51.6 1.140e+04 9.798e-10
 10.04273    -52.4 1.043e+04 5.937e-10
 10.06609    -51.3 1.021e+04 5.260e-10
 10.10694    -50.1 1.013e+04 5.042e-10
 10.13557    -48.8 1.015e+04 5.197e-10
 10.15600    -49.8 1.069e+04 7.299e-10
 10.17512    -48.9 1.093e+04 8.375e-10
 10.19555    -49.1 1.012e+04 5.725e-10
 10.22951    -47.9 1.030e+04 6.534e-10
 10.27036    -46.8 1.032e+04 6.741e-10
 10.30750    -45.6 1.001e+04 5.859e-10
 10.32793    -46.0 9.114e+03 3.667e-10
 10.35207    -45.0 8.905e+03 2.794e-10
 10.39293    -44.0 8.600e+03 2.085e-10
 10.43378    -42.9 8.236e+03 1.438e-10
 10.46031    -41.8 8.024e+03 1.090e-10
 10.48074    -41.4 8.010e+03 1.140e-10
 10.51136    -40.2 7.968e+03 1.051e-10
 10.53179    -41.1 7.811e+03 9.121e-11
 10.55635    -40.0 7.918e+03 9.844e-11
 10.59270    -38.9 8.044e+03 1.093e-10
 10.61313    -38.1 8.025e+03 1.091e-10
 10.63805    -37.1 8.091e+03 1.074e-10
 10.67891    -36.5 8.145e+03 1.058e-10
 10.71976    -36.2 8.283e+03 1.136e-10
 10.74551    -36.2 8.505e+03 1.410e-10
 10.76594    -35.1 8.506e+03 1.253e-10
 10.80147    -35.1 8.762e+03 1.697e-10
 10.84233    -35.0 8.952e+03 2.137e-10
 10.87789    -34.9 9.047e+03 2.301e-10
 10.89832    -33.2 9.066e+03 2.372e-10
 10.90757    -33.1 9.094e+03 2.364e-10
 10.92800    -34.6 9.109e+03 2.404e-10
 10.96489    -34.6 9.127e+03 2.231e-10
 11.00575    -34.8 9.143e+03 2.199e-10
 11.03071    -35.2 9.347e+03 2.335e-10
 11.05113    -33.2 9.404e+03 2.517e-10
 11.08746    -33.6 9.629e+03 3.157e-10
 11.12831    -34.0 9.874e+03 3.964e-10
 11.16309    -34.5 1.012e+04 4.666e-10
 11.18352    -32.7 1.009e+04 4.633e-10
 11.21002    -33.4 1.011e+04 4.606e-10
 11.25088    -34.3 9.859e+03 3.900e-10
 11.28336    -34.9 9.593e+03 3.265e-10
 11.30378    -36.1 9.598e+03 3.328e-10
 11.31590    -36.2 9.525e+03 3.073e-10
 11.33633    -34.3 9.140e+03 2.154e-10
 11.37344    -34.3 9.139e+03 2.117e-10
 11.41429    -34.2 9.313e+03 2.345e-10
 11.44829    -34.1 9.582e+03 3.190e-10
 11.46871    -32.0 9.274e+03 2.232e-10
 11.49600    -31.7 9.646e+03 3.545e-10
 11.53686    -31.3 1.004e+04 5.186e-10
 11.56740    -30.2 1.041e+04 6.508e-10
 11.58773    -30.6 1.052e+04 6.962e-10
 11.60090    -31.0 1.080e+04 8.431e-10
 11.61112    -30.2 1.108e+04 9.704e-10
 11.62859    -30.6 1.136e+04 1.108e-09
 11.64901    -30.9 1.148e+04 1.169e-09
 11.66709    -31.3 1.148e+04 1.168e-09
 11.67703    -30.9 1.199e+04 1.503e-09
 11.67937    -31.1 1.191e+04 1.464e-09
 11.68987    -31.4 1.182e+04 1.410e-09
 11.71030    -31.7 1.158e+04 1.218e-09
 11.73072    -32.0 1.132e+04 1.017e-09
 11.74350    -32.5 1.109e+04 8.695e-10
 11.75371    -32.3 1.160e+04 1.111e-09
 11.77158    -33.0 1.141e+04 9.752e-10
 11.79200    -33.7 1.136e+04 9.404e-10
 11.80969    -34.2 1.137e+04 9.387e-10
 11.81991    -34.6 1.183e+04 1.177e-09
 11.83286    -35.2 1.198e+04 1.270e-09
 11.85329    -35.5 1.218e+04 1.445e-09
 11.86727    -35.6 1.238e+04 1.633e-09
 11.87748    -36.4 1.255e+04 1.769e-09
 11.88610    -36.9 1.276e+04 1.928e-09
 11.89631    -38.3 1.363e+04 2.492e-09
 11.91457    -40.2 1.447e+04 3.073e-09
 11.93500    -42.4 1.560e+04 4.239e-09
 11.95229    -44.0 1.648e+04 5.895e-09
 11.96245    -45.1 1.733e+04 7.875e-09
 11.96622    -46.2 1.802e+04 9.875e-09
 11.97133    -46.7 1.786e+04 9.299e-09
 11.98086    -48.2 1.862e+04 1.230e-08
 11.99039    -49.5 1.923e+04 1.636e-08
 11.99550    -50.5 2.012e+04 2.262e-08
 12.00129    -51.2 2.069e+04 2.667e-08
 12.01150    -52.0 2.121e+04 2.862e-08
 12.02171    -53.1 2.168e+04 2.810e-08
 12.02860    -54.5 2.151e+04 2.557e-08
 12.03370    -56.7 2.151e+04 2.302e-08
 12.04214    -58.5 2.100e+04 1.846e-08
 12.05511    -60.1 2.041e+04 1.472e-08
 12.06537    -61.7 1.931e+04 1.076e-08
 12.07799    -64.3 1.822e+04 6.611e-09
 12.09489    -68.0 1.558e+04 3.348e-09
 12.10510    -72.0 1.328e+04 2.257e-09
 12.11884    -73.3 1.182e+04 1.547e-09
 12.13927    -73.6 1.153e+04 1.208e-09
 12.15970    -73.1 1.118e+04 9.971e-10
 12.17129    -72.5 1.083e+04 8.076e-10
 12.18151    -73.4 1.066e+04 6.696e-10
 12.20055    -73.3 1.037e+04 5.201e-10
 12.22098    -73.3 1.011e+04 4.140e-10
 12.23749    -73.2 9.921e+03 3.575e-10
 12.24770    -74.0 9.839e+03 3.360e-10
 12.27214    -73.0 9.817e+03 3.281e-10
 12.30387    -71.8 9.779e+03 3.254e-10
 12.32430    -73.6 9.910e+03 3.390e-10
 12.34364    -72.3 9.954e+03 3.487e-10
 12.36397    -72.2 1.000e+04 3.593e-10
 12.38008    -71.8 1.010e+04 3.960e-10
 12.39030    -73.9 1.033e+04 4.722e-10
 12.40482    -74.1 1.048e+04 5.555e-10
 12.42525    -74.1 1.060e+04 6.478e-10
 12.44116    -73.9 1.070e+04 7.107e-10
 12.45137    -73.4 1.053e+04 6.192e-10
 12.45649    -73.2 1.055e+04 6.550e-10
 12.46670    -74.8 1.066e+04 6.864e-10
 12.48653    -74.5 1.054e+04 6.276e-10
 12.50696    -74.2 1.039e+04 5.443e-10
 12.52268    -74.3 1.017e+04 4.592e-10
 12.53289    -75.6 9.995e+03 4.217e-10
 12.55813    -74.2 9.889e+03 3.919e-10
 12.58907    -72.9 9.541e+03 3.349e-10
 12.60950    -75.5 9.346e+03 2.732e-10
 12.63993    -73.7 9.122e+03 2.307e-10
 12.68079    -72.1 8.993e+03 2.030e-10
 12.72145    -70.6 8.891e+03 1.847e-10
 12.76231    -71.1 8.754e+03 1.771e-10
 12.80335    -69.3 8.680e+03 1.734e-10
 12.82735    -67.5 8.636e+03 1.732e-10
 12.84778    -67.0 8.717e+03 1.838e-10
 12.87426    -65.5 8.670e+03 1.862e-10
 12.89469    -66.9 8.840e+03 2.143e-10
 12.92592    -66.6 9.564e+03 3.053e-10
 12.96677    -66.9 1.067e+04 5.141e-10
 13.00665    -67.0 1.151e+04 7.593e-10
 13.02698    -70.6 1.371e+04 1.697e-09
 13.03807    -71.2 1.407e+04 2.423e-09
 13.05850    -71.3 1.396e+04 2.818e-09
 13.07893    -71.0 1.375e+04 2.958e-09
 13.09307    -70.4 1.322e+04 2.521e-09
 13.10329    -71.4 1.338e+04 2.705e-09
 13.11978    -71.2 1.263e+04 1.971e-09
 13.14021    -71.0 1.190e+04 1.442e-09
 13.15926    -70.7 1.126e+04 1.074e-09
 13.17979    -72.6 1.044e+04 7.015e-10
 13.20314    -71.1 9.768e+03 4.929e-10
 13.22357    -71.7 9.494e+03 4.197e-10
 13.25276    -69.0 9.071e+03 3.331e-10
 13.29184    -66.9 8.923e+03 3.057e-10
 13.31227    -67.6 8.674e+03 2.648e-10
 13.33446    -65.5 8.715e+03 2.737e-10
 13.37532    -63.7 9.071e+03 3.466e-10
 13.41617    -61.9 9.490e+03 4.630e-10
 13.44466    -60.0 9.879e+03 5.961e-10
 13.46508    -60.6 1.004e+04 6.610e-10
 13.49788    -58.7 1.034e+04 7.550e-10
 13.53874    -57.0 1.043e+04 7.771e-10
 13.57704    -55.2 1.046e+04 7.690e-10
 13.59680    -55.8 1.020e+04 6.363e-10
 13.59935    -55.9 1.048e+04 7.368e-10
 13.62045    -55.6 1.090e+04 7.686e-10
 13.66130    -56.6 1.233e+04 1.168e-09
 13.69185    -57.6 1.300e+04 1.835e-09
 13.71218    -57.3 1.376e+04 3.021e-09
 13.72966    -56.3 1.435e+04 4.300e-09
 13.73987    -56.5 1.401e+04 3.852e-09
 13.75303    -55.4 1.426e+04 4.350e-09
 13.77346    -54.3 1.423e+04 4.306e-09
 13.78705    -53.2 1.401e+04 3.792e-09
 13.79726    -53.4 1.392e+04 3.562e-09
 13.80606    -53.0 1.354e+04 2.693e-09
 13.81627    -54.9 1.261e+04 1.588e-09
 13.83474    -55.4 1.187e+04 1.200e-09
 13.85517    -56.0 1.109e+04 9.382e-10
 13.87225    -56.1 1.044e+04 7.788e-10
 13.88247    -56.9 9.746e+03 6.026e-10
 13.89602    -56.2 9.522e+03 5.354e-10
 13.91645    -55.4 9.329e+03 4.647e-10
 13.93688    -54.7 9.142e+03 3.993e-10
 13.94866    -54.3 9.041e+03 3.713e-10
 13.95887    -54.5 8.962e+03 3.569e-10
 13.97504    -53.0 8.684e+03 3.059e-10
 13.99556    -53.2 8.449e+03 2.790e-10
 14.01505    -51.6 8.075e+03 2.173e-10
 14.03547    -51.6 8.015e+03 1.985e-10
 14.06985    -49.8 7.960e+03 1.878e-10
 14.11070    -47.9 7.959e+03 1.860e-10
 14.14743    -46.1 8.082e+03 1.986e-10
 14.16786    -45.5 8.104e+03 2.020e-10
 14.19241    -43.8 8.275e+03 2.309e-10
 14.23327    -42.6 8.558e+03 2.788e-10
 14.27412    -41.8 9.104e+03 3.881e-10
 14.30024    -41.1 9.829e+03 5.949e-10
 14.32067    -40.3 1.005e+04 6.676e-10
 14.35092    -39.2 1.087e+04 1.012e-09
 14.37135    -40.8 1.118e+04 1.174e-09
 14.39669    -40.5 1.170e+04 1.362e-09
 14.42723    -39.9 1.192e+04 1.440e-09
 14.44264    -40.0 1.198e+04 1.427e-09
 14.45286    -39.9 1.243e+04 1.737e-09
 14.46799    -39.9 1.226e+04 1.548e-09
 14.48841    -40.2 1.206e+04 1.369e-09
 14.50884    -40.5 1.189e+04 1.258e-09
 14.52926    -41.1 1.176e+04 1.197e-09
 14.54883    -41.4 1.174e+04 1.180e-09
 14.55905    -42.0 1.167e+04 1.142e-09
 14.57012    -42.6 1.174e+04 1.154e-09
 14.58524    -43.4 1.188e+04 1.243e-09
 14.59546    -43.1 1.181e+04 1.273e-09
 14.61098    -43.4 1.194e+04 1.413e-09
 14.63141    -43.4 1.201e+04 1.519e-09
 14.65143    -43.2 1.204e+04 1.552e-09
 14.66165    -42.4 1.222e+04 1.658e-09
 14.67226    -42.0 1.211e+04 1.644e-09
 14.69269    -41.3 1.187e+04 1.472e-09
 14.71312    -40.8 1.155e+04 1.199e-09
 14.72784    -40.5 1.112e+04 9.264e-10
 14.73805    -39.7 1.150e+04 1.101e-09
 14.74694    -39.6 1.113e+04 8.944e-10
 14.75715    -39.8 1.115e+04 8.949e-10
 14.77440    -39.6 1.072e+04 7.340e-10
 14.79403    -39.1 1.039e+04 6.442e-10
 14.80425    -37.8 1.103e+04 8.665e-10
 14.81525    -37.0 1.088e+04 8.160e-10
 14.83568    -36.1 1.076e+04 7.925e-10
 14.85611    -35.2 1.072e+04 7.863e-10
 14.87044    -34.3 1.075e+04 7.951e-10
 14.87550    -32.0 1.146e+04 9.933e-10
 14.88154    -32.1 1.142e+04 9.886e-10
 14.89176    -32.6 1.127e+04 9.528e-10
 14.90197    -32.6 1.140e+04 9.229e-10
 14.90854    -34.9 1.278e+04 8.703e-10
 14.91365    -44.0 4.670e+04 7.279e-10
 14.92240    -44.9 7.686e+04 1.017e-09
 14.93261    -39.9 8.550e+04 1.426e-09
 14.93984    -36.2 9.497e+04 7.531e-10
 14.94376    -38.8 7.538e+04 5.359e-10
 14.94675    -46.2 7.448e+04 7.156e-09
 14.95304    -33.6 9.842e+04 1.542e-09
 14.96325    -33.7 5.287e+04 7.780e-10
 14.97347    -38.9 1.531e+04 1.063e-09
 14.97984    -39.3 1.174e+04 1.212e-09
 14.98495    -38.8 2.450e+04 1.038e-09
 14.99389    -39.1 1.400e+04 1.251e-09
 15.00411    -38.8 1.216e+04 1.322e-09
 15.01294    -38.2 1.194e+04 1.330e-09
 15.01805    -38.7 2.491e+04 1.243e-09
 15.02453    -37.9 2.105e+04 1.259e-09
 15.03379    -37.2 1.813e+04 1.274e-09
 15.03890    -37.0 1.797e+04 1.252e-09
 15.04496    -36.7 1.580e+04 1.263e-09
 15.05114    -36.3 1.474e+04 1.207e-09
 15.05625    -38.2 6.250e+04 1.596e-09
 15.06539    -36.5 5.312e+04 1.337e-09
 15.07560    -36.6 3.355e+04 1.156e-09
 15.08424    -38.4 2.542e+04 1.046e-09
 15.08934    -40.8 7.093e+04 4.148e-09
 15.09603    -46.6 7.769e+04 1.763e-09
 15.10624    -48.6 7.345e+04 1.276e-09
 15.11646    -45.9 5.943e+04 1.194e-09
 15.12244    -43.6 3.702e+04 1.223e-09
 15.12755    -54.2 6.275e+04 8.151e-09
 15.13284    -48.1 6.698e+04 4.160e-09
 15.13795    -47.2 6.856e+04 3.246e-09
 15.14710    -44.9 5.599e+04 2.353e-09
 15.15554    -47.3 2.884e+04 2.608e-09
 15.16064    -50.3 6.088e+04 1.073e-08
 15.16753    -47.6 5.915e+04 6.095e-09
 15.17774    -48.5 4.268e+04 5.239e-09
 15.18795    -49.2 2.557e+04 5.759e-09
 15.19374    -49.0 2.064e+04 6.669e-09
 15.19885    -50.7 5.265e+04 1.488e-08
 15.20838    -50.0 4.426e+04 1.295e-08
 15.21859    -48.7 3.544e+04 1.181e-08
 15.22679    -47.7 2.900e+04 1.064e-08
 15.23189    -51.9 4.926e+04 5.494e-08
 15.23902    -50.3 5.282e+04 3.467e-08
 15.24924    -48.9 5.572e+04 2.215e-08
 15.25945    -47.8 5.791e+04 1.407e-08
 15.26504    -47.3 5.906e+04 9.308e-09
 15.27014    -46.5 3.109e+04 2.854e-07
 15.27988    -45.4 3.795e+04 1.397e-07
 15.29009    -44.5 4.505e+04 6.933e-08
 15.29813    -44.7 5.113e+04 3.654e-08
 15.30324    -41.2 2.245e+04 6.338e-07
 15.31052    -39.9 2.349e+04 4.645e-07
 15.32073    -39.3 2.464e+04 3.866e-07
 15.32837    -44.9 2.406e+04 5.981e-07
 15.33345    -51.7 2.223e+04 1.177e-06
 15.33629    -54.5 2.214e+04 1.916e-06
 15.33884    -55.9 2.110e+04 4.292e-06
 15.34366    -62.5 1.615e+04 3.808e-05
 15.34877    -63.8 1.178e+04 2.784e-03
 15.35284    -65.0 1.055e+04 8.754e-03
 15.35539    -63.4 1.172e+04 2.911e-03
 15.35898    -60.5 1.450e+04 2.401e-04
 15.36409    -61.7 1.860e+04 6.240e-06
 15.36920    -66.1 2.170e+04 1.635e-06
 15.37194    -69.8 2.424e+04 1.051e-06
 15.37295    -55.7 3.690e+04 9.818e-08
 15.37532    -60.0 4.362e+04 7.301e-08
 15.37941    -67.3 4.828e+04 6.736e-08
 15.38452    -74.0 3.993e+04 1.439e-07
 15.38849    -79.0 3.254e+04 2.772e-07
 15.39104    -76.3 5.105e+04 2.232e-08
 15.39473    -77.4 4.486e+04 4.234e-08
 15.39984    -78.5 3.734e+04 9.071e-08
 15.40495    -78.5 3.484e+04 1.296e-07
 15.40759    -78.4 3.157e+04 2.010e-07
 15.41272    -76.5 3.857e+04 3.826e-08
 15.41979    -76.0 3.545e+04 6.653e-08
 15.42489    -76.2 3.334e+04 1.126e-07
 15.43308    -75.7 3.129e+04 1.688e-07
 15.44073    -75.2 2.978e+04 2.444e-07
 15.44584    -73.5 3.363e+04 1.275e-08
 15.45351    -73.7 3.458e+04 2.103e-08
 15.46372    -73.5 3.401e+04 3.785e-08
 15.47383    -73.0 3.323e+04 5.925e-08
 15.47893    -74.7 2.351e+04 5.268e-09
 15.48415    -73.8 2.687e+04 7.755e-09
 15.49436    -73.1 3.114e+04 1.149e-08
 15.50458    -72.1 3.498e+04 1.802e-08
 15.51203    -71.8 3.584e+04 2.923e-08
 15.51608    -75.4 2.403e+04 4.828e-09
 15.51884    -74.5 2.809e+04 7.395e-09
 15.52500    -74.1 3.423e+04 1.323e-08
 15.53522    -74.0 3.477e+04 3.524e-08
 15.54513    -71.9 3.234e+04 1.147e-07
 15.55023    -78.3 2.873e+04 5.413e-09
 15.55565    -77.2 3.548e+04 9.555e-09
 15.56586    -74.9 3.831e+04 1.893e-08
 15.57607    -73.3 3.642e+04 2.977e-08
 15.58331    -76.7 3.384e+04 7.328e-09
 15.58841    -80.8 2.501e+04 3.036e-09
 15.59650    -82.7 2.252e+04 2.929e-09
 15.60671    -85.1 2.248e+04 2.846e-09
 15.61279    -91.2 2.787e+04 2.814e-09
 15.61739    -86.8 2.923e+04 3.512e-09
 15.62153    -92.8 1.746e+04 1.816e-09
 15.62714   -105.5 4.307e+04 2.255e-09
 15.63736   -110.1 3.608e+04 2.252e-08
 15.64499   -107.9 3.231e+04 1.625e-08
 15.65007   -108.1 3.070e+04 2.265e-08
 15.65458   -106.6 2.989e+04 2.561e-08
 15.65971   -103.9 2.998e+04 4.567e-09
 15.66800   -104.3 2.347e+04 2.744e-09
 15.67821   -106.7 1.841e+04 2.288e-09
 15.68772   -108.0 1.815e+04 2.281e-09
 15.69283   -106.7 1.369e+04 1.603e-09
 15.69864   -106.7 1.378e+04 1.637e-09
 15.70673   -106.8 1.388e+04 1.618e-09
 15.71184   -106.6 1.395e+04 1.572e-09
 15.71906   -106.5 1.452e+04 1.633e-09
 15.72593   -106.2 1.540e+04 1.709e-09
 15.73103   -105.7 1.298e+04 1.232e-09
 15.73949   -105.3 1.321e+04 1.233e-09
 15.74971   -104.8 1.357e+04 1.230e-09
 15.75902   -104.4 1.429e+04 1.299e-09
 15.76413   -104.2 1.259e+04 1.016e-09
 15.77013   -103.2 1.279e+04 1.007e-09
 15.78035   -103.0 1.310e+04 1.034e-09
 15.79056   -101.9 1.380e+04 1.094e-09
 15.79723   -101.6 1.473e+04 1.194e-09
 15.80238   -101.7 1.230e+04 8.599e-10
 15.81619   -100.1 1.279e+04 9.306e-10
 15.83037    -98.7 1.400e+04 1.132e-09
 15.83543    -98.7 1.247e+04 9.183e-10
 15.84163    -98.5 1.271e+04 9.368e-10
 15.85184    -97.1 1.330e+04 1.082e-09
 15.86206    -96.9 1.380e+04 1.138e-09
 15.86853    -95.6 1.492e+04 1.358e-09
 15.87879    -96.0 1.287e+04 1.081e-09
 15.89275    -94.5 1.363e+04 1.296e-09
 15.89973    -94.2 1.435e+04 1.415e-09
 15.90355    -93.8 1.392e+04 1.237e-09
 15.90673    -94.2 1.239e+04 9.933e-10
 15.91312    -92.8 1.305e+04 1.185e-09
 15.92334    -92.7 1.337e+04 1.217e-09
 15.93355    -91.3 1.427e+04 1.487e-09
 15.93982    -91.1 1.513e+04 1.637e-09
 15.94498    -91.6 1.289e+04 1.154e-09
 15.95403    -89.9 1.381e+04 1.550e-09
 15.96419    -89.5 1.397e+04 1.621e-09
 15.97292    -87.9 1.471e+04 1.913e-09
 15.97803    -88.3 1.302e+04 1.477e-09
 15.98462    -88.1 1.309e+04 1.451e-09
 15.99368    -86.4 1.350e+04 1.662e-09
 15.99879    -86.0 1.311e+04 1.394e-09
 16.00505    -85.4 1.366e+04 1.442e-09
 16.01112    -84.0 1.539e+04 1.740e-09
 16.01623    -84.5 1.277e+04 1.281e-09
 16.02547    -83.9 1.299e+04 1.276e-09
 16.03569    -82.9 1.426e+04 1.453e-09
 16.04422    -82.3 1.693e+04 1.765e-09
 16.04933    -83.7 1.297e+04 1.201e-09
 16.05612    -83.5 1.441e+04 1.446e-09
 16.06633    -84.9 1.979e+04 1.717e-09
 16.07654    -88.7 3.495e+04 4.659e-09
 16.08242    -86.0 3.358e+04 4.983e-08
 16.08753    -92.8 2.984e+04 4.651e-09
 16.09273    -92.0 3.264e+04 2.502e-08
 16.09784    -91.2 3.401e+04 7.149e-09
 16.10718    -88.1 3.452e+04 5.340e-08
 16.11482    -96.5 4.303e+04 1.997e-08
 16.11802    -98.1 3.656e+04 7.254e-08
 16.12060    -99.6 3.921e+04 6.166e-09
 16.12761   -107.5 4.300e+04 1.325e-08
 16.13460   -111.8 4.364e+04 4.035e-08
 16.13712   -115.2 4.385e+04 1.711e-08
 16.13966   -117.6 4.244e+04 2.117e-08
 16.14221   -120.0 4.000e+04 2.024e-08
 16.14544   -127.0 3.204e+04 4.927e-08
 16.15054   -128.9 3.053e+04 5.882e-08
 16.15367   -134.0 2.540e+04 1.034e-07
 16.15880   -134.0 2.464e+04 8.885e-08
 16.16589   -136.5 2.215e+04 1.449e-07
 16.17022   -136.8 2.174e+04 1.545e-07
 16.17277   -136.5 2.171e+04 1.287e-07
 16.17608   -137.4 2.137e+04 1.478e-07
 16.18118   -140.2 3.083e+04 1.177e-07
 16.18629   -151.2 3.336e+04 6.528e-07
 16.18918   -162.2 2.061e+04 1.142e-05
 16.18966   -156.2 2.565e+04 3.277e-06
 16.19187   -144.2 3.040e+04 2.487e-07
 16.19650   -154.1 2.814e+04 1.202e-06
 16.20161   -165.5 2.336e+04 4.657e-06
 16.20587   -175.5 2.191e+04 7.127e-06
 16.20842   -159.1 3.631e+04 3.790e-07
 16.21183   -169.6 3.567e+04 5.032e-07
 16.21693   -178.6 3.428e+04 5.129e-07
 16.22204   -184.2 3.216e+04 4.455e-07
 16.22497   -186.5 2.972e+04 3.943e-07
 16.22752   -180.5 3.967e+04 9.942e-08
 16.23225   -183.0 3.547e+04 1.155e-07
 16.23994   -184.8 3.195e+04 1.031e-07
 16.25018   -185.9 2.844e+04 1.285e-07
 16.25812   -185.7 2.808e+04 1.362e-07
 16.26322   -183.0 2.663e+04 4.043e-08
 16.27060   -182.7 2.925e+04 4.343e-08
 16.28062   -182.2 3.167e+04 4.115e-08
 16.28573   -181.2 2.831e+04 2.888e-08
 16.29103   -180.9 3.060e+04 2.706e-08
 16.29632   -180.9 3.237e+04 2.049e-08
 16.30143   -179.3 2.343e+04 1.275e-08
 16.31146   -179.8 2.532e+04 1.007e-08
 16.32167   -180.6 2.542e+04 7.904e-09
 16.32941   -181.1 2.498e+04 6.264e-09
 16.33452   -179.1 2.100e+04 4.908e-09
 16.34210   -178.8 2.171e+04 4.057e-09
 16.35231   -178.6 2.216e+04 3.544e-09
 16.36251   -178.6 2.243e+04 3.194e-09
 16.37277   -176.2 1.772e+04 2.517e-09
 16.38816   -176.2 1.435e+04 1.674e-09
 16.40859   -176.0 1.245e+04 1.252e-09
 16.42880   -175.2 1.162e+04 1.139e-09
 16.43901   -172.8 1.113e+04 7.526e-10
 16.44944   -172.0 1.073e+04 6.962e-10
 16.46862   -170.6 1.071e+04 7.639e-10
 16.47883   -170.6 1.031e+04 6.167e-10
 16.49029   -169.3 1.039e+04 6.986e-10
 16.50521   -167.9 1.065e+04 8.161e-10
 16.51542   -166.4 1.011e+04 5.488e-10
 16.53115   -165.2 1.039e+04 6.340e-10
 16.55158   -164.0 1.064e+04 7.322e-10
 16.57140   -162.8 1.079e+04 8.228e-10
 16.58161   -161.5 1.012e+04 5.815e-10
 16.59243   -160.4 1.032e+04 6.497e-10
 16.61286   -159.3 1.043e+04 7.088e-10
 16.63329   -158.3 1.046e+04 7.584e-10
 16.64780   -157.2 1.049e+04 8.059e-10
 16.65802   -155.9 9.990e+03 6.000e-10
 16.66672   -154.9 1.004e+04 6.350e-10
 16.67694   -155.1 9.879e+03 5.502e-10
 16.69457   -154.1 1.002e+04 6.001e-10
 16.71400   -153.1 1.019e+04 6.612e-10
 16.72421   -151.4 9.808e+03 4.786e-10
 16.73542   -150.4 9.972e+03 5.250e-10
 16.75585   -149.4 1.011e+04 5.774e-10
 16.77628   -148.5 1.022e+04 6.290e-10
 16.79040   -147.5 1.024e+04 6.723e-10
 16.80062   -145.9 9.886e+03 5.035e-10
 16.81713   -145.0 9.971e+03 5.335e-10
 16.83756   -144.0 9.956e+03 5.649e-10
 16.85461   -142.8 9.936e+03 5.726e-10
 16.86344   -143.1 9.946e+03 5.676e-10
 16.86681   -141.8 9.717e+03 4.604e-10
 16.87841   -140.5 9.756e+03 4.767e-10
 16.89884   -139.3 9.800e+03 4.725e-10
 16.92958   -137.5 9.813e+03 4.508e-10
 16.97053   -135.4 9.640e+03 4.092e-10
 16.99939   -132.9 9.393e+03 3.373e-10
 17.01981   -131.0 9.520e+03 4.066e-10
 17.04270   -128.5 9.498e+03 3.680e-10
 17.06313   -129.2 1.033e+04 5.669e-10
 17.09310   -126.7 1.026e+04 5.201e-10
 17.13177   -124.0 1.009e+04 4.619e-10
 17.15220   -122.5 1.070e+04 7.142e-10
 17.17481   -120.0 1.058e+04 6.607e-10
 17.21566   -117.5 1.033e+04 5.947e-10
 17.25652   -115.0 1.007e+04 5.423e-10
 17.28458   -112.5 9.808e+03 4.993e-10
 17.30501   -111.2 1.038e+04 6.809e-10
 17.33822   -108.7 1.005e+04 5.941e-10
 17.37908   -106.2 9.710e+03 5.060e-10
 17.41697   -103.5 9.362e+03 4.186e-10
 17.43595   -102.3 1.003e+04 6.041e-10
 17.43892   -102.5 1.010e+04 6.409e-10
 17.46079    -99.9 9.787e+03 5.382e-10
 17.50164    -97.3 9.482e+03 4.496e-10
 17.54250    -94.9 9.241e+03 3.864e-10
 17.56978    -92.8 9.133e+03 3.605e-10
 17.59021    -91.9 9.672e+03 4.849e-10
 17.62421    -89.8 9.468e+03 4.376e-10
 17.66506    -87.8 9.595e+03 4.448e-10
 17.70216    -85.8 9.774e+03 4.897e-10
 17.72259    -85.1 9.965e+03 5.520e-10
 17.74677    -83.2 1.005e+04 5.663e-10
 17.78763    -81.4 1.024e+04 6.185e-10
 17.81470    -79.7 1.051e+04 7.102e-10
 17.83513    -79.4 1.077e+04 8.462e-10
 17.85497    -77.9 1.105e+04 9.609e-10
 17.87540    -77.5 1.109e+04 1.009e-09
 17.91019    -76.1 1.136e+04 1.134e-09
 17.95105    -74.9 1.154e+04 1.207e-09
 17.98736    -74.0 1.161e+04 1.219e-09
 18.00779    -73.2 1.117e+04 9.405e-10
 18.03275    -72.2 1.109e+04 8.434e-10
 18.07361    -71.2 1.093e+04 7.459e-10
 18.11446    -70.0 1.072e+04 6.318e-10
 18.14017    -68.7 1.047e+04 4.846e-10
 18.16060    -67.8 1.028e+04 4.151e-10
 18.19049    -66.6 1.016e+04 3.352e-10
 18.21091    -66.2 1.017e+04 3.737e-10
 18.23703    -65.0 1.011e+04 3.217e-10
 18.27255    -63.9 1.008e+04 3.067e-10
 18.29298    -63.1 1.004e+04 3.010e-10
 18.31874    -62.1 1.003e+04 3.047e-10
 18.35959    -61.1 1.009e+04 3.290e-10
 18.40045    -60.0 1.020e+04 3.673e-10
 18.42537    -58.9 1.031e+04 4.047e-10
 18.44579    -58.0 9.896e+03 2.657e-10
 18.48216    -57.1 1.001e+04 2.946e-10
 18.52301    -56.1 1.015e+04 3.338e-10
 18.55775    -55.0 1.030e+04 3.386e-10
 18.57818    -54.2 1.012e+04 3.287e-10
 18.58670    -53.1 1.026e+04 3.403e-10
 18.60713    -52.6 1.036e+04 4.199e-10
 18.64558    -51.6 1.049e+04 4.028e-10
 18.68643    -50.7 1.044e+04 2.898e-10
 18.71056    -49.8 1.022e+04 1.863e-10
 18.73099    -48.5 1.044e+04 2.881e-10
 18.76814    -47.3 1.008e+04 1.819e-10
 18.80899    -45.8 9.726e+03 1.275e-10
 18.84295    -43.9 9.495e+03 9.644e-11
 18.86337    -42.7 9.564e+03 1.007e-10
 18.89070    -40.7 9.415e+03 7.308e-11
 18.93156    -38.7 9.344e+03 5.645e-11
 18.96248    -36.7 9.241e+03 4.888e-11
 18.98291    -36.3 9.156e+03 5.265e-11
 18.99576    -34.2 9.068e+03 4.792e-11
 19.01618    -33.0 9.137e+03 4.675e-11
 19.05412    -30.9 9.104e+03 4.594e-11
 19.09498    -29.0 9.165e+03 4.948e-11
 19.12814    -27.0 9.223e+03 5.940e-11
 19.14857    -26.4 9.304e+03 7.134e-11
 19.17669    -24.3 9.366e+03 9.798e-11
 19.21754    -22.1 9.478e+03 1.303e-10
 19.25840    -20.0 9.629e+03 1.552e-10
 19.28095    -17.9 9.753e+03 1.676e-10
 19.30138    -17.0 9.809e+03 2.079e-10
 19.33827    -14.9 9.803e+03 2.024e-10
 19.35870    -14.4 9.712e+03 1.795e-10
 19.38096    -12.4 9.660e+03 1.611e-10
 19.41334    -10.3 9.569e+03 1.423e-10
 19.43376     -9.8 9.557e+03 1.466e-10
 19.46267     -7.8 9.580e+03 1.376e-10
 19.50352     -6.0 9.656e+03 1.474e-10
 19.54438     -3.8 9.603e+03 1.774e-10
 19.56615     -1.4 9.628e+03 1.973e-10
 19.58658     -0.6 9.461e+03 1.798e-10
 19.62609      2.0 9.477e+03 1.764e-10
 19.66694      4.5 9.530e+03 1.555e-10
 19.69853      6.6 9.588e+03 1.369e-10
 19.71896      7.4 9.463e+03 1.372e-10
 19.73448      9.6 9.538e+03 1.363e-10
 19.75491     10.1 9.479e+03 1.175e-10
 19.78951     12.2 9.638e+03 1.294e-10
 19.83036     13.6 9.911e+03 1.738e-10
 19.85134     15.1 1.025e+04 3.280e-10
 19.87177     16.0 1.018e+04 3.168e-10
 19.91207     18.0 1.078e+04 6.331e-10
 19.95293     19.9 1.111e+04 7.841e-10
 19.98373     21.8 1.098e+04 6.912e-10
 20.00416     22.5 1.114e+04 8.565e-10
 20.03463     24.6 1.073e+04 5.606e-10
 20.07549     26.8 1.028e+04 2.429e-10
 20.11027     27.4 1.002e+04 9.657e-11
 20.13046     28.3 1.010e+04 1.102e-10
 20.13654     29.9 1.033e+04 1.370e-10
 20.15720     29.9 9.939e+03 5.083e-11
 20.19805     30.4 9.354e+03 4.119e-11
 20.23891     32.3 9.243e+03 4.053e-11
 20.26892     34.4 9.248e+03 4.355e-11
 20.28935     34.6 9.107e+03 4.010e-11
 20.32062     36.8 9.044e+03 4.760e-11
 20.36147     39.0 9.064e+03 5.743e-11
 20.40131     41.1 9.153e+03 6.820e-11
 20.42174     41.5 8.963e+03 5.693e-11
 20.44318     43.5 9.038e+03 6.145e-11
 20.48404     45.4 9.116e+03 6.541e-11
 20.50648     47.2 9.249e+03 6.983e-11
 20.52691     47.6 9.709e+03 8.622e-11
 20.55412     49.2 9.892e+03 1.034e-10
 20.57455     49.8 9.529e+03 8.029e-11
 20.60660     51.4 9.609e+03 1.006e-10
 20.64746     53.2 9.714e+03 1.488e-10
 20.68650     55.3 9.879e+03 2.370e-10
 20.70693     56.1 9.721e+03 2.186e-10
 20.72916     58.3 9.976e+03 3.374e-10
 20.77002     60.6 1.028e+04 4.631e-10
 20.81087     62.7 1.057e+04 5.088e-10
 20.83931     64.6 1.063e+04 5.011e-10
 20.85974     65.0 1.065e+04 5.985e-10
 20.88227     66.8 1.070e+04 6.119e-10
 20.90269     67.3 1.073e+04 6.050e-10
 20.93344     68.9 1.067e+04 5.523e-10
 20.97170     70.6 1.051e+04 4.542e-10
 20.99213     71.2 1.060e+04 6.852e-10
 21.01515     72.9 1.034e+04 6.032e-10
 21.05600     74.6 1.005e+04 5.355e-10
 21.09686     76.5 9.875e+03 5.141e-10
 21.12451     78.6 9.871e+03 5.173e-10
 21.14494     79.3 9.541e+03 3.951e-10
 21.17857     81.2 9.547e+03 3.975e-10
 21.21942     83.2 9.560e+03 4.001e-10
 21.25689     85.1 9.554e+03 3.933e-10
 21.27510     85.6 9.064e+03 1.979e-10
 21.27848     86.1 8.792e+03 1.736e-10
 21.30113     88.1 8.785e+03 1.844e-10
 21.34199     90.0 8.779e+03 1.829e-10
 21.38284     91.9 8.720e+03 1.734e-10
 21.40971     93.7 8.634e+03 1.563e-10
 21.43013     94.5 8.504e+03 9.854e-11
 21.46455     96.3 8.441e+03 9.195e-11
 21.50540     98.2 8.371e+03 8.433e-11
 21.54209    100.1 8.282e+03 7.787e-11
 21.56252    100.9 8.232e+03 5.593e-11
 21.58711    102.9 8.153e+03 5.212e-11
 21.62797    104.9 8.040e+03 5.093e-11
 21.65426    107.1 8.015e+03 5.107e-11
 21.67469    107.5 8.029e+03 5.897e-11
 21.69490    109.6 8.004e+03 5.989e-11
 21.71533    110.3 7.993e+03 3.949e-11
 21.75053    112.4 7.961e+03 4.136e-11
 21.79139    114.5 7.926e+03 4.574e-11
 21.82729    116.6 7.906e+03 5.182e-11
 21.84771    117.2 7.803e+03 4.116e-11
 21.87310    119.2 7.810e+03 4.774e-11
 21.91395    121.3 7.822e+03 5.578e-11
 21.95481    123.3 7.854e+03 6.471e-11
 21.98010    125.3 7.910e+03 7.409e-11
 22.00052    126.0 7.844e+03 7.632e-11
 22.03005    127.9 7.953e+03 9.170e-11
 22.05048    128.3 7.912e+03 9.354e-11
 22.07737    130.3 8.037e+03 1.096e-10
 22.11248    132.2 8.168e+03 1.228e-10
 22.13291    132.9 8.167e+03 1.440e-10
 22.15908    134.6 8.328e+03 1.636e-10
 22.19993    136.2 8.453e+03 1.729e-10
 22.24079    137.6 8.526e+03 1.761e-10
 22.26529    138.8 8.580e+03 1.797e-10
 22.28572    139.5 8.720e+03 2.117e-10
 22.32250    140.6 8.758e+03 2.146e-10
 22.36335    141.5 8.825e+03 2.217e-10
 22.39768    142.3 8.931e+03 2.371e-10
 22.41810    142.9 8.825e+03 2.024e-10
 22.42626    143.7 8.844e+03 2.025e-10
 22.44669    144.9 8.641e+03 1.788e-10
 22.48592    145.8 8.663e+03 1.784e-10
 22.52677    146.7 8.716e+03 1.812e-10
 22.55049    147.6 8.817e+03 1.940e-10
 22.57092    148.2 8.599e+03 1.504e-10
 22.60848    149.3 8.734e+03 1.725e-10
 22.64934    150.4 8.914e+03 2.095e-10
 22.68287    151.6 9.123e+03 2.578e-10
 22.70330    152.4 8.941e+03 2.120e-10
 22.73104    153.6 9.158e+03 2.549e-10
 22.77190    154.7 9.357e+03 2.961e-10
 22.80205    155.8 9.535e+03 3.283e-10
 22.82247    157.0 9.343e+03 2.924e-10
 22.83568    158.1 9.526e+03 3.255e-10
 22.85611    158.6 9.495e+03 3.049e-10
 22.89446    159.6 9.733e+03 3.267e-10
 22.93532    160.5 9.999e+03 3.286e-10
 22.96807    161.2 1.005e+04 3.221e-10
 22.98850    160.9 9.938e+03 3.085e-10
 23.01703    161.5 9.863e+03 2.706e-10
 23.05788    162.3 9.742e+03 2.495e-10
 23.09874    163.1 9.737e+03 2.510e-10
 23.12078    163.5 9.730e+03 2.579e-10
 23.14121    163.7 9.658e+03 2.715e-10
 23.17014    164.7 9.774e+03 3.133e-10
 23.18688    164.9 1.015e+04 4.052e-10
 23.19448    165.1 9.995e+03 3.826e-10
 23.19806    166.2 9.720e+03 3.654e-10
 23.21089    166.3 1.010e+04 4.677e-10
 23.23132    166.1 1.091e+04 7.103e-10
 23.25175    165.1 1.196e+04 1.257e-09
 23.26328    164.2 1.297e+04 2.373e-09
 23.27350    163.9 1.309e+04 2.337e-09
 23.29260    163.8 1.427e+04 4.604e-09
 23.31303    164.0 1.554e+04 8.144e-09
 23.32947    164.5 1.687e+04 1.165e-08
 23.33969    163.8 1.725e+04 1.231e-08
 23.35388    163.5 1.789e+04 1.264e-08
 23.37431    162.9 1.796e+04 1.174e-08
 23.38596    161.9 1.789e+04 8.518e-09
 23.39617    163.2 1.827e+04 1.409e-08
 23.40588    162.2 1.812e+04 9.584e-09
 23.41609    160.5 1.732e+04 8.105e-09
 23.43559    158.8 1.613e+04 5.104e-09
 23.45602    157.0 1.440e+04 3.475e-09
 23.47207    156.3 1.335e+04 2.914e-09
 23.48229    156.6 1.308e+04 2.692e-09
 23.49688    156.7 1.293e+04 2.539e-09
 23.51730    157.2 1.285e+04 2.425e-09
 23.53773    158.0 1.282e+04 2.333e-09
 23.54848    158.8 1.284e+04 2.323e-09
 23.55869    158.8 1.250e+04 1.591e-09
 23.57385    159.3 1.253e+04 1.599e-09
 23.58406    159.1 1.276e+04 1.575e-09
 23.59901    159.5 1.300e+04 1.717e-09
 23.61467    159.9 1.330e+04 1.962e-09
 23.62488    159.3 1.235e+04 1.075e-09
 23.63987    159.5 1.266e+04 1.242e-09
 23.66029    159.7 1.296e+04 1.469e-09
 23.68072    159.9 1.319e+04 1.737e-09
 23.69108    160.1 1.339e+04 2.025e-09
 23.70129    159.5 1.195e+04 1.309e-09
 23.72158    159.9 1.226e+04 1.563e-09
 23.74200    160.4 1.255e+04 1.833e-09
 23.75727    160.9 1.277e+04 1.985e-09
 23.76679    160.9 1.231e+04 1.822e-09
 23.77196    160.9 1.219e+04 1.728e-09
 23.78286    161.5 1.232e+04 1.749e-09
 23.80329    162.0 1.230e+04 1.737e-09
 23.82356    162.8 1.253e+04 1.698e-09
 23.83377    162.3 1.243e+04 1.823e-09
 23.84414    162.7 1.251e+04 1.822e-09
 23.86457    163.1 1.254e+04 1.805e-09
 23.88499    163.6 1.256e+04 1.762e-09
 23.89987    164.0 1.258e+04 1.709e-09
 23.91008    164.5 1.260e+04 1.982e-09
 23.92585    164.9 1.263e+04 1.976e-09
 23.94628    165.2 1.265e+04 1.957e-09
 23.95985    165.5 1.267e+04 1.914e-09
 23.96951    165.5 1.180e+04 1.289e-09
 23.97647    165.8 1.201e+04 1.384e-09
 23.99754    166.1 1.201e+04 1.364e-09
 24.03840    166.3 1.193e+04 1.252e-09
 24.07925    166.9 1.163e+04 1.031e-09
 24.10885    168.0 1.118e+04 7.888e-10
 24.12928    166.9 1.116e+04 8.534e-10
 24.16096    168.5 1.071e+04 6.943e-10
 24.20181    170.5 1.036e+04 5.764e-10
 24.24124    172.7 1.010e+04 4.934e-10
 24.26166    172.6 9.946e+03 4.681e-10
 24.28352    175.0 9.835e+03 4.177e-10
 24.32438    177.5 9.722e+03 3.661e-10
 24.34604    180.0 9.575e+03 3.084e-10
 24.36647    180.8 9.453e+03 2.541e-10
 24.39405    183.4 9.287e+03 1.941e-10
 24.41447    183.1 9.239e+03 1.958e-10
 24.44694    185.8 9.052e+03 1.496e-10
 24.48780    188.6 8.790e+03 1.174e-10
 24.52643    191.5 8.466e+03 1.062e-10
 24.54686    191.4 8.645e+03 1.372e-10
 24.56951    194.5 8.473e+03 1.278e-10
 24.61036    197.8 8.446e+03 1.280e-10
 24.65122    201.1 8.438e+03 1.297e-10
 24.67924    204.4 8.442e+03 1.375e-10
 24.69967    204.5 8.757e+03 2.310e-10
 24.72183    207.8 8.801e+03 2.459e-10
 24.74226    208.2 8.480e+03 1.891e-10
 24.77378    211.4 8.556e+03 2.013e-10
 24.81163    214.7 8.722e+03 2.178e-10
 24.83205    214.9 9.093e+03 3.616e-10
 24.85549    218.1 9.212e+03 3.982e-10
 24.89634    221.6 9.415e+03 4.464e-10
 24.93720    224.8 9.669e+03 4.924e-10
 24.96434    226.0 9.724e+03 5.077e-10
 24.97446    226.4 9.571e+03 5.368e-10
 24.98807    228.0 9.577e+03 5.712e-10
 25.00850    229.7 9.615e+03 6.099e-10
 25.02893    231.4 9.672e+03 6.480e-10
 25.04065    233.2 9.747e+03 6.823e-10
 25.05086    233.8 9.664e+03 6.678e-10
 25.06978    235.5 9.745e+03 6.950e-10
 25.09021    237.1 9.786e+03 7.225e-10
 25.10684    238.6 9.820e+03 7.456e-10
 25.11405    239.2 9.725e+03 6.997e-10
 25.11785    238.8 9.506e+03 5.650e-10
 25.13106    240.4 9.620e+03 5.887e-10
 25.15149    241.9 9.684e+03 5.883e-10
 25.17192    243.3 9.693e+03 5.835e-10
 25.18325    244.9 9.708e+03 5.780e-10
 25.19346    246.0 9.725e+03 6.466e-10
 25.21277    247.6 9.763e+03 6.651e-10
 25.23320    249.0 9.850e+03 6.643e-10
 25.24944    250.4 9.923e+03 6.594e-10
 25.25965    251.2 9.975e+03 7.067e-10
 25.27405    252.6 1.009e+04 7.349e-10
 25.29448    253.9 1.024e+04 7.641e-10
 25.30574    255.1 1.043e+04 7.819e-10
 25.31595    254.1 1.012e+04 6.321e-10
 25.32584    254.6 1.013e+04 6.246e-10
 25.33606    256.0 1.049e+04 7.699e-10
 25.35576    256.3 1.050e+04 7.587e-10
 25.37619    256.7 1.048e+04 7.209e-10
 25.39204    256.9 1.037e+04 6.734e-10
 25.40225    258.3 1.087e+04 8.540e-10
 25.41705    258.5 1.072e+04 7.731e-10
 25.43747    258.2 1.050e+04 6.960e-10
 25.45790    257.5 1.025e+04 6.364e-10
 25.46844    256.7 1.005e+04 6.077e-10
 25.47866    258.5 1.041e+04 6.700e-10
 25.49363    257.5 1.014e+04 6.411e-10
 25.50385    256.2 1.003e+04 6.269e-10
 25.51918    255.5 1.003e+04 6.310e-10
 25.53463    254.9 1.007e+04 6.611e-10
 25.54485    256.7 1.056e+04 7.512e-10
 25.55488    256.0 1.076e+04 8.108e-10
 25.56505    255.6 1.083e+04 8.683e-10
 25.57274    254.3 1.206e+04 9.612e-10
 25.57785    238.5 6.046e+04 7.287e-10
 25.58547    232.6 6.800e+04 1.408e-09
 25.59259    233.6 7.095e+04 1.873e-09
 25.59769    244.7 4.978e+04 1.115e-09
 25.60584    241.6 5.403e+04 1.529e-09
 25.61094    224.9 5.091e+04 2.688e-08
 25.61611    222.9 4.755e+04 4.785e-08
 25.62633    214.6 4.164e+04 1.112e-07
 25.63654    202.8 3.402e+04 2.930e-07
 25.64404    191.8 2.831e+04 5.786e-07
 25.64657    190.2 2.042e+04 3.646e-06
 25.64926    185.6 2.058e+04 3.020e-06
 25.65695    181.5 2.339e+04 1.242e-06
 25.66718    182.5 3.173e+04 2.219e-07
 25.67713    185.4 5.094e+04 1.684e-08
 25.68224    192.3 7.463e+04 9.025e-10
 25.68653    189.5 5.902e+04 6.441e-10
 25.69164    186.4 5.172e+04 8.729e-10
 25.70298    169.9 3.021e+04 5.180e-10
 25.72346    165.3 1.448e+04 7.259e-10
 25.74342    166.9 1.386e+04 6.476e-10
 25.75364    163.6 8.493e+03 1.542e-10
 25.76431    165.5 8.228e+03 1.385e-10
 25.78474    167.5 7.944e+03 1.280e-10
 25.80517    168.7 7.700e+03 1.229e-10
 25.81983    170.6 7.551e+03 1.194e-10
 25.84035    171.4 7.320e+03 1.118e-10
 25.86961    175.1 7.351e+03 1.174e-10
 25.89004    176.4 7.460e+03 1.219e-10
 25.91771    180.0 7.538e+03 1.308e-10
 25.95241    183.5 7.679e+03 1.444e-10
 25.97284    183.2 7.678e+03 1.465e-10
 25.99942    186.2 7.895e+03 1.690e-10
 26.04028    189.1 8.157e+03 1.995e-10
 26.08113    191.8 8.477e+03 2.378e-10
 26.10522    194.4 8.883e+03 2.850e-10
 26.12565    192.4 9.116e+03 3.403e-10
 26.16284    194.6 9.437e+03 3.898e-10
 26.20369    196.3 9.619e+03 4.265e-10
 26.23424    197.0 9.681e+03 4.645e-10
 26.24762    198.1 9.766e+03 5.220e-10
 26.25784    197.1 9.646e+03 5.018e-10
 26.26563    198.3 9.768e+03 5.589e-10
 26.27584    198.6 1.012e+04 6.765e-10
 26.29542    199.2 1.027e+04 7.296e-10
 26.31382    199.7 1.042e+04 7.888e-10
 26.32403    198.6 1.008e+04 6.597e-10
 26.33628    199.1 1.017e+04 6.955e-10
 26.35670    199.6 1.019e+04 7.104e-10
 26.37713    200.0 1.018e+04 7.080e-10
 26.39022    200.4 1.015e+04 6.963e-10
 26.40043    198.9 9.759e+03 5.546e-10
 26.41799    199.2 9.642e+03 5.229e-10
 26.43841    199.6 9.503e+03 4.865e-10
 26.45352    199.9 9.364e+03 4.488e-10
 26.46131    199.5 9.259e+03 4.209e-10
 26.46663    198.4 9.020e+03 3.724e-10
 26.48958    200.2 9.065e+03 3.822e-10
 26.52280    201.6 8.938e+03 3.706e-10
 26.54323    200.8 8.873e+03 3.517e-10
 26.57139    202.0 8.962e+03 3.736e-10
 26.61224    203.2 9.126e+03 4.130e-10
 26.64161    204.2 9.242e+03 4.477e-10
 26.66204    203.1 9.076e+03 4.019e-10
 26.67561    204.2 9.122e+03 4.161e-10
 26.69604    203.8 9.270e+03 4.518e-10
 26.72449    204.3 9.239e+03 4.511e-10
 26.74161    204.7 9.221e+03 4.508e-10
 26.75182    204.4 9.304e+03 4.790e-10
 26.76525    204.8 9.333e+03 4.937e-10
 26.78568    205.1 9.361e+03 5.061e-10
 26.80611    205.5 9.399e+03 5.197e-10
 26.81801    205.9 9.458e+03 5.392e-10
 26.82823    206.0 9.506e+03 5.595e-10
 26.83952    206.4 9.568e+03 5.814e-10
 26.84973    206.4 9.393e+03 5.308e-10
 26.86739    206.9 9.511e+03 5.740e-10
 26.88421    207.5 9.650e+03 6.208e-10
 26.89442    207.5 9.566e+03 5.673e-10
 26.90824    208.1 9.644e+03 5.682e-10
 26.92867    208.4 9.652e+03 5.599e-10
 26.94910    208.6 9.660e+03 5.487e-10
 26.96061    208.9 9.649e+03 5.266e-10
 26.98114    209.3 9.460e+03 4.551e-10
 27.01740    210.5 9.386e+03 4.171e-10
 27.03782    211.1 9.413e+03 4.342e-10
 27.06164    212.3 9.352e+03 4.052e-10
 27.09319    213.3 9.220e+03 3.666e-10
 27.11362    214.6 9.240e+03 3.815e-10
 27.14335    215.6 9.169e+03 3.736e-10
 27.18421    216.6 9.175e+03 3.778e-10
 27.22506    217.6 9.228e+03 3.947e-10
 27.24600    218.2 9.335e+03 4.235e-10
 27.25612    218.4 9.542e+03 4.908e-10
 27.27593    218.6 9.582e+03 5.093e-10
 27.29636    218.9 9.619e+03 5.343e-10
 27.31200    219.3 9.650e+03 5.587e-10
 27.32221    219.7 9.741e+03 5.830e-10
 27.33722    220.1 9.748e+03 5.945e-10
 27.35764    220.4 9.764e+03 6.101e-10
 27.37807    220.9 9.817e+03 6.359e-10
 27.38841    221.2 9.925e+03 6.784e-10
 27.39862    221.6 9.861e+03 6.520e-10
 27.41341    221.7 9.994e+03 6.960e-10
 27.42363    222.1 9.909e+03 6.649e-10
 27.43935    222.2 1.007e+04 7.204e-10
 27.45460    222.3 1.026e+04 7.919e-10
 27.46481    222.6 1.003e+04 6.876e-10
 27.48021    222.7 1.017e+04 7.458e-10
 27.51067    222.7 1.073e+04 9.668e-10
 27.53120    224.1 1.016e+04 7.331e-10
 27.55190    224.4 1.050e+04 8.820e-10
 27.59275    224.1 1.071e+04 9.585e-10
 27.63361    223.3 1.073e+04 9.389e-10
 27.66358    222.5 1.057e+04 8.124e-10
 27.68401    225.1 1.064e+04 8.587e-10
 27.71532    224.8 1.066e+04 7.932e-10
 27.73989    224.2 1.048e+04 6.834e-10
 27.75001    224.4 1.053e+04 7.173e-10
 27.76619    224.3 1.032e+04 6.388e-10
 27.78662    224.1 1.011e+04 5.735e-10
 27.79941    224.0 1.012e+04 5.642e-10
 27.80857    224.7 9.813e+03 4.938e-10
 27.81620    225.5 1.032e+04 6.888e-10
 27.82747    225.5 1.022e+04 6.367e-10
 27.84790    225.3 1.012e+04 5.946e-10
 27.87864    226.4 1.013e+04 5.921e-10
 27.91959    226.7 9.919e+03 5.663e-10
 27.94878    227.0 9.896e+03 5.811e-10
 27.96921    229.0 1.035e+04 6.973e-10
 28.00130    228.9 1.018e+04 6.578e-10
 28.04216    228.7 1.017e+04 6.563e-10
 28.08116    228.3 1.018e+04 6.542e-10
 28.10159    230.3 1.032e+04 6.777e-10
 28.12386    229.9 1.029e+04 6.533e-10
 28.16472    229.5 1.021e+04 5.917e-10
 28.18561    229.2 9.984e+03 4.806e-10
 28.20603    230.5 9.777e+03 4.298e-10
 28.23397    230.2 9.473e+03 3.434e-10
 28.25440    232.0 1.009e+04 4.488e-10
 28.28728    231.5 9.662e+03 3.203e-10
 28.32814    231.2 9.088e+03 2.228e-10
 28.36636    231.0 8.684e+03 1.708e-10
 28.38679    231.7 9.218e+03 2.253e-10
 28.40985    231.5 8.697e+03 1.597e-10
 28.45070    231.7 8.615e+03 1.350e-10
 28.49156    232.4 8.588e+03 1.261e-10
 28.51917    233.8 8.542e+03 1.208e-10
 28.53960    233.6 8.800e+03 1.268e-10
 28.56139    235.4 8.608e+03 1.191e-10
 28.58182    236.5 8.653e+03 1.215e-10
 28.61412    238.5 8.626e+03 1.209e-10
 28.65155    240.8 8.630e+03 1.212e-10
 28.67198    240.5 8.815e+03 1.241e-10
 28.69583    242.8 8.799e+03 1.249e-10
 28.73669    245.0 8.797e+03 1.306e-10
 28.77754    247.0 8.861e+03 1.438e-10
 28.80437    248.9 8.954e+03 1.630e-10
 28.82479    248.7 9.214e+03 1.924e-10
 28.85925    250.5 9.282e+03 2.199e-10
 28.90010    252.0 9.374e+03 2.532e-10
 28.93675    253.3 9.449e+03 2.830e-10
 28.95340    253.3 9.667e+03 3.296e-10
 28.95760    254.2 9.509e+03 2.794e-10
 28.98181    255.3 9.533e+03 2.937e-10
 29.02267    256.2 9.543e+03 2.969e-10
 29.06352    257.0 9.534e+03 2.960e-10
 29.08956    257.9 9.503e+03 2.926e-10
 29.10999    257.6 9.660e+03 3.139e-10
 29.14523    258.3 9.595e+03 3.032e-10
 29.18609    259.1 9.507e+03 2.849e-10
 29.22195    260.0 9.394e+03 2.611e-10
 29.24237    259.4 9.338e+03 2.349e-10
 29.26780    260.4 9.094e+03 1.891e-10
 29.30865    261.3 8.880e+03 1.565e-10
 29.33339    262.3 8.728e+03 1.394e-10
 29.35382    263.3 8.830e+03 1.498e-10
 29.37476    264.4 8.770e+03 1.454e-10
 29.39518    263.8 8.583e+03 1.138e-10
 29.43122    265.0 8.575e+03 1.136e-10
 29.47207    266.5 8.575e+03 1.139e-10
 29.50714    268.0 8.580e+03 1.161e-10
 29.52757    267.7 8.437e+03 9.488e-11
 29.55378    269.5 8.448e+03 9.913e-11
 29.59463    271.2 8.489e+03 1.072e-10
 29.63549    273.0 8.553e+03 1.179e-10
 29.65995    274.7 8.642e+03 1.309e-10
 29.68038    274.6 8.608e+03 1.191e-10
 29.70918    276.2 8.739e+03 1.382e-10
 29.72960    277.0 8.799e+03 1.409e-10
 29.75805    278.5 8.952e+03 1.637e-10
 29.79234    279.8 9.215e+03 1.949e-10
 29.81276    278.7 9.564e+03 2.193e-10
 29.83976    279.7 9.996e+03 2.889e-10
 29.86865    279.9 1.013e+04 3.216e-10
 29.87876    279.7 1.018e+04 3.341e-10
 29.89064    279.8 1.037e+04 3.918e-10
 29.90709    280.1 1.063e+04 5.085e-10
 29.91730    280.3 1.070e+04 5.250e-10
 29.93149    280.7 1.093e+04 6.784e-10
 29.94495    281.3 1.117e+04 8.361e-10
 29.95517    280.9 1.141e+04 9.706e-10
 29.97234    281.4 1.164e+04 1.083e-09
 29.99277    282.0 1.185e+04 1.179e-09
 30.01115    282.4 1.201e+04 1.279e-09
 30.02136    281.6 1.206e+04 1.167e-09
 30.03363    281.9 1.211e+04 1.124e-09
 30.05405    282.2 1.210e+04 1.042e-09
 30.07448    282.3 1.203e+04 9.315e-10
 30.08755    282.4 1.190e+04 8.089e-10
 30.09776    280.5 1.111e+04 4.648e-10
 30.12565    280.1 1.023e+04 3.038e-10
 30.16660    281.1 9.843e+03 2.548e-10
 30.20745    282.2 9.738e+03 2.453e-10
 30.23034    283.6 9.746e+03 2.470e-10
 30.25077    283.4 9.672e+03 2.363e-10
 30.28916    284.9 9.868e+03 2.599e-10
 30.33002    286.0 1.016e+04 3.016e-10
 30.36056    286.0 1.032e+04 3.383e-10
 30.37275    286.1 1.054e+04 3.977e-10
 30.38296    285.6 1.080e+04 4.997e-10
 30.40132    285.7 1.103e+04 6.061e-10
 30.42175    285.8 1.126e+04 7.213e-10
 30.43894    285.9 1.147e+04 8.391e-10
 30.44915    285.2 1.167e+04 9.308e-10
 30.46260    285.4 1.179e+04 9.998e-10
 30.48098    285.5 1.184e+04 1.012e-09
 30.49119    286.2 1.167e+04 9.207e-10
 30.50346    286.3 1.168e+04 9.192e-10
 30.51534    286.4 1.168e+04 8.981e-10
 30.52556    285.7 1.160e+04 7.838e-10
 30.54431    285.7 1.151e+04 6.821e-10
 30.56474    285.5 1.141e+04 5.738e-10
 30.58154    285.3 1.127e+04 4.754e-10
 30.59175    283.8 1.101e+04 3.533e-10
 30.60559    283.9 1.083e+04 3.185e-10
 30.62602    284.0 1.072e+04 3.036e-10
 30.64783    285.3 1.075e+04 3.118e-10
 30.66835    285.0 1.039e+04 2.559e-10
 30.69771    286.1 1.029e+04 2.571e-10
 30.73857    287.2 1.028e+04 2.596e-10
 30.77942    288.2 1.027e+04 2.609e-10
 30.80074    289.1 1.025e+04 2.599e-10
 30.82116    288.2 1.034e+04 2.593e-10
 30.85696    289.0 1.036e+04 2.601e-10
 30.87739    289.1 1.066e+04 3.164e-10
 30.90198    289.5 1.067e+04 3.157e-10
 30.93312    289.7 1.069e+04 3.134e-10
 30.95345    288.5 1.083e+04 3.442e-10
 30.97328    288.3 1.087e+04 3.512e-10
 30.99371    288.2 1.093e+04 3.631e-10
 31.00933    287.9 1.101e+04 3.862e-10
 31.01954    285.8 1.158e+04 5.828e-10
 31.03457    285.2 1.186e+04 6.835e-10
 31.05487    284.7 1.219e+04 8.311e-10
 31.06508    284.3 1.234e+04 9.215e-10
 31.07542    283.7 1.272e+04 1.174e-09
 31.08574    283.4 1.307e+04 1.481e-09
 31.09595    282.0 1.388e+04 2.351e-09
 31.11628    281.9 1.405e+04 2.638e-09
 31.13670    281.9 1.413e+04 2.724e-09
 31.15193    282.0 1.408e+04 2.651e-09
 31.16214    280.4 1.425e+04 2.668e-09
 31.17756    280.4 1.392e+04 2.199e-09
 31.19799    280.3 1.348e+04 1.698e-09
 31.21812    280.0 1.293e+04 1.257e-09
 31.22833    277.6 1.202e+04 8.033e-10
 31.23884    277.2 1.134e+04 6.101e-10
 31.25298    277.0 1.083e+04 4.985e-10
 31.26319    276.4 1.064e+04 4.703e-10
 31.27969    276.5 1.040e+04 4.253e-10
 31.29453    276.9 1.028e+04 4.020e-10
 31.30474    276.4 1.023e+04 3.934e-10
 31.32055    277.0 1.025e+04 3.903e-10
 31.34098    277.4 1.032e+04 3.925e-10
 31.36072    277.4 1.042e+04 3.943e-10
 31.37103    276.9 1.061e+04 4.156e-10
 31.39224    277.8 1.057e+04 4.035e-10
 31.43310    278.5 1.048e+04 3.837e-10
 31.47395    279.0 1.042e+04 3.590e-10
 31.50351    279.1 1.037e+04 3.350e-10
 31.52394    279.1 1.039e+04 3.338e-10
 31.55566    279.2 1.037e+04 3.237e-10
 31.59651    279.2 1.038e+04 3.242e-10
 31.62896    278.9 1.043e+04 3.286e-10
 31.64791    279.1 1.053e+04 3.554e-10
 31.65622    279.2 1.054e+04 3.500e-10
 31.66781    278.9 1.051e+04 3.528e-10
 31.68824    278.7 1.049e+04 3.578e-10
 31.70867    278.6 1.045e+04 3.678e-10
 31.72232    278.6 1.044e+04 3.878e-10
 31.73253    278.9 1.042e+04 3.844e-10
 31.74952    279.1 1.040e+04 4.090e-10
 31.76995    279.2 1.046e+04 4.428e-10
 31.78851    279.2 1.059e+04 4.881e-10
 31.79873    279.8 1.045e+04 4.472e-10
 31.81081    279.9 1.057e+04 4.860e-10
 31.82687    279.8 1.082e+04 5.573e-10
 31.83708    279.3 1.087e+04 5.785e-10
 31.85166    279.1 1.127e+04 7.137e-10
 31.86492    278.7 1.184e+04 9.578e-10
 31.87513    279.6 1.131e+04 7.173e-10
 31.89252    279.2 1.192e+04 9.862e-10
 31.91294    278.7 1.267e+04 1.439e-09
 31.93111    278.1 1.360e+04 2.179e-09
 31.94132    279.1 1.278e+04 1.534e-09
 31.95380    278.2 1.391e+04 2.436e-09
 31.97422    276.8 1.530e+04 4.033e-09
 31.99465    275.3 1.679e+04 6.708e-09
 32.00752    273.6 1.822e+04 1.040e-08
 32.01741    275.0 1.747e+04 7.784e-09
 32.02497    273.2 1.723e+04 6.567e-09
 32.03551    271.0 1.819e+04 6.977e-09
 32.05593    268.0 1.826e+04 6.711e-09
 32.07371    264.9 1.817e+04 5.390e-09
 32.08392    265.7 1.753e+04 4.499e-09
 32.09679    262.3 1.684e+04 2.873e-09
 32.11722    258.5 1.515e+04 1.471e-09
 32.13764    254.3 1.238e+04 7.300e-10
 32.15011    250.8 1.087e+04 5.573e-10
 32.16033    251.5 1.072e+04 5.130e-10
 32.17850    250.5 1.060e+04 5.050e-10
 32.19893    250.7 1.061e+04 5.047e-10
 32.21287    250.8 1.064e+04 5.048e-10
 32.22003    250.1 1.054e+04 4.709e-10
 32.22652    250.3 1.038e+04 4.482e-10
 32.23978    250.4 1.048e+04 4.691e-10
 32.26021    250.4 1.059e+04 4.941e-10
 32.28063    250.6 1.068e+04 5.247e-10
 32.29271    250.8 1.079e+04 5.682e-10
 32.30292    250.9 1.078e+04 5.770e-10
 32.32149    251.1 1.095e+04 6.428e-10
 32.34192    251.4 1.116e+04 7.285e-10
 32.35890    251.7 1.141e+04 8.389e-10
 32.36912    251.7 1.142e+04 8.424e-10
 32.38277    251.8 1.173e+04 9.865e-10
 32.40076    251.9 1.213e+04 1.172e-09
 32.41097    250.7 1.236e+04 1.328e-09
 32.42363    250.6 1.281e+04 1.583e-09
 32.43531    250.4 1.332e+04 1.900e-09
 32.44552    249.4 1.333e+04 1.868e-09
 32.46448    249.1 1.374e+04 2.174e-09
 32.48491    248.6 1.408e+04 2.442e-09
 32.50150    247.9 1.434e+04 2.583e-09
 32.51171    246.7 1.380e+04 2.119e-09
 32.52576    245.6 1.379e+04 2.080e-09
 32.54619    244.2 1.375e+04 2.010e-09
 32.56662    242.2 1.374e+04 1.996e-09
 32.57791    239.6 1.379e+04 2.025e-09
 32.58812    238.9 1.331e+04 1.665e-09
 32.59887    235.8 1.370e+04 1.893e-09
 32.60908    233.8 1.355e+04 1.804e-09
 32.62790    230.3 1.441e+04 2.418e-09
 32.64410    226.8 1.525e+04 3.229e-09
 32.65431    227.4 1.492e+04 2.964e-09
 32.66875    224.2 1.566e+04 3.631e-09
 32.68918    221.0 1.596e+04 3.728e-09
 32.70961    217.9 1.592e+04 3.596e-09
 32.72050    215.3 1.555e+04 2.999e-09
 32.73072    215.8 1.618e+04 3.906e-09
 32.75046    213.5 1.556e+04 3.128e-09
 32.77089    211.7 1.443e+04 2.186e-09
 32.78670    210.5 1.307e+04 1.482e-09
 32.79691    209.9 1.484e+04 2.939e-09
 32.81175    209.3 1.325e+04 1.820e-09
 32.83217    208.6 1.158e+04 1.099e-09
 32.85260    208.1 1.079e+04 7.171e-10
 32.86310    208.0 1.068e+04 5.540e-10
 32.87332    207.9 1.087e+04 6.180e-10
 32.89346    207.9 1.084e+04 5.802e-10
 32.91388    208.1 1.077e+04 5.745e-10
 32.92929    208.8 1.073e+04 5.740e-10
 32.93951    208.7 1.108e+04 6.386e-10
 32.95474    209.9 1.102e+04 6.377e-10
 32.97465    211.3 1.102e+04 6.484e-10
 32.98487    211.4 1.106e+04 6.282e-10
 32.99549    212.7 1.122e+04 6.696e-10
 33.00570    212.0 1.214e+04 7.424e-10
 33.01602    213.1 1.235e+04 8.395e-10
 33.03645    213.9 1.266e+04 1.022e-09
 33.05687    214.5 1.315e+04 1.342e-09
 33.07189    214.9 1.375e+04 1.866e-09
 33.08211    213.9 1.550e+04 3.153e-09
 33.09773    214.7 1.602e+04 4.295e-09
 33.11816    215.7 1.672e+04 5.903e-09
 33.13808    216.7 1.745e+04 7.926e-09
 33.14830    216.0 1.824e+04 9.252e-09
 33.15901    216.5 1.856e+04 1.015e-08
 33.17276    216.6 1.859e+04 1.002e-08
 33.18297    216.7 1.917e+04 1.292e-08
 33.19987    216.6 1.912e+04 1.223e-08
 33.21449    216.4 1.878e+04 1.043e-08
 33.22470    215.2 1.783e+04 6.790e-09
 33.24072    214.4 1.693e+04 5.201e-09
 33.26115    213.5 1.588e+04 4.081e-09
 33.28068    212.6 1.491e+04 3.427e-09
 33.29090    212.0 1.415e+04 2.827e-09
 33.30200    212.1 1.399e+04 2.767e-09
 33.32243    212.3 1.397e+04 2.738e-09
 33.34286    212.7 1.399e+04 2.736e-09
 33.35709    212.9 1.407e+04 2.768e-09
 33.36467    213.0 1.362e+04 2.212e-09
 33.37086    213.5 1.356e+04 2.394e-09
 33.38371    213.6 1.371e+04 2.448e-09
 33.40414    213.6 1.401e+04 2.542e-09
 33.42328    213.1 1.453e+04 2.762e-09
 33.43349    213.3 1.373e+04 2.150e-09
 33.44499    212.3 1.429e+04 2.383e-09
 33.46542    210.9 1.486e+04 2.791e-09
 33.48585    209.4 1.525e+04 3.260e-09
 33.49969    207.9 1.528e+04 3.400e-09
 33.50990    208.7 1.470e+04 2.782e-09
 33.52670    207.3 1.465e+04 2.758e-09
 33.54713    206.2 1.436e+04 2.567e-09
 33.55876    206.2 1.382e+04 2.191e-09
 33.56729    206.7 1.377e+04 1.996e-09
 33.57609    207.5 1.365e+04 1.870e-09
 33.58799    207.8 1.293e+04 1.429e-09
 33.60841    208.1 1.231e+04 1.097e-09
 33.62884    208.5 1.187e+04 8.730e-10
 33.64228    209.0 1.160e+04 7.308e-10
 33.65250    209.9 1.151e+04 6.305e-10
 33.66969    210.5 1.135e+04 5.362e-10
 33.69012    211.2 1.120e+04 5.109e-10
 33.70848    212.2 1.119e+04 5.098e-10
 33.71869    212.8 1.105e+04 4.293e-10
 33.73098    213.9 1.106e+04 4.296e-10
 33.74665    214.9 1.106e+04 4.323e-10
 33.75686    215.1 1.114e+04 4.372e-10
 33.77183    216.2 1.113e+04 4.419e-10
 33.78488    217.3 1.114e+04 4.510e-10
 33.79509    218.0 1.105e+04 4.084e-10
 33.81269    219.1 1.110e+04 4.297e-10
 33.83311    220.2 1.117e+04 4.559e-10
 33.85107    221.2 1.122e+04 4.860e-10
 33.86129    221.9 1.122e+04 4.779e-10
 33.87397    223.0 1.129e+04 5.167e-10
 33.89440    224.0 1.142e+04 5.579e-10
 33.91482    225.0 1.155e+04 6.084e-10
 33.92748    225.9 1.167e+04 6.698e-10
 33.93698    226.3 1.187e+04 7.241e-10
 33.94476    226.3 1.237e+04 8.601e-10
 33.95568    227.2 1.254e+04 9.838e-10
 33.97610    228.1 1.270e+04 1.126e-09
 33.99367    229.1 1.284e+04 1.284e-09
 34.00388    229.5 1.304e+04 1.483e-09
 34.01696    230.4 1.319e+04 1.668e-09
 34.03739    231.3 1.334e+04 1.866e-09
 34.05781    232.2 1.350e+04 2.076e-09
 34.07008    232.9 1.368e+04 2.304e-09
 34.08029    233.3 1.384e+04 2.558e-09
 34.09867    234.1 1.406e+04 2.828e-09
 34.11910    235.0 1.431e+04 3.161e-09
 34.13265    235.9 1.460e+04 3.562e-09
 34.13961    235.7 1.493e+04 4.007e-09
 34.14648    236.0 1.479e+04 3.619e-09
 34.15995    236.9 1.506e+04 4.020e-09
 34.18038    237.8 1.530e+04 4.265e-09
 34.20081    238.5 1.536e+04 4.275e-09
 34.21267    239.1 1.534e+04 4.222e-09
 34.22289    239.1 1.511e+04 3.545e-09
 34.24166    239.9 1.499e+04 3.315e-09
 34.26209    240.8 1.476e+04 2.926e-09
 34.27887    241.8 1.448e+04 2.471e-09
 34.28908    241.8 1.420e+04 2.013e-09
 34.30294    242.7 1.392e+04 1.648e-09
 34.32054    243.6 1.366e+04 1.343e-09
 34.33075    242.8 1.315e+04 8.170e-10
 34.34380    243.5 1.286e+04 6.885e-10
 34.35527    244.3 1.255e+04 6.049e-10
 34.36549    244.2 1.206e+04 4.721e-10
 34.38465    245.0 1.177e+04 4.468e-10
 34.40508    246.0 1.153e+04 4.402e-10
 34.42146    247.0 1.136e+04 4.431e-10
 34.43168    247.1 1.123e+04 3.820e-10
 34.44593    248.3 1.116e+04 3.965e-10
 34.46636    249.4 1.116e+04 4.160e-10
 34.48679    250.6 1.115e+04 4.416e-10
 34.49787    251.8 1.116e+04 4.727e-10
 34.50808    251.7 1.117e+04 4.348e-10
 34.51865    253.0 1.117e+04 4.710e-10
 34.52886    251.9 1.098e+04 3.788e-10
 34.54807    253.4 1.097e+04 4.211e-10
 34.56406    255.1 1.107e+04 4.724e-10
 34.57428    254.8 1.092e+04 4.459e-10
 34.58893    256.5 1.110e+04 5.070e-10
 34.60935    257.8 1.134e+04 5.692e-10
 34.62978    258.0 1.158e+04 6.250e-10
 34.64047    257.8 1.215e+04 7.182e-10
 34.65068    258.0 1.186e+04 7.178e-10
 34.67063    256.7 1.342e+04 1.077e-09
 34.69106    252.4 1.670e+04 2.779e-09
 34.70654    246.5 1.948e+04 7.485e-09
 34.71192    249.5 1.832e+04 5.604e-09
 34.71687    250.6 1.803e+04 5.633e-09
 34.73192    245.6 2.026e+04 1.208e-08
 34.75234    240.6 2.118e+04 1.501e-08
 34.77277    235.7 2.109e+04 1.449e-08
 34.79320    233.4 2.096e+04 1.289e-08
 34.81363    229.8 1.941e+04 7.728e-09
 34.83405    226.2 1.692e+04 4.019e-09
 34.84926    222.7 1.436e+04 2.340e-09
 34.85947    223.6 1.459e+04 2.198e-09
 34.87491    220.6 1.357e+04 1.678e-09
 34.89443    219.8 1.330e+04 1.565e-09
 34.90465    219.8 1.465e+04 2.712e-09
 34.91545    219.6 1.446e+04 2.538e-09
 34.92566    220.2 1.425e+04 2.480e-09
 34.93619    220.2 1.403e+04 2.252e-09
 34.95662    220.2 1.367e+04 1.954e-09
 34.97704    220.2 1.321e+04 1.673e-09
 34.99186    220.3 1.279e+04 1.458e-09
 35.00207    221.2 1.280e+04 1.483e-09
 35.01790    221.4 1.250e+04 1.346e-09
 35.03833    221.7 1.231e+04 1.260e-09
 35.05805    222.2 1.221e+04 1.205e-09
 35.06826    223.1 1.224e+04 1.218e-09
 35.07918    223.6 1.220e+04 1.188e-09
 35.09254    224.2 1.219e+04 1.176e-09
 35.10275    223.7 1.226e+04 1.098e-09
 35.12004    224.1 1.213e+04 1.030e-09
 35.13445    224.4 1.201e+04 9.645e-10
 35.14467    225.2 1.209e+04 9.280e-10
 35.16089    225.4 1.196e+04 8.579e-10
 35.18132    225.6 1.184e+04 7.927e-10
 35.20065    225.8 1.170e+04 7.406e-10
 35.21086    226.3 1.169e+04 6.919e-10
 35.22217    226.4 1.157e+04 6.672e-10
 35.24260    226.7 1.154e+04 6.654e-10
 35.26303    227.0 1.154e+04 6.674e-10
 35.27705    227.4 1.156e+04 6.820e-10
 35.28424    227.7 1.154e+04 6.629e-10
 35.29065    226.9 1.128e+04 5.880e-10
 35.30388    227.3 1.137e+04 6.298e-10
 35.32431    227.7 1.154e+04 7.112e-10
 35.34324    228.0 1.179e+04 8.376e-10
 35.35346    228.5 1.173e+04 8.127e-10
 35.36516    228.8 1.201e+04 9.712e-10
 35.38559    229.0 1.235e+04 1.179e-09
 35.40602    229.1 1.274e+04 1.440e-09
 35.41965    229.1 1.317e+04 1.759e-09
 35.42986    229.9 1.306e+04 1.617e-09
 35.44687    229.8 1.350e+04 1.958e-09
 35.46730    229.6 1.389e+04 2.300e-09
 35.47854    229.2 1.413e+04 2.510e-09
 35.48686    228.9 1.390e+04 2.155e-09
 35.49606    229.6 1.378e+04 1.945e-09
 35.50816    229.1 1.386e+04 1.987e-09
 35.52858    228.6 1.385e+04 1.978e-09
 35.54901    228.1 1.372e+04 1.909e-09
 35.56225    227.7 1.343e+04 1.745e-09
 35.57246    228.5 1.343e+04 1.634e-09
 35.58987    228.2 1.304e+04 1.436e-09
 35.61029    228.1 1.262e+04 1.251e-09
 35.62844    228.1 1.228e+04 1.116e-09
 35.63865    228.7 1.229e+04 1.035e-09
 35.65115    228.7 1.218e+04 9.844e-10
 35.66643    228.8 1.217e+04 9.765e-10
 35.67664    227.8 1.163e+04 5.628e-10
 35.69200    227.8 1.156e+04 5.523e-10
 35.70484    228.1 1.147e+04 5.426e-10
 35.71506    228.7 1.139e+04 4.775e-10
 35.73286    228.7 1.144e+04 4.874e-10
 35.75328    227.9 1.190e+04 5.234e-10
 35.77104    224.9 1.388e+04 7.353e-10
 35.78125    218.5 1.785e+04 1.346e-09
 35.79414    216.0 1.835e+04 2.801e-09
 35.81457    215.1 1.787e+04 4.568e-09
 35.83499    215.0 1.781e+04 5.648e-09
 35.84744    215.1 1.802e+04 5.537e-09
 35.85656    210.8 1.922e+04 5.979e-09
 35.86454    206.6 1.955e+04 4.340e-09
 35.87585    204.5 1.901e+04 2.539e-09
 35.89628    201.1 1.697e+04 1.406e-09
 35.91363    197.7 1.383e+04 9.009e-10
 35.92385    192.9 1.196e+04 7.547e-10
 35.93713    193.0 1.183e+04 7.368e-10
 35.95756    194.1 1.187e+04 7.367e-10
 35.97799    195.0 1.201e+04 7.486e-10
 35.99004    195.4 1.219e+04 7.877e-10
 36.00025    193.2 1.222e+04 7.645e-10
 36.01884    193.3 1.227e+04 8.413e-10
 36.03927    193.3 1.235e+04 9.744e-10
 36.05243    193.5 1.253e+04 1.166e-09
 36.05918    193.0 1.210e+04 1.019e-09
 36.06645    191.9 1.204e+04 1.033e-09
 36.08012    192.6 1.236e+04 1.245e-09
 36.10055    193.1 1.267e+04 1.444e-09
 36.12098    193.5 1.296e+04 1.538e-09
 36.13264    193.7 1.304e+04 1.534e-09
 36.14285    193.0 1.287e+04 1.347e-09
 36.16183    193.0 1.280e+04 1.291e-09
 36.18226    193.1 1.259e+04 1.169e-09
 36.19883    193.3 1.228e+04 1.009e-09
 36.20904    193.0 1.199e+04 8.345e-10
 36.22311    193.2 1.170e+04 6.978e-10
 36.24032    193.2 1.145e+04 5.851e-10
 36.26085    192.9 1.134e+04 5.078e-10
 36.29480    193.4 1.096e+04 3.984e-10
 36.33141    193.9 1.048e+04 2.873e-10
 36.35184    193.8 1.017e+04 2.487e-10
 36.37651    194.6 9.579e+03 1.686e-10
 36.41737    195.8 9.374e+03 1.447e-10
 36.45822    197.5 9.377e+03 1.449e-10
 36.48422    199.4 9.457e+03 1.517e-10
 36.50465    199.6 9.400e+03 1.469e-10
 36.53993    201.4 9.682e+03 1.722e-10
 36.58079    203.1 1.014e+04 2.230e-10
 36.61630    204.5 1.061e+04 2.933e-10
 36.63169    203.4 1.053e+04 2.741e-10
 36.63703    202.7 1.070e+04 2.790e-10
 36.66250    203.4 1.107e+04 3.460e-10
 36.70335    204.1 1.108e+04 3.777e-10
 36.73389    203.9 1.103e+04 3.777e-10
 36.75422    204.1 1.090e+04 3.745e-10
 36.76922    205.1 1.073e+04 3.734e-10
 36.77944    205.1 1.063e+04 3.869e-10
 36.79508    206.7 1.057e+04 4.194e-10
 36.81421    208.5 1.069e+04 4.630e-10
 36.82443    208.3 1.081e+04 5.228e-10
 36.83541    210.0 1.102e+04 5.791e-10
 36.84563    209.6 1.129e+04 6.663e-10
 36.85636    211.3 1.150e+04 7.352e-10
 36.87679    212.9 1.172e+04 8.147e-10
 36.89722    214.4 1.198e+04 9.098e-10
 36.91182    215.8 1.228e+04 1.028e-09
 36.92203    215.1 1.245e+04 1.117e-09
 36.93807    216.3 1.271e+04 1.251e-09
 36.95850    217.5 1.302e+04 1.422e-09
 36.97801    218.6 1.339e+04 1.661e-09
 36.98823    217.5 1.311e+04 1.604e-09
 36.99935    218.6 1.336e+04 1.816e-09
 37.01232    219.7 1.365e+04 2.069e-09
 37.02253    218.8 1.355e+04 1.974e-09
 37.04021    219.8 1.392e+04 2.239e-09
 37.05442    220.8 1.432e+04 2.523e-09
 37.06463    219.9 1.344e+04 1.712e-09
 37.08106    220.9 1.366e+04 1.765e-09
 37.10149    221.7 1.387e+04 1.805e-09
 37.12061    222.5 1.405e+04 1.836e-09
 37.13082    221.0 1.297e+04 1.162e-09
 37.14234    221.5 1.311e+04 1.189e-09
 37.16277    221.8 1.337e+04 1.298e-09
 37.18320    221.7 1.384e+04 1.531e-09
 37.19702    221.4 1.446e+04 1.950e-09
 37.20382    219.7 1.420e+04 1.850e-09
 37.21043    218.3 1.446e+04 2.154e-09
 37.22405    218.2 1.547e+04 3.103e-09
 37.24448    218.1 1.648e+04 4.350e-09
 37.26321    217.9 1.725e+04 5.325e-09
 37.27342    216.5 1.748e+04 5.610e-09
 37.28534    215.9 1.763e+04 5.621e-09
 37.30576    215.3 1.759e+04 5.401e-09
 37.32619    214.9 1.728e+04 4.537e-09
 37.33961    214.1 1.672e+04 3.318e-09
 37.34983    209.6 1.827e+04 3.238e-09
 37.36704    206.3 1.876e+04 3.283e-09
 37.38747    202.3 1.990e+04 3.909e-09
 37.39832    198.7 2.091e+04 5.760e-09
 37.40644    194.9 2.160e+04 8.525e-09
 37.41602    190.9 2.241e+04 1.374e-08
 37.42833    189.0 2.273e+04 1.531e-08
 37.44875    187.2 2.276e+04 1.512e-08
 37.46918    185.9 2.235e+04 1.350e-08
 37.48216    185.0 2.177e+04 1.020e-08
 37.49238    181.3 1.999e+04 6.060e-09
 37.51004    180.8 1.826e+04 3.410e-09
 37.53046    179.3 1.587e+04 1.664e-09
 37.54840    176.6 1.370e+04 8.170e-10
 37.55862    170.9 1.258e+04 5.669e-10
 37.57132    169.9 1.263e+04 5.538e-10
 37.58621    169.1 1.291e+04 5.595e-10
 37.59643    166.5 1.363e+04 7.165e-10
 37.61217    166.3 1.446e+04 9.263e-10
 37.62481    166.4 1.513e+04 1.249e-09
 37.63502    163.6 1.593e+04 1.886e-09
 37.65303    164.3 1.622e+04 2.236e-09
 37.67345    165.2 1.644e+04 2.460e-09
 37.69100    166.2 1.656e+04 2.533e-09
 37.70121    163.9 1.664e+04 2.567e-09
 37.71431    164.8 1.659e+04 2.328e-09
 37.73474    165.4 1.643e+04 1.972e-09
 37.75516    165.8 1.614e+04 1.570e-09
 37.76741    166.0 1.567e+04 1.190e-09
 37.77613    162.7 1.468e+04 7.810e-10
 37.78432    160.0 1.357e+04 5.300e-10
 37.79602    160.1 1.278e+04 4.016e-10
 37.81645    160.5 1.229e+04 3.222e-10
 37.83360    161.1 1.219e+04 2.853e-10
 37.84381    158.7 1.220e+04 2.741e-10
 37.85730    159.5 1.224e+04 2.746e-10
 37.87773    160.2 1.240e+04 2.768e-10
 37.89816    160.9 1.268e+04 2.869e-10
 37.91000    161.7 1.299e+04 3.092e-10
 37.92022    159.1 1.338e+04 3.774e-10
 37.93901    160.2 1.353e+04 4.185e-10
 37.95944    161.5 1.367e+04 4.548e-10
 37.97221    162.9 1.383e+04 4.835e-10
 37.97876    160.8 1.403e+04 5.244e-10
 37.98641    158.7 1.414e+04 5.406e-10
 38.00029    159.6 1.439e+04 5.658e-10
 38.02072    160.3 1.475e+04 6.086e-10
 38.04115    160.8 1.520e+04 6.731e-10
 38.05260    161.1 1.569e+04 7.651e-10
 38.06282    157.3 1.587e+04 7.495e-10
 38.08200    157.3 1.636e+04 8.723e-10
 38.10243    157.6 1.684e+04 1.012e-09
 38.11879    158.0 1.737e+04 1.161e-09
 38.12901    153.8 1.760e+04 1.255e-09
 38.14328    154.5 1.797e+04 1.442e-09
 38.16010    155.3 1.827e+04 1.595e-09
 38.17032    152.3 1.844e+04 1.689e-09
 38.18414    153.0 1.860e+04 1.746e-09
 38.19520    153.9 1.877e+04 1.769e-09
 38.20541    150.6 1.870e+04 1.743e-09
 38.22499    151.3 1.872e+04 1.654e-09
 38.24542    152.0 1.858e+04 1.505e-09
 38.26139    152.8 1.834e+04 1.325e-09
 38.27161    148.7 1.789e+04 1.171e-09
 38.28628    149.4 1.755e+04 1.028e-09
 38.30670    150.2 1.725e+04 9.078e-10
 38.32713    151.0 1.700e+04 8.112e-10
 38.33780    151.9 1.682e+04 7.380e-10
 38.34801    148.3 1.655e+04 7.049e-10
 38.35821    149.2 1.648e+04 6.574e-10
 38.36842    145.8 1.625e+04 6.286e-10
 38.38841    146.5 1.628e+04 6.268e-10
 38.40399    147.2 1.642e+04 6.282e-10
 38.41420    143.5 1.624e+04 5.998e-10
 38.42927    144.0 1.644e+04 6.115e-10
 38.44969    144.7 1.661e+04 6.232e-10
 38.47012    145.4 1.665e+04 6.211e-10
 38.49055    142.4 1.625e+04 5.394e-10
 38.51098    143.4 1.606e+04 4.922e-10
 38.53140    144.4 1.578e+04 4.334e-10
 38.54610    145.2 1.550e+04 3.778e-10
 38.55107    141.2 1.538e+04 3.622e-10
 38.55680    136.7 1.531e+04 3.424e-10
 38.57226    136.8 1.531e+04 3.343e-10
 38.59269    136.7 1.550e+04 3.349e-10
 38.61278    136.4 1.619e+04 3.628e-10
 38.62299    130.3 1.722e+04 4.798e-10
 38.63354    129.9 1.797e+04 6.098e-10
 38.65397    129.5 1.859e+04 7.542e-10
 38.67440    128.9 1.906e+04 8.821e-10
 38.68919    128.0 1.934e+04 9.627e-10
 38.69940    121.7 1.936e+04 9.907e-10
 38.71525    120.5 1.930e+04 9.960e-10
 38.73400    119.1 1.901e+04 9.400e-10
 38.74421    115.0 1.875e+04 9.264e-10
 38.75538    113.2 1.830e+04 8.123e-10
 38.76559    107.0 1.739e+04 6.186e-10
 38.77653    104.5 1.701e+04 5.183e-10
 38.79696    101.2 1.693e+04 4.406e-10
 38.81739     96.9 1.729e+04 3.828e-10
 38.83178     91.9 1.767e+04 3.504e-10
 38.84200     84.1 1.784e+04 3.397e-10
 38.85824     78.3 1.788e+04 3.288e-10
 38.87867     72.1 1.782e+04 3.103e-10
 38.89798     65.4 1.756e+04 2.990e-10
 38.90819     58.1 1.773e+04 3.094e-10
 38.91952     51.0 1.735e+04 3.087e-10
 38.93210     43.6 1.721e+04 3.159e-10
 38.94232     41.1 1.703e+04 3.383e-10
 38.96038     34.2 1.702e+04 3.931e-10
 38.97438     27.4 1.738e+04 4.532e-10
 38.98460     22.0 1.740e+04 4.681e-10
 39.00123     15.6 1.769e+04 4.797e-10
 39.02166      9.7 1.763e+04 4.685e-10
 39.04057      2.5 1.798e+04 4.817e-10
 39.05079     -1.7 1.808e+04 5.204e-10
 39.06251    -19.3 2.422e+04 6.262e-10
 39.08294    -38.7 3.072e+04 1.057e-09
 39.09821    -53.5 3.270e+04 2.960e-09
 39.10838    -61.9 3.147e+04 6.334e-09
 39.11693    -70.2 3.173e+04 1.235e-08
 39.12204    -66.7 3.059e+04 1.022e-08
 39.12500    -72.0 3.140e+04 1.632e-08
 39.13011    -71.5 3.180e+04 1.633e-08
 39.13902    -77.9 3.440e+04 2.009e-08
 39.14923    -85.4 3.531e+04 1.900e-08
 39.15508    -92.1 3.693e+04 1.320e-08
 39.16019    -92.2 3.665e+04 1.379e-08
 39.16966    -98.7 3.725e+04 9.580e-09
 39.18312   -111.6 3.698e+04 2.674e-09
 39.19338   -111.5 3.553e+04 3.813e-09
 39.20551   -128.4 2.583e+04 5.035e-10
 39.22593   -149.4 1.882e+04 2.677e-10
 39.24636   -159.4 1.740e+04 2.804e-10
 39.25958   -169.3 1.883e+04 3.670e-10
 39.26979   -167.2 1.885e+04 3.690e-10
 39.28722   -173.9 1.830e+04 3.467e-10
 39.30764   -181.8 1.780e+04 3.371e-10
 39.31810   -186.9 1.635e+04 2.778e-10
 39.32601   -182.9 1.638e+04 2.791e-10
 39.33598   -180.7 1.629e+04 2.801e-10
 39.34850   -184.9 1.617e+04 3.043e-10
 39.36892   -190.4 1.767e+04 4.491e-10
 39.38935   -195.2 1.916e+04 7.827e-10
 39.40217   -197.9 1.967e+04 1.171e-09
 39.41239   -195.6 2.014e+04 1.410e-09
 39.43021   -196.4 2.015e+04 1.674e-09
 39.45063   -196.7 2.006e+04 1.718e-09
 39.46837   -197.0 2.005e+04 1.457e-09
 39.47858   -194.8 2.058e+04 1.758e-09
 39.49149   -196.5 2.039e+04 1.370e-09
 39.50599   -200.0 1.972e+04 1.016e-09
 39.51621   -195.5 1.978e+04 1.062e-09
 39.53234   -199.2 1.852e+04 8.176e-10
 39.54477   -201.1 1.772e+04 7.583e-10
 39.55499   -199.4 1.824e+04 9.131e-10
 39.57320   -199.8 1.801e+04 9.222e-10
 39.59363   -199.9 1.823e+04 9.476e-10
 39.61096   -200.4 1.850e+04 9.626e-10
 39.62118   -199.8 1.861e+04 1.025e-09
 39.63448   -201.9 1.836e+04 9.343e-10
 39.65491   -203.6 1.797e+04 9.079e-10
 39.67534   -204.5 1.753e+04 9.045e-10
 39.68737   -204.7 1.735e+04 9.024e-10
 39.69571   -204.7 1.695e+04 7.956e-10
 39.70410   -202.9 1.707e+04 8.492e-10
 39.71619   -203.8 1.707e+04 8.290e-10
 39.73662   -206.0 1.761e+04 8.241e-10
 39.75356   -210.3 1.826e+04 8.420e-10
 39.76378   -211.9 1.793e+04 7.691e-10
 39.77747   -216.5 1.768e+04 8.052e-10
 39.79790   -221.1 1.723e+04 8.982e-10
 39.81833   -233.5 2.464e+04 1.351e-09
 39.82997   -253.7 3.329e+04 4.395e-09
 39.84018   -256.7 3.345e+04 5.098e-09
 39.85403   -269.4 3.302e+04 1.096e-08
 39.86297   -272.6 3.260e+04 1.310e-08
 39.86807   -272.6 3.286e+04 1.230e-08
 39.87440   -284.1 3.251e+04 1.755e-08
 39.88462   -297.5 3.988e+04 1.780e-08
 39.89190   -324.3 5.651e+04 1.274e-08
 39.89700   -325.7 6.033e+04 1.256e-08
 39.90117   -364.9 6.450e+04 1.376e-08
 39.90628   -355.7 5.852e+04 1.182e-08
 39.91526   -389.8 5.138e+04 1.747e-08
 39.92547   -410.8 4.061e+04 3.424e-08
 39.93427   -423.3 3.677e+04 4.412e-08
 39.93937   -416.3 3.722e+04 3.185e-08
 39.94590   -426.3 3.581e+04 3.483e-08
 39.95611   -435.5 3.460e+04 2.690e-08
 39.96633   -445.1 3.454e+04 1.609e-08
 39.97247   -454.2 3.271e+04 1.005e-08
 39.97758   -447.0 3.363e+04 1.144e-08
 39.98584   -455.3 3.214e+04 8.187e-09
 39.99095   -456.3 3.192e+04 7.998e-09
 39.99697   -461.9 3.033e+04 7.157e-09
 40.00556   -465.8 2.944e+04 6.977e-09
 40.01067   -462.3 3.102e+04 6.875e-09
 40.01740   -466.3 3.000e+04 6.885e-09
 40.02761   -469.6 2.947e+04 6.971e-09
 40.03871   -474.1 2.920e+04 7.543e-09
 40.04892   -471.8 2.953e+04 7.387e-09
 40.06341   -476.5 2.915e+04 8.536e-09
 40.07989   -484.5 2.833e+04 1.117e-08
 40.09010   -482.6 2.734e+04 1.041e-08
 40.10431   -490.1 2.717e+04 1.128e-08
 40.11516   -497.9 2.758e+04 1.076e-08
 40.12538   -493.7 2.924e+04 1.352e-08
 40.14516   -502.6 2.946e+04 1.313e-08
 40.16559   -509.2 2.851e+04 1.156e-08
 40.18136   -515.3 2.621e+04 9.373e-09
 40.19157   -513.5 2.771e+04 1.175e-08
 40.20645   -517.5 2.559e+04 8.971e-09
 40.22687   -522.4 2.295e+04 5.643e-09
 40.24730   -526.7 2.018e+04 3.080e-09
 40.25776   -530.3 1.720e+04 1.668e-09
 40.26798   -527.7 1.861e+04 2.205e-09
 40.28816   -527.2 1.615e+04 1.274e-09
 40.30858   -528.7 1.547e+04 1.018e-09
 40.32395   -529.3 1.549e+04 9.773e-10
 40.33417   -529.1 1.618e+04 1.056e-09
 40.34944   -532.4 2.278e+04 9.009e-10
 40.36986   -537.5 3.323e+04 1.410e-09
 40.39015   -541.2 3.469e+04 3.482e-09
 40.40036   -541.3 3.366e+04 4.785e-09
 40.40556   -538.9 3.327e+04 4.461e-09
 40.41573   -539.8 3.241e+04 6.749e-09
 40.42594   -541.1 3.071e+04 1.115e-08
 40.43336   -542.0 2.906e+04 1.765e-08
 40.43846   -541.9 2.805e+04 2.315e-08
 40.44637   -542.8 2.644e+04 3.598e-08
 40.45658   -543.5 2.534e+04 4.779e-08
 40.46579   -543.9 2.452e+04 5.749e-08
 40.47055   -541.9 2.609e+04 2.813e-08
 40.47156   -541.4 2.539e+04 3.600e-08
 40.47701   -541.5 2.449e+04 4.359e-08
 40.48722   -541.4 2.390e+04 4.825e-08
 40.49744   -540.9 2.365e+04 4.964e-08
 40.50466   -540.0 2.322e+04 4.867e-08
 40.50976   -538.8 2.326e+04 4.950e-08
 40.51787   -537.8 2.336e+04 4.319e-08
 40.52808   -537.0 2.349e+04 3.649e-08
 40.53775   -536.2 2.372e+04 3.008e-08
 40.54286   -535.1 2.399e+04 2.775e-08
 40.54851   -534.4 2.440e+04 2.071e-08
 40.55872   -533.9 2.491e+04 1.438e-08
 40.56484   -533.6 2.534e+04 9.341e-09
 40.56995   -532.7 2.418e+04 1.655e-08
 40.57596   -532.2 2.456e+04 1.176e-08
 40.58106   -531.6 2.495e+04 9.069e-09
 40.58936   -531.7 2.511e+04 5.717e-09
 40.59958   -531.8 2.490e+04 3.678e-09
 40.60910   -532.5 2.401e+04 2.693e-09
 40.61936   -532.4 2.385e+04 2.055e-09
 40.63542   -533.0 2.234e+04 1.324e-09
 40.65378   -532.9 2.098e+04 9.025e-10
 40.66399   -527.5 2.235e+04 2.748e-09
 40.67534   -527.3 2.135e+04 1.810e-09
 40.68556   -527.0 2.094e+04 1.167e-09
 40.69670   -527.1 1.870e+04 7.118e-10
 40.71713   -527.2 1.544e+04 4.568e-10
 40.73756   -526.8 1.291e+04 3.513e-10
 40.75175   -525.2 1.223e+04 3.075e-10
 40.76196   -522.5 1.224e+04 2.841e-10
 40.77841   -519.6 1.220e+04 2.849e-10
 40.79884   -516.8 1.220e+04 2.912e-10
 40.82958   -513.7 1.225e+04 2.956e-10
 40.85208   -512.8 1.218e+04 2.963e-10
 40.86220   -509.1 1.195e+04 2.988e-10
 40.88055   -507.4 1.192e+04 3.009e-10
 40.89435   -506.1 1.190e+04 3.022e-10
 40.91487   -505.8 1.192e+04 2.918e-10
 40.95224   -503.7 1.165e+04 2.820e-10
 40.99309   -500.4 1.142e+04 2.787e-10
 41.02692   -496.3 1.132e+04 2.777e-10
 41.04735   -494.8 1.102e+04 2.596e-10
 41.07480   -491.2 1.092e+04 2.588e-10
 41.11566   -487.6 1.088e+04 2.580e-10
 41.15651   -484.2 1.083e+04 2.615e-10
 41.17974   -480.8 1.086e+04 2.685e-10
 41.20016   -479.4 1.049e+04 2.358e-10
 41.22786   -476.3 1.048e+04 2.411e-10
 41.24829   -474.5 1.081e+04 2.686e-10
 41.27908   -471.3 1.093e+04 2.914e-10
 41.31212   -468.1 1.110e+04 3.242e-10
 41.33255   -466.9 1.068e+04 2.711e-10
 41.36079   -463.5 1.089e+04 3.083e-10
 41.40164   -459.9 1.105e+04 3.478e-10
 41.44250   -456.1 1.107e+04 3.723e-10
 41.46483   -451.8 1.103e+04 3.719e-10
 41.48526   -450.5 1.093e+04 3.452e-10
 41.52421   -446.7 1.093e+04 3.515e-10
 41.56506   -443.1 1.093e+04 3.525e-10
 41.59732   -440.2 1.090e+04 3.463e-10
 41.61548   -438.8 1.058e+04 2.982e-10
 41.62398   -435.9 1.096e+04 3.823e-10
 41.63636   -434.4 1.096e+04 3.827e-10
 41.65679   -433.3 1.102e+04 3.832e-10
 41.67353   -432.3 1.108e+04 3.871e-10
 41.68374   -431.2 1.103e+04 3.760e-10
 41.69764   -430.7 1.110e+04 3.773e-10
 41.71807   -429.7 1.114e+04 3.788e-10
 41.73850   -429.4 1.117e+04 3.811e-10
 41.75003   -428.8 1.114e+04 3.821e-10
 41.77055   -425.9 1.097e+04 3.550e-10
 41.81019   -423.3 1.093e+04 3.573e-10
 41.85104   -420.5 1.077e+04 3.472e-10
 41.88251   -417.4 1.053e+04 3.357e-10
 41.90294   -415.3 1.055e+04 3.375e-10
 41.93275   -412.1 1.030e+04 3.261e-10
 41.97361   -409.1 1.006e+04 3.103e-10
 41.99986   -406.1 9.839e+03 2.907e-10
 42.02029   -406.4 9.947e+03 2.986e-10
 42.03532   -403.5 9.559e+03 2.619e-10
 42.05575   -400.7 9.798e+03 2.815e-10
 42.09617   -397.8 9.508e+03 2.536e-10
 42.13703   -395.1 9.360e+03 2.356e-10
 42.16771   -392.3 9.316e+03 2.284e-10
 42.18813   -389.8 9.351e+03 2.296e-10
 42.21874   -387.1 9.320e+03 2.250e-10
 42.25959   -384.5 9.327e+03 2.250e-10
 42.30009   -382.1 9.467e+03 2.404e-10
 42.32052   -379.4 9.328e+03 2.231e-10
 42.34130   -377.1 9.508e+03 2.412e-10
 42.37565   -374.9 9.756e+03 2.761e-10
 42.39608   -375.7 9.714e+03 2.734e-10
 42.42301   -373.6 9.909e+03 3.115e-10
 42.45290   -371.7 9.986e+03 3.343e-10
 42.47333   -368.8 9.970e+03 3.141e-10
 42.50472   -366.8 1.005e+04 3.413e-10
 42.54557   -364.8 1.006e+04 3.490e-10
 42.58529   -362.8 9.897e+03 3.198e-10
 42.60571   -359.8 1.022e+04 3.773e-10
 42.62728   -357.9 1.006e+04 3.482e-10
 42.66814   -356.0 9.722e+03 2.908e-10
 42.70899   -354.0 9.283e+03 2.271e-10
 42.73810   -352.0 8.851e+03 1.778e-10
 42.75853   -349.2 9.482e+03 2.552e-10
 42.77186   -347.3 9.041e+03 1.972e-10
 42.79229   -348.2 8.754e+03 1.612e-10
 42.83156   -346.6 8.611e+03 1.490e-10
 42.87048   -345.1 8.616e+03 1.527e-10
 42.89091   -342.2 8.758e+03 1.676e-10
 42.91327   -340.8 8.700e+03 1.701e-10
 42.95412   -339.7 8.792e+03 1.951e-10
 42.99497   -338.5 8.800e+03 2.158e-10
 43.02329   -337.4 8.788e+03 2.211e-10
 43.04372   -334.6 8.840e+03 2.347e-10
 43.07668   -333.4 8.821e+03 2.364e-10
 43.11754   -332.0 8.674e+03 2.144e-10
 43.14765   -330.5 8.420e+03 1.663e-10
 43.16536   -331.3 8.140e+03 1.253e-10
 43.17611   -328.8 8.350e+03 1.548e-10
 43.19925   -327.2 8.111e+03 1.175e-10
 43.24010   -325.7 7.889e+03 9.330e-11
 43.28096   -324.2 7.704e+03 8.146e-11
 43.30849   -322.6 7.628e+03 7.900e-11
 43.32892   -320.3 7.738e+03 8.104e-11
 43.36267   -318.9 7.661e+03 7.888e-11
 43.40352   -317.4 7.670e+03 7.996e-11
 43.44087   -316.0 7.782e+03 8.725e-11
 43.46130   -314.1 7.769e+03 8.450e-11
 43.48523   -312.8 7.934e+03 9.997e-11
 43.52343   -311.5 8.105e+03 1.246e-10
 43.54386   -312.3 8.204e+03 1.406e-10
 43.56694   -310.9 8.338e+03 1.642e-10
 43.59369   -309.4 8.442e+03 1.842e-10
 43.61411   -307.8 8.620e+03 2.102e-10
 43.64865   -306.5 8.685e+03 2.299e-10
 43.68950   -305.1 8.688e+03 2.338e-10
 43.72607   -303.6 8.653e+03 2.298e-10
 43.74650   -302.2 8.831e+03 2.643e-10
 43.77121   -300.6 8.769e+03 2.568e-10
 43.81207   -298.9 8.740e+03 2.522e-10
 43.85292   -297.4 8.740e+03 2.519e-10
 43.87888   -296.1 8.892e+03 2.776e-10
 43.89931   -294.4 8.900e+03 2.836e-10
 43.91964   -293.3 9.260e+03 3.489e-10
 43.94007   -292.3 9.025e+03 2.976e-10
 43.97549   -291.4 9.463e+03 4.019e-10
 44.01127   -290.9 1.001e+04 5.529e-10
 44.03169   -288.6 1.009e+04 5.521e-10
 44.05720   -288.2 1.084e+04 7.599e-10
 44.09805   -288.4 1.180e+04 1.049e-09
 44.12859   -286.9 1.233e+04 1.323e-09
 44.14892   -287.0 1.349e+04 1.780e-09
 44.16388   -287.2 1.515e+04 2.763e-09
 44.17410   -285.0 1.422e+04 2.180e-09
 44.18978   -285.5 1.588e+04 3.288e-09
 44.21021   -286.4 1.707e+04 4.698e-09
 44.23007   -287.9 1.753e+04 5.750e-09
 44.24029   -285.3 1.764e+04 4.938e-09
 44.25106   -287.4 1.775e+04 5.540e-09
 44.27149   -289.7 1.760e+04 5.686e-09
 44.29192   -292.0 1.660e+04 5.140e-09
 44.30545   -294.2 1.512e+04 3.351e-09
 44.30980   -292.9 1.765e+04 4.434e-09
 44.31669   -291.2 1.959e+04 5.806e-09
 44.33277   -294.1 1.714e+04 3.277e-09
 44.35320   -297.1 1.390e+04 1.552e-09
 44.37267   -299.5 1.139e+04 8.119e-10
 44.38289   -297.7 1.324e+04 1.373e-09
 44.39405   -299.4 1.124e+04 7.929e-10
 44.41448   -299.8 1.098e+04 6.433e-10
 44.43491   -299.7 1.097e+04 6.371e-10
 44.44908   -298.9 1.096e+04 6.727e-10
 44.45929   -298.6 1.105e+04 7.356e-10
 44.47576   -297.5 1.114e+04 7.368e-10
 44.49334   -296.5 1.125e+04 7.469e-10
 44.50355   -297.1 1.210e+04 1.102e-09
 44.51527   -296.1 1.213e+04 1.102e-09
 44.52548   -295.8 1.240e+04 1.184e-09
 44.53704   -294.8 1.238e+04 1.151e-09
 44.55747   -293.8 1.237e+04 1.133e-09
 44.57790   -293.0 1.238e+04 1.129e-09
 44.59168   -292.7 1.264e+04 1.148e-09
 44.60189   -292.8 1.321e+04 1.304e-09
 44.61875   -292.9 1.415e+04 1.563e-09
 44.63918   -293.1 1.521e+04 2.119e-09
 44.65787   -293.2 1.616e+04 2.985e-09
 44.66808   -293.0 1.696e+04 3.838e-09
 44.68004   -292.9 1.766e+04 5.146e-09
 44.69145   -293.1 1.808e+04 6.395e-09
 44.70166   -293.7 1.938e+04 1.236e-08
 44.72089   -294.4 1.939e+04 1.269e-08
 44.73427   -294.5 1.899e+04 1.225e-08
 44.74449   -294.7 1.895e+04 1.220e-08
 44.76174   -294.5 1.828e+04 1.036e-08
 44.78217   -294.1 1.764e+04 8.613e-09
 44.80047   -293.8 1.713e+04 7.345e-09
 44.81068   -294.1 1.722e+04 7.328e-09
 44.82303   -293.8 1.687e+04 6.490e-09
 44.84345   -293.5 1.651e+04 5.766e-09
 44.86388   -293.1 1.613e+04 5.059e-09
 44.87687   -292.6 1.574e+04 4.415e-09
 44.88212   -293.1 1.682e+04 5.236e-09
 44.88955   -293.4 1.603e+04 4.764e-09
 44.90474   -292.6 1.574e+04 4.021e-09
 44.92516   -291.7 1.549e+04 3.489e-09
 44.94306   -290.8 1.530e+04 3.153e-09
 44.95328   -291.2 1.635e+04 5.103e-09
 44.96602   -290.2 1.622e+04 4.851e-09
 44.98645   -289.1 1.614e+04 4.763e-09
 45.00687   -287.9 1.610e+04 4.745e-09
 45.01947   -286.7 1.607e+04 4.766e-09
 45.02968   -286.7 1.701e+04 6.845e-09
 45.04773   -285.3 1.699e+04 6.886e-09
 45.06723   -283.9 1.665e+04 6.749e-09
 45.07745   -283.4 1.637e+04 5.774e-09
 45.08566   -282.0 1.628e+04 5.746e-09
 45.09587   -282.0 1.693e+04 7.236e-09
 45.10901   -280.5 1.673e+04 6.753e-09
 45.12944   -279.1 1.643e+04 6.053e-09
 45.14986   -277.7 1.608e+04 5.371e-09
 45.16207   -276.2 1.575e+04 4.794e-09
 45.17228   -276.4 1.627e+04 5.580e-09
 45.19072   -274.9 1.598e+04 5.053e-09
 45.21115   -273.4 1.567e+04 4.536e-09
 45.22826   -271.9 1.537e+04 4.058e-09
 45.23847   -272.1 1.564e+04 4.455e-09
 45.25200   -270.5 1.539e+04 4.076e-09
 45.26534   -268.9 1.514e+04 3.719e-09
 45.27555   -268.5 1.534e+04 4.141e-09
 45.29286   -266.9 1.510e+04 3.836e-09
 45.30466   -265.3 1.485e+04 3.518e-09
 45.31488   -265.4 1.488e+04 3.567e-09
 45.33371   -263.7 1.465e+04 3.289e-09
 45.35414   -262.1 1.447e+04 3.050e-09
 45.37086   -260.4 1.436e+04 2.882e-09
 45.38107   -260.3 1.441e+04 2.896e-09
 45.39499   -258.7 1.439e+04 2.869e-09
 45.41542   -257.0 1.444e+04 2.879e-09
 45.43585   -255.3 1.467e+04 3.050e-09
 45.44726   -253.6 1.498e+04 3.323e-09
 45.45443   -253.4 1.508e+04 3.480e-09
 45.46345   -252.9 1.441e+04 2.670e-09
 45.47670   -251.1 1.470e+04 2.968e-09
 45.49713   -249.3 1.507e+04 3.329e-09
 45.51345   -247.5 1.554e+04 3.802e-09
 45.52367   -247.3 1.562e+04 3.819e-09
 45.53798   -245.5 1.613e+04 4.512e-09
 45.55841   -243.7 1.660e+04 5.272e-09
 45.57884   -241.7 1.705e+04 6.025e-09
 45.58986   -239.6 1.740e+04 6.747e-09
 45.60007   -238.9 1.664e+04 6.434e-09
 45.61969   -236.1 1.686e+04 6.578e-09
 45.64012   -233.5 1.767e+04 6.571e-09
 45.65129   -235.4 2.080e+04 7.023e-09
 45.65635   -236.9 2.379e+04 5.976e-09
 45.66106   -242.1 3.064e+04 8.641e-09
 45.66617   -251.6 3.071e+04 2.628e-08
 45.67577   -255.5 2.814e+04 6.599e-08
 45.68598   -258.1 2.613e+04 1.280e-07
 45.69416   -260.0 2.520e+04 1.849e-07
 45.69926   -265.4 2.494e+04 2.030e-07
 45.70641   -268.6 2.531e+04 1.826e-07
 45.71663   -273.9 2.584e+04 1.005e-07
 45.72684   -281.8 2.550e+04 3.482e-08
 45.73236   -291.7 2.277e+04 8.064e-09
 45.73747   -301.8 1.671e+04 2.056e-09
 45.74519   -304.4 1.428e+04 1.332e-09
 45.75029   -305.6 1.366e+04 1.119e-09
 45.75748   -306.0 1.341e+04 1.006e-09
 45.76546   -306.0 1.336e+04 9.569e-10
 45.77056   -306.2 1.330e+04 9.874e-10
 45.78306   -307.1 1.305e+04 8.460e-10
 45.79865   -309.3 1.202e+04 6.324e-10
 45.80886   -310.1 1.135e+04 5.769e-10
 45.82397   -310.4 1.115e+04 4.885e-10
 45.83923   -310.5 1.104e+04 4.206e-10
 45.84944   -310.2 1.073e+04 3.157e-10
 45.86482   -310.2 1.071e+04 2.881e-10
 45.89556   -309.5 1.079e+04 2.761e-10
 45.93651   -310.8 1.081e+04 2.673e-10
 45.97737   -312.3 1.082e+04 2.655e-10
 46.00754   -312.5 1.064e+04 2.841e-10
 46.01765   -311.7 1.063e+04 3.176e-10
 46.02712   -312.5 1.083e+04 4.172e-10
 46.03734   -311.7 1.089e+04 3.688e-10
 46.04867   -312.5 1.128e+04 4.913e-10
 46.06910   -314.2 1.205e+04 6.989e-10
 46.08385   -316.4 1.319e+04 1.062e-09
 46.09406   -314.7 1.315e+04 1.067e-09
 46.10995   -317.1 1.428e+04 1.627e-09
 46.13038   -319.5 1.518e+04 2.446e-09
 46.15004   -321.6 1.580e+04 3.450e-09
 46.16025   -319.9 1.557e+04 3.267e-09
 46.17123   -321.6 1.575e+04 3.966e-09
 46.19166   -323.2 1.572e+04 4.196e-09
 46.21209   -324.3 1.550e+04 4.206e-09
 46.22523   -324.8 1.479e+04 3.614e-09
 46.22937   -323.9 1.483e+04 3.625e-09
 46.23666   -322.7 1.467e+04 3.385e-09
 46.25294   -323.0 1.401e+04 2.777e-09
 46.27337   -323.2 1.329e+04 2.090e-09
 46.29264   -323.5 1.258e+04 1.556e-09
 46.30285   -322.6 1.254e+04 1.509e-09
 46.31422   -322.8 1.200e+04 1.237e-09
 46.33465   -322.7 1.167e+04 1.115e-09
 46.35508   -322.5 1.155e+04 1.084e-09
 46.36904   -322.1 1.152e+04 1.079e-09
 46.37925   -321.1 1.159e+04 1.133e-09
 46.39593   -320.3 1.156e+04 1.145e-09
 46.41312   -319.5 1.158e+04 1.183e-09
 46.42334   -318.8 1.162e+04 1.211e-09
 46.43523   -318.0 1.168e+04 1.270e-09
 46.44545   -317.1 1.157e+04 1.209e-09
 46.45721   -316.2 1.154e+04 1.207e-09
 46.47764   -315.3 1.145e+04 1.152e-09
 46.49807   -314.4 1.132e+04 1.058e-09
 46.51164   -313.3 1.117e+04 9.528e-10
 46.52185   -312.5 1.091e+04 8.084e-10
 46.53892   -311.5 1.075e+04 7.260e-10
 46.55935   -310.5 1.063e+04 6.784e-10
 46.57783   -309.5 1.058e+04 6.643e-10
 46.58804   -308.7 1.025e+04 5.273e-10
 46.60021   -307.6 1.019e+04 5.194e-10
 46.61123   -306.5 1.042e+04 5.580e-10
 46.62144   -305.5 1.010e+04 4.913e-10
 46.64106   -304.6 1.035e+04 5.273e-10
 46.65424   -303.9 1.112e+04 6.627e-10
 46.66445   -302.7 1.005e+04 4.166e-10
 46.68192   -302.0 1.045e+04 4.867e-10
 46.70234   -301.8 1.158e+04 7.248e-10
 46.72043   -302.1 1.378e+04 1.425e-09
 46.73064   -300.7 1.105e+04 6.307e-10
 46.74320   -301.4 1.367e+04 1.383e-09
 46.76363   -302.2 1.658e+04 3.370e-09
 46.78405   -302.7 1.857e+04 7.677e-09
 46.79683   -302.9 2.003e+04 1.495e-08
 46.80169   -302.4 1.886e+04 8.033e-09
 46.80934   -301.4 1.854e+04 6.634e-09
 46.82491   -302.2 1.996e+04 1.122e-08
 46.84018   -302.8 2.009e+04 1.250e-08
 46.85034   -303.5 2.077e+04 1.606e-08
 46.86056   -304.5 2.127e+04 2.171e-08
 46.86804   -305.3 2.142e+04 2.647e-08
 46.87314   -304.5 2.064e+04 1.792e-08
 46.88098   -305.2 2.084e+04 2.143e-08
 46.89120   -305.8 2.084e+04 2.436e-08
 46.89808   -306.4 2.078e+04 2.556e-08
 46.90290   -306.1 2.057e+04 2.290e-08
 46.90624   -305.4 2.014e+04 1.740e-08
 46.91163   -306.0 1.994e+04 1.880e-08
 46.92184   -306.2 1.978e+04 1.931e-08
 46.93205   -306.3 1.904e+04 1.936e-08
 46.93933   -306.3 1.897e+04 1.667e-08
 46.94444   -305.9 1.875e+04 1.714e-08
 46.95248   -305.9 1.876e+04 1.511e-08
 46.96269   -306.0 1.848e+04 1.337e-08
 46.97243   -306.1 1.829e+04 1.114e-08
 46.97754   -305.2 1.843e+04 1.265e-08
 46.98312   -305.4 1.819e+04 1.079e-08
 46.99202   -305.8 1.778e+04 8.746e-09
 46.99713   -305.5 1.814e+04 1.069e-08
 47.00355   -305.9 1.766e+04 8.719e-09
 47.01063   -306.1 1.698e+04 6.877e-09
 47.01574   -305.2 1.760e+04 8.618e-09
 47.02398   -305.4 1.691e+04 6.807e-09
 47.03419   -305.6 1.612e+04 5.389e-09
 47.04373   -305.5 1.548e+04 4.510e-09
 47.04884   -304.8 1.593e+04 5.158e-09
 47.05462   -304.7 1.542e+04 4.456e-09
 47.06999   -304.7 1.505e+04 3.888e-09
 47.08203   -304.2 1.416e+04 2.556e-09
 47.09224   -303.1 1.487e+04 3.563e-09
 47.11089   -302.7 1.376e+04 2.175e-09
 47.13132   -302.5 1.261e+04 1.280e-09
 47.14822   -302.3 1.154e+04 7.792e-10
 47.15844   -301.2 1.224e+04 1.078e-09
 47.17217   -301.0 1.123e+04 6.736e-10
 47.18512   -300.6 1.050e+04 4.658e-10
 47.19533   -299.9 1.103e+04 6.213e-10
 47.21303   -299.6 1.037e+04 4.296e-10
 47.22463   -299.0 9.973e+03 3.371e-10
 47.23484   -298.3 1.027e+04 4.032e-10
 47.25388   -297.5 9.949e+03 3.281e-10
 47.28070   -296.3 9.741e+03 2.918e-10
 47.30113   -294.4 9.900e+03 2.975e-10
 47.32547   -293.2 9.836e+03 2.916e-10
 47.36299   -290.0 9.636e+03 2.828e-10
 47.38342   -290.6 9.869e+03 3.181e-10
 47.40728   -287.7 9.689e+03 3.015e-10
 47.43361   -285.3 9.652e+03 2.965e-10
 47.45404   -285.0 9.631e+03 2.945e-10
 47.48899   -282.7 9.577e+03 2.800e-10
 47.52985   -280.4 9.571e+03 2.743e-10
 47.56600   -278.1 9.628e+03 2.763e-10
 47.58642   -277.7 9.496e+03 2.558e-10
 47.61156   -275.3 9.505e+03 2.549e-10
 47.65241   -272.9 9.563e+03 2.567e-10
 47.69326   -270.4 9.636e+03 2.594e-10
 47.71881   -268.0 9.684e+03 2.606e-10
 47.73924   -267.3 9.623e+03 2.532e-10
 47.75921   -264.8 9.663e+03 2.501e-10
 47.77963   -264.4 9.596e+03 2.501e-10
 47.81583   -262.0 9.613e+03 2.501e-10
 47.85119   -259.4 9.589e+03 2.436e-10
 47.87162   -258.9 9.618e+03 2.453e-10
 47.89754   -256.3 9.565e+03 2.396e-10
 47.93839   -253.8 9.487e+03 2.337e-10
 47.97925   -251.4 9.409e+03 2.287e-10
 48.00400   -249.0 9.335e+03 2.235e-10
 48.02443   -248.5 9.466e+03 2.456e-10
 48.06096   -246.1 9.394e+03 2.403e-10
 48.10181   -243.8 9.317e+03 2.318e-10
 48.13499   -241.5 9.216e+03 2.174e-10
 48.14914   -241.4 9.090e+03 1.981e-10
 48.15682   -240.9 9.151e+03 2.105e-10
 48.18352   -238.4 9.023e+03 1.884e-10
 48.22438   -235.9 8.887e+03 1.655e-10
 48.26523   -233.3 8.755e+03 1.445e-10
 48.28920   -230.6 8.635e+03 1.271e-10
 48.30963   -229.9 8.719e+03 1.416e-10
 48.34694   -227.1 8.630e+03 1.289e-10
 48.38779   -224.2 8.553e+03 1.188e-10
 48.42158   -221.3 8.494e+03 1.115e-10
 48.44201   -220.6 8.609e+03 1.257e-10
 48.46950   -217.6 8.583e+03 1.202e-10
 48.51036   -214.6 8.577e+03 1.172e-10
 48.53121   -211.7 8.572e+03 1.163e-10
 48.55163   -211.2 8.520e+03 1.095e-10
 48.57440   -208.6 8.532e+03 1.096e-10
 48.59482   -208.2 8.663e+03 1.226e-10
 48.63292   -206.0 8.907e+03 1.420e-10
 48.67378   -204.2 9.226e+03 2.071e-10
 48.70678   -202.8 9.583e+03 3.208e-10
 48.72721   -202.2 9.534e+03 3.020e-10
 48.75549   -201.7 1.010e+04 4.260e-10
 48.78309   -201.0 1.050e+04 5.359e-10
 48.79320   -200.8 1.042e+04 5.232e-10
 48.80636   -201.1 1.074e+04 5.909e-10
 48.82679   -202.9 1.211e+04 9.791e-10
 48.84721   -205.6 1.455e+04 2.181e-09
 48.85940   -207.3 1.633e+04 4.751e-09
 48.86961   -207.0 1.584e+04 3.877e-09
 48.88807   -208.6 1.698e+04 6.898e-09
 48.90680   -210.4 1.747e+04 8.839e-09
 48.91701   -209.7 1.698e+04 7.376e-09
 48.92559   -211.9 1.707e+04 7.896e-09
 48.93580   -212.4 1.710e+04 7.913e-09
 48.94935   -214.8 1.707e+04 7.885e-09
 48.96978   -217.0 1.651e+04 5.782e-09
 48.99021   -219.0 1.515e+04 3.124e-09
 49.00199   -220.6 1.309e+04 1.472e-09
 49.01221   -220.6 1.500e+04 3.331e-09
 49.03106   -221.2 1.298e+04 1.616e-09
 49.05149   -221.3 1.127e+04 8.724e-10
 49.06819   -221.0 1.016e+04 5.496e-10
 49.07840   -220.6 1.135e+04 9.146e-10
 49.09234   -220.2 1.036e+04 5.561e-10
 49.10490   -219.6 9.666e+03 3.789e-10
 49.11512   -219.7 9.664e+03 3.485e-10
 49.13320   -218.9 9.212e+03 2.758e-10
 49.14469   -218.0 9.085e+03 2.482e-10
 49.15490   -218.1 9.254e+03 2.595e-10
 49.17405   -217.2 9.120e+03 2.433e-10
 49.20479   -216.3 9.110e+03 2.350e-10
 49.24574   -214.1 8.784e+03 1.977e-10
 49.27717   -211.9 8.459e+03 1.685e-10
 49.29378   -211.7 8.903e+03 2.210e-10
 49.30320   -212.4 8.954e+03 2.081e-10
 49.32745   -209.7 8.615e+03 1.766e-10
 49.36831   -207.4 8.353e+03 1.548e-10
 49.40916   -205.1 8.266e+03 1.486e-10
 49.42998   -202.9 8.260e+03 1.485e-10
 49.45041   -202.4 8.343e+03 1.582e-10
 49.49087   -200.2 8.332e+03 1.604e-10
 49.53173   -198.1 8.459e+03 1.828e-10
 49.56237   -196.1 8.598e+03 2.129e-10
 49.58279   -195.3 8.541e+03 1.991e-10
 49.61344   -193.3 8.635e+03 2.225e-10
 49.65429   -191.3 8.671e+03 2.393e-10
 49.67899   -189.2 8.682e+03 2.473e-10
 49.69902   -189.3 8.723e+03 2.601e-10
 49.71518   -188.6 8.788e+03 2.647e-10
 49.73600   -186.5 8.815e+03 2.758e-10
 49.77685   -184.4 8.820e+03 2.781e-10
 49.81771   -182.3 8.807e+03 2.766e-10
 49.84756   -180.1 8.726e+03 2.598e-10
 49.86799   -179.5 8.815e+03 2.677e-10
 49.89942   -177.3 8.678e+03 2.334e-10
 49.94027   -175.1 8.539e+03 1.981e-10
 49.97995   -172.8 8.400e+03 1.678e-10
 50.00037   -172.1 8.423e+03 1.624e-10
 50.02198   -169.7 8.309e+03 1.375e-10
 50.05477   -167.2 8.200e+03 1.224e-10
 50.07520   -167.0 8.117e+03 1.142e-10
 50.10369   -164.4 8.014e+03 9.741e-11
 50.13276   -161.9 7.993e+03 8.894e-11
 50.15319   -161.0 8.028e+03 8.844e-11
 50.18540   -158.3 8.027e+03 8.580e-11
 50.22626   -155.6 8.043e+03 8.556e-11
 50.26514   -153.0 8.162e+03 9.050e-11
 50.28557   -152.3 8.354e+03 9.542e-11
 50.30797   -149.8 8.511e+03 1.057e-10
 50.34882   -147.3 8.727e+03 1.256e-10
 50.38967   -144.8 8.945e+03 1.610e-10
 50.41795   -142.3 9.170e+03 2.140e-10
 50.43838   -141.9 9.479e+03 2.701e-10
 50.47138   -139.5 9.407e+03 2.642e-10
 50.51224   -136.9 9.728e+03 3.477e-10
 50.55034   -134.4 1.017e+04 4.961e-10
 50.57077   -134.2 1.014e+04 4.812e-10
 50.59395   -131.6 1.067e+04 7.114e-10
 50.63480   -129.0 1.118e+04 9.959e-10
 50.67566   -126.5 1.158e+04 1.250e-09
 50.70315   -124.0 1.180e+04 1.373e-09
 50.72358   -123.5 1.166e+04 1.288e-09
 50.75737   -121.0 1.184e+04 1.401e-09
 50.79822   -118.6 1.188e+04 1.407e-09
 50.82677   -116.1 1.170e+04 1.249e-09
 50.84366   -115.8 1.168e+04 1.239e-09
 50.85596   -115.2 1.134e+04 1.012e-09
 50.87993   -112.8 1.145e+04 1.079e-09
 50.92079   -110.7 1.126e+04 9.594e-10
 50.96164   -108.8 1.086e+04 7.820e-10
 50.98835   -107.1 1.044e+04 6.148e-10
 51.00877   -106.4 1.034e+04 5.566e-10
 51.04335   -104.7 1.002e+04 4.301e-10
 51.08420   -103.1 9.861e+03 3.652e-10
 51.12073   -101.5 9.877e+03 3.511e-10
 51.14116   -100.5 9.842e+03 3.133e-10
 51.16591    -98.8 9.971e+03 3.129e-10
 51.20256    -97.7 1.040e+04 3.775e-10
 51.22289    -97.9 1.256e+04 6.819e-10
 51.23721    -98.4 1.358e+04 9.381e-10
 51.25764    -98.7 1.451e+04 1.557e-09
 51.27335    -98.6 1.508e+04 2.570e-09
 51.28356    -97.7 1.506e+04 1.882e-09
 51.29850    -97.4 1.550e+04 3.001e-09
 51.31892    -96.9 1.576e+04 4.465e-09
 51.33935    -96.1 1.604e+04 6.236e-09
 51.34975    -95.1 1.635e+04 7.979e-09
 51.35997    -94.2 1.659e+04 7.393e-09
 51.38021    -93.1 1.690e+04 9.453e-09
 51.40047    -92.1 1.727e+04 1.103e-08
 51.41068    -92.4 1.807e+04 1.287e-08
 51.41594    -91.8 1.795e+04 1.261e-08
 51.42616    -90.4 1.871e+04 1.504e-08
 51.44149    -89.8 1.875e+04 1.560e-08
 51.46192    -89.2 1.866e+04 1.364e-08
 51.48214    -88.9 1.832e+04 9.659e-09
 51.49235    -87.6 1.956e+04 1.720e-08
 51.50277    -87.5 1.933e+04 1.169e-08
 51.52320    -89.4 1.861e+04 6.653e-09
 51.54362    -92.8 1.646e+04 3.356e-09
 51.55854    -96.5 1.303e+04 1.945e-09
 51.56876    -93.3 1.654e+04 3.307e-09
 51.58448    -98.0 1.277e+04 1.968e-09
 51.59858   -100.2 1.220e+04 1.640e-09
 51.60879   -101.7 1.388e+04 2.220e-09
 51.62473   -103.4 1.359e+04 2.034e-09
 51.63495   -104.8 1.653e+04 2.909e-09
 51.64576   -105.7 1.476e+04 2.285e-09
 51.66619   -106.0 1.321e+04 1.737e-09
 51.68662   -106.2 1.219e+04 1.388e-09
 51.70114   -106.1 1.163e+04 1.175e-09
 51.71135   -106.9 1.165e+04 1.182e-09
 51.72747   -106.3 1.132e+04 1.042e-09
 51.74790   -105.6 1.112e+04 9.791e-10
 51.77864   -105.0 1.104e+04 9.742e-10
 51.81959   -102.9 1.060e+04 7.965e-10
 51.84393   -100.7 1.018e+04 6.190e-10
 51.86436    -99.6 1.026e+04 6.790e-10
 51.90130    -97.3 9.960e+03 5.381e-10
 51.94215    -95.3 9.729e+03 4.331e-10
 51.97456    -93.8 9.509e+03 3.567e-10
 51.98829    -94.2 9.855e+03 4.413e-10
 51.99674    -91.7 1.008e+04 5.638e-10
 52.02386    -90.4 9.849e+03 4.426e-10
 52.06472    -89.8 9.823e+03 3.792e-10
 52.10557    -91.0 9.976e+03 3.752e-10
 52.12903    -91.8 1.107e+04 5.592e-10
 52.13915    -90.8 1.145e+04 5.759e-10
 52.15645    -94.1 1.256e+04 9.988e-10
 52.17247    -96.9 1.385e+04 1.868e-09
 52.18268    -97.9 1.351e+04 1.767e-09
 52.19512   -102.1 1.443e+04 2.569e-09
 52.20534   -100.6 1.466e+04 2.908e-09
 52.21773   -105.8 1.500e+04 3.210e-09
 52.23815   -111.4 1.473e+04 2.897e-09
 52.25858   -116.8 1.341e+04 1.703e-09
 52.27153   -121.5 1.179e+04 9.378e-10
 52.28174   -122.6 1.175e+04 8.364e-10
 52.29944   -126.0 1.072e+04 5.215e-10
 52.31986   -127.4 1.042e+04 4.340e-10
 52.33772   -128.1 1.036e+04 3.858e-10
 52.34794   -129.3 1.024e+04 3.449e-10
 52.36036   -129.5 1.027e+04 3.281e-10
 52.37057   -130.1 1.026e+04 3.160e-10
 52.38115   -130.2 1.028e+04 3.138e-10
 52.40157   -130.2 1.035e+04 3.162e-10
 52.41423   -130.3 1.039e+04 3.211e-10
 52.43475   -132.1 1.030e+04 2.984e-10
 52.47326   -131.2 1.019e+04 2.952e-10
 52.51412   -130.6 1.024e+04 3.013e-10
 52.54671   -129.6 1.034e+04 2.710e-10
 52.56714   -129.8 1.016e+04 2.627e-10
 52.59583   -128.2 9.896e+03 1.921e-10
 52.63668   -126.6 9.593e+03 1.365e-10
 52.67754   -124.8 9.407e+03 9.943e-11
 52.69952   -123.0 9.276e+03 7.676e-11
 52.71995   -122.4 9.275e+03 7.210e-11
 52.74655   -120.5 9.207e+03 5.807e-11
 52.76698   -120.6 9.213e+03 5.737e-11
 52.80010   -118.5 9.181e+03 4.908e-11
 52.83190   -116.4 9.177e+03 4.456e-11
 52.85233   -115.8 9.203e+03 4.416e-11
 52.88181   -113.9 9.216e+03 4.230e-11
 52.92267   -112.0 9.245e+03 4.208e-11
 52.96352   -110.4 9.399e+03 4.758e-11
 52.98472   -108.9 9.445e+03 6.309e-11
 53.00514   -108.7 9.479e+03 7.090e-11
 53.04523   -107.1 9.472e+03 9.037e-11
 53.08608   -105.3 9.468e+03 1.067e-10
 53.11710   -103.4 9.448e+03 1.130e-10
 53.13293   -103.5 9.420e+03 1.191e-10
 53.14277   -102.9 9.343e+03 1.082e-10
 53.16779   -101.1 9.248e+03 9.363e-11
 53.20865    -99.4 9.220e+03 8.345e-11
 53.24948    -97.8 9.229e+03 8.005e-11
 53.29034    -97.5 9.371e+03 7.989e-11
 53.33121    -96.5 9.629e+03 8.787e-11
 53.37207    -95.4 9.871e+03 1.096e-10
 53.40229    -94.3 1.003e+04 1.485e-10
 53.42272    -96.8 1.034e+04 2.866e-10
 53.45378    -96.4 1.069e+04 4.113e-10
 53.49463    -96.8 1.144e+04 6.591e-10
 53.51855    -97.7 1.247e+04 1.106e-09
 53.53817    -98.6 1.235e+04 9.351e-10
 53.55511   -104.2 1.292e+04 1.170e-09
 53.57634   -105.7 1.327e+04 1.676e-09
 53.61720   -106.8 1.334e+04 1.848e-09
 53.64774   -108.6 1.276e+04 1.735e-09
 53.66807   -108.6 1.227e+04 1.364e-09
 53.68730   -108.9 1.182e+04 1.017e-09
 53.69751   -110.5 1.158e+04 8.624e-10
 53.70625   -110.6 1.118e+04 6.611e-10
 53.71646   -111.0 1.136e+04 7.844e-10
 53.72935   -110.8 1.103e+04 6.438e-10
 53.74978   -110.2 1.079e+04 5.283e-10
 53.78052   -109.7 1.058e+04 4.050e-10
 53.81987   -108.3 1.033e+04 3.507e-10
 53.84030   -109.6 1.026e+04 3.382e-10
 53.86232   -107.4 1.001e+04 2.847e-10
 53.89434   -105.2 9.892e+03 2.515e-10
 53.91477   -106.3 1.016e+04 3.062e-10
 53.94403   -104.2 1.024e+04 3.150e-10
 53.97269   -102.2 1.040e+04 3.477e-10
 53.99311   -103.4 1.077e+04 4.610e-10
 54.02574   -101.4 1.092e+04 5.378e-10
 54.06660    -99.3 1.104e+04 6.089e-10
 54.10507    -97.3 1.120e+04 6.826e-10
 54.12550    -98.4 1.151e+04 8.285e-10
 54.14831    -96.4 1.185e+04 9.596e-10
 54.18916    -94.9 1.241e+04 1.148e-09
 54.21970    -95.7 1.299e+04 1.349e-09
 54.24003    -96.1 1.338e+04 1.566e-09
 54.25769    -96.9 1.425e+04 2.185e-09
 54.26790    -97.8 1.410e+04 2.061e-09
 54.28014    -98.8 1.477e+04 2.947e-09
 54.29036   -100.0 1.386e+04 2.137e-09
 54.30132   -100.2 1.432e+04 2.735e-09
 54.32174   -100.1 1.475e+04 3.341e-09
 54.33409    -99.9 1.505e+04 3.720e-09
 54.34431   -101.0 1.430e+04 2.643e-09
 54.36260   -100.5 1.444e+04 2.793e-09
 54.38303   -100.4 1.441e+04 2.639e-09
 54.40028   -100.6 1.397e+04 2.212e-09
 54.41050   -101.2 1.324e+04 1.703e-09
 54.42388   -101.5 1.261e+04 1.393e-09
 54.44431   -101.7 1.224e+04 1.210e-09
 54.46474   -101.5 1.212e+04 1.147e-09
 54.47669   -101.0 1.195e+04 1.118e-09
 54.47999   -100.9 1.144e+04 8.358e-10
 54.48846   -101.3 1.080e+04 5.873e-10
 54.50559   -100.7 1.073e+04 5.703e-10
 54.52602    -99.8 1.070e+04 5.723e-10
 54.54288    -98.9 1.069e+04 5.766e-10
 54.55310    -98.6 1.029e+04 4.202e-10
 54.56687    -97.8 1.026e+04 4.165e-10
 54.58730    -96.6 1.022e+04 4.119e-10
 54.60773    -96.0 1.015e+04 4.016e-10
 54.61929    -94.6 1.007e+04 3.953e-10
 54.62950    -94.3 1.001e+04 3.576e-10
 54.64858    -94.0 9.963e+03 3.546e-10
 54.66614    -92.5 9.941e+03 3.626e-10
 54.68271    -93.1 9.794e+03 3.376e-10
 54.69589    -93.1 9.576e+03 2.632e-10
 54.72027    -91.3 9.546e+03 2.801e-10
 54.76113    -89.5 9.614e+03 3.102e-10
 54.80198    -87.8 9.674e+03 3.419e-10
 54.82827    -86.3 9.685e+03 3.569e-10
 54.84870    -86.0 9.625e+03 3.237e-10
 54.88369    -84.5 9.640e+03 3.372e-10
 54.92455    -83.0 9.582e+03 3.442e-10
 54.96066    -81.6 9.611e+03 3.438e-10
 54.98108    -81.5 9.972e+03 3.942e-10
 55.00626    -80.4 1.018e+04 4.574e-10
 55.04212    -79.3 1.042e+04 5.421e-10
 55.06255    -79.6 1.022e+04 4.892e-10
 55.08796    -78.4 1.060e+04 6.148e-10
 55.11347    -77.4 1.093e+04 6.966e-10
 55.13390    -77.5 1.154e+04 1.074e-09
 55.15936    -76.7 1.150e+04 1.031e-09
 55.17947    -76.7 1.147e+04 1.020e-09
 55.18968    -76.9 1.155e+04 1.120e-09
 55.20012    -77.3 1.195e+04 1.257e-09
 55.22055    -79.7 1.307e+04 1.719e-09
 55.24003    -82.1 1.409e+04 2.810e-09
 55.25025    -82.3 1.387e+04 2.598e-09
 55.25587    -83.4 1.446e+04 3.982e-09
 55.26608    -83.8 1.431e+04 3.894e-09
 55.28183    -83.8 1.489e+04 5.430e-09
 55.30226    -83.4 1.525e+04 6.047e-09
 55.32206    -82.9 1.535e+04 5.835e-09
 55.33228    -83.0 1.476e+04 5.237e-09
 55.34311    -82.6 1.462e+04 3.719e-09
 55.36354    -84.6 1.382e+04 2.006e-09
 55.38397    -89.3 1.213e+04 1.078e-09
 55.39847    -91.9 1.129e+04 8.310e-10
 55.40868    -92.0 1.112e+04 7.394e-10
 55.42482    -93.2 1.092e+04 6.877e-10
 55.43814    -94.3 1.107e+04 7.245e-10
 55.44835    -93.2 1.078e+04 6.110e-10
 55.46466    -94.4 1.092e+04 6.947e-10
 55.47487    -94.3 1.074e+04 5.850e-10
 55.48610    -95.4 1.086e+04 7.122e-10
 55.50653    -95.9 1.096e+04 8.913e-10
 55.52696    -96.1 1.112e+04 1.065e-09
 55.54107    -96.2 1.135e+04 1.169e-09
 55.55128    -96.8 1.122e+04 1.096e-09
 55.56781    -97.0 1.150e+04 1.188e-09
 55.58824    -97.8 1.165e+04 1.203e-09
 55.60726    -98.9 1.166e+04 1.155e-09
 55.61747    -98.8 1.167e+04 1.180e-09
 55.62603    -99.9 1.155e+04 1.087e-09
 55.63625    -99.2 1.168e+04 1.192e-09
 55.64952   -100.3 1.142e+04 1.056e-09
 55.66995   -101.1 1.108e+04 9.101e-10
 55.68366   -101.6 1.072e+04 7.629e-10
 55.69388   -101.5 1.086e+04 8.186e-10
 55.71080   -101.8 1.056e+04 7.008e-10
 55.73123   -102.0 1.030e+04 5.911e-10
 55.74986   -102.4 1.022e+04 5.300e-10
 55.76007   -102.1 1.033e+04 5.888e-10
 55.77209   -102.7 1.033e+04 5.625e-10
 55.79251   -104.3 1.093e+04 5.771e-10
 55.81294   -106.5 1.121e+04 8.531e-10
 55.82414   -108.9 1.171e+04 1.730e-09
 55.82725   -108.2 1.162e+04 1.523e-09
 55.83648   -106.5 1.132e+04 1.091e-09
 55.85380   -108.7 1.257e+04 2.114e-09
 55.87422   -112.6 1.807e+04 4.414e-09
 55.89245   -117.6 2.357e+04 9.070e-09
 55.90267   -112.8 1.905e+04 4.742e-09
 55.91508   -118.4 2.342e+04 9.324e-09
 55.93550   -123.4 2.372e+04 1.525e-08
 55.95593   -127.8 2.271e+04 1.910e-08
 55.96886   -130.4 2.060e+04 1.828e-08
 55.97907   -126.5 2.152e+04 1.526e-08
 55.99679   -128.8 1.949e+04 1.649e-08
 56.01203   -130.5 1.910e+04 1.088e-08
 56.02224   -129.8 1.893e+04 1.127e-08
 56.03505   -131.6 1.772e+04 5.390e-09
 56.04527   -127.9 1.901e+04 9.995e-09
 56.05807   -130.4 1.760e+04 4.225e-09
 56.07850   -133.6 1.400e+04 1.814e-09
 56.09892   -135.6 1.181e+04 1.383e-09
 56.11146   -136.2 1.163e+04 1.357e-09
 56.12167   -134.8 1.206e+04 1.417e-09
 56.13978   -135.8 1.215e+04 1.501e-09
 56.16021   -136.8 1.363e+04 2.476e-09
 56.17765   -137.5 1.519e+04 4.419e-09
 56.18786   -136.9 1.468e+04 3.347e-09
 56.19992   -137.1 1.604e+04 5.967e-09
 56.21014   -136.3 1.478e+04 4.011e-09
 56.22149   -136.0 1.587e+04 6.360e-09
 56.24191   -135.5 1.660e+04 8.035e-09
 56.25406   -135.0 1.678e+04 8.350e-09
 56.26427   -134.0 1.671e+04 8.565e-09
 56.27761   -133.7 1.681e+04 8.605e-09
 56.28705   -133.4 1.677e+04 7.563e-09
 56.29216   -133.0 1.682e+04 8.138e-09
 56.29799   -132.6 1.653e+04 6.862e-09
 56.30399   -132.4 1.617e+04 5.551e-09
 56.30909   -132.0 1.616e+04 5.876e-09
 56.32020   -132.1 1.575e+04 4.385e-09
 56.33046   -130.9 1.606e+04 5.623e-09
 56.34405   -130.4 1.536e+04 3.632e-09
 56.36448   -130.6 1.387e+04 1.927e-09
 56.38491   -131.1 1.188e+04 1.119e-09
 56.39665   -130.9 1.055e+04 8.224e-10
 56.39956   -129.3 1.171e+04 9.901e-10
 56.40824   -127.6 1.271e+04 1.281e-09
 56.42576   -127.7 1.129e+04 8.498e-10
 56.44619   -127.3 1.033e+04 6.844e-10
 56.46285   -126.5 9.980e+03 6.308e-10
 56.47306   -125.2 1.054e+04 6.598e-10
 56.48704   -124.4 1.018e+04 6.100e-10
 56.50747   -123.4 1.007e+04 5.916e-10
 56.52790   -122.3 1.007e+04 5.773e-10
 56.53925   -121.2 1.013e+04 5.642e-10
 56.54947   -120.4 1.035e+04 5.553e-10
 56.56875   -119.5 1.039e+04 5.486e-10
 56.58592   -118.7 1.043e+04 5.479e-10
 56.59614   -118.8 1.093e+04 7.038e-10
 56.60544   -118.4 1.102e+04 7.325e-10
 56.61566   -117.8 1.119e+04 8.134e-10
 56.63003   -117.7 1.132e+04 8.465e-10
 56.65046   -118.3 1.191e+04 8.497e-10
 56.67089   -122.0 1.593e+04 1.591e-09
 56.68185   -127.9 2.054e+04 3.831e-09
 56.69206   -126.5 1.850e+04 3.210e-09
 56.71174   -131.8 2.092e+04 7.555e-09
 56.72702   -134.1 2.127e+04 1.018e-08
 56.73718   -135.4 2.194e+04 1.283e-08
 56.74739   -137.9 2.233e+04 1.889e-08
 56.75305   -139.7 2.238e+04 2.639e-08
 56.75816   -139.1 2.237e+04 2.152e-08
 56.76782   -141.2 2.224e+04 3.007e-08
 56.77804   -142.6 2.180e+04 3.532e-08
 56.78393   -144.1 2.157e+04 3.692e-08
 56.78694   -143.6 2.191e+04 3.233e-08
 56.79125   -143.5 2.170e+04 2.564e-08
 56.79846   -145.1 2.164e+04 2.678e-08
 56.80868   -146.5 2.044e+04 2.696e-08
 56.81889   -147.6 1.992e+04 2.146e-08
 56.82435   -148.5 1.912e+04 1.701e-08
 56.82946   -148.5 1.885e+04 1.527e-08
 56.83932   -149.3 1.812e+04 1.228e-08
 56.84953   -149.9 1.748e+04 1.001e-08
 56.85745   -150.3 1.699e+04 8.486e-09
 56.86255   -150.3 1.695e+04 8.356e-09
 56.87511   -150.7 1.655e+04 7.154e-09
 56.89064   -151.7 1.576e+04 5.450e-09
 56.90085   -151.6 1.571e+04 5.576e-09
 56.91602   -152.2 1.511e+04 4.789e-09
 56.93644   -152.2 1.479e+04 4.206e-09
 56.95683   -152.1 1.454e+04 3.472e-09
 56.97188   -151.4 1.413e+04 2.744e-09
 56.98213   -151.0 1.450e+04 3.952e-09
 56.99773   -150.7 1.419e+04 3.113e-09
 57.01815   -150.4 1.378e+04 2.222e-09
 57.03324   -150.6 1.320e+04 1.469e-09
 57.04345   -150.0 1.319e+04 1.553e-09
 57.05901   -150.2 1.258e+04 1.039e-09
 57.07944   -150.6 1.192e+04 7.392e-10
 57.09943   -150.6 1.136e+04 5.808e-10
 57.10964   -149.6 1.142e+04 5.572e-10
 57.12029   -149.5 1.090e+04 4.326e-10
 57.14072   -148.8 1.058e+04 3.662e-10
 57.17146   -147.8 1.037e+04 3.090e-10
 57.21241   -145.7 9.963e+03 2.331e-10
 57.24222   -143.6 9.807e+03 1.898e-10
 57.26265   -142.6 9.711e+03 1.786e-10
 57.29412   -140.0 9.552e+03 1.446e-10
 57.33497   -137.7 9.517e+03 1.324e-10
 57.35812   -135.5 9.520e+03 1.305e-10
 57.37732   -135.2 9.480e+03 1.256e-10
 57.39503   -134.0 9.351e+03 1.141e-10
 57.41668   -131.7 9.335e+03 1.118e-10
 57.45754   -129.6 9.356e+03 1.127e-10
 57.49839   -127.7 9.408e+03 1.218e-10
 57.52742   -125.7 9.447e+03 1.358e-10
 57.54785   -124.6 9.247e+03 1.096e-10
 57.58010   -122.7 9.253e+03 1.171e-10
 57.62096   -120.7 9.294e+03 1.314e-10
 57.65980   -118.6 9.340e+03 1.531e-10
 57.68023   -117.8 9.169e+03 1.291e-10
 57.70267   -115.7 9.194e+03 1.472e-10
 57.73390   -113.7 9.198e+03 1.624e-10
 57.75433   -113.6 9.156e+03 1.499e-10
 57.78437   -111.6 9.132e+03 1.590e-10
 57.81261   -109.5 9.103e+03 1.607e-10
 57.83304   -108.6 9.077e+03 1.557e-10
 57.86608   -106.4 8.949e+03 1.531e-10
 57.90694   -103.9 8.791e+03 1.396e-10
 57.94500   -101.3 8.642e+03 1.227e-10
 57.96543   -100.4 8.657e+03 1.221e-10
 57.98865    -97.8 8.514e+03 1.052e-10
 58.02950    -95.1 8.392e+03 9.225e-11
 58.07036    -92.5 8.278e+03 8.200e-11
 58.09781    -89.8 8.180e+03 7.425e-11
 58.11671    -88.8 8.322e+03 6.090e-11
 58.13011    -88.8 8.417e+03 6.084e-11
 58.15207    -86.2 8.295e+03 5.596e-11
 58.19292    -83.5 8.237e+03 5.296e-11
 58.23019    -80.8 8.223e+03 5.194e-11
 58.25062    -80.3 8.378e+03 4.642e-11
 58.27463    -77.7 8.346e+03 4.652e-11
 58.31549    -75.0 8.244e+03 4.982e-11
 58.35634    -72.3 8.201e+03 5.516e-11
 58.38301    -69.4 8.187e+03 6.039e-11
 58.40343    -68.6 8.214e+03 5.894e-11
 58.43805    -65.8 8.197e+03 5.953e-11
 58.47890    -63.0 8.193e+03 5.934e-11
 58.50590    -60.3 8.192e+03 5.896e-11
 58.52196    -60.3 8.189e+03 5.820e-11
 58.53582    -59.6 8.147e+03 5.825e-11
 58.56061    -56.9 8.151e+03 5.727e-11
 58.60147    -54.3 8.172e+03 5.717e-11
 58.64232    -51.9 8.271e+03 6.294e-11
 58.66820    -49.6 8.333e+03 7.940e-11
 58.68863    -48.9 8.325e+03 9.024e-11
 58.72403    -46.5 8.433e+03 1.180e-10
 58.76489    -44.0 8.598e+03 1.554e-10
 58.80059    -41.6 8.784e+03 1.948e-10
 58.82101    -41.2 8.950e+03 2.315e-10
 58.84660    -39.0 9.149e+03 2.759e-10
 58.88168    -37.1 9.294e+03 3.025e-10
 58.90211    -37.5 9.341e+03 3.190e-10
 58.92831    -35.8 9.448e+03 3.382e-10
 58.95340    -34.5 9.568e+03 3.594e-10
 58.97382    -34.3 9.803e+03 4.701e-10
 59.01002    -33.2 9.986e+03 5.406e-10
 59.05087    -32.0 1.014e+04 6.054e-10
 59.08578    -30.7 1.018e+04 6.226e-10
 59.10621    -30.5 1.057e+04 8.040e-10
 59.13258    -28.9 1.036e+04 7.297e-10
 59.17343    -26.9 9.960e+03 4.931e-10
 59.21429    -25.3 9.628e+03 3.043e-10
 59.23859    -24.1 9.366e+03 2.060e-10
 59.25902    -24.3 9.398e+03 2.548e-10
 59.27790    -22.9 9.251e+03 2.241e-10
 59.29832    -23.0 9.318e+03 2.533e-10
 59.33685    -21.0 9.297e+03 2.510e-10
 59.37098    -18.8 9.240e+03 2.470e-10
 59.39140    -18.4 9.374e+03 3.280e-10
 59.41856    -16.0 9.301e+03 2.856e-10
 59.45942    -13.7 9.189e+03 2.405e-10
 59.50027    -11.5 9.010e+03 2.012e-10
 59.52379     -9.1 8.843e+03 1.700e-10
 59.54422     -8.6 8.828e+03 1.232e-10
 59.58198     -6.4 8.799e+03 8.893e-11
 59.62284     -4.4 8.619e+03 7.002e-11
 59.65368     -2.3 8.630e+03 5.917e-11
 59.66659     -2.1 8.824e+03 5.860e-11
 59.67660     -2.5 8.692e+03 3.883e-11
 59.70455     -0.6 8.616e+03 3.460e-11
 59.74540      1.4 8.541e+03 3.514e-11
 59.78626      3.1 8.558e+03 3.972e-11
 59.80898      5.4 8.499e+03 5.120e-11
 59.82941      5.3 8.444e+03 4.800e-11
 59.86796      8.3 8.439e+03 6.023e-11
 59.90882     11.2 8.529e+03 6.208e-11
 59.94137     14.1 8.538e+03 5.836e-11
 59.96179     13.9 8.570e+03 5.369e-11
 59.99053     16.8 8.616e+03 4.556e-11
 60.02947     19.3 8.701e+03 3.764e-11
 60.04990     18.9 8.717e+03 3.741e-11
 60.07224     21.3 8.757e+03 3.272e-11
 60.09418     23.9 8.779e+03 3.249e-11
 60.11461     23.5 8.862e+03 3.678e-11
 60.15395     26.0 8.930e+03 3.865e-11
 60.19480     28.8 8.968e+03 4.256e-11
 60.22656     31.5 8.972e+03 4.850e-11
 60.24699     30.9 9.139e+03 8.294e-11
 60.27651     33.6 9.307e+03 9.733e-11
 60.31737     35.9 9.547e+03 1.169e-10
 60.35822     38.0 9.825e+03 1.482e-10
 60.37937     39.9 1.001e+04 2.149e-10
 60.39980     38.9 1.050e+04 4.604e-10
 60.42568     41.2 1.071e+04 5.825e-10
 60.44611     40.3 1.133e+04 8.249e-10
 60.48078     42.3 1.159e+04 8.511e-10
 60.51176     44.2 1.172e+04 8.489e-10
 60.53219     41.4 1.165e+04 6.913e-10
 60.56249     43.4 1.147e+04 6.626e-10
 60.58807     45.1 1.144e+04 7.548e-10
 60.59818     45.0 1.149e+04 6.893e-10
 60.61337     46.3 1.153e+04 6.498e-10
 60.63379     46.6 1.164e+04 3.704e-10
 60.65416     47.3 1.177e+04 3.218e-10
 60.67459     46.0 1.057e+04 2.056e-10
 60.69508     46.3 1.041e+04 1.970e-10
 60.72582     47.7 1.026e+04 1.957e-10
 60.76677     49.2 1.020e+04 1.926e-10
 60.79695     50.7 1.027e+04 1.972e-10
 60.81123     50.0 1.022e+04 1.995e-10
 60.82189     50.2 1.018e+04 1.921e-10
 60.84848     51.6 1.034e+04 2.123e-10
 60.88933     52.8 1.052e+04 2.504e-10
 60.92934     54.0 1.064e+04 3.112e-10
 60.94977     53.0 1.087e+04 4.970e-10
 60.97104     54.6 1.093e+04 5.741e-10
 61.01190     56.4 1.101e+04 6.410e-10
 61.05275     58.1 1.111e+04 6.905e-10
 61.08215     59.7 1.118e+04 7.198e-10
 61.10258     59.1 1.128e+04 7.769e-10
 61.13446     60.8 1.136e+04 8.351e-10
 61.17531     62.6 1.147e+04 9.399e-10
 61.19768     64.4 1.159e+04 1.058e-09
 61.21647     64.9 1.183e+04 1.224e-09
 61.23496     64.4 1.155e+04 9.554e-10
 61.25702     66.2 1.172e+04 1.089e-09
 61.29788     67.9 1.175e+04 1.106e-09
 61.33873     69.5 1.167e+04 1.061e-09
 61.36735     71.4 1.140e+04 9.039e-10
 61.38777     71.0 1.080e+04 5.415e-10
 61.42044     72.9 1.057e+04 4.439e-10
 61.46130     75.0 1.032e+04 3.546e-10
 61.49973     77.1 1.012e+04 2.791e-10
 61.52016     77.1 1.005e+04 2.941e-10
 61.54301     79.4 1.000e+04 2.730e-10
 61.57346     81.7 9.976e+03 2.593e-10
 61.59389     81.7 1.037e+04 4.217e-10
 61.62472     84.1 1.031e+04 4.062e-10
 61.65254     86.6 1.024e+04 3.859e-10
 61.67297     87.0 1.059e+04 6.310e-10
 61.70643     89.6 1.052e+04 6.018e-10
 61.74728     92.2 1.041e+04 5.399e-10
 61.78493     94.7 1.023e+04 4.595e-10
 61.80535     95.0 1.048e+04 6.137e-10
 61.82899     97.6 1.029e+04 5.174e-10
 61.86984    100.1 1.008e+04 4.195e-10
 61.91070    102.7 9.871e+03 3.355e-10
 61.93774    105.3 9.688e+03 2.737e-10
 61.95586    105.4 9.781e+03 3.404e-10
 61.96968    105.5 9.670e+03 2.925e-10
 61.99241    108.2 9.570e+03 2.760e-10
 62.03326    110.9 9.522e+03 2.687e-10
 62.07012    113.6 9.502e+03 2.658e-10
 62.09055    113.9 9.567e+03 2.895e-10
 62.11497    116.6 9.551e+03 2.862e-10
 62.15583    119.2 9.529e+03 2.822e-10
 62.19668    121.9 9.497e+03 2.746e-10
 62.22293    124.6 9.448e+03 2.623e-10
 62.24336    124.9 9.319e+03 2.427e-10
 62.27839    127.5 9.302e+03 2.359e-10
 62.31925    130.2 9.301e+03 2.258e-10
 62.34546    132.8 9.287e+03 2.136e-10
 62.36111    133.0 9.314e+03 2.080e-10
 62.37574    133.2 9.117e+03 1.806e-10
 62.40096    135.8 9.129e+03 1.808e-10
 62.44181    138.3 9.148e+03 1.812e-10
 62.48267    140.9 9.166e+03 1.818e-10
 62.50813    143.4 9.184e+03 1.833e-10
 62.52856    143.7 9.100e+03 1.672e-10
 62.56437    146.0 9.159e+03 1.729e-10
 62.60523    148.3 9.281e+03 1.792e-10
 62.64051    150.6 9.357e+03 1.904e-10
 62.66094    150.5 9.337e+03 1.621e-10
 62.68694    152.8 9.351e+03 1.726e-10
 62.72125    155.1 9.361e+03 1.831e-10
 62.74167    155.0 9.623e+03 2.458e-10
 62.76865    157.3 9.691e+03 2.618e-10
 62.79332    159.6 9.767e+03 2.810e-10
 62.81375    159.4 9.716e+03 2.645e-10
 62.85036    161.7 9.794e+03 2.770e-10
 62.89121    164.0 9.874e+03 2.869e-10
 62.92571    166.2 9.953e+03 2.920e-10
 62.94614    165.9 9.666e+03 2.080e-10
 62.97292    168.1 9.643e+03 1.958e-10
 63.01378    170.2 9.610e+03 1.923e-10
 63.05463    172.4 9.608e+03 1.926e-10
 63.07852    174.6 9.630e+03 1.976e-10
 63.09895    174.7 9.416e+03 1.528e-10
 63.11746    176.9 9.478e+03 1.638e-10
 63.13789    176.9 9.594e+03 1.773e-10
 63.17719    179.1 9.735e+03 1.972e-10
 63.21090    181.4 9.945e+03 2.269e-10
 63.23133    181.4 9.636e+03 1.578e-10
 63.25890    183.5 9.798e+03 1.791e-10
 63.29976    185.4 1.002e+04 2.082e-10
 63.34061    187.1 1.030e+04 2.445e-10
 63.36372    188.5 1.055e+04 2.820e-10
 63.38414    188.5 1.031e+04 2.526e-10
 63.42232    189.7 1.057e+04 2.922e-10
 63.46318    190.5 1.075e+04 3.270e-10
 63.49315    191.0 1.080e+04 3.441e-10
 63.50564    191.7 1.096e+04 3.535e-10
 63.51653    192.1 1.091e+04 3.523e-10
 63.54489    192.8 1.099e+04 3.737e-10
 63.57241    193.4 1.101e+04 3.857e-10
 63.58252    193.4 1.098e+04 3.896e-10
 63.59576    194.1 1.097e+04 4.022e-10
 63.61619    194.7 1.098e+04 4.080e-10
 63.63661    195.1 1.098e+04 4.094e-10
 63.64872    195.4 1.099e+04 4.117e-10
 63.65893    195.2 1.091e+04 4.525e-10
 63.67747    195.2 1.096e+04 4.675e-10
 63.69116    195.1 1.106e+04 5.247e-10
 63.70137    195.5 1.111e+04 5.129e-10
 63.71491    195.2 1.134e+04 6.454e-10
 63.72512    194.6 1.190e+04 7.925e-10
 63.73875    193.8 1.276e+04 1.240e-09
 63.75918    192.9 1.385e+04 2.094e-09
 63.77961    191.8 1.545e+04 3.679e-09
 63.79131    189.8 1.750e+04 6.692e-09
 63.79637    190.9 1.661e+04 5.576e-09
 63.80504    189.8 1.773e+04 7.280e-09
 63.81526    188.4 1.898e+04 9.438e-09
 63.82431    186.7 2.018e+04 1.187e-08
 63.82942    187.0 2.079e+04 1.399e-08
 63.83568    185.3 2.205e+04 1.749e-08
 63.84590    183.2 2.324e+04 2.122e-08
 63.85611    180.5 2.429e+04 2.449e-08
 63.86251    177.1 2.503e+04 2.513e-08
 63.86762    178.2 2.695e+04 4.358e-08
 63.87654    173.6 2.747e+04 4.378e-08
 63.88406    168.1 2.731e+04 4.219e-08
 63.88917    170.0 2.775e+04 3.377e-08
 63.89561    164.1 2.661e+04 3.077e-08
 63.90072    163.4 2.867e+04 7.624e-08
 63.90718    157.5 2.697e+04 5.304e-08
 63.91739    153.5 2.467e+04 3.141e-08
 63.92761    150.4 2.283e+04 1.748e-08
 63.93386    147.6 1.999e+04 1.201e-08
 63.94413    145.4 2.332e+04 5.880e-09
 63.96345    141.9 1.721e+04 3.490e-09
 63.98388    140.8 1.535e+04 2.736e-09
 64.00010    140.8 1.454e+04 2.212e-09
 64.01032    138.0 1.248e+04 1.036e-09
 64.02473    139.5 1.228e+04 9.563e-10
 64.04516    140.6 1.214e+04 8.936e-10
 64.06559    142.0 1.206e+04 8.447e-10
 64.07651    143.2 1.187e+04 7.783e-10
 64.08682    141.9 1.152e+04 6.937e-10
 64.10654    142.9 1.138e+04 6.680e-10
 64.12687    143.6 1.130e+04 6.435e-10
 64.14270    144.4 1.115e+04 5.994e-10
 64.15292    144.1 1.105e+04 5.523e-10
 64.16773    144.6 1.096e+04 5.344e-10
 64.18815    145.4 1.087e+04 5.121e-10
 64.20858    146.0 1.083e+04 5.000e-10
 64.21920    147.7 1.073e+04 4.644e-10
 64.22942    146.4 1.063e+04 4.911e-10
 64.24944    147.3 1.059e+04 5.004e-10
 64.26505    148.4 1.058e+04 5.141e-10
 64.27526    148.2 1.060e+04 5.224e-10
 64.28530    149.4 1.060e+04 5.341e-10
 64.29551    148.9 1.077e+04 5.808e-10
 64.31072    150.1 1.081e+04 6.132e-10
 64.33114    151.4 1.084e+04 6.444e-10
 64.35149    152.7 1.085e+04 6.713e-10
 64.37192    153.6 1.095e+04 7.219e-10
 64.39243    155.1 1.096e+04 7.435e-10
 64.41285    156.5 1.096e+04 7.590e-10
 64.42790    157.9 1.095e+04 7.688e-10
 64.43811    157.4 1.087e+04 6.953e-10
 64.45294    158.7 1.086e+04 7.125e-10
 64.46315    158.6 1.096e+04 7.833e-10
 64.47414    160.1 1.099e+04 8.125e-10
 64.49409    161.6 1.108e+04 8.525e-10
 64.50430    160.8 1.079e+04 6.362e-10
 64.51499    162.2 1.090e+04 6.923e-10
 64.53542    163.4 1.103e+04 7.502e-10
 64.55585    164.7 1.117e+04 8.079e-10
 64.57049    166.1 1.132e+04 8.694e-10
 64.58071    164.9 1.108e+04 6.968e-10
 64.59670    166.0 1.127e+04 7.771e-10
 64.61713    166.9 1.148e+04 8.729e-10
 64.63669    167.8 1.171e+04 9.948e-10
 64.64690    166.2 1.151e+04 9.689e-10
 64.65105    166.9 1.175e+04 1.143e-09
 64.66126    166.7 1.207e+04 1.434e-09
 64.67841    167.4 1.235e+04 1.720e-09
 64.69884    168.2 1.261e+04 2.080e-09
 64.71309    169.0 1.288e+04 2.464e-09
 64.72331    167.9 1.253e+04 2.209e-09
 64.73969    168.7 1.271e+04 2.320e-09
 64.76012    169.3 1.273e+04 2.294e-09
 64.77928    169.6 1.272e+04 2.187e-09
 64.78950    168.2 1.197e+04 1.537e-09
 64.80097    168.2 1.174e+04 1.332e-09
 64.82140    167.9 1.141e+04 1.102e-09
 64.83894    167.4 1.100e+04 8.845e-10
 64.84915    167.0 1.069e+04 7.484e-10
 64.85569    166.3 1.024e+04 6.027e-10
 64.86590    164.9 9.765e+03 4.493e-10
 64.88268    164.4 9.552e+03 4.028e-10
 64.90311    164.0 9.485e+03 3.956e-10
 64.92188    163.8 9.482e+03 3.958e-10
 64.93210    162.9 9.232e+03 3.240e-10
 64.94397    162.8 9.243e+03 3.276e-10
 64.96439    162.8 9.290e+03 3.412e-10
 64.98482    162.8 9.394e+03 3.662e-10
 64.99829    162.8 9.570e+03 4.104e-10
 65.00850    162.5 9.394e+03 3.622e-10
 65.02567    162.5 9.549e+03 4.021e-10
 65.03705    162.5 9.769e+03 4.624e-10
 65.04726    162.6 9.666e+03 4.416e-10
 65.06448    162.5 9.892e+03 5.006e-10
 65.07469    162.6 9.842e+03 4.837e-10
 65.08696    162.3 9.983e+03 5.199e-10
 65.10738    162.0 9.991e+03 5.203e-10
 65.12781    161.7 9.964e+03 5.123e-10
 65.14089    161.7 9.902e+03 4.941e-10
 65.15110    161.8 9.910e+03 5.052e-10
 65.16867    161.9 9.817e+03 4.771e-10
 65.18909    162.0 9.724e+03 4.488e-10
 65.20708    162.1 9.638e+03 4.227e-10
 65.22760    162.2 9.581e+03 3.948e-10
 65.26078    162.9 9.522e+03 3.823e-10
 65.28358    163.9 9.514e+03 3.882e-10
 65.29370    163.7 9.477e+03 3.750e-10
 65.31166    164.6 9.515e+03 3.832e-10
 65.33208    165.3 9.658e+03 4.147e-10
 65.34968    166.0 9.874e+03 4.648e-10
 65.35989    165.9 9.812e+03 4.495e-10
 65.37294    166.5 1.010e+04 5.219e-10
 65.39337    166.8 1.044e+04 6.190e-10
 65.41283    167.0 1.082e+04 7.424e-10
 65.42305    167.4 1.099e+04 7.538e-10
 65.42608    167.5 1.162e+04 9.369e-10
 65.43630    166.8 1.166e+04 9.641e-10
 65.45465    166.6 1.234e+04 1.237e-09
 65.47508    166.4 1.301e+04 1.599e-09
 65.49227    166.2 1.363e+04 2.066e-09
 65.50249    165.3 1.351e+04 2.156e-09
 65.51593    165.0 1.401e+04 2.624e-09
 65.53636    164.6 1.442e+04 3.035e-09
 65.55679    164.0 1.487e+04 3.259e-09
 65.56868    163.3 1.528e+04 3.227e-09
 65.57889    162.7 1.475e+04 2.767e-09
 65.59764    161.8 1.498e+04 2.655e-09
 65.61094    160.7 1.520e+04 2.446e-09
 65.62115    160.2 1.723e+04 4.776e-09
 65.63487    159.0 1.754e+04 4.728e-09
 65.64509    158.3 1.633e+04 3.770e-09
 65.65892    156.9 1.640e+04 3.678e-09
 65.67935    155.3 1.631e+04 3.370e-09
 65.69978    153.8 1.599e+04 2.829e-09
 65.71128    152.2 1.548e+04 2.153e-09
 65.72149    152.3 1.460e+04 2.031e-09
 65.74063    150.9 1.418e+04 1.451e-09
 65.76106    149.3 1.358e+04 9.746e-10
 65.77747    147.5 1.283e+04 6.467e-10
 65.78768    148.4 1.293e+04 7.107e-10
 65.79883    146.6 1.209e+04 5.117e-10
 65.80904    147.8 1.385e+04 9.697e-10
 65.82234    146.3 1.308e+04 6.460e-10
 65.84277    144.8 1.196e+04 4.947e-10
 65.85388    143.8 1.106e+04 4.703e-10
 65.86409    144.6 1.113e+04 5.013e-10
 65.88362    143.8 1.094e+04 5.058e-10
 65.90405    143.3 1.090e+04 5.331e-10
 65.92007    143.0 1.102e+04 6.243e-10
 65.93028    143.4 1.108e+04 6.390e-10
 65.94491    142.9 1.136e+04 7.968e-10
 65.96533    142.4 1.176e+04 1.068e-09
 65.98576    142.0 1.224e+04 1.465e-09
 65.99647    141.7 1.273e+04 1.973e-09
 65.99744    142.0 1.263e+04 1.921e-09
 66.00715    142.4 1.243e+04 1.747e-09
 66.02661    142.3 1.273e+04 2.115e-09
 66.04704    142.0 1.296e+04 2.241e-09
 66.06267    141.5 1.297e+04 2.229e-09
 66.07288    141.9 1.269e+04 1.970e-09
 66.08790    141.3 1.258e+04 1.817e-09
 66.10832    140.7 1.235e+04 1.563e-09
 66.12875    140.0 1.207e+04 1.296e-09
 66.13907    139.1 1.179e+04 1.075e-09
 66.14928    139.7 1.122e+04 8.201e-10
 66.16961    138.8 1.098e+04 7.019e-10
 66.18483    138.2 1.083e+04 6.420e-10
 66.19504    138.3 1.069e+04 6.076e-10
 66.20526    137.7 1.063e+04 5.942e-10
 66.21548    138.5 1.034e+04 5.103e-10
 66.23089    138.2 1.033e+04 5.108e-10
 66.25132    138.3 1.033e+04 5.107e-10
 66.27146    138.4 1.039e+04 5.209e-10
 66.28167    139.0 1.036e+04 4.943e-10
 66.29217    139.2 1.048e+04 5.384e-10
 66.31260    139.5 1.044e+04 5.657e-10
 66.33302    139.9 1.040e+04 5.669e-10
 66.34786    140.4 1.031e+04 5.612e-10
 66.35807    141.0 1.041e+04 6.032e-10
 66.37272    141.6 1.030e+04 5.934e-10
 66.38294    141.2 1.053e+04 7.466e-10
 66.39431    141.9 1.038e+04 6.921e-10
 66.41405    142.6 1.024e+04 6.378e-10
 66.42427    143.2 1.035e+04 6.705e-10
 66.43516    143.8 1.024e+04 6.144e-10
 66.45559    144.4 1.017e+04 5.775e-10
 66.47602    145.0 1.015e+04 5.720e-10
 66.49046    145.6 1.016e+04 5.743e-10
 66.50067    146.1 1.024e+04 5.814e-10
 66.51687    146.7 1.024e+04 5.877e-10
 66.53730    147.3 1.029e+04 6.121e-10
 66.55665    147.9 1.038e+04 6.509e-10
 66.56686    148.4 1.039e+04 6.509e-10
 66.57083    149.1 1.049e+04 6.972e-10
 66.58104    148.6 1.028e+04 6.058e-10
 66.59858    149.3 1.041e+04 6.317e-10
 66.61901    149.9 1.055e+04 6.601e-10
 66.63306    150.4 1.071e+04 6.947e-10
 66.64327    151.0 1.068e+04 6.787e-10
 66.65986    151.6 1.084e+04 7.110e-10
 66.68029    152.1 1.102e+04 7.577e-10
 66.69925    152.5 1.120e+04 8.248e-10
 66.70946    153.3 1.117e+04 7.930e-10
 66.72114    153.7 1.137e+04 8.776e-10
 66.74157    153.9 1.158e+04 9.980e-10
 66.75872    153.9 1.185e+04 1.184e-09
 66.76894    153.3 1.136e+04 9.801e-10
 66.77565    153.3 1.186e+04 1.284e-09
 66.78587    154.5 1.166e+04 1.136e-09
 66.80285    154.5 1.231e+04 1.571e-09
 66.82328    154.2 1.324e+04 2.335e-09
 66.84185    153.9 1.445e+04 3.604e-09
 66.85206    154.9 1.449e+04 3.460e-09
 66.86414    154.3 1.608e+04 5.604e-09
 66.88456    153.3 1.761e+04 8.574e-09
 66.90499    151.9 1.875e+04 1.157e-08
 66.91825    150.2 1.935e+04 1.352e-08
 66.92847    151.3 2.042e+04 1.664e-08
 66.94585    149.4 2.053e+04 1.714e-08
 66.95641    148.2 2.037e+04 1.685e-08
 66.95713    148.3 2.061e+04 1.769e-08
 66.96184    149.8 2.154e+04 1.728e-08
 66.97128    148.6 2.168e+04 1.841e-08
 66.98150    147.2 2.181e+04 1.989e-08
 66.98945    145.4 2.197e+04 2.298e-08
 66.99456    144.5 2.398e+04 3.099e-08
 67.00192    142.5 2.343e+04 3.994e-08
 67.01214    140.8 2.278e+04 5.655e-08
 67.02235    139.6 2.218e+04 9.038e-08
 67.02766    139.2 2.170e+04 1.604e-07
 67.03276    138.8 2.193e+04 2.198e-07
 67.04278    138.5 2.171e+04 3.568e-07
 67.05068    137.2 2.175e+04 4.863e-07
 67.05578    138.8 2.082e+04 1.477e-06
 67.06075    134.6 2.083e+04 1.729e-06
 67.06586    131.9 2.155e+04 9.398e-07
 67.07342    129.6 2.179e+04 6.681e-07
 67.08363    129.3 2.238e+04 3.507e-07
 67.09385    129.2 2.356e+04 1.515e-07
 67.10406    127.2 2.759e+04 2.541e-08
 67.11427    125.7 2.854e+04 1.366e-08
 67.12449    124.2 2.853e+04 8.775e-09
 67.13205    122.9 2.799e+04 6.057e-09
 67.13721    122.6 2.633e+04 4.087e-09
 67.14472    120.5 2.422e+04 1.992e-09
 67.15493    122.6 2.294e+04 7.226e-09
 67.17055    121.0 2.263e+04 3.898e-09
 67.19097    119.4 2.218e+04 2.204e-09
 67.20345    118.2 2.062e+04 1.459e-09
 67.21366    117.9 1.754e+04 1.047e-09
 67.23183    117.2 1.406e+04 1.082e-09
 67.25226    117.1 1.242e+04 1.143e-09
 67.26964    117.2 1.205e+04 1.187e-09
 67.27985    117.4 1.206e+04 1.360e-09
 67.29311    117.9 1.237e+04 1.527e-09
 67.31354    118.4 1.290e+04 1.695e-09
 67.33261    118.8 1.354e+04 1.876e-09
 67.34283    115.6 1.524e+04 2.320e-09
 67.34605    116.0 1.574e+04 2.717e-09
 67.35626    115.1 1.734e+04 4.996e-09
 67.37482    115.8 1.721e+04 5.681e-09
 67.39525    116.7 1.705e+04 6.128e-09
 67.41224    117.8 1.703e+04 6.511e-09
 67.42245    117.7 1.798e+04 9.710e-09
 67.43610    119.2 1.792e+04 1.006e-08
 67.45039    119.7 1.788e+04 9.914e-09
 67.45545    119.6 1.800e+04 1.050e-08
 67.46154    119.9 1.810e+04 1.085e-08
 67.47175    120.2 1.818e+04 1.099e-08
 67.48197    120.6 1.816e+04 1.086e-08
 67.48855    121.0 1.816e+04 1.057e-08
 67.49365    121.3 1.821e+04 9.763e-09
 67.50239    121.6 1.814e+04 9.008e-09
 67.51261    121.7 1.807e+04 8.238e-09
 67.52164    121.6 1.793e+04 7.421e-09
 67.52675    121.2 1.747e+04 5.727e-09
 67.53062    120.7 1.698e+04 4.935e-09
 67.54088    118.1 1.420e+04 3.181e-09
 67.55484    117.1 1.365e+04 2.754e-09
 67.56505    116.2 1.282e+04 1.919e-09
 67.57909    114.3 1.276e+04 1.808e-09
 67.59952    111.8 1.291e+04 1.810e-09
 67.61995    108.9 1.295e+04 1.878e-09
 67.63124    105.1 1.350e+04 2.243e-09
 67.64146    104.5 1.236e+04 1.667e-09
 67.66080    100.0 1.440e+04 3.173e-09
 67.68123     95.8 1.689e+04 6.880e-09
 67.69743     93.2 1.850e+04 1.305e-08
 67.70765     92.8 1.884e+04 1.421e-08
 67.71693     92.6 1.937e+04 1.923e-08
 67.72362     92.3 1.985e+04 2.418e-08
 67.72873     93.4 1.990e+04 2.279e-08
 67.73554     92.9 2.047e+04 3.025e-08
 67.74065     93.0 2.087e+04 3.728e-08
 67.74752     92.4 2.122e+04 4.075e-08
 67.75773     91.6 2.108e+04 3.805e-08
 67.76795     91.1 2.067e+04 3.148e-08
 67.77379     91.2 1.963e+04 1.924e-08
 67.78405     91.8 1.979e+04 2.133e-08
 67.80379     91.7 1.810e+04 9.793e-09
 67.82422     90.6 1.575e+04 3.536e-09
 67.84003     87.9 1.269e+04 1.340e-09
 67.85025     89.0 1.366e+04 1.615e-09
 67.86508     87.1 1.128e+04 8.463e-10
 67.88550     87.3 1.104e+04 7.376e-10
 67.90593     88.1 1.093e+04 6.815e-10
 67.91644     89.4 1.081e+04 6.295e-10
 67.91701     89.9 1.095e+04 6.578e-10
 67.92693     90.1 1.117e+04 6.593e-10
 67.95710     92.1 1.084e+04 5.448e-10
 67.99805     94.0 1.047e+04 4.043e-10
 68.03880     95.7 1.008e+04 2.889e-10
 68.07966     98.7 9.857e+03 2.226e-10
 68.10481    100.4 9.677e+03 2.069e-10
 68.12523     99.9 9.493e+03 1.701e-10
 68.16147    101.7 9.510e+03 1.728e-10
 68.19161    103.7 9.651e+03 1.924e-10
 68.21204    104.4 9.947e+03 2.208e-10
 68.24318    105.9 1.016e+04 2.686e-10
 68.26792    106.3 1.021e+04 2.951e-10
 68.27804    106.4 1.023e+04 3.139e-10
 68.29250    106.8 1.027e+04 3.794e-10
 68.30272    106.7 1.022e+04 3.396e-10
 68.31448    107.2 1.030e+04 4.076e-10
 68.33402    107.8 1.047e+04 5.067e-10
 68.34423    108.1 1.053e+04 5.449e-10
 68.35533    108.3 1.067e+04 6.163e-10
 68.37576    108.2 1.081e+04 6.774e-10
 68.39619    107.9 1.100e+04 7.498e-10
 68.41042    106.9 1.134e+04 8.737e-10
 68.42064    107.1 1.091e+04 7.541e-10
 68.43704    106.0 1.116e+04 8.792e-10
 68.45747    104.5 1.169e+04 1.113e-09
 68.47661    103.0 1.242e+04 1.489e-09
 68.48683    104.2 1.160e+04 1.144e-09
 68.49061    102.9 1.222e+04 1.443e-09
 68.50082    103.5 1.152e+04 1.082e-09
 68.51875    102.4 1.198e+04 1.284e-09
 68.53918    101.2 1.237e+04 1.494e-09
 68.55302    100.2 1.262e+04 1.713e-09
 68.56323    101.3 1.206e+04 1.327e-09
 68.58003    100.2 1.236e+04 1.575e-09
 68.60046     99.2 1.261e+04 1.920e-09
 68.61921     98.5 1.289e+04 2.380e-09
 68.62943     99.3 1.279e+04 2.173e-09
 68.64132     98.6 1.327e+04 2.899e-09
 68.66174     98.3 1.378e+04 3.796e-09
 68.67850     98.2 1.423e+04 4.632e-09
 68.68872     98.3 1.375e+04 3.627e-09
 68.69562     98.2 1.406e+04 3.933e-09
 68.70583     98.8 1.451e+04 4.616e-09
 68.72302     98.4 1.456e+04 4.620e-09
 68.74345     98.0 1.448e+04 4.455e-09
 68.76181     97.8 1.415e+04 3.895e-09
 68.77202     98.3 1.458e+04 4.385e-09
 68.78431     97.9 1.405e+04 3.599e-09
 68.80473     97.5 1.339e+04 2.832e-09
 68.82516     97.1 1.271e+04 2.221e-09
 68.85590     96.8 1.207e+04 1.660e-09
 68.87681     96.2 1.111e+04 1.078e-09
 68.89477     96.4 1.169e+04 1.495e-09
 68.91482     97.4 1.174e+04 1.539e-09
 68.93771     97.5 1.151e+04 1.376e-09
 68.97856     97.6 1.113e+04 1.123e-09
 69.01942     97.6 1.056e+04 8.055e-10
 69.04720     97.5 9.927e+03 5.605e-10
 69.06763     98.9 1.008e+04 6.202e-10
 69.10113     99.0 9.865e+03 5.572e-10
 69.14198     99.4 9.892e+03 5.645e-10
 69.17959     99.7 1.003e+04 6.048e-10
 69.19992    100.7 1.038e+04 7.382e-10
 69.21328    100.6 1.054e+04 7.845e-10
 69.23371    100.6 1.063e+04 8.138e-10
 69.25240    100.5 1.070e+04 8.327e-10
 69.26261    100.6 1.074e+04 8.565e-10
 69.26601    100.3 1.075e+04 8.523e-10
 69.27622    100.6 1.074e+04 8.530e-10
 69.29499    100.3 1.072e+04 8.322e-10
 69.31542    100.1 1.064e+04 7.906e-10
 69.33220     99.8 1.056e+04 7.455e-10
 69.34242    100.6 1.065e+04 7.596e-10
 69.35627    100.2 1.067e+04 7.522e-10
 69.37670     99.1 1.079e+04 7.735e-10
 69.39713     97.1 1.131e+04 8.913e-10
 69.40861     94.2 1.227e+04 1.247e-09
 69.41882     92.8 1.314e+04 1.730e-09
 69.43798     90.5 1.388e+04 2.770e-09
 69.45050     89.2 1.405e+04 3.340e-09
 69.46072     89.1 1.376e+04 3.103e-09
 69.47480     87.8 1.368e+04 3.016e-09
 69.48501     88.4 1.414e+04 3.781e-09
 69.49926     87.7 1.357e+04 2.763e-09
 69.51969     86.4 1.270e+04 1.552e-09
 69.54012     83.8 1.158e+04 7.819e-10
 69.55121     80.2 1.038e+04 4.381e-10
 69.56142     78.8 9.943e+03 3.460e-10
 69.58097     76.0 9.367e+03 2.998e-10
 69.60140     75.6 9.266e+03 2.942e-10
 69.61750     74.9 9.320e+03 3.077e-10
 69.63416     74.0 9.380e+03 3.281e-10
 69.64880     74.2 9.315e+03 3.195e-10
 69.67309     73.7 9.394e+03 3.534e-10
 69.71395     73.4 9.511e+03 3.838e-10
 69.74998     73.1 9.522e+03 3.838e-10
 69.77040     72.5 9.861e+03 4.855e-10
 69.79566     72.4 9.794e+03 4.458e-10
 69.83651     72.4 9.545e+03 3.451e-10
 69.87737     72.6 9.169e+03 2.360e-10
 69.90279     72.6 8.795e+03 1.582e-10
 69.92322     72.1 9.164e+03 2.053e-10
 69.95907     72.1 8.844e+03 1.462e-10
 69.99993     72.5 8.778e+03 1.403e-10
 70.02459     73.2 8.792e+03 1.440e-10
 70.03940     73.8 8.893e+03 1.864e-10
 70.05560     73.4 9.165e+03 2.390e-10
 70.08164     74.2 9.264e+03 2.604e-10
 70.12249     75.0 9.504e+03 3.062e-10
 70.16335     75.7 9.735e+03 3.518e-10
 70.18798     76.1 9.789e+03 3.535e-10
 70.20841     75.8 9.737e+03 3.407e-10
 70.24506     76.2 9.723e+03 3.312e-10
 70.28591     76.4 9.652e+03 3.068e-10
 70.32037     76.3 9.572e+03 2.865e-10
 70.34080     76.2 9.561e+03 2.834e-10
 70.36762     76.0 9.557e+03 2.843e-10
 70.40037     75.7 9.582e+03 2.975e-10
 70.42080     76.1 9.657e+03 3.336e-10
 70.44933     75.8 9.658e+03 3.433e-10
 70.47318     75.4 9.654e+03 3.552e-10
 70.49361     74.8 9.667e+03 3.670e-10
 70.53104     74.2 9.637e+03 3.615e-10
 70.57190     73.5 9.653e+03 3.562e-10
 70.60556     72.6 9.712e+03 3.605e-10
 70.62599     70.7 9.969e+03 4.144e-10
 70.65360     69.4 1.016e+04 4.576e-10
 70.69446     68.5 1.034e+04 5.110e-10
 70.73531     67.4 1.084e+04 6.264e-10
 70.75838     66.3 1.147e+04 8.270e-10
 70.77879     63.0 1.209e+04 1.201e-09
 70.80670     62.9 1.308e+04 2.072e-09
 70.82437     62.7 1.332e+04 2.519e-09
 70.83459     61.5 1.303e+04 2.135e-09
 70.84747     61.5 1.288e+04 1.994e-09
 70.86790     61.4 1.264e+04 1.691e-09
 70.88832     61.2 1.229e+04 1.304e-09
 70.90078     60.5 1.185e+04 9.149e-10
 70.91099     58.6 1.123e+04 6.764e-10
 70.92918     57.5 1.083e+04 5.012e-10
 70.94961     56.1 1.041e+04 3.897e-10
 70.96697     54.9 1.008e+04 3.361e-10
 70.97718     53.6 9.919e+03 3.125e-10
 70.98428     53.2 9.768e+03 3.045e-10
 70.99450     53.5 9.750e+03 3.010e-10
 71.02120     53.7 9.773e+03 3.098e-10
 71.04357     53.6 9.755e+03 3.158e-10
 71.06400     52.0 9.485e+03 2.801e-10
 71.10301     51.9 9.412e+03 2.797e-10
 71.14386     52.1 9.319e+03 2.746e-10
 71.17237     52.4 9.174e+03 2.627e-10
 71.18404     53.4 8.875e+03 2.048e-10
 71.19638     52.0 8.615e+03 1.686e-10
 71.22557     52.6 8.613e+03 1.701e-10
 71.26642     53.3 8.639e+03 1.732e-10
 71.30728     54.1 8.657e+03 1.698e-10
 71.32877     54.9 8.652e+03 1.601e-10
 71.34919     54.2 8.792e+03 1.971e-10
 71.38899     55.1 8.873e+03 2.115e-10
 71.42984     55.9 8.949e+03 2.307e-10
 71.46115     56.7 9.038e+03 2.614e-10
 71.48158     56.4 9.297e+03 3.649e-10
 71.51155     57.4 9.401e+03 4.092e-10
 71.54816     58.4 9.497e+03 4.528e-10
 71.56858     58.6 9.764e+03 5.347e-10
 71.59326     59.5 9.738e+03 5.254e-10
 71.61396     60.4 9.668e+03 4.970e-10
 71.63439     60.4 9.847e+03 5.726e-10
 71.67497     61.5 9.738e+03 5.218e-10
 71.71583     62.5 9.630e+03 4.772e-10
 71.74635     63.2 9.577e+03 4.508e-10
 71.76677     63.3 9.658e+03 4.861e-10
 71.79754     64.0 9.636e+03 4.704e-10
 71.82265     64.3 9.585e+03 4.552e-10
 71.83277     64.4 9.607e+03 4.607e-10
 71.84841     64.6 9.615e+03 4.605e-10
 71.86884     64.8 9.630e+03 4.599e-10
 71.88875     64.8 9.655e+03 4.607e-10
 71.89896     65.0 9.636e+03 4.504e-10
 71.92000     65.1 9.706e+03 4.619e-10
 71.94437     64.8 9.779e+03 4.676e-10
 71.96480     64.9 9.651e+03 4.276e-10
 72.00181     64.4 9.668e+03 4.237e-10
 72.03154     63.9 9.609e+03 3.899e-10
 72.05197     64.5 9.756e+03 4.396e-10
 72.08352     64.0 9.720e+03 4.054e-10
 72.12437     63.7 9.670e+03 3.598e-10
 72.16393     63.4 9.695e+03 3.581e-10
 72.18435     64.1 9.903e+03 4.348e-10
 72.20608     63.3 9.982e+03 4.557e-10
 72.24694     62.5 1.046e+04 6.218e-10
 72.28779     61.6 1.141e+04 1.037e-09
 72.31674     60.2 1.201e+04 1.308e-09
 72.32867     60.7 1.184e+04 1.285e-09
 72.34058     59.6 1.238e+04 1.611e-09
 72.35919     58.7 1.238e+04 1.590e-09
 72.37952     58.0 1.230e+04 1.483e-09
 72.39295     57.2 1.208e+04 1.297e-09
 72.40316     57.4 1.211e+04 1.335e-09
 72.42037     56.2 1.205e+04 1.222e-09
 72.44080     54.7 1.206e+04 1.220e-09
 72.45914     52.9 1.213e+04 1.276e-09
 72.46935     53.2 1.214e+04 1.316e-09
 72.48166     51.9 1.224e+04 1.522e-09
 72.50208     51.3 1.234e+04 1.825e-09
 72.51807     51.3 1.248e+04 1.912e-09
 72.52828     51.3 1.203e+04 1.491e-09
 72.53555     51.1 1.206e+04 1.400e-09
 72.54576     51.4 1.175e+04 1.154e-09
 72.56337     50.8 1.166e+04 9.448e-10
 72.58379     49.5 1.151e+04 7.441e-10
 72.60174     47.8 1.149e+04 6.997e-10
 72.61195     47.7 1.125e+04 6.145e-10
 72.62465     45.5 1.138e+04 6.537e-10
 72.64508     42.7 1.189e+04 8.638e-10
 72.66550     40.1 1.270e+04 1.453e-09
 72.67814     38.7 1.342e+04 2.450e-09
 72.68836     39.4 1.306e+04 2.136e-09
 72.70596     38.6 1.342e+04 2.652e-09
 72.71617     37.8 1.343e+04 2.589e-09
 72.72679     37.0 1.331e+04 2.487e-09
 72.74434     36.6 1.278e+04 2.045e-09
 72.75455     36.8 1.251e+04 1.718e-09
 72.76764     36.4 1.173e+04 1.194e-09
 72.78807     36.1 1.092e+04 7.424e-10
 72.80849     35.7 1.023e+04 4.290e-10
 72.82074     35.0 9.829e+03 2.905e-10
 72.83096     35.3 9.962e+03 3.410e-10
 72.85966     35.4 9.431e+03 1.957e-10
 72.88713     36.4 8.922e+03 1.335e-10
 72.90756     37.8 8.911e+03 1.420e-10
 72.94147     39.4 8.605e+03 1.131e-10
 72.98232     41.4 8.483e+03 1.086e-10
 73.01951     43.6 8.452e+03 1.083e-10
 73.03994     44.5 8.427e+03 1.059e-10
 73.06403     46.8 8.415e+03 1.061e-10
 73.09215     49.1 8.411e+03 1.081e-10
 73.11258     48.5 8.257e+03 8.669e-11
 73.14574     50.9 8.284e+03 9.055e-11
 73.17232     53.4 8.310e+03 9.607e-11
 73.19275     53.6 8.316e+03 9.521e-11
 73.22745     56.3 8.410e+03 1.093e-10
 73.26831     59.6 8.729e+03 1.309e-10
 73.29016     61.4 8.799e+03 1.415e-10
 73.30028     61.4 8.877e+03 1.403e-10
 73.31473     58.5 1.208e+04 1.657e-10
 73.32494     53.3 1.453e+04 3.660e-10
 73.33961     46.3 1.838e+04 1.970e-09
 73.36003     42.1 1.951e+04 7.659e-09
 73.37530     40.9 1.962e+04 1.266e-08
 73.38391     39.5 1.968e+04 2.182e-08
 73.38902     38.8 1.963e+04 3.373e-08
 73.39104     39.0 1.966e+04 5.402e-08
 73.39614     39.5 1.996e+04 5.030e-08
 73.40590     40.1 2.094e+04 6.098e-08
 73.41611     40.0 2.287e+04 5.797e-08
 73.42413     39.0 2.397e+04 5.033e-08
 73.42924     36.2 2.608e+04 2.732e-08
 73.43654     31.6 2.746e+04 1.325e-08
 73.44675     23.6 2.481e+04 5.273e-09
 73.45697     13.7 1.743e+04 2.566e-09
 73.46233      9.0 1.393e+04 2.183e-09
 73.46744      9.4 1.373e+04 1.995e-09
 73.47791      7.2 1.330e+04 1.824e-09
 73.48817      6.7 1.287e+04 1.525e-09
 73.50302      4.3 1.230e+04 1.277e-09
 73.52345      2.8 1.210e+04 1.144e-09
 73.54388      3.8 1.178e+04 9.731e-10
 73.56431      3.5 1.185e+04 8.501e-10
 73.58473      2.9 1.175e+04 6.991e-10
 73.59992      2.2 1.148e+04 5.732e-10
 73.61014      4.4 1.130e+04 5.168e-10
 73.62559      3.8 1.105e+04 4.162e-10
 73.64602      3.3 1.081e+04 3.603e-10
 73.67675      3.7 1.077e+04 3.122e-10
 73.71771      3.9 1.066e+04 2.685e-10
 73.74272      4.7 1.065e+04 2.560e-10
 73.76314      8.1 1.043e+04 2.429e-10
 73.79942      8.7 1.061e+04 2.594e-10
 73.84027      8.8 1.102e+04 3.308e-10
 73.86415      9.2 1.114e+04 5.094e-10
 73.87855     10.2 1.091e+04 4.267e-10
 73.89553     13.3 1.078e+04 3.782e-10
 73.92198     13.6 1.116e+04 6.368e-10
 73.96283     14.2 1.154e+04 8.770e-10
 74.00369     14.4 1.164e+04 8.770e-10
 74.02791     14.1 1.156e+04 7.502e-10
 74.04834     15.8 1.190e+04 9.854e-10
 74.08540     14.7 1.177e+04 8.995e-10
 74.12625     13.4 1.150e+04 7.952e-10
 74.16030     12.8 1.117e+04 6.982e-10
 74.18072     14.2 1.149e+04 9.000e-10
 74.20796     14.0 1.095e+04 6.401e-10
 74.23994     13.1 1.053e+04 4.042e-10
 74.26036     14.0 1.085e+04 4.988e-10
 74.27936     12.9 1.070e+04 3.911e-10
 74.29969     11.5 1.064e+04 3.747e-10
 74.31291     10.2 1.062e+04 3.897e-10
 74.32313     10.5 1.063e+04 3.929e-10
 74.34055      9.5 1.056e+04 4.520e-10
 74.36097      8.9 1.065e+04 5.269e-10
 74.37910      8.7 1.065e+04 5.422e-10
 74.38932      9.0 1.068e+04 5.693e-10
 74.41214      8.3 1.057e+04 5.206e-10
 74.44549      6.6 1.021e+04 3.959e-10
 74.46592      7.5 1.035e+04 4.169e-10
 74.49395      4.4 9.946e+03 3.238e-10
 74.53480      1.7 9.657e+03 3.056e-10
 74.57566     -0.1 9.670e+03 2.943e-10
 74.59821     -1.3 9.828e+03 2.977e-10
 74.61785     -1.2 9.864e+03 2.952e-10
 74.63615     -2.0 9.867e+03 2.740e-10
 74.64705     -3.2 1.019e+04 3.096e-10
 74.66430     -4.9 1.048e+04 3.746e-10
 74.67451     -4.6 1.041e+04 3.631e-10
 74.68781     -6.8 1.095e+04 5.299e-10
 74.70824     -8.4 1.136e+04 8.223e-10
 74.72867     -9.2 1.179e+04 1.277e-09
 74.74071    -10.8 1.325e+04 2.046e-09
 74.75092     -9.2 1.213e+04 1.563e-09
 74.76952    -12.1 1.445e+04 2.468e-09
 74.78995    -16.2 1.684e+04 4.061e-09
 74.80690    -19.0 1.659e+04 5.794e-09
 74.81711    -17.5 1.602e+04 4.218e-09
 74.82385    -18.8 1.532e+04 5.351e-09
 74.83406    -17.9 1.556e+04 5.998e-09
 74.85123    -17.9 1.561e+04 5.979e-09
 74.87166    -17.7 1.547e+04 5.083e-09
 74.88330    -18.9 1.559e+04 4.238e-09
 74.89352    -16.6 1.477e+04 3.530e-09
 74.91251    -18.8 1.478e+04 3.158e-09
 74.93294    -20.7 1.488e+04 3.277e-09
 74.94950    -21.5 1.504e+04 4.012e-09
 74.95971    -20.4 1.433e+04 2.917e-09
 74.97379    -20.8 1.493e+04 4.083e-09
 74.98765    -20.5 1.522e+04 4.294e-09
 74.99271    -20.3 1.504e+04 4.121e-09
 74.99923    -20.4 1.525e+04 4.310e-09
 75.00944    -20.5 1.564e+04 5.188e-09
 75.01675    -20.8 1.619e+04 5.961e-09
 75.02186    -21.0 1.549e+04 4.127e-09
 75.02580    -22.5 1.712e+04 5.503e-09
 75.03091    -20.9 1.589e+04 5.116e-09
 75.04008    -23.0 1.774e+04 6.706e-09
 75.05030    -26.3 2.069e+04 1.041e-08
 75.05890    -28.9 2.270e+04 1.510e-08
 75.06401    -27.4 2.171e+04 1.455e-08
 75.07073    -29.3 2.265e+04 2.047e-08
 75.08094    -30.7 2.248e+04 2.402e-08
 75.09115    -32.6 2.103e+04 2.406e-08
 75.09710    -33.9 1.968e+04 2.074e-08
 75.10221    -32.4 2.040e+04 2.386e-08
 75.11070    -33.8 1.929e+04 1.839e-08
 75.11580    -34.8 1.842e+04 1.432e-08
 75.12179    -35.4 1.837e+04 1.173e-08
 75.13020    -36.2 1.878e+04 8.950e-09
 75.13531    -35.5 1.899e+04 9.690e-09
 75.14222    -38.5 1.844e+04 6.419e-09
 75.15759    -44.1 1.586e+04 3.439e-09
 75.16850    -52.3 1.205e+04 1.404e-09
 75.17871    -50.2 1.285e+04 1.508e-09
 75.19849    -54.2 1.130e+04 9.944e-10
 75.20985    -55.7 1.102e+04 8.681e-10
 75.22006    -56.0 1.099e+04 8.686e-10
 75.23469    -58.0 1.065e+04 7.423e-10
 75.24490    -57.9 1.054e+04 7.822e-10
 75.25978    -59.6 1.020e+04 6.798e-10
 75.28020    -61.0 9.945e+03 6.085e-10
 75.30063    -62.1 9.777e+03 5.576e-10
 75.31110    -62.8 9.664e+03 5.167e-10
 75.32131    -63.0 9.726e+03 4.825e-10
 75.34149    -63.7 9.595e+03 4.547e-10
 75.36191    -64.2 9.506e+03 4.396e-10
 75.37729    -64.7 9.483e+03 4.361e-10
 75.38750    -64.8 9.452e+03 4.353e-10
 75.39774    -65.4 9.532e+03 4.431e-10
 75.40795    -65.9 9.481e+03 4.274e-10
 75.42320    -66.6 9.752e+03 4.790e-10
 75.44348    -67.4 1.009e+04 5.808e-10
 75.45369    -68.5 1.028e+04 6.772e-10
 75.46405    -68.9 1.069e+04 8.864e-10
 75.48448    -69.0 1.109e+04 1.127e-09
 75.50490    -68.8 1.144e+04 1.359e-09
 75.51989    -68.5 1.170e+04 1.541e-09
 75.53010    -68.7 1.174e+04 1.590e-09
 75.54576    -68.6 1.186e+04 1.638e-09
 75.56619    -68.7 1.197e+04 1.665e-09
 75.58563    -69.7 1.260e+04 1.839e-09
 75.59531    -69.2 1.197e+04 1.537e-09
 75.59629    -70.0 1.163e+04 1.305e-09
 75.60704    -72.2 1.236e+04 1.612e-09
 75.62747    -74.5 1.335e+04 2.322e-09
 75.64790    -77.3 1.514e+04 3.544e-09
 75.66248    -81.7 1.758e+04 5.354e-09
 75.67270    -85.6 1.820e+04 5.819e-09
 75.68875    -92.2 1.909e+04 8.438e-09
 75.70918    -98.6 1.884e+04 9.389e-09
 75.72868   -103.4 1.740e+04 9.347e-09
 75.73889   -104.8 1.713e+04 9.450e-09
 75.75003   -106.8 1.579e+04 5.833e-09
 75.77046   -108.9 1.457e+04 2.825e-09
 75.78374   -112.3 1.324e+04 1.236e-09
 75.79395   -113.6 1.379e+04 1.540e-09
 75.80508   -116.9 1.249e+04 8.557e-10
 75.81530   -118.2 1.221e+04 7.975e-10
 75.83174   -118.8 1.189e+04 6.891e-10
 75.85217   -118.9 1.179e+04 6.492e-10
 75.87127   -118.9 1.176e+04 6.297e-10
 75.88149   -119.0 1.178e+04 6.396e-10
 75.89302   -119.1 1.177e+04 6.328e-10
 75.91345   -119.5 1.199e+04 6.860e-10
 75.93388   -120.2 1.235e+04 8.496e-10
 75.94768   -121.0 1.280e+04 1.106e-09
 75.95789   -120.9 1.272e+04 1.073e-09
 75.97163   -121.8 1.318e+04 1.362e-09
 75.98184   -122.1 1.317e+04 1.287e-09
 75.99516   -123.1 1.352e+04 1.565e-09
 76.01387   -124.1 1.365e+04 1.713e-09
 76.02409   -124.6 1.404e+04 2.075e-09
 76.03602   -125.3 1.401e+04 2.103e-09
 76.05644   -125.5 1.357e+04 1.894e-09
 76.07687   -125.5 1.298e+04 1.446e-09
 76.09028   -125.5 1.238e+04 1.045e-09
 76.10049   -125.3 1.241e+04 1.051e-09
 76.11772   -125.4 1.185e+04 7.398e-10
 76.13815   -125.4 1.137e+04 5.462e-10
 76.15647   -124.9 1.102e+04 4.259e-10
 76.16668   -125.1 1.105e+04 4.240e-10
 76.16974   -124.3 1.089e+04 3.630e-10
 76.17995   -125.0 1.096e+04 3.713e-10
 76.19943   -124.3 1.095e+04 3.574e-10
 76.21986   -123.7 1.102e+04 3.602e-10
 76.25060   -123.1 1.110e+04 3.843e-10
 76.28905   -121.3 1.103e+04 3.937e-10
 76.30948   -121.7 1.129e+04 5.281e-10
 76.33241   -120.0 1.124e+04 5.861e-10
 76.37326   -118.4 1.142e+04 6.834e-10
 76.41412   -116.9 1.169e+04 8.344e-10
 76.44186   -115.8 1.190e+04 9.769e-10
 76.46229   -115.6 1.176e+04 9.680e-10
 76.49583   -114.5 1.171e+04 9.836e-10
 76.53550   -113.5 1.157e+04 9.413e-10
 76.55593   -113.9 1.111e+04 6.922e-10
 76.57425   -112.7 1.100e+04 6.234e-10
 76.59467   -112.2 1.085e+04 5.340e-10
 76.61839   -111.1 1.080e+04 5.086e-10
 76.65924   -109.8 1.075e+04 4.812e-10
 76.70010   -108.4 1.068e+04 4.399e-10
 76.72706   -106.8 1.061e+04 3.818e-10
 76.74748   -106.2 1.060e+04 3.829e-10
 76.78181   -104.5 1.045e+04 3.234e-10
 76.82266   -102.9 1.037e+04 2.682e-10
 76.85944   -101.2 1.031e+04 2.167e-10
 76.87987   -100.7 1.024e+04 2.008e-10
 76.90437    -99.0 1.019e+04 1.573e-10
 76.93172    -97.4 1.014e+04 1.265e-10
 76.95214    -97.0 1.027e+04 1.902e-10
 76.98608    -95.4 1.025e+04 1.605e-10
 77.01225    -93.9 1.018e+04 1.353e-10
 77.03268    -93.5 1.013e+04 1.254e-10
 77.06779    -92.1 1.002e+04 1.078e-10
 77.10865    -90.9 9.948e+03 1.004e-10
 77.14464    -89.8 9.809e+03 1.040e-10
 77.16506    -89.5 9.932e+03 1.040e-10
 77.19036    -88.5 9.884e+03 1.151e-10
 77.23121    -87.4 9.881e+03 1.328e-10
 77.27207    -86.3 9.940e+03 1.541e-10
 77.29745    -85.3 9.998e+03 1.694e-10
 77.31246    -85.0 1.025e+04 2.048e-10
 77.32793    -86.1 1.044e+04 2.482e-10
 77.35377    -85.2 1.048e+04 2.338e-10
 77.39463    -84.4 1.042e+04 2.112e-10
 77.42983    -83.6 1.031e+04 1.994e-10
 77.45026    -83.2 1.071e+04 3.133e-10
 77.47634    -82.4 1.069e+04 2.733e-10
 77.51719    -81.7 1.072e+04 2.710e-10
 77.55805    -81.3 1.093e+04 3.573e-10
 77.58264    -81.0 1.117e+04 5.103e-10
 77.60307    -81.8 1.189e+04 1.022e-09
 77.62945    -82.0 1.190e+04 1.146e-09
 77.64864    -81.9 1.202e+04 1.299e-09
 77.65885    -81.9 1.229e+04 1.637e-09
 77.67020    -82.0 1.248e+04 1.792e-09
 77.69063    -83.6 1.336e+04 2.156e-09
 77.70352    -86.0 1.475e+04 2.964e-09
 77.71373    -88.8 1.623e+04 4.907e-09
 77.72505    -90.5 1.702e+04 6.907e-09
 77.73526    -92.5 1.770e+04 9.249e-09
 77.75191    -93.7 1.766e+04 9.949e-09
 77.77234    -94.5 1.694e+04 8.641e-09
 77.79124    -95.2 1.579e+04 5.798e-09
 77.80145    -95.9 1.531e+04 5.206e-09
 77.81319    -96.8 1.398e+04 2.906e-09
 77.83362    -98.0 1.279e+04 1.640e-09
 77.85405    -98.9 1.190e+04 1.026e-09
 77.86764    -99.4 1.130e+04 7.189e-10
 77.87786   -100.5 1.093e+04 5.563e-10
 77.89141   -100.4 1.061e+04 4.445e-10
 77.90163   -101.4 1.037e+04 3.654e-10
 77.91533   -101.2 1.024e+04 3.222e-10
 77.93384   -101.0 1.020e+04 3.132e-10
 77.94405   -101.3 1.014e+04 3.045e-10
 77.96650   -100.3 1.030e+04 3.309e-10
 77.99714   -100.2 1.028e+04 3.439e-10
 78.01024   -100.1 1.029e+04 3.579e-10
 78.02046   -100.9 1.035e+04 3.825e-10
 78.03790   -100.4 1.045e+04 4.229e-10
 78.05832   -100.3 1.047e+04 4.357e-10
 78.07643    -99.8 1.051e+04 4.621e-10
 78.08665   -100.2 1.052e+04 4.741e-10
 78.08952    -99.9 1.050e+04 4.784e-10
 78.09983   -100.3 1.033e+04 3.939e-10
 78.13001    -99.6 1.033e+04 4.158e-10
 78.15304    -98.9 1.039e+04 4.406e-10
 78.17346    -99.4 1.037e+04 4.367e-10
 78.21172    -98.8 1.042e+04 4.244e-10
 78.25258    -98.4 1.035e+04 4.002e-10
 78.28542    -97.9 1.025e+04 3.850e-10
 78.30585    -98.1 1.010e+04 3.343e-10
 78.33429    -97.4 9.991e+03 3.192e-10
 78.37514    -96.5 9.887e+03 3.051e-10
 78.41600    -95.5 9.787e+03 2.803e-10
 78.43823    -94.4 9.694e+03 2.489e-10
 78.45709    -94.0 9.501e+03 1.950e-10
 78.47571    -93.8 9.563e+03 2.172e-10
 78.49771    -92.7 9.576e+03 2.040e-10
 78.53856    -91.7 9.609e+03 1.949e-10
 78.57061    -90.6 9.669e+03 1.906e-10
 78.59104    -90.1 9.512e+03 1.545e-10
 78.62027    -89.2 9.604e+03 1.585e-10
 78.66113    -88.4 9.647e+03 1.588e-10
 78.70198    -87.7 9.691e+03 1.506e-10
 78.72343    -87.0 9.631e+03 1.371e-10
 78.74385    -86.5 9.485e+03 1.216e-10
 78.78369    -85.8 9.456e+03 1.174e-10
 78.82454    -85.5 9.538e+03 1.176e-10
 78.85150    -85.7 9.770e+03 1.413e-10
 78.86234    -86.2 1.022e+04 2.496e-10
 78.87624    -85.4 1.003e+04 2.091e-10
 78.90625    -85.6 1.018e+04 2.899e-10
 78.94711    -85.7 1.037e+04 4.066e-10
 78.98796    -85.8 1.057e+04 5.109e-10
 79.00862    -86.1 1.064e+04 5.424e-10
 79.02905    -85.0 1.059e+04 5.286e-10
 79.06967    -85.8 1.064e+04 5.221e-10
 79.10022    -86.5 1.067e+04 4.593e-10
 79.12055    -87.0 1.074e+04 4.540e-10
 79.14081    -88.7 1.081e+04 4.396e-10
 79.15102    -88.0 1.091e+04 4.980e-10
 79.16140    -89.5 1.115e+04 5.165e-10
 79.18183    -91.4 1.136e+04 5.543e-10
 79.20225    -92.9 1.161e+04 6.450e-10
 79.22719    -94.8 1.172e+04 7.450e-10
 79.24771    -94.4 1.156e+04 7.115e-10
 79.26363    -95.8 1.149e+04 7.421e-10
 79.28341    -96.7 1.150e+04 7.075e-10
 79.29362    -96.0 1.145e+04 6.896e-10
 79.30439    -97.4 1.111e+04 5.142e-10
 79.32482    -98.4 1.072e+04 3.730e-10
 79.35556    -99.2 1.029e+04 2.798e-10
 79.39651   -100.2 9.831e+03 1.999e-10
 79.42620   -100.3 9.666e+03 1.765e-10
 79.44663    -98.7 9.628e+03 1.738e-10
 79.47822    -98.4 9.607e+03 1.720e-10
 79.51907    -97.9 9.668e+03 1.908e-10
 79.55859    -97.4 9.819e+03 2.359e-10
 79.57901    -95.7 9.826e+03 2.330e-10
 79.60078    -95.3 9.932e+03 2.670e-10
 79.62350    -94.9 9.950e+03 2.738e-10
 79.64392    -94.8 9.915e+03 2.834e-10
 79.68249    -94.2 9.774e+03 2.554e-10
 79.71140    -93.7 9.515e+03 1.964e-10
 79.73182    -92.6 9.678e+03 2.647e-10
 79.76420    -92.3 9.507e+03 2.202e-10
 79.80506    -91.9 9.473e+03 2.099e-10
 79.84378    -91.5 9.484e+03 2.136e-10
 79.86421    -90.5 9.645e+03 2.820e-10
 79.88677    -90.1 9.642e+03 2.816e-10
 79.92762    -89.8 9.698e+03 2.956e-10
 79.96848    -89.4 9.736e+03 3.035e-10
 79.99659    -89.1 9.750e+03 3.056e-10
 80.00697    -88.1 9.776e+03 3.291e-10
 80.01971    -88.0 9.604e+03 3.004e-10
 80.05018    -87.6 9.594e+03 2.943e-10
 80.09104    -87.1 9.607e+03 2.723e-10
 80.12898    -86.6 9.589e+03 2.358e-10
 80.14940    -85.8 9.578e+03 2.828e-10
 80.17275    -85.5 9.551e+03 2.588e-10
 80.21360    -85.2 9.550e+03 2.477e-10
 80.25446    -85.0 9.563e+03 2.462e-10
 80.28179    -84.7 9.658e+03 2.507e-10
 80.30222    -83.9 9.752e+03 2.792e-10
 80.33617    -83.8 9.816e+03 2.522e-10
 80.37507    -83.8 9.794e+03 2.054e-10
 80.39549    -83.7 9.768e+03 2.042e-10
 80.41417    -84.1 9.796e+03 1.658e-10
 80.43460    -83.3 9.758e+03 1.546e-10
 80.45873    -84.1 9.772e+03 1.298e-10
 80.49959    -84.9 9.780e+03 1.271e-10
 80.54044    -85.6 9.866e+03 1.408e-10
 80.56698    -86.3 9.918e+03 1.578e-10
 80.58741    -85.8 9.930e+03 1.519e-10
 80.62215    -86.5 9.907e+03 1.568e-10
 80.66301    -87.3 9.720e+03 1.331e-10
 80.69937    -88.2 9.538e+03 1.021e-10
 80.71980    -88.0 9.582e+03 1.124e-10
 80.74471    -89.1 9.499e+03 9.536e-11
 80.77128    -90.2 9.483e+03 9.237e-11
 80.79171    -90.7 9.468e+03 8.934e-11
 80.82642    -92.2 9.516e+03 9.040e-11
 80.85218    -94.9 9.861e+03 1.634e-10
 80.87261    -95.2 9.954e+03 1.780e-10
 80.90813   -100.2 1.240e+04 6.983e-10
 80.93868   -105.5 1.393e+04 2.126e-09
 80.95898   -108.9 1.497e+04 3.918e-09
 80.97940   -109.8 1.492e+04 4.048e-09
 80.99458   -112.9 1.549e+04 4.503e-09
 81.00480   -114.5 1.588e+04 4.542e-09
 81.02029   -118.1 1.595e+04 4.630e-09
 81.04072   -121.5 1.545e+04 4.042e-09
 81.06077   -124.6 1.445e+04 2.988e-09
 81.07099   -125.8 1.431e+04 3.194e-09
 81.08157   -127.4 1.331e+04 2.225e-09
 81.10200   -128.4 1.259e+04 1.363e-09
 81.12243   -129.5 1.201e+04 7.367e-10
 81.13718   -130.7 1.138e+04 3.804e-10
 81.14739   -131.4 1.154e+04 4.191e-10
 81.15708   -132.7 1.080e+04 2.645e-10
 81.16730   -130.2 1.116e+04 3.823e-10
 81.19402   -130.4 1.060e+04 2.860e-10
 81.23497   -130.6 1.006e+04 2.051e-10
 81.26976   -130.2 9.622e+03 1.421e-10
 81.29019   -130.7 9.710e+03 1.895e-10
 81.31668   -130.2 9.625e+03 1.623e-10
 81.35754   -129.7 9.637e+03 1.581e-10
 81.39839   -129.4 9.802e+03 1.681e-10
 81.42257   -129.3 9.998e+03 1.980e-10
 81.44300   -130.2 1.038e+04 3.199e-10
 81.48010   -130.4 1.052e+04 3.751e-10
 81.52095   -130.7 1.056e+04 3.977e-10
 81.54328   -131.0 1.049e+04 3.894e-10
 81.55685   -129.2 1.067e+04 4.700e-10
 81.57538   -130.2 1.126e+04 7.626e-10
 81.60266   -130.4 1.098e+04 6.112e-10
 81.64352   -130.5 1.058e+04 4.195e-10
 81.68437   -130.5 1.023e+04 2.843e-10
 81.70777   -130.2 9.970e+03 2.107e-10
 81.72819   -130.9 1.001e+04 2.302e-10
 81.76608   -130.0 9.879e+03 1.939e-10
 81.80694   -128.8 9.753e+03 1.629e-10
 81.84015   -127.4 9.711e+03 1.377e-10
 81.86058   -127.8 9.752e+03 1.383e-10
 81.88865   -126.5 9.769e+03 1.301e-10
 81.91906   -125.3 9.793e+03 1.293e-10
 81.93949   -124.3 9.712e+03 1.277e-10
 81.97036   -123.1 9.805e+03 1.331e-10
 81.99296   -122.0 9.956e+03 1.545e-10
 82.01339   -122.5 1.011e+04 2.123e-10
 82.05206   -121.3 1.026e+04 2.568e-10
 82.09292   -120.0 1.040e+04 2.918e-10
 82.12535   -118.5 1.046e+04 3.079e-10
 82.14577   -118.9 1.070e+04 4.034e-10
 82.17463   -117.3 1.065e+04 4.052e-10
 82.21548   -115.5 1.064e+04 3.825e-10
 82.25634   -113.8 1.065e+04 3.547e-10
 82.27816   -112.0 1.070e+04 3.246e-10
 82.29624   -112.2 1.086e+04 4.085e-10
 82.31528   -111.5 1.103e+04 5.437e-10
 82.33805   -109.8 1.119e+04 5.791e-10
 82.37890   -108.0 1.134e+04 6.058e-10
 82.41054   -106.4 1.148e+04 6.239e-10
 82.43097   -106.7 1.151e+04 6.640e-10
 82.46061   -105.4 1.185e+04 7.131e-10
 82.50147   -104.5 1.236e+04 9.536e-10
 82.54232   -103.9 1.302e+04 1.467e-09
 82.56326   -103.5 1.361e+04 2.385e-09
 82.57337   -103.6 1.368e+04 2.493e-09
 82.59319   -103.3 1.415e+04 3.376e-09
 82.61362   -102.9 1.469e+04 4.656e-09
 82.62935   -102.4 1.526e+04 6.066e-09
 82.63956   -102.0 1.468e+04 4.371e-09
 82.65448   -101.7 1.502e+04 4.652e-09
 82.67490   -101.6 1.519e+04 4.672e-09
 82.69087   -102.1 1.573e+04 4.099e-09
 82.70108   -100.8 1.584e+04 5.761e-09
 82.70576   -101.7 1.661e+04 4.902e-09
 82.71597   -102.9 1.580e+04 2.822e-09
 82.73619   -105.2 1.623e+04 2.484e-09
 82.75661   -108.4 1.612e+04 2.251e-09
 82.77195   -111.6 1.548e+04 2.271e-09
 82.78216   -113.5 1.524e+04 2.219e-09
 82.79747   -115.4 1.479e+04 2.468e-09
 82.81790   -116.2 1.447e+04 2.528e-09
 82.83814   -116.5 1.379e+04 2.309e-09
 82.84835   -117.1 1.371e+04 2.052e-09
 82.85875   -117.2 1.303e+04 1.440e-09
 82.87876   -117.5 1.249e+04 9.453e-10
 82.88897   -118.3 1.264e+04 9.560e-10
 82.89960   -118.7 1.212e+04 6.702e-10
 82.91455   -118.9 1.172e+04 5.282e-10
 82.92476   -119.5 1.150e+04 4.962e-10
 82.94046   -119.1 1.127e+04 4.344e-10
 82.96089   -118.5 1.115e+04 4.082e-10
 82.98074   -117.9 1.110e+04 3.989e-10
 82.99095   -118.1 1.110e+04 3.969e-10
 83.00174   -117.4 1.108e+04 3.939e-10
 83.02217   -116.8 1.108e+04 3.937e-10
 83.04260   -116.1 1.108e+04 4.107e-10
 83.05714   -115.5 1.111e+04 4.296e-10
 83.06736   -115.6 1.109e+04 4.368e-10
 83.07687   -115.0 1.114e+04 4.612e-10
 83.08708   -114.7 1.097e+04 4.312e-10
 83.10388   -114.0 1.101e+04 4.549e-10
 83.12334   -113.4 1.108e+04 4.853e-10
 83.13355   -113.6 1.105e+04 4.754e-10
 83.14473   -112.9 1.110e+04 5.024e-10
 83.16516   -112.1 1.114e+04 5.311e-10
 83.18559   -111.5 1.117e+04 5.568e-10
 83.19974   -111.1 1.126e+04 5.787e-10
 83.20996   -111.7 1.126e+04 5.454e-10
 83.22644   -112.3 1.181e+04 6.025e-10
 83.24687   -114.6 1.309e+04 8.514e-10
 83.26476   -117.2 1.417e+04 1.539e-09
 83.27361   -116.8 1.406e+04 1.391e-09
 83.27615   -119.2 1.470e+04 2.259e-09
 83.28772   -120.5 1.547e+04 4.250e-09
 83.30815   -121.4 1.617e+04 6.281e-09
 83.32858   -122.9 1.655e+04 7.027e-09
 83.34234   -125.5 1.662e+04 6.792e-09
 83.35255   -126.2 1.650e+04 6.661e-09
 83.36943   -130.0 1.559e+04 4.151e-09
 83.38986   -134.9 1.432e+04 2.692e-09
 83.40853   -139.5 1.365e+04 2.321e-09
 83.41875   -140.1 1.300e+04 1.724e-09
 83.43072   -143.0 1.289e+04 1.707e-09
 83.45114   -145.3 1.279e+04 1.767e-09
 83.46286   -147.0 1.273e+04 1.798e-09
 83.47308   -146.8 1.241e+04 1.675e-09
 83.48494   -148.0 1.213e+04 1.564e-09
 83.49515   -147.9 1.193e+04 1.428e-09
 83.51243   -148.8 1.168e+04 1.321e-09
 83.53285   -149.5 1.138e+04 1.146e-09
 83.55113   -150.1 1.109e+04 9.630e-10
 83.56134   -149.8 1.114e+04 1.045e-09
 83.57371   -150.1 1.091e+04 9.092e-10
 83.59413   -150.4 1.075e+04 8.005e-10
 83.61456   -150.5 1.064e+04 7.149e-10
 83.62754   -150.6 1.055e+04 6.483e-10
 83.63775   -150.2 1.057e+04 7.084e-10
 83.65076   -150.1 1.046e+04 6.486e-10
 83.66097   -150.4 1.034e+04 6.090e-10
 83.67584   -150.2 1.018e+04 5.388e-10
 83.69373   -150.0 1.002e+04 4.757e-10
 83.70394   -149.5 1.002e+04 4.890e-10
 83.71670   -149.3 9.935e+03 4.515e-10
 83.73713   -149.0 9.894e+03 4.309e-10
 83.75755   -148.8 9.886e+03 4.149e-10
 83.77013   -148.5 9.882e+03 4.080e-10
 83.78035   -148.2 9.864e+03 4.138e-10
 83.79841   -147.9 9.874e+03 4.114e-10
 83.81884   -147.7 9.876e+03 4.107e-10
 83.83633   -147.3 9.913e+03 4.160e-10
 83.84593   -146.8 9.936e+03 4.238e-10
 83.85917   -146.8 9.805e+03 3.737e-10
 83.89053   -146.0 9.879e+03 4.024e-10
 83.93138   -145.1 9.954e+03 4.346e-10
 83.96891   -143.9 1.001e+04 4.597e-10
 83.98933   -143.2 9.888e+03 4.110e-10
 84.01309   -142.0 9.932e+03 4.308e-10
 84.05395   -140.6 9.976e+03 4.508e-10
 84.08449   -139.4 9.966e+03 4.482e-10
 84.10482   -138.9 1.003e+04 4.745e-10
 84.12152   -138.1 1.015e+04 5.067e-10
 84.13174   -138.1 1.004e+04 4.594e-10
 84.14567   -137.4 1.016e+04 4.978e-10
 84.16610   -136.6 1.030e+04 5.376e-10
 84.18653   -135.9 1.044e+04 5.864e-10
 84.19793   -135.2 1.061e+04 6.449e-10
 84.20814   -135.1 1.049e+04 6.096e-10
 84.22465   -134.4 1.066e+04 6.823e-10
 84.23486   -134.7 1.067e+04 6.986e-10
 84.24781   -134.0 1.087e+04 7.929e-10
 84.26412   -133.4 1.108e+04 8.989e-10
 84.27433   -133.2 1.089e+04 8.394e-10
 84.28866   -132.5 1.107e+04 9.549e-10
 84.30909   -131.9 1.122e+04 1.061e-09
 84.33983   -131.3 1.140e+04 1.177e-09
 84.38078   -130.0 1.186e+04 1.473e-09
 84.40691   -129.0 1.215e+04 1.589e-09
 84.42734   -127.4 1.158e+04 1.389e-09
 84.46249   -126.0 1.191e+04 1.542e-09
 84.48322   -125.2 1.215e+04 1.607e-09
 84.49334   -124.2 1.187e+04 1.488e-09
 84.51337   -123.7 1.206e+04 1.537e-09
 84.53379   -123.0 1.237e+04 1.642e-09
 84.54931   -122.6 1.293e+04 1.925e-09
 84.55953   -121.0 1.245e+04 1.701e-09
 84.57465   -120.7 1.314e+04 2.030e-09
 84.59507   -120.9 1.409e+04 2.855e-09
 84.61065   -121.0 1.486e+04 4.076e-09
 84.62086   -120.1 1.448e+04 3.255e-09
 84.63593   -118.5 1.538e+04 4.485e-09
 84.65636   -118.8 1.605e+04 6.136e-09
 84.67678   -119.3 1.641e+04 7.140e-09
 84.69191   -120.2 1.648e+04 7.267e-09
 84.70213   -118.1 1.731e+04 9.452e-09
 84.71764   -119.3 1.733e+04 9.214e-09
 84.73807   -121.0 1.693e+04 6.588e-09
 84.75810   -123.7 1.595e+04 3.781e-09
 84.76832   -121.2 1.750e+04 6.329e-09
 84.77892   -124.6 1.604e+04 3.161e-09
 84.79854   -128.4 1.411e+04 1.825e-09
 84.80875   -127.1 1.423e+04 1.882e-09
 84.81978   -130.5 1.297e+04 1.335e-09
 84.83451   -132.5 1.256e+04 1.193e-09
 84.84472   -132.2 1.284e+04 1.211e-09
 84.86063   -133.9 1.265e+04 1.155e-09
 84.88106   -135.5 1.262e+04 1.147e-09
 84.90070   -137.3 1.264e+04 1.149e-09
 84.91092   -140.1 1.677e+04 1.711e-09
 84.92191   -142.7 1.741e+04 2.114e-09
 84.94234   -144.7 1.717e+04 2.550e-09
 84.96277   -145.9 1.657e+04 2.836e-09
 84.97711   -146.4 1.576e+04 2.954e-09
 84.98732   -149.3 1.794e+04 7.650e-09
 84.99665   -149.4 1.720e+04 6.720e-09
 85.00686   -149.3 1.640e+04 5.784e-09
 85.02405   -149.2 1.625e+04 5.300e-09
 85.04330   -149.2 1.629e+04 5.148e-09
 85.05351   -151.1 1.689e+04 8.257e-09
 85.06490   -151.1 1.692e+04 8.496e-09
 85.08533   -151.0 1.684e+04 8.826e-09
 85.10576   -151.0 1.675e+04 8.946e-09
 85.11971   -151.0 1.634e+04 8.809e-09
 85.12992   -152.0 1.650e+04 9.696e-09
 85.14661   -152.1 1.662e+04 8.597e-09
 85.16704   -152.3 1.690e+04 7.925e-09
 85.18231   -155.6 2.258e+04 7.464e-09
 85.18955   -158.7 2.433e+04 8.423e-09
 85.19309   -167.3 3.720e+04 1.178e-08
 85.19601   -172.7 3.900e+04 1.560e-08
 85.20269   -178.5 3.323e+04 3.410e-08
 85.21290   -183.3 2.825e+04 6.140e-08
 85.22312   -187.3 2.539e+04 8.327e-08
 85.22911   -190.1 2.372e+04 9.073e-08
 85.23422   -190.8 2.319e+04 8.916e-08
 85.24355   -191.8 2.226e+04 8.055e-08
 85.25376   -192.1 2.178e+04 6.707e-08
 85.26221   -192.1 2.179e+04 5.154e-08
 85.26731   -191.0 2.166e+04 5.072e-08
 85.27419   -190.6 2.207e+04 3.666e-08
 85.28350   -191.3 2.258e+04 2.500e-08
 85.28860   -193.5 2.327e+04 1.354e-08
 85.29461   -196.4 2.155e+04 7.323e-09
 85.30041   -199.4 1.798e+04 4.014e-09
 85.30552   -197.4 1.974e+04 4.518e-09
 85.31504   -200.4 1.559e+04 2.819e-09
 85.32525   -201.7 1.378e+04 2.447e-09
 85.33351   -201.7 1.346e+04 2.438e-09
 85.33861   -200.0 1.375e+04 2.267e-09
 85.35084   -200.1 1.344e+04 2.362e-09
 85.37131   -200.8 1.300e+04 2.389e-09
 85.38265   -201.3 1.269e+04 2.506e-09
 85.39286   -202.8 1.206e+04 1.995e-09
 85.40490   -202.8 1.236e+04 2.352e-09
 85.41512   -203.5 1.283e+04 2.445e-09
 85.43260   -203.9 1.335e+04 2.843e-09
 85.45302   -204.3 1.356e+04 2.985e-09
 85.47109   -204.8 1.359e+04 3.007e-09
 85.48131   -207.0 1.450e+04 3.781e-09
 85.49388   -207.3 1.426e+04 3.608e-09
 85.51431   -207.4 1.404e+04 3.270e-09
 85.53473   -207.4 1.387e+04 2.952e-09
 85.54750   -207.4 1.376e+04 2.716e-09
 85.55771   -209.3 1.389e+04 3.027e-09
 85.57054   -208.9 1.373e+04 2.882e-09
 85.58075   -209.6 1.331e+04 2.549e-09
 85.59601   -209.0 1.320e+04 2.488e-09
 85.61369   -208.3 1.311e+04 2.455e-09
 85.62391   -209.2 1.282e+04 2.314e-09
 85.63687   -208.5 1.286e+04 2.281e-09
 85.65730   -207.8 1.290e+04 2.259e-09
 85.67772   -207.2 1.297e+04 2.249e-09
 85.69010   -206.8 1.316e+04 2.274e-09
 85.70031   -208.1 1.278e+04 1.465e-09
 85.71858   -208.0 1.291e+04 1.472e-09
 85.73901   -207.9 1.305e+04 1.588e-09
 85.75629   -207.7 1.318e+04 1.775e-09
 85.76550   -209.2 1.201e+04 1.044e-09
 85.76864   -209.1 1.146e+04 8.122e-10
 85.77986   -208.6 1.167e+04 9.458e-10
 85.80029   -208.1 1.193e+04 1.104e-09
 85.82072   -207.7 1.220e+04 1.264e-09
 85.83270   -207.3 1.243e+04 1.399e-09
 85.84291   -208.0 1.163e+04 1.006e-09
 85.86157   -207.6 1.178e+04 1.071e-09
 85.88200   -207.2 1.188e+04 1.096e-09
 85.89889   -206.9 1.191e+04 1.101e-09
 85.90910   -207.1 1.141e+04 9.193e-10
 85.92285   -206.7 1.142e+04 9.036e-10
 85.94328   -206.2 1.140e+04 8.559e-10
 85.95654   -205.7 1.136e+04 7.920e-10
 85.96675   -205.2 1.146e+04 8.795e-10
 85.97529   -204.6 1.140e+04 8.191e-10
 85.98551   -204.2 1.094e+04 6.540e-10
 86.00456   -203.5 1.085e+04 5.763e-10
 86.02499   -202.8 1.078e+04 5.144e-10
 86.04149   -202.2 1.070e+04 4.625e-10
 86.05170   -202.0 1.047e+04 3.770e-10
 86.06584   -201.6 1.044e+04 3.706e-10
 86.09658   -201.1 1.043e+04 3.702e-10
 86.11809   -199.9 1.029e+04 3.561e-10
 86.13539   -199.5 9.846e+03 2.496e-10
 86.15484   -198.4 1.003e+04 2.874e-10
 86.17839   -197.0 9.981e+03 2.907e-10
 86.21924   -195.5 9.942e+03 3.059e-10
 86.25047   -194.2 9.914e+03 3.166e-10
 86.27090   -193.6 9.453e+03 2.085e-10
 86.30095   -192.3 9.467e+03 2.176e-10
 86.34181   -191.2 9.465e+03 2.198e-10
 86.38266   -190.3 9.412e+03 2.117e-10
 86.42352   -189.2 9.221e+03 1.656e-10
 86.46437   -188.4 9.308e+03 1.818e-10
 86.50523   -187.5 9.377e+03 1.960e-10
 86.53062   -186.5 9.414e+03 2.059e-10
 86.54064   -187.0 1.000e+04 3.707e-10
 86.55609   -187.1 1.019e+04 4.370e-10
 86.58694   -186.1 1.019e+04 4.383e-10
 86.62779   -184.8 1.015e+04 4.191e-10
 86.66805   -183.4 1.015e+04 4.026e-10
 86.68848   -183.7 1.044e+04 5.451e-10
 86.70950   -182.5 1.059e+04 5.990e-10
 86.75036   -181.3 1.078e+04 6.839e-10
 86.79121   -180.5 1.095e+04 7.881e-10
 86.82086   -179.8 1.104e+04 8.800e-10
 86.84129   -180.8 1.147e+04 1.212e-09
 86.87292   -180.6 1.148e+04 1.225e-09
 86.90641   -180.2 1.121e+04 1.152e-09
 86.92684   -181.1 1.156e+04 1.381e-09
 86.95325   -180.1 1.093e+04 1.055e-09
 86.97367   -181.5 1.103e+04 1.137e-09
 86.99548   -179.9 1.027e+04 7.975e-10
 87.03634   -178.0 9.703e+03 5.977e-10
 87.07719   -175.9 9.426e+03 5.041e-10
 87.10606   -173.7 9.356e+03 4.776e-10
 87.12648   -174.8 9.181e+03 4.502e-10
 87.15890   -172.3 9.174e+03 4.463e-10
 87.19976   -170.1 9.247e+03 4.577e-10
 87.23844   -168.2 9.427e+03 5.082e-10
 87.25877   -168.5 9.291e+03 4.663e-10
 87.27106   -167.4 9.459e+03 4.993e-10
 87.29148   -166.7 9.555e+03 5.157e-10
 87.30243   -165.7 9.782e+03 5.562e-10
 87.32295   -167.0 9.972e+03 5.799e-10
 87.36318   -165.8 1.037e+04 6.892e-10
 87.39116   -165.2 1.078e+04 8.539e-10
 87.40127   -166.8 1.116e+04 9.784e-10
 87.41405   -166.4 1.144e+04 1.292e-09
 87.43448   -166.6 1.259e+04 1.743e-09
 87.45490   -167.7 1.546e+04 2.413e-09
 87.46746   -170.2 1.983e+04 3.536e-09
 87.47768   -177.7 2.199e+04 8.565e-09
 87.49032   -182.4 2.374e+04 1.324e-08
 87.50053   -184.8 2.297e+04 1.451e-08
 87.51619   -189.9 2.345e+04 1.929e-08
 87.53146   -196.5 2.300e+04 1.689e-08
 87.53866   -198.2 2.277e+04 1.598e-08
 87.54382   -203.9 2.065e+04 9.848e-09
 87.55188   -207.8 1.966e+04 8.270e-09
 87.56205   -212.1 1.790e+04 6.707e-09
 87.57176   -216.3 1.638e+04 5.519e-09
 87.57687   -217.9 1.591e+04 4.654e-09
 87.58248   -219.4 1.558e+04 4.353e-09
 87.58928   -221.1 1.521e+04 4.002e-09
 87.59438   -220.3 1.521e+04 3.931e-09
 87.60290   -221.1 1.520e+04 3.861e-09
 87.61001   -223.3 1.489e+04 3.527e-09
 87.62028   -225.1 1.353e+04 2.436e-09
 87.63875   -227.1 1.271e+04 1.865e-09
 87.65918   -228.4 1.233e+04 1.543e-09
 87.67625   -229.3 1.228e+04 1.424e-09
 87.68508   -229.2 1.200e+04 1.294e-09
 87.68843   -227.5 1.167e+04 1.123e-09
 87.70003   -228.0 1.168e+04 1.093e-09
 87.72046   -228.4 1.172e+04 1.094e-09
 87.74089   -228.6 1.181e+04 1.137e-09
 87.75266   -228.5 1.189e+04 1.198e-09
 87.76287   -228.3 1.179e+04 1.173e-09
 87.78174   -228.0 1.182e+04 1.197e-09
 87.80217   -227.6 1.184e+04 1.180e-09
 87.81885   -227.1 1.176e+04 1.073e-09
 87.82906   -227.0 1.168e+04 1.029e-09
 87.84302   -226.6 1.161e+04 8.839e-10
 87.86345   -226.1 1.147e+04 7.337e-10
 87.87632   -225.7 1.129e+04 5.955e-10
 87.88653   -224.8 1.150e+04 7.338e-10
 87.89526   -224.5 1.131e+04 5.910e-10
 87.90547   -224.5 1.123e+04 5.297e-10
 87.93504   -224.4 1.091e+04 4.187e-10
 87.96164   -224.3 1.066e+04 3.517e-10
 87.98207   -224.2 1.064e+04 3.414e-10
 88.01685   -223.7 1.030e+04 2.704e-10
 88.05419   -223.1 1.001e+04 2.084e-10
 88.07462   -222.3 1.021e+04 2.321e-10
 88.09403   -221.7 9.893e+03 1.733e-10
 88.11446   -221.5 9.868e+03 1.669e-10
 88.13941   -220.7 9.673e+03 1.297e-10
 88.18027   -219.7 9.627e+03 1.127e-10
 88.22112   -218.7 9.620e+03 1.087e-10
 88.24684   -217.6 9.623e+03 1.095e-10
 88.26727   -216.9 9.621e+03 9.388e-11
 88.30283   -215.9 9.674e+03 9.871e-11
 88.34369   -215.0 9.873e+03 1.278e-10
 88.37922   -214.0 1.011e+04 1.763e-10
 88.39965   -213.2 9.963e+03 1.228e-10
 88.42540   -212.3 1.013e+04 1.671e-10
 88.45041   -211.5 1.031e+04 2.142e-10
 88.47083   -210.8 1.046e+04 2.253e-10
 88.50711   -210.1 1.072e+04 2.762e-10
 88.53204   -209.3 1.088e+04 3.037e-10
 88.55246   -208.7 1.060e+04 2.496e-10
 88.58882   -208.1 1.073e+04 2.708e-10
 88.62967   -207.7 1.078e+04 2.786e-10
 88.66442   -207.3 1.081e+04 2.819e-10
 88.68485   -206.7 1.085e+04 2.801e-10
 88.71138   -206.6 1.126e+04 2.961e-10
 88.75224   -207.2 1.195e+04 3.820e-10
 88.79309   -208.2 1.263e+04 6.610e-10
 88.81723   -209.1 1.342e+04 1.308e-09
 88.82991   -209.5 1.375e+04 1.824e-09
 88.84662   -208.4 1.389e+04 1.799e-09
 88.86449   -208.6 1.429e+04 2.655e-09
 88.88323   -208.5 1.484e+04 3.713e-09
 88.89344   -208.5 1.516e+04 4.472e-09
 88.90525   -208.6 1.567e+04 5.547e-09
 88.92567   -209.2 1.610e+04 6.473e-09
 88.94610   -209.8 1.644e+04 7.359e-09
 88.95963   -210.3 1.674e+04 8.337e-09
 88.96985   -210.6 1.680e+04 8.522e-09
 88.98695   -211.1 1.707e+04 9.565e-09
 89.00738   -211.6 1.719e+04 1.021e-08
 89.02410   -212.0 1.720e+04 1.037e-08
 89.03233   -211.0 1.699e+04 9.913e-09
 89.03604   -211.2 1.689e+04 9.823e-09
 89.04824   -211.2 1.691e+04 1.002e-08
 89.06866   -211.1 1.672e+04 9.923e-09
 89.08909   -210.9 1.643e+04 8.933e-09
 89.10223   -210.4 1.608e+04 7.832e-09
 89.11245   -210.1 1.574e+04 7.264e-09
 89.12995   -209.5 1.537e+04 6.404e-09
 89.15037   -208.9 1.498e+04 5.336e-09
 89.16842   -208.3 1.452e+04 4.216e-09
 89.17864   -207.8 1.412e+04 3.654e-09
 89.19123   -207.1 1.369e+04 2.764e-09
 89.21166   -206.4 1.326e+04 2.047e-09
 89.22221   -205.7 1.284e+04 1.520e-09
 89.23242   -204.7 1.330e+04 2.064e-09
 89.24483   -204.0 1.285e+04 1.522e-09
 89.25504   -203.3 1.248e+04 1.210e-09
 89.27294   -202.4 1.213e+04 9.036e-10
 89.29336   -201.4 1.189e+04 7.062e-10
 89.31102   -200.3 1.176e+04 5.859e-10
 89.32124   -199.3 1.172e+04 4.950e-10
 89.33422   -198.5 1.175e+04 4.723e-10
 89.35465   -197.8 1.176e+04 4.676e-10
 89.37507   -197.3 1.178e+04 4.760e-10
 89.38753   -196.4 1.181e+04 4.851e-10
 89.40805   -195.2 1.157e+04 3.961e-10
 89.44677   -193.6 1.157e+04 3.971e-10
 89.48762   -192.4 1.180e+04 4.673e-10
 89.52001   -191.4 1.212e+04 6.653e-10
 89.54043   -190.1 1.189e+04 5.990e-10
 89.56933   -189.5 1.218e+04 8.441e-10
 89.59819   -189.0 1.242e+04 1.100e-09
 89.60831   -187.8 1.264e+04 1.370e-09
 89.62020   -187.8 1.268e+04 1.438e-09
 89.64063   -187.8 1.270e+04 1.517e-09
 89.66106   -187.7 1.269e+04 1.575e-09
 89.67262   -187.7 1.265e+04 1.590e-09
 89.68284   -187.0 1.263e+04 1.469e-09
 89.70191   -186.9 1.256e+04 1.465e-09
 89.72234   -186.7 1.251e+04 1.460e-09
 89.73882   -186.3 1.245e+04 1.483e-09
 89.74903   -185.7 1.239e+04 1.357e-09
 89.76319   -185.3 1.242e+04 1.423e-09
 89.78362   -184.9 1.247e+04 1.490e-09
 89.79610   -184.5 1.254e+04 1.552e-09
 89.80631   -184.5 1.243e+04 1.474e-09
 89.81522   -184.2 1.246e+04 1.494e-09
 89.82543   -183.5 1.250e+04 1.562e-09
 89.84490   -183.3 1.255e+04 1.640e-09
 89.86533   -183.1 1.262e+04 1.731e-09
 89.88141   -183.0 1.271e+04 1.844e-09
 89.89163   -182.4 1.277e+04 1.941e-09
 89.90619   -182.4 1.286e+04 2.040e-09
 89.93692   -182.6 1.297e+04 2.133e-09
 89.95801   -182.4 1.299e+04 2.181e-09
 89.96813   -181.7 1.285e+04 2.138e-09
 89.98399   -181.6 1.285e+04 2.138e-09
 89.99430   -181.5 1.277e+04 1.983e-09
 90.01873   -181.3 1.269e+04 1.864e-09
 90.05959   -181.0 1.243e+04 1.620e-09
 90.09040   -180.4 1.216e+04 1.409e-09
 90.11083   -179.7 1.259e+04 1.774e-09
 90.14129   -178.8 1.238e+04 1.566e-09
 90.18215   -177.5 1.225e+04 1.429e-09
 90.22278   -175.9 1.221e+04 1.371e-09
 90.24321   -175.5 1.253e+04 1.651e-09
 90.25355   -173.8 1.230e+04 1.529e-09
 90.27388   -173.2 1.241e+04 1.544e-09
 90.29430   -172.5 1.259e+04 1.664e-09
 90.30921   -172.2 1.280e+04 1.901e-09
 90.31942   -171.9 1.292e+04 2.033e-09
 90.33516   -171.4 1.323e+04 2.513e-09
 90.35559   -171.0 1.359e+04 3.135e-09
 90.36999   -170.6 1.401e+04 3.988e-09
 90.37959   -170.2 1.376e+04 3.434e-09
 90.38561   -170.1 1.393e+04 3.742e-09
 90.39644   -169.8 1.432e+04 4.611e-09
 90.41687   -169.7 1.464e+04 5.401e-09
 90.43730   -169.8 1.480e+04 5.873e-09
 90.45180   -170.1 1.483e+04 6.025e-09
 90.46202   -170.2 1.482e+04 5.886e-09
 90.47815   -170.3 1.470e+04 5.780e-09
 90.49858   -170.4 1.455e+04 5.578e-09
 90.51800   -170.4 1.442e+04 5.362e-09
 90.52821   -170.3 1.428e+04 4.985e-09
 90.53943   -170.3 1.410e+04 4.615e-09
 90.55789   -170.3 1.385e+04 4.146e-09
 90.56810   -169.8 1.382e+04 4.190e-09
 90.58029   -169.6 1.356e+04 3.659e-09
 90.59440   -169.3 1.322e+04 3.082e-09
 90.60462   -169.2 1.308e+04 2.750e-09
 90.62114   -168.8 1.274e+04 2.273e-09
 90.64157   -168.2 1.240e+04 1.869e-09
 90.66059   -167.4 1.209e+04 1.539e-09
 90.67081   -167.3 1.203e+04 1.468e-09
 90.68242   -166.3 1.178e+04 1.201e-09
 90.70285   -165.2 1.161e+04 9.677e-10
 90.72328   -164.2 1.153e+04 8.006e-10
 90.74588   -163.5 1.150e+04 6.822e-10
 90.76630   -161.5 1.151e+04 7.786e-10
 90.79308   -160.8 1.150e+04 7.422e-10
 90.81360   -160.7 1.157e+04 7.066e-10
 90.83582   -159.1 1.141e+04 5.808e-10
 90.87668   -157.3 1.126e+04 4.904e-10
 90.91753   -155.5 1.124e+04 4.495e-10
 90.94599   -153.9 1.125e+04 4.392e-10
 90.96641   -154.0 1.131e+04 4.142e-10
 90.99924   -152.8 1.134e+04 4.132e-10
 91.04010   -152.0 1.168e+04 4.803e-10
 91.07837   -151.5 1.205e+04 8.290e-10
 91.09880   -151.8 1.191e+04 7.455e-10
 91.12176   -151.2 1.239e+04 1.380e-09
 91.16261   -150.6 1.299e+04 2.007e-09
 91.20352   -150.6 1.345e+04 2.778e-09
 91.23118   -151.1 1.362e+04 3.092e-09
 91.25161   -151.2 1.331e+04 2.636e-09
 91.28523   -151.5 1.330e+04 2.665e-09
 91.32608   -151.6 1.301e+04 2.309e-09
 91.36356   -151.2 1.255e+04 1.641e-09
 91.38399   -151.1 1.261e+04 1.682e-09
 91.40779   -150.6 1.230e+04 1.296e-09
 91.44865   -150.0 1.221e+04 1.163e-09
 91.48950   -149.4 1.224e+04 1.150e-09
 91.51638   -149.1 1.239e+04 1.264e-09
 91.52442   -149.3 1.290e+04 1.759e-09
 91.53840   -148.8 1.311e+04 2.119e-09
 91.57121   -148.9 1.323e+04 2.370e-09
 91.61206   -149.2 1.324e+04 2.403e-09
 91.64876   -149.0 1.282e+04 2.144e-09
 91.66919   -149.6 1.306e+04 2.392e-09
 91.69377   -148.4 1.246e+04 1.716e-09
 91.73463   -146.9 1.197e+04 1.214e-09
 91.77548   -145.2 1.164e+04 9.058e-10
 91.80157   -143.5 1.142e+04 7.279e-10
 91.82200   -143.8 1.144e+04 7.350e-10
 91.85719   -141.9 1.127e+04 6.285e-10
 91.89376   -139.9 1.112e+04 5.588e-10
 91.91418   -140.5 1.120e+04 5.980e-10
 91.93396   -138.4 1.112e+04 5.816e-10
 91.95438   -138.5 1.110e+04 5.486e-10
 91.97976   -136.3 1.108e+04 5.475e-10
 92.02061   -134.1 1.104e+04 5.575e-10
 92.06147   -132.0 1.101e+04 5.679e-10
 92.08677   -129.9 1.099e+04 5.685e-10
 92.10720   -129.9 1.100e+04 5.203e-10
 92.14318   -127.8 1.099e+04 5.256e-10
 92.18403   -125.7 1.097e+04 5.238e-10
 92.21915   -123.7 1.089e+04 5.067e-10
 92.23958   -123.7 1.103e+04 4.819e-10
 92.26574   -121.6 1.086e+04 4.533e-10
 92.28997   -119.6 1.071e+04 4.037e-10
 92.31040   -119.3 1.072e+04 3.875e-10
 92.34745   -117.2 1.059e+04 3.400e-10
 92.37196   -115.1 1.048e+04 3.052e-10
 92.39239   -114.9 1.047e+04 2.834e-10
 92.42916   -112.8 1.039e+04 2.657e-10
 92.47001   -110.6 1.032e+04 2.493e-10
 92.50435   -108.4 1.024e+04 2.281e-10
 92.52477   -108.1 1.025e+04 2.238e-10
 92.55172   -105.8 1.019e+04 1.984e-10
 92.59258   -103.6 1.012e+04 1.699e-10
 92.63343   -101.4 1.004e+04 1.413e-10
 92.65716    -99.3 9.994e+03 1.130e-10
 92.66906    -99.0 1.008e+04 1.154e-10
 92.68618    -98.5 1.019e+04 1.264e-10
 92.71514    -96.6 1.021e+04 1.055e-10
 92.75600    -94.8 1.024e+04 9.056e-11
 92.78954    -93.1 1.020e+04 8.570e-11
 92.80997    -92.8 1.031e+04 9.628e-11
 92.83770    -91.2 1.025e+04 9.452e-11
 92.87856    -89.6 1.027e+04 1.002e-10
 92.91941    -87.9 1.024e+04 1.148e-10
 92.94235    -86.0 1.020e+04 1.350e-10
 92.96278    -85.6 1.018e+04 1.277e-10
 93.00112    -83.7 1.015e+04 1.405e-10
 93.04154    -81.8 1.014e+04 1.499e-10
 93.06197    -81.3 1.021e+04 1.256e-10
 93.07474    -79.6 1.023e+04 1.294e-10
 93.09517    -79.1 1.018e+04 1.147e-10
 93.12369    -77.6 1.026e+04 1.175e-10
 93.16454    -76.5 1.037e+04 1.421e-10
 93.20540    -75.5 1.043e+04 2.084e-10
 93.22755    -74.2 1.056e+04 3.217e-10
 93.24798    -73.7 1.048e+04 2.666e-10
 93.28711    -72.2 1.072e+04 3.964e-10
 93.32796    -70.8 1.099e+04 5.176e-10
 93.35993    -69.9 1.116e+04 5.993e-10
 93.38036    -68.9 1.115e+04 5.252e-10
 93.40967    -68.2 1.125e+04 5.943e-10
 93.43775    -67.6 1.135e+04 7.073e-10
 93.44787    -67.8 1.116e+04 6.630e-10
 93.46054    -66.8 1.149e+04 8.116e-10
 93.48097    -66.5 1.177e+04 9.267e-10
 93.50140    -66.5 1.184e+04 9.528e-10
 93.51255    -66.7 1.177e+04 9.447e-10
 93.52276    -66.2 1.177e+04 9.230e-10
 93.54225    -66.3 1.178e+04 9.196e-10
 93.56268    -66.2 1.178e+04 8.483e-10
 93.57874    -66.4 1.172e+04 7.188e-10
 93.58896    -66.0 1.184e+04 7.636e-10
 93.60354    -66.6 1.177e+04 6.630e-10
 93.62396    -66.6 1.183e+04 6.329e-10
 93.64503    -67.9 1.159e+04 5.747e-10
 93.66556    -67.0 1.156e+04 5.513e-10
 93.69565    -67.0 1.133e+04 4.093e-10
 93.73651    -66.7 1.119e+04 3.221e-10
 93.77736    -66.4 1.114e+04 2.799e-10
 93.81354    -65.2 1.125e+04 2.737e-10
 93.83397    -66.4 1.112e+04 2.300e-10
 93.85907    -65.9 1.114e+04 2.485e-10
 93.89993    -65.3 1.104e+04 2.815e-10
 93.93033    -64.6 1.101e+04 3.195e-10
 93.95075    -63.6 1.101e+04 3.172e-10
 93.98164    -62.7 1.099e+04 3.277e-10
 94.02249    -61.7 1.098e+04 3.095e-10
 94.06271    -60.9 1.102e+04 2.722e-10
 94.08314    -60.0 1.102e+04 2.643e-10
 94.10420    -59.4 1.108e+04 2.524e-10
 94.14506    -58.6 1.114e+04 2.954e-10
 94.18591    -57.2 1.119e+04 3.783e-10
 94.20975    -55.6 1.126e+04 4.015e-10
 94.21894    -55.6 1.130e+04 4.221e-10
 94.23595    -55.1 1.130e+04 4.255e-10
 94.26762    -53.6 1.121e+04 3.711e-10
 94.30847    -52.1 1.112e+04 3.039e-10
 94.34791    -50.8 1.103e+04 2.758e-10
 94.36833    -50.0 1.100e+04 2.791e-10
 94.39018    -48.3 1.095e+04 2.769e-10
 94.43104    -46.4 1.089e+04 2.912e-10
 94.47189    -44.3 1.091e+04 3.135e-10
 94.50072    -42.5 1.095e+04 3.293e-10
 94.52114    -41.8 1.097e+04 3.409e-10
 94.55360    -40.2 1.102e+04 3.727e-10
 94.58554    -38.5 1.097e+04 4.201e-10
 94.60596    -38.1 1.123e+04 5.821e-10
 94.63310    -36.1 1.123e+04 5.942e-10
 94.65353    -35.7 1.125e+04 6.054e-10
 94.67617    -33.9 1.136e+04 5.404e-10
 94.71702    -32.9 1.139e+04 4.849e-10
 94.75788    -31.8 1.129e+04 4.955e-10
 94.78591    -30.5 1.128e+04 4.988e-10
 94.80634    -30.2 1.126e+04 5.026e-10
 94.83959    -29.2 1.136e+04 4.780e-10
 94.88044    -28.8 1.140e+04 5.089e-10
 94.91830    -28.4 1.143e+04 5.429e-10
 94.93872    -28.3 1.118e+04 5.343e-10
 94.96132    -27.2 1.083e+04 5.049e-10
 94.98175    -26.8 1.094e+04 4.327e-10
 95.00300    -25.5 1.066e+04 2.880e-10
 95.04386    -24.6 1.051e+04 1.928e-10
 95.07111    -23.9 1.029e+04 1.498e-10
 95.09154    -23.4 1.020e+04 1.026e-10
 95.12557    -22.1 1.001e+04 8.272e-11
 95.16642    -20.4 9.894e+03 7.181e-11
 95.20349    -18.6 9.802e+03 6.519e-11
 95.22392    -18.2 9.814e+03 4.512e-11
 95.24813    -16.4 9.814e+03 4.450e-11
 95.28899    -14.8 9.864e+03 4.554e-11
 95.32984    -13.4 9.962e+03 5.086e-11
 95.35630    -12.3 1.005e+04 6.728e-11
 95.36357    -11.8 1.003e+04 7.042e-11
 95.37796    -11.5 1.011e+04 7.889e-11
 95.41155    -10.2 1.009e+04 1.238e-10
 95.45241     -8.5 1.010e+04 1.898e-10
 95.48869     -7.1 1.016e+04 2.154e-10
 95.50912     -6.3 1.029e+04 2.827e-10
 95.53411     -4.8 1.019e+04 2.625e-10
 95.57497     -2.9 9.911e+03 1.863e-10
 95.61582     -1.5 9.828e+03 1.092e-10
 95.64150     -0.8 9.733e+03 6.964e-11
 95.66193      0.0 9.825e+03 7.372e-11
 95.69753      1.0 9.572e+03 6.804e-11
 95.73332      2.3 9.531e+03 7.297e-11
 95.75375      2.2 9.519e+03 7.786e-11
 95.77388      3.8 9.474e+03 9.707e-11
 95.79431      4.7 9.477e+03 1.113e-10
 95.82010      6.6 9.530e+03 1.316e-10
 95.86095      8.2 9.584e+03 1.360e-10
 95.90181      9.8 9.579e+03 1.330e-10
 95.92670     11.1 9.582e+03 1.260e-10
 95.94712     12.0 9.601e+03 1.255e-10
 95.98352     13.3 9.592e+03 1.203e-10
 96.02437     14.5 9.613e+03 1.214e-10
 96.05908     15.6 9.684e+03 1.305e-10
 96.07951     16.5 9.686e+03 1.286e-10
 96.10608     17.5 9.809e+03 1.586e-10
 96.12953     18.4 1.006e+04 2.263e-10
 96.14996     17.9 1.004e+04 2.273e-10
 96.18779     18.5 1.052e+04 3.662e-10
 96.21189     19.0 1.097e+04 5.596e-10
 96.23232     19.9 1.111e+04 6.372e-10
 96.25919     19.7 1.124e+04 7.338e-10
 96.27789     20.1 1.130e+04 7.798e-10
 96.28810     20.8 1.129e+04 7.873e-10
 96.29995     20.6 1.165e+04 8.908e-10
 96.31723     18.8 1.271e+04 1.312e-09
 96.32744     17.9 1.281e+04 1.297e-09
 96.34080     15.8 1.357e+04 2.537e-09
 96.35429     16.2 1.408e+04 4.372e-09
 96.36451     16.7 1.392e+04 3.967e-09
 96.38165     17.0 1.407e+04 4.730e-09
 96.40208     17.6 1.384e+04 4.397e-09
 96.42049     17.7 1.333e+04 3.180e-09
 96.43070     18.2 1.317e+04 3.093e-09
 96.44294     17.9 1.266e+04 2.222e-09
 96.47368     16.9 1.171e+04 1.173e-09
 96.49709     16.8 1.025e+04 4.426e-10
 96.50820     18.6 1.047e+04 5.151e-10
 96.52575     18.1 1.011e+04 4.175e-10
 96.55548     18.4 9.310e+03 1.717e-10
 96.59634     18.8 9.038e+03 8.862e-11
 96.62947     19.6 8.759e+03 6.890e-11
 96.64990     21.3 8.979e+03 8.080e-11
 96.67805     22.5 8.861e+03 7.648e-11
 96.71890     23.7 8.855e+03 7.798e-11
 96.75976     24.8 8.883e+03 8.470e-11
 96.78228     25.7 8.948e+03 1.006e-10
 96.80271     26.8 9.026e+03 1.072e-10
 96.84147     27.7 9.074e+03 1.356e-10
 96.88110     28.7 9.213e+03 1.629e-10
 96.90153     28.6 9.333e+03 1.721e-10
 96.91467     29.3 9.403e+03 1.703e-10
 96.93509     30.4 9.432e+03 1.838e-10
 96.96403     31.1 9.495e+03 1.651e-10
 97.00488     31.4 9.605e+03 1.397e-10
 97.04574     31.7 9.662e+03 1.436e-10
 97.06748     32.1 9.733e+03 1.679e-10
 97.08791     33.4 9.713e+03 1.333e-10
 97.12745     33.9 9.784e+03 1.648e-10
 97.16830     34.6 9.888e+03 2.068e-10
 97.19986     35.2 1.005e+04 2.619e-10
 97.22029     36.4 1.008e+04 2.290e-10
 97.25001     36.7 1.033e+04 3.216e-10
 97.27732     37.0 1.060e+04 4.712e-10
 97.29774     35.9 1.081e+04 6.174e-10
 97.33172     36.2 1.096e+04 6.719e-10
 97.35267     36.5 1.085e+04 6.490e-10
 97.37310     37.4 1.091e+04 6.615e-10
 97.41343     37.8 1.060e+04 5.407e-10
 97.45429     38.3 1.025e+04 3.804e-10
 97.48506     39.0 9.968e+03 2.484e-10
 97.50549     39.7 9.977e+03 2.025e-10
 97.53600     40.4 9.804e+03 1.349e-10
 97.57685     41.2 9.746e+03 9.318e-11
 97.61744     42.1 9.758e+03 6.806e-11
 97.63787     42.6 9.723e+03 6.654e-11
 97.65310     43.9 9.735e+03 6.260e-11
 97.67353     43.5 9.758e+03 6.325e-11
 97.69941     44.5 9.870e+03 6.555e-11
 97.74027     45.0 1.014e+04 8.136e-11
 97.77025     45.5 1.029e+04 1.294e-10
 97.79068     46.4 1.018e+04 2.026e-10
 97.82198     47.6 1.048e+04 3.242e-10
 97.86283     48.8 1.076e+04 3.953e-10
 97.90264     49.7 1.083e+04 3.825e-10
 97.92307     50.9 1.093e+04 4.376e-10
 97.94454     51.7 1.092e+04 3.173e-10
 97.98540     52.1 1.090e+04 2.036e-10
 98.02625     52.2 1.071e+04 1.470e-10
 98.04931     52.6 1.052e+04 1.405e-10
 98.05808     52.4 1.050e+04 1.376e-10
 98.07588     53.1 1.037e+04 1.118e-10
 98.10796     54.2 1.037e+04 1.117e-10
 98.14882     55.3 1.041e+04 1.123e-10
 98.18783     56.3 1.055e+04 1.153e-10
 98.20826     57.3 1.036e+04 8.558e-11
 98.23052     58.2 1.046e+04 8.645e-11
 98.27138     59.1 1.061e+04 9.322e-11
 98.31223     59.9 1.066e+04 1.186e-10
 98.34064     60.9 1.070e+04 1.648e-10
 98.36107     62.0 1.043e+04 1.330e-10
 98.39394     63.4 1.049e+04 1.943e-10
 98.42510     64.8 1.064e+04 2.606e-10
 98.44553     64.6 1.062e+04 2.519e-10
 98.47303     65.8 1.064e+04 2.805e-10
 98.49346     67.3 1.058e+04 2.126e-10
 98.51651     68.4 1.059e+04 2.108e-10
 98.55736     69.3 1.056e+04 1.978e-10
 98.59822     70.3 1.037e+04 1.858e-10
 98.62584     71.5 1.018e+04 1.845e-10
 98.64627     72.7 1.031e+04 1.395e-10
 98.67993     74.0 1.026e+04 1.407e-10
 98.72078     75.3 1.018e+04 1.481e-10
 98.75822     76.7 1.017e+04 1.611e-10
 98.77865     77.7 1.030e+04 1.131e-10
 98.80088     79.0 1.034e+04 1.117e-10
 98.82131     78.6 1.039e+04 1.212e-10
 98.84335     79.5 1.048e+04 1.189e-10
 98.88420     80.0 1.066e+04 1.242e-10
 98.91104     80.0 1.095e+04 1.568e-10
 98.93146     81.5 1.061e+04 1.053e-10
 98.96591     81.5 1.075e+04 1.574e-10
 99.00676     81.8 1.085e+04 2.718e-10
 99.04342     82.4 1.095e+04 4.434e-10
 99.06385     84.3 1.075e+04 3.149e-10
 99.08847     85.0 1.085e+04 4.476e-10
 99.12933     85.7 1.089e+04 5.217e-10
 99.17018     86.4 1.083e+04 5.031e-10
 99.19623     87.1 1.062e+04 4.330e-10
 99.20272     88.9 1.069e+04 4.355e-10
 99.21752     88.1 1.059e+04 3.816e-10
 99.25189     88.9 1.043e+04 3.304e-10
 99.29275     89.6 1.031e+04 2.818e-10
 99.32862     90.4 1.020e+04 2.557e-10
 99.34904     91.8 1.034e+04 2.852e-10
 99.37446     92.3 1.061e+04 3.365e-10
 99.41531     93.0 1.091e+04 4.600e-10
 99.45617     94.1 1.115e+04 6.109e-10
 99.48143     95.2 1.131e+04 7.483e-10
 99.50185     96.0 1.131e+04 7.729e-10
 99.53788     97.3 1.147e+04 8.994e-10
 99.56842     97.7 1.151e+04 9.675e-10
 99.58290     98.3 1.147e+04 9.986e-10
 99.59312     97.4 1.139e+04 1.001e-09
 99.60918     98.3 1.122e+04 9.286e-10
 99.62383     99.1 1.106e+04 8.351e-10
 99.63404     99.5 1.099e+04 7.891e-10
 99.65003    100.3 1.087e+04 7.020e-10
 99.67046    101.0 1.072e+04 6.271e-10
 99.69002    101.8 1.058e+04 5.633e-10
 99.70024    102.1 1.062e+04 5.689e-10
 99.71131    102.9 1.048e+04 5.217e-10
 99.73174    103.8 1.034e+04 4.814e-10
 99.75217    104.7 1.024e+04 4.513e-10
 99.76653    105.5 1.007e+04 3.863e-10
 99.77494    105.9 1.022e+04 4.454e-10
 99.78101    105.1 1.009e+04 3.815e-10
 99.79302    105.7 1.007e+04 3.815e-10
 99.81345    107.2 1.005e+04 3.812e-10
 99.83262    107.9 1.004e+04 3.815e-10
 99.84283    107.9 1.003e+04 3.833e-10
 99.86462    110.1 1.002e+04 3.897e-10
 99.89901    112.4 9.900e+03 3.662e-10
 99.91943    112.9 1.006e+04 4.310e-10
 99.94642    114.9 1.004e+04 4.168e-10
 99.96910    116.8 9.961e+03 3.943e-10
 99.98952    115.3 1.032e+04 5.221e-10
