# Columns:
#   distance along LOS (in CHIMPs)
#   peculiar velocity  (in km/s)
#   temperature (K)
#   HI number density
# pos=(225.831,236.06,26.5815), angles=(0.20831,6.00926)
  0.00357   -127.8 1.280e+04 1.121e-09
  0.01712   -126.9 1.283e+04 1.166e-09
  0.03097   -126.1 1.284e+04 1.198e-09
  0.04095   -126.1 1.252e+04 1.060e-09
  0.05705   -125.3 1.251e+04 1.091e-09
  0.07701   -124.4 1.249e+04 1.111e-09
  0.09698   -123.4 1.248e+04 1.117e-09
  0.11694   -122.4 1.244e+04 1.107e-09
  0.12992   -121.3 1.239e+04 1.080e-09
  0.14000   -121.7 1.236e+04 8.384e-10
  0.15790   -119.3 1.218e+04 8.207e-10
  0.17787   -119.3 1.206e+04 6.644e-10
  0.20697   -117.1 1.194e+04 6.402e-10
  0.24689   -114.8 1.186e+04 6.101e-10
  0.28682   -112.6 1.178e+04 5.782e-10
  0.31805   -110.3 1.174e+04 5.624e-10
  0.33801   -109.5 1.175e+04 5.478e-10
  0.36667   -107.3 1.178e+04 5.674e-10
  0.40659   -105.2 1.182e+04 5.920e-10
  0.44652   -103.2 1.190e+04 6.309e-10
  0.48645   -101.3 1.204e+04 6.927e-10
  0.51596    -99.5 1.218e+04 7.709e-10
  0.53593    -99.1 1.222e+04 8.458e-10
  0.55622    -98.2 1.221e+04 8.635e-10
  0.57608    -97.7 1.218e+04 8.666e-10
  0.59605    -97.0 1.216e+04 8.974e-10
  0.61473    -96.3 1.220e+04 9.358e-10
  0.62471    -96.1 1.224e+04 1.032e-09
  0.63597    -95.5 1.229e+04 1.091e-09
  0.65593    -95.0 1.231e+04 1.150e-09
  0.67590    -94.6 1.230e+04 1.198e-09
  0.69586    -94.2 1.227e+04 1.222e-09
  0.71368    -93.8 1.225e+04 1.223e-09
  0.72366    -93.6 1.249e+04 1.490e-09
  0.73579    -93.2 1.244e+04 1.488e-09
  0.75575    -92.8 1.216e+04 1.474e-09
  0.77571    -92.3 1.194e+04 1.377e-09
  0.79567    -91.8 1.175e+04 1.234e-09
  0.81264    -91.3 1.158e+04 1.071e-09
  0.82262    -91.0 1.173e+04 1.248e-09
  0.83560    -90.5 1.151e+04 1.050e-09
  0.85556    -90.0 1.129e+04 8.648e-10
  0.86615    -89.5 1.111e+04 7.070e-10
  0.88621    -89.7 1.085e+04 5.217e-10
  0.91179    -88.8 1.062e+04 3.773e-10
  0.93175    -87.9 1.068e+04 4.617e-10
  0.96555    -86.5 1.035e+04 3.069e-10
  1.00548    -85.1 1.026e+04 2.444e-10
  1.04540    -83.9 1.029e+04 2.380e-10
  1.08533    -82.8 1.048e+04 2.861e-10
  1.10971    -81.8 1.059e+04 3.988e-10
  1.12967    -80.4 1.064e+04 3.430e-10
  1.16518    -79.3 1.075e+04 4.723e-10
  1.20511    -78.0 1.080e+04 5.955e-10
  1.24503    -76.6 1.078e+04 6.540e-10
  1.27488    -75.4 1.079e+04 6.774e-10
  1.29474    -74.8 1.076e+04 6.750e-10
  1.30752    -73.9 1.063e+04 6.476e-10
  1.32758    -72.9 1.056e+04 5.657e-10
  1.36481    -71.3 1.043e+04 5.569e-10
  1.40474    -69.5 1.039e+04 5.092e-10
  1.44466    -67.7 1.031e+04 4.425e-10
  1.48459    -66.0 1.020e+04 3.690e-10
  1.50553    -64.4 1.006e+04 3.072e-10
  1.52550    -63.6 1.009e+04 3.094e-10
  1.55483    -62.2 1.001e+04 2.778e-10
  1.57480    -63.2 1.005e+04 2.645e-10
  1.60436    -62.1 1.004e+04 2.594e-10
  1.64429    -61.1 1.010e+04 2.768e-10
  1.68348    -60.3 1.023e+04 3.128e-10
  1.70345    -59.6 1.033e+04 3.286e-10
  1.72414    -58.9 1.036e+04 3.360e-10
  1.76407    -58.2 1.025e+04 3.201e-10
  1.80399    -57.7 1.008e+04 2.704e-10
  1.84392    -57.2 9.872e+03 2.213e-10
  1.88140    -56.5 9.676e+03 1.778e-10
  1.90136    -55.8 9.676e+03 1.813e-10
  1.92377    -54.9 9.490e+03 1.476e-10
  1.96369    -53.6 9.333e+03 1.247e-10
  2.00362    -52.0 9.217e+03 1.103e-10
  2.04355    -50.2 9.133e+03 9.614e-11
  2.07931    -48.4 9.049e+03 8.197e-11
  2.09927    -47.7 9.100e+03 7.567e-11
  2.12340    -45.9 9.023e+03 6.092e-11
  2.16332    -44.1 8.954e+03 4.896e-11
  2.20325    -42.2 8.875e+03 4.088e-11
  2.24317    -40.4 8.800e+03 3.593e-11
  2.27722    -39.2 8.718e+03 3.382e-11
  2.29719    -38.5 8.785e+03 3.796e-11
  2.32302    -36.5 8.783e+03 3.800e-11
  2.36295    -34.6 8.749e+03 4.114e-11
  2.40288    -32.7 8.691e+03 4.718e-11
  2.44280    -30.6 8.667e+03 5.428e-11
  2.47514    -28.5 8.706e+03 5.994e-11
  2.49510    -27.8 8.846e+03 6.822e-11
  2.52265    -25.8 8.858e+03 7.197e-11
  2.56258    -23.9 8.875e+03 7.212e-11
  2.60250    -22.1 8.910e+03 7.008e-11
  2.64243    -20.5 8.939e+03 6.881e-11
  2.67305    -18.9 8.998e+03 6.995e-11
  2.69301    -18.3 9.010e+03 7.858e-11
  2.72228    -16.7 9.025e+03 7.982e-11
  2.76221    -15.1 9.061e+03 7.905e-11
  2.80213    -13.5 9.100e+03 7.626e-11
  2.84206    -12.1 9.103e+03 7.260e-11
  2.87096    -10.9 9.091e+03 6.948e-11
  2.89093    -10.3 9.104e+03 7.023e-11
  2.92191     -8.9 9.083e+03 6.832e-11
  2.95176     -7.5 9.065e+03 6.713e-11
  2.97173     -8.1 9.115e+03 7.722e-11
  3.00176     -6.6 9.131e+03 7.747e-11
  3.04169     -5.2 9.219e+03 7.792e-11
  3.06888     -4.2 9.376e+03 8.678e-11
  3.08884     -3.6 9.372e+03 8.320e-11
  3.12154     -2.5 9.421e+03 1.001e-10
  3.16146     -1.4 9.547e+03 1.319e-10
  3.20139     -0.6 9.812e+03 1.791e-10
  3.24131     -0.4 1.003e+04 2.646e-10
  3.26679     -0.0 1.028e+04 4.133e-10
  3.28675      0.2 1.016e+04 3.696e-10
  3.32117      1.3 1.055e+04 4.669e-10
  3.36109      1.3 1.071e+04 4.413e-10
  3.40102      0.7 1.073e+04 3.399e-10
  3.44094     -0.6 1.068e+04 2.970e-10
  3.46471     -1.5 1.062e+04 3.433e-10
  3.48467     -1.0 1.052e+04 3.326e-10
  3.52079     -0.6 1.068e+04 4.444e-10
  3.56072      0.1 1.087e+04 4.869e-10
  3.60064      0.7 1.074e+04 4.158e-10
  3.64025      1.6 1.054e+04 2.633e-10
  3.66021      1.0 1.052e+04 2.550e-10
  3.66262      2.0 1.032e+04 1.635e-10
  3.68258      2.5 1.029e+04 1.565e-10
  3.72042      3.9 1.019e+04 1.096e-10
  3.76035      5.4 1.018e+04 7.928e-11
  3.80027      6.7 1.029e+04 5.953e-11
  3.84020      7.6 1.034e+04 5.529e-11
  3.86053      8.3 1.039e+04 6.584e-11
  3.88050      9.1 1.044e+04 5.666e-11
  3.92005      9.8 1.028e+04 8.799e-11
  3.95998     11.4 1.026e+04 1.344e-10
  3.99990     13.4 1.034e+04 1.718e-10
  4.03848     15.0 1.038e+04 1.746e-10
  4.05845     15.8 1.044e+04 1.603e-10
  4.07975     17.5 1.060e+04 1.230e-10
  4.11968     18.9 1.053e+04 9.522e-11
  4.15960     20.3 1.062e+04 6.819e-11
  4.19953     21.5 1.059e+04 5.465e-11
  4.23640     23.1 1.053e+04 4.871e-11
  4.25636     23.8 1.054e+04 5.767e-11
  4.27938     25.6 1.059e+04 5.371e-11
  4.31931     27.4 1.079e+04 4.817e-11
  4.34869     29.1 1.098e+04 4.635e-11
  4.36866     29.1 1.063e+04 4.391e-11
  4.39916     30.1 1.078e+04 5.098e-11
  4.43431     30.4 1.105e+04 8.209e-11
  4.45427     30.9 1.114e+04 9.469e-11
  4.47901     31.5 1.112e+04 2.036e-10
  4.51893     32.7 1.124e+04 4.036e-10
  4.55886     33.7 1.159e+04 5.510e-10
  4.59879     34.2 1.174e+04 5.689e-10
  4.63222     34.5 1.171e+04 5.155e-10
  4.65219     34.9 1.163e+04 4.446e-10
  4.67864     35.1 1.146e+04 3.937e-10
  4.71856     35.6 1.139e+04 3.867e-10
  4.75849     36.0 1.144e+04 4.311e-10
  4.79841     36.5 1.153e+04 5.632e-10
  4.83014     37.3 1.168e+04 6.445e-10
  4.85010     37.7 1.185e+04 7.615e-10
  4.87826     38.3 1.185e+04 7.740e-10
  4.91819     39.4 1.163e+04 6.476e-10
  4.95812     40.5 1.134e+04 4.188e-10
  4.99804     41.5 1.111e+04 2.493e-10
  5.02805     42.2 1.105e+04 1.540e-10
  5.04723     42.6 1.105e+04 1.378e-10
  5.05714     41.9 1.093e+04 1.367e-10
  5.07789     42.9 1.086e+04 1.054e-10
  5.11782     44.3 1.074e+04 9.892e-11
  5.15774     45.8 1.067e+04 9.855e-11
  5.19767     47.4 1.061e+04 9.584e-11
  5.22597     48.9 1.059e+04 8.719e-11
  5.24593     49.2 1.052e+04 7.639e-11
  5.27752     50.6 1.048e+04 6.799e-11
  5.31745     51.7 1.046e+04 6.144e-11
  5.35737     52.8 1.035e+04 6.068e-11
  5.39730     53.9 1.024e+04 6.273e-11
  5.42388     55.2 1.019e+04 6.453e-11
  5.44384     55.8 1.000e+04 5.693e-11
  5.47715     57.0 9.960e+03 6.002e-11
  5.51707     58.1 9.934e+03 6.524e-11
  5.55700     59.3 9.946e+03 7.052e-11
  5.59693     60.5 1.001e+04 7.444e-11
  5.62179     61.3 1.022e+04 7.963e-11
  5.64176     62.3 9.933e+03 7.477e-11
  5.67678     62.3 1.015e+04 7.982e-11
  5.71670     62.0 1.049e+04 1.062e-10
  5.74563     61.5 1.068e+04 2.031e-10
  5.76559     61.9 1.047e+04 1.447e-10
  5.79655     61.4 1.087e+04 2.673e-10
  5.81971     60.7 1.125e+04 4.754e-10
  5.83967     62.7 1.106e+04 4.058e-10
  5.87641     62.2 1.136e+04 6.209e-10
  5.91633     61.8 1.157e+04 6.886e-10
  5.94618     61.1 1.170e+04 6.581e-10
  5.96604     60.7 1.169e+04 5.766e-10
  5.98601     59.8 1.187e+04 5.450e-10
  6.00597     59.2 1.181e+04 5.348e-10
  6.01742     58.0 1.191e+04 5.861e-10
  6.02741     58.8 1.205e+04 6.507e-10
  6.04589     58.0 1.200e+04 7.313e-10
  6.06586     57.3 1.203e+04 8.836e-10
  6.08582     57.3 1.199e+04 1.025e-09
  6.09965     57.1 1.199e+04 1.025e-09
  6.10963     57.3 1.204e+04 1.024e-09
  6.11638     57.2 1.202e+04 1.012e-09
  6.12636     57.7 1.209e+04 1.078e-09
  6.15579     57.5 1.169e+04 9.014e-10
  6.19557     57.6 1.115e+04 6.025e-10
  6.21553     58.1 1.115e+04 5.972e-10
  6.23574     58.3 1.066e+04 3.760e-10
  6.27566     58.7 1.032e+04 2.575e-10
  6.31559     59.4 1.014e+04 2.104e-10
  6.35551     60.5 1.005e+04 1.998e-10
  6.39348     61.9 1.000e+04 2.000e-10
  6.41345     62.5 9.981e+03 2.031e-10
  6.43411     64.0 9.938e+03 1.996e-10
  6.45407     64.2 1.001e+04 2.382e-10
  6.47529     65.8 9.900e+03 2.098e-10
  6.51522     67.7 9.782e+03 1.657e-10
  6.55514     69.4 9.721e+03 1.201e-10
  6.59140     70.9 9.679e+03 8.731e-11
  6.61136     71.5 9.662e+03 8.820e-11
  6.63499     73.2 9.594e+03 7.912e-11
  6.67492     74.9 9.604e+03 8.087e-11
  6.71484     76.5 9.662e+03 8.967e-11
  6.75477     78.0 9.827e+03 1.234e-10
  6.78931     79.7 9.971e+03 1.756e-10
  6.80927     80.5 9.855e+03 1.517e-10
  6.83462     82.2 9.956e+03 1.831e-10
  6.87455     84.0 9.999e+03 1.818e-10
  6.91447     85.8 9.955e+03 1.685e-10
  6.95440     87.8 9.860e+03 1.349e-10
  6.98722     89.8 9.809e+03 9.704e-11
  7.00719     90.4 9.789e+03 9.745e-11
  7.03425     92.3 9.855e+03 6.590e-11
  7.07417     94.1 9.936e+03 4.568e-11
  7.11410     95.8 9.752e+03 3.818e-11
  7.14256     97.9 9.623e+03 3.795e-11
  7.16252     98.1 9.589e+03 3.979e-11
  7.18514    100.3 9.575e+03 3.997e-11
  7.20510    100.9 9.571e+03 4.018e-11
  7.23388    103.3 9.552e+03 4.177e-11
  7.27380    105.6 9.550e+03 4.674e-11
  7.31373    107.7 9.595e+03 5.566e-11
  7.35365    109.8 9.643e+03 7.122e-11
  7.38305    111.9 9.695e+03 9.920e-11
  7.40301    112.6 9.676e+03 9.844e-11
  7.43350    114.8 9.836e+03 1.488e-10
  7.47343    116.8 1.021e+04 2.352e-10
  7.51336    118.2 1.056e+04 3.315e-10
  7.55328    119.0 1.096e+04 4.580e-10
  7.58087    119.0 1.103e+04 4.761e-10
  7.59075    119.4 1.098e+04 4.673e-10
  7.60299    119.3 1.112e+04 5.191e-10
  7.62296    119.2 1.128e+04 5.860e-10
  7.64292    119.1 1.137e+04 6.236e-10
  7.66288    119.0 1.138e+04 6.245e-10
  7.67973    118.8 1.139e+04 6.086e-10
  7.68971    119.1 1.143e+04 6.281e-10
  7.70281    118.9 1.146e+04 6.253e-10
  7.72277    118.5 1.154e+04 6.361e-10
  7.74273    117.9 1.171e+04 6.911e-10
  7.76270    117.5 1.183e+04 8.206e-10
  7.77868    117.5 1.199e+04 1.061e-09
  7.78867    117.8 1.209e+04 1.118e-09
  7.80262    118.0 1.216e+04 1.272e-09
  7.83094    118.2 1.234e+04 1.442e-09
  7.85091    118.9 1.226e+04 1.398e-09
  7.87259    119.4 1.260e+04 1.735e-09
  7.91261    118.9 1.283e+04 1.965e-09
  7.95254    118.6 1.269e+04 1.826e-09
  7.97679    119.0 1.221e+04 1.329e-09
  7.99676    119.6 1.203e+04 1.096e-09
  8.03239    120.4 1.144e+04 6.623e-10
  8.07231    121.5 1.092e+04 3.700e-10
  8.11224    122.7 1.059e+04 2.282e-10
  8.15217    124.1 1.040e+04 1.750e-10
  8.17471    125.9 1.031e+04 1.560e-10
  8.19467    126.8 1.036e+04 1.687e-10
  8.23202    128.8 1.030e+04 1.539e-10
  8.27194    131.0 1.025e+04 1.417e-10
  8.31187    133.3 1.023e+04 1.317e-10
  8.35179    135.7 1.023e+04 1.233e-10
  8.37262    138.0 1.023e+04 1.243e-10
  8.39258    138.6 1.025e+04 1.165e-10
  8.43164    140.9 1.027e+04 1.173e-10
  8.47157    143.1 1.032e+04 1.245e-10
  8.51150    145.2 1.038e+04 1.460e-10
  8.53949    147.3 1.047e+04 1.863e-10
  8.55860    147.0 1.042e+04 1.887e-10
  8.57053    147.4 1.032e+04 1.646e-10
  8.59135    149.4 1.041e+04 2.206e-10
  8.63127    151.3 1.056e+04 2.870e-10
  8.67120    153.1 1.068e+04 3.527e-10
  8.71112    154.8 1.080e+04 4.110e-10
  8.74848    156.4 1.092e+04 4.735e-10
  8.76845    156.8 1.059e+04 3.478e-10
  8.79098    158.1 1.075e+04 4.081e-10
  8.83090    159.0 1.100e+04 5.300e-10
  8.87083    159.7 1.136e+04 7.522e-10
  8.91075    160.1 1.169e+04 1.057e-09
  8.94640    160.2 1.182e+04 1.194e-09
  8.96636    161.1 1.162e+04 1.056e-09
  8.99060    161.2 1.162e+04 1.056e-09
  9.03053    161.3 1.150e+04 9.803e-10
  9.07045    161.7 1.114e+04 7.559e-10
  9.11038    162.4 1.070e+04 4.977e-10
  9.14431    162.9 1.029e+04 3.115e-10
  9.16427    163.9 1.041e+04 3.665e-10
  9.19023    164.4 1.005e+04 2.508e-10
  9.22797    165.0 9.862e+03 2.130e-10
  9.24793    164.5 9.936e+03 2.416e-10
  9.27008    165.1 9.755e+03 2.110e-10
  9.31001    165.8 9.766e+03 2.111e-10
  9.34222    166.7 9.793e+03 2.218e-10
  9.36219    167.6 9.728e+03 2.123e-10
  9.38986    168.5 9.781e+03 2.305e-10
  9.42979    169.5 9.868e+03 2.543e-10
  9.46971    170.4 9.909e+03 2.598e-10
  9.50964    171.3 9.897e+03 2.560e-10
  9.54014    172.4 9.835e+03 2.395e-10
  9.56010    173.6 9.780e+03 2.339e-10
  9.58949    174.8 9.693e+03 2.116e-10
  9.62941    176.0 9.578e+03 1.867e-10
  9.66934    177.3 9.441e+03 1.720e-10
  9.70926    178.8 9.369e+03 1.711e-10
  9.73805    180.4 9.367e+03 1.724e-10
  9.75801    181.6 9.354e+03 1.717e-10
  9.78912    183.3 9.349e+03 1.786e-10
  9.82904    184.9 9.391e+03 1.905e-10
  9.86897    186.6 9.475e+03 2.023e-10
  9.90889    188.3 9.544e+03 2.077e-10
  9.93597    190.0 9.557e+03 2.066e-10
  9.94353    191.1 9.547e+03 2.172e-10
  9.95638    190.4 9.500e+03 2.156e-10
  9.98874    192.1 9.502e+03 2.133e-10
 10.02867    193.8 9.496e+03 2.076e-10
 10.06860    195.7 9.488e+03 2.039e-10
 10.10852    197.6 9.489e+03 2.048e-10
 10.13388    199.6 9.515e+03 2.133e-10
 10.15384    200.4 9.543e+03 2.323e-10
 10.18837    202.4 9.642e+03 2.530e-10
 10.22830    204.4 9.913e+03 3.074e-10
 10.26822    206.1 1.026e+04 3.867e-10
 10.30815    207.0 1.045e+04 4.563e-10
 10.33170    208.3 1.069e+04 5.844e-10
 10.34158    208.8 1.071e+04 5.875e-10
 10.35786    209.9 1.095e+04 7.255e-10
 10.37782    210.9 1.121e+04 8.734e-10
 10.39779    211.8 1.146e+04 1.015e-09
 10.41775    212.5 1.172e+04 1.148e-09
 10.43055    213.1 1.197e+04 1.283e-09
 10.44054    213.5 1.208e+04 1.408e-09
 10.45767    213.9 1.237e+04 1.607e-09
 10.47764    214.1 1.270e+04 1.913e-09
 10.49760    214.3 1.326e+04 2.482e-09
 10.51756    214.6 1.395e+04 3.424e-09
 10.52951    214.8 1.471e+04 4.707e-09
 10.53949    215.0 1.487e+04 4.921e-09
 10.55245    214.6 1.528e+04 5.746e-09
 10.56238    214.4 1.563e+04 6.434e-09
 10.57236    214.1 1.626e+04 7.979e-09
 10.57889    214.0 1.696e+04 1.041e-08
 10.58388    213.9 1.711e+04 1.125e-08
 10.59233    214.1 1.780e+04 1.502e-08
 10.60231    214.3 1.851e+04 1.813e-08
 10.61229    214.3 1.900e+04 1.827e-08
 10.62227    214.0 1.904e+04 1.800e-08
 10.62837    213.5 1.908e+04 1.679e-08
 10.63336    213.7 1.931e+04 1.988e-08
 10.63958    212.9 1.945e+04 1.807e-08
 10.64457    212.7 1.994e+04 2.768e-08
 10.65221    211.7 2.002e+04 2.385e-08
 10.66220    210.7 1.996e+04 2.007e-08
 10.67218    209.5 1.996e+04 1.953e-08
 10.67785    209.0 1.994e+04 1.899e-08
 10.68284    208.9 2.015e+04 1.961e-08
 10.69718    207.2 2.003e+04 1.810e-08
 10.71719    204.5 1.960e+04 1.353e-08
 10.72742    201.9 1.877e+04 9.916e-09
 10.73741    201.0 1.842e+04 9.057e-09
 10.75712    199.8 1.694e+04 6.312e-09
 10.77708    199.7 1.556e+04 4.198e-09
 10.79704    199.8 1.435e+04 2.630e-09
 10.81640    200.0 1.350e+04 1.700e-09
 10.82638    199.6 1.324e+04 1.530e-09
 10.83697    199.7 1.256e+04 1.067e-09
 10.86701    199.1 1.210e+04 7.853e-10
 10.89695    198.7 1.155e+04 5.829e-10
 10.91536    198.5 1.127e+04 4.866e-10
 10.92544    198.7 1.128e+04 5.093e-10
 10.94696    198.9 1.106e+04 3.733e-10
 10.97681    198.7 1.071e+04 2.999e-10
 10.98891    198.5 1.089e+04 2.852e-10
 10.99889    197.5 1.186e+04 3.592e-10
 11.01431    196.5 1.323e+04 5.361e-10
 11.02430    198.2 1.105e+04 2.601e-10
 11.03660    197.5 1.147e+04 2.992e-10
 11.05656    196.5 1.248e+04 4.453e-10
 11.07652    195.5 1.377e+04 8.329e-10
 11.09648    194.8 1.481e+04 1.575e-09
 11.11327    194.3 1.562e+04 2.715e-09
 11.12325    195.4 1.358e+04 9.674e-10
 11.13641    194.9 1.458e+04 1.808e-09
 11.15637    194.8 1.526e+04 2.942e-09
 11.17634    194.9 1.571e+04 4.133e-09
 11.19630    195.0 1.593e+04 5.022e-09
 11.21223    195.0 1.598e+04 5.274e-09
 11.22221    195.8 1.520e+04 3.914e-09
 11.23622    195.8 1.530e+04 4.068e-09
 11.25619    195.7 1.518e+04 3.841e-09
 11.27615    195.3 1.488e+04 3.305e-09
 11.29611    194.9 1.445e+04 2.709e-09
 11.31118    194.3 1.400e+04 2.243e-09
 11.32117    195.4 1.401e+04 2.242e-09
 11.33315    194.6 1.368e+04 1.969e-09
 11.34313    194.7 1.527e+04 3.660e-09
 11.35600    194.0 1.489e+04 3.193e-09
 11.37596    193.3 1.434e+04 2.660e-09
 11.39593    192.8 1.363e+04 2.153e-09
 11.41014    192.9 1.293e+04 1.744e-09
 11.42012    193.4 1.339e+04 2.119e-09
 11.43585    193.6 1.284e+04 1.800e-09
 11.46589    194.1 1.238e+04 1.489e-09
 11.49931    195.2 1.124e+04 9.657e-10
 11.51927    196.2 1.155e+04 1.118e-09
 11.54584    197.2 1.055e+04 6.839e-10
 11.58577    198.8 9.842e+03 4.202e-10
 11.62569    200.8 9.336e+03 2.669e-10
 11.66562    202.9 8.918e+03 1.919e-10
 11.69723    205.3 8.717e+03 1.770e-10
 11.71719    206.0 8.645e+03 1.675e-10
 11.74547    208.7 8.628e+03 1.668e-10
 11.78540    211.5 8.623e+03 1.677e-10
 11.82532    214.2 8.623e+03 1.724e-10
 11.86525    216.9 8.659e+03 1.822e-10
 11.89514    219.4 8.710e+03 1.956e-10
 11.91510    220.3 8.651e+03 1.862e-10
 11.94510    222.7 8.698e+03 1.990e-10
 11.98503    225.1 8.747e+03 2.138e-10
 12.02183    227.5 8.806e+03 2.330e-10
 12.04179    226.8 8.831e+03 2.309e-10
 12.06488    229.2 8.939e+03 2.589e-10
 12.09305    231.6 9.135e+03 3.039e-10
 12.11302    232.7 9.039e+03 2.769e-10
 12.14473    235.2 9.310e+03 3.396e-10
 12.17457    236.5 9.720e+03 4.383e-10
 12.19181    237.0 9.902e+03 4.919e-10
 12.20180    237.6 9.886e+03 4.780e-10
 12.21440    238.4 1.012e+04 5.566e-10
 12.23437    239.4 1.035e+04 6.497e-10
 12.25433    240.4 1.065e+04 7.703e-10
 12.27429    241.4 1.099e+04 9.280e-10
 12.29077    242.2 1.146e+04 1.165e-09
 12.30075    242.7 1.141e+04 1.131e-09
 12.31422    243.3 1.185e+04 1.388e-09
 12.34426    244.6 1.239e+04 1.709e-09
 12.38428    246.0 1.258e+04 1.917e-09
 12.41413    246.7 1.255e+04 1.921e-09
 12.43399    247.3 1.254e+04 1.913e-09
 12.45396    247.7 1.250e+04 1.893e-09
 12.47392    248.3 1.242e+04 1.853e-09
 12.48868    249.2 1.232e+04 1.787e-09
 12.49867    249.5 1.226e+04 1.725e-09
 12.51384    250.2 1.209e+04 1.627e-09
 12.53381    251.1 1.191e+04 1.516e-09
 12.55377    252.0 1.180e+04 1.423e-09
 12.57373    252.9 1.180e+04 1.356e-09
 12.58764    253.8 1.185e+04 1.341e-09
 12.59762    254.1 1.168e+04 1.227e-09
 12.61366    255.3 1.172e+04 1.229e-09
 12.63362    256.3 1.181e+04 1.244e-09
 12.65358    257.3 1.187e+04 1.258e-09
 12.67355    258.2 1.193e+04 1.275e-09
 12.68660    259.0 1.209e+04 1.339e-09
 12.69658    259.5 1.195e+04 1.238e-09
 12.71347    260.1 1.215e+04 1.344e-09
 12.73008    260.6 1.239e+04 1.528e-09
 12.74006    259.9 1.213e+04 1.552e-09
 12.75340    260.7 1.235e+04 1.689e-09
 12.77336    261.3 1.260e+04 1.867e-09
 12.78555    261.9 1.283e+04 2.055e-09
 12.79554    262.3 1.266e+04 1.921e-09
 12.81329    262.9 1.292e+04 2.108e-09
 12.83325    263.5 1.311e+04 2.222e-09
 12.85321    263.8 1.314e+04 2.229e-09
 12.87318    264.1 1.313e+04 2.210e-09
 12.88451    264.3 1.307e+04 2.119e-09
 12.89449    264.7 1.316e+04 2.081e-09
 12.91310    265.0 1.302e+04 1.912e-09
 12.93306    265.3 1.283e+04 1.712e-09
 12.95303    265.6 1.261e+04 1.529e-09
 12.97299    265.8 1.240e+04 1.383e-09
 12.98347    266.1 1.221e+04 1.273e-09
 12.99345    266.4 1.215e+04 1.225e-09
 13.01291    266.7 1.195e+04 1.164e-09
 13.03288    267.0 1.181e+04 1.130e-09
 13.05284    267.3 1.175e+04 1.121e-09
 13.07244    267.7 1.174e+04 1.132e-09
 13.08242    267.9 1.161e+04 1.147e-09
 13.08431    268.2 1.162e+04 1.230e-09
 13.09429    267.5 1.160e+04 1.329e-09
 13.11273    267.7 1.177e+04 1.533e-09
 13.13269    267.8 1.197e+04 1.795e-09
 13.15265    268.0 1.215e+04 2.102e-09
 13.17140    268.1 1.237e+04 2.369e-09
 13.18138    268.4 1.250e+04 2.462e-09
 13.19258    268.4 1.276e+04 2.728e-09
 13.21254    268.4 1.300e+04 2.761e-09
 13.23251    268.1 1.303e+04 2.737e-09
 13.25247    267.7 1.311e+04 2.582e-09
 13.27036    267.4 1.314e+04 2.235e-09
 13.28034    267.3 1.309e+04 2.205e-09
 13.29239    266.7 1.294e+04 1.754e-09
 13.31236    265.8 1.266e+04 1.343e-09
 13.33232    264.7 1.225e+04 1.026e-09
 13.35228    263.6 1.174e+04 7.991e-10
 13.36931    262.5 1.123e+04 6.419e-10
 13.37930    262.3 1.024e+04 4.599e-10
 13.39221    261.2 9.885e+03 3.950e-10
 13.41217    260.3 9.872e+03 3.870e-10
 13.42855    259.6 9.883e+03 3.883e-10
 13.43853    259.0 9.839e+03 3.865e-10
 13.45210    258.5 9.989e+03 3.951e-10
 13.46827    257.9 1.030e+04 4.350e-10
 13.47825    258.6 1.019e+04 4.197e-10
 13.49202    258.0 1.051e+04 4.901e-10
 13.51199    257.4 1.089e+04 6.194e-10
 13.53195    256.7 1.128e+04 7.968e-10
 13.55191    256.0 1.160e+04 9.529e-10
 13.56723    255.1 1.172e+04 9.707e-10
 13.57721    255.7 1.198e+04 1.178e-09
 13.59184    254.5 1.202e+04 1.166e-09
 13.62188    253.2 1.191e+04 1.055e-09
 13.65640    252.2 1.145e+04 8.144e-10
 13.67636    252.0 1.238e+04 1.210e-09
 13.70183    250.7 1.141e+04 6.868e-10
 13.74175    249.0 1.005e+04 3.121e-10
 13.78168    247.0 8.777e+03 1.402e-10
 13.82160    244.9 8.491e+03 9.485e-11
 13.85431    243.8 8.390e+03 9.188e-11
 13.87427    243.3 8.401e+03 1.001e-10
 13.90146    243.2 8.390e+03 1.003e-10
 13.94138    243.3 8.374e+03 1.018e-10
 13.98131    243.7 8.338e+03 1.088e-10
 14.02123    244.2 8.379e+03 1.295e-10
 14.05223    244.5 8.589e+03 1.697e-10
 14.07219    244.7 8.680e+03 1.805e-10
 14.10108    244.6 9.050e+03 2.514e-10
 14.12721    243.8 9.394e+03 3.352e-10
 14.14717    244.9 9.348e+03 3.161e-10
 14.17086    244.5 9.624e+03 3.928e-10
 14.19072    244.1 1.006e+04 5.309e-10
 14.21068    243.3 1.056e+04 7.501e-10
 14.23065    242.4 1.097e+04 9.892e-10
 14.24994    241.5 1.124e+04 1.137e-09
 14.25993    241.2 1.132e+04 1.143e-09
 14.27057    239.9 1.131e+04 1.140e-09
 14.29053    238.6 1.125e+04 1.103e-09
 14.31050    237.5 1.103e+04 9.868e-10
 14.33046    236.4 1.068e+04 8.221e-10
 14.34890    235.2 1.031e+04 6.802e-10
 14.35888    234.7 1.014e+04 6.215e-10
 14.37039    233.5 1.012e+04 6.090e-10
 14.39035    232.1 1.018e+04 6.247e-10
 14.41031    230.6 1.046e+04 7.160e-10
 14.43027    229.2 1.099e+04 9.540e-10
 14.44786    228.3 1.153e+04 1.317e-09
 14.45784    227.6 1.158e+04 1.373e-09
 14.47020    227.0 1.194e+04 1.672e-09
 14.48124    226.3 1.201e+04 1.698e-09
 14.49122    227.2 1.235e+04 2.026e-09
 14.51013    226.7 1.229e+04 1.914e-09
 14.53009    226.2 1.199e+04 1.551e-09
 14.54681    225.6 1.138e+04 1.072e-09
 14.55680    224.1 1.132e+04 1.073e-09
 14.57001    222.8 1.078e+04 9.083e-10
 14.58998    219.8 1.138e+04 9.851e-10
 14.60994    213.9 1.381e+04 1.445e-09
 14.62486    210.8 1.459e+04 1.933e-09
 14.63480    210.0 1.482e+04 2.205e-09
 14.64478    208.6 1.586e+04 2.755e-09
 14.65066    203.7 1.967e+04 4.940e-09
 14.65416    198.7 2.229e+04 7.630e-09
 14.65825    200.2 2.172e+04 7.422e-09
 14.66474    192.5 2.729e+04 2.064e-08
 14.67472    184.0 2.600e+04 1.074e-07
 14.68470    178.9 2.332e+04 3.654e-07
 14.69216    176.1 2.172e+04 8.213e-07
 14.69713    174.6 2.046e+04 1.810e-06
 14.70009    173.0 1.954e+04 3.653e-06
 14.70259    171.1 2.003e+04 2.805e-06
 14.70711    169.1 1.998e+04 3.455e-06
 14.71210    165.5 2.046e+04 2.180e-06
 14.71709    163.8 2.085e+04 1.870e-06
 14.72460    157.4 2.512e+04 3.387e-07
 14.73461    149.7 3.266e+04 3.447e-08
 14.74459    142.1 2.431e+04 1.633e-08
 14.75457    133.0 1.778e+04 9.888e-09
 14.76959    128.7 1.633e+04 5.746e-09
 14.78960    127.2 1.486e+04 3.058e-09
 14.80957    126.0 1.451e+04 1.442e-09
 14.82548    124.0 1.327e+04 6.952e-10
 14.83546    125.4 1.434e+04 1.870e-09
 14.84368    124.0 1.337e+04 9.682e-10
 14.85367    124.3 1.295e+04 1.013e-09
 14.86946    123.3 1.217e+04 5.966e-10
 14.88942    123.2 1.113e+04 4.385e-10
 14.90938    123.6 1.050e+04 4.167e-10
 14.92934    124.7 1.047e+04 4.221e-10
 14.94264    126.0 1.054e+04 4.501e-10
 14.95262    125.7 1.115e+04 5.544e-10
 14.96927    127.0 1.152e+04 6.476e-10
 14.98923    128.3 1.195e+04 7.830e-10
 15.00920    129.5 1.234e+04 9.555e-10
 15.02916    130.9 1.266e+04 1.163e-09
 15.04160    132.4 1.296e+04 1.414e-09
 15.05158    131.6 1.340e+04 1.905e-09
 15.06908    133.0 1.364e+04 2.275e-09
 15.08905    134.4 1.386e+04 2.654e-09
 15.10901    135.9 1.411e+04 3.039e-09
 15.12897    137.5 1.447e+04 3.451e-09
 15.14055    138.8 1.484e+04 3.881e-09
 15.15054    138.0 1.542e+04 4.814e-09
 15.16890    139.2 1.579e+04 5.092e-09
 15.17970    140.4 1.629e+04 5.024e-09
 15.18968    138.6 1.605e+04 3.601e-09
 15.20882    139.2 1.582e+04 3.225e-09
 15.22879    139.6 1.536e+04 2.814e-09
 15.23951    140.0 1.474e+04 2.399e-09
 15.24949    137.5 1.338e+04 1.798e-09
 15.26871    137.8 1.257e+04 1.522e-09
 15.28868    138.1 1.197e+04 1.346e-09
 15.30864    138.3 1.185e+04 1.286e-09
 15.32849    138.1 1.184e+04 1.283e-09
 15.33847    136.1 1.186e+04 1.318e-09
 15.34856    135.7 1.193e+04 1.371e-09
 15.36853    134.7 1.222e+04 1.545e-09
 15.38849    132.9 1.286e+04 1.962e-09
 15.40845    130.9 1.360e+04 2.678e-09
 15.42744    129.3 1.409e+04 3.457e-09
 15.43743    128.7 1.393e+04 3.371e-09
 15.44838    127.5 1.385e+04 3.261e-09
 15.46834    126.5 1.347e+04 2.781e-09
 15.49838    124.5 1.206e+04 1.219e-09
 15.52414    121.9 9.693e+03 3.994e-10
 15.54410    125.1 1.036e+04 4.614e-10
 15.57833    122.0 8.041e+03 1.747e-10
 15.61557    121.0 7.733e+03 1.473e-10
 15.63553    120.6 7.682e+03 1.436e-10
 15.65818    121.6 7.670e+03 1.476e-10
 15.69811    123.1 7.700e+03 1.607e-10
 15.73803    124.8 7.767e+03 1.779e-10
 15.77796    126.4 7.831e+03 1.937e-10
 15.81348    128.1 7.856e+03 1.982e-10
 15.83345    128.0 7.876e+03 2.007e-10
 15.85781    129.6 7.842e+03 1.947e-10
 15.89774    131.1 7.685e+03 1.671e-10
 15.93766    132.7 7.493e+03 1.304e-10
 15.97759    134.2 7.258e+03 9.560e-11
 16.01140    135.8 7.009e+03 7.079e-11
 16.03136    135.4 6.840e+03 5.932e-11
 16.05744    137.2 6.789e+03 5.747e-11
 16.09736    139.4 6.786e+03 5.787e-11
 16.13729    141.8 6.787e+03 6.061e-11
 16.17722    144.3 6.848e+03 6.844e-11
 16.20931    146.8 6.978e+03 8.196e-11
 16.22476    146.9 7.002e+03 8.469e-11
 16.23259    147.0 6.915e+03 8.143e-11
 16.25707    149.6 7.083e+03 1.011e-10
 16.29699    152.1 7.306e+03 1.279e-10
 16.33692    154.6 7.557e+03 1.619e-10
 16.37684    156.9 7.800e+03 1.986e-10
 16.40723    159.0 8.003e+03 2.309e-10
 16.42719    159.0 8.116e+03 2.454e-10
 16.45669    160.9 8.282e+03 2.713e-10
 16.49662    162.6 8.400e+03 2.892e-10
 16.53655    164.1 8.519e+03 3.088e-10
 16.57647    165.3 8.708e+03 3.461e-10
 16.60514    166.3 9.022e+03 4.169e-10
 16.62510    166.0 9.099e+03 4.374e-10
 16.65632    166.7 9.446e+03 5.289e-10
 16.69625    167.0 9.740e+03 5.852e-10
 16.73617    166.8 9.777e+03 5.834e-10
 16.77610    166.7 9.764e+03 5.504e-10
 16.80305    166.6 9.622e+03 4.680e-10
 16.82302    166.3 9.529e+03 4.193e-10
 16.85595    166.4 9.272e+03 3.264e-10
 16.89588    166.6 9.064e+03 2.702e-10
 16.92107    167.3 9.046e+03 2.599e-10
 16.94103    167.4 9.316e+03 2.922e-10
 16.97573    168.0 9.295e+03 2.766e-10
 17.00097    168.8 9.301e+03 2.743e-10
 17.02093    168.9 9.321e+03 2.832e-10
 17.05558    169.7 9.370e+03 2.863e-10
 17.09550    170.4 9.498e+03 2.886e-10
 17.13543    170.9 9.592e+03 2.881e-10
 17.17536    171.3 9.605e+03 2.857e-10
 17.19888    171.8 9.627e+03 2.724e-10
 17.21884    171.6 9.752e+03 2.905e-10
 17.25521    172.3 9.705e+03 2.512e-10
 17.29513    173.1 9.644e+03 2.205e-10
 17.33506    174.2 9.638e+03 2.151e-10
 17.37498    175.5 9.653e+03 2.177e-10
 17.39679    176.8 9.739e+03 2.324e-10
 17.41676    176.6 9.685e+03 2.157e-10
 17.45484    178.1 9.800e+03 2.425e-10
 17.49476    179.5 9.958e+03 2.755e-10
 17.53469    181.0 1.012e+04 3.040e-10
 17.57461    182.4 1.027e+04 3.238e-10
 17.60955    184.0 1.029e+04 2.955e-10
 17.62952    183.6 1.033e+04 2.557e-10
 17.65446    184.9 1.052e+04 2.680e-10
 17.69439    185.9 1.073e+04 2.922e-10
 17.73431    186.7 1.093e+04 3.252e-10
 17.77266    187.4 1.107e+04 3.599e-10
 17.79262    187.5 1.104e+04 3.364e-10
 17.81417    187.9 1.119e+04 3.716e-10
 17.85409    188.2 1.124e+04 3.864e-10
 17.89402    188.3 1.121e+04 3.952e-10
 17.93394    188.3 1.123e+04 4.222e-10
 17.96368    188.0 1.125e+04 4.227e-10
 17.97356    188.0 1.122e+04 4.185e-10
 17.98036    187.8 1.128e+04 4.339e-10
 17.99044    188.2 1.121e+04 4.156e-10
 18.00372    187.7 1.128e+04 4.538e-10
 18.02358    187.1 1.142e+04 5.051e-10
 18.04354    186.3 1.166e+04 6.005e-10
 18.06351    185.4 1.199e+04 7.621e-10
 18.07931    184.2 1.245e+04 1.024e-09
 18.08930    184.1 1.263e+04 1.115e-09
 18.10343    182.9 1.329e+04 1.630e-09
 18.12339    181.7 1.389e+04 2.173e-09
 18.14336    180.1 1.418e+04 2.303e-09
 18.16332    178.1 1.413e+04 2.228e-09
 18.17827    176.5 1.381e+04 1.857e-09
 18.18825    176.4 1.378e+04 1.811e-09
 18.20325    175.2 1.314e+04 1.202e-09
 18.22321    173.9 1.244e+04 7.253e-10
 18.24317    172.2 1.171e+04 4.632e-10
 18.26313    170.6 1.115e+04 4.059e-10
 18.27723    170.0 1.110e+04 4.041e-10
 18.28721    170.0 1.113e+04 4.157e-10
 18.30306    169.8 1.112e+04 4.219e-10
 18.31781    169.6 1.112e+04 4.591e-10
 18.32779    169.2 1.110e+04 4.703e-10
 18.34299    168.8 1.125e+04 5.331e-10
 18.36630    168.6 1.144e+04 5.705e-10
 18.38626    168.4 1.151e+04 6.234e-10
 18.41295    168.6 1.146e+04 5.888e-10
 18.45298    168.2 1.129e+04 4.630e-10
 18.49290    167.5 1.093e+04 3.082e-10
 18.53283    166.8 1.061e+04 2.385e-10
 18.56431    166.9 1.058e+04 2.415e-10
 18.58428    168.1 1.042e+04 2.223e-10
 18.61268    168.7 1.054e+04 2.455e-10
 18.65260    169.4 1.079e+04 3.118e-10
 18.69253    169.6 1.096e+04 3.908e-10
 18.72238    170.4 1.100e+04 4.898e-10
 18.74224    171.4 1.114e+04 6.012e-10
 18.76203    172.0 1.136e+04 6.927e-10
 18.77201    172.7 1.159e+04 8.590e-10
 18.78217    172.8 1.193e+04 9.012e-10
 18.80213    172.7 1.204e+04 8.975e-10
 18.82209    172.3 1.205e+04 8.911e-10
 18.84206    171.7 1.203e+04 8.428e-10
 18.86099    170.9 1.193e+04 7.262e-10
 18.87097    171.4 1.228e+04 9.192e-10
 18.88198    170.5 1.203e+04 6.908e-10
 18.90194    169.6 1.179e+04 5.335e-10
 18.93199    168.6 1.150e+04 3.797e-10
 18.96014    167.5 1.106e+04 2.757e-10
 18.98010    167.6 1.124e+04 3.076e-10
 19.00649    167.3 1.089e+04 2.592e-10
 19.02645    169.0 1.079e+04 2.532e-10
 19.05186    169.1 1.059e+04 2.158e-10
 19.09179    169.4 1.046e+04 1.926e-10
 19.13171    170.0 1.033e+04 1.707e-10
 19.15805    170.6 1.013e+04 1.591e-10
 19.17802    171.0 1.033e+04 1.672e-10
 19.21156    171.8 1.023e+04 1.648e-10
 19.25149    172.7 1.021e+04 1.683e-10
 19.29141    173.6 1.017e+04 1.869e-10
 19.33134    174.6 1.026e+04 2.302e-10
 19.35597    175.5 1.045e+04 2.979e-10
 19.37593    176.3 1.064e+04 2.946e-10
 19.41119    176.3 1.080e+04 3.721e-10
 19.44104    176.4 1.076e+04 4.334e-10
 19.45473    176.9 1.080e+04 5.221e-10
 19.46471    177.6 1.102e+04 5.811e-10
 19.48087    178.2 1.125e+04 7.394e-10
 19.50083    178.4 1.150e+04 8.005e-10
 19.52079    178.3 1.154e+04 7.945e-10
 19.54075    178.1 1.157e+04 7.506e-10
 19.55368    177.6 1.148e+04 6.507e-10
 19.56367    178.3 1.184e+04 8.322e-10
 19.58068    177.7 1.156e+04 6.760e-10
 19.60064    177.0 1.118e+04 5.385e-10
 19.62061    176.3 1.081e+04 4.579e-10
 19.64057    175.9 1.062e+04 4.385e-10
 19.65264    175.8 1.062e+04 4.388e-10
 19.66262    176.0 1.081e+04 4.915e-10
 19.68049    175.9 1.083e+04 4.921e-10
 19.70046    175.9 1.087e+04 4.955e-10
 19.71474    175.6 1.093e+04 5.003e-10
 19.72472    176.3 1.105e+04 5.511e-10
 19.74038    175.9 1.111e+04 5.631e-10
 19.75160    175.3 1.124e+04 5.972e-10
 19.76158    175.2 1.134e+04 6.111e-10
 19.78031    174.4 1.151e+04 6.524e-10
 19.80027    173.4 1.184e+04 7.561e-10
 19.82023    172.9 1.199e+04 8.166e-10
 19.85028    171.2 1.249e+04 1.035e-09
 19.89030    169.7 1.248e+04 1.113e-09
 19.92974    168.2 1.243e+04 1.092e-09
 19.94971    165.5 1.285e+04 1.237e-09
 19.97015    164.5 1.240e+04 1.036e-09
 20.01008    163.8 1.184e+04 7.561e-10
 20.05000    163.6 1.132e+04 5.343e-10
 20.08993    163.5 1.090e+04 4.280e-10
 20.12766    163.9 1.086e+04 4.282e-10
 20.14762    163.1 1.063e+04 3.939e-10
 20.16978    164.1 1.055e+04 3.980e-10
 20.20970    165.5 1.053e+04 4.149e-10
 20.24963    166.9 1.067e+04 4.497e-10
 20.28955    168.3 1.102e+04 4.947e-10
 20.32557    169.6 1.143e+04 5.360e-10
 20.34553    169.2 1.018e+04 3.697e-10
 20.36941    170.5 1.033e+04 3.610e-10
 20.40342    172.0 1.042e+04 3.427e-10
 20.42338    171.4 9.704e+03 2.666e-10
 20.44926    173.1 9.627e+03 2.453e-10
 20.48918    174.8 9.580e+03 2.161e-10
 20.52349    176.5 9.676e+03 1.959e-10
 20.54345    176.0 9.182e+03 1.719e-10
 20.56903    177.8 9.198e+03 1.706e-10
 20.60896    179.8 9.245e+03 1.737e-10
 20.64889    181.9 9.436e+03 1.918e-10
 20.68881    183.7 9.868e+03 2.269e-10
 20.71866    183.4 9.935e+03 2.458e-10
 20.73118    183.6 9.975e+03 2.597e-10
 20.74117    181.8 1.000e+04 2.675e-10
 20.75744    182.1 1.006e+04 2.799e-10
 20.76743    181.0 1.005e+04 2.819e-10
 20.77845    180.5 1.008e+04 2.931e-10
 20.79841    179.6 1.022e+04 3.100e-10
 20.81837    177.7 1.077e+04 3.558e-10
 20.83014    173.1 1.173e+04 5.457e-10
 20.84012    170.4 1.172e+04 6.583e-10
 20.85830    161.2 1.308e+04 1.661e-09
 20.87826    148.7 1.823e+04 3.586e-09
 20.89319    139.9 2.157e+04 5.435e-09
 20.90312    128.1 2.900e+04 9.672e-09
 20.91310    111.4 3.048e+04 4.659e-08
 20.92308     99.4 2.505e+04 2.141e-07
 20.92900     93.1 2.184e+04 3.341e-07
 20.93399     93.7 2.366e+04 1.420e-07
 20.93945     90.6 2.278e+04 1.374e-07
 20.94444     89.6 2.595e+04 6.170e-08
 20.95303     86.8 2.556e+04 4.785e-08
 20.96301     83.9 2.641e+04 2.960e-08
 20.97299     79.6 2.719e+04 1.601e-08
 20.97848     74.6 2.668e+04 9.063e-09
 20.98347     72.2 2.467e+04 6.819e-09
 20.99799     64.8 2.228e+04 4.951e-09
 21.01800     55.7 1.555e+04 2.637e-09
 21.03796     50.9 1.334e+04 1.594e-09
 21.05793     47.8 1.273e+04 1.293e-09
 21.07789     44.7 1.260e+04 1.299e-09
 21.09785     43.1 1.247e+04 1.317e-09
 21.11167     42.3 1.237e+04 1.357e-09
 21.12086     42.5 1.212e+04 1.166e-09
 21.13709     41.8 1.173e+04 8.575e-10
 21.15784     39.8 1.112e+04 9.050e-10
 21.17770     35.5 1.382e+04 1.245e-09
 21.19767     27.4 1.836e+04 2.724e-09
 21.21599     22.7 1.864e+04 5.436e-09
 21.22597     24.4 1.619e+04 2.262e-09
 21.23759     21.9 1.585e+04 3.697e-09
 21.25756     21.6 1.574e+04 4.604e-09
 21.27752     21.4 1.539e+04 3.405e-09
 21.29748     18.4 1.551e+04 2.014e-09
 21.31494     11.6 1.306e+04 1.074e-09
 21.32493     13.8 1.227e+04 9.825e-10
 21.33741     11.4 1.176e+04 8.194e-10
 21.35737      9.8 1.164e+04 7.443e-10
 21.37733      9.5 1.205e+04 8.114e-10
 21.39730      9.4 1.205e+04 8.258e-10
 21.41390      9.5 1.204e+04 8.330e-10
 21.42388     12.1 1.157e+04 7.123e-10
 21.43722     13.0 1.158e+04 7.276e-10
 21.45591     13.9 1.163e+04 7.384e-10
 21.46589     13.0 1.112e+04 6.341e-10
 21.47715     13.6 1.389e+04 6.563e-10
 21.49711    -11.8 4.689e+04 1.136e-09
 21.51203    -31.6 4.313e+04 8.301e-09
 21.51775    -36.1 2.778e+04 7.975e-08
 21.52274    -35.9 2.937e+04 7.696e-08
 21.53195    -42.6 2.584e+04 2.111e-07
 21.54193    -57.2 2.712e+04 2.147e-07
 21.55191    -85.4 3.116e+04 3.513e-08
 21.56189   -121.7 2.267e+04 1.999e-09
 21.56723   -131.5 1.425e+04 1.004e-09
 21.57222   -133.8 1.449e+04 1.034e-09
 21.58185   -134.8 1.313e+04 9.597e-10
 21.59687   -134.3 1.287e+04 9.244e-10
 21.61181   -135.5 1.246e+04 9.711e-10
 21.62180   -137.7 1.239e+04 1.032e-09
 21.63685   -136.8 1.223e+04 1.111e-09
 21.65681   -136.4 1.228e+04 1.168e-09
 21.67677   -136.3 1.233e+04 1.234e-09
 21.69674   -136.9 1.278e+04 1.397e-09
 21.71077   -139.0 1.361e+04 1.774e-09
 21.72075   -138.9 1.368e+04 1.779e-09
 21.73666   -141.3 1.446e+04 2.447e-09
 21.75663   -143.5 1.506e+04 3.336e-09
 21.77659   -145.9 1.584e+04 4.307e-09
 21.79655   -148.8 1.725e+04 5.459e-09
 21.80973   -152.2 1.902e+04 6.880e-09
 21.81333   -149.2 1.762e+04 5.321e-09
 21.82011   -146.0 1.661e+04 5.093e-09
 21.83648   -149.3 1.831e+04 5.824e-09
 21.85644   -153.4 2.020e+04 7.285e-09
 21.87640   -157.8 2.136e+04 9.734e-09
 21.89637   -162.1 2.142e+04 1.266e-08
 21.90869   -165.7 2.101e+04 1.418e-08
 21.91867   -163.7 2.086e+04 1.339e-08
 21.93629   -166.6 2.068e+04 1.417e-08
 21.95625   -168.8 2.008e+04 1.399e-08
 21.97622   -170.0 1.881e+04 1.090e-08
 21.99618   -170.7 1.736e+04 6.796e-09
 22.00764   -171.5 1.571e+04 3.841e-09
 22.01762   -170.2 1.630e+04 4.498e-09
 22.03611   -171.2 1.452e+04 2.535e-09
 22.05607   -171.9 1.301e+04 1.514e-09
 22.07603   -172.1 1.201e+04 1.004e-09
 22.09599   -171.9 1.138e+04 7.365e-10
 22.10660   -171.7 1.094e+04 5.899e-10
 22.11658   -170.7 1.119e+04 6.904e-10
 22.13592   -170.2 1.084e+04 5.804e-10
 22.15438   -169.6 1.066e+04 5.240e-10
 22.16436   -168.3 1.080e+04 5.892e-10
 22.17585   -167.8 1.072e+04 5.438e-10
 22.19557   -167.3 1.072e+04 5.316e-10
 22.20556   -166.1 1.084e+04 5.752e-10
 22.21577   -165.6 1.085e+04 5.705e-10
 22.23573   -166.6 1.115e+04 5.823e-10
 22.25570   -170.1 1.325e+04 9.350e-10
 22.27566   -173.6 1.548e+04 2.182e-09
 22.29453   -176.9 1.711e+04 4.391e-09
 22.30451   -176.6 1.833e+04 6.070e-09
 22.31558   -179.9 1.957e+04 1.008e-08
 22.33555   -183.9 2.021e+04 1.185e-08
 22.34895   -187.9 1.988e+04 1.081e-08
 22.35389   -186.9 2.081e+04 1.345e-08
 22.36040   -189.8 2.110e+04 1.427e-08
 22.37038   -193.1 2.119e+04 1.517e-08
 22.38037   -196.2 2.107e+04 1.613e-08
 22.39035   -199.2 2.079e+04 1.704e-08
 22.39838   -201.9 2.067e+04 1.729e-08
 22.40337   -201.8 2.151e+04 2.228e-08
 22.41031   -204.1 2.085e+04 2.240e-08
 22.42029   -205.6 2.007e+04 2.092e-08
 22.43027   -206.6 1.929e+04 1.852e-08
 22.44025   -207.1 1.858e+04 1.592e-08
 22.44786   -207.4 1.794e+04 1.342e-08
 22.45285   -207.4 1.818e+04 1.515e-08
 22.46022   -207.6 1.753e+04 1.244e-08
 22.47020   -207.9 1.688e+04 1.012e-08
 22.48018   -208.1 1.624e+04 8.239e-09
 22.49016   -208.3 1.566e+04 6.866e-09
 22.49734   -208.3 1.527e+04 6.049e-09
 22.50233   -208.4 1.537e+04 6.426e-09
 22.50855   -208.4 1.503e+04 5.777e-09
 22.51858   -208.1 1.487e+04 5.455e-09
 22.53518   -208.2 1.451e+04 4.781e-09
 22.55514   -207.8 1.382e+04 3.750e-09
 22.57510   -207.0 1.309e+04 2.874e-09
 22.59140   -206.2 1.258e+04 2.288e-09
 22.60138   -205.9 1.283e+04 2.542e-09
 22.61503   -205.4 1.253e+04 2.130e-09
 22.63499   -205.0 1.234e+04 1.884e-09
 22.65495   -204.7 1.225e+04 1.776e-09
 22.67492   -204.3 1.223e+04 1.755e-09
 22.69036   -203.9 1.224e+04 1.760e-09
 22.70034   -203.6 1.247e+04 1.922e-09
 22.71484   -203.2 1.254e+04 1.973e-09
 22.73480   -202.9 1.269e+04 2.063e-09
 22.75477   -202.7 1.280e+04 2.120e-09
 22.77473   -202.5 1.282e+04 2.136e-09
 22.78931   -202.4 1.281e+04 2.083e-09
 22.79930   -202.1 1.270e+04 1.932e-09
 22.81465   -202.0 1.256e+04 1.753e-09
 22.83462   -202.1 1.239e+04 1.570e-09
 22.85284   -202.5 1.223e+04 1.413e-09
 22.86282   -202.6 1.220e+04 1.421e-09
 22.87454   -203.0 1.211e+04 1.349e-09
 22.88827   -203.6 1.209e+04 1.320e-09
 22.89825   -202.9 1.199e+04 1.262e-09
 22.91447   -203.4 1.208e+04 1.287e-09
 22.93443   -204.0 1.223e+04 1.349e-09
 22.95439   -204.7 1.234e+04 1.417e-09
 22.97436   -205.3 1.240e+04 1.471e-09
 22.98723   -206.0 1.243e+04 1.510e-09
 22.99721   -205.3 1.257e+04 1.571e-09
 23.01428   -206.3 1.267e+04 1.626e-09
 23.03425   -207.5 1.288e+04 1.728e-09
 23.05421   -209.3 1.320e+04 1.930e-09
 23.07417   -211.4 1.363e+04 2.295e-09
 23.08619   -213.7 1.416e+04 2.873e-09
 23.09617   -213.7 1.457e+04 3.487e-09
 23.11410   -215.9 1.519e+04 4.454e-09
 23.13406   -218.0 1.573e+04 5.295e-09
 23.15402   -220.2 1.606e+04 5.675e-09
 23.17399   -222.4 1.612e+04 5.726e-09
 23.18514   -224.7 1.613e+04 5.201e-09
 23.19008   -223.5 1.616e+04 5.501e-09
 23.19884   -224.2 1.605e+04 5.058e-09
 23.20701   -226.1 1.569e+04 4.167e-09
 23.21705   -228.8 1.454e+04 2.762e-09
 23.23387   -230.6 1.356e+04 2.035e-09
 23.25384   -231.7 1.273e+04 1.560e-09
 23.27380   -232.1 1.218e+04 1.254e-09
 23.28410   -232.1 1.186e+04 1.048e-09
 23.29408   -231.5 1.187e+04 1.035e-09
 23.31373   -231.4 1.164e+04 8.893e-10
 23.33369   -231.2 1.137e+04 7.518e-10
 23.35365   -230.3 1.100e+04 6.015e-10
 23.37307   -228.8 1.062e+04 4.638e-10
 23.38306   -228.5 1.075e+04 5.037e-10
 23.39358   -227.1 1.050e+04 4.133e-10
 23.41354   -226.2 1.038e+04 3.660e-10
 23.44358   -225.9 1.031e+04 3.344e-10
 23.47223   -224.1 1.018e+04 2.956e-10
 23.49219   -222.8 1.016e+04 2.981e-10
 23.52353   -220.7 1.000e+04 2.655e-10
 23.56346   -218.6 9.890e+03 2.398e-10
 23.60338   -216.4 9.785e+03 2.160e-10
 23.64331   -214.2 9.682e+03 1.964e-10
 23.67014   -211.9 9.616e+03 1.824e-10
 23.69010   -211.2 9.639e+03 1.828e-10
 23.72316   -208.9 9.582e+03 1.723e-10
 23.76308   -206.5 9.559e+03 1.684e-10
 23.80301   -204.0 9.562e+03 1.695e-10
 23.84294   -201.6 9.652e+03 1.821e-10
 23.86805   -199.1 9.830e+03 2.235e-10
 23.88802   -198.0 9.699e+03 1.907e-10
 23.90572   -195.4 9.914e+03 2.548e-10
 23.92569   -195.8 1.025e+04 3.831e-10
 23.96271   -193.2 1.104e+04 4.693e-10
 23.99256   -191.9 1.154e+04 5.361e-10
 24.01242   -192.0 1.245e+04 6.091e-10
 24.03239   -192.4 1.373e+04 7.526e-10
 24.05235   -193.4 1.495e+04 1.089e-09
 24.06577   -194.6 1.560e+04 1.828e-09
 24.07575   -195.4 1.610e+04 3.153e-09
 24.09227   -195.8 1.625e+04 4.973e-09
 24.11224   -195.7 1.650e+04 7.122e-09
 24.13220   -195.2 1.685e+04 9.155e-09
 24.15216   -194.7 1.716e+04 1.059e-08
 24.16473   -194.4 1.726e+04 1.098e-08
 24.17471   -194.5 1.788e+04 1.140e-08
 24.19209   -194.4 1.772e+04 9.386e-09
 24.21205   -194.7 1.752e+04 6.783e-09
 24.23201   -195.7 1.704e+04 4.498e-09
 24.24977   -197.0 1.617e+04 2.875e-09
 24.25975   -199.9 1.426e+04 1.421e-09
 24.26369   -200.3 1.359e+04 1.174e-09
 24.27367   -200.9 1.317e+04 1.015e-09
 24.29190   -200.7 1.293e+04 9.374e-10
 24.31187   -200.3 1.274e+04 8.864e-10
 24.33183   -199.8 1.258e+04 8.403e-10
 24.35179   -199.3 1.246e+04 7.978e-10
 24.36264   -198.7 1.236e+04 7.581e-10
 24.37262   -198.7 1.237e+04 7.589e-10
 24.40180   -197.9 1.228e+04 7.130e-10
 24.44182   -195.9 1.213e+04 6.664e-10
 24.48175   -194.0 1.212e+04 6.797e-10
 24.52167   -192.6 1.209e+04 6.744e-10
 24.56160   -191.1 1.209e+04 6.799e-10
 24.59421   -189.6 1.212e+04 7.147e-10
 24.61417   -190.0 1.197e+04 6.752e-10
 24.63975   -188.3 1.199e+04 6.838e-10
 24.65971   -187.5 1.200e+04 6.829e-10
 24.68137   -185.9 1.217e+04 7.413e-10
 24.71122   -184.7 1.233e+04 8.394e-10
 24.73108   -184.2 1.240e+04 8.783e-10
 24.74849   -183.5 1.254e+04 9.673e-10
 24.75847   -183.6 1.264e+04 1.048e-09
 24.77101   -183.3 1.275e+04 1.146e-09
 24.79097   -182.8 1.279e+04 1.223e-09
 24.81094   -182.4 1.279e+04 1.242e-09
 24.83090   -181.8 1.274e+04 1.254e-09
 24.84744   -181.0 1.258e+04 1.204e-09
 24.85743   -180.8 1.260e+04 1.234e-09
 24.87082   -179.9 1.246e+04 1.092e-09
 24.89079   -178.9 1.233e+04 9.329e-10
 24.91075   -177.8 1.222e+04 7.819e-10
 24.93071   -176.9 1.216e+04 6.628e-10
 24.96075   -176.1 1.214e+04 5.775e-10
 25.00078   -175.2 1.203e+04 5.023e-10
 25.03557   -173.4 1.174e+04 4.021e-10
 25.05554   -173.2 1.170e+04 4.030e-10
 25.08063   -171.0 1.136e+04 3.171e-10
 25.12055   -168.6 1.114e+04 2.525e-10
 25.16048   -166.2 1.100e+04 2.070e-10
 25.20041   -163.7 1.092e+04 1.781e-10
 25.23349   -161.3 1.086e+04 1.648e-10
 25.25345   -161.0 1.086e+04 1.777e-10
 25.28026   -158.6 1.085e+04 1.755e-10
 25.30266   -156.2 1.085e+04 1.761e-10
 25.32262   -156.3 1.094e+04 1.874e-10
 25.36011   -154.0 1.097e+04 1.884e-10
 25.40003   -151.9 1.105e+04 2.026e-10
 25.43140   -150.0 1.110e+04 2.307e-10
 25.45136   -149.7 1.114e+04 2.516e-10
 25.47989   -147.8 1.118e+04 2.876e-10
 25.51981   -146.0 1.122e+04 3.240e-10
 25.55974   -144.1 1.124e+04 3.556e-10
 25.59966   -142.2 1.126e+04 3.791e-10
 25.62931   -140.5 1.129e+04 3.957e-10
 25.64928   -140.5 1.134e+04 4.319e-10
 25.67951   -138.9 1.140e+04 4.505e-10
 25.71944   -137.7 1.154e+04 4.778e-10
 25.75936   -136.9 1.176e+04 5.604e-10
 25.79929   -136.5 1.208e+04 7.447e-10
 25.82723   -136.3 1.245e+04 1.052e-09
 25.84719   -136.3 1.244e+04 1.051e-09
 25.87914   -136.3 1.277e+04 1.407e-09
 25.91907   -136.4 1.297e+04 1.663e-09
 25.95899   -136.6 1.301e+04 1.725e-09
 25.99114   -136.7 1.285e+04 1.637e-09
 26.01110   -137.9 1.289e+04 1.627e-09
 26.02514   -137.3 1.230e+04 1.032e-09
 26.04510   -137.0 1.215e+04 8.826e-10
 26.07877   -135.8 1.156e+04 4.975e-10
 26.11870   -134.3 1.117e+04 2.952e-10
 26.15862   -132.8 1.096e+04 1.984e-10
 26.19855   -131.2 1.087e+04 1.510e-10
 26.22305   -129.4 1.080e+04 1.269e-10
 26.24302   -129.1 1.074e+04 1.215e-10
 26.27840   -127.1 1.072e+04 1.130e-10
 26.31832   -125.2 1.071e+04 1.090e-10
 26.35825   -123.3 1.072e+04 1.081e-10
 26.39817   -121.6 1.079e+04 1.094e-10
 26.42097   -120.1 1.088e+04 1.168e-10
 26.44093   -119.9 1.087e+04 1.286e-10
 26.47803   -118.5 1.094e+04 1.448e-10
 26.51795   -117.2 1.102e+04 1.670e-10
 26.55788   -116.0 1.113e+04 1.945e-10
 26.59780   -114.9 1.125e+04 2.237e-10
 26.61888   -114.1 1.135e+04 2.490e-10
 26.63884   -113.9 1.135e+04 2.396e-10
 26.67765   -113.3 1.142e+04 2.557e-10
 26.69959   -112.8 1.148e+04 2.794e-10
 26.71955   -113.5 1.149e+04 2.890e-10
 26.75751   -113.0 1.153e+04 3.313e-10
 26.79683   -112.5 1.160e+04 3.897e-10
 26.81679   -112.5 1.161e+04 3.844e-10
 26.83736   -112.0 1.166e+04 4.238e-10
 26.87728   -111.5 1.168e+04 4.340e-10
 26.91721   -111.0 1.164e+04 4.261e-10
 26.95713   -110.2 1.153e+04 3.846e-10
 26.99475   -109.3 1.136e+04 3.207e-10
 27.01471   -109.2 1.123e+04 2.496e-10
 27.03698   -108.1 1.108e+04 2.082e-10
 27.07691   -106.9 1.096e+04 1.816e-10
 27.11684   -105.6 1.092e+04 1.726e-10
 27.15676   -104.2 1.092e+04 1.717e-10
 27.19266   -102.9 1.099e+04 1.878e-10
 27.21262   -102.9 1.097e+04 1.699e-10
 27.23661   -101.8 1.105e+04 2.066e-10
 27.27654   -100.7 1.109e+04 2.408e-10
 27.31646    -99.7 1.108e+04 2.546e-10
 27.35639    -98.7 1.104e+04 2.553e-10
 27.38807    -97.4 1.080e+04 2.282e-10
 27.40229    -97.4 1.091e+04 2.787e-10
 27.41054    -97.3 1.083e+04 2.663e-10
 27.43624    -95.8 1.056e+04 2.047e-10
 27.47617    -94.1 1.037e+04 1.384e-10
 27.51609    -92.5 1.028e+04 9.100e-11
 27.55602    -90.9 1.024e+04 6.272e-11
 27.58849    -89.4 1.020e+04 4.784e-11
 27.60845    -89.4 1.015e+04 4.621e-11
 27.63587    -87.7 1.008e+04 4.144e-11
 27.67579    -86.0 1.002e+04 3.998e-11
 27.71572    -84.1 1.000e+04 3.962e-11
 27.75565    -82.2 9.976e+03 4.046e-11
 27.78640    -80.3 9.949e+03 4.208e-11
 27.80636    -80.1 9.928e+03 4.513e-11
 27.83550    -78.1 9.904e+03 4.654e-11
 27.87542    -76.2 9.899e+03 4.697e-11
 27.91535    -74.3 9.898e+03 4.695e-11
 27.95527    -72.3 9.893e+03 4.601e-11
 27.98431    -70.3 9.892e+03 4.366e-11
 28.00428    -70.2 9.899e+03 4.457e-11
 28.03513    -68.3 9.885e+03 4.122e-11
 28.07505    -66.4 9.871e+03 3.826e-11
 28.09652    -64.5 9.862e+03 3.617e-11
 28.11648    -64.4 9.823e+03 3.537e-11
 28.15490    -62.6 9.815e+03 3.403e-11
 28.18223    -60.6 9.814e+03 3.374e-11
 28.20219    -60.7 9.801e+03 3.403e-11
 28.23475    -58.8 9.811e+03 3.455e-11
 28.27468    -57.0 9.834e+03 3.667e-11
 28.31460    -55.1 9.858e+03 3.924e-11
 28.35453    -53.1 9.878e+03 4.120e-11
 28.38014    -51.3 9.912e+03 4.269e-11
 28.40010    -51.3 9.887e+03 4.184e-11
 28.43438    -49.5 9.909e+03 4.337e-11
 28.47431    -47.8 9.924e+03 4.622e-11
 28.51423    -46.0 9.938e+03 5.020e-11
 28.55416    -44.1 9.957e+03 5.465e-11
 28.57805    -42.2 9.991e+03 5.879e-11
 28.59802    -42.2 9.999e+03 5.925e-11
 28.63401    -40.4 1.008e+04 6.379e-11
 28.67394    -38.7 1.015e+04 6.999e-11
 28.71386    -37.2 1.025e+04 8.249e-11
 28.75379    -35.7 1.036e+04 1.021e-10
 28.77597    -34.3 1.050e+04 1.270e-10
 28.78722    -34.6 1.054e+04 1.256e-10
 28.80496    -34.4 1.053e+04 1.367e-10
 28.83364    -33.1 1.062e+04 1.550e-10
 28.87356    -31.9 1.072e+04 1.613e-10
 28.91349    -30.9 1.080e+04 1.571e-10
 28.95341    -29.9 1.090e+04 1.454e-10
 28.97388    -29.0 1.096e+04 1.370e-10
 28.99384    -29.5 1.094e+04 1.203e-10
 29.03327    -28.8 1.101e+04 1.363e-10
 29.07319    -27.9 1.099e+04 1.794e-10
 29.11312    -26.8 1.103e+04 2.447e-10
 29.15183    -25.6 1.118e+04 3.197e-10
 29.17179    -26.0 1.131e+04 3.538e-10
 29.19297    -25.2 1.142e+04 3.707e-10
 29.23289    -24.7 1.152e+04 3.521e-10
 29.27282    -24.1 1.148e+04 2.735e-10
 29.31275    -23.7 1.135e+04 1.955e-10
 29.34975    -23.3 1.113e+04 1.496e-10
 29.36971    -24.1 1.107e+04 1.471e-10
 29.39260    -23.3 1.101e+04 1.325e-10
 29.43252    -22.2 1.098e+04 1.245e-10
 29.47245    -21.1 1.098e+04 1.224e-10
 29.49345    -20.0 1.100e+04 1.224e-10
 29.51341    -19.6 1.098e+04 1.230e-10
 29.54766    -18.6 1.100e+04 1.241e-10
 29.56762    -19.1 1.103e+04 1.278e-10
 29.59222    -18.2 1.097e+04 1.423e-10
 29.63215    -17.2 1.091e+04 1.707e-10
 29.67208    -16.3 1.095e+04 2.140e-10
 29.71200    -16.0 1.115e+04 2.908e-10
 29.74557    -15.9 1.148e+04 4.451e-10
 29.76554    -16.5 1.168e+04 4.975e-10
 29.79185    -16.4 1.217e+04 7.522e-10
 29.83178    -16.5 1.256e+04 9.698e-10
 29.87170    -17.6 1.279e+04 1.080e-09
 29.91163    -19.1 1.282e+04 1.084e-09
 29.94349    -20.3 1.263e+04 9.793e-10
 29.96345    -21.0 1.253e+04 8.463e-10
 29.99148    -21.5 1.226e+04 7.292e-10
 30.03141    -21.6 1.194e+04 5.322e-10
 30.07133    -21.5 1.163e+04 3.327e-10
 30.11126    -21.6 1.142e+04 2.159e-10
 30.14140    -21.5 1.127e+04 1.703e-10
 30.16136    -21.9 1.127e+04 1.556e-10
 30.18193    -21.4 1.118e+04 1.540e-10
 30.20189    -20.6 1.121e+04 1.648e-10
 30.23103    -20.0 1.116e+04 1.620e-10
 30.27096    -19.5 1.112e+04 1.674e-10
 30.31089    -18.9 1.114e+04 1.760e-10
 30.33931    -18.3 1.117e+04 1.814e-10
 30.35928    -18.6 1.125e+04 2.181e-10
 30.39074    -18.0 1.124e+04 2.094e-10
 30.43066    -17.4 1.120e+04 1.896e-10
 30.47059    -16.7 1.115e+04 1.736e-10
 30.51051    -15.9 1.112e+04 1.644e-10
 30.53723    -14.9 1.111e+04 1.565e-10
 30.55719    -14.9 1.108e+04 1.380e-10
 30.59037    -13.8 1.107e+04 1.305e-10
 30.63029    -12.7 1.106e+04 1.277e-10
 30.67022    -11.5 1.107e+04 1.306e-10
 30.71014    -10.3 1.105e+04 1.468e-10
 30.73514     -8.8 1.106e+04 1.749e-10
 30.75510     -8.4 1.106e+04 1.714e-10
 30.78999     -6.7 1.111e+04 1.978e-10
 30.82992     -5.1 1.114e+04 2.062e-10
 30.86984     -3.4 1.109e+04 1.942e-10
 30.89038     -1.6 1.100e+04 1.420e-10
 30.91034     -1.2 1.101e+04 1.533e-10
 30.93305      0.4 1.096e+04 1.151e-10
 30.95302      0.6 1.100e+04 1.326e-10
 30.98962      2.1 1.091e+04 1.093e-10
 31.02955      3.6 1.080e+04 9.513e-11
 31.06947      5.2 1.071e+04 8.586e-11
 31.10940      6.8 1.073e+04 7.862e-11
 31.13097      8.0 1.079e+04 7.565e-11
 31.15093      8.5 1.081e+04 9.258e-11
 31.18925      9.4 1.087e+04 9.241e-11
 31.22918     10.3 1.090e+04 1.050e-10
 31.26910     11.4 1.091e+04 1.197e-10
 31.30892     12.7 1.094e+04 1.237e-10
 31.34884     13.8 1.101e+04 1.360e-10
 31.38888     14.5 1.096e+04 1.149e-10
 31.42880     15.0 1.085e+04 1.094e-10
 31.46873     16.0 1.071e+04 1.162e-10
 31.50683     17.1 1.073e+04 1.289e-10
 31.52680     17.0 1.091e+04 1.636e-10
 31.54858     17.9 1.101e+04 1.673e-10
 31.57886     18.5 1.109e+04 1.788e-10
 31.59882     18.7 1.098e+04 1.611e-10
 31.62843     19.4 1.096e+04 1.913e-10
 31.66836     20.4 1.095e+04 2.152e-10
 31.70475     21.6 1.100e+04 2.221e-10
 31.72471     21.1 1.104e+04 2.238e-10
 31.74821     21.8 1.120e+04 2.220e-10
 31.78813     21.7 1.134e+04 2.411e-10
 31.82806     21.8 1.115e+04 3.475e-10
 31.86799     23.8 1.113e+04 4.253e-10
 31.90266     25.3 1.105e+04 3.612e-10
 31.92262     25.0 1.092e+04 3.113e-10
 31.94784     26.0 1.098e+04 1.958e-10
 31.98776     25.9 1.088e+04 1.437e-10
 32.02769     27.0 1.071e+04 1.379e-10
 32.06761     28.2 1.072e+04 1.558e-10
 32.10057     29.4 1.077e+04 1.760e-10
 32.12054     29.4 1.083e+04 1.854e-10
 32.14746     30.5 1.082e+04 2.145e-10
 32.18739     32.0 1.095e+04 2.373e-10
 32.22732     33.2 1.092e+04 2.320e-10
 32.26724     34.7 1.097e+04 1.846e-10
 32.29849     36.1 1.082e+04 1.495e-10
 32.31845     35.7 1.088e+04 1.555e-10
 32.34709     36.6 1.087e+04 1.177e-10
 32.38702     37.6 1.084e+04 9.695e-11
 32.42694     38.9 1.081e+04 8.192e-11
 32.46687     40.2 1.076e+04 6.929e-11
 32.49640     41.2 1.069e+04 6.104e-11
 32.51636     40.9 1.067e+04 6.270e-11
 32.54672     41.6 1.049e+04 6.099e-11
 32.58665     42.2 1.045e+04 6.614e-11
 32.62657     42.7 1.038e+04 8.418e-11
 32.66650     43.5 1.031e+04 1.149e-10
 32.69431     44.5 1.032e+04 1.477e-10
 32.71428     44.2 1.036e+04 1.481e-10
 32.74635     45.1 1.036e+04 1.689e-10
 32.78627     45.9 1.029e+04 1.768e-10
 32.82620     47.0 1.020e+04 1.698e-10
 32.86613     48.1 1.013e+04 1.486e-10
 32.89223     49.0 1.015e+04 1.311e-10
 32.91219     48.9 1.015e+04 1.384e-10
 32.94598     49.7 1.012e+04 1.257e-10
 32.97579     50.6 1.008e+04 1.239e-10
 32.99576     50.7 1.001e+04 1.096e-10
 33.02583     51.4 1.000e+04 1.195e-10
 33.06575     52.2 1.000e+04 1.424e-10
 33.09014     52.9 1.009e+04 1.726e-10
 33.11010     52.7 1.007e+04 1.731e-10
 33.14560     52.9 1.015e+04 1.878e-10
 33.18553     52.7 1.026e+04 2.020e-10
 33.22546     52.2 1.033e+04 2.274e-10
 33.26538     51.7 1.036e+04 2.542e-10
 33.28805     51.2 1.038e+04 2.814e-10
 33.30802     51.3 1.020e+04 2.129e-10
 33.34523     51.0 1.020e+04 2.689e-10
 33.38516     51.0 1.023e+04 3.435e-10
 33.42508     51.0 1.021e+04 3.580e-10
 33.46501     51.3 9.997e+03 3.145e-10
 33.48597     51.3 9.775e+03 2.309e-10
 33.50593     51.7 9.803e+03 2.301e-10
 33.54486     51.2 9.563e+03 1.851e-10
 33.58479     50.9 9.449e+03 1.866e-10
 33.62471     51.0 9.383e+03 2.070e-10
 33.66392     51.3 9.293e+03 2.156e-10
 33.68352     51.8 9.299e+03 2.183e-10
 33.68424     52.2 9.269e+03 2.055e-10
 33.70456     52.9 9.084e+03 1.900e-10
 33.74449     53.9 8.836e+03 1.477e-10
 33.78441     54.7 8.665e+03 1.005e-10
 33.82434     55.0 8.613e+03 6.815e-11
 33.86183     55.3 8.468e+03 5.798e-11
 33.88180     55.7 8.511e+03 6.395e-11
 33.90419     56.2 8.460e+03 6.427e-11
 33.94412     56.6 8.495e+03 7.248e-11
 33.98404     57.2 8.535e+03 9.232e-11
 34.02397     58.0 8.583e+03 1.237e-10
 34.05975     59.1 8.637e+03 1.555e-10
 34.07971     59.2 8.646e+03 1.549e-10
 34.10382     60.4 8.724e+03 1.687e-10
 34.14375     61.2 8.827e+03 1.725e-10
 34.18367     61.2 9.007e+03 1.897e-10
 34.22360     60.9 9.500e+03 2.722e-10
 34.25766     57.4 1.126e+04 5.847e-10
 34.27762     58.4 1.078e+04 4.410e-10
 34.29337     54.4 1.270e+04 1.194e-09
 34.31323     52.9 1.373e+04 2.341e-09
 34.33320     53.4 1.464e+04 4.617e-09
 34.35316     54.4 1.481e+04 5.468e-09
 34.36640     54.8 1.459e+04 4.784e-09
 34.37579     54.9 1.381e+04 3.386e-09
 34.38251     55.3 1.359e+04 3.085e-09
 34.39309     54.6 1.359e+04 2.719e-09
 34.41305     53.4 1.329e+04 2.178e-09
 34.43301     51.4 1.296e+04 1.912e-09
 34.45297     50.5 1.270e+04 1.837e-09
 34.46536     48.7 1.289e+04 2.066e-09
 34.47534     49.2 1.289e+04 1.869e-09
 34.49290     47.5 1.331e+04 2.360e-09
 34.51286     46.7 1.347e+04 2.950e-09
 34.53283     47.2 1.355e+04 3.512e-09
 34.55279     48.2 1.353e+04 3.402e-09
 34.56432     48.7 1.339e+04 2.787e-09
 34.57430     49.5 1.280e+04 2.458e-09
 34.59271     49.0 1.253e+04 1.644e-09
 34.61268     47.6 1.198e+04 1.022e-09
 34.63264     44.6 1.147e+04 7.111e-10
 34.65339     41.7 1.229e+04 8.540e-10
 34.67345     45.2 1.099e+04 4.378e-10
 34.70270     43.0 1.208e+04 7.357e-10
 34.72685     40.4 1.307e+04 1.542e-09
 34.73673     40.6 1.295e+04 1.497e-09
 34.75225     40.1 1.337e+04 2.308e-09
 34.76223     41.5 1.322e+04 1.662e-09
 34.77238     41.9 1.401e+04 2.839e-09
 34.79234     40.7 1.532e+04 4.449e-09
 34.81230     39.1 1.681e+04 6.925e-09
 34.83227     37.6 1.705e+04 8.312e-09
 34.84719     36.5 1.725e+04 8.188e-09
 34.85610     35.8 1.690e+04 7.528e-09
 34.86109     36.7 1.766e+04 1.063e-08
 34.86710     35.7 1.675e+04 8.279e-09
 34.87709     35.0 1.616e+04 6.815e-09
 34.88707     32.2 1.491e+04 4.864e-09
 34.89705     30.8 1.477e+04 4.412e-09
 34.90377     26.7 1.547e+04 3.916e-09
 34.90730     26.8 1.538e+04 3.884e-09
 34.91057     27.1 1.563e+04 4.625e-09
 34.91701     23.2 1.761e+04 4.985e-09
 34.92699     16.6 1.902e+04 5.298e-09
 34.93697     12.3 1.942e+04 5.985e-09
 34.94696      5.8 1.776e+04 6.195e-09
 34.95505      3.7 1.708e+04 7.559e-09
 34.96005      1.8 1.770e+04 9.367e-09
 34.97196     -0.6 1.828e+04 9.987e-09
 34.99197     -6.2 1.997e+04 7.581e-09
 35.01193    -16.8 1.928e+04 5.303e-09
 35.03190    -27.3 1.694e+04 4.522e-09
 35.04912    -33.7 1.546e+04 5.035e-09
 35.05910    -36.4 1.538e+04 5.137e-09
 35.07099    -39.3 1.626e+04 6.422e-09
 35.08097    -40.2 1.718e+04 8.129e-09
 35.09178    -44.7 1.794e+04 8.444e-09
 35.11175    -51.1 1.845e+04 7.612e-09
 35.13171    -58.2 1.741e+04 6.017e-09
 35.14808    -64.2 1.608e+04 4.619e-09
 35.15806    -64.7 1.626e+04 4.690e-09
 35.17163    -69.9 1.587e+04 3.796e-09
 35.19160    -75.7 1.516e+04 2.989e-09
 35.21156    -81.4 1.414e+04 2.675e-09
 35.23152    -85.1 1.373e+04 2.656e-09
 35.24703    -86.9 1.347e+04 2.760e-09
 35.25701    -87.0 1.369e+04 3.044e-09
 35.27145    -87.7 1.337e+04 2.674e-09
 35.29141    -88.4 1.307e+04 1.869e-09
 35.31137    -89.7 1.257e+04 1.061e-09
 35.33134    -92.0 1.176e+04 5.595e-10
 35.34599    -94.6 1.090e+04 3.594e-10
 35.35597    -95.8 1.068e+04 3.233e-10
 35.37126    -97.0 1.049e+04 3.079e-10
 35.39123    -97.4 1.042e+04 3.141e-10
 35.42127    -97.5 1.044e+04 3.375e-10
 35.44514    -96.8 1.052e+04 3.748e-10
 35.46510    -96.6 1.051e+04 3.727e-10
 35.50122    -96.1 1.052e+04 3.889e-10
 35.54114    -95.6 1.046e+04 3.839e-10
 35.58107    -95.0 1.030e+04 3.502e-10
 35.62099    -94.2 1.013e+04 3.067e-10
 35.64305    -93.3 9.940e+03 2.688e-10
 35.66302    -92.8 1.004e+04 2.775e-10
 35.70084    -91.7 9.997e+03 2.616e-10
 35.74077    -90.5 1.001e+04 2.598e-10
 35.76965    -89.6 1.020e+04 2.795e-10
 35.78962    -90.5 1.012e+04 2.530e-10
 35.81054    -90.0 1.046e+04 3.251e-10
 35.83041    -90.7 1.078e+04 4.244e-10
 35.84077    -91.3 1.141e+04 6.635e-10
 35.85075    -91.8 1.168e+04 8.254e-10
 35.87033    -91.9 1.221e+04 1.171e-09
 35.89030    -92.0 1.264e+04 1.516e-09
 35.91026    -92.2 1.296e+04 1.772e-09
 35.92975    -92.5 1.304e+04 1.856e-09
 35.93973    -92.8 1.280e+04 1.565e-09
 35.95018    -93.2 1.275e+04 1.427e-09
 35.97015    -93.8 1.252e+04 1.250e-09
 35.99011    -94.4 1.224e+04 1.104e-09
 36.01007    -94.9 1.199e+04 1.029e-09
 36.02871    -95.2 1.185e+04 1.007e-09
 36.03869    -95.8 1.175e+04 9.407e-10
 36.05000    -95.7 1.169e+04 9.663e-10
 36.06996    -95.3 1.159e+04 9.715e-10
 36.08992    -94.8 1.144e+04 8.850e-10
 36.10989    -94.5 1.131e+04 7.347e-10
 36.13993    -94.4 1.110e+04 5.696e-10
 36.17995    -93.3 1.083e+04 4.295e-10
 36.21683    -92.3 1.058e+04 3.337e-10
 36.23680    -92.6 1.045e+04 2.884e-10
 36.25980    -91.3 1.031e+04 2.432e-10
 36.29973    -89.9 1.020e+04 2.084e-10
 36.33965    -88.5 1.012e+04 1.809e-10
 36.37958    -87.0 1.008e+04 1.613e-10
 36.41475    -85.4 1.005e+04 1.449e-10
 36.43471    -85.5 1.007e+04 1.360e-10
 36.45814    -83.8 1.005e+04 1.242e-10
 36.47810    -84.1 1.002e+04 1.281e-10
 36.49936    -82.3 1.002e+04 1.175e-10
 36.53928    -80.5 1.004e+04 1.131e-10
 36.57921    -79.0 1.006e+04 1.127e-10
 36.61266    -78.1 1.029e+04 1.159e-10
 36.63262    -78.6 1.031e+04 1.183e-10
 36.65906    -78.4 1.074e+04 1.728e-10
 36.69899    -78.5 1.103e+04 3.005e-10
 36.73891    -78.6 1.136e+04 4.767e-10
 36.77884    -79.4 1.166e+04 6.258e-10
 36.81057    -80.8 1.173e+04 6.734e-10
 36.83054    -81.7 1.180e+04 6.547e-10
 36.85869    -83.0 1.175e+04 6.266e-10
 36.89861    -83.5 1.153e+04 4.776e-10
 36.93854    -83.8 1.138e+04 3.262e-10
 36.97846    -84.1 1.128e+04 2.340e-10
 37.00849    -83.9 1.117e+04 1.929e-10
 37.02845    -84.7 1.124e+04 2.225e-10
 37.05832    -84.0 1.117e+04 2.010e-10
 37.09824    -83.5 1.119e+04 1.950e-10
 37.13817    -83.3 1.123e+04 1.949e-10
 37.16658    -83.3 1.128e+04 1.958e-10
 37.18655    -82.6 1.135e+04 2.325e-10
 37.20640    -83.0 1.160e+04 2.451e-10
 37.22636    -83.1 1.119e+04 2.084e-10
 37.25794    -83.8 1.148e+04 2.173e-10
 37.29787    -84.8 1.188e+04 2.847e-10
 37.33780    -85.6 1.201e+04 3.702e-10
 37.37772    -86.1 1.200e+04 4.069e-10
 37.40431    -86.1 1.181e+04 3.887e-10
 37.42428    -85.0 1.178e+04 3.184e-10
 37.45757    -84.7 1.160e+04 2.892e-10
 37.49750    -84.4 1.143e+04 2.377e-10
 37.53742    -83.8 1.126e+04 2.040e-10
 37.57735    -82.9 1.110e+04 1.919e-10
 37.60223    -82.0 1.095e+04 1.860e-10
 37.62219    -80.9 1.112e+04 1.989e-10
 37.65720    -80.0 1.100e+04 2.121e-10
 37.69713    -79.2 1.092e+04 2.211e-10
 37.73705    -78.4 1.086e+04 2.221e-10
 37.77698    -77.8 1.078e+04 2.162e-10
 37.80014    -77.3 1.072e+04 2.057e-10
 37.82010    -76.5 1.090e+04 2.701e-10
 37.85507    -76.3 1.086e+04 2.597e-10
 37.87503    -75.7 1.102e+04 3.265e-10
 37.89675    -75.6 1.099e+04 3.233e-10
 37.93668    -75.8 1.105e+04 3.366e-10
 37.97661    -76.2 1.127e+04 4.230e-10
 37.99806    -76.7 1.146e+04 5.394e-10
 38.01802    -76.2 1.148e+04 5.315e-10
 38.04638    -76.5 1.154e+04 5.931e-10
 38.06624    -76.9 1.153e+04 6.035e-10
 38.08621    -77.7 1.141e+04 6.117e-10
 38.09682    -77.9 1.108e+04 5.178e-10
 38.10680    -77.9 1.108e+04 4.970e-10
 38.13621    -78.3 1.079e+04 4.080e-10
 38.17601    -78.5 1.047e+04 3.287e-10
 38.19597    -78.1 1.047e+04 3.357e-10
 38.21616    -78.1 1.020e+04 2.874e-10
 38.25608    -77.8 9.969e+03 2.397e-10
 38.29601    -77.1 9.758e+03 1.932e-10
 38.33594    -76.2 9.584e+03 1.512e-10
 38.37392    -75.3 9.461e+03 1.187e-10
 38.39388    -75.2 9.439e+03 1.160e-10
 38.41579    -74.3 9.335e+03 9.429e-11
 38.45571    -73.5 9.299e+03 8.879e-11
 38.49564    -72.6 9.294e+03 8.832e-11
 38.53556    -71.8 9.290e+03 9.371e-11
 38.56352    -71.1 9.277e+03 1.026e-10
 38.57982    -70.7 9.322e+03 1.021e-10
 38.59180    -70.6 9.286e+03 9.368e-11
 38.61542    -70.0 9.264e+03 1.012e-10
 38.65534    -69.5 9.239e+03 1.101e-10
 38.69527    -69.0 9.209e+03 1.215e-10
 38.73519    -68.4 9.168e+03 1.318e-10
 38.76975    -67.7 9.129e+03 1.362e-10
 38.78971    -67.6 9.134e+03 1.460e-10
 38.81504    -66.8 9.100e+03 1.467e-10
 38.85497    -65.8 8.926e+03 1.349e-10
 38.89489    -64.8 8.798e+03 1.113e-10
 38.93482    -64.0 8.744e+03 9.280e-11
 38.96766    -63.3 8.741e+03 8.796e-11
 38.98762    -63.3 8.753e+03 8.673e-11
 39.01467    -62.7 8.768e+03 8.630e-11
 39.05460    -62.3 8.853e+03 9.100e-11
 39.09452    -62.1 8.929e+03 9.890e-11
 39.13445    -62.1 8.969e+03 1.056e-10
 39.16557    -62.2 8.987e+03 1.127e-10
 39.18554    -62.3 8.946e+03 1.064e-10
 39.21430    -62.3 8.951e+03 1.195e-10
 39.25200    -62.1 8.957e+03 1.338e-10
 39.27196    -62.1 9.035e+03 1.414e-10
 39.29415    -61.8 9.027e+03 1.451e-10
 39.33408    -61.3 8.938e+03 1.431e-10
 39.36349    -60.6 8.816e+03 1.268e-10
 39.38345    -60.1 8.668e+03 1.019e-10
 39.41393    -59.3 8.566e+03 8.504e-11
 39.45385    -58.4 8.480e+03 7.359e-11
 39.49378    -57.3 8.417e+03 6.831e-11
 39.53370    -56.0 8.398e+03 6.715e-11
 39.56140    -54.7 8.397e+03 6.752e-11
 39.58136    -54.3 8.343e+03 6.323e-11
 39.61356    -53.0 8.378e+03 6.957e-11
 39.65348    -51.6 8.448e+03 7.862e-11
 39.69341    -50.3 8.552e+03 8.878e-11
 39.73333    -49.0 8.693e+03 1.006e-10
 39.75931    -48.0 8.851e+03 1.179e-10
 39.77928    -47.8 8.742e+03 9.773e-11
 39.81318    -47.1 8.913e+03 1.203e-10
 39.85311    -46.4 9.082e+03 1.572e-10
 39.89304    -45.7 9.250e+03 2.038e-10
 39.93296    -44.9 9.398e+03 2.436e-10
 39.95723    -44.2 9.493e+03 2.600e-10
 39.96475    -44.2 9.269e+03 2.148e-10
 39.98041    -43.7 9.336e+03 2.209e-10
 40.01281    -43.2 9.428e+03 2.450e-10
 40.05274    -42.7 9.484e+03 2.605e-10
 40.09266    -42.3 9.567e+03 2.664e-10
 40.13259    -42.0 9.606e+03 2.694e-10
 40.15514    -41.6 9.667e+03 2.707e-10
 40.17510    -41.8 9.737e+03 2.951e-10
 40.21244    -41.5 9.778e+03 2.951e-10
 40.25237    -41.1 9.853e+03 2.888e-10
 40.29229    -40.6 9.908e+03 2.716e-10
 40.33222    -39.8 9.811e+03 2.504e-10
 40.35306    -38.9 9.667e+03 2.187e-10
 40.37302    -39.4 9.680e+03 2.362e-10
 40.41207    -38.4 9.473e+03 1.895e-10
 40.45199    -37.3 9.276e+03 1.494e-10
 40.49192    -36.3 9.118e+03 1.230e-10
 40.53101    -35.2 8.960e+03 1.122e-10
 40.55097    -35.9 8.888e+03 1.294e-10
 40.57177    -34.6 8.838e+03 1.298e-10
 40.61170    -33.1 8.782e+03 1.354e-10
 40.64893    -31.5 8.752e+03 1.400e-10
 40.66889    -31.3 8.773e+03 1.613e-10
 40.69155    -29.6 8.765e+03 1.621e-10
 40.72892    -28.0 8.774e+03 1.634e-10
 40.74888    -28.8 8.829e+03 1.769e-10
 40.77140    -27.5 8.865e+03 1.775e-10
 40.81132    -26.5 8.996e+03 1.884e-10
 40.85125    -26.0 9.260e+03 2.566e-10
 40.89118    -25.3 9.718e+03 4.164e-10
 40.92683    -24.2 1.026e+04 6.647e-10
 40.94680    -24.6 9.700e+03 4.746e-10
 40.97103    -23.6 1.007e+04 6.085e-10
 41.01095    -22.9 1.032e+04 7.111e-10
 41.05088    -22.3 1.048e+04 8.171e-10
 41.09080    -21.4 1.067e+04 9.706e-10
 41.12475    -20.2 1.097e+04 1.208e-09
 41.14471    -20.0 1.081e+04 1.117e-09
 41.17065    -18.3 1.130e+04 1.471e-09
 41.21058    -16.5 1.166e+04 1.752e-09
 41.25051    -15.0 1.179e+04 1.834e-09
 41.29043    -13.7 1.170e+04 1.747e-09
 41.32266    -12.3 1.122e+04 1.357e-09
 41.34262    -11.9 1.110e+04 1.238e-09
 41.35738    -10.7 1.061e+04 9.783e-10
 41.37734    -10.7 1.042e+04 8.229e-10
 41.41021     -9.5 1.016e+04 7.093e-10
 41.45013     -8.4 1.016e+04 7.044e-10
 41.47998     -7.9 1.061e+04 8.082e-10
 41.49985    -10.0 1.157e+04 1.092e-09
 41.51981    -12.5 1.296e+04 2.069e-09
 41.53036    -13.4 1.394e+04 3.659e-09
 41.54034    -13.6 1.387e+04 3.511e-09
 41.55973    -13.6 1.472e+04 5.301e-09
 41.57970    -13.5 1.517e+04 6.042e-09
 41.59966    -13.9 1.528e+04 5.883e-09
 41.61934    -15.3 1.474e+04 3.634e-09
 41.62932    -16.6 1.440e+04 3.162e-09
 41.63959    -20.3 1.249e+04 1.569e-09
 41.65955    -23.7 1.103e+04 9.489e-10
 41.67951    -24.8 1.074e+04 7.853e-10
 41.69947    -25.4 1.079e+04 7.417e-10
 41.71140    -26.3 1.088e+04 7.352e-10
 41.72024    -26.7 1.120e+04 8.692e-10
 41.72827    -28.0 1.139e+04 9.944e-10
 41.73940    -28.9 1.146e+04 1.142e-09
 41.75936    -29.2 1.157e+04 1.379e-09
 41.77933    -28.9 1.173e+04 1.603e-09
 41.79929    -28.5 1.188e+04 1.693e-09
 41.81725    -28.4 1.205e+04 1.566e-09
 41.82723    -29.3 1.204e+04 1.553e-09
 41.84929    -28.8 1.183e+04 1.341e-09
 41.88932    -27.9 1.165e+04 1.103e-09
 41.91630    -27.7 1.168e+04 9.974e-10
 41.92619    -28.7 1.171e+04 9.498e-10
 41.93903    -28.6 1.171e+04 8.524e-10
 41.95899    -28.5 1.163e+04 7.489e-10
 41.97895    -28.3 1.156e+04 6.757e-10
 41.99892    -28.2 1.152e+04 6.139e-10
 42.01516    -28.2 1.154e+04 5.659e-10
 42.02514    -29.4 1.141e+04 5.106e-10
 42.03884    -29.6 1.140e+04 4.919e-10
 42.05565    -29.6 1.142e+04 4.992e-10
 42.06573    -28.6 1.127e+04 4.278e-10
 42.08894    -27.9 1.112e+04 3.955e-10
 42.11431    -27.2 1.106e+04 4.082e-10
 42.13428    -28.3 1.080e+04 3.711e-10
 42.16880    -27.0 1.084e+04 4.218e-10
 42.20872    -25.3 1.087e+04 4.397e-10
 42.24865    -23.4 1.086e+04 4.171e-10
 42.28857    -21.5 1.083e+04 3.385e-10
 42.31223    -19.7 1.082e+04 2.583e-10
 42.33219    -20.0 1.056e+04 2.200e-10
 42.36842    -18.1 1.055e+04 1.916e-10
 42.40835    -16.0 1.060e+04 1.786e-10
 42.44827    -13.7 1.069e+04 1.721e-10
 42.48820    -11.4 1.082e+04 1.656e-10
 42.51014     -9.3 1.089e+04 1.603e-10
 42.53010     -9.3 1.089e+04 1.544e-10
 42.56805     -7.4 1.087e+04 1.597e-10
 42.60798     -5.6 1.075e+04 1.727e-10
 42.64790     -3.5 1.062e+04 1.880e-10
 42.68783     -1.3 1.055e+04 1.935e-10
 42.70806      0.9 1.048e+04 1.866e-10
 42.72802      0.9 1.053e+04 2.080e-10
 42.75431      3.2 1.059e+04 1.731e-10
 42.77427      3.6 1.053e+04 2.705e-10
 42.80761      6.0 1.053e+04 2.122e-10
 42.84753      8.2 1.050e+04 1.591e-10
 42.88601     10.2 1.042e+04 1.290e-10
 42.90597      9.9 1.052e+04 1.296e-10
 42.92738     11.9 1.045e+04 1.228e-10
 42.96731     14.0 1.040e+04 1.247e-10
 43.00723     16.1 1.035e+04 1.442e-10
 43.04716     18.6 1.032e+04 1.728e-10
 43.08392     21.3 1.035e+04 1.897e-10
 43.10388     21.0 1.039e+04 1.974e-10
 43.12701     23.5 1.039e+04 1.952e-10
 43.16694     25.5 1.052e+04 1.712e-10
 43.20686     27.1 1.063e+04 1.750e-10
 43.24679     28.3 1.068e+04 2.264e-10
 43.28183     30.1 1.057e+04 3.404e-10
 43.30180     30.0 1.063e+04 3.758e-10
 43.32664     32.5 1.075e+04 4.480e-10
 43.36656     34.6 1.072e+04 4.123e-10
 43.40649     36.6 1.061e+04 3.215e-10
 43.44279     38.1 1.052e+04 2.297e-10
 43.46275     38.5 1.086e+04 3.721e-10
 43.47975     40.1 1.071e+04 2.855e-10
 43.49971     39.7 1.064e+04 2.200e-10
 43.52627     41.3 1.054e+04 1.748e-10
 43.56619     43.1 1.044e+04 1.571e-10
 43.60612     45.0 1.039e+04 1.589e-10
 43.64604     46.9 1.037e+04 1.735e-10
 43.67766     49.0 1.033e+04 2.019e-10
 43.69762     48.3 1.010e+04 1.738e-10
 43.72589     50.6 1.009e+04 2.138e-10
 43.76582     52.9 1.012e+04 2.362e-10
 43.80575     55.1 1.020e+04 2.392e-10
 43.84567     57.1 1.017e+04 2.428e-10
 43.87557     59.3 1.013e+04 2.463e-10
 43.89554     58.6 9.978e+03 2.245e-10
 43.92552     60.7 9.949e+03 2.236e-10
 43.96545     62.9 9.939e+03 2.270e-10
 44.00537     65.0 9.942e+03 2.349e-10
 44.04530     67.1 9.950e+03 2.468e-10
 44.07349     69.2 9.977e+03 2.590e-10
 44.09345     68.3 9.661e+03 1.602e-10
 44.12515     70.3 9.596e+03 1.471e-10
 44.15124     72.2 9.476e+03 1.329e-10
 44.17120     72.2 9.774e+03 2.115e-10
 44.20500     74.0 9.606e+03 1.886e-10
 44.24493     75.6 9.441e+03 1.759e-10
 44.27140     77.3 9.379e+03 1.772e-10
 44.29136     76.7 9.343e+03 1.763e-10
 44.32478     78.8 9.336e+03 1.858e-10
 44.36470     81.0 9.370e+03 2.021e-10
 44.40463     83.4 9.424e+03 2.225e-10
 44.44456     85.8 9.480e+03 2.409e-10
 44.46932     88.3 9.519e+03 2.541e-10
 44.48928     88.1 9.532e+03 2.509e-10
 44.52441     90.6 9.582e+03 2.614e-10
 44.56433     93.2 9.702e+03 2.784e-10
 44.60426     95.9 9.918e+03 3.106e-10
 44.64418     97.8 1.001e+04 3.421e-10
 44.66713     99.2 9.992e+03 3.758e-10
 44.67701     98.8 9.999e+03 3.809e-10
 44.69390    100.5 1.023e+04 4.509e-10
 44.71386    100.9 1.067e+04 5.806e-10
 44.73382    100.5 1.139e+04 8.448e-10
 44.75378     99.3 1.248e+04 1.475e-09
 44.76599     98.8 1.385e+04 2.867e-09
 44.77597     98.5 1.374e+04 2.768e-09
 44.79371     98.7 1.502e+04 4.890e-09
 44.81367     98.9 1.596e+04 7.004e-09
 44.83364     98.7 1.638e+04 7.635e-09
 44.84951     98.2 1.644e+04 7.338e-09
 44.85949     98.0 1.611e+04 5.434e-09
 44.86495     95.6 1.650e+04 5.510e-09
 44.87493     93.8 1.698e+04 6.282e-09
 44.89352     90.9 1.779e+04 8.417e-09
 44.90845     89.6 1.817e+04 1.063e-08
 44.91433     88.7 1.871e+04 1.311e-08
 44.91932     88.4 1.878e+04 1.426e-08
 44.92836     87.8 1.937e+04 1.852e-08
 44.93834     87.7 1.985e+04 2.388e-08
 44.94832     87.7 2.002e+04 3.276e-08
 44.95831     88.0 1.996e+04 4.458e-08
 44.96381     88.9 2.013e+04 5.509e-08
 44.96880     89.0 1.991e+04 3.684e-08
 44.97827     89.6 1.989e+04 3.547e-08
 44.98825     90.3 1.982e+04 3.030e-08
 44.99823     90.5 1.977e+04 2.257e-08
 45.01325     89.5 1.955e+04 8.485e-09
 45.03326     84.6 1.903e+04 2.918e-09
 45.05288     74.6 1.748e+04 2.741e-09
 45.06286     67.1 1.546e+04 2.799e-09
 45.07319     64.3 1.555e+04 5.090e-09
 45.09315     65.1 1.601e+04 8.607e-09
 45.11311     66.5 1.629e+04 9.701e-09
 45.13308     67.6 1.619e+04 8.721e-09
 45.15184     67.8 1.576e+04 5.826e-09
 45.16182     67.1 1.506e+04 4.366e-09
 45.17300     65.1 1.400e+04 2.136e-09
 45.19297     62.1 1.256e+04 1.395e-09
 45.20373     60.1 1.155e+04 1.123e-09
 45.21371     61.0 1.166e+04 1.116e-09
 45.24091     60.4 1.182e+04 1.231e-09
 45.26097     60.1 1.160e+04 1.157e-09
 45.28299     61.0 1.179e+04 1.301e-09
 45.32292     62.5 1.215e+04 1.472e-09
 45.36285     63.9 1.230e+04 1.466e-09
 45.39269     64.1 1.213e+04 1.252e-09
 45.41256     64.2 1.207e+04 1.129e-09
 45.43252     64.2 1.208e+04 1.032e-09
 45.44871     64.1 1.212e+04 9.596e-10
 45.45869     62.8 1.176e+04 8.230e-10
 45.47245     62.6 1.177e+04 8.044e-10
 45.49241     62.4 1.175e+04 7.878e-10
 45.51237     62.1 1.178e+04 7.841e-10
 45.53233     61.6 1.191e+04 7.941e-10
 45.54766     61.0 1.230e+04 8.410e-10
 45.55332     59.5 1.172e+04 7.207e-10
 45.55795     58.0 1.147e+04 7.052e-10
 45.57226     56.6 1.159e+04 6.860e-10
 45.59222     52.9 1.239e+04 7.828e-10
 45.61219     47.5 1.334e+04 1.248e-09
 45.63215     40.1 1.596e+04 2.465e-09
 45.64662     30.2 1.894e+04 9.436e-09
 45.65660     26.3 1.928e+04 9.735e-09
 45.67207     26.1 1.801e+04 1.859e-08
 45.69204     28.1 1.730e+04 1.592e-08
 45.71200     27.7 1.738e+04 8.745e-09
 45.73196     24.7 1.821e+04 2.508e-09
 45.74558     16.9 1.385e+04 9.891e-10
 45.75556     17.4 1.403e+04 9.258e-10
 45.77189      9.8 1.053e+04 4.841e-10
 45.80193      8.9 1.034e+04 4.104e-10
 45.83475      9.5 1.011e+04 3.186e-10
 45.85471      9.5 1.018e+04 3.843e-10
 45.88188      9.7 1.086e+04 5.299e-10
 45.90229      9.5 1.165e+04 7.348e-10
 45.91218     10.0 1.125e+04 6.703e-10
 45.93159      9.8 1.143e+04 7.067e-10
 45.94349     10.1 1.165e+04 1.110e-09
 45.95347     10.5 1.173e+04 1.328e-09
 45.97152     11.5 1.222e+04 1.691e-09
 45.99148     11.7 1.274e+04 2.013e-09
 46.01144     11.3 1.385e+04 2.376e-09
 46.03140     10.8 1.459e+04 3.016e-09
 46.04245     10.7 1.446e+04 3.816e-09
 46.05243     11.5 1.410e+04 1.919e-09
 46.07133     12.1 1.363e+04 2.398e-09
 46.09129     12.6 1.338e+04 2.596e-09
 46.12133     14.2 1.262e+04 2.050e-09
 46.16136     16.7 1.223e+04 1.680e-09
 46.20128     19.3 1.167e+04 1.085e-09
 46.23057     20.9 1.131e+04 8.702e-10
 46.24598     22.2 1.124e+04 8.552e-10
 46.25662     21.9 1.114e+04 8.183e-10
 46.28113     23.7 1.117e+04 8.460e-10
 46.32106     25.2 1.169e+04 1.027e-09
 46.35091     25.2 1.263e+04 1.838e-09
 46.37077     26.1 1.317e+04 2.515e-09
 46.39073     27.3 1.361e+04 3.151e-09
 46.41070     28.7 1.367e+04 3.453e-09
 46.42829     30.1 1.362e+04 3.366e-09
 46.43827     30.9 1.345e+04 2.947e-09
 46.45062     31.8 1.323e+04 2.425e-09
 46.48067     32.2 1.260e+04 1.479e-09
 46.52069     33.0 1.220e+04 1.151e-09
 46.56061     34.5 1.207e+04 1.075e-09
 46.60054     36.1 1.235e+04 1.197e-09
 46.62630     37.1 1.277e+04 1.426e-09
 46.64627     37.7 1.197e+04 9.247e-10
 46.67031     38.6 1.289e+04 1.547e-09
 46.69018     39.5 1.342e+04 2.171e-09
 46.71014     40.5 1.389e+04 2.879e-09
 46.72516     41.6 1.422e+04 3.510e-09
 46.73514     41.3 1.321e+04 2.204e-09
 46.75007     42.3 1.355e+04 2.671e-09
 46.77003     43.1 1.401e+04 3.043e-09
 46.78999     43.3 1.445e+04 3.327e-09
 46.80995     43.3 1.475e+04 3.458e-09
 46.82412     43.3 1.464e+04 3.324e-09
 46.83410     42.7 1.368e+04 2.661e-09
 46.84988     42.5 1.374e+04 2.627e-09
 46.86984     41.9 1.422e+04 2.502e-09
 46.88981     39.8 1.511e+04 2.534e-09
 46.90977     36.0 1.567e+04 2.500e-09
 46.92308     32.3 1.529e+04 2.674e-09
 46.92802     32.6 1.643e+04 3.623e-09
 46.93462     31.7 1.631e+04 3.808e-09
 46.94461     29.8 1.652e+04 4.353e-09
 46.94980     29.3 1.648e+04 4.420e-09
 46.95479     27.6 1.832e+04 7.935e-09
 46.96961     27.3 1.777e+04 9.589e-09
 46.98962     27.7 1.593e+04 6.554e-09
 47.00958     28.2 1.457e+04 3.989e-09
 47.02203     28.2 1.382e+04 2.539e-09
 47.03201     28.4 1.410e+04 2.863e-09
 47.04951     27.6 1.353e+04 1.934e-09
 47.06947     27.7 1.279e+04 1.249e-09
 47.08943     27.7 1.257e+04 1.153e-09
 47.11947     29.6 1.204e+04 1.031e-09
 47.15950     32.6 1.177e+04 9.771e-10
 47.19942     36.0 1.156e+04 9.167e-10
 47.22014     39.3 1.144e+04 8.546e-10
 47.24011     39.1 1.148e+04 8.846e-10
 47.27928     42.6 1.148e+04 8.758e-10
 47.31920     45.6 1.149e+04 8.682e-10
 47.34905     47.6 1.148e+04 1.001e-09
 47.36891     49.5 1.140e+04 1.088e-09
 47.38888     51.5 1.140e+04 1.066e-09
 47.40788     53.3 1.140e+04 1.006e-09
 47.41786     53.3 1.183e+04 1.167e-09
 47.42880     55.0 1.195e+04 1.134e-09
 47.44876     56.8 1.211e+04 1.094e-09
 47.46873     58.5 1.223e+04 1.051e-09
 47.48869     59.9 1.237e+04 1.010e-09
 47.50684     61.1 1.245e+04 9.700e-10
 47.51682     61.0 1.349e+04 1.401e-09
 47.52861     62.3 1.362e+04 1.372e-09
 47.54858     63.4 1.365e+04 1.389e-09
 47.56854     64.2 1.365e+04 1.473e-09
 47.58850     65.0 1.360e+04 1.636e-09
 47.60579     66.0 1.368e+04 1.937e-09
 47.61577     65.9 1.490e+04 2.840e-09
 47.62843     67.0 1.504e+04 3.280e-09
 47.64337     68.3 1.533e+04 3.874e-09
 47.65335     67.4 1.811e+04 7.259e-09
 47.66835     68.9 1.887e+04 9.081e-09
 47.68832     70.6 1.936e+04 1.130e-08
 47.70475     72.2 1.962e+04 1.320e-08
 47.71473     72.1 1.973e+04 1.293e-08
 47.72824     73.6 2.011e+04 1.419e-08
 47.74821     75.1 2.052e+04 1.564e-08
 47.76817     76.5 2.100e+04 1.696e-08
 47.78309     77.5 2.126e+04 1.587e-08
 47.79302     78.2 2.149e+04 1.486e-08
 47.80301     79.2 2.165e+04 1.437e-08
 47.80860     79.8 2.187e+04 1.406e-08
 47.81359     79.4 2.302e+04 1.095e-08
 47.82038     80.2 2.330e+04 1.064e-08
 47.82537     80.3 2.426e+04 2.158e-08
 47.83295     80.9 2.486e+04 2.325e-08
 47.84293     81.2 2.512e+04 2.514e-08
 47.85291     81.1 2.529e+04 2.709e-08
 47.85808     80.4 2.525e+04 2.966e-08
 47.86307     79.6 2.700e+04 2.231e-08
 47.87288     78.8 2.608e+04 2.444e-08
 47.88286     78.3 2.509e+04 2.718e-08
 47.89284     77.7 2.417e+04 3.165e-08
 47.90257     76.9 2.351e+04 3.858e-08
 47.90756     76.1 2.631e+04 1.661e-08
 47.91280     75.8 2.592e+04 1.876e-08
 47.92278     74.9 2.562e+04 2.056e-08
 47.93276     74.2 2.564e+04 1.952e-08
 47.94779     72.4 2.847e+04 6.184e-09
 47.96780     68.5 2.561e+04 4.834e-09
 47.98761     65.5 2.007e+04 5.897e-09
 47.99759     65.5 2.007e+04 1.247e-08
 48.00162     65.3 1.906e+04 9.628e-09
 48.01160     66.5 1.613e+04 6.919e-09
 48.02769     67.2 1.646e+04 5.770e-09
 48.04765     67.2 1.726e+04 4.387e-09
 48.06761     66.3 1.738e+04 3.166e-09
 48.08757     64.0 1.606e+04 2.637e-09
 48.10058     60.9 1.517e+04 2.817e-09
 48.11056     63.8 1.496e+04 2.249e-09
 48.12750     60.0 1.503e+04 2.883e-09
 48.14746     57.3 1.553e+04 4.687e-09
 48.16742     55.8 1.571e+04 5.896e-09
 48.18739     54.9 1.565e+04 5.708e-09
 48.19953     54.4 1.530e+04 4.465e-09
 48.20952     53.2 1.511e+04 3.905e-09
 48.22731     51.5 1.442e+04 2.603e-09
 48.24728     48.9 1.334e+04 1.477e-09
 48.26724     46.3 1.175e+04 8.707e-10
 48.28720     45.4 1.070e+04 6.281e-10
 48.29849     45.6 1.042e+04 5.320e-10
 48.30847     45.8 1.056e+04 5.838e-10
 48.32713     46.3 1.041e+04 4.973e-10
 48.34183     47.1 1.032e+04 4.483e-10
 48.35182     47.7 1.036e+04 4.409e-10
 48.36705     48.5 1.027e+04 4.259e-10
 48.38702     49.4 1.017e+04 4.199e-10
 48.39745     50.5 1.012e+04 4.195e-10
 48.40743     50.5 1.014e+04 4.211e-10
 48.42694     51.7 1.013e+04 4.277e-10
 48.44690     52.8 1.015e+04 4.440e-10
 48.46687     53.9 1.019e+04 4.656e-10
 48.48642     55.0 1.028e+04 4.935e-10
 48.49640     55.1 1.036e+04 5.061e-10
 48.50679     56.0 1.059e+04 5.578e-10
 48.52676     56.7 1.088e+04 6.296e-10
 48.54672     57.4 1.121e+04 7.259e-10
 48.56668     57.7 1.154e+04 8.600e-10
 48.58538     57.4 1.197e+04 1.065e-09
 48.59536     57.1 1.222e+04 1.197e-09
 48.60661     55.1 1.476e+04 1.779e-09
 48.62657     47.4 2.222e+04 4.678e-09
 48.64653     41.7 2.378e+04 1.256e-08
 48.66650     39.5 2.020e+04 2.210e-08
 48.68434     38.2 1.956e+04 2.194e-08
 48.69394     37.4 1.899e+04 2.245e-08
 48.69606     38.4 1.841e+04 2.135e-08
 48.70642     38.7 1.808e+04 1.123e-08
 48.72638     37.6 1.823e+04 4.744e-09
 48.74635     34.1 1.670e+04 1.551e-09
 48.76631     28.9 1.253e+04 5.676e-10
 48.78329     27.3 1.017e+04 3.640e-10
 48.79327     26.9 1.011e+04 3.660e-10
 48.80623     27.5 1.005e+04 3.299e-10
 48.82620     28.6 9.875e+03 3.045e-10
 48.84616     28.8 9.771e+03 3.019e-10
 48.86612     30.0 9.679e+03 3.234e-10
 48.88225     30.4 9.739e+03 3.538e-10
 48.89223     30.2 9.780e+03 3.866e-10
 48.90605     31.5 9.795e+03 4.231e-10
 48.92601     32.2 9.958e+03 4.644e-10
 48.94597     33.2 1.003e+04 4.900e-10
 48.96594     34.0 1.013e+04 5.012e-10
 48.98121     34.8 1.014e+04 4.839e-10
 48.99119     34.3 1.050e+04 6.241e-10
 49.00586     34.7 1.053e+04 5.663e-10
 49.02583     34.4 1.057e+04 5.043e-10
 49.04030     33.8 1.057e+04 4.509e-10
 49.05028     33.6 1.051e+04 5.497e-10
 49.06575     33.2 1.056e+04 5.228e-10
 49.08016     32.6 1.059e+04 5.256e-10
 49.09014     31.7 1.080e+04 5.802e-10
 49.10568     31.1 1.085e+04 5.989e-10
 49.12564     30.7 1.100e+04 6.567e-10
 49.14560     30.4 1.121e+04 7.303e-10
 49.16557     30.2 1.149e+04 8.225e-10
 49.17912     29.8 1.195e+04 9.672e-10
 49.18910     28.4 1.262e+04 1.294e-09
 49.20549     27.7 1.326e+04 1.637e-09
 49.22545     27.0 1.373e+04 2.005e-09
 49.24542     26.9 1.397e+04 2.356e-09
 49.26538     27.3 1.387e+04 2.646e-09
 49.27808     27.8 1.379e+04 2.860e-09
 49.28806     27.2 1.404e+04 2.965e-09
 49.30531     27.9 1.376e+04 2.752e-09
 49.32527     28.6 1.346e+04 2.442e-09
 49.34523     29.4 1.310e+04 2.047e-09
 49.36519     30.2 1.270e+04 1.656e-09
 49.37703     31.0 1.229e+04 1.296e-09
 49.38640     30.3 1.241e+04 1.399e-09
 49.39452     29.8 1.183e+04 9.611e-10
 49.40512     30.6 1.151e+04 7.522e-10
 49.42508     31.7 1.114e+04 5.727e-10
 49.44504     32.4 1.088e+04 4.633e-10
 49.46501     33.6 1.056e+04 3.667e-10
 49.47599     34.2 1.040e+04 3.237e-10
 49.48597     34.1 1.070e+04 3.906e-10
 49.50493     35.3 1.045e+04 3.383e-10
 49.52490     36.2 1.035e+04 3.210e-10
 49.54486     37.6 1.030e+04 3.109e-10
 49.56482     38.4 1.035e+04 3.153e-10
 49.57495     39.6 1.037e+04 3.247e-10
 49.58493     39.0 1.066e+04 4.322e-10
 49.60475     40.0 1.075e+04 4.750e-10
 49.62471     41.4 1.096e+04 5.764e-10
 49.64467     42.0 1.113e+04 6.299e-10
 49.66392     43.7 1.122e+04 7.073e-10
 49.67390     43.5 1.146e+04 8.276e-10
 49.68460     44.3 1.157e+04 8.785e-10
 49.71464     46.6 1.168e+04 8.950e-10
 49.73896     49.4 1.174e+04 8.288e-10
 49.75735     49.8 1.139e+04 7.964e-10
 49.77306     49.0 1.177e+04 9.217e-10
 49.79459     51.7 1.156e+04 7.413e-10
 49.83451     54.1 1.141e+04 5.840e-10
 49.87444     56.5 1.132e+04 4.804e-10
 49.91437     58.9 1.117e+04 4.524e-10
 49.95101     61.5 1.112e+04 4.675e-10
 49.97097     60.6 1.061e+04 3.859e-10
 49.99422     63.2 1.059e+04 4.438e-10
 50.03414     66.3 1.080e+04 5.217e-10
 50.05985     68.0 1.076e+04 5.444e-10
 50.06973     67.8 1.071e+04 5.176e-10
 50.08301     68.9 1.065e+04 5.138e-10
 50.09299     68.6 1.083e+04 5.467e-10
 50.10382     69.6 1.082e+04 5.517e-10
 50.12378     70.6 1.080e+04 5.504e-10
 50.14374     71.7 1.076e+04 5.460e-10
 50.15871     72.7 1.071e+04 5.370e-10
 50.16869     72.2 1.051e+04 4.848e-10
 50.18367     73.2 1.041e+04 4.783e-10
 50.20363     74.4 1.034e+04 4.791e-10
 50.22359     75.6 1.032e+04 4.884e-10
 50.24356     76.7 1.032e+04 5.134e-10
 50.25766     77.7 1.033e+04 5.456e-10
 50.26764     77.3 1.029e+04 5.168e-10
 50.28348     78.5 1.038e+04 5.632e-10
 50.30345     79.4 1.065e+04 6.483e-10
 50.32341     79.9 1.112e+04 7.933e-10
 50.34337     80.2 1.171e+04 1.022e-09
 50.35662     80.5 1.234e+04 1.348e-09
 50.36660     80.2 1.190e+04 1.043e-09
 50.38330     80.5 1.235e+04 1.299e-09
 50.40326     80.9 1.266e+04 1.539e-09
 50.42322     81.2 1.289e+04 1.742e-09
 50.43723     81.3 1.307e+04 1.908e-09
 50.44721     81.0 1.377e+04 2.326e-09
 50.45558     80.6 1.378e+04 2.250e-09
 50.46556     79.2 1.312e+04 1.746e-09
 50.48311     78.8 1.311e+04 1.817e-09
 50.50307     78.6 1.299e+04 1.773e-09
 50.52304     78.5 1.272e+04 1.630e-09
 50.54300     78.8 1.230e+04 1.364e-09
 50.55453     79.3 1.181e+04 1.030e-09
 50.56452     78.9 1.177e+04 1.043e-09
 50.58293     79.4 1.134e+04 7.291e-10
 50.60289     79.6 1.097e+04 4.821e-10
 50.62285     79.3 1.063e+04 3.172e-10
 50.64281     78.8 1.018e+04 2.267e-10
 50.65349     78.6 9.724e+03 1.861e-10
 50.66347     78.4 9.991e+03 2.047e-10
 50.68274     78.4 9.602e+03 1.856e-10
 50.70270     78.9 9.350e+03 1.832e-10
 50.72266     79.7 9.328e+03 1.848e-10
 50.74247     80.6 9.312e+03 1.943e-10
 50.75245     79.9 9.472e+03 2.286e-10
 50.76259     80.7 9.538e+03 2.539e-10
 50.78147     81.3 9.684e+03 2.968e-10
 50.79145     81.5 9.498e+03 2.659e-10
 50.80252     82.4 9.678e+03 3.086e-10
 50.82248     83.2 9.911e+03 3.606e-10
 50.84142     84.1 1.012e+04 4.123e-10
 50.85140     83.4 1.036e+04 4.923e-10
 50.86240     84.4 1.056e+04 5.398e-10
 50.88237     85.4 1.069e+04 5.578e-10
 50.90233     86.5 1.070e+04 5.559e-10
 50.92229     87.5 1.074e+04 5.487e-10
 50.94038     88.4 1.084e+04 5.397e-10
 50.95036     87.2 1.154e+04 6.440e-10
 50.96222     88.2 1.173e+04 6.469e-10
 50.98218     88.9 1.205e+04 6.753e-10
 51.00214     89.7 1.232e+04 7.424e-10
 51.02211     90.5 1.255e+04 8.478e-10
 51.03934     91.4 1.278e+04 9.933e-10
 51.04932     90.6 1.289e+04 1.297e-09
 51.06203     91.7 1.306e+04 1.503e-09
 51.08200     93.1 1.324e+04 1.719e-09
 51.10196     94.5 1.343e+04 1.926e-09
 51.12192     95.8 1.354e+04 2.095e-09
 51.13570     97.2 1.360e+04 2.194e-09
 51.14209     97.5 1.357e+04 1.504e-09
 51.14827     97.2 1.341e+04 1.824e-09
 51.16185     98.6 1.342e+04 1.903e-09
 51.18181    100.0 1.342e+04 1.931e-09
 51.20177    101.3 1.341e+04 1.929e-09
 51.22173    102.8 1.342e+04 1.903e-09
 51.23725    104.2 1.345e+04 1.898e-09
 51.24723    103.9 1.337e+04 1.784e-09
 51.26166    105.4 1.337e+04 1.784e-09
 51.28162    106.8 1.337e+04 1.781e-09
 51.30159    108.2 1.333e+04 1.768e-09
 51.32155    109.8 1.330e+04 1.770e-09
 51.33621    111.4 1.330e+04 1.791e-09
 51.34619    111.3 1.271e+04 1.365e-09
 51.36147    112.8 1.279e+04 1.383e-09
 51.38144    114.4 1.286e+04 1.401e-09
 51.40140    116.1 1.293e+04 1.425e-09
 51.42136    117.8 1.305e+04 1.465e-09
 51.43516    119.5 1.321e+04 1.509e-09
 51.44515    119.2 1.269e+04 9.604e-10
 51.46129    120.8 1.283e+04 9.690e-10
 51.47994    122.5 1.297e+04 9.736e-10
 51.48992    123.1 1.364e+04 1.902e-09
 51.50121    124.8 1.383e+04 1.988e-09
 51.52118    126.4 1.403e+04 2.071e-09
 51.53412    128.0 1.424e+04 2.143e-09
 51.54410    127.6 1.379e+04 1.215e-09
 51.56110    129.1 1.384e+04 1.232e-09
 51.58107    130.4 1.380e+04 1.272e-09
 51.60103    131.3 1.369e+04 1.370e-09
 51.62099    131.6 1.358e+04 1.592e-09
 51.63308    131.9 1.373e+04 2.111e-09
 51.64306    131.1 1.329e+04 1.581e-09
 51.66092    131.9 1.455e+04 2.788e-09
 51.68088    132.5 1.539e+04 4.022e-09
 51.69580    132.9 1.597e+04 5.418e-09
 51.70574    133.2 1.657e+04 6.823e-09
 51.71572    133.2 1.743e+04 8.914e-09
 51.72570    133.1 1.835e+04 1.118e-08
 51.73194    132.7 1.936e+04 1.395e-08
 51.73693    131.6 2.091e+04 1.763e-08
 51.74566    130.8 2.174e+04 2.196e-08
 51.75564    130.0 2.193e+04 2.459e-08
 51.76562    129.1 2.186e+04 2.465e-08
 51.77561    128.0 2.152e+04 2.366e-08
 51.78141    127.2 2.103e+04 2.180e-08
 51.78641    126.8 2.122e+04 2.483e-08
 51.79557    126.0 2.084e+04 2.188e-08
 51.80555    125.3 2.052e+04 1.918e-08
 51.81553    124.1 2.041e+04 1.638e-08
 51.82551    123.0 2.087e+04 1.397e-08
 51.83094    120.5 2.274e+04 1.252e-08
 51.83450    120.1 2.497e+04 1.181e-08
 51.84409    120.8 1.985e+04 7.720e-09
 51.86054    117.8 2.152e+04 6.112e-09
 51.88051    114.7 2.273e+04 5.976e-09
 51.90047    111.8 2.226e+04 6.598e-09
 51.91997    109.7 2.096e+04 7.047e-09
 51.92995    108.1 1.993e+04 1.203e-08
 51.94040    108.0 1.879e+04 1.246e-08
 51.96036    108.2 1.799e+04 1.210e-08
 51.98032    108.9 1.727e+04 1.026e-08
 52.00028    110.0 1.664e+04 7.542e-09
 52.01892    110.8 1.624e+04 4.916e-09
 52.02890    109.6 1.995e+04 7.495e-09
 52.04021    108.8 1.963e+04 4.511e-09
 52.06017    106.7 1.842e+04 2.836e-09
 52.08014    104.4 1.580e+04 2.408e-09
 52.10010    103.2 1.462e+04 2.476e-09
 52.11788    102.8 1.452e+04 2.597e-09
 52.12786    101.2 1.626e+04 5.124e-09
 52.14002    101.3 1.636e+04 5.559e-09
 52.15999    101.3 1.638e+04 5.893e-09
 52.17840    101.3 1.630e+04 5.743e-09
 52.18839    102.3 1.639e+04 5.722e-09
 52.19991    102.1 1.619e+04 5.446e-09
 52.21684    101.1 1.659e+04 4.841e-09
 52.22682     98.5 1.791e+04 5.636e-09
 52.23984     95.1 1.875e+04 5.174e-09
 52.25980     90.5 1.899e+04 5.044e-09
 52.27976     85.3 1.867e+04 4.949e-09
 52.29973     80.5 1.764e+04 4.611e-09
 52.31579     76.0 1.702e+04 3.945e-09
 52.32577     74.9 1.855e+04 6.638e-09
 52.33965     70.7 1.874e+04 5.297e-09
 52.35962     66.6 1.783e+04 4.100e-09
 52.37958     63.8 1.601e+04 3.225e-09
 52.39954     62.7 1.447e+04 2.736e-09
 52.41475     62.6 1.370e+04 2.493e-09
 52.42473     63.0 1.373e+04 2.995e-09
 52.43947     63.3 1.338e+04 2.597e-09
 52.45943     63.4 1.318e+04 2.329e-09
 52.47939     63.4 1.308e+04 2.209e-09
 52.49935     63.6 1.301e+04 2.196e-09
 52.51371     64.0 1.298e+04 2.231e-09
 52.52369     64.1 1.291e+04 2.008e-09
 52.53263     64.6 1.284e+04 2.016e-09
 52.54261     64.4 1.232e+04 1.419e-09
 52.55924     65.2 1.235e+04 1.448e-09
 52.57921     65.9 1.236e+04 1.466e-09
 52.59917     66.7 1.233e+04 1.463e-09
 52.61266     67.4 1.226e+04 1.446e-09
 52.62265     67.5 1.167e+04 1.174e-09
 52.63909     68.3 1.156e+04 1.124e-09
 52.65906     69.0 1.148e+04 1.058e-09
 52.67902     69.7 1.144e+04 9.884e-10
 52.69898     70.4 1.145e+04 9.118e-10
 52.71162     71.1 1.153e+04 8.475e-10
 52.72160     71.4 1.104e+04 7.024e-10
 52.73891     71.8 1.138e+04 6.362e-10
 52.75887     72.2 1.175e+04 6.358e-10
 52.78891     72.7 1.194e+04 5.569e-10
 52.82894     73.7 1.281e+04 5.727e-10
 52.86886     74.9 1.271e+04 5.606e-10
 52.89975     75.9 1.204e+04 5.237e-10
 52.91971     76.9 1.090e+04 4.924e-10
 52.94871     77.8 1.062e+04 5.380e-10
 52.98864     79.0 1.058e+04 6.222e-10
 53.02856     80.4 1.081e+04 7.272e-10
 53.06849     81.9 1.102e+04 8.013e-10
 53.09766     83.3 1.108e+04 8.078e-10
 53.10755     83.3 1.153e+04 1.112e-09
 53.11820     84.0 1.152e+04 1.111e-09
 53.13816     84.7 1.149e+04 1.100e-09
 53.15813     85.5 1.144e+04 1.074e-09
 53.17809     86.4 1.147e+04 1.089e-09
 53.19642     87.1 1.154e+04 1.116e-09
 53.20640     87.3 1.199e+04 1.415e-09
 53.21802     88.1 1.203e+04 1.419e-09
 53.23109     88.7 1.205e+04 1.420e-09
 53.24107     89.4 1.175e+04 1.219e-09
 53.25794     90.2 1.177e+04 1.198e-09
 53.27790     90.6 1.179e+04 1.191e-09
 53.29538     91.4 1.186e+04 1.200e-09
 53.31544     91.9 1.239e+04 1.518e-09
 53.33789     92.6 1.242e+04 1.538e-09
 53.35776     93.2 1.251e+04 1.613e-09
 53.37772     93.6 1.261e+04 1.702e-09
 53.39434     94.0 1.274e+04 1.849e-09
 53.40432     93.7 1.296e+04 2.243e-09
 53.41764     94.1 1.300e+04 2.337e-09
 53.43761     94.3 1.299e+04 2.320e-09
 53.45757     94.5 1.289e+04 2.247e-09
 53.47753     94.7 1.273e+04 2.122e-09
 53.49329     94.9 1.248e+04 2.008e-09
 53.50327     94.9 1.233e+04 1.907e-09
 53.51746     94.8 1.221e+04 1.825e-09
 53.53742     94.7 1.222e+04 1.834e-09
 53.55738     94.5 1.234e+04 1.910e-09
 53.57533     94.1 1.272e+04 2.145e-09
 53.58532     93.2 1.308e+04 2.288e-09
 53.59225     93.1 1.364e+04 2.925e-09
 53.60223     93.0 1.350e+04 2.868e-09
 53.61727     93.2 1.363e+04 3.120e-09
 53.63724     93.1 1.359e+04 3.058e-09
 53.65720     93.2 1.322e+04 2.562e-09
 53.67716     93.1 1.266e+04 2.004e-09
 53.69130     93.2 1.161e+04 1.163e-09
 53.71137     92.9 1.121e+04 1.022e-09
 53.74723     93.0 9.723e+03 4.785e-10
 53.78715     93.0 8.060e+03 1.942e-10
 53.82708     92.9 7.398e+03 8.940e-11
 53.86700     93.7 7.459e+03 7.946e-11
 53.88932     95.4 7.456e+03 7.945e-11
 53.90928     96.0 7.400e+03 7.873e-11
 53.92975     97.9 7.421e+03 8.148e-11
 53.94972     97.6 7.489e+03 1.007e-10
 53.98678     99.6 7.628e+03 1.208e-10
 54.02671    101.4 7.773e+03 1.467e-10
 54.06663    103.2 7.920e+03 1.722e-10
 54.08723    105.0 7.989e+03 1.905e-10
 54.10719    106.0 7.889e+03 1.742e-10
 54.14648    107.8 7.892e+03 1.729e-10
 54.18641    109.5 7.873e+03 1.659e-10
 54.22633    111.2 7.820e+03 1.541e-10
 54.26518    112.8 7.808e+03 1.468e-10
 54.28514    113.9 7.587e+03 1.116e-10
 54.30618    115.6 7.597e+03 1.118e-10
 54.34611    117.2 7.646e+03 1.156e-10
 54.38604    118.8 7.817e+03 1.326e-10
 54.42596    120.4 8.154e+03 1.712e-10
 54.46309    121.8 8.590e+03 2.298e-10
 54.48306    123.0 8.411e+03 1.988e-10
 54.50581    123.8 8.847e+03 2.668e-10
 54.54574    123.9 9.174e+03 3.219e-10
 54.58566    123.8 9.362e+03 3.416e-10
 54.61551    123.9 9.603e+03 3.645e-10
 54.62802    123.7 9.841e+03 3.908e-10
 54.63800    123.7 1.012e+04 4.555e-10
 54.65534    123.4 1.026e+04 4.786e-10
 54.67079    123.2 1.038e+04 5.074e-10
 54.68078    123.5 1.050e+04 5.484e-10
 54.69526    123.3 1.060e+04 5.955e-10
 54.71523    123.3 1.071e+04 6.549e-10
 54.73519    123.3 1.085e+04 7.308e-10
 54.75515    123.4 1.101e+04 8.270e-10
 54.76975    123.5 1.119e+04 9.426e-10
 54.77973    123.8 1.129e+04 1.026e-09
 54.79508    123.9 1.150e+04 1.171e-09
 54.81504    123.9 1.171e+04 1.324e-09
 54.83500    124.1 1.192e+04 1.460e-09
 54.85497    124.2 1.209e+04 1.542e-09
 54.86871    124.2 1.220e+04 1.547e-09
 54.87869    124.2 1.229e+04 1.619e-09
 54.89489    124.2 1.237e+04 1.630e-09
 54.91486    124.2 1.248e+04 1.646e-09
 54.93482    124.0 1.272e+04 1.693e-09
 54.95478    123.6 1.332e+04 1.852e-09
 54.96766    122.8 1.434e+04 2.253e-09
 54.97517    121.8 1.479e+04 2.609e-09
 54.98225    120.6 1.542e+04 2.946e-09
 54.98967    120.6 1.567e+04 3.153e-09
 54.99960    120.3 1.612e+04 3.560e-09
 55.00958    119.0 1.763e+04 4.510e-09
 55.01704    116.6 2.039e+04 6.530e-09
 55.02204    116.4 2.052e+04 6.947e-09
 55.02954    114.0 2.285e+04 1.071e-08
 55.03952    112.1 2.404e+04 1.726e-08
 55.04951    110.9 2.407e+04 2.812e-08
 55.05949    110.1 2.359e+04 4.510e-08
 55.06652    109.6 2.312e+04 6.707e-08
 55.07151    109.4 2.356e+04 5.273e-08
 55.07945    108.9 2.316e+04 6.632e-08
 55.08943    108.3 2.311e+04 7.065e-08
 55.09941    107.4 2.315e+04 6.945e-08
 55.10939    106.5 2.308e+04 6.468e-08
 55.11600    105.7 2.306e+04 5.629e-08
 55.12099    105.0 2.286e+04 5.552e-08
 55.12936    104.3 2.283e+04 5.147e-08
 55.13934    103.5 2.304e+04 4.659e-08
 55.14928    102.7 2.344e+04 4.035e-08
 55.15926    100.8 2.639e+04 1.483e-08
 55.16548     99.9 2.717e+04 1.041e-08
 55.17047    101.0 2.581e+04 1.811e-08
 55.17926    100.4 2.669e+04 1.138e-08
 55.18925    100.0 2.626e+04 7.969e-09
 55.19923     99.5 2.520e+04 5.001e-09
 55.21425     98.8 2.277e+04 5.887e-09
 55.23426     96.4 1.826e+04 3.593e-09
 55.25422     95.0 1.693e+04 3.354e-09
 55.26453     94.5 1.738e+04 3.486e-09
 55.26948     94.5 1.622e+04 3.203e-09
 55.27908     94.4 1.680e+04 3.383e-09
 55.28906     94.2 1.752e+04 3.727e-09
 55.29904     94.0 1.797e+04 4.016e-09
 55.31406     94.3 2.008e+04 9.602e-09
 55.32649     94.0 2.000e+04 1.145e-08
 55.33647     94.3 1.691e+04 3.019e-09
 55.35351     94.5 1.696e+04 3.179e-09
 55.36349     95.2 1.775e+04 5.977e-09
 55.37400     95.7 1.741e+04 5.460e-09
 55.39396     96.1 1.693e+04 4.943e-09
 55.41393     96.6 1.683e+04 4.558e-09
 55.43389     97.2 1.691e+04 4.508e-09
 55.45247     97.9 1.699e+04 4.561e-09
 55.46245     97.9 1.545e+04 4.773e-09
 55.47381     98.7 1.554e+04 4.955e-09
 55.49378     99.6 1.571e+04 5.392e-09
 55.51374    100.7 1.594e+04 6.021e-09
 55.53370    102.0 1.623e+04 6.870e-09
 55.55142    103.5 1.654e+04 7.740e-09
 55.56140    104.2 1.633e+04 8.780e-09
 55.57363    105.7 1.666e+04 9.599e-09
 55.59359    107.2 1.691e+04 9.988e-09
 55.60584    107.8 1.691e+04 9.595e-09
 55.61079    107.9 1.685e+04 9.440e-09
 55.61845    108.5 1.680e+04 8.706e-09
 55.62843    109.2 1.672e+04 7.992e-09
 55.63841    109.6 1.662e+04 7.458e-09
 55.64839    110.1 1.655e+04 7.057e-09
 55.65527    110.4 1.645e+04 6.737e-09
 55.66026    110.9 1.677e+04 8.303e-09
 55.66835    111.3 1.679e+04 8.132e-09
 55.67562    111.5 1.681e+04 8.137e-09
 55.68061    110.8 1.614e+04 5.842e-09
 55.68832    110.9 1.612e+04 5.939e-09
 55.69830    110.9 1.613e+04 6.161e-09
 55.70475    110.8 1.625e+04 6.521e-09
 55.70974    111.1 1.683e+04 7.743e-09
 55.71826    111.1 1.702e+04 8.251e-09
 55.72824    110.8 1.730e+04 8.907e-09
 55.73822    110.5 1.762e+04 9.711e-09
 55.74820    110.1 1.800e+04 1.069e-08
 55.75423    109.7 1.838e+04 1.178e-08
 55.75922    109.9 1.880e+04 1.301e-08
 55.76817    109.3 1.910e+04 1.398e-08
 55.77815    108.6 1.939e+04 1.505e-08
 55.78813    107.8 1.972e+04 1.628e-08
 55.79811    106.9 1.999e+04 1.747e-08
 55.80371    106.1 2.016e+04 1.850e-08
 55.80870    105.8 2.006e+04 1.837e-08
 55.81807    105.0 2.002e+04 1.883e-08
 55.82806    104.3 1.997e+04 1.919e-08
 55.83804    103.6 1.994e+04 1.928e-08
 55.84774    102.8 1.992e+04 1.918e-08
 55.85274    102.1 1.914e+04 1.515e-08
 55.85319    101.5 1.882e+04 1.424e-08
 55.85818    101.2 1.849e+04 1.339e-08
 55.86798    100.9 1.831e+04 1.282e-08
 55.87796    100.7 1.806e+04 1.181e-08
 55.89298    100.9 1.841e+04 1.253e-08
 55.91300    100.6 1.819e+04 1.124e-08
 55.93296    100.1 1.798e+04 9.830e-09
 55.94725     99.1 1.759e+04 8.256e-09
 55.95723     99.5 1.772e+04 8.376e-09
 55.97288     98.8 1.712e+04 6.992e-09
 55.99285     98.0 1.646e+04 5.863e-09
 56.01281     97.4 1.576e+04 4.861e-09
 56.02495     97.0 1.505e+04 3.933e-09
 56.03494     96.2 1.347e+04 2.353e-09
 56.04621     96.1 1.296e+04 1.965e-09
 56.05619     96.0 1.325e+04 1.755e-09
 56.07270     95.3 1.272e+04 1.427e-09
 56.09266     94.8 1.225e+04 1.269e-09
 56.11262     94.4 1.211e+04 1.262e-09
 56.13259     94.1 1.209e+04 1.285e-09
 56.14516     94.0 1.212e+04 1.390e-09
 56.15515     93.5 1.222e+04 1.412e-09
 56.17251     93.6 1.241e+04 1.659e-09
 56.19247     94.0 1.265e+04 1.961e-09
 56.21244     94.6 1.291e+04 2.279e-09
 56.23240     95.2 1.317e+04 2.542e-09
 56.24412     95.8 1.340e+04 2.698e-09
 56.25410     95.9 1.335e+04 2.661e-09
 56.27233     96.4 1.340e+04 2.662e-09
 56.29229     96.8 1.340e+04 2.637e-09
 56.31225     97.1 1.334e+04 2.533e-09
 56.33221     97.3 1.318e+04 2.355e-09
 56.34308     97.5 1.303e+04 2.158e-09
 56.35306     97.9 1.290e+04 2.157e-09
 56.36920     98.0 1.274e+04 1.945e-09
 56.37918     98.8 1.238e+04 1.434e-09
 56.39210     98.8 1.228e+04 1.360e-09
 56.41207     98.9 1.224e+04 1.347e-09
 56.43203     99.2 1.227e+04 1.357e-09
 56.45199    100.2 1.194e+04 1.259e-09
 56.47195    100.9 1.194e+04 1.241e-09
 56.50200    101.9 1.183e+04 1.133e-09
 56.54202    103.5 1.165e+04 1.005e-09
 56.58195    105.3 1.144e+04 8.745e-10
 56.62018    107.7 1.112e+04 7.001e-10
 56.64014    108.6 1.035e+04 4.026e-10
 56.66180    111.1 1.012e+04 2.957e-10
 56.70172    113.8 9.935e+03 2.206e-10
 56.72361    116.6 9.778e+03 1.705e-10
 56.74358    116.8 9.883e+03 2.091e-10
 56.78157    119.6 9.707e+03 1.734e-10
 56.81809    122.5 9.471e+03 1.605e-10
 56.83806    122.5 9.337e+03 1.417e-10
 56.86142    125.5 9.312e+03 1.425e-10
 56.90135    128.4 9.270e+03 1.474e-10
 56.94128    131.2 9.247e+03 1.583e-10
 56.98120    134.0 9.255e+03 1.750e-10
 57.01601    136.8 9.296e+03 1.979e-10
 57.03597    137.0 9.410e+03 2.404e-10
 57.06105    139.7 9.503e+03 2.670e-10
 57.10098    142.3 9.578e+03 2.748e-10
 57.14090    144.8 9.578e+03 2.720e-10
 57.18083    147.1 9.548e+03 2.578e-10
 57.21392    149.4 9.455e+03 2.317e-10
 57.23388    149.5 9.349e+03 2.054e-10
 57.26068    151.7 9.190e+03 1.746e-10
 57.30061    153.9 9.041e+03 1.544e-10
 57.34053    156.0 8.970e+03 1.499e-10
 57.38046    158.2 8.966e+03 1.509e-10
 57.41184    160.3 8.974e+03 1.573e-10
 57.42351    160.8 8.990e+03 1.525e-10
 57.43206    160.8 8.906e+03 1.344e-10
 57.46031    163.0 8.898e+03 1.380e-10
 57.50023    165.0 8.920e+03 1.492e-10
 57.54016    167.0 9.022e+03 1.693e-10
 57.58009    168.9 9.206e+03 2.017e-10
 57.60975    170.7 9.467e+03 2.509e-10
 57.62971    171.2 9.356e+03 2.157e-10
 57.65994    172.6 9.570e+03 2.537e-10
 57.69986    173.7 9.762e+03 2.986e-10
 57.72971    174.1 9.817e+03 3.214e-10
 57.74957    174.8 9.859e+03 3.385e-10
 57.76613    175.7 9.953e+03 3.739e-10
 57.77611    175.5 9.890e+03 3.449e-10
 57.78950    176.4 1.009e+04 3.978e-10
 57.80747    177.1 1.039e+04 4.952e-10
 57.81745    177.2 9.983e+03 3.796e-10
 57.82943    178.0 1.032e+04 4.775e-10
 57.84939    178.7 1.078e+04 6.351e-10
 57.86935    179.2 1.129e+04 8.652e-10
 57.88931    179.6 1.178e+04 1.183e-09
 57.90642    180.0 1.221e+04 1.601e-09
 57.91641    180.9 1.189e+04 1.106e-09
 57.92924    181.4 1.238e+04 1.467e-09
 57.94920    181.9 1.274e+04 1.877e-09
 57.96917    182.5 1.299e+04 2.272e-09
 57.98913    183.1 1.314e+04 2.512e-09
 58.00538    183.5 1.316e+04 2.531e-09
 58.01536    184.2 1.306e+04 2.209e-09
 58.02905    184.5 1.306e+04 2.222e-09
 58.04902    184.8 1.299e+04 2.186e-09
 58.06898    185.1 1.276e+04 2.042e-09
 58.08894    185.5 1.251e+04 1.843e-09
 58.10434    186.0 1.226e+04 1.647e-09
 58.11432    186.8 1.241e+04 1.706e-09
 58.12045    187.4 1.200e+04 1.383e-09
 58.14051    186.6 1.184e+04 1.381e-09
 58.17897    187.5 1.113e+04 1.034e-09
 58.20349    188.7 1.040e+04 7.487e-10
 58.22345    190.0 1.151e+04 1.013e-09
 58.25882    191.0 1.061e+04 6.827e-10
 58.29875    192.4 9.744e+03 4.684e-10
 58.33867    194.2 9.053e+03 3.466e-10
 58.37860    196.3 8.725e+03 3.086e-10
 58.40140    198.9 8.673e+03 3.056e-10
 58.42137    199.5 9.152e+03 3.219e-10
 58.45845    202.3 9.165e+03 3.244e-10
 58.49837    205.1 9.204e+03 3.426e-10
 58.53830    208.1 9.308e+03 3.753e-10
 58.57823    211.4 9.533e+03 4.343e-10
 58.59922    212.7 9.618e+03 4.728e-10
 58.61918    214.4 9.876e+03 4.200e-10
 58.64800    215.6 9.930e+03 4.613e-10
 58.66786    217.0 1.002e+04 5.152e-10
 58.68783    218.6 1.014e+04 5.719e-10
 58.69808    220.0 1.028e+04 6.243e-10
 58.70806    220.0 1.027e+04 5.428e-10
 58.72775    221.3 1.040e+04 5.816e-10
 58.74771    222.7 1.053e+04 6.273e-10
 58.76768    224.0 1.068e+04 6.876e-10
 58.78705    225.3 1.086e+04 7.659e-10
 58.79703    225.4 1.059e+04 6.914e-10
 58.80760    226.6 1.082e+04 7.753e-10
 58.81882    227.7 1.107e+04 8.765e-10
 58.82880    227.1 1.085e+04 8.078e-10
 58.84753    228.2 1.104e+04 8.818e-10
 58.86749    229.3 1.136e+04 9.860e-10
 58.89753    230.7 1.140e+04 9.793e-10
 58.93756    232.3 1.166e+04 1.010e-09
 58.97518    233.5 1.169e+04 9.915e-10
 58.99514    235.0 1.171e+04 1.087e-09
 59.01741    236.0 1.169e+04 9.589e-10
 59.05733    236.9 1.142e+04 6.853e-10
 59.09726    237.8 1.087e+04 4.125e-10
 59.13718    238.7 1.019e+04 2.521e-10
 59.17309    239.8 9.961e+03 2.231e-10
 59.19306    240.6 9.670e+03 1.980e-10
 59.21704    241.9 9.616e+03 1.930e-10
 59.25696    243.6 9.626e+03 1.945e-10
 59.29689    245.2 9.691e+03 2.047e-10
 59.33681    246.6 9.840e+03 2.260e-10
 59.37101    247.8 1.001e+04 2.475e-10
 59.39097    248.8 9.844e+03 2.402e-10
 59.41666    249.9 9.957e+03 2.523e-10
 59.45659    250.8 1.002e+04 2.582e-10
 59.49652    251.6 1.007e+04 2.652e-10
 59.51748    252.5 1.012e+04 2.816e-10
 59.53744    252.1 1.068e+04 4.868e-10
 59.56892    253.1 1.092e+04 5.957e-10
 59.58888    254.6 1.062e+04 4.376e-10
 59.61629    255.4 1.086e+04 5.401e-10
 59.65622    256.2 1.125e+04 7.067e-10
 59.69614    256.9 1.177e+04 9.514e-10
 59.73607    257.3 1.229e+04 1.203e-09
 59.76684    257.4 1.263e+04 1.308e-09
 59.78670    257.9 1.299e+04 1.608e-09
 59.80574    257.9 1.309e+04 1.614e-09
 59.82571    257.8 1.307e+04 1.597e-09
 59.84567    257.8 1.300e+04 1.541e-09
 59.86152    258.0 1.285e+04 1.441e-09
 59.87147    257.7 1.281e+04 1.409e-09
 59.89564    259.0 1.294e+04 1.508e-09
 59.93570    259.6 1.260e+04 1.318e-09
 59.96475    260.5 1.225e+04 1.136e-09
 59.98471    262.1 1.273e+04 1.463e-09
 60.01555    263.1 1.232e+04 1.169e-09
 60.05547    264.4 1.194e+04 9.415e-10
 60.09540    266.2 1.158e+04 7.725e-10
 60.13533    268.1 1.117e+04 6.357e-10
 60.16266    270.2 1.074e+04 5.256e-10
 60.18263    270.5 1.023e+04 4.482e-10
 60.20596    272.8 1.007e+04 4.353e-10
 60.22582    273.4 1.245e+04 1.049e-09
 60.24493    274.0 1.265e+04 1.094e-09
 60.26142    275.0 1.276e+04 1.082e-09
 60.27141    275.2 1.275e+04 1.057e-09
 60.28485    276.6 1.286e+04 1.057e-09
 60.30481    277.5 1.302e+04 1.079e-09
 60.32478    278.2 1.319e+04 1.130e-09
 60.34474    278.9 1.348e+04 1.258e-09
 60.36038    279.5 1.385e+04 1.524e-09
 60.37036    280.1 1.377e+04 1.535e-09
 60.38467    281.0 1.424e+04 2.043e-09
 60.40463    281.9 1.477e+04 2.782e-09
 60.42459    282.9 1.538e+04 3.797e-09
 60.44455    283.9 1.609e+04 5.228e-09
 60.45934    284.9 1.671e+04 6.795e-09
 60.46932    285.6 1.687e+04 7.234e-09
 60.48448    286.6 1.770e+04 1.008e-08
 60.50444    287.4 1.834e+04 1.198e-08
 60.52440    287.8 1.845e+04 1.198e-08
 60.54437    288.1 1.846e+04 1.149e-08
 60.55829    288.4 1.832e+04 1.006e-08
 60.56393    289.1 1.929e+04 1.517e-08
 60.56997    288.7 2.038e+04 2.066e-08
 60.58429    288.8 2.008e+04 1.665e-08
 60.60426    288.7 1.957e+04 1.197e-08
 60.62422    287.8 1.871e+04 7.868e-09
 60.64418    286.4 1.743e+04 4.966e-09
 60.65725    285.0 1.575e+04 3.140e-09
 60.66723    286.6 1.758e+04 4.986e-09
 60.68411    285.4 1.564e+04 2.916e-09
 60.70407    284.9 1.372e+04 1.850e-09
 60.72403    285.5 1.319e+04 1.491e-09
 60.74400    285.5 1.256e+04 1.205e-09
 60.75631    286.0 1.210e+04 9.847e-10
 60.77637    287.5 1.209e+04 9.752e-10
 60.81406    287.8 1.132e+04 7.163e-10
 60.85399    288.4 1.084e+04 5.851e-10
 60.89391    289.8 1.049e+04 5.054e-10
 60.91441    291.9 1.024e+04 4.441e-10
 60.93437    290.2 1.011e+04 3.687e-10
 60.95432    292.2 9.961e+03 3.252e-10
 60.97428    293.2 1.009e+04 3.423e-10
 61.01369    295.3 1.000e+04 3.197e-10
 61.05361    297.5 1.001e+04 3.193e-10
 61.09354    299.4 1.005e+04 3.234e-10
 61.13227    300.8 1.016e+04 3.405e-10
 61.15223    302.1 1.017e+04 3.463e-10
 61.17339    303.2 1.025e+04 3.711e-10
 61.20324    303.9 1.026e+04 3.952e-10
 61.22310    305.2 1.030e+04 4.351e-10
 61.24101    306.6 1.040e+04 4.974e-10
 61.25099    307.1 1.033e+04 4.781e-10
 61.25845    308.3 1.047e+04 5.393e-10
 61.26843    307.5 1.049e+04 5.364e-10
 61.28299    308.2 1.077e+04 6.268e-10
 61.30295    308.3 1.117e+04 7.596e-10
 61.32292    308.3 1.175e+04 9.877e-10
 61.33997    308.1 1.257e+04 1.392e-09
 61.34995    309.0 1.247e+04 1.366e-09
 61.36284    308.6 1.361e+04 2.137e-09
 61.38281    308.3 1.484e+04 3.455e-09
 61.40277    308.2 1.604e+04 5.498e-09
 61.42273    308.0 1.712e+04 8.036e-09
 61.43892    307.5 1.807e+04 1.068e-08
 61.44891    308.7 1.861e+04 1.288e-08
 61.46266    307.7 1.937e+04 1.481e-08
 61.48262    305.8 1.945e+04 1.457e-08
 61.50258    303.5 1.932e+04 1.269e-08
 61.52255    301.3 1.861e+04 9.083e-09
 61.53788    298.4 1.739e+04 5.764e-09
 61.54786    299.9 1.856e+04 7.533e-09
 61.56247    295.5 1.697e+04 4.316e-09
 61.58243    289.1 1.600e+04 3.029e-09
 61.60240    284.2 1.557e+04 2.903e-09
 61.61263    281.6 1.539e+04 2.898e-09
 61.61757    281.5 1.533e+04 2.909e-09
 61.62725    279.1 1.535e+04 3.097e-09
 61.63674    274.2 1.674e+04 4.054e-09
 61.64173    276.1 1.590e+04 3.491e-09
 61.64722    269.6 1.972e+04 5.964e-09
 61.65720    262.5 2.405e+04 1.412e-08
 61.66718    256.5 2.589e+04 3.325e-08
 61.67716    252.0 2.651e+04 6.307e-08
 61.68622    248.5 2.665e+04 9.201e-08
 61.69121    249.9 2.697e+04 7.779e-08
 61.69712    246.6 2.723e+04 9.697e-08
 61.70710    243.4 2.714e+04 9.727e-08
 61.71709    240.2 2.731e+04 8.609e-08
 61.72707    236.9 2.725e+04 6.260e-08
 61.73570    233.4 2.652e+04 3.979e-08
 61.74069    234.2 2.719e+04 5.329e-08
 61.74703    230.8 2.597e+04 3.390e-08
 61.75701    227.6 2.411e+04 2.147e-08
 61.76699    225.0 2.218e+04 1.510e-08
 61.77697    223.3 2.089e+04 1.207e-08
 61.78470    222.8 2.073e+04 1.097e-08
 61.78791    221.9 2.076e+04 1.076e-08
 61.79017    221.5 2.061e+04 1.109e-08
 61.80198    221.6 1.983e+04 9.475e-09
 61.82199    220.1 1.827e+04 7.249e-09
 61.83475    218.8 1.682e+04 5.437e-09
 61.84473    218.6 1.717e+04 4.721e-09
 61.86191    217.2 1.568e+04 3.205e-09
 61.88188    216.7 1.489e+04 2.374e-09
 61.90184    216.5 1.444e+04 1.876e-09
 61.92180    216.5 1.392e+04 1.521e-09
 61.93371    216.5 1.332e+04 1.237e-09
 61.94369    215.5 1.277e+04 1.245e-09
 61.95692    216.0 1.259e+04 1.156e-09
 61.96690    215.4 1.233e+04 1.017e-09
 61.98169    215.7 1.242e+04 1.031e-09
 62.00165    215.8 1.252e+04 1.065e-09
 62.02162    215.7 1.264e+04 1.119e-09
 62.03266    215.5 1.282e+04 1.212e-09
 62.04265    215.3 1.327e+04 1.500e-09
 62.06154    214.6 1.356e+04 1.681e-09
 62.08150    213.6 1.391e+04 1.935e-09
 62.10147    212.5 1.428e+04 2.253e-09
 62.12143    211.1 1.464e+04 2.585e-09
 62.13162    209.2 1.497e+04 2.869e-09
 62.14160    208.4 1.495e+04 2.820e-09
 62.16136    205.6 1.512e+04 2.799e-09
 62.18132    201.8 1.523e+04 2.764e-09
 62.20128    196.9 1.527e+04 2.733e-09
 62.22060    191.5 1.525e+04 2.670e-09
 62.23058    190.6 1.486e+04 2.453e-09
 62.24121    185.5 1.471e+04 2.376e-09
 62.26117    181.0 1.434e+04 2.121e-09
 62.28113    177.0 1.378e+04 1.690e-09
 62.30110    173.1 1.311e+04 1.263e-09
 62.31955    168.3 1.255e+04 1.004e-09
 62.32954    168.9 1.254e+04 1.014e-09
 62.34102    164.7 1.194e+04 8.301e-10
 62.36098    160.8 1.172e+04 7.794e-10
 62.38095    157.4 1.169e+04 7.647e-10
 62.40091    154.0 1.174e+04 7.632e-10
 62.41851    150.6 1.179e+04 7.663e-10
 62.42849    151.2 1.187e+04 8.063e-10
 62.44083    147.6 1.196e+04 8.420e-10
 62.46080    144.1 1.202e+04 8.953e-10
 62.48076    140.2 1.229e+04 1.016e-09
 62.50072    134.1 1.342e+04 1.464e-09
 62.51747    125.8 1.597e+04 2.823e-09
 62.52745    126.4 1.571e+04 2.697e-09
 62.54065    118.2 1.728e+04 4.407e-09
 62.56061    110.9 1.748e+04 4.802e-09
 62.58057    104.5 1.704e+04 4.313e-09
 62.60054     99.3 1.570e+04 2.783e-09
 62.61642     94.0 1.364e+04 1.340e-09
 62.62641     94.1 1.358e+04 1.365e-09
 62.64046     88.4 1.125e+04 6.178e-10
 62.65538     82.6 9.981e+03 3.665e-10
 62.66537     81.7 9.797e+03 3.228e-10
 62.68039     78.0 9.679e+03 3.199e-10
 62.70035     75.2 9.776e+03 3.378e-10
 62.71538     71.3 1.037e+04 4.495e-10
 62.72536     71.0 1.040e+04 4.545e-10
 62.74028     65.9 1.194e+04 8.255e-10
 62.76024     61.3 1.333e+04 1.604e-09
 62.78020     58.0 1.418e+04 2.487e-09
 62.80017     55.0 1.438e+04 2.633e-09
 62.81434     52.2 1.420e+04 2.429e-09
 62.82432     50.9 1.414e+04 2.297e-09
 62.84009     47.7 1.332e+04 1.628e-09
 62.86005     43.7 1.208e+04 9.215e-10
 62.88002     37.3 1.162e+04 6.555e-10
 62.89998     29.4 1.203e+04 7.209e-10
 62.91329     23.4 1.227e+04 9.361e-10
 62.92328     19.6 1.312e+04 1.079e-09
 62.93991      8.5 1.744e+04 2.504e-09
 62.95987     -1.7 1.993e+04 4.847e-09
 62.97479    -10.1 1.999e+04 7.079e-09
 62.98472    -13.5 2.034e+04 7.398e-09
 62.99471    -18.9 1.934e+04 6.444e-09
 63.00452    -21.1 1.936e+04 6.347e-09
 63.00951    -20.3 1.923e+04 6.045e-09
 63.01220    -24.9 1.816e+04 5.013e-09
 63.02223    -29.5 1.664e+04 3.059e-09
 63.03972    -35.2 1.496e+04 1.669e-09
 63.05968    -40.8 1.353e+04 8.717e-10
 63.07964    -46.3 1.221e+04 4.971e-10
 63.09961    -50.7 1.097e+04 3.518e-10
 63.11121    -53.1 1.042e+04 3.120e-10
 63.13127    -54.8 1.020e+04 2.717e-10
 63.16967    -56.6 1.026e+04 2.905e-10
 63.20960    -58.3 1.021e+04 3.110e-10
 63.24952    -59.3 1.022e+04 3.352e-10
 63.28935    -59.9 1.019e+04 3.409e-10
 63.32928    -61.9 9.939e+03 2.999e-10
 63.36930    -62.4 9.979e+03 2.914e-10
 63.40923    -62.9 1.003e+04 3.032e-10
 63.44915    -62.9 1.001e+04 3.269e-10
 63.48727    -62.4 9.964e+03 3.345e-10
 63.50723    -63.2 9.929e+03 3.618e-10
 63.52900    -62.8 9.854e+03 3.215e-10
 63.56893    -62.9 9.704e+03 2.717e-10
 63.60885    -63.2 9.553e+03 2.498e-10
 63.64878    -63.3 9.473e+03 2.447e-10
 63.68518    -63.1 9.457e+03 2.432e-10
 63.70474    -63.7 9.181e+03 2.128e-10
 63.70827    -61.8 9.228e+03 2.150e-10
 63.72863    -61.7 9.206e+03 1.979e-10
 63.76856    -62.0 9.188e+03 1.899e-10
 63.80848    -64.5 9.752e+03 2.146e-10
 63.83833    -68.4 1.112e+04 3.852e-10
 63.85819    -70.6 1.186e+04 5.516e-10
 63.87816    -73.3 1.278e+04 1.447e-09
 63.89288    -73.4 1.352e+04 2.475e-09
 63.90286    -73.0 1.358e+04 2.391e-09
 63.91808    -73.0 1.406e+04 2.987e-09
 63.93805    -73.6 1.411e+04 3.060e-09
 63.95801    -74.2 1.369e+04 2.405e-09
 63.97797    -75.4 1.280e+04 1.398e-09
 63.99184    -77.9 1.173e+04 7.856e-10
 64.00182    -77.6 1.169e+04 7.945e-10
 64.01790    -79.6 1.084e+04 5.309e-10
 64.03786    -80.7 1.041e+04 4.199e-10
 64.05231    -81.3 1.025e+04 3.786e-10
 64.06230    -80.3 1.012e+04 3.307e-10
 64.07779    -80.7 1.010e+04 3.251e-10
 64.09079    -81.4 1.025e+04 3.337e-10
 64.10078    -79.7 1.035e+04 3.429e-10
 64.11771    -80.5 1.040e+04 3.566e-10
 64.13767    -80.8 1.050e+04 3.789e-10
 64.15764    -82.0 1.061e+04 4.461e-10
 64.17760    -82.3 1.078e+04 4.745e-10
 64.18975    -82.7 1.092e+04 4.968e-10
 64.19973    -82.7 1.091e+04 4.938e-10
 64.21752    -82.9 1.099e+04 5.034e-10
 64.23749    -83.7 1.114e+04 5.330e-10
 64.25745    -83.9 1.116e+04 5.351e-10
 64.27741    -84.8 1.110e+04 5.299e-10
 64.28871    -85.4 1.113e+04 5.631e-10
 64.29869    -84.3 1.092e+04 4.816e-10
 64.31734    -84.9 1.096e+04 5.101e-10
 64.33730    -85.3 1.107e+04 5.423e-10
 64.35726    -85.8 1.108e+04 5.571e-10
 64.37723    -86.0 1.104e+04 5.586e-10
 64.38767    -85.9 1.091e+04 5.290e-10
 64.39701    -85.4 1.069e+04 4.761e-10
 64.40654    -84.2 1.059e+04 4.399e-10
 64.41715    -84.1 1.055e+04 4.069e-10
 64.43712    -84.1 1.063e+04 3.598e-10
 64.45708    -84.6 1.081e+04 3.198e-10
 64.47664    -85.5 1.094e+04 3.056e-10
 64.48662    -83.5 1.083e+04 2.998e-10
 64.49700    -84.6 1.107e+04 3.008e-10
 64.51697    -86.7 1.141e+04 3.099e-10
 64.53693    -88.1 1.180e+04 4.329e-10
 64.55689    -89.0 1.199e+04 6.517e-10
 64.57560    -89.1 1.218e+04 9.401e-10
 64.58558    -88.2 1.213e+04 8.273e-10
 64.59682    -88.1 1.240e+04 1.160e-09
 64.61678    -87.9 1.264e+04 1.440e-09
 64.63674    -87.7 1.275e+04 1.558e-09
 64.65671    -87.6 1.281e+04 1.489e-09
 64.67455    -87.9 1.262e+04 1.324e-09
 64.68454    -86.9 1.322e+04 1.765e-09
 64.69663    -87.4 1.303e+04 1.587e-09
 64.71660    -88.0 1.279e+04 1.388e-09
 64.73656    -88.6 1.249e+04 1.234e-09
 64.75078    -89.1 1.222e+04 1.148e-09
 64.76076    -87.1 1.227e+04 1.151e-09
 64.77351    -87.5 1.206e+04 1.114e-09
 64.78349    -86.8 1.277e+04 1.505e-09
 64.79645    -87.0 1.262e+04 1.468e-09
 64.81641    -87.1 1.255e+04 1.456e-09
 64.83637    -87.0 1.249e+04 1.448e-09
 64.85633    -86.9 1.238e+04 1.415e-09
 64.87247    -86.7 1.220e+04 1.326e-09
 64.88245    -86.9 1.287e+04 1.754e-09
 64.89626    -86.7 1.264e+04 1.630e-09
 64.91622    -86.3 1.229e+04 1.447e-09
 64.93619    -85.7 1.186e+04 1.215e-09
 64.95615    -85.0 1.137e+04 9.596e-10
 64.97142    -84.4 1.088e+04 7.175e-10
 64.98141    -84.1 1.135e+04 1.053e-09
 64.99607    -83.4 1.081e+04 7.691e-10
 65.01604    -82.9 1.040e+04 5.572e-10
 65.04608    -82.7 9.958e+03 3.835e-10
 65.07058    -80.8 9.557e+03 3.142e-10
 65.08967    -80.0 1.005e+04 4.285e-10
 65.10520    -78.5 1.061e+04 6.016e-10
 65.12603    -76.2 1.009e+04 4.789e-10
 65.16595    -74.1 9.836e+03 4.259e-10
 65.20588    -72.0 9.759e+03 4.097e-10
 65.24581    -70.1 9.690e+03 4.226e-10
 65.26849    -68.3 9.882e+03 4.610e-10
 65.28845    -67.3 1.067e+04 7.428e-10
 65.32566    -65.5 1.114e+04 9.831e-10
 65.36558    -64.4 1.158e+04 1.118e-09
 65.40551    -63.9 1.185e+04 1.116e-09
 65.43535    -63.6 1.214e+04 1.236e-09
 65.44925    -63.8 1.213e+04 1.236e-09
 65.45923    -63.9 1.261e+04 1.477e-09
 65.46621    -64.3 1.258e+04 1.509e-09
 65.47619    -63.3 1.419e+04 2.706e-09
 65.49514    -63.7 1.407e+04 2.630e-09
 65.51511    -64.0 1.352e+04 2.348e-09
 65.53507    -64.3 1.285e+04 2.024e-09
 65.55503    -64.4 1.232e+04 1.766e-09
 65.56517    -64.3 1.198e+04 1.582e-09
 65.57515    -63.5 1.225e+04 1.722e-09
 65.59496    -63.7 1.172e+04 1.443e-09
 65.61492    -63.7 1.146e+04 1.310e-09
 65.63488    -63.5 1.134e+04 1.252e-09
 65.65414    -63.2 1.129e+04 1.237e-09
 65.66412    -63.0 1.114e+04 1.160e-09
 65.67481    -62.9 1.123e+04 1.211e-09
 65.69477    -63.4 1.167e+04 1.415e-09
 65.71474    -64.5 1.233e+04 1.797e-09
 65.73470    -65.7 1.309e+04 2.409e-09
 65.75310    -66.7 1.379e+04 3.225e-09
 65.76308    -66.6 1.366e+04 3.086e-09
 65.77462    -67.2 1.420e+04 3.897e-09
 65.79349    -67.6 1.455e+04 4.437e-09
 65.80347    -67.9 1.460e+04 4.492e-09
 65.81455    -68.7 1.463e+04 4.562e-09
 65.83451    -69.2 1.434e+04 4.094e-09
 65.85205    -69.7 1.375e+04 3.154e-09
 65.86204    -69.7 1.330e+04 2.619e-09
 65.87444    -70.7 1.269e+04 1.978e-09
 65.89440    -71.7 1.210e+04 1.554e-09
 65.91436    -72.3 1.166e+04 1.298e-09
 65.93433    -72.3 1.137e+04 1.147e-09
 65.95101    -72.2 1.118e+04 1.044e-09
 65.96099    -71.8 1.078e+04 8.152e-10
 65.97425    -71.4 1.060e+04 7.274e-10
 65.99422    -70.9 1.044e+04 6.445e-10
 66.01418    -70.4 1.030e+04 5.647e-10
 66.03414    -70.0 1.018e+04 4.924e-10
 66.04997    -69.5 1.008e+04 4.451e-10
 66.06005    -69.9 9.816e+03 3.434e-10
 66.08424    -68.8 9.423e+03 2.824e-10
 66.12417    -67.2 9.163e+03 2.400e-10
 66.16409    -65.4 9.029e+03 2.058e-10
 66.20402    -63.6 8.902e+03 1.746e-10
 66.23810    -61.9 8.709e+03 1.478e-10
 66.25806    -61.5 8.326e+03 1.329e-10
 66.28387    -59.6 8.332e+03 1.193e-10
 66.32380    -57.8 8.322e+03 1.041e-10
 66.36372    -56.2 8.334e+03 8.756e-11
 66.40365    -54.8 8.377e+03 7.522e-11
 66.43601    -53.3 8.396e+03 7.382e-11
 66.45597    -51.8 8.250e+03 6.384e-11
 66.48217    -50.3 8.297e+03 6.117e-11
 66.50213    -49.5 8.295e+03 6.090e-11
 66.52342    -48.3 8.383e+03 6.125e-11
 66.56335    -47.6 8.608e+03 8.006e-11
 66.60328    -47.1 9.517e+03 1.751e-10
 66.63392    -46.2 1.042e+04 3.702e-10
 66.65389    -44.5 9.788e+03 2.270e-10
 66.68313    -43.4 1.069e+04 4.805e-10
 66.72305    -41.9 1.124e+04 7.229e-10
 66.76298    -41.0 1.178e+04 8.638e-10
 66.80290    -40.3 1.198e+04 8.733e-10
 66.83184    -39.7 1.196e+04 6.995e-10
 66.85180    -37.2 1.210e+04 8.863e-10
 66.88276    -36.2 1.196e+04 6.840e-10
 66.92268    -35.4 1.159e+04 5.407e-10
 66.96261    -34.4 1.128e+04 4.847e-10
 66.99245    -32.8 1.117e+04 4.573e-10
 67.01232    -32.2 1.113e+04 4.548e-10
 67.02955    -31.3 1.111e+04 4.772e-10
 67.03954    -30.5 1.116e+04 5.182e-10
 67.05224    -29.9 1.116e+04 5.553e-10
 67.07221    -29.1 1.122e+04 6.013e-10
 67.09217    -28.2 1.126e+04 6.393e-10
 67.11213    -27.4 1.129e+04 6.635e-10
 67.12851    -26.4 1.134e+04 6.617e-10
 67.13849    -25.7 1.141e+04 7.050e-10
 67.16214    -25.2 1.132e+04 6.338e-10
 67.19061    -23.6 1.118e+04 5.504e-10
 67.21058    -22.1 1.125e+04 6.005e-10
 67.22766    -20.1 1.107e+04 5.253e-10
 67.24763    -18.5 1.106e+04 5.223e-10
 67.28201    -17.0 1.081e+04 3.959e-10
 67.32194    -15.5 1.056e+04 2.871e-10
 67.36186    -14.0 1.035e+04 2.184e-10
 67.40179    -12.5 1.025e+04 1.880e-10
 67.42558    -11.0 1.020e+04 1.913e-10
 67.44554     -9.4 9.865e+03 1.570e-10
 67.48164     -8.2 1.016e+04 1.847e-10
 67.52157     -7.3 1.035e+04 2.607e-10
 67.56149     -6.1 1.055e+04 3.848e-10
 67.60142     -4.4 1.082e+04 4.905e-10
 67.62349     -2.9 1.090e+04 5.031e-10
 67.64345     -1.3 1.079e+04 4.765e-10
 67.68127     -0.0 1.058e+04 3.844e-10
 67.72119      1.0 1.018e+04 2.368e-10
 67.76112      1.9 9.833e+03 1.535e-10
 67.80104      3.2 9.661e+03 1.192e-10
 67.82140      4.6 9.576e+03 1.057e-10
 67.84137      6.3 9.586e+03 1.063e-10
 67.87910      7.8 9.561e+03 1.044e-10
 67.89906      8.9 9.581e+03 9.361e-11
 67.92082     10.2 9.649e+03 1.077e-10
 67.96075     12.1 9.687e+03 1.519e-10
 67.99935     14.3 9.872e+03 2.064e-10
 68.01932     15.9 9.774e+03 2.009e-10
 68.04060     18.2 1.002e+04 2.523e-10
 68.08052     20.2 1.027e+04 2.926e-10
 68.12045     21.9 1.053e+04 3.480e-10
 68.15030     23.0 1.075e+04 4.323e-10
 68.17016     23.7 1.093e+04 4.538e-10
 68.19717     24.6 1.129e+04 6.211e-10
 68.21723     26.5 1.100e+04 5.248e-10
 68.24023     28.1 1.134e+04 6.813e-10
 68.28015     29.7 1.171e+04 8.249e-10
 68.32008     30.9 1.186e+04 8.436e-10
 68.36000     31.9 1.181e+04 7.839e-10
 68.38985     33.2 1.177e+04 7.740e-10
 68.40497     33.5 1.166e+04 7.475e-10
 68.41495     35.0 1.159e+04 6.873e-10
 68.42968     35.0 1.155e+04 7.229e-10
 68.44964     35.2 1.147e+04 7.361e-10
 68.46960     35.6 1.141e+04 7.807e-10
 68.48957     36.3 1.116e+04 8.173e-10
 68.50392     37.2 1.111e+04 7.680e-10
 68.51391     38.0 1.125e+04 8.566e-10
 68.52949     38.6 1.122e+04 8.234e-10
 68.54945     39.1 1.119e+04 7.594e-10
 68.56942     39.1 1.115e+04 7.151e-10
 68.58735     38.9 1.111e+04 6.692e-10
 68.59733     39.6 1.115e+04 6.740e-10
 68.60288     39.6 1.104e+04 6.542e-10
 68.61286     40.5 1.129e+04 7.732e-10
 68.62931     40.2 1.131e+04 7.860e-10
 68.64927     40.3 1.125e+04 7.825e-10
 68.67931     41.2 1.157e+04 9.538e-10
 68.71933     40.6 1.162e+04 1.045e-09
 68.75926     40.8 1.151e+04 1.058e-09
 68.79101     41.4 1.128e+04 9.107e-10
 68.81097     42.5 1.127e+04 9.103e-10
 68.83911     42.2 1.109e+04 7.569e-10
 68.87904     41.9 1.113e+04 7.741e-10
 68.91896     42.1 1.117e+04 8.071e-10
 68.95889     42.8 1.112e+04 8.040e-10
 68.98892     43.8 1.094e+04 7.516e-10
 69.00889     44.9 1.092e+04 7.754e-10
 69.03874     46.3 1.080e+04 7.325e-10
 69.07866     47.4 1.070e+04 6.362e-10
 69.11859     48.4 1.060e+04 5.581e-10
 69.15852     49.6 1.051e+04 5.241e-10
 69.18684     51.1 1.052e+04 4.983e-10
 69.20680     52.5 1.051e+04 4.941e-10
 69.23837     54.1 1.058e+04 4.532e-10
 69.27603     54.9 1.067e+04 4.593e-10
 69.29589     56.5 1.081e+04 5.162e-10
 69.30804     57.1 1.094e+04 5.692e-10
 69.32800     57.5 1.122e+04 6.677e-10
 69.34797     57.4 1.177e+04 8.697e-10
 69.36793     56.6 1.266e+04 1.288e-09
 69.38455     55.5 1.363e+04 2.160e-09
 69.39454     56.2 1.410e+04 2.239e-09
 69.40786     55.2 1.501e+04 4.083e-09
 69.42782     55.1 1.595e+04 6.476e-09
 69.44778     55.0 1.690e+04 7.556e-09
 69.46774     54.9 1.692e+04 6.731e-09
 69.48351     54.1 1.648e+04 4.573e-09
 69.49349     55.7 1.739e+04 6.529e-09
 69.50767     53.9 1.656e+04 3.629e-09
 69.52763     49.5 1.477e+04 1.978e-09
 69.54760     44.3 1.583e+04 2.148e-09
 69.56252     38.3 1.831e+04 3.518e-09
 69.57245     36.2 1.957e+04 4.222e-09
 69.58237     34.7 1.920e+04 7.314e-09
 69.58736     33.1 2.028e+04 1.066e-08
 69.59241     34.0 1.941e+04 1.451e-08
 69.60240     34.7 1.905e+04 1.949e-08
 69.61238     34.4 1.965e+04 2.581e-08
 69.62236     32.4 2.203e+04 3.423e-08
 69.63185     30.1 2.483e+04 4.814e-08
 69.63684     29.9 2.512e+04 8.520e-08
 69.63994     27.2 2.600e+04 9.489e-08
 69.64493     31.2 2.635e+04 6.206e-08
 69.65230     27.6 2.786e+04 5.597e-08
 69.66228     23.8 2.537e+04 4.402e-08
 69.67227     20.0 2.187e+04 3.156e-08
 69.68133     18.9 2.032e+04 2.666e-08
 69.68632     17.8 2.034e+04 2.630e-08
 69.69223     18.3 2.011e+04 2.233e-08
 69.70725     17.5 1.955e+04 1.547e-08
 69.72726     17.7 1.852e+04 1.017e-08
 69.74722     16.9 1.752e+04 5.762e-09
 69.76719     15.5 1.636e+04 3.552e-09
 69.78038     14.4 1.564e+04 2.386e-09
 69.79036     12.6 1.534e+04 1.954e-09
 69.80711     11.7 1.468e+04 1.566e-09
 69.82707     10.7 1.393e+04 1.432e-09
 69.84704      9.9 1.344e+04 1.425e-09
 69.86700      9.6 1.315e+04 1.568e-09
 69.87934      9.8 1.312e+04 1.669e-09
 69.88932      9.2 1.299e+04 1.613e-09
 69.90693      9.3 1.276e+04 1.594e-09
 69.92689      9.3 1.255e+04 1.488e-09
 69.94685      8.8 1.255e+04 1.418e-09
 69.96681      7.3 1.317e+04 1.425e-09
 69.97830      4.9 1.433e+04 1.750e-09
 69.98578      5.1 1.432e+04 1.759e-09
 69.99426      3.9 1.476e+04 2.548e-09
 70.00674      2.1 1.522e+04 3.603e-09
 70.02670      1.3 1.560e+04 5.241e-09
 70.04667      1.0 1.627e+04 7.371e-09
 70.06663      0.5 1.719e+04 9.527e-09
 70.07725     -1.0 1.801e+04 1.099e-08
 70.08723     -1.1 1.860e+04 1.372e-08
 70.10655     -3.0 1.898e+04 1.516e-08
 70.12652     -5.0 1.906e+04 1.606e-08
 70.14648     -6.1 1.904e+04 1.694e-08
 70.16623     -6.8 1.913e+04 1.710e-08
 70.17621     -6.7 1.986e+04 2.028e-08
 70.18641     -7.7 1.957e+04 1.653e-08
 70.20637     -8.9 1.904e+04 1.309e-08
 70.22633     -9.8 1.827e+04 1.033e-08
 70.24629    -10.4 1.752e+04 8.424e-09
 70.26518    -10.6 1.689e+04 7.067e-09
 70.27517    -10.9 1.686e+04 6.981e-09
 70.28622    -11.1 1.664e+04 6.275e-09
 70.30618    -11.5 1.669e+04 6.176e-09
 70.32615    -12.5 1.705e+04 6.872e-09
 70.33850    -13.5 1.756e+04 8.153e-09
 70.34848    -12.4 1.649e+04 4.234e-09
 70.36414    -14.1 1.714e+04 4.986e-09
 70.37412    -14.1 1.789e+04 8.624e-09
 70.38603    -15.5 1.829e+04 1.123e-08
 70.40600    -16.4 1.834e+04 1.378e-08
 70.42596    -16.7 1.829e+04 1.531e-08
 70.44592    -17.0 1.810e+04 1.514e-08
 70.46310    -17.2 1.719e+04 1.191e-08
 70.47308    -16.8 1.799e+04 1.484e-08
 70.48585    -17.0 1.681e+04 9.316e-09
 70.50581    -17.6 1.565e+04 5.471e-09
 70.52577    -18.9 1.448e+04 3.134e-09
 70.54574    -19.9 1.373e+04 2.080e-09
 70.56205    -20.2 1.326e+04 1.576e-09
 70.57204    -20.7 1.338e+04 1.562e-09
 70.58566    -20.7 1.277e+04 1.236e-09
 70.60562    -20.3 1.213e+04 9.715e-10
 70.62559    -19.5 1.156e+04 7.807e-10
 70.64555    -18.7 1.124e+04 6.474e-10
 70.66101    -18.2 1.104e+04 5.491e-10
 70.67099    -18.5 1.095e+04 5.070e-10
 70.68274    -18.1 1.079e+04 4.451e-10
 70.69273    -17.4 1.111e+04 5.311e-10
 70.70544    -16.9 1.099e+04 4.871e-10
 70.72540    -16.4 1.096e+04 4.760e-10
 70.74536    -15.9 1.096e+04 4.755e-10
 70.75997    -15.5 1.104e+04 5.052e-10
 70.76995    -16.0 1.093e+04 4.594e-10
 70.78529    -15.6 1.106e+04 5.181e-10
 70.80525    -15.2 1.120e+04 5.934e-10
 70.82522    -14.7 1.137e+04 6.905e-10
 70.84518    -14.2 1.158e+04 8.054e-10
 70.85893    -13.7 1.177e+04 9.131e-10
 70.86891    -14.2 1.136e+04 6.986e-10
 70.88510    -13.7 1.156e+04 7.505e-10
 70.90507    -13.4 1.174e+04 7.759e-10
 70.92503    -13.1 1.180e+04 7.796e-10
 70.94499    -12.9 1.185e+04 7.544e-10
 70.95788    -12.7 1.176e+04 7.148e-10
 70.96786    -13.8 1.140e+04 6.641e-10
 70.98492    -13.6 1.140e+04 6.819e-10
 71.00488    -13.3 1.138e+04 6.891e-10
 71.02484    -12.9 1.136e+04 6.994e-10
 71.03697    -12.5 1.143e+04 7.212e-10
 71.04695    -11.7 1.132e+04 6.772e-10
 71.05684    -11.2 1.136e+04 6.895e-10
 71.06682    -12.3 1.160e+04 7.968e-10
 71.08473    -11.9 1.192e+04 8.780e-10
 71.10469    -11.7 1.229e+04 9.989e-10
 71.12466    -11.6 1.266e+04 1.167e-09
 71.14462    -11.4 1.303e+04 1.414e-09
 71.15580    -11.4 1.340e+04 1.749e-09
 71.16578    -12.5 1.336e+04 1.728e-09
 71.18455    -12.4 1.369e+04 2.124e-09
 71.20451    -12.2 1.410e+04 2.626e-09
 71.22447    -12.0 1.466e+04 3.240e-09
 71.24443    -12.0 1.532e+04 3.891e-09
 71.25475    -12.5 1.602e+04 4.506e-09
 71.26473    -14.5 1.531e+04 3.163e-09
 71.28436    -16.0 1.577e+04 3.615e-09
 71.30432    -17.8 1.589e+04 4.034e-09
 71.32429    -19.3 1.578e+04 4.392e-09
 71.34373    -20.6 1.570e+04 4.609e-09
 71.35371    -21.7 1.456e+04 3.416e-09
 71.36421    -23.2 1.464e+04 3.458e-09
 71.38121    -25.5 1.512e+04 3.505e-09
 71.39119    -26.5 1.538e+04 3.593e-09
 71.40414    -29.3 1.614e+04 4.690e-09
 71.42410    -31.5 1.689e+04 6.700e-09
 71.44268    -32.6 1.759e+04 9.283e-09
 71.45267    -32.8 1.704e+04 7.368e-09
 71.46403    -33.3 1.760e+04 9.130e-09
 71.48399    -33.9 1.772e+04 9.500e-09
 71.50395    -34.3 1.730e+04 8.066e-09
 71.52391    -34.8 1.628e+04 5.150e-09
 71.54164    -36.0 1.497e+04 3.058e-09
 71.55162    -36.9 1.470e+04 2.938e-09
 71.56384    -38.0 1.374e+04 2.054e-09
 71.58380    -38.5 1.312e+04 1.590e-09
 71.60377    -38.6 1.275e+04 1.333e-09
 71.62373    -38.3 1.242e+04 1.142e-09
 71.64060    -37.8 1.216e+04 9.829e-10
 71.65058    -38.1 1.235e+04 1.096e-09
 71.66365    -37.9 1.211e+04 9.305e-10
 71.68362    -37.8 1.182e+04 7.674e-10
 71.71366    -37.7 1.146e+04 5.992e-10
 71.73975    -37.4 1.084e+04 3.646e-10
 71.75971    -39.0 1.085e+04 3.285e-10
 71.79361    -39.2 1.056e+04 2.295e-10
 71.83353    -39.4 1.050e+04 2.105e-10
 71.87346    -39.6 1.051e+04 2.315e-10
 71.91338    -39.5 1.063e+04 3.601e-10
 71.93766    -39.2 1.082e+04 5.068e-10
 71.95763    -40.0 1.062e+04 4.006e-10
 71.99324    -40.2 1.076e+04 4.402e-10
 72.03316    -41.3 1.117e+04 4.798e-10
 72.06989    -44.8 1.232e+04 7.853e-10
 72.08985    -46.8 1.231e+04 9.124e-10
 72.11301    -49.0 1.289e+04 1.641e-09
 72.13558    -51.0 1.299e+04 1.920e-09
 72.15554    -50.4 1.283e+04 1.699e-09
 72.19286    -52.4 1.239e+04 1.422e-09
 72.23279    -54.5 1.113e+04 7.231e-10
 72.27271    -56.7 1.029e+04 4.637e-10
 72.31264    -57.9 1.011e+04 4.267e-10
 72.33349    -58.3 1.024e+04 4.976e-10
 72.35345    -56.6 1.006e+04 4.162e-10
 72.39249    -56.6 1.044e+04 5.841e-10
 72.43242    -56.3 1.072e+04 7.633e-10
 72.47234    -55.9 1.077e+04 8.120e-10
 72.51144    -55.0 1.057e+04 7.557e-10
 72.53140    -53.7 1.057e+04 7.458e-10
 72.54211    -53.5 1.046e+04 7.232e-10
 72.56198    -52.9 1.022e+04 6.228e-10
 72.58194    -52.7 1.003e+04 5.582e-10
 72.60191    -52.2 9.927e+03 5.196e-10
 72.62018    -51.7 9.911e+03 5.110e-10
 72.63017    -51.1 9.995e+03 5.300e-10
 72.64183    -50.8 1.001e+04 5.288e-10
 72.67187    -50.9 1.004e+04 5.382e-10
 72.70936    -49.7 1.038e+04 6.693e-10
 72.72932    -48.6 1.035e+04 6.562e-10
 72.75182    -47.6 1.076e+04 8.240e-10
 72.77834    -46.7 1.097e+04 9.152e-10
 72.79830    -46.5 1.066e+04 7.866e-10
 72.83167    -45.6 1.067e+04 7.875e-10
 72.87160    -44.6 1.064e+04 7.800e-10
 72.90727    -43.5 1.066e+04 7.855e-10
 72.92723    -42.3 1.065e+04 7.815e-10
 72.95145    -41.3 1.082e+04 8.362e-10
 72.99138    -40.5 1.110e+04 9.477e-10
 73.03130    -40.1 1.144e+04 1.095e-09
 73.07123    -39.8 1.183e+04 1.260e-09
 73.10518    -40.6 1.227e+04 1.439e-09
 73.12515    -38.8 1.227e+04 1.417e-09
 73.15108    -40.5 1.271e+04 1.664e-09
 73.19100    -42.3 1.281e+04 1.745e-09
 73.21402    -44.4 1.257e+04 1.511e-09
 73.22391    -43.3 1.269e+04 1.615e-09
 73.24072    -43.9 1.246e+04 1.412e-09
 73.26068    -44.8 1.207e+04 1.181e-09
 73.28064    -45.6 1.173e+04 1.007e-09
 73.30300    -46.6 1.122e+04 8.093e-10
 73.32306    -45.0 1.124e+04 7.983e-10
 73.35071    -44.8 1.041e+04 5.380e-10
 73.39063    -44.1 9.930e+03 3.674e-10
 73.43056    -43.5 9.529e+03 2.509e-10
 73.46682    -42.5 9.168e+03 1.761e-10
 73.48678    -41.9 9.273e+03 2.126e-10
 73.50101    -40.9 9.106e+03 1.781e-10
 73.52097    -39.2 9.177e+03 1.879e-10
 73.55033    -38.2 9.109e+03 1.722e-10
 73.59026    -37.2 9.077e+03 1.653e-10
 73.63019    -36.1 9.043e+03 1.585e-10
 73.67011    -35.1 8.998e+03 1.481e-10
 73.69892    -34.2 8.930e+03 1.363e-10
 73.71889    -32.5 9.065e+03 1.540e-10
 73.74996    -31.6 9.027e+03 1.511e-10
 73.78989    -30.8 8.967e+03 1.531e-10
 73.82981    -29.7 8.899e+03 1.596e-10
 73.86974    -28.5 8.859e+03 1.665e-10
 73.89684    -27.2 8.846e+03 1.682e-10
 73.91680    -25.9 9.102e+03 2.050e-10
 73.94959    -24.7 8.991e+03 1.968e-10
 73.98952    -23.3 8.862e+03 1.657e-10
 74.02944    -22.0 8.726e+03 1.316e-10
 74.06937    -20.9 8.596e+03 1.084e-10
 74.09475    -19.7 8.482e+03 9.903e-11
 74.11471    -19.2 8.553e+03 1.098e-10
 74.14922    -17.8 8.464e+03 1.062e-10
 74.17527    -16.3 8.415e+03 1.045e-10
 74.19523    -15.6 8.398e+03 1.182e-10
 74.22907    -14.1 8.347e+03 1.158e-10
 74.26900    -12.5 8.313e+03 1.115e-10
 74.29266    -11.0 8.305e+03 1.081e-10
 74.31263    -10.7 8.369e+03 1.233e-10
 74.34885     -9.4 8.370e+03 1.215e-10
 74.38877     -8.1 8.460e+03 1.251e-10
 74.42870     -6.9 8.644e+03 1.466e-10
 74.46862     -5.7 8.852e+03 1.766e-10
 74.49058     -4.6 9.107e+03 2.062e-10
 74.51054     -4.6 8.979e+03 1.913e-10
 74.54847     -3.9 9.101e+03 2.083e-10
 74.58840     -3.3 9.213e+03 2.383e-10
 74.62833     -2.6 9.352e+03 2.831e-10
 74.66825     -1.7 9.608e+03 3.421e-10
 74.68849     -0.9 9.931e+03 4.099e-10
 74.70845     -1.1 9.578e+03 3.099e-10
 74.74810     -0.7 9.899e+03 3.676e-10
 74.78803     -0.6 1.044e+04 4.758e-10
 74.82795     -1.2 1.136e+04 7.340e-10
 74.86375     -2.1 1.237e+04 1.275e-09
 74.88228     -0.5 1.201e+04 1.061e-09
 74.88640     -0.4 1.122e+04 6.900e-10
 74.90781     -0.9 1.192e+04 1.042e-09
 74.94773     -1.3 1.220e+04 1.261e-09
 74.98766     -1.9 1.219e+04 1.280e-09
 75.02758     -2.4 1.198e+04 1.159e-09
 75.06436     -2.7 1.160e+04 9.157e-10
 75.08432     -1.9 1.099e+04 6.003e-10
 75.10743     -1.8 1.059e+04 4.422e-10
 75.14736     -1.5 1.020e+04 3.321e-10
 75.18728     -0.7 9.863e+03 2.711e-10
 75.22721      0.5 9.667e+03 2.455e-10
 75.26227      2.1 9.536e+03 2.282e-10
 75.28223      3.1 9.543e+03 2.263e-10
 75.30706      4.8 9.431e+03 2.102e-10
 75.34699      6.6 9.260e+03 1.758e-10
 75.38691      8.5 9.097e+03 1.315e-10
 75.42684     10.3 8.975e+03 9.480e-11
 75.46018     11.9 8.915e+03 7.099e-11
 75.48015     12.7 8.953e+03 7.487e-11
 75.50669     14.1 8.915e+03 5.887e-11
 75.54662     15.4 8.877e+03 5.238e-11
 75.57220     16.8 8.839e+03 5.115e-11
 75.59216     17.3 8.864e+03 5.203e-11
 75.62647     18.8 8.845e+03 5.476e-11
 75.65810     20.3 8.836e+03 5.781e-11
 75.67806     20.9 8.865e+03 5.657e-11
 75.70632     22.5 8.865e+03 5.805e-11
 75.74624     23.9 8.898e+03 5.578e-11
 75.78617     25.1 8.968e+03 5.245e-11
 75.82609     25.9 9.001e+03 5.105e-11
 75.85601     26.8 9.031e+03 5.365e-11
 75.87597     27.3 9.062e+03 6.081e-11
 75.90595     28.6 9.056e+03 6.672e-11
 75.94587     29.9 9.079e+03 6.795e-11
 75.98580     30.9 9.105e+03 6.335e-11
 76.02572     31.4 9.088e+03 6.006e-11
 76.05392     31.8 9.209e+03 6.281e-11
 76.07389     32.2 9.218e+03 6.555e-11
 76.10557     32.1 9.305e+03 9.063e-11
 76.14550     32.1 9.538e+03 1.443e-10
 76.18543     32.1 9.946e+03 2.315e-10
 76.22535     32.0 1.038e+04 3.349e-10
 76.25184     31.4 1.056e+04 3.964e-10
 76.26720     31.9 1.064e+04 4.097e-10
 76.28064     32.3 1.059e+04 4.336e-10
 76.29512     31.8 1.060e+04 4.467e-10
 76.31499     31.7 1.057e+04 4.390e-10
 76.33495     31.4 1.065e+04 4.317e-10
 76.35060     30.6 1.081e+04 4.310e-10
 76.36058     30.7 1.085e+04 4.460e-10
 76.37488     29.1 1.121e+04 4.931e-10
 76.39484     27.4 1.132e+04 6.106e-10
 76.41480     26.5 1.116e+04 7.619e-10
 76.43477     26.3 1.121e+04 9.040e-10
 76.44956     26.3 1.150e+04 9.690e-10
 76.45954     26.4 1.155e+04 9.866e-10
 76.47469     25.3 1.180e+04 9.971e-10
 76.49465     22.8 1.186e+04 8.933e-10
 76.51462     19.9 1.163e+04 8.724e-10
 76.53458     18.0 1.144e+04 9.366e-10
 76.54851     17.1 1.144e+04 9.981e-10
 76.55849     16.6 1.169e+04 1.128e-09
 76.57450     15.9 1.169e+04 1.130e-09
 76.59447     15.1 1.148e+04 9.668e-10
 76.61443     14.1 1.104e+04 7.334e-10
 76.62469     13.0 1.050e+04 5.420e-10
 76.63467     12.8 1.049e+04 5.582e-10
 76.64747     12.2 1.013e+04 4.320e-10
 76.65745     11.6 1.032e+04 5.114e-10
 76.67432     11.1 1.015e+04 4.188e-10
 76.70436     10.1 1.008e+04 3.619e-10
 76.74438      9.4 9.904e+03 3.042e-10
 76.78431      9.0 9.802e+03 2.783e-10
 76.82424      8.5 9.799e+03 2.847e-10
 76.84558      8.2 9.952e+03 3.652e-10
 76.86554      7.0 1.013e+04 4.500e-10
 76.90409      7.6 1.022e+04 5.265e-10
 76.94401      8.2 1.021e+04 5.283e-10
 76.96913      8.8 1.006e+04 4.601e-10
 76.98909      9.1 1.037e+04 5.869e-10
 77.02353      9.7 1.009e+04 4.741e-10
 77.04349      9.2 9.853e+03 3.888e-10
 77.06379      9.8 9.575e+03 3.046e-10
 77.10371     10.6 9.434e+03 2.724e-10
 77.14364     11.6 9.393e+03 2.668e-10
 77.18357     12.9 9.447e+03 2.802e-10
 77.22144     14.0 9.597e+03 3.111e-10
 77.24140     14.2 9.662e+03 3.416e-10
 77.26342     15.1 9.971e+03 4.203e-10
 77.30334     15.6 1.044e+04 5.750e-10
 77.34327     16.1 1.103e+04 8.173e-10
 77.38319     16.4 1.157e+04 1.100e-09
 77.41936     16.6 1.177e+04 1.252e-09
 77.43932     16.7 1.175e+04 1.233e-09
 77.46305     16.5 1.159e+04 1.204e-09
 77.50297     16.4 1.098e+04 9.534e-10
 77.54290     16.4 1.032e+04 6.949e-10
 77.58282     16.7 9.734e+03 4.867e-10
 77.61727     17.2 9.311e+03 3.561e-10
 77.63723     17.1 8.801e+03 2.837e-10
 77.65761     17.3 8.261e+03 1.830e-10
 77.67757     16.8 8.508e+03 2.086e-10
 77.70260     16.9 8.382e+03 1.919e-10
 77.74252     17.4 8.487e+03 2.100e-10
 77.78245     17.6 8.705e+03 2.463e-10
 77.81518     17.4 8.877e+03 2.963e-10
 77.83515     17.0 8.197e+03 1.989e-10
 77.86230     17.1 8.360e+03 2.567e-10
 77.90223     17.5 8.431e+03 2.871e-10
 77.94215     18.3 8.354e+03 2.848e-10
 77.98208     18.8 8.097e+03 2.251e-10
 78.01310     19.3 7.868e+03 1.812e-10
 78.03306     19.3 7.841e+03 1.678e-10
 78.06193     19.8 7.775e+03 1.523e-10
 78.10186     20.2 7.848e+03 1.555e-10
 78.14178     19.4 8.333e+03 2.269e-10
 78.18171     18.5 9.292e+03 4.456e-10
 78.21101     18.5 1.048e+04 8.871e-10
 78.23097     17.3 1.089e+04 1.100e-09
 78.26156     17.6 1.168e+04 1.453e-09
 78.30148     14.7 1.221e+04 1.571e-09
 78.33133     10.2 1.217e+04 1.163e-09
 78.35120      5.1 1.224e+04 1.117e-09
 78.36586      0.3 1.231e+04 1.168e-09
 78.37584      0.8 1.183e+04 9.702e-10
 78.39112     -3.6 1.195e+04 1.318e-09
 78.40873     -5.8 1.213e+04 1.805e-09
 78.41871     -6.0 1.182e+04 1.570e-09
 78.43105     -6.6 1.216e+04 1.956e-09
 78.45101     -8.1 1.286e+04 2.280e-09
 78.47097    -14.3 1.576e+04 3.051e-09
 78.49093    -24.2 1.878e+04 5.486e-09
 78.50769    -31.8 1.942e+04 1.037e-08
 78.51767    -32.5 1.948e+04 1.088e-08
 78.53086    -36.7 1.919e+04 1.375e-08
 78.55082    -39.4 1.876e+04 1.352e-08
 78.57079    -41.4 1.749e+04 7.947e-09
 78.59075    -44.6 1.575e+04 3.296e-09
 78.60664    -50.9 1.274e+04 1.159e-09
 78.61662    -51.8 1.261e+04 1.098e-09
 78.63067    -57.4 1.004e+04 4.651e-10
 78.65064    -59.1 9.302e+03 3.451e-10
 78.67060    -59.8 9.140e+03 3.140e-10
 78.70064    -60.7 9.086e+03 2.975e-10
 78.74067    -61.6 9.049e+03 2.926e-10
 78.78059    -62.8 9.124e+03 3.210e-10
 78.80475    -63.7 9.482e+03 4.066e-10
 78.82471    -65.2 9.573e+03 4.298e-10
 78.85036    -65.3 9.750e+03 5.001e-10
 78.87023    -66.0 9.824e+03 5.363e-10
 78.89019    -66.7 9.816e+03 5.451e-10
 78.90351    -67.2 9.731e+03 5.233e-10
 78.91349    -68.2 9.628e+03 4.942e-10
 78.93012    -68.9 9.572e+03 4.777e-10
 78.95008    -72.3 1.002e+04 4.931e-10
 78.97004    -83.4 1.500e+04 8.126e-10
 78.99001    -93.5 1.949e+04 3.997e-09
 79.00247    -99.3 2.124e+04 1.272e-08
 79.01245   -100.3 2.111e+04 1.371e-08
 79.02993   -105.7 2.188e+04 2.073e-08
 79.04989   -112.6 2.184e+04 2.205e-08
 79.06433   -118.7 2.031e+04 1.609e-08
 79.07431   -118.3 1.949e+04 1.153e-08
 79.08982   -126.1 1.632e+04 4.417e-09
 79.10143   -133.8 1.350e+04 1.976e-09
 79.11141   -134.1 1.312e+04 1.803e-09
 79.12974   -138.8 1.246e+04 1.489e-09
 79.14971   -142.0 1.237e+04 1.460e-09
 79.16967   -144.8 1.256e+04 1.641e-09
 79.18963   -147.3 1.283e+04 1.898e-09
 79.20038   -149.8 1.289e+04 2.005e-09
 79.21036   -149.8 1.282e+04 1.960e-09
 79.22956   -152.2 1.279e+04 1.966e-09
 79.24952   -154.5 1.244e+04 1.767e-09
 79.26948   -156.7 1.192e+04 1.407e-09
 79.28936   -158.9 1.134e+04 1.073e-09
 79.30932   -161.3 1.058e+04 7.110e-10
 79.32937   -163.7 1.014e+04 5.348e-10
 79.34934   -166.0 9.787e+03 4.162e-10
 79.37843   -168.4 9.492e+03 3.484e-10
 79.39849   -168.2 9.292e+03 3.104e-10
 79.41940   -169.6 9.116e+03 2.935e-10
 79.45933   -171.2 9.086e+03 2.924e-10
 79.49925   -172.0 9.069e+03 2.998e-10
 79.53918   -172.3 9.206e+03 3.323e-10
 79.57644   -172.3 9.374e+03 3.708e-10
 79.59641   -171.7 9.539e+03 4.095e-10
 79.61903   -171.4 9.595e+03 4.269e-10
 79.65895   -171.3 9.605e+03 4.318e-10
 79.69888   -171.0 9.587e+03 4.279e-10
 79.73881   -170.5 9.572e+03 4.210e-10
 79.76299   -169.8 9.581e+03 4.191e-10
 79.77858   -170.3 9.268e+03 3.508e-10
 79.79432   -170.2 9.330e+03 3.594e-10
 79.81866   -169.6 9.314e+03 3.552e-10
 79.85858   -169.1 9.328e+03 3.540e-10
 79.89851   -168.5 9.355e+03 3.586e-10
 79.93843   -167.9 9.397e+03 3.648e-10
 79.97227   -167.3 9.462e+03 3.761e-10
 79.99223   -167.9 9.660e+03 4.236e-10
 80.01829   -166.8 9.712e+03 4.278e-10
 80.05821   -166.1 9.784e+03 4.206e-10
 80.09814   -165.7 9.822e+03 4.060e-10
 80.13806   -165.4 9.853e+03 3.837e-10
 80.17018   -165.1 9.779e+03 3.515e-10
 80.19015   -165.6 9.688e+03 3.206e-10
 80.21791   -164.9 9.604e+03 2.926e-10
 80.25784   -164.0 9.582e+03 2.829e-10
 80.29776   -163.1 9.588e+03 2.823e-10
 80.33769   -162.4 9.784e+03 3.024e-10
 80.36810   -161.6 1.017e+04 3.867e-10
 80.38806   -160.8 1.047e+04 4.088e-10
 80.41754   -159.6 1.108e+04 6.042e-10
 80.45147   -158.3 1.161e+04 8.500e-10
 80.47144   -160.1 1.140e+04 7.649e-10
 80.49739   -159.2 1.180e+04 9.505e-10
 80.53732   -158.5 1.212e+04 1.088e-09
 80.56591   -157.6 1.250e+04 1.285e-09
 80.57580   -157.5 1.254e+04 1.436e-09
 80.58703   -157.5 1.290e+04 1.585e-09
 80.60699   -158.2 1.413e+04 1.851e-09
 80.62696   -161.4 1.645e+04 2.521e-09
 80.64692   -166.2 1.855e+04 4.242e-09
 80.66477   -170.6 1.967e+04 7.827e-09
 80.67475   -171.6 2.032e+04 1.085e-08
 80.68684   -174.5 2.057e+04 1.598e-08
 80.70681   -177.0 2.055e+04 1.890e-08
 80.72677   -179.6 2.038e+04 1.920e-08
 80.74673   -181.4 1.942e+04 1.644e-08
 80.76373   -182.5 1.813e+04 1.066e-08
 80.77371   -182.4 1.753e+04 8.100e-09
 80.78666   -183.3 1.610e+04 4.420e-09
 80.80550   -184.5 1.478e+04 2.422e-09
 80.81548   -184.0 1.471e+04 1.900e-09
 80.82658   -185.7 1.352e+04 1.082e-09
 80.84655   -187.1 1.275e+04 7.608e-10
 80.86269   -187.9 1.236e+04 6.697e-10
 80.87267   -188.3 1.178e+04 6.171e-10
 80.88647   -188.6 1.170e+04 6.082e-10
 80.90643   -188.7 1.168e+04 6.099e-10
 80.92640   -188.9 1.167e+04 6.429e-10
 80.94636   -189.0 1.168e+04 6.864e-10
 80.96164   -189.0 1.166e+04 7.101e-10
 80.97162   -189.2 1.166e+04 7.200e-10
 80.98629   -189.3 1.165e+04 7.254e-10
 81.00625   -189.3 1.153e+04 7.242e-10
 81.02621   -189.3 1.131e+04 6.782e-10
 81.04617   -189.2 1.107e+04 5.976e-10
 81.06060   -189.0 1.080e+04 5.098e-10
 81.07058   -189.2 1.079e+04 5.329e-10
 81.08610   -188.8 1.050e+04 4.370e-10
 81.10606   -188.2 1.026e+04 3.637e-10
 81.12603   -187.6 1.013e+04 3.173e-10
 81.14599   -187.2 1.008e+04 2.948e-10
 81.15965   -186.8 1.006e+04 2.803e-10
 81.17971   -186.0 1.014e+04 2.938e-10
 81.21605   -184.9 1.004e+04 2.708e-10
 81.25598   -183.3 9.966e+03 2.602e-10
 81.29591   -181.6 9.952e+03 2.591e-10
 81.33583   -180.1 9.984e+03 2.698e-10
 81.35766   -178.7 1.008e+04 2.907e-10
 81.37763   -179.0 1.024e+04 3.111e-10
 81.41568   -177.8 1.029e+04 3.242e-10
 81.45561   -176.5 1.029e+04 3.259e-10
 81.49553   -175.1 1.021e+04 3.040e-10
 81.53546   -173.5 1.010e+04 2.669e-10
 81.57538   -172.8 1.008e+04 2.423e-10
 81.61531   -171.0 1.006e+04 2.311e-10
 81.65524   -169.3 1.007e+04 2.299e-10
 81.69516   -167.5 1.022e+04 2.456e-10
 81.73353   -165.8 1.045e+04 2.883e-10
 81.75339   -166.0 1.068e+04 3.360e-10
 81.76484   -165.2 1.082e+04 3.818e-10
 81.78480   -164.9 1.086e+04 4.141e-10
 81.80476   -164.2 1.092e+04 4.705e-10
 81.82472   -163.7 1.093e+04 5.055e-10
 81.84227   -163.4 1.118e+04 5.483e-10
 81.85225   -167.6 1.627e+04 6.662e-10
 81.85819   -170.8 2.094e+04 1.093e-09
 81.86817   -166.1 1.495e+04 5.674e-10
 81.88461   -170.0 2.091e+04 8.944e-10
 81.90458   -174.8 2.451e+04 2.162e-09
 81.92454   -179.1 2.455e+04 5.477e-09
 81.94123   -181.9 2.362e+04 1.100e-08
 81.95116   -182.2 2.128e+04 1.918e-08
 81.95938   -182.5 2.070e+04 2.377e-08
 81.96936   -182.9 2.067e+04 2.655e-08
 81.97934   -183.3 2.100e+04 2.765e-08
 81.98932   -183.8 2.135e+04 2.735e-08
 81.99560   -184.2 2.175e+04 2.614e-08
 82.00059   -184.9 2.334e+04 2.007e-08
 82.00928   -185.9 2.458e+04 1.409e-08
 82.01926   -187.6 2.525e+04 8.564e-09
 82.02925   -189.9 2.474e+04 4.568e-09
 82.03520   -192.8 2.235e+04 2.393e-09
 82.04020   -190.0 2.497e+04 5.505e-09
 82.04508   -193.7 2.241e+04 2.578e-09
 82.05007   -198.4 1.790e+04 1.490e-09
 82.06423   -200.3 1.441e+04 1.090e-09
 82.08424   -201.1 1.231e+04 7.698e-10
 82.10420   -200.7 1.165e+04 5.975e-10
 82.12417   -199.9 1.145e+04 5.086e-10
 82.13914   -199.2 1.124e+04 4.554e-10
 82.14912   -199.5 1.127e+04 5.178e-10
 82.16409   -198.8 1.103e+04 4.728e-10
 82.18405   -197.9 1.081e+04 4.380e-10
 82.20243   -196.9 1.062e+04 4.087e-10
 82.21241   -197.2 1.145e+04 6.658e-10
 82.22398   -196.1 1.118e+04 6.079e-10
 82.23810   -194.9 1.097e+04 5.582e-10
 82.24808   -195.2 1.091e+04 5.471e-10
 82.26391   -193.9 1.072e+04 4.937e-10
 82.28387   -192.6 1.057e+04 4.480e-10
 82.30383   -191.3 1.047e+04 4.136e-10
 82.32379   -190.2 1.041e+04 3.886e-10
 82.33706   -189.0 1.033e+04 3.657e-10
 82.34704   -189.7 1.027e+04 3.654e-10
 82.36372   -188.4 1.020e+04 3.461e-10
 82.38368   -187.0 1.012e+04 3.285e-10
 82.41372   -185.8 1.007e+04 3.169e-10
 82.45375   -184.0 9.963e+03 3.060e-10
 82.49367   -181.9 9.763e+03 2.811e-10
 82.52518   -179.7 9.520e+03 2.490e-10
 82.54515   -180.9 9.640e+03 2.730e-10
 82.55685   -178.7 9.403e+03 2.366e-10
 82.57681   -178.8 9.593e+03 2.661e-10
 82.61345   -176.3 9.399e+03 2.441e-10
 82.65338   -173.9 9.323e+03 2.348e-10
 82.69330   -171.5 9.303e+03 2.325e-10
 82.72310   -169.3 9.286e+03 2.381e-10
 82.74306   -170.9 9.390e+03 2.767e-10
 82.77315   -169.1 9.747e+03 3.537e-10
 82.81308   -167.5 1.029e+04 4.901e-10
 82.85300   -166.2 1.091e+04 7.137e-10
 82.89293   -165.3 1.149e+04 1.003e-09
 82.92101   -164.6 1.186e+04 1.234e-09
 82.93089   -165.6 1.216e+04 1.420e-09
 82.94264   -165.8 1.225e+04 1.471e-09
 82.96260   -166.0 1.227e+04 1.500e-09
 82.98257   -166.2 1.221e+04 1.461e-09
 83.00253   -166.5 1.206e+04 1.361e-09
 83.01977   -166.8 1.187e+04 1.239e-09
 83.02975   -168.3 1.182e+04 1.224e-09
 83.04246   -168.6 1.151e+04 1.072e-09
 83.06242   -168.8 1.119e+04 9.162e-10
 83.08238   -168.9 1.085e+04 7.661e-10
 83.10234   -168.8 1.050e+04 6.255e-10
 83.11873   -168.8 1.016e+04 5.019e-10
 83.12871   -170.6 1.007e+04 4.768e-10
 83.14227   -170.6 9.790e+03 3.871e-10
 83.16223   -170.4 9.608e+03 3.248e-10
 83.18220   -170.1 9.599e+03 2.946e-10
 83.20216   -170.0 9.642e+03 2.894e-10
 83.21769   -170.6 1.042e+04 2.999e-10
 83.22767   -176.9 1.409e+04 7.219e-10
 83.24208   -178.7 1.544e+04 1.332e-09
 83.25512   -179.7 1.593e+04 2.329e-09
 83.26510   -182.9 1.668e+04 5.311e-09
 83.28201   -182.4 1.674e+04 7.219e-09
 83.30197   -181.9 1.695e+04 8.806e-09
 83.31664   -181.5 1.729e+04 9.785e-09
 83.32158   -181.9 1.679e+04 7.591e-09
 83.32683   -182.0 1.705e+04 7.748e-09
 83.33681   -182.1 1.727e+04 7.763e-09
 83.34679   -182.3 1.753e+04 7.756e-09
 83.35677   -182.6 1.771e+04 7.636e-09
 83.36602   -182.9 1.805e+04 7.271e-09
 83.37101   -184.0 1.758e+04 6.357e-09
 83.37674   -184.8 1.714e+04 5.783e-09
 83.38672   -185.5 1.690e+04 5.334e-09
 83.39670   -186.3 1.670e+04 5.009e-09
 83.40668   -186.9 1.646e+04 4.736e-09
 83.41555   -187.8 1.608e+04 4.384e-09
 83.42558   -190.9 1.536e+04 4.046e-09
 83.44171   -191.3 1.515e+04 3.816e-09
 83.46167   -191.5 1.497e+04 3.648e-09
 83.48164   -191.6 1.477e+04 3.441e-09
 83.50160   -191.6 1.444e+04 3.141e-09
 83.51456   -191.6 1.401e+04 2.741e-09
 83.52454   -193.1 1.393e+04 2.477e-09
 83.54153   -193.1 1.340e+04 1.858e-09
 83.56149   -193.5 1.280e+04 1.275e-09
 83.58145   -194.2 1.203e+04 8.069e-10
 83.59936   -195.4 1.093e+04 4.866e-10
 83.60934   -198.9 9.082e+03 2.441e-10
 83.61351   -199.2 8.698e+03 2.049e-10
 83.62349   -201.1 8.641e+03 2.084e-10
 83.64134   -200.4 8.598e+03 2.047e-10
 83.66130   -199.5 8.600e+03 2.045e-10
 83.68127   -198.5 8.667e+03 2.053e-10
 83.70123   -197.6 8.695e+03 2.040e-10
 83.71257   -197.1 8.682e+03 2.031e-10
 83.73263   -200.2 8.874e+03 2.665e-10
 83.77129   -199.0 8.639e+03 2.603e-10
 83.81122   -197.7 8.582e+03 2.564e-10
 83.85114   -196.4 8.588e+03 2.562e-10
 83.89062   -195.3 8.626e+03 2.593e-10
 83.91058   -198.2 8.674e+03 2.678e-10
 83.93100   -197.5 8.759e+03 2.663e-10
 83.95378   -197.2 9.129e+03 2.724e-10
 83.97374   -203.1 1.033e+04 5.421e-10
 84.01085   -202.5 1.059e+04 6.946e-10
 84.05077   -201.4 1.078e+04 8.113e-10
 84.08853   -200.0 1.097e+04 8.971e-10
 84.10849   -202.1 1.137e+04 9.592e-10
 84.13062   -200.1 1.135e+04 8.367e-10
 84.17055   -198.4 1.132e+04 6.733e-10
 84.21048   -196.9 1.132e+04 5.607e-10
 84.25040   -195.4 1.147e+04 5.156e-10
 84.28644   -194.0 1.162e+04 5.069e-10
 84.30402   -194.7 1.200e+04 5.727e-10
 84.30781   -196.2 1.007e+04 3.601e-10
 84.32008   -195.7 1.051e+04 4.163e-10
 84.34004   -195.3 1.071e+04 4.587e-10
 84.36000   -194.6 1.093e+04 5.405e-10
 84.37996   -194.2 1.108e+04 6.383e-10
 84.39519   -193.9 1.126e+04 7.664e-10
 84.40517   -194.8 1.139e+04 8.092e-10
 84.41989   -195.1 1.192e+04 1.031e-09
 84.43985   -195.4 1.270e+04 1.387e-09
 84.45982   -195.8 1.364e+04 1.963e-09
 84.47978   -196.2 1.470e+04 2.887e-09
 84.49414   -196.7 1.581e+04 4.227e-09
 84.50412   -196.6 1.543e+04 4.359e-09
 84.51970   -196.8 1.603e+04 5.424e-09
 84.53967   -197.1 1.651e+04 6.306e-09
 84.55963   -197.7 1.684e+04 6.873e-09
 84.57959   -198.3 1.698e+04 7.145e-09
 84.59310   -198.9 1.692e+04 7.073e-09
 84.60308   -198.3 1.573e+04 4.846e-09
 84.61952   -199.3 1.552e+04 4.304e-09
 84.63948   -200.5 1.505e+04 3.650e-09
 84.65205   -201.9 1.430e+04 2.960e-09
 84.66203   -204.7 1.299e+04 2.137e-09
 84.67941   -205.7 1.219e+04 1.723e-09
 84.69206   -206.6 1.158e+04 1.408e-09
 84.70204   -205.8 1.150e+04 1.339e-09
 84.71933   -206.5 1.121e+04 1.162e-09
 84.73929   -207.4 1.111e+04 1.064e-09
 84.75926   -208.6 1.111e+04 1.043e-09
 84.77922   -210.4 1.124e+04 1.047e-09
 84.79101   -212.7 1.185e+04 1.206e-09
 84.80099   -212.1 1.157e+04 1.085e-09
 84.81915   -214.6 1.222e+04 1.380e-09
 84.83911   -216.8 1.284e+04 1.854e-09
 84.85907   -218.8 1.340e+04 2.439e-09
 84.87903   -220.5 1.386e+04 3.030e-09
 84.88997   -222.2 1.418e+04 3.475e-09
 84.89995   -222.0 1.380e+04 3.027e-09
 84.91896   -223.8 1.397e+04 3.290e-09
 84.93892   -225.6 1.400e+04 3.347e-09
 84.95889   -227.5 1.393e+04 3.306e-09
 84.97885   -229.3 1.377e+04 3.063e-09
 84.99629   -230.9 1.349e+04 2.658e-09
 85.00628   -230.4 1.322e+04 2.416e-09
 85.01877   -232.2 1.296e+04 2.153e-09
 85.03874   -233.9 1.269e+04 1.943e-09
 85.05870   -235.3 1.239e+04 1.745e-09
 85.07790   -236.1 1.208e+04 1.547e-09
 85.08788   -235.5 1.220e+04 1.613e-09
 85.09863   -235.7 1.187e+04 1.420e-09
 85.11859   -235.5 1.157e+04 1.227e-09
 85.13855   -235.3 1.128e+04 1.044e-09
 85.15851   -234.9 1.100e+04 8.820e-10
 85.17686   -234.2 1.075e+04 7.524e-10
 85.18684   -233.1 1.074e+04 7.665e-10
 85.19844   -232.3 1.053e+04 6.551e-10
 85.21840   -231.5 1.039e+04 5.752e-10
 85.23836   -230.6 1.030e+04 5.178e-10
 85.25833   -229.6 1.025e+04 4.761e-10
 85.27582   -228.6 1.023e+04 4.450e-10
 85.28580   -227.7 1.022e+04 4.465e-10
 85.29825   -226.7 1.021e+04 4.197e-10
 85.31822   -225.6 1.021e+04 3.986e-10
 85.33818   -224.6 1.021e+04 3.829e-10
 85.35052   -223.6 1.022e+04 3.728e-10
 85.36050   -223.2 1.021e+04 3.729e-10
 85.37477   -222.2 1.021e+04 3.668e-10
 85.38475   -221.5 1.027e+04 3.723e-10
 85.39807   -220.5 1.028e+04 3.673e-10
 85.41803   -219.6 1.028e+04 3.664e-10
 85.43799   -218.8 1.029e+04 3.664e-10
 85.45796   -217.9 1.034e+04 3.760e-10
 85.47373   -217.1 1.039e+04 4.018e-10
 85.48371   -216.7 1.056e+04 4.283e-10
 85.49788   -216.0 1.061e+04 4.637e-10
 85.51784   -215.1 1.067e+04 5.011e-10
 85.53781   -214.2 1.073e+04 5.343e-10
 85.55777   -213.3 1.077e+04 5.575e-10
 85.57269   -212.4 1.080e+04 5.670e-10
 85.58267   -212.2 1.086e+04 5.681e-10
 85.59770   -211.3 1.081e+04 5.650e-10
 85.61766   -210.3 1.079e+04 5.519e-10
 85.63762   -209.3 1.077e+04 5.305e-10
 85.65758   -208.4 1.073e+04 5.073e-10
 85.67164   -207.5 1.068e+04 4.853e-10
 85.68162   -207.5 1.085e+04 4.856e-10
 85.69476   -206.7 1.089e+04 4.686e-10
 85.70474   -205.7 1.067e+04 4.528e-10
 85.71747   -204.8 1.069e+04 4.395e-10
 85.73744   -204.0 1.070e+04 4.362e-10
 85.75740   -203.2 1.075e+04 4.355e-10
 85.77060   -202.6 1.091e+04 4.420e-10
 85.78058   -203.0 1.120e+04 5.202e-10
 85.79732   -202.5 1.126e+04 5.803e-10
 85.81729   -202.0 1.132e+04 6.779e-10
 85.83725   -201.5 1.147e+04 8.274e-10
 85.85721   -200.9 1.173e+04 1.042e-09
 85.86956   -200.2 1.204e+04 1.330e-09
 85.87954   -199.9 1.173e+04 1.288e-09
 85.89714   -199.2 1.192e+04 1.440e-09
 85.91710   -198.6 1.205e+04 1.532e-09
 85.93706   -198.3 1.207e+04 1.553e-09
 85.95703   -198.1 1.206e+04 1.550e-09
 85.96851   -198.0 1.190e+04 1.442e-09
 85.97849   -198.3 1.150e+04 1.017e-09
 85.99695   -198.6 1.130e+04 9.081e-10
 86.01691   -199.2 1.110e+04 8.056e-10
 86.03688   -200.0 1.092e+04 7.358e-10
 86.04898   -200.6 1.079e+04 7.017e-10
 86.05896   -200.6 1.084e+04 7.102e-10
 86.06747   -201.3 1.073e+04 6.903e-10
 86.07745   -201.5 1.064e+04 6.789e-10
 86.09677   -201.8 1.058e+04 6.752e-10
 86.11673   -201.8 1.054e+04 6.739e-10
 86.13669   -201.8 1.045e+04 6.672e-10
 86.15645   -201.6 1.036e+04 6.363e-10
 86.16643   -201.3 1.016e+04 5.776e-10
 86.17662   -200.8 9.956e+03 5.057e-10
 86.19658   -200.4 9.773e+03 4.433e-10
 86.21654   -200.0 9.648e+03 3.998e-10
 86.23651   -199.6 9.605e+03 3.795e-10
 86.25540   -199.1 9.605e+03 3.747e-10
 86.26538   -198.2 9.397e+03 3.169e-10
 86.27643   -197.8 9.398e+03 3.161e-10
 86.29639   -197.3 9.444e+03 3.194e-10
 86.31636   -197.0 9.529e+03 3.384e-10
 86.33632   -196.6 9.623e+03 3.661e-10
 86.35436   -196.4 9.719e+03 3.963e-10
 86.36434   -195.2 9.520e+03 3.424e-10
 86.37625   -194.9 9.583e+03 3.621e-10
 86.39322   -194.5 9.635e+03 3.838e-10
 86.40321   -194.1 9.462e+03 3.374e-10
 86.41617   -193.7 9.513e+03 3.563e-10
 86.43613   -193.3 9.557e+03 3.757e-10
 86.45332   -193.1 9.607e+03 3.943e-10
 86.46339   -192.2 9.445e+03 3.351e-10
 86.47616   -191.7 9.421e+03 3.343e-10
 86.49602   -191.7 9.453e+03 3.430e-10
 86.51598   -191.6 9.537e+03 3.619e-10
 86.53595   -191.7 9.743e+03 3.935e-10
 86.55227   -192.1 1.013e+04 4.696e-10
 86.56225   -190.9 9.729e+03 3.454e-10
 86.57587   -191.5 1.014e+04 4.281e-10
 86.59584   -192.1 1.061e+04 5.657e-10
 86.61580   -192.6 1.106e+04 7.653e-10
 86.63576   -192.8 1.136e+04 9.983e-10
 86.65123   -192.8 1.152e+04 1.198e-09
 86.66121   -191.9 1.119e+04 9.238e-10
 86.67569   -191.9 1.129e+04 1.068e-09
 86.69565   -191.8 1.130e+04 1.118e-09
 86.71561   -191.7 1.127e+04 1.125e-09
 86.73558   -191.4 1.104e+04 1.074e-09
 86.74745   -191.0 1.077e+04 9.398e-10
 86.75208   -191.4 1.084e+04 1.017e-09
 86.76017   -190.8 1.086e+04 9.960e-10
 86.77550   -190.3 1.061e+04 8.661e-10
 86.79546   -189.8 1.042e+04 7.575e-10
 86.81543   -189.4 1.025e+04 6.740e-10
 86.83539   -189.0 1.011e+04 6.055e-10
 86.84914   -188.5 9.978e+03 5.454e-10
 86.85912   -187.9 1.015e+04 6.002e-10
 86.87532   -187.5 1.004e+04 5.551e-10
 86.89528   -187.2 9.949e+03 5.113e-10
 86.91524   -186.8 9.862e+03 4.688e-10
 86.93520   -186.4 9.777e+03 4.296e-10
 86.94810   -186.1 9.691e+03 3.987e-10
 86.95808   -186.0 9.995e+03 4.987e-10
 86.97513   -185.8 9.933e+03 4.637e-10
 86.99509   -185.5 9.830e+03 4.277e-10
 87.01506   -185.3 9.749e+03 4.024e-10
 87.03717   -185.0 9.637e+03 3.853e-10
 87.05723   -185.3 1.029e+04 5.985e-10
 87.08512   -184.3 1.027e+04 5.908e-10
 87.12505   -183.5 1.038e+04 6.016e-10
 87.16497   -182.8 1.070e+04 6.986e-10
 87.20490   -182.1 1.106e+04 8.649e-10
 87.23518   -181.1 1.139e+04 1.052e-09
 87.25515   -182.0 1.191e+04 1.348e-09
 87.28475   -181.3 1.206e+04 1.477e-09
 87.31459   -180.8 1.212e+04 1.572e-09
 87.33395   -180.5 1.217e+04 1.603e-09
 87.34393   -180.6 1.228e+04 1.671e-09
 87.35442   -180.2 1.241e+04 1.761e-09
 87.37439   -179.9 1.251e+04 1.833e-09
 87.39435   -179.4 1.261e+04 1.899e-09
 87.41431   -178.9 1.263e+04 1.897e-09
 87.43290   -178.5 1.263e+04 1.792e-09
 87.44288   -178.4 1.300e+04 2.296e-09
 87.44591   -177.9 1.301e+04 2.213e-09
 87.45589   -178.4 1.280e+04 1.989e-09
 87.47420   -178.0 1.271e+04 1.851e-09
 87.49416   -177.6 1.257e+04 1.683e-09
 87.51413   -177.2 1.240e+04 1.516e-09
 87.53186   -176.6 1.221e+04 1.364e-09
 87.54184   -176.4 1.270e+04 1.936e-09
 87.55405   -175.7 1.253e+04 1.751e-09
 87.57401   -175.1 1.238e+04 1.597e-09
 87.59398   -174.4 1.233e+04 1.502e-09
 87.61394   -173.9 1.234e+04 1.472e-09
 87.63082   -173.6 1.238e+04 1.468e-09
 87.64080   -172.9 1.266e+04 1.804e-09
 87.65387   -172.7 1.270e+04 1.806e-09
 87.67383   -172.6 1.308e+04 1.873e-09
 87.69379   -172.5 1.353e+04 2.315e-09
 87.71375   -172.3 1.402e+04 2.987e-09
 87.72977   -172.0 1.448e+04 3.744e-09
 87.73975   -171.4 1.463e+04 3.711e-09
 87.75368   -170.9 1.506e+04 4.536e-09
 87.77364   -170.5 1.534e+04 5.026e-09
 87.79016   -170.3 1.540e+04 5.146e-09
 87.80014   -170.0 1.629e+04 7.489e-09
 87.81357   -169.9 1.621e+04 7.434e-09
 87.82873   -169.3 1.561e+04 5.978e-09
 87.83871   -168.8 1.625e+04 7.389e-09
 87.85349   -168.2 1.567e+04 5.797e-09
 87.87346   -167.7 1.498e+04 4.116e-09
 87.89342   -167.5 1.434e+04 2.822e-09
 87.91338   -167.3 1.372e+04 1.975e-09
 87.92769   -167.0 1.319e+04 1.484e-09
 87.93767   -166.3 1.408e+04 2.226e-09
 87.95331   -165.9 1.358e+04 1.691e-09
 87.97327   -165.5 1.315e+04 1.353e-09
 87.99323   -165.0 1.280e+04 1.144e-09
 88.01320   -164.5 1.255e+04 1.007e-09
 88.02664   -164.1 1.237e+04 9.102e-10
 88.03662   -163.7 1.269e+04 8.989e-10
 88.05312   -163.4 1.241e+04 7.708e-10
 88.07308   -163.1 1.220e+04 6.851e-10
 88.09305   -162.8 1.203e+04 6.368e-10
 88.11301   -162.5 1.193e+04 6.097e-10
 88.12560   -162.0 1.185e+04 5.956e-10
 88.13558   -161.9 1.175e+04 5.322e-10
 88.14438   -161.3 1.165e+04 5.221e-10
 88.15436   -160.8 1.194e+04 7.074e-10
 88.17290   -160.2 1.177e+04 6.704e-10
 88.19286   -159.4 1.161e+04 6.248e-10
 88.21282   -158.5 1.146e+04 5.642e-10
 88.22456   -157.6 1.131e+04 4.949e-10
 88.23454   -157.6 1.131e+04 4.321e-10
 88.25275   -156.9 1.121e+04 3.999e-10
 88.28279   -155.8 1.109e+04 3.710e-10
 88.32281   -153.5 1.075e+04 3.021e-10
 88.36274   -151.2 1.043e+04 2.443e-10
 88.40267   -148.6 1.012e+04 1.953e-10
 88.44259   -145.7 9.887e+03 1.443e-10
 88.48252   -143.1 9.772e+03 1.279e-10
 88.52244   -140.5 9.719e+03 1.208e-10
 88.56237   -138.0 9.627e+03 1.193e-10
 88.60062   -135.6 9.559e+03 1.182e-10
 88.62058   -135.2 9.576e+03 1.126e-10
 88.64222   -132.8 9.530e+03 1.130e-10
 88.68215   -130.4 9.479e+03 1.144e-10
 88.72207   -128.2 9.444e+03 1.161e-10
 88.76200   -126.1 9.412e+03 1.173e-10
 88.79853   -124.0 9.364e+03 1.183e-10
 88.81849   -123.7 9.576e+03 1.265e-10
 88.83306   -121.7 9.535e+03 1.273e-10
 88.85302   -121.2 9.490e+03 1.243e-10
 88.88177   -119.3 9.390e+03 1.218e-10
 88.92170   -117.4 9.314e+03 1.205e-10
 88.96162   -115.5 9.243e+03 1.215e-10
 88.99644   -113.5 9.181e+03 1.236e-10
 89.01641   -113.2 9.563e+03 1.674e-10
 89.04148   -111.2 9.454e+03 1.685e-10
 89.08140   -109.0 9.336e+03 1.632e-10
 89.12133   -106.8 9.243e+03 1.543e-10
 89.16125   -104.7 9.146e+03 1.460e-10
 89.19436   -102.6 9.070e+03 1.400e-10
 89.21432   -102.0 9.270e+03 1.970e-10
 89.24110    -99.8 9.187e+03 1.847e-10
 89.28103    -97.6 9.090e+03 1.715e-10
 89.32096    -95.3 8.985e+03 1.561e-10
 89.36088    -93.0 8.870e+03 1.383e-10
 89.39227    -90.6 8.748e+03 1.179e-10
 89.41223    -90.4 9.098e+03 1.596e-10
 89.44073    -88.1 8.949e+03 1.342e-10
 89.48066    -85.8 8.779e+03 1.136e-10
 89.52058    -83.4 8.598e+03 9.922e-11
 89.54150    -81.1 8.451e+03 9.073e-11
 89.56147    -80.4 8.456e+03 9.375e-11
 89.59018    -78.0 8.338e+03 8.647e-11
 89.61015    -77.7 8.456e+03 1.226e-10
 89.64036    -75.3 8.383e+03 1.126e-10
 89.68029    -73.0 8.373e+03 1.098e-10
 89.72021    -70.6 8.377e+03 1.117e-10
 89.76014    -68.2 8.389e+03 1.208e-10
 89.78810    -65.8 8.386e+03 1.288e-10
 89.80806    -65.9 8.437e+03 1.128e-10
 89.83999    -63.5 8.396e+03 1.122e-10
 89.87991    -61.1 8.355e+03 1.089e-10
 89.91984    -58.7 8.343e+03 1.060e-10
 89.95977    -56.4 8.345e+03 1.059e-10
 89.98601    -54.2 8.362e+03 1.098e-10
 90.00597    -54.6 8.468e+03 1.137e-10
 90.03962    -52.5 8.532e+03 1.278e-10
 90.07954    -50.3 8.573e+03 1.437e-10
 90.11947    -48.3 8.607e+03 1.618e-10
 90.15939    -46.2 8.667e+03 1.856e-10
 90.18392    -44.2 8.763e+03 2.170e-10
 90.20389    -44.6 8.865e+03 1.983e-10
 90.22999    -42.5 8.878e+03 2.089e-10
 90.24995    -42.2 8.833e+03 2.034e-10
 90.27917    -40.1 8.813e+03 2.052e-10
 90.31910    -37.8 8.751e+03 2.005e-10
 90.35902    -35.4 8.617e+03 1.740e-10
 90.38184    -33.0 8.462e+03 1.356e-10
 90.40180    -33.4 8.557e+03 1.334e-10
 90.43887    -31.3 8.536e+03 1.094e-10
 90.47880    -29.4 8.523e+03 1.020e-10
 90.51872    -27.4 8.513e+03 1.065e-10
 90.55865    -25.5 8.527e+03 1.396e-10
 90.57975    -23.0 8.617e+03 1.910e-10
 90.59971    -22.7 8.882e+03 2.884e-10
 90.63850    -19.9 9.148e+03 3.494e-10
 90.67843    -17.4 9.428e+03 4.086e-10
 90.71835    -15.2 9.684e+03 4.787e-10
 90.75770    -13.1 9.932e+03 5.591e-10
 90.77767    -13.4 9.916e+03 5.523e-10
 90.79820    -11.4 1.010e+04 5.330e-10
 90.83813    -10.0 1.028e+04 5.567e-10
 90.87805     -8.8 1.040e+04 5.334e-10
 90.91798     -7.8 1.037e+04 4.570e-10
 90.93844     -7.1 1.030e+04 3.369e-10
 90.95611     -5.1 1.095e+04 6.776e-10
 90.97558     -5.8 1.107e+04 7.875e-10
 90.99783     -5.1 1.089e+04 5.862e-10
 91.03776     -5.1 1.041e+04 3.812e-10
 91.07768     -5.6 1.029e+04 2.874e-10
 91.11761     -6.4 1.042e+04 3.871e-10
 91.15353     -9.2 1.190e+04 8.571e-10
 91.17349    -11.2 1.167e+04 6.828e-10
 91.18738    -13.8 1.243e+04 1.611e-09
 91.20725    -13.8 1.267e+04 2.583e-09
 91.22721    -12.2 1.273e+04 3.303e-09
 91.24717    -10.6 1.298e+04 3.431e-09
 91.26227     -9.2 1.361e+04 2.470e-09
 91.27225    -11.2 1.227e+04 1.360e-09
 91.28248    -14.3 1.152e+04 8.023e-10
 91.29246    -15.4 1.092e+04 7.771e-10
 91.30706    -17.4 1.022e+04 5.217e-10
 91.32702    -17.8 9.960e+03 4.574e-10
 91.35135    -18.3 9.605e+03 3.498e-10
 91.37141    -18.1 9.346e+03 3.051e-10
 91.39709    -17.3 8.990e+03 2.361e-10
 91.43701    -16.3 8.784e+03 1.794e-10
 91.47694    -15.5 8.623e+03 1.620e-10
 91.51686    -14.2 8.479e+03 1.634e-10
 91.54936    -12.3 8.335e+03 1.591e-10
 91.56932    -12.7 8.501e+03 1.702e-10
 91.59672    -10.5 8.455e+03 1.446e-10
 91.62692     -8.9 8.402e+03 1.112e-10
 91.64688     -9.3 8.470e+03 1.307e-10
 91.67657     -7.7 8.326e+03 1.188e-10
 91.71649     -5.9 8.268e+03 1.148e-10
 91.74727     -4.0 8.197e+03 1.178e-10
 91.76723     -3.9 8.251e+03 1.504e-10
 91.79634     -1.6 8.193e+03 1.504e-10
 91.83627      0.9 8.195e+03 1.494e-10
 91.87619      3.4 8.191e+03 1.440e-10
 91.91612      5.7 8.229e+03 1.394e-10
 91.94518      7.7 8.278e+03 1.416e-10
 91.96515      8.0 8.190e+03 1.183e-10
 91.99597      9.8 8.225e+03 1.209e-10
 92.03590     11.8 8.292e+03 1.328e-10
 92.07582     13.8 8.364e+03 1.444e-10
 92.11575     15.7 8.397e+03 1.466e-10
 92.14310     17.5 8.406e+03 1.431e-10
 92.16306     17.5 8.423e+03 1.196e-10
 92.19560     18.8 8.503e+03 1.301e-10
 92.23553     20.0 8.599e+03 1.669e-10
 92.27545     21.5 8.746e+03 2.092e-10
 92.31538     23.2 8.815e+03 2.172e-10
 92.34101     25.4 8.825e+03 2.089e-10
 92.36097     25.5 8.881e+03 2.062e-10
 92.39523     26.9 8.745e+03 1.487e-10
 92.43515     27.9 8.650e+03 1.080e-10
 92.47508     29.1 8.533e+03 8.966e-11
 92.51500     30.8 8.450e+03 8.382e-11
 92.53893     32.7 8.448e+03 8.148e-11
 92.55889     32.8 8.562e+03 8.299e-11
 92.59486     34.9 8.541e+03 8.037e-11
 92.63478     36.9 8.556e+03 8.090e-11
 92.67471     38.9 8.613e+03 8.422e-11
 92.71463     40.9 8.703e+03 9.391e-11
 92.73684     42.9 8.819e+03 1.118e-10
 92.75680     43.0 9.092e+03 1.338e-10
 92.79448     45.1 9.207e+03 1.664e-10
 92.83441     47.3 9.307e+03 2.093e-10
 92.87434     49.7 9.430e+03 2.530e-10
 92.91426     52.1 9.615e+03 2.699e-10
 92.93475     54.4 9.637e+03 2.687e-10
 92.95472     54.6 9.863e+03 3.183e-10
 92.99411     57.0 9.902e+03 3.052e-10
 93.02385     59.4 9.907e+03 2.823e-10
 93.04381     60.0 9.890e+03 2.693e-10
 93.07396     62.4 9.898e+03 2.473e-10
 93.11270     64.9 9.881e+03 2.269e-10
 93.13267     64.9 9.988e+03 2.561e-10
 93.15381     67.4 9.995e+03 2.579e-10
 93.19374     69.9 9.989e+03 2.628e-10
 93.23367     72.4 9.993e+03 2.706e-10
 93.27359     74.8 1.002e+04 2.773e-10
 93.31062     76.9 1.004e+04 2.819e-10
 93.33058     77.2 1.017e+04 3.580e-10
 93.35344     79.1 1.020e+04 3.318e-10
 93.39337     80.8 1.023e+04 3.109e-10
 93.43329     82.4 1.025e+04 2.842e-10
 93.47322     83.9 1.030e+04 2.725e-10
 93.50853     85.4 1.036e+04 2.586e-10
 93.52849     84.3 1.012e+04 2.098e-10
 93.55307     85.5 1.013e+04 2.068e-10
 93.59300     86.8 1.017e+04 2.124e-10
 93.61737     87.2 1.022e+04 2.191e-10
 93.62725     87.3 1.014e+04 2.090e-10
 93.64271     87.7 1.011e+04 2.034e-10
 93.66267     88.1 1.014e+04 2.009e-10
 93.68263     88.1 1.025e+04 2.068e-10
 93.70260     86.9 1.174e+04 2.614e-10
 93.71623     81.8 1.590e+04 6.809e-10
 93.72577     87.3 1.219e+04 2.743e-10
 93.73210     84.0 1.473e+04 4.273e-10
 93.74252     78.6 1.691e+04 1.771e-09
 93.76249     78.4 1.694e+04 5.443e-09
 93.78245     79.2 1.688e+04 9.342e-09
 93.80241     80.3 1.686e+04 9.525e-09
 93.81519     81.6 1.680e+04 7.826e-09
 93.82517     81.9 1.734e+04 1.137e-08
 93.84234     82.9 1.744e+04 9.636e-09
 93.86230     83.1 1.775e+04 5.104e-09
 93.88226     82.1 1.789e+04 1.804e-09
 93.90222     78.4 1.510e+04 6.104e-10
 93.91414     75.7 1.070e+04 4.460e-10
 93.92413     79.9 1.562e+04 8.299e-10
 93.94215     77.0 1.105e+04 5.491e-10
 93.96211     77.2 1.061e+04 5.312e-10
 93.98208     78.0 1.057e+04 5.257e-10
 94.00204     79.1 1.053e+04 5.180e-10
 94.01310     80.3 1.047e+04 4.956e-10
 94.02308     80.5 1.110e+04 7.101e-10
 94.04196     81.7 1.099e+04 6.645e-10
 94.06193     82.7 1.082e+04 6.000e-10
 94.07634     83.8 1.067e+04 5.347e-10
 94.08632     83.6 1.045e+04 4.327e-10
 94.10185     84.5 1.037e+04 3.869e-10
 94.11206     85.4 1.031e+04 3.493e-10
 94.12204     85.7 1.080e+04 5.515e-10
 94.14178     86.5 1.071e+04 4.940e-10
 94.16174     87.3 1.064e+04 4.544e-10
 94.18170     87.9 1.051e+04 4.335e-10
 94.20103     88.5 1.044e+04 4.335e-10
 94.21101     88.4 1.127e+04 7.284e-10
 94.22163     88.8 1.124e+04 7.286e-10
 94.24159     89.1 1.123e+04 7.435e-10
 94.26156     89.5 1.122e+04 7.840e-10
 94.28152     89.8 1.126e+04 8.541e-10
 94.29999     90.2 1.137e+04 9.592e-10
 94.30997     89.4 1.225e+04 1.422e-09
 94.32144     89.7 1.217e+04 1.480e-09
 94.34141     90.1 1.210e+04 1.543e-09
 94.36137     90.6 1.207e+04 1.616e-09
 94.38133     91.1 1.208e+04 1.690e-09
 94.39895     91.5 1.217e+04 1.803e-09
 94.40893     90.5 1.178e+04 1.391e-09
 94.42059     90.5 1.189e+04 1.424e-09
 94.43057     89.1 1.234e+04 1.688e-09
 94.44122     89.0 1.255e+04 1.750e-09
 94.46118     89.0 1.266e+04 1.759e-09
 94.48115     89.1 1.260e+04 1.701e-09
 94.49790     89.0 1.251e+04 1.562e-09
 94.50788     86.8 1.162e+04 1.152e-09
 94.52107     86.4 1.141e+04 1.085e-09
 94.54103     85.9 1.121e+04 1.062e-09
 94.56100     85.4 1.116e+04 1.075e-09
 94.58096     84.9 1.112e+04 1.161e-09
 94.59686     84.6 1.131e+04 1.351e-09
 94.60684     85.1 1.109e+04 1.226e-09
 94.62089     85.0 1.131e+04 1.314e-09
 94.64085     84.9 1.157e+04 1.327e-09
 94.66081     84.4 1.179e+04 1.325e-09
 94.68077     83.6 1.198e+04 1.339e-09
 94.69582     82.4 1.233e+04 1.402e-09
 94.70580     80.8 1.227e+04 1.082e-09
 94.72070     78.2 1.369e+04 1.475e-09
 94.74066     75.9 1.468e+04 2.130e-09
 94.76063     74.8 1.509e+04 2.973e-09
 94.77481     74.9 1.517e+04 3.987e-09
 94.78479     74.9 1.437e+04 3.246e-09
 94.79477     75.3 1.439e+04 3.971e-09
 94.80475     75.0 1.332e+04 3.650e-09
 94.82051     75.5 1.323e+04 3.529e-09
 94.84048     75.8 1.297e+04 3.074e-09
 94.86044     75.7 1.265e+04 2.362e-09
 94.88040     75.1 1.218e+04 1.693e-09
 94.89373     73.9 1.154e+04 1.194e-09
 94.91379     72.0 1.055e+04 8.085e-10
 94.95047     71.9 9.877e+03 6.228e-10
 94.99039     72.6 9.601e+03 5.124e-10
 95.03032     73.9 9.383e+03 4.103e-10
 95.07024     75.3 9.161e+03 3.236e-10
 95.09184     76.8 9.027e+03 2.788e-10
 95.11090     76.7 9.115e+03 3.296e-10
 95.12923     77.6 9.209e+03 3.488e-10
 95.15010     79.2 9.212e+03 3.510e-10
 95.19002     81.0 9.257e+03 3.621e-10
 95.22995     82.7 9.363e+03 3.873e-10
 95.26979     84.4 9.466e+03 4.207e-10
 95.30972     85.9 9.166e+03 2.955e-10
 95.34972     87.2 9.060e+03 2.477e-10
 95.38965     88.3 9.032e+03 2.307e-10
 95.42958     89.4 9.052e+03 2.341e-10
 95.46770     90.5 9.141e+03 2.488e-10
 95.48767     90.2 8.868e+03 1.882e-10
 95.50943     91.6 9.013e+03 2.153e-10
 95.54935     93.0 9.151e+03 2.439e-10
 95.58928     94.5 9.267e+03 2.684e-10
 95.62920     96.0 9.365e+03 2.884e-10
 95.66562     97.5 9.470e+03 3.129e-10
 95.68558     97.6 9.512e+03 3.414e-10
 95.70905     99.2 9.668e+03 3.868e-10
 95.74898    100.7 9.826e+03 4.239e-10
 95.78891    102.3 9.960e+03 4.496e-10
 95.81771    103.9 9.955e+03 4.422e-10
 95.83767    104.0 9.998e+03 4.333e-10
 95.86353    105.8 9.832e+03 3.435e-10
 95.88349    105.7 9.841e+03 3.550e-10
 95.90868    107.4 9.650e+03 2.615e-10
 95.94861    109.0 9.478e+03 1.905e-10
 95.98853    110.5 9.413e+03 1.609e-10
 96.02846    112.1 9.411e+03 1.614e-10
 96.06144    113.8 9.425e+03 1.656e-10
 96.08141    113.7 9.468e+03 1.963e-10
 96.10831    115.0 9.613e+03 2.225e-10
 96.14824    116.2 9.893e+03 2.868e-10
 96.18816    117.0 1.028e+04 3.983e-10
 96.22809    117.3 1.066e+04 5.370e-10
 96.25936    117.0 1.096e+04 6.361e-10
 96.27932    116.3 1.098e+04 6.221e-10
 96.30794    115.5 1.123e+04 6.783e-10
 96.34786    114.6 1.146e+04 7.288e-10
 96.38779    113.1 1.181e+04 8.431e-10
 96.42772    111.3 1.227e+04 1.122e-09
 96.45727    110.5 1.271e+04 1.542e-09
 96.47723    108.9 1.303e+04 1.806e-09
 96.50620    108.7 1.298e+04 1.729e-09
 96.52616    108.0 1.301e+04 1.736e-09
 96.54749    108.2 1.274e+04 1.322e-09
 96.58742    108.7 1.235e+04 7.808e-10
 96.62734    109.0 1.191e+04 4.232e-10
 96.65518    109.3 1.133e+04 2.944e-10
 96.67515    107.7 1.100e+04 2.179e-10
 96.70720    109.5 1.095e+04 2.224e-10
 96.74712    111.4 1.090e+04 2.377e-10
 96.78705    113.2 1.093e+04 2.536e-10
 96.82697    114.8 1.093e+04 2.616e-10
 96.85310    116.3 1.091e+04 2.607e-10
 96.87306    116.0 1.076e+04 2.206e-10
 96.90682    117.4 1.072e+04 2.315e-10
 96.94675    118.8 1.070e+04 2.484e-10
 96.98667    120.1 1.073e+04 2.744e-10
 97.02660    121.1 1.082e+04 3.088e-10
 97.05101    122.0 1.096e+04 3.560e-10
 97.07097    122.2 1.080e+04 3.519e-10
 97.10645    123.1 1.092e+04 4.058e-10
 97.14638    123.7 1.107e+04 4.718e-10
 97.18630    124.0 1.130e+04 5.615e-10
 97.21464    124.1 1.162e+04 7.143e-10
 97.23460    123.7 1.170e+04 7.460e-10
 97.24893    123.7 1.202e+04 9.729e-10
 97.26889    124.0 1.180e+04 7.831e-10
 97.30608    124.1 1.220e+04 1.073e-09
 97.34601    123.9 1.243e+04 1.192e-09
 97.38593    123.2 1.239e+04 1.156e-09
 97.42586    122.9 1.214e+04 9.712e-10
 97.44684    122.9 1.173e+04 6.789e-10
 97.46680    123.0 1.182e+04 7.089e-10
 97.50571    123.0 1.126e+04 4.410e-10
 97.54563    123.2 1.091e+04 3.409e-10
 97.58556    124.1 1.089e+04 3.393e-10
 97.62479    125.5 1.091e+04 3.537e-10
 97.64475    125.4 1.100e+04 3.990e-10
 97.66541    126.9 1.112e+04 4.570e-10
 97.70534    128.3 1.130e+04 5.336e-10
 97.74526    129.7 1.143e+04 6.056e-10
 97.78519    131.1 1.159e+04 6.823e-10
 97.82270    132.5 1.175e+04 7.470e-10
 97.84267    132.0 1.175e+04 7.051e-10
 97.86504    133.3 1.201e+04 8.033e-10
 97.89488    133.6 1.228e+04 9.109e-10
 97.91291    133.8 1.260e+04 1.066e-09
 97.92289    133.5 1.267e+04 1.116e-09
 97.93145    133.6 1.297e+04 1.395e-09
 97.94143    133.2 1.287e+04 1.409e-09
 97.95468    133.4 1.323e+04 1.846e-09
 97.97464    133.5 1.363e+04 2.466e-09
 97.99460    133.7 1.408e+04 3.293e-09
 98.01456    134.0 1.457e+04 4.274e-09
 98.03040    134.4 1.506e+04 5.277e-09
 98.04038    134.5 1.495e+04 4.886e-09
 98.05449    134.5 1.512e+04 4.922e-09
 98.07445    134.4 1.512e+04 4.829e-09
 98.09442    134.2 1.503e+04 4.315e-09
 98.11438    134.0 1.462e+04 3.344e-09
 98.12936    133.8 1.401e+04 2.379e-09
 98.13934    133.4 1.361e+04 1.940e-09
 98.15430    133.3 1.310e+04 1.503e-09
 98.18435    133.5 1.256e+04 1.112e-09
 98.21853    134.0 1.183e+04 7.165e-10
 98.23849    133.8 1.163e+04 6.537e-10
 98.26429    134.8 1.120e+04 4.717e-10
 98.30422    136.2 1.091e+04 3.617e-10
 98.34415    137.8 1.068e+04 2.906e-10
 98.38407    139.4 1.050e+04 2.400e-10
 98.41644    141.2 1.034e+04 2.017e-10
 98.43641    141.2 1.023e+04 1.978e-10
 98.46392    143.0 1.014e+04 1.711e-10
 98.50385    144.7 1.007e+04 1.481e-10
 98.54377    146.3 1.002e+04 1.285e-10
 98.58370    147.8 9.977e+03 1.126e-10
 98.61157    149.2 9.944e+03 9.908e-11
 98.62227    149.0 9.967e+03 1.159e-10
 98.63432    148.8 9.931e+03 1.050e-10
 98.66355    150.0 9.891e+03 9.495e-11
 98.70348    151.3 9.826e+03 8.661e-11
 98.74340    152.5 9.779e+03 8.287e-11
 98.78333    153.8 9.776e+03 8.293e-11
 98.81227    155.0 9.775e+03 8.404e-11
 98.83223    154.7 9.857e+03 9.007e-11
 98.86318    155.8 9.866e+03 9.284e-11
 98.90310    156.9 9.857e+03 9.630e-11
 98.94303    157.8 9.850e+03 1.029e-10
 98.98296    158.8 9.907e+03 1.181e-10
 99.01019    159.8 1.017e+04 1.459e-10
 99.03015    158.8 1.099e+04 1.673e-10
 99.05273    158.5 1.144e+04 1.876e-10
 99.07259    157.3 1.220e+04 2.695e-10
 99.09256    155.9 1.276e+04 4.721e-10
 99.10895    154.9 1.298e+04 8.162e-10
 99.11893    153.3 1.325e+04 1.560e-09
 99.13248    153.4 1.338e+04 2.146e-09
 99.15244    153.7 1.346e+04 2.468e-09
 99.17241    154.0 1.359e+04 2.565e-09
 99.19237    154.0 1.354e+04 2.443e-09
 99.20790    153.6 1.359e+04 2.251e-09
 99.21788    152.6 1.372e+04 1.873e-09
 99.23230    151.4 1.382e+04 1.692e-09
 99.25226    149.6 1.394e+04 1.727e-09
 99.27222    147.5 1.427e+04 1.981e-09
 99.29218    145.5 1.475e+04 2.602e-09
 99.30686    143.7 1.506e+04 3.276e-09
 99.31454    142.1 1.481e+04 3.085e-09
 99.31982    140.7 1.490e+04 3.388e-09
 99.33211    139.3 1.485e+04 3.301e-09
 99.35207    137.9 1.455e+04 2.832e-09
 99.37204    136.2 1.396e+04 1.957e-09
 99.39200    134.7 1.327e+04 1.375e-09
 99.40591    133.2 1.262e+04 9.565e-10
 99.42598    131.6 1.230e+04 8.135e-10
 99.46206    129.6 1.163e+04 5.561e-10
 99.50199    128.9 1.115e+04 3.932e-10
 99.54191    128.7 1.070e+04 2.683e-10
 99.58184    128.6 1.020e+04 1.814e-10
 99.60393    128.8 9.823e+03 1.432e-10
 99.62389    127.5 9.738e+03 1.385e-10
 99.66169    128.3 9.721e+03 1.393e-10
 99.70162    129.2 9.691e+03 1.461e-10
 99.74154    130.2 9.682e+03 1.557e-10
 99.78147    131.2 9.690e+03 1.643e-10
 99.80184    132.3 9.704e+03 1.736e-10
 99.82180    131.3 9.654e+03 1.774e-10
 99.86132    132.4 9.731e+03 1.912e-10
 99.90124    133.4 9.951e+03 2.251e-10
 99.94117    134.2 1.028e+04 2.816e-10
 99.97102    134.0 1.047e+04 3.217e-10
 99.98958    133.7 1.072e+04 3.874e-10
 99.99956    132.6 1.082e+04 4.227e-10
