# Columns:
#   distance along LOS (in CHIMPs)
#   peculiar velocity  (in km/s)
#   temperature (K)
#   HI number density
# pos=(116.071,97.055,63.2753), angles=(0.261146,5.17495)
  0.00816   -124.4 1.020e+04 5.302e-10
  0.02643   -123.7 1.016e+04 5.245e-10
  0.03696   -123.1 1.015e+04 5.250e-10
  0.04707   -123.8 1.013e+04 5.264e-10
  0.06517   -123.3 1.016e+04 5.601e-10
  0.07527   -123.8 1.011e+04 6.491e-10
  0.08708   -123.1 1.007e+04 6.270e-10
  0.10730   -122.3 1.004e+04 6.059e-10
  0.11966   -121.5 1.010e+04 5.846e-10
  0.12977   -122.1 1.030e+04 6.299e-10
  0.14773   -121.4 1.048e+04 5.969e-10
  0.16795   -120.9 1.055e+04 5.554e-10
  0.18817   -120.5 1.051e+04 5.115e-10
  0.20236   -120.2 1.043e+04 4.717e-10
  0.21247   -121.1 1.063e+04 5.176e-10
  0.22860   -120.8 1.049e+04 4.940e-10
  0.24090   -120.3 1.038e+04 4.870e-10
  0.26122   -120.9 9.455e+03 2.708e-10
  0.29955   -119.6 9.581e+03 3.054e-10
  0.33999   -118.3 9.711e+03 3.552e-10
  0.36795   -116.7 9.763e+03 4.017e-10
  0.38817   -117.9 9.899e+03 4.884e-10
  0.42085   -116.1 9.849e+03 4.965e-10
  0.46129   -114.2 9.785e+03 4.915e-10
  0.50172   -112.2 9.706e+03 4.624e-10
  0.53335   -110.2 9.588e+03 4.134e-10
  0.55356   -111.0 9.425e+03 3.826e-10
  0.57235   -109.2 9.279e+03 3.125e-10
  0.59257   -109.2 9.407e+03 3.252e-10
  0.62302   -107.5 9.258e+03 2.732e-10
  0.66346   -106.0 9.163e+03 2.340e-10
  0.69874   -104.5 9.172e+03 2.156e-10
  0.71896   -105.0 9.100e+03 1.877e-10
  0.74432   -103.5 9.124e+03 1.808e-10
  0.78476   -102.0 9.255e+03 1.818e-10
  0.82519   -100.7 9.507e+03 1.991e-10
  0.86414    -99.3 9.731e+03 2.352e-10
  0.88436    -99.5 9.591e+03 1.818e-10
  0.90360    -98.3 9.784e+03 2.382e-10
  0.92382    -99.2 1.027e+04 5.459e-10
  0.94649    -97.9 1.050e+04 6.559e-10
  0.98692    -96.7 1.074e+04 7.649e-10
  1.02736    -95.8 1.104e+04 8.649e-10
  1.04966    -95.4 1.125e+04 9.712e-10
  1.06988    -95.8 1.133e+04 9.979e-10
  1.08935    -95.5 1.146e+04 1.092e-09
  1.09936    -95.6 1.152e+04 1.101e-09
  1.11814    -95.6 1.158e+04 1.143e-09
  1.14856    -95.9 1.180e+04 1.227e-09
  1.17888    -96.5 1.203e+04 1.302e-09
  1.19900    -96.6 1.206e+04 1.308e-09
  1.21496    -96.7 1.216e+04 1.317e-09
  1.22507    -97.8 1.232e+04 1.370e-09
  1.23944    -97.9 1.237e+04 1.370e-09
  1.25488    -98.1 1.245e+04 1.377e-09
  1.26499    -97.4 1.192e+04 9.817e-10
  1.27987    -98.0 1.204e+04 9.800e-10
  1.29766    -98.9 1.221e+04 1.038e-09
  1.30777   -100.0 1.236e+04 1.283e-09
  1.32030   -100.5 1.234e+04 1.400e-09
  1.34052   -100.8 1.228e+04 1.510e-09
  1.36074   -100.8 1.222e+04 1.541e-09
  1.38036   -100.6 1.207e+04 1.475e-09
  1.39046   -101.3 1.216e+04 1.534e-09
  1.40117   -101.1 1.199e+04 1.375e-09
  1.42051   -100.9 1.181e+04 1.224e-09
  1.43061   -100.3 1.183e+04 1.295e-09
  1.44160   -100.0 1.163e+04 1.136e-09
  1.46182    -99.5 1.134e+04 9.626e-10
  1.47316    -99.0 1.107e+04 8.104e-10
  1.48327    -99.7 1.115e+04 8.145e-10
  1.50225    -99.0 1.076e+04 6.568e-10
  1.52247    -98.3 1.055e+04 5.566e-10
  1.54269    -97.7 1.023e+04 4.608e-10
  1.55586    -97.1 1.009e+04 4.113e-10
  1.56597    -97.5 1.004e+04 4.227e-10
  1.58623    -97.1 9.889e+03 3.831e-10
  1.60654    -96.1 9.842e+03 3.037e-10
  1.63386    -94.9 9.767e+03 2.921e-10
  1.67429    -94.3 9.986e+03 3.690e-10
  1.70452    -94.0 1.022e+04 4.946e-10
  1.72126    -94.0 1.036e+04 6.033e-10
  1.73137    -94.2 1.023e+04 5.427e-10
  1.74485    -93.8 1.038e+04 6.653e-10
  1.76187    -93.6 1.055e+04 7.409e-10
  1.77198    -93.8 1.149e+04 1.048e-09
  1.78529    -93.7 1.166e+04 1.137e-09
  1.80396    -93.7 1.167e+04 1.152e-09
  1.81407    -93.9 1.138e+04 9.866e-10
  1.82572    -93.6 1.117e+04 9.456e-10
  1.84594    -92.9 1.076e+04 7.881e-10
  1.86615    -92.2 1.034e+04 6.083e-10
  1.88637    -91.5 9.992e+03 4.589e-10
  1.89686    -91.1 9.735e+03 3.558e-10
  1.91718    -91.1 9.703e+03 3.533e-10
  1.93780    -90.0 9.342e+03 2.553e-10
  1.95801    -90.4 9.550e+03 3.177e-10
  1.99776    -88.8 9.125e+03 2.306e-10
  2.03819    -86.9 8.879e+03 1.738e-10
  2.06236    -85.2 8.823e+03 1.435e-10
  2.08257    -85.1 8.805e+03 1.311e-10
  2.11906    -83.5 8.807e+03 1.230e-10
  2.15949    -81.7 8.812e+03 1.218e-10
  2.19992    -79.9 8.858e+03 1.246e-10
  2.22775    -78.0 8.862e+03 1.276e-10
  2.24797    -77.8 8.773e+03 1.165e-10
  2.26905    -75.6 8.695e+03 1.140e-10
  2.28927    -75.5 8.749e+03 1.186e-10
  2.32122    -73.2 8.672e+03 1.063e-10
  2.36166    -70.9 8.589e+03 9.563e-11
  2.39315    -68.6 8.514e+03 8.672e-11
  2.41337    -68.2 8.467e+03 7.517e-11
  2.44253    -65.8 8.437e+03 7.006e-11
  2.48296    -63.4 8.453e+03 6.528e-11
  2.52339    -61.1 8.503e+03 6.053e-11
  2.55855    -58.9 8.566e+03 5.736e-11
  2.57877    -58.6 8.515e+03 5.604e-11
  2.60031    -56.5 8.615e+03 5.618e-11
  2.62052    -56.4 8.712e+03 5.993e-11
  2.64469    -54.5 8.780e+03 6.536e-11
  2.68513    -52.5 8.758e+03 7.618e-11
  2.72395    -50.3 8.746e+03 8.809e-11
  2.74416    -49.9 8.701e+03 8.548e-11
  2.76599    -47.7 8.750e+03 9.135e-11
  2.80643    -45.7 8.795e+03 9.329e-11
  2.84686    -43.7 8.855e+03 9.228e-11
  2.88729    -41.6 8.953e+03 9.086e-11
  2.90956    -39.5 9.001e+03 8.570e-11
  2.92978    -39.2 8.959e+03 7.394e-11
  2.95178    -37.0 8.964e+03 6.806e-11
  2.97199    -36.6 8.918e+03 5.619e-11
  3.00859    -34.5 8.876e+03 5.123e-11
  3.04903    -32.7 8.849e+03 4.618e-11
  3.07496    -30.9 8.919e+03 4.501e-11
  3.09517    -30.6 8.920e+03 4.581e-11
  3.12989    -29.0 8.983e+03 5.217e-11
  3.17033    -27.1 8.983e+03 6.383e-11
  3.21076    -24.9 8.982e+03 7.728e-11
  3.24036    -22.6 8.995e+03 8.767e-11
  3.26057    -22.1 8.937e+03 8.387e-11
  3.28303    -19.9 8.967e+03 8.719e-11
  3.30325    -19.2 8.958e+03 8.815e-11
  3.33206    -17.4 8.986e+03 9.006e-11
  3.37249    -15.6 8.996e+03 9.840e-11
  3.40575    -13.6 8.976e+03 1.109e-10
  3.42597    -12.9 8.927e+03 9.649e-11
  3.45336    -10.8 8.928e+03 1.031e-10
  3.49379     -8.7 8.954e+03 1.085e-10
  3.53423     -6.7 8.984e+03 1.159e-10
  3.57115     -4.8 9.046e+03 1.291e-10
  3.59137     -4.3 9.026e+03 1.263e-10
  3.61428     -2.3 9.131e+03 1.496e-10
  3.63450     -1.8 9.022e+03 1.294e-10
  3.65553      0.1 9.134e+03 1.621e-10
  3.69596      2.0 9.333e+03 2.110e-10
  3.73639      3.9 9.616e+03 2.883e-10
  3.77683      6.6 9.741e+03 3.468e-10
  3.81726      8.6 1.002e+04 4.148e-10
  3.85769     10.3 1.025e+04 4.610e-10
  3.89813     11.7 1.072e+04 5.454e-10
  3.92206     12.2 1.094e+04 5.867e-10
  3.93207     12.5 1.080e+04 5.337e-10
  3.94847     12.6 1.102e+04 6.136e-10
  3.96556     12.5 1.125e+04 7.591e-10
  3.97567     13.2 1.117e+04 6.492e-10
  3.98891     13.2 1.142e+04 8.211e-10
  4.00466     13.0 1.168e+04 1.060e-09
  4.01477     13.3 1.164e+04 1.040e-09
  4.02934     12.9 1.217e+04 1.444e-09
  4.04956     12.5 1.264e+04 1.890e-09
  4.06977     12.3 1.284e+04 2.038e-09
  4.08736     12.1 1.278e+04 1.971e-09
  4.09747     12.4 1.329e+04 2.587e-09
  4.11021     12.4 1.307e+04 2.283e-09
  4.13042     11.8 1.262e+04 1.651e-09
  4.14129     11.1 1.213e+04 1.228e-09
  4.15140     11.6 1.235e+04 1.404e-09
  4.17006     10.4 1.179e+04 1.023e-09
  4.18017     10.7 1.197e+04 1.075e-09
  4.19107      9.4 1.125e+04 8.686e-10
  4.21129      9.2 1.111e+04 8.643e-10
  4.23151      9.2 1.116e+04 8.937e-10
  4.25286      8.0 1.187e+04 1.176e-09
  4.27317      7.7 1.197e+04 1.225e-09
  4.29226      4.9 1.323e+04 2.345e-09
  4.30692      4.8 1.375e+04 3.623e-09
  4.31703      4.9 1.383e+04 3.852e-09
  4.33259      5.4 1.387e+04 4.331e-09
  4.34557      6.5 1.351e+04 3.885e-09
  4.35568      7.8 1.292e+04 3.107e-09
  4.37303      8.7 1.236e+04 2.066e-09
  4.39324      8.1 1.191e+04 1.190e-09
  4.41346      6.0 1.128e+04 6.459e-10
  4.42827      3.2 1.022e+04 4.009e-10
  4.43837      3.0 9.735e+03 2.899e-10
  4.45389      2.6 9.271e+03 2.793e-10
  4.47255      2.7 9.240e+03 2.795e-10
  4.48266      2.8 9.359e+03 3.073e-10
  4.50453      3.5 9.141e+03 2.684e-10
  4.54506      4.9 8.837e+03 2.140e-10
  4.58375      6.0 8.633e+03 1.785e-10
  4.60397      7.5 8.478e+03 1.519e-10
  4.62593      8.6 8.495e+03 1.550e-10
  4.64848      9.6 8.664e+03 1.821e-10
  4.66869      9.8 8.772e+03 1.893e-10
  4.70680     10.5 9.190e+03 2.665e-10
  4.73702     11.1 9.403e+03 3.391e-10
  4.75714     11.2 9.657e+03 4.266e-10
  4.76917     11.3 1.021e+04 6.843e-10
  4.77928     12.0 1.007e+04 6.045e-10
  4.79758     12.4 1.066e+04 9.493e-10
  4.81391     13.3 1.123e+04 1.338e-09
  4.82402     13.4 1.118e+04 1.275e-09
  4.83801     14.3 1.159e+04 1.513e-09
  4.85187     14.5 1.179e+04 1.539e-09
  4.86198     15.4 1.184e+04 1.604e-09
  4.87844     15.4 1.195e+04 1.597e-09
  4.89866     15.2 1.203e+04 1.571e-09
  4.91888     14.7 1.207e+04 1.525e-09
  4.93457     14.3 1.199e+04 1.457e-09
  4.94467     15.5 1.221e+04 1.658e-09
  4.95931     15.2 1.215e+04 1.589e-09
  4.97953     15.1 1.205e+04 1.465e-09
  4.99984     15.1 1.170e+04 1.192e-09
  5.03026     14.5 1.131e+04 8.570e-10
  5.07070     12.9 1.083e+04 6.512e-10
  5.10016     11.0 1.081e+04 7.125e-10
  5.12038     13.6 1.106e+04 7.526e-10
  5.15156     11.9 1.081e+04 7.984e-10
  5.19200     12.1 1.060e+04 7.792e-10
  5.23243     13.0 1.008e+04 6.260e-10
  5.26556     14.3 9.420e+03 3.733e-10
  5.28577     15.7 9.479e+03 3.897e-10
  5.31098     16.8 8.944e+03 2.200e-10
  5.33120     17.3 9.195e+03 3.002e-10
  5.35373     18.2 8.719e+03 1.484e-10
  5.39416     18.6 8.355e+03 8.076e-11
  5.43095     19.4 8.074e+03 6.324e-11
  5.45117     21.1 8.349e+03 8.228e-11
  5.47503     22.1 8.167e+03 7.113e-11
  5.51546     23.3 8.044e+03 6.947e-11
  5.55590     24.8 8.033e+03 6.590e-11
  5.59633     26.3 8.005e+03 5.992e-11
  5.63676     28.2 8.040e+03 4.347e-11
  5.66245     28.9 7.969e+03 3.866e-11
  5.68267     28.5 8.002e+03 4.600e-11
  5.71763     29.4 7.923e+03 4.531e-11
  5.75806     30.4 7.925e+03 4.634e-11
  5.78197     31.4 7.977e+03 5.085e-11
  5.80218     31.9 8.031e+03 5.103e-11
  5.83893     32.7 8.203e+03 6.717e-11
  5.87937     33.5 8.381e+03 9.657e-11
  5.91980     34.6 8.579e+03 1.403e-10
  5.94736     35.8 8.798e+03 1.928e-10
  5.96758     36.4 8.889e+03 2.236e-10
  5.99371     37.5 9.065e+03 2.338e-10
  6.01393     37.3 8.932e+03 2.116e-10
  6.04110     38.1 8.933e+03 2.056e-10
  6.08153     38.9 8.882e+03 1.848e-10
  6.11276     39.7 8.780e+03 1.567e-10
  6.13298     40.0 8.707e+03 1.502e-10
  6.16240     40.8 8.599e+03 1.255e-10
  6.20283     41.6 8.473e+03 1.078e-10
  6.24327     42.6 8.426e+03 1.060e-10
  6.27816     43.7 8.441e+03 1.094e-10
  6.29837     44.2 8.395e+03 1.043e-10
  6.32413     45.2 8.453e+03 1.168e-10
  6.34518     46.2 8.657e+03 1.571e-10
  6.36540     46.0 8.749e+03 1.722e-10
  6.40500     46.9 9.195e+03 2.752e-10
  6.44355     47.8 9.716e+03 4.344e-10
  6.46377     48.3 9.547e+03 3.996e-10
  6.48587     49.2 1.003e+04 5.530e-10
  6.52630     50.0 1.036e+04 6.500e-10
  6.56673     50.7 1.058e+04 6.935e-10
  6.60717     51.4 1.078e+04 7.417e-10
  6.62917     52.0 1.111e+04 8.821e-10
  6.64939     53.3 1.135e+04 1.032e-09
  6.67643     53.9 1.196e+04 1.453e-09
  6.69665     54.1 1.178e+04 1.439e-09
  6.71177     54.2 1.216e+04 1.704e-09
  6.72178     54.5 1.242e+04 1.950e-09
  6.73838     55.0 1.277e+04 2.327e-09
  6.75860     55.1 1.303e+04 2.650e-09
  6.77881     55.5 1.331e+04 2.839e-09
  6.79437     55.7 1.337e+04 2.755e-09
  6.80448     56.0 1.440e+04 4.607e-09
  6.81925     56.1 1.452e+04 4.231e-09
  6.83946     56.0 1.472e+04 3.471e-09
  6.85197     55.6 1.488e+04 2.601e-09
  6.86208     54.9 1.427e+04 3.048e-09
  6.87707     54.5 1.457e+04 2.622e-09
  6.88718     54.5 1.556e+04 5.172e-09
  6.90011     54.1 1.569e+04 4.089e-09
  6.92033     53.6 1.532e+04 2.757e-09
  6.94055     52.7 1.411e+04 1.669e-09
  6.95987     51.3 1.163e+04 7.379e-10
  6.96997     52.4 1.340e+04 1.515e-09
  6.98098     51.6 1.200e+04 9.663e-10
  7.00759     50.7 1.081e+04 6.112e-10
  7.02781     51.0 1.108e+04 6.889e-10
  7.05184     51.0 1.074e+04 6.217e-10
  7.09237     51.2 1.037e+04 4.752e-10
  7.12536     52.0 1.028e+04 3.917e-10
  7.14558     52.4 1.028e+04 4.019e-10
  7.17323     53.3 1.030e+04 3.347e-10
  7.21367     54.0 1.038e+04 3.212e-10
  7.25410     54.6 1.042e+04 3.257e-10
  7.29076     55.0 1.047e+04 3.577e-10
  7.31097     55.8 1.030e+04 3.129e-10
  7.33497     56.5 1.023e+04 3.432e-10
  7.35916     57.1 1.026e+04 3.898e-10
  7.37937     56.7 1.028e+04 4.391e-10
  7.41583     56.9 1.059e+04 6.177e-10
  7.45616     56.8 1.109e+04 8.926e-10
  7.49659     57.7 1.171e+04 1.086e-09
  7.52469     57.1 1.204e+04 1.310e-09
  7.53470     57.2 1.207e+04 1.298e-09
  7.54705     56.6 1.214e+04 1.319e-09
  7.55888     55.7 1.206e+04 1.281e-09
  7.56898     56.5 1.278e+04 1.588e-09
  7.58748     55.4 1.257e+04 1.376e-09
  7.60770     53.6 1.197e+04 1.205e-09
  7.62791     51.8 1.160e+04 1.192e-09
  7.64157     50.6 1.155e+04 1.226e-09
  7.65168     51.4 1.153e+04 1.211e-09
  7.66835     50.4 1.135e+04 1.196e-09
  7.68856     50.1 1.131e+04 1.188e-09
  7.70032     50.1 1.112e+04 1.109e-09
  7.71053     50.5 1.040e+04 7.080e-10
  7.73930     50.9 9.804e+03 5.528e-10
  7.77974     51.6 9.191e+03 3.583e-10
  7.80717     52.3 8.548e+03 2.057e-10
  7.82738     53.2 8.458e+03 1.907e-10
  7.86060     53.6 7.929e+03 1.227e-10
  7.90104     54.7 7.820e+03 1.165e-10
  7.94147     56.3 7.820e+03 1.188e-10
  7.97256     58.1 7.863e+03 1.287e-10
  7.99278     58.6 7.918e+03 1.307e-10
  8.02166     60.1 8.058e+03 1.488e-10
  8.04188     60.5 8.216e+03 1.859e-10
  8.06277     61.9 8.386e+03 2.193e-10
  8.10320     63.2 8.563e+03 2.529e-10
  8.13796     64.4 8.767e+03 2.936e-10
  8.15808     64.3 9.167e+03 3.935e-10
  8.17377     64.6 9.195e+03 4.021e-10
  8.19398     64.9 9.308e+03 4.423e-10
  8.20731     65.2 9.591e+03 5.340e-10
  8.21742     65.6 9.484e+03 5.297e-10
  8.23057     65.8 9.908e+03 6.407e-10
  8.24068     64.8 1.077e+04 8.748e-10
  8.25463     64.3 1.153e+04 1.187e-09
  8.27485     63.9 1.223e+04 1.648e-09
  8.29507     63.5 1.283e+04 2.245e-09
  8.31327     63.3 1.327e+04 2.945e-09
  8.32338     62.4 1.358e+04 3.575e-09
  8.33550     62.6 1.384e+04 4.184e-09
  8.35572     62.9 1.415e+04 4.749e-09
  8.37294     63.4 1.441e+04 5.658e-09
  8.38305     63.7 1.431e+04 5.369e-09
  8.39597     64.7 1.451e+04 5.313e-09
  8.40608     64.9 1.383e+04 3.433e-09
  8.41637     65.3 1.385e+04 2.872e-09
  8.43658     64.9 1.361e+04 2.203e-09
  8.45680     64.1 1.300e+04 1.595e-09
  8.47702     63.3 1.213e+04 1.144e-09
  8.48878     62.5 1.131e+04 8.506e-10
  8.49889     61.2 1.005e+04 5.823e-10
  8.51745     61.6 9.929e+03 5.278e-10
  8.53767     62.2 9.953e+03 5.187e-10
  8.54867     62.8 1.003e+04 5.256e-10
  8.55878     62.3 9.486e+03 3.926e-10
  8.57148     62.7 9.546e+03 4.071e-10
  8.58158     62.8 9.345e+03 3.457e-10
  8.59832     62.9 9.466e+03 3.688e-10
  8.61853     62.8 9.711e+03 4.330e-10
  8.63875     62.7 1.017e+04 5.757e-10
  8.65417     62.8 1.074e+04 8.207e-10
  8.66428     63.4 1.020e+04 5.266e-10
  8.67918     63.6 1.075e+04 6.951e-10
  8.69940     64.0 1.123e+04 8.802e-10
  8.71430     64.3 1.138e+04 9.565e-10
  8.72441     63.3 1.062e+04 6.076e-10
  8.73687     63.5 1.070e+04 6.523e-10
  8.74698     64.0 1.036e+04 5.099e-10
  8.76005     64.2 1.045e+04 5.328e-10
  8.78027     64.5 1.036e+04 5.012e-10
  8.80048     64.6 1.027e+04 4.678e-10
  8.81967     65.1 1.006e+04 4.024e-10
  8.83998     65.6 9.678e+03 3.209e-10
  8.87144     66.8 9.591e+03 2.745e-10
  8.91187     68.3 9.536e+03 2.220e-10
  8.95230     70.0 9.582e+03 1.883e-10
  8.98516     72.0 9.619e+03 1.874e-10
  9.00538     72.9 9.574e+03 1.972e-10
  9.03317     74.8 9.656e+03 2.036e-10
  9.05586     76.3 9.894e+03 2.395e-10
  9.07607     76.8 1.005e+04 2.827e-10
  9.11404     77.7 1.038e+04 3.490e-10
  9.14427     78.6 1.058e+04 4.198e-10
  9.16048     79.3 1.075e+04 4.880e-10
  9.17058     80.0 1.059e+04 4.441e-10
  9.18460     80.9 1.081e+04 5.149e-10
  9.20482     81.5 1.100e+04 5.651e-10
  9.22129     81.8 1.117e+04 5.816e-10
  9.23140     81.8 1.117e+04 5.723e-10
  9.24317     81.9 1.121e+04 5.716e-10
  9.25328     82.7 1.119e+04 5.571e-10
  9.26547     82.8 1.120e+04 5.442e-10
  9.28568     82.8 1.120e+04 5.430e-10
  9.31586     82.0 1.137e+04 6.168e-10
  9.33618     84.1 1.123e+04 5.581e-10
  9.35664     83.8 1.159e+04 7.575e-10
  9.38711     83.5 1.193e+04 1.025e-09
  9.40733     82.5 1.273e+04 1.627e-09
  9.43751     82.6 1.265e+04 1.644e-09
  9.47794     83.2 1.205e+04 1.221e-09
  9.50157     84.0 1.104e+04 5.079e-10
  9.52179     86.0 1.149e+04 6.386e-10
  9.55881     86.0 1.024e+04 1.954e-10
  9.59924     85.0 9.455e+03 9.602e-11
  9.63967     85.2 9.410e+03 9.678e-11
  9.66697     85.9 9.395e+03 1.103e-10
  9.68719     87.5 9.690e+03 1.168e-10
  9.71836     88.3 9.811e+03 1.643e-10
  9.73858     87.5 1.006e+04 2.802e-10
  9.76097     88.6 1.038e+04 4.552e-10
  9.80141     89.9 1.065e+04 6.492e-10
  9.83237     91.1 1.081e+04 7.207e-10
  9.85258     92.0 1.131e+04 8.682e-10
  9.88227     92.8 1.129e+04 8.599e-10
  9.92271     93.6 1.114e+04 7.894e-10
  9.96314     94.7 1.082e+04 6.309e-10
  9.99777     96.0 1.045e+04 4.518e-10
 10.01798     96.6 1.043e+04 5.005e-10
 10.04401     98.0 1.006e+04 3.195e-10
 10.06984     99.4 9.825e+03 2.106e-10
 10.09005     98.1 9.532e+03 2.023e-10
 10.12487     99.8 9.414e+03 2.008e-10
 10.16316    101.9 9.384e+03 2.055e-10
 10.18338    102.6 9.265e+03 1.831e-10
 10.20574    104.9 9.245e+03 1.876e-10
 10.24617    107.2 9.275e+03 1.884e-10
 10.28661    109.4 9.302e+03 1.850e-10
 10.32704    111.7 9.354e+03 1.734e-10
 10.34878    113.9 9.417e+03 1.578e-10
 10.36899    114.3 9.287e+03 1.006e-10
 10.40109    116.4 9.322e+03 9.911e-11
 10.42131    115.9 9.330e+03 1.014e-10
 10.44834    117.9 9.307e+03 1.009e-10
 10.48877    120.0 9.297e+03 1.016e-10
 10.51417    122.1 9.298e+03 1.040e-10
 10.53439    122.9 9.235e+03 9.711e-11
 10.56964    125.0 9.309e+03 1.003e-10
 10.61007    127.1 9.369e+03 1.047e-10
 10.65051    129.1 9.422e+03 1.128e-10
 10.67957    131.0 9.486e+03 1.275e-10
 10.69979    131.6 9.515e+03 1.273e-10
 10.73137    133.4 9.621e+03 1.524e-10
 10.75256    135.2 9.773e+03 1.909e-10
 10.77278    134.7 9.726e+03 1.623e-10
 10.81224    136.4 9.867e+03 1.853e-10
 10.84497    137.9 9.996e+03 2.132e-10
 10.86519    138.2 1.004e+04 2.368e-10
 10.89311    139.5 1.012e+04 2.777e-10
 10.93354    140.8 1.022e+04 3.184e-10
 10.97397    141.8 1.032e+04 3.277e-10
 11.01037    142.8 1.032e+04 3.232e-10
 11.03058    143.2 1.066e+04 5.594e-10
 11.05484    144.3 1.068e+04 5.511e-10
 11.08381    145.4 1.066e+04 5.077e-10
 11.10403    145.2 1.036e+04 3.790e-10
 11.13571    146.4 1.028e+04 3.263e-10
 11.17576    147.6 1.014e+04 2.649e-10
 11.19598    148.1 1.110e+04 7.543e-10
 11.21658    149.0 1.096e+04 6.340e-10
 11.25701    149.9 1.067e+04 4.725e-10
 11.29744    151.0 1.027e+04 3.180e-10
 11.33788    152.4 9.840e+03 2.028e-10
 11.36138    153.9 9.468e+03 1.322e-10
 11.38159    154.1 9.909e+03 2.490e-10
 11.41507    155.6 9.444e+03 1.399e-10
 11.43528    156.0 9.658e+03 1.901e-10
 11.45918    157.5 9.491e+03 1.388e-10
 11.49961    159.2 9.412e+03 1.157e-10
 11.52678    161.1 9.339e+03 1.055e-10
 11.54699    160.7 9.583e+03 1.194e-10
 11.58048    162.5 9.460e+03 1.072e-10
 11.62091    164.4 9.298e+03 1.023e-10
 11.66134    166.3 9.242e+03 1.022e-10
 11.69217    168.1 9.237e+03 1.029e-10
 11.71239    167.7 9.352e+03 1.227e-10
 11.74221    169.3 9.350e+03 1.276e-10
 11.76654    170.6 9.398e+03 1.456e-10
 11.78675    170.7 9.429e+03 1.663e-10
 11.82308    171.7 9.672e+03 2.103e-10
 11.85757    172.5 1.004e+04 2.840e-10
 11.87779    171.0 1.051e+04 3.562e-10
 11.90394    171.1 1.095e+04 4.879e-10
 11.94438    170.9 1.113e+04 5.648e-10
 11.98481    170.7 1.111e+04 5.607e-10
 12.02297    170.4 1.091e+04 5.102e-10
 12.04318    169.4 1.096e+04 7.028e-10
 12.06568    169.6 1.059e+04 5.548e-10
 12.09779    169.9 1.017e+04 4.083e-10
 12.11801    168.9 9.890e+03 3.579e-10
 12.14654    169.5 9.503e+03 2.902e-10
 12.18698    170.5 9.220e+03 2.476e-10
 12.20858    172.0 9.029e+03 2.164e-10
 12.22880    172.3 9.107e+03 2.311e-10
 12.26784    173.8 8.878e+03 1.704e-10
 12.30828    175.3 8.782e+03 1.337e-10
 12.34871    176.9 8.848e+03 1.230e-10
 12.37398    178.7 8.857e+03 1.223e-10
 12.39420    178.6 8.701e+03 1.025e-10
 12.42904    180.6 8.705e+03 1.037e-10
 12.44926    179.9 8.567e+03 8.446e-11
 12.47001    181.9 8.598e+03 9.393e-11
 12.51044    183.8 8.715e+03 1.121e-10
 12.53938    185.8 8.914e+03 1.406e-10
 12.55959    186.2 8.866e+03 1.405e-10
 12.59131    188.2 9.244e+03 1.893e-10
 12.63174    190.0 9.656e+03 2.560e-10
 12.67218    191.4 1.000e+04 3.337e-10
 12.70477    192.1 1.016e+04 3.986e-10
 12.72489    192.4 1.016e+04 4.291e-10
 12.74274    193.1 1.027e+04 4.771e-10
 12.76296    193.7 1.035e+04 4.998e-10
 12.78032    194.1 1.043e+04 5.016e-10
 12.80063    193.1 1.012e+04 3.578e-10
 12.83391    193.6 9.949e+03 2.956e-10
 12.87017    194.0 9.674e+03 2.292e-10
 12.89039    193.9 9.710e+03 2.315e-10
 12.91478    194.3 9.357e+03 1.847e-10
 12.95521    195.0 9.205e+03 1.747e-10
 12.99565    196.0 9.202e+03 1.754e-10
 13.03557    197.2 9.200e+03 1.811e-10
 13.05578    197.3 9.417e+03 2.087e-10
 13.07651    198.8 9.422e+03 2.223e-10
 13.11177    200.6 9.498e+03 2.487e-10
 13.13198    200.9 9.065e+03 1.717e-10
 13.15738    203.1 9.239e+03 2.117e-10
 13.19781    205.6 9.480e+03 2.687e-10
 13.22118    207.6 9.675e+03 3.329e-10
 13.24140    207.1 9.758e+03 3.210e-10
 13.26847    209.0 9.837e+03 3.831e-10
 13.28731    210.8 1.006e+04 4.684e-10
 13.29742    210.6 9.862e+03 4.213e-10
 13.30369    212.5 1.012e+04 5.289e-10
 13.31379    212.9 1.037e+04 5.515e-10
 13.32903    214.7 1.072e+04 6.911e-10
 13.34924    216.5 1.107e+04 8.469e-10
 13.36946    218.3 1.139e+04 1.010e-09
 13.38638    220.1 1.168e+04 1.171e-09
 13.39649    220.1 1.203e+04 1.096e-09
 13.40989    221.7 1.229e+04 1.242e-09
 13.43011    223.2 1.259e+04 1.429e-09
 13.45033    224.5 1.325e+04 1.742e-09
 13.46304    226.2 1.451e+04 2.375e-09
 13.47169    225.5 1.444e+04 2.077e-09
 13.47919    224.4 1.493e+04 2.480e-09
 13.49076    225.9 1.584e+04 3.433e-09
 13.50587    226.6 1.609e+04 3.844e-09
 13.51539    227.5 1.632e+04 4.212e-09
 13.52044    227.0 1.614e+04 4.317e-09
 13.52604    227.7 1.651e+04 5.080e-09
 13.53615    228.4 1.724e+04 6.251e-09
 13.54576    229.2 1.849e+04 8.051e-09
 13.55081    228.6 1.844e+04 7.668e-09
 13.55637    228.0 2.069e+04 1.009e-08
 13.56179    227.1 2.341e+04 1.492e-08
 13.56685    226.7 2.339e+04 1.473e-08
 13.57658    225.3 2.572e+04 2.737e-08
 13.58669    224.3 2.612e+04 6.437e-08
 13.59680    223.6 2.547e+04 1.438e-07
 13.60312    223.2 2.517e+04 1.951e-07
 13.60562    220.3 2.534e+04 2.130e-07
 13.60939    219.6 2.455e+04 2.923e-07
 13.61444    218.3 2.351e+04 4.414e-07
 13.61949    216.5 2.234e+04 7.404e-07
 13.62377    213.6 2.149e+04 1.215e-06
 13.62629    212.7 2.145e+04 1.337e-06
 13.62960    210.0 2.096e+04 1.733e-06
 13.63358    206.0 2.078e+04 2.007e-06
 13.63866    205.5 2.251e+04 1.047e-06
 13.64449    197.6 2.290e+04 1.073e-06
 13.64954    195.3 2.164e+04 1.368e-06
 13.65745    189.1 2.202e+04 1.247e-06
 13.66756    183.5 2.351e+04 7.790e-07
 13.67767    178.7 2.692e+04 3.178e-07
 13.68584    174.8 3.294e+04 9.057e-08
 13.69089    175.6 2.886e+04 1.790e-07
 13.69788    172.7 3.398e+04 5.838e-08
 13.70799    170.0 3.498e+04 2.348e-08
 13.71644    167.2 3.005e+04 1.410e-08
 13.72149    164.0 1.847e+04 5.411e-09
 13.72719    163.7 1.797e+04 5.435e-09
 13.73224    164.7 1.883e+04 6.717e-09
 13.73832    164.8 1.842e+04 6.556e-09
 13.74842    165.0 1.820e+04 6.433e-09
 13.75853    165.3 1.793e+04 6.099e-09
 13.76854    165.7 1.754e+04 5.504e-09
 13.77359    166.5 1.796e+04 6.020e-09
 13.77875    166.9 1.752e+04 5.234e-09
 13.78886    167.2 1.705e+04 4.480e-09
 13.79897    167.4 1.660e+04 3.846e-09
 13.80431    167.4 1.603e+04 3.166e-09
 13.81022    166.9 1.459e+04 1.999e-09
 13.82005    167.9 1.536e+04 2.504e-09
 13.82929    167.7 1.509e+04 2.201e-09
 13.83940    167.3 1.487e+04 1.993e-09
 13.84951    166.6 1.474e+04 1.912e-09
 13.85629    165.9 1.470e+04 1.909e-09
 13.86135    166.1 1.488e+04 2.087e-09
 13.86972    165.1 1.488e+04 2.102e-09
 13.87983    163.9 1.494e+04 2.174e-09
 13.88712    162.5 1.517e+04 2.369e-09
 13.89217    162.8 1.394e+04 1.687e-09
 13.89764    161.8 1.411e+04 1.838e-09
 13.90269    161.5 1.434e+04 2.084e-09
 13.91016    160.4 1.459e+04 2.363e-09
 13.92027    159.4 1.505e+04 2.855e-09
 13.93037    158.6 1.592e+04 3.685e-09
 13.93899    157.7 1.752e+04 5.123e-09
 13.94404    155.1 2.113e+04 8.025e-09
 13.95059    153.9 2.307e+04 1.214e-08
 13.96070    152.8 2.454e+04 1.829e-08
 13.96993    151.9 2.526e+04 2.637e-08
 13.97499    154.9 2.482e+04 1.454e-08
 13.98034    153.8 2.624e+04 2.310e-08
 13.98539    152.2 2.520e+04 3.119e-08
 13.99103    151.9 2.484e+04 3.840e-08
 14.00113    151.5 2.450e+04 4.572e-08
 14.01124    150.6 2.347e+04 5.596e-08
 14.02135    149.5 2.235e+04 6.795e-08
 14.02674    148.5 2.180e+04 8.029e-08
 14.03180    147.7 2.156e+04 5.570e-08
 14.04157    146.6 2.250e+04 5.461e-08
 14.05168    144.8 2.330e+04 5.018e-08
 14.05780    142.2 2.490e+04 3.694e-08
 14.06286    147.5 2.342e+04 1.110e-07
 14.06809    144.4 2.482e+04 8.701e-08
 14.07315    142.0 2.549e+04 3.708e-08
 14.08200    137.4 2.526e+04 2.126e-08
 14.09211    132.0 2.231e+04 1.188e-08
 14.10222    129.7 2.122e+04 8.552e-09
 14.11743    125.9 1.558e+04 3.412e-09
 14.13566    124.3 1.258e+04 1.864e-09
 14.14577    124.3 2.685e+04 2.748e-09
 14.15089    122.5 1.475e+04 1.067e-09
 14.16100    123.6 1.158e+04 1.465e-09
 14.17813    123.3 1.142e+04 9.479e-10
 14.19834    123.6 1.165e+04 8.977e-10
 14.21856    124.1 1.170e+04 9.071e-10
 14.23359    125.0 1.195e+04 9.683e-10
 14.24370    127.0 1.159e+04 8.497e-10
 14.25899    127.9 1.168e+04 8.727e-10
 14.27921    128.8 1.212e+04 9.767e-10
 14.29943    129.5 1.294e+04 1.207e-09
 14.31139    130.4 1.388e+04 1.564e-09
 14.31814    129.9 1.437e+04 2.206e-09
 14.32639    131.2 1.262e+04 1.177e-09
 14.33986    132.0 1.318e+04 1.341e-09
 14.36008    132.8 1.368e+04 1.510e-09
 14.38029    133.6 1.409e+04 1.660e-09
 14.39898    134.4 1.432e+04 1.751e-09
 14.40909    134.6 1.293e+04 7.455e-10
 14.42073    135.3 1.297e+04 7.430e-10
 14.45115    136.3 1.202e+04 4.549e-10
 14.47722    137.6 1.174e+04 4.173e-10
 14.49743    138.4 1.269e+04 1.007e-09
 14.53211    140.0 1.211e+04 8.038e-10
 14.56458    141.7 1.135e+04 6.130e-10
 14.58479    142.1 1.019e+04 2.226e-10
 14.61298    143.8 9.701e+03 2.132e-10
 14.65342    145.5 9.546e+03 2.210e-10
 14.69385    147.1 9.407e+03 2.536e-10
 14.72997    148.5 9.434e+03 2.983e-10
 14.75019    149.4 8.887e+03 1.966e-10
 14.77472    150.6 8.933e+03 2.184e-10
 14.80847    151.7 8.949e+03 2.373e-10
 14.82869    152.0 8.796e+03 1.988e-10
 14.85558    152.8 8.720e+03 1.934e-10
 14.89537    153.6 8.596e+03 1.800e-10
 14.91559    154.5 8.439e+03 1.474e-10
 14.93645    155.0 8.326e+03 1.408e-10
 14.97688    155.5 8.231e+03 1.372e-10
 15.01732    155.7 8.229e+03 1.385e-10
 15.05775    155.7 8.265e+03 1.464e-10
 15.08099    155.4 8.423e+03 1.798e-10
 15.10120    156.7 8.405e+03 1.818e-10
 15.13862    156.6 8.745e+03 2.436e-10
 15.15994    156.5 9.172e+03 3.386e-10
 15.18016    154.9 9.190e+03 3.515e-10
 15.21948    154.9 9.434e+03 4.282e-10
 15.24638    155.1 9.433e+03 4.321e-10
 15.25639    155.7 9.603e+03 4.505e-10
 15.26983    155.8 9.595e+03 4.698e-10
 15.30025    156.0 9.673e+03 5.031e-10
 15.34078    156.7 9.622e+03 4.900e-10
 15.38122    157.7 9.437e+03 4.265e-10
 15.41178    158.8 9.132e+03 3.267e-10
 15.43190    158.1 9.986e+03 5.438e-10
 15.46199    159.8 9.877e+03 5.138e-10
 15.49119    161.2 9.506e+03 3.994e-10
 15.51141    159.1 9.562e+03 4.197e-10
 15.54295    160.2 9.204e+03 3.425e-10
 15.57718    161.5 9.088e+03 3.303e-10
 15.59730    162.5 9.312e+03 4.041e-10
 15.61351    163.3 9.293e+03 4.011e-10
 15.63373    164.0 9.291e+03 4.020e-10
 15.65395    164.8 9.314e+03 4.129e-10
 15.66673    165.5 9.375e+03 4.331e-10
 15.67247    164.6 9.486e+03 4.731e-10
 15.67990    164.9 9.657e+03 5.382e-10
 15.69438    165.7 9.682e+03 5.463e-10
 15.71460    166.5 9.732e+03 5.580e-10
 15.73481    167.2 9.766e+03 5.558e-10
 15.75249    167.9 9.807e+03 5.430e-10
 15.76260    168.1 9.913e+03 5.264e-10
 15.77525    168.5 9.939e+03 4.869e-10
 15.79546    168.7 9.942e+03 4.530e-10
 15.81568    168.8 9.986e+03 4.392e-10
 15.83236    168.8 9.983e+03 4.445e-10
 15.84176    166.8 9.863e+03 4.251e-10
 15.84530    166.9 9.765e+03 4.081e-10
 15.85611    167.0 9.779e+03 4.455e-10
 15.87633    167.3 9.891e+03 5.123e-10
 15.89655    167.8 1.006e+04 6.054e-10
 15.91676    168.6 1.028e+04 7.129e-10
 15.92799    169.5 1.049e+04 8.338e-10
 15.93810    169.8 1.041e+04 6.989e-10
 15.95720    170.6 1.064e+04 6.958e-10
 15.97741    171.3 1.067e+04 6.789e-10
 15.99763    171.8 1.074e+04 6.274e-10
 16.00810    172.1 1.075e+04 5.520e-10
 16.01105    170.1 1.039e+04 4.063e-10
 16.02080    170.0 1.016e+04 3.638e-10
 16.03806    170.0 1.002e+04 3.428e-10
 16.05828    170.4 9.991e+03 3.434e-10
 16.07850    170.7 9.973e+03 3.462e-10
 16.09339    171.3 9.988e+03 3.596e-10
 16.10350    172.1 9.928e+03 3.541e-10
 16.11893    172.8 1.006e+04 3.915e-10
 16.13915    173.4 1.031e+04 4.516e-10
 16.15936    173.9 1.055e+04 5.133e-10
 16.17372    174.3 1.079e+04 5.781e-10
 16.18034    173.8 1.077e+04 5.373e-10
 16.18620    174.3 1.079e+04 5.564e-10
 16.19980    174.8 1.100e+04 6.174e-10
 16.22001    175.2 1.118e+04 6.747e-10
 16.24023    175.7 1.136e+04 7.304e-10
 16.25879    176.1 1.153e+04 7.818e-10
 16.26890    176.5 1.164e+04 8.620e-10
 16.28066    176.9 1.183e+04 9.179e-10
 16.30088    177.2 1.205e+04 9.789e-10
 16.32110    177.3 1.229e+04 1.070e-09
 16.33935    177.3 1.257e+04 1.214e-09
 16.34946    177.1 1.257e+04 1.174e-09
 16.35160    176.9 1.293e+04 1.451e-09
 16.36170    177.4 1.302e+04 1.507e-09
 16.38175    177.1 1.342e+04 1.909e-09
 16.40196    176.9 1.389e+04 2.574e-09
 16.42218    176.8 1.443e+04 3.522e-09
 16.43429    176.7 1.494e+04 4.575e-09
 16.44440    177.0 1.457e+04 3.778e-09
 16.46261    176.8 1.491e+04 4.533e-09
 16.48283    176.7 1.497e+04 4.616e-09
 16.50305    176.7 1.485e+04 4.401e-09
 16.51508    176.9 1.448e+04 3.671e-09
 16.51892    177.0 1.490e+04 4.501e-09
 16.52710    177.1 1.467e+04 4.035e-09
 16.54348    177.2 1.439e+04 3.549e-09
 16.56370    177.7 1.389e+04 2.753e-09
 16.58968    178.2 1.315e+04 1.570e-09
 16.61000    178.4 1.345e+04 2.111e-09
 16.63465    178.7 1.278e+04 1.388e-09
 16.67509    178.9 1.210e+04 8.836e-10
 16.71552    179.0 1.153e+04 6.014e-10
 16.75518    179.0 1.114e+04 4.607e-10
 16.77539    179.3 1.222e+04 1.009e-09
 16.79639    179.4 1.188e+04 8.254e-10
 16.83642    179.6 1.151e+04 6.593e-10
 16.85664    180.2 1.161e+04 7.177e-10
 16.87725    180.6 1.131e+04 5.967e-10
 16.91769    181.1 1.110e+04 5.150e-10
 16.94079    181.8 1.096e+04 4.681e-10
 16.96101    181.5 1.085e+04 3.894e-10
 16.99855    182.2 1.066e+04 3.218e-10
 17.03899    182.9 1.052e+04 2.794e-10
 17.07942    183.7 1.035e+04 2.474e-10
 17.10619    184.5 1.011e+04 2.261e-10
 17.12640    184.3 9.824e+03 1.454e-10
 17.16029    185.5 9.781e+03 1.488e-10
 17.18789    186.6 9.691e+03 1.678e-10
 17.20811    186.2 9.665e+03 1.661e-10
 17.24115    187.3 9.650e+03 2.099e-10
 17.27158    188.5 9.733e+03 2.747e-10
 17.29180    189.4 9.766e+03 2.721e-10
 17.32202    190.5 9.929e+03 3.511e-10
 17.36245    191.3 1.002e+04 3.795e-10
 17.40289    191.9 1.001e+04 3.771e-10
 17.43698    192.3 9.934e+03 3.560e-10
 17.45720    193.2 1.009e+04 3.975e-10
 17.48375    193.6 9.908e+03 3.482e-10
 17.51915    194.1 9.639e+03 2.869e-10
 17.53937    194.2 9.501e+03 2.713e-10
 17.56462    194.8 9.318e+03 2.408e-10
 17.60238    195.6 9.140e+03 2.199e-10
 17.62260    196.1 9.295e+03 2.443e-10
 17.64549    196.9 9.143e+03 2.279e-10
 17.68592    197.6 9.030e+03 2.161e-10
 17.72635    198.2 8.931e+03 2.033e-10
 17.76679    198.8 8.834e+03 1.874e-10
 17.78799    199.3 8.740e+03 1.681e-10
 17.80821    199.3 8.773e+03 1.670e-10
 17.84765    199.6 8.648e+03 1.474e-10
 17.87062    200.0 8.528e+03 1.334e-10
 17.89084    199.4 8.606e+03 1.517e-10
 17.92852    199.9 8.599e+03 1.546e-10
 17.95339    200.6 8.615e+03 1.650e-10
 17.97361    200.6 8.682e+03 1.723e-10
 18.00939    201.3 8.750e+03 1.890e-10
 18.04982    202.0 8.855e+03 2.118e-10
 18.09026    202.7 8.971e+03 2.366e-10
 18.11879    203.4 9.092e+03 2.602e-10
 18.13900    202.9 9.424e+03 3.011e-10
 18.17112    203.7 9.573e+03 3.318e-10
 18.20187    204.4 9.721e+03 3.633e-10
 18.22199    203.1 9.951e+03 4.424e-10
 18.24168    203.3 1.005e+04 4.770e-10
 18.26190    203.5 1.014e+04 5.086e-10
 18.28212    203.7 1.025e+04 5.454e-10
 18.29410    204.0 1.038e+04 5.912e-10
 18.30421    203.3 1.073e+04 7.477e-10
 18.32255    203.4 1.092e+04 8.287e-10
 18.34277    203.4 1.118e+04 9.401e-10
 18.36299    203.4 1.149e+04 1.077e-09
 18.37680    203.3 1.179e+04 1.223e-09
 18.38112    202.4 1.203e+04 1.323e-09
 18.38752    201.5 1.190e+04 1.227e-09
 18.40342    201.3 1.196e+04 1.259e-09
 18.42364    201.2 1.201e+04 1.276e-09
 18.44385    201.0 1.202e+04 1.255e-09
 18.45950    200.7 1.199e+04 1.176e-09
 18.46960    199.9 1.169e+04 8.806e-10
 18.48429    199.4 1.157e+04 7.824e-10
 18.50450    198.8 1.145e+04 7.053e-10
 18.52472    198.1 1.130e+04 6.593e-10
 18.54219    197.6 1.117e+04 6.456e-10
 18.55041    196.6 1.108e+04 5.867e-10
 18.55315    195.1 1.121e+04 6.811e-10
 18.56515    194.9 1.114e+04 6.979e-10
 18.58537    194.7 1.107e+04 6.999e-10
 18.60559    194.7 1.102e+04 7.038e-10
 18.62489    194.6 1.097e+04 6.952e-10
 18.63500    194.0 1.105e+04 8.152e-10
 18.64602    194.0 1.099e+04 8.005e-10
 18.66624    193.9 1.090e+04 7.678e-10
 18.68645    193.8 1.080e+04 7.287e-10
 18.70667    193.7 1.067e+04 6.883e-10
 18.71770    193.7 1.055e+04 6.481e-10
 18.71970    193.4 1.061e+04 6.893e-10
 18.72888    191.2 1.038e+04 5.138e-10
 18.74710    191.1 1.026e+04 4.794e-10
 18.76732    191.0 1.021e+04 4.571e-10
 18.78754    190.7 1.023e+04 4.593e-10
 18.80040    190.1 1.031e+04 4.773e-10
 18.81051    189.5 1.026e+04 4.623e-10
 18.82797    188.7 1.046e+04 5.222e-10
 18.84819    187.4 1.070e+04 6.015e-10
 18.86840    186.3 1.065e+04 6.253e-10
 18.88450    186.7 1.079e+04 6.759e-10
 18.90481    184.6 1.041e+04 5.700e-10
 18.93936    183.4 1.027e+04 5.265e-10
 18.96599    181.8 9.868e+03 3.841e-10
 18.98621    181.1 9.622e+03 3.093e-10
 19.02022    179.4 8.889e+03 1.759e-10
 19.06066    178.1 8.392e+03 1.285e-10
 19.10109    177.7 8.367e+03 1.277e-10
 19.13139    177.3 8.377e+03 1.311e-10
 19.15161    176.7 8.389e+03 1.299e-10
 19.18196    176.3 8.612e+03 1.627e-10
 19.21585    176.3 8.788e+03 1.925e-10
 19.23597    174.8 8.946e+03 2.070e-10
 19.25252    173.7 9.408e+03 2.521e-10
 19.27274    169.5 1.098e+04 4.646e-10
 19.29295    163.3 1.347e+04 1.302e-09
 19.30670    158.0 1.503e+04 3.237e-09
 19.31681    155.9 1.559e+04 4.291e-09
 19.33339    152.6 1.618e+04 5.144e-09
 19.35360    149.8 1.624e+04 4.827e-09
 19.37382    146.4 1.635e+04 3.350e-09
 19.38940    141.9 1.610e+04 1.579e-09
 19.39686    139.5 1.550e+04 1.050e-09
 19.40150    137.4 1.460e+04 7.513e-10
 19.42446    133.0 1.385e+04 4.545e-10
 19.46218    124.3 9.780e+03 2.013e-10
 19.48240    120.6 9.124e+03 1.797e-10
 19.50542    118.6 8.965e+03 1.763e-10
 19.54586    117.7 8.967e+03 1.779e-10
 19.56732    116.8 8.976e+03 1.905e-10
 19.58754    114.9 8.807e+03 1.723e-10
 19.62672    114.1 8.767e+03 2.001e-10
 19.64780    113.4 8.692e+03 2.080e-10
 19.66801    112.5 8.673e+03 1.873e-10
 19.70759    111.8 8.518e+03 1.733e-10
 19.74802    111.1 8.321e+03 1.477e-10
 19.78846    110.3 8.144e+03 1.256e-10
 19.81319    109.5 8.126e+03 1.218e-10
 19.83341    108.7 8.131e+03 1.192e-10
 19.86933    108.0 8.223e+03 1.380e-10
 19.89857    107.2 8.479e+03 1.808e-10
 19.91879    105.9 8.646e+03 2.072e-10
 19.95019    105.1 8.908e+03 2.687e-10
 19.97859    103.8 9.016e+03 2.841e-10
 19.99881    103.4 9.098e+03 3.003e-10
 20.03106    101.6 9.084e+03 2.842e-10
 20.07149     99.0 9.072e+03 2.561e-10
 20.11193     95.3 9.141e+03 2.553e-10
 20.14399     91.3 9.358e+03 2.731e-10
 20.16421     90.7 9.294e+03 2.633e-10
 20.19279     87.3 9.690e+03 3.117e-10
 20.22302     84.6 1.021e+04 3.823e-10
 20.23660     81.4 1.074e+04 4.719e-10
 20.24331     80.8 1.092e+04 4.921e-10
 20.24985     77.7 1.132e+04 5.717e-10
 20.26336     73.0 1.165e+04 7.313e-10
 20.28357     69.2 1.163e+04 8.713e-10
 20.30379     66.5 1.142e+04 9.203e-10
 20.31930     64.8 1.122e+04 8.814e-10
 20.32941     64.7 1.134e+04 9.478e-10
 20.34422     63.3 1.108e+04 8.058e-10
 20.36444     61.4 1.086e+04 6.378e-10
 20.38466     58.7 1.072e+04 5.199e-10
 20.40200     55.7 1.073e+04 5.051e-10
 20.41211     55.3 1.083e+04 5.511e-10
 20.41548     52.4 1.096e+04 5.978e-10
 20.42558     50.7 1.090e+04 5.897e-10
 20.44531     48.6 1.128e+04 7.541e-10
 20.46552     46.8 1.165e+04 9.361e-10
 20.48470     45.0 1.182e+04 9.853e-10
 20.49481     45.3 1.219e+04 1.169e-09
 20.50596     43.2 1.214e+04 1.127e-09
 20.52617     40.9 1.191e+04 9.803e-10
 20.54639     37.9 1.158e+04 8.177e-10
 20.56661     34.7 1.120e+04 7.367e-10
 20.57750     31.8 1.119e+04 7.403e-10
 20.58189     31.6 1.129e+04 7.778e-10
 20.59121     30.1 1.156e+04 8.611e-10
 20.60704     25.8 1.209e+04 1.017e-09
 20.62726     20.8 1.304e+04 1.453e-09
 20.64747     16.8 1.357e+04 2.124e-09
 20.66020     14.1 1.384e+04 2.764e-09
 20.67031     12.0 1.486e+04 3.727e-09
 20.68791      8.9 1.571e+04 4.138e-09
 20.70812      4.7 1.648e+04 4.226e-09
 20.72834     -0.0 1.634e+04 4.100e-09
 20.74290     -4.1 1.546e+04 3.703e-09
 20.75118     -7.9 1.533e+04 3.973e-09
 20.75684     -8.0 1.509e+04 3.852e-09
 20.76877     -8.8 1.445e+04 3.197e-09
 20.78899     -9.2 1.385e+04 2.377e-09
 20.80921    -10.0 1.338e+04 1.550e-09
 20.82560    -12.0 1.301e+04 9.612e-10
 20.83571    -17.0 1.328e+04 8.995e-10
 20.84964    -20.4 1.304e+04 6.080e-10
 20.86986    -23.0 1.299e+04 5.425e-10
 20.89007    -24.4 1.304e+04 6.167e-10
 20.90830    -25.0 1.286e+04 7.653e-10
 20.91841    -27.7 1.347e+04 1.676e-09
 20.92246    -27.4 1.330e+04 1.848e-09
 20.93257    -27.3 1.334e+04 1.738e-09
 20.95072    -26.7 1.321e+04 1.858e-09
 20.97094    -26.1 1.321e+04 1.942e-09
 20.99100    -25.7 1.335e+04 2.002e-09
 21.00111    -27.4 1.368e+04 2.447e-09
 21.01137    -27.2 1.351e+04 2.253e-09
 21.03159    -27.1 1.345e+04 2.131e-09
 21.05181    -27.2 1.343e+04 2.144e-09
 21.07202    -27.3 1.351e+04 2.240e-09
 21.08380    -27.4 1.370e+04 2.489e-09
 21.08976    -28.0 1.318e+04 2.113e-09
 21.09820    -27.8 1.369e+04 2.552e-09
 21.11246    -28.3 1.427e+04 3.043e-09
 21.13267    -29.3 1.522e+04 4.015e-09
 21.15289    -30.9 1.615e+04 5.412e-09
 21.16650    -31.6 1.676e+04 6.956e-09
 21.17661    -33.0 1.660e+04 6.649e-09
 21.19332    -32.5 1.688e+04 8.024e-09
 21.21354    -32.2 1.686e+04 7.950e-09
 21.23376    -32.7 1.721e+04 7.493e-09
 21.24920    -35.1 1.846e+04 6.619e-09
 21.25905    -38.2 2.016e+04 1.143e-08
 21.26383    -38.1 2.042e+04 1.132e-08
 21.27419    -41.1 2.007e+04 1.207e-08
 21.29441    -42.6 1.900e+04 1.052e-08
 21.31462    -43.2 1.771e+04 7.391e-09
 21.33190    -45.0 1.709e+04 4.892e-09
 21.34201    -44.9 1.897e+04 6.656e-09
 21.35506    -49.5 1.705e+04 4.184e-09
 21.37527    -52.5 1.545e+04 3.554e-09
 21.39549    -52.9 1.528e+04 3.880e-09
 21.41460    -53.0 1.565e+04 4.456e-09
 21.42471    -55.7 1.731e+04 4.477e-09
 21.42945    -56.6 1.785e+04 5.252e-09
 21.43956    -56.8 1.706e+04 4.349e-09
 21.45614    -57.9 1.714e+04 4.997e-09
 21.47636    -58.2 1.673e+04 5.792e-09
 21.49657    -57.7 1.637e+04 6.027e-09
 21.50741    -56.6 1.613e+04 5.153e-09
 21.51751    -58.1 1.781e+04 6.797e-09
 21.53701    -57.8 1.793e+04 4.602e-09
 21.55722    -59.3 1.764e+04 3.083e-09
 21.57744    -61.5 1.644e+04 2.034e-09
 21.59011    -63.3 1.531e+04 1.676e-09
 21.59764    -65.5 1.659e+04 2.933e-09
 21.60519    -65.1 1.594e+04 2.315e-09
 21.61787    -65.7 1.557e+04 2.408e-09
 21.63809    -66.0 1.531e+04 2.759e-09
 21.65831    -65.6 1.509e+04 3.215e-09
 21.67280    -64.9 1.506e+04 3.662e-09
 21.68291    -65.9 1.532e+04 3.796e-09
 21.69874    -65.1 1.512e+04 3.580e-09
 21.71896    -64.6 1.490e+04 3.088e-09
 21.73917    -64.4 1.443e+04 2.410e-09
 21.75550    -64.7 1.397e+04 1.779e-09
 21.76561    -67.2 1.265e+04 1.113e-09
 21.77082    -67.4 1.208e+04 9.308e-10
 21.78092    -67.3 1.207e+04 8.982e-10
 21.79983    -67.0 1.169e+04 7.813e-10
 21.82004    -67.2 1.157e+04 7.529e-10
 21.83820    -67.3 1.157e+04 7.655e-10
 21.84831    -67.8 1.123e+04 6.669e-10
 21.86048    -67.9 1.137e+04 7.022e-10
 21.88069    -68.3 1.160e+04 8.013e-10
 21.90091    -68.5 1.187e+04 9.000e-10
 21.92090    -68.7 1.192e+04 1.010e-09
 21.93101    -68.7 1.163e+04 8.536e-10
 21.93644    -68.7 1.173e+04 9.141e-10
 21.94655    -69.2 1.167e+04 9.200e-10
 21.96156    -69.1 1.153e+04 9.119e-10
 21.98178    -68.9 1.137e+04 8.284e-10
 22.00199    -68.8 1.123e+04 7.080e-10
 22.01371    -68.9 1.100e+04 5.582e-10
 22.02382    -68.8 1.095e+04 6.240e-10
 22.04243    -69.1 1.078e+04 4.942e-10
 22.06264    -69.5 1.066e+04 4.129e-10
 22.08286    -70.0 1.058e+04 3.309e-10
 22.09641    -70.5 1.041e+04 3.109e-10
 22.10551    -70.0 1.061e+04 3.311e-10
 22.11218    -70.7 1.051e+04 2.968e-10
 22.12329    -71.1 1.033e+04 3.154e-10
 22.14351    -71.2 1.029e+04 3.165e-10
 22.16373    -71.1 1.029e+04 3.786e-10
 22.17910    -70.9 1.053e+04 4.399e-10
 22.18921    -70.7 1.052e+04 4.419e-10
 22.20416    -70.6 1.075e+04 5.340e-10
 22.22438    -70.6 1.109e+04 6.379e-10
 22.24459    -70.8 1.148e+04 7.558e-10
 22.26180    -71.1 1.174e+04 8.876e-10
 22.27191    -70.5 1.174e+04 8.842e-10
 22.27780    -70.6 1.188e+04 9.813e-10
 22.28791    -71.1 1.188e+04 9.966e-10
 22.30524    -71.0 1.184e+04 1.047e-09
 22.32546    -70.7 1.174e+04 1.060e-09
 22.34450    -70.4 1.160e+04 1.027e-09
 22.35461    -70.2 1.147e+04 8.842e-10
 22.36589    -69.9 1.125e+04 8.178e-10
 22.38611    -70.0 1.148e+04 8.429e-10
 22.40633    -71.9 1.461e+04 9.506e-10
 22.42144    -75.6 2.031e+04 1.014e-09
 22.43150    -83.2 2.833e+04 2.724e-09
 22.43721    -88.0 2.659e+04 9.241e-09
 22.44227    -82.3 2.770e+04 2.499e-09
 22.44839    -87.4 2.634e+04 7.290e-09
 22.45344    -87.5 2.558e+04 7.988e-09
 22.46182    -88.2 2.307e+04 1.912e-08
 22.47193    -88.4 2.138e+04 3.447e-08
 22.47856    -88.2 2.039e+04 5.059e-08
 22.48361    -88.6 2.111e+04 2.554e-08
 22.49215    -88.6 1.984e+04 3.693e-08
 22.50226    -87.6 1.923e+04 4.344e-08
 22.51237    -86.3 1.924e+04 4.362e-08
 22.51991    -85.2 2.076e+04 3.616e-08
 22.52496    -86.0 1.920e+04 3.619e-08
 22.53120    -85.3 2.104e+04 2.736e-08
 22.53625    -85.0 2.105e+04 2.431e-08
 22.54269    -86.5 2.111e+04 1.791e-08
 22.55280    -88.3 2.128e+04 1.275e-08
 22.56801    -90.2 2.084e+04 9.684e-09
 22.58828    -95.2 1.957e+04 4.403e-09
 22.60271   -100.3 1.549e+04 2.719e-09
 22.61281    -95.8 1.829e+04 4.492e-09
 22.61917    -99.6 1.519e+04 3.105e-09
 22.62927    -98.9 1.523e+04 3.300e-09
 22.64893   -100.0 1.419e+04 2.813e-09
 22.66914   -100.6 1.397e+04 2.375e-09
 22.68540   -101.6 1.325e+04 1.792e-09
 22.69551   -100.1 1.363e+04 1.775e-09
 22.70958   -101.7 1.253e+04 1.200e-09
 22.72979   -103.1 1.161e+04 7.841e-10
 22.75001   -104.3 1.092e+04 5.152e-10
 22.76810   -105.5 1.037e+04 3.467e-10
 22.77821   -105.0 1.028e+04 3.423e-10
 22.78479   -105.9 9.819e+03 2.516e-10
 22.79490   -105.5 9.916e+03 2.717e-10
 22.82087   -106.1 9.556e+03 2.058e-10
 22.85100   -105.9 9.116e+03 1.334e-10
 22.87121   -105.2 9.139e+03 1.407e-10
 22.90183   -105.1 8.934e+03 1.026e-10
 22.94051   -104.7 8.882e+03 9.452e-11
 22.96072   -104.3 8.911e+03 9.916e-11
 22.98270   -103.5 8.919e+03 9.943e-11
 23.01639   -102.6 8.974e+03 1.157e-10
 23.03661   -102.5 9.028e+03 1.257e-10
 23.06356   -101.4 9.014e+03 1.441e-10
 23.10400   -100.1 9.042e+03 1.603e-10
 23.14443    -99.0 9.074e+03 1.730e-10
 23.18179    -98.0 9.127e+03 1.882e-10
 23.20201    -97.5 8.973e+03 1.597e-10
 23.22530    -96.7 9.065e+03 1.775e-10
 23.26573    -96.2 9.201e+03 2.153e-10
 23.29198    -95.9 9.362e+03 2.696e-10
 23.31219    -95.0 9.409e+03 2.780e-10
 23.34660    -94.8 9.542e+03 3.308e-10
 23.36741    -94.6 9.670e+03 3.652e-10
 23.38762    -93.4 9.500e+03 3.236e-10
 23.42747    -93.2 9.560e+03 3.329e-10
 23.46790    -94.1 9.708e+03 3.428e-10
 23.50833    -97.0 1.036e+04 3.868e-10
 23.53280   -100.8 1.146e+04 6.921e-10
 23.55302   -100.0 1.157e+04 7.100e-10
 23.58920   -103.4 1.244e+04 1.345e-09
 23.62323   -106.3 1.277e+04 1.657e-09
 23.64345   -106.9 1.294e+04 1.818e-09
 23.67007   -109.6 1.234e+04 1.363e-09
 23.69820   -111.9 1.124e+04 6.898e-10
 23.71842   -111.2 1.131e+04 7.352e-10
 23.75093   -113.2 1.072e+04 4.840e-10
 23.79137   -114.6 1.048e+04 4.097e-10
 23.83180   -116.1 1.039e+04 3.990e-10
 23.86360   -117.4 1.034e+04 4.077e-10
 23.88381   -117.0 1.061e+04 5.239e-10
 23.91267   -118.3 1.065e+04 5.448e-10
 23.95310   -120.0 1.096e+04 6.266e-10
 23.97470   -121.9 1.116e+04 7.459e-10
 23.99492   -122.9 1.116e+04 7.535e-10
 24.02900   -124.1 1.106e+04 7.612e-10
 24.04911   -123.4 1.130e+04 8.661e-10
 24.06410   -123.7 1.101e+04 7.786e-10
 24.08431   -123.7 1.080e+04 6.966e-10
 24.10453   -123.8 1.021e+04 4.740e-10
 24.12161   -123.9 9.907e+03 3.576e-10
 24.13172   -123.8 1.005e+04 4.103e-10
 24.15517   -124.0 9.755e+03 3.018e-10
 24.19439   -123.8 9.253e+03 2.109e-10
 24.21461   -123.3 9.624e+03 3.163e-10
 24.23613   -122.4 9.036e+03 2.065e-10
 24.27657   -121.0 8.859e+03 1.562e-10
 24.30595   -119.9 8.868e+03 1.462e-10
 24.32617   -120.3 8.872e+03 1.401e-10
 24.35743   -120.0 9.279e+03 1.809e-10
 24.38001   -120.0 9.990e+03 3.329e-10
 24.40022   -119.8 9.798e+03 3.089e-10
 24.43830   -120.0 1.034e+04 4.877e-10
 24.47873   -120.3 1.102e+04 7.609e-10
 24.51917   -121.8 1.201e+04 1.184e-09
 24.54531   -123.8 1.256e+04 1.469e-09
 24.55532   -124.2 1.228e+04 1.333e-09
 24.56951   -125.1 1.270e+04 1.619e-09
 24.58973   -126.1 1.323e+04 2.062e-09
 24.60995   -127.1 1.363e+04 2.674e-09
 24.62791   -127.9 1.370e+04 3.016e-09
 24.63802   -127.6 1.336e+04 2.474e-09
 24.64712   -128.2 1.336e+04 2.579e-09
 24.65723   -129.0 1.308e+04 2.375e-09
 24.67060   -129.7 1.280e+04 2.155e-09
 24.69081   -130.5 1.249e+04 1.783e-09
 24.71061   -131.5 1.228e+04 1.515e-09
 24.72071   -130.8 1.217e+04 1.558e-09
 24.73125   -131.4 1.199e+04 1.387e-09
 24.75146   -131.5 1.189e+04 1.316e-09
 24.77168   -131.2 1.187e+04 1.298e-09
 24.79190   -131.1 1.209e+04 1.417e-09
 24.80341   -134.2 1.392e+04 1.756e-09
 24.81352   -135.6 1.560e+04 1.500e-09
 24.82286   -143.1 2.059e+04 4.948e-09
 24.83296   -146.7 2.050e+04 9.666e-09
 24.84471   -148.7 2.091e+04 2.020e-08
 24.84972   -149.2 2.086e+04 2.230e-08
 24.85750   -150.1 2.089e+04 3.478e-08
 24.86761   -150.5 2.092e+04 4.715e-08
 24.87772   -150.8 2.102e+04 5.313e-08
 24.88601   -151.4 2.109e+04 5.410e-08
 24.89107   -150.6 2.109e+04 5.515e-08
 24.89794   -151.6 2.165e+04 4.680e-08
 24.90557   -153.9 2.237e+04 2.855e-08
 24.91063   -155.2 2.209e+04 1.957e-08
 24.91815   -160.8 2.149e+04 8.584e-09
 24.92736   -168.2 1.841e+04 3.619e-09
 24.93242   -169.5 1.797e+04 3.049e-09
 24.93837   -175.0 1.495e+04 2.039e-09
 24.95358   -178.4 1.374e+04 1.781e-09
 24.96881   -183.1 1.154e+04 1.226e-09
 24.97892   -185.1 1.075e+04 1.007e-09
 24.98848   -186.1 1.025e+04 8.838e-10
 24.99859   -185.0 9.901e+03 7.471e-10
 25.01428   -185.2 9.901e+03 7.405e-10
 25.03450   -185.2 9.932e+03 7.365e-10
 25.05151   -185.2 9.976e+03 7.240e-10
 25.06162   -185.6 9.805e+03 6.506e-10
 25.07493   -185.5 9.756e+03 6.142e-10
 25.09515   -185.2 9.687e+03 5.790e-10
 25.11536   -184.9 9.623e+03 5.499e-10
 25.13421   -184.5 9.585e+03 5.322e-10
 25.14432   -184.1 9.398e+03 4.363e-10
 25.15411   -183.8 9.412e+03 4.308e-10
 25.16422   -183.1 9.383e+03 4.171e-10
 25.17601   -182.9 9.393e+03 4.217e-10
 25.19623   -182.7 9.436e+03 4.297e-10
 25.21645   -182.7 9.459e+03 4.373e-10
 25.22701   -182.6 9.514e+03 4.505e-10
 25.23712   -182.4 9.395e+03 3.820e-10
 25.25688   -182.9 9.474e+03 3.940e-10
 25.27710   -184.4 9.794e+03 4.888e-10
 25.29732   -185.6 1.024e+04 6.504e-10
 25.30971   -186.7 1.076e+04 8.853e-10
 25.31982   -186.6 1.051e+04 7.643e-10
 25.32984   -187.4 1.096e+04 9.988e-10
 25.33995   -186.7 1.080e+04 9.301e-10
 25.35797   -187.3 1.115e+04 1.116e-09
 25.37818   -187.9 1.133e+04 1.209e-09
 25.39241   -188.6 1.136e+04 1.225e-09
 25.40252   -188.4 1.110e+04 1.075e-09
 25.41862   -189.0 1.105e+04 1.051e-09
 25.43883   -189.4 1.081e+04 8.826e-10
 25.45905   -189.8 1.053e+04 6.725e-10
 25.47511   -190.4 1.025e+04 4.976e-10
 25.48522   -189.9 1.016e+04 4.663e-10
 25.49547   -190.3 9.932e+03 3.727e-10
 25.50558   -189.7 9.923e+03 3.798e-10
 25.52990   -190.5 9.790e+03 3.333e-10
 25.55800   -190.3 9.586e+03 2.992e-10
 25.57822   -189.1 9.327e+03 2.631e-10
 25.61087   -188.7 9.218e+03 2.451e-10
 25.65119   -187.9 9.208e+03 2.436e-10
 25.69162   -185.8 9.297e+03 2.586e-10
 25.72340   -184.9 9.409e+03 2.744e-10
 25.74362   -184.2 9.266e+03 2.430e-10
 25.77260   -183.3 9.331e+03 2.520e-10
 25.81304   -182.2 9.326e+03 2.342e-10
 25.85347   -181.1 9.237e+03 1.906e-10
 25.88880   -180.1 9.096e+03 1.427e-10
 25.90902   -179.6 9.070e+03 1.420e-10
 25.93434   -178.7 8.923e+03 1.064e-10
 25.97477   -177.9 8.777e+03 8.598e-11
 26.00266   -177.0 8.710e+03 8.058e-11
 26.02287   -176.5 9.014e+03 1.014e-10
 26.05420   -175.7 8.921e+03 9.324e-11
 26.07441   -175.4 8.915e+03 9.964e-11
 26.09607   -174.6 9.016e+03 1.083e-10
 26.13650   -173.9 9.151e+03 1.356e-10
 26.17694   -173.3 9.359e+03 1.823e-10
 26.21737   -172.7 9.664e+03 2.534e-10
 26.23981   -172.3 1.004e+04 3.527e-10
 26.26003   -171.4 9.938e+03 3.369e-10
 26.29824   -171.0 1.031e+04 4.389e-10
 26.33391   -170.8 1.064e+04 5.392e-10
 26.35413   -171.0 1.041e+04 4.497e-10
 26.37910   -170.9 1.061e+04 5.012e-10
 26.40521   -170.8 1.069e+04 5.175e-10
 26.42542   -169.7 1.052e+04 4.597e-10
 26.45997   -169.5 1.059e+04 4.732e-10
 26.50040   -169.2 1.062e+04 4.549e-10
 26.54084   -168.6 1.062e+04 4.129e-10
 26.57061   -167.9 1.063e+04 3.870e-10
 26.59082   -166.9 1.065e+04 4.315e-10
 26.62170   -166.4 1.073e+04 4.344e-10
 26.66214   -166.1 1.082e+04 4.565e-10
 26.68538   -166.0 1.083e+04 4.773e-10
 26.70560   -166.2 1.107e+04 5.453e-10
 26.73600   -166.4 1.112e+04 5.678e-10
 26.75622   -165.9 1.138e+04 7.029e-10
 26.78344   -166.2 1.140e+04 7.137e-10
 26.82387   -166.3 1.128e+04 6.687e-10
 26.86431   -166.2 1.102e+04 5.562e-10
 26.90140   -166.0 1.071e+04 4.455e-10
 26.92162   -165.6 1.068e+04 4.513e-10
 26.94517   -165.3 1.039e+04 3.620e-10
 26.98561   -164.9 1.017e+04 3.111e-10
 27.01663   -164.3 1.005e+04 2.800e-10
 27.03685   -165.1 9.969e+03 2.782e-10
 27.06647   -164.2 9.898e+03 2.635e-10
 27.08701   -163.2 9.892e+03 2.605e-10
 27.10723   -162.5 9.842e+03 2.640e-10
 27.14734   -161.6 9.899e+03 2.653e-10
 27.18777   -160.9 1.012e+04 3.075e-10
 27.21800   -160.0 1.019e+04 3.262e-10
 27.23812   -159.9 1.020e+04 3.572e-10
 27.25222   -160.2 1.031e+04 4.641e-10
 27.26232   -159.6 1.014e+04 3.532e-10
 27.27855   -161.2 1.052e+04 5.326e-10
 27.29877   -162.9 1.156e+04 9.865e-10
 27.31899   -164.5 1.296e+04 1.923e-09
 27.33491   -165.9 1.449e+04 3.477e-09
 27.34502   -165.7 1.411e+04 3.193e-09
 27.35780   -167.4 1.562e+04 5.103e-09
 27.36791   -167.1 1.496e+04 4.238e-09
 27.37964   -169.6 1.607e+04 5.429e-09
 27.39985   -173.4 1.664e+04 5.709e-09
 27.41761   -178.3 1.678e+04 5.520e-09
 27.42772   -177.3 1.705e+04 5.686e-09
 27.44029   -182.6 1.667e+04 4.495e-09
 27.46050   -186.3 1.512e+04 3.417e-09
 27.48072   -188.5 1.396e+04 2.820e-09
 27.50031   -189.5 1.357e+04 2.426e-09
 27.51042   -189.5 1.386e+04 2.914e-09
 27.52115   -190.1 1.383e+04 2.639e-09
 27.53354   -190.9 1.404e+04 2.471e-09
 27.54364   -189.4 1.359e+04 2.269e-09
 27.56159   -190.9 1.373e+04 2.252e-09
 27.58180   -193.4 1.455e+04 2.250e-09
 27.59312   -196.5 1.569e+04 2.814e-09
 27.60323   -195.5 1.563e+04 3.108e-09
 27.62224   -198.2 1.633e+04 4.338e-09
 27.64245   -200.1 1.673e+04 6.157e-09
 27.66267   -201.3 1.688e+04 7.727e-09
 27.67582   -202.3 1.686e+04 8.231e-09
 27.68593   -201.9 1.638e+04 6.764e-09
 27.69916   -202.7 1.630e+04 6.785e-09
 27.70927   -201.4 1.573e+04 5.530e-09
 27.72332   -201.7 1.513e+04 5.247e-09
 27.74354   -201.8 1.459e+04 4.150e-09
 27.75852   -201.9 1.407e+04 3.142e-09
 27.76862   -201.7 1.390e+04 2.598e-09
 27.78397   -201.8 1.343e+04 2.086e-09
 27.80419   -201.8 1.303e+04 1.731e-09
 27.82440   -201.7 1.273e+04 1.491e-09
 27.84122   -201.4 1.250e+04 1.332e-09
 27.85132   -201.2 1.216e+04 1.147e-09
 27.86479   -200.4 1.200e+04 1.072e-09
 27.88501   -198.5 1.195e+04 1.041e-09
 27.90527   -197.7 1.195e+04 1.018e-09
 27.92391   -196.8 1.197e+04 9.853e-10
 27.93402   -196.4 1.169e+04 8.712e-10
 27.94570   -195.7 1.174e+04 8.226e-10
 27.96592   -195.2 1.168e+04 7.337e-10
 27.99634   -194.8 1.139e+04 6.223e-10
 28.03061   -192.9 1.110e+04 5.526e-10
 28.05083   -191.3 1.145e+04 6.457e-10
 28.07731   -189.2 1.118e+04 5.842e-10
 28.09961   -187.1 1.095e+04 5.243e-10
 28.11983   -186.3 1.069e+04 4.198e-10
 28.15817   -184.1 1.054e+04 3.741e-10
 28.19861   -181.8 1.040e+04 3.155e-10
 28.23904   -179.5 1.024e+04 2.508e-10
 28.26501   -177.2 1.005e+04 1.922e-10
 28.28523   -176.6 9.904e+03 1.395e-10
 28.31991   -174.4 9.815e+03 1.155e-10
 28.36034   -172.1 9.759e+03 1.008e-10
 28.38208   -169.9 9.720e+03 9.370e-11
 28.40230   -168.6 9.867e+03 1.181e-10
 28.43041   -166.5 9.838e+03 1.107e-10
 28.45063   -166.0 9.696e+03 1.001e-10
 28.48164   -163.9 9.664e+03 9.996e-11
 28.52207   -161.7 9.648e+03 1.000e-10
 28.56251   -159.6 9.606e+03 1.010e-10
 28.59581   -157.5 9.581e+03 1.031e-10
 28.61602   -156.9 9.514e+03 8.988e-11
 28.64338   -154.9 9.531e+03 8.771e-11
 28.68381   -153.1 9.542e+03 8.713e-11
 28.71333   -151.5 9.593e+03 9.237e-11
 28.73355   -150.4 9.704e+03 1.099e-10
 28.76120   -149.0 9.750e+03 1.249e-10
 28.78142   -148.5 9.692e+03 9.719e-11
 28.80511   -147.1 9.725e+03 1.219e-10
 28.84554   -145.8 9.786e+03 1.533e-10
 28.88598   -144.3 9.857e+03 1.816e-10
 28.92641   -143.0 9.892e+03 1.968e-10
 28.96684   -140.9 9.891e+03 1.874e-10
 29.00728   -139.4 9.856e+03 1.849e-10
 29.04459   -138.0 9.775e+03 1.752e-10
 29.06481   -137.2 9.684e+03 1.601e-10
 29.08814   -135.6 9.575e+03 1.462e-10
 29.11222   -134.2 9.488e+03 1.394e-10
 29.13243   -133.7 9.621e+03 1.395e-10
 29.16901   -132.3 9.613e+03 1.394e-10
 29.20944   -131.1 9.576e+03 1.519e-10
 29.24988   -129.8 9.592e+03 1.766e-10
 29.27761   -128.6 9.622e+03 2.025e-10
 29.29783   -128.2 9.728e+03 2.223e-10
 29.33074   -127.0 9.709e+03 2.283e-10
 29.37118   -125.7 9.621e+03 2.126e-10
 29.39606   -124.6 9.512e+03 1.780e-10
 29.41628   -123.6 9.606e+03 1.985e-10
 29.44301   -122.7 9.617e+03 1.742e-10
 29.46323   -122.4 9.521e+03 1.197e-10
 29.49248   -122.1 9.544e+03 1.115e-10
 29.53291   -122.0 9.556e+03 1.105e-10
 29.57334   -123.7 9.744e+03 1.400e-10
 29.60841   -127.1 1.137e+04 4.579e-10
 29.62862   -126.0 1.063e+04 2.705e-10
 29.65421   -129.9 1.269e+04 9.260e-10
 29.68444   -132.9 1.380e+04 2.117e-09
 29.70102   -134.7 1.444e+04 2.969e-09
 29.71113   -134.7 1.431e+04 2.547e-09
 29.72477   -136.9 1.470e+04 3.185e-09
 29.73723   -139.4 1.476e+04 3.332e-09
 29.74733   -139.5 1.460e+04 3.141e-09
 29.76521   -142.1 1.427e+04 2.874e-09
 29.78372   -145.3 1.364e+04 1.974e-09
 29.79383   -146.2 1.397e+04 2.173e-09
 29.80564   -150.6 1.322e+04 1.430e-09
 29.82586   -155.2 1.253e+04 1.006e-09
 29.84607   -158.9 1.209e+04 8.175e-10
 29.86629   -161.5 1.186e+04 7.340e-10
 29.87653   -163.4 1.173e+04 6.872e-10
 29.88663   -165.2 1.219e+04 8.728e-10
 29.90285   -166.5 1.192e+04 7.825e-10
 29.91296   -167.0 1.210e+04 8.421e-10
 29.92694   -167.8 1.180e+04 7.579e-10
 29.94716   -168.2 1.156e+04 6.896e-10
 29.95922   -168.5 1.138e+04 6.350e-10
 29.96933   -170.5 1.146e+04 6.947e-10
 29.98759   -170.9 1.126e+04 6.199e-10
 30.01801   -171.6 1.109e+04 5.611e-10
 30.05854   -171.2 1.082e+04 5.188e-10
 30.09898   -170.5 1.072e+04 4.713e-10
 30.12482   -169.5 1.080e+04 4.937e-10
 30.14503   -171.8 1.067e+04 4.219e-10
 30.17984   -170.5 1.089e+04 4.750e-10
 30.20742   -168.8 1.116e+04 5.995e-10
 30.21743   -169.2 1.103e+04 5.326e-10
 30.23019   -168.8 1.105e+04 5.469e-10
 30.24421   -167.9 1.110e+04 5.726e-10
 30.25432   -167.9 1.115e+04 5.401e-10
 30.27062   -166.9 1.129e+04 5.885e-10
 30.29002   -166.0 1.139e+04 6.401e-10
 30.30013   -167.9 1.219e+04 6.379e-10
 30.31106   -167.2 1.262e+04 7.265e-10
 30.33127   -166.5 1.302e+04 8.660e-10
 30.35149   -165.7 1.337e+04 1.076e-09
 30.37171   -164.9 1.368e+04 1.370e-09
 30.38283   -163.9 1.399e+04 1.768e-09
 30.39293   -165.3 1.431e+04 2.676e-09
 30.40984   -164.0 1.480e+04 3.432e-09
 30.41995   -163.6 1.466e+04 3.304e-09
 30.43236   -162.4 1.532e+04 4.237e-09
 30.45257   -161.6 1.626e+04 5.544e-09
 30.46552   -161.0 1.737e+04 7.331e-09
 30.47563   -164.0 1.786e+04 7.642e-09
 30.49301   -164.2 1.890e+04 9.720e-09
 30.51323   -164.6 1.966e+04 1.141e-08
 30.53344   -165.2 1.985e+04 1.180e-08
 30.54822   -166.0 1.958e+04 1.098e-08
 30.55833   -171.2 1.676e+04 4.947e-09
 30.57388   -172.4 1.559e+04 3.451e-09
 30.58558   -174.2 1.451e+04 2.205e-09
 30.59568   -173.3 1.417e+04 2.071e-09
 30.61431   -175.3 1.329e+04 1.410e-09
 30.63092   -177.3 1.253e+04 1.048e-09
 30.64103   -180.1 1.186e+04 8.664e-10
 30.65474   -181.4 1.168e+04 8.049e-10
 30.67496   -183.0 1.166e+04 7.967e-10
 30.69518   -185.1 1.190e+04 8.152e-10
 30.71362   -187.7 1.258e+04 1.001e-09
 30.72373   -188.5 1.228e+04 9.518e-10
 30.73561   -190.4 1.272e+04 1.202e-09
 30.75120   -191.9 1.300e+04 1.517e-09
 30.76131   -189.9 1.285e+04 1.356e-09
 30.77604   -191.1 1.307e+04 1.695e-09
 30.79626   -191.7 1.312e+04 1.924e-09
 30.81648   -192.0 1.251e+04 1.564e-09
 30.83669   -191.9 1.233e+04 1.564e-09
 30.85691   -191.6 1.203e+04 1.420e-09
 30.87713   -191.1 1.168e+04 1.182e-09
 30.88913   -190.5 1.130e+04 9.309e-10
 30.89923   -190.3 1.098e+04 7.892e-10
 30.91683   -189.4 1.062e+04 6.039e-10
 30.92694   -188.6 1.086e+04 7.264e-10
 30.93778   -187.7 1.051e+04 5.478e-10
 30.95799   -186.7 1.020e+04 4.180e-10
 30.97182   -185.7 1.001e+04 3.490e-10
 30.99214   -185.9 9.922e+03 3.206e-10
 31.02895   -184.1 9.656e+03 2.746e-10
 31.06938   -181.8 9.359e+03 2.411e-10
 31.09276   -179.1 9.215e+03 2.253e-10
 31.11298   -178.3 9.161e+03 2.173e-10
 31.13742   -175.7 9.094e+03 2.114e-10
 31.15763   -175.3 9.019e+03 1.971e-10
 31.19068   -172.7 9.014e+03 1.959e-10
 31.23111   -170.1 9.046e+03 1.990e-10
 31.27155   -167.7 9.146e+03 2.131e-10
 31.30281   -165.4 9.272e+03 2.354e-10
 31.32303   -164.6 9.340e+03 2.352e-10
 31.35241   -162.3 9.621e+03 2.840e-10
 31.39285   -159.9 9.953e+03 3.599e-10
 31.42401   -157.7 1.028e+04 4.573e-10
 31.44423   -157.3 1.000e+04 3.748e-10
 31.46821   -155.4 1.035e+04 4.677e-10
 31.48833   -154.0 1.104e+04 7.184e-10
 31.51405   -152.7 1.145e+04 8.953e-10
 31.55458   -150.8 1.176e+04 1.041e-09
 31.59501   -149.2 1.188e+04 1.088e-09
 31.63361   -147.6 1.178e+04 9.990e-10
 31.65383   -147.4 1.310e+04 1.972e-09
 31.67588   -145.5 1.278e+04 1.613e-09
 31.71631   -143.4 1.215e+04 1.161e-09
 31.75527   -141.4 1.162e+04 8.887e-10
 31.77548   -143.2 1.123e+04 7.860e-10
 31.79718   -141.3 1.084e+04 6.276e-10
 31.81922   -139.4 1.056e+04 5.324e-10
 31.83944   -138.9 1.098e+04 6.679e-10
 31.87805   -137.3 1.093e+04 6.087e-10
 31.91848   -136.1 1.099e+04 6.003e-10
 31.95891   -136.0 1.159e+04 6.929e-10
 31.98452   -138.3 1.192e+04 8.767e-10
 31.99453   -139.5 1.216e+04 9.958e-10
 32.00926   -140.4 1.242e+04 1.182e-09
 32.02948   -143.4 1.384e+04 1.887e-09
 32.04969   -147.8 1.782e+04 4.103e-09
 32.06712   -151.1 2.051e+04 9.417e-09
 32.07723   -155.7 2.172e+04 1.142e-08
 32.08503   -156.2 2.214e+04 1.641e-08
 32.09508   -156.8 2.242e+04 2.015e-08
 32.10519   -157.5 2.279e+04 2.766e-08
 32.11150   -158.3 2.299e+04 3.426e-08
 32.11468   -158.4 2.294e+04 3.407e-08
 32.11848   -160.0 2.277e+04 3.461e-08
 32.12541   -160.4 2.285e+04 4.241e-08
 32.13552   -160.9 2.288e+04 4.602e-08
 32.14563   -161.6 2.282e+04 4.636e-08
 32.15478   -161.9 2.251e+04 4.150e-08
 32.15983   -162.5 2.173e+04 3.319e-08
 32.16584   -162.7 2.161e+04 2.715e-08
 32.17595   -163.2 2.154e+04 2.246e-08
 32.18606   -163.8 2.136e+04 1.979e-08
 32.19431   -164.5 2.101e+04 1.839e-08
 32.19933   -164.0 2.133e+04 1.908e-08
 32.20624   -165.3 2.012e+04 1.336e-08
 32.21638   -165.3 1.992e+04 1.333e-08
 32.22649   -165.1 1.990e+04 1.334e-08
 32.23660   -165.3 2.019e+04 1.404e-08
 32.24253   -166.1 2.069e+04 1.708e-08
 32.24759   -165.8 2.028e+04 9.971e-09
 32.25682   -166.7 2.088e+04 1.404e-08
 32.26693   -167.8 2.112e+04 2.181e-08
 32.27703   -168.3 2.118e+04 3.482e-08
 32.28218   -168.4 2.118e+04 5.328e-08
 32.28397   -168.6 2.114e+04 5.258e-08
 32.28894   -168.6 2.165e+04 2.373e-08
 32.29725   -168.7 2.144e+04 3.457e-08
 32.30736   -168.8 2.109e+04 4.469e-08
 32.31747   -168.9 2.071e+04 5.092e-08
 32.32523   -169.0 2.049e+04 5.303e-08
 32.33028   -169.0 2.042e+04 2.170e-08
 32.33769   -168.3 1.988e+04 2.419e-08
 32.34779   -167.4 1.950e+04 2.598e-08
 32.35790   -166.5 1.937e+04 2.706e-08
 32.36499   -165.6 1.948e+04 2.757e-08
 32.36862   -165.9 1.942e+04 2.556e-08
 32.37163   -166.0 1.888e+04 1.305e-08
 32.37812   -165.2 1.878e+04 1.446e-08
 32.38823   -164.3 1.871e+04 1.521e-08
 32.39834   -163.3 1.869e+04 1.545e-08
 32.40793   -162.3 1.870e+04 1.522e-08
 32.41298   -162.2 1.777e+04 9.959e-09
 32.41855   -161.2 1.778e+04 1.057e-08
 32.42866   -160.3 1.786e+04 1.107e-08
 32.43877   -159.4 1.806e+04 1.129e-08
 32.44781   -158.4 1.842e+04 1.125e-08
 32.45286   -158.8 1.827e+04 1.057e-08
 32.45433   -158.0 1.874e+04 1.028e-08
 32.45939   -157.8 1.774e+04 9.435e-09
 32.46909   -157.0 1.802e+04 9.627e-09
 32.47920   -156.2 1.856e+04 9.039e-09
 32.48931   -155.5 1.879e+04 8.340e-09
 32.49568   -155.0 1.886e+04 7.577e-09
 32.50074   -154.3 1.804e+04 8.429e-09
 32.50953   -153.7 1.826e+04 7.717e-09
 32.51964   -153.2 1.844e+04 6.858e-09
 32.52974   -152.8 1.854e+04 6.078e-09
 32.53567   -152.6 1.855e+04 5.494e-09
 32.53791   -153.3 1.813e+04 5.175e-09
 32.54209   -152.6 1.799e+04 5.897e-09
 32.54996   -152.6 1.805e+04 5.228e-09
 32.56007   -152.7 1.803e+04 4.766e-09
 32.57018   -153.1 1.774e+04 4.514e-09
 32.57838   -153.3 1.756e+04 4.482e-09
 32.58343   -152.8 1.745e+04 4.574e-09
 32.59039   -153.3 1.734e+04 4.486e-09
 32.60050   -154.0 1.712e+04 4.483e-09
 32.61061   -154.9 1.676e+04 4.521e-09
 32.61849   -155.8 1.642e+04 4.589e-09
 32.62255   -156.4 1.652e+04 4.439e-09
 32.62478   -156.0 1.687e+04 4.565e-09
 32.63083   -157.3 1.636e+04 4.562e-09
 32.64094   -158.3 1.603e+04 4.763e-09
 32.65104   -159.4 1.593e+04 4.838e-09
 32.66108   -160.7 1.583e+04 4.908e-09
 32.66613   -160.6 1.583e+04 4.859e-09
 32.67126   -162.1 1.568e+04 4.804e-09
 32.68137   -163.6 1.563e+04 4.604e-09
 32.69148   -165.1 1.568e+04 4.310e-09
 32.70130   -166.5 1.587e+04 4.030e-09
 32.70636   -165.9 1.580e+04 4.328e-09
 32.70748   -167.3 1.600e+04 4.073e-09
 32.71254   -166.5 1.598e+04 4.025e-09
 32.72180   -167.9 1.638e+04 3.763e-09
 32.73701   -171.4 1.655e+04 3.291e-09
 32.74893   -174.2 1.602e+04 3.102e-09
 32.75904   -172.6 1.560e+04 2.571e-09
 32.77750   -175.6 1.475e+04 2.329e-09
 32.78927   -178.0 1.399e+04 2.244e-09
 32.79937   -175.5 1.400e+04 2.053e-09
 32.81793   -177.6 1.339e+04 1.940e-09
 32.83163   -179.2 1.308e+04 1.896e-09
 32.84174   -178.4 1.309e+04 1.870e-09
 32.85836   -180.2 1.291e+04 1.894e-09
 32.87858   -182.7 1.361e+04 1.959e-09
 32.89880   -185.8 1.496e+04 2.151e-09
 32.91433   -188.6 1.663e+04 2.582e-09
 32.92444   -187.8 1.620e+04 2.603e-09
 32.93923   -189.8 1.708e+04 3.270e-09
 32.95434   -189.9 1.735e+04 3.381e-09
 32.95985   -190.5 1.800e+04 4.221e-09
 32.96495   -188.3 1.701e+04 2.892e-09
 32.97966   -189.7 1.814e+04 4.405e-09
 32.99478   -190.6 1.908e+04 7.194e-09
 33.00198   -191.1 1.934e+04 9.964e-09
 33.00704   -191.4 2.007e+04 1.009e-08
 33.01494   -191.7 2.030e+04 1.353e-08
 33.02505   -192.0 2.066e+04 1.604e-08
 33.03516   -192.3 2.082e+04 1.868e-08
 33.04266   -192.7 2.093e+04 1.996e-08
 33.04578   -191.7 2.129e+04 2.610e-08
 33.04839   -192.9 2.165e+04 3.687e-08
 33.05538   -192.9 2.165e+04 4.770e-08
 33.06549   -192.6 2.182e+04 5.344e-08
 33.07559   -192.4 2.200e+04 5.385e-08
 33.08468   -192.4 2.267e+04 4.007e-08
 33.08974   -193.3 2.308e+04 7.012e-08
 33.09581   -194.6 2.414e+04 3.930e-08
 33.10592   -196.6 2.527e+04 1.801e-08
 33.11603   -199.8 2.517e+04 9.117e-09
 33.12548   -204.5 2.274e+04 6.015e-09
 33.13042   -203.6 2.692e+04 8.063e-09
 33.13108   -205.7 2.939e+04 1.448e-08
 33.13624   -209.7 2.730e+04 1.177e-08
 33.14635   -212.4 2.551e+04 1.185e-08
 33.15646   -214.2 2.405e+04 1.261e-08
 33.16657   -215.6 2.305e+04 1.356e-08
 33.17243   -216.5 2.224e+04 1.506e-08
 33.17749   -217.2 2.274e+04 2.066e-08
 33.18679   -217.7 2.221e+04 2.145e-08
 33.19690   -218.1 2.180e+04 2.188e-08
 33.20700   -218.4 2.155e+04 2.203e-08
 33.21334   -218.5 2.134e+04 2.147e-08
 33.21507   -219.3 2.159e+04 2.408e-08
 33.21884   -219.5 2.164e+04 2.474e-08
 33.22722   -219.2 2.117e+04 2.231e-08
 33.24243   -218.6 2.054e+04 1.926e-08
 33.25523   -217.4 1.987e+04 1.662e-08
 33.26534   -218.0 1.972e+04 1.477e-08
 33.28291   -217.1 1.883e+04 1.160e-08
 33.29626   -216.3 1.799e+04 9.205e-09
 33.30636   -217.2 1.712e+04 5.982e-09
 33.32335   -216.4 1.630e+04 4.769e-09
 33.33793   -215.6 1.562e+04 4.077e-09
 33.34804   -217.3 1.481e+04 3.123e-09
 33.36378   -216.3 1.461e+04 3.017e-09
 33.38400   -215.5 1.457e+04 3.004e-09
 33.40421   -215.0 1.466e+04 3.195e-09
 33.42063   -215.0 1.504e+04 3.763e-09
 33.43074   -216.4 1.539e+04 3.925e-09
 33.44465   -216.3 1.605e+04 4.926e-09
 33.46188   -216.2 1.681e+04 6.131e-09
 33.47199   -216.6 1.697e+04 6.816e-09
 33.48508   -216.4 1.775e+04 8.671e-09
 33.50333   -217.1 1.837e+04 1.004e-08
 33.51343   -217.6 1.855e+04 1.153e-08
 33.52551   -218.7 1.859e+04 1.157e-08
 33.54573   -219.4 1.837e+04 1.031e-08
 33.56595   -219.8 1.782e+04 8.340e-09
 33.58602   -220.1 1.712e+04 6.714e-09
 33.59613   -219.2 1.709e+04 6.677e-09
 33.60638   -219.2 1.646e+04 5.551e-09
 33.62660   -218.9 1.582e+04 4.770e-09
 33.63762   -218.4 1.523e+04 4.160e-09
 33.64773   -217.2 1.541e+04 3.695e-09
 33.66703   -216.6 1.475e+04 2.994e-09
 33.67883   -215.5 1.409e+04 2.443e-09
 33.68894   -214.5 1.422e+04 2.274e-09
 33.70746   -213.4 1.358e+04 1.845e-09
 33.72768   -212.1 1.302e+04 1.543e-09
 33.74790   -210.6 1.256e+04 1.333e-09
 33.76153   -209.1 1.224e+04 1.183e-09
 33.77164   -208.5 1.229e+04 1.121e-09
 33.78833   -207.0 1.201e+04 1.031e-09
 33.80324   -205.4 1.186e+04 9.662e-10
 33.81335   -205.4 1.169e+04 7.887e-10
 33.82876   -203.8 1.149e+04 7.258e-10
 33.84423   -202.1 1.141e+04 6.868e-10
 33.85434   -201.5 1.154e+04 7.354e-10
 33.86920   -199.9 1.143e+04 7.074e-10
 33.88941   -198.2 1.140e+04 6.989e-10
 33.90963   -196.5 1.145e+04 7.102e-10
 33.92693   -194.9 1.157e+04 7.412e-10
 33.93704   -194.4 1.166e+04 8.224e-10
 33.95006   -192.8 1.183e+04 8.984e-10
 33.96887   -191.3 1.206e+04 1.011e-09
 33.97898   -191.1 1.169e+04 7.540e-10
 33.99050   -189.4 1.189e+04 8.472e-10
 34.00963   -187.6 1.220e+04 9.947e-10
 34.01974   -187.7 1.242e+04 1.097e-09
 34.03093   -186.3 1.290e+04 1.412e-09
 34.05115   -185.1 1.355e+04 1.910e-09
 34.07137   -184.2 1.442e+04 2.721e-09
 34.09158   -183.8 1.563e+04 4.101e-09
 34.10243   -183.9 1.716e+04 6.607e-09
 34.11254   -184.7 1.733e+04 8.501e-09
 34.13202   -184.6 1.869e+04 1.308e-08
 34.14461   -184.3 1.952e+04 1.848e-08
 34.15471   -185.2 1.864e+04 1.379e-08
 34.16735   -184.5 1.873e+04 1.355e-08
 34.17741   -184.4 1.872e+04 1.296e-08
 34.18503   -184.4 1.880e+04 1.151e-08
 34.19519   -186.1 1.744e+04 6.941e-09
 34.20778   -186.2 1.728e+04 5.543e-09
 34.21784   -187.9 1.658e+04 4.118e-09
 34.23305   -190.3 1.547e+04 2.858e-09
 34.25332   -192.1 1.483e+04 2.195e-09
 34.26783   -193.9 1.406e+04 1.640e-09
 34.27794   -193.6 1.291e+04 1.022e-09
 34.29375   -194.4 1.278e+04 9.691e-10
 34.31023   -194.8 1.281e+04 9.813e-10
 34.32034   -193.5 1.231e+04 7.396e-10
 34.33418   -193.4 1.238e+04 7.512e-10
 34.35053   -193.3 1.268e+04 8.656e-10
 34.36064   -192.0 1.237e+04 6.855e-10
 34.37462   -191.8 1.282e+04 8.888e-10
 34.39483   -191.5 1.336e+04 1.240e-09
 34.41505   -191.2 1.391e+04 1.760e-09
 34.43323   -190.5 1.443e+04 2.439e-09
 34.44334   -189.4 1.404e+04 1.916e-09
 34.45548   -188.9 1.449e+04 2.625e-09
 34.47570   -188.3 1.483e+04 3.369e-09
 34.48597   -187.7 1.506e+04 3.972e-09
 34.49608   -187.0 1.443e+04 2.366e-09
 34.51593   -186.5 1.464e+04 2.906e-09
 34.52604   -185.7 1.451e+04 2.835e-09
 34.53635   -185.0 1.468e+04 3.337e-09
 34.55657   -184.2 1.473e+04 3.580e-09
 34.57678   -183.3 1.471e+04 3.553e-09
 34.59700   -182.3 1.457e+04 3.237e-09
 34.60873   -181.3 1.434e+04 2.925e-09
 34.61884   -180.7 1.446e+04 3.273e-09
 34.63743   -179.7 1.428e+04 2.810e-09
 34.65159   -178.6 1.409e+04 2.278e-09
 34.66170   -178.3 1.403e+04 2.732e-09
 34.67787   -177.1 1.386e+04 2.343e-09
 34.69143   -176.0 1.369e+04 1.903e-09
 34.70154   -175.6 1.373e+04 2.149e-09
 34.71830   -174.4 1.356e+04 1.711e-09
 34.73852   -173.3 1.343e+04 1.311e-09
 34.75873   -172.2 1.332e+04 9.781e-10
 34.77413   -171.2 1.323e+04 7.178e-10
 34.78424   -170.9 1.319e+04 8.637e-10
 34.79917   -169.9 1.311e+04 6.381e-10
 34.81722   -169.0 1.301e+04 4.803e-10
 34.82733   -168.5 1.307e+04 7.505e-10
 34.83960   -167.7 1.300e+04 5.647e-10
 34.85683   -166.8 1.288e+04 4.381e-10
 34.86694   -166.6 1.283e+04 5.460e-10
 34.88003   -165.8 1.270e+04 4.385e-10
 34.90025   -165.0 1.244e+04 3.852e-10
 34.92047   -164.1 1.227e+04 3.805e-10
 34.95089   -163.0 1.222e+04 4.273e-10
 34.99142   -160.7 1.200e+04 4.106e-10
 35.02242   -158.3 1.189e+04 4.108e-10
 35.04264   -158.0 1.195e+04 4.831e-10
 35.07229   -155.7 1.189e+04 4.753e-10
 35.11272   -153.6 1.183e+04 5.086e-10
 35.14867   -151.5 1.189e+04 5.744e-10
 35.16889   -152.0 1.198e+04 6.424e-10
 35.18782   -150.1 1.208e+04 7.340e-10
 35.20804   -149.6 1.196e+04 6.718e-10
 35.23402   -147.8 1.205e+04 7.419e-10
 35.27445   -146.0 1.209e+04 7.868e-10
 35.31489   -144.3 1.208e+04 7.969e-10
 35.35322   -142.5 1.186e+04 7.354e-10
 35.37343   -142.1 1.205e+04 7.884e-10
 35.39575   -140.2 1.194e+04 7.496e-10
 35.43619   -138.4 1.177e+04 6.305e-10
 35.47662   -136.7 1.162e+04 4.801e-10
 35.50014   -135.0 1.151e+04 3.524e-10
 35.52036   -135.8 1.183e+04 4.724e-10
 35.53883   -134.2 1.171e+04 3.800e-10
 35.55905   -134.5 1.209e+04 6.933e-10
 35.59792   -132.9 1.192e+04 5.956e-10
 35.63836   -131.4 1.185e+04 5.639e-10
 35.67879   -130.0 1.182e+04 5.665e-10
 35.70423   -128.6 1.182e+04 5.967e-10
 35.72445   -129.2 1.187e+04 7.156e-10
 35.75966   -128.0 1.175e+04 6.706e-10
 35.80009   -126.8 1.165e+04 6.140e-10
 35.83139   -125.7 1.158e+04 5.582e-10
 35.85161   -125.8 1.142e+04 5.152e-10
 35.86963   -124.8 1.144e+04 5.115e-10
 35.88984   -125.3 1.141e+04 5.030e-10
 35.92139   -124.6 1.165e+04 5.169e-10
 35.95162   -123.6 1.190e+04 5.514e-10
 35.96224   -123.5 1.197e+04 5.902e-10
 35.97235   -123.8 1.199e+04 6.015e-10
 35.99195   -123.5 1.217e+04 6.903e-10
 36.00693   -123.2 1.227e+04 7.728e-10
 36.01704   -123.4 1.211e+04 7.119e-10
 36.03239   -122.9 1.225e+04 8.045e-10
 36.04494   -122.5 1.236e+04 8.826e-10
 36.05504   -122.8 1.234e+04 8.770e-10
 36.07282   -122.4 1.238e+04 9.145e-10
 36.09304   -121.9 1.240e+04 9.354e-10
 36.11325   -121.3 1.247e+04 9.640e-10
 36.12764   -120.8 1.259e+04 1.003e-09
 36.13774   -120.9 1.254e+04 9.584e-10
 36.15369   -120.5 1.272e+04 1.009e-09
 36.17256   -120.2 1.295e+04 1.096e-09
 36.18267   -120.5 1.290e+04 1.045e-09
 36.19412   -120.2 1.323e+04 1.201e-09
 36.21033   -120.1 1.356e+04 1.400e-09
 36.22044   -120.4 1.355e+04 1.379e-09
 36.23455   -120.5 1.388e+04 1.646e-09
 36.25477   -120.7 1.426e+04 2.022e-09
 36.27499   -121.1 1.473e+04 2.552e-09
 36.29303   -121.6 1.523e+04 3.269e-09
 36.30314   -121.9 1.526e+04 3.270e-09
 36.31542   -122.5 1.567e+04 4.029e-09
 36.33564   -123.0 1.599e+04 4.711e-09
 36.34830   -123.6 1.621e+04 5.112e-09
 36.35840   -123.7 1.624e+04 5.487e-09
 36.37573   -124.1 1.634e+04 5.778e-09
 36.38584   -124.4 1.635e+04 5.754e-09
 36.39629   -124.9 1.636e+04 5.810e-09
 36.41650   -125.4 1.626e+04 5.535e-09
 36.43672   -125.9 1.603e+04 4.830e-09
 36.45694   -126.4 1.573e+04 4.057e-09
 36.46854   -127.1 1.541e+04 3.397e-09
 36.47865   -127.3 1.538e+04 3.394e-09
 36.49737   -127.9 1.508e+04 2.972e-09
 36.51392   -128.4 1.481e+04 2.738e-09
 36.52403   -127.3 1.513e+04 3.223e-09
 36.53780   -127.7 1.507e+04 3.080e-09
 36.55124   -128.1 1.499e+04 2.971e-09
 36.56135   -128.4 1.479e+04 2.763e-09
 36.57824   -128.8 1.456e+04 2.637e-09
 36.59845   -129.3 1.426e+04 2.558e-09
 36.61867   -129.7 1.405e+04 2.539e-09
 36.63394   -130.0 1.399e+04 2.518e-09
 36.64404   -130.3 1.393e+04 2.494e-09
 36.65910   -130.5 1.402e+04 2.669e-09
 36.67932   -130.8 1.430e+04 3.000e-09
 36.68966   -131.3 1.475e+04 3.515e-09
 36.69977   -131.9 1.440e+04 2.718e-09
 36.71663   -132.9 1.496e+04 3.421e-09
 36.72674   -133.0 1.491e+04 3.337e-09
 36.73997   -134.0 1.549e+04 4.368e-09
 36.76019   -134.8 1.604e+04 5.610e-09
 36.78040   -135.6 1.649e+04 6.650e-09
 36.79933   -136.6 1.668e+04 6.982e-09
 36.80944   -136.6 1.649e+04 6.667e-09
 36.82084   -137.5 1.654e+04 6.685e-09
 36.84105   -138.6 1.654e+04 6.326e-09
 36.85528   -139.9 1.657e+04 5.770e-09
 36.86539   -139.8 1.482e+04 3.146e-09
 36.88149   -141.3 1.493e+04 3.196e-09
 36.89214   -142.9 1.533e+04 3.547e-09
 36.90225   -142.5 1.561e+04 3.910e-09
 36.92192   -144.0 1.603e+04 4.506e-09
 36.94214   -145.8 1.629e+04 5.165e-09
 36.96235   -147.8 1.647e+04 5.564e-09
 36.97484   -150.7 1.682e+04 5.500e-09
 36.98495   -151.2 1.801e+04 6.389e-09
 37.00279   -156.3 1.893e+04 6.114e-09
 37.02091   -162.3 1.922e+04 5.790e-09
 37.03097   -165.5 2.072e+04 1.532e-08
 37.04317   -167.6 2.009e+04 1.504e-08
 37.05754   -169.9 1.862e+04 8.727e-09
 37.06765   -171.1 1.851e+04 8.163e-09
 37.08365   -174.2 1.598e+04 3.314e-09
 37.10387   -176.7 1.337e+04 1.566e-09
 37.12409   -177.7 1.208e+04 1.013e-09
 37.14024   -178.0 1.156e+04 8.044e-10
 37.15034   -178.7 1.150e+04 7.825e-10
 37.17473   -178.3 1.092e+04 6.392e-10
 37.19684   -177.4 1.010e+04 4.611e-10
 37.20685   -178.5 1.072e+04 5.365e-10
 37.22293   -178.1 1.054e+04 4.884e-10
 37.23314   -179.2 1.074e+04 5.336e-10
 37.25569   -177.7 1.018e+04 4.238e-10
 37.29612   -175.8 1.003e+04 3.882e-10
 37.33656   -174.1 9.993e+03 3.786e-10
 37.37699   -172.5 9.992e+03 3.780e-10
 37.39864   -171.0 1.001e+04 3.801e-10
 37.41885   -171.7 1.012e+04 4.325e-10
 37.45786   -170.5 1.019e+04 4.474e-10
 37.49829   -169.2 1.034e+04 5.007e-10
 37.52810   -167.9 1.056e+04 5.773e-10
 37.54831   -168.8 1.034e+04 4.792e-10
 37.56403   -167.4 1.051e+04 5.029e-10
 37.58425   -167.8 1.049e+04 5.092e-10
 37.61959   -166.3 1.057e+04 5.090e-10
 37.66003   -164.9 1.062e+04 4.868e-10
 37.70046   -163.1 1.065e+04 4.428e-10
 37.72943   -161.9 1.074e+04 4.064e-10
 37.74965   -162.1 1.047e+04 3.438e-10
 37.78133   -160.3 1.021e+04 2.807e-10
 37.82176   -157.9 9.996e+03 2.308e-10
 37.85935   -155.6 1.002e+04 2.037e-10
 37.87957   -155.6 9.919e+03 1.695e-10
 37.89483   -153.3 9.959e+03 1.559e-10
 37.91504   -153.0 9.814e+03 1.366e-10
 37.94306   -150.7 9.856e+03 1.322e-10
 37.98349   -148.5 9.971e+03 1.305e-10
 38.02393   -146.3 1.012e+04 1.423e-10
 38.06022   -144.2 1.021e+04 1.709e-10
 38.08044   -143.9 1.012e+04 1.576e-10
 38.10479   -141.8 1.023e+04 1.996e-10
 38.14523   -139.7 1.038e+04 2.549e-10
 38.18566   -137.6 1.056e+04 3.194e-10
 38.21082   -135.7 1.077e+04 3.855e-10
 38.23057   -135.6 1.053e+04 2.938e-10
 38.24584   -135.3 1.044e+04 2.750e-10
 38.26653   -133.4 1.065e+04 3.464e-10
 38.30696   -131.6 1.086e+04 4.172e-10
 38.34739   -130.0 1.107e+04 4.700e-10
 38.38783   -128.4 1.122e+04 4.904e-10
 38.41124   -126.8 1.128e+04 4.964e-10
 38.43145   -126.4 1.107e+04 4.546e-10
 38.46869   -124.6 1.115e+04 4.644e-10
 38.50913   -122.9 1.132e+04 4.641e-10
 38.54207   -121.6 1.149e+04 4.911e-10
 38.56229   -121.0 1.144e+04 4.969e-10
 38.57663   -120.1 1.180e+04 6.536e-10
 38.59685   -119.6 1.181e+04 6.754e-10
 38.63043   -119.0 1.231e+04 9.840e-10
 38.67086   -118.8 1.282e+04 1.268e-09
 38.71129   -119.6 1.303e+04 1.350e-09
 38.74203   -120.8 1.297e+04 1.220e-09
 38.76225   -120.1 1.304e+04 1.278e-09
 38.79216   -120.8 1.271e+04 9.565e-10
 38.82239   -120.8 1.242e+04 7.569e-10
 38.83464   -120.9 1.224e+04 6.371e-10
 38.84475   -120.5 1.232e+04 6.926e-10
 38.86272   -120.5 1.205e+04 5.613e-10
 38.88294   -120.4 1.197e+04 5.075e-10
 38.89345   -120.4 1.180e+04 4.207e-10
 38.90773   -120.4 1.175e+04 3.783e-10
 38.92765   -119.6 1.186e+04 4.152e-10
 38.95389   -119.1 1.163e+04 3.411e-10
 38.99433   -118.2 1.147e+04 2.889e-10
 39.03476   -117.2 1.144e+04 2.765e-10
 39.07283   -116.3 1.148e+04 2.820e-10
 39.09304   -115.7 1.141e+04 2.601e-10
 39.11563   -114.9 1.148e+04 3.043e-10
 39.15606   -114.0 1.151e+04 3.848e-10
 39.19650   -113.0 1.151e+04 4.437e-10
 39.22480   -112.0 1.151e+04 4.598e-10
 39.24501   -111.4 1.139e+04 3.707e-10
 39.25844   -110.2 1.133e+04 3.614e-10
 39.27866   -109.5 1.121e+04 3.174e-10
 39.31780   -108.1 1.113e+04 2.758e-10
 39.35823   -106.7 1.106e+04 2.169e-10
 39.39866   -105.3 1.097e+04 1.753e-10
 39.42384   -103.9 1.086e+04 1.551e-10
 39.44405   -103.3 1.096e+04 1.605e-10
 39.47953   -101.8 1.089e+04 1.560e-10
 39.51996   -100.2 1.088e+04 1.558e-10
 39.55605    -98.6 1.087e+04 1.602e-10
 39.57627    -97.9 1.085e+04 1.545e-10
 39.58923    -96.3 1.087e+04 1.680e-10
 39.60945    -96.1 1.101e+04 1.892e-10
 39.64126    -94.4 1.104e+04 2.140e-10
 39.68170    -92.7 1.107e+04 2.312e-10
 39.72213    -91.0 1.107e+04 2.366e-10
 39.75463    -89.2 1.101e+04 2.339e-10
 39.77485    -88.9 1.118e+04 2.791e-10
 39.80300    -86.9 1.110e+04 2.489e-10
 39.84343    -84.8 1.101e+04 2.163e-10
 39.88386    -82.6 1.095e+04 1.886e-10
 39.90752    -80.4 1.091e+04 1.664e-10
 39.92347    -79.8 1.097e+04 1.728e-10
 39.94025    -79.5 1.112e+04 2.119e-10
 39.96473    -77.4 1.114e+04 2.001e-10
 40.00516    -75.2 1.117e+04 1.979e-10
 40.04560    -73.2 1.120e+04 2.050e-10
 40.08543    -71.1 1.120e+04 2.202e-10
 40.10564    -70.9 1.140e+04 3.245e-10
 40.12646    -68.9 1.141e+04 3.378e-10
 40.16690    -67.0 1.140e+04 3.418e-10
 40.20733    -65.2 1.137e+04 3.428e-10
 40.23877    -63.3 1.135e+04 3.463e-10
 40.25899    -62.8 1.149e+04 4.103e-10
 40.27104    -60.9 1.145e+04 3.773e-10
 40.29126    -60.9 1.160e+04 4.232e-10
 40.32863    -59.1 1.153e+04 3.936e-10
 40.36906    -57.4 1.152e+04 3.848e-10
 40.40950    -56.3 1.172e+04 3.996e-10
 40.43644    -56.0 1.185e+04 5.041e-10
 40.45665    -56.1 1.187e+04 5.779e-10
 40.49036    -55.3 1.192e+04 7.420e-10
 40.53080    -54.1 1.208e+04 8.123e-10
 40.56103    -53.9 1.220e+04 7.206e-10
 40.57994    -53.8 1.222e+04 6.489e-10
 40.59005    -53.5 1.236e+04 7.454e-10
 40.60136    -54.5 1.219e+04 6.236e-10
 40.61175    -54.9 1.202e+04 5.857e-10
 40.62186    -54.8 1.201e+04 6.114e-10
 40.65200    -54.8 1.183e+04 5.654e-10
 40.69253    -53.7 1.152e+04 4.169e-10
 40.73296    -52.6 1.129e+04 2.873e-10
 40.76723    -51.7 1.118e+04 2.389e-10
 40.78745    -51.4 1.097e+04 1.876e-10
 40.81383    -50.1 1.088e+04 1.800e-10
 40.85427    -48.6 1.085e+04 1.844e-10
 40.89470    -47.1 1.090e+04 1.974e-10
 40.92150    -45.9 1.101e+04 2.137e-10
 40.93921    -46.6 1.113e+04 2.600e-10
 40.95285    -46.9 1.094e+04 2.476e-10
 40.97557    -46.3 1.098e+04 3.526e-10
 41.01600    -45.7 1.102e+04 5.102e-10
 41.05643    -44.9 1.124e+04 6.965e-10
 41.09687    -44.9 1.141e+04 7.793e-10
 41.11815    -45.1 1.153e+04 7.455e-10
 41.13836    -45.0 1.128e+04 6.406e-10
 41.16753    -45.1 1.115e+04 7.600e-10
 41.18765    -44.9 1.110e+04 7.683e-10
 41.20075    -44.5 1.107e+04 7.982e-10
 41.21086    -43.9 1.108e+04 7.865e-10
 41.22808    -43.8 1.119e+04 7.968e-10
 41.25265    -44.0 1.142e+04 7.711e-10
 41.27287    -44.3 1.116e+04 7.232e-10
 41.28354    -44.7 1.118e+04 7.256e-10
 41.30386    -44.1 1.123e+04 8.324e-10
 41.33947    -43.4 1.138e+04 9.372e-10
 41.37990    -42.4 1.154e+04 9.258e-10
 41.41013    -41.7 1.176e+04 9.757e-10
 41.42829    -41.6 1.184e+04 9.764e-10
 41.43840    -41.9 1.184e+04 9.900e-10
 41.44884    -42.0 1.210e+04 1.161e-09
 41.46916    -42.4 1.225e+04 1.320e-09
 41.49099    -42.2 1.241e+04 1.720e-09
 41.51111    -41.8 1.268e+04 1.849e-09
 41.53133    -41.4 1.261e+04 2.092e-09
 41.54165    -40.5 1.269e+04 2.137e-09
 41.55176    -40.6 1.265e+04 2.031e-09
 41.57176    -39.7 1.246e+04 1.851e-09
 41.59198    -38.9 1.227e+04 1.627e-09
 41.60403    -38.6 1.246e+04 1.271e-09
 41.61414    -39.2 1.214e+04 1.186e-09
 41.62435    -39.3 1.200e+04 1.138e-09
 41.63446    -39.8 1.198e+04 1.040e-09
 41.65263    -40.2 1.209e+04 1.027e-09
 41.67285    -40.7 1.232e+04 1.191e-09
 41.69306    -41.5 1.276e+04 1.569e-09
 41.70705    -42.5 1.363e+04 2.308e-09
 41.71716    -42.2 1.323e+04 1.869e-09
 41.73350    -43.2 1.406e+04 2.594e-09
 41.75371    -43.3 1.364e+04 3.642e-09
 41.76965    -41.8 1.311e+04 4.134e-09
 41.77976    -41.5 1.248e+04 2.867e-09
 41.78975    -40.0 1.254e+04 2.326e-09
 41.79985    -40.2 1.205e+04 1.974e-09
 41.81436    -39.9 1.241e+04 1.145e-09
 41.83458    -41.5 1.193e+04 8.123e-10
 41.85480    -42.9 1.108e+04 5.474e-10
 41.87244    -43.1 1.047e+04 4.518e-10
 41.88255    -42.8 1.045e+04 4.023e-10
 41.89523    -42.1 1.029e+04 3.854e-10
 41.91545    -42.0 1.029e+04 3.806e-10
 41.93538    -41.5 1.032e+04 3.260e-10
 41.95496    -40.6 1.008e+04 2.773e-10
 41.96545    -39.7 9.911e+03 2.315e-10
 41.98640    -38.7 9.879e+03 1.846e-10
 42.02683    -37.9 1.002e+04 2.028e-10
 42.06727    -38.0 1.029e+04 3.136e-10
 42.10770    -37.4 1.058e+04 5.563e-10
 42.13084    -36.8 1.117e+04 9.122e-10
 42.15106    -36.0 1.119e+04 9.819e-10
 42.17836    -36.5 1.176e+04 1.309e-09
 42.19848    -36.8 1.204e+04 1.394e-09
 42.21335    -37.1 1.190e+04 1.632e-09
 42.22346    -36.6 1.193e+04 1.572e-09
 42.23891    -36.6 1.189e+04 1.569e-09
 42.26663    -36.7 1.180e+04 1.450e-09
 42.28685    -36.8 1.183e+04 1.459e-09
 42.29614    -37.6 1.133e+04 1.111e-09
 42.31646    -36.7 1.125e+04 1.032e-09
 42.35030    -36.7 1.080e+04 7.960e-10
 42.39073    -35.5 1.045e+04 7.979e-10
 42.43117    -33.5 1.033e+04 7.919e-10
 42.46164    -31.5 1.023e+04 6.971e-10
 42.48186    -30.6 1.006e+04 6.240e-10
 42.51203    -29.0 9.965e+03 5.443e-10
 42.55247    -28.1 9.978e+03 5.492e-10
 42.59290    -27.6 1.012e+04 6.871e-10
 42.61820    -26.5 1.016e+04 8.030e-10
 42.63212    -26.7 1.007e+04 7.795e-10
 42.64725    -25.8 9.927e+03 7.227e-10
 42.67377    -24.7 9.953e+03 7.300e-10
 42.71420    -22.9 9.502e+03 5.185e-10
 42.75464    -22.1 8.998e+03 2.586e-10
 42.79243    -22.6 8.488e+03 1.607e-10
 42.81265    -21.4 8.668e+03 1.820e-10
 42.83550    -20.9 8.383e+03 1.677e-10
 42.87594    -20.2 8.453e+03 2.023e-10
 42.91637    -19.2 8.807e+03 2.834e-10
 42.94945    -18.3 9.212e+03 4.047e-10
 42.96967    -18.5 9.308e+03 4.147e-10
 42.97805    -17.7 9.909e+03 6.121e-10
 42.99826    -17.0 1.043e+04 8.820e-10
 43.03767    -16.1 1.068e+04 9.753e-10
 43.07810    -14.7 1.041e+04 8.264e-10
 43.11854    -13.5 9.941e+03 5.682e-10
 43.14345    -12.7 9.452e+03 3.812e-10
 43.16366    -11.9 9.936e+03 5.294e-10
 43.19940    -10.8 9.585e+03 4.165e-10
 43.23984     -9.1 9.350e+03 3.415e-10
 43.28027     -7.0 9.108e+03 2.630e-10
 43.30092     -5.1 8.793e+03 2.009e-10
 43.30928     -4.8 9.410e+03 3.061e-10
 43.32906     -3.8 1.021e+04 5.940e-10
 43.36114     -1.6 1.000e+04 4.631e-10
 43.40157      0.4 9.851e+03 3.715e-10
 43.43180      1.3 9.860e+03 3.469e-10
 43.45192      2.1 9.800e+03 3.653e-10
 43.46636      3.0 9.740e+03 4.053e-10
 43.47646      3.5 9.867e+03 4.513e-10
 43.48415      4.7 9.822e+03 4.783e-10
 43.49426      5.2 1.027e+04 4.770e-10
 43.51257      1.1 1.413e+04 5.368e-10
 43.53278     -8.0 2.190e+04 1.172e-09
 43.55300    -15.5 2.348e+04 5.083e-09
 43.56680    -19.4 2.189e+04 1.963e-08
 43.57181    -20.2 2.212e+04 3.153e-08
 43.57817    -19.7 2.155e+04 5.525e-08
 43.58828    -19.5 2.187e+04 8.145e-08
 43.59839    -19.8 2.229e+04 1.048e-07
 43.60810    -20.3 2.251e+04 1.203e-07
 43.61316    -20.9 2.278e+04 1.166e-07
 43.61861    -21.7 2.312e+04 1.036e-07
 43.62871    -22.6 2.332e+04 7.681e-08
 43.63694    -24.0 2.338e+04 5.454e-08
 43.64199    -25.8 2.294e+04 3.575e-08
 43.64893    -27.6 2.226e+04 2.621e-08
 43.65451    -29.2 2.160e+04 2.053e-08
 43.65956    -31.5 1.900e+04 1.180e-08
 43.66915    -32.3 1.825e+04 9.843e-09
 43.67926    -33.2 1.756e+04 8.630e-09
 43.68937    -33.9 1.682e+04 7.654e-09
 43.69586    -34.5 1.615e+04 6.903e-09
 43.70091    -35.0 1.498e+04 5.233e-09
 43.70958    -34.7 1.462e+04 4.818e-09
 43.71969    -34.7 1.446e+04 4.687e-09
 43.73220    -33.7 1.449e+04 4.471e-09
 43.74236    -33.4 1.357e+04 3.191e-09
 43.75517    -32.6 1.293e+04 2.239e-09
 43.77538    -32.5 1.267e+04 1.648e-09
 43.79560    -32.7 1.230e+04 1.270e-09
 43.80772    -32.8 1.179e+04 1.074e-09
 43.81696    -31.9 1.164e+04 9.505e-10
 43.82506    -32.3 1.097e+04 6.671e-10
 43.83603    -32.3 1.077e+04 6.164e-10
 43.85625    -31.9 1.069e+04 6.190e-10
 43.87647    -31.5 1.070e+04 6.535e-10
 43.89668    -30.8 1.066e+04 6.904e-10
 43.90775    -30.2 1.064e+04 7.194e-10
 43.91786    -30.3 1.046e+04 6.477e-10
 43.93712    -29.6 1.045e+04 6.637e-10
 43.95733    -28.8 1.043e+04 6.554e-10
 43.97334    -28.0 1.036e+04 6.271e-10
 43.98345    -27.3 1.023e+04 6.048e-10
 43.99045    -26.5 1.012e+04 5.600e-10
 44.00056    -26.6 1.010e+04 5.447e-10
 44.01798    -25.8 1.004e+04 5.018e-10
 44.03820    -25.1 9.958e+03 4.508e-10
 44.05842    -24.6 9.933e+03 4.353e-10
 44.07315    -23.7 9.923e+03 4.139e-10
 44.08326    -23.7 9.948e+03 4.369e-10
 44.09885    -23.4 1.003e+04 4.511e-10
 44.11907    -22.5 9.996e+03 4.632e-10
 44.13897    -21.9 1.008e+04 4.924e-10
 44.14908    -21.2 9.826e+03 3.801e-10
 44.15585    -19.9 9.823e+03 4.005e-10
 44.16596    -19.9 9.937e+03 4.366e-10
 44.17972    -19.3 1.005e+04 4.691e-10
 44.19993    -18.5 1.010e+04 5.072e-10
 44.22015    -17.9 1.023e+04 5.553e-10
 44.23855    -17.4 1.041e+04 6.241e-10
 44.24866    -17.3 1.061e+04 7.420e-10
 44.26058    -16.7 1.079e+04 8.433e-10
 44.28080    -16.1 1.097e+04 9.370e-10
 44.30102    -15.4 1.108e+04 9.982e-10
 44.31471    -14.5 1.107e+04 1.000e-09
 44.32481    -13.5 1.088e+04 8.857e-10
 44.34145    -12.5 1.115e+04 1.059e-09
 44.36167    -11.8 1.111e+04 1.007e-09
 44.38188    -11.1 1.105e+04 9.450e-10
 44.40210    -10.5 1.101e+04 9.066e-10
 44.41406     -9.8 1.099e+04 8.832e-10
 44.42416     -9.8 1.115e+04 9.545e-10
 44.44253     -9.0 1.111e+04 9.227e-10
 44.46275     -8.1 1.110e+04 9.184e-10
 44.48033     -7.3 1.112e+04 9.361e-10
 44.49044     -6.5 1.113e+04 9.443e-10
 44.49675     -5.6 1.116e+04 9.803e-10
 44.50686     -5.7 1.115e+04 9.531e-10
 44.52340     -4.8 1.119e+04 9.880e-10
 44.54362     -3.8 1.124e+04 1.043e-09
 44.56384     -2.8 1.134e+04 1.126e-09
 44.57945     -1.9 1.153e+04 1.246e-09
 44.58956     -1.9 1.124e+04 1.029e-09
 44.60427     -1.0 1.137e+04 1.102e-09
 44.62449     -0.1 1.157e+04 1.213e-09
 44.64470      0.6 1.184e+04 1.380e-09
 44.65607      1.2 1.210e+04 1.597e-09
 44.66341      1.8 1.194e+04 1.468e-09
 44.67226      1.7 1.151e+04 1.100e-09
 44.68514      2.4 1.167e+04 1.271e-09
 44.70535      3.1 1.185e+04 1.462e-09
 44.72557      4.0 1.205e+04 1.609e-09
 44.74485      4.8 1.224e+04 1.642e-09
 44.75496      4.5 1.170e+04 1.282e-09
 44.76600      5.1 1.177e+04 1.282e-09
 44.78622      5.6 1.181e+04 1.269e-09
 44.80644      6.1 1.184e+04 1.239e-09
 44.82170      6.7 1.184e+04 1.209e-09
 44.83180      7.4 1.175e+04 1.150e-09
 44.83766      8.1 1.174e+04 1.133e-09
 44.84777      7.9 1.133e+04 8.906e-10
 44.86709      8.7 1.132e+04 8.465e-10
 44.88730      9.4 1.134e+04 7.944e-10
 44.90752     10.1 1.139e+04 7.400e-10
 44.92036     10.7 1.153e+04 7.055e-10
 44.93046     10.3 1.101e+04 5.126e-10
 44.94795     10.6 1.116e+04 5.028e-10
 44.96817     10.5 1.140e+04 5.274e-10
 44.98732     10.0 1.195e+04 6.348e-10
 44.99743     10.1 1.208e+04 8.496e-10
 45.00305      9.3 1.277e+04 1.243e-09
 45.01316      9.3 1.199e+04 1.010e-09
 45.02882      9.2 1.244e+04 1.426e-09
 45.04904      9.6 1.305e+04 2.116e-09
 45.06925     10.5 1.374e+04 2.944e-09
 45.08575     11.4 1.386e+04 3.287e-09
 45.09586     11.6 1.289e+04 2.063e-09
 45.10969     12.1 1.319e+04 2.318e-09
 45.12990     12.4 1.358e+04 2.652e-09
 45.15012     12.5 1.407e+04 3.178e-09
 45.16306     12.6 1.459e+04 4.052e-09
 45.17128     13.0 1.401e+04 2.906e-09
 45.17856     13.2 1.337e+04 2.228e-09
 45.19055     13.4 1.393e+04 2.968e-09
 45.21077     13.7 1.452e+04 4.046e-09
 45.23099     14.2 1.511e+04 5.360e-09
 45.25115     14.4 1.581e+04 6.854e-09
 45.27137     15.0 1.559e+04 5.384e-09
 45.29164     14.6 1.647e+04 6.423e-09
 45.31185     13.9 1.650e+04 6.715e-09
 45.32868     13.8 1.625e+04 6.378e-09
 45.33879     14.6 1.564e+04 4.127e-09
 45.34396     14.3 1.518e+04 3.446e-09
 45.35407     13.6 1.415e+04 1.743e-09
 45.37250     13.1 1.363e+04 1.394e-09
 45.39272     12.9 1.333e+04 1.262e-09
 45.41294     13.5 1.286e+04 1.029e-09
 45.42666     14.0 1.264e+04 8.903e-10
 45.43676     14.4 1.250e+04 7.871e-10
 45.46358     16.0 1.218e+04 5.880e-10
 45.49944     18.8 1.179e+04 3.716e-10
 45.51966     19.5 1.169e+04 2.940e-10
 45.54454     22.1 1.153e+04 2.279e-10
 45.58497     24.8 1.139e+04 2.042e-10
 45.62541     27.8 1.133e+04 1.949e-10
 45.66013     30.9 1.132e+04 1.882e-10
 45.67935     31.2 1.128e+04 1.827e-10
 45.68506     31.8 1.130e+04 1.943e-10
 45.70627     34.7 1.128e+04 2.051e-10
 45.74671     37.6 1.127e+04 2.202e-10
 45.78714     40.5 1.128e+04 2.383e-10
 45.82757     43.3 1.131e+04 2.579e-10
 45.85045     46.0 1.134e+04 2.791e-10
 45.87067     46.5 1.135e+04 2.915e-10
 45.90844     49.1 1.139e+04 3.201e-10
 45.94887     51.7 1.144e+04 3.569e-10
 45.98931     54.2 1.150e+04 4.021e-10
 46.01160     56.7 1.155e+04 4.484e-10
 46.01793     56.8 1.141e+04 3.405e-10
 46.03607     57.0 1.138e+04 3.228e-10
 46.07018     59.4 1.138e+04 3.154e-10
 46.11061     61.7 1.134e+04 2.907e-10
 46.15104     64.2 1.128e+04 2.506e-10
 46.18125     66.8 1.121e+04 2.035e-10
 46.20146     66.9 1.119e+04 1.736e-10
 46.23191     69.5 1.114e+04 1.312e-10
 46.27234     71.9 1.110e+04 1.016e-10
 46.31278     74.3 1.106e+04 8.445e-11
 46.34286     76.7 1.097e+04 8.000e-11
 46.35651     77.1 1.093e+04 7.750e-11
 46.36686     77.3 1.093e+04 7.307e-11
 46.39364     80.1 1.092e+04 7.334e-11
 46.43408     82.9 1.092e+04 7.519e-11
 46.47451     85.7 1.094e+04 7.966e-11
 46.51204     88.4 1.098e+04 8.608e-11
 46.53226     88.9 1.097e+04 8.677e-11
 46.55538     91.6 1.101e+04 9.517e-11
 46.59581     94.2 1.104e+04 1.043e-10
 46.63624     96.7 1.106e+04 1.119e-10
 46.67411     99.2 1.107e+04 1.173e-10
 46.69433     99.2 1.135e+04 1.208e-10
 46.69766    101.5 1.136e+04 1.287e-10
 46.71787    101.6 1.161e+04 1.555e-10
 46.75754    103.8 1.157e+04 1.681e-10
 46.79798    105.9 1.146e+04 1.812e-10
 46.83841    107.9 1.135e+04 1.930e-10
 46.86305    110.1 1.123e+04 2.024e-10
 46.88327    110.0 1.133e+04 2.694e-10
 46.91928    112.1 1.124e+04 2.625e-10
 46.95971    114.4 1.117e+04 2.510e-10
 47.00014    116.7 1.113e+04 2.388e-10
 47.02558    119.0 1.112e+04 2.298e-10
 47.03367    118.7 1.110e+04 2.439e-10
 47.04867    118.6 1.112e+04 2.846e-10
 47.08101    120.7 1.108e+04 2.458e-10
 47.12144    122.9 1.105e+04 2.253e-10
 47.16188    125.1 1.104e+04 2.219e-10
 47.19385    127.4 1.106e+04 2.223e-10
 47.21406    126.9 1.110e+04 2.261e-10
 47.24274    129.0 1.118e+04 2.383e-10
 47.28318    130.9 1.130e+04 2.704e-10
 47.32361    132.7 1.143e+04 3.226e-10
 47.35683    134.6 1.154e+04 3.952e-10
 47.37225    134.8 1.188e+04 4.234e-10
 47.37946    133.8 1.187e+04 4.141e-10
 47.40448    135.1 1.195e+04 4.835e-10
 47.44491    136.4 1.189e+04 5.369e-10
 47.48534    137.7 1.180e+04 5.417e-10
 47.52464    139.2 1.168e+04 5.289e-10
 47.54486    138.7 1.166e+04 4.603e-10
 47.56621    140.4 1.150e+04 4.418e-10
 47.60664    142.2 1.130e+04 4.138e-10
 47.64708    144.1 1.111e+04 3.826e-10
 47.68751    146.0 1.105e+04 3.731e-10
 47.70830    148.0 1.105e+04 3.720e-10
 47.71083    148.4 1.125e+04 3.889e-10
 47.73047    148.3 1.124e+04 2.995e-10
 47.76838    150.2 1.129e+04 3.163e-10
 47.79286    151.0 1.125e+04 3.316e-10
 47.80287    151.0 1.129e+04 3.265e-10
 47.81872    151.6 1.126e+04 3.349e-10
 47.83894    152.3 1.123e+04 3.556e-10
 47.85916    153.1 1.141e+04 4.076e-10
 47.87374    153.9 1.169e+04 5.104e-10
 47.87993    153.4 1.210e+04 6.570e-10
 47.88557    153.1 1.216e+04 7.273e-10
 47.89959    153.9 1.241e+04 9.607e-10
 47.91981    154.6 1.268e+04 1.240e-09
 47.94002    155.4 1.295e+04 1.569e-09
 47.95816    156.1 1.323e+04 1.929e-09
 47.96827    156.1 1.317e+04 1.737e-09
 47.98046    156.8 1.340e+04 1.822e-09
 48.00068    157.2 1.344e+04 1.809e-09
 48.02089    157.5 1.345e+04 1.761e-09
 48.03936    157.8 1.340e+04 1.642e-09
 48.04922    157.2 1.328e+04 1.600e-09
 48.05096    156.7 1.296e+04 1.373e-09
 48.06133    156.9 1.270e+04 1.228e-09
 48.08154    157.3 1.243e+04 1.089e-09
 48.10176    157.9 1.220e+04 9.703e-10
 48.12198    158.5 1.199e+04 8.797e-10
 48.13366    159.2 1.184e+04 8.089e-10
 48.14377    159.2 1.175e+04 6.907e-10
 48.16241    160.0 1.171e+04 6.380e-10
 48.18263    160.8 1.178e+04 6.006e-10
 48.20284    161.6 1.187e+04 5.969e-10
 48.21510    162.4 1.207e+04 6.061e-10
 48.21851    160.6 1.394e+04 1.008e-09
 48.22647    159.5 1.539e+04 1.134e-09
 48.24328    160.2 1.583e+04 1.427e-09
 48.26349    160.9 1.630e+04 1.854e-09
 48.28371    161.7 1.669e+04 2.371e-09
 48.29906    162.6 1.692e+04 2.886e-09
 48.30917    161.5 1.819e+04 5.112e-09
 48.32414    162.2 1.842e+04 6.240e-09
 48.34436    163.0 1.845e+04 7.117e-09
 48.36458    163.8 1.842e+04 7.701e-09
 48.38072    164.4 1.803e+04 8.036e-09
 48.38780    163.3 1.826e+04 1.133e-08
 48.39187    163.0 1.936e+04 1.967e-08
 48.40501    163.6 1.897e+04 1.677e-08
 48.42523    164.4 1.826e+04 1.364e-08
 48.44544    165.4 1.733e+04 1.047e-08
 48.46446    166.7 1.633e+04 7.310e-09
 48.47457    167.1 1.696e+04 8.304e-09
 48.48588    168.4 1.579e+04 4.861e-09
 48.50609    169.0 1.476e+04 2.709e-09
 48.52631    168.8 1.378e+04 1.488e-09
 48.54635    168.3 1.283e+04 8.500e-10
 48.55646    164.4 1.069e+04 3.202e-10
 48.55727    164.0 1.026e+04 2.799e-10
 48.56737    162.9 9.837e+03 2.375e-10
 48.58696    163.2 9.783e+03 2.389e-10
 48.60718    163.8 9.749e+03 2.493e-10
 48.62739    164.4 9.745e+03 2.621e-10
 48.63996    165.1 9.809e+03 2.921e-10
 48.65007    165.0 9.754e+03 2.739e-10
 48.66783    165.5 9.811e+03 2.939e-10
 48.68804    166.2 9.879e+03 3.169e-10
 48.70826    166.6 9.946e+03 3.263e-10
 48.72209    167.1 9.974e+03 3.290e-10
 48.72648    166.4 9.953e+03 3.227e-10
 48.74307    167.6 9.815e+03 2.861e-10
 48.77921    168.1 9.860e+03 2.950e-10
 48.81965    168.4 9.879e+03 3.076e-10
 48.86008    168.7 9.838e+03 3.297e-10
 48.88781    170.0 9.841e+03 3.637e-10
 48.89567    169.2 9.777e+03 3.421e-10
 48.90837    170.7 9.813e+03 3.393e-10
 48.93074    170.6 9.803e+03 3.691e-10
 48.95086    170.9 9.851e+03 3.967e-10
 48.97076    171.2 9.935e+03 4.369e-10
 48.98087    171.8 9.819e+03 3.983e-10
 48.99129    172.1 9.876e+03 4.314e-10
 49.01151    172.2 9.965e+03 4.652e-10
 49.03173    172.1 1.006e+04 4.895e-10
 49.05194    171.6 1.011e+04 4.973e-10
 49.06345    171.0 1.011e+04 4.938e-10
 49.06496    171.2 1.005e+04 4.824e-10
 49.07367    172.2 9.969e+03 4.679e-10
 49.09238    171.7 1.002e+04 4.795e-10
 49.11259    171.0 1.003e+04 4.826e-10
 49.13281    170.3 1.004e+04 4.863e-10
 49.14626    169.5 1.008e+04 4.996e-10
 49.15637    170.6 1.007e+04 4.975e-10
 49.17324    169.7 1.015e+04 5.268e-10
 49.19346    168.8 1.029e+04 5.791e-10
 49.21368    167.9 1.048e+04 6.579e-10
 49.22896    167.1 1.069e+04 7.563e-10
 49.23425    167.9 1.061e+04 7.225e-10
 49.23918    168.7 1.058e+04 7.100e-10
 49.25411    167.9 1.079e+04 8.189e-10
 49.27433    167.2 1.099e+04 9.268e-10
 49.29454    166.6 1.109e+04 9.828e-10
 49.31166    166.0 1.109e+04 9.838e-10
 49.32177    166.6 1.109e+04 1.001e-09
 49.33498    166.1 1.107e+04 9.952e-10
 49.35519    165.7 1.096e+04 9.575e-10
 49.37541    165.8 1.076e+04 8.772e-10
 49.39436    166.0 1.050e+04 7.713e-10
 49.40354    166.5 1.064e+04 8.469e-10
 49.40481    167.1 1.055e+04 7.928e-10
 49.41584    167.3 1.032e+04 6.889e-10
 49.43606    167.3 1.013e+04 5.978e-10
 49.45628    167.4 1.010e+04 5.558e-10
 49.47649    167.4 1.011e+04 5.558e-10
 49.48717    167.4 1.018e+04 5.653e-10
 49.49728    168.0 1.020e+04 5.908e-10
 49.51693    168.0 1.032e+04 6.126e-10
 49.53714    167.8 1.055e+04 6.703e-10
 49.55736    167.7 1.082e+04 7.605e-10
 49.56987    167.5 1.108e+04 8.626e-10
 49.57283    168.4 1.093e+04 8.165e-10
 49.58055    169.3 1.059e+04 6.788e-10
 49.59779    169.2 1.078e+04 7.542e-10
 49.61801    169.1 1.095e+04 8.232e-10
 49.63823    168.8 1.107e+04 8.585e-10
 49.65256    168.5 1.110e+04 8.591e-10
 49.66267    169.5 1.115e+04 8.959e-10
 49.67866    169.0 1.115e+04 8.922e-10
 49.69888    168.5 1.111e+04 8.682e-10
 49.71910    167.9 1.101e+04 8.178e-10
 49.73526    167.2 1.089e+04 7.634e-10
 49.74212    168.6 1.105e+04 8.237e-10
 49.74617    170.0 1.097e+04 7.840e-10
 49.75953    169.3 1.082e+04 7.189e-10
 49.77975    168.5 1.066e+04 6.714e-10
 49.79996    167.7 1.059e+04 6.627e-10
 49.81796    166.9 1.059e+04 6.676e-10
 49.82807    167.9 1.051e+04 6.382e-10
 49.84040    167.0 1.052e+04 6.489e-10
 49.86061    166.2 1.060e+04 6.930e-10
 49.88083    165.3 1.079e+04 7.819e-10
 49.90066    164.5 1.103e+04 8.999e-10
 49.91077    165.1 1.093e+04 8.418e-10
 49.91180    164.1 1.119e+04 9.875e-10
 49.92191    165.8 1.100e+04 8.956e-10
 49.94148    164.8 1.128e+04 1.066e-09
 49.96170    163.9 1.155e+04 1.252e-09
 49.98191    163.1 1.176e+04 1.411e-09
 49.99347    162.5 1.191e+04 1.527e-09
 50.00358    162.2 1.180e+04 1.422e-09
 50.02235    161.0 1.203e+04 1.554e-09
 50.04256    158.8 1.283e+04 1.779e-09
 50.06278    155.9 1.413e+04 2.319e-09
 50.07617    153.1 1.506e+04 3.139e-09
 50.08071    149.3 1.590e+04 4.524e-09
 50.08753    152.0 1.577e+04 3.974e-09
 50.10321    150.0 1.556e+04 4.273e-09
 50.12343    148.7 1.517e+04 4.065e-09
 50.14365    148.2 1.441e+04 3.356e-09
 50.15886    148.0 1.347e+04 2.388e-09
 50.16897    146.7 1.287e+04 1.820e-09
 50.18408    146.5 1.205e+04 1.134e-09
 50.20430    146.3 1.145e+04 7.974e-10
 50.23155    147.6 1.108e+04 6.340e-10
 50.25187    144.7 9.931e+03 3.491e-10
 50.27525    145.6 9.314e+03 2.594e-10
 50.31568    147.7 9.199e+03 2.365e-10
 50.35612    150.2 9.152e+03 2.316e-10
 50.39655    152.9 9.097e+03 2.263e-10
 50.41726    155.6 9.012e+03 2.187e-10
 50.41948    156.3 9.225e+03 2.672e-10
 50.43920    156.6 8.963e+03 1.951e-10
 50.47742    159.3 8.888e+03 1.892e-10
 50.51785    162.0 8.816e+03 1.847e-10
 50.55828    164.7 8.749e+03 1.835e-10
 50.58266    167.3 8.733e+03 1.849e-10
 50.60288    168.0 9.054e+03 2.345e-10
 50.63915    170.5 9.044e+03 2.356e-10
 50.67958    172.9 9.036e+03 2.390e-10
 50.72002    175.2 9.031e+03 2.432e-10
 50.74806    177.2 9.006e+03 2.491e-10
 50.75806    178.0 9.318e+03 2.881e-10
 50.77045    178.3 9.188e+03 2.567e-10
 50.80088    180.2 9.171e+03 2.553e-10
 50.84132    182.0 9.132e+03 2.544e-10
 50.88175    183.7 9.118e+03 2.564e-10
 50.91346    185.4 9.139e+03 2.655e-10
 50.93367    186.3 9.401e+03 2.892e-10
 50.96262    188.0 9.549e+03 3.138e-10
 51.00305    189.5 9.790e+03 3.615e-10
 51.04348    191.1 1.020e+04 4.466e-10
 51.07371    191.5 1.036e+04 4.995e-10
 51.08877    191.9 1.052e+04 5.463e-10
 51.09645    191.7 1.096e+04 6.272e-10
 51.10151    192.8 1.069e+04 6.805e-10
 51.11405    193.1 1.092e+04 7.612e-10
 51.13426    193.5 1.109e+04 8.155e-10
 51.15448    193.8 1.122e+04 8.394e-10
 51.17147    194.1 1.137e+04 8.398e-10
 51.18157    194.0 1.164e+04 8.460e-10
 51.19491    194.3 1.165e+04 8.604e-10
 51.21513    194.6 1.167e+04 8.871e-10
 51.23535    195.0 1.168e+04 9.399e-10
 51.25416    195.3 1.173e+04 1.033e-09
 51.26427    195.4 1.162e+04 1.076e-09
 51.26714    195.9 1.172e+04 1.220e-09
 51.27725    197.0 1.193e+04 1.244e-09
 51.29600    197.5 1.210e+04 1.454e-09
 51.31621    198.0 1.231e+04 1.731e-09
 51.33643    198.7 1.262e+04 2.069e-09
 51.34697    199.2 1.302e+04 2.478e-09
 51.35708    199.7 1.286e+04 2.460e-09
 51.37686    200.2 1.321e+04 2.857e-09
 51.39708    200.4 1.359e+04 3.271e-09
 51.41730    200.5 1.404e+04 3.783e-09
 51.42967    200.5 1.460e+04 4.516e-09
 51.43503    201.4 1.380e+04 2.792e-09
 51.44287    202.0 1.409e+04 3.633e-09
 51.45773    201.9 1.459e+04 4.196e-09
 51.47795    201.5 1.516e+04 5.033e-09
 51.49817    201.0 1.571e+04 6.127e-09
 51.51237    200.4 1.618e+04 7.386e-09
 51.52248    201.5 1.493e+04 3.906e-09
 51.53860    200.8 1.544e+04 4.916e-09
 51.55882    200.2 1.600e+04 6.364e-09
 51.57903    199.6 1.663e+04 8.404e-09
 51.59507    198.9 1.734e+04 1.120e-08
 51.60432    199.9 1.650e+04 7.269e-09
 51.60850    200.1 1.664e+04 8.766e-09
 51.61947    199.7 1.761e+04 1.250e-08
 51.63968    199.0 1.836e+04 1.642e-08
 51.65990    197.8 1.860e+04 1.739e-08
 51.67777    196.3 1.854e+04 1.710e-08
 51.68787    197.8 1.843e+04 1.469e-08
 51.70033    196.2 1.833e+04 1.392e-08
 51.72055    194.6 1.784e+04 1.212e-08
 51.74077    193.2 1.707e+04 9.795e-09
 51.76046    191.8 1.621e+04 7.663e-09
 51.77057    192.4 1.621e+04 6.715e-09
 51.77413    190.6 1.535e+04 5.295e-09
 51.78424    190.4 1.504e+04 5.176e-09
 51.80142    188.9 1.425e+04 4.071e-09
 51.82163    187.6 1.362e+04 3.253e-09
 51.84185    186.5 1.303e+04 2.548e-09
 51.85327    185.5 1.238e+04 1.937e-09
 51.86338    185.2 1.212e+04 1.810e-09
 51.88228    184.5 1.158e+04 1.429e-09
 51.90250    184.1 1.109e+04 1.167e-09
 51.92272    183.8 1.070e+04 9.968e-10
 51.93597    183.7 1.041e+04 8.866e-10
 51.94290    184.1 1.037e+04 8.887e-10
 51.94986    184.0 1.034e+04 8.764e-10
 51.96315    184.0 1.015e+04 8.132e-10
 51.98337    184.2 1.011e+04 8.025e-10
 52.00358    184.6 1.010e+04 8.015e-10
 52.01867    185.1 1.011e+04 8.032e-10
 52.02878    185.4 1.008e+04 8.002e-10
 52.04402    186.1 1.012e+04 8.150e-10
 52.06423    186.7 1.022e+04 8.444e-10
 52.08445    187.3 1.034e+04 8.845e-10
 52.10137    187.9 1.048e+04 9.317e-10
 52.11148    188.3 1.045e+04 9.354e-10
 52.11549    188.9 1.062e+04 9.887e-10
 52.12560    189.0 1.066e+04 1.006e-09
 52.14510    189.5 1.080e+04 1.047e-09
 52.16532    190.0 1.090e+04 1.055e-09
 52.18407    190.4 1.091e+04 1.052e-09
 52.19417    191.1 1.103e+04 1.136e-09
 52.20575    191.6 1.110e+04 1.139e-09
 52.22597    192.1 1.115e+04 1.136e-09
 52.24618    192.4 1.119e+04 1.130e-09
 52.26640    192.6 1.125e+04 1.108e-09
 52.27687    192.7 1.129e+04 1.077e-09
 52.28148    193.3 1.170e+04 1.335e-09
 52.29122    193.1 1.202e+04 1.462e-09
 52.30683    193.0 1.226e+04 1.500e-09
 52.32705    192.8 1.253e+04 1.529e-09
 52.34727    192.6 1.281e+04 1.548e-09
 52.35957    192.3 1.302e+04 1.561e-09
 52.36968    192.7 1.316e+04 2.102e-09
 52.38770    192.6 1.319e+04 2.088e-09
 52.40792    192.4 1.321e+04 2.025e-09
 52.42813    192.4 1.309e+04 1.910e-09
 52.44227    192.5 1.285e+04 1.785e-09
 52.45077    193.5 1.298e+04 2.099e-09
 52.45685    192.9 1.302e+04 2.041e-09
 52.46857    193.0 1.267e+04 1.780e-09
 52.48878    193.1 1.237e+04 1.604e-09
 52.50900    193.3 1.215e+04 1.500e-09
 52.52497    193.7 1.202e+04 1.446e-09
 52.53508    194.4 1.195e+04 1.359e-09
 52.54943    194.8 1.187e+04 1.326e-09
 52.56965    195.2 1.184e+04 1.310e-09
 52.58987    195.6 1.182e+04 1.294e-09
 52.60767    195.9 1.177e+04 1.265e-09
 52.61778    197.1 1.173e+04 1.245e-09
 52.62248    197.5 1.165e+04 1.202e-09
 52.63259    197.1 1.145e+04 1.103e-09
 52.65052    197.6 1.137e+04 1.086e-09
 52.67073    198.2 1.129e+04 1.071e-09
 52.69037    198.9 1.120e+04 1.051e-09
 52.70048    200.3 1.123e+04 1.071e-09
 52.71117    201.0 1.114e+04 1.073e-09
 52.73138    201.8 1.113e+04 1.078e-09
 52.75160    202.6 1.115e+04 1.093e-09
 52.77182    203.2 1.128e+04 1.130e-09
 52.78317    203.5 1.159e+04 1.218e-09
 52.78935    205.2 1.144e+04 1.294e-09
 52.79821    204.9 1.189e+04 1.512e-09
 52.81225    205.1 1.250e+04 1.766e-09
 52.83247    205.1 1.324e+04 2.172e-09
 52.85268    205.0 1.395e+04 2.732e-09
 52.86587    204.8 1.439e+04 3.320e-09
 52.87598    206.9 1.460e+04 3.445e-09
 52.89312    206.6 1.491e+04 3.840e-09
 52.91333    206.0 1.489e+04 3.837e-09
 52.93355    205.5 1.466e+04 3.685e-09
 52.94857    205.1 1.415e+04 3.247e-09
 52.95864    207.1 1.514e+04 4.109e-09
 52.97395    206.3 1.427e+04 3.236e-09
 52.99420    205.8 1.328e+04 2.415e-09
 53.01442    205.1 1.266e+04 1.962e-09
 53.03127    204.7 1.264e+04 1.921e-09
 53.04138    206.6 1.232e+04 1.758e-09
 53.05485    206.1 1.230e+04 1.761e-09
 53.07507    205.7 1.241e+04 1.824e-09
 53.09528    205.0 1.291e+04 2.128e-09
 53.11397    204.1 1.387e+04 2.893e-09
 53.12408    206.3 1.299e+04 2.176e-09
 53.12947    205.4 1.401e+04 3.165e-09
 53.13958    203.7 1.468e+04 4.094e-09
 53.15593    202.9 1.605e+04 6.152e-09
 53.17615    202.0 1.733e+04 8.293e-09
 53.19637    200.8 1.842e+04 9.577e-09
 53.20678    198.8 1.869e+04 9.398e-09
 53.21688    201.8 1.865e+04 9.947e-09
 53.23680    199.6 1.886e+04 9.626e-09
 53.25702    197.0 1.881e+04 8.237e-09
 53.27724    193.9 1.775e+04 6.243e-09
 53.28947    191.1 1.594e+04 4.648e-09
 53.29722    194.8 1.726e+04 5.287e-09
 53.30520    191.8 1.554e+04 3.889e-09
 53.31767    189.8 1.383e+04 2.945e-09
 53.33789    188.5 1.285e+04 2.388e-09
 53.35810    187.4 1.258e+04 1.999e-09
 53.37217    185.9 1.257e+04 1.694e-09
 53.38228    187.2 1.232e+04 1.551e-09
 53.39854    184.9 1.244e+04 1.384e-09
 53.41875    181.9 1.244e+04 1.247e-09
 53.43897    178.5 1.227e+04 1.137e-09
 53.45487    175.1 1.199e+04 1.021e-09
 53.46498    175.7 1.193e+04 9.742e-10
 53.47083    172.5 1.152e+04 8.328e-10
 53.48094    170.3 1.139e+04 8.361e-10
 53.49962    167.8 1.102e+04 7.112e-10
 53.51984    165.5 1.075e+04 6.046e-10
 53.53757    163.4 1.063e+04 5.162e-10
 53.54768    163.7 1.073e+04 5.183e-10
 53.56027    161.9 1.062e+04 4.570e-10
 53.58049    160.5 1.049e+04 4.182e-10
 53.60070    159.5 1.046e+04 4.068e-10
 53.62027    158.5 1.048e+04 4.132e-10
 53.63038    158.1 1.055e+04 4.185e-10
 53.63646    156.5 1.081e+04 4.646e-10
 53.64656    153.4 1.035e+04 4.009e-10
 53.66135    152.0 1.052e+04 5.284e-10
 53.68157    150.1 1.108e+04 7.751e-10
 53.70179    144.6 1.407e+04 1.518e-09
 53.71308    138.2 1.661e+04 2.798e-09
 53.71808    138.5 1.647e+04 2.609e-09
 53.72423    137.1 1.691e+04 3.038e-09
 53.72928    135.1 1.709e+04 3.296e-09
 53.73707    132.7 1.755e+04 4.092e-09
 53.74718    130.5 1.762e+04 4.982e-09
 53.75433    126.8 2.050e+04 5.894e-09
 53.75938    114.9 3.556e+04 7.250e-09
 53.76739     80.1 4.956e+04 4.244e-08
 53.77750     51.4 3.262e+04 3.229e-07
 53.78761     33.0 2.935e+04 3.027e-07
 53.79568     20.0 3.606e+04 6.498e-08
 53.80073     15.7 4.097e+04 1.493e-08
 53.80704     -3.3 4.770e+04 2.830e-09
 53.81209      1.2 4.843e+04 3.045e-09
 53.82304    -33.5 2.115e+04 1.403e-09
 53.84330    -40.7 1.226e+04 1.198e-09
 53.86352    -41.7 1.171e+04 9.564e-10
 53.87847    -42.0 1.114e+04 7.808e-10
 53.88858    -43.7 1.070e+04 6.320e-10
 53.90395    -43.3 1.043e+04 5.695e-10
 53.92417    -42.5 1.025e+04 5.127e-10
 53.95116    -40.9 1.018e+04 4.799e-10
 53.97148    -43.5 1.011e+04 4.661e-10
 53.99512    -42.3 9.704e+03 3.826e-10
 54.03556    -41.7 9.537e+03 3.540e-10
 54.07599    -41.2 9.592e+03 3.748e-10
 54.11642    -40.6 9.618e+03 4.274e-10
 54.13687    -39.0 9.713e+03 4.780e-10
 54.14387    -40.8 9.461e+03 4.200e-10
 54.16386    -40.0 9.194e+03 3.555e-10
 54.19729    -38.3 8.877e+03 2.774e-10
 54.23772    -36.8 8.401e+03 1.771e-10
 54.27816    -36.0 8.070e+03 1.139e-10
 54.30227    -35.5 7.900e+03 9.245e-11
 54.32249    -36.9 7.887e+03 9.187e-11
 54.35902    -36.1 7.977e+03 1.066e-10
 54.39946    -34.8 8.188e+03 1.470e-10
 54.43989    -33.3 8.483e+03 1.966e-10
 54.46767    -32.1 8.829e+03 2.441e-10
 54.48245    -33.6 8.946e+03 2.631e-10
 54.49511    -33.2 8.719e+03 2.152e-10
 54.52076    -32.7 8.908e+03 2.411e-10
 54.56119    -32.1 9.084e+03 2.912e-10
 54.60162    -30.9 9.377e+03 3.427e-10
 54.63306    -30.0 9.696e+03 3.516e-10
 54.65328    -31.5 9.435e+03 2.604e-10
 54.68249    -31.4 9.676e+03 2.992e-10
 54.72292    -30.7 9.716e+03 3.362e-10
 54.76336    -29.1 9.419e+03 2.922e-10
 54.79846    -27.2 9.031e+03 1.940e-10
 54.81868    -27.3 9.072e+03 1.858e-10
 54.82636    -26.7 8.945e+03 1.169e-10
 54.84658    -25.9 8.951e+03 1.001e-10
 54.88466    -25.4 8.750e+03 9.091e-11
 54.92509    -24.1 8.624e+03 1.019e-10
 54.96386    -22.5 8.648e+03 1.077e-10
 54.98408    -22.3 8.798e+03 1.244e-10
 55.00596    -21.0 9.038e+03 1.343e-10
 55.04639    -20.9 9.415e+03 1.712e-10
 55.08683    -20.6 9.741e+03 2.947e-10
 55.12726    -19.6 1.015e+04 4.424e-10
 55.14947    -18.8 1.043e+04 4.995e-10
 55.15948    -18.6 1.059e+04 5.553e-10
 55.17761    -18.3 1.080e+04 6.328e-10
 55.20803    -18.2 1.092e+04 6.289e-10
 55.24856    -19.4 1.133e+04 6.939e-10
 55.28899    -23.1 1.283e+04 1.137e-09
 55.31477    -27.9 1.430e+04 3.176e-09
 55.32478    -28.4 1.453e+04 4.358e-09
 55.33316    -26.9 1.480e+04 6.478e-09
 55.34327    -26.5 1.429e+04 5.212e-09
 55.35956    -25.0 1.435e+04 4.950e-09
 55.37977    -23.3 1.424e+04 3.729e-09
 55.39737    -23.3 1.383e+04 2.255e-09
 55.40748    -23.7 1.397e+04 2.588e-09
 55.42021    -25.4 1.313e+04 1.291e-09
 55.44042    -27.6 1.165e+04 7.195e-10
 55.46064    -28.1 1.062e+04 5.152e-10
 55.48007    -27.5 1.050e+04 3.433e-10
 55.49018    -27.6 1.059e+04 3.885e-10
 55.49878    -27.5 1.048e+04 3.580e-10
 55.50899    -27.5 1.039e+04 3.136e-10
 55.53159    -26.2 1.018e+04 2.756e-10
 55.57203    -24.7 1.019e+04 2.683e-10
 55.61246    -24.1 1.052e+04 3.384e-10
 55.64269    -24.0 1.087e+04 5.075e-10
 55.65558    -24.1 1.131e+04 6.860e-10
 55.66569    -24.1 1.161e+04 8.494e-10
 55.67452    -24.8 1.266e+04 1.277e-09
 55.68463    -25.3 1.247e+04 1.238e-09
 55.70324    -26.1 1.315e+04 1.826e-09
 55.72346    -26.2 1.345e+04 2.556e-09
 55.73828    -25.3 1.313e+04 2.976e-09
 55.74839    -25.1 1.337e+04 3.176e-09
 55.76389    -23.7 1.316e+04 2.966e-09
 55.78411    -22.7 1.303e+04 2.413e-09
 55.80432    -23.0 1.278e+04 1.697e-09
 55.82098    -24.2 1.207e+04 1.212e-09
 55.83108    -24.0 1.226e+04 1.272e-09
 55.84015    -25.2 1.156e+04 9.809e-10
 55.85025    -26.6 1.103e+04 7.769e-10
 55.86497    -26.9 1.101e+04 7.686e-10
 55.88519    -27.2 1.100e+04 8.206e-10
 55.90367    -27.1 1.115e+04 8.887e-10
 55.91378    -27.9 1.144e+04 1.004e-09
 55.92562    -29.4 1.216e+04 1.340e-09
 55.94584    -31.1 1.291e+04 1.752e-09
 55.96606    -32.3 1.321e+04 2.348e-09
 55.98627    -32.7 1.315e+04 2.675e-09
 55.99648    -32.7 1.300e+04 2.684e-09
 56.00587    -32.6 1.275e+04 2.638e-09
 56.01588    -33.0 1.222e+04 1.970e-09
 56.02671    -33.0 1.191e+04 1.634e-09
 56.04692    -33.8 1.181e+04 1.297e-09
 56.06714    -35.7 1.179e+04 1.048e-09
 56.07918    -38.1 1.157e+04 9.686e-10
 56.08929    -39.5 1.092e+04 7.086e-10
 56.10757    -40.7 1.066e+04 7.842e-10
 56.12779    -40.7 1.071e+04 9.066e-10
 56.14801    -39.9 1.064e+04 9.820e-10
 56.16188    -39.0 1.060e+04 9.903e-10
 56.17199    -39.5 1.027e+04 7.924e-10
 56.18151    -38.9 1.029e+04 7.022e-10
 56.19162    -39.0 9.965e+03 5.771e-10
 56.21886    -39.0 9.719e+03 4.587e-10
 56.25939    -38.1 9.291e+03 3.064e-10
 56.29983    -38.0 9.015e+03 2.174e-10
 56.32747    -38.1 8.888e+03 1.859e-10
 56.34769    -39.5 9.222e+03 2.646e-10
 56.38069    -38.5 8.976e+03 2.782e-10
 56.42113    -36.9 8.607e+03 2.217e-10
 56.46156    -36.1 8.634e+03 1.588e-10
 56.49287    -36.1 8.952e+03 1.593e-10
 56.51299    -38.0 1.028e+04 2.198e-10
 56.52287    -39.6 1.157e+04 3.631e-10
 56.54318    -39.5 1.210e+04 4.394e-10
 56.57266    -38.7 1.200e+04 5.510e-10
 56.58548    -39.7 1.277e+04 7.870e-10
 56.59559    -42.0 1.369e+04 1.747e-09
 56.61299    -42.2 1.378e+04 2.708e-09
 56.63321    -41.7 1.423e+04 3.300e-09
 56.65342    -41.5 1.451e+04 3.697e-09
 56.66818    -41.5 1.461e+04 3.801e-09
 56.67829    -43.3 1.465e+04 3.518e-09
 56.68850    -43.5 1.425e+04 2.827e-09
 56.69861    -41.9 1.423e+04 3.085e-09
 56.71408    -42.0 1.369e+04 2.389e-09
 56.73429    -42.1 1.301e+04 1.754e-09
 56.75088    -42.0 1.229e+04 1.304e-09
 56.76099    -44.0 1.188e+04 1.117e-09
 56.77473    -43.6 1.169e+04 1.005e-09
 56.79494    -43.2 1.166e+04 8.972e-10
 56.81516    -42.9 1.168e+04 8.867e-10
 56.83358    -42.5 1.211e+04 9.292e-10
 56.84368    -43.9 1.278e+04 1.370e-09
 56.85412    -43.4 1.288e+04 1.558e-09
 56.86423    -42.4 1.287e+04 1.510e-09
 56.87581    -41.8 1.323e+04 1.673e-09
 56.89603    -41.2 1.342e+04 1.924e-09
 56.91624    -40.7 1.354e+04 2.126e-09
 56.93646    -41.1 1.425e+04 2.951e-09
 56.95668    -40.5 1.421e+04 3.008e-09
 56.97689    -39.8 1.417e+04 3.027e-09
 56.99711    -39.0 1.409e+04 2.949e-09
 57.00908    -38.2 1.395e+04 2.799e-09
 57.01919    -39.4 1.391e+04 2.769e-09
 57.02986    -38.5 1.368e+04 2.459e-09
 57.03997    -38.0 1.412e+04 2.867e-09
 57.05776    -37.6 1.402e+04 2.611e-09
 57.07798    -37.3 1.383e+04 2.316e-09
 57.09178    -37.3 1.362e+04 2.012e-09
 57.10189    -38.4 1.294e+04 1.360e-09
 57.11841    -38.0 1.238e+04 1.119e-09
 57.13863    -37.4 1.209e+04 8.783e-10
 57.15884    -36.9 1.176e+04 7.156e-10
 57.17448    -36.4 1.154e+04 5.478e-10
 57.18459    -37.7 1.096e+04 3.667e-10
 57.19549    -37.7 1.078e+04 3.222e-10
 57.20559    -37.2 1.100e+04 3.768e-10
 57.21949    -37.1 1.074e+04 3.074e-10
 57.23971    -37.2 1.059e+04 2.856e-10
 57.25718    -36.6 1.038e+04 2.742e-10
 57.26729    -36.9 1.032e+04 2.655e-10
 57.28014    -36.8 1.032e+04 2.650e-10
 57.30036    -35.9 1.024e+04 2.559e-10
 57.32058    -35.8 1.025e+04 2.564e-10
 57.33997    -35.2 1.025e+04 2.617e-10
 57.36029    -35.0 1.006e+04 2.350e-10
 57.39153    -34.0 9.925e+03 2.123e-10
 57.43196    -32.8 9.741e+03 1.880e-10
 57.47240    -31.2 9.460e+03 1.516e-10
 57.50547    -29.6 9.273e+03 1.176e-10
 57.52569    -29.4 9.168e+03 8.993e-11
 57.53704    -28.0 9.158e+03 7.633e-11
 57.55726    -28.4 9.301e+03 1.032e-10
 57.59370    -26.9 9.178e+03 9.655e-11
 57.63413    -25.1 9.155e+03 9.869e-11
 57.67087    -23.2 9.159e+03 1.070e-10
 57.69108    -22.8 9.177e+03 9.768e-11
 57.71500    -20.8 9.216e+03 1.105e-10
 57.75543    -18.9 9.282e+03 1.320e-10
 57.79586    -17.0 9.405e+03 1.661e-10
 57.83626    -15.6 9.629e+03 2.251e-10
 57.86826    -14.1 9.905e+03 3.395e-10
 57.88851    -14.8 9.814e+03 3.049e-10
 57.91716    -13.0 1.043e+04 5.206e-10
 57.95760    -12.4 1.104e+04 7.455e-10
 57.98783    -12.5 1.157e+04 1.100e-09
 58.00794    -12.3 1.181e+04 1.353e-09
 58.02168    -11.6 1.200e+04 1.526e-09
 58.03179    -11.3 1.179e+04 1.317e-09
 58.04384    -11.2 1.187e+04 1.300e-09
 58.05394    -11.3 1.162e+04 1.075e-09
 58.07880    -11.2 1.149e+04 9.855e-10
 58.11933    -11.1 1.124e+04 8.649e-10
 58.15976    -11.1 1.092e+04 7.221e-10
 58.18728    -11.0 1.077e+04 6.675e-10
 58.20684    -10.4 1.042e+04 5.108e-10
 58.21977    -10.2 1.028e+04 4.289e-10
 58.24063     -9.7 1.028e+04 4.243e-10
 58.28106     -9.2 1.036e+04 4.422e-10
 58.32150     -9.0 1.058e+04 5.044e-10
 58.35267     -8.8 1.090e+04 6.278e-10
 58.37289     -8.0 1.043e+04 4.112e-10
 58.40237     -7.7 1.074e+04 5.361e-10
 58.44280     -7.1 1.094e+04 6.346e-10
 58.48323     -6.4 1.100e+04 6.692e-10
 58.51807     -5.7 1.099e+04 6.569e-10
 58.53829     -4.7 1.085e+04 5.599e-10
 58.55102     -3.9 1.088e+04 5.691e-10
 58.56103     -4.2 1.092e+04 6.143e-10
 58.57401     -3.9 1.097e+04 6.210e-10
 58.59423     -3.6 1.101e+04 6.206e-10
 58.61068     -3.4 1.104e+04 6.280e-10
 58.62079     -2.9 1.106e+04 6.349e-10
 58.63466     -2.4 1.106e+04 6.452e-10
 58.65488     -2.1 1.109e+04 6.485e-10
 58.67510     -1.5 1.106e+04 6.383e-10
 58.69338     -1.4 1.108e+04 6.343e-10
 58.70359     -1.0 1.117e+04 6.818e-10
 58.72583     -0.0 1.099e+04 6.076e-10
 58.76627      1.0 1.074e+04 4.871e-10
 58.80670      1.9 1.054e+04 3.735e-10
 58.84713      2.7 1.039e+04 3.475e-10
 58.86908      3.5 1.042e+04 3.691e-10
 58.88401      3.9 1.044e+04 4.105e-10
 58.90249      4.0 1.038e+04 3.716e-10
 58.92800      5.1 1.037e+04 3.824e-10
 58.96843      6.5 1.022e+04 3.993e-10
 59.00887      7.9 1.014e+04 3.955e-10
 59.03448      9.3 1.003e+04 3.705e-10
 59.05470     10.0 9.907e+03 3.400e-10
 59.08973     11.4 9.777e+03 2.963e-10
 59.13017     12.7 9.624e+03 2.538e-10
 59.17060     14.0 9.494e+03 2.304e-10
 59.19988     15.5 9.472e+03 2.305e-10
 59.22009     16.6 9.273e+03 1.929e-10
 59.23374     18.2 9.275e+03 1.968e-10
 59.25396     18.5 9.278e+03 1.892e-10
 59.29190     20.2 9.304e+03 1.958e-10
 59.33233     21.8 9.374e+03 2.144e-10
 59.36527     23.4 9.469e+03 2.445e-10
 59.38549     24.6 9.261e+03 1.981e-10
 59.41320     26.3 9.379e+03 2.386e-10
 59.45363     28.0 9.529e+03 2.949e-10
 59.49407     29.9 9.678e+03 3.586e-10
 59.53067     31.7 9.803e+03 3.878e-10
 59.55089     33.0 9.641e+03 3.613e-10
 59.56500     34.9 9.742e+03 3.790e-10
 59.58521     35.0 9.584e+03 3.317e-10
 59.61537     36.9 9.595e+03 3.294e-10
 59.65580     38.7 9.564e+03 3.193e-10
 59.69607     40.6 9.502e+03 2.958e-10
 59.73650     43.7 9.496e+03 3.071e-10
 59.77710     45.6 9.420e+03 2.938e-10
 59.81753     47.6 9.376e+03 2.884e-10
 59.85797     49.9 9.408e+03 2.965e-10
 59.88168     52.2 9.562e+03 3.212e-10
 59.89975     53.3 9.805e+03 4.059e-10
 59.91647     53.7 9.749e+03 3.776e-10
 59.93883     55.1 9.956e+03 4.318e-10
 59.96428     55.9 1.005e+04 4.829e-10
 59.97429     56.2 1.020e+04 5.428e-10
 59.98918     57.2 1.045e+04 6.496e-10
 60.00940     58.2 1.071e+04 7.505e-10
 60.02961     59.1 1.094e+04 8.453e-10
 60.04688     60.0 1.113e+04 9.195e-10
 60.05699     60.1 1.123e+04 9.758e-10
 60.07005     60.9 1.133e+04 1.010e-09
 60.08190     61.8 1.144e+04 1.033e-09
 60.09201     62.1 1.157e+04 1.120e-09
 60.11048     62.5 1.177e+04 1.186e-09
 60.12958     62.4 1.208e+04 1.300e-09
 60.13969     62.5 1.179e+04 1.198e-09
 60.15091     62.0 1.238e+04 1.489e-09
 60.17113     61.9 1.373e+04 2.403e-09
 60.19135     62.2 1.483e+04 3.621e-09
 60.20646     63.0 1.505e+04 3.921e-09
 60.21652     63.3 1.555e+04 4.456e-09
 60.22229     63.6 1.668e+04 5.859e-09
 60.22735     63.9 1.542e+04 3.966e-09
 60.23674     64.3 1.650e+04 5.067e-09
 60.24685     64.7 1.749e+04 6.638e-09
 60.25248     64.5 1.944e+04 9.200e-09
 60.25754     65.8 1.956e+04 7.869e-09
 60.26364     61.1 2.585e+04 2.295e-08
 60.26870     60.8 2.488e+04 1.085e-08
 60.27717     48.9 2.790e+04 9.270e-08
 60.28429     41.7 2.609e+04 3.337e-07
 60.28679     39.3 2.447e+04 4.650e-07
 60.28976     36.8 2.369e+04 6.991e-07
 60.29384     33.9 2.328e+04 9.979e-07
 60.29637     31.3 2.070e+04 3.490e-06
 60.29987     27.3 1.988e+04 3.994e-06
 60.30492     27.3 1.998e+04 3.011e-06
 60.30997     26.2 2.019e+04 2.137e-06
 60.31758     27.8 2.208e+04 5.740e-07
 60.32771     27.7 2.523e+04 1.252e-07
 60.33530     23.1 3.153e+04 2.221e-08
 60.34035     25.3 3.786e+04 2.193e-08
 60.34634     16.3 3.823e+04 5.429e-09
 60.35139     22.1 4.167e+04 6.973e-09
 60.35804      8.1 3.030e+04 7.528e-09
 60.36815    -17.9 3.775e+04 1.204e-08
 60.37826    -32.5 2.987e+04 6.327e-08
 60.38769    -34.8 2.232e+04 2.351e-07
 60.39274    -35.1 2.325e+04 1.460e-07
 60.39847    -34.4 2.132e+04 2.683e-07
 60.40858    -34.3 2.297e+04 1.943e-07
 60.41811    -36.5 2.799e+04 7.187e-08
 60.42316    -40.4 3.260e+04 4.780e-08
 60.42880    -50.4 3.984e+04 6.897e-09
 60.43409    -65.8 2.532e+04 2.065e-09
 60.43915    -57.6 3.515e+04 3.611e-09
 60.45412    -71.0 1.798e+04 1.556e-09
 60.47049    -73.7 1.160e+04 1.122e-09
 60.48059    -73.2 1.272e+04 1.482e-09
 60.49460    -72.0 1.192e+04 1.369e-09
 60.51482    -70.4 1.189e+04 1.327e-09
 60.53503    -68.9 1.176e+04 1.262e-09
 60.55318    -67.6 1.162e+04 1.150e-09
 60.56329    -67.4 1.217e+04 1.508e-09
 60.57888    -65.7 1.210e+04 1.429e-09
 60.59909    -67.3 1.209e+04 1.486e-09
 60.62611    -66.8 1.206e+04 1.470e-09
 60.66664    -65.4 1.190e+04 1.403e-09
 60.70707    -64.1 1.180e+04 1.384e-09
 60.72889    -62.8 1.149e+04 1.267e-09
 60.74910    -62.1 1.193e+04 1.495e-09
 60.78794    -60.7 1.122e+04 1.038e-09
 60.82837    -59.7 1.035e+04 6.594e-10
 60.86880    -59.2 9.715e+03 4.581e-10
 60.89428    -58.7 9.527e+03 4.076e-10
 60.91450    -58.1 1.017e+04 5.844e-10
 60.93045    -57.4 1.006e+04 5.851e-10
 60.95066    -58.8 1.008e+04 6.028e-10
 60.99010    -57.9 9.985e+03 5.921e-10
 61.03054    -57.0 9.810e+03 5.220e-10
 61.05968    -56.6 9.629e+03 4.314e-10
 61.07990    -56.6 1.013e+04 5.963e-10
 61.11140    -56.6 1.005e+04 5.430e-10
 61.15184    -56.6 9.946e+03 4.923e-10
 61.19227    -56.5 9.850e+03 4.460e-10
 61.22508    -56.5 9.915e+03 4.350e-10
 61.24520    -56.3 1.009e+04 4.839e-10
 61.26150    -56.6 1.003e+04 4.559e-10
 61.27161    -57.2 1.008e+04 4.561e-10
 61.28305    -58.3 1.042e+04 5.394e-10
 61.30327    -58.9 1.068e+04 7.023e-10
 61.31769    -59.1 1.096e+04 9.047e-10
 61.32780    -59.2 1.135e+04 1.079e-09
 61.34370    -59.0 1.174e+04 1.371e-09
 61.36392    -58.7 1.202e+04 1.492e-09
 61.38413    -58.5 1.212e+04 1.468e-09
 61.40039    -58.6 1.194e+04 1.133e-09
 61.41050    -57.9 1.274e+04 1.713e-09
 61.42457    -58.3 1.234e+04 1.137e-09
 61.43724    -60.0 1.147e+04 7.256e-10
 61.44735    -60.3 1.169e+04 7.201e-10
 61.46500    -62.5 1.080e+04 5.059e-10
 61.48309    -64.1 1.061e+04 4.548e-10
 61.49320    -64.4 1.150e+04 5.901e-10
 61.50543    -66.5 1.138e+04 5.693e-10
 61.52565    -68.4 1.133e+04 5.940e-10
 61.55577    -69.7 1.119e+04 6.291e-10
 61.57599    -70.8 1.200e+04 1.034e-09
 61.59286    -72.7 1.179e+04 9.010e-10
 61.61307    -74.8 1.218e+04 9.357e-10
 61.63694    -79.2 1.225e+04 9.198e-10
 61.67747    -82.7 1.179e+04 9.020e-10
 61.70770    -83.7 1.157e+04 9.137e-10
 61.72782    -84.4 1.129e+04 8.865e-10
 61.74129    -84.9 1.099e+04 7.831e-10
 61.75140    -85.3 1.103e+04 8.282e-10
 61.76825    -85.7 1.075e+04 6.748e-10
 61.77860    -86.1 1.044e+04 5.393e-10
 61.78871    -87.0 1.026e+04 4.593e-10
 61.80868    -87.3 9.948e+03 3.792e-10
 61.83911    -87.0 9.791e+03 3.593e-10
 61.87964    -86.4 9.666e+03 3.390e-10
 61.90688    -85.9 9.628e+03 3.365e-10
 61.92710    -87.2 9.352e+03 2.833e-10
 61.94442    -87.5 9.435e+03 3.040e-10
 61.96464    -88.3 9.043e+03 2.255e-10
 62.00094    -89.0 9.967e+03 3.785e-10
 62.04137    -89.9 1.124e+04 7.714e-10
 62.07160    -91.5 1.138e+04 9.728e-10
 62.08219    -92.6 1.169e+04 1.334e-09
 62.09230    -92.4 1.109e+04 9.656e-10
 62.10986    -92.8 1.127e+04 1.118e-09
 62.11996    -93.0 1.123e+04 1.122e-09
 62.13215    -93.3 1.127e+04 1.157e-09
 62.15237    -93.3 1.118e+04 1.120e-09
 62.16489    -93.3 1.087e+04 9.032e-10
 62.17500    -93.5 1.065e+04 7.442e-10
 62.19280    -93.8 1.039e+04 5.652e-10
 62.21302    -94.1 1.013e+04 4.398e-10
 62.23758    -94.3 9.921e+03 3.564e-10
 62.25790    -94.4 9.797e+03 3.386e-10
 62.27568    -94.0 9.403e+03 2.395e-10
 62.29589    -94.3 9.490e+03 2.568e-10
 62.32441    -93.7 9.168e+03 1.835e-10
 62.36484    -92.9 9.075e+03 1.505e-10
 62.40308    -92.1 9.073e+03 1.423e-10
 62.42329    -91.8 8.883e+03 1.082e-10
 62.44571    -90.9 8.903e+03 1.059e-10
 62.48614    -90.0 8.985e+03 1.089e-10
 62.52657    -89.4 9.177e+03 1.411e-10
 62.56701    -88.8 9.430e+03 2.153e-10
 62.58869    -88.2 9.870e+03 3.410e-10
 62.60840    -88.2 9.704e+03 2.907e-10
 62.62715    -88.4 9.745e+03 3.095e-10
 62.64787    -88.0 1.026e+04 4.690e-10
 62.68831    -87.8 1.071e+04 6.105e-10
 62.71853    -87.4 1.073e+04 5.926e-10
 62.73865    -87.5 1.075e+04 5.980e-10
 62.75389    -87.5 1.076e+04 5.630e-10
 62.76400    -87.3 1.064e+04 5.015e-10
 62.77909    -87.4 1.059e+04 4.346e-10
 62.80951    -87.5 1.052e+04 3.673e-10
 62.85004    -87.2 1.034e+04 2.746e-10
 62.89047    -86.3 1.014e+04 2.032e-10
 62.91948    -85.0 9.991e+03 1.604e-10
 62.93970    -84.4 9.978e+03 1.507e-10
 62.95840    -83.0 9.907e+03 1.256e-10
 62.97862    -82.9 9.840e+03 1.205e-10
 63.01177    -81.3 9.825e+03 1.157e-10
 63.05221    -79.6 9.831e+03 1.154e-10
 63.08488    -77.9 9.859e+03 1.171e-10
 63.10510    -77.5 9.966e+03 1.148e-10
 63.13307    -76.1 1.008e+04 1.273e-10
 63.17351    -74.6 1.013e+04 1.479e-10
 63.21394    -73.1 1.024e+04 1.767e-10
 63.25028    -71.8 1.047e+04 2.243e-10
 63.27050    -71.6 1.086e+04 3.639e-10
 63.28460    -70.7 1.123e+04 4.873e-10
 63.29957    -70.8 1.129e+04 5.137e-10
 63.30977    -70.7 1.129e+04 5.177e-10
 63.32504    -70.1 1.165e+04 6.706e-10
 63.34289    -70.3 1.176e+04 7.435e-10
 63.35300    -70.4 1.189e+04 8.341e-10
 63.37558    -70.3 1.233e+04 1.106e-09
 63.41568    -70.8 1.293e+04 1.563e-09
 63.43580    -71.7 1.369e+04 2.431e-09
 63.44624    -71.9 1.384e+04 2.701e-09
 63.46519    -71.9 1.361e+04 2.456e-09
 63.47530    -71.7 1.363e+04 2.485e-09
 63.48667    -71.4 1.322e+04 1.997e-09
 63.50689    -71.1 1.262e+04 1.401e-09
 63.51840    -70.9 1.201e+04 8.799e-10
 63.52851    -71.3 1.182e+04 7.459e-10
 63.54732    -71.3 1.138e+04 4.288e-10
 63.57774    -71.7 1.107e+04 2.369e-10
 63.60129    -71.1 1.055e+04 1.222e-10
 63.62151    -71.0 1.027e+04 1.046e-10
 63.64113    -69.8 1.004e+04 7.218e-11
 63.66134    -69.2 1.028e+04 7.863e-11
 63.69914    -67.9 1.015e+04 6.859e-11
 63.73958    -66.3 1.017e+04 6.796e-11
 63.76669    -64.9 1.039e+04 7.506e-11
 63.78690    -65.0 1.040e+04 7.842e-11
 63.82044    -63.8 1.042e+04 1.122e-10
 63.86088    -62.6 1.044e+04 1.666e-10
 63.90131    -61.4 1.054e+04 2.521e-10
 63.93209    -60.4 1.080e+04 3.828e-10
 63.95230    -59.9 1.072e+04 3.797e-10
 63.97238    -59.0 1.096e+04 4.819e-10
 63.99260    -58.7 1.096e+04 4.867e-10
 64.02261    -58.1 1.121e+04 5.298e-10
 64.06304    -57.9 1.129e+04 5.216e-10
 64.09748    -57.9 1.123e+04 4.734e-10
 64.11770    -57.4 1.117e+04 4.642e-10
 64.14391    -57.3 1.118e+04 4.002e-10
 64.18434    -57.2 1.110e+04 3.188e-10
 64.22478    -56.8 1.095e+04 2.294e-10
 64.26288    -56.4 1.083e+04 1.558e-10
 64.28310    -55.6 1.070e+04 1.834e-10
 64.30363    -55.2 1.065e+04 1.243e-10
 64.32385    -54.7 1.067e+04 1.151e-10
 64.34608    -54.6 1.069e+04 1.015e-10
 64.38651    -54.8 1.092e+04 1.197e-10
 64.42694    -55.0 1.095e+04 2.643e-10
 64.44849    -53.6 1.132e+04 5.365e-10
 64.46871    -53.1 1.108e+04 4.368e-10
 64.50781    -51.3 1.181e+04 7.836e-10
 64.54824    -50.5 1.237e+04 9.435e-10
 64.58868    -51.1 1.264e+04 9.757e-10
 64.61389    -52.1 1.266e+04 9.415e-10
 64.63411    -50.4 1.273e+04 9.858e-10
 64.65510    -51.0 1.268e+04 9.897e-10
 64.67532    -50.6 1.290e+04 1.182e-09
 64.70998    -50.8 1.284e+04 1.157e-09
 64.75041    -51.2 1.262e+04 8.628e-10
 64.77929    -52.0 1.227e+04 6.415e-10
 64.79951    -50.3 1.228e+04 5.860e-10
 64.83128    -50.9 1.206e+04 5.221e-10
 64.87171    -50.7 1.200e+04 5.617e-10
 64.91214    -50.1 1.200e+04 5.797e-10
 64.94469    -49.5 1.197e+04 4.737e-10
 64.96490    -48.5 1.216e+04 6.339e-10
 64.98636    -48.2 1.213e+04 5.245e-10
 65.00657    -48.4 1.232e+04 6.105e-10
 65.03344    -48.3 1.216e+04 5.342e-10
 65.07388    -47.5 1.199e+04 5.116e-10
 65.11008    -46.3 1.173e+04 4.751e-10
 65.13030    -45.6 1.217e+04 7.668e-10
 65.15474    -44.0 1.189e+04 6.227e-10
 65.19518    -42.3 1.159e+04 4.289e-10
 65.23561    -40.6 1.135e+04 2.784e-10
 65.27548    -38.6 1.125e+04 1.754e-10
 65.29570    -37.8 1.136e+04 2.480e-10
 65.31648    -35.7 1.132e+04 1.577e-10
 65.33783    -33.9 1.145e+04 1.068e-10
 65.35804    -33.9 1.148e+04 1.420e-10
 65.39735    -32.4 1.157e+04 1.171e-10
 65.43778    -30.5 1.177e+04 1.164e-10
 65.46109    -28.5 1.166e+04 1.504e-10
 65.48131    -27.6 1.169e+04 2.207e-10
 65.51865    -25.8 1.186e+04 2.554e-10
 65.55908    -24.3 1.184e+04 3.387e-10
 65.59951    -22.6 1.178e+04 5.054e-10
 65.62649    -21.1 1.206e+04 6.664e-10
 65.64671    -20.8 1.239e+04 8.740e-10
 65.66908    -19.9 1.272e+04 9.593e-10
 65.68930    -20.1 1.285e+04 1.055e-09
 65.72081    -20.1 1.321e+04 1.224e-09
 65.75104    -20.7 1.320e+04 1.253e-09
 65.77116    -21.1 1.350e+04 1.430e-09
 65.79138    -21.5 1.368e+04 1.842e-09
 65.80180    -22.0 1.412e+04 2.250e-09
 65.81201    -22.0 1.309e+04 1.528e-09
 65.83191    -22.2 1.343e+04 2.251e-09
 65.84462    -21.5 1.364e+04 2.583e-09
 65.85473    -21.3 1.361e+04 2.590e-09
 65.87224    -20.2 1.366e+04 2.724e-09
 65.88450    -19.4 1.365e+04 2.623e-09
 65.89461    -19.7 1.272e+04 1.378e-09
 65.91268    -19.9 1.281e+04 1.047e-09
 65.93289    -20.5 1.257e+04 9.352e-10
 65.95719    -21.2 1.267e+04 1.155e-09
 65.97750    -22.1 1.108e+04 5.336e-10
 66.00033    -22.2 1.069e+04 5.588e-10
 66.02055    -20.9 1.126e+04 6.954e-10
 66.04428    -20.4 1.094e+04 7.290e-10
 66.08471    -19.0 1.028e+04 4.937e-10
 66.12268    -18.1 9.588e+03 2.293e-10
 66.14290    -17.1 9.184e+03 1.711e-10
 66.16558    -18.0 8.883e+03 8.358e-11
 66.20601    -17.9 8.644e+03 8.477e-11
 66.24645    -18.6 8.999e+03 1.395e-10
 66.28688    -19.2 9.957e+03 3.155e-10
 66.30830    -19.5 1.097e+04 7.337e-10
 66.32852    -19.1 1.098e+04 7.216e-10
 66.35180    -18.5 1.168e+04 1.416e-09
 66.37202    -18.9 1.209e+04 1.638e-09
 66.40818    -19.7 1.210e+04 1.632e-09
 66.44861    -20.6 1.148e+04 1.141e-09
 66.47370    -21.8 1.042e+04 6.548e-10
 66.49391    -20.9 1.086e+04 8.709e-10
 66.52948    -21.6 9.759e+03 3.710e-10
 66.56991    -22.4 8.863e+03 2.082e-10
 66.61035    -22.4 8.580e+03 1.447e-10
 66.63909    -22.5 8.702e+03 1.255e-10
 66.65931    -23.9 9.341e+03 2.077e-10
 66.68306    -27.0 1.020e+04 4.879e-10
 66.70327    -26.9 1.004e+04 5.045e-10
 66.72144    -27.9 1.043e+04 8.891e-10
 66.73170    -27.5 1.054e+04 1.274e-09
 66.74181    -26.7 1.073e+04 1.498e-09
 66.76178    -25.1 1.092e+04 1.678e-09
 66.78199    -23.9 1.102e+04 1.633e-09
 66.80221    -23.1 1.124e+04 1.210e-09
 66.81440    -24.3 1.086e+04 9.230e-10
 66.82451    -25.4 1.038e+04 6.800e-10
 66.84264    -27.3 9.706e+03 4.770e-10
 66.85860    -28.6 9.265e+03 4.151e-10
 66.86871    -28.1 9.413e+03 4.351e-10
 66.89328    -29.3 9.026e+03 4.012e-10
 66.93381    -29.7 9.458e+03 5.829e-10
 66.96989    -28.9 1.003e+04 8.071e-10
 66.99010    -29.2 9.995e+03 8.419e-10
 67.01431    -28.8 1.031e+04 9.462e-10
 67.03453    -28.4 1.037e+04 9.858e-10
 67.05512    -28.5 1.030e+04 9.075e-10
 67.09555    -28.5 9.825e+03 7.611e-10
 67.13528    -28.1 9.377e+03 5.573e-10
 67.15550    -27.9 8.790e+03 3.938e-10
 67.17642    -27.6 8.508e+03 2.744e-10
 67.21685    -28.1 8.394e+03 2.387e-10
 67.25728    -28.2 8.445e+03 2.848e-10
 67.29772    -27.1 8.637e+03 3.710e-10
 67.32090    -25.4 8.767e+03 4.110e-10
 67.34112    -24.6 8.913e+03 4.471e-10
 67.36578    -23.2 8.966e+03 4.235e-10
 67.38600    -23.4 9.491e+03 5.590e-10
 67.41902    -22.8 9.530e+03 5.184e-10
 67.45945    -22.6 9.452e+03 4.941e-10
 67.48630    -22.2 9.403e+03 4.369e-10
 67.50651    -23.2 1.092e+04 9.947e-10
 67.54032    -22.0 1.077e+04 7.479e-10
 67.58075    -21.3 1.008e+04 5.668e-10
 67.61098    -20.8 1.037e+04 5.913e-10
 67.63110    -20.3 1.047e+04 6.053e-10
 67.65131    -19.3 1.042e+04 6.620e-10
 67.66161    -18.0 1.051e+04 7.059e-10
 67.67172    -18.9 1.208e+04 1.296e-09
 67.69175    -17.2 1.192e+04 1.255e-09
 67.70695    -15.0 1.169e+04 1.202e-09
 67.71706    -15.4 1.233e+04 1.565e-09
 67.73218    -13.4 1.234e+04 1.522e-09
 67.74431    -11.7 1.236e+04 1.435e-09
 67.75441    -11.6 1.333e+04 2.299e-09
 67.77261     -9.7 1.349e+04 2.304e-09
 67.79283     -7.7 1.389e+04 2.452e-09
 67.81305     -5.7 1.464e+04 2.862e-09
 67.82696     -4.9 1.573e+04 3.615e-09
 67.83196     -4.4 1.533e+04 4.374e-09
 67.83822     -3.9 1.642e+04 5.043e-09
 67.84833     -6.6 2.249e+04 7.602e-09
 67.85844    -14.4 3.177e+04 2.410e-08
 67.86599    -17.2 3.376e+04 3.741e-08
 67.87073    -18.6 3.394e+04 4.732e-08
 67.87326    -17.4 3.515e+04 4.825e-08
 67.87608    -21.0 2.784e+04 1.884e-07
 67.88001    -23.2 2.408e+04 4.074e-07
 67.88254    -18.7 2.928e+04 1.462e-07
 67.88619    -22.1 2.401e+04 5.482e-07
 67.89124    -24.5 2.148e+04 1.069e-06
 67.89394    -24.6 1.964e+04 2.329e-06
 67.89646    -23.8 1.945e+04 3.371e-06
 67.90135    -24.5 1.840e+04 5.844e-06
 67.90640    -23.9 1.783e+04 8.891e-06
 67.91146    -21.6 1.747e+04 1.007e-05
 67.91461    -17.5 1.705e+04 1.500e-05
 67.91714    -16.4 1.704e+04 1.514e-05
 67.92142    -14.3 1.732e+04 1.357e-05
 67.92394    -14.2 1.713e+04 1.683e-05
 67.92662    -15.9 1.767e+04 1.177e-05
 67.93167    -18.1 1.831e+04 5.459e-06
 67.93529    -18.8 1.880e+04 2.557e-06
 67.93781    -19.6 1.956e+04 1.606e-06
 67.94178    -19.7 2.026e+04 8.236e-07
 67.94939    -18.9 2.445e+04 2.349e-07
 67.95601    -22.4 3.417e+04 4.322e-08
 67.96106    -31.4 3.972e+04 2.880e-08
 67.96540    -40.8 4.328e+04 1.179e-08
 67.97045    -35.6 4.456e+04 2.379e-08
 67.97974    -50.4 3.614e+04 1.268e-08
 67.99235    -61.6 2.297e+04 9.709e-09
 68.00251    -69.0 1.866e+04 1.044e-08
 68.01521    -70.0 1.737e+04 8.848e-09
 68.03543    -69.4 1.668e+04 6.737e-09
 68.04831    -69.0 1.567e+04 4.239e-09
 68.05842    -71.7 1.485e+04 2.757e-09
 68.07510    -72.1 1.339e+04 1.498e-09
 68.08521    -74.0 1.191e+04 1.059e-09
 68.09608    -74.0 1.092e+04 6.578e-10
 68.11630    -73.7 1.028e+04 4.503e-10
 68.13651    -73.0 9.925e+03 3.493e-10
 68.15673    -72.2 9.802e+03 3.047e-10
 68.16791    -71.5 9.783e+03 2.902e-10
 68.18822    -71.0 9.757e+03 2.757e-10
 68.22768    -70.0 9.574e+03 2.558e-10
 68.26812    -69.0 9.541e+03 2.590e-10
 68.30855    -68.2 9.692e+03 3.035e-10
 68.33350    -67.2 9.923e+03 3.600e-10
 68.35372    -65.8 9.597e+03 3.085e-10
 68.37976    -64.9 9.760e+03 3.363e-10
 68.39998    -65.3 1.006e+04 4.136e-10
 68.42985    -64.6 1.016e+04 4.393e-10
 68.47028    -63.9 1.013e+04 4.093e-10
 68.49890    -63.2 9.958e+03 3.541e-10
 68.51911    -61.9 9.861e+03 3.562e-10
 68.55115    -61.2 9.771e+03 3.234e-10
 68.59158    -60.4 9.674e+03 2.878e-10
 68.63202    -59.5 9.628e+03 2.683e-10
 68.66429    -58.5 9.695e+03 2.738e-10
 68.68451    -57.3 9.443e+03 2.195e-10
 68.71101    -56.3 9.472e+03 2.144e-10
 68.73123    -56.7 9.491e+03 2.242e-10
 68.75332    -55.5 9.565e+03 2.447e-10
 68.79375    -54.1 9.656e+03 2.868e-10
 68.82969    -52.7 9.758e+03 3.199e-10
 68.84991    -52.6 9.894e+03 3.542e-10
 68.87462    -51.3 1.010e+04 4.399e-10
 68.91505    -49.7 1.020e+04 4.808e-10
 68.95549    -48.3 9.902e+03 4.085e-10
 68.99509    -46.8 9.586e+03 3.135e-10
 69.01531    -46.5 9.758e+03 3.895e-10
 69.03635    -45.0 9.231e+03 2.398e-10
 69.06248    -43.5 8.849e+03 1.609e-10
 69.08270    -43.1 8.919e+03 1.665e-10
 69.11722    -41.6 8.793e+03 1.448e-10
 69.15765    -40.4 8.918e+03 1.546e-10
 69.18070    -40.1 9.258e+03 2.334e-10
 69.20092    -39.4 9.186e+03 2.069e-10
 69.23852    -39.3 9.797e+03 4.063e-10
 69.27895    -38.5 1.063e+04 7.386e-10
 69.30918    -37.4 1.138e+04 1.100e-09
 69.32930    -37.6 1.147e+04 1.121e-09
 69.34591    -38.1 1.148e+04 1.062e-09
 69.35601    -37.7 1.164e+04 1.140e-09
 69.36973    -38.0 1.161e+04 1.053e-09
 69.38995    -40.2 1.164e+04 8.899e-10
 69.40365    -43.7 1.318e+04 1.197e-09
 69.41376    -46.4 1.422e+04 1.782e-09
 69.42860    -49.0 1.470e+04 3.263e-09
 69.43871    -47.7 1.385e+04 2.246e-09
 69.45060    -48.8 1.430e+04 3.691e-09
 69.47082    -49.1 1.528e+04 5.214e-09
 69.49103    -49.6 1.654e+04 6.480e-09
 69.51125    -51.0 1.706e+04 6.867e-09
 69.53147    -50.6 1.641e+04 5.063e-09
 69.55168    -52.0 1.499e+04 4.007e-09
 69.56928    -52.2 1.393e+04 3.181e-09
 69.57938    -52.5 1.459e+04 4.414e-09
 69.59212    -51.9 1.429e+04 3.523e-09
 69.60411    -51.8 1.397e+04 2.524e-09
 69.61422    -50.4 1.389e+04 2.620e-09
 69.63255    -51.0 1.356e+04 1.949e-09
 69.65277    -52.3 1.285e+04 1.564e-09
 69.67298    -53.1 1.242e+04 1.456e-09
 69.68681    -54.3 1.381e+04 2.050e-09
 69.69692    -51.5 1.237e+04 1.481e-09
 69.71342    -53.0 1.444e+04 2.189e-09
 69.73363    -56.2 1.803e+04 4.700e-09
 69.74501    -59.0 1.966e+04 1.134e-08
 69.75512    -57.0 1.986e+04 7.467e-09
 69.76951    -59.8 2.061e+04 1.766e-08
 69.77962    -59.1 2.129e+04 1.045e-08
 69.78918    -61.7 2.037e+04 2.813e-08
 69.79924    -62.0 1.986e+04 4.241e-08
 69.80935    -62.0 1.968e+04 5.652e-08
 69.81581    -61.4 1.966e+04 6.485e-08
 69.82087    -62.2 1.963e+04 7.499e-08
 69.82773    -61.7 1.968e+04 7.890e-08
 69.83278    -62.3 1.999e+04 1.110e-07
 69.83967    -61.7 1.998e+04 1.047e-07
 69.84978    -60.7 2.056e+04 5.841e-08
 69.85716    -60.6 2.233e+04 2.096e-08
 69.86222    -62.0 2.100e+04 2.629e-08
 69.87510    -67.2 2.152e+04 7.965e-09
 69.89537    -74.0 1.875e+04 2.270e-09
 69.91064    -79.5 1.363e+04 7.662e-10
 69.92075    -79.6 1.457e+04 1.040e-09
 69.93490    -81.5 1.210e+04 6.453e-10
 69.94501    -80.3 1.335e+04 9.893e-10
 69.95602    -81.4 1.178e+04 7.059e-10
 69.97623    -81.4 1.133e+04 6.300e-10
 69.99645    -80.7 1.114e+04 5.678e-10
 70.01667    -79.8 1.093e+04 4.804e-10
 70.02771    -79.2 1.069e+04 3.787e-10
 70.03782    -79.0 1.071e+04 3.937e-10
 70.05710    -78.4 1.045e+04 2.933e-10
 70.07636    -77.7 1.016e+04 2.170e-10
 70.08647    -78.5 1.031e+04 2.510e-10
 70.09753    -78.2 1.016e+04 2.173e-10
 70.12796    -77.7 1.007e+04 2.034e-10
 70.16849    -76.0 9.929e+03 1.822e-10
 70.19330    -75.3 1.011e+04 1.979e-10
 70.21352    -74.2 9.867e+03 1.953e-10
 70.24935    -73.9 1.040e+04 3.196e-10
 70.28979    -73.8 1.135e+04 6.659e-10
 70.32002    -73.2 1.181e+04 9.191e-10
 70.34013    -74.4 1.240e+04 1.293e-09
 70.35851    -75.6 1.291e+04 1.739e-09
 70.36861    -74.8 1.263e+04 1.377e-09
 70.38057    -76.2 1.286e+04 1.732e-09
 70.40078    -77.6 1.288e+04 1.883e-09
 70.41763    -78.7 1.273e+04 1.873e-09
 70.42774    -77.8 1.264e+04 1.812e-09
 70.44120    -78.7 1.211e+04 1.446e-09
 70.46142    -79.1 1.127e+04 8.984e-10
 70.48165    -80.8 1.058e+04 5.831e-10
 70.50187    -83.0 1.037e+04 4.938e-10
 70.52208    -85.8 1.049e+04 4.904e-10
 70.53401    -90.1 1.204e+04 7.888e-10
 70.54412    -92.8 1.330e+04 1.317e-09
 70.56252    -94.5 1.452e+04 3.334e-09
 70.58273    -94.6 1.554e+04 6.237e-09
 70.59336    -94.5 1.621e+04 8.205e-09
 70.60347    -94.3 1.581e+04 7.465e-09
 70.61671    -94.4 1.604e+04 8.177e-09
 70.62682    -94.2 1.645e+04 9.719e-09
 70.64338    -94.5 1.594e+04 7.081e-09
 70.66360    -95.6 1.479e+04 3.910e-09
 70.68382    -97.9 1.320e+04 1.937e-09
 70.69941   -100.7 1.148e+04 1.053e-09
 70.70952   -101.5 1.049e+04 6.773e-10
 70.72425   -102.3 9.717e+03 4.600e-10
 70.74447   -102.3 9.409e+03 3.666e-10
 70.75909   -101.9 9.162e+03 2.972e-10
 70.77940   -102.3 8.975e+03 2.462e-10
 70.81542   -101.5 8.618e+03 1.809e-10
 70.85489   -100.0 8.192e+03 1.187e-10
 70.87511    -99.8 8.020e+03 8.483e-11
 70.89629    -98.5 7.963e+03 6.902e-11
 70.93672    -96.9 7.926e+03 6.342e-11
 70.97716    -95.1 7.878e+03 6.138e-11
 71.01759    -93.0 7.855e+03 6.060e-11
 71.04051    -90.8 7.855e+03 6.071e-11
 71.06072    -90.2 7.855e+03 6.306e-11
 71.09044    -88.0 7.923e+03 6.666e-11
 71.11065    -89.3 7.859e+03 6.350e-11
 71.13889    -87.5 8.038e+03 7.150e-11
 71.17932    -86.0 8.321e+03 9.666e-11
 71.20590    -84.7 8.778e+03 1.523e-10
 71.22612    -83.6 8.612e+03 1.415e-10
 71.26019    -82.3 9.288e+03 2.464e-10
 71.30062    -80.7 1.002e+04 4.498e-10
 71.34106    -79.1 1.064e+04 7.201e-10
 71.37130    -77.4 1.114e+04 9.875e-10
 71.39152    -76.5 1.096e+04 8.877e-10
 71.42169    -74.9 1.132e+04 1.082e-09
 71.44191    -77.7 1.088e+04 7.800e-10
 71.46236    -76.1 1.073e+04 6.467e-10
 71.50279    -74.3 1.061e+04 5.257e-10
 71.53670    -72.4 1.060e+04 4.355e-10
 71.55692    -71.7 1.083e+04 5.041e-10
 71.57345    -70.8 1.058e+04 4.266e-10
 71.59357    -70.4 1.044e+04 3.868e-10
 71.60734    -69.5 1.035e+04 3.516e-10
 71.61745    -69.9 1.029e+04 3.412e-10
 71.62931    -69.4 1.027e+04 3.395e-10
 71.63942    -69.3 1.030e+04 3.517e-10
 71.66443    -67.3 1.045e+04 3.544e-10
 71.70210    -65.2 1.060e+04 3.503e-10
 71.72222    -65.0 1.062e+04 4.033e-10
 71.73509    -63.7 1.077e+04 4.190e-10
 71.75530    -63.0 1.080e+04 4.267e-10
 71.77306    -61.3 1.091e+04 4.404e-10
 71.79338    -62.5 1.075e+04 4.216e-10
 71.82626    -60.2 1.091e+04 4.464e-10
 71.86669    -58.3 1.116e+04 5.151e-10
 71.88771    -56.5 1.155e+04 6.887e-10
 71.90793    -57.1 1.238e+04 1.132e-09
 71.93735    -54.9 1.239e+04 1.156e-09
 71.94870    -54.6 1.265e+04 1.347e-09
 71.95881    -55.6 1.251e+04 1.338e-09
 71.97021    -54.5 1.270e+04 1.589e-09
 71.98032    -55.3 1.282e+04 1.799e-09
 71.99790    -54.8 1.291e+04 1.902e-09
 72.01812    -54.5 1.319e+04 2.016e-09
 72.03834    -54.7 1.366e+04 2.118e-09
 72.05291    -55.7 1.429e+04 2.431e-09
 72.06302    -57.0 1.422e+04 2.222e-09
 72.07877    -58.2 1.443e+04 2.854e-09
 72.09899    -58.7 1.454e+04 3.684e-09
 72.11433    -58.8 1.469e+04 4.297e-09
 72.12444    -59.4 1.370e+04 3.067e-09
 72.13561    -59.3 1.367e+04 3.074e-09
 72.14572    -59.7 1.371e+04 3.118e-09
 72.15964    -59.5 1.342e+04 2.675e-09
 72.17985    -59.6 1.298e+04 2.074e-09
 72.20007    -60.1 1.258e+04 1.652e-09
 72.21831    -60.5 1.226e+04 1.425e-09
 72.22842    -60.7 1.239e+04 1.501e-09
 72.24050    -60.9 1.224e+04 1.403e-09
 72.26072    -60.9 1.218e+04 1.353e-09
 72.27996    -61.0 1.219e+04 1.356e-09
 72.29006    -61.7 1.205e+04 1.271e-09
 72.30101    -62.1 1.226e+04 1.426e-09
 72.31112    -62.4 1.247e+04 1.554e-09
 72.32137    -62.8 1.266e+04 1.724e-09
 72.34159    -63.3 1.279e+04 1.877e-09
 72.36180    -63.7 1.285e+04 1.978e-09
 72.38202    -64.5 1.301e+04 2.062e-09
 72.39382    -67.1 1.384e+04 2.250e-09
 72.40392    -67.7 1.390e+04 1.895e-09
 72.42245    -75.0 1.706e+04 2.937e-09
 72.44267    -81.6 1.820e+04 6.463e-09
 72.45569    -84.7 1.827e+04 1.232e-08
 72.46580    -86.4 1.839e+04 1.433e-08
 72.47651    -87.6 1.845e+04 1.711e-08
 72.48662    -87.4 1.865e+04 1.981e-08
 72.50332    -88.6 1.806e+04 1.605e-08
 72.52354    -90.6 1.716e+04 9.331e-09
 72.54376    -95.3 1.623e+04 5.371e-09
 72.55921   -100.8 1.569e+04 4.450e-09
 72.56932   -101.2 1.467e+04 2.768e-09
 72.58419   -104.3 1.442e+04 2.642e-09
 72.60441   -106.2 1.445e+04 2.666e-09
 72.62132   -107.8 1.459e+04 2.635e-09
 72.63143   -109.1 1.426e+04 2.140e-09
 72.64191   -110.7 1.396e+04 1.693e-09
 72.65202   -109.9 1.313e+04 9.624e-10
 72.66506   -111.8 1.259e+04 6.929e-10
 72.68527   -113.5 1.181e+04 5.415e-10
 72.70549   -114.3 1.117e+04 4.644e-10
 72.72461   -114.6 1.090e+04 4.179e-10
 72.73472   -113.2 1.068e+04 2.964e-10
 72.75613   -113.2 1.070e+04 3.021e-10
 72.78714   -113.6 1.080e+04 3.213e-10
 72.80736   -113.3 1.068e+04 2.900e-10
 72.83709   -113.4 1.083e+04 3.244e-10
 72.86732   -113.3 1.088e+04 4.017e-10
 72.88744   -114.0 1.107e+04 4.742e-10
 72.90012   -117.1 1.469e+04 5.441e-10
 72.91022   -114.6 1.138e+04 6.954e-10
 72.92787   -118.3 1.390e+04 9.249e-10
 72.94809   -128.4 2.187e+04 1.809e-09
 72.96268   -138.8 2.368e+04 5.037e-09
 72.97279   -137.7 2.508e+04 4.329e-09
 72.98281   -145.6 2.245e+04 9.612e-09
 72.99292   -141.7 2.123e+04 7.013e-09
 73.00874   -148.9 1.984e+04 1.015e-08
 73.02896   -153.4 1.849e+04 1.060e-08
 73.04917   -156.1 1.636e+04 6.754e-09
 73.06551   -158.5 1.435e+04 2.475e-09
 73.07562   -156.2 1.520e+04 4.488e-09
 73.08961   -158.2 1.322e+04 1.605e-09
 73.10982   -160.1 1.104e+04 5.601e-10
 73.12831   -160.9 1.002e+04 3.122e-10
 73.13841   -160.4 1.024e+04 3.336e-10
 73.14821   -160.4 9.725e+03 2.595e-10
 73.15832   -159.2 1.010e+04 3.047e-10
 73.17047   -159.1 9.717e+03 2.532e-10
 73.20090   -158.6 9.685e+03 2.385e-10
 73.23111   -157.1 9.785e+03 2.473e-10
 73.24112   -156.9 9.806e+03 2.502e-10
 73.25134   -156.3 9.842e+03 2.564e-10
 73.27156   -155.5 1.000e+04 2.906e-10
 73.29177   -155.1 1.010e+04 3.294e-10
 73.30404   -154.6 1.029e+04 4.104e-10
 73.31415   -153.8 1.024e+04 3.565e-10
 73.32372   -153.4 1.040e+04 4.347e-10
 73.33383   -153.4 1.047e+04 4.387e-10
 73.35242   -152.7 1.073e+04 5.604e-10
 73.37264   -152.0 1.101e+04 7.079e-10
 73.39286   -151.3 1.133e+04 8.748e-10
 73.40642   -150.8 1.166e+04 1.045e-09
 73.41652   -151.6 1.206e+04 1.153e-09
 73.43329   -151.2 1.238e+04 1.360e-09
 73.45351   -150.7 1.261e+04 1.538e-09
 73.46967   -150.2 1.270e+04 1.645e-09
 73.47978   -149.6 1.320e+04 2.024e-09
 73.48912   -149.0 1.323e+04 2.119e-09
 73.49922   -149.4 1.374e+04 2.797e-09
 73.51416   -148.6 1.357e+04 2.666e-09
 73.53437   -147.8 1.333e+04 2.330e-09
 73.55459   -147.1 1.304e+04 1.954e-09
 73.57181   -146.4 1.273e+04 1.607e-09
 73.58192   -146.9 1.299e+04 1.838e-09
 73.59502   -146.3 1.269e+04 1.566e-09
 73.61524   -145.7 1.242e+04 1.376e-09
 73.63530   -145.0 1.220e+04 1.246e-09
 73.64540   -144.3 1.256e+04 1.571e-09
 73.65451   -143.5 1.235e+04 1.448e-09
 73.66462   -143.7 1.237e+04 1.576e-09
 73.67589   -142.7 1.219e+04 1.486e-09
 73.69611   -141.6 1.206e+04 1.411e-09
 73.71632   -140.5 1.196e+04 1.345e-09
 73.73654   -139.3 1.189e+04 1.284e-09
 73.74732   -138.2 1.185e+04 1.225e-09
 73.75743   -138.3 1.183e+04 1.136e-09
 73.77697   -137.2 1.181e+04 1.078e-09
 73.79719   -136.3 1.183e+04 1.042e-09
 73.81103   -135.4 1.185e+04 1.033e-09
 73.82114   -134.9 1.196e+04 9.776e-10
 73.83002   -134.2 1.198e+04 9.780e-10
 73.84013   -134.8 1.199e+04 7.942e-10
 73.85784   -134.4 1.218e+04 8.490e-10
 73.87806   -134.0 1.235e+04 1.017e-09
 73.89827   -133.5 1.260e+04 1.245e-09
 73.91272   -133.2 1.299e+04 1.538e-09
 73.92283   -134.3 1.300e+04 1.556e-09
 73.93871   -134.3 1.343e+04 1.948e-09
 73.95892   -134.5 1.391e+04 2.427e-09
 73.97666   -134.8 1.436e+04 2.985e-09
 73.98677   -134.5 1.451e+04 3.056e-09
 73.99542   -135.0 1.490e+04 3.595e-09
 74.00552   -135.9 1.451e+04 2.928e-09
 74.01957   -136.4 1.458e+04 2.905e-09
 74.03979   -137.0 1.454e+04 2.383e-09
 74.06001   -137.9 1.417e+04 1.770e-09
 74.07811   -139.2 1.371e+04 1.148e-09
 74.08822   -140.4 1.254e+04 6.640e-10
 74.10044   -141.7 1.184e+04 4.663e-10
 74.12066   -142.7 1.156e+04 3.666e-10
 74.14087   -142.9 1.165e+04 3.305e-10
 74.15249   -142.8 1.178e+04 3.221e-10
 74.16232   -143.9 1.170e+04 3.216e-10
 74.17092   -143.5 1.189e+04 3.100e-10
 74.18131   -143.6 1.189e+04 3.114e-10
 74.21173   -144.0 1.199e+04 3.188e-10
 74.24371   -142.5 1.185e+04 2.865e-10
 74.26392   -140.5 1.154e+04 1.955e-10
 74.29270   -139.2 1.156e+04 1.877e-10
 74.33313   -137.9 1.154e+04 1.797e-10
 74.37356   -136.4 1.147e+04 1.751e-10
 74.40910   -134.8 1.143e+04 1.751e-10
 74.42932   -133.9 1.133e+04 1.719e-10
 74.45443   -132.2 1.129e+04 1.670e-10
 74.48384   -130.5 1.129e+04 1.631e-10
 74.50406   -130.8 1.122e+04 1.402e-10
 74.53530   -129.0 1.123e+04 1.350e-10
 74.57450   -127.4 1.125e+04 1.344e-10
 74.59472   -126.8 1.122e+04 1.210e-10
 74.61616   -125.6 1.125e+04 1.204e-10
 74.65660   -124.7 1.151e+04 1.339e-10
 74.69703   -124.1 1.164e+04 2.063e-10
 74.73746   -123.4 1.173e+04 3.383e-10
 74.76012   -122.8 1.188e+04 4.943e-10
 74.78033   -122.2 1.178e+04 4.403e-10
 74.81509   -121.5 1.191e+04 5.518e-10
 74.83531   -121.5 1.173e+04 4.386e-10
 74.85876   -120.8 1.179e+04 4.933e-10
 74.89920   -120.0 1.179e+04 5.063e-10
 74.92551   -119.1 1.175e+04 4.909e-10
 74.94573   -118.2 1.165e+04 4.440e-10
 74.98006   -117.1 1.166e+04 4.407e-10
 75.02050   -116.1 1.169e+04 4.441e-10
 75.06093   -115.1 1.181e+04 4.725e-10
 75.09091   -114.1 1.191e+04 5.384e-10
 75.11113   -113.4 1.185e+04 5.079e-10
 75.14180   -112.6 1.201e+04 6.069e-10
 75.16656   -111.9 1.213e+04 6.847e-10
 75.18678   -111.9 1.215e+04 6.981e-10
 75.22266   -111.5 1.218e+04 7.182e-10
 75.25631   -110.9 1.203e+04 6.872e-10
 75.27652   -110.3 1.187e+04 5.762e-10
 75.30353   -109.2 1.162e+04 4.512e-10
 75.34396   -108.0 1.142e+04 3.429e-10
 75.38440   -106.7 1.130e+04 2.846e-10
 75.42170   -105.5 1.120e+04 2.647e-10
 75.44192   -104.8 1.115e+04 2.525e-10
 75.46526   -103.6 1.114e+04 2.522e-10
 75.49782   -102.4 1.112e+04 2.586e-10
 75.51804   -102.8 1.114e+04 2.639e-10
 75.54613   -101.8 1.111e+04 2.804e-10
 75.58656   -101.0 1.118e+04 3.212e-10
 75.60732   -100.2 1.131e+04 3.801e-10
 75.62754    -99.9 1.140e+04 4.322e-10
 75.66743    -99.3 1.148e+04 4.873e-10
 75.70786    -98.8 1.150e+04 5.006e-10
 75.74830    -98.1 1.126e+04 4.580e-10
 75.77272    -96.9 1.099e+04 3.257e-10
 75.79293    -96.6 1.098e+04 3.176e-10
 75.82907    -95.2 1.075e+04 2.086e-10
 75.86951    -93.9 1.063e+04 1.386e-10
 75.91003    -92.3 1.058e+04 1.026e-10
 75.93811    -90.7 1.054e+04 8.700e-11
 75.95833    -90.2 1.055e+04 9.391e-11
 75.99090    -88.4 1.051e+04 8.659e-11
 76.03133    -86.5 1.050e+04 8.509e-11
 76.07177    -84.6 1.050e+04 8.585e-11
 76.10351    -82.7 1.054e+04 8.815e-11
 76.12373    -82.2 1.052e+04 8.875e-11
 76.15263    -80.3 1.053e+04 8.890e-11
 76.18054    -78.4 1.054e+04 8.784e-11
 76.20076    -78.4 1.055e+04 1.079e-10
 76.23350    -76.4 1.056e+04 1.030e-10
 76.26891    -74.5 1.057e+04 9.770e-11
 76.28913    -73.9 1.051e+04 9.450e-11
 76.31437    -72.0 1.052e+04 9.132e-11
 76.35480    -70.1 1.053e+04 8.823e-11
 76.39523    -68.2 1.052e+04 8.584e-11
 76.43431    -66.4 1.052e+04 8.388e-11
 76.45452    -65.8 1.053e+04 8.365e-11
 76.47610    -64.1 1.056e+04 8.102e-11
 76.51180    -62.5 1.062e+04 7.855e-11
 76.53201    -62.2 1.071e+04 9.454e-11
 76.55697    -60.9 1.079e+04 1.007e-10
 76.59740    -59.8 1.089e+04 1.150e-10
 76.61992    -58.9 1.096e+04 1.475e-10
 76.64014    -58.9 1.100e+04 1.674e-10
 76.67827    -57.9 1.110e+04 2.433e-10
 76.71870    -56.8 1.126e+04 3.338e-10
 76.75913    -55.7 1.140e+04 4.003e-10
 76.78532    -54.8 1.151e+04 4.374e-10
 76.80553    -54.8 1.137e+04 3.452e-10
 76.84000    -54.0 1.135e+04 2.984e-10
 76.86327    -53.4 1.136e+04 2.789e-10
 76.88348    -54.0 1.139e+04 3.059e-10
 76.92087    -53.5 1.146e+04 3.157e-10
 76.95071    -53.2 1.154e+04 3.597e-10
 76.97093    -52.8 1.140e+04 2.382e-10
 77.00173    -52.4 1.144e+04 2.997e-10
 77.04217    -51.9 1.146e+04 3.401e-10
 77.08260    -51.3 1.144e+04 3.443e-10
 77.11611    -50.7 1.134e+04 3.165e-10
 77.13633    -49.9 1.147e+04 3.807e-10
 77.16347    -49.2 1.134e+04 3.307e-10
 77.19452    -48.5 1.121e+04 2.437e-10
 77.21474    -48.3 1.120e+04 2.377e-10
 77.24433    -47.6 1.112e+04 1.625e-10
 77.28151    -47.0 1.106e+04 1.222e-10
 77.30173    -46.3 1.106e+04 1.281e-10
 77.32520    -45.5 1.093e+04 1.143e-10
 77.36563    -44.4 1.087e+04 1.105e-10
 77.40607    -43.2 1.083e+04 1.073e-10
 77.44650    -42.0 1.081e+04 9.910e-11
 77.46712    -40.9 1.081e+04 8.638e-11
 77.48734    -40.1 1.085e+04 9.975e-11
 77.52577    -39.4 1.084e+04 8.988e-11
 77.54599    -38.8 1.082e+04 9.858e-11
 77.56780    -38.2 1.077e+04 9.572e-11
 77.60824    -37.6 1.070e+04 9.519e-11
 77.63252    -37.0 1.067e+04 1.029e-10
 77.65274    -37.1 1.072e+04 1.839e-10
 77.68910    -37.0 1.098e+04 2.138e-10
 77.72954    -37.8 1.136e+04 3.044e-10
 77.76997    -38.7 1.166e+04 5.693e-10
 77.79792    -38.8 1.198e+04 1.020e-09
 77.81813    -39.8 1.204e+04 1.103e-09
 77.85084    -40.1 1.213e+04 1.260e-09
 77.87724    -40.3 1.189e+04 1.185e-09
 77.89746    -41.0 1.162e+04 9.634e-10
 77.92150    -40.7 1.137e+04 8.310e-10
 77.94162    -40.5 1.123e+04 7.224e-10
 77.96183    -40.6 1.094e+04 5.858e-10
 77.97323    -40.4 1.081e+04 5.212e-10
 77.98334    -40.6 1.076e+04 4.990e-10
 78.01247    -40.7 1.049e+04 4.200e-10
 78.05300    -40.0 1.010e+04 3.274e-10
 78.09344    -38.4 9.747e+03 2.500e-10
 78.12871    -36.7 9.590e+03 2.131e-10
 78.14893    -36.7 9.534e+03 2.084e-10
 78.17430    -35.1 9.498e+03 2.011e-10
 78.20850    -33.4 9.466e+03 2.088e-10
 78.22871    -33.5 9.296e+03 1.699e-10
 78.25517    -31.7 9.251e+03 1.811e-10
 78.29411    -29.9 9.274e+03 2.010e-10
 78.31433    -29.8 9.220e+03 1.955e-10
 78.33604    -28.0 9.264e+03 2.188e-10
 78.37647    -26.3 9.360e+03 2.455e-10
 78.41690    -24.7 9.505e+03 2.721e-10
 78.45734    -23.4 9.665e+03 2.974e-10
 78.47972    -22.2 9.791e+03 3.330e-10
 78.49994    -22.2 9.504e+03 2.695e-10
 78.53820    -20.9 9.657e+03 3.156e-10
 78.55997    -19.8 9.927e+03 3.693e-10
 78.58018    -19.1 9.474e+03 2.434e-10
 78.61907    -18.5 9.826e+03 3.008e-10
 78.64512    -18.3 1.010e+04 3.930e-10
 78.66534    -18.3 9.748e+03 2.784e-10
 78.69994    -17.6 9.814e+03 3.304e-10
 78.74037    -16.9 9.808e+03 3.408e-10
 78.78080    -16.1 9.590e+03 2.928e-10
 78.81052    -15.2 9.287e+03 2.236e-10
 78.83074    -15.1 8.947e+03 1.526e-10
 78.86167    -14.1 8.843e+03 1.132e-10
 78.89122    -13.2 8.801e+03 8.786e-11
 78.91144    -12.3 8.745e+03 7.167e-11
 78.94254    -11.6 8.688e+03 6.608e-11
 78.97592    -10.7 8.600e+03 7.718e-11
 78.99613    -10.4 8.525e+03 7.480e-11
 79.02340     -9.3 8.648e+03 1.013e-10
 79.06384     -8.4 9.022e+03 1.485e-10
 79.09407     -7.8 9.344e+03 1.919e-10
 79.11418     -9.8 1.035e+04 3.325e-10
 79.13440    -13.1 1.162e+04 8.622e-10
 79.15123    -17.5 1.348e+04 2.392e-09
 79.16133    -17.5 1.346e+04 2.494e-09
 79.17483    -19.7 1.610e+04 6.037e-09
 79.19505    -22.2 1.801e+04 8.929e-09
 79.21527    -27.1 1.807e+04 8.254e-09
 79.23239    -33.6 1.486e+04 2.560e-09
 79.24094    -33.0 1.574e+04 3.114e-09
 79.24403    -32.7 1.588e+04 3.154e-09
 79.25570    -41.8 1.201e+04 7.186e-10
 79.27592    -47.8 1.037e+04 3.681e-10
 79.29613    -49.6 9.962e+03 3.104e-10
 79.31635    -50.6 9.879e+03 2.983e-10
 79.32683    -52.2 9.858e+03 2.949e-10
 79.34714    -50.7 9.856e+03 3.084e-10
 79.38731    -52.3 9.807e+03 2.829e-10
 79.42774    -54.5 9.782e+03 2.528e-10
 79.46817    -56.8 9.811e+03 2.436e-10
 79.49232    -59.6 1.005e+04 2.770e-10
 79.51254    -57.3 9.872e+03 2.375e-10
 79.54904    -60.0 1.024e+04 3.579e-10
 79.57395    -61.8 1.068e+04 5.973e-10
 79.59416    -62.6 1.051e+04 5.160e-10
 79.62991    -63.7 1.081e+04 6.439e-10
 79.65762    -63.5 1.112e+04 7.450e-10
 79.66763    -62.6 1.126e+04 8.401e-10
 79.68025    -63.4 1.129e+04 8.496e-10
 79.70047    -64.0 1.132e+04 8.169e-10
 79.72069    -64.5 1.134e+04 7.416e-10
 79.73938    -65.1 1.128e+04 6.689e-10
 79.74881    -65.1 1.134e+04 6.870e-10
 79.75033    -64.0 1.155e+04 8.088e-10
 79.76112    -64.7 1.153e+04 7.584e-10
 79.78134    -65.4 1.151e+04 7.252e-10
 79.80155    -66.0 1.153e+04 7.146e-10
 79.82177    -66.7 1.159e+04 7.183e-10
 79.83303    -67.8 1.180e+04 7.324e-10
 79.84314    -66.9 1.224e+04 9.553e-10
 79.86220    -68.5 1.270e+04 1.096e-09
 79.88242    -70.2 1.320e+04 1.529e-09
 79.90264    -71.7 1.377e+04 2.188e-09
 79.91511    -72.9 1.438e+04 2.986e-09
 79.91810    -71.7 1.445e+04 2.973e-09
 79.92584    -70.3 1.485e+04 3.532e-09
 79.94307    -71.6 1.544e+04 4.385e-09
 79.96329    -73.7 1.603e+04 5.057e-09
 79.98350    -76.9 1.655e+04 5.287e-09
 79.99843    -81.6 1.710e+04 4.971e-09
 80.00854    -80.6 1.819e+04 6.619e-09
 80.02394    -87.2 1.829e+04 6.239e-09
 80.04415    -93.9 1.730e+04 5.357e-09
 80.06437    -99.6 1.590e+04 4.329e-09
 80.08074   -103.9 1.487e+04 3.448e-09
 80.08739   -103.8 1.524e+04 3.515e-09
 80.09124   -104.3 1.582e+04 3.920e-09
 80.10480   -108.7 1.476e+04 2.899e-09
 80.12502   -112.2 1.408e+04 2.282e-09
 80.14524   -114.2 1.374e+04 2.004e-09
 80.16383   -115.1 1.358e+04 1.912e-09
 80.17394   -116.8 1.414e+04 2.401e-09
 80.18567   -117.0 1.394e+04 2.425e-09
 80.20589   -116.6 1.358e+04 2.323e-09
 80.22610   -115.9 1.323e+04 1.987e-09
 80.24632   -115.2 1.280e+04 1.591e-09
 80.25663   -114.7 1.248e+04 1.324e-09
 80.26674   -115.1 1.287e+04 1.647e-09
 80.28675   -114.2 1.245e+04 1.296e-09
 80.30697   -113.4 1.209e+04 1.044e-09
 80.32719   -112.6 1.182e+04 8.696e-10
 80.33933   -111.9 1.160e+04 7.490e-10
 80.34944   -112.2 1.201e+04 9.931e-10
 80.36762   -111.5 1.184e+04 8.966e-10
 80.38784   -110.7 1.171e+04 8.304e-10
 80.40805   -110.0 1.160e+04 7.824e-10
 80.42203   -109.3 1.149e+04 7.437e-10
 80.43214   -109.3 1.188e+04 1.012e-09
 80.44849   -108.6 1.173e+04 9.450e-10
 80.46870   -107.8 1.156e+04 8.720e-10
 80.48892   -106.8 1.138e+04 7.869e-10
 80.50473   -105.8 1.120e+04 6.830e-10
 80.51484   -106.3 1.141e+04 7.556e-10
 80.52935   -105.4 1.125e+04 6.028e-10
 80.55978   -105.2 1.114e+04 4.576e-10
 80.58792   -104.2 1.094e+04 3.699e-10
 80.60814   -103.0 1.102e+04 3.761e-10
 80.64074   -101.4 1.067e+04 2.868e-10
 80.67032    -99.7 1.039e+04 2.309e-10
 80.69054   -100.6 1.037e+04 1.945e-10
 80.72161    -99.1 1.031e+04 1.853e-10
 80.76204    -97.8 1.032e+04 1.847e-10
 80.80247    -96.6 1.032e+04 1.869e-10
 80.83572    -95.5 1.030e+04 1.895e-10
 80.85594    -96.0 1.029e+04 1.651e-10
 80.88334    -94.8 1.036e+04 1.469e-10
 80.91918    -93.7 1.046e+04 1.299e-10
 80.93939    -93.0 1.056e+04 1.407e-10
 80.96421    -92.1 1.056e+04 1.324e-10
 81.00112    -91.3 1.057e+04 1.307e-10
 81.02133    -91.3 1.060e+04 1.333e-10
 81.04508    -90.7 1.079e+04 1.395e-10
 81.08551    -90.3 1.098e+04 1.802e-10
 81.12594    -90.0 1.112e+04 2.485e-10
 81.16638    -89.7 1.129e+04 3.304e-10
 81.20681    -89.7 1.194e+04 6.631e-10
 81.24724    -89.6 1.224e+04 8.103e-10
 81.27065    -90.4 1.263e+04 9.390e-10
 81.29086    -90.6 1.291e+04 1.125e-09
 81.32811    -91.8 1.333e+04 1.384e-09
 81.35203    -93.0 1.355e+04 1.579e-09
 81.36204    -93.3 1.347e+04 1.504e-09
 81.37846    -94.3 1.371e+04 1.708e-09
 81.39867    -94.4 1.369e+04 1.918e-09
 81.41889    -95.5 1.408e+04 2.396e-09
 81.43463    -97.8 1.514e+04 3.316e-09
 81.44171    -99.7 1.531e+04 3.569e-09
 81.44619   -101.3 1.619e+04 4.936e-09
 81.45932   -103.8 1.707e+04 7.543e-09
 81.47954   -106.2 1.768e+04 8.918e-09
 81.49976   -108.9 1.796e+04 8.932e-09
 81.51733   -111.9 1.806e+04 7.170e-09
 81.52744   -111.9 1.622e+04 6.151e-09
 81.54019   -114.8 1.561e+04 4.501e-09
 81.56041   -117.4 1.497e+04 3.418e-09
 81.58062   -119.0 1.453e+04 2.774e-09
 81.60003   -119.8 1.425e+04 2.393e-09
 81.61014   -118.2 1.400e+04 2.356e-09
 81.61181   -118.6 1.381e+04 2.113e-09
 81.62192   -119.5 1.381e+04 2.110e-09
 81.64127   -119.6 1.368e+04 1.927e-09
 81.66149   -119.7 1.354e+04 1.785e-09
 81.68283   -120.0 1.338e+04 1.631e-09
 81.70314   -117.7 1.309e+04 1.470e-09
 81.73244   -117.0 1.263e+04 1.116e-09
 81.77288   -115.8 1.228e+04 8.475e-10
 81.81331   -114.5 1.202e+04 6.527e-10
 81.84832   -113.3 1.190e+04 5.509e-10
 81.86854   -112.1 1.181e+04 5.366e-10
 81.89418   -111.1 1.175e+04 5.071e-10
 81.93315   -110.0 1.176e+04 5.084e-10
 81.95337   -109.8 1.164e+04 4.328e-10
 81.97504   -108.9 1.198e+04 5.203e-10
 82.01372   -108.1 1.259e+04 8.786e-10
 82.03393   -106.3 1.238e+04 6.592e-10
 82.04570   -106.7 1.271e+04 9.725e-10
 82.06582   -106.7 1.296e+04 1.307e-09
 82.08604   -106.7 1.325e+04 1.731e-09
 82.10626   -106.7 1.352e+04 2.135e-09
 82.11880   -105.9 1.346e+04 2.054e-09
 82.12891   -105.5 1.327e+04 1.827e-09
 82.14669   -105.6 1.336e+04 1.952e-09
 82.16691   -105.7 1.338e+04 1.997e-09
 82.18712   -105.7 1.333e+04 2.003e-09
 82.19914   -105.6 1.322e+04 1.942e-09
 82.20925   -105.1 1.319e+04 1.779e-09
 82.22756   -105.0 1.315e+04 1.808e-09
 82.24777   -104.9 1.313e+04 1.830e-09
 82.26799   -104.6 1.308e+04 1.847e-09
 82.28184   -104.1 1.298e+04 1.827e-09
 82.28817   -103.8 1.317e+04 1.956e-09
 82.29454   -103.5 1.296e+04 1.674e-09
 82.30842   -103.0 1.292e+04 1.700e-09
 82.32864   -102.4 1.284e+04 1.692e-09
 82.34886   -101.7 1.275e+04 1.588e-09
 82.36453   -101.0 1.264e+04 1.406e-09
 82.37464   -100.8 1.277e+04 1.585e-09
 82.38929   -100.0 1.261e+04 1.422e-09
 82.40951    -99.3 1.246e+04 1.288e-09
 82.42972    -98.4 1.230e+04 1.170e-09
 82.44723    -97.5 1.217e+04 1.063e-09
 82.45734    -97.4 1.237e+04 1.091e-09
 82.46016    -96.5 1.228e+04 9.916e-10
 82.47027    -96.2 1.240e+04 1.120e-09
 82.49037    -95.3 1.234e+04 1.047e-09
 82.51059    -94.4 1.229e+04 9.854e-10
 82.52993    -93.5 1.226e+04 9.326e-10
 82.54004    -93.4 1.230e+04 9.482e-10
 82.55102    -92.4 1.228e+04 9.267e-10
 82.57124    -91.4 1.226e+04 8.958e-10
 82.59146    -90.2 1.225e+04 8.413e-10
 82.61167    -89.1 1.226e+04 7.867e-10
 82.62274    -88.4 1.225e+04 7.636e-10
 82.62675    -88.2 1.226e+04 8.372e-10
 82.63590    -88.2 1.232e+04 9.131e-10
 82.65211    -87.3 1.233e+04 8.820e-10
 82.67232    -86.3 1.233e+04 8.645e-10
 82.69254    -85.4 1.233e+04 8.608e-10
 82.70544    -84.5 1.233e+04 8.706e-10
 82.71555    -84.5 1.238e+04 9.491e-10
 82.73297    -83.5 1.238e+04 9.741e-10
 82.75319    -82.5 1.240e+04 1.014e-09
 82.77341    -81.6 1.243e+04 1.060e-09
 82.78814    -80.6 1.242e+04 1.102e-09
 82.79604    -80.5 1.249e+04 1.146e-09
 82.80153    -80.5 1.234e+04 1.016e-09
 82.81384    -79.5 1.234e+04 1.026e-09
 82.83406    -78.4 1.237e+04 1.037e-09
 82.85427    -77.4 1.235e+04 1.056e-09
 82.87083    -76.2 1.229e+04 1.088e-09
 82.88094    -76.1 1.231e+04 1.072e-09
 82.89471    -75.0 1.233e+04 1.109e-09
 82.91492    -73.9 1.244e+04 1.154e-09
 82.93514    -72.8 1.246e+04 1.216e-09
 82.95353    -71.7 1.240e+04 1.296e-09
 82.96364    -71.8 1.255e+04 1.268e-09
 82.96715    -70.7 1.260e+04 1.352e-09
 82.97726    -70.6 1.239e+04 1.087e-09
 82.99579    -69.4 1.242e+04 1.200e-09
 83.01601    -68.4 1.251e+04 1.330e-09
 83.03623    -67.3 1.260e+04 1.464e-09
 83.05644    -66.5 1.285e+04 1.586e-09
 83.07666    -65.4 1.292e+04 1.795e-09
 83.09688    -64.5 1.303e+04 2.029e-09
 83.11709    -64.0 1.326e+04 2.304e-09
 83.12904    -63.7 1.362e+04 2.717e-09
 83.13462    -64.9 1.407e+04 3.314e-09
 83.14289    -64.2 1.377e+04 2.828e-09
 83.15753    -63.9 1.416e+04 3.668e-09
 83.17774    -63.6 1.455e+04 4.672e-09
 83.19796    -63.2 1.483e+04 5.482e-09
 83.21174    -62.9 1.500e+04 5.953e-09
 83.22185    -63.6 1.492e+04 5.702e-09
 83.23839    -63.2 1.487e+04 5.514e-09
 83.25861    -62.8 1.465e+04 4.747e-09
 83.27883    -62.4 1.432e+04 3.802e-09
 83.29444    -62.1 1.395e+04 2.928e-09
 83.30391    -63.1 1.335e+04 1.898e-09
 83.30852    -62.1 1.338e+04 2.090e-09
 83.31926    -61.8 1.307e+04 1.598e-09
 83.33948    -61.5 1.277e+04 1.241e-09
 83.35969    -61.1 1.262e+04 1.119e-09
 83.37723    -60.0 1.280e+04 1.285e-09
 83.39755    -60.4 1.201e+04 7.525e-10
 83.43065    -58.6 1.170e+04 6.289e-10
 83.47108    -56.6 1.159e+04 5.885e-10
 83.51151    -54.6 1.155e+04 5.839e-10
 83.54273    -52.4 1.152e+04 6.083e-10
 83.56294    -52.2 1.146e+04 5.657e-10
 83.59238    -49.9 1.145e+04 5.973e-10
 83.62986    -47.7 1.143e+04 6.111e-10
 83.65007    -46.7 1.141e+04 5.751e-10
 83.67325    -44.3 1.129e+04 5.693e-10
 83.70812    -41.9 1.120e+04 5.092e-10
 83.72834    -41.5 1.117e+04 4.539e-10
 83.75411    -39.2 1.111e+04 4.056e-10
 83.79455    -36.9 1.107e+04 3.815e-10
 83.83498    -34.6 1.107e+04 3.784e-10
 83.87352    -32.3 1.109e+04 3.942e-10
 83.89374    -31.8 1.111e+04 3.986e-10
 83.91585    -29.5 1.115e+04 4.457e-10
 83.95628    -27.2 1.118e+04 5.013e-10
 83.98133    -24.9 1.119e+04 5.342e-10
 84.00154    -24.0 1.119e+04 5.357e-10
 84.03715    -21.7 1.119e+04 5.526e-10
 84.05914    -19.5 1.113e+04 5.418e-10
 84.07935    -18.8 1.123e+04 5.903e-10
 84.11801    -16.4 1.112e+04 5.286e-10
 84.15845    -14.2 1.102e+04 4.216e-10
 84.19888    -12.3 1.092e+04 3.406e-10
 84.22453    -10.4 1.084e+04 3.157e-10
 84.24475     -9.7 1.089e+04 3.004e-10
 84.27975     -7.8 1.081e+04 3.082e-10
 84.31258     -5.7 1.080e+04 3.621e-10
 84.33280     -4.9 1.079e+04 3.463e-10
 84.36061     -2.7 1.078e+04 3.896e-10
 84.38993     -0.5 1.077e+04 4.059e-10
 84.41015      0.3 1.080e+04 4.022e-10
 84.44148      2.5 1.072e+04 3.904e-10
 84.48191      4.8 1.058e+04 3.358e-10
 84.52235      7.0 1.044e+04 2.697e-10
 84.55533      9.3 1.035e+04 2.091e-10
 84.57554     10.2 1.047e+04 2.646e-10
 84.60322     12.3 1.045e+04 2.006e-10
 84.64365     14.4 1.032e+04 1.676e-10
 84.68408     17.6 1.016e+04 1.469e-10
 84.72073     20.1 1.015e+04 1.187e-10
 84.74094     21.0 1.019e+04 1.361e-10
 84.76495     23.1 1.027e+04 1.090e-10
 84.80538     25.3 1.019e+04 1.062e-10
 84.84582     27.5 1.017e+04 1.122e-10
 84.88612     29.8 1.016e+04 1.255e-10
 84.92656     32.8 1.018e+04 1.487e-10
 84.96712     35.0 1.014e+04 1.806e-10
 84.99530     37.5 1.018e+04 2.053e-10
 85.01552     38.0 1.017e+04 1.961e-10
 85.04798     40.2 1.020e+04 1.950e-10
 85.07174     42.5 1.019e+04 1.807e-10
 85.09195     43.2 1.023e+04 2.053e-10
 85.12885     45.4 1.019e+04 1.778e-10
 85.16928     47.6 1.017e+04 1.485e-10
 85.20972     49.5 1.015e+04 1.277e-10
 85.23713     51.4 1.012e+04 1.207e-10
 85.25735     52.3 1.015e+04 1.345e-10
 85.29058     54.3 1.015e+04 1.342e-10
 85.32656     56.3 1.018e+04 1.405e-10
 85.34677     56.6 1.018e+04 1.402e-10
 85.37145     58.4 1.024e+04 1.583e-10
 85.40253     60.3 1.034e+04 1.861e-10
 85.42275     61.0 1.043e+04 1.992e-10
 85.45232     62.8 1.049e+04 2.283e-10
 85.49275     64.6 1.052e+04 2.553e-10
 85.53318     66.1 1.055e+04 2.779e-10
 85.56793     67.6 1.060e+04 3.000e-10
 85.58815     68.2 1.057e+04 3.000e-10
 85.61405     69.6 1.063e+04 3.156e-10
 85.65448     71.0 1.071e+04 3.626e-10
 85.67803     72.5 1.074e+04 4.169e-10
 85.69824     72.6 1.064e+04 3.562e-10
 85.73333     74.2 1.062e+04 3.496e-10
 85.75354     74.6 1.055e+04 3.053e-10
 85.77578     76.2 1.049e+04 2.913e-10
 85.81622     78.0 1.042e+04 2.595e-10
 85.85665     79.8 1.036e+04 2.184e-10
 85.89708     81.6 1.030e+04 1.781e-10
 85.91894     83.5 1.028e+04 1.457e-10
 85.93916     83.8 1.028e+04 1.459e-10
 85.97795     85.7 1.029e+04 1.234e-10
 86.00928     87.5 1.031e+04 1.089e-10
 86.02950     88.0 1.028e+04 9.922e-11
 86.05882     89.9 1.028e+04 9.728e-11
 86.08434     91.9 1.028e+04 9.703e-11
 86.10455     92.3 1.030e+04 1.016e-10
 86.13968     94.3 1.030e+04 1.018e-10
 86.18012     96.3 1.031e+04 1.029e-10
 86.22055     98.4 1.030e+04 1.046e-10
 86.24974    100.6 1.030e+04 1.065e-10
 86.26995    100.9 1.029e+04 1.048e-10
 86.30142    103.2 1.030e+04 1.061e-10
 86.34053    105.4 1.031e+04 1.071e-10
 86.36075    105.8 1.032e+04 9.417e-11
 86.38229    108.0 1.034e+04 9.365e-11
 86.41513    110.2 1.037e+04 9.413e-11
 86.43535    110.5 1.037e+04 9.771e-11
 86.46315    112.7 1.043e+04 1.005e-10
 86.50359    114.9 1.050e+04 1.055e-10
 86.54402    117.2 1.055e+04 1.143e-10
 86.58053    119.4 1.058e+04 1.285e-10
 86.60075    119.7 1.061e+04 1.396e-10
 86.62489    121.8 1.065e+04 1.658e-10
 86.66532    123.9 1.070e+04 2.036e-10
 86.69200    126.0 1.077e+04 2.536e-10
 86.71222    126.4 1.074e+04 2.466e-10
 86.74593    128.4 1.084e+04 2.912e-10
 86.76614    128.6 1.098e+04 3.759e-10
 86.78662    130.4 1.115e+04 4.313e-10
 86.82705    132.0 1.132e+04 4.460e-10
 86.86749    133.5 1.134e+04 4.394e-10
 86.90792    134.9 1.135e+04 4.306e-10
 86.93154    136.5 1.131e+04 4.232e-10
 86.95176    135.8 1.152e+04 5.257e-10
 86.98879    137.3 1.156e+04 5.423e-10
 87.02326    138.5 1.174e+04 6.234e-10
 87.04348    139.6 1.152e+04 4.938e-10
 87.06965    140.6 1.180e+04 6.349e-10
 87.09694    141.6 1.217e+04 8.538e-10
 87.11716    140.1 1.249e+04 1.050e-09
 87.15052    140.7 1.273e+04 1.118e-09
 87.19095    141.2 1.275e+04 1.096e-09
 87.23139    141.6 1.271e+04 1.004e-09
 87.26234    142.1 1.251e+04 8.182e-10
 87.28255    140.2 1.204e+04 5.011e-10
 87.31225    140.8 1.157e+04 3.391e-10
 87.35269    141.5 1.102e+04 2.369e-10
 87.37473    142.2 1.051e+04 1.905e-10
 87.39495    143.7 1.061e+04 2.274e-10
 87.42773    144.6 1.010e+04 2.071e-10
 87.44795    143.3 1.009e+04 2.053e-10
 87.47399    144.8 1.004e+04 2.041e-10
 87.51442    146.3 1.000e+04 2.100e-10
 87.55485    147.8 9.967e+03 2.413e-10
 87.59313    149.2 1.006e+04 3.055e-10
 87.61335    148.1 1.026e+04 3.550e-10
 87.63572    149.1 1.039e+04 4.536e-10
 87.67615    149.9 1.044e+04 4.983e-10
 87.70598    150.3 1.040e+04 4.869e-10
 87.72620    151.7 1.052e+04 5.852e-10
 87.75702    151.9 1.041e+04 5.545e-10
 87.77874    152.0 1.013e+04 4.573e-10
 87.79896    150.2 9.964e+03 3.941e-10
 87.83789    150.4 9.504e+03 2.670e-10
 87.87832    150.5 9.024e+03 1.818e-10
 87.91875    150.8 8.757e+03 1.566e-10
 87.94414    151.5 8.752e+03 1.560e-10
 87.96436    150.5 8.720e+03 1.500e-10
 87.99962    151.5 8.758e+03 1.604e-10
 88.03724    152.5 8.976e+03 1.906e-10
 88.05745    153.7 8.815e+03 1.779e-10
 88.08049    154.6 9.208e+03 2.340e-10
 88.10954    154.6 9.683e+03 3.163e-10
 88.12976    153.4 9.847e+03 3.358e-10
 88.15115    153.0 1.007e+04 3.912e-10
 88.17127    152.9 1.025e+04 4.420e-10
 88.19149    152.4 1.068e+04 5.737e-10
 88.20215    151.9 1.123e+04 7.706e-10
 88.21226    151.1 1.146e+04 8.763e-10
 88.22288    150.3 1.203e+04 1.133e-09
 88.23299    151.3 1.186e+04 1.091e-09
 88.25214    150.2 1.240e+04 1.341e-09
 88.27235    148.6 1.281e+04 1.560e-09
 88.28485    146.3 1.328e+04 1.786e-09
 88.29496    144.5 1.353e+04 1.931e-09
 88.31279    139.8 1.453e+04 2.488e-09
 88.33300    134.3 1.551e+04 3.663e-09
 88.35322    129.4 1.574e+04 4.675e-09
 88.36755    125.3 1.561e+04 4.557e-09
 88.37766    123.8 1.516e+04 3.823e-09
 88.38851    120.5 1.455e+04 2.755e-09
 88.39862    121.6 1.483e+04 3.271e-09
 88.41387    118.0 1.406e+04 1.939e-09
 88.43409    114.3 1.313e+04 1.083e-09
 88.45025    109.4 1.192e+04 5.617e-10
 88.46045    109.9 1.235e+04 6.614e-10
 88.48482    102.9 9.632e+03 3.082e-10
 88.52526    100.9 8.976e+03 2.096e-10
 88.56569    100.2 8.882e+03 1.550e-10
 88.60573     99.5 8.828e+03 1.185e-10
 88.62595     99.2 8.961e+03 1.407e-10
 88.64656     98.6 8.886e+03 1.344e-10
 88.68699     98.3 8.888e+03 1.391e-10
 88.71996     98.3 8.917e+03 1.522e-10
 88.74018     98.1 9.023e+03 1.709e-10
 88.76786     98.5 8.992e+03 1.631e-10
 88.79135     99.2 8.961e+03 1.432e-10
 88.81156     99.1 8.959e+03 1.276e-10
 88.84872     99.7 8.911e+03 9.347e-11
 88.88916    100.2 8.867e+03 7.688e-11
 88.92959    101.1 8.857e+03 7.622e-11
 88.95674    102.1 8.863e+03 7.879e-11
 88.97696    102.1 8.811e+03 6.569e-11
 89.01046    103.4 8.869e+03 7.549e-11
 89.05089    104.7 8.946e+03 9.165e-11
 89.07143    106.1 9.030e+03 1.138e-10
 89.09165    105.8 9.023e+03 1.305e-10
 89.12214    107.3 9.156e+03 1.662e-10
 89.14236    107.8 9.212e+03 1.812e-10
 89.17219    109.4 9.480e+03 2.380e-10
 89.21262    110.9 9.821e+03 3.010e-10
 89.25306    112.1 1.015e+04 3.754e-10
 89.28754    112.5 1.030e+04 4.341e-10
 89.30766    113.1 1.041e+04 4.758e-10
 89.32362    113.7 1.058e+04 5.273e-10
 89.34384    114.4 1.084e+04 5.931e-10
 89.36405    115.0 1.114e+04 6.652e-10
 89.38015    115.3 1.142e+04 7.030e-10
 89.39026    115.7 1.157e+04 7.571e-10
 89.40249    115.6 1.172e+04 7.552e-10
 89.41260    114.7 1.104e+04 5.158e-10
 89.42470    114.6 1.102e+04 5.303e-10
 89.45284    114.6 1.096e+04 5.198e-10
 89.47305    114.8 1.120e+04 6.014e-10
 89.49556    115.3 1.126e+04 5.984e-10
 89.52589    115.3 1.134e+04 6.270e-10
 89.54555    115.4 1.141e+04 6.456e-10
 89.55565    115.5 1.144e+04 6.347e-10
 89.56622    115.7 1.147e+04 6.271e-10
 89.57822    115.9 1.153e+04 6.137e-10
 89.58833    116.0 1.156e+04 6.232e-10
 89.60665    116.0 1.173e+04 6.448e-10
 89.62687    115.9 1.200e+04 6.992e-10
 89.63835    115.3 1.231e+04 8.279e-10
 89.64846    115.4 1.234e+04 7.038e-10
 89.66730    114.4 1.273e+04 9.562e-10
 89.68752    113.3 1.306e+04 1.448e-09
 89.70774    112.6 1.343e+04 2.258e-09
 89.72105    112.6 1.393e+04 3.279e-09
 89.73116    112.2 1.395e+04 3.115e-09
 89.74385    112.1 1.457e+04 4.109e-09
 89.75396    112.3 1.428e+04 3.316e-09
 89.76839    111.9 1.443e+04 3.151e-09
 89.78860    110.6 1.469e+04 2.684e-09
 89.80375    108.7 1.467e+04 2.086e-09
 89.81386    108.7 1.514e+04 2.762e-09
 89.82904    106.5 1.478e+04 2.053e-09
 89.84925    103.9 1.406e+04 1.592e-09
 89.86947    101.4 1.344e+04 1.496e-09
 89.88645     99.5 1.341e+04 1.560e-09
 89.89656     98.9 1.399e+04 1.999e-09
 89.90948     97.3 1.397e+04 2.319e-09
 89.91959     97.5 1.418e+04 2.965e-09
 89.93012     96.9 1.442e+04 3.801e-09
 89.95034     96.6 1.475e+04 4.193e-09
 89.96915     96.3 1.491e+04 4.133e-09
 89.97926     95.7 1.553e+04 5.175e-09
 89.99077     95.1 1.589e+04 4.729e-09
 90.01099     94.2 1.626e+04 4.127e-09
 90.03121     93.0 1.651e+04 3.607e-09
 90.05142     92.0 1.638e+04 3.440e-09
 90.06196     91.5 1.625e+04 3.492e-09
 90.07206     89.9 1.739e+04 5.099e-09
 90.08521     89.5 1.718e+04 5.433e-09
 90.09532     88.9 1.798e+04 1.228e-08
 90.11207     88.9 1.786e+04 1.238e-08
 90.13229     89.1 1.780e+04 1.235e-08
 90.14465     89.4 1.782e+04 1.215e-08
 90.15476     88.3 1.770e+04 1.157e-08
 90.17272     89.0 1.741e+04 1.070e-08
 90.19294     89.9 1.718e+04 9.224e-09
 90.21316     91.0 1.682e+04 6.918e-09
 90.22735     91.7 1.630e+04 4.498e-09
 90.23746     90.2 1.533e+04 2.191e-09
 90.25084     89.5 1.432e+04 1.317e-09
 90.26095     87.1 1.342e+04 1.141e-09
 90.27381     87.1 1.274e+04 9.334e-10
 90.29402     87.9 1.263e+04 8.240e-10
 90.31005     87.9 1.218e+04 6.931e-10
 90.32026     87.1 1.174e+04 5.012e-10
 90.34476     88.1 1.132e+04 3.912e-10
 90.38519     89.7 1.109e+04 3.609e-10
 90.41666     91.5 1.092e+04 3.410e-10
 90.43678     91.9 1.126e+04 4.058e-10
 90.45576     92.6 1.124e+04 4.033e-10
 90.47545     93.4 1.125e+04 4.084e-10
 90.48556     93.2 1.137e+04 3.476e-10
 90.49619     93.6 1.152e+04 3.826e-10
 90.51641     94.0 1.152e+04 4.616e-10
 90.53662     94.4 1.162e+04 5.655e-10
 90.55684     94.7 1.182e+04 7.106e-10
 90.56826     95.1 1.211e+04 9.602e-10
 90.57836     94.4 1.225e+04 1.022e-09
 90.59220     94.9 1.244e+04 1.233e-09
 90.60231     94.5 1.264e+04 1.405e-09
 90.62770     95.7 1.254e+04 1.418e-09
 90.65115     97.0 1.264e+04 1.606e-09
 90.67137     95.9 1.269e+04 1.554e-09
 90.69845     96.4 1.250e+04 1.424e-09
 90.71857     96.9 1.235e+04 1.314e-09
 90.73365     97.3 1.218e+04 1.194e-09
 90.74376     96.7 1.200e+04 1.016e-09
 90.75783     97.1 1.181e+04 8.919e-10
 90.76794     96.4 1.140e+04 6.330e-10
 90.77922     96.7 1.129e+04 5.728e-10
 90.79944     97.1 1.119e+04 5.341e-10
 90.81635     97.6 1.109e+04 5.118e-10
 90.82646     97.0 1.093e+04 4.490e-10
 90.83987     97.5 1.086e+04 4.447e-10
 90.86009     98.0 1.082e+04 4.487e-10
 90.88031     98.6 1.079e+04 4.607e-10
 90.89905     99.1 1.081e+04 4.858e-10
 90.90916     98.9 1.073e+04 4.605e-10
 90.92074     99.4 1.081e+04 5.097e-10
 90.93356     99.9 1.095e+04 5.730e-10
 90.94367     99.5 1.073e+04 5.594e-10
 90.96117    100.0 1.091e+04 6.526e-10
 90.98139    100.5 1.109e+04 7.585e-10
 90.99186    100.9 1.124e+04 8.657e-10
 91.00197    101.1 1.126e+04 9.321e-10
 91.02182    101.5 1.133e+04 9.720e-10
 91.04204    101.8 1.132e+04 9.661e-10
 91.06226    102.1 1.126e+04 9.331e-10
 91.07456    102.3 1.115e+04 8.738e-10
 91.08466    102.6 1.112e+04 8.494e-10
 91.09919    102.8 1.098e+04 7.735e-10
 91.10930    102.4 1.072e+04 6.445e-10
 91.12291    102.6 1.063e+04 6.072e-10
 91.14312    102.7 1.056e+04 5.790e-10
 91.15725    102.8 1.050e+04 5.654e-10
 91.16736    102.9 1.038e+04 4.439e-10
 91.18356    103.1 1.032e+04 4.415e-10
 91.20377    103.2 1.029e+04 4.404e-10
 91.22399    103.4 1.027e+04 4.422e-10
 91.23995    103.6 1.024e+04 4.479e-10
 91.25006    103.7 1.020e+04 3.783e-10
 91.26442    103.9 1.019e+04 3.967e-10
 91.27493    104.1 1.018e+04 4.200e-10
 91.28503    103.9 1.006e+04 3.885e-10
 91.30486    104.2 1.006e+04 4.078e-10
 91.32265    104.5 1.008e+04 4.329e-10
 91.33286    105.1 1.011e+04 3.661e-10
 91.34539    105.4 1.012e+04 4.067e-10
 91.36551    105.5 1.018e+04 4.517e-10
 91.38572    105.5 1.040e+04 5.150e-10
 91.40535    104.5 1.109e+04 7.042e-10
 91.41546    105.6 1.073e+04 5.248e-10
 91.42616    103.6 1.197e+04 9.329e-10
 91.44055    101.1 1.354e+04 2.118e-09
 91.45066    101.7 1.293e+04 1.693e-09
 91.46659    100.1 1.405e+04 3.356e-09
 91.48681     99.0 1.496e+04 5.247e-09
 91.49816     98.1 1.570e+04 7.136e-09
 91.50316     98.0 1.582e+04 7.019e-09
 91.51198     97.7 1.615e+04 8.360e-09
 91.52209     97.1 1.643e+04 8.991e-09
 91.52832     96.7 1.649e+04 9.043e-09
 91.53338     96.9 1.636e+04 8.758e-09
 91.54741     96.1 1.657e+04 8.850e-09
 91.56767     94.7 1.628e+04 6.271e-09
 91.58086     92.5 1.524e+04 3.043e-09
 91.59096     94.2 1.639e+04 5.397e-09
 91.60618     91.0 1.472e+04 1.865e-09
 91.61629     92.0 1.409e+04 1.874e-09
 91.63853     86.2 1.127e+04 5.821e-10
 91.66375     83.7 9.878e+03 3.360e-10
 91.68397     83.6 1.005e+04 3.390e-10
 91.71950     83.7 9.549e+03 2.764e-10
 91.75993     84.0 9.356e+03 2.547e-10
 91.78211     84.5 9.262e+03 2.407e-10
 91.80233     85.6 9.198e+03 2.192e-10
 91.82915     86.0 9.189e+03 2.189e-10
 91.84936     86.5 9.338e+03 2.439e-10
 91.88123     86.5 9.425e+03 2.651e-10
 91.92166     86.4 9.567e+03 3.013e-10
 91.96210     86.0 9.683e+03 3.534e-10
 91.99454     85.3 1.005e+04 4.660e-10
 92.01476     85.4 1.082e+04 7.869e-10
 92.04296     84.7 1.085e+04 7.998e-10
 92.08340     84.6 1.070e+04 6.996e-10
 92.11336     84.9 1.033e+04 4.483e-10
 92.13358     85.8 1.015e+04 3.931e-10
 92.15994     86.3 9.824e+03 2.104e-10
 92.18016     85.8 9.818e+03 1.648e-10
 92.20470     85.7 9.360e+03 1.039e-10
 92.24513     86.5 9.256e+03 1.024e-10
 92.28556     88.0 9.247e+03 1.074e-10
 92.32534     89.6 9.291e+03 1.309e-10
 92.34556     89.7 9.390e+03 1.442e-10
 92.36643     91.5 9.608e+03 2.117e-10
 92.40686     93.7 1.016e+04 3.483e-10
 92.42816     94.6 1.038e+04 4.187e-10
 92.43817     94.6 1.044e+04 4.390e-10
 92.45453     95.0 1.063e+04 4.988e-10
 92.46474     95.5 1.037e+04 3.793e-10
 92.47752     95.8 1.067e+04 4.886e-10
 92.49764     96.1 1.092e+04 5.776e-10
 92.51076     96.6 1.115e+04 6.307e-10
 92.52087     96.7 1.135e+04 7.321e-10
 92.53808     97.1 1.151e+04 7.553e-10
 92.55829     97.3 1.164e+04 7.658e-10
 92.57851     97.3 1.179e+04 7.818e-10
 92.59346     97.0 1.210e+04 8.375e-10
 92.60357     97.1 1.228e+04 1.023e-09
 92.61894     96.3 1.277e+04 1.242e-09
 92.63026     95.1 1.333e+04 1.709e-09
 92.64037     94.9 1.307e+04 1.501e-09
 92.65938     94.1 1.352e+04 2.177e-09
 92.67616     93.7 1.396e+04 2.934e-09
 92.68626     94.0 1.449e+04 3.757e-09
 92.69981     93.3 1.468e+04 3.998e-09
 92.72003     92.4 1.462e+04 3.878e-09
 92.74024     91.5 1.432e+04 3.382e-09
 92.75885     90.3 1.382e+04 2.574e-09
 92.76896     90.7 1.386e+04 2.573e-09
 92.78068     88.9 1.310e+04 1.737e-09
 92.79589     87.1 1.229e+04 1.087e-09
 92.81621     87.0 1.201e+04 9.705e-10
 92.84175     85.8 1.106e+04 4.987e-10
 92.86196     85.7 1.076e+04 3.566e-10
 92.89206     84.5 9.929e+03 1.686e-10
 92.93250     83.7 9.608e+03 1.322e-10
 92.97293     83.7 9.618e+03 1.347e-10
 93.00715     83.5 9.728e+03 1.554e-10
 93.02736     84.2 9.556e+03 1.525e-10
 93.05380     83.8 9.896e+03 2.396e-10
 93.09423     83.9 1.046e+04 4.584e-10
 93.12734     84.3 1.098e+04 7.248e-10
 93.14756     84.7 1.095e+04 7.230e-10
 93.17254     84.8 1.113e+04 7.814e-10
 93.19276     85.3 1.112e+04 7.501e-10
 93.21553     85.3 1.105e+04 6.975e-10
 93.25596     85.6 1.076e+04 5.423e-10
 93.28619     85.8 1.063e+04 4.694e-10
 93.30288     85.8 1.066e+04 4.413e-10
 93.31299     85.8 1.058e+04 4.084e-10
 93.32653     85.7 1.061e+04 4.082e-10
 93.34674     85.1 1.080e+04 4.352e-10
 93.35796     83.3 1.138e+04 5.817e-10
 93.36807     82.7 1.171e+04 6.639e-10
 93.38718     79.5 1.302e+04 1.454e-09
 93.40739     78.4 1.415e+04 3.209e-09
 93.42761     78.5 1.482e+04 4.915e-09
 93.44066     78.3 1.485e+04 4.925e-09
 93.45077     78.5 1.509e+04 5.509e-09
 93.46805     78.5 1.465e+04 4.179e-09
 93.47862     77.6 1.383e+04 2.011e-09
 93.48872     76.9 1.327e+04 1.612e-09
 93.50848     75.5 1.267e+04 9.898e-10
 93.52346     71.1 1.090e+04 4.014e-10
 93.54377     70.1 1.045e+04 3.181e-10
 93.57943     68.6 9.743e+03 2.735e-10
 93.61987     68.8 9.744e+03 2.786e-10
 93.66030     68.8 9.927e+03 3.203e-10
 93.68895     68.7 1.021e+04 3.987e-10
 93.70917     68.9 1.012e+04 3.616e-10
 93.73096     68.4 1.040e+04 4.543e-10
 93.75108     68.0 1.068e+04 5.661e-10
 93.77130     67.6 1.088e+04 6.778e-10
 93.78156     67.3 1.104e+04 7.544e-10
 93.79167     67.3 1.106e+04 7.905e-10
 93.80987     67.0 1.122e+04 8.478e-10
 93.81998     67.2 1.122e+04 8.556e-10
 93.83195     66.9 1.122e+04 8.449e-10
 93.85216     66.6 1.116e+04 8.060e-10
 93.86426     66.3 1.103e+04 7.486e-10
 93.87437     66.5 1.124e+04 8.852e-10
 93.89260     66.2 1.109e+04 8.100e-10
 93.91281     65.9 1.094e+04 7.478e-10
 93.93303     65.8 1.084e+04 6.792e-10
 93.94696     65.6 1.081e+04 6.202e-10
 93.95707     65.7 1.094e+04 7.120e-10
 93.98367     65.9 1.065e+04 5.286e-10
 94.01975     66.5 1.040e+04 3.931e-10
 94.03996     66.3 1.051e+04 4.146e-10
 94.06463     66.8 1.012e+04 2.779e-10
 94.10507     67.3 9.830e+03 2.155e-10
 94.14132     68.2 9.827e+03 2.166e-10
 94.16153     68.6 9.829e+03 2.252e-10
 94.18514     69.4 9.986e+03 2.536e-10
 94.20536     69.1 1.015e+04 3.067e-10
 94.21616     69.7 1.017e+04 3.111e-10
 94.23628     70.1 1.024e+04 3.305e-10
 94.25650     70.4 1.040e+04 3.583e-10
 94.27671     69.8 1.098e+04 4.139e-10
 94.28786     66.7 1.290e+04 6.668e-10
 94.29797     62.8 1.428e+04 1.377e-09
 94.31686     59.9 1.485e+04 3.033e-09
 94.32697     61.0 1.462e+04 2.743e-09
 94.33736     60.9 1.494e+04 5.005e-09
 94.35758     61.5 1.513e+04 6.505e-09
 94.37056     62.2 1.510e+04 6.442e-09
 94.38067     62.4 1.491e+04 4.972e-09
 94.39801     62.7 1.463e+04 3.075e-09
 94.41823     61.7 1.428e+04 1.539e-09
 94.43845     59.0 1.336e+04 7.635e-10
 94.45326     56.3 1.176e+04 5.136e-10
 94.46337     54.6 1.140e+04 5.726e-10
 94.47888     54.8 1.105e+04 5.366e-10
 94.49259     55.4 1.106e+04 5.240e-10
 94.50270     55.9 1.108e+04 5.523e-10
 94.51931     56.6 1.109e+04 5.373e-10
 94.53596     57.0 1.121e+04 5.290e-10
 94.54607     55.8 1.235e+04 9.335e-10
 94.55975     54.0 1.391e+04 1.315e-09
 94.57996     49.6 1.569e+04 2.475e-09
 94.60018     47.7 1.627e+04 5.188e-09
 94.61866     48.3 1.646e+04 9.060e-09
 94.62877     48.8 1.737e+04 1.475e-08
 94.64061     49.2 1.726e+04 1.385e-08
 94.65822     48.9 1.695e+04 1.045e-08
 94.66833     48.6 1.688e+04 1.003e-08
 94.68105     47.0 1.655e+04 6.814e-09
 94.70126     44.1 1.572e+04 4.301e-09
 94.72148     39.5 1.322e+04 2.102e-09
 94.74170     39.8 1.244e+04 1.407e-09
 94.76191     39.6 1.178e+04 9.553e-10
 94.79234     38.9 1.114e+04 3.813e-10
 94.82404     36.8 1.073e+04 1.472e-10
 94.84426     38.0 1.079e+04 1.421e-10
 94.86695     36.8 1.067e+04 1.358e-10
 94.88717     37.0 1.019e+04 1.177e-10
 94.91373     36.8 1.033e+04 1.307e-10
 94.95417     35.5 1.138e+04 2.852e-10
 94.99460     33.0 1.317e+04 1.248e-09
 95.02483     33.8 1.325e+04 1.947e-09
 95.04226     34.5 1.339e+04 2.543e-09
 95.05247     34.9 1.283e+04 1.428e-09
 95.07547     35.7 1.290e+04 1.909e-09
 95.11590     36.6 1.253e+04 1.471e-09
 95.15530     36.8 1.230e+04 7.965e-10
 95.17551     37.2 1.216e+04 6.602e-10
 95.19677     36.9 1.190e+04 4.099e-10
 95.21796     37.5 1.139e+04 3.599e-10
 95.23818     39.2 1.162e+04 3.228e-10
 95.27764     39.8 1.147e+04 3.416e-10
 95.31807     40.8 1.134e+04 4.130e-10
 95.35850     42.3 1.144e+04 5.123e-10
 95.38336     44.0 1.157e+04 5.265e-10
 95.40358     45.1 1.159e+04 5.662e-10
 95.43937     46.6 1.159e+04 5.439e-10
 95.47980     47.5 1.166e+04 4.852e-10
 95.50677     48.5 1.175e+04 4.009e-10
 95.52698     48.9 1.164e+04 3.236e-10
 95.54876     49.5 1.181e+04 2.585e-10
 95.56897     50.6 1.176e+04 3.318e-10
 95.60110     50.8 1.200e+04 2.956e-10
 95.64154     50.3 1.211e+04 3.082e-10
 95.67176     49.8 1.214e+04 3.565e-10
 95.68231     49.7 1.202e+04 4.196e-10
 95.69241     50.0 1.196e+04 4.139e-10
 95.71406     49.9 1.197e+04 5.114e-10
 95.73427     50.6 1.184e+04 4.626e-10
 95.76274     51.2 1.168e+04 4.245e-10
 95.80327     51.6 1.145e+04 3.734e-10
 95.83802     52.4 1.121e+04 2.831e-10
 95.85824     52.8 1.129e+04 3.120e-10
 95.87955     53.6 1.121e+04 2.089e-10
 95.89977     54.2 1.121e+04 1.983e-10
 95.92457     54.4 1.118e+04 1.497e-10
 95.96500     54.8 1.112e+04 1.466e-10
 96.00544     55.3 1.113e+04 1.576e-10
 96.04495     55.9 1.115e+04 1.934e-10
 96.06516     56.0 1.122e+04 2.193e-10
 96.08630     56.7 1.113e+04 2.786e-10
 96.12674     57.5 1.113e+04 3.231e-10
 96.16717     58.1 1.114e+04 3.293e-10
 96.18949     58.7 1.109e+04 3.012e-10
 96.20971     58.6 1.107e+04 2.541e-10
 96.23056     59.0 1.099e+04 1.982e-10
 96.25078     58.9 1.091e+04 1.592e-10
 96.28847     59.2 1.094e+04 1.316e-10
 96.32890     59.4 1.103e+04 1.335e-10
 96.36934     59.2 1.130e+04 1.564e-10
 96.39596     58.7 1.145e+04 2.463e-10
 96.41618     59.5 1.147e+04 1.677e-10
 96.45020     59.0 1.151e+04 2.862e-10
 96.49064     58.8 1.159e+04 5.337e-10
 96.52065     58.5 1.179e+04 7.433e-10
 96.53066     58.5 1.190e+04 6.404e-10
 96.54098     58.3 1.189e+04 8.849e-10
 96.56116     58.1 1.215e+04 1.193e-09
 96.58138     58.4 1.220e+04 1.324e-09
 96.61184     58.6 1.243e+04 1.444e-09
 96.65237     58.1 1.255e+04 1.347e-09
 96.69280     57.0 1.268e+04 1.112e-09
 96.72675     55.4 1.285e+04 1.215e-09
 96.74697     57.1 1.267e+04 1.066e-09
 96.77367     55.3 1.316e+04 1.520e-09
 96.81411     54.2 1.377e+04 2.765e-09
 96.84433     54.8 1.401e+04 3.461e-09
 96.86191     55.1 1.412e+04 3.583e-09
 96.87202     55.0 1.431e+04 3.965e-09
 96.88467     55.3 1.425e+04 3.752e-09
 96.90206     55.4 1.407e+04 3.058e-09
 96.91217     55.9 1.397e+04 2.935e-09
 96.92510     55.7 1.384e+04 2.347e-09
 96.94532     55.0 1.373e+04 1.863e-09
 96.96554     54.1 1.351e+04 1.541e-09
 96.98476     53.6 1.327e+04 1.346e-09
 96.99487     54.1 1.336e+04 1.465e-09
 97.00597     54.1 1.313e+04 1.354e-09
 97.02619     54.5 1.291e+04 1.168e-09
 97.03765     55.0 1.276e+04 9.179e-10
 97.04775     55.3 1.297e+04 1.007e-09
 97.06662     55.3 1.301e+04 7.373e-10
 97.07757     54.8 1.300e+04 5.494e-10
 97.08768     55.4 1.308e+04 5.733e-10
 97.10705     54.4 1.284e+04 4.625e-10
 97.13747     54.0 1.223e+04 4.548e-10
 97.17801     53.4 1.204e+04 4.869e-10
 97.20347     53.6 1.188e+04 5.197e-10
 97.22368     53.9 1.198e+04 5.992e-10
 97.24316     54.6 1.172e+04 5.378e-10
 97.26338     54.9 1.187e+04 6.159e-10
 97.29931     55.3 1.174e+04 5.086e-10
 97.33974     55.2 1.175e+04 4.380e-10
 97.38017     55.3 1.174e+04 4.526e-10
 97.40856     55.8 1.164e+04 4.635e-10
 97.42878     56.3 1.187e+04 6.002e-10
 97.46104     57.4 1.177e+04 5.693e-10
 97.50147     58.4 1.165e+04 4.493e-10
 97.53472     58.9 1.178e+04 4.135e-10
 97.55494     59.4 1.206e+04 6.148e-10
 97.57213     59.8 1.209e+04 6.327e-10
 97.58387     59.7 1.214e+04 6.380e-10
 97.59408     60.0 1.217e+04 6.991e-10
 97.61257     59.7 1.227e+04 6.971e-10
 97.63269     59.6 1.239e+04 7.596e-10
 97.65290     59.8 1.237e+04 8.290e-10
 97.66657     60.1 1.233e+04 8.252e-10
 97.67668     60.5 1.222e+04 7.264e-10
 97.69334     61.0 1.210e+04 6.629e-10
 97.71026     61.2 1.206e+04 5.900e-10
 97.72037     61.2 1.222e+04 6.374e-10
 97.73377     61.2 1.227e+04 5.570e-10
 97.74927     60.8 1.230e+04 4.991e-10
 97.75938     61.0 1.227e+04 4.471e-10
 97.77420     60.7 1.228e+04 4.470e-10
 97.79442     60.3 1.235e+04 4.685e-10
 97.81464     59.7 1.245e+04 5.532e-10
 97.83197     59.2 1.246e+04 7.243e-10
 97.84207     59.5 1.247e+04 6.201e-10
 97.85507     59.4 1.242e+04 8.221e-10
 97.87529     59.6 1.244e+04 1.061e-09
 97.88600     60.1 1.251e+04 1.196e-09
 97.89610     59.8 1.275e+04 1.321e-09
 97.91466     59.9 1.276e+04 1.299e-09
 97.92477     60.0 1.277e+04 1.286e-09
 97.94614     60.6 1.281e+04 1.273e-09
 97.98667     62.1 1.220e+04 8.120e-10
 98.02711     63.3 1.199e+04 4.530e-10
 98.06754     64.2 1.200e+04 2.875e-10
 98.09037     65.6 1.191e+04 2.752e-10
 98.11058     65.4 1.193e+04 3.557e-10
 98.14841     67.1 1.193e+04 3.638e-10
 98.18884     68.8 1.192e+04 4.054e-10
 98.21744     70.8 1.194e+04 5.182e-10
 98.23766     70.7 1.199e+04 5.277e-10
 98.25567     71.6 1.211e+04 6.251e-10
 98.27588     71.7 1.225e+04 7.342e-10
 98.29994     72.6 1.243e+04 8.691e-10
 98.32005     72.7 1.275e+04 1.041e-09
 98.33827     71.1 1.431e+04 1.646e-09
 98.34837     69.1 1.606e+04 2.117e-09
 98.36049     65.0 1.808e+04 5.480e-09
 98.38070     63.7 1.837e+04 1.374e-08
 98.39298     64.5 1.828e+04 2.316e-08
 98.40309     65.2 1.773e+04 2.186e-08
 98.42097     67.5 1.719e+04 1.866e-08
 98.43107     67.9 1.675e+04 1.546e-08
 98.44135     70.8 1.614e+04 7.218e-09
 98.46157     70.8 1.611e+04 2.075e-09
 98.48179     66.7 1.695e+04 3.862e-10
 98.50200     65.3 1.431e+04 3.974e-10
 98.51377     62.2 1.315e+04 1.896e-10
 98.52388     59.9 1.166e+04 9.342e-11
 98.54860     59.6 1.139e+04 2.708e-10
 98.56892     58.1 1.058e+04 1.177e-10
 98.58656     59.6 1.052e+04 1.490e-10
 98.60677     60.2 1.039e+04 1.098e-10
 98.63361     62.1 1.035e+04 1.334e-10
 98.67404     63.9 1.032e+04 1.348e-10
 98.71448     65.8 1.025e+04 1.251e-10
 98.75196     67.5 1.016e+04 1.066e-10
 98.77217     68.0 1.018e+04 8.469e-11
 98.79534     69.5 1.008e+04 8.234e-11
 98.83578     71.0 1.002e+04 8.704e-11
 98.87621     72.6 9.975e+03 1.022e-10
 98.90017     74.4 9.951e+03 1.236e-10
 98.92039     74.3 9.752e+03 1.141e-10
 98.93757     76.3 9.833e+03 1.212e-10
 98.95779     77.0 9.907e+03 1.351e-10
 98.99751     78.7 9.939e+03 1.327e-10
 99.03794     80.4 9.967e+03 1.214e-10
 99.07838     82.2 9.985e+03 1.001e-10
 99.10297     83.7 1.001e+04 7.821e-11
 99.12318     84.3 1.005e+04 8.317e-11
 99.15924     85.6 1.001e+04 6.572e-11
 99.19968     87.0 9.887e+03 6.012e-11
 99.23142     88.6 9.869e+03 6.070e-11
 99.25164     88.2 9.752e+03 5.706e-11
 99.26836     89.8 9.776e+03 6.456e-11
 99.28858     90.4 9.803e+03 6.899e-11
 99.32098     92.1 9.806e+03 9.120e-11
 99.36141     93.9 9.914e+03 1.399e-10
 99.40184     95.9 1.026e+04 2.290e-10
 99.43376     97.4 1.073e+04 3.524e-10
 99.45398     98.1 1.071e+04 3.398e-10
 99.47250     98.4 1.090e+04 3.918e-10
 99.49262     98.8 1.102e+04 4.293e-10
 99.51284     98.9 1.122e+04 5.085e-10
 99.52637     98.9 1.153e+04 6.478e-10
 99.53648     99.3 1.144e+04 5.869e-10
 99.55327     98.9 1.192e+04 7.994e-10
 99.57259     97.8 1.271e+04 1.244e-09
 99.58270     97.4 1.220e+04 8.731e-10
 99.59371     96.3 1.290e+04 1.477e-09
 99.60907     95.6 1.341e+04 2.271e-09
 99.61918     95.9 1.336e+04 2.066e-09
 99.63414     95.4 1.361e+04 2.601e-09
 99.65436     94.8 1.354e+04 2.553e-09
 99.67457     94.3 1.321e+04 2.181e-09
 99.69177     93.7 1.278e+04 1.529e-09
 99.70188     94.1 1.300e+04 1.860e-09
 99.71501     93.1 1.259e+04 1.253e-09
 99.73522     91.5 1.214e+04 8.274e-10
 99.76446     90.5 1.150e+04 6.206e-10
 99.78468     90.7 1.159e+04 6.762e-10
 99.80608     90.9 1.146e+04 6.550e-10
 99.84661     90.7 1.138e+04 6.578e-10
 99.88704     90.7 1.152e+04 7.617e-10
 99.91415     90.9 1.167e+04 9.184e-10
 99.93436     91.6 1.111e+04 5.401e-10
 99.95007     91.9 1.123e+04 5.884e-10
 99.96008     92.3 1.130e+04 5.998e-10
 99.97782     92.4 1.135e+04 6.303e-10
 99.99804     92.6 1.133e+04 6.248e-10
