# Columns:
#   distance along LOS (in CHIMPs)
#   peculiar velocity  (in km/s)
#   temperature (K)
#   HI number density
# pos=(6.12704,87.0038,51.5425), angles=(0.107094,4.68881)
  0.00301    -62.3 9.174e+03 1.364e-10
  0.01950    -61.8 9.303e+03 1.497e-10
  0.05264    -59.9 9.363e+03 1.861e-10
  0.09192    -57.9 9.423e+03 2.221e-10
  0.13121    -55.7 9.491e+03 2.537e-10
  0.17050    -53.7 9.539e+03 2.772e-10
  0.20979    -51.7 9.534e+03 2.895e-10
  0.24907    -49.8 9.494e+03 2.943e-10
  0.28836    -47.9 9.375e+03 3.018e-10
  0.32765    -45.8 9.336e+03 3.102e-10
  0.35943    -43.6 9.334e+03 3.102e-10
  0.37907    -43.0 9.239e+03 2.654e-10
  0.40622    -40.9 9.125e+03 2.383e-10
  0.44551    -38.6 9.003e+03 2.076e-10
  0.48480    -36.6 8.907e+03 1.899e-10
  0.52409    -34.7 8.951e+03 1.896e-10
  0.56337    -34.0 9.426e+03 2.428e-10
  0.60266    -34.4 9.919e+03 4.390e-10
  0.64195    -34.1 1.066e+04 8.825e-10
  0.68124    -33.3 1.137e+04 1.243e-09
  0.71900    -33.7 1.141e+04 1.140e-09
  0.73864    -33.3 1.239e+04 1.818e-09
  0.75981    -34.9 1.130e+04 8.978e-10
  0.79910    -37.3 1.031e+04 6.322e-10
  0.83839    -37.7 1.015e+04 6.048e-10
  0.87768    -37.7 1.020e+04 6.939e-10
  0.91696    -37.1 1.031e+04 7.886e-10
  0.95625    -36.4 1.029e+04 7.984e-10
  0.99554    -35.6 1.007e+04 7.049e-10
  1.03483    -34.9 9.730e+03 5.306e-10
  1.07411    -34.6 9.320e+03 3.935e-10
  1.09821    -33.9 9.002e+03 3.157e-10
  1.11785    -34.4 8.972e+03 2.999e-10
  1.15269    -32.9 8.711e+03 2.483e-10
  1.19198    -31.3 8.515e+03 2.109e-10
  1.23126    -29.6 8.373e+03 1.847e-10
  1.27055    -27.8 8.236e+03 1.639e-10
  1.30984    -25.7 8.125e+03 1.480e-10
  1.34913    -23.5 8.058e+03 1.331e-10
  1.38841    -21.2 7.978e+03 1.165e-10
  1.42770    -18.7 7.891e+03 9.711e-11
  1.45778    -16.4 7.801e+03 7.582e-11
  1.47742    -16.2 7.800e+03 7.340e-11
  1.50628    -14.4 7.721e+03 6.198e-11
  1.54556    -12.6 7.683e+03 6.189e-11
  1.58485    -10.4 7.631e+03 6.520e-11
  1.62414     -8.0 7.645e+03 6.553e-11
  1.66343     -5.7 7.676e+03 6.508e-11
  1.70271     -3.6 7.706e+03 6.649e-11
  1.74200     -1.5 7.734e+03 7.158e-11
  1.78129      0.6 7.804e+03 7.915e-11
  1.81735      2.9 7.875e+03 8.930e-11
  1.83699      2.9 7.897e+03 8.690e-11
  1.85986      5.3 7.923e+03 9.313e-11
  1.89915      7.7 7.949e+03 9.657e-11
  1.93844     10.2 7.970e+03 9.775e-11
  1.97773     12.7 8.013e+03 9.845e-11
  2.01702     15.1 8.104e+03 1.014e-10
  2.05630     17.5 8.219e+03 1.081e-10
  2.09559     19.8 8.356e+03 1.189e-10
  2.13488     22.1 8.520e+03 1.373e-10
  2.17417     24.1 8.670e+03 1.658e-10
  2.19656     26.5 8.975e+03 2.265e-10
  2.21620     26.4 9.026e+03 2.377e-10
  2.25274     29.1 9.535e+03 3.375e-10
  2.29203     30.9 9.908e+03 4.217e-10
  2.32140     32.2 1.007e+04 4.559e-10
  2.34094     33.1 1.034e+04 5.533e-10
  2.36059     34.0 1.061e+04 6.893e-10
  2.37615     34.9 1.086e+04 8.470e-10
  2.38597     34.5 1.082e+04 8.745e-10
  2.39987     35.4 1.110e+04 1.045e-09
  2.41952     36.0 1.153e+04 1.300e-09
  2.43916     36.6 1.203e+04 1.724e-09
  2.45881     37.2 1.267e+04 2.349e-09
  2.47845     37.7 1.354e+04 3.308e-09
  2.49809     37.8 1.455e+04 4.545e-09
  2.51278     37.2 1.489e+04 4.746e-09
  2.52255     36.7 1.516e+04 5.031e-09
  2.53237     35.2 1.595e+04 6.147e-09
  2.54219     32.5 1.756e+04 8.877e-09
  2.55202     29.3 1.925e+04 1.448e-08
  2.56075     26.9 1.988e+04 2.324e-08
  2.56566     27.0 1.923e+04 1.886e-08
  2.57166     27.0 1.943e+04 2.673e-08
  2.58148     27.2 1.944e+04 3.000e-08
  2.59130     27.9 1.939e+04 2.910e-08
  2.60112     28.7 1.943e+04 2.534e-08
  2.61095     28.9 1.906e+04 1.670e-08
  2.62077     28.3 1.888e+04 1.360e-08
  2.63555     28.3 1.783e+04 6.670e-09
  2.65524     24.4 1.598e+04 1.950e-09
  2.67489     17.5 1.175e+04 6.821e-10
  2.69453     16.1 1.033e+04 4.951e-10
  2.71417     16.8 1.009e+04 4.311e-10
  2.73382     17.7 1.010e+04 3.977e-10
  2.74554     18.9 9.986e+03 3.625e-10
  2.75536     19.6 1.002e+04 3.649e-10
  2.77311     20.0 9.974e+03 3.546e-10
  2.80267     21.2 9.997e+03 4.143e-10
  2.84205     23.3 9.892e+03 4.111e-10
  2.88134     25.7 9.657e+03 3.723e-10
  2.91570     28.1 9.404e+03 3.078e-10
  2.93534     28.7 9.332e+03 2.867e-10
  2.95992     30.8 9.082e+03 2.397e-10
  2.99920     32.9 8.930e+03 2.326e-10
  3.03849     35.0 8.931e+03 2.375e-10
  3.07778     37.1 8.982e+03 2.617e-10
  3.11707     39.1 9.141e+03 3.145e-10
  3.15635     40.6 9.315e+03 3.841e-10
  3.18572     41.5 9.368e+03 4.311e-10
  3.20527     42.4 9.510e+03 4.981e-10
  3.22491     43.3 9.714e+03 5.808e-10
  3.24456     44.2 9.896e+03 6.433e-10
  3.26420     44.9 1.001e+04 6.786e-10
  3.28384     45.5 1.003e+04 6.816e-10
  3.29471     46.0 1.002e+04 6.749e-10
  3.30454     45.8 9.879e+03 6.445e-10
  3.32313     46.3 9.825e+03 6.230e-10
  3.34278     46.9 9.699e+03 5.807e-10
  3.36242     47.4 9.587e+03 5.420e-10
  3.38206     48.0 9.434e+03 5.016e-10
  3.40171     48.5 9.366e+03 4.867e-10
  3.42135     49.1 9.339e+03 4.855e-10
  3.44099     49.7 9.367e+03 4.930e-10
  3.46064     50.2 9.466e+03 5.231e-10
  3.47450     50.6 9.621e+03 5.785e-10
  3.48432     50.8 9.512e+03 5.503e-10
  3.49993     51.2 9.715e+03 6.355e-10
  3.51957     51.7 9.937e+03 7.369e-10
  3.53921     52.0 1.015e+04 8.433e-10
  3.55886     52.3 1.036e+04 9.642e-10
  3.57850     52.8 1.051e+04 1.068e-09
  3.59814     53.1 1.054e+04 1.077e-09
  3.62771     52.9 1.023e+04 8.504e-10
  3.65448     53.6 9.684e+03 5.812e-10
  3.67412     54.5 1.035e+04 8.623e-10
  3.70638     55.2 9.653e+03 5.190e-10
  3.74567     55.3 8.790e+03 2.890e-10
  3.78496     55.4 8.254e+03 2.019e-10
  3.82424     56.1 8.208e+03 1.975e-10
  3.86353     57.4 8.222e+03 2.024e-10
  3.90282     58.9 8.305e+03 2.201e-10
  3.94211     60.3 8.424e+03 2.434e-10
  3.98139     61.9 8.534e+03 2.636e-10
  4.01405     63.4 8.635e+03 2.786e-10
  4.03369     64.3 9.141e+03 3.879e-10
  4.05997     65.7 9.374e+03 4.380e-10
  4.09926     66.6 9.609e+03 4.957e-10
  4.12862     66.9 9.533e+03 4.782e-10
  4.14817     67.1 9.652e+03 5.225e-10
  4.16781     67.3 9.831e+03 6.128e-10
  4.18746     67.8 1.001e+04 7.205e-10
  4.20346     68.4 1.020e+04 8.127e-10
  4.21328     68.9 1.050e+04 9.423e-10
  4.22675     69.4 1.058e+04 9.497e-10
  4.24639     69.8 1.057e+04 9.328e-10
  4.26603     70.2 1.052e+04 8.738e-10
  4.28568     70.5 1.042e+04 7.861e-10
  4.30532     70.8 1.035e+04 7.032e-10
  4.32497     71.1 1.035e+04 6.605e-10
  4.34461     71.5 1.036e+04 6.586e-10
  4.36425     72.0 1.038e+04 6.639e-10
  4.38324     72.5 1.049e+04 6.922e-10
  4.39307     72.8 1.058e+04 7.423e-10
  4.40354     73.4 1.072e+04 7.996e-10
  4.42318     74.0 1.088e+04 8.628e-10
  4.44283     74.6 1.104e+04 8.984e-10
  4.46247     75.1 1.110e+04 8.979e-10
  4.48212     75.7 1.112e+04 8.827e-10
  4.50176     76.2 1.112e+04 8.405e-10
  4.52140     76.7 1.113e+04 8.010e-10
  4.54105     77.5 1.116e+04 7.986e-10
  4.56069     78.2 1.130e+04 8.144e-10
  4.57285     78.7 1.159e+04 8.714e-10
  4.58267     78.8 1.159e+04 8.651e-10
  4.59998     79.1 1.200e+04 9.692e-10
  4.61962     79.4 1.240e+04 1.128e-09
  4.63927     79.8 1.269e+04 1.320e-09
  4.65891     80.3 1.286e+04 1.507e-09
  4.67855     80.9 1.293e+04 1.655e-09
  4.69820     81.5 1.300e+04 1.762e-09
  4.71784     81.9 1.313e+04 1.865e-09
  4.73748     82.2 1.336e+04 2.014e-09
  4.75263     82.4 1.370e+04 2.226e-09
  4.76246     83.0 1.321e+04 1.695e-09
  4.77677     83.0 1.373e+04 2.057e-09
  4.79642     83.1 1.430e+04 2.528e-09
  4.81606     83.2 1.478e+04 2.959e-09
  4.83570     83.2 1.513e+04 3.343e-09
  4.85535     83.2 1.517e+04 3.346e-09
  4.87499     83.2 1.504e+04 2.984e-09
  4.89464     83.3 1.461e+04 2.392e-09
  4.91428     83.2 1.397e+04 1.830e-09
  4.93242     83.0 1.321e+04 1.437e-09
  4.94224     84.2 1.367e+04 2.206e-09
  4.95357     84.2 1.296e+04 1.695e-09
  4.97321     84.3 1.233e+04 1.332e-09
  4.99285     84.5 1.184e+04 1.064e-09
  5.01250     85.1 1.149e+04 8.585e-10
  5.03214     85.8 1.120e+04 6.874e-10
  5.05179     86.3 1.104e+04 5.699e-10
  5.07143     87.1 1.081e+04 4.681e-10
  5.09107     87.4 1.078e+04 4.371e-10
  5.11230     88.5 1.058e+04 3.973e-10
  5.13204     89.7 1.032e+04 2.522e-10
  5.16002     91.4 1.010e+04 1.861e-10
  5.19931     93.0 9.943e+03 1.621e-10
  5.23860     94.6 9.897e+03 1.647e-10
  5.27788     96.2 9.856e+03 1.752e-10
  5.31717     97.8 9.858e+03 2.090e-10
  5.35646     99.3 9.967e+03 2.732e-10
  5.39575    100.9 1.020e+04 3.709e-10
  5.43503    102.3 1.045e+04 4.751e-10
  5.47197    103.5 1.069e+04 5.604e-10
  5.49161    104.9 1.106e+04 7.406e-10
  5.50369    105.0 1.111e+04 7.514e-10
  5.52324    105.2 1.118e+04 7.678e-10
  5.54288    105.4 1.117e+04 7.662e-10
  5.56252    105.7 1.112e+04 7.347e-10
  5.58217    106.1 1.096e+04 6.615e-10
  5.60181    106.5 1.080e+04 5.680e-10
  5.63137    106.5 1.051e+04 4.244e-10
  5.67076    107.2 1.018e+04 3.239e-10
  5.71005    107.8 9.893e+03 2.641e-10
  5.74934    108.5 9.620e+03 2.485e-10
  5.78862    109.6 9.518e+03 2.491e-10
  5.82791    110.9 9.476e+03 2.484e-10
  5.85118    112.4 9.442e+03 2.456e-10
  5.87082    113.8 9.123e+03 1.781e-10
  5.90649    115.2 9.188e+03 1.834e-10
  5.94577    116.5 9.268e+03 1.863e-10
  5.98506    117.7 9.314e+03 1.847e-10
  6.02435    118.8 9.367e+03 1.773e-10
  6.06364    119.8 9.379e+03 1.673e-10
  6.10292    120.7 9.365e+03 1.561e-10
  6.14221    121.6 9.306e+03 1.424e-10
  6.18150    122.5 9.218e+03 1.255e-10
  6.21075    123.4 9.122e+03 1.065e-10
  6.23039    124.7 9.236e+03 1.117e-10
  6.26007    125.5 9.185e+03 1.052e-10
  6.29936    126.3 9.195e+03 1.067e-10
  6.33865    126.9 9.275e+03 1.182e-10
  6.37794    127.0 9.500e+03 1.586e-10
  6.41722    127.0 9.836e+03 2.348e-10
  6.45651    127.0 1.020e+04 3.233e-10
  6.49580    126.4 1.037e+04 3.422e-10
  6.53509    125.4 1.036e+04 3.275e-10
  6.57032    124.3 1.024e+04 2.655e-10
  6.58996    125.3 1.054e+04 3.250e-10
  6.61366    124.1 1.024e+04 2.057e-10
  6.65295    123.1 9.886e+03 1.280e-10
  6.69224    122.5 9.534e+03 9.651e-11
  6.73152    122.5 9.211e+03 9.064e-11
  6.77081    122.8 9.069e+03 8.837e-11
  6.81010    123.6 8.991e+03 8.672e-11
  6.84939    124.5 8.964e+03 8.662e-11
  6.88868    125.5 8.956e+03 8.752e-11
  6.92796    126.5 8.954e+03 9.163e-11
  6.94953    127.5 8.994e+03 9.960e-11
  6.96917    127.9 8.907e+03 1.003e-10
  7.00654    128.8 8.958e+03 1.116e-10
  7.04583    129.8 9.107e+03 1.295e-10
  7.08511    131.0 9.392e+03 1.604e-10
  7.12440    132.1 9.827e+03 2.138e-10
  7.16369    132.4 1.022e+04 2.827e-10
  7.19306    132.4 1.036e+04 3.216e-10
  7.21260    132.3 1.052e+04 3.722e-10
  7.23225    131.8 1.085e+04 4.886e-10
  7.25189    130.8 1.158e+04 7.523e-10
  7.27153    128.8 1.281e+04 1.359e-09
  7.29118    126.3 1.426e+04 2.667e-09
  7.30890    123.8 1.550e+04 4.926e-09
  7.31873    123.8 1.544e+04 5.010e-09
  7.33047    121.7 1.619e+04 6.840e-09
  7.35011    119.4 1.630e+04 6.878e-09
  7.36975    117.2 1.618e+04 6.218e-09
  7.38940    115.1 1.559e+04 4.536e-09
  7.40904    112.8 1.452e+04 2.809e-09
  7.42868    110.7 1.316e+04 1.743e-09
  7.44833    109.2 1.207e+04 1.250e-09
  7.47789    109.2 1.159e+04 1.073e-09
  7.51728    109.4 1.100e+04 8.394e-10
  7.55656    110.6 1.062e+04 6.663e-10
  7.59585    112.4 1.032e+04 5.287e-10
  7.63514    114.5 1.008e+04 4.303e-10
  7.66867    116.5 9.921e+03 3.718e-10
  7.68831    116.8 9.511e+03 2.676e-10
  7.71371    118.9 9.465e+03 2.595e-10
  7.75300    121.1 9.461e+03 2.604e-10
  7.79229    123.4 9.474e+03 2.692e-10
  7.83158    125.7 9.535e+03 2.901e-10
  7.86501    128.1 9.644e+03 3.258e-10
  7.88466    127.1 1.006e+04 4.715e-10
  7.91015    129.3 1.032e+04 5.868e-10
  7.94944    132.0 1.077e+04 7.643e-10
  7.97881    133.9 1.096e+04 8.625e-10
  7.99835    135.0 1.105e+04 9.170e-10
  8.01800    136.2 1.114e+04 9.789e-10
  8.03764    137.3 1.124e+04 1.034e-09
  8.04769    138.5 1.133e+04 1.080e-09
  8.05751    139.0 1.117e+04 1.021e-09
  8.07693    140.0 1.129e+04 1.073e-09
  8.09657    141.1 1.137e+04 1.110e-09
  8.11622    142.0 1.144e+04 1.130e-09
  8.13586    143.0 1.144e+04 1.129e-09
  8.15550    143.9 1.144e+04 1.121e-09
  8.18507    145.2 1.142e+04 1.071e-09
  8.22445    146.8 1.128e+04 9.627e-10
  8.26374    148.2 1.110e+04 8.383e-10
  8.30303    149.7 1.092e+04 7.453e-10
  8.34232    151.0 1.087e+04 7.160e-10
  8.38160    152.3 1.087e+04 7.150e-10
  8.40745    153.2 1.089e+04 7.194e-10
  8.42709    155.0 1.086e+04 7.129e-10
  8.46018    155.7 1.102e+04 7.806e-10
  8.49947    156.0 1.118e+04 8.552e-10
  8.53875    156.3 1.127e+04 8.588e-10
  8.57804    156.3 1.130e+04 7.649e-10
  8.61733    155.5 1.106e+04 6.999e-10
  8.65662    153.7 1.086e+04 7.610e-10
  8.69590    151.9 1.086e+04 9.512e-10
  8.73519    150.6 1.105e+04 1.055e-09
  8.76702    149.3 1.110e+04 1.027e-09
  8.78656    151.2 1.170e+04 1.390e-09
  8.80375    150.4 1.174e+04 1.357e-09
  8.82339    149.4 1.171e+04 1.275e-09
  8.84304    148.3 1.164e+04 1.232e-09
  8.86268    147.1 1.159e+04 1.231e-09
  8.88232    146.2 1.163e+04 1.279e-09
  8.90197    145.4 1.166e+04 1.336e-09
  8.93153    145.1 1.164e+04 1.396e-09
  8.97092    144.4 1.166e+04 1.438e-09
  9.01020    144.1 1.160e+04 1.390e-09
  9.04949    144.3 1.129e+04 1.182e-09
  9.08878    144.5 1.072e+04 8.745e-10
  9.12659    144.9 1.006e+04 6.074e-10
  9.14623    146.5 9.981e+03 6.026e-10
  9.16735    147.2 9.418e+03 4.326e-10
  9.20664    148.0 9.258e+03 3.882e-10
  9.24593    149.2 9.277e+03 3.933e-10
  9.28522    150.6 9.400e+03 4.239e-10
  9.32451    151.9 9.584e+03 4.774e-10
  9.36379    153.4 9.712e+03 5.385e-10
  9.40308    154.9 9.804e+03 6.048e-10
  9.44237    156.6 9.960e+03 6.833e-10
  9.48166    158.0 1.025e+04 7.849e-10
  9.50580    158.9 1.066e+04 8.827e-10
  9.51552    159.9 1.064e+04 8.250e-10
  9.53057    160.3 1.100e+04 9.481e-10
  9.55021    160.5 1.143e+04 1.077e-09
  9.56986    160.6 1.177e+04 1.167e-09
  9.58950    160.6 1.184e+04 1.202e-09
  9.60914    160.3 1.179e+04 1.186e-09
  9.63871    160.3 1.234e+04 1.502e-09
  9.67809    158.9 1.184e+04 1.137e-09
  9.71738    157.2 1.082e+04 7.045e-10
  9.75667    155.7 9.582e+03 4.075e-10
  9.79596    154.8 8.814e+03 2.856e-10
  9.83524    154.8 8.754e+03 2.755e-10
  9.86537    155.3 8.752e+03 2.759e-10
  9.88501    154.9 8.896e+03 3.109e-10
  9.91382    155.7 8.946e+03 3.180e-10
  9.95311    156.5 8.970e+03 3.177e-10
  9.99239    157.2 8.969e+03 3.062e-10
 10.03168    157.9 8.897e+03 2.696e-10
 10.07097    158.6 8.779e+03 2.307e-10
 10.11026    159.3 8.752e+03 2.193e-10
 10.14954    160.0 8.776e+03 2.223e-10
 10.18883    160.4 8.925e+03 2.434e-10
 10.22494    160.6 9.220e+03 3.031e-10
 10.24458    160.5 9.430e+03 3.680e-10
 10.26741    160.5 9.873e+03 4.861e-10
 10.30669    160.5 1.029e+04 6.046e-10
 10.34598    160.6 1.043e+04 6.280e-10
 10.38527    160.7 1.042e+04 6.148e-10
 10.42456    160.8 1.035e+04 5.324e-10
 10.46385    161.0 1.018e+04 3.894e-10
 10.50313    161.1 9.967e+03 2.618e-10
 10.54242    161.4 9.693e+03 1.871e-10
 10.58171    162.1 9.374e+03 1.718e-10
 10.60415    163.3 9.353e+03 1.722e-10
 10.62379    163.0 9.507e+03 2.323e-10
 10.66028    164.5 9.493e+03 2.323e-10
 10.69957    166.2 9.497e+03 2.368e-10
 10.73886    167.9 9.546e+03 2.533e-10
 10.77815    169.4 9.636e+03 2.780e-10
 10.81743    170.9 9.731e+03 3.030e-10
 10.85672    172.4 9.834e+03 3.305e-10
 10.89601    173.9 9.956e+03 3.649e-10
 10.93530    175.3 1.007e+04 4.003e-10
 10.96372    176.6 1.011e+04 4.129e-10
 10.98336    176.7 9.942e+03 3.641e-10
 11.01387    177.9 9.940e+03 3.382e-10
 11.05316    179.2 9.842e+03 2.933e-10
 11.09245    180.5 9.671e+03 2.447e-10
 11.13173    182.0 9.493e+03 2.169e-10
 11.17102    183.7 9.464e+03 2.158e-10
 11.21031    185.7 9.483e+03 2.220e-10
 11.24960    187.6 9.607e+03 2.505e-10
 11.28888    189.4 9.863e+03 3.068e-10
 11.32329    190.9 1.015e+04 3.836e-10
 11.34293    191.7 9.913e+03 3.130e-10
 11.36746    193.0 1.022e+04 3.971e-10
 11.40675    193.8 1.040e+04 4.613e-10
 11.43612    194.6 1.060e+04 5.813e-10
 11.45566    195.5 1.072e+04 6.643e-10
 11.47531    196.1 1.090e+04 7.011e-10
 11.49495    196.5 1.095e+04 6.978e-10
 11.52451    197.6 1.094e+04 5.886e-10
 11.55398    197.8 1.104e+04 6.104e-10
 11.57352    198.1 1.114e+04 6.189e-10
 11.59317    198.3 1.116e+04 6.128e-10
 11.61281    198.5 1.118e+04 5.905e-10
 11.63246    198.7 1.116e+04 5.562e-10
 11.65210    198.7 1.111e+04 5.061e-10
 11.68166    198.3 1.073e+04 3.331e-10
 11.70250    198.0 1.055e+04 3.014e-10
 11.71223    198.8 1.097e+04 3.693e-10
 11.73067    198.2 1.078e+04 3.308e-10
 11.76024    198.0 1.078e+04 3.302e-10
 11.79962    196.5 1.096e+04 3.884e-10
 11.83891    194.3 1.170e+04 6.300e-10
 11.87820    191.7 1.253e+04 9.544e-10
 11.91749    188.6 1.276e+04 1.005e-09
 11.95677    185.8 1.266e+04 9.152e-10
 11.99606    183.5 1.215e+04 6.041e-10
 12.03535    181.3 1.117e+04 3.386e-10
 12.06207    179.2 1.045e+04 2.747e-10
 12.08171    180.4 1.043e+04 2.843e-10
 12.11392    179.0 1.037e+04 2.847e-10
 12.15321    178.0 1.035e+04 3.032e-10
 12.19250    177.1 1.040e+04 3.498e-10
 12.23179    176.4 1.049e+04 4.029e-10
 12.25158    176.1 1.064e+04 4.795e-10
 12.26130    176.2 1.064e+04 4.732e-10
 12.28070    176.0 1.079e+04 5.292e-10
 12.31026    175.8 1.082e+04 5.267e-10
 12.34965    175.3 1.085e+04 5.387e-10
 12.38894    174.8 1.085e+04 5.309e-10
 12.41830    174.2 1.086e+04 5.295e-10
 12.43127    173.8 1.085e+04 5.188e-10
 12.44118    173.7 1.076e+04 5.099e-10
 12.45759    172.9 1.076e+04 4.949e-10
 12.47714    172.5 1.075e+04 4.795e-10
 12.49678    171.9 1.072e+04 4.511e-10
 12.51643    171.3 1.072e+04 4.312e-10
 12.53607    170.5 1.072e+04 4.003e-10
 12.55571    169.6 1.074e+04 3.780e-10
 12.57536    168.7 1.075e+04 3.556e-10
 12.59500    167.8 1.073e+04 3.360e-10
 12.61105    166.8 1.067e+04 3.279e-10
 12.62087    165.9 1.063e+04 3.658e-10
 12.63429    164.8 1.065e+04 3.698e-10
 12.65393    163.4 1.078e+04 3.942e-10
 12.67358    161.2 1.122e+04 4.961e-10
 12.69322    158.5 1.196e+04 7.519e-10
 12.71286    155.9 1.276e+04 1.230e-09
 12.73251    153.5 1.346e+04 1.920e-09
 12.75215    151.4 1.399e+04 2.622e-09
 12.77180    149.3 1.418e+04 2.944e-09
 12.79083    147.1 1.414e+04 2.914e-09
 12.80066    145.9 1.447e+04 3.493e-09
 12.81108    144.2 1.409e+04 3.194e-09
 12.83073    142.8 1.344e+04 2.678e-09
 12.85037    141.7 1.273e+04 2.068e-09
 12.87001    140.6 1.205e+04 1.531e-09
 12.88966    139.8 1.143e+04 1.098e-09
 12.90930    139.1 1.076e+04 7.566e-10
 12.93887    137.7 9.722e+03 4.046e-10
 12.97825    137.0 9.002e+03 2.628e-10
 13.01754    137.1 8.921e+03 2.498e-10
 13.05683    137.7 8.931e+03 2.556e-10
 13.08619    137.8 8.978e+03 2.685e-10
 13.10574    138.3 9.030e+03 2.815e-10
 13.12538    138.3 9.149e+03 3.125e-10
 13.14503    138.0 9.505e+03 4.146e-10
 13.16023    136.1 1.054e+04 7.976e-10
 13.17005    134.5 1.171e+04 1.025e-09
 13.18431    130.3 1.521e+04 3.500e-09
 13.20396    127.0 1.773e+04 9.351e-09
 13.22360    124.3 1.896e+04 1.431e-08
 13.24325    121.4 1.900e+04 1.406e-08
 13.26289    119.1 1.833e+04 1.081e-08
 13.28253    117.1 1.667e+04 5.655e-09
 13.30218    114.4 1.384e+04 2.328e-09
 13.33174    109.1 1.009e+04 7.333e-10
 13.37113    106.8 9.254e+03 3.024e-10
 13.41041    106.9 9.050e+03 2.679e-10
 13.44970    107.9 9.014e+03 2.678e-10
 13.48899    109.5 9.033e+03 2.824e-10
 13.51999    111.1 9.191e+03 3.306e-10
 13.53963    111.1 9.193e+03 3.300e-10
 13.56756    112.7 9.370e+03 3.866e-10
 13.60685    114.4 9.529e+03 4.273e-10
 13.64614    116.0 9.657e+03 4.378e-10
 13.68543    117.5 9.668e+03 4.355e-10
 13.72471    118.9 9.685e+03 4.214e-10
 13.76400    120.1 9.683e+03 3.830e-10
 13.80329    121.3 9.626e+03 3.272e-10
 13.84258    122.4 9.531e+03 2.684e-10
 13.87956    123.7 9.412e+03 2.198e-10
 13.89920    123.5 9.562e+03 2.899e-10
 13.92115    124.8 9.469e+03 2.551e-10
 13.96044    126.3 9.348e+03 2.317e-10
 13.99973    127.9 9.229e+03 2.211e-10
 14.03902    129.6 9.197e+03 2.212e-10
 14.07830    131.3 9.192e+03 2.286e-10
 14.11759    133.1 9.227e+03 2.492e-10
 14.15688    134.9 9.291e+03 2.791e-10
 14.19617    136.7 9.340e+03 3.022e-10
 14.23545    138.5 9.337e+03 3.031e-10
 14.25877    140.3 9.296e+03 2.950e-10
 14.27841    139.6 9.508e+03 3.541e-10
 14.31403    141.6 9.316e+03 3.023e-10
 14.35332    143.7 9.089e+03 2.289e-10
 14.39260    145.8 8.816e+03 1.593e-10
 14.43189    147.8 8.533e+03 1.129e-10
 14.47118    149.9 8.315e+03 9.713e-11
 14.51047    152.3 8.281e+03 9.688e-11
 14.54975    155.0 8.269e+03 9.827e-11
 14.58904    157.6 8.258e+03 1.049e-10
 14.61834    160.2 8.307e+03 1.181e-10
 14.63798    159.9 8.360e+03 1.255e-10
 14.66762    162.3 8.423e+03 1.343e-10
 14.70690    164.6 8.499e+03 1.438e-10
 14.74619    166.8 8.578e+03 1.532e-10
 14.78548    168.7 8.701e+03 1.648e-10
 14.82477    170.3 8.946e+03 1.854e-10
 14.86405    171.7 9.278e+03 2.226e-10
 14.90334    172.6 9.660e+03 2.751e-10
 14.93271    172.7 9.944e+03 3.331e-10
 14.95226    172.8 1.010e+04 3.984e-10
 14.97190    173.2 1.040e+04 5.355e-10
 14.98754    173.8 1.065e+04 6.917e-10
 14.99745    173.3 1.078e+04 7.384e-10
 15.02120    174.8 1.125e+04 1.011e-09
 15.06049    175.7 1.159e+04 1.150e-09
 15.09978    176.0 1.158e+04 1.114e-09
 15.13907    176.1 1.133e+04 9.140e-10
 15.17835    176.3 1.069e+04 5.922e-10
 15.21764    176.5 9.726e+03 3.340e-10
 15.25693    177.2 9.105e+03 2.370e-10
 15.29622    178.6 9.096e+03 2.350e-10
 15.33551    180.5 9.150e+03 2.474e-10
 15.35712    182.6 9.354e+03 2.881e-10
 15.37677    182.4 9.148e+03 2.519e-10
 15.41408    184.3 9.406e+03 2.961e-10
 15.45337    186.0 9.672e+03 3.490e-10
 15.49266    187.3 9.876e+03 4.000e-10
 15.53194    189.0 1.008e+04 4.645e-10
 15.57123    190.9 1.033e+04 5.526e-10
 15.61052    192.6 1.061e+04 6.436e-10
 15.64981    194.2 1.091e+04 6.878e-10
 15.67917    194.5 1.105e+04 7.021e-10
 15.69872    194.8 1.107e+04 7.016e-10
 15.71649    195.1 1.107e+04 6.967e-10
 15.72632    195.1 1.092e+04 6.365e-10
 15.73801    195.4 1.089e+04 6.069e-10
 15.75765    195.7 1.083e+04 5.616e-10
 15.77730    196.1 1.074e+04 5.067e-10
 15.79694    196.6 1.063e+04 4.514e-10
 15.81658    197.0 1.052e+04 4.037e-10
 15.83623    197.3 1.042e+04 3.785e-10
 15.85587    197.4 1.040e+04 3.756e-10
 15.87551    198.0 1.039e+04 3.780e-10
 15.89516    198.4 1.039e+04 3.823e-10
 15.90610    199.2 1.040e+04 3.989e-10
 15.91592    199.2 1.039e+04 4.074e-10
 15.93445    199.7 1.042e+04 4.250e-10
 15.95409    200.6 1.047e+04 4.498e-10
 15.97373    201.3 1.052e+04 4.641e-10
 16.00330    202.7 1.058e+04 4.779e-10
 16.04268    204.1 1.057e+04 4.703e-10
 16.07626    205.7 1.047e+04 4.238e-10
 16.09590    206.0 1.056e+04 4.944e-10
 16.12126    207.7 1.038e+04 4.309e-10
 16.16054    209.4 1.015e+04 3.543e-10
 16.19983    211.1 9.904e+03 2.777e-10
 16.23912    212.6 9.653e+03 2.160e-10
 16.27841    214.3 9.476e+03 1.860e-10
 16.31769    216.1 9.458e+03 1.838e-10
 16.35698    218.0 9.472e+03 1.855e-10
 16.39627    219.9 9.563e+03 1.977e-10
 16.43556    221.6 9.774e+03 2.320e-10
 16.45547    222.8 9.975e+03 2.789e-10
 16.47512    222.6 1.006e+04 3.406e-10
 16.50421    222.9 1.011e+04 3.725e-10
 16.52376    223.6 1.025e+04 4.349e-10
 16.54340    224.4 1.055e+04 5.743e-10
 16.56305    224.8 1.093e+04 7.834e-10
 16.58269    224.8 1.133e+04 1.031e-09
 16.60233    224.7 1.173e+04 1.279e-09
 16.62198    224.2 1.213e+04 1.457e-09
 16.63506    223.3 1.234e+04 1.481e-09
 16.64488    222.9 1.196e+04 1.286e-09
 16.66127    221.3 1.203e+04 1.281e-09
 16.68091    220.2 1.202e+04 1.253e-09
 16.71047    218.8 1.200e+04 1.179e-09
 16.74986    216.9 1.137e+04 9.288e-10
 16.78915    216.2 1.080e+04 7.972e-10
 16.81504    216.3 1.073e+04 7.906e-10
 16.83468    217.8 1.013e+04 5.766e-10
 16.86772    218.3 1.014e+04 5.842e-10
 16.90701    219.4 1.025e+04 6.407e-10
 16.94630    220.9 1.053e+04 7.501e-10
 16.98558    222.2 1.096e+04 9.225e-10
 17.02487    223.0 1.141e+04 1.121e-09
 17.05424    223.1 1.149e+04 1.168e-09
 17.07379    223.3 1.152e+04 1.179e-09
 17.09343    223.4 1.152e+04 1.173e-09
 17.11307    223.6 1.143e+04 1.131e-09
 17.13272    223.9 1.122e+04 1.041e-09
 17.15236    224.5 1.094e+04 9.312e-10
 17.17200    225.1 1.070e+04 8.363e-10
 17.18424    225.7 1.066e+04 8.044e-10
 17.19406    226.4 1.051e+04 7.607e-10
 17.21129    227.1 1.051e+04 7.549e-10
 17.23094    227.8 1.053e+04 7.579e-10
 17.25058    228.5 1.061e+04 7.750e-10
 17.27022    229.3 1.075e+04 8.149e-10
 17.28987    229.9 1.093e+04 8.752e-10
 17.30951    230.6 1.113e+04 9.546e-10
 17.32915    231.2 1.137e+04 1.060e-09
 17.34880    231.9 1.167e+04 1.206e-09
 17.36402    232.5 1.205e+04 1.411e-09
 17.37384    233.5 1.179e+04 1.281e-09
 17.38809    234.1 1.225e+04 1.531e-09
 17.40773    234.8 1.280e+04 1.869e-09
 17.42737    235.5 1.341e+04 2.302e-09
 17.44702    236.0 1.399e+04 2.798e-09
 17.46666    236.1 1.447e+04 3.314e-09
 17.48631    236.2 1.486e+04 3.831e-09
 17.50595    236.1 1.521e+04 4.418e-09
 17.52559    235.8 1.566e+04 5.273e-09
 17.54380    235.3 1.633e+04 6.566e-09
 17.55363    236.8 1.667e+04 6.162e-09
 17.56488    236.1 1.737e+04 7.956e-09
 17.58452    235.3 1.814e+04 9.603e-09
 17.60417    233.9 1.857e+04 9.791e-09
 17.62381    232.1 1.860e+04 9.356e-09
 17.64346    230.1 1.852e+04 7.388e-09
 17.66310    227.5 1.798e+04 4.581e-09
 17.68274    223.7 1.672e+04 2.555e-09
 17.70239    219.1 1.459e+04 1.767e-09
 17.72203    215.1 1.336e+04 1.753e-09
 17.73341    212.4 1.320e+04 1.778e-09
 17.74323    216.5 1.391e+04 2.043e-09
 17.76132    213.9 1.371e+04 2.058e-09
 17.78096    211.7 1.353e+04 2.042e-09
 17.80061    209.6 1.331e+04 1.927e-09
 17.82025    207.5 1.297e+04 1.601e-09
 17.83989    205.1 1.247e+04 1.161e-09
 17.85954    202.0 1.184e+04 7.721e-10
 17.87918    198.3 1.119e+04 5.428e-10
 17.89882    194.8 1.058e+04 4.512e-10
 17.91320    192.2 1.022e+04 4.389e-10
 17.92302    193.8 1.054e+04 5.327e-10
 17.93811    191.6 1.045e+04 5.300e-10
 17.95776    189.9 1.050e+04 5.401e-10
 17.97740    189.0 1.051e+04 5.519e-10
 18.00696    188.5 1.072e+04 6.098e-10
 18.04635    186.4 1.067e+04 6.062e-10
 18.08564    184.3 1.053e+04 5.875e-10
 18.12492    182.3 1.044e+04 5.725e-10
 18.16421    180.6 1.038e+04 5.574e-10
 18.20350    180.0 1.031e+04 5.291e-10
 18.24279    179.9 1.020e+04 4.886e-10
 18.27296    180.3 1.002e+04 4.369e-10
 18.29260    178.9 9.924e+03 4.192e-10
 18.32136    180.6 9.860e+03 3.959e-10
 18.36065    182.9 9.894e+03 3.984e-10
 18.39994    185.9 1.005e+04 4.193e-10
 18.43922    189.0 1.041e+04 4.743e-10
 18.46247    190.5 1.057e+04 5.062e-10
 18.47219    190.3 1.065e+04 5.309e-10
 18.48814    191.7 1.088e+04 5.891e-10
 18.50778    193.3 1.109e+04 6.541e-10
 18.52743    194.9 1.128e+04 7.173e-10
 18.54707    196.6 1.141e+04 7.755e-10
 18.56671    198.4 1.149e+04 8.268e-10
 18.58636    200.2 1.154e+04 8.693e-10
 18.60600    201.8 1.167e+04 9.002e-10
 18.62564    202.8 1.188e+04 9.237e-10
 18.64216    202.8 1.218e+04 9.654e-10
 18.65198    203.4 1.285e+04 1.157e-09
 18.66493    201.4 1.437e+04 1.718e-09
 18.68458    195.7 1.677e+04 3.476e-09
 18.70422    189.6 1.942e+04 7.335e-09
 18.71890    185.7 1.977e+04 1.043e-08
 18.72868    183.4 2.032e+04 1.292e-08
 18.73686    180.6 2.087e+04 1.545e-08
 18.74177    178.4 2.113e+04 1.650e-08
 18.74832    175.8 2.146e+04 1.720e-08
 18.75814    172.5 2.224e+04 1.689e-08
 18.76796    168.1 2.462e+04 1.556e-08
 18.77779    163.7 2.747e+04 1.461e-08
 18.78761    159.3 2.884e+04 1.466e-08
 18.79743    155.7 2.855e+04 1.563e-08
 18.80725    152.7 2.721e+04 1.721e-08
 18.81707    151.0 2.564e+04 1.890e-08
 18.82675    149.8 2.439e+04 2.040e-08
 18.83166    148.1 2.293e+04 2.804e-08
 18.83672    148.0 2.226e+04 2.925e-08
 18.84654    148.2 2.190e+04 2.890e-08
 18.85636    148.6 2.163e+04 2.739e-08
 18.86618    149.1 2.123e+04 2.486e-08
 18.88097    149.6 2.040e+04 2.048e-08
 18.90066    151.0 1.903e+04 1.401e-08
 18.92030    152.8 1.778e+04 9.770e-09
 18.93995    154.8 1.675e+04 6.576e-09
 18.95959    156.5 1.567e+04 4.041e-09
 18.97923    157.8 1.456e+04 2.368e-09
 18.99888    158.7 1.340e+04 1.373e-09
 19.01155    160.2 1.298e+04 1.115e-09
 19.03129    160.7 1.277e+04 8.142e-10
 19.06783    163.9 1.142e+04 5.361e-10
 19.10711    166.9 1.021e+04 3.445e-10
 19.14640    169.8 9.362e+03 2.347e-10
 19.18569    172.8 8.932e+03 1.855e-10
 19.22498    176.0 8.761e+03 1.656e-10
 19.26426    179.2 8.671e+03 1.567e-10
 19.30355    182.5 8.601e+03 1.538e-10
 19.34284    185.7 8.583e+03 1.538e-10
 19.37131    188.9 8.585e+03 1.539e-10
 19.39095    189.2 8.659e+03 1.605e-10
 19.42141    192.2 8.685e+03 1.711e-10
 19.46070    195.1 8.705e+03 1.807e-10
 19.49999    197.8 8.723e+03 1.882e-10
 19.53928    200.4 8.736e+03 1.914e-10
 19.57856    202.9 8.749e+03 1.909e-10
 19.61785    205.2 8.766e+03 1.900e-10
 19.65714    207.3 8.786e+03 1.898e-10
 19.69643    209.3 8.826e+03 1.905e-10
 19.73088    211.1 8.890e+03 1.935e-10
 19.75052    211.5 8.835e+03 1.752e-10
 19.77500    213.2 8.878e+03 1.775e-10
 19.81429    214.8 8.952e+03 1.857e-10
 19.85358    216.3 9.052e+03 2.008e-10
 19.89286    217.8 9.172e+03 2.213e-10
 19.93215    219.4 9.279e+03 2.458e-10
 19.97144    220.9 9.405e+03 2.614e-10
 20.01073    222.4 9.499e+03 2.687e-10
 20.05002    223.8 9.511e+03 2.672e-10
 20.08930    225.2 9.511e+03 2.598e-10
 20.11009    226.6 9.446e+03 2.402e-10
 20.12974    227.0 9.263e+03 1.803e-10
 20.16788    228.2 9.143e+03 1.551e-10
 20.20717    229.4 8.992e+03 1.299e-10
 20.24645    230.7 8.846e+03 1.124e-10
 20.28574    232.1 8.756e+03 1.063e-10
 20.32503    233.6 8.746e+03 1.074e-10
 20.36432    235.2 8.745e+03 1.124e-10
 20.40360    236.8 8.799e+03 1.291e-10
 20.44289    238.4 9.007e+03 1.601e-10
 20.46966    239.8 9.279e+03 2.046e-10
 20.48930    240.0 9.520e+03 2.460e-10
 20.52147    241.2 9.854e+03 3.202e-10
 20.55083    241.3 9.971e+03 3.600e-10
 20.57038    241.5 1.011e+04 4.014e-10
 20.59002    241.7 1.032e+04 4.694e-10
 20.60967    241.7 1.058e+04 5.621e-10
 20.62931    241.7 1.085e+04 6.700e-10
 20.64896    241.5 1.113e+04 7.843e-10
 20.65907    241.0 1.140e+04 9.004e-10
 20.66889    241.3 1.180e+04 1.098e-09
 20.68824    240.5 1.211e+04 1.239e-09
 20.70789    239.5 1.236e+04 1.372e-09
 20.72753    238.5 1.251e+04 1.472e-09
 20.74717    237.5 1.249e+04 1.528e-09
 20.76682    236.6 1.246e+04 1.522e-09
 20.78646    235.8 1.231e+04 1.472e-09
 20.80611    235.3 1.203e+04 1.343e-09
 20.82575    234.9 1.164e+04 1.158e-09
 20.83886    234.7 1.123e+04 9.719e-10
 20.84868    234.8 1.121e+04 8.862e-10
 20.86504    234.5 1.076e+04 7.192e-10
 20.88468    234.3 1.044e+04 6.067e-10
 20.90432    234.2 1.024e+04 5.456e-10
 20.92397    234.3 1.017e+04 5.272e-10
 20.94361    234.7 1.016e+04 5.264e-10
 20.96326    235.3 1.016e+04 5.284e-10
 20.98290    236.0 1.019e+04 5.389e-10
 21.00254    236.9 1.027e+04 5.611e-10
 21.01864    237.8 1.041e+04 5.960e-10
 21.02846    237.8 1.045e+04 6.136e-10
 21.04183    238.7 1.068e+04 6.787e-10
 21.06147    239.1 1.098e+04 7.785e-10
 21.08112    239.0 1.144e+04 9.437e-10
 21.10076    238.8 1.220e+04 1.252e-09
 21.12041    238.7 1.334e+04 1.852e-09
 21.14005    238.8 1.462e+04 2.891e-09
 21.15969    238.9 1.562e+04 4.159e-09
 21.17438    238.6 1.598e+04 4.785e-09
 21.18415    238.6 1.639e+04 5.419e-09
 21.19397    238.6 1.704e+04 6.612e-09
 21.20324    238.7 1.782e+04 8.275e-09
 21.20815    238.2 1.724e+04 6.905e-09
 21.21362    238.1 1.777e+04 7.928e-09
 21.22344    237.7 1.818e+04 8.577e-09
 21.23326    236.6 1.940e+04 9.428e-09
 21.24308    230.8 2.475e+04 1.418e-08
 21.25290    211.2 3.256e+04 5.593e-08
 21.26273    190.1 3.050e+04 2.036e-07
 21.27255    175.5 2.834e+04 2.601e-07
 21.28237    166.9 2.680e+04 2.242e-07
 21.29219    162.0 2.631e+04 1.150e-07
 21.29804    157.3 2.708e+04 4.022e-08
 21.30295    157.4 2.665e+04 4.773e-08
 21.31184    152.4 2.531e+04 2.338e-08
 21.32166    147.6 2.238e+04 1.586e-08
 21.33148    145.5 2.071e+04 1.573e-08
 21.34130    145.6 2.073e+04 1.592e-08
 21.35112    145.8 2.087e+04 1.708e-08
 21.36095    146.0 2.120e+04 1.956e-08
 21.37077    146.4 2.156e+04 2.284e-08
 21.38059    146.9 2.186e+04 2.658e-08
 21.38793    147.7 2.214e+04 3.074e-08
 21.39284    147.8 2.239e+04 2.696e-08
 21.40023    148.4 2.272e+04 3.069e-08
 21.41005    149.1 2.309e+04 3.470e-08
 21.41988    149.8 2.355e+04 3.869e-08
 21.42970    150.5 2.407e+04 4.158e-08
 21.43952    151.1 2.451e+04 4.306e-08
 21.44934    151.7 2.495e+04 4.254e-08
 21.45916    152.3 2.531e+04 4.153e-08
 21.46899    152.9 2.593e+04 4.017e-08
 21.47783    153.3 2.652e+04 3.964e-08
 21.48274    152.9 2.808e+04 3.970e-08
 21.48863    153.2 2.860e+04 3.951e-08
 21.49845    153.8 2.888e+04 3.913e-08
 21.50827    154.6 2.908e+04 3.907e-08
 21.51810    155.3 2.925e+04 3.997e-08
 21.52792    155.7 2.947e+04 4.155e-08
 21.53774    155.8 2.980e+04 4.266e-08
 21.54756    155.9 3.008e+04 4.266e-08
 21.55738    156.0 3.029e+04 4.107e-08
 21.56720    155.7 3.067e+04 3.688e-08
 21.57263    155.2 3.120e+04 3.085e-08
 21.57754    150.8 3.388e+04 1.605e-08
 21.58685    146.0 3.895e+04 7.590e-09
 21.59667    144.6 4.130e+04 5.030e-09
 21.61145    132.0 5.672e+04 7.340e-10
 21.63114    118.2 5.103e+04 6.127e-10
 21.65079    106.6 2.859e+04 1.153e-09
 21.67043     97.7 2.146e+04 3.108e-09
 21.68512     90.8 1.691e+04 8.351e-09
 21.69489     89.6 1.691e+04 9.500e-09
 21.70967     89.7 2.241e+04 8.898e-09
 21.72936     89.1 2.327e+04 9.715e-09
 21.74760     89.8 2.372e+04 9.121e-09
 21.75742     93.3 2.250e+04 9.428e-09
 21.76865     94.4 2.219e+04 7.827e-09
 21.78830     95.3 2.136e+04 6.117e-09
 21.80794     96.0 2.014e+04 4.788e-09
 21.82758     96.8 1.890e+04 3.935e-09
 21.84723     98.1 1.799e+04 3.435e-09
 21.86687     99.8 1.750e+04 3.178e-09
 21.88651    101.9 1.728e+04 3.049e-09
 21.90616    104.0 1.714e+04 2.970e-09
 21.92580    106.0 1.704e+04 2.911e-09
 21.93721    107.6 1.694e+04 2.852e-09
 21.94703    108.7 1.668e+04 2.722e-09
 21.96509    110.2 1.656e+04 2.589e-09
 21.98473    111.8 1.640e+04 2.463e-09
 22.00438    113.5 1.626e+04 2.382e-09
 22.02402    115.3 1.616e+04 2.358e-09
 22.04366    117.0 1.602e+04 2.361e-09
 22.06331    118.8 1.585e+04 2.372e-09
 22.08295    120.9 1.570e+04 2.402e-09
 22.10260    123.0 1.565e+04 2.449e-09
 22.11699    125.2 1.567e+04 2.482e-09
 22.12681    125.5 1.540e+04 1.819e-09
 22.14188    127.5 1.541e+04 1.844e-09
 22.16153    129.4 1.538e+04 1.850e-09
 22.18117    131.4 1.534e+04 1.857e-09
 22.20081    133.5 1.530e+04 1.886e-09
 22.22046    135.4 1.530e+04 1.939e-09
 22.24010    137.3 1.533e+04 2.021e-09
 22.25975    139.2 1.546e+04 2.148e-09
 22.27939    140.9 1.570e+04 2.351e-09
 22.29678    142.4 1.607e+04 2.671e-09
 22.30660    142.6 1.563e+04 2.218e-09
 22.31868    143.8 1.627e+04 2.642e-09
 22.33832    145.0 1.705e+04 3.306e-09
 22.35797    146.2 1.789e+04 4.129e-09
 22.37761    147.5 1.865e+04 4.936e-09
 22.39725    148.4 1.921e+04 5.205e-09
 22.41690    148.9 1.926e+04 5.141e-09
 22.43654    149.3 1.919e+04 4.807e-09
 22.45618    149.8 1.877e+04 4.129e-09
 22.47583    150.3 1.807e+04 3.368e-09
 22.48638    150.8 1.722e+04 2.709e-09
 22.49620    150.1 1.888e+04 3.074e-09
 22.51512    150.4 1.810e+04 2.385e-09
 22.53476    150.9 1.730e+04 1.923e-09
 22.55440    151.5 1.671e+04 1.627e-09
 22.57405    152.0 1.642e+04 1.425e-09
 22.59369    152.6 1.635e+04 1.293e-09
 22.61333    153.4 1.630e+04 1.276e-09
 22.63298    154.0 1.628e+04 1.283e-09
 22.65262    154.6 1.622e+04 1.319e-09
 22.66617    155.1 1.613e+04 1.409e-09
 22.67599    153.3 1.529e+04 1.828e-09
 22.69191    154.1 1.530e+04 1.959e-09
 22.71155    154.8 1.551e+04 2.142e-09
 22.73120    155.0 1.585e+04 2.385e-09
 22.75084    154.8 1.629e+04 2.705e-09
 22.77048    154.3 1.692e+04 3.180e-09
 22.79013    153.6 1.774e+04 3.917e-09
 22.80977    152.3 1.867e+04 4.987e-09
 22.82942    150.4 1.957e+04 6.244e-09
 22.84595    147.9 2.040e+04 7.378e-09
 22.85577    145.0 2.097e+04 1.003e-08
 22.86870    141.1 2.180e+04 1.005e-08
 22.88835    136.2 2.197e+04 9.585e-09
 22.90799    130.6 2.209e+04 7.605e-09
 22.92764    124.5 2.097e+04 5.158e-09
 22.94728    118.6 1.871e+04 3.378e-09
 22.96692    113.9 1.643e+04 2.350e-09
 22.98657    110.9 1.511e+04 1.734e-09
 23.00621    108.9 1.452e+04 1.280e-09
 23.02574    106.8 1.412e+04 9.143e-10
 23.03556    103.1 1.356e+04 6.820e-10
 23.04550     99.8 1.305e+04 5.640e-10
 23.06514     96.9 1.294e+04 5.681e-10
 23.08479     93.8 1.317e+04 6.401e-10
 23.10443     89.9 1.427e+04 9.261e-10
 23.12407     83.9 1.727e+04 1.941e-09
 23.14372     77.9 1.985e+04 3.778e-09
 23.15840     75.4 2.073e+04 4.971e-09
 23.16817     72.8 2.168e+04 6.328e-09
 23.17800     70.1 2.296e+04 7.604e-09
 23.18782     66.5 2.501e+04 8.807e-09
 23.19764     61.2 2.815e+04 9.913e-09
 23.20746     54.3 3.250e+04 1.137e-08
 23.21529     38.8 3.536e+04 1.191e-08
 23.22516     31.3 3.071e+04 9.699e-09
 23.24194     17.2 2.623e+04 1.005e-08
 23.26158      7.0 2.371e+04 9.485e-09
 23.28122     -4.6 2.485e+04 8.546e-09
 23.30087    -20.5 2.678e+04 8.616e-09
 23.32051    -35.1 2.484e+04 9.371e-09
 23.34015    -44.3 2.287e+04 9.262e-09
 23.35980    -51.2 2.175e+04 6.504e-09
 23.37576    -58.8 1.976e+04 3.307e-09
 23.38558    -57.1 2.007e+04 3.745e-09
 23.39513    -64.9 1.740e+04 2.070e-09
 23.40495    -61.4 1.834e+04 2.535e-09
 23.41873    -67.7 1.611e+04 1.645e-09
 23.43837    -71.1 1.532e+04 1.325e-09
 23.45802    -73.2 1.495e+04 1.102e-09
 23.47766    -75.1 1.429e+04 8.266e-10
 23.49731    -77.0 1.327e+04 5.600e-10
 23.51695    -78.5 1.231e+04 3.796e-10
 23.53659    -79.5 1.211e+04 2.998e-10
 23.55624    -80.5 1.220e+04 2.807e-10
 23.58580    -82.9 1.208e+04 2.711e-10
 23.62518    -86.3 1.187e+04 2.634e-10
 23.66447    -88.0 1.199e+04 3.184e-10
 23.70376    -88.6 1.253e+04 4.779e-10
 23.74305    -88.4 1.277e+04 6.328e-10
 23.76471    -88.0 1.279e+04 6.759e-10
 23.78436    -84.3 1.262e+04 6.396e-10
 23.82162    -83.6 1.250e+04 6.399e-10
 23.86091    -82.9 1.212e+04 5.308e-10
 23.90020    -82.6 1.197e+04 4.492e-10
 23.93949    -84.0 1.261e+04 4.590e-10
 23.97877    -86.3 1.389e+04 7.525e-10
 24.00814    -85.1 1.398e+04 9.150e-10
 24.02769    -84.7 1.452e+04 1.253e-09
 24.04733    -85.2 1.475e+04 1.680e-09
 24.06697    -85.3 1.497e+04 2.102e-09
 24.08662    -85.3 1.522e+04 2.556e-09
 24.10626    -84.9 1.567e+04 2.972e-09
 24.12409    -84.6 1.618e+04 3.206e-09
 24.13391    -82.2 1.531e+04 2.695e-09
 24.14555    -82.1 1.554e+04 2.784e-09
 24.16519    -81.8 1.579e+04 2.812e-09
 24.18484    -82.2 1.651e+04 2.468e-09
 24.20448    -83.3 1.576e+04 2.003e-09
 24.22413    -84.3 1.455e+04 1.502e-09
 24.24377    -84.6 1.325e+04 1.147e-09
 24.26341    -84.4 1.248e+04 9.406e-10
 24.28306    -83.6 1.202e+04 7.973e-10
 24.30270    -82.6 1.170e+04 6.891e-10
 24.31369    -81.8 1.156e+04 6.146e-10
 24.32351    -80.1 1.143e+04 6.360e-10
 24.34199    -79.4 1.128e+04 5.679e-10
 24.36163    -78.7 1.131e+04 5.452e-10
 24.38128    -78.3 1.150e+04 5.434e-10
 24.40092    -78.0 1.193e+04 5.789e-10
 24.42056    -77.8 1.229e+04 6.518e-10
 24.44021    -77.5 1.244e+04 7.503e-10
 24.45985    -77.1 1.243e+04 8.699e-10
 24.47949    -76.7 1.244e+04 1.015e-09
 24.49348    -76.5 1.269e+04 1.198e-09
 24.50330    -74.9 1.233e+04 9.071e-10
 24.51878    -74.7 1.254e+04 1.074e-09
 24.53843    -74.6 1.295e+04 1.285e-09
 24.55807    -74.6 1.354e+04 1.540e-09
 24.57771    -74.7 1.422e+04 1.825e-09
 24.59736    -74.8 1.484e+04 2.097e-09
 24.61700    -75.0 1.527e+04 2.289e-09
 24.63664    -75.3 1.547e+04 2.359e-09
 24.65629    -75.6 1.548e+04 2.352e-09
 24.67326    -75.8 1.538e+04 2.321e-09
 24.68308    -74.1 1.531e+04 2.278e-09
 24.69558    -74.3 1.535e+04 2.303e-09
 24.71522    -74.3 1.535e+04 2.328e-09
 24.73486    -74.1 1.532e+04 2.392e-09
 24.75451    -73.8 1.534e+04 2.487e-09
 24.77415    -73.4 1.540e+04 2.604e-09
 24.79380    -72.9 1.550e+04 2.734e-09
 24.81344    -72.2 1.558e+04 2.843e-09
 24.83308    -71.5 1.565e+04 2.892e-09
 24.85273    -70.7 1.569e+04 2.891e-09
 24.86287    -69.8 1.571e+04 2.750e-09
 24.87269    -69.8 1.601e+04 3.055e-09
 24.89201    -69.0 1.587e+04 2.931e-09
 24.91166    -68.0 1.571e+04 2.736e-09
 24.93130    -66.9 1.551e+04 2.495e-09
 24.95095    -65.6 1.527e+04 2.226e-09
 24.97059    -64.3 1.497e+04 1.955e-09
 24.99023    -63.1 1.461e+04 1.700e-09
 25.00988    -61.9 1.432e+04 1.500e-09
 25.02952    -61.0 1.435e+04 1.432e-09
 25.04265    -60.6 1.597e+04 1.390e-09
 25.05247    -62.5 1.984e+04 2.020e-09
 25.06385    -59.3 2.209e+04 1.651e-09
 25.07362    -64.4 2.673e+04 2.313e-09
 25.08344    -68.9 3.609e+04 2.349e-09
 25.09327    -83.2 6.036e+04 4.223e-09
 25.10309    -92.1 3.916e+04 6.581e-08
 25.11291    -98.0 2.570e+04 5.534e-07
 25.12273   -102.5 2.236e+04 1.293e-06
 25.13007   -105.4 2.179e+04 1.794e-06
 25.13485   -109.6 2.539e+04 9.199e-07
 25.13731   -111.9 2.582e+04 7.764e-07
 25.13987   -127.9 3.852e+04 6.569e-08
 25.14478   -149.2 4.744e+04 6.028e-09
 25.15217   -171.3 3.156e+04 2.419e-09
 25.16202   -186.1 1.685e+04 2.022e-09
 25.17184   -188.3 1.578e+04 2.020e-09
 25.18662   -190.1 1.563e+04 2.096e-09
 25.20631   -192.4 1.545e+04 2.144e-09
 25.22244   -193.7 1.522e+04 2.101e-09
 25.23226   -189.5 1.514e+04 2.199e-09
 25.24560   -190.1 1.508e+04 2.138e-09
 25.26525   -190.7 1.514e+04 2.103e-09
 25.28489   -191.4 1.526e+04 2.103e-09
 25.30453   -192.3 1.599e+04 2.320e-09
 25.32418   -192.8 1.704e+04 3.060e-09
 25.34382   -192.7 1.796e+04 4.108e-09
 25.36347   -192.3 1.856e+04 5.193e-09
 25.38311   -191.7 1.880e+04 6.007e-09
 25.40222   -190.9 1.875e+04 6.318e-09
 25.41204   -187.5 1.780e+04 4.536e-09
 25.42240   -186.9 1.781e+04 4.810e-09
 25.44204   -186.1 1.773e+04 4.845e-09
 25.46168   -185.2 1.745e+04 4.731e-09
 25.48133   -184.2 1.706e+04 4.480e-09
 25.50097   -183.2 1.669e+04 4.164e-09
 25.52062   -182.0 1.636e+04 3.879e-09
 25.54026   -180.7 1.595e+04 3.581e-09
 25.55990   -179.3 1.553e+04 3.204e-09
 25.57955   -177.9 1.511e+04 2.840e-09
 25.59183   -176.5 1.480e+04 2.479e-09
 25.60165   -174.7 1.523e+04 2.920e-09
 25.61883   -173.4 1.493e+04 2.629e-09
 25.63848   -172.1 1.463e+04 2.382e-09
 25.65812   -170.8 1.440e+04 2.172e-09
 25.67777   -169.6 1.428e+04 1.973e-09
 25.69741   -168.3 1.411e+04 1.844e-09
 25.71705   -167.0 1.399e+04 1.778e-09
 25.73670   -165.7 1.394e+04 1.761e-09
 25.75634   -164.6 1.394e+04 1.764e-09
 25.77161   -164.2 1.398e+04 1.811e-09
 25.78143   -162.9 1.422e+04 1.952e-09
 25.79563   -163.3 1.449e+04 2.021e-09
 25.81527   -168.6 1.897e+04 2.610e-09
 25.83492   -175.2 2.219e+04 7.103e-09
 25.84960   -179.2 2.315e+04 1.657e-08
 25.85937   -180.7 2.326e+04 2.578e-08
 25.86632   -182.3 2.332e+04 3.896e-08
 25.87123   -181.6 2.325e+04 3.537e-08
 25.87902   -183.1 2.325e+04 4.610e-08
 25.88884   -184.8 2.315e+04 5.015e-08
 25.89866   -186.2 2.307e+04 5.050e-08
 25.90848   -187.3 2.272e+04 4.362e-08
 25.91830   -188.5 2.245e+04 2.963e-08
 25.92813   -190.5 2.195e+04 1.746e-08
 25.93795   -193.5 2.083e+04 9.656e-09
 25.94777   -197.1 1.903e+04 5.528e-09
 25.95621   -199.9 1.735e+04 3.747e-09
 25.96112   -199.8 1.746e+04 3.842e-09
 25.97237   -202.3 1.653e+04 3.016e-09
 25.99207   -204.7 1.586e+04 2.460e-09
 26.01171   -207.2 1.496e+04 1.965e-09
 26.03135   -208.8 1.462e+04 1.819e-09
 26.05100   -209.8 1.459e+04 1.808e-09
 26.07064   -211.0 1.489e+04 1.929e-09
 26.09029   -212.9 1.561e+04 2.191e-09
 26.10993   -215.7 1.644e+04 2.521e-09
 26.12957   -219.0 1.713e+04 3.009e-09
 26.14100   -222.2 1.750e+04 3.695e-09
 26.15082   -222.7 1.799e+04 4.506e-09
 26.16886   -224.7 1.789e+04 5.175e-09
 26.18354   -225.0 1.781e+04 5.428e-09
 26.19332   -225.4 1.773e+04 5.503e-09
 26.20314   -226.0 1.768e+04 5.614e-09
 26.21296   -226.3 1.756e+04 5.643e-09
 26.22278   -226.4 1.727e+04 5.559e-09
 26.23080   -226.3 1.706e+04 5.309e-09
 26.23571   -226.4 1.707e+04 5.489e-09
 26.24739   -226.3 1.681e+04 4.886e-09
 26.26708   -226.7 1.626e+04 3.916e-09
 26.28672   -226.6 1.530e+04 2.716e-09
 26.30637   -226.4 1.424e+04 1.832e-09
 26.32079   -226.3 1.330e+04 1.287e-09
 26.33061   -226.7 1.331e+04 1.294e-09
 26.34565   -226.6 1.256e+04 9.910e-10
 26.36530   -226.1 1.212e+04 8.378e-10
 26.38494   -225.4 1.187e+04 7.578e-10
 26.40459   -224.5 1.168e+04 7.097e-10
 26.42423   -223.5 1.148e+04 6.751e-10
 26.44387   -222.5 1.132e+04 6.373e-10
 26.46352   -221.5 1.119e+04 5.889e-10
 26.48316   -220.4 1.106e+04 5.334e-10
 26.50057   -219.4 1.095e+04 4.771e-10
 26.51039   -219.4 1.093e+04 4.508e-10
 26.52245   -218.5 1.088e+04 4.062e-10
 26.54209   -217.5 1.089e+04 3.820e-10
 26.57166   -216.7 1.100e+04 3.700e-10
 26.61104   -216.2 1.098e+04 3.550e-10
 26.65033   -216.1 1.069e+04 3.352e-10
 26.68055   -216.0 1.045e+04 3.138e-10
 26.70019   -219.3 1.066e+04 2.886e-10
 26.72890   -223.7 1.596e+04 2.232e-10
 26.75827   -226.1 2.079e+04 1.790e-10
 26.77782   -235.6 2.572e+04 2.278e-10
 26.79746   -247.4 3.508e+04 3.147e-10
 26.81711   -259.0 3.155e+04 2.709e-09
 26.83179   -265.9 2.886e+04 1.073e-08
 26.84156   -267.4 2.842e+04 1.864e-08
 26.85138   -268.9 2.860e+04 2.927e-08
 26.86121   -271.7 2.958e+04 3.477e-08
 26.86986   -276.5 3.008e+04 3.517e-08
 26.87478   -283.7 3.117e+04 2.403e-08
 26.88085   -293.9 2.971e+04 9.252e-09
 26.89067   -306.2 2.305e+04 2.506e-09
 26.90049   -315.0 1.627e+04 1.152e-09
 26.91528   -319.0 1.386e+04 9.024e-10
 26.93497   -323.0 1.255e+04 7.421e-10
 26.95461   -325.5 1.181e+04 6.482e-10
 26.97426   -326.4 1.170e+04 6.271e-10
 26.99390   -327.3 1.170e+04 6.256e-10
 27.01354   -328.8 1.176e+04 6.295e-10
 27.03319   -330.9 1.179e+04 6.818e-10
 27.04975   -333.5 1.242e+04 9.397e-10
 27.05957   -337.4 1.428e+04 1.203e-09
 27.07247   -339.7 1.547e+04 2.036e-09
 27.09212   -341.5 1.622e+04 3.073e-09
 27.11176   -343.1 1.658e+04 3.938e-09
 27.13141   -344.6 1.664e+04 4.263e-09
 27.15105   -345.9 1.660e+04 4.301e-09
 27.17069   -346.8 1.610e+04 4.014e-09
 27.19034   -347.5 1.544e+04 3.181e-09
 27.20998   -348.1 1.472e+04 2.343e-09
 27.22953   -348.8 1.396e+04 1.706e-09
 27.24917   -352.4 1.294e+04 1.141e-09
 27.26891   -352.6 1.245e+04 9.397e-10
 27.28856   -352.4 1.209e+04 7.949e-10
 27.30820   -352.0 1.184e+04 6.881e-10
 27.32784   -351.7 1.164e+04 6.060e-10
 27.34749   -351.5 1.145e+04 5.398e-10
 27.36713   -351.4 1.125e+04 4.890e-10
 27.38678   -351.2 1.109e+04 4.574e-10
 27.40642   -350.9 1.101e+04 4.452e-10
 27.41914   -350.6 1.100e+04 4.430e-10
 27.42896   -351.3 1.103e+04 4.824e-10
 27.44571   -350.9 1.101e+04 4.793e-10
 27.46535   -350.5 1.100e+04 4.906e-10
 27.48499   -350.1 1.113e+04 5.379e-10
 27.50464   -349.6 1.133e+04 5.991e-10
 27.52428   -348.9 1.154e+04 6.641e-10
 27.54393   -348.3 1.174e+04 7.277e-10
 27.56357   -347.9 1.192e+04 7.868e-10
 27.58321   -347.6 1.208e+04 8.434e-10
 27.59892   -347.6 1.225e+04 9.113e-10
 27.60874   -348.5 1.230e+04 9.339e-10
 27.62250   -348.7 1.277e+04 1.105e-09
 27.64214   -349.2 1.348e+04 1.393e-09
 27.66179   -349.9 1.435e+04 1.836e-09
 27.68143   -350.8 1.523e+04 2.443e-09
 27.70108   -351.8 1.596e+04 3.145e-09
 27.72072   -352.9 1.648e+04 3.795e-09
 27.74036   -354.1 1.675e+04 4.184e-09
 27.76001   -355.4 1.681e+04 4.289e-09
 27.77871   -356.8 1.659e+04 3.927e-09
 27.78853   -357.6 1.581e+04 3.115e-09
 27.79930   -358.6 1.530e+04 2.601e-09
 27.81894   -359.4 1.476e+04 2.093e-09
 27.83858   -360.0 1.422e+04 1.634e-09
 27.85823   -360.6 1.372e+04 1.262e-09
 27.87787   -361.3 1.330e+04 9.783e-10
 27.89751   -362.2 1.299e+04 7.775e-10
 27.91716   -363.5 1.284e+04 6.565e-10
 27.93680   -365.4 1.288e+04 6.125e-10
 27.95645   -367.6 1.290e+04 6.065e-10
 27.96831   -370.3 1.310e+04 6.330e-10
 27.97813   -370.7 1.270e+04 5.713e-10
 27.99573   -373.1 1.294e+04 6.835e-10
 28.01538   -375.5 1.322e+04 8.165e-10
 28.03502   -377.9 1.343e+04 9.380e-10
 28.05466   -380.4 1.353e+04 1.019e-09
 28.07431   -382.9 1.353e+04 1.061e-09
 28.09395   -385.3 1.348e+04 1.094e-09
 28.11360   -387.7 1.344e+04 1.151e-09
 28.13324   -389.8 1.344e+04 1.233e-09
 28.14810   -391.7 1.342e+04 1.310e-09
 28.15792   -392.1 1.334e+04 1.270e-09
 28.17253   -393.8 1.336e+04 1.371e-09
 28.19217   -395.1 1.334e+04 1.392e-09
 28.21181   -395.9 1.316e+04 1.395e-09
 28.23146   -396.1 1.271e+04 1.264e-09
 28.25110   -396.2 1.230e+04 1.011e-09
 28.27075   -396.1 1.186e+04 7.482e-10
 28.29039   -395.9 1.142e+04 5.356e-10
 28.31003   -395.6 1.101e+04 4.005e-10
 28.33960   -395.6 1.075e+04 3.321e-10
 28.37898   -395.5 1.054e+04 2.845e-10
 28.41827   -393.7 1.012e+04 2.300e-10
 28.45756   -391.0 9.744e+03 1.992e-10
 28.49685   -388.0 9.623e+03 1.917e-10
 28.51768   -385.2 9.616e+03 1.913e-10
 28.53733   -385.9 1.020e+04 2.542e-10
 28.57542   -383.3 1.021e+04 2.554e-10
 28.61471   -382.0 1.027e+04 2.633e-10
 28.65400   -381.8 1.033e+04 3.691e-10
 28.69328   -382.1 1.240e+04 8.325e-10
 28.72265   -382.3 1.406e+04 1.601e-09
 28.74220   -381.0 1.536e+04 2.660e-09
 28.76184   -379.9 1.697e+04 4.637e-09
 28.78148   -379.5 1.881e+04 8.199e-09
 28.80113   -379.5 2.028e+04 1.288e-08
 28.82077   -381.2 2.116e+04 1.686e-08
 28.84042   -384.0 2.134e+04 1.796e-08
 28.86006   -386.6 2.127e+04 1.767e-08
 28.87706   -389.2 2.082e+04 1.404e-08
 28.88688   -387.9 2.057e+04 1.122e-08
 28.89935   -390.9 1.981e+04 7.594e-09
 28.91899   -394.4 1.848e+04 4.170e-09
 28.93864   -398.2 1.617e+04 2.011e-09
 28.95828   -401.7 1.326e+04 1.004e-09
 28.97792   -403.8 1.160e+04 6.374e-10
 28.99757   -404.3 1.115e+04 5.535e-10
 29.01721   -404.4 1.106e+04 5.488e-10
 29.03685   -404.3 1.105e+04 5.580e-10
 29.05650   -404.3 1.105e+04 5.652e-10
 29.06666   -404.3 1.104e+04 5.687e-10
 29.07648   -404.1 1.108e+04 5.841e-10
 29.09579   -404.1 1.104e+04 5.836e-10
 29.11543   -404.1 1.099e+04 5.826e-10
 29.13507   -404.1 1.095e+04 5.809e-10
 29.15472   -403.9 1.091e+04 5.779e-10
 29.17436   -403.7 1.088e+04 5.724e-10
 29.19400   -403.5 1.086e+04 5.616e-10
 29.21365   -403.4 1.081e+04 5.415e-10
 29.23329   -403.3 1.074e+04 5.108e-10
 29.24645   -403.2 1.067e+04 4.750e-10
 29.25627   -403.3 1.110e+04 5.793e-10
 29.27258   -403.2 1.111e+04 5.809e-10
 29.29222   -403.2 1.112e+04 5.815e-10
 29.31187   -403.0 1.110e+04 5.806e-10
 29.33151   -402.9 1.109e+04 5.807e-10
 29.35115   -402.6 1.108e+04 5.972e-10
 29.37080   -402.2 1.111e+04 6.324e-10
 29.39044   -401.8 1.116e+04 6.737e-10
 29.41009   -401.3 1.127e+04 7.339e-10
 29.42623   -400.8 1.147e+04 8.175e-10
 29.43605   -401.8 1.157e+04 8.675e-10
 29.44937   -401.3 1.179e+04 9.561e-10
 29.46902   -400.9 1.210e+04 1.082e-09
 29.48866   -400.7 1.245e+04 1.242e-09
 29.50831   -400.5 1.287e+04 1.457e-09
 29.52795   -400.5 1.333e+04 1.762e-09
 29.54759   -400.4 1.385e+04 2.193e-09
 29.56724   -400.3 1.438e+04 2.779e-09
 29.58688   -400.2 1.487e+04 3.509e-09
 29.60602   -399.9 1.530e+04 4.303e-09
 29.61584   -400.5 1.468e+04 2.965e-09
 29.62617   -400.2 1.499e+04 3.506e-09
 29.64581   -399.9 1.516e+04 3.912e-09
 29.66546   -399.7 1.518e+04 4.083e-09
 29.68510   -399.4 1.517e+04 4.111e-09
 29.70474   -398.9 1.496e+04 4.004e-09
 29.72439   -398.3 1.465e+04 3.552e-09
 29.74403   -397.5 1.421e+04 2.898e-09
 29.76367   -396.8 1.371e+04 2.309e-09
 29.78332   -396.0 1.325e+04 1.801e-09
 29.79562   -395.2 1.282e+04 1.411e-09
 29.80544   -395.2 1.251e+04 1.068e-09
 29.82261   -394.4 1.217e+04 8.631e-10
 29.84225   -393.6 1.190e+04 7.216e-10
 29.86189   -392.7 1.169e+04 6.283e-10
 29.88154   -391.8 1.154e+04 5.687e-10
 29.90118   -390.7 1.145e+04 5.331e-10
 29.92082   -389.7 1.142e+04 5.142e-10
 29.94047   -388.6 1.141e+04 5.089e-10
 29.96011   -387.5 1.141e+04 5.094e-10
 29.97541   -386.5 1.144e+04 5.257e-10
 29.98523   -385.5 1.119e+04 3.612e-10
 29.99940   -384.5 1.125e+04 3.849e-10
 30.01904   -383.4 1.131e+04 4.198e-10
 30.03869   -382.4 1.138e+04 4.634e-10
 30.05833   -381.4 1.142e+04 5.119e-10
 30.07797   -380.3 1.145e+04 5.605e-10
 30.09762   -379.3 1.147e+04 6.019e-10
 30.11726   -378.1 1.147e+04 6.310e-10
 30.13691   -376.8 1.147e+04 6.493e-10
 30.15519   -375.5 1.147e+04 6.587e-10
 30.16501   -374.9 1.132e+04 5.520e-10
 30.17619   -373.6 1.132e+04 5.640e-10
 30.19584   -372.3 1.131e+04 5.713e-10
 30.21548   -371.0 1.132e+04 5.768e-10
 30.23513   -369.7 1.138e+04 5.849e-10
 30.25477   -368.7 1.155e+04 6.188e-10
 30.27441   -367.8 1.181e+04 7.138e-10
 30.29406   -366.9 1.220e+04 9.086e-10
 30.31370   -366.0 1.271e+04 1.251e-09
 30.33334   -365.1 1.331e+04 1.779e-09
 30.34480   -364.2 1.392e+04 2.465e-09
 30.35462   -364.1 1.363e+04 2.236e-09
 30.37263   -363.4 1.417e+04 2.905e-09
 30.39228   -363.1 1.458e+04 3.345e-09
 30.41192   -363.1 1.471e+04 3.450e-09
 30.43156   -363.4 1.472e+04 3.461e-09
 30.45121   -363.6 1.451e+04 3.163e-09
 30.47085   -363.6 1.396e+04 2.387e-09
 30.49049   -363.6 1.321e+04 1.618e-09
 30.51014   -363.6 1.240e+04 1.062e-09
 30.52458   -363.6 1.167e+04 7.212e-10
 30.53440   -363.2 1.156e+04 6.469e-10
 30.54943   -363.2 1.102e+04 4.797e-10
 30.56907   -363.1 1.066e+04 3.973e-10
 30.58871   -362.3 1.049e+04 3.680e-10
 30.60836   -361.3 1.045e+04 3.625e-10
 30.62800   -360.4 1.045e+04 3.622e-10
 30.64764   -359.5 1.047e+04 3.646e-10
 30.66729   -358.6 1.058e+04 3.745e-10
 30.68693   -357.9 1.071e+04 3.852e-10
 30.70437   -357.3 1.082e+04 3.943e-10
 30.71429   -357.4 1.068e+04 4.027e-10
 30.72632   -355.3 1.079e+04 4.179e-10
 30.74586   -354.5 1.088e+04 4.256e-10
 30.76551   -353.6 1.093e+04 4.274e-10
 30.78515   -352.7 1.096e+04 4.240e-10
 30.80480   -351.8 1.098e+04 4.090e-10
 30.82444   -350.9 1.091e+04 3.934e-10
 30.84408   -350.0 1.081e+04 3.807e-10
 30.86373   -349.1 1.074e+04 3.728e-10
 30.88337   -348.2 1.071e+04 3.713e-10
 30.89397   -347.2 1.070e+04 3.713e-10
 30.90379   -346.9 1.091e+04 4.612e-10
 30.92266   -346.0 1.096e+04 4.752e-10
 30.94230   -345.2 1.103e+04 4.943e-10
 30.96195   -344.4 1.112e+04 5.172e-10
 30.98159   -343.7 1.120e+04 5.419e-10
 31.00123   -342.9 1.128e+04 5.652e-10
 31.02088   -342.2 1.133e+04 5.845e-10
 31.04052   -341.4 1.130e+04 5.995e-10
 31.06016   -340.6 1.126e+04 6.077e-10
 31.07376   -339.7 1.121e+04 6.122e-10
 31.08358   -339.8 1.155e+04 7.524e-10
 31.09945   -338.8 1.142e+04 7.268e-10
 31.11910   -337.8 1.130e+04 7.055e-10
 31.13123   -336.7 1.120e+04 6.926e-10
 31.14105   -335.7 1.174e+04 8.420e-10
 31.15838   -334.6 1.170e+04 8.442e-10
 31.17803   -333.6 1.162e+04 8.653e-10
 31.19767   -332.6 1.163e+04 8.922e-10
 31.21731   -331.7 1.164e+04 9.300e-10
 31.23696   -330.9 1.168e+04 9.783e-10
 31.25354   -330.2 1.174e+04 1.033e-09
 31.26336   -330.1 1.135e+04 8.471e-10
 31.27625   -329.6 1.124e+04 8.536e-10
 31.29589   -329.3 1.131e+04 8.765e-10
 31.31553   -329.0 1.138e+04 9.091e-10
 31.33518   -328.8 1.149e+04 9.345e-10
 31.35482   -328.6 1.153e+04 9.448e-10
 31.37447   -328.3 1.154e+04 9.454e-10
 31.39411   -328.0 1.154e+04 9.311e-10
 31.41375   -327.7 1.149e+04 8.923e-10
 31.43333   -327.6 1.142e+04 8.317e-10
 31.45297   -327.6 1.139e+04 8.363e-10
 31.48260   -327.7 1.129e+04 7.983e-10
 31.52199   -325.9 1.104e+04 7.164e-10
 31.56128   -323.8 1.081e+04 6.393e-10
 31.60056   -321.7 1.053e+04 5.515e-10
 31.63985   -319.4 1.028e+04 4.714e-10
 31.67914   -316.7 1.007e+04 4.035e-10
 31.71843   -313.9 9.925e+03 3.512e-10
 31.75771   -311.2 9.843e+03 3.157e-10
 31.79309   -308.4 9.830e+03 2.946e-10
 31.81273   -308.7 9.704e+03 2.860e-10
 31.83629   -306.0 9.698e+03 2.724e-10
 31.87558   -303.2 9.708e+03 2.673e-10
 31.91486   -300.5 9.712e+03 2.671e-10
 31.95415   -297.9 9.718e+03 2.681e-10
 31.99344   -295.5 9.788e+03 2.699e-10
 32.03273   -293.3 1.017e+04 2.869e-10
 32.07202   -291.3 1.052e+04 3.507e-10
 32.11130   -289.4 1.087e+04 4.618e-10
 32.15059   -287.7 1.130e+04 6.292e-10
 32.17230   -286.1 1.182e+04 8.622e-10
 32.19195   -286.7 1.178e+04 8.519e-10
 32.22917   -285.6 1.238e+04 1.137e-09
 32.26845   -284.9 1.304e+04 1.462e-09
 32.30774   -284.7 1.359e+04 1.793e-09
 32.33711   -284.2 1.383e+04 2.047e-09
 32.35189   -284.0 1.389e+04 2.181e-09
 32.36171   -284.3 1.388e+04 2.201e-09
 32.37630   -283.9 1.389e+04 2.281e-09
 32.39594   -283.4 1.388e+04 2.299e-09
 32.41559   -282.8 1.386e+04 2.302e-09
 32.43523   -281.9 1.382e+04 2.287e-09
 32.45487   -281.0 1.382e+04 2.276e-09
 32.47452   -280.0 1.388e+04 2.287e-09
 32.49416   -278.9 1.405e+04 2.355e-09
 32.51381   -277.9 1.430e+04 2.538e-09
 32.53168   -277.0 1.459e+04 2.863e-09
 32.54150   -276.8 1.477e+04 2.917e-09
 32.55309   -275.8 1.512e+04 3.386e-09
 32.57274   -274.8 1.546e+04 3.982e-09
 32.59238   -273.8 1.577e+04 4.648e-09
 32.61202   -272.9 1.601e+04 5.248e-09
 32.63167   -272.2 1.612e+04 5.612e-09
 32.65131   -271.7 1.613e+04 5.698e-09
 32.67096   -271.1 1.594e+04 5.620e-09
 32.69060   -270.2 1.543e+04 5.030e-09
 32.71024   -269.0 1.482e+04 4.220e-09
 32.72128   -267.6 1.421e+04 3.444e-09
 32.73110   -267.4 1.425e+04 3.409e-09
 32.74953   -266.1 1.372e+04 2.820e-09
 32.76917   -264.8 1.326e+04 2.350e-09
 32.78882   -263.6 1.287e+04 2.002e-09
 32.81838   -262.5 1.245e+04 1.718e-09
 32.85777   -259.8 1.184e+04 1.428e-09
 32.89144   -256.8 1.144e+04 1.231e-09
 32.91108   -256.2 1.176e+04 1.399e-09
 32.93634   -252.7 1.132e+04 1.198e-09
 32.97563   -249.3 1.106e+04 1.044e-09
 33.00500   -246.8 1.036e+04 8.058e-10
 33.02454   -246.2 1.025e+04 7.751e-10
 33.04419   -244.8 1.006e+04 7.208e-10
 33.06383   -243.7 1.001e+04 7.130e-10
 33.08085   -242.6 1.004e+04 7.255e-10
 33.09067   -242.3 1.043e+04 8.656e-10
 33.10312   -241.3 1.054e+04 9.181e-10
 33.12276   -240.2 1.067e+04 9.893e-10
 33.14241   -239.2 1.086e+04 1.082e-09
 33.16205   -238.2 1.109e+04 1.204e-09
 33.18169   -237.3 1.136e+04 1.356e-09
 33.20134   -236.5 1.163e+04 1.536e-09
 33.22098   -235.8 1.191e+04 1.738e-09
 33.24063   -235.0 1.217e+04 1.960e-09
 33.26027   -234.3 1.239e+04 2.193e-09
 33.27046   -233.5 1.258e+04 2.424e-09
 33.28028   -233.3 1.285e+04 2.879e-09
 33.29956   -232.4 1.289e+04 2.996e-09
 33.31920   -231.5 1.293e+04 3.016e-09
 33.33884   -230.7 1.295e+04 2.864e-09
 33.35849   -229.9 1.291e+04 2.713e-09
 33.37813   -229.1 1.287e+04 2.588e-09
 33.39778   -228.2 1.284e+04 2.551e-09
 33.41742   -227.4 1.285e+04 2.551e-09
 33.43706   -226.7 1.293e+04 2.588e-09
 33.45024   -226.1 1.305e+04 2.629e-09
 33.46006   -225.9 1.276e+04 2.360e-09
 33.47635   -225.4 1.281e+04 2.341e-09
 33.49599   -225.0 1.284e+04 2.315e-09
 33.51564   -224.7 1.288e+04 2.287e-09
 33.53528   -224.4 1.292e+04 2.273e-09
 33.55493   -224.2 1.297e+04 2.265e-09
 33.57457   -224.0 1.299e+04 2.259e-09
 33.59421   -223.8 1.297e+04 2.225e-09
 33.61386   -223.5 1.288e+04 2.177e-09
 33.63003   -223.0 1.278e+04 2.119e-09
 33.63985   -222.8 1.251e+04 1.980e-09
 33.65314   -222.3 1.251e+04 1.997e-09
 33.67279   -221.7 1.247e+04 1.979e-09
 33.69243   -221.0 1.239e+04 1.931e-09
 33.71208   -220.3 1.227e+04 1.839e-09
 33.73172   -219.6 1.211e+04 1.690e-09
 33.75136   -218.9 1.192e+04 1.481e-09
 33.77101   -218.4 1.166e+04 1.252e-09
 33.80057   -217.9 1.135e+04 1.067e-09
 33.83004   -215.8 1.146e+04 1.171e-09
 33.84958   -215.0 1.134e+04 1.108e-09
 33.86923   -214.0 1.129e+04 1.096e-09
 33.88887   -213.1 1.128e+04 1.094e-09
 33.90851   -212.1 1.125e+04 1.094e-09
 33.92816   -211.2 1.121e+04 1.074e-09
 33.94780   -210.1 1.114e+04 1.054e-09
 33.96745   -209.1 1.103e+04 1.008e-09
 33.98709   -208.2 1.094e+04 9.637e-10
 33.99942   -207.3 1.083e+04 9.112e-10
 34.00924   -207.6 1.101e+04 9.430e-10
 34.03630   -206.6 1.079e+04 8.507e-10
 34.07568   -204.1 1.047e+04 7.532e-10
 34.11497   -201.7 1.034e+04 7.085e-10
 34.15426   -199.1 1.029e+04 6.995e-10
 34.19354   -196.7 1.044e+04 7.279e-10
 34.23283   -194.3 1.083e+04 8.485e-10
 34.27212   -192.1 1.143e+04 1.079e-09
 34.31141   -190.2 1.211e+04 1.418e-09
 34.34936   -188.3 1.274e+04 1.832e-09
 34.36891   -187.6 1.292e+04 1.630e-09
 34.37997   -185.8 1.305e+04 1.859e-09
 34.39961   -184.1 1.349e+04 2.192e-09
 34.41925   -182.7 1.427e+04 2.625e-09
 34.43890   -181.4 1.531e+04 3.238e-09
 34.45854   -180.4 1.660e+04 4.012e-09
 34.47818   -179.8 1.825e+04 4.894e-09
 34.49783   -179.8 2.024e+04 5.994e-09
 34.51747   -180.2 2.208e+04 8.113e-09
 34.53712   -181.3 2.315e+04 1.395e-08
 34.54854   -182.0 2.350e+04 2.033e-08
 34.55341   -182.7 2.277e+04 2.343e-08
 34.56157   -183.2 2.289e+04 3.301e-08
 34.57139   -183.7 2.265e+04 5.600e-08
 34.58122   -183.8 2.213e+04 1.189e-07
 34.59104   -183.5 2.165e+04 2.744e-07
 34.60086   -182.6 2.140e+04 5.923e-07
 34.61068   -182.3 2.143e+04 1.047e-06
 34.62050   -184.9 2.162e+04 1.351e-06
 34.63033   -189.7 2.156e+04 1.369e-06
 34.63839   -191.4 2.144e+04 9.660e-07
 34.64330   -191.5 2.132e+04 8.311e-07
 34.64997   -191.6 2.164e+04 5.427e-07
 34.65979   -191.0 2.204e+04 3.643e-07
 34.66961   -190.3 2.245e+04 2.784e-07
 34.67944   -190.2 2.282e+04 2.336e-07
 34.68926   -190.5 2.295e+04 1.983e-07
 34.69908   -190.5 2.293e+04 1.635e-07
 34.70890   -190.2 2.290e+04 1.323e-07
 34.71872   -190.1 2.290e+04 1.063e-07
 34.72828   -190.2 2.286e+04 8.310e-08
 34.73319   -190.0 2.229e+04 7.110e-08
 34.73837   -190.0 2.213e+04 5.659e-08
 34.74819   -189.8 2.178e+04 4.326e-08
 34.75801   -189.4 2.133e+04 3.228e-08
 34.76783   -189.0 2.087e+04 2.378e-08
 34.77765   -188.7 2.036e+04 1.729e-08
 34.78748   -188.5 1.975e+04 1.252e-08
 34.79730   -188.4 1.906e+04 9.150e-09
 34.80712   -188.3 1.834e+04 6.865e-09
 34.81694   -188.2 1.767e+04 5.382e-09
 34.83172   -188.3 1.683e+04 4.085e-09
 34.85142   -187.9 1.634e+04 3.228e-09
 34.87106   -187.5 1.524e+04 2.188e-09
 34.89070   -187.3 1.417e+04 1.593e-09
 34.90816   -187.0 1.351e+04 1.322e-09
 34.91798   -187.8 1.296e+04 1.160e-09
 34.92999   -187.2 1.271e+04 1.072e-09
 34.94964   -186.5 1.257e+04 1.034e-09
 34.96928   -185.7 1.253e+04 1.023e-09
 34.98892   -185.0 1.252e+04 1.024e-09
 35.00857   -184.3 1.254e+04 1.030e-09
 35.02821   -183.8 1.263e+04 1.078e-09
 35.04785   -183.3 1.270e+04 1.162e-09
 35.06750   -182.7 1.276e+04 1.266e-09
 35.08714   -182.1 1.285e+04 1.390e-09
 35.09777   -181.6 1.296e+04 1.528e-09
 35.10759   -181.9 1.292e+04 1.541e-09
 35.12643   -181.3 1.299e+04 1.686e-09
 35.14607   -180.8 1.302e+04 1.790e-09
 35.16572   -180.5 1.307e+04 1.829e-09
 35.18536   -180.3 1.308e+04 1.834e-09
 35.20500   -180.3 1.308e+04 1.813e-09
 35.22465   -180.4 1.307e+04 1.787e-09
 35.24429   -180.6 1.306e+04 1.766e-09
 35.26394   -180.8 1.302e+04 1.738e-09
 35.27755   -180.9 1.295e+04 1.696e-09
 35.28737   -180.6 1.285e+04 1.571e-09
 35.30322   -180.6 1.281e+04 1.551e-09
 35.32287   -180.4 1.277e+04 1.518e-09
 35.34251   -180.1 1.275e+04 1.481e-09
 35.36215   -179.7 1.277e+04 1.464e-09
 35.38180   -179.3 1.282e+04 1.471e-09
 35.40144   -178.9 1.293e+04 1.510e-09
 35.42109   -178.5 1.308e+04 1.583e-09
 35.44073   -178.1 1.320e+04 1.673e-09
 35.45734   -177.6 1.333e+04 1.733e-09
 35.46716   -177.5 1.352e+04 2.057e-09
 35.48002   -177.0 1.363e+04 2.146e-09
 35.49966   -176.5 1.370e+04 2.107e-09
 35.51931   -176.1 1.367e+04 2.053e-09
 35.53895   -175.9 1.363e+04 1.927e-09
 35.55859   -175.8 1.352e+04 1.743e-09
 35.57824   -175.7 1.335e+04 1.540e-09
 35.59788   -175.8 1.313e+04 1.359e-09
 35.61752   -175.9 1.289e+04 1.218e-09
 35.63712   -175.9 1.266e+04 1.114e-09
 35.65677   -175.5 1.233e+04 9.006e-10
 35.67646   -175.2 1.208e+04 8.205e-10
 35.69610   -174.6 1.182e+04 7.186e-10
 35.71574   -173.6 1.151e+04 5.908e-10
 35.73539   -172.5 1.125e+04 4.838e-10
 35.76495   -171.3 1.111e+04 4.196e-10
 35.80434   -170.2 1.103e+04 3.685e-10
 35.82692   -168.6 1.090e+04 3.193e-10
 35.84657   -168.4 1.091e+04 3.211e-10
 35.88291   -166.4 1.078e+04 2.880e-10
 35.92220   -164.3 1.070e+04 2.753e-10
 35.96149   -162.1 1.065e+04 2.691e-10
 36.00077   -159.8 1.061e+04 2.666e-10
 36.04006   -157.4 1.060e+04 2.663e-10
 36.07935   -155.2 1.064e+04 2.724e-10
 36.11864   -153.1 1.079e+04 3.153e-10
 36.15792   -151.1 1.102e+04 3.932e-10
 36.18649   -149.4 1.125e+04 4.913e-10
 36.20614   -149.7 1.137e+04 5.719e-10
 36.22658   -148.2 1.149e+04 6.518e-10
 36.24613   -147.5 1.162e+04 7.643e-10
 36.26577   -146.7 1.172e+04 8.626e-10
 36.28541   -146.1 1.176e+04 9.093e-10
 36.30506   -145.4 1.176e+04 9.219e-10
 36.32470   -144.8 1.169e+04 9.078e-10
 36.34434   -144.1 1.155e+04 8.584e-10
 36.36399   -143.2 1.137e+04 7.889e-10
 36.37590   -142.3 1.123e+04 7.062e-10
 36.38573   -142.1 1.130e+04 7.269e-10
 36.40328   -141.1 1.120e+04 6.274e-10
 36.43284   -140.2 1.112e+04 5.187e-10
 36.47222   -139.0 1.103e+04 4.427e-10
 36.51151   -137.1 1.083e+04 3.479e-10
 36.54606   -135.1 1.064e+04 2.794e-10
 36.56570   -134.8 1.062e+04 2.738e-10
 36.59009   -132.8 1.049e+04 2.310e-10
 36.62937   -130.7 1.044e+04 2.072e-10
 36.66866   -128.7 1.043e+04 1.974e-10
 36.70795   -126.5 1.044e+04 1.954e-10
 36.74724   -124.3 1.045e+04 1.968e-10
 36.78652   -122.1 1.047e+04 2.006e-10
 36.82581   -120.0 1.051e+04 2.103e-10
 36.86510   -117.9 1.057e+04 2.313e-10
 36.90439   -115.9 1.064e+04 2.697e-10
 36.92527   -113.8 1.074e+04 3.272e-10
 36.94492   -113.5 1.065e+04 3.044e-10
 36.98296   -111.3 1.077e+04 3.718e-10
 37.02225   -109.1 1.092e+04 4.385e-10
 37.06154   -106.9 1.108e+04 4.961e-10
 37.10083   -104.7 1.122e+04 5.340e-10
 37.14011   -102.5 1.134e+04 5.647e-10
 37.17940   -100.4 1.150e+04 6.206e-10
 37.21869    -98.4 1.176e+04 7.341e-10
 37.25798    -96.6 1.215e+04 9.057e-10
 37.28484    -94.8 1.253e+04 1.125e-09
 37.30449    -94.4 1.217e+04 9.637e-10
 37.32663    -92.6 1.254e+04 1.202e-09
 37.34618    -92.2 1.262e+04 1.239e-09
 37.36582    -91.2 1.283e+04 1.424e-09
 37.38547    -90.6 1.291e+04 1.489e-09
 37.40511    -89.8 1.303e+04 1.569e-09
 37.42475    -89.3 1.306e+04 1.585e-09
 37.44440    -88.5 1.304e+04 1.552e-09
 37.46404    -87.9 1.298e+04 1.459e-09
 37.47425    -87.4 1.297e+04 1.373e-09
 37.48408    -86.8 1.305e+04 1.454e-09
 37.50333    -86.3 1.308e+04 1.410e-09
 37.52297    -85.9 1.329e+04 1.421e-09
 37.54262    -85.8 1.341e+04 1.438e-09
 37.57218    -86.3 1.308e+04 1.408e-09
 37.61156    -85.3 1.305e+04 1.417e-09
 37.64441    -84.5 1.281e+04 1.407e-09
 37.66406    -83.0 1.291e+04 1.256e-09
 37.69014    -82.2 1.278e+04 1.150e-09
 37.72943    -81.5 1.244e+04 1.031e-09
 37.76871    -80.7 1.194e+04 8.800e-10
 37.80800    -79.8 1.151e+04 7.409e-10
 37.84729    -78.7 1.109e+04 6.178e-10
 37.88658    -77.6 1.081e+04 5.188e-10
 37.92586    -76.6 1.070e+04 4.430e-10
 37.96515    -75.8 1.069e+04 3.719e-10
 38.00398    -75.2 1.057e+04 2.958e-10
 38.02362    -73.8 1.166e+04 7.079e-10
 38.04373    -73.0 1.128e+04 5.094e-10
 38.08302    -72.6 1.044e+04 2.702e-10
 38.12230    -72.3 9.484e+03 1.250e-10
 38.16159    -72.0 9.106e+03 8.587e-11
 38.20088    -71.0 9.020e+03 8.335e-11
 38.24017    -69.9 8.933e+03 9.322e-11
 38.27945    -68.5 8.964e+03 1.123e-10
 38.31874    -66.9 8.978e+03 1.233e-10
 38.35803    -65.3 8.982e+03 1.250e-10
 38.38319    -63.6 8.950e+03 1.210e-10
 38.40284    -62.7 8.971e+03 1.271e-10
 38.43660    -60.9 8.933e+03 1.159e-10
 38.47589    -59.3 8.917e+03 1.023e-10
 38.51518    -57.6 8.908e+03 9.086e-11
 38.55447    -56.0 8.909e+03 8.386e-11
 38.59375    -54.2 8.911e+03 8.190e-11
 38.63304    -52.5 8.969e+03 8.285e-11
 38.67233    -50.9 9.025e+03 9.450e-11
 38.71162    -49.2 9.106e+03 1.135e-10
 38.74276    -47.6 9.241e+03 1.456e-10
 38.76241    -46.4 9.280e+03 1.360e-10
 38.79019    -45.0 9.508e+03 2.019e-10
 38.82948    -43.9 9.933e+03 3.221e-10
 38.86725    -43.3 1.056e+04 5.344e-10
 38.88690    -43.9 1.106e+04 5.730e-10
 38.90805    -44.1 1.225e+04 1.175e-09
 38.93227    -44.7 1.250e+04 1.576e-09
 38.94199    -43.8 1.300e+04 1.907e-09
 38.95697    -44.0 1.355e+04 2.630e-09
 38.97661    -44.0 1.393e+04 3.309e-09
 38.99626    -43.9 1.414e+04 3.648e-09
 39.01590    -44.0 1.417e+04 3.695e-09
 39.03554    -44.0 1.399e+04 3.337e-09
 39.05519    -44.4 1.355e+04 2.665e-09
 39.07483    -45.1 1.301e+04 2.112e-09
 39.09447    -45.8 1.258e+04 1.780e-09
 39.11196    -46.3 1.234e+04 1.599e-09
 39.12178    -45.9 1.259e+04 1.958e-09
 39.13376    -46.3 1.245e+04 1.805e-09
 39.15341    -46.6 1.245e+04 1.730e-09
 39.17305    -46.7 1.250e+04 1.718e-09
 39.19269    -46.9 1.263e+04 1.752e-09
 39.21234    -47.1 1.275e+04 1.838e-09
 39.23198    -47.3 1.288e+04 1.961e-09
 39.25163    -47.5 1.304e+04 2.114e-09
 39.27127    -47.8 1.325e+04 2.297e-09
 39.29091    -48.1 1.356e+04 2.530e-09
 39.30156    -48.3 1.388e+04 2.821e-09
 39.31139    -49.3 1.453e+04 3.793e-09
 39.33020    -49.3 1.473e+04 4.257e-09
 39.34984    -48.9 1.481e+04 4.520e-09
 39.36949    -48.3 1.483e+04 4.535e-09
 39.38913    -47.6 1.474e+04 4.187e-09
 39.40878    -46.8 1.455e+04 3.547e-09
 39.42842    -46.2 1.425e+04 2.919e-09
 39.44806    -45.6 1.395e+04 2.446e-09
 39.46771    -45.1 1.372e+04 2.173e-09
 39.48135    -44.8 1.342e+04 2.053e-09
 39.49117    -45.8 1.306e+04 1.817e-09
 39.50699    -44.8 1.294e+04 1.833e-09
 39.52664    -44.0 1.300e+04 1.994e-09
 39.54628    -43.1 1.322e+04 2.304e-09
 39.56593    -42.0 1.346e+04 2.703e-09
 39.58557    -40.6 1.381e+04 3.167e-09
 39.60521    -39.5 1.415e+04 3.631e-09
 39.62486    -38.3 1.444e+04 3.976e-09
 39.64450    -37.3 1.482e+04 4.388e-09
 39.66113    -36.9 1.516e+04 4.736e-09
 39.67095    -38.5 1.498e+04 4.175e-09
 39.68379    -38.4 1.549e+04 4.722e-09
 39.70343    -38.5 1.589e+04 5.220e-09
 39.72308    -38.6 1.610e+04 5.561e-09
 39.74272    -38.8 1.619e+04 5.710e-09
 39.76236    -39.0 1.618e+04 5.520e-09
 39.78201    -39.7 1.618e+04 5.167e-09
 39.80165    -40.6 1.619e+04 4.814e-09
 39.82130    -41.6 1.615e+04 4.531e-09
 39.84092    -42.5 1.597e+04 4.347e-09
 39.86056    -44.1 1.505e+04 3.950e-09
 39.88023    -44.1 1.467e+04 3.906e-09
 39.89987    -43.8 1.430e+04 3.714e-09
 39.91951    -43.5 1.403e+04 3.418e-09
 39.93916    -43.3 1.377e+04 3.162e-09
 39.95880    -42.8 1.364e+04 2.949e-09
 39.97845    -42.4 1.365e+04 2.829e-09
 39.99809    -42.1 1.369e+04 2.797e-09
 40.01773    -41.9 1.390e+04 2.841e-09
 40.03052    -41.9 1.432e+04 3.209e-09
 40.04035    -42.8 1.406e+04 2.653e-09
 40.05702    -43.0 1.447e+04 3.288e-09
 40.07666    -42.6 1.467e+04 4.052e-09
 40.09631    -41.5 1.482e+04 4.846e-09
 40.11595    -40.2 1.483e+04 5.367e-09
 40.13560    -38.6 1.480e+04 5.432e-09
 40.15524    -37.2 1.481e+04 5.153e-09
 40.17488    -36.0 1.475e+04 4.568e-09
 40.19453    -34.8 1.459e+04 3.816e-09
 40.21031    -33.8 1.445e+04 3.087e-09
 40.22013    -35.9 1.426e+04 1.822e-09
 40.23381    -35.7 1.406e+04 1.575e-09
 40.25346    -35.5 1.382e+04 1.497e-09
 40.27310    -35.3 1.360e+04 1.556e-09
 40.29275    -35.0 1.342e+04 1.726e-09
 40.31239    -34.5 1.349e+04 2.002e-09
 40.33203    -33.9 1.394e+04 2.416e-09
 40.35168    -33.7 1.477e+04 3.015e-09
 40.37132    -33.3 1.583e+04 3.717e-09
 40.38601    -32.9 1.632e+04 4.188e-09
 40.39491    -33.8 1.704e+04 4.732e-09
 40.39987    -33.6 1.530e+04 3.575e-09
 40.40565    -34.2 1.671e+04 4.892e-09
 40.41542    -34.5 1.698e+04 5.568e-09
 40.43020    -34.4 1.670e+04 5.895e-09
 40.44990    -33.8 1.763e+04 8.596e-09
 40.46954    -32.6 1.831e+04 1.156e-08
 40.48918    -31.9 1.889e+04 1.377e-08
 40.50883    -31.8 1.944e+04 1.540e-08
 40.52847    -32.2 1.993e+04 1.701e-08
 40.54812    -33.4 2.031e+04 1.890e-08
 40.56280    -34.4 2.033e+04 2.066e-08
 40.57257    -34.6 2.048e+04 2.249e-08
 40.57960    -34.6 2.085e+04 2.662e-08
 40.58451    -35.0 2.050e+04 2.410e-08
 40.59222    -34.9 2.071e+04 2.644e-08
 40.60204    -34.7 2.103e+04 2.859e-08
 40.61186    -35.0 2.111e+04 2.924e-08
 40.62168    -34.9 2.126e+04 3.015e-08
 40.63150    -34.8 2.129e+04 2.843e-08
 40.64133    -35.0 2.107e+04 2.608e-08
 40.65115    -34.9 2.090e+04 2.331e-08
 40.66097    -35.5 2.034e+04 1.946e-08
 40.66949    -35.3 2.025e+04 1.880e-08
 40.67440    -35.3 1.984e+04 1.624e-08
 40.68557    -35.2 1.933e+04 1.284e-08
 40.70031    -34.7 1.871e+04 9.870e-09
 40.71008    -34.4 1.868e+04 9.223e-09
 40.72486    -34.1 1.816e+04 7.260e-09
 40.74455    -33.5 1.688e+04 4.665e-09
 40.75948    -33.0 1.574e+04 2.923e-09
 40.76930    -33.6 1.300e+04 1.058e-09
 40.78384    -33.3 1.241e+04 7.473e-10
 40.80348    -32.9 1.193e+04 5.515e-10
 40.82313    -32.4 1.154e+04 4.478e-10
 40.84277    -31.9 1.122e+04 4.051e-10
 40.86242    -31.2 1.107e+04 4.004e-10
 40.88206    -30.4 1.109e+04 4.226e-10
 40.90170    -29.4 1.124e+04 4.621e-10
 40.92135    -28.4 1.133e+04 5.079e-10
 40.93927    -27.1 1.136e+04 5.596e-10
 40.94909    -26.4 1.112e+04 4.518e-10
 40.96064    -25.5 1.102e+04 4.638e-10
 40.98028    -23.7 1.102e+04 4.833e-10
 40.99992    -22.6 1.093e+04 4.451e-10
 41.02949    -20.6 1.099e+04 3.785e-10
 41.06887    -19.1 1.093e+04 2.978e-10
 41.10816    -17.2 1.062e+04 2.441e-10
 41.14745    -15.0 1.034e+04 2.193e-10
 41.18673    -12.5 1.019e+04 2.082e-10
 41.22602    -10.0 1.014e+04 1.912e-10
 41.26531     -7.9 1.018e+04 1.843e-10
 41.29903     -6.4 1.051e+04 2.248e-10
 41.31868     -6.1 1.037e+04 2.264e-10
 41.34388     -4.3 1.062e+04 2.951e-10
 41.37325     -3.2 1.079e+04 3.965e-10
 41.39280     -2.7 1.100e+04 4.281e-10
 41.41244     -1.5 1.121e+04 5.793e-10
 41.43209     -1.1 1.130e+04 6.025e-10
 41.46165      0.4 1.142e+04 7.276e-10
 41.50103      1.8 1.169e+04 8.051e-10
 41.54032      2.8 1.195e+04 8.460e-10
 41.57961      2.7 1.230e+04 9.460e-10
 41.60898      1.8 1.276e+04 1.262e-09
 41.62852      1.8 1.293e+04 1.369e-09
 41.64817      1.3 1.316e+04 1.783e-09
 41.66781      1.5 1.288e+04 2.005e-09
 41.67805      2.6 1.255e+04 1.801e-09
 41.68787      2.8 1.257e+04 1.805e-09
 41.70710      3.6 1.229e+04 1.413e-09
 41.72674      3.8 1.196e+04 9.666e-10
 41.74639      3.6 1.146e+04 6.433e-10
 41.76603      3.4 1.090e+04 4.317e-10
 41.78567      3.2 1.051e+04 3.368e-10
 41.81524      4.1 1.028e+04 2.453e-10
 41.85462      5.1 9.988e+03 1.573e-10
 41.89391      6.1 9.733e+03 1.343e-10
 41.93320      7.6 9.708e+03 1.395e-10
 41.97249      9.0 9.737e+03 1.683e-10
 42.01177     10.8 9.831e+03 2.221e-10
 42.03781     12.8 9.952e+03 2.728e-10
 42.05746     12.7 1.001e+04 2.673e-10
 42.09035     14.4 1.026e+04 3.311e-10
 42.12964     15.6 1.054e+04 4.236e-10
 42.16892     16.9 1.082e+04 5.661e-10
 42.20821     18.6 1.105e+04 7.199e-10
 42.24750     20.3 1.113e+04 7.742e-10
 42.28679     22.1 1.108e+04 7.151e-10
 42.32607     23.9 1.087e+04 5.714e-10
 42.36536     25.3 1.061e+04 4.508e-10
 42.39738     26.5 1.042e+04 3.873e-10
 42.41703     25.8 1.041e+04 3.719e-10
 42.44394     27.0 1.041e+04 3.706e-10
 42.47330     27.4 1.043e+04 3.838e-10
 42.49285     27.7 1.058e+04 4.239e-10
 42.51249     27.8 1.073e+04 4.993e-10
 42.53214     28.1 1.083e+04 5.972e-10
 42.55178     28.6 1.092e+04 7.033e-10
 42.57143     29.2 1.102e+04 7.867e-10
 42.58679     29.7 1.112e+04 8.219e-10
 42.59662     28.9 1.137e+04 8.891e-10
 42.61071     29.3 1.139e+04 8.776e-10
 42.63036     29.6 1.143e+04 8.385e-10
 42.65000     29.7 1.143e+04 7.799e-10
 42.66964     29.8 1.139e+04 7.254e-10
 42.68929     29.9 1.131e+04 7.180e-10
 42.70893     30.0 1.123e+04 7.236e-10
 42.72858     30.3 1.111e+04 7.365e-10
 42.74822     30.8 1.094e+04 7.386e-10
 42.76658     31.4 1.082e+04 7.185e-10
 42.77640     30.8 1.079e+04 6.282e-10
 42.78751     31.5 1.069e+04 5.997e-10
 42.80715     32.2 1.061e+04 5.646e-10
 42.82680     32.9 1.061e+04 5.206e-10
 42.84644     33.4 1.067e+04 4.695e-10
 42.86608     33.4 1.078e+04 4.175e-10
 42.88573     33.0 1.109e+04 3.902e-10
 42.90537     31.8 1.129e+04 4.180e-10
 42.92501     29.3 1.164e+04 5.693e-10
 42.94466     25.8 1.244e+04 9.903e-10
 42.95618     22.7 1.311e+04 2.082e-09
 42.96601     22.6 1.310e+04 2.152e-09
 42.98395     21.9 1.404e+04 4.010e-09
 43.00359     21.8 1.474e+04 5.320e-09
 43.02323     21.5 1.470e+04 5.035e-09
 43.04288     21.1 1.426e+04 3.766e-09
 43.06252     19.7 1.353e+04 2.363e-09
 43.08216     17.2 1.268e+04 1.408e-09
 43.11173     15.1 1.201e+04 9.777e-10
 43.13616     13.8 1.173e+04 9.779e-10
 43.15581     12.5 1.222e+04 1.403e-09
 43.19040     13.0 1.183e+04 1.246e-09
 43.22969     14.0 1.177e+04 1.218e-09
 43.26898     15.0 1.172e+04 1.078e-09
 43.30826     15.5 1.180e+04 9.751e-10
 43.34755     15.2 1.194e+04 9.839e-10
 43.37692     13.7 1.212e+04 1.096e-09
 43.39647     13.4 1.203e+04 1.236e-09
 43.41611     13.7 1.184e+04 1.329e-09
 43.43575     14.3 1.177e+04 1.276e-09
 43.45540     14.7 1.175e+04 1.154e-09
 43.47504     14.7 1.172e+04 9.854e-10
 43.49468     14.3 1.169e+04 8.409e-10
 43.50536     13.8 1.152e+04 7.357e-10
 43.51518     13.2 1.126e+04 6.246e-10
 43.54389     13.3 1.115e+04 5.944e-10
 43.58328     13.3 1.103e+04 5.315e-10
 43.62256     13.4 1.093e+04 4.717e-10
 43.66185     14.0 1.070e+04 4.055e-10
 43.70114     15.1 1.042e+04 3.246e-10
 43.74043     16.5 1.021e+04 2.487e-10
 43.77971     17.8 1.009e+04 1.895e-10
 43.81900     19.2 1.002e+04 1.552e-10
 43.85530     20.8 9.947e+03 1.370e-10
 43.87495     20.4 9.923e+03 1.089e-10
 43.89758     22.3 9.863e+03 1.021e-10
 43.93686     24.4 9.799e+03 9.609e-11
 43.97615     26.6 9.721e+03 8.830e-11
 44.01544     28.8 9.641e+03 7.879e-11
 44.05473     31.0 9.571e+03 6.987e-11
 44.09402     33.3 9.519e+03 6.341e-11
 44.13330     35.5 9.478e+03 5.963e-11
 44.17259     37.9 9.443e+03 5.776e-11
 44.21188     40.2 9.413e+03 5.673e-11
 44.23451     42.7 9.386e+03 5.546e-11
 44.25416     42.7 9.404e+03 5.296e-11
 44.29045     45.2 9.386e+03 5.229e-11
 44.32974     47.6 9.364e+03 5.107e-11
 44.36903     50.0 9.359e+03 4.958e-11
 44.40832     52.4 9.364e+03 4.794e-11
 44.44760     54.7 9.361e+03 4.604e-11
 44.48689     56.8 9.409e+03 4.359e-11
 44.52618     59.0 9.416e+03 4.135e-11
 44.56547     61.0 9.396e+03 3.954e-11
 44.59408     63.1 9.355e+03 3.925e-11
 44.61373     63.0 9.461e+03 3.959e-11
 44.64404     65.0 9.458e+03 3.979e-11
 44.68333     67.1 9.446e+03 4.104e-11
 44.72262     69.0 9.436e+03 4.417e-11
 44.76190     71.0 9.447e+03 4.883e-11
 44.80119     72.9 9.483e+03 5.447e-11
 44.84048     74.9 9.498e+03 6.079e-11
 44.87977     77.0 9.493e+03 6.709e-11
 44.91905     79.0 9.499e+03 7.276e-11
 44.95365     81.0 9.494e+03 7.777e-11
 44.97330     80.8 9.469e+03 7.450e-11
 44.99763     82.8 9.490e+03 7.761e-11
 45.03692     84.8 9.525e+03 8.307e-11
 45.07620     86.7 9.568e+03 9.281e-11
 45.11549     88.7 9.612e+03 1.081e-10
 45.15478     90.8 9.662e+03 1.279e-10
 45.19407     92.9 9.707e+03 1.491e-10
 45.23335     95.1 9.759e+03 1.699e-10
 45.27264     97.2 9.867e+03 1.833e-10
 45.31193     99.3 9.942e+03 1.823e-10
 45.33286    101.2 9.976e+03 1.786e-10
 45.35251    101.0 1.002e+04 1.781e-10
 45.39051    102.6 1.012e+04 1.778e-10
 45.42979    104.2 1.026e+04 1.874e-10
 45.46908    105.8 1.036e+04 2.107e-10
 45.50837    107.4 1.041e+04 2.429e-10
 45.54766    109.1 1.045e+04 2.821e-10
 45.58694    110.9 1.053e+04 3.340e-10
 45.62623    112.8 1.063e+04 4.044e-10
 45.66552    114.9 1.094e+04 5.162e-10
 45.69243    117.1 1.131e+04 6.435e-10
 45.70216    115.9 1.120e+04 5.569e-10
 45.71443    116.8 1.136e+04 6.224e-10
 45.73408    117.4 1.157e+04 6.980e-10
 45.75372    118.0 1.181e+04 7.972e-10
 45.77336    118.5 1.207e+04 9.391e-10
 45.79301    118.9 1.242e+04 1.170e-09
 45.81265    118.9 1.294e+04 1.608e-09
 45.83230    118.8 1.371e+04 2.449e-09
 45.85194    118.8 1.475e+04 3.998e-09
 45.87158    118.7 1.540e+04 5.373e-09
 45.88180    118.5 1.562e+04 5.836e-09
 45.88666    118.2 1.548e+04 5.589e-09
 45.89604    118.2 1.569e+04 5.932e-09
 45.90586    118.1 1.591e+04 6.186e-09
 45.91568    118.0 1.596e+04 6.198e-09
 45.93047    117.8 1.614e+04 6.448e-09
 45.95016    117.7 1.595e+04 5.369e-09
 45.96980    117.6 1.528e+04 3.270e-09
 45.98945    116.7 1.429e+04 1.602e-09
 46.00909    114.6 1.288e+04 7.045e-10
 46.02873    112.4 1.140e+04 3.935e-10
 46.04838    111.9 1.095e+04 3.441e-10
 46.06163    112.1 1.090e+04 3.355e-10
 46.07145    112.8 1.090e+04 3.351e-10
 46.09758    114.3 1.081e+04 3.148e-10
 46.13697    116.0 1.062e+04 2.834e-10
 46.17626    117.9 1.046e+04 2.507e-10
 46.21554    119.6 1.033e+04 2.211e-10
 46.25483    121.3 1.023e+04 1.972e-10
 46.29412    123.1 1.018e+04 1.854e-10
 46.33341    125.1 1.018e+04 1.863e-10
 46.37269    127.0 1.021e+04 1.925e-10
 46.41157    128.9 1.027e+04 2.090e-10
 46.43121    129.5 1.013e+04 1.904e-10
 46.45127    131.4 1.029e+04 2.251e-10
 46.49056    133.3 1.048e+04 2.736e-10
 46.52985    135.1 1.063e+04 3.197e-10
 46.56913    136.7 1.069e+04 3.412e-10
 46.60842    138.2 1.068e+04 3.409e-10
 46.64771    139.6 1.063e+04 3.358e-10
 46.68700    141.1 1.061e+04 3.355e-10
 46.72628    142.6 1.064e+04 3.443e-10
 46.76557    143.8 1.071e+04 3.727e-10
 46.79078    145.0 1.087e+04 4.343e-10
 46.80051    145.0 1.082e+04 4.089e-10
 46.81448    145.5 1.090e+04 4.538e-10
 46.83413    146.0 1.108e+04 5.334e-10
 46.85377    146.4 1.129e+04 6.299e-10
 46.87342    146.4 1.150e+04 7.300e-10
 46.89306    146.3 1.184e+04 8.679e-10
 46.91270    145.4 1.244e+04 1.131e-09
 46.93235    144.2 1.316e+04 1.624e-09
 46.95199    143.0 1.380e+04 2.408e-09
 46.97037    142.3 1.425e+04 3.344e-09
 46.98019    142.8 1.433e+04 3.537e-09
 46.99128    142.3 1.458e+04 4.219e-09
 47.01092    141.7 1.459e+04 4.232e-09
 47.03057    141.1 1.444e+04 3.999e-09
 47.05021    140.7 1.400e+04 3.311e-09
 47.06985    140.2 1.344e+04 2.563e-09
 47.08950    139.6 1.288e+04 1.944e-09
 47.10914    138.8 1.239e+04 1.549e-09
 47.12879    138.1 1.200e+04 1.401e-09
 47.14843    137.7 1.191e+04 1.392e-09
 47.15998    137.4 1.191e+04 1.396e-09
 47.16980    137.5 1.179e+04 1.342e-09
 47.19764    137.4 1.184e+04 1.353e-09
 47.23702    136.9 1.206e+04 1.504e-09
 47.27631    135.9 1.219e+04 1.585e-09
 47.31560    134.6 1.210e+04 1.518e-09
 47.35488    133.6 1.170e+04 1.259e-09
 47.39417    133.0 1.115e+04 9.490e-10
 47.43346    132.8 1.064e+04 7.033e-10
 47.47275    132.8 1.025e+04 5.473e-10
 47.50992    133.0 9.952e+03 4.656e-10
 47.52957    134.4 1.073e+04 8.024e-10
 47.55132    134.8 1.076e+04 7.813e-10
 47.58069    134.4 1.053e+04 6.863e-10
 47.60024    134.0 1.039e+04 6.442e-10
 47.61988    133.5 1.029e+04 6.147e-10
 47.63952    132.8 1.024e+04 6.202e-10
 47.65917    132.1 1.019e+04 6.499e-10
 47.67881    131.6 1.020e+04 6.915e-10
 47.69846    131.3 1.026e+04 7.386e-10
 47.70915    131.1 1.039e+04 8.049e-10
 47.71898    130.8 1.029e+04 7.548e-10
 47.73774    130.5 1.045e+04 8.316e-10
 47.75739    130.1 1.075e+04 9.773e-10
 47.77703    129.6 1.117e+04 1.222e-09
 47.79667    129.0 1.168e+04 1.592e-09
 47.81632    128.3 1.221e+04 2.074e-09
 47.83596    127.6 1.272e+04 2.633e-09
 47.85561    126.8 1.317e+04 3.109e-09
 47.87525    125.9 1.345e+04 3.158e-09
 47.88894    124.7 1.345e+04 3.069e-09
 47.89876    124.2 1.326e+04 2.857e-09
 47.91454    123.0 1.298e+04 2.291e-09
 47.93418    121.2 1.255e+04 1.688e-09
 47.95382    119.0 1.202e+04 1.266e-09
 47.97347    116.8 1.145e+04 1.111e-09
 47.99311    115.4 1.131e+04 1.116e-09
 48.01276    114.8 1.128e+04 1.146e-09
 48.03240    114.7 1.136e+04 1.265e-09
 48.05204    114.7 1.154e+04 1.412e-09
 48.06872    114.8 1.170e+04 1.532e-09
 48.07855    114.4 1.141e+04 1.330e-09
 48.10125    115.1 1.161e+04 1.469e-09
 48.14064    115.9 1.151e+04 1.436e-09
 48.17992    117.0 1.125e+04 1.279e-09
 48.21921    118.1 1.087e+04 1.028e-09
 48.24870    119.5 1.038e+04 7.355e-10
 48.26835    120.1 9.911e+03 5.975e-10
 48.29779    122.0 9.595e+03 4.568e-10
 48.33707    124.0 9.298e+03 3.419e-10
 48.37636    126.1 9.053e+03 2.582e-10
 48.41565    128.4 8.863e+03 2.017e-10
 48.45494    130.7 8.724e+03 1.646e-10
 48.49422    133.2 8.618e+03 1.402e-10
 48.53351    135.7 8.534e+03 1.233e-10
 48.57280    138.2 8.468e+03 1.110e-10
 48.60827    140.8 8.412e+03 1.017e-10
 48.62792    141.7 8.580e+03 1.163e-10
 48.65137    144.1 8.512e+03 1.010e-10
 48.69066    146.6 8.455e+03 9.071e-11
 48.72995    149.0 8.415e+03 8.845e-11
 48.76924    151.5 8.416e+03 8.913e-11
 48.80852    154.1 8.447e+03 9.063e-11
 48.84781    156.6 8.498e+03 9.384e-11
 48.88710    159.1 8.558e+03 9.829e-11
 48.92639    161.5 8.612e+03 1.037e-10
 48.96568    163.9 8.665e+03 1.107e-10
 48.98748    166.2 8.738e+03 1.208e-10
 49.00713    166.5 8.847e+03 1.359e-10
 49.04425    168.7 8.909e+03 1.483e-10
 49.08354    170.7 9.046e+03 1.748e-10
 49.12283    172.8 9.272e+03 2.201e-10
 49.16211    174.9 9.597e+03 2.902e-10
 49.20140    177.0 9.971e+03 3.861e-10
 49.24069    178.3 1.025e+04 4.760e-10
 49.27006    178.8 1.034e+04 5.175e-10
 49.28960    179.4 1.044e+04 5.524e-10
 49.30925    180.4 1.058e+04 5.911e-10
 49.32889    181.4 1.073e+04 6.273e-10
 49.34686    182.2 1.087e+04 6.514e-10
 49.35668    181.9 1.075e+04 5.621e-10
 49.36818    182.6 1.081e+04 5.730e-10
 49.38782    183.2 1.084e+04 5.839e-10
 49.40747    183.6 1.088e+04 6.037e-10
 49.42711    184.1 1.095e+04 6.422e-10
 49.44675    184.5 1.108e+04 7.026e-10
 49.46640    184.9 1.126e+04 7.857e-10
 49.48604    185.3 1.147e+04 8.926e-10
 49.50568    185.6 1.172e+04 1.023e-09
 49.52533    185.9 1.198e+04 1.169e-09
 49.53646    186.1 1.224e+04 1.317e-09
 49.54629    186.0 1.201e+04 1.110e-09
 49.56462    186.2 1.224e+04 1.217e-09
 49.58426    186.3 1.248e+04 1.294e-09
 49.60390    186.4 1.272e+04 1.310e-09
 49.62355    186.5 1.278e+04 1.305e-09
 49.64319    186.6 1.282e+04 1.280e-09
 49.66283    186.8 1.284e+04 1.206e-09
 49.68248    187.1 1.279e+04 1.096e-09
 49.70212    187.4 1.270e+04 9.692e-10
 49.71625    187.9 1.256e+04 8.421e-10
 49.72607    187.8 1.258e+04 8.445e-10
 49.74141    188.1 1.251e+04 7.464e-10
 49.76105    188.4 1.250e+04 6.887e-10
 49.78070    188.7 1.248e+04 6.355e-10
 49.80034    189.0 1.248e+04 5.962e-10
 49.82990    189.6 1.245e+04 5.759e-10
 49.86929    191.0 1.235e+04 5.073e-10
 49.90858    192.7 1.223e+04 4.342e-10
 49.94786    194.4 1.210e+04 3.685e-10
 49.98715    196.1 1.196e+04 3.195e-10
 50.02644    197.9 1.183e+04 3.127e-10
 50.06573    199.8 1.182e+04 3.135e-10
 50.08584    201.6 1.178e+04 3.277e-10
 50.10548    201.1 1.168e+04 3.782e-10
 50.14430    203.0 1.170e+04 4.025e-10
 50.18359    204.5 1.176e+04 4.368e-10
 50.21296    205.4 1.176e+04 4.608e-10
 50.23250    206.4 1.176e+04 4.924e-10
 50.25215    207.6 1.181e+04 5.451e-10
 50.26542    208.6 1.190e+04 6.050e-10
 50.27525    208.3 1.189e+04 6.073e-10
 50.29144    209.0 1.198e+04 6.579e-10
 50.31108    209.7 1.204e+04 6.909e-10
 50.33072    210.2 1.209e+04 6.920e-10
 50.35037    210.7 1.209e+04 6.879e-10
 50.37001    211.1 1.209e+04 6.829e-10
 50.38965    211.4 1.209e+04 6.773e-10
 50.40930    211.7 1.209e+04 6.755e-10
 50.42894    211.9 1.209e+04 6.799e-10
 50.44521    212.0 1.210e+04 6.944e-10
 50.45503    211.5 1.202e+04 6.936e-10
 50.46823    211.6 1.206e+04 7.434e-10
 50.48787    211.8 1.210e+04 8.043e-10
 50.50752    211.9 1.214e+04 8.690e-10
 50.52716    212.0 1.217e+04 9.299e-10
 50.54681    212.0 1.219e+04 9.822e-10
 50.56645    212.0 1.222e+04 1.026e-09
 50.58609    212.0 1.225e+04 1.058e-09
 50.60574    211.9 1.229e+04 1.068e-09
 50.62499    211.6 1.230e+04 1.061e-09
 50.63482    211.5 1.227e+04 1.061e-09
 50.64502    211.2 1.221e+04 1.032e-09
 50.66467    210.7 1.209e+04 9.611e-10
 50.68431    210.3 1.191e+04 8.699e-10
 50.70396    209.7 1.165e+04 7.907e-10
 50.72360    209.1 1.142e+04 7.414e-10
 50.74324    208.5 1.132e+04 7.392e-10
 50.76289    207.9 1.130e+04 7.438e-10
 50.78253    207.3 1.128e+04 7.733e-10
 50.80217    206.2 1.139e+04 8.445e-10
 50.81460    205.5 1.150e+04 9.209e-10
 50.82452    206.9 1.155e+04 9.581e-10
 50.85148    205.0 1.157e+04 9.524e-10
 50.89077    202.9 1.143e+04 8.787e-10
 50.93005    201.1 1.103e+04 7.371e-10
 50.96934    200.1 1.049e+04 6.103e-10
 51.00863    200.2 1.029e+04 5.857e-10
 51.04792    200.4 1.033e+04 6.013e-10
 51.08720    200.8 1.057e+04 6.956e-10
 51.12649    201.3 1.103e+04 9.043e-10
 51.16454    201.7 1.145e+04 1.144e-09
 51.18419    203.4 1.107e+04 9.807e-10
 51.20507    203.8 1.139e+04 1.182e-09
 51.24435    204.0 1.142e+04 1.182e-09
 51.28364    204.4 1.125e+04 1.096e-09
 51.32293    205.1 1.087e+04 8.908e-10
 51.36222    206.0 1.037e+04 6.769e-10
 51.40151    207.0 9.909e+03 5.247e-10
 51.44079    208.2 9.590e+03 4.404e-10
 51.48008    209.6 9.423e+03 4.007e-10
 51.51937    211.2 9.308e+03 3.785e-10
 51.54375    212.9 9.212e+03 3.620e-10
 51.56340    213.7 9.276e+03 3.975e-10
 51.59794    215.4 9.182e+03 3.776e-10
 51.63723    217.1 9.104e+03 3.634e-10
 51.67652    218.8 9.059e+03 3.545e-10
 51.71581    220.5 9.005e+03 3.481e-10
 51.75509    222.4 8.937e+03 3.439e-10
 51.79438    224.3 8.914e+03 3.447e-10
 51.83367    226.4 8.903e+03 3.529e-10
 51.87296    228.6 8.940e+03 3.722e-10
 51.90332    230.8 9.040e+03 4.074e-10
 51.92297    231.6 8.834e+03 3.491e-10
 51.95153    233.7 8.971e+03 3.915e-10
 51.99082    235.8 9.147e+03 4.495e-10
 52.03011    238.1 9.473e+03 5.519e-10
 52.06939    240.3 9.956e+03 7.233e-10
 52.10868    242.1 1.044e+04 9.312e-10
 52.14797    244.1 1.102e+04 1.189e-09
 52.17734    244.8 1.125e+04 1.327e-09
 52.19688    245.4 1.146e+04 1.449e-09
 52.21653    246.1 1.169e+04 1.590e-09
 52.23617    246.7 1.193e+04 1.742e-09
 52.25581    247.3 1.214e+04 1.881e-09
 52.27252    247.9 1.229e+04 1.954e-09
 52.28234    248.8 1.267e+04 2.497e-09
 52.29510    249.3 1.286e+04 2.676e-09
 52.31475    249.9 1.293e+04 2.729e-09
 52.33439    250.4 1.294e+04 2.718e-09
 52.35403    251.0 1.292e+04 2.627e-09
 52.37368    251.6 1.284e+04 2.486e-09
 52.39332    252.1 1.275e+04 2.337e-09
 52.41297    252.5 1.266e+04 2.191e-09
 52.43261    252.9 1.258e+04 2.056e-09
 52.45225    253.2 1.252e+04 1.950e-09
 52.47190    254.6 1.336e+04 2.952e-09
 52.49154    254.7 1.337e+04 2.957e-09
 52.51118    254.7 1.347e+04 2.994e-09
 52.53083    254.3 1.379e+04 3.182e-09
 52.55047    253.3 1.440e+04 3.735e-09
 52.57012    251.9 1.519e+04 4.717e-09
 52.58976    250.3 1.601e+04 5.960e-09
 52.60940    248.4 1.670e+04 6.641e-09
 52.62905    245.9 1.680e+04 6.597e-09
 52.64191    243.1 1.679e+04 6.046e-09
 52.65173    245.5 1.774e+04 8.987e-09
 52.66833    242.8 1.741e+04 6.754e-09
 52.68798    239.9 1.651e+04 4.339e-09
 52.70762    236.4 1.523e+04 2.994e-09
 52.72727    232.5 1.495e+04 2.884e-09
 52.74691    229.2 1.504e+04 3.018e-09
 52.76159    227.5 1.521e+04 3.216e-09
 52.77137    226.1 1.557e+04 3.557e-09
 52.78119    223.4 1.690e+04 4.902e-09
 52.79101    219.8 1.899e+04 8.731e-09
 52.80083    216.4 2.069e+04 1.814e-08
 52.81065    213.9 2.174e+04 3.586e-08
 52.82048    212.2 2.248e+04 5.963e-08
 52.82651    210.6 2.324e+04 7.454e-08
 52.83142    210.2 2.366e+04 5.736e-08
 52.84012    207.6 2.378e+04 5.560e-08
 52.84994    205.1 2.391e+04 4.697e-08
 52.85976    202.5 2.352e+04 3.055e-08
 52.86959    200.3 2.257e+04 1.849e-08
 52.88437    197.7 2.132e+04 9.461e-09
 52.90406    191.0 1.603e+04 2.023e-09
 52.92370    183.7 1.112e+04 8.692e-10
 52.94335    181.1 1.008e+04 7.453e-10
 52.97291    181.0 9.999e+03 6.544e-10
 53.00167    182.0 9.529e+03 4.584e-10
 53.02132    181.5 8.503e+03 2.692e-10
 53.05158    182.8 8.113e+03 1.707e-10
 53.09087    184.0 7.650e+03 1.116e-10
 53.13016    185.3 7.487e+03 9.990e-11
 53.16945    186.9 7.482e+03 1.004e-10
 53.20873    188.6 7.495e+03 1.037e-10
 53.24802    190.2 7.594e+03 1.170e-10
 53.28731    191.6 7.862e+03 1.469e-10
 53.32660    193.0 8.265e+03 1.976e-10
 53.36124    193.7 8.676e+03 2.668e-10
 53.38089    193.3 8.635e+03 2.634e-10
 53.40517    193.4 8.940e+03 3.343e-10
 53.43454    193.3 9.054e+03 3.698e-10
 53.45409    193.2 9.249e+03 4.240e-10
 53.47373    193.0 9.720e+03 5.540e-10
 53.49337    192.4 1.050e+04 8.102e-10
 53.51302    191.4 1.146e+04 1.262e-09
 53.53266    190.2 1.241e+04 1.961e-09
 53.55065    189.0 1.320e+04 2.820e-09
 53.56048    189.3 1.273e+04 2.337e-09
 53.57195    188.3 1.343e+04 3.178e-09
 53.59159    187.3 1.389e+04 3.517e-09
 53.61124    186.0 1.392e+04 3.492e-09
 53.63088    184.8 1.384e+04 3.248e-09
 53.65052    183.5 1.356e+04 2.741e-09
 53.67017    182.1 1.316e+04 2.248e-09
 53.68981    180.8 1.282e+04 1.952e-09
 53.70946    179.8 1.266e+04 1.828e-09
 53.72910    179.1 1.264e+04 1.811e-09
 53.74026    178.7 1.263e+04 1.800e-09
 53.75008    178.8 1.276e+04 1.878e-09
 53.76839    178.8 1.269e+04 1.788e-09
 53.78803    178.8 1.260e+04 1.630e-09
 53.80767    178.9 1.244e+04 1.387e-09
 53.82732    179.1 1.220e+04 1.099e-09
 53.84696    179.2 1.191e+04 8.306e-10
 53.86661    179.2 1.157e+04 6.347e-10
 53.88625    179.1 1.120e+04 5.342e-10
 53.90589    179.0 1.097e+04 5.237e-10
 53.92004    179.2 1.095e+04 5.248e-10
 53.92987    179.2 1.106e+04 5.759e-10
 53.94518    179.7 1.106e+04 5.822e-10
 53.96482    180.3 1.112e+04 6.128e-10
 53.98447    180.8 1.140e+04 6.880e-10
 54.00411    180.7 1.186e+04 8.213e-10
 54.02376    180.5 1.244e+04 1.048e-09
 54.04340    179.9 1.309e+04 1.441e-09
 54.06304    179.2 1.388e+04 2.175e-09
 54.08269    178.9 1.479e+04 3.510e-09
 54.09983    178.9 1.569e+04 5.406e-09
 54.10965    178.8 1.512e+04 4.217e-09
 54.12197    178.8 1.552e+04 4.320e-09
 54.14162    178.5 1.555e+04 4.223e-09
 54.16126    178.1 1.551e+04 3.793e-09
 54.18091    177.7 1.520e+04 3.101e-09
 54.20055    177.5 1.469e+04 2.455e-09
 54.22019    177.6 1.417e+04 1.996e-09
 54.23984    177.8 1.377e+04 1.726e-09
 54.26940    178.7 1.352e+04 1.602e-09
 54.30879    180.2 1.324e+04 1.453e-09
 54.34807    181.8 1.324e+04 1.374e-09
 54.37819    182.8 1.332e+04 1.346e-09
 54.39784    183.2 1.355e+04 1.443e-09
 54.41673    183.4 1.361e+04 1.439e-09
 54.43628    183.6 1.372e+04 1.413e-09
 54.45592    183.6 1.388e+04 1.409e-09
 54.46922    183.6 1.399e+04 1.376e-09
 54.47904    184.4 1.403e+04 1.345e-09
 54.49521    184.2 1.399e+04 1.352e-09
 54.51485    183.9 1.390e+04 1.357e-09
 54.53449    183.7 1.380e+04 1.347e-09
 54.55414    183.6 1.368e+04 1.308e-09
 54.57378    183.5 1.362e+04 1.271e-09
 54.59343    183.3 1.362e+04 1.270e-09
 54.61307    183.1 1.362e+04 1.307e-09
 54.63271    182.9 1.369e+04 1.429e-09
 54.64900    182.9 1.381e+04 1.611e-09
 54.65883    183.8 1.378e+04 1.538e-09
 54.67200    183.8 1.396e+04 1.712e-09
 54.69164    183.9 1.412e+04 1.853e-09
 54.71129    183.8 1.424e+04 1.865e-09
 54.73093    183.6 1.424e+04 1.827e-09
 54.75058    183.3 1.424e+04 1.745e-09
 54.78014    181.6 1.404e+04 1.447e-09
 54.81916    180.3 1.369e+04 1.227e-09
 54.83871    181.8 1.389e+04 1.401e-09
 54.85871    180.7 1.366e+04 1.346e-09
 54.89810    179.5 1.309e+04 1.132e-09
 54.93739    179.4 1.248e+04 8.573e-10
 54.97668    179.7 1.190e+04 5.435e-10
 55.01596    180.2 1.141e+04 2.751e-10
 55.05525    180.7 1.099e+04 1.167e-10
 55.09454    181.1 1.045e+04 6.177e-11
 55.13383    182.0 1.011e+04 5.766e-11
 55.17311    183.6 1.007e+04 5.779e-11
 55.19837    185.6 9.965e+03 6.236e-11
 55.21802    186.1 1.008e+04 6.190e-11
 55.25169    188.1 9.949e+03 6.933e-11
 55.29098    190.2 9.885e+03 8.308e-11
 55.33026    192.3 9.872e+03 9.975e-11
 55.36955    194.2 9.896e+03 1.129e-10
 55.40884    196.1 9.928e+03 1.153e-10
 55.44813    197.8 9.929e+03 1.148e-10
 55.48741    199.4 9.921e+03 1.119e-10
 55.52670    201.1 9.881e+03 1.062e-10
 55.55794    202.8 9.815e+03 1.004e-10
 55.57759    203.1 9.891e+03 8.265e-11
 55.60528    204.7 9.778e+03 7.879e-11
 55.64456    206.5 9.685e+03 7.883e-11
 55.68385    208.2 9.668e+03 7.944e-11
 55.72314    210.0 9.612e+03 8.239e-11
 55.76243    211.7 9.561e+03 8.801e-11
 55.80171    213.5 9.527e+03 9.589e-11
 55.84100    215.2 9.513e+03 1.062e-10
 55.88029    216.9 9.518e+03 1.203e-10
 55.91751    218.6 9.546e+03 1.405e-10
 55.93716    219.1 9.551e+03 1.313e-10
 55.95886    220.8 9.620e+03 1.663e-10
 55.99815    222.4 9.734e+03 2.143e-10
 56.03744    224.0 9.882e+03 2.767e-10
 56.07673    225.6 1.006e+04 3.547e-10
 56.11602    227.1 1.030e+04 4.483e-10
 56.15530    228.4 1.058e+04 5.541e-10
 56.19459    229.6 1.087e+04 6.617e-10
 56.23388    230.3 1.110e+04 7.501e-10
 56.27317    230.8 1.121e+04 8.077e-10
 56.29673    231.1 1.123e+04 8.413e-10
 56.31637    232.1 1.134e+04 8.670e-10
 56.35174    232.6 1.136e+04 8.985e-10
 56.39103    233.1 1.142e+04 9.672e-10
 56.43032    233.5 1.156e+04 1.080e-09
 56.46960    233.6 1.171e+04 1.165e-09
 56.50889    233.5 1.174e+04 1.163e-09
 56.54818    232.9 1.171e+04 1.106e-09
 56.58747    232.2 1.148e+04 9.364e-10
 56.62675    231.8 1.105e+04 7.167e-10
 56.65629    231.6 1.054e+04 5.223e-10
 56.67594    232.7 1.104e+04 7.499e-10
 56.70533    232.7 1.049e+04 5.437e-10
 56.74462    232.8 1.004e+04 4.026e-10
 56.78390    233.1 9.682e+03 3.056e-10
 56.82319    233.8 9.401e+03 2.360e-10
 56.86248    234.9 9.174e+03 1.869e-10
 56.90177    236.2 8.994e+03 1.568e-10
 56.94105    237.8 8.839e+03 1.439e-10
 56.98034    239.5 8.654e+03 1.450e-10
 57.01586    241.4 8.642e+03 1.451e-10
 57.03551    241.3 8.833e+03 1.689e-10
 57.05892    243.2 8.817e+03 1.691e-10
 57.09820    245.2 8.810e+03 1.701e-10
 57.13749    247.2 8.802e+03 1.732e-10
 57.17678    249.2 8.810e+03 1.800e-10
 57.21607    251.2 8.862e+03 1.940e-10
 57.25535    253.2 8.939e+03 2.148e-10
 57.29464    255.1 9.026e+03 2.401e-10
 57.33393    256.9 9.114e+03 2.670e-10
 57.37322    258.7 9.201e+03 2.920e-10
 57.39508    260.4 9.285e+03 3.146e-10
 57.41472    260.6 9.170e+03 2.907e-10
 57.45179    262.3 9.201e+03 2.996e-10
 57.49108    263.8 9.245e+03 3.113e-10
 57.53037    265.1 9.310e+03 3.295e-10
 57.56966    266.5 9.418e+03 3.588e-10
 57.60894    267.7 9.573e+03 3.994e-10
 57.64823    269.0 9.752e+03 4.451e-10
 57.68752    270.4 9.908e+03 4.833e-10
 57.72681    272.0 1.004e+04 5.063e-10
 57.75455    272.5 9.989e+03 4.877e-10
 57.77419    273.2 9.543e+03 3.592e-10
 57.80538    274.7 9.601e+03 3.666e-10
 57.84467    276.3 9.695e+03 3.828e-10
 57.87404    276.6 9.741e+03 3.961e-10
 57.89358    276.8 9.829e+03 4.243e-10
 57.91323    277.0 9.965e+03 4.828e-10
 57.93287    277.4 1.013e+04 5.706e-10
 57.94406    277.8 1.031e+04 6.796e-10
 57.95388    278.5 1.012e+04 5.607e-10
 57.97216    279.0 1.031e+04 6.772e-10
 57.99180    279.5 1.054e+04 8.131e-10
 58.01145    279.9 1.080e+04 9.620e-10
 58.03109    280.0 1.106e+04 1.118e-09
 58.05073    280.1 1.136e+04 1.273e-09
 58.07038    279.9 1.168e+04 1.395e-09
 58.09002    279.3 1.217e+04 1.400e-09
 58.10966    278.1 1.230e+04 1.380e-09
 58.12384    276.6 1.238e+04 1.334e-09
 58.13366    278.5 1.269e+04 1.534e-09
 58.14895    276.2 1.280e+04 1.481e-09
 58.16860    274.1 1.282e+04 1.388e-09
 58.18824    271.6 1.277e+04 1.297e-09
 58.20788    269.6 1.256e+04 1.211e-09
 58.23745    266.8 1.252e+04 1.157e-09
 58.27683    261.7 1.214e+04 9.200e-10
 58.31612    256.9 1.150e+04 5.946e-10
 58.35541    253.1 1.058e+04 3.054e-10
 58.39469    249.9 9.352e+03 1.356e-10
 58.43398    247.6 8.617e+03 8.513e-11
 58.47327    247.0 8.573e+03 8.316e-11
 58.49343    246.9 8.571e+03 8.342e-11
 58.51307    245.9 8.460e+03 8.310e-11
 58.55185    246.0 8.492e+03 8.557e-11
 58.59113    246.2 8.607e+03 9.591e-11
 58.63042    246.6 8.794e+03 1.166e-10
 58.66971    246.9 9.149e+03 1.569e-10
 58.70900    247.2 9.599e+03 2.283e-10
 58.74828    247.3 1.005e+04 3.300e-10
 58.78757    247.2 1.044e+04 4.441e-10
 58.82686    247.1 1.073e+04 5.264e-10
 58.85299    247.1 1.081e+04 5.391e-10
 58.87264    246.2 1.063e+04 5.144e-10
 58.89551    246.0 1.064e+04 5.136e-10
 58.91506    246.1 1.064e+04 5.106e-10
 58.93470    246.1 1.063e+04 5.054e-10
 58.95435    246.2 1.061e+04 4.973e-10
 58.97399    246.2 1.059e+04 4.867e-10
 58.99364    246.3 1.056e+04 4.749e-10
 59.01328    246.4 1.054e+04 4.629e-10
 59.03258    246.4 1.053e+04 4.531e-10
 59.04241    246.4 1.057e+04 4.621e-10
 59.05257    246.5 1.057e+04 4.614e-10
 59.07221    246.5 1.058e+04 4.625e-10
 59.09185    246.6 1.062e+04 4.696e-10
 59.11150    246.6 1.068e+04 4.915e-10
 59.13114    246.6 1.080e+04 5.305e-10
 59.15079    246.6 1.095e+04 5.876e-10
 59.17043    246.6 1.113e+04 6.625e-10
 59.19007    246.6 1.132e+04 7.529e-10
 59.20972    246.6 1.151e+04 8.534e-10
 59.22219    246.6 1.169e+04 9.532e-10
 59.23201    246.2 1.186e+04 1.069e-09
 59.24900    246.1 1.204e+04 1.167e-09
 59.26865    246.0 1.220e+04 1.215e-09
 59.28829    245.7 1.225e+04 1.221e-09
 59.30794    245.4 1.228e+04 1.224e-09
 59.32758    245.0 1.231e+04 1.231e-09
 59.34722    244.5 1.234e+04 1.246e-09
 59.36687    244.0 1.245e+04 1.288e-09
 59.38651    243.4 1.263e+04 1.384e-09
 59.40197    242.6 1.292e+04 1.567e-09
 59.41180    241.6 1.349e+04 1.898e-09
 59.42580    240.6 1.406e+04 2.401e-09
 59.44544    239.8 1.459e+04 3.017e-09
 59.46509    239.1 1.496e+04 3.445e-09
 59.48473    238.4 1.502e+04 3.470e-09
 59.50437    237.5 1.497e+04 3.362e-09
 59.52402    236.7 1.468e+04 2.900e-09
 59.54366    235.9 1.413e+04 2.198e-09
 59.56331    235.0 1.345e+04 1.551e-09
 59.58176    233.8 1.278e+04 1.093e-09
 59.59158    232.0 1.258e+04 9.984e-10
 59.60259    230.7 1.227e+04 9.391e-10
 59.62224    230.0 1.225e+04 9.432e-10
 59.64188    229.6 1.229e+04 9.817e-10
 59.66152    229.3 1.246e+04 1.086e-09
 59.68117    229.1 1.270e+04 1.241e-09
 59.70081    228.9 1.293e+04 1.420e-09
 59.72046    228.9 1.309e+04 1.587e-09
 59.74010    228.9 1.314e+04 1.699e-09
 59.75974    228.9 1.311e+04 1.719e-09
 59.77137    229.1 1.302e+04 1.693e-09
 59.78119    228.7 1.309e+04 1.808e-09
 59.79903    228.9 1.278e+04 1.588e-09
 59.81867    229.2 1.239e+04 1.336e-09
 59.83832    229.5 1.197e+04 1.082e-09
 59.85796    229.7 1.156e+04 8.607e-10
 59.87761    229.7 1.122e+04 6.958e-10
 59.89725    229.7 1.097e+04 5.896e-10
 59.91689    229.6 1.084e+04 5.518e-10
 59.93654    229.7 1.084e+04 5.517e-10
 59.95115    229.8 1.085e+04 5.597e-10
 59.96097    229.2 1.069e+04 4.727e-10
 59.97582    229.1 1.077e+04 5.100e-10
 59.99547    228.9 1.102e+04 5.973e-10
 60.01511    227.7 1.200e+04 9.153e-10
 60.03476    224.8 1.421e+04 1.743e-09
 60.05440    222.3 1.554e+04 2.690e-09
 60.06908    220.6 1.682e+04 3.920e-09
 60.07886    218.2 1.846e+04 5.952e-09
 60.08868    214.9 2.044e+04 9.510e-09
 60.09850    211.1 2.238e+04 1.526e-08
 60.10832    207.0 2.384e+04 2.397e-08
 60.11814    202.9 2.456e+04 3.537e-08
 60.12797    199.3 2.460e+04 4.644e-08
 60.13575    195.9 2.444e+04 4.935e-08
 60.14066    193.0 2.459e+04 5.264e-08
 60.14761    189.5 2.439e+04 4.677e-08
 60.15743    186.4 2.387e+04 3.576e-08
 60.16725    183.7 2.321e+04 2.376e-08
 60.17708    181.3 2.253e+04 1.556e-08
 60.19186    174.8 2.065e+04 6.425e-09
 60.21155    167.9 1.691e+04 3.146e-09
 60.23119    162.4 1.415e+04 2.411e-09
 60.25084    159.6 1.371e+04 2.232e-09
 60.27048    158.0 1.358e+04 2.108e-09
 60.29013    156.5 1.341e+04 1.876e-09
 60.30977    154.6 1.300e+04 1.512e-09
 60.32054    152.4 1.233e+04 1.107e-09
 60.33036    150.0 1.178e+04 8.803e-10
 60.34906    147.6 1.099e+04 6.252e-10
 60.36870    145.2 1.031e+04 4.713e-10
 60.38834    143.0 9.932e+03 4.104e-10
 60.40799    141.2 9.882e+03 4.060e-10
 60.42763    139.5 9.888e+03 4.076e-10
 60.44728    137.8 9.929e+03 4.169e-10
 60.46692    135.9 1.002e+04 4.418e-10
 60.48656    133.8 1.018e+04 4.895e-10
 60.50033    131.5 1.035e+04 5.808e-10
 60.51015    130.4 1.029e+04 5.756e-10
 60.52585    127.4 1.097e+04 7.864e-10
 60.54549    122.7 1.188e+04 1.464e-09
 60.56514    112.6 1.638e+04 3.951e-09
 60.58478     98.1 2.281e+04 9.330e-09
 60.59508     88.7 2.619e+04 1.440e-08
 60.59994     85.0 2.766e+04 1.763e-08
 60.60924     72.7 3.089e+04 2.629e-08
 60.61906     59.4 3.336e+04 2.723e-08
 60.62888     46.2 3.362e+04 2.421e-08
 60.63870     32.9 3.285e+04 1.942e-08
 60.64853     21.2 2.829e+04 1.451e-08
 60.65835      5.0 2.785e+04 1.142e-08
 60.66817     -5.0 2.527e+04 8.684e-09
 60.67799    -16.0 2.160e+04 7.536e-09
 60.68492    -19.2 1.985e+04 6.978e-09
 60.68983    -20.3 1.927e+04 6.827e-09
 60.70260    -26.0 1.647e+04 4.956e-09
 60.72229    -30.4 1.502e+04 2.651e-09
 60.74193    -35.9 1.272e+04 1.067e-09
 60.76158    -41.0 1.033e+04 4.725e-10
 60.78122    -42.6 9.801e+03 3.399e-10
 60.80086    -43.5 9.814e+03 2.964e-10
 60.83043    -46.2 9.635e+03 2.552e-10
 60.86981    -48.5 9.137e+03 1.977e-10
 60.90910    -49.6 8.872e+03 1.722e-10
 60.94839    -50.2 8.904e+03 1.755e-10
 60.98768    -50.8 9.290e+03 2.511e-10
 61.02696    -50.5 9.642e+03 3.573e-10
 61.04970    -49.7 9.829e+03 4.142e-10
 61.06934    -50.5 9.496e+03 3.369e-10
 61.10554    -49.4 9.489e+03 3.314e-10
 61.14483    -48.3 9.252e+03 2.650e-10
 61.18411    -47.8 8.892e+03 1.976e-10
 61.22340    -47.4 8.558e+03 1.580e-10
 61.26269    -46.5 8.465e+03 1.504e-10
 61.30198    -45.4 8.565e+03 1.615e-10
 61.34126    -44.2 8.730e+03 1.853e-10
 61.38055    -43.0 8.957e+03 2.216e-10
 61.40926    -41.9 9.211e+03 2.744e-10
 61.42891    -42.8 9.191e+03 2.760e-10
 61.45913    -41.5 9.411e+03 3.368e-10
 61.49841    -40.0 9.685e+03 4.071e-10
 61.53770    -38.3 9.935e+03 4.567e-10
 61.57699    -36.8 9.873e+03 4.422e-10
 61.61628    -35.1 9.837e+03 4.268e-10
 61.65556    -33.3 9.685e+03 3.763e-10
 61.69485    -31.7 9.422e+03 3.105e-10
 61.73414    -29.8 9.166e+03 2.527e-10
 61.76883    -27.7 8.987e+03 2.162e-10
 61.78848    -28.4 8.845e+03 1.943e-10
 61.81271    -26.1 8.849e+03 1.941e-10
 61.85200    -23.8 8.906e+03 2.011e-10
 61.89129    -21.4 9.001e+03 2.144e-10
 61.93058    -19.1 9.092e+03 2.240e-10
 61.96986    -16.7 9.165e+03 2.346e-10
 62.00915    -14.2 9.244e+03 2.495e-10
 62.04844    -11.7 9.217e+03 2.422e-10
 62.08773     -8.9 9.148e+03 2.083e-10
 62.12702     -6.6 9.157e+03 1.819e-10
 62.14805     -4.6 9.254e+03 1.759e-10
 62.16769     -5.5 9.264e+03 1.760e-10
 62.20559     -3.5 9.350e+03 1.825e-10
 62.24488     -1.4 9.444e+03 1.902e-10
 62.28417      1.0 9.519e+03 2.136e-10
 62.32345      3.6 9.713e+03 2.465e-10
 62.36274      6.4 9.970e+03 2.805e-10
 62.40203      8.9 1.025e+04 3.188e-10
 62.44132     10.9 1.070e+04 3.981e-10
 62.48060     13.3 1.198e+04 7.061e-10
 62.50762     14.1 1.274e+04 1.102e-09
 62.51734     12.0 1.300e+04 1.237e-09
 62.52952     13.1 1.322e+04 1.566e-09
 62.54916     14.4 1.345e+04 1.934e-09
 62.56881     15.7 1.382e+04 2.391e-09
 62.58845     16.6 1.447e+04 2.961e-09
 62.60809     16.3 1.578e+04 3.812e-09
 62.62774     14.9 1.789e+04 5.587e-09
 62.64738     13.4 1.971e+04 9.557e-09
 62.66702     12.3 2.065e+04 1.508e-08
 62.68171     11.5 2.091e+04 1.925e-08
 62.69148     11.2 2.103e+04 2.223e-08
 62.69693     10.9 2.107e+04 2.431e-08
 62.70184     10.3 2.104e+04 2.450e-08
 62.71112     10.1 2.089e+04 2.402e-08
 62.72095      9.9 2.053e+04 2.242e-08
 62.73077      9.6 2.025e+04 2.028e-08
 62.74555      8.3 1.998e+04 1.624e-08
 62.76524      6.0 1.989e+04 1.303e-08
 62.78489      3.6 1.924e+04 1.014e-08
 62.80453      1.8 1.794e+04 7.680e-09
 62.82417      1.4 1.658e+04 5.685e-09
 62.84382      1.3 1.523e+04 3.792e-09
 62.86346      0.9 1.414e+04 2.428e-09
 62.87681     -0.0 1.327e+04 1.591e-09
 62.88663     -2.6 1.335e+04 1.503e-09
 62.90275     -4.3 1.251e+04 1.112e-09
 62.92239     -5.5 1.189e+04 8.750e-10
 62.94204     -6.1 1.207e+04 9.317e-10
 62.96168     -6.0 1.232e+04 1.144e-09
 62.98132     -5.4 1.262e+04 1.437e-09
 63.00097     -4.5 1.286e+04 1.742e-09
 63.02061     -3.6 1.304e+04 1.987e-09
 63.04026     -3.0 1.317e+04 2.144e-09
 63.05660     -2.4 1.320e+04 2.199e-09
 63.06642     -3.7 1.321e+04 2.228e-09
 63.07954     -3.0 1.313e+04 2.221e-09
 63.09919     -2.5 1.299e+04 2.135e-09
 63.11883     -1.8 1.279e+04 1.956e-09
 63.13847     -0.9 1.257e+04 1.760e-09
 63.15812     -0.2 1.239e+04 1.565e-09
 63.17776      0.2 1.237e+04 1.430e-09
 63.19741      0.1 1.246e+04 1.407e-09
 63.21705     -0.2 1.255e+04 1.439e-09
 63.23638     -0.3 1.250e+04 1.501e-09
 63.24620     -1.5 1.171e+04 1.093e-09
 63.25634     -1.1 1.168e+04 1.174e-09
 63.27598     -0.5 1.175e+04 1.258e-09
 63.29563      0.2 1.189e+04 1.313e-09
 63.31527      0.8 1.189e+04 1.300e-09
 63.33491      1.5 1.181e+04 1.235e-09
 63.35456      1.9 1.170e+04 1.138e-09
 63.37420      2.1 1.161e+04 1.049e-09
 63.39384      2.0 1.161e+04 1.003e-09
 63.41349      2.0 1.161e+04 9.985e-10
 63.42599      2.0 1.155e+04 9.961e-10
 63.43581      1.5 1.136e+04 8.943e-10
 63.45278      1.5 1.142e+04 9.369e-10
 63.47242      1.2 1.158e+04 1.000e-09
 63.49206     -0.3 1.242e+04 1.190e-09
 63.51171    -11.2 1.879e+04 3.055e-09
 63.53135    -17.0 1.855e+04 7.821e-09
 63.54603    -17.0 1.765e+04 1.062e-08
 63.55581    -16.5 1.717e+04 1.179e-08
 63.56563    -16.8 1.737e+04 1.220e-08
 63.57545    -17.6 1.829e+04 1.201e-08
 63.58527    -18.2 1.904e+04 1.040e-08
 63.59510    -20.2 2.021e+04 8.224e-09
 63.60492    -25.7 1.864e+04 4.564e-09
 63.61058    -26.9 1.766e+04 4.155e-09
 63.61554    -26.7 1.793e+04 4.023e-09
 63.62957    -33.4 1.360e+04 2.120e-09
 63.64921    -34.9 1.245e+04 1.670e-09
 63.66886    -34.9 1.229e+04 1.371e-09
 63.68850    -35.6 1.205e+04 1.083e-09
 63.70814    -36.9 1.166e+04 8.604e-10
 63.72779    -38.0 1.133e+04 7.375e-10
 63.74743    -38.6 1.118e+04 6.929e-10
 63.76708    -38.9 1.118e+04 6.957e-10
 63.78555    -39.1 1.130e+04 7.228e-10
 63.79538    -39.6 1.141e+04 7.866e-10
 63.80636    -39.9 1.159e+04 8.269e-10
 63.82601    -40.5 1.183e+04 9.033e-10
 63.84565    -41.1 1.204e+04 1.017e-09
 63.86530    -41.6 1.229e+04 1.168e-09
 63.88494    -41.9 1.243e+04 1.332e-09
 63.90458    -41.8 1.253e+04 1.429e-09
 63.92423    -41.6 1.253e+04 1.431e-09
 63.94387    -41.3 1.243e+04 1.339e-09
 63.96351    -41.1 1.225e+04 1.163e-09
 63.97516    -41.3 1.205e+04 9.730e-10
 63.98498    -42.0 1.178e+04 8.845e-10
 64.00280    -42.7 1.188e+04 8.604e-10
 64.02245    -44.1 1.220e+04 9.334e-10
 64.04209    -45.5 1.240e+04 1.060e-09
 64.06173    -46.5 1.261e+04 1.202e-09
 64.08138    -47.6 1.277e+04 1.408e-09
 64.10102    -48.0 1.283e+04 1.473e-09
 64.12066    -49.0 1.290e+04 1.643e-09
 64.14031    -49.2 1.292e+04 1.648e-09
 64.15495    -50.6 1.259e+04 1.545e-09
 64.16477    -50.8 1.261e+04 1.549e-09
 64.17960    -50.9 1.259e+04 1.536e-09
 64.19924    -52.0 1.241e+04 1.454e-09
 64.21888    -52.1 1.238e+04 1.428e-09
 64.23853    -52.6 1.232e+04 1.392e-09
 64.25817    -52.8 1.223e+04 1.361e-09
 64.27781    -52.9 1.216e+04 1.343e-09
 64.29746    -52.9 1.209e+04 1.320e-09
 64.31710    -52.8 1.203e+04 1.293e-09
 64.33473    -52.7 1.200e+04 1.252e-09
 64.34455    -53.3 1.245e+04 1.487e-09
 64.35639    -53.3 1.245e+04 1.432e-09
 64.37603    -53.4 1.235e+04 1.342e-09
 64.39568    -53.6 1.217e+04 1.236e-09
 64.41532    -53.7 1.191e+04 1.124e-09
 64.43497    -53.7 1.164e+04 1.018e-09
 64.45461    -53.5 1.139e+04 9.224e-10
 64.47425    -53.1 1.118e+04 8.443e-10
 64.49390    -52.7 1.100e+04 7.781e-10
 64.51354    -52.3 1.086e+04 7.237e-10
 64.52434    -51.9 1.080e+04 6.920e-10
 64.53416    -52.6 1.073e+04 6.670e-10
 64.55283    -52.4 1.064e+04 6.446e-10
 64.57247    -52.2 1.069e+04 6.560e-10
 64.59212    -52.1 1.089e+04 7.211e-10
 64.61176    -52.2 1.119e+04 8.271e-10
 64.63140    -52.8 1.173e+04 1.005e-09
 64.65105    -54.0 1.246e+04 1.318e-09
 64.67069    -55.1 1.318e+04 1.801e-09
 64.69033    -55.8 1.362e+04 2.333e-09
 64.70412    -55.8 1.412e+04 2.882e-09
 64.71394    -56.7 1.386e+04 2.883e-09
 64.72962    -56.1 1.408e+04 3.096e-09
 64.74927    -55.6 1.414e+04 3.087e-09
 64.76891    -55.4 1.402e+04 2.596e-09
 64.78855    -56.6 1.335e+04 1.933e-09
 64.80820    -57.9 1.259e+04 1.489e-09
 64.82784    -58.4 1.207e+04 1.242e-09
 64.84748    -58.6 1.175e+04 1.080e-09
 64.86713    -58.4 1.159e+04 9.738e-10
 64.88391    -58.5 1.157e+04 9.167e-10
 64.89373    -59.6 1.136e+04 8.322e-10
 64.90642    -60.2 1.160e+04 8.407e-10
 64.92606    -62.0 1.222e+04 9.883e-10
 64.94570    -63.8 1.280e+04 1.290e-09
 64.96535    -64.9 1.325e+04 1.693e-09
 64.98499    -65.2 1.361e+04 2.052e-09
 65.00464    -65.4 1.378e+04 2.182e-09
 65.02428    -65.8 1.372e+04 2.104e-09
 65.04392    -66.4 1.326e+04 1.686e-09
 65.06357    -67.4 1.251e+04 1.247e-09
 65.07351    -68.4 1.178e+04 9.487e-10
 65.08333    -68.8 1.132e+04 7.830e-10
 65.10285    -69.0 1.102e+04 6.737e-10
 65.12250    -68.8 1.079e+04 5.898e-10
 65.14214    -68.7 1.062e+04 5.255e-10
 65.16179    -68.5 1.051e+04 4.862e-10
 65.18143    -68.3 1.047e+04 4.690e-10
 65.20107    -68.2 1.051e+04 4.774e-10
 65.22072    -68.0 1.063e+04 5.070e-10
 65.24036    -67.9 1.083e+04 5.662e-10
 65.25330    -67.6 1.100e+04 6.429e-10
 65.26312    -67.4 1.072e+04 5.377e-10
 65.27965    -67.1 1.096e+04 6.135e-10
 65.29929    -67.0 1.128e+04 7.261e-10
 65.31894    -66.9 1.167e+04 8.620e-10
 65.33858    -67.3 1.229e+04 1.090e-09
 65.35822    -68.1 1.311e+04 1.449e-09
 65.37787    -69.4 1.428e+04 2.022e-09
 65.39751    -71.4 1.604e+04 3.076e-09
 65.41219    -72.5 1.674e+04 3.737e-09
 65.42197    -73.2 1.695e+04 3.981e-09
 65.43179    -74.7 1.746e+04 4.544e-09
 65.43789    -78.7 2.710e+04 3.647e-09
 65.44280    -73.9 1.711e+04 3.962e-09
 65.45143    -90.0 5.375e+04 2.570e-09
 65.46126   -120.0 6.605e+04 1.258e-08
 65.47108   -141.5 4.277e+04 1.351e-07
 65.48090   -162.9 3.499e+04 2.989e-07
 65.49072   -190.5 3.294e+04 1.696e-07
 65.50054   -227.1 3.329e+04 1.406e-08
 65.51037   -250.3 1.916e+04 3.905e-09
 65.52019   -254.2 1.739e+04 3.862e-09
 65.52779   -255.8 1.779e+04 4.793e-09
 65.53270   -256.0 1.791e+04 4.954e-09
 65.53983   -258.1 1.833e+04 5.366e-09
 65.55461   -261.5 1.832e+04 5.316e-09
 65.57431   -267.3 1.767e+04 5.230e-09
 65.59395   -271.7 1.658e+04 3.958e-09
 65.61286   -275.2 1.552e+04 2.670e-09
 65.62269   -276.4 1.539e+04 2.622e-09
 65.63324   -279.6 1.410e+04 1.712e-09
 65.65288   -282.1 1.304e+04 1.227e-09
 65.67252   -283.8 1.240e+04 9.544e-10
 65.69217   -284.9 1.205e+04 8.059e-10
 65.71181   -285.6 1.182e+04 7.119e-10
 65.73146   -286.1 1.162e+04 6.424e-10
 65.75110   -286.4 1.143e+04 5.843e-10
 65.77074   -286.6 1.125e+04 5.327e-10
 65.79039   -286.5 1.106e+04 4.875e-10
 65.80247   -286.1 1.091e+04 4.509e-10
 65.81229   -285.9 1.056e+04 3.643e-10
 65.82967   -285.0 1.048e+04 3.428e-10
 65.85924   -284.3 1.040e+04 3.216e-10
 65.89862   -284.2 1.038e+04 3.242e-10
 65.93791   -283.4 1.033e+04 3.294e-10
 65.97720   -282.4 1.042e+04 3.509e-10
 66.01649   -281.6 1.060e+04 3.924e-10
 66.04585   -280.7 1.073e+04 4.232e-10
 66.06540   -280.6 1.081e+04 4.515e-10
 66.08504   -280.7 1.090e+04 4.906e-10
 66.10469   -280.8 1.091e+04 5.033e-10
 66.12433   -281.1 1.091e+04 5.067e-10
 66.14397   -281.4 1.087e+04 5.040e-10
 66.16204   -281.6 1.079e+04 4.825e-10
 66.17186   -280.9 1.078e+04 4.729e-10
 66.18326   -280.9 1.069e+04 4.391e-10
 66.21283   -281.1 1.062e+04 4.059e-10
 66.25221   -281.2 1.042e+04 3.620e-10
 66.29150   -280.5 1.018e+04 3.159e-10
 66.33079   -280.3 9.889e+03 2.646e-10
 66.37007   -280.0 9.617e+03 2.234e-10
 66.40936   -279.7 9.343e+03 1.896e-10
 66.44865   -279.4 9.100e+03 1.648e-10
 66.48794   -279.0 8.909e+03 1.496e-10
 66.52180   -278.6 8.811e+03 1.437e-10
 66.54145   -278.2 8.853e+03 1.395e-10
 66.56651   -278.1 8.839e+03 1.389e-10
 66.60580   -278.0 8.839e+03 1.391e-10
 66.64509   -278.2 8.831e+03 1.489e-10
 66.68437   -278.9 9.097e+03 1.852e-10
 66.72366   -279.9 9.524e+03 2.470e-10
 66.76295   -281.1 9.957e+03 3.333e-10
 66.80224   -282.6 1.031e+04 4.308e-10
 66.84152   -284.2 1.054e+04 5.180e-10
 66.88081   -285.7 1.066e+04 5.772e-10
 66.90102   -287.2 1.069e+04 6.085e-10
 66.92066   -286.3 1.077e+04 6.261e-10
 66.95939   -287.8 1.084e+04 6.665e-10
 66.99868   -289.9 1.109e+04 7.486e-10
 67.03796   -292.4 1.159e+04 9.183e-10
 67.07725   -295.1 1.217e+04 1.164e-09
 67.11654   -297.7 1.253e+04 1.345e-09
 67.14591   -299.2 1.244e+04 1.313e-09
 67.16545   -300.6 1.245e+04 1.306e-09
 67.18510   -302.7 1.224e+04 1.167e-09
 67.20474   -304.5 1.176e+04 9.398e-10
 67.22438   -307.8 1.072e+04 5.932e-10
 67.24403   -310.8 1.024e+04 4.397e-10
 67.26039   -313.2 1.016e+04 4.178e-10
 67.27021   -311.2 1.004e+04 4.057e-10
 67.28331   -313.0 1.000e+04 3.978e-10
 67.30296   -314.4 1.031e+04 4.381e-10
 67.32260   -315.2 1.078e+04 6.035e-10
 67.34225   -315.7 1.112e+04 8.211e-10
 67.36189   -316.0 1.132e+04 1.010e-09
 67.38153   -316.3 1.142e+04 1.118e-09
 67.40118   -316.7 1.144e+04 1.148e-09
 67.42082   -317.0 1.143e+04 1.139e-09
 67.44017   -317.2 1.139e+04 1.118e-09
 67.45000   -316.5 1.159e+04 1.201e-09
 67.46011   -316.8 1.162e+04 1.228e-09
 67.47975   -318.1 1.179e+04 1.276e-09
 67.49940   -323.0 1.384e+04 1.544e-09
 67.51904   -330.9 1.996e+04 3.102e-09
 67.53868   -339.7 2.325e+04 7.245e-09
 67.55833   -348.6 2.345e+04 1.318e-08
 67.57797   -357.3 2.275e+04 1.621e-08
 67.59762   -365.1 2.165e+04 1.660e-08
 67.61726   -371.5 1.896e+04 1.203e-08
 67.62978   -376.8 1.625e+04 5.369e-09
 67.63960   -375.0 1.735e+04 7.582e-09
 67.65655   -379.2 1.455e+04 2.816e-09
 67.67619   -382.7 1.155e+04 8.994e-10
 67.69583   -384.2 1.027e+04 3.964e-10
 67.71548   -384.4 9.862e+03 3.020e-10
 67.73512   -384.2 9.786e+03 2.855e-10
 67.75477   -383.4 9.785e+03 2.850e-10
 67.78433   -383.0 9.875e+03 2.967e-10
 67.82371   -382.7 9.971e+03 3.173e-10
 67.86300   -382.6 1.073e+04 4.548e-10
 67.89237   -382.8 1.173e+04 6.767e-10
 67.91192   -383.3 1.226e+04 8.722e-10
 67.93156   -384.0 1.308e+04 1.284e-09
 67.95120   -384.8 1.387e+04 1.842e-09
 67.97085   -385.8 1.444e+04 2.494e-09
 67.98935   -386.8 1.473e+04 3.008e-09
 67.99917   -385.3 1.431e+04 2.457e-09
 68.01014   -386.0 1.450e+04 2.807e-09
 68.02978   -386.6 1.451e+04 2.924e-09
 68.04942   -386.9 1.448e+04 2.940e-09
 68.06907   -386.8 1.425e+04 2.803e-09
 68.08871   -386.7 1.398e+04 2.457e-09
 68.10835   -386.5 1.370e+04 2.090e-09
 68.12800   -386.3 1.335e+04 1.727e-09
 68.14764   -386.1 1.301e+04 1.405e-09
 68.16729   -386.0 1.271e+04 1.146e-09
 68.17896   -385.6 1.248e+04 9.621e-10
 68.18878   -384.8 1.249e+04 9.680e-10
 68.21649   -385.2 1.223e+04 7.867e-10
 68.25588   -383.6 1.183e+04 5.964e-10
 68.29517   -381.5 1.173e+04 5.298e-10
 68.33445   -379.8 1.167e+04 5.034e-10
 68.35884   -378.5 1.165e+04 4.740e-10
 68.36856   -377.2 1.155e+04 4.568e-10
 68.38337   -376.8 1.161e+04 4.743e-10
 68.40301   -376.2 1.171e+04 5.125e-10
 68.42265   -375.7 1.178e+04 5.470e-10
 68.44230   -375.1 1.184e+04 5.798e-10
 68.46194   -374.6 1.187e+04 6.028e-10
 68.48159   -374.0 1.188e+04 6.101e-10
 68.50123   -373.5 1.188e+04 6.112e-10
 68.52087   -373.0 1.183e+04 6.040e-10
 68.53853   -372.3 1.173e+04 5.842e-10
 68.54835   -371.3 1.191e+04 6.792e-10
 68.56016   -370.6 1.180e+04 6.561e-10
 68.57981   -369.9 1.168e+04 6.308e-10
 68.59945   -369.0 1.158e+04 6.088e-10
 68.61909   -368.2 1.151e+04 5.926e-10
 68.63874   -367.2 1.147e+04 5.836e-10
 68.65838   -366.3 1.146e+04 5.811e-10
 68.67802   -365.4 1.146e+04 5.811e-10
 68.69767   -364.6 1.150e+04 5.874e-10
 68.71731   -363.8 1.156e+04 6.006e-10
 68.72813   -363.1 1.162e+04 6.131e-10
 68.73795   -362.4 1.182e+04 7.054e-10
 68.75660   -361.8 1.185e+04 7.121e-10
 68.77624   -361.3 1.186e+04 7.135e-10
 68.79589   -360.8 1.185e+04 7.133e-10
 68.81553   -360.2 1.175e+04 6.948e-10
 68.83517   -359.5 1.164e+04 6.317e-10
 68.85482   -358.7 1.155e+04 5.438e-10
 68.87446   -358.0 1.146e+04 4.523e-10
 68.89411   -357.4 1.135e+04 3.800e-10
 68.92367   -356.3 1.117e+04 3.267e-10
 68.96305   -355.4 1.099e+04 2.783e-10
 69.00234   -353.3 1.056e+04 2.149e-10
 69.04163   -351.2 1.011e+04 1.704e-10
 69.07807   -349.2 9.833e+03 1.443e-10
 69.09772   -348.2 1.023e+04 2.091e-10
 69.12020   -346.2 1.002e+04 1.858e-10
 69.15949   -344.4 9.893e+03 1.730e-10
 69.19878   -342.5 9.844e+03 1.699e-10
 69.23807   -340.8 9.829e+03 1.697e-10
 69.27735   -339.2 9.786e+03 1.748e-10
 69.31664   -337.7 9.745e+03 1.838e-10
 69.35593   -336.2 9.683e+03 1.927e-10
 69.39522   -334.7 9.627e+03 2.014e-10
 69.43451   -333.3 9.577e+03 2.096e-10
 69.45729   -331.9 9.545e+03 2.172e-10
 69.47693   -331.5 9.613e+03 2.300e-10
 69.51308   -330.3 9.555e+03 2.337e-10
 69.55237   -329.3 9.551e+03 2.389e-10
 69.59166   -328.4 9.543e+03 2.476e-10
 69.63094   -327.6 9.537e+03 2.578e-10
 69.67023   -326.8 9.527e+03 2.657e-10
 69.70952   -325.9 9.518e+03 2.688e-10
 69.74881   -324.9 9.444e+03 2.699e-10
 69.78809   -323.8 9.338e+03 2.575e-10
 69.81686   -322.7 9.214e+03 2.365e-10
 69.83650   -322.6 9.269e+03 2.646e-10
 69.86667   -321.4 9.159e+03 2.405e-10
 69.88914   -320.1 9.049e+03 2.172e-10
 69.90878   -319.4 9.024e+03 2.125e-10
 69.94524   -318.0 8.938e+03 1.941e-10
 69.98453   -316.7 8.859e+03 1.784e-10
 70.02382   -315.3 8.794e+03 1.650e-10
 70.06311   -314.0 8.735e+03 1.535e-10
 70.10239   -312.6 8.686e+03 1.434e-10
 70.14168   -311.2 8.651e+03 1.344e-10
 70.17642   -310.0 8.632e+03 1.269e-10
 70.19607   -309.7 8.616e+03 1.300e-10
 70.22026   -308.5 8.623e+03 1.247e-10
 70.25954   -307.5 8.631e+03 1.239e-10
 70.29883   -306.8 8.699e+03 1.313e-10
 70.33812   -306.3 8.951e+03 1.617e-10
 70.37741   -306.0 9.266e+03 2.148e-10
 70.41669   -305.9 9.569e+03 2.847e-10
 70.45598   -305.9 9.802e+03 3.571e-10
 70.49527   -306.0 9.922e+03 4.105e-10
 70.53456   -306.2 9.938e+03 4.295e-10
 70.55564   -306.3 9.901e+03 4.304e-10
 70.57528   -305.5 9.771e+03 3.766e-10
 70.61313   -305.5 9.661e+03 3.691e-10
 70.65242   -305.4 9.532e+03 3.481e-10
 70.69171   -304.9 9.412e+03 3.255e-10
 70.73100   -304.3 9.349e+03 3.076e-10
 70.77028   -303.7 9.325e+03 2.961e-10
 70.80957   -303.2 9.325e+03 2.887e-10
 70.84886   -302.7 9.341e+03 2.840e-10
 70.88815   -302.2 9.363e+03 2.811e-10
 70.91521   -301.7 9.379e+03 2.800e-10
 70.93485   -301.9 9.593e+03 3.330e-10
 70.96672   -301.5 9.674e+03 3.326e-10
 71.00601   -301.2 9.740e+03 3.478e-10
 71.04530   -300.9 9.862e+03 3.770e-10
 71.08458   -300.6 1.002e+04 4.214e-10
 71.12387   -300.5 1.018e+04 4.723e-10
 71.16316   -300.5 1.030e+04 5.081e-10
 71.20245   -300.6 1.034e+04 5.165e-10
 71.24173   -300.7 1.033e+04 5.151e-10
 71.27477   -300.7 1.022e+04 4.732e-10
 71.29442   -300.8 1.025e+04 4.753e-10
 71.32031   -300.7 1.007e+04 3.977e-10
 71.35960   -300.5 9.915e+03 3.304e-10
 71.39888   -300.3 9.847e+03 2.874e-10
 71.43817   -300.1 9.831e+03 2.693e-10
 71.47746   -299.9 9.823e+03 2.650e-10
 71.51675   -299.8 9.833e+03 2.643e-10
 71.55603   -299.6 9.861e+03 2.662e-10
 71.59532   -299.5 9.861e+03 2.668e-10
 71.63434   -299.0 9.783e+03 2.547e-10
 71.65399   -299.3 9.840e+03 2.626e-10
 71.67390   -298.5 9.656e+03 2.325e-10
 71.71318   -297.3 9.458e+03 2.046e-10
 71.75247   -295.8 9.343e+03 1.887e-10
 71.79176   -294.2 9.323e+03 1.852e-10
 71.83105   -292.5 9.331e+03 1.853e-10
 71.87034   -290.9 9.402e+03 1.914e-10
 71.90962   -289.4 9.482e+03 2.009e-10
 71.94891   -288.1 9.524e+03 2.066e-10
 71.98820   -286.8 9.527e+03 2.065e-10
 72.01356   -285.6 9.479e+03 2.013e-10
 72.03320   -285.8 9.476e+03 2.123e-10
 72.06677   -284.5 9.391e+03 2.031e-10
 72.10606   -283.0 9.287e+03 1.930e-10
 72.14535   -281.5 9.167e+03 1.809e-10
 72.18464   -279.8 9.034e+03 1.661e-10
 72.22392   -278.0 8.898e+03 1.493e-10
 72.26321   -276.0 8.773e+03 1.321e-10
 72.30250   -273.9 8.671e+03 1.163e-10
 72.34179   -271.7 8.588e+03 1.025e-10
 72.37313   -269.6 8.528e+03 9.150e-11
 72.39277   -269.6 8.548e+03 1.029e-10
 72.42036   -267.5 8.488e+03 9.279e-11
 72.45965   -265.3 8.438e+03 8.504e-11
 72.49894   -263.1 8.399e+03 7.951e-11
 72.53822   -261.0 8.372e+03 7.578e-11
 72.57751   -258.8 8.352e+03 7.334e-11
 72.61680   -256.7 8.333e+03 7.190e-11
 72.65609   -254.6 8.313e+03 7.126e-11
 72.69537   -252.5 8.305e+03 7.121e-11
 72.73269   -250.3 8.293e+03 7.193e-11
 72.75234   -249.9 8.241e+03 6.549e-11
 72.77395   -247.7 8.237e+03 6.605e-11
 72.81324   -245.4 8.246e+03 6.707e-11
 72.85252   -243.2 8.259e+03 6.793e-11
 72.89181   -241.0 8.262e+03 6.828e-11
 72.93110   -238.7 8.261e+03 6.833e-11
 72.97039   -236.4 8.251e+03 6.780e-11
 73.00968   -234.1 8.232e+03 6.526e-11
 73.04896   -231.7 8.223e+03 6.189e-11
 73.08825   -229.4 8.225e+03 5.919e-11
 73.11191   -227.0 8.236e+03 5.805e-11
 73.13155   -226.5 8.182e+03 5.469e-11
 73.16683   -224.2 8.185e+03 5.464e-11
 73.20611   -222.0 8.232e+03 5.488e-11
 73.24540   -219.9 8.438e+03 6.162e-11
 73.28469   -218.0 8.592e+03 7.984e-11
 73.32398   -216.0 8.738e+03 1.063e-10
 73.36326   -214.1 8.899e+03 1.383e-10
 73.40255   -212.4 9.058e+03 1.709e-10
 73.44184   -210.8 9.195e+03 1.989e-10
 73.47148   -209.3 9.299e+03 2.200e-10
 73.49112   -209.2 9.336e+03 2.307e-10
 73.52041   -207.8 9.456e+03 2.609e-10
 73.55970   -206.3 9.607e+03 2.982e-10
 73.59899   -204.9 9.791e+03 3.429e-10
 73.63828   -203.6 9.983e+03 3.867e-10
 73.67756   -202.7 1.013e+04 4.158e-10
 73.71685   -201.9 1.020e+04 4.227e-10
 73.75614   -201.2 1.021e+04 4.199e-10
 73.79543   -200.6 1.022e+04 4.009e-10
 73.83104   -200.2 1.022e+04 3.907e-10
 73.85069   -200.1 1.028e+04 4.251e-10
 73.87400   -199.9 1.038e+04 4.336e-10
 73.91329   -199.9 1.057e+04 4.890e-10
 73.95258   -200.0 1.080e+04 5.794e-10
 73.99186   -200.2 1.097e+04 6.561e-10
 74.03115   -200.7 1.101e+04 6.795e-10
 74.07044   -200.9 1.096e+04 6.765e-10
 74.10973   -200.9 1.077e+04 5.682e-10
 74.14902   -200.6 1.051e+04 4.024e-10
 74.18830   -199.8 1.022e+04 2.667e-10
 74.21026   -198.8 9.982e+03 1.822e-10
 74.22990   -198.8 9.897e+03 1.511e-10
 74.26688   -197.6 9.792e+03 1.157e-10
 74.30617   -196.1 9.780e+03 1.044e-10
 74.34545   -194.6 9.780e+03 1.031e-10
 74.38474   -193.1 9.795e+03 1.043e-10
 74.42403   -191.6 9.878e+03 1.122e-10
 74.46332   -190.1 9.951e+03 1.290e-10
 74.50260   -188.7 1.004e+04 1.503e-10
 74.54189   -187.2 1.013e+04 1.758e-10
 74.56983   -185.7 1.025e+04 2.027e-10
 74.58947   -185.5 1.022e+04 1.871e-10
 74.62047   -184.0 1.032e+04 2.088e-10
 74.65975   -182.4 1.041e+04 2.239e-10
 74.69904   -180.7 1.046e+04 2.309e-10
 74.73833   -179.0 1.049e+04 2.346e-10
 74.77762   -177.1 1.052e+04 2.303e-10
 74.81690   -175.1 1.056e+04 2.242e-10
 74.85619   -173.0 1.064e+04 2.218e-10
 74.89548   -170.9 1.069e+04 2.245e-10
 74.92940   -169.0 1.079e+04 2.302e-10
 74.94904   -169.1 1.101e+04 3.080e-10
 74.97405   -167.5 1.126e+04 3.700e-10
 75.01334   -166.1 1.161e+04 4.922e-10
 75.05263   -164.8 1.209e+04 7.201e-10
 75.09192   -164.0 1.256e+04 1.062e-09
 75.11890   -163.0 1.286e+04 1.318e-09
 75.12863   -163.2 1.293e+04 1.388e-09
 75.14083   -163.2 1.310e+04 1.614e-09
 75.16047   -163.0 1.328e+04 1.912e-09
 75.18012   -162.6 1.343e+04 2.140e-09
 75.19976   -162.3 1.355e+04 2.301e-09
 75.21941   -162.0 1.362e+04 2.350e-09
 75.24897   -162.1 1.366e+04 2.382e-09
 75.28835   -161.3 1.368e+04 2.432e-09
 75.30861   -161.1 1.379e+04 2.556e-09
 75.32825   -160.5 1.305e+04 1.591e-09
 75.36693   -160.0 1.314e+04 1.639e-09
 75.39630   -159.7 1.364e+04 2.119e-09
 75.41584   -159.8 1.389e+04 2.629e-09
 75.43549   -159.6 1.413e+04 3.403e-09
 75.45513   -159.3 1.421e+04 4.089e-09
 75.47478   -158.9 1.418e+04 4.356e-09
 75.48820   -158.4 1.396e+04 4.391e-09
 75.49802   -157.9 1.404e+04 3.899e-09
 75.51406   -157.1 1.387e+04 4.064e-09
 75.53371   -156.1 1.342e+04 3.431e-09
 75.55335   -155.1 1.307e+04 2.798e-09
 75.57299   -154.2 1.270e+04 2.146e-09
 75.59264   -153.3 1.243e+04 1.602e-09
 75.61228   -152.5 1.219e+04 1.189e-09
 75.63193   -151.7 1.201e+04 8.905e-10
 75.65157   -150.7 1.189e+04 6.985e-10
 75.66808   -149.3 1.175e+04 5.266e-10
 75.67790   -149.5 1.195e+04 8.703e-10
 75.69086   -148.4 1.186e+04 7.449e-10
 75.71050   -147.3 1.181e+04 6.698e-10
 75.73014   -146.1 1.181e+04 6.397e-10
 75.74979   -145.0 1.183e+04 6.357e-10
 75.76943   -144.0 1.183e+04 6.340e-10
 75.78908   -142.9 1.194e+04 6.425e-10
 75.80872   -142.2 1.198e+04 6.909e-10
 75.82836   -141.4 1.204e+04 7.919e-10
 75.84777   -140.5 1.207e+04 9.317e-10
 75.85759   -140.0 1.210e+04 1.071e-09
 75.86765   -138.9 1.219e+04 1.250e-09
 75.88730   -137.8 1.236e+04 1.430e-09
 75.90694   -137.1 1.262e+04 1.616e-09
 75.92658   -136.6 1.290e+04 1.816e-09
 75.94623   -136.5 1.319e+04 2.043e-09
 75.96587   -136.5 1.345e+04 2.300e-09
 75.98551   -136.7 1.368e+04 2.559e-09
 76.00516   -137.1 1.378e+04 2.729e-09
 76.02480   -137.5 1.379e+04 2.766e-09
 76.03737   -137.8 1.369e+04 2.742e-09
 76.04719   -137.6 1.418e+04 3.702e-09
 76.06409   -137.6 1.380e+04 3.092e-09
 76.08373   -137.7 1.340e+04 2.505e-09
 76.10338   -137.9 1.306e+04 2.058e-09
 76.12302   -138.1 1.279e+04 1.733e-09
 76.14266   -138.2 1.257e+04 1.506e-09
 76.16231   -138.0 1.239e+04 1.345e-09
 76.19187   -137.3 1.221e+04 1.170e-09
 76.23126   -135.7 1.186e+04 8.892e-10
 76.27054   -134.2 1.176e+04 7.275e-10
 76.30983   -132.5 1.176e+04 6.339e-10
 76.34912   -130.6 1.173e+04 5.670e-10
 76.38731   -128.5 1.161e+04 4.815e-10
 76.40696   -128.7 1.180e+04 5.462e-10
 76.42769   -126.2 1.159e+04 4.251e-10
 76.46698   -123.5 1.140e+04 3.287e-10
 76.50627   -120.7 1.131e+04 2.720e-10
 76.54556   -118.0 1.125e+04 2.378e-10
 76.58485   -115.3 1.123e+04 2.224e-10
 76.62413   -112.5 1.123e+04 2.171e-10
 76.66342   -109.8 1.128e+04 2.154e-10
 76.70271   -107.1 1.138e+04 2.306e-10
 76.74200   -104.5 1.141e+04 2.591e-10
 76.76653   -101.8 1.142e+04 2.875e-10
 76.78617   -101.2 1.141e+04 2.695e-10
 76.82057    -98.5 1.141e+04 2.899e-10
 76.85986    -95.8 1.140e+04 3.081e-10
 76.89915    -93.1 1.140e+04 3.205e-10
 76.93843    -90.4 1.139e+04 3.270e-10
 76.97772    -87.7 1.138e+04 3.320e-10
 77.01701    -85.0 1.140e+04 3.347e-10
 77.05630    -82.3 1.144e+04 3.368e-10
 77.09558    -79.6 1.150e+04 3.407e-10
 77.12610    -77.0 1.164e+04 3.564e-10
 77.14574    -76.5 1.159e+04 4.875e-10
 77.17416    -74.0 1.169e+04 5.449e-10
 77.21345    -71.5 1.185e+04 6.752e-10
 77.25273    -69.0 1.207e+04 8.805e-10
 77.29202    -66.6 1.230e+04 1.112e-09
 77.33131    -64.4 1.249e+04 1.271e-09
 77.37060    -62.4 1.259e+04 1.331e-09
 77.40988    -60.5 1.263e+04 1.346e-09
 77.44917    -58.9 1.271e+04 1.348e-09
 77.47854    -57.9 1.257e+04 1.257e-09
 77.49529    -57.5 1.271e+04 1.267e-09
 77.50521    -58.1 1.241e+04 1.161e-09
 77.51783    -57.2 1.262e+04 1.236e-09
 77.53737    -57.1 1.273e+04 1.266e-09
 77.55702    -57.9 1.364e+04 1.502e-09
 77.57666    -60.0 1.501e+04 2.270e-09
 77.59630    -61.9 1.565e+04 3.503e-09
 77.61595    -62.7 1.576e+04 4.877e-09
 77.63459    -62.5 1.584e+04 5.692e-09
 77.64441    -64.4 1.551e+04 5.404e-09
 77.65524    -64.2 1.541e+04 5.349e-09
 77.67488    -64.6 1.501e+04 4.233e-09
 77.68490    -65.4 1.471e+04 3.113e-09
 77.69472    -63.9 1.391e+04 2.634e-09
 77.71417    -64.7 1.372e+04 1.973e-09
 77.73381    -65.8 1.333e+04 1.593e-09
 77.75346    -66.5 1.273e+04 1.492e-09
 77.77310    -66.6 1.246e+04 1.485e-09
 77.79274    -66.2 1.212e+04 1.622e-09
 77.81239    -65.3 1.208e+04 1.735e-09
 77.83203    -64.3 1.212e+04 1.760e-09
 77.85167    -63.3 1.218e+04 1.697e-09
 77.86468    -62.5 1.214e+04 1.488e-09
 77.87450    -61.9 1.199e+04 1.538e-09
 77.89096    -61.1 1.188e+04 1.264e-09
 77.91061    -60.8 1.176e+04 1.001e-09
 77.93025    -60.8 1.152e+04 8.203e-10
 77.94989    -60.8 1.125e+04 7.111e-10
 77.96954    -60.7 1.106e+04 6.601e-10
 77.98918    -60.2 1.101e+04 6.483e-10
 78.00882    -60.1 1.112e+04 6.557e-10
 78.02847    -61.6 1.209e+04 8.350e-10
 78.04447    -63.9 1.341e+04 1.574e-09
 78.05429    -64.3 1.325e+04 1.795e-09
 78.06776    -64.2 1.415e+04 3.282e-09
 78.08740    -63.1 1.495e+04 4.860e-09
 78.10208    -63.2 1.642e+04 7.263e-09
 78.11186    -63.4 1.705e+04 9.081e-09
 78.12168    -63.2 1.759e+04 1.139e-08
 78.13150    -62.8 1.804e+04 1.316e-08
 78.13917    -62.7 1.855e+04 1.484e-08
 78.14408    -62.3 1.872e+04 9.733e-09
 78.15114    -63.1 1.938e+04 1.072e-08
 78.16097    -64.4 1.940e+04 1.186e-08
 78.17079    -65.6 1.901e+04 1.291e-08
 78.18557    -66.2 1.858e+04 1.206e-08
 78.20526    -68.1 1.844e+04 1.266e-08
 78.22425    -69.8 1.840e+04 1.438e-08
 78.23407    -72.3 1.736e+04 8.873e-09
 78.24455    -72.6 1.716e+04 1.062e-08
 78.26419    -72.7 1.706e+04 1.117e-08
 78.28384    -73.1 1.670e+04 9.941e-09
 78.30348    -74.3 1.622e+04 7.608e-09
 78.32313    -76.3 1.549e+04 5.293e-09
 78.34277    -78.7 1.464e+04 3.663e-09
 78.36241    -81.0 1.379e+04 2.690e-09
 78.38206    -82.7 1.297e+04 2.072e-09
 78.40170    -84.0 1.224e+04 1.652e-09
 78.41386    -84.8 1.168e+04 1.356e-09
 78.42368    -85.5 1.143e+04 1.284e-09
 78.44099    -85.9 1.112e+04 1.113e-09
 78.46063    -86.4 1.100e+04 1.028e-09
 78.48028    -87.0 1.098e+04 1.008e-09
 78.49992    -87.7 1.109e+04 1.020e-09
 78.51956    -88.6 1.131e+04 1.140e-09
 78.53921    -89.2 1.151e+04 1.324e-09
 78.55885    -89.5 1.168e+04 1.502e-09
 78.57849    -89.7 1.177e+04 1.593e-09
 78.59364    -89.9 1.178e+04 1.602e-09
 78.60346    -90.2 1.137e+04 1.314e-09
 78.61778    -90.4 1.128e+04 1.241e-09
 78.63743    -90.6 1.101e+04 9.990e-10
 78.65707    -91.1 1.064e+04 7.589e-10
 78.67671    -91.6 1.023e+04 5.888e-10
 78.69636    -91.9 9.861e+03 4.851e-10
 78.71600    -91.9 9.672e+03 4.277e-10
 78.74556    -91.6 9.568e+03 3.883e-10
 78.78495    -90.6 9.457e+03 3.430e-10
 78.82424    -89.0 9.254e+03 2.855e-10
 78.86352    -87.2 9.055e+03 2.374e-10
 78.90281    -85.0 8.924e+03 2.052e-10
 78.94210    -82.7 8.863e+03 1.857e-10
 78.96323    -80.2 8.840e+03 1.747e-10
 78.98287    -80.2 8.909e+03 1.816e-10
 79.02068    -77.6 8.893e+03 1.743e-10
 79.05996    -74.8 8.895e+03 1.723e-10
 79.09925    -72.2 9.075e+03 1.806e-10
 79.13854    -69.9 9.518e+03 2.216e-10
 79.17783    -68.0 9.973e+03 3.000e-10
 79.20719    -66.9 1.041e+04 4.354e-10
 79.22674    -66.5 1.069e+04 6.396e-10
 79.24638    -65.3 1.103e+04 9.561e-10
 79.26603    -64.0 1.136e+04 1.221e-09
 79.28567    -62.9 1.164e+04 1.407e-09
 79.30531    -61.9 1.178e+04 1.465e-09
 79.32260    -61.1 1.192e+04 1.381e-09
 79.33242    -60.9 1.210e+04 1.496e-09
 79.34460    -60.2 1.192e+04 1.298e-09
 79.36425    -59.6 1.179e+04 1.107e-09
 79.38389    -59.0 1.160e+04 9.351e-10
 79.40353    -58.2 1.139e+04 7.949e-10
 79.42318    -57.4 1.120e+04 6.925e-10
 79.44282    -56.6 1.106e+04 6.173e-10
 79.46247    -55.6 1.103e+04 5.751e-10
 79.48211    -54.6 1.106e+04 5.621e-10
 79.50175    -53.6 1.115e+04 5.747e-10
 79.51221    -52.6 1.121e+04 5.997e-10
 79.52203    -52.1 1.124e+04 5.702e-10
 79.54104    -51.1 1.136e+04 6.088e-10
 79.57060    -50.1 1.152e+04 6.932e-10
 79.60999    -47.9 1.135e+04 6.483e-10
 79.64928    -45.4 1.108e+04 5.630e-10
 79.68237    -43.0 1.065e+04 4.263e-10
 79.70201    -42.2 1.083e+04 5.424e-10
 79.72785    -40.1 1.054e+04 4.358e-10
 79.76714    -38.7 1.046e+04 3.709e-10
 79.80643    -37.9 1.049e+04 3.618e-10
 79.84571    -37.9 1.116e+04 4.668e-10
 79.87187    -37.8 1.178e+04 7.212e-10
 79.88160    -38.0 1.217e+04 1.011e-09
 79.89463    -37.8 1.247e+04 1.368e-09
 79.91427    -37.6 1.303e+04 2.205e-09
 79.93392    -37.8 1.407e+04 3.350e-09
 79.95356    -37.7 1.505e+04 4.664e-09
 79.97320    -37.4 1.564e+04 5.338e-09
 79.99285    -37.1 1.585e+04 5.453e-09
 80.01249    -36.8 1.563e+04 4.452e-09
 80.03214    -36.9 1.505e+04 3.361e-09
 80.05156    -36.7 1.438e+04 2.464e-09
 80.06138    -37.3 1.468e+04 2.863e-09
 80.07142    -36.9 1.395e+04 2.171e-09
 80.09107    -36.1 1.347e+04 1.717e-09
 80.12063    -34.7 1.298e+04 1.293e-09
 80.16002    -31.8 1.219e+04 8.374e-10
 80.19930    -28.8 1.164e+04 5.787e-10
 80.23859    -26.2 1.137e+04 4.888e-10
 80.27788    -23.4 1.121e+04 4.638e-10
 80.31717    -20.5 1.126e+04 4.817e-10
 80.35645    -18.0 1.130e+04 5.624e-10
 80.39574    -15.2 1.136e+04 6.321e-10
 80.42115    -12.6 1.145e+04 6.579e-10
 80.44079    -12.5 1.203e+04 9.869e-10
 80.47432    -10.1 1.197e+04 9.284e-10
 80.51360     -7.9 1.181e+04 8.127e-10
 80.55289     -5.4 1.160e+04 6.587e-10
 80.59218     -3.2 1.127e+04 4.919e-10
 80.63147     -1.3 1.082e+04 4.093e-10
 80.67075      0.8 1.055e+04 4.003e-10
 80.71004      3.1 1.049e+04 4.272e-10
 80.74933      5.7 1.046e+04 4.561e-10
 80.78072      8.5 1.037e+04 4.456e-10
 80.80036      8.8 1.061e+04 4.814e-10
 80.82790     11.7 1.067e+04 4.924e-10
 80.85727     13.1 1.061e+04 4.662e-10
 80.87682     14.0 1.065e+04 4.753e-10
 80.89646     15.0 1.071e+04 4.991e-10
 80.91611     16.0 1.075e+04 5.295e-10
 80.93575     16.9 1.084e+04 5.802e-10
 80.95539     17.8 1.097e+04 6.642e-10
 80.97013     18.6 1.110e+04 7.770e-10
 80.97995     18.5 1.109e+04 8.163e-10
 80.99468     19.4 1.121e+04 9.391e-10
 81.01432     20.4 1.138e+04 1.096e-09
 81.03397     21.2 1.161e+04 1.276e-09
 81.05361     22.0 1.187e+04 1.460e-09
 81.07326     22.8 1.216e+04 1.621e-09
 81.09290     23.3 1.243e+04 1.728e-09
 81.11254     23.2 1.264e+04 1.813e-09
 81.13219     22.8 1.316e+04 2.049e-09
 81.14991     21.9 1.390e+04 2.658e-09
 81.15973     21.6 1.345e+04 2.243e-09
 81.17147     21.3 1.444e+04 3.350e-09
 81.18616     21.4 1.478e+04 4.219e-09
 81.19593     21.5 1.496e+04 4.528e-09
 81.20575     21.5 1.556e+04 5.366e-09
 81.21558     21.6 1.596e+04 6.023e-09
 81.22540     21.2 1.699e+04 7.837e-09
 81.23522     21.6 1.748e+04 9.080e-09
 81.25000     21.8 1.828e+04 9.724e-09
 81.26969     21.5 2.000e+04 1.213e-08
 81.28934     20.3 2.126e+04 1.383e-08
 81.30898     18.7 2.139e+04 1.514e-08
 81.32863     17.4 2.104e+04 1.675e-08
 81.33952     16.5 2.060e+04 1.936e-08
 81.34934     19.3 2.200e+04 1.645e-08
 81.36791     19.1 2.159e+04 1.926e-08
 81.38756     19.6 2.096e+04 2.200e-08
 81.40720     20.5 2.041e+04 2.261e-08
 81.42684     22.0 1.973e+04 2.072e-08
 81.44649     23.5 1.930e+04 1.584e-08
 81.46613     24.1 1.887e+04 9.863e-09
 81.48578     24.7 1.780e+04 4.622e-09
 81.50542     24.3 1.640e+04 2.197e-09
 81.51930     24.2 1.421e+04 7.820e-10
 81.52912     26.2 1.722e+04 2.507e-09
 81.54471     23.9 1.514e+04 9.732e-10
 81.56435     22.7 1.144e+04 4.819e-10
 81.58399     19.8 9.582e+03 3.201e-10
 81.60364     17.2 1.043e+04 3.197e-11
 81.62328     15.7 1.022e+04 2.767e-11
 81.65285     14.4 1.149e+04 2.030e-10
 81.69223     15.9 1.020e+04 1.839e-10
 81.73152     18.0 9.544e+03 1.471e-10
 81.77081     20.0 9.183e+03 1.203e-10
 81.81009     22.3 8.977e+03 1.069e-10
 81.84938     25.1 8.947e+03 1.073e-10
 81.87907     28.0 9.027e+03 1.136e-10
 81.89871     26.8 9.403e+03 1.486e-10
 81.92796     30.0 9.482e+03 1.940e-10
 81.96724     33.3 9.588e+03 2.503e-10
 82.00653     36.7 9.709e+03 3.043e-10
 82.04582     40.1 9.868e+03 3.555e-10
 82.08511     43.2 1.007e+04 4.002e-10
 82.12439     46.1 1.025e+04 4.246e-10
 82.15376     47.6 1.028e+04 4.414e-10
 82.17331     48.9 1.031e+04 4.624e-10
 82.20287     50.7 1.035e+04 4.660e-10
 82.23864     52.7 1.054e+04 5.274e-10
 82.25828     52.6 1.103e+04 6.141e-10
 82.28154     54.4 1.101e+04 6.474e-10
 82.32083     56.2 1.112e+04 7.319e-10
 82.36012     57.8 1.149e+04 8.855e-10
 82.39941     58.8 1.203e+04 1.079e-09
 82.42814     59.5 1.223e+04 1.183e-09
 82.43787     58.9 1.273e+04 1.347e-09
 82.44832     58.7 1.332e+04 1.699e-09
 82.46797     58.7 1.378e+04 2.123e-09
 82.48761     58.6 1.410e+04 2.513e-09
 82.50725     58.6 1.429e+04 2.690e-09
 82.52690     58.4 1.434e+04 2.589e-09
 82.54654     58.0 1.423e+04 2.233e-09
 82.56618     57.2 1.382e+04 1.765e-09
 82.58583     56.0 1.315e+04 1.355e-09
 82.60547     54.5 1.306e+04 1.285e-09
 82.61765     51.4 1.378e+04 1.525e-09
 82.62747     53.7 1.467e+04 2.201e-09
 82.64476     48.9 1.672e+04 3.132e-09
 82.66440     43.8 1.789e+04 7.060e-09
 82.68405     44.1 1.878e+04 1.665e-08
 82.70369     44.1 1.966e+04 2.615e-08
 82.72333     43.5 1.942e+04 2.445e-08
 82.74298     43.8 1.815e+04 1.507e-08
 82.76262     43.0 1.702e+04 7.239e-09
 82.78227     38.8 1.561e+04 3.941e-09
 82.79744     34.9 1.473e+04 3.770e-09
 82.80726     34.0 1.616e+04 7.169e-09
 82.82155     31.2 1.612e+04 8.092e-09
 82.84120     31.0 1.648e+04 1.025e-08
 82.86084     31.5 1.656e+04 1.077e-08
 82.88048     32.5 1.641e+04 9.868e-09
 82.90013     33.7 1.618e+04 7.270e-09
 82.91977     33.8 1.602e+04 4.489e-09
 82.93942     32.8 1.576e+04 2.480e-09
 82.95906     30.7 1.448e+04 1.331e-09
 82.97722     29.0 1.240e+04 8.546e-10
 82.98704     26.7 1.164e+04 6.965e-10
 82.99835     27.7 1.161e+04 7.025e-10
 83.01799     29.0 1.159e+04 6.880e-10
 83.03764     29.6 1.165e+04 6.898e-10
 83.06720     30.2 1.160e+04 7.122e-10
 83.10658     31.8 1.187e+04 8.542e-10
 83.13595     33.1 1.191e+04 8.917e-10
 83.15550     33.6 1.218e+04 1.006e-09
 83.16683     33.2 1.277e+04 1.302e-09
 83.17665     31.6 1.312e+04 1.649e-09
 83.19479     31.0 1.361e+04 2.398e-09
 83.21443     31.2 1.383e+04 3.181e-09
 83.23407     31.7 1.375e+04 3.403e-09
 83.25372     32.6 1.347e+04 3.071e-09
 83.27336     33.6 1.298e+04 2.304e-09
 83.29300     33.5 1.251e+04 1.298e-09
 83.31265     32.8 1.201e+04 8.521e-10
 83.33689     31.3 1.141e+04 4.993e-10
 83.35663     28.5 1.052e+04 2.937e-10
 83.38160     27.3 1.005e+04 2.687e-10
 83.42088     27.4 1.010e+04 3.010e-10
 83.46017     27.8 1.018e+04 3.683e-10
 83.48954     28.3 1.026e+04 4.282e-10
 83.50909     28.7 1.033e+04 4.719e-10
 83.53865     28.8 1.038e+04 4.886e-10
 83.57803     28.8 1.056e+04 5.444e-10
 83.60740     28.6 1.060e+04 5.448e-10
 83.62695     28.4 1.073e+04 5.752e-10
 83.64659     27.4 1.131e+04 7.818e-10
 83.66624     27.0 1.170e+04 9.668e-10
 83.68588     26.3 1.228e+04 1.488e-09
 83.70552     26.5 1.260e+04 1.835e-09
 83.71600     26.9 1.286e+04 2.286e-09
 83.73574     27.4 1.226e+04 1.694e-09
 83.77447     28.0 1.232e+04 1.749e-09
 83.81376     28.8 1.188e+04 1.346e-09
 83.85305     29.3 1.112e+04 8.314e-10
 83.89234     29.3 1.035e+04 5.060e-10
 83.93162     29.7 9.802e+03 3.641e-10
 83.97091     30.8 9.581e+03 3.186e-10
 84.01020     32.3 9.526e+03 2.997e-10
 84.04949     33.7 9.533e+03 2.967e-10
 84.07577     34.9 9.588e+03 3.157e-10
 84.09541     36.3 9.799e+03 3.754e-10
 84.12806     37.4 9.916e+03 4.125e-10
 84.16735     38.5 9.993e+03 4.688e-10
 84.20664     39.6 1.008e+04 5.049e-10
 84.24592     40.6 1.013e+04 4.937e-10
 84.27529     41.3 1.016e+04 4.670e-10
 84.29484     41.5 1.014e+04 4.527e-10
 84.32440     41.5 1.003e+04 3.950e-10
 84.36379     42.0 9.842e+03 3.532e-10
 84.40307     42.9 9.684e+03 3.173e-10
 84.43534     44.2 9.574e+03 2.789e-10
 84.45498     45.1 9.507e+03 2.677e-10
 84.48165     46.2 9.385e+03 2.164e-10
 84.52094     47.3 9.426e+03 2.108e-10
 84.56022     48.4 9.560e+03 2.274e-10
 84.59951     49.1 9.852e+03 2.693e-10
 84.62485     49.3 1.000e+04 3.064e-10
 84.63457     49.2 1.002e+04 3.125e-10
 84.64843     49.2 1.018e+04 3.564e-10
 84.66807     48.6 1.057e+04 4.698e-10
 84.68771     47.7 1.109e+04 6.956e-10
 84.70736     46.6 1.174e+04 1.122e-09
 84.72700     45.9 1.246e+04 1.779e-09
 84.74664     45.6 1.316e+04 2.415e-09
 84.76629     45.0 1.343e+04 2.474e-09
 84.78593     44.4 1.334e+04 2.133e-09
 84.80453     43.7 1.287e+04 1.462e-09
 84.81435     44.3 1.234e+04 1.146e-09
 84.83514     41.7 1.177e+04 5.008e-10
 84.87452     39.5 1.107e+04 3.184e-10
 84.91381     39.7 1.090e+04 3.360e-10
 84.95310     40.6 1.067e+04 4.148e-10
 84.99239     42.3 1.061e+04 4.662e-10
 85.03168     44.0 1.058e+04 4.485e-10
 85.07096     45.6 1.047e+04 3.775e-10
 85.11025     46.8 1.033e+04 2.922e-10
 85.14954     47.8 1.019e+04 2.408e-10
 85.17412     49.0 1.009e+04 2.267e-10
 85.19376     49.7 1.045e+04 4.017e-10
 85.22811     51.1 1.035e+04 3.985e-10
 85.26740     52.9 1.028e+04 3.695e-10
 85.30669     54.8 1.023e+04 3.229e-10
 85.34598     56.7 1.022e+04 2.829e-10
 85.38044     58.5 1.025e+04 2.531e-10
 85.40008     59.9 1.020e+04 2.623e-10
 85.42455     61.8 1.027e+04 2.464e-10
 85.46384     63.7 1.029e+04 2.457e-10
 85.50313     65.7 1.036e+04 2.470e-10
 85.53369     67.7 1.051e+04 2.537e-10
 85.55333     68.3 1.082e+04 3.017e-10
 85.58170     70.0 1.101e+04 2.992e-10
 85.61107     70.7 1.100e+04 2.927e-10
 85.63062     71.5 1.108e+04 2.977e-10
 85.65026     72.2 1.138e+04 3.331e-10
 85.66990     72.3 1.187e+04 4.225e-10
 85.68955     72.2 1.234e+04 6.215e-10
 85.70919     72.1 1.268e+04 1.019e-09
 85.72310     72.3 1.298e+04 1.708e-09
 85.73292     72.3 1.352e+04 2.066e-09
 85.74848     73.1 1.391e+04 3.289e-09
 85.76812     74.1 1.422e+04 4.108e-09
 85.78777     74.9 1.426e+04 4.124e-09
 85.80741     75.6 1.416e+04 3.863e-09
 85.82705     76.1 1.379e+04 3.084e-09
 85.84670     76.1 1.322e+04 2.195e-09
 85.86634     76.1 1.255e+04 1.450e-09
 85.89316     76.5 1.203e+04 9.901e-10
 85.91280     76.3 1.158e+04 6.499e-10
 85.93519     76.5 1.113e+04 4.628e-10
 85.97458     76.1 9.895e+03 3.119e-10
 86.01386     76.9 9.744e+03 3.149e-10
 86.05315     78.7 9.678e+03 3.606e-10
 86.09244     80.8 9.716e+03 4.309e-10
 86.13173     82.9 9.737e+03 4.647e-10
 86.17102     85.0 9.701e+03 4.534e-10
 86.21030     87.1 9.536e+03 3.871e-10
 86.24959     89.3 9.294e+03 2.751e-10
 86.27247     91.1 9.069e+03 1.714e-10
 86.29211     90.6 8.771e+03 1.121e-10
 86.32817     92.2 8.482e+03 7.800e-11
 86.36745     94.1 8.194e+03 7.520e-11
 86.40674     96.3 8.175e+03 7.576e-11
 86.44603     98.7 8.131e+03 7.928e-11
 86.48532    101.2 8.120e+03 8.650e-11
 86.52460    103.8 8.150e+03 9.554e-11
 86.56389    106.3 8.199e+03 1.055e-10
 86.60318    108.8 8.269e+03 1.157e-10
 86.63204    111.2 8.371e+03 1.269e-10
 86.65168    110.9 8.633e+03 1.648e-10
 86.68175    113.0 8.804e+03 2.094e-10
 86.72104    115.0 9.022e+03 2.815e-10
 86.76033    116.9 9.339e+03 4.031e-10
 86.79962    118.9 9.747e+03 5.932e-10
 86.83890    120.9 1.013e+04 8.360e-10
 86.87819    122.6 1.037e+04 9.885e-10
 86.91748    124.0 1.037e+04 9.830e-10
 86.95677    125.2 1.018e+04 8.849e-10
 86.99161    126.6 9.694e+03 6.470e-10
 87.01125    126.3 9.022e+03 4.435e-10
 87.03534    127.7 8.251e+03 2.541e-10
 87.07463    128.9 7.594e+03 1.532e-10
 87.11392    130.3 7.186e+03 1.080e-10
 87.15320    131.9 7.005e+03 9.049e-11
 87.19249    133.8 7.008e+03 8.536e-11
 87.23178    135.9 7.011e+03 8.555e-11
 87.27107    137.8 7.023e+03 8.622e-11
 87.31035    139.7 7.051e+03 8.885e-11
 87.34964    141.4 7.108e+03 9.766e-11
 87.37082    143.2 7.230e+03 1.174e-10
 87.39046    142.8 7.102e+03 1.090e-10
 87.42822    144.6 7.372e+03 1.504e-10
 87.46751    146.4 7.740e+03 2.152e-10
 87.50679    148.3 8.150e+03 3.030e-10
 87.54608    150.1 8.541e+03 4.019e-10
 87.58537    151.6 8.847e+03 4.823e-10
 87.62466    152.6 8.943e+03 5.072e-10
 87.65402    153.5 8.813e+03 4.675e-10
 87.67357    154.4 8.766e+03 4.516e-10
 87.69321    155.2 8.791e+03 4.561e-10
 87.71286    155.2 8.908e+03 4.803e-10
 87.73019    154.3 9.548e+03 6.055e-10
 87.74001    152.7 9.205e+03 4.393e-10
 87.75214    149.6 1.137e+04 7.707e-10
 87.77179    142.4 1.537e+04 2.741e-09
 87.79143    134.9 1.906e+04 1.063e-08
 87.80612    132.4 1.990e+04 1.590e-08
 87.81589    130.9 2.054e+04 1.875e-08
 87.83067    127.9 2.011e+04 1.647e-08
 87.85036    125.4 1.908e+04 9.979e-09
 87.87001    122.5 1.659e+04 3.122e-09
 87.88965    117.2 1.296e+04 9.020e-10
 87.90930    111.9 1.004e+04 2.409e-10
 87.93886    111.1 9.836e+03 3.200e-10
 87.97824    111.7 9.601e+03 2.842e-10
 88.01753    113.5 9.482e+03 2.666e-10
 88.05682    115.7 9.398e+03 2.518e-10
 88.08996    117.8 9.373e+03 2.405e-10
 88.10960    117.7 9.202e+03 2.141e-10
 88.13539    119.6 9.240e+03 1.963e-10
 88.17468    121.6 9.267e+03 1.950e-10
 88.21397    123.5 9.340e+03 1.982e-10
 88.25326    125.3 9.512e+03 2.124e-10
 88.29254    127.0 9.700e+03 2.406e-10
 88.33183    128.8 9.902e+03 2.895e-10
 88.37112    130.7 1.014e+04 3.556e-10
 88.41041    132.7 1.038e+04 4.178e-10
 88.44953    134.8 1.059e+04 4.642e-10
 88.48881    136.5 1.062e+04 4.372e-10
 88.52827    138.7 1.061e+04 4.331e-10
 88.56756    140.8 1.059e+04 4.158e-10
 88.60685    143.0 1.052e+04 3.846e-10
 88.64613    145.2 1.044e+04 3.452e-10
 88.68542    147.3 1.037e+04 2.990e-10
 88.72471    149.4 1.030e+04 2.526e-10
 88.76400    151.4 1.026e+04 2.152e-10
 88.80328    153.4 1.024e+04 2.017e-10
 88.82874    155.4 1.024e+04 2.018e-10
 88.84838    155.2 1.020e+04 1.789e-10
 88.88186    157.3 1.020e+04 1.846e-10
 88.92115    159.3 1.024e+04 1.975e-10
 88.96043    161.3 1.029e+04 2.041e-10
 88.99972    163.1 1.029e+04 2.025e-10
 89.03901    165.0 1.027e+04 1.927e-10
 89.07830    166.8 1.024e+04 1.713e-10
 89.11758    168.7 1.020e+04 1.448e-10
 89.15687    170.5 1.016e+04 1.201e-10
 89.18831    172.3 1.013e+04 1.029e-10
 89.20795    172.0 1.005e+04 1.227e-10
 89.23545    173.9 1.003e+04 1.245e-10
 89.27473    175.9 1.003e+04 1.295e-10
 89.31402    177.9 1.002e+04 1.355e-10
 89.35331    180.0 1.001e+04 1.408e-10
 89.39260    182.1 1.000e+04 1.455e-10
 89.43188    184.2 1.001e+04 1.518e-10
 89.47117    186.2 1.000e+04 1.619e-10
 89.51046    188.1 9.992e+03 1.758e-10
 89.54788    189.9 1.000e+04 1.936e-10
 89.56752    189.6 1.000e+04 1.802e-10
 89.58903    191.2 1.001e+04 1.796e-10
 89.62832    192.6 1.001e+04 1.755e-10
 89.66761    193.7 9.989e+03 1.668e-10
 89.70690    194.8 9.921e+03 1.528e-10
 89.74618    195.9 9.811e+03 1.333e-10
 89.78547    197.1 9.676e+03 1.112e-10
 89.82476    198.4 9.535e+03 9.093e-11
 89.86405    199.8 9.437e+03 7.735e-11
 89.90334    201.5 9.436e+03 7.463e-11
 89.92709    203.2 9.442e+03 7.448e-11
 89.94673    203.3 9.414e+03 6.608e-11
 89.98191    205.0 9.436e+03 6.629e-11
 90.02120    206.7 9.465e+03 6.711e-11
 90.06049    208.4 9.488e+03 6.806e-11
 90.09977    210.0 9.484e+03 6.953e-11
 90.13906    211.5 9.450e+03 7.325e-11
 90.17835    212.9 9.431e+03 8.164e-11
 90.21764    214.2 9.475e+03 1.003e-10
 90.25692    215.5 9.639e+03 1.407e-10
 90.28666    216.8 9.920e+03 2.139e-10
 90.30630    216.8 1.002e+04 2.332e-10
 90.33550    217.8 1.035e+04 3.381e-10
 90.37479    218.4 1.060e+04 4.124e-10
 90.41407    218.5 1.065e+04 4.160e-10
 90.45336    218.6 1.062e+04 4.035e-10
 90.49265    218.8 1.050e+04 3.567e-10
 90.53194    219.3 1.030e+04 2.885e-10
 90.57122    219.8 1.008e+04 2.250e-10
 90.61051    220.5 9.857e+03 1.829e-10
 90.64623    221.4 9.758e+03 1.733e-10
 90.66587    221.7 9.809e+03 1.727e-10
 90.68909    222.9 9.807e+03 1.724e-10
 90.72837    224.1 9.820e+03 1.750e-10
 90.76766    225.2 9.879e+03 1.902e-10
 90.80695    226.0 1.000e+04 2.270e-10
 90.84624    226.2 1.015e+04 2.873e-10
 90.88552    226.2 1.033e+04 3.682e-10
 90.92481    226.1 1.053e+04 4.413e-10
 90.96410    225.4 1.065e+04 4.530e-10
 91.00339    224.2 1.064e+04 4.393e-10
 91.02544    223.0 1.051e+04 3.709e-10
 91.04508    223.2 1.079e+04 4.386e-10
 91.08196    222.3 1.040e+04 2.850e-10
 91.12125    221.7 9.854e+03 1.592e-10
 91.16054    221.3 9.331e+03 9.869e-11
 91.19983    221.3 9.204e+03 9.093e-11
 91.23911    221.7 9.192e+03 9.084e-11
 91.27840    222.5 9.191e+03 9.247e-11
 91.31769    223.6 9.215e+03 1.010e-10
 91.35698    224.7 9.311e+03 1.202e-10
 91.38501    225.8 9.523e+03 1.512e-10
 91.40465    225.1 9.365e+03 1.094e-10
 91.43555    226.1 9.645e+03 1.430e-10
 91.47484    226.2 1.003e+04 1.976e-10
 91.51413    225.9 1.039e+04 2.680e-10
 91.55341    225.4 1.088e+04 4.043e-10
 91.59270    224.6 1.149e+04 6.408e-10
 91.63199    223.5 1.183e+04 8.058e-10
 91.67128    222.0 1.184e+04 8.026e-10
 91.71056    220.8 1.165e+04 7.143e-10
 91.74458    220.4 1.123e+04 5.346e-10
 91.76422    219.5 1.084e+04 3.703e-10
 91.78914    219.2 1.037e+04 2.544e-10
 91.82843    219.1 1.002e+04 2.110e-10
 91.86771    219.3 9.947e+03 2.088e-10
 91.90700    220.0 9.935e+03 2.100e-10
 91.94629    221.1 9.912e+03 2.202e-10
 91.98558    222.2 9.952e+03 2.482e-10
 92.02486    223.3 1.004e+04 2.858e-10
 92.06415    224.3 1.013e+04 3.077e-10
 92.10344    225.1 1.015e+04 3.075e-10
 92.12379    225.7 1.015e+04 3.016e-10
 92.14343    225.8 9.959e+03 2.458e-10
 92.18202    226.3 9.882e+03 2.205e-10
 92.22130    226.8 9.768e+03 1.850e-10
 92.26059    227.3 9.638e+03 1.465e-10
 92.29988    227.8 9.494e+03 1.130e-10
 92.33917    228.4 9.310e+03 9.009e-11
 92.37845    229.2 9.029e+03 8.216e-11
 92.41774    230.4 8.945e+03 8.214e-11
 92.45703    231.9 8.935e+03 8.245e-11
 92.48336    233.5 8.897e+03 8.501e-11
 92.50300    234.3 8.834e+03 7.906e-11
 92.53560    236.0 8.804e+03 8.647e-11
 92.57489    237.8 8.809e+03 9.666e-11
 92.61418    239.6 8.843e+03 1.079e-10
 92.65347    241.3 8.870e+03 1.189e-10
 92.69275    243.0 8.882e+03 1.218e-10
 92.73204    244.5 8.881e+03 1.209e-10
 92.77133    246.1 8.869e+03 1.160e-10
 92.81062    247.6 8.821e+03 1.052e-10
 92.84293    249.1 8.746e+03 9.144e-11
 92.86257    249.9 8.737e+03 9.554e-11
 92.88919    251.4 8.650e+03 8.313e-11
 92.92848    252.8 8.554e+03 7.213e-11
 92.96777    254.3 8.465e+03 6.420e-11
 93.00705    255.8 8.377e+03 5.973e-11
 93.04634    257.4 8.306e+03 5.767e-11
 93.08563    259.1 8.257e+03 5.700e-11
 93.12492    260.8 8.215e+03 5.718e-11
 93.16420    262.5 8.208e+03 5.740e-11
 93.20250    264.2 8.196e+03 5.808e-11
 93.22214    265.1 8.164e+03 5.630e-11
 93.24278    266.7 8.174e+03 5.809e-11
 93.28207    268.3 8.190e+03 6.062e-11
 93.32135    269.7 8.206e+03 6.367e-11
 93.36064    271.0 8.219e+03 6.681e-11
 93.39993    272.1 8.229e+03 7.012e-11
 93.43922    273.1 8.242e+03 7.383e-11
 93.47851    273.9 8.243e+03 7.874e-11
 93.51779    274.7 8.231e+03 8.698e-11
 93.55708    275.3 8.241e+03 9.993e-11
 93.58171    275.8 8.270e+03 1.166e-10
 93.60135    276.9 8.392e+03 1.355e-10
 93.63566    277.3 8.444e+03 1.543e-10
 93.67494    277.4 8.470e+03 1.697e-10
 93.71423    277.5 8.480e+03 1.801e-10
 93.75352    277.5 8.491e+03 1.877e-10
 93.79281    277.2 8.521e+03 1.969e-10
 93.83209    276.8 8.581e+03 2.104e-10
 93.87138    276.0 8.683e+03 2.314e-10
 93.91067    275.0 8.892e+03 2.693e-10
 93.94128    273.8 9.191e+03 3.277e-10
 93.96092    274.0 9.605e+03 3.877e-10
 93.98924    272.7 9.862e+03 4.642e-10
 94.02853    271.4 9.960e+03 5.006e-10
 94.06782    270.1 9.942e+03 4.984e-10
 94.10711    269.0 9.804e+03 4.743e-10
 94.14639    268.1 9.590e+03 4.255e-10
 94.18568    267.4 9.399e+03 3.831e-10
 94.22497    266.9 9.297e+03 3.608e-10
 94.26426    266.3 9.302e+03 3.614e-10
 94.30085    265.9 9.310e+03 3.651e-10
 94.32049    266.4 9.227e+03 3.618e-10
 94.34283    266.1 9.265e+03 3.651e-10
 94.38212    266.0 9.303e+03 3.703e-10
 94.42141    266.0 9.293e+03 3.677e-10
 94.46069    266.2 9.230e+03 3.547e-10
 94.49998    266.5 9.137e+03 3.348e-10
 94.53927    267.0 8.993e+03 3.011e-10
 94.57856    267.7 8.837e+03 2.644e-10
 94.61785    268.4 8.745e+03 2.386e-10
 94.65713    269.0 8.762e+03 2.352e-10
 94.68006    269.3 8.848e+03 2.408e-10
 94.69970    268.8 8.782e+03 2.102e-10
 94.73571    268.6 8.994e+03 2.344e-10
 94.77500    267.9 9.399e+03 2.879e-10
 94.81428    267.4 9.751e+03 3.458e-10
 94.84365    266.0 1.011e+04 4.571e-10
 94.85965    264.7 1.040e+04 5.938e-10
 94.86947    263.9 1.083e+04 6.767e-10
 94.88284    262.4 1.101e+04 8.346e-10
 94.90248    261.0 1.108e+04 9.066e-10
 94.92213    259.6 1.109e+04 9.037e-10
 94.94177    258.0 1.110e+04 8.830e-10
 94.96142    256.2 1.107e+04 8.323e-10
 94.98106    254.5 1.100e+04 7.664e-10
 95.00070    253.0 1.086e+04 7.052e-10
 95.02035    251.8 1.072e+04 6.608e-10
 95.03943    250.8 1.059e+04 6.317e-10
 95.04925    250.0 1.061e+04 6.058e-10
 95.05964    249.2 1.050e+04 5.794e-10
 95.07928    248.7 1.044e+04 5.612e-10
 95.09892    248.2 1.042e+04 5.477e-10
 95.11857    247.8 1.041e+04 5.378e-10
 95.13821    247.4 1.043e+04 5.310e-10
 95.15785    247.2 1.045e+04 5.269e-10
 95.17750    247.1 1.046e+04 5.247e-10
 95.19714    247.0 1.048e+04 5.243e-10
 95.21679    246.9 1.056e+04 5.250e-10
 95.22904    246.5 1.061e+04 5.181e-10
 95.23886    246.1 1.052e+04 4.678e-10
 95.25607    246.0 1.058e+04 4.804e-10
 95.27572    245.9 1.060e+04 4.811e-10
 95.29536    245.8 1.060e+04 4.803e-10
 95.32492    246.0 1.066e+04 4.810e-10
 95.36431    245.9 1.060e+04 4.452e-10
 95.39920    245.9 1.042e+04 3.765e-10
 95.41884    245.4 1.007e+04 2.775e-10
 95.44288    245.5 9.953e+03 2.384e-10
 95.48217    245.7 9.815e+03 1.958e-10
 95.52146    246.0 9.674e+03 1.568e-10
 95.56075    246.5 9.525e+03 1.266e-10
 95.60003    247.3 9.355e+03 1.075e-10
 95.63932    248.4 9.175e+03 9.803e-11
 95.67861    249.9 9.103e+03 9.750e-11
 95.71790    251.7 9.092e+03 9.840e-11
 95.75718    253.6 9.075e+03 1.024e-10
 95.77841    255.5 9.090e+03 1.099e-10
 95.79805    255.8 9.171e+03 1.448e-10
 95.83576    257.6 9.294e+03 1.707e-10
 95.87505    259.5 9.464e+03 1.975e-10
 95.91434    261.9 9.763e+03 2.283e-10
 95.95362    263.5 1.003e+04 2.547e-10
 95.98299    263.4 1.030e+04 2.998e-10
 96.00254    263.2 1.059e+04 3.762e-10
 96.02218    263.1 1.093e+04 4.952e-10
 96.04182    262.8 1.135e+04 6.689e-10
 96.06147    262.4 1.183e+04 9.210e-10
 96.08111    262.0 1.233e+04 1.265e-09
 96.10076    261.9 1.282e+04 1.671e-09
 96.12040    261.9 1.314e+04 2.101e-09
 96.13778    261.9 1.338e+04 2.226e-09
 96.14761    261.3 1.369e+04 2.405e-09
 96.15969    261.4 1.356e+04 2.215e-09
 96.17933    261.5 1.328e+04 1.842e-09
 96.19897    261.6 1.288e+04 1.417e-09
 96.21862    261.7 1.240e+04 1.051e-09
 96.23826    261.5 1.188e+04 7.919e-10
 96.25791    261.4 1.141e+04 6.381e-10
 96.27755    261.4 1.104e+04 5.627e-10
 96.29719    261.6 1.087e+04 5.335e-10
 96.31684    262.1 1.079e+04 5.350e-10
 96.32739    262.6 1.078e+04 5.392e-10
 96.33721    262.1 1.078e+04 5.431e-10
 96.35613    262.7 1.079e+04 5.674e-10
 96.37577    263.3 1.080e+04 5.987e-10
 96.39541    264.0 1.082e+04 6.356e-10
 96.41506    264.6 1.083e+04 6.769e-10
 96.43470    265.3 1.085e+04 7.184e-10
 96.45434    266.1 1.087e+04 7.488e-10
 96.47399    266.7 1.089e+04 7.544e-10
 96.49363    267.4 1.089e+04 7.536e-10
 96.50717    268.0 1.088e+04 7.464e-10
 96.51700    267.6 1.099e+04 7.688e-10
 96.53292    268.2 1.095e+04 7.392e-10
 96.55256    268.7 1.087e+04 6.973e-10
 96.57221    269.1 1.078e+04 6.549e-10
 96.59185    269.6 1.073e+04 6.304e-10
 96.61149    270.0 1.073e+04 6.287e-10
 96.63114    270.4 1.074e+04 6.305e-10
 96.65078    270.8 1.079e+04 6.427e-10
 96.67043    271.1 1.089e+04 6.794e-10
 96.68696    271.4 1.104e+04 7.430e-10
 96.69678    271.0 1.099e+04 7.321e-10
 96.70971    271.3 1.119e+04 8.288e-10
 96.72936    271.6 1.143e+04 9.610e-10
 96.74900    272.0 1.169e+04 1.127e-09
 96.76864    272.5 1.196e+04 1.316e-09
 96.78829    273.0 1.222e+04 1.504e-09
 96.80793    273.4 1.245e+04 1.649e-09
 96.82758    273.6 1.263e+04 1.729e-09
 96.84722    273.8 1.273e+04 1.758e-09
 96.86674    273.9 1.280e+04 1.755e-09
 96.87656    273.5 1.280e+04 1.718e-09
 96.88651    273.5 1.279e+04 1.649e-09
 96.90615    273.4 1.280e+04 1.605e-09
 96.92580    273.1 1.283e+04 1.607e-09
 96.94544    272.7 1.294e+04 1.636e-09
 96.96508    272.2 1.305e+04 1.696e-09
 96.98473    271.9 1.316e+04 1.774e-09
 97.00437    271.8 1.327e+04 1.855e-09
 97.02401    271.7 1.337e+04 1.930e-09
 97.04366    271.7 1.348e+04 2.001e-09
 97.05635    272.0 1.358e+04 2.066e-09
 97.06617    270.2 1.356e+04 1.981e-09
 97.08295    270.5 1.372e+04 2.068e-09
 97.10259    270.9 1.388e+04 2.113e-09
 97.12223    271.4 1.398e+04 2.103e-09
 97.14188    271.9 1.410e+04 2.108e-09
 97.16152    272.2 1.434e+04 2.135e-09
 97.18116    272.2 1.471e+04 2.228e-09
 97.20081    271.9 1.515e+04 2.453e-09
 97.22045    271.4 1.564e+04 2.844e-09
 97.23613    271.1 1.609e+04 3.322e-09
 97.24591    268.5 1.653e+04 4.346e-09
 97.25473    267.5 1.727e+04 5.203e-09
 97.26455    266.1 1.823e+04 6.704e-09
 97.27437    264.5 1.924e+04 9.038e-09
 97.28420    263.0 2.020e+04 1.231e-08
 97.29402    261.6 2.107e+04 1.639e-08
 97.30384    260.3 2.191e+04 2.108e-08
 97.31366    258.8 2.275e+04 2.531e-08
 97.32348    256.9 2.330e+04 2.947e-08
 97.33084    254.5 2.427e+04 2.956e-08
 97.33575    251.1 2.377e+04 2.513e-08
 97.34313    247.9 2.382e+04 2.399e-08
 97.35295    244.3 2.382e+04 2.244e-08
 97.36277    240.2 2.382e+04 2.131e-08
 97.37259    235.7 2.380e+04 2.145e-08
 97.38242    229.8 2.412e+04 2.332e-08
 97.39224    219.4 2.581e+04 3.497e-08
 97.40206    204.3 2.710e+04 9.684e-08
 97.41188    189.6 2.647e+04 2.275e-07
 97.42073    177.4 2.594e+04 2.682e-07
 97.42564    176.9 2.606e+04 2.479e-07
 97.43153    167.3 2.603e+04 2.272e-07
 97.44135    160.0 2.602e+04 1.461e-07
 97.45117    154.3 2.603e+04 6.336e-08
 97.46099    148.7 2.594e+04 2.253e-08
 97.47081    142.3 2.381e+04 9.785e-09
 97.48063    137.3 1.920e+04 8.382e-09
 97.49046    135.3 1.798e+04 8.243e-09
 97.50028    134.8 1.789e+04 8.189e-09
 97.51010    134.7 1.790e+04 8.221e-09
 97.51553    134.5 1.801e+04 8.472e-09
 97.52045    135.0 1.790e+04 8.451e-09
 97.52974    134.7 1.819e+04 9.025e-09
 97.53957    134.4 1.866e+04 9.918e-09
 97.54939    134.1 1.920e+04 1.110e-08
 97.55921    133.8 1.977e+04 1.274e-08
 97.56903    133.5 2.035e+04 1.469e-08
 97.57885    133.3 2.093e+04 1.670e-08
 97.58868    133.1 2.153e+04 1.802e-08
 97.59850    132.6 2.187e+04 1.797e-08
 97.60543    131.9 2.191e+04 1.727e-08
 97.61034    133.3 2.199e+04 2.199e-08
 97.61814    132.8 2.205e+04 2.114e-08
 97.62796    132.3 2.194e+04 1.902e-08
 97.63778    131.8 2.156e+04 1.628e-08
 97.64761    131.9 2.104e+04 1.418e-08
 97.65743    131.9 2.075e+04 1.314e-08
 97.66725    132.3 2.042e+04 1.136e-08
 97.67707    132.5 2.024e+04 1.022e-08
 97.69185    133.9 2.043e+04 9.222e-09
 97.71155    134.7 1.957e+04 5.783e-09
 97.73119    135.6 1.833e+04 3.368e-09
 97.75083    136.2 1.672e+04 1.951e-09
 97.77048    136.4 1.504e+04 1.184e-09
 97.78531    135.0 1.348e+04 7.453e-10
 97.79508    139.6 1.522e+04 7.720e-10
 97.80476    136.6 1.844e+04 6.682e-10
 97.81458    127.3 4.254e+04 4.604e-10
 97.82440    106.6 8.064e+04 4.981e-10
 97.83422     92.8 9.344e+04 5.525e-10
 97.84404     83.0 8.980e+04 6.248e-10
 97.85387     76.0 7.518e+04 8.965e-10
 97.86369     71.5 5.111e+04 2.168e-09
 97.87351     68.4 3.402e+04 5.766e-09
 97.88001     66.9 2.587e+04 1.256e-08
 97.88493     64.7 2.796e+04 2.089e-08
 97.89315     64.8 2.475e+04 2.361e-08
 97.90794     65.3 2.385e+04 1.873e-08
 97.92763     67.8 2.426e+04 1.374e-08
 97.94727     70.0 2.452e+04 7.783e-09
 97.96509     70.1 2.286e+04 3.604e-09
 97.97492     65.1 1.774e+04 1.618e-09
 97.98656     65.5 1.274e+04 1.431e-09
 98.00620     67.2 1.246e+04 1.465e-09
 98.02585     69.7 1.253e+04 1.540e-09
 98.04549     72.3 1.277e+04 1.711e-09
 98.06514     74.5 1.314e+04 1.956e-09
 98.08478     76.4 1.350e+04 2.226e-09
 98.10442     78.1 1.378e+04 2.473e-09
 98.12407     79.8 1.400e+04 2.660e-09
 98.14371     81.3 1.408e+04 2.717e-09
 98.15470     82.7 1.404e+04 2.667e-09
 98.16452     82.7 1.409e+04 2.737e-09
 98.18300     84.0 1.398e+04 2.610e-09
 98.20264     85.2 1.379e+04 2.416e-09
 98.22229     86.4 1.359e+04 2.209e-09
 98.24193     87.6 1.340e+04 2.023e-09
 98.26157     88.7 1.336e+04 1.888e-09
 98.28122     89.9 1.341e+04 1.887e-09
 98.30086     90.9 1.366e+04 1.979e-09
 98.32050     91.0 1.427e+04 2.338e-09
 98.33448     90.8 1.546e+04 3.414e-09
 98.34431     89.9 1.595e+04 4.532e-09
 98.35979     90.1 1.720e+04 7.014e-09
 98.37944     90.0 1.860e+04 1.059e-08
 98.39412     89.6 1.996e+04 1.432e-08
 98.40389     88.3 2.169e+04 2.162e-08
 98.41371     86.0 2.305e+04 3.748e-08
 98.42354     83.4 2.352e+04 6.360e-08
 98.42919     81.1 2.335e+04 1.016e-07
 98.43410     80.6 2.321e+04 6.790e-08
 98.44318     78.6 2.313e+04 1.003e-07
 98.45300     76.5 2.322e+04 1.228e-07
 98.46282     74.1 2.325e+04 1.199e-07
 98.47265     72.3 2.315e+04 9.498e-08
 98.48247     71.2 2.283e+04 5.351e-08
 98.49229     69.9 2.201e+04 2.367e-08
 98.50211     68.4 2.103e+04 1.272e-08
 98.51422     65.5 1.966e+04 5.759e-09
 98.52409     67.2 1.995e+04 9.471e-09
 98.53659     63.1 1.759e+04 3.170e-09
 98.55623     58.1 1.430e+04 1.159e-09
 98.57587     54.3 1.172e+04 6.261e-10
 98.59552     53.0 1.064e+04 4.805e-10
 98.61516     52.4 1.017e+04 4.337e-10
 98.63480     51.9 9.910e+03 4.477e-10
 98.65445     51.4 1.007e+04 4.931e-10
 98.67409     51.6 1.033e+04 5.706e-10
 98.69374     51.7 1.066e+04 6.683e-10
 98.70387     51.7 1.097e+04 7.702e-10
 98.71370     50.9 1.125e+04 8.696e-10
 98.73302     50.9 1.155e+04 9.969e-10
 98.75267     50.9 1.172e+04 1.064e-09
 98.77231     50.8 1.176e+04 1.057e-09
 98.79196     50.6 1.174e+04 1.022e-09
 98.81160     50.5 1.164e+04 9.474e-10
 98.83124     50.4 1.145e+04 8.497e-10
 98.85089     50.3 1.122e+04 7.443e-10
 98.87053     50.2 1.100e+04 6.564e-10
 98.88366     50.1 1.083e+04 5.958e-10
 98.89348     49.5 1.075e+04 5.607e-10
 98.90982     49.4 1.061e+04 5.212e-10
 98.92946     49.4 1.047e+04 4.782e-10
 98.94911     49.6 1.034e+04 4.395e-10
 98.96875     50.0 1.021e+04 3.879e-10
 98.98839     50.4 1.016e+04 3.662e-10
 99.01796     50.3 1.001e+04 3.431e-10
 99.05382     50.6 9.708e+03 2.848e-10
 99.07346     51.1 9.918e+03 3.507e-10
 99.09663     51.7 9.620e+03 3.050e-10
 99.13592     52.4 9.399e+03 2.870e-10
 99.17520     53.4 9.176e+03 2.748e-10
 99.21449     55.4 9.063e+03 2.541e-10
 99.25378     57.8 9.168e+03 2.537e-10
 99.28315     60.5 9.179e+03 2.481e-10
 99.30269     59.3 1.420e+04 2.066e-10
 99.32234     25.4 6.307e+04 4.783e-10
 99.33702      8.1 6.114e+04 1.959e-09
 99.34284      5.6 3.752e+04 1.654e-08
 99.34776      5.2 2.893e+04 4.765e-08
 99.35662      6.5 2.185e+04 1.436e-07
 99.36644      8.9 2.100e+04 2.256e-07
 99.37378      9.2 2.078e+04 3.052e-07
 99.37867      8.9 2.102e+04 3.067e-07
 99.38606      7.9 2.231e+04 2.205e-07
 99.39590      3.8 3.057e+04 6.936e-08
 99.40573     -4.7 5.578e+04 5.282e-09
 99.41555    -31.9 4.425e+04 1.158e-09
 99.42537    -53.0 1.348e+04 8.911e-10
 99.43279    -54.1 1.206e+04 9.403e-10
 99.44266    -53.8 1.137e+04 8.136e-10
 99.45984    -51.9 1.117e+04 8.671e-10
 99.47949    -49.7 1.138e+04 9.809e-10
 99.49913    -47.7 1.166e+04 1.147e-09
 99.51878    -45.8 1.208e+04 1.379e-09
 99.53842    -44.3 1.260e+04 1.659e-09
 99.55806    -43.2 1.325e+04 2.002e-09
 99.57771    -42.6 1.403e+04 2.459e-09
 99.59735    -42.6 1.482e+04 3.061e-09
 99.61262    -42.8 1.550e+04 3.807e-09
 99.62244    -44.8 1.555e+04 3.936e-09
 99.63664    -45.2 1.620e+04 5.089e-09
 99.65628    -45.8 1.689e+04 6.153e-09
 99.67593    -46.6 1.763e+04 7.525e-09
 99.69557    -47.4 1.816e+04 8.658e-09
 99.71521    -48.3 1.838e+04 8.959e-09
 99.73486    -49.3 1.829e+04 8.102e-09
 99.75450    -50.8 1.785e+04 6.395e-09
 99.77414    -52.7 1.701e+04 4.605e-09
 99.79240    -55.0 1.575e+04 3.251e-09
 99.80223    -55.7 1.687e+04 3.977e-09
 99.81343    -59.5 1.680e+04 3.057e-09
 99.83308    -65.9 2.188e+04 2.313e-09
 99.85272    -72.3 2.844e+04 2.038e-09
 99.87236    -77.8 2.952e+04 2.572e-09
 99.89201    -83.2 2.297e+04 4.704e-09
 99.91165    -88.2 1.770e+04 5.140e-09
 99.93130    -91.6 1.500e+04 3.411e-09
 99.95094    -93.1 1.330e+04 2.008e-09
 99.97058    -94.4 1.214e+04 1.280e-09
 99.98201    -95.0 1.128e+04 9.129e-10
 99.99183    -95.9 1.107e+04 8.702e-10
