# Columns:
#   distance along LOS (in CHIMPs)
#   peculiar velocity  (in km/s)
#   temperature (K)
#   HI number density
# pos=(217.63,255.469,135.063), angles=(1.72341,1.61642)
  0.00257     34.7 2.075e+04 1.060e-08
  0.01153     33.5 2.107e+04 6.264e-09
  0.02142     35.2 2.166e+04 7.224e-09
  0.03482     33.5 2.264e+04 3.963e-09
  0.05460     33.2 2.283e+04 2.103e-09
  0.06475     33.0 2.237e+04 9.277e-10
  0.07464     36.8 2.436e+04 5.827e-09
  0.09416     36.0 2.665e+04 1.934e-09
  0.11395     31.7 2.756e+04 4.421e-10
  0.13373     26.1 1.697e+04 4.624e-10
  0.15351     22.0 1.211e+04 6.312e-10
  0.17329     19.6 1.128e+04 9.021e-10
  0.18833     18.8 1.167e+04 1.270e-09
  0.19822     19.3 1.261e+04 1.386e-09
  0.21285     18.0 1.249e+04 1.669e-09
  0.23264     13.6 1.429e+04 2.427e-09
  0.25242      8.5 1.653e+04 4.579e-09
  0.27220      5.7 1.677e+04 6.818e-09
  0.29198      4.2 1.641e+04 6.547e-09
  0.31176      2.8 1.584e+04 5.380e-09
  0.32180      0.4 1.541e+04 3.227e-09
  0.33169     -2.1 1.474e+04 2.162e-09
  0.35132     -7.7 1.242e+04 1.000e-09
  0.37111    -11.2 1.052e+04 6.221e-10
  0.39089    -11.5 1.002e+04 5.035e-10
  0.41067    -10.7 9.757e+03 3.937e-10
  0.43045    -10.7 9.727e+03 3.593e-10
  0.44585     -8.5 9.048e+03 2.447e-10
  0.46573     -9.6 9.245e+03 2.425e-10
  0.49988     -8.2 8.858e+03 1.863e-10
  0.53944     -6.3 8.867e+03 1.843e-10
  0.56916     -4.2 8.958e+03 2.073e-10
  0.58894     -4.5 8.947e+03 1.961e-10
  0.61857     -2.2 9.171e+03 2.547e-10
  0.65813      0.4 9.537e+03 3.279e-10
  0.69770      2.9 9.785e+03 4.064e-10
  0.73726      4.6 1.046e+04 5.607e-10
  0.76683      2.9 1.266e+04 1.236e-09
  0.78652      2.8 1.337e+04 1.756e-09
  0.80630      2.7 1.488e+04 3.078e-09
  0.82602      3.7 1.559e+04 4.404e-09
  0.84580      4.3 1.770e+04 1.082e-08
  0.86564      5.1 1.726e+04 9.235e-09
  0.87998      5.3 1.660e+04 6.932e-09
  0.88987      4.9 1.601e+04 5.956e-09
  0.90521      4.7 1.548e+04 4.763e-09
  0.92499      4.0 1.498e+04 3.832e-09
  0.94477      3.1 1.452e+04 3.438e-09
  0.95949      2.6 1.424e+04 3.093e-09
  0.96939      1.4 1.400e+04 2.469e-09
  0.98433      1.3 1.352e+04 2.239e-09
  1.00411      1.7 1.293e+04 1.939e-09
  1.02390      2.5 1.238e+04 1.621e-09
  1.04368      3.6 1.174e+04 1.247e-09
  1.06346      4.7 1.120e+04 9.213e-10
  1.08308      6.3 1.069e+04 6.358e-10
  1.09297      6.1 1.066e+04 6.083e-10
  1.10302      6.2 1.037e+04 4.263e-10
  1.13279      7.4 9.968e+03 2.958e-10
  1.17245      9.6 9.337e+03 1.734e-10
  1.21202     11.9 8.936e+03 1.186e-10
  1.25158     14.4 8.718e+03 1.030e-10
  1.29114     17.2 8.636e+03 9.939e-11
  1.31440     20.1 8.633e+03 9.754e-11
  1.33391     20.4 8.551e+03 8.874e-11
  1.35022     20.6 8.484e+03 7.302e-11
  1.37027     23.5 8.501e+03 7.354e-11
  1.40983     26.1 8.558e+03 7.625e-11
  1.44939     28.6 8.657e+03 8.416e-11
  1.48896     30.8 8.776e+03 9.897e-11
  1.52852     32.9 8.900e+03 1.215e-10
  1.56808     35.0 9.039e+03 1.522e-10
  1.59738     36.9 9.223e+03 1.904e-10
  1.61717     37.2 9.165e+03 1.759e-10
  1.64721     38.9 9.360e+03 2.119e-10
  1.68677     40.6 9.546e+03 2.490e-10
  1.72634     42.1 9.720e+03 2.835e-10
  1.76590     43.6 9.847e+03 2.933e-10
  1.80546     45.0 9.846e+03 2.896e-10
  1.84455     46.6 9.811e+03 2.718e-10
  1.86433     47.2 9.589e+03 2.234e-10
  1.88459     48.9 9.537e+03 1.951e-10
  1.92415     50.6 9.481e+03 1.632e-10
  1.96371     52.4 9.435e+03 1.344e-10
  2.00328     54.2 9.402e+03 1.113e-10
  2.04284     56.1 9.384e+03 9.526e-11
  2.08240     58.0 9.371e+03 8.549e-11
  2.11150     59.9 9.389e+03 8.088e-11
  2.13128     60.6 9.302e+03 6.399e-11
  2.16153     62.6 9.299e+03 6.410e-11
  2.18284     64.6 9.300e+03 6.486e-11
  2.20262     65.0 9.225e+03 5.814e-11
  2.24065     67.1 9.240e+03 6.025e-11
  2.28022     69.1 9.273e+03 6.371e-11
  2.31978     71.0 9.330e+03 6.958e-11
  2.35866     72.8 9.422e+03 8.042e-11
  2.37844     73.5 9.306e+03 7.112e-11
  2.39891     75.2 9.419e+03 8.660e-11
  2.43847     76.8 9.609e+03 1.152e-10
  2.47803     78.4 9.895e+03 1.665e-10
  2.51760     80.0 1.023e+04 2.453e-10
  2.55716     81.5 1.053e+04 3.376e-10
  2.59672     82.9 1.069e+04 4.031e-10
  2.62561     84.1 1.069e+04 4.162e-10
  2.64539     85.0 1.063e+04 3.908e-10
  2.67585     86.2 1.067e+04 4.322e-10
  2.71541     87.4 1.077e+04 5.041e-10
  2.75497     88.5 1.108e+04 6.416e-10
  2.79454     89.6 1.156e+04 8.693e-10
  2.83410     90.4 1.189e+04 1.078e-09
  2.87277     90.9 1.190e+04 1.083e-09
  2.89255     91.4 1.257e+04 1.676e-09
  2.91323     91.8 1.234e+04 1.511e-09
  2.95279     92.5 1.169e+04 1.067e-09
  2.99235     93.4 1.085e+04 6.330e-10
  3.03151     94.1 1.000e+04 3.580e-10
  3.05129     94.9 1.058e+04 6.037e-10
  3.07148     95.8 1.000e+04 4.075e-10
  3.11104     96.5 9.635e+03 3.109e-10
  3.13972     97.3 9.437e+03 2.782e-10
  3.15950     97.9 9.428e+03 2.790e-10
  3.19017     98.7 9.379e+03 2.779e-10
  3.22973     99.4 9.366e+03 2.828e-10
  3.26929    100.0 9.374e+03 2.981e-10
  3.30886    100.1 9.402e+03 3.204e-10
  3.34842    100.0 9.455e+03 3.539e-10
  3.38688     99.5 9.581e+03 4.058e-10
  3.40666     99.3 9.524e+03 3.802e-10
  3.42755     98.6 9.732e+03 4.572e-10
  3.46711     97.6 1.002e+04 5.666e-10
  3.50667     96.7 1.033e+04 6.970e-10
  3.54624     96.0 1.059e+04 7.875e-10
  3.58580     95.9 1.060e+04 7.812e-10
  3.62536     95.8 1.052e+04 7.319e-10
  3.65383     96.2 1.036e+04 6.153e-10
  3.67361     95.8 1.013e+04 5.005e-10
  3.70449     96.4 1.008e+04 4.418e-10
  3.74405     97.2 1.015e+04 4.449e-10
  3.77362     97.4 1.028e+04 4.633e-10
  3.78711     97.1 1.051e+04 5.084e-10
  3.79700     96.0 1.050e+04 5.195e-10
  3.81309     95.3 1.073e+04 6.552e-10
  3.83287     94.8 1.099e+04 8.686e-10
  3.85265     94.7 1.128e+04 1.166e-09
  3.87243     94.5 1.173e+04 1.551e-09
  3.89222     94.0 1.251e+04 2.024e-09
  3.90965     92.8 1.361e+04 2.594e-09
  3.91823     90.4 1.512e+04 4.188e-09
  3.92058     88.6 1.563e+04 5.037e-09
  3.93178     86.8 1.600e+04 6.109e-09
  3.95156     85.0 1.590e+04 6.166e-09
  3.97134     83.1 1.568e+04 5.785e-09
  3.99112     80.9 1.534e+04 4.856e-09
  4.01091     78.4 1.490e+04 3.990e-09
  4.03069     75.8 1.428e+04 3.201e-09
  4.04416     73.6 1.355e+04 2.604e-09
  4.05405     72.1 1.286e+04 2.103e-09
  4.07025     70.6 1.237e+04 1.813e-09
  4.09003     69.5 1.214e+04 1.583e-09
  4.10981     68.3 1.202e+04 1.364e-09
  4.12959     67.0 1.176e+04 1.124e-09
  4.14938     65.8 1.134e+04 9.079e-10
  4.16775     64.9 1.084e+04 7.612e-10
  4.17764     64.3 1.073e+04 7.544e-10
  4.18894     64.0 1.047e+04 6.758e-10
  4.20872     64.0 1.027e+04 6.128e-10
  4.22850     64.2 1.012e+04 5.599e-10
  4.24828     64.7 1.000e+04 5.076e-10
  4.26807     65.1 9.919e+03 4.574e-10
  4.29784     65.8 9.808e+03 4.027e-10
  4.33750     67.2 9.775e+03 3.672e-10
  4.37706     68.9 9.775e+03 3.509e-10
  4.41511     70.7 9.821e+03 3.518e-10
  4.43489     69.0 9.934e+03 3.520e-10
  4.44620     70.0 9.879e+03 3.455e-10
  4.46588     70.3 9.982e+03 3.482e-10
  4.48566     70.1 1.029e+04 3.823e-10
  4.50544     69.8 1.075e+04 4.851e-10
  4.52522     69.5 1.117e+04 6.313e-10
  4.54501     69.3 1.154e+04 7.931e-10
  4.55827     69.1 1.186e+04 9.436e-10
  4.56816     67.0 1.240e+04 1.269e-09
  4.58457     66.3 1.251e+04 1.358e-09
  4.60435     65.3 1.260e+04 1.420e-09
  4.62413     64.1 1.272e+04 1.512e-09
  4.64391     62.8 1.309e+04 1.720e-09
  4.66370     61.4 1.371e+04 2.129e-09
  4.68186     60.1 1.454e+04 2.854e-09
  4.69175     58.9 1.441e+04 2.842e-09
  4.70326     57.4 1.562e+04 4.104e-09
  4.72304     56.5 1.675e+04 6.534e-09
  4.73783     56.6 1.744e+04 7.864e-09
  4.74767     55.9 1.841e+04 1.005e-08
  4.75344     54.4 1.958e+04 1.426e-08
  4.75839     53.7 1.918e+04 1.421e-08
  4.76745     52.2 1.958e+04 2.091e-08
  4.77734     51.9 1.972e+04 2.978e-08
  4.78295     52.0 2.003e+04 4.104e-08
  4.78789     52.1 1.995e+04 3.314e-08
  4.79712     52.4 2.041e+04 4.610e-08
  4.80701     52.5 2.092e+04 5.058e-08
  4.81523     52.4 2.092e+04 4.829e-08
  4.82018     52.4 1.995e+04 3.455e-08
  4.82680     52.5 1.992e+04 2.999e-08
  4.83669     52.6 1.970e+04 2.299e-08
  4.84658     52.5 1.940e+04 1.695e-08
  4.86146     51.9 1.952e+04 1.093e-08
  4.88129     48.7 1.979e+04 4.334e-09
  4.90107     42.3 1.788e+04 1.809e-09
  4.92086     36.7 1.339e+04 1.269e-09
  4.93891     35.0 1.219e+04 1.291e-09
  4.94880     34.2 1.259e+04 1.629e-09
  4.96042     34.1 1.248e+04 1.648e-09
  4.98020     34.0 1.249e+04 1.694e-09
  4.99998     34.1 1.244e+04 1.634e-09
  5.01976     34.2 1.225e+04 1.500e-09
  5.03954     34.5 1.195e+04 1.317e-09
  5.05933     34.7 1.166e+04 1.150e-09
  5.07239     35.1 1.138e+04 9.597e-10
  5.08228     34.2 1.126e+04 8.774e-10
  5.09889     34.1 1.110e+04 7.869e-10
  5.12866     35.0 1.082e+04 6.799e-10
  5.16832     36.1 1.049e+04 5.515e-10
  5.19607     36.4 1.016e+04 4.393e-10
  5.21585     35.6 1.006e+04 4.071e-10
  5.24745     37.0 9.710e+03 3.291e-10
  5.28701     38.6 9.531e+03 2.771e-10
  5.32657     40.2 9.514e+03 2.435e-10
  5.36613     41.7 9.680e+03 2.411e-10
  5.40570     43.2 9.973e+03 2.685e-10
  5.44333     44.6 1.035e+04 3.430e-10
  5.46311     43.4 1.053e+04 3.853e-10
  5.47484     44.0 1.070e+04 4.663e-10
  5.49452     44.3 1.087e+04 5.732e-10
  5.51430     44.9 1.101e+04 6.651e-10
  5.53408     45.4 1.108e+04 6.841e-10
  5.55386     46.0 1.107e+04 6.681e-10
  5.57365     46.4 1.103e+04 6.144e-10
  5.58650     46.4 1.089e+04 4.892e-10
  5.59639     46.0 1.081e+04 4.325e-10
  5.61321     45.8 1.072e+04 3.875e-10
  5.63675     46.4 1.046e+04 3.027e-10
  5.65653     45.5 1.054e+04 3.040e-10
  5.68254     46.3 1.020e+04 2.339e-10
  5.71027     47.1 9.749e+03 1.897e-10
  5.73006     46.9 9.722e+03 1.864e-10
  5.76177     48.1 9.695e+03 1.872e-10
  5.80133     49.3 9.772e+03 1.976e-10
  5.84089     50.3 1.001e+04 2.333e-10
  5.88045     50.9 1.025e+04 2.928e-10
  5.92002     51.3 1.062e+04 3.860e-10
  5.94959     51.6 1.079e+04 4.333e-10
  5.96714     51.5 1.087e+04 4.568e-10
  5.97703     51.0 1.112e+04 5.176e-10
  5.98906     49.4 1.168e+04 6.103e-10
  6.00884     43.9 1.382e+04 1.077e-09
  6.02862     36.8 1.668e+04 3.388e-09
  6.04840     32.5 1.757e+04 8.257e-09
  6.06818     30.2 1.730e+04 9.529e-09
  6.08077     29.5 1.677e+04 8.384e-09
  6.09066     29.3 1.680e+04 8.813e-09
  6.10061     29.2 1.570e+04 5.068e-09
  6.11050     28.6 1.595e+04 4.904e-09
  6.12753     25.7 1.455e+04 1.505e-09
  6.14731     17.7 1.110e+04 3.596e-10
  6.16709     15.6 1.029e+04 3.019e-10
  6.19686     13.9 8.772e+03 1.752e-10
  6.22439     13.9 8.429e+03 1.549e-10
  6.24417     14.0 8.420e+03 1.550e-10
  6.27608     14.6 8.315e+03 1.477e-10
  6.31565     15.3 8.264e+03 1.446e-10
  6.35521     16.0 8.282e+03 1.463e-10
  6.39477     16.1 8.379e+03 1.579e-10
  6.43434     16.0 8.677e+03 1.998e-10
  6.47155     15.7 9.144e+03 2.890e-10
  6.49133     15.8 9.160e+03 2.939e-10
  6.50530     15.5 9.594e+03 4.165e-10
  6.52508     16.9 9.722e+03 4.360e-10
  6.54304     16.5 9.996e+03 5.401e-10
  6.56272     16.1 1.004e+04 5.835e-10
  6.58250     16.0 9.998e+03 5.663e-10
  6.60228     15.7 9.857e+03 5.073e-10
  6.61472     15.5 9.654e+03 4.299e-10
  6.62461     15.9 9.611e+03 4.200e-10
  6.64185     15.8 9.572e+03 4.099e-10
  6.67162     15.3 9.443e+03 3.661e-10
  6.71128     15.0 9.420e+03 3.573e-10
  6.73840     14.5 9.422e+03 3.480e-10
  6.75818     14.7 9.396e+03 3.410e-10
  6.78042     13.8 9.514e+03 3.893e-10
  6.80010     13.3 9.632e+03 4.735e-10
  6.81988     13.2 9.821e+03 5.911e-10
  6.83966     13.3 1.001e+04 6.795e-10
  6.85944     13.3 1.023e+04 7.318e-10
  6.87178     13.1 1.052e+04 7.891e-10
  6.88167     13.5 1.028e+04 6.911e-10
  6.89901     12.7 1.066e+04 7.912e-10
  6.91879     11.3 1.143e+04 1.005e-09
  6.93857      9.7 1.238e+04 1.410e-09
  6.94921      8.6 1.297e+04 1.921e-09
  6.95911     10.4 1.269e+04 1.636e-09
  6.97813      9.1 1.342e+04 2.262e-09
  6.99536      6.8 1.502e+04 3.322e-09
  7.00525      6.7 1.550e+04 3.848e-09
  7.01770      0.5 1.914e+04 7.987e-09
  7.03248     -5.4 2.071e+04 1.184e-08
  7.04233     -8.7 2.115e+04 1.616e-08
  7.05222    -10.6 2.097e+04 1.672e-08
  7.06200    -12.6 2.034e+04 1.576e-08
  7.06694    -12.9 2.077e+04 2.095e-08
  7.07200    -13.1 2.001e+04 1.860e-08
  7.08189    -13.3 1.954e+04 1.463e-08
  7.09677    -12.7 1.914e+04 1.063e-08
  7.11660    -15.2 1.888e+04 2.299e-09
  7.14637    -28.0 1.218e+04 3.114e-10
  7.18603    -31.7 9.389e+03 2.334e-10
  7.22560    -31.7 9.386e+03 2.452e-10
  7.25261    -31.9 9.478e+03 2.891e-10
  7.27239    -30.9 9.318e+03 2.627e-10
  7.30472    -30.9 9.317e+03 3.020e-10
  7.34429    -30.5 9.410e+03 3.452e-10
  7.37374    -30.4 9.594e+03 3.639e-10
  7.39352    -30.5 9.309e+03 3.094e-10
  7.42341    -30.6 9.299e+03 3.123e-10
  7.46298    -30.9 9.314e+03 3.339e-10
  7.49977    -30.4 9.248e+03 3.699e-10
  7.51956    -29.7 9.096e+03 3.291e-10
  7.54210    -28.5 8.879e+03 3.016e-10
  7.58166    -26.7 8.649e+03 2.109e-10
  7.62123    -25.6 8.545e+03 1.255e-10
  7.66079    -25.3 8.371e+03 9.961e-11
  7.70035    -24.3 8.259e+03 1.106e-10
  7.73992    -22.4 8.242e+03 1.252e-10
  7.76672    -20.4 8.309e+03 1.264e-10
  7.78650    -19.6 8.232e+03 1.061e-10
  7.81904    -17.6 8.266e+03 9.958e-11
  7.85861    -15.8 8.311e+03 8.501e-11
  7.89817    -14.5 8.296e+03 7.266e-11
  7.93773    -13.1 8.209e+03 6.572e-11
  7.97730    -11.4 8.097e+03 6.029e-11
  8.01389     -9.4 7.999e+03 5.234e-11
  8.03367     -8.6 8.007e+03 5.209e-11
  8.05642     -6.6 7.951e+03 4.185e-11
  8.09598     -4.7 7.956e+03 3.225e-11
  8.13555     -3.2 7.964e+03 2.551e-11
  8.17511     -1.5 7.886e+03 2.348e-11
  8.21467      0.4 7.873e+03 2.364e-11
  8.24219      2.4 7.894e+03 2.487e-11
  8.26197      2.4 7.896e+03 2.823e-11
  8.28083      4.5 7.942e+03 3.210e-11
  8.30061      5.0 7.958e+03 2.975e-11
  8.33336      7.1 8.023e+03 3.344e-11
  8.37293      9.2 8.104e+03 3.781e-11
  8.41249     11.1 8.180e+03 4.398e-11
  8.45205     13.1 8.253e+03 5.257e-11
  8.49161     15.1 8.323e+03 6.329e-11
  8.52800     17.0 8.395e+03 7.558e-11
  8.54778     17.6 8.343e+03 6.365e-11
  8.57074     19.5 8.399e+03 7.358e-11
  8.61030     21.5 8.471e+03 8.446e-11
  8.64987     23.4 8.561e+03 9.590e-11
  8.68943     25.3 8.672e+03 1.056e-10
  8.72899     27.1 8.769e+03 1.163e-10
  8.76856     28.8 8.880e+03 1.273e-10
  8.79494     30.6 8.974e+03 1.350e-10
  8.81472     31.6 8.857e+03 1.130e-10
  8.84768     33.3 8.957e+03 1.169e-10
  8.88724     34.9 9.062e+03 1.192e-10
  8.92681     36.5 9.158e+03 1.210e-10
  8.96637     38.0 9.244e+03 1.235e-10
  9.00593     39.5 9.331e+03 1.271e-10
  9.04211     40.9 9.425e+03 1.318e-10
  9.06189     41.9 9.406e+03 1.301e-10
  9.08506     43.3 9.512e+03 1.367e-10
  9.11064     44.7 9.617e+03 1.451e-10
  9.13042     44.5 9.545e+03 1.401e-10
  9.16419     45.9 9.743e+03 1.703e-10
  9.20375     47.2 1.001e+04 2.210e-10
  9.24331     48.5 1.029e+04 2.895e-10
  9.28288     49.7 1.053e+04 3.671e-10
  9.30905     50.9 1.071e+04 4.467e-10
  9.32884     51.3 1.093e+04 5.594e-10
  9.36200     52.5 1.112e+04 6.773e-10
  9.40156     53.6 1.147e+04 8.678e-10
  9.44113     54.9 1.199e+04 1.162e-09
  9.48069     56.0 1.242e+04 1.434e-09
  9.52025     56.9 1.267e+04 1.555e-09
  9.55622     57.8 1.265e+04 1.515e-09
  9.57600     58.4 1.268e+04 1.526e-09
  9.59938     59.7 1.252e+04 1.377e-09
  9.63894     61.2 1.217e+04 1.113e-09
  9.67851     62.4 1.180e+04 8.923e-10
  9.69949     62.8 1.143e+04 7.517e-10
  9.70928     63.1 1.134e+04 7.014e-10
  9.72776     63.6 1.111e+04 6.308e-10
  9.74755     64.1 1.111e+04 6.316e-10
  9.76733     64.6 1.117e+04 6.509e-10
  9.78711     65.0 1.132e+04 7.055e-10
  9.80689     65.4 1.158e+04 8.024e-10
  9.82297     65.6 1.189e+04 9.477e-10
  9.83286     65.6 1.191e+04 9.398e-10
  9.84645     65.8 1.235e+04 1.123e-09
  9.86623     65.8 1.295e+04 1.388e-09
  9.88602     65.6 1.369e+04 1.742e-09
  9.90580     65.2 1.460e+04 2.248e-09
  9.92558     64.7 1.558e+04 2.989e-09
  9.94536     64.3 1.632e+04 3.954e-09
  9.95644     64.2 1.665e+04 5.033e-09
  9.96633     64.0 1.651e+04 5.740e-09
  9.97889     64.5 1.650e+04 6.647e-09
  9.98878     65.8 1.490e+04 2.451e-09
 10.00471     65.8 1.504e+04 2.675e-09
 10.02449     66.0 1.509e+04 2.746e-09
 10.04427     66.4 1.487e+04 2.775e-09
 10.06405     67.0 1.453e+04 2.801e-09
 10.08003     67.5 1.437e+04 2.869e-09
 10.08992     67.8 1.388e+04 2.681e-09
 10.10361     68.3 1.382e+04 2.727e-09
 10.12339     68.9 1.377e+04 2.799e-09
 10.14318     69.5 1.374e+04 2.801e-09
 10.16296     70.2 1.367e+04 2.739e-09
 10.18274     71.0 1.352e+04 2.540e-09
 10.20252     71.9 1.330e+04 2.243e-09
 10.21350     72.8 1.305e+04 1.928e-09
 10.22339     73.0 1.274e+04 1.718e-09
 10.24208     74.0 1.259e+04 1.549e-09
 10.26187     74.9 1.248e+04 1.420e-09
 10.28165     75.7 1.240e+04 1.331e-09
 10.30143     76.5 1.236e+04 1.302e-09
 10.32121     77.4 1.239e+04 1.318e-09
 10.33708     78.1 1.246e+04 1.364e-09
 10.34697     78.6 1.246e+04 1.553e-09
 10.36077     79.3 1.261e+04 1.696e-09
 10.38055     80.1 1.279e+04 1.895e-09
 10.40034     80.8 1.298e+04 2.140e-09
 10.41311     81.5 1.315e+04 2.388e-09
 10.42300     81.4 1.257e+04 1.593e-09
 10.43990     82.1 1.268e+04 1.764e-09
 10.45968     82.7 1.278e+04 1.858e-09
 10.47055     83.2 1.283e+04 1.870e-09
 10.48045     83.6 1.338e+04 2.529e-09
 10.49924     83.9 1.340e+04 2.528e-09
 10.51902     84.0 1.341e+04 2.518e-09
 10.53881     84.0 1.342e+04 2.518e-09
 10.55859     84.0 1.346e+04 2.552e-09
 10.57837     83.8 1.351e+04 2.627e-09
 10.59414     83.5 1.354e+04 2.674e-09
 10.60403     84.1 1.391e+04 3.056e-09
 10.61793     84.1 1.375e+04 2.798e-09
 10.63771     84.1 1.353e+04 2.507e-09
 10.65750     84.2 1.333e+04 2.125e-09
 10.67728     84.3 1.316e+04 1.755e-09
 10.69706     84.1 1.299e+04 1.475e-09
 10.71684     83.9 1.291e+04 1.404e-09
 10.72761     83.3 1.303e+04 1.449e-09
 10.73750     83.9 1.206e+04 9.063e-10
 10.75640     83.4 1.223e+04 9.771e-10
 10.77618     82.1 1.301e+04 1.338e-09
 10.79597     80.4 1.457e+04 2.500e-09
 10.81575     79.1 1.611e+04 5.227e-09
 10.83553     78.8 1.730e+04 9.841e-09
 10.84734     79.0 1.813e+04 1.372e-08
 10.85311     79.1 1.799e+04 1.347e-08
 10.86108     80.0 1.716e+04 9.759e-09
 10.87509     80.3 1.792e+04 1.331e-08
 10.89487     80.5 1.801e+04 1.322e-08
 10.91466     80.7 1.774e+04 1.170e-08
 10.93444     81.0 1.713e+04 8.218e-09
 10.95422     81.3 1.612e+04 4.291e-09
 10.97400     81.0 1.469e+04 1.836e-09
 10.98467     79.7 1.277e+04 7.321e-10
 10.99456     82.0 1.456e+04 1.887e-09
 11.02355     79.2 1.204e+04 5.131e-10
 11.06321     78.1 1.056e+04 3.134e-10
 11.09855     78.5 1.033e+04 2.889e-10
 11.11833     81.3 1.070e+04 3.852e-10
 11.14234     81.5 1.023e+04 2.963e-10
 11.18190     82.4 1.010e+04 2.702e-10
 11.22146     84.0 9.945e+03 2.591e-10
 11.26103     85.9 9.829e+03 2.548e-10
 11.30059     88.2 9.812e+03 2.578e-10
 11.34015     90.5 9.822e+03 2.733e-10
 11.36550     92.7 9.968e+03 3.128e-10
 11.38528     94.1 9.940e+03 2.925e-10
 11.41928     96.0 1.015e+04 3.416e-10
 11.45884     97.8 1.045e+04 4.104e-10
 11.48842     98.5 1.069e+04 4.866e-10
 11.49878     99.1 1.094e+04 5.658e-10
 11.50867     99.7 1.086e+04 5.403e-10
 11.52788    100.3 1.121e+04 6.460e-10
 11.54766    100.3 1.161e+04 8.139e-10
 11.56745    100.2 1.210e+04 1.087e-09
 11.58723    100.1 1.266e+04 1.547e-09
 11.60701    100.2 1.331e+04 2.257e-09
 11.62236    100.5 1.397e+04 3.167e-09
 11.63225    100.8 1.395e+04 3.228e-09
 11.64657    101.2 1.457e+04 4.025e-09
 11.66635    101.2 1.487e+04 4.163e-09
 11.68613    101.0 1.487e+04 4.090e-09
 11.70589    100.5 1.475e+04 3.776e-09
 11.72567     99.4 1.415e+04 2.619e-09
 11.74548     98.5 1.413e+04 2.593e-09
 11.75583     97.5 1.418e+04 2.687e-09
 11.76572     97.7 1.397e+04 2.701e-09
 11.78504     96.7 1.436e+04 3.177e-09
 11.80482     95.7 1.466e+04 3.653e-09
 11.82461     94.6 1.467e+04 3.675e-09
 11.84439     93.4 1.453e+04 3.471e-09
 11.86417     92.3 1.412e+04 2.778e-09
 11.87942     90.8 1.354e+04 1.913e-09
 11.88931     91.1 1.393e+04 1.988e-09
 11.90373     88.5 1.315e+04 1.232e-09
 11.92351     85.4 1.220e+04 8.189e-10
 11.94329     82.7 1.133e+04 6.927e-10
 11.96308     81.2 1.106e+04 6.643e-10
 11.98286     80.5 1.100e+04 6.490e-10
 12.00264     80.1 1.097e+04 6.266e-10
 12.01289     79.8 1.091e+04 5.887e-10
 12.02278     80.4 1.094e+04 6.097e-10
 12.04220     80.2 1.084e+04 5.437e-10
 12.06198     79.9 1.076e+04 4.794e-10
 12.08176     79.5 1.073e+04 4.284e-10
 12.10155     79.1 1.078e+04 3.991e-10
 12.12133     78.6 1.085e+04 3.902e-10
 12.13647     78.2 1.089e+04 3.997e-10
 12.14537     78.9 1.096e+04 4.381e-10
 12.15001     78.9 1.089e+04 4.251e-10
 12.16089     78.7 1.104e+04 4.725e-10
 12.18067     78.6 1.119e+04 5.154e-10
 12.21044     79.1 1.138e+04 5.786e-10
 12.25010     78.4 1.132e+04 5.587e-10
 12.28967     77.6 1.113e+04 5.408e-10
 12.32923     76.8 1.089e+04 5.544e-10
 12.36879     76.6 1.071e+04 5.816e-10
 12.39372     77.0 1.062e+04 5.700e-10
 12.41350     79.2 1.062e+04 5.563e-10
 12.44792     79.6 1.036e+04 4.919e-10
 12.48748     80.5 1.017e+04 4.367e-10
 12.52704     81.6 1.015e+04 4.199e-10
 12.56464     82.9 1.018e+04 4.279e-10
 12.58442     83.6 1.010e+04 4.111e-10
 12.60617     85.2 1.031e+04 4.845e-10
 12.64089     86.6 1.054e+04 5.657e-10
 12.66067     88.5 1.029e+04 4.738e-10
 12.68530     89.8 1.046e+04 5.089e-10
 12.72486     90.7 1.052e+04 5.216e-10
 12.76442     91.3 1.057e+04 5.455e-10
 12.80399     91.7 1.068e+04 6.011e-10
 12.84355     91.9 1.076e+04 6.373e-10
 12.88311     92.1 1.073e+04 6.221e-10
 12.90783     92.4 1.055e+04 5.080e-10
 12.92762     93.9 1.011e+04 3.764e-10
 12.96224     93.9 9.954e+03 3.038e-10
 13.00180     93.3 9.708e+03 2.335e-10
 13.04136     92.4 9.597e+03 2.238e-10
 13.08093     91.5 9.593e+03 2.351e-10
 13.12049     90.9 9.692e+03 2.740e-10
 13.15500     90.3 9.835e+03 3.087e-10
 13.17478     91.1 1.008e+04 3.901e-10
 13.19962     90.3 1.029e+04 4.382e-10
 13.23918     89.7 1.040e+04 4.484e-10
 13.27874     88.6 1.070e+04 4.815e-10
 13.31830     86.0 1.167e+04 6.633e-10
 13.34788     83.8 1.225e+04 8.841e-10
 13.36756     81.8 1.281e+04 1.239e-09
 13.38734     79.8 1.330e+04 1.676e-09
 13.40713     78.0 1.345e+04 1.925e-09
 13.42175     76.1 1.341e+04 1.896e-09
 13.43164     76.8 1.468e+04 2.662e-09
 13.44279     74.9 1.424e+04 2.136e-09
 13.45268     73.8 1.266e+04 1.512e-09
 13.46647     71.8 1.222e+04 1.221e-09
 13.48625     70.3 1.191e+04 9.856e-10
 13.51602     67.7 1.128e+04 5.826e-10
 13.55568     65.4 1.108e+04 3.780e-10
 13.59525     64.4 1.113e+04 3.075e-10
 13.63481     63.7 1.147e+04 3.355e-10
 13.66911     62.9 1.264e+04 4.647e-10
 13.68879     60.5 1.391e+04 1.742e-09
 13.70385     59.9 1.432e+04 2.596e-09
 13.72363     59.3 1.466e+04 3.717e-09
 13.74341     58.5 1.510e+04 4.891e-09
 13.76319     57.5 1.559e+04 5.868e-09
 13.78298     56.3 1.596e+04 6.387e-09
 13.80239     55.3 1.614e+04 6.097e-09
 13.81228     54.6 1.732e+04 7.225e-09
 13.82254     54.2 1.685e+04 5.291e-09
 13.84232     53.6 1.610e+04 3.407e-09
 13.86210     52.6 1.492e+04 2.067e-09
 13.87701     51.4 1.357e+04 1.281e-09
 13.88690     52.7 1.605e+04 2.515e-09
 13.90166     51.1 1.522e+04 1.597e-09
 13.92145     49.8 1.402e+04 1.150e-09
 13.93586     49.6 1.318e+04 1.012e-09
 13.94575     48.8 1.280e+04 9.076e-10
 13.96101     49.5 1.283e+04 9.191e-10
 13.98079     50.0 1.288e+04 9.633e-10
 14.00057     50.7 1.288e+04 1.022e-09
 14.02035     51.5 1.277e+04 1.073e-09
 14.04014     52.4 1.260e+04 1.114e-09
 14.05944     53.2 1.253e+04 1.155e-09
 14.06933     52.9 1.280e+04 1.182e-09
 14.07970     53.7 1.284e+04 1.248e-09
 14.09948     54.6 1.284e+04 1.314e-09
 14.11926     55.4 1.281e+04 1.384e-09
 14.13904     56.3 1.276e+04 1.449e-09
 14.15882     57.2 1.275e+04 1.493e-09
 14.17861     58.0 1.262e+04 1.548e-09
 14.19292     58.8 1.257e+04 1.556e-09
 14.20281     58.6 1.256e+04 1.542e-09
 14.21817     59.5 1.245e+04 1.536e-09
 14.23795     60.4 1.227e+04 1.492e-09
 14.25773     61.3 1.208e+04 1.414e-09
 14.27751     62.2 1.190e+04 1.316e-09
 14.29729     63.0 1.172e+04 1.213e-09
 14.31123     63.6 1.157e+04 1.134e-09
 14.32055     64.3 1.271e+04 1.421e-09
 14.32639     64.3 1.280e+04 1.561e-09
 14.33686     64.8 1.284e+04 1.400e-09
 14.35664     65.1 1.274e+04 1.355e-09
 14.37642     65.6 1.268e+04 1.358e-09
 14.39620     66.1 1.265e+04 1.377e-09
 14.41598     66.8 1.256e+04 1.396e-09
 14.43577     67.5 1.249e+04 1.390e-09
 14.44997     68.4 1.233e+04 1.337e-09
 14.46985     68.7 1.241e+04 1.364e-09
 14.50520     70.1 1.221e+04 1.307e-09
 14.53477     70.7 1.212e+04 1.281e-09
 14.55445     71.1 1.210e+04 1.289e-09
 14.57355     71.5 1.210e+04 1.323e-09
 14.58345     71.6 1.212e+04 1.384e-09
 14.59402     72.2 1.215e+04 1.456e-09
 14.61380     72.8 1.219e+04 1.531e-09
 14.63358     73.4 1.221e+04 1.603e-09
 14.65336     74.0 1.221e+04 1.636e-09
 14.67314     74.6 1.219e+04 1.630e-09
 14.69293     75.2 1.208e+04 1.590e-09
 14.70703     75.8 1.187e+04 1.487e-09
 14.71692     76.0 1.192e+04 1.522e-09
 14.73249     76.7 1.169e+04 1.386e-09
 14.74546     77.4 1.145e+04 1.236e-09
 14.75535     77.6 1.125e+04 1.014e-09
 14.77205     78.3 1.102e+04 8.580e-10
 14.79183     78.9 1.084e+04 7.369e-10
 14.81161     79.5 1.067e+04 6.396e-10
 14.83061     80.2 1.054e+04 5.675e-10
 14.84050     80.3 1.051e+04 5.685e-10
 14.85118     81.0 1.036e+04 5.132e-10
 14.87096     81.7 1.022e+04 4.625e-10
 14.90073     82.9 1.022e+04 4.885e-10
 14.94039     84.7 1.003e+04 4.451e-10
 14.96428     86.6 9.930e+03 4.077e-10
 14.98406     86.9 9.773e+03 3.308e-10
 15.01952     89.0 9.811e+03 3.264e-10
 15.05908     91.1 9.933e+03 3.349e-10
 15.09864     92.6 1.006e+04 3.529e-10
 15.12822     93.7 1.012e+04 3.591e-10
 15.14790     94.8 1.029e+04 4.049e-10
 15.16768     95.8 1.062e+04 5.094e-10
 15.17968     96.7 1.109e+04 6.668e-10
 15.18957     97.0 1.056e+04 6.237e-10
 15.20724     97.9 1.102e+04 8.421e-10
 15.22114     98.5 1.157e+04 1.160e-09
 15.23103     98.8 1.134e+04 9.852e-10
 15.24681     99.5 1.187e+04 1.357e-09
 15.26659    100.2 1.245e+04 1.873e-09
 15.28637    100.7 1.309e+04 2.593e-09
 15.30615    100.9 1.376e+04 3.573e-09
 15.32593    101.0 1.444e+04 4.897e-09
 15.34472    101.1 1.513e+04 6.720e-09
 15.35461    101.7 1.484e+04 6.332e-09
 15.36550    102.1 1.577e+04 9.165e-09
 15.38528    102.6 1.687e+04 1.300e-08
 15.40506    102.6 1.780e+04 1.505e-08
 15.42484    102.1 1.789e+04 1.443e-08
 15.44462    101.9 1.757e+04 1.115e-08
 15.46440    101.7 1.664e+04 6.563e-09
 15.47820    100.8 1.520e+04 3.207e-09
 15.48809    100.9 1.716e+04 5.806e-09
 15.50397     98.9 1.535e+04 2.858e-09
 15.52375     96.4 1.323e+04 1.599e-09
 15.54353     95.2 1.188e+04 1.176e-09
 15.56331     95.4 1.153e+04 1.091e-09
 15.58309     96.1 1.148e+04 1.086e-09
 15.60178     97.0 1.151e+04 1.108e-09
 15.61167     97.0 1.237e+04 1.474e-09
 15.61390     98.0 1.232e+04 1.475e-09
 15.62379     98.0 1.285e+04 2.060e-09
 15.64244     99.2 1.290e+04 2.071e-09
 15.66222    100.2 1.289e+04 2.046e-09
 15.68200    101.1 1.283e+04 1.956e-09
 15.70178    101.9 1.266e+04 1.829e-09
 15.72546    103.1 1.186e+04 1.316e-09
 15.74534    102.9 1.182e+04 1.305e-09
 15.77121    104.7 1.120e+04 1.013e-09
 15.81078    106.4 1.062e+04 7.601e-10
 15.85034    107.9 1.014e+04 5.714e-10
 15.88990    109.3 9.774e+03 4.450e-10
 15.92947    110.5 9.478e+03 3.631e-10
 15.96903    111.8 9.209e+03 3.105e-10
 15.99250    113.1 9.056e+03 2.923e-10
 16.01228    113.3 9.146e+03 3.217e-10
 16.03843    114.6 9.117e+03 3.142e-10
 16.05821    115.1 8.924e+03 3.083e-10
 16.08772    116.2 9.024e+03 3.139e-10
 16.12728    117.0 9.184e+03 3.266e-10
 16.15686    117.0 9.251e+03 3.347e-10
 16.17654    117.1 9.307e+03 3.407e-10
 16.19632    117.1 9.362e+03 3.481e-10
 16.21610    117.0 9.457e+03 3.608e-10
 16.23588    116.8 9.658e+03 3.859e-10
 16.24936    116.2 1.005e+04 4.378e-10
 16.25925    115.5 1.051e+04 5.248e-10
 16.27545    114.5 1.102e+04 6.643e-10
 16.29523    113.5 1.142e+04 8.895e-10
 16.31501    112.6 1.177e+04 1.236e-09
 16.33479    111.9 1.229e+04 1.766e-09
 16.35457    111.2 1.308e+04 2.568e-09
 16.37294    110.4 1.406e+04 3.733e-09
 16.38284    110.4 1.462e+04 4.119e-09
 16.39414    109.3 1.583e+04 5.778e-09
 16.41392    108.1 1.643e+04 7.550e-09
 16.43370    106.7 1.649e+04 8.364e-09
 16.44458    106.0 1.638e+04 8.381e-09
 16.44947    105.9 1.640e+04 8.174e-09
 16.45833    105.3 1.628e+04 7.856e-09
 16.46822    104.5 1.620e+04 7.665e-09
 16.47731    103.6 1.624e+04 7.709e-09
 16.48225    102.6 1.634e+04 5.160e-09
 16.48800    101.1 1.674e+04 6.036e-09
 16.49789     98.8 1.769e+04 7.655e-09
 16.50632     95.7 1.920e+04 1.096e-08
 16.51127     94.2 1.987e+04 1.164e-08
 16.51767     91.3 2.101e+04 1.902e-08
 16.52756     89.1 2.171e+04 3.292e-08
 16.53745     87.9 2.200e+04 5.309e-08
 16.54734     86.9 2.178e+04 6.542e-08
 16.55724     85.8 2.168e+04 6.459e-08
 16.56713     85.1 2.138e+04 5.581e-08
 16.57306     84.8 2.098e+04 3.745e-08
 16.57800     84.3 2.181e+04 2.989e-08
 16.58691     83.3 2.117e+04 1.624e-08
 16.59680     81.9 2.029e+04 9.436e-09
 16.61168     78.3 1.768e+04 3.500e-09
 16.63000     70.1 1.195e+04 1.041e-09
 16.63989     68.8 1.148e+04 1.006e-09
 16.65130     67.0 1.049e+04 7.807e-10
 16.67108     67.3 1.029e+04 7.599e-10
 16.69086     68.1 1.029e+04 7.632e-10
 16.71064     68.9 1.037e+04 7.826e-10
 16.73042     69.5 1.057e+04 8.438e-10
 16.75020     70.1 1.080e+04 9.385e-10
 16.76347     70.8 1.102e+04 1.058e-09
 16.77336     70.9 1.120e+04 1.129e-09
 16.79975     71.1 1.164e+04 1.308e-09
 16.83942     72.5 1.166e+04 1.241e-09
 16.87898     74.2 1.146e+04 1.025e-09
 16.90688     75.4 1.098e+04 6.191e-10
 16.91667     76.9 1.196e+04 1.279e-09
 16.92824     77.6 1.183e+04 1.101e-09
 16.94802     78.0 1.173e+04 8.664e-10
 16.96780     78.1 1.145e+04 6.693e-10
 16.98758     78.0 1.094e+04 4.841e-10
 17.00736     77.7 1.025e+04 3.520e-10
 17.02053     77.4 9.497e+03 2.827e-10
 17.03042     78.3 1.067e+04 4.114e-10
 17.04693     78.3 9.907e+03 3.298e-10
 17.06671     78.6 9.278e+03 2.927e-10
 17.08649     79.4 8.961e+03 2.902e-10
 17.10627     80.5 8.946e+03 3.018e-10
 17.12605     81.9 9.087e+03 3.304e-10
 17.14411     83.4 9.296e+03 3.751e-10
 17.15400     83.7 9.575e+03 3.941e-10
 17.16561     85.1 9.658e+03 4.444e-10
 17.18540     86.8 9.850e+03 5.165e-10
 17.20518     88.5 1.023e+04 6.158e-10
 17.22496     89.7 1.114e+04 7.996e-10
 17.24474     89.7 1.269e+04 1.182e-09
 17.26452     90.3 1.491e+04 2.199e-09
 17.27754     91.0 1.545e+04 2.587e-09
 17.28243     91.4 1.546e+04 2.371e-09
 17.28915     91.8 1.589e+04 2.825e-09
 17.29904     92.2 1.618e+04 3.429e-09
 17.30893     92.5 1.642e+04 4.218e-09
 17.31882     92.7 1.667e+04 5.318e-09
 17.32871     93.1 1.707e+04 6.530e-09
 17.33861     93.7 1.739e+04 7.798e-09
 17.34422     94.7 1.772e+04 8.868e-09
 17.34643     94.9 1.757e+04 8.458e-09
 17.35070     96.1 1.809e+04 8.243e-09
 17.35839     97.0 1.828e+04 9.679e-09
 17.36828     98.2 1.853e+04 1.065e-08
 17.37817     99.4 1.864e+04 1.067e-08
 17.38806    100.4 1.863e+04 1.015e-08
 17.39795    101.2 1.838e+04 8.724e-09
 17.40602    101.9 1.812e+04 6.847e-09
 17.41096    101.8 2.255e+04 8.850e-09
 17.41773    102.0 2.556e+04 7.131e-09
 17.42762    101.3 3.161e+04 4.681e-09
 17.43751     98.7 4.360e+04 2.905e-09
 17.44740     94.3 5.078e+04 3.320e-09
 17.45729     90.9 4.881e+04 5.078e-09
 17.46719     88.1 4.707e+04 5.830e-09
 17.47275     84.2 4.469e+04 6.815e-09
 17.47770     83.9 4.067e+04 1.258e-08
 17.48697     79.1 3.910e+04 1.397e-08
 17.49686     74.9 3.624e+04 1.969e-08
 17.50675     73.0 3.432e+04 3.176e-08
 17.51664     72.7 3.334e+04 4.807e-08
 17.52653     73.1 3.279e+04 6.147e-08
 17.53454     74.4 3.308e+04 6.885e-08
 17.53949     75.3 2.797e+04 9.977e-08
 17.54631     75.6 2.863e+04 1.138e-07
 17.55620     75.2 2.903e+04 1.492e-07
 17.56287     73.3 2.896e+04 1.928e-07
 17.56531     73.5 2.455e+04 5.579e-07
 17.56786     71.8 2.460e+04 5.682e-07
 17.57034     72.3 2.370e+04 5.808e-07
 17.57346     70.6 2.422e+04 5.704e-07
 17.57841     69.6 2.435e+04 5.357e-07
 17.58335     69.7 2.464e+04 4.781e-07
 17.58830     70.0 2.464e+04 4.464e-07
 17.59324     70.7 2.543e+04 3.928e-07
 17.59819     71.3 2.598e+04 3.657e-07
 17.60123     72.1 2.683e+04 3.386e-07
 17.60370     71.6 2.399e+04 5.177e-07
 17.60808     71.8 2.405e+04 5.782e-07
 17.61303     72.0 2.393e+04 6.811e-07
 17.61797     72.1 2.410e+04 7.747e-07
 17.62292     71.8 2.442e+04 7.268e-07
 17.62786     71.5 2.485e+04 6.396e-07
 17.63213     71.9 2.555e+04 5.218e-07
 17.63460     71.2 2.386e+04 8.077e-07
 17.63775     71.8 2.417e+04 7.085e-07
 17.64270     72.9 2.468e+04 6.155e-07
 17.64764     73.9 2.507e+04 5.607e-07
 17.65259     75.0 2.566e+04 5.070e-07
 17.65753     75.7 2.603e+04 4.716e-07
 17.66248     76.6 2.614e+04 4.506e-07
 17.66549     77.3 2.635e+04 4.269e-07
 17.66797     77.1 2.339e+04 8.011e-07
 17.67137     78.0 2.339e+04 8.551e-07
 17.67384     77.4 2.080e+04 2.226e-06
 17.67732     78.0 2.044e+04 2.647e-06
 17.68226     78.7 2.026e+04 3.026e-06
 17.68721     79.5 2.012e+04 3.277e-06
 17.69215     80.2 2.013e+04 3.439e-06
 17.69639     80.4 2.029e+04 3.353e-06
 17.69886     80.3 1.894e+04 6.540e-06
 17.70204     79.6 1.898e+04 6.553e-06
 17.70699     79.6 1.924e+04 5.598e-06
 17.71193     80.1 1.980e+04 4.213e-06
 17.71688     80.5 2.032e+04 3.470e-06
 17.72182     80.6 2.036e+04 3.517e-06
 17.72677     80.3 2.010e+04 3.985e-06
 17.72976     79.9 1.998e+04 4.036e-06
 17.73223     83.6 1.840e+04 1.015e-05
 17.73666     83.1 1.843e+04 9.855e-06
 17.74161     82.4 1.885e+04 7.597e-06
 17.74655     81.7 2.030e+04 4.018e-06
 17.75150     79.6 2.379e+04 1.546e-06
 17.75644     75.9 2.880e+04 5.640e-07
 17.76065     71.1 3.408e+04 2.505e-07
 17.76313     69.2 2.530e+04 1.968e-06
 17.76633     64.6 2.493e+04 1.603e-06
 17.77377     64.3 3.071e+04 3.226e-07
 17.77998     64.2 3.264e+04 1.326e-07
 17.78492     64.5 2.613e+04 3.017e-07
 17.79160     65.6 2.715e+04 1.868e-07
 17.79654     64.5 2.358e+04 4.754e-07
 17.80347     66.6 2.421e+04 3.035e-07
 17.81336     68.6 2.497e+04 1.957e-07
 17.82325     70.2 2.627e+04 1.260e-07
 17.83314     71.5 2.816e+04 8.319e-08
 17.84303     72.6 3.011e+04 5.705e-08
 17.85293     73.8 3.153e+04 3.959e-08
 17.85834     75.0 3.214e+04 2.736e-08
 17.86328     77.0 2.868e+04 6.734e-08
 17.87271     78.1 3.016e+04 4.460e-08
 17.88260     79.0 3.141e+04 2.906e-08
 17.89249     79.5 3.220e+04 1.889e-08
 17.90238     79.9 3.167e+04 1.289e-08
 17.91227     79.9 3.024e+04 9.371e-09
 17.92013     79.8 2.743e+04 7.344e-09
 17.92507     82.9 3.139e+04 1.249e-08
 17.93205     82.7 2.912e+04 8.803e-09
 17.94194     82.4 2.643e+04 6.788e-09
 17.95183     82.1 2.482e+04 5.800e-09
 17.96172     82.1 2.363e+04 5.177e-09
 17.97161     81.9 2.383e+04 4.570e-09
 17.98150     82.1 2.380e+04 3.968e-09
 17.98686     82.0 2.440e+04 3.234e-09
 17.99181     83.4 2.815e+04 4.366e-09
 17.99709     83.6 2.623e+04 3.945e-09
 18.00203     85.2 3.116e+04 7.194e-09
 18.01617     83.7 2.185e+04 4.406e-09
 18.03600     82.7 1.708e+04 4.790e-09
 18.04875     81.0 1.683e+04 5.542e-09
 18.05864     83.2 1.838e+04 6.972e-09
 18.07556     81.3 1.765e+04 9.188e-09
 18.09535     80.6 1.896e+04 1.509e-08
 18.11013     80.8 1.967e+04 1.902e-08
 18.11539     80.9 2.031e+04 2.236e-08
 18.12034     81.0 2.032e+04 2.230e-08
 18.12987     80.8 2.104e+04 2.604e-08
 18.13976     80.0 2.143e+04 2.809e-08
 18.14965     79.6 2.156e+04 2.812e-08
 18.15954     79.8 2.171e+04 2.827e-08
 18.16943     80.0 2.219e+04 2.930e-08
 18.17718     79.1 2.395e+04 3.509e-08
 18.18213     79.1 2.423e+04 2.928e-08
 18.18921     71.8 2.978e+04 5.763e-08
 18.19910     61.0 2.724e+04 3.337e-07
 18.20650     55.1 2.497e+04 1.117e-06
 18.21050     50.3 2.276e+04 2.426e-06
 18.21297     50.5 2.682e+04 6.862e-07
 18.21415     45.7 2.729e+04 6.812e-07
 18.21662     46.0 2.618e+04 5.507e-07
 18.22131     42.9 2.596e+04 5.021e-07
 18.22875     42.0 2.403e+04 4.977e-07
 18.23866     42.3 2.380e+04 1.908e-07
 18.24392     41.1 2.814e+04 3.807e-08
 18.24886     38.3 2.893e+04 1.927e-08
 18.25845     34.6 3.351e+04 5.500e-09
 18.27333     21.8 2.949e+04 1.272e-09
 18.29316      8.0 1.248e+04 7.876e-10
 18.30581      8.0 1.135e+04 7.099e-10
 18.31570      7.5 1.119e+04 6.304e-10
 18.33272      8.5 1.092e+04 6.360e-10
 18.35251      9.6 1.074e+04 6.377e-10
 18.37229     10.9 1.046e+04 6.162e-10
 18.39207     12.6 1.032e+04 5.863e-10
 18.41185     13.9 1.019e+04 5.364e-10
 18.42939     15.0 1.016e+04 4.947e-10
 18.43928     14.4 1.002e+04 3.991e-10
 18.45141     15.7 9.811e+03 3.416e-10
 18.47120     16.2 9.872e+03 3.187e-10
 18.49098     17.3 9.853e+03 3.046e-10
 18.51076     18.0 9.897e+03 3.089e-10
 18.53054     18.6 1.006e+04 3.339e-10
 18.55032     19.1 1.011e+04 3.515e-10
 18.56286     19.2 1.017e+04 3.962e-10
 18.57275     18.3 9.917e+03 3.249e-10
 18.58988     19.0 1.001e+04 4.066e-10
 18.60967     20.0 1.017e+04 5.277e-10
 18.62945     21.2 1.044e+04 6.790e-10
 18.64358     22.4 1.071e+04 8.287e-10
 18.65347     23.0 1.069e+04 8.078e-10
 18.66901     24.4 1.095e+04 9.444e-10
 18.68645     25.6 1.110e+04 9.844e-10
 18.69634     25.3 1.117e+04 1.026e-09
 18.70857     26.5 1.119e+04 1.015e-09
 18.72835     27.7 1.113e+04 9.498e-10
 18.74814     28.7 1.100e+04 8.440e-10
 18.76792     29.2 1.086e+04 7.381e-10
 18.78770     29.3 1.103e+04 7.113e-10
 18.80748     28.4 1.157e+04 7.886e-10
 18.81992     27.1 1.234e+04 1.007e-09
 18.82981     25.7 1.299e+04 1.568e-09
 18.84704     26.3 1.292e+04 1.948e-09
 18.86683     27.5 1.301e+04 2.252e-09
 18.88661     28.7 1.315e+04 2.397e-09
 18.90639     29.8 1.326e+04 2.353e-09
 18.92617     30.4 1.326e+04 2.171e-09
 18.94350     30.6 1.309e+04 1.886e-09
 18.95339     31.6 1.286e+04 1.679e-09
 18.96573     31.5 1.232e+04 1.250e-09
 18.98551     30.9 1.173e+04 9.379e-10
 19.00530     30.1 1.121e+04 7.270e-10
 19.02508     29.1 1.096e+04 6.200e-10
 19.04486     27.8 1.115e+04 6.520e-10
 19.06464     24.7 1.236e+04 8.963e-10
 19.07697     21.4 1.504e+04 1.703e-09
 19.08024     26.0 1.133e+04 6.787e-10
 19.08769     25.1 1.345e+04 9.744e-10
 19.10420     20.8 1.692e+04 2.227e-09
 19.12399     14.6 2.155e+04 6.571e-09
 19.13872      8.5 2.431e+04 1.496e-08
 19.14361      9.9 2.346e+04 1.174e-08
 19.14861      5.9 2.560e+04 1.799e-08
 19.15851      1.7 2.439e+04 3.996e-08
 19.16840     -0.9 2.354e+04 5.415e-08
 19.17829     -4.5 2.325e+04 5.909e-08
 19.18818     -9.9 2.590e+04 4.641e-08
 19.19807    -18.6 3.154e+04 2.908e-08
 19.20540    -29.7 3.823e+04 1.526e-08
 19.21035    -28.6 3.817e+04 2.673e-08
 19.21785    -40.6 4.054e+04 1.298e-08
 19.22774    -51.7 3.453e+04 7.859e-09
 19.24263    -65.5 2.021e+04 5.216e-09
 19.26246    -72.5 1.515e+04 3.790e-09
 19.28224    -74.8 1.467e+04 2.704e-09
 19.30202    -76.9 1.356e+04 1.969e-09
 19.32180    -77.8 1.277e+04 1.605e-09
 19.33403    -78.0 1.235e+04 1.400e-09
 19.34392    -79.8 1.258e+04 1.493e-09
 19.36136    -78.8 1.238e+04 1.385e-09
 19.38114    -77.8 1.227e+04 1.310e-09
 19.40093    -76.8 1.221e+04 1.259e-09
 19.42071    -75.9 1.217e+04 1.238e-09
 19.44049    -74.8 1.216e+04 1.235e-09
 19.45761    -73.9 1.222e+04 1.268e-09
 19.46750    -74.6 1.257e+04 1.445e-09
 19.48005    -73.7 1.270e+04 1.517e-09
 19.49983    -73.1 1.290e+04 1.658e-09
 19.51202    -72.6 1.306e+04 1.821e-09
 19.53190    -71.6 1.258e+04 1.451e-09
 19.55928    -71.0 1.296e+04 1.786e-09
 19.57896    -70.5 1.296e+04 1.799e-09
 19.59109    -70.2 1.292e+04 1.783e-09
 19.60098    -70.8 1.385e+04 2.500e-09
 19.61852    -70.5 1.368e+04 2.304e-09
 19.63830    -70.5 1.352e+04 2.128e-09
 19.65809    -71.1 1.352e+04 2.099e-09
 19.67787    -73.1 1.414e+04 2.288e-09
 19.69765    -75.6 1.515e+04 3.176e-09
 19.71467    -76.7 1.590e+04 4.647e-09
 19.72456    -78.0 1.598e+04 5.077e-09
 19.73721    -78.1 1.614e+04 5.883e-09
 19.75699    -78.2 1.607e+04 6.002e-09
 19.77678    -77.6 1.541e+04 4.966e-09
 19.79656    -77.1 1.438e+04 3.086e-09
 19.81634    -77.5 1.309e+04 1.702e-09
 19.83612    -79.4 1.174e+04 9.733e-10
 19.84814    -80.5 1.071e+04 6.582e-10
 19.85803    -81.0 1.066e+04 6.139e-10
 19.87568    -81.2 1.025e+04 5.126e-10
 19.89546    -80.8 9.985e+03 4.610e-10
 19.91525    -79.7 9.783e+03 4.234e-10
 19.93503    -78.8 9.703e+03 3.998e-10
 19.96480    -78.1 9.690e+03 3.872e-10
 20.00446    -76.6 9.626e+03 3.810e-10
 20.04402    -74.7 9.521e+03 3.744e-10
 20.08358    -72.7 9.411e+03 3.631e-10
 20.10539    -70.6 9.313e+03 3.447e-10
 20.12517    -71.4 9.143e+03 2.907e-10
 20.16271    -69.4 8.959e+03 2.431e-10
 20.20227    -67.6 8.882e+03 2.176e-10
 20.24184    -65.8 8.875e+03 2.123e-10
 20.28140    -64.0 8.916e+03 2.192e-10
 20.32096    -62.1 8.935e+03 2.328e-10
 20.35256    -59.9 8.922e+03 2.348e-10
 20.37234    -60.0 8.893e+03 2.382e-10
 20.38067    -57.6 8.819e+03 2.262e-10
 20.40045    -57.9 8.765e+03 2.167e-10
 20.43965    -55.2 8.730e+03 2.000e-10
 20.47921    -52.5 8.747e+03 1.902e-10
 20.51878    -49.9 8.806e+03 1.896e-10
 20.55834    -47.5 9.125e+03 2.126e-10
 20.59790    -45.2 9.494e+03 2.771e-10
 20.61941    -43.0 9.779e+03 3.485e-10
 20.63919    -42.2 9.779e+03 3.667e-10
 20.66704    -40.4 1.004e+04 4.606e-10
 20.68673    -38.8 1.006e+04 5.192e-10
 20.70651    -37.8 1.054e+04 6.459e-10
 20.72629    -38.3 1.211e+04 9.296e-10
 20.74289    -41.0 1.486e+04 1.873e-09
 20.75278    -38.2 1.308e+04 1.304e-09
 20.76585    -41.0 1.541e+04 2.702e-09
 20.78563    -41.7 1.659e+04 5.788e-09
 20.80480    -41.3 1.707e+04 1.003e-08
 20.81469    -40.5 1.676e+04 8.439e-09
 20.82520    -38.8 1.690e+04 1.102e-08
 20.84498    -37.2 1.685e+04 1.146e-08
 20.86476    -35.4 1.618e+04 8.388e-09
 20.87636    -34.6 1.540e+04 4.816e-09
 20.88626    -35.3 1.557e+04 6.458e-09
 20.90432    -35.2 1.499e+04 3.836e-09
 20.92410    -36.3 1.443e+04 2.117e-09
 20.94388    -37.3 1.336e+04 1.220e-09
 20.96367    -37.5 1.205e+04 8.177e-10
 20.98345    -37.1 1.130e+04 6.594e-10
 20.99995    -36.0 1.099e+04 5.904e-10
 21.00984    -35.7 1.178e+04 7.665e-10
 21.02301    -34.7 1.153e+04 6.873e-10
 21.04279    -33.7 1.145e+04 6.641e-10
 21.06257    -32.7 1.142e+04 6.537e-10
 21.08236    -31.5 1.156e+04 7.076e-10
 21.10214    -30.3 1.191e+04 8.336e-10
 21.12192    -29.5 1.305e+04 1.109e-09
 21.13342    -29.8 1.530e+04 1.739e-09
 21.14331    -28.9 1.363e+04 1.342e-09
 21.16148    -29.7 1.604e+04 2.082e-09
 21.18126    -31.4 1.914e+04 4.063e-09
 21.20104    -32.3 2.024e+04 8.402e-09
 21.21583    -32.4 1.976e+04 1.236e-08
 21.22567    -31.8 1.980e+04 1.664e-08
 21.23556    -31.5 1.972e+04 2.105e-08
 21.24387    -30.6 1.986e+04 2.430e-08
 21.24887    -31.5 1.940e+04 1.665e-08
 21.25700    -31.3 1.967e+04 1.729e-08
 21.26689    -32.3 1.915e+04 1.747e-08
 21.28017    -33.2 1.908e+04 1.769e-08
 21.29995    -34.3 1.862e+04 1.425e-08
 21.31973    -34.8 1.823e+04 9.216e-09
 21.33952    -34.8 1.827e+04 5.534e-09
 21.35930    -34.9 1.766e+04 3.037e-09
 21.37908    -34.9 1.624e+04 1.675e-09
 21.39048    -34.9 1.449e+04 1.033e-09
 21.40037    -32.4 1.613e+04 2.556e-09
 21.41864    -32.1 1.534e+04 1.641e-09
 21.43842    -31.6 1.470e+04 1.131e-09
 21.45820    -31.2 1.410e+04 8.689e-10
 21.47799    -31.0 1.334e+04 7.444e-10
 21.49777    -31.6 1.290e+04 7.191e-10
 21.51406    -33.6 1.284e+04 1.028e-09
 21.52395    -30.5 1.747e+04 1.513e-09
 21.53733    -34.4 1.738e+04 2.262e-09
 21.55711    -38.0 1.608e+04 3.734e-09
 21.57689    -39.1 1.572e+04 5.631e-09
 21.59668    -39.2 1.615e+04 7.085e-09
 21.61646    -39.4 1.624e+04 7.334e-09
 21.63624    -39.2 1.550e+04 5.581e-09
 21.64753    -39.1 1.405e+04 2.981e-09
 21.65742    -37.9 1.436e+04 3.134e-09
 21.67325    -40.7 1.302e+04 1.535e-09
 21.68314    -40.1 1.297e+04 1.107e-09
 21.69558    -43.2 1.162e+04 5.636e-10
 21.71536    -44.1 1.112e+04 4.193e-10
 21.73515    -44.2 1.094e+04 3.703e-10
 21.75493    -43.8 1.091e+04 3.543e-10
 21.77111    -43.6 1.101e+04 3.525e-10
 21.78100    -43.9 1.118e+04 3.670e-10
 21.79449    -44.0 1.171e+04 4.369e-10
 21.81427    -44.4 1.216e+04 5.810e-10
 21.83405    -45.1 1.260e+04 8.276e-10
 21.85383    -45.6 1.297e+04 1.268e-09
 21.87362    -45.6 1.338e+04 2.160e-09
 21.89340    -44.3 1.367e+04 3.177e-09
 21.90459    -41.9 1.409e+04 3.985e-09
 21.91448    -41.8 1.453e+04 4.581e-09
 21.93296    -40.2 1.468e+04 4.834e-09
 21.95274    -38.6 1.425e+04 4.183e-09
 21.97252    -36.4 1.342e+04 2.820e-09
 21.99231    -35.4 1.272e+04 1.814e-09
 22.01209    -35.4 1.188e+04 1.136e-09
 22.02817    -35.6 1.107e+04 7.554e-10
 22.03806    -35.3 1.124e+04 7.376e-10
 22.05165    -34.9 1.060e+04 5.550e-10
 22.07143    -33.7 1.026e+04 4.724e-10
 22.09768    -32.7 9.973e+03 4.046e-10
 22.11756    -32.4 1.012e+04 4.178e-10
 22.14086    -30.2 9.831e+03 3.587e-10
 22.16184    -28.1 9.649e+03 3.289e-10
 22.18162    -28.4 1.036e+04 4.883e-10
 22.21999    -26.4 1.032e+04 4.894e-10
 22.25955    -24.5 1.028e+04 5.141e-10
 22.29911    -22.7 1.035e+04 5.454e-10
 22.33868    -21.0 1.043e+04 5.643e-10
 22.36825    -19.2 1.045e+04 5.673e-10
 22.38794    -18.4 1.047e+04 5.702e-10
 22.40772    -17.4 1.045e+04 5.766e-10
 22.41870    -17.0 1.051e+04 5.804e-10
 22.42859    -19.0 1.113e+04 7.376e-10
 22.44728    -20.2 1.167e+04 8.308e-10
 22.46706    -21.8 1.240e+04 1.078e-09
 22.48684    -23.9 1.301e+04 1.510e-09
 22.50662    -26.7 1.533e+04 2.412e-09
 22.52641    -30.4 2.012e+04 4.184e-09
 22.54170    -33.3 2.400e+04 6.928e-09
 22.54768    -40.2 2.421e+04 1.624e-08
 22.55217    -44.2 2.248e+04 1.787e-08
 22.56597    -46.5 1.948e+04 1.489e-08
 22.58575    -48.5 1.837e+04 1.105e-08
 22.60553    -49.3 1.898e+04 9.653e-09
 22.62531    -50.0 2.014e+04 9.166e-09
 22.64510    -51.8 2.110e+04 8.223e-09
 22.66488    -54.5 2.008e+04 5.696e-09
 22.67575    -57.8 1.673e+04 3.798e-09
 22.68565    -60.3 1.467e+04 3.033e-09
 22.70444    -61.5 1.390e+04 2.721e-09
 22.72422    -62.0 1.375e+04 2.510e-09
 22.74400    -63.1 1.372e+04 2.142e-09
 22.76378    -65.1 1.348e+04 1.668e-09
 22.78357    -67.8 1.298e+04 1.299e-09
 22.79934    -70.8 1.269e+04 1.150e-09
 22.80923    -71.0 1.221e+04 9.972e-10
 22.82313    -74.1 1.218e+04 9.721e-10
 22.84291    -78.4 1.308e+04 1.156e-09
 22.86269    -83.1 1.427e+04 1.744e-09
 22.88247    -87.0 1.486e+04 2.551e-09
 22.90226    -90.1 1.489e+04 3.068e-09
 22.92204    -92.6 1.483e+04 3.157e-09
 22.93281    -94.9 1.453e+04 2.856e-09
 22.94270    -92.4 1.414e+04 2.608e-09
 22.96160    -94.8 1.373e+04 1.938e-09
 22.97592    -98.3 1.309e+04 1.309e-09
 22.98581    -97.9 1.177e+04 8.369e-10
 23.00116   -101.2 1.132e+04 7.041e-10
 23.02094   -103.8 1.119e+04 6.862e-10
 23.04073   -105.3 1.106e+04 7.773e-10
 23.05639   -106.0 1.159e+04 1.055e-09
 23.06628   -103.5 1.089e+04 7.618e-10
 23.08029   -103.7 1.148e+04 1.034e-09
 23.10007   -103.6 1.211e+04 1.345e-09
 23.11985   -103.3 1.265e+04 1.651e-09
 23.13963   -102.8 1.296e+04 1.889e-09
 23.15941   -102.0 1.298e+04 2.005e-09
 23.17920   -101.1 1.291e+04 2.032e-09
 23.18987    -99.9 1.248e+04 1.901e-09
 23.19976    -98.3 1.226e+04 1.711e-09
 23.21876    -97.0 1.199e+04 1.584e-09
 23.23854    -95.8 1.186e+04 1.453e-09
 23.25832    -94.7 1.180e+04 1.360e-09
 23.27810    -93.4 1.180e+04 1.329e-09
 23.29789    -92.0 1.185e+04 1.340e-09
 23.31345    -90.7 1.235e+04 1.455e-09
 23.32334    -89.3 1.132e+04 1.096e-09
 23.33745    -88.0 1.157e+04 1.131e-09
 23.35723    -87.0 1.273e+04 1.349e-09
 23.37701    -86.4 1.477e+04 1.873e-09
 23.39679    -86.1 1.699e+04 3.031e-09
 23.41014    -85.6 1.850e+04 5.151e-09
 23.42003    -83.1 1.585e+04 2.262e-09
 23.43636    -82.8 1.924e+04 4.282e-09
 23.44692    -82.2 2.202e+04 8.217e-09
 23.45681    -81.3 2.095e+04 4.549e-09
 23.47592    -80.7 2.352e+04 9.684e-09
 23.49071    -78.8 2.393e+04 1.987e-08
 23.50055    -77.1 2.406e+04 2.598e-08
 23.50861    -75.3 2.467e+04 3.315e-08
 23.51356    -75.2 2.383e+04 3.105e-08
 23.52033    -73.2 2.464e+04 3.908e-08
 23.53022    -71.6 2.533e+04 5.163e-08
 23.54011    -70.0 2.582e+04 7.085e-08
 23.55000    -68.2 2.578e+04 1.017e-07
 23.55989    -65.7 2.499e+04 1.510e-07
 23.56978    -62.2 2.371e+04 2.192e-07
 23.57535    -57.4 2.248e+04 2.901e-07
 23.58030    -56.8 2.440e+04 2.011e-07
 23.58957    -50.6 2.333e+04 2.654e-07
 23.59946    -45.8 2.422e+04 3.605e-07
 23.60622    -54.5 2.777e+04 6.665e-07
 23.60867    -38.2 2.573e+04 3.403e-07
 23.61177    -42.9 2.658e+04 5.628e-07
 23.61672    -42.9 3.234e+04 7.112e-07
 23.62166    -65.7 2.007e+04 1.639e-05
 23.62661    -91.5 1.339e+04 6.416e-04
 23.62958   -120.5 1.242e+04 1.576e-03
 23.63205   -115.3 1.167e+04 2.968e-03
 23.63650   -144.3 1.600e+04 8.284e-05
 23.63957   -166.3 2.360e+04 4.316e-06
 23.64079   -163.4 2.126e+04 1.081e-05
 23.64265   -166.7 2.339e+04 6.704e-06
 23.64513   -170.9 2.541e+04 3.453e-06
 23.64760   -172.3 2.703e+04 2.528e-06
 23.65132   -174.9 2.918e+04 1.395e-06
 23.65628   -178.1 3.179e+04 4.360e-07
 23.66122   -177.7 3.167e+04 2.945e-07
 23.66617   -174.0 3.158e+04 2.246e-07
 23.67046   -171.8 3.186e+04 1.870e-07
 23.67293   -172.2 3.142e+04 1.842e-07
 23.67856   -168.8 3.213e+04 1.439e-07
 23.68847   -162.1 3.232e+04 7.451e-08
 23.69836   -158.6 3.260e+04 4.570e-08
 23.70388   -157.0 3.171e+04 3.227e-08
 23.70882   -156.8 3.121e+04 4.053e-08
 23.71815   -155.3 3.018e+04 2.946e-08
 23.72804   -153.8 2.950e+04 2.063e-08
 23.73793   -152.6 2.886e+04 1.455e-08
 23.74782   -151.9 2.851e+04 1.026e-08
 23.75771   -151.5 2.826e+04 7.188e-09
 23.76567   -151.5 2.899e+04 5.077e-09
 23.77062   -150.1 3.189e+04 8.910e-09
 23.77749   -151.1 3.344e+04 7.701e-09
 23.78738   -153.7 3.616e+04 7.026e-09
 23.79727   -157.2 4.153e+04 6.032e-09
 23.80716   -160.0 4.784e+04 5.156e-09
 23.81705   -161.4 4.020e+04 1.199e-08
 23.82694   -162.0 2.785e+04 5.327e-08
 23.83241   -162.6 2.302e+04 1.405e-07
 23.83735   -161.0 2.215e+04 1.585e-07
 23.84427   -162.1 2.107e+04 2.459e-07
 23.84921   -162.5 2.681e+04 6.127e-08
 23.85662   -162.5 2.619e+04 7.132e-08
 23.86651   -162.6 2.635e+04 7.094e-08
 23.87640   -161.5 2.970e+04 4.637e-08
 23.88629   -159.2 3.494e+04 2.113e-08
 23.89420   -157.9 3.944e+04 1.011e-08
 23.89914   -159.6 3.281e+04 2.073e-08
 23.90607   -159.2 3.621e+04 1.356e-08
 23.91596   -159.6 3.658e+04 1.244e-08
 23.92585   -160.9 3.635e+04 1.244e-08
 23.93574   -161.9 3.561e+04 1.319e-08
 23.94563   -162.5 3.412e+04 1.534e-08
 23.95552   -163.0 3.300e+04 1.759e-08
 23.96094   -163.3 3.229e+04 1.926e-08
 23.96588   -164.0 3.023e+04 2.987e-08
 23.97530   -164.1 2.973e+04 3.207e-08
 23.98520   -164.3 2.932e+04 3.360e-08
 23.99509   -164.3 2.902e+04 3.440e-08
 24.00498   -164.4 2.860e+04 3.500e-08
 24.01487   -164.5 2.804e+04 3.560e-08
 24.02273   -164.7 2.745e+04 3.560e-08
 24.02767   -164.9 2.684e+04 4.629e-08
 24.03465   -164.9 2.634e+04 4.498e-08
 24.04454   -164.8 2.577e+04 4.391e-08
 24.05443   -164.8 2.512e+04 4.310e-08
 24.06138   -164.5 2.438e+04 4.294e-08
 24.06633   -164.9 2.355e+04 2.854e-08
 24.07421   -164.7 2.243e+04 3.051e-08
 24.08410   -164.5 2.155e+04 3.264e-08
 24.08946   -164.6 2.092e+04 3.458e-08
 24.09441   -164.5 2.109e+04 3.556e-08
 24.10388   -164.5 2.050e+04 3.545e-08
 24.11378   -164.5 2.005e+04 3.522e-08
 24.12367   -164.5 1.976e+04 3.497e-08
 24.13356   -164.4 1.960e+04 3.448e-08
 24.14345   -164.4 1.947e+04 3.339e-08
 24.15125   -164.5 1.934e+04 3.116e-08
 24.15620   -164.1 1.978e+04 2.751e-08
 24.16323   -164.2 1.961e+04 2.409e-08
 24.17312   -164.2 1.940e+04 2.063e-08
 24.18301   -164.0 1.913e+04 1.744e-08
 24.19290   -163.5 1.885e+04 1.483e-08
 24.20279   -162.9 1.855e+04 1.276e-08
 24.21268   -162.3 1.831e+04 1.120e-08
 24.21799   -161.7 1.805e+04 9.944e-09
 24.22294   -161.4 1.783e+04 8.654e-09
 24.23246   -160.8 1.757e+04 7.635e-09
 24.24236   -160.2 1.725e+04 6.669e-09
 24.25225   -159.6 1.694e+04 5.890e-09
 24.26214   -159.0 1.654e+04 5.130e-09
 24.27203   -158.5 1.633e+04 4.701e-09
 24.27854   -157.8 1.600e+04 4.169e-09
 24.28848   -156.9 1.531e+04 5.522e-09
 24.30674   -155.7 1.484e+04 4.733e-09
 24.32652   -154.4 1.444e+04 4.138e-09
 24.34167   -153.0 1.405e+04 3.654e-09
 24.35156   -152.6 1.413e+04 3.278e-09
 24.36609   -151.1 1.382e+04 2.923e-09
 24.38587   -149.6 1.352e+04 2.585e-09
 24.40565   -148.1 1.322e+04 2.255e-09
 24.42543   -146.6 1.293e+04 1.944e-09
 24.44521   -145.3 1.267e+04 1.664e-09
 24.46500   -143.9 1.243e+04 1.426e-09
 24.47514   -142.6 1.222e+04 1.237e-09
 24.48503   -142.6 1.209e+04 9.344e-10
 24.50456   -141.6 1.181e+04 8.227e-10
 24.52434   -140.6 1.160e+04 7.561e-10
 24.54412   -139.7 1.146e+04 7.251e-10
 24.56390   -138.8 1.142e+04 7.186e-10
 24.58368   -138.0 1.139e+04 7.346e-10
 24.59873   -137.4 1.163e+04 8.610e-10
 24.60862   -138.3 1.193e+04 9.406e-10
 24.62325   -138.2 1.278e+04 1.290e-09
 24.64303   -138.1 1.389e+04 1.887e-09
 24.66281   -137.7 1.499e+04 2.827e-09
 24.68259   -137.1 1.584e+04 4.097e-09
 24.70237   -136.2 1.639e+04 5.546e-09
 24.71281   -135.4 1.657e+04 6.830e-09
 24.72270   -135.4 1.525e+04 4.253e-09
 24.73220   -134.9 1.544e+04 5.016e-09
 24.74209   -135.4 1.513e+04 5.699e-09
 24.76172   -134.7 1.526e+04 6.126e-09
 24.78150   -133.8 1.528e+04 6.375e-09
 24.80128   -133.1 1.525e+04 6.407e-09
 24.82106   -132.2 1.496e+04 6.155e-09
 24.84084   -130.8 1.472e+04 5.709e-09
 24.85578   -129.2 1.484e+04 5.437e-09
 24.86567   -129.3 1.483e+04 4.015e-09
 24.88041   -128.0 1.524e+04 3.758e-09
 24.90019   -126.8 1.582e+04 3.568e-09
 24.91997   -125.7 1.641e+04 3.382e-09
 24.93975   -125.0 1.700e+04 3.148e-09
 24.95953   -124.5 1.750e+04 2.927e-09
 24.97931   -124.3 1.771e+04 2.841e-09
 24.99910   -126.9 1.458e+04 1.188e-09
 25.01888   -130.0 1.517e+04 1.541e-09
 25.03866   -135.0 1.819e+04 3.862e-09
 25.05844   -138.2 2.034e+04 1.014e-08
 25.07323   -139.7 2.163e+04 2.041e-08
 25.08307   -140.0 2.219e+04 2.932e-08
 25.09296   -140.4 2.250e+04 3.714e-08
 25.10285   -141.1 2.252e+04 3.970e-08
 25.11274   -141.9 2.237e+04 3.970e-08
 25.12263   -141.9 2.225e+04 2.617e-08
 25.13252   -142.5 2.146e+04 1.931e-08
 25.14199   -143.6 2.039e+04 1.307e-08
 25.14694   -143.0 2.053e+04 1.733e-08
 25.15231   -144.9 1.918e+04 1.048e-08
 25.16220   -147.2 1.743e+04 6.615e-09
 25.17209   -149.2 1.580e+04 4.682e-09
 25.17948   -150.3 1.487e+04 3.894e-09
 25.18442   -150.3 1.484e+04 3.841e-09
 25.19686   -150.9 1.431e+04 3.401e-09
 25.21669   -151.2 1.347e+04 2.618e-09
 25.23642   -151.2 1.275e+04 2.070e-09
 25.25620   -150.9 1.224e+04 1.748e-09
 25.27604   -150.0 1.208e+04 1.635e-09
 25.29582   -148.9 1.203e+04 1.560e-09
 25.31560   -148.0 1.202e+04 1.486e-09
 25.33538   -147.0 1.203e+04 1.410e-09
 25.35516   -146.1 1.205e+04 1.351e-09
 25.36989   -145.3 1.208e+04 1.328e-09
 25.37978   -145.3 1.219e+04 1.369e-09
 25.39473   -145.1 1.262e+04 1.468e-09
 25.41451   -145.3 1.342e+04 1.673e-09
 25.43429   -145.7 1.453e+04 2.039e-09
 25.45407   -146.5 1.571e+04 2.566e-09
 25.47385   -147.3 1.668e+04 3.225e-09
 25.49348   -148.1 1.727e+04 3.917e-09
 25.50337   -151.1 1.816e+04 7.049e-09
 25.51342   -152.0 1.800e+04 7.210e-09
 25.53320   -152.7 1.724e+04 7.125e-09
 25.55298   -153.6 1.671e+04 6.690e-09
 25.57137   -154.7 1.640e+04 6.403e-09
 25.58126   -154.6 1.639e+04 5.385e-09
 25.59254   -155.8 1.581e+04 4.440e-09
 25.61232   -157.2 1.551e+04 3.656e-09
 25.62695   -158.6 1.545e+04 3.093e-09
 25.63684   -162.3 1.459e+04 1.914e-09
 25.65189   -163.8 1.380e+04 1.598e-09
 25.67167   -165.0 1.296e+04 1.403e-09
 25.69145   -166.0 1.239e+04 1.292e-09
 25.71123   -166.7 1.224e+04 1.247e-09
 25.73101   -167.0 1.223e+04 1.235e-09
 25.75053   -167.3 1.222e+04 1.239e-09
 25.76042   -168.6 1.209e+04 1.154e-09
 25.77058   -168.7 1.207e+04 1.164e-09
 25.79036   -168.7 1.202e+04 1.172e-09
 25.81014   -168.5 1.184e+04 1.169e-09
 25.82992   -168.0 1.171e+04 1.130e-09
 25.84970   -167.3 1.156e+04 1.082e-09
 25.86948   -166.5 1.141e+04 1.025e-09
 25.88400   -165.7 1.137e+04 9.605e-10
 25.89390   -166.3 1.139e+04 8.849e-10
 25.90905   -165.6 1.147e+04 8.705e-10
 25.92883   -165.2 1.185e+04 8.731e-10
 25.94861   -165.3 1.261e+04 9.577e-10
 25.96839   -165.5 1.355e+04 1.190e-09
 25.98817   -165.8 1.441e+04 1.622e-09
 26.00559   -165.9 1.501e+04 2.274e-09
 26.01512   -164.0 1.310e+04 1.003e-09
 26.01748   -164.5 1.281e+04 1.082e-09
 26.02774   -164.7 1.332e+04 1.419e-09
 26.04752   -164.7 1.366e+04 1.790e-09
 26.06730   -164.7 1.378e+04 2.090e-09
 26.08708   -164.5 1.376e+04 2.202e-09
 26.10686   -164.3 1.356e+04 2.188e-09
 26.12664   -163.9 1.313e+04 1.977e-09
 26.14106   -163.5 1.265e+04 1.681e-09
 26.15095   -163.7 1.243e+04 1.555e-09
 26.16621   -163.3 1.199e+04 1.299e-09
 26.18599   -162.8 1.156e+04 1.082e-09
 26.20577   -162.4 1.116e+04 9.054e-10
 26.22555   -161.8 1.079e+04 7.633e-10
 26.24533   -161.1 1.044e+04 6.435e-10
 26.26464   -160.2 1.012e+04 5.384e-10
 26.27453   -160.2 1.003e+04 5.062e-10
 26.28489   -159.0 9.754e+03 4.264e-10
 26.30468   -157.9 9.594e+03 3.787e-10
 26.33445   -157.1 9.489e+03 3.460e-10
 26.37411   -155.3 9.251e+03 3.037e-10
 26.41367   -153.0 9.040e+03 2.773e-10
 26.44001   -150.6 8.980e+03 2.721e-10
 26.45979   -151.0 8.938e+03 2.764e-10
 26.49280   -148.8 8.893e+03 2.714e-10
 26.52189   -146.9 8.896e+03 2.780e-10
 26.54168   -146.4 9.033e+03 2.981e-10
 26.57192   -144.8 9.236e+03 3.455e-10
 26.61149   -143.8 9.467e+03 4.055e-10
 26.65105   -143.5 9.680e+03 4.675e-10
 26.69061   -143.4 9.895e+03 5.246e-10
 26.73017   -144.1 1.018e+04 5.797e-10
 26.76906   -145.8 1.046e+04 6.235e-10
 26.78884   -146.1 1.110e+04 8.071e-10
 26.80930   -148.5 1.134e+04 8.527e-10
 26.84886   -151.0 1.146e+04 8.660e-10
 26.88843   -152.9 1.148e+04 8.838e-10
 26.92799   -153.7 1.148e+04 9.139e-10
 26.96755   -154.1 1.143e+04 9.580e-10
 26.99713   -154.4 1.158e+04 1.097e-09
 27.01681   -153.9 1.141e+04 1.080e-09
 27.03581   -153.5 1.129e+04 1.044e-09
 27.04570   -154.6 1.125e+04 1.061e-09
 27.05637   -154.1 1.107e+04 9.649e-10
 27.07616   -153.6 1.090e+04 8.769e-10
 27.09594   -152.9 1.071e+04 7.915e-10
 27.11572   -152.2 1.054e+04 7.129e-10
 27.13550   -151.4 1.038e+04 6.437e-10
 27.15528   -150.7 1.024e+04 5.815e-10
 27.16928   -149.9 1.011e+04 5.248e-10
 27.17917   -150.7 9.984e+03 4.458e-10
 27.19484   -149.9 9.902e+03 4.014e-10
 27.21463   -149.1 9.847e+03 3.726e-10
 27.23441   -148.2 9.809e+03 3.573e-10
 27.25419   -147.5 9.776e+03 3.463e-10
 27.27397   -146.3 9.769e+03 3.415e-10
 27.29287   -145.4 9.758e+03 3.390e-10
 27.30285   -146.6 9.692e+03 3.039e-10
 27.30846   -144.3 9.698e+03 3.039e-10
 27.32824   -145.0 9.819e+03 3.461e-10
 27.36318   -142.7 9.910e+03 3.743e-10
 27.40275   -140.7 1.010e+04 4.360e-10
 27.42644   -138.6 1.043e+04 5.490e-10
 27.43623   -139.3 1.024e+04 4.645e-10
 27.45200   -138.3 1.039e+04 5.328e-10
 27.48177   -137.0 1.060e+04 6.310e-10
 27.52144   -134.8 1.085e+04 7.638e-10
 27.55012   -132.9 1.121e+04 8.778e-10
 27.56990   -135.1 1.060e+04 5.537e-10
 27.60056   -133.4 1.093e+04 5.664e-10
 27.64012   -131.8 1.115e+04 5.528e-10
 27.67969   -130.6 1.120e+04 4.558e-10
 27.71925   -129.7 1.069e+04 3.570e-10
 27.75881   -128.5 1.016e+04 3.012e-10
 27.79728   -127.1 1.004e+04 2.888e-10
 27.81706   -130.8 9.777e+03 2.662e-10
 27.83794   -131.2 1.099e+04 3.595e-10
 27.87750   -131.9 1.230e+04 6.508e-10
 27.91707   -132.8 1.324e+04 1.158e-09
 27.94055   -133.6 1.353e+04 1.590e-09
 27.95034   -135.6 1.354e+04 1.608e-09
 27.96632   -136.5 1.361e+04 1.674e-09
 27.98611   -138.1 1.353e+04 1.707e-09
 28.00589   -138.9 1.322e+04 1.605e-09
 28.02567   -140.6 1.243e+04 1.198e-09
 28.04545   -141.9 1.171e+04 8.439e-10
 28.06403   -143.4 1.094e+04 5.802e-10
 28.07392   -145.4 1.045e+04 4.240e-10
 28.08501   -146.4 1.002e+04 3.173e-10
 28.11478   -147.8 9.605e+03 2.438e-10
 28.15444   -149.0 9.411e+03 2.176e-10
 28.17691   -150.7 9.139e+03 1.984e-10
 28.19669   -152.9 8.988e+03 1.920e-10
 28.23357   -153.6 8.851e+03 1.748e-10
 28.27313   -154.2 8.771e+03 1.575e-10
 28.31139   -154.8 8.720e+03 1.422e-10
 28.33117   -156.3 8.511e+03 1.105e-10
 28.35226   -156.6 8.536e+03 1.095e-10
 28.39182   -156.8 8.710e+03 1.187e-10
 28.43138   -156.8 8.892e+03 1.442e-10
 28.47095   -156.5 9.031e+03 1.735e-10
 28.51051   -156.1 9.109e+03 1.941e-10
 28.55007   -155.4 9.125e+03 1.998e-10
 28.57834   -154.4 9.106e+03 1.991e-10
 28.59812   -154.8 8.988e+03 1.882e-10
 28.62920   -153.4 8.904e+03 1.718e-10
 28.66876   -151.8 8.845e+03 1.559e-10
 28.70833   -150.0 8.838e+03 1.483e-10
 28.74789   -148.3 8.843e+03 1.470e-10
 28.78745   -146.7 8.911e+03 1.483e-10
 28.82550   -145.5 9.467e+03 1.938e-10
 28.84529   -145.9 9.281e+03 1.679e-10
 28.86658   -144.6 9.960e+03 2.760e-10
 28.90614   -143.3 1.064e+04 4.638e-10
 28.93572   -142.3 1.114e+04 6.578e-10
 28.95540   -141.9 1.149e+04 8.060e-10
 28.96867   -141.2 1.186e+04 1.020e-09
 28.97856   -141.3 1.176e+04 9.728e-10
 28.99496   -140.9 1.207e+04 1.156e-09
 29.01474   -140.3 1.231e+04 1.318e-09
 29.03453   -140.0 1.244e+04 1.404e-09
 29.04516   -139.6 1.250e+04 1.458e-09
 29.05505   -138.9 1.270e+04 1.550e-09
 29.07409   -138.5 1.268e+04 1.546e-09
 29.09226   -138.1 1.257e+04 1.501e-09
 29.10215   -138.2 1.255e+04 1.510e-09
 29.11365   -137.5 1.234e+04 1.431e-09
 29.13343   -136.6 1.213e+04 1.334e-09
 29.15321   -135.6 1.191e+04 1.229e-09
 29.17300   -134.4 1.166e+04 1.118e-09
 29.19278   -133.1 1.140e+04 1.007e-09
 29.21256   -131.6 1.114e+04 9.022e-10
 29.22573   -130.1 1.090e+04 8.069e-10
 29.23562   -129.9 1.060e+04 6.889e-10
 29.25212   -128.1 1.038e+04 6.149e-10
 29.27190   -126.1 1.021e+04 5.590e-10
 29.29169   -124.0 1.006e+04 5.144e-10
 29.31147   -121.7 9.882e+03 4.765e-10
 29.33125   -119.5 9.767e+03 4.591e-10
 29.34931   -118.5 1.179e+04 4.153e-10
 29.35920   -116.1 9.459e+03 3.884e-10
 29.37081   -114.6 1.030e+04 3.706e-10
 29.39059   -119.9 2.706e+04 2.855e-10
 29.41037   -132.1 5.221e+04 7.233e-10
 29.42094   -134.3 3.884e+04 9.095e-09
 29.42584   -139.4 6.924e+04 7.413e-10
 29.43500   -137.8 3.865e+04 1.229e-08
 29.44489   -134.8 2.566e+04 1.243e-07
 29.45479   -133.3 2.139e+04 6.167e-07
 29.46218   -132.4 2.033e+04 1.417e-06
 29.46710   -134.1 1.996e+04 2.095e-06
 29.47205   -135.0 1.961e+04 3.164e-06
 29.47676   -139.3 1.970e+04 3.523e-06
 29.47923   -140.4 2.168e+04 1.908e-06
 29.48266   -149.9 2.546e+04 7.396e-07
 29.48761   -147.1 2.171e+04 1.932e-06
 29.49183   -155.2 2.678e+04 5.362e-07
 29.49677   -164.5 3.536e+04 1.040e-07
 29.50421   -177.6 4.191e+04 2.417e-08
 29.51413   -211.2 3.693e+04 1.774e-09
 29.52402   -225.2 1.767e+04 9.290e-10
 29.53391   -228.0 1.241e+04 8.313e-10
 29.54880   -229.1 1.165e+04 7.274e-10
 29.56863   -229.4 1.035e+04 4.613e-10
 29.58841   -228.8 9.887e+03 3.269e-10
 29.60637   -228.0 9.867e+03 2.725e-10
 29.61626   -229.7 1.009e+04 3.393e-10
 29.62797   -228.8 9.950e+03 2.848e-10
 29.65774   -228.1 9.847e+03 2.593e-10
 29.69740   -225.6 9.461e+03 2.073e-10
 29.73697   -222.4 8.974e+03 1.552e-10
 29.77653   -219.3 8.694e+03 1.223e-10
 29.81609   -216.4 8.633e+03 1.036e-10
 29.85373   -213.7 8.665e+03 9.311e-11
 29.87351   -213.6 8.697e+03 9.994e-11
 29.89402   -210.9 8.729e+03 9.220e-11
 29.91380   -210.8 8.798e+03 9.653e-11
 29.93478   -208.2 8.832e+03 9.104e-11
 29.97434   -205.7 8.841e+03 8.951e-11
 30.01391   -203.4 8.844e+03 8.940e-11
 30.05347   -201.4 8.851e+03 8.961e-11
 30.09303   -199.8 8.974e+03 9.129e-11
 30.12067   -198.5 9.072e+03 1.045e-10
 30.14046   -198.7 9.321e+03 1.328e-10
 30.17216   -197.8 9.491e+03 1.749e-10
 30.21172   -197.0 9.715e+03 2.258e-10
 30.25128   -196.5 9.937e+03 2.798e-10
 30.29085   -196.1 1.013e+04 3.308e-10
 30.33041   -195.9 1.028e+04 3.780e-10
 30.36784   -195.9 1.045e+04 4.375e-10
 30.38762   -197.5 1.076e+04 5.489e-10
 30.40954   -197.8 1.090e+04 6.082e-10
 30.44910   -198.2 1.117e+04 7.329e-10
 30.48866   -198.7 1.149e+04 9.020e-10
 30.52823   -199.2 1.177e+04 1.050e-09
 30.56779   -199.6 1.194e+04 1.104e-09
 30.60735   -200.4 1.198e+04 1.090e-09
 30.63469   -201.4 1.160e+04 9.302e-10
 30.65447   -202.7 1.136e+04 8.051e-10
 30.67649   -202.8 1.136e+04 8.276e-10
 30.69617   -203.2 1.142e+04 8.504e-10
 30.71595   -203.6 1.150e+04 8.912e-10
 30.73574   -204.2 1.164e+04 9.574e-10
 30.75552   -204.8 1.184e+04 1.072e-09
 30.76806   -205.3 1.210e+04 1.244e-09
 30.77481   -205.9 1.196e+04 1.204e-09
 30.78205   -205.5 1.195e+04 1.182e-09
 30.79508   -206.0 1.208e+04 1.281e-09
 30.81486   -206.6 1.214e+04 1.327e-09
 30.83464   -207.2 1.213e+04 1.334e-09
 30.85443   -207.7 1.202e+04 1.292e-09
 30.87421   -208.0 1.182e+04 1.180e-09
 30.89165   -208.3 1.160e+04 1.054e-09
 30.90154   -208.3 1.107e+04 8.087e-10
 30.91377   -208.3 1.088e+04 7.158e-10
 30.93355   -208.2 1.073e+04 6.523e-10
 30.95333   -207.9 1.065e+04 6.165e-10
 30.97311   -207.4 1.062e+04 6.061e-10
 30.99290   -207.0 1.062e+04 6.048e-10
 31.01268   -206.5 1.066e+04 6.089e-10
 31.02512   -206.0 1.072e+04 6.244e-10
 31.03501   -205.2 1.047e+04 4.891e-10
 31.05224   -204.8 1.056e+04 5.172e-10
 31.07202   -204.6 1.066e+04 5.626e-10
 31.09180   -204.2 1.077e+04 6.097e-10
 31.11159   -203.9 1.090e+04 6.568e-10
 31.13137   -203.5 1.103e+04 7.003e-10
 31.14870   -203.2 1.115e+04 7.374e-10
 31.15859   -202.9 1.108e+04 7.225e-10
 31.17093   -202.6 1.121e+04 7.606e-10
 31.19071   -202.4 1.128e+04 7.754e-10
 31.20638   -202.3 1.130e+04 7.772e-10
 31.21628   -202.0 1.117e+04 7.204e-10
 31.23027   -201.8 1.116e+04 7.166e-10
 31.25006   -201.4 1.107e+04 6.652e-10
 31.26984   -200.9 1.093e+04 5.767e-10
 31.28217   -200.2 1.079e+04 4.847e-10
 31.29206   -200.0 1.078e+04 4.740e-10
 31.30940   -199.3 1.066e+04 4.035e-10
 31.32918   -198.8 1.061e+04 3.680e-10
 31.35895   -198.6 1.059e+04 3.397e-10
 31.39606   -197.4 1.047e+04 2.836e-10
 31.41584   -197.0 1.042e+04 2.769e-10
 31.43818   -195.3 1.025e+04 2.253e-10
 31.47774   -193.4 1.013e+04 1.909e-10
 31.51730   -191.4 1.003e+04 1.752e-10
 31.55686   -189.6 9.992e+03 1.713e-10
 31.59643   -188.1 1.006e+04 1.730e-10
 31.63091   -186.9 1.028e+04 2.080e-10
 31.65069   -186.9 1.041e+04 2.327e-10
 31.66301   -185.9 1.055e+04 3.024e-10
 31.68279   -185.5 1.092e+04 4.121e-10
 31.71512   -184.9 1.101e+04 4.857e-10
 31.75468   -184.4 1.102e+04 5.016e-10
 31.79424   -183.6 1.091e+04 4.892e-10
 31.83381   -182.3 1.064e+04 4.152e-10
 31.87337   -180.7 1.042e+04 3.364e-10
 31.91017   -179.1 1.029e+04 2.855e-10
 31.92995   -179.1 1.032e+04 2.890e-10
 31.95250   -177.5 1.025e+04 2.634e-10
 31.99206   -175.9 1.020e+04 2.546e-10
 32.03162   -174.2 1.015e+04 2.500e-10
 32.07118   -172.4 1.008e+04 2.405e-10
 32.11075   -170.6 9.962e+03 2.212e-10
 32.15031   -168.6 9.817e+03 1.927e-10
 32.17712   -166.6 9.662e+03 1.614e-10
 32.19690   -166.5 9.570e+03 1.553e-10
 32.22944   -164.3 9.427e+03 1.252e-10
 32.26900   -162.1 9.305e+03 1.008e-10
 32.30856   -159.9 9.197e+03 8.230e-11
 32.34813   -157.6 9.098e+03 6.825e-11
 32.38769   -155.2 9.003e+03 5.719e-11
 32.42428   -152.8 8.917e+03 4.845e-11
 32.44407   -152.5 8.880e+03 4.413e-11
 32.46681   -150.1 8.821e+03 3.715e-11
 32.49936   -147.6 8.783e+03 3.187e-11
 32.51914   -147.3 8.830e+03 2.956e-11
 32.54594   -145.0 8.818e+03 2.726e-11
 32.58550   -142.7 8.822e+03 2.643e-11
 32.62507   -140.4 8.829e+03 2.630e-11
 32.66463   -138.4 8.874e+03 2.731e-11
 32.69123   -136.5 8.909e+03 3.023e-11
 32.71101   -136.1 8.878e+03 2.466e-11
 32.74376   -134.3 8.904e+03 2.817e-11
 32.78332   -132.7 8.936e+03 3.453e-11
 32.82288   -131.1 8.988e+03 4.577e-11
 32.86244   -129.7 9.061e+03 6.462e-11
 32.90201   -128.3 9.153e+03 9.316e-11
 32.93840   -127.1 9.249e+03 1.303e-10
 32.95818   -126.7 9.196e+03 1.082e-10
 32.98113   -125.5 9.264e+03 1.409e-10
 33.02070   -124.3 9.306e+03 1.690e-10
 33.06026   -123.2 9.324e+03 1.877e-10
 33.09982   -122.0 9.325e+03 1.984e-10
 33.13939   -121.0 9.322e+03 2.058e-10
 33.17895   -119.9 9.325e+03 2.110e-10
 33.20534   -118.9 9.330e+03 2.129e-10
 33.22512   -118.4 9.390e+03 2.235e-10
 33.25808   -117.5 9.393e+03 2.295e-10
 33.29764   -116.7 9.330e+03 2.175e-10
 33.33720   -115.9 9.183e+03 1.846e-10
 33.36781   -115.1 8.995e+03 1.428e-10
 33.38759   -115.6 9.115e+03 1.801e-10
 33.41633   -115.0 8.999e+03 1.598e-10
 33.45251   -114.4 8.971e+03 1.552e-10
 33.47229   -113.8 9.011e+03 1.635e-10
 33.49545   -113.2 8.975e+03 1.549e-10
 33.53502   -112.7 8.948e+03 1.597e-10
 33.57458   -112.4 8.989e+03 1.915e-10
 33.61414   -112.2 9.168e+03 2.546e-10
 33.65371   -112.2 9.465e+03 3.556e-10
 33.69327   -112.3 9.832e+03 4.978e-10
 33.71945   -112.7 1.016e+04 6.506e-10
 33.73923   -111.9 1.019e+04 6.033e-10
 33.77239   -112.4 1.057e+04 8.078e-10
 33.81196   -113.3 1.069e+04 8.742e-10
 33.85152   -114.6 1.053e+04 7.902e-10
 33.89108   -116.2 1.008e+04 5.755e-10
 33.93065   -118.1 9.812e+03 4.553e-10
 33.96662   -120.3 9.813e+03 4.365e-10
 33.98640   -120.8 1.101e+04 7.993e-10
 34.00977   -123.2 1.128e+04 9.232e-10
 34.04934   -125.9 1.150e+04 1.153e-09
 34.08890   -129.0 1.159e+04 1.288e-09
 34.12846   -132.4 1.151e+04 1.264e-09
 34.16803   -135.1 1.100e+04 9.157e-10
 34.20759   -136.7 1.025e+04 5.420e-10
 34.23356   -137.2 9.646e+03 3.452e-10
 34.24245   -138.0 9.670e+03 3.037e-10
 34.25603   -136.9 9.805e+03 3.825e-10
 34.28671   -137.1 9.366e+03 2.664e-10
 34.32628   -136.4 9.072e+03 2.123e-10
 34.36584   -135.0 8.869e+03 1.835e-10
 34.40540   -133.4 8.734e+03 1.649e-10
 34.44497   -131.7 8.620e+03 1.467e-10
 34.48073   -129.9 8.523e+03 1.294e-10
 34.50051   -129.5 8.455e+03 1.178e-10
 34.52409   -127.6 8.374e+03 1.070e-10
 34.56366   -125.8 8.308e+03 9.848e-11
 34.60322   -123.9 8.275e+03 9.179e-11
 34.64278   -122.0 8.246e+03 8.662e-11
 34.68234   -120.2 8.233e+03 8.352e-11
 34.72191   -118.3 8.229e+03 8.278e-11
 34.74768   -116.6 8.276e+03 8.290e-11
 34.76746   -116.2 8.268e+03 8.399e-11
 34.80103   -114.8 8.445e+03 9.856e-11
 34.84060   -113.4 8.653e+03 1.279e-10
 34.88016   -112.0 8.878e+03 1.723e-10
 34.91972   -110.6 9.094e+03 2.243e-10
 34.95929   -109.1 9.286e+03 2.732e-10
 34.99484   -107.6 9.463e+03 3.150e-10
 35.01462   -107.6 9.605e+03 3.568e-10
 35.03841   -106.4 9.885e+03 3.984e-10
 35.07797   -105.6 1.043e+04 4.842e-10
 35.10470   -105.3 1.123e+04 6.596e-10
 35.11449   -106.5 1.154e+04 7.984e-10
 35.12723   -106.7 1.204e+04 1.020e-09
 35.13801   -106.9 1.237e+04 1.198e-09
 35.14790   -107.8 1.298e+04 1.633e-09
 35.16680   -108.0 1.361e+04 2.189e-09
 35.18658   -108.1 1.416e+04 2.883e-09
 35.20636   -107.8 1.457e+04 3.636e-09
 35.22614   -107.4 1.480e+04 4.200e-09
 35.24592   -107.0 1.485e+04 4.386e-09
 35.26159   -106.5 1.473e+04 4.233e-09
 35.27148   -106.8 1.509e+04 4.939e-09
 35.28549   -106.4 1.490e+04 4.434e-09
 35.30527   -106.2 1.471e+04 4.014e-09
 35.32505   -106.1 1.450e+04 3.622e-09
 35.34483   -106.0 1.429e+04 3.246e-09
 35.36461   -106.0 1.413e+04 2.942e-09
 35.38439   -106.0 1.397e+04 2.688e-09
 35.39507   -106.2 1.379e+04 2.463e-09
 35.40496   -106.8 1.398e+04 2.670e-09
 35.42396   -106.9 1.382e+04 2.524e-09
 35.44374   -107.1 1.371e+04 2.442e-09
 35.46352   -107.2 1.365e+04 2.413e-09
 35.48330   -107.4 1.363e+04 2.426e-09
 35.50308   -107.5 1.361e+04 2.417e-09
 35.51865   -107.7 1.354e+04 2.307e-09
 35.52854   -107.9 1.436e+04 3.423e-09
 35.53873   -108.1 1.434e+04 3.332e-09
 35.54862   -108.9 1.364e+04 2.407e-09
 35.56243   -109.1 1.350e+04 2.223e-09
 35.58221   -109.4 1.329e+04 1.989e-09
 35.60199   -109.7 1.298e+04 1.720e-09
 35.62177   -109.9 1.265e+04 1.486e-09
 35.64155   -110.0 1.233e+04 1.296e-09
 35.65212   -110.1 1.193e+04 1.103e-09
 35.66201   -110.2 1.231e+04 1.350e-09
 35.68112   -110.2 1.194e+04 1.155e-09
 35.71089   -110.1 1.153e+04 9.815e-10
 35.75055   -109.4 1.092e+04 7.904e-10
 35.77590   -108.4 1.052e+04 6.764e-10
 35.79568   -109.1 1.046e+04 6.546e-10
 35.82967   -108.1 1.014e+04 5.786e-10
 35.86924   -106.8 9.988e+03 5.457e-10
 35.90880   -105.7 9.961e+03 5.448e-10
 35.94836   -104.9 1.000e+04 5.770e-10
 35.97315   -104.4 1.008e+04 6.215e-10
 35.99293   -104.0 1.013e+04 6.335e-10
 36.02306   -103.8 1.028e+04 6.967e-10
 36.04284   -104.5 1.008e+04 6.034e-10
 36.06705   -104.7 1.031e+04 6.895e-10
 36.10661   -105.8 1.096e+04 9.071e-10
 36.14618   -107.7 1.199e+04 1.434e-09
 36.16633   -109.0 1.278e+04 2.178e-09
 36.17612   -109.3 1.294e+04 2.309e-09
 36.19544   -109.9 1.343e+04 2.979e-09
 36.21522   -110.5 1.360e+04 3.293e-09
 36.23500   -111.3 1.337e+04 2.967e-09
 36.26477   -112.2 1.244e+04 1.908e-09
 36.29001   -113.6 1.109e+04 1.016e-09
 36.30979   -114.1 1.134e+04 1.132e-09
 36.34399   -116.3 1.065e+04 8.184e-10
 36.38356   -119.2 1.062e+04 8.050e-10
 36.42312   -121.9 1.102e+04 9.617e-10
 36.46268   -123.9 1.119e+04 1.056e-09
 36.50224   -124.8 1.086e+04 9.304e-10
 36.53717   -125.3 1.019e+04 6.189e-10
 36.55696   -127.7 1.038e+04 6.855e-10
 36.58137   -128.1 9.777e+03 4.670e-10
 36.62093   -128.1 9.444e+03 3.610e-10
 36.66050   -127.8 9.340e+03 3.178e-10
 36.70006   -127.3 9.317e+03 2.970e-10
 36.73962   -126.7 9.309e+03 2.864e-10
 36.77919   -126.1 9.314e+03 2.836e-10
 36.80412   -125.4 9.359e+03 2.835e-10
 36.82390   -126.8 9.576e+03 3.280e-10
 36.84159   -126.0 9.577e+03 3.076e-10
 36.86138   -125.2 9.589e+03 3.070e-10
 36.89787   -124.3 9.546e+03 2.817e-10
 36.93744   -123.1 9.434e+03 2.468e-10
 36.97700   -121.7 9.291e+03 2.039e-10
 37.01656   -120.2 9.159e+03 1.613e-10
 37.05129   -118.6 9.084e+03 1.256e-10
 37.07107   -119.7 9.313e+03 1.561e-10
 37.09569   -118.2 9.374e+03 1.365e-10
 37.13525   -116.8 9.466e+03 1.293e-10
 37.17482   -115.5 9.585e+03 1.298e-10
 37.21438   -114.2 9.730e+03 1.370e-10
 37.25394   -112.9 9.843e+03 1.455e-10
 37.29351   -111.6 9.910e+03 1.491e-10
 37.31823   -110.3 9.942e+03 1.486e-10
 37.33801   -111.9 1.014e+04 2.167e-10
 37.37263   -110.9 1.022e+04 2.173e-10
 37.41219   -110.1 1.046e+04 2.379e-10
 37.45176   -109.4 1.077e+04 2.927e-10
 37.49132   -108.7 1.105e+04 3.673e-10
 37.53088   -108.0 1.126e+04 4.326e-10
 37.56540   -107.2 1.135e+04 4.623e-10
 37.58518   -108.8 1.194e+04 7.808e-10
 37.61001   -107.8 1.192e+04 7.598e-10
 37.64957   -106.7 1.187e+04 7.023e-10
 37.68914   -105.5 1.188e+04 6.802e-10
 37.71004   -104.4 1.195e+04 6.882e-10
 37.72982   -104.8 1.199e+04 7.629e-10
 37.76826   -103.9 1.204e+04 7.769e-10
 37.80782   -103.0 1.205e+04 7.878e-10
 37.83234   -101.8 1.196e+04 7.603e-10
 37.85213   -103.1 1.219e+04 9.803e-10
 37.88695   -101.6 1.198e+04 8.242e-10
 37.92651   -100.1 1.174e+04 6.325e-10
 37.96608    -98.4 1.151e+04 4.605e-10
 38.00564    -96.6 1.129e+04 3.302e-10
 38.04520    -94.6 1.110e+04 2.418e-10
 38.07951    -92.4 1.096e+04 1.862e-10
 38.09929    -93.0 1.100e+04 2.374e-10
 38.12433    -90.6 1.090e+04 1.952e-10
 38.16389    -88.2 1.087e+04 1.714e-10
 38.20345    -85.8 1.087e+04 1.585e-10
 38.24302    -83.3 1.088e+04 1.509e-10
 38.28258    -80.8 1.090e+04 1.457e-10
 38.32214    -78.4 1.093e+04 1.416e-10
 38.34646    -76.0 1.098e+04 1.401e-10
 38.36624    -76.2 1.099e+04 1.699e-10
 38.40127    -73.8 1.101e+04 1.675e-10
 38.44083    -71.5 1.103e+04 1.687e-10
 38.48040    -69.0 1.105e+04 1.713e-10
 38.51996    -66.6 1.104e+04 1.751e-10
 38.55871    -64.1 1.099e+04 1.804e-10
 38.57849    -64.3 1.106e+04 1.970e-10
 38.59362    -61.9 1.098e+04 1.878e-10
 38.61340    -61.7 1.107e+04 1.941e-10
 38.63865    -59.5 1.101e+04 1.842e-10
 38.67821    -57.3 1.102e+04 1.741e-10
 38.71777    -55.3 1.103e+04 1.715e-10
 38.75734    -53.5 1.110e+04 1.779e-10
 38.79690    -51.8 1.109e+04 1.964e-10
 38.83646    -49.9 1.108e+04 2.165e-10
 38.86057    -48.0 1.111e+04 2.292e-10
 38.88035    -48.0 1.123e+04 2.365e-10
 38.91559    -46.5 1.136e+04 2.524e-10
 38.95515    -45.3 1.146e+04 2.927e-10
 38.99472    -44.1 1.144e+04 3.579e-10
 39.03428    -42.2 1.148e+04 4.325e-10
 39.07384    -39.9 1.153e+04 4.706e-10
 39.10773    -37.7 1.148e+04 4.681e-10
 39.12751    -38.0 1.172e+04 5.463e-10
 39.15297    -35.6 1.183e+04 5.319e-10
 39.19253    -33.6 1.201e+04 5.306e-10
 39.23209    -31.8 1.207e+04 6.205e-10
 39.27166    -29.6 1.232e+04 8.037e-10
 39.31122    -27.4 1.263e+04 1.002e-09
 39.35078    -25.7 1.311e+04 1.256e-09
 39.37468    -24.2 1.335e+04 1.664e-09
 39.39446    -25.0 1.367e+04 2.380e-09
 39.42715    -23.3 1.365e+04 2.497e-09
 39.44693    -24.1 1.322e+04 2.152e-09
 39.46947    -21.8 1.296e+04 1.733e-09
 39.50904    -19.7 1.262e+04 1.341e-09
 39.54860    -17.8 1.229e+04 1.105e-09
 39.58816    -15.8 1.198e+04 9.734e-10
 39.62184    -13.3 1.178e+04 9.094e-10
 39.64162    -13.7 1.127e+04 6.075e-10
 39.66729    -11.1 1.125e+04 5.875e-10
 39.70685     -8.5 1.126e+04 5.665e-10
 39.74641     -6.0 1.127e+04 5.450e-10
 39.78598     -3.6 1.127e+04 5.200e-10
 39.82554     -1.3 1.129e+04 4.952e-10
 39.86510      0.9 1.131e+04 4.671e-10
 39.88879      3.0 1.135e+04 4.554e-10
 39.90857      3.1 1.123e+04 4.431e-10
 39.94423      5.2 1.123e+04 4.362e-10
 39.98379      7.3 1.117e+04 4.129e-10
 40.02335      9.5 1.103e+04 3.715e-10
 40.06292     11.8 1.089e+04 3.179e-10
 40.10248     14.0 1.079e+04 2.624e-10
 40.13595     16.2 1.073e+04 2.170e-10
 40.15574     16.3 1.073e+04 2.236e-10
 40.18161     18.3 1.070e+04 1.978e-10
 40.22117     20.3 1.064e+04 1.997e-10
 40.26073     22.3 1.063e+04 2.087e-10
 40.29560     24.3 1.058e+04 2.260e-10
 40.31538     24.0 1.051e+04 2.704e-10
 40.33986     26.0 1.044e+04 2.725e-10
 40.37942     28.0 1.032e+04 2.611e-10
 40.40290     30.2 1.022e+04 2.363e-10
 40.42268     30.2 1.012e+04 2.180e-10
 40.45855     32.4 9.996e+03 1.795e-10
 40.49811     34.6 9.911e+03 1.468e-10
 40.53767     36.7 9.850e+03 1.240e-10
 40.57724     38.8 9.819e+03 1.139e-10
 40.61680     41.2 9.825e+03 1.149e-10
 40.65007     43.4 9.854e+03 1.209e-10
 40.66985     43.3 9.843e+03 1.090e-10
 40.69593     45.4 9.918e+03 1.349e-10
 40.73549     47.4 1.010e+04 1.908e-10
 40.77505     49.4 1.043e+04 2.816e-10
 40.81462     51.2 1.080e+04 4.041e-10
 40.85418     52.7 1.114e+04 5.467e-10
 40.89374     54.1 1.124e+04 5.877e-10
 40.91701     55.4 1.127e+04 5.618e-10
 40.93679     55.2 1.112e+04 4.593e-10
 40.97287     56.4 1.109e+04 3.877e-10
 41.01243     57.4 1.102e+04 3.129e-10
 41.05199     58.2 1.100e+04 2.868e-10
 41.09156     59.3 1.104e+04 2.938e-10
 41.13112     60.1 1.127e+04 3.363e-10
 41.16405     60.1 1.158e+04 4.509e-10
 41.18383     60.8 1.133e+04 3.512e-10
 41.21025     60.5 1.159e+04 4.831e-10
 41.23982     60.2 1.175e+04 6.679e-10
 41.25950     60.1 1.196e+04 9.191e-10
 41.27929     60.1 1.223e+04 1.188e-09
 41.29745     60.1 1.255e+04 1.306e-09
 41.30735     59.8 1.245e+04 1.188e-09
 41.31885     59.4 1.258e+04 1.191e-09
 41.33863     58.6 1.260e+04 1.142e-09
 41.35841     57.6 1.257e+04 1.011e-09
 41.37819     56.5 1.245e+04 8.644e-10
 41.39797     55.3 1.224e+04 7.777e-10
 41.41776     54.4 1.215e+04 7.767e-10
 41.43093     53.6 1.217e+04 8.035e-10
 41.44082     53.6 1.215e+04 7.974e-10
 41.45732     52.8 1.227e+04 8.974e-10
 41.47710     52.0 1.252e+04 1.117e-09
 41.49688     51.3 1.276e+04 1.446e-09
 41.51666     50.8 1.296e+04 1.812e-09
 41.53645     50.4 1.318e+04 2.063e-09
 41.55451     49.9 1.328e+04 2.080e-09
 41.56440     50.3 1.318e+04 1.944e-09
 41.57601     49.7 1.317e+04 1.917e-09
 41.59579     49.2 1.310e+04 1.733e-09
 41.60797     48.7 1.293e+04 1.420e-09
 41.61786     48.3 1.290e+04 1.387e-09
 41.64534     47.7 1.253e+04 9.847e-10
 41.67829     47.3 1.202e+04 5.860e-10
 41.69807     48.5 1.210e+04 6.180e-10
 41.72457     48.1 1.165e+04 3.629e-10
 41.76413     47.9 1.157e+04 3.038e-10
 41.80369     48.2 1.156e+04 3.084e-10
 41.84325     48.8 1.156e+04 3.436e-10
 41.88282     49.5 1.165e+04 4.184e-10
 41.92238     50.3 1.175e+04 5.047e-10
 41.94523     51.0 1.180e+04 5.592e-10
 41.96502     50.9 1.184e+04 5.875e-10
 42.00151     51.7 1.178e+04 5.560e-10
 42.03249     52.7 1.161e+04 4.644e-10
 42.05228     52.4 1.160e+04 4.619e-10
 42.08063     53.8 1.140e+04 3.376e-10
 42.12020     55.4 1.125e+04 2.264e-10
 42.15976     56.9 1.117e+04 1.523e-10
 42.19240     58.3 1.105e+04 1.160e-10
 42.21218     58.3 1.094e+04 1.067e-10
 42.23888     60.0 1.081e+04 1.035e-10
 42.27845     62.0 1.081e+04 1.030e-10
 42.31801     64.0 1.082e+04 1.034e-10
 42.35757     66.0 1.088e+04 1.051e-10
 42.39714     68.0 1.094e+04 1.075e-10
 42.43670     70.0 1.099e+04 1.106e-10
 42.45935     71.9 1.100e+04 1.147e-10
 42.47913     72.1 1.102e+04 1.129e-10
 42.51583     73.9 1.102e+04 1.196e-10
 42.55539     75.6 1.101e+04 1.338e-10
 42.59495     77.0 1.101e+04 1.666e-10
 42.63451     78.4 1.116e+04 2.546e-10
 42.67408     79.7 1.156e+04 4.870e-10
 42.70651     80.7 1.237e+04 1.025e-09
 42.72629     80.7 1.242e+04 1.059e-09
 42.75320     80.8 1.324e+04 1.861e-09
 42.78278     80.4 1.398e+04 2.721e-09
 42.80246     79.8 1.443e+04 3.404e-09
 42.82224     79.0 1.461e+04 3.647e-09
 42.83979     78.1 1.458e+04 3.582e-09
 42.84968     77.9 1.460e+04 3.613e-09
 42.86181     77.3 1.431e+04 3.116e-09
 42.88159     76.8 1.410e+04 2.732e-09
 42.90084     76.2 1.348e+04 1.827e-09
 42.92072     75.6 1.369e+04 2.102e-09
 42.94103     74.8 1.312e+04 1.511e-09
 42.96071     74.5 1.284e+04 1.261e-09
 42.97326     74.6 1.267e+04 1.116e-09
 42.98315     74.6 1.257e+04 1.095e-09
 43.00028     74.9 1.241e+04 9.995e-10
 43.02006     75.4 1.227e+04 9.082e-10
 43.03984     75.9 1.216e+04 8.246e-10
 43.05962     76.4 1.208e+04 7.531e-10
 43.07940     77.0 1.202e+04 7.023e-10
 43.09684     77.4 1.199e+04 6.702e-10
 43.10674     77.3 1.195e+04 6.331e-10
 43.11897     77.8 1.194e+04 6.208e-10
 43.13875     78.3 1.197e+04 6.232e-10
 43.15853     78.7 1.203e+04 6.355e-10
 43.17831     79.0 1.213e+04 6.612e-10
 43.19809     79.2 1.225e+04 6.943e-10
 43.21787     79.3 1.236e+04 7.270e-10
 43.23032     79.3 1.246e+04 7.447e-10
 43.24021     79.0 1.248e+04 7.555e-10
 43.26743     78.9 1.267e+04 8.943e-10
 43.30709     78.6 1.258e+04 8.594e-10
 43.34665     78.0 1.244e+04 8.095e-10
 43.38621     77.8 1.230e+04 7.479e-10
 43.42578     77.8 1.213e+04 6.676e-10
 43.46534     78.2 1.198e+04 5.735e-10
 43.48757     79.0 1.180e+04 4.815e-10
 43.50735     78.8 1.178e+04 4.729e-10
 43.54446     80.1 1.162e+04 4.378e-10
 43.58403     81.7 1.162e+04 4.388e-10
 43.62359     83.2 1.165e+04 4.689e-10
 43.66315     84.7 1.178e+04 5.808e-10
 43.70272     86.3 1.225e+04 8.543e-10
 43.73473     87.7 1.289e+04 1.271e-09
 43.75452     87.9 1.304e+04 1.364e-09
 43.76929     87.7 1.346e+04 1.708e-09
 43.77908     86.6 1.347e+04 1.779e-09
 43.79154     86.6 1.381e+04 2.107e-09
 43.81132     86.5 1.396e+04 2.247e-09
 43.83110     86.4 1.394e+04 2.208e-09
 43.85088     86.3 1.381e+04 2.061e-09
 43.86801     86.2 1.358e+04 1.806e-09
 43.87790     86.0 1.350e+04 1.696e-09
 43.90043     85.7 1.302e+04 1.317e-09
 43.94010     85.8 1.255e+04 1.011e-09
 43.96967     86.0 1.236e+04 9.470e-10
 43.98935     86.1 1.225e+04 9.035e-10
 44.00148     86.2 1.213e+04 8.501e-10
 44.01138     86.0 1.208e+04 8.488e-10
 44.02892     86.1 1.193e+04 7.928e-10
 44.04870     86.2 1.175e+04 7.449e-10
 44.06848     86.3 1.154e+04 7.092e-10
 44.08826     86.4 1.135e+04 6.755e-10
 44.10804     86.5 1.119e+04 6.349e-10
 44.12507     86.4 1.105e+04 5.617e-10
 44.13496     85.8 1.089e+04 4.681e-10
 44.14761     85.6 1.081e+04 4.277e-10
 44.17738     86.1 1.073e+04 4.010e-10
 44.21704     87.0 1.049e+04 3.371e-10
 44.24885     88.2 1.012e+04 2.549e-10
 44.26863     88.4 9.750e+03 1.813e-10
 44.29616     89.7 9.500e+03 1.399e-10
 44.33573     90.9 9.348e+03 1.143e-10
 44.37529     92.0 9.230e+03 1.027e-10
 44.41485     93.3 9.142e+03 1.014e-10
 44.45441     94.5 9.137e+03 1.022e-10
 44.49398     95.7 9.122e+03 1.084e-10
 44.51579     96.9 9.113e+03 1.207e-10
 44.53557     97.0 9.107e+03 1.333e-10
 44.57310     98.2 9.086e+03 1.487e-10
 44.61267     99.3 9.043e+03 1.595e-10
 44.63783    100.3 8.995e+03 1.666e-10
 44.65762     99.9 8.910e+03 1.387e-10
 44.69179    100.9 8.872e+03 1.511e-10
 44.73136    101.8 8.895e+03 1.766e-10
 44.76296    102.6 8.960e+03 2.149e-10
 44.78274    102.5 9.079e+03 2.664e-10
 44.81048    103.1 9.079e+03 3.028e-10
 44.85004    103.7 9.031e+03 3.045e-10
 44.88961    104.2 8.908e+03 2.933e-10
 44.92917    104.7 8.719e+03 2.711e-10
 44.96873    105.2 8.614e+03 2.598e-10
 45.00830    105.5 8.620e+03 2.620e-10
 45.02990    105.7 8.674e+03 2.763e-10
 45.04968    105.8 8.520e+03 2.531e-10
 45.08742    105.9 8.628e+03 2.813e-10
 45.12699    105.9 8.762e+03 3.221e-10
 45.16655    106.0 8.892e+03 3.646e-10
 45.20611    106.1 8.982e+03 3.985e-10
 45.24568    106.3 9.031e+03 4.179e-10
 45.27707    106.5 9.064e+03 4.284e-10
 45.29685    107.2 8.834e+03 3.845e-10
 45.32480    107.7 8.809e+03 3.817e-10
 45.36436    108.4 8.796e+03 3.829e-10
 45.40393    109.2 8.794e+03 3.862e-10
 45.44349    109.9 8.783e+03 3.886e-10
 45.48305    110.7 8.746e+03 3.868e-10
 45.50628    111.5 8.696e+03 3.808e-10
 45.52606    112.0 9.005e+03 4.539e-10
 45.54401    112.8 9.013e+03 4.603e-10
 45.56380    114.0 8.889e+03 4.337e-10
 45.60174    114.8 8.912e+03 4.422e-10
 45.64131    115.6 8.973e+03 4.564e-10
 45.68087    116.4 9.113e+03 4.941e-10
 45.71044    117.2 9.102e+03 4.975e-10
 45.73013    117.6 9.136e+03 5.138e-10
 45.74991    118.1 9.308e+03 5.814e-10
 45.76969    118.6 9.592e+03 6.956e-10
 45.78947    119.0 9.921e+03 8.392e-10
 45.80087    119.3 1.027e+04 1.003e-09
 45.81077    119.9 1.001e+04 8.743e-10
 45.82903    120.1 1.035e+04 1.038e-09
 45.84882    120.2 1.069e+04 1.211e-09
 45.86860    120.2 1.105e+04 1.399e-09
 45.88838    120.2 1.140e+04 1.586e-09
 45.90816    119.9 1.165e+04 1.698e-09
 45.92446    119.4 1.169e+04 1.706e-09
 45.93435    120.3 1.129e+04 1.458e-09
 45.94031    119.9 1.129e+04 1.453e-09
 45.95020    119.9 1.130e+04 1.464e-09
 45.96751    119.6 1.123e+04 1.396e-09
 45.98729    119.2 1.106e+04 1.264e-09
 46.00707    118.8 1.083e+04 1.105e-09
 46.02685    118.4 1.057e+04 9.560e-10
 46.04663    118.0 1.033e+04 8.234e-10
 46.05793    117.6 1.011e+04 7.166e-10
 46.06782    118.5 1.023e+04 7.605e-10
 46.08619    118.1 1.005e+04 6.710e-10
 46.10598    117.7 9.907e+03 6.065e-10
 46.12576    117.4 9.830e+03 5.713e-10
 46.14554    117.2 9.806e+03 5.539e-10
 46.16532    116.9 9.801e+03 5.427e-10
 46.18151    116.6 9.851e+03 5.276e-10
 46.19140    117.0 9.843e+03 5.201e-10
 46.20488    116.8 9.850e+03 5.180e-10
 46.23465    117.2 9.853e+03 4.979e-10
 46.27431    117.7 9.810e+03 4.518e-10
 46.30529    118.5 9.741e+03 3.963e-10
 46.32507    119.3 9.715e+03 3.918e-10
 46.35344    120.1 9.661e+03 3.425e-10
 46.37473    121.1 9.631e+03 3.011e-10
 46.39451    120.8 9.515e+03 2.638e-10
 46.43257    122.1 9.492e+03 2.291e-10
 46.47213    123.6 9.551e+03 2.061e-10
 46.51169    125.3 9.598e+03 2.023e-10
 46.55126    127.0 9.657e+03 2.029e-10
 46.57224    128.8 9.834e+03 2.086e-10
 46.59202    129.2 9.733e+03 1.860e-10
 46.63038    131.0 1.000e+04 2.026e-10
 46.66994    132.9 1.034e+04 2.354e-10
 46.70951    134.8 1.069e+04 2.867e-10
 46.74907    136.5 1.096e+04 3.491e-10
 46.77865    137.1 1.103e+04 3.843e-10
 46.79833    137.9 1.110e+04 4.311e-10
 46.80876    138.7 1.125e+04 5.236e-10
 46.81865    139.3 1.114e+04 4.787e-10
 46.82910    140.2 1.136e+04 6.000e-10
 46.83899    140.2 1.137e+04 6.047e-10
 46.85767    140.8 1.168e+04 7.901e-10
 46.87746    141.3 1.204e+04 1.036e-09
 46.89724    141.5 1.243e+04 1.359e-09
 46.91702    141.6 1.283e+04 1.784e-09
 46.93680    141.7 1.323e+04 2.309e-09
 46.95268    141.8 1.360e+04 2.891e-09
 46.96257    141.9 1.339e+04 2.692e-09
 46.97636    142.1 1.353e+04 2.894e-09
 46.99614    142.4 1.352e+04 2.864e-09
 47.01593    142.6 1.343e+04 2.704e-09
 47.03571    143.0 1.319e+04 2.342e-09
 47.05549    143.5 1.283e+04 1.885e-09
 47.07527    144.0 1.243e+04 1.453e-09
 47.08615    144.4 1.203e+04 1.106e-09
 47.09604    144.2 1.155e+04 7.401e-10
 47.11483    144.4 1.126e+04 5.871e-10
 47.13461    144.9 1.105e+04 5.058e-10
 47.15440    145.5 1.091e+04 4.707e-10
 47.18417    146.8 1.071e+04 4.031e-10
 47.22339    149.0 1.070e+04 4.159e-10
 47.24308    149.8 1.069e+04 4.460e-10
 47.25330    150.9 1.067e+04 4.619e-10
 47.27309    151.8 1.068e+04 4.908e-10
 47.29287    153.0 1.077e+04 5.556e-10
 47.31265    154.1 1.095e+04 6.456e-10
 47.33243    155.0 1.122e+04 7.657e-10
 47.34321    155.7 1.158e+04 9.450e-10
 47.35310    156.5 1.143e+04 8.649e-10
 47.37199    156.9 1.187e+04 1.108e-09
 47.39177    157.0 1.238e+04 1.487e-09
 47.41156    157.1 1.300e+04 2.099e-09
 47.43134    157.1 1.373e+04 3.060e-09
 47.45112    157.1 1.458e+04 4.481e-09
 47.46679    157.2 1.550e+04 6.406e-09
 47.47668    158.3 1.561e+04 6.517e-09
 47.49068    158.3 1.664e+04 9.202e-09
 47.51046    157.7 1.751e+04 1.172e-08
 47.53025    156.5 1.813e+04 1.345e-08
 47.55003    154.7 1.858e+04 1.450e-08
 47.56981    152.1 1.895e+04 1.500e-08
 47.58959    148.6 1.936e+04 1.551e-08
 47.60026    144.4 1.980e+04 1.673e-08
 47.61016    146.1 2.002e+04 1.719e-08
 47.62915    141.6 2.048e+04 1.951e-08
 47.64893    136.9 2.089e+04 2.200e-08
 47.66731    131.8 2.100e+04 2.262e-08
 47.67720    131.2 2.034e+04 1.978e-08
 47.68850    126.8 2.034e+04 1.970e-08
 47.70828    122.6 2.015e+04 1.848e-08
 47.72385    118.9 1.950e+04 1.513e-08
 47.73374    120.1 1.936e+04 1.482e-08
 47.74784    117.0 1.851e+04 1.142e-08
 47.76762    114.4 1.754e+04 8.307e-09
 47.78741    111.6 1.682e+04 6.106e-09
 47.80719    108.5 1.645e+04 4.890e-09
 47.82697    105.4 1.626e+04 4.540e-09
 47.84675    102.9 1.603e+04 4.487e-09
 47.85732    101.3 1.570e+04 4.362e-09
 47.86721    103.0 1.520e+04 3.315e-09
 47.88631    101.7 1.484e+04 3.122e-09
 47.90609    100.8 1.441e+04 2.755e-09
 47.92588     99.9 1.390e+04 2.168e-09
 47.94566     98.8 1.331e+04 1.572e-09
 47.96544     97.5 1.266e+04 9.665e-10
 47.98090     96.5 1.211e+04 6.816e-10
 47.99079     97.4 1.233e+04 7.976e-10
 48.01499     96.3 1.155e+04 4.683e-10
 48.05465     94.4 1.064e+04 3.092e-10
 48.09184     93.2 1.047e+04 3.067e-10
 48.11162     92.5 1.040e+04 3.002e-10
 48.11447     92.2 1.040e+04 3.163e-10
 48.12427     92.6 1.042e+04 3.391e-10
 48.14347     92.1 1.049e+04 3.846e-10
 48.16325     91.7 1.067e+04 4.623e-10
 48.18304     91.4 1.089e+04 5.615e-10
 48.20282     91.2 1.110e+04 6.658e-10
 48.22260     90.9 1.129e+04 7.632e-10
 48.23796     90.6 1.146e+04 8.536e-10
 48.24785     90.8 1.158e+04 9.155e-10
 48.26216     90.3 1.180e+04 1.038e-09
 48.28194     89.8 1.199e+04 1.161e-09
 48.30172     89.3 1.216e+04 1.281e-09
 48.32151     88.9 1.231e+04 1.388e-09
 48.34129     88.6 1.241e+04 1.467e-09
 48.36107     88.2 1.241e+04 1.490e-09
 48.37143     87.9 1.237e+04 1.472e-09
 48.38132     87.9 1.261e+04 1.613e-09
 48.40063     87.7 1.243e+04 1.488e-09
 48.42041     87.5 1.220e+04 1.324e-09
 48.44020     87.3 1.195e+04 1.155e-09
 48.45998     86.8 1.174e+04 9.951e-10
 48.47976     86.1 1.163e+04 8.574e-10
 48.49501     85.2 1.154e+04 8.563e-10
 48.50490     84.6 1.185e+04 9.618e-10
 48.51932     83.7 1.185e+04 9.971e-10
 48.53576     82.9 1.184e+04 1.041e-09
 48.54565     83.5 1.190e+04 1.020e-09
 48.55888     83.0 1.192e+04 1.087e-09
 48.57867     82.8 1.187e+04 1.077e-09
 48.59845     82.8 1.171e+04 1.007e-09
 48.61823     82.9 1.145e+04 8.613e-10
 48.62849     82.9 1.116e+04 6.906e-10
 48.63838     82.3 1.127e+04 6.968e-10
 48.65779     81.9 1.105e+04 5.497e-10
 48.68756     81.7 1.061e+04 4.248e-10
 48.72722     82.9 1.023e+04 3.522e-10
 48.76679     84.5 1.006e+04 3.049e-10
 48.80635     86.4 9.901e+03 2.532e-10
 48.84591     88.3 9.739e+03 1.963e-10
 48.87585     90.4 9.541e+03 1.414e-10
 48.89563     90.2 9.724e+03 1.487e-10
 48.92504     92.3 9.559e+03 1.018e-10
 48.96029     94.4 9.341e+03 7.650e-11
 48.98007     94.6 9.521e+03 1.052e-10
 49.00416     97.0 9.444e+03 1.037e-10
 49.04373     99.5 9.435e+03 1.047e-10
 49.08329    102.0 9.410e+03 1.113e-10
 49.12285    104.5 9.420e+03 1.302e-10
 49.16242    107.5 9.704e+03 2.371e-10
 49.20198    110.3 1.000e+04 3.175e-10
 49.24154    113.0 1.041e+04 4.354e-10
 49.26628    114.0 1.055e+04 4.840e-10
 49.27607    113.9 1.063e+04 5.193e-10
 49.29080    114.5 1.087e+04 6.359e-10
 49.31058    115.2 1.116e+04 8.182e-10
 49.33036    115.9 1.149e+04 1.059e-09
 49.35015    116.6 1.183e+04 1.346e-09
 49.36993    117.3 1.219e+04 1.677e-09
 49.38971    117.9 1.258e+04 2.027e-09
 49.40421    118.6 1.253e+04 1.935e-09
 49.41410    118.8 1.231e+04 1.784e-09
 49.42927    119.0 1.229e+04 1.748e-09
 49.44905    119.3 1.217e+04 1.633e-09
 49.46883    119.6 1.196e+04 1.456e-09
 49.48862    120.0 1.170e+04 1.254e-09
 49.50840    120.5 1.142e+04 1.056e-09
 49.52324    120.9 1.116e+04 8.869e-10
 49.53313    121.6 1.089e+04 7.489e-10
 49.54796    122.0 1.074e+04 6.641e-10
 49.56774    122.6 1.067e+04 6.073e-10
 49.58752    122.7 1.063e+04 5.823e-10
 49.60730    122.8 1.064e+04 5.825e-10
 49.63703    123.0 1.066e+04 5.848e-10
 49.67669    125.7 1.048e+04 5.329e-10
 49.71630    126.1 1.052e+04 5.524e-10
 49.75586    126.4 1.060e+04 5.836e-10
 49.79542    126.6 1.070e+04 6.113e-10
 49.82873    126.6 1.071e+04 6.152e-10
 49.84852    127.9 1.067e+04 5.916e-10
 49.87455    128.1 1.062e+04 5.577e-10
 49.90407    128.5 1.044e+04 4.928e-10
 49.92385    130.2 1.046e+04 4.942e-10
 49.95368    130.6 1.021e+04 4.234e-10
 49.99324    131.5 9.918e+03 3.610e-10
 50.03280    132.6 9.620e+03 3.254e-10
 50.07237    134.2 9.523e+03 3.227e-10
 50.11193    136.0 9.520e+03 3.268e-10
 50.15124    137.9 9.533e+03 3.474e-10
 50.17102    138.7 9.527e+03 3.422e-10
 50.19105    140.4 9.623e+03 3.912e-10
 50.23062    142.2 9.801e+03 4.664e-10
 50.27018    143.9 9.973e+03 5.442e-10
 50.30974    145.4 1.003e+04 5.647e-10
 50.34931    147.0 9.967e+03 5.375e-10
 50.38887    148.6 9.720e+03 4.391e-10
 50.41818    150.4 9.298e+03 3.051e-10
 50.43796    151.0 9.400e+03 3.048e-10
 50.46800    152.8 8.773e+03 1.754e-10
 50.50756    154.5 7.997e+03 9.785e-11
 50.54712    156.3 7.695e+03 7.122e-11
 50.58669    158.6 7.679e+03 6.938e-11
 50.62625    161.3 7.635e+03 7.116e-11
 50.66535    164.1 7.583e+03 7.827e-11
 50.68513    164.5 7.609e+03 7.847e-11
 50.69718    167.4 7.660e+03 8.950e-11
 50.71696    168.3 7.602e+03 1.040e-10
 50.74494    171.1 7.575e+03 1.208e-10
 50.78450    174.0 7.679e+03 1.411e-10
 50.82406    177.0 7.845e+03 1.651e-10
 50.86363    180.1 8.105e+03 2.000e-10
 50.90319    183.4 8.406e+03 2.444e-10
 50.93229    186.5 8.679e+03 2.950e-10
 50.95207    187.3 8.995e+03 3.300e-10
 50.97233    188.5 8.986e+03 3.444e-10
 50.99201    189.7 9.001e+03 3.592e-10
 51.01179    191.3 9.014e+03 3.879e-10
 51.03157    193.0 9.090e+03 4.347e-10
 51.05136    194.7 9.268e+03 5.027e-10
 51.06557    196.4 9.524e+03 5.949e-10
 51.07546    196.5 9.750e+03 6.409e-10
 51.09092    197.9 1.011e+04 7.633e-10
 51.11070    199.1 1.058e+04 9.364e-10
 51.13048    200.0 1.144e+04 1.215e-09
 51.14110    200.7 1.282e+04 1.746e-09
 51.15099    201.5 1.231e+04 1.600e-09
 51.17004    202.4 1.361e+04 2.413e-09
 51.18915    203.6 1.517e+04 3.768e-09
 51.19904    203.1 1.764e+04 6.682e-09
 51.20461    203.9 1.815e+04 7.873e-09
 51.21446    204.5 1.882e+04 9.053e-09
 51.22435    204.8 1.983e+04 1.082e-08
 51.23424    204.8 2.116e+04 1.382e-08
 51.24413    204.5 2.259e+04 1.942e-08
 51.25402    204.2 2.375e+04 2.955e-08
 51.26074    203.7 2.448e+04 4.656e-08
 51.26568    203.0 2.388e+04 1.035e-07
 51.27380    202.5 2.384e+04 1.566e-07
 51.28369    201.0 2.420e+04 1.947e-07
 51.29358    198.6 2.446e+04 2.125e-07
 51.30347    195.4 2.471e+04 2.092e-07
 51.31336    191.9 2.488e+04 2.000e-07
 51.32253    188.8 2.461e+04 1.934e-07
 51.32747    187.3 2.521e+04 1.681e-07
 51.33314    184.7 2.493e+04 1.313e-07
 51.34304    183.1 2.431e+04 9.760e-08
 51.35293    182.0 2.372e+04 7.026e-08
 51.35811    181.3 2.342e+04 5.059e-08
 51.36306    180.6 2.463e+04 4.381e-08
 51.37271    179.4 2.491e+04 3.008e-08
 51.38260    178.5 2.520e+04 2.132e-08
 51.38927    177.9 2.543e+04 1.482e-08
 51.39421    172.3 2.063e+04 3.079e-09
 51.40238    171.0 1.949e+04 2.174e-09
 51.41227    169.3 1.781e+04 1.541e-09
 51.42216    167.0 1.585e+04 1.160e-09
 51.43205    165.3 1.393e+04 9.838e-10
 51.44194    162.4 1.232e+04 8.868e-10
 51.45106    160.6 1.166e+04 8.597e-10
 51.45605    160.9 1.089e+04 8.104e-10
 51.46177    158.5 1.092e+04 8.211e-10
 51.47162    157.1 1.100e+04 8.336e-10
 51.48151    155.4 1.176e+04 8.890e-10
 51.49140    150.2 1.656e+04 1.239e-09
 51.50129    139.3 2.595e+04 4.299e-09
 51.51118    129.5 2.752e+04 1.797e-08
 51.51779    123.4 2.404e+04 4.147e-08
 51.52274    128.0 2.658e+04 2.327e-08
 51.53096    123.4 2.311e+04 4.265e-08
 51.54085    122.3 2.233e+04 4.326e-08
 51.55074    122.5 2.154e+04 3.937e-08
 51.56538    121.5 2.263e+04 1.234e-08
 51.57528    123.2 2.137e+04 2.600e-08
 51.57963    122.4 2.354e+04 9.537e-09
 51.58458    124.4 2.194e+04 2.277e-08
 51.59030    123.7 2.360e+04 1.054e-08
 51.60519    123.7 2.540e+04 6.536e-09
 51.62502    116.8 3.122e+04 6.884e-10
 51.64480    107.7 1.562e+04 4.590e-10
 51.66458    102.9 8.874e+03 5.238e-10
 51.69347    104.5 9.554e+03 4.285e-10
 51.71325    103.4 8.265e+03 5.992e-10
 51.73392    105.6 9.748e+03 5.332e-10
 51.77358    106.8 1.001e+04 4.807e-10
 51.81314    108.4 1.001e+04 4.439e-10
 51.85270    109.9 9.942e+03 3.906e-10
 51.89227    111.3 9.798e+03 3.336e-10
 51.93183    112.7 9.659e+03 2.824e-10
 51.96052    114.2 9.686e+03 2.658e-10
 51.98030    114.1 9.575e+03 2.360e-10
 52.01095    115.7 9.602e+03 2.397e-10
 52.05052    117.1 9.745e+03 2.640e-10
 52.09008    117.8 1.000e+04 3.275e-10
 52.12964    118.4 1.042e+04 4.821e-10
 52.16921    118.9 1.111e+04 7.957e-10
 52.20768    119.2 1.169e+04 1.139e-09
 52.22746    120.2 1.116e+04 8.476e-10
 52.24833    120.0 1.153e+04 1.004e-09
 52.28790    119.5 1.181e+04 1.091e-09
 52.32746    118.9 1.192e+04 1.119e-09
 52.36702    118.5 1.191e+04 1.107e-09
 52.40658    118.5 1.185e+04 1.065e-09
 52.43408    118.7 1.174e+04 9.962e-10
 52.45386    118.1 1.125e+04 7.112e-10
 52.47463    118.4 1.093e+04 5.859e-10
 52.49441    118.1 1.176e+04 9.796e-10
 52.52527    118.7 1.154e+04 8.335e-10
 52.56484    119.6 1.130e+04 6.822e-10
 52.60440    120.6 1.109e+04 5.591e-10
 52.64396    121.8 1.086e+04 4.660e-10
 52.68353    123.2 1.054e+04 3.945e-10
 52.72179    124.7 1.014e+04 3.387e-10
 52.74157    124.3 1.153e+04 7.962e-10
 52.76265    126.2 1.110e+04 6.855e-10
 52.80222    128.3 1.067e+04 5.802e-10
 52.84178    130.8 1.027e+04 4.864e-10
 52.88134    133.4 9.943e+03 4.180e-10
 52.92090    136.0 9.721e+03 3.767e-10
 52.96047    138.5 9.613e+03 3.556e-10
 52.98874    141.0 9.548e+03 3.425e-10
 53.00852    141.5 1.065e+04 7.385e-10
 53.03959    143.9 1.075e+04 7.617e-10
 53.07916    146.0 1.082e+04 7.731e-10
 53.11872    147.8 1.087e+04 7.696e-10
 53.15828    149.4 1.082e+04 7.358e-10
 53.19785    150.7 1.072e+04 6.903e-10
 53.23590    152.0 1.061e+04 6.414e-10
 53.25559    152.1 1.163e+04 1.046e-09
 53.27687    153.2 1.183e+04 1.143e-09
 53.30252    154.5 1.130e+04 8.770e-10
 53.32230    153.5 1.102e+04 8.359e-10
 53.35610    155.3 1.039e+04 6.279e-10
 53.39566    157.4 9.739e+03 4.504e-10
 53.43522    159.6 9.175e+03 3.199e-10
 53.47479    161.9 8.763e+03 2.349e-10
 53.50285    164.2 8.567e+03 1.857e-10
 53.52263    163.9 8.495e+03 1.550e-10
 53.55391    166.5 8.502e+03 1.515e-10
 53.59348    169.4 8.503e+03 1.518e-10
 53.63304    172.3 8.532e+03 1.546e-10
 53.67260    175.1 8.611e+03 1.621e-10
 53.71217    178.0 8.772e+03 1.758e-10
 53.75001    180.8 9.006e+03 1.978e-10
 53.76980    181.2 9.311e+03 2.315e-10
 53.78130    182.3 9.353e+03 2.396e-10
 53.80099    183.2 9.427e+03 2.540e-10
 53.82077    184.1 9.516e+03 2.894e-10
 53.84055    185.1 9.792e+03 3.500e-10
 53.86033    186.1 1.034e+04 4.430e-10
 53.88011    186.2 1.139e+04 5.952e-10
 53.89318    185.8 1.311e+04 8.692e-10
 53.90307    184.8 1.554e+04 1.942e-09
 53.91968    184.5 1.707e+04 3.327e-09
 53.93946    183.6 1.794e+04 5.458e-09
 53.95924    182.4 1.854e+04 8.336e-09
 53.97902    180.2 1.930e+04 1.266e-08
 53.99381    178.1 1.994e+04 1.848e-08
 54.00365    176.7 2.050e+04 2.545e-08
 54.01354    175.6 2.087e+04 2.692e-08
 54.02161    174.5 2.101e+04 2.779e-08
 54.02656    173.1 2.226e+04 4.360e-08
 54.03332    172.8 2.229e+04 4.060e-08
 54.04321    172.5 2.236e+04 3.652e-08
 54.05310    172.1 2.240e+04 3.236e-08
 54.06299    171.8 2.233e+04 2.882e-08
 54.07288    171.6 2.211e+04 2.588e-08
 54.08278    171.4 2.185e+04 2.380e-08
 54.08835    171.3 2.155e+04 2.244e-08
 54.09330    170.0 2.156e+04 2.305e-08
 54.10256    169.9 2.125e+04 2.216e-08
 54.11245    169.8 2.092e+04 2.161e-08
 54.12234    169.7 2.058e+04 2.085e-08
 54.13722    170.1 2.033e+04 1.968e-08
 54.15024    169.7 1.968e+04 1.710e-08
 54.16013    168.4 1.912e+04 1.663e-08
 54.17077    168.1 1.858e+04 1.381e-08
 54.18066    168.7 1.910e+04 1.603e-08
 54.19662    168.3 1.897e+04 1.435e-08
 54.21640    167.6 1.886e+04 1.224e-08
 54.23618    166.3 1.878e+04 9.932e-09
 54.25596    164.8 1.880e+04 8.374e-09
 54.27075    163.8 1.870e+04 7.648e-09
 54.27867    162.9 1.880e+04 7.443e-09
 54.28361    161.9 1.922e+04 6.749e-09
 54.29048    160.6 1.924e+04 6.689e-09
 54.30037    159.2 1.931e+04 6.787e-09
 54.31026    157.6 1.958e+04 7.133e-09
 54.32015    155.8 2.002e+04 7.857e-09
 54.33004    154.0 2.046e+04 9.078e-09
 54.33994    152.4 2.082e+04 1.091e-08
 54.34541    151.1 2.107e+04 1.342e-08
 54.35035    150.4 1.973e+04 1.114e-08
 54.35972    149.7 2.021e+04 1.407e-08
 54.36961    149.1 2.062e+04 1.756e-08
 54.37950    148.7 2.094e+04 2.133e-08
 54.38779    148.4 2.113e+04 2.454e-08
 54.39273    147.4 2.177e+04 3.102e-08
 54.39928    147.0 2.166e+04 3.090e-08
 54.40720    146.9 2.151e+04 2.962e-08
 54.41214    146.2 2.105e+04 2.951e-08
 54.41906    146.0 2.104e+04 2.993e-08
 54.42895    145.5 2.108e+04 3.002e-08
 54.43884    144.8 2.115e+04 2.992e-08
 54.44873    143.9 2.137e+04 2.979e-08
 54.45862    142.9 2.189e+04 3.005e-08
 54.46852    141.8 2.283e+04 2.934e-08
 54.47393    140.6 2.349e+04 2.777e-08
 54.47888    140.2 2.341e+04 5.270e-08
 54.48830    138.8 2.392e+04 4.880e-08
 54.49819    137.1 2.486e+04 3.851e-08
 54.50808    135.2 2.498e+04 2.752e-08
 54.51797    133.0 2.389e+04 1.951e-08
 54.52786    130.6 2.212e+04 1.473e-08
 54.53572    128.7 2.033e+04 1.214e-08
 54.54067    128.8 2.153e+04 1.554e-08
 54.54764    128.4 2.042e+04 1.222e-08
 54.55753    127.8 1.915e+04 9.003e-09
 54.57242    128.3 1.850e+04 5.864e-09
 54.59225    126.5 1.460e+04 2.118e-09
 54.60500    123.1 1.099e+04 5.998e-10
 54.61489    123.3 1.251e+04 7.741e-10
 54.63181    119.2 1.074e+04 2.874e-10
 54.65159    116.1 9.461e+03 1.981e-10
 54.66435    115.4 9.199e+03 1.904e-10
 54.67424    115.4 9.129e+03 1.876e-10
 54.69115    115.8 9.086e+03 1.860e-10
 54.71094    116.2 9.093e+03 1.883e-10
 54.73072    116.7 9.130e+03 1.955e-10
 54.75050    116.9 9.260e+03 2.185e-10
 54.77028    116.8 9.500e+03 2.702e-10
 54.78793    116.5 9.837e+03 3.727e-10
 54.79782    116.8 9.863e+03 3.726e-10
 54.80984    116.2 1.044e+04 5.771e-10
 54.82963    115.0 1.142e+04 9.942e-10
 54.84941    113.5 1.299e+04 1.894e-09
 54.86919    112.0 1.462e+04 3.673e-09
 54.88897    110.6 1.609e+04 6.559e-09
 54.90875    108.9 1.741e+04 1.000e-08
 54.92141    106.5 1.821e+04 1.138e-08
 54.93130    106.3 1.788e+04 9.561e-09
 54.94831    103.4 1.791e+04 9.470e-09
 54.96810    100.8 1.759e+04 8.603e-09
 54.98788     98.7 1.678e+04 7.010e-09
 55.00766     96.9 1.573e+04 5.428e-09
 55.02744     95.7 1.486e+04 4.268e-09
 55.03922     95.0 1.419e+04 3.486e-09
 55.04688     94.9 1.376e+04 3.034e-09
 55.05488     94.9 1.361e+04 2.787e-09
 55.06700     94.5 1.309e+04 2.108e-09
 55.08679     94.1 1.268e+04 1.654e-09
 55.10657     93.9 1.226e+04 1.364e-09
 55.12635     93.9 1.187e+04 1.200e-09
 55.14613     93.9 1.159e+04 1.130e-09
 55.16591     94.1 1.155e+04 1.137e-09
 55.17846     94.5 1.161e+04 1.179e-09
 55.18835     94.4 1.157e+04 1.138e-09
 55.20547     94.4 1.168e+04 1.227e-09
 55.22526     94.2 1.192e+04 1.400e-09
 55.24504     93.8 1.231e+04 1.698e-09
 55.26482     93.3 1.286e+04 2.154e-09
 55.28460     93.0 1.342e+04 2.766e-09
 55.30204     92.8 1.387e+04 3.345e-09
 55.31193     92.3 1.388e+04 3.343e-09
 55.32416     91.9 1.401e+04 3.467e-09
 55.34395     91.6 1.396e+04 3.405e-09
 55.36373     91.5 1.371e+04 3.096e-09
 55.38351     91.5 1.330e+04 2.575e-09
 55.40329     91.4 1.287e+04 2.064e-09
 55.42307     90.9 1.250e+04 1.674e-09
 55.43552     90.3 1.220e+04 1.415e-09
 55.44541     89.8 1.234e+04 1.480e-09
 55.46263     89.4 1.208e+04 1.355e-09
 55.47344     89.4 1.183e+04 1.292e-09
 55.48334     90.7 1.128e+04 9.368e-10
 55.50220     90.8 1.114e+04 9.084e-10
 55.52198     91.0 1.100e+04 9.139e-10
 55.54176     91.6 1.097e+04 9.251e-10
 55.55910     92.2 1.098e+04 9.632e-10
 55.56899     91.9 1.143e+04 1.192e-09
 55.58132     92.0 1.185e+04 1.346e-09
 55.60110     91.7 1.259e+04 1.647e-09
 55.62089     91.1 1.350e+04 2.207e-09
 55.64067     90.2 1.440e+04 3.154e-09
 55.66045     89.4 1.516e+04 4.581e-09
 55.68023     88.9 1.577e+04 6.346e-09
 55.69257     88.4 1.646e+04 8.248e-09
 55.70246     88.0 1.671e+04 8.556e-09
 55.71979     87.4 1.770e+04 1.006e-08
 55.73958     86.5 1.908e+04 1.042e-08
 55.75936     84.7 2.030e+04 9.734e-09
 55.77914     82.0 2.132e+04 8.089e-09
 55.79892     77.6 2.134e+04 5.903e-09
 55.81616     71.3 1.967e+04 4.768e-09
 55.82605     67.8 1.746e+04 4.328e-09
 55.83349     64.4 1.688e+04 4.544e-09
 55.84333     62.2 1.623e+04 4.630e-09
 55.85322     59.3 1.627e+04 4.856e-09
 55.86311     57.7 1.627e+04 5.013e-09
 55.87800     54.6 1.610e+04 4.604e-09
 55.89778     51.2 1.563e+04 3.843e-09
 55.91256     45.0 1.522e+04 3.110e-09
 55.92246     43.7 1.495e+04 2.878e-09
 55.93734     39.0 1.461e+04 2.531e-09
 55.94963     32.1 1.337e+04 2.222e-09
 55.95952     30.9 1.254e+04 1.849e-09
 55.97695     26.5 1.275e+04 2.185e-09
 55.99674     23.0 1.410e+04 3.316e-09
 56.01652     20.5 1.525e+04 4.341e-09
 56.03630     18.6 1.529e+04 4.241e-09
 56.05608     17.5 1.471e+04 3.293e-09
 56.07321     15.1 1.339e+04 1.465e-09
 56.09309     16.1 1.298e+04 1.347e-09
 56.12551     11.3 1.101e+04 4.264e-10
 56.16507      7.4 9.623e+03 2.249e-10
 56.20464      6.7 9.415e+03 1.992e-10
 56.24420      6.6 9.406e+03 1.892e-10
 56.28376      6.6 9.374e+03 1.760e-10
 56.32057      6.7 9.267e+03 1.612e-10
 56.34035      9.6 9.472e+03 2.007e-10
 56.36289      9.8 9.404e+03 1.859e-10
 56.40245      9.8 9.427e+03 2.009e-10
 56.44201      9.3 9.738e+03 2.839e-10
 56.48158      9.2 1.050e+04 5.325e-10
 56.52114      9.6 1.152e+04 1.045e-09
 56.56070     10.5 1.226e+04 1.657e-09
 56.58752     11.5 1.240e+04 1.863e-09
 56.59731     12.2 1.248e+04 2.127e-09
 56.60996     12.9 1.245e+04 2.123e-09
 56.63973     14.0 1.249e+04 2.169e-09
 56.67939     15.0 1.205e+04 1.619e-09
 56.71896     16.0 1.151e+04 1.203e-09
 56.75653     17.5 1.108e+04 9.822e-10
 56.77631     18.3 1.039e+04 6.848e-10
 56.79808     20.3 1.019e+04 6.347e-10
 56.83468     22.6 1.001e+04 5.728e-10
 56.85446     23.4 9.614e+03 4.159e-10
 56.87721     25.7 9.442e+03 3.556e-10
 56.91677     27.9 9.261e+03 3.048e-10
 56.95633     30.1 9.145e+03 2.919e-10
 56.99590     32.8 9.217e+03 3.031e-10
 57.03546     35.1 9.466e+03 3.478e-10
 57.06503     35.9 9.609e+03 3.745e-10
 57.08472     36.3 9.897e+03 4.522e-10
 57.10143     36.7 1.036e+04 6.190e-10
 57.11132     36.7 1.007e+04 5.284e-10
 57.12428     37.3 1.050e+04 7.380e-10
 57.14406     38.2 1.096e+04 1.001e-09
 57.16384     39.2 1.146e+04 1.307e-09
 57.18363     40.2 1.194e+04 1.598e-09
 57.20045     41.0 1.227e+04 1.753e-09
 57.21034     41.7 1.207e+04 1.671e-09
 57.22319     42.3 1.225e+04 1.706e-09
 57.23491     42.6 1.224e+04 1.687e-09
 57.24480     42.8 1.175e+04 1.327e-09
 57.26275     43.0 1.171e+04 1.289e-09
 57.28253     43.2 1.160e+04 1.235e-09
 57.30232     43.5 1.148e+04 1.188e-09
 57.32210     43.9 1.136e+04 1.156e-09
 57.34188     44.5 1.125e+04 1.123e-09
 57.35849     45.2 1.109e+04 1.057e-09
 57.36838     45.8 1.087e+04 9.220e-10
 57.38144     46.6 1.073e+04 8.559e-10
 57.40122     47.5 1.056e+04 7.609e-10
 57.42100     48.4 1.039e+04 6.470e-10
 57.44079     49.1 1.023e+04 5.454e-10
 57.46057     49.5 1.010e+04 4.620e-10
 57.48035     49.8 9.984e+03 4.124e-10
 57.49196     50.1 9.985e+03 4.105e-10
 57.50185     50.8 1.011e+04 4.506e-10
 57.51991     50.9 1.024e+04 4.720e-10
 57.53969     50.8 1.049e+04 5.496e-10
 57.55948     50.6 1.074e+04 6.899e-10
 57.57926     50.8 1.097e+04 8.886e-10
 57.59904     51.2 1.116e+04 1.090e-09
 57.61555     51.8 1.127e+04 1.226e-09
 57.62544     52.2 1.176e+04 1.536e-09
 57.63467     52.9 1.174e+04 1.521e-09
 57.64456     53.4 1.197e+04 1.725e-09
 57.65838     54.1 1.199e+04 1.718e-09
 57.67816     54.6 1.195e+04 1.609e-09
 57.69795     54.9 1.179e+04 1.335e-09
 57.71773     54.9 1.151e+04 1.001e-09
 57.73751     54.3 1.106e+04 7.157e-10
 57.74902     53.2 1.036e+04 5.249e-10
 57.75891     53.7 1.077e+04 6.204e-10
 57.77707     52.7 9.936e+03 4.685e-10
 57.79685     52.3 9.596e+03 4.544e-10
 57.81663     52.2 9.616e+03 4.652e-10
 57.83642     52.1 9.715e+03 5.104e-10
 57.85620     52.0 9.899e+03 5.820e-10
 57.87260     52.1 1.008e+04 6.684e-10
 57.88249     52.2 1.011e+04 6.697e-10
 57.89576     52.4 1.027e+04 7.555e-10
 57.91554     52.5 1.042e+04 8.186e-10
 57.93532     52.5 1.059e+04 8.646e-10
 57.95511     52.2 1.087e+04 9.281e-10
 57.97489     51.5 1.126e+04 1.048e-09
 57.99467     50.7 1.170e+04 1.246e-09
 58.00607     50.2 1.213e+04 1.525e-09
 58.01596     50.9 1.161e+04 1.313e-09
 58.03423     50.9 1.193e+04 1.525e-09
 58.05401     51.1 1.226e+04 1.690e-09
 58.06889     51.2 1.252e+04 1.720e-09
 58.07879     51.5 1.172e+04 1.320e-09
 58.09358     51.6 1.174e+04 1.283e-09
 58.11336     51.5 1.177e+04 1.167e-09
 58.12966     51.3 1.189e+04 1.093e-09
 58.13955     52.1 1.139e+04 9.160e-10
 58.15292     51.8 1.147e+04 9.157e-10
 58.17270     51.4 1.167e+04 9.598e-10
 58.19248     51.1 1.196e+04 1.091e-09
 58.21227     50.8 1.234e+04 1.310e-09
 58.23205     50.4 1.286e+04 1.659e-09
 58.25183     49.7 1.357e+04 2.227e-09
 58.26313     49.1 1.432e+04 3.125e-09
 58.27302     50.6 1.301e+04 1.920e-09
 58.29139     50.0 1.374e+04 2.583e-09
 58.31117     49.7 1.437e+04 3.532e-09
 58.33095     49.6 1.485e+04 4.579e-09
 58.35074     49.8 1.505e+04 5.267e-09
 58.37052     50.0 1.501e+04 5.337e-09
 58.38671     50.5 1.477e+04 4.929e-09
 58.39660     50.8 1.421e+04 3.765e-09
 58.41008     51.2 1.406e+04 3.624e-09
 58.42986     51.6 1.373e+04 3.066e-09
 58.44964     51.5 1.336e+04 2.357e-09
 58.46942     51.2 1.299e+04 1.839e-09
 58.49332     51.4 1.280e+04 1.544e-09
 58.51320     49.4 1.228e+04 1.029e-09
 58.53886     47.9 1.157e+04 6.683e-10
 58.57842     46.8 1.076e+04 4.569e-10
 58.61798     46.1 1.013e+04 3.350e-10
 58.64396     45.9 9.744e+03 2.463e-10
 58.66374     46.9 9.873e+03 2.546e-10
 58.69711     46.1 9.330e+03 1.717e-10
 58.73667     45.7 9.236e+03 1.662e-10
 58.77623     45.3 9.245e+03 1.792e-10
 58.81580     45.1 9.367e+03 2.438e-10
 58.85536     45.2 9.505e+03 3.405e-10
 58.89113     45.5 9.518e+03 3.677e-10
 58.91091     45.5 9.527e+03 3.500e-10
 58.93449     45.6 9.384e+03 3.160e-10
 58.97405     45.6 9.035e+03 2.322e-10
 59.01361     45.3 8.643e+03 1.598e-10
 59.05318     44.8 8.503e+03 1.392e-10
 59.09274     44.6 8.527e+03 1.476e-10
 59.13230     44.7 8.652e+03 1.879e-10
 59.15807     45.3 8.896e+03 2.666e-10
 59.17786     44.9 8.972e+03 2.812e-10
 59.21143     46.1 9.183e+03 3.654e-10
 59.25099     47.2 9.287e+03 4.058e-10
 59.29055     48.3 9.324e+03 4.150e-10
 59.33012     49.3 9.322e+03 4.122e-10
 59.36187     50.3 9.242e+03 3.836e-10
 59.38165     49.4 8.753e+03 2.599e-10
 59.40524     50.3 8.578e+03 2.292e-10
 59.42502     49.6 8.792e+03 2.748e-10
 59.44881     50.4 8.578e+03 2.267e-10
 59.48837     51.3 8.433e+03 1.994e-10
 59.52793     52.2 8.398e+03 1.915e-10
 59.56749     53.2 8.414e+03 1.886e-10
 59.60706     54.1 8.439e+03 1.824e-10
 59.64662     54.9 8.481e+03 1.741e-10
 59.67219     55.3 8.514e+03 1.647e-10
 59.69197     53.7 8.508e+03 1.596e-10
 59.72575     53.9 8.520e+03 1.524e-10
 59.76531     54.1 8.502e+03 1.435e-10
 59.80487     54.4 8.473e+03 1.303e-10
 59.84444     54.7 8.522e+03 1.199e-10
 59.88400     55.1 8.547e+03 1.201e-10
 59.91935     55.7 8.610e+03 1.257e-10
 59.93913     54.5 8.667e+03 1.272e-10
 59.96312     55.2 8.833e+03 1.528e-10
 60.00269     56.1 9.298e+03 2.193e-10
 60.04225     56.6 9.985e+03 3.535e-10
 60.06262     57.0 1.030e+04 4.525e-10
 60.07241     56.2 1.058e+04 5.327e-10
 60.09151     56.3 1.095e+04 7.248e-10
 60.12128     57.1 1.142e+04 9.700e-10
 60.16094     57.3 1.214e+04 1.419e-09
 60.18620     56.7 1.238e+04 1.542e-09
 60.19599     55.3 1.244e+04 1.609e-09
 60.21020     55.2 1.240e+04 1.594e-09
 60.22998     55.1 1.225e+04 1.506e-09
 60.24001     55.0 1.204e+04 1.405e-09
 60.24990     55.2 1.155e+04 1.135e-09
 60.26954     55.1 1.127e+04 1.004e-09
 60.28932     55.1 1.095e+04 8.795e-10
 60.30911     55.3 1.062e+04 7.573e-10
 60.31958     55.5 1.031e+04 6.556e-10
 60.32947     54.7 1.023e+04 6.235e-10
 60.34867     55.3 9.899e+03 5.246e-10
 60.36845     55.5 9.786e+03 4.982e-10
 60.39822     57.0 9.637e+03 4.610e-10
 60.43346     58.2 9.418e+03 4.258e-10
 60.45324     56.7 9.189e+03 3.615e-10
 60.47744     58.0 9.017e+03 3.182e-10
 60.51701     59.4 9.071e+03 3.045e-10
 60.55657     60.7 9.251e+03 3.131e-10
 60.59613     61.3 9.789e+03 3.705e-10
 60.62571     60.2 1.026e+04 4.776e-10
 60.64539     59.5 1.041e+04 6.135e-10
 60.66434     59.5 1.039e+04 7.579e-10
 60.67424     60.6 1.065e+04 7.212e-10
 60.68495     60.6 1.074e+04 9.009e-10
 60.70021     60.8 1.088e+04 1.042e-09
 60.71010     59.8 1.080e+04 9.835e-10
 60.72452     59.5 1.108e+04 1.053e-09
 60.74430     58.3 1.171e+04 1.169e-09
 60.76408     55.3 1.260e+04 1.463e-09
 60.78386     51.8 1.327e+04 2.049e-09
 60.80364     49.3 1.370e+04 2.878e-09
 60.82343     47.7 1.407e+04 3.748e-09
 60.83369     46.5 1.439e+04 4.157e-09
 60.84358     46.0 1.422e+04 3.854e-09
 60.86299     44.3 1.424e+04 3.787e-09
 60.88277     42.5 1.403e+04 3.406e-09
 60.90255     40.8 1.342e+04 2.777e-09
 60.92233     39.6 1.257e+04 2.090e-09
 60.94211     39.1 1.173e+04 1.535e-09
 60.95727     38.8 1.104e+04 1.093e-09
 60.96716     38.7 1.098e+04 1.060e-09
 60.98168     38.5 1.049e+04 7.364e-10
 61.00146     38.0 1.014e+04 5.221e-10
 61.03123     37.2 9.621e+03 3.015e-10
 61.07089     37.1 9.449e+03 2.711e-10
 61.09876     37.5 9.459e+03 2.788e-10
 61.10856     37.2 9.825e+03 3.909e-10
 61.12015     37.3 9.849e+03 3.993e-10
 61.13993     37.6 9.885e+03 4.261e-10
 61.15971     37.8 9.939e+03 4.506e-10
 61.17949     38.0 1.001e+04 4.901e-10
 61.19927     38.2 1.015e+04 5.434e-10
 61.21432     38.1 1.035e+04 6.203e-10
 61.22422     38.2 1.017e+04 5.355e-10
 61.23884     38.1 1.039e+04 6.111e-10
 61.25862     38.0 1.065e+04 7.054e-10
 61.27840     38.0 1.088e+04 7.992e-10
 61.29818     38.0 1.103e+04 8.589e-10
 61.31796     38.1 1.105e+04 8.644e-10
 61.33775     38.3 1.100e+04 8.378e-10
 61.34780     38.4 1.090e+04 7.685e-10
 61.35769     38.5 1.065e+04 6.437e-10
 61.37731     38.5 1.061e+04 5.873e-10
 61.39709     38.2 1.074e+04 5.476e-10
 61.41687     37.7 1.088e+04 5.518e-10
 61.43665     36.9 1.114e+04 5.812e-10
 61.45643     36.1 1.130e+04 6.553e-10
 61.47138     35.6 1.137e+04 7.874e-10
 61.48127     36.1 1.148e+04 8.478e-10
 61.50599     35.4 1.177e+04 1.048e-09
 61.53289     34.6 1.234e+04 1.375e-09
 61.54268     34.5 1.171e+04 9.721e-10
 61.55534     33.7 1.210e+04 1.020e-09
 61.57512     33.2 1.231e+04 9.881e-10
 61.59490     32.1 1.254e+04 9.132e-10
 61.61469     31.4 1.302e+04 1.136e-09
 61.63447     30.0 1.290e+04 1.092e-09
 61.65425     28.7 1.271e+04 1.070e-09
 61.67403     27.7 1.261e+04 1.079e-09
 61.69381     26.9 1.256e+04 1.098e-09
 61.71359     26.3 1.257e+04 1.153e-09
 61.72844     25.9 1.259e+04 1.266e-09
 61.73833     26.1 1.279e+04 1.442e-09
 61.75316     25.8 1.266e+04 1.516e-09
 61.77294     25.8 1.248e+04 1.603e-09
 61.79272     26.1 1.226e+04 1.564e-09
 61.82249     26.4 1.186e+04 1.390e-09
 61.86215     27.1 1.129e+04 1.068e-09
 61.89173     27.8 1.081e+04 8.351e-10
 61.91141     28.2 1.050e+04 6.800e-10
 61.93119     28.3 1.026e+04 5.613e-10
 61.95097     28.3 1.011e+04 4.933e-10
 61.96711     28.6 9.863e+03 4.309e-10
 61.97700     28.8 9.994e+03 4.497e-10
 61.98549     28.9 9.916e+03 4.376e-10
 61.99538     29.1 1.008e+04 4.949e-10
 62.01032     29.6 1.005e+04 4.901e-10
 62.03010     30.0 1.005e+04 4.875e-10
 62.04988     30.5 1.002e+04 4.749e-10
 62.06966     30.9 1.003e+04 4.703e-10
 62.08944     31.3 1.006e+04 4.703e-10
 62.10907     31.6 1.009e+04 4.709e-10
 62.11897     31.7 1.015e+04 4.754e-10
 62.12901     32.0 1.015e+04 4.715e-10
 62.14879     32.2 1.018e+04 4.691e-10
 62.16857     32.2 1.023e+04 4.731e-10
 62.18835     32.1 1.037e+04 4.900e-10
 62.20813     31.5 1.068e+04 5.416e-10
 62.22791     30.3 1.114e+04 6.615e-10
 62.24255     28.7 1.160e+04 8.974e-10
 62.25244     28.8 1.158e+04 8.495e-10
 62.26748     27.3 1.197e+04 1.217e-09
 62.28726     26.5 1.232e+04 1.685e-09
 62.30704     26.1 1.247e+04 1.903e-09
 62.32682     25.8 1.236e+04 1.819e-09
 62.34660     25.5 1.199e+04 1.465e-09
 62.36613     24.4 1.149e+04 9.097e-10
 62.37602     24.1 1.161e+04 9.705e-10
 62.38617     22.8 1.110e+04 6.951e-10
 62.41594     20.3 1.032e+04 3.955e-10
 62.45560     17.7 9.457e+03 2.870e-10
 62.48991     17.5 9.231e+03 2.646e-10
 62.50969     17.3 9.309e+03 2.843e-10
 62.53472     17.7 9.110e+03 2.372e-10
 62.57429     17.8 8.961e+03 1.842e-10
 62.61385     17.3 8.999e+03 1.581e-10
 62.65341     16.5 9.072e+03 1.660e-10
 62.69297     15.9 9.068e+03 1.669e-10
 62.73254     15.4 9.077e+03 1.558e-10
 62.75685     14.5 9.172e+03 1.478e-10
 62.77664     15.3 9.361e+03 1.871e-10
 62.81166     14.1 9.437e+03 1.906e-10
 62.83566     12.5 9.755e+03 2.538e-10
 62.85544     14.2 9.509e+03 2.104e-10
 62.89079     13.0 9.790e+03 2.779e-10
 62.93035     12.4 1.010e+04 3.945e-10
 62.96992     11.4 1.046e+04 5.553e-10
 63.00402     10.2 1.085e+04 8.038e-10
 63.02380     10.6 1.085e+04 8.251e-10
 63.04904      9.8 1.087e+04 8.989e-10
 63.08860      9.2 1.065e+04 7.855e-10
 63.12817      7.8 1.024e+04 5.829e-10
 63.16773      5.7 9.759e+03 4.484e-10
 63.20729      3.9 9.335e+03 3.773e-10
 63.24686      2.8 9.173e+03 3.597e-10
 63.27097      1.7 9.253e+03 3.912e-10
 63.29075      2.1 9.402e+03 4.330e-10
 63.32598      1.5 9.385e+03 4.539e-10
 63.36555      1.6 9.211e+03 4.230e-10
 63.40511      1.3 9.174e+03 4.116e-10
 63.44467     -0.4 9.520e+03 4.926e-10
 63.48424     -1.8 9.952e+03 7.021e-10
 63.51381     -1.7 9.864e+03 6.563e-10
 63.52783     -1.7 9.857e+03 6.504e-10
 63.53781     -1.4 9.709e+03 5.993e-10
 63.56336     -0.9 9.380e+03 4.598e-10
 63.60292     -1.6 8.893e+03 2.794e-10
 63.64249     -3.5 8.300e+03 1.735e-10
 63.68205     -4.4 7.861e+03 1.380e-10
 63.70410     -4.3 7.706e+03 1.199e-10
 63.72389     -4.0 7.771e+03 1.245e-10
 63.76118     -3.9 7.703e+03 1.154e-10
 63.78508     -4.4 7.829e+03 1.264e-10
 63.80486     -4.3 7.690e+03 1.130e-10
 63.84030     -5.2 7.972e+03 1.475e-10
 63.87987     -5.9 8.401e+03 2.282e-10
 63.91943     -6.0 8.728e+03 3.139e-10
 63.95899     -5.8 8.682e+03 2.851e-10
 63.99855     -5.9 8.435e+03 1.911e-10
 64.03224     -6.8 8.128e+03 1.139e-10
 64.05202     -6.3 8.137e+03 1.152e-10
 64.07768     -7.8 7.863e+03 8.161e-11
 64.11724     -8.8 7.844e+03 8.624e-11
 64.15681     -9.5 7.935e+03 1.207e-10
 64.19637     -8.9 8.083e+03 1.724e-10
 64.23593     -8.4 8.195e+03 1.777e-10
 64.27550     -8.5 8.190e+03 1.531e-10
 64.29919     -9.3 8.127e+03 1.366e-10
 64.31897     -8.8 8.301e+03 1.633e-10
 64.35462    -10.3 8.562e+03 1.755e-10
 64.39418    -14.7 9.805e+03 3.479e-10
 64.42267    -16.1 1.007e+04 6.707e-10
 64.43247    -15.7 1.013e+04 6.899e-10
 64.44344    -16.8 1.095e+04 9.332e-10
 64.46322    -23.8 1.499e+04 2.399e-09
 64.48301    -31.9 1.875e+04 5.943e-09
 64.50279    -37.1 1.858e+04 1.045e-08
 64.52257    -41.2 1.745e+04 1.102e-08
 64.54235    -42.4 1.692e+04 8.449e-09
 64.55605    -45.6 1.605e+04 3.400e-09
 64.56594    -46.4 1.600e+04 3.073e-09
 64.57236    -56.7 1.122e+04 8.223e-10
 64.58225    -56.5 1.111e+04 8.004e-10
 64.60170    -59.0 9.684e+03 5.092e-10
 64.62148    -59.6 9.413e+03 4.211e-10
 64.64126    -60.3 9.217e+03 3.455e-10
 64.67103    -61.2 8.984e+03 2.966e-10
 64.71069    -62.3 8.915e+03 2.814e-10
 64.75025    -66.1 1.004e+04 4.411e-10
 64.77983    -71.5 1.188e+04 1.171e-09
 64.79951    -73.3 1.286e+04 1.853e-09
 64.81310    -74.9 1.399e+04 2.825e-09
 64.82300    -75.0 1.446e+04 3.411e-09
 64.83907    -77.4 1.554e+04 4.341e-09
 64.85886    -80.7 1.583e+04 4.549e-09
 64.87864    -84.4 1.550e+04 3.939e-09
 64.89842    -88.6 1.448e+04 2.846e-09
 64.91820    -92.9 1.393e+04 2.377e-09
 64.93669    -96.3 1.418e+04 2.342e-09
 64.94658    -96.5 1.415e+04 2.533e-09
 64.95776    -99.0 1.483e+04 2.900e-09
 64.97754   -101.3 1.568e+04 4.018e-09
 64.99669   -104.0 1.722e+04 5.902e-09
 65.00658    -99.1 1.657e+04 4.290e-09
 65.01711   -102.9 1.976e+04 7.562e-09
 65.03189   -109.3 2.247e+04 1.269e-08
 65.04174   -113.1 2.372e+04 2.017e-08
 65.05163   -117.3 2.478e+04 3.033e-08
 65.06152   -122.0 2.485e+04 4.886e-08
 65.07006   -126.4 2.422e+04 7.151e-08
 65.07501   -126.7 2.453e+04 8.531e-08
 65.08130   -130.8 2.402e+04 1.115e-07
 65.09119   -135.1 2.382e+04 1.175e-07
 65.10108   -138.6 2.287e+04 1.039e-07
 65.11097   -140.9 2.225e+04 6.516e-08
 65.12086   -143.2 2.215e+04 3.635e-08
 65.13075   -146.8 2.212e+04 2.037e-08
 65.13680   -151.5 2.120e+04 1.199e-08
 65.14174   -151.1 2.159e+04 1.520e-08
 65.15054   -155.6 1.979e+04 9.613e-09
 65.16043   -159.4 1.754e+04 6.641e-09
 65.17032   -161.9 1.605e+04 5.125e-09
 65.18021   -163.1 1.548e+04 4.403e-09
 65.19369   -164.2 1.518e+04 3.887e-09
 65.20363   -164.3 1.532e+04 4.437e-09
 65.21492   -165.5 1.489e+04 3.685e-09
 65.23470   -167.3 1.411e+04 2.666e-09
 65.25449   -168.9 1.330e+04 2.023e-09
 65.27427   -170.0 1.277e+04 1.711e-09
 65.29405   -170.5 1.250e+04 1.574e-09
 65.31383   -170.6 1.234e+04 1.491e-09
 65.32722   -170.7 1.219e+04 1.394e-09
 65.33711   -170.1 1.218e+04 1.431e-09
 65.35339   -170.0 1.201e+04 1.317e-09
 65.37317   -169.9 1.185e+04 1.207e-09
 65.39296   -169.7 1.171e+04 1.112e-09
 65.41274   -169.6 1.161e+04 1.035e-09
 65.43091   -169.5 1.154e+04 9.781e-10
 65.44080   -168.9 1.151e+04 9.531e-10
 65.45080   -168.8 1.147e+04 8.980e-10
 65.46069   -168.3 1.153e+04 9.490e-10
 65.47208   -168.4 1.150e+04 8.887e-10
 65.49186   -168.6 1.146e+04 8.126e-10
 65.51165   -168.8 1.137e+04 7.359e-10
 65.54142   -169.2 1.127e+04 6.736e-10
 65.57458   -168.9 1.123e+04 6.519e-10
 65.59436   -168.7 1.123e+04 7.011e-10
 65.62064   -168.5 1.117e+04 6.710e-10
 65.66020   -168.1 1.133e+04 7.220e-10
 65.69977   -167.7 1.157e+04 8.276e-10
 65.73933   -167.6 1.174e+04 9.207e-10
 65.76890   -168.0 1.167e+04 9.132e-10
 65.78859   -168.1 1.174e+04 9.486e-10
 65.80837   -168.3 1.181e+04 9.952e-10
 65.82815   -168.4 1.181e+04 1.019e-09
 65.84133   -168.3 1.179e+04 1.028e-09
 65.85122   -167.9 1.200e+04 1.137e-09
 65.86514   -167.8 1.201e+04 1.160e-09
 65.87503   -167.4 1.242e+04 1.401e-09
 65.88749   -167.2 1.235e+04 1.402e-09
 65.90728   -167.1 1.226e+04 1.315e-09
 65.92706   -167.0 1.207e+04 1.184e-09
 65.94684   -167.0 1.181e+04 1.008e-09
 65.96491   -166.9 1.148e+04 8.096e-10
 65.97480   -166.3 1.212e+04 1.201e-09
 65.98640   -166.2 1.172e+04 9.394e-10
 66.00618   -166.1 1.129e+04 7.013e-10
 66.02596   -166.0 1.085e+04 5.155e-10
 66.04575   -165.8 1.046e+04 3.908e-10
 66.06553   -165.5 1.018e+04 3.242e-10
 66.08859   -165.0 9.982e+03 2.834e-10
 66.10837   -163.9 1.023e+04 3.505e-10
 66.13486   -163.1 1.022e+04 3.530e-10
 66.17452   -161.7 1.010e+04 3.310e-10
 66.21408   -160.4 1.007e+04 3.252e-10
 66.25365   -159.3 1.011e+04 3.380e-10
 66.28966   -158.5 1.024e+04 3.850e-10
 66.30935   -158.2 1.039e+04 4.389e-10
 66.32269   -157.8 1.041e+04 4.690e-10
 66.34247   -157.6 1.038e+04 4.733e-10
 66.35544   -157.1 1.035e+04 4.770e-10
 66.36533   -157.3 1.040e+04 5.291e-10
 66.38203   -157.0 1.025e+04 4.917e-10
 66.41180   -156.6 9.947e+03 4.140e-10
 66.45146   -156.4 9.720e+03 3.551e-10
 66.49103   -155.5 9.390e+03 2.907e-10
 66.53059   -154.7 9.184e+03 2.475e-10
 66.57015   -153.8 9.088e+03 2.272e-10
 66.60280   -153.0 9.088e+03 2.231e-10
 66.62258   -152.9 9.094e+03 2.223e-10
 66.64928   -152.5 9.308e+03 2.408e-10
 66.68884   -152.3 9.679e+03 2.918e-10
 66.71842   -152.4 9.789e+03 3.027e-10
 66.73358   -152.8 9.922e+03 3.333e-10
 66.74145   -153.2 1.027e+04 4.286e-10
 66.74597   -152.9 1.007e+04 3.844e-10
 66.75788   -153.4 1.028e+04 4.561e-10
 66.77766   -153.8 1.046e+04 5.412e-10
 66.79744   -154.1 1.064e+04 6.518e-10
 66.81723   -154.3 1.077e+04 7.416e-10
 66.83701   -154.3 1.082e+04 8.091e-10
 66.85679   -154.3 1.078e+04 8.403e-10
 66.86965   -154.6 1.057e+04 8.274e-10
 66.87954   -154.1 1.084e+04 8.669e-10
 66.89635   -154.1 1.082e+04 8.771e-10
 66.91613   -154.2 1.082e+04 8.834e-10
 66.93591   -159.0 1.206e+04 8.976e-10
 66.95570   -171.4 2.003e+04 1.745e-09
 66.97048   -178.4 2.113e+04 5.795e-09
 66.98033   -181.8 2.177e+04 1.318e-08
 66.99022   -184.1 2.166e+04 2.588e-08
 66.99798   -186.1 2.268e+04 4.384e-08
 67.00293   -185.5 2.239e+04 3.661e-08
 67.01000   -188.3 2.353e+04 4.903e-08
 67.01989   -192.1 2.423e+04 5.202e-08
 67.02978   -197.3 2.494e+04 4.663e-08
 67.03967   -204.0 2.485e+04 2.351e-08
 67.04956   -211.9 2.131e+04 8.318e-09
 67.05945   -218.2 1.645e+04 3.365e-09
 67.07434   -220.2 1.426e+04 2.119e-09
 67.09417   -221.6 1.366e+04 1.518e-09
 67.11395   -224.2 1.260e+04 8.739e-10
 67.12661   -226.8 1.219e+04 6.605e-10
 67.13650   -224.2 1.137e+04 5.279e-10
 67.15351   -225.5 1.124e+04 4.726e-10
 67.16781   -227.1 1.168e+04 4.708e-10
 67.17770   -227.7 1.243e+04 6.403e-10
 67.19307   -229.9 1.394e+04 1.022e-09
 67.21286   -231.5 1.477e+04 1.889e-09
 67.23264   -232.0 1.524e+04 3.068e-09
 67.25019   -231.8 1.554e+04 4.117e-09
 67.26008   -228.9 1.431e+04 2.152e-09
 67.27220   -228.9 1.458e+04 2.995e-09
 67.29198   -228.9 1.473e+04 3.506e-09
 67.31176   -228.9 1.477e+04 3.631e-09
 67.33155   -229.0 1.474e+04 3.554e-09
 67.35133   -229.4 1.468e+04 3.152e-09
 67.37111   -230.0 1.474e+04 2.898e-09
 67.38366   -230.6 1.480e+04 2.843e-09
 67.39355   -227.3 1.379e+04 2.169e-09
 67.41067   -227.9 1.382e+04 2.118e-09
 67.43045   -228.3 1.405e+04 2.134e-09
 67.45023   -228.4 1.422e+04 2.239e-09
 67.47002   -228.2 1.424e+04 2.285e-09
 67.48980   -227.9 1.384e+04 2.292e-09
 67.50724   -227.5 1.293e+04 1.979e-09
 67.51713   -225.5 1.366e+04 1.700e-09
 67.52936   -225.2 1.296e+04 1.647e-09
 67.54914   -224.9 1.214e+04 1.395e-09
 67.56892   -224.3 1.155e+04 1.146e-09
 67.58870   -223.6 1.099e+04 9.505e-10
 67.60203   -222.8 1.073e+04 7.681e-10
 67.61192   -222.9 1.074e+04 7.740e-10
 67.62827   -222.0 1.083e+04 5.962e-10
 67.64072   -221.0 1.101e+04 4.415e-10
 67.65061   -220.1 1.059e+04 7.269e-10
 67.66783   -219.1 1.072e+04 6.148e-10
 67.68761   -218.1 1.092e+04 5.099e-10
 67.70739   -217.2 1.103e+04 4.191e-10
 67.72718   -216.4 1.097e+04 3.589e-10
 67.74696   -215.7 1.082e+04 3.261e-10
 67.76430   -215.1 1.072e+04 3.111e-10
 67.77419   -214.2 1.108e+04 4.566e-10
 67.78652   -213.6 1.112e+04 4.511e-10
 67.80630   -213.0 1.118e+04 4.502e-10
 67.82608   -212.4 1.128e+04 4.863e-10
 67.84586   -211.9 1.132e+04 5.740e-10
 67.86565   -211.2 1.140e+04 6.836e-10
 67.88543   -210.5 1.152e+04 8.015e-10
 67.89777   -209.7 1.167e+04 9.118e-10
 67.90766   -209.3 1.231e+04 1.131e-09
 67.92499   -208.8 1.237e+04 1.177e-09
 67.94477   -208.3 1.240e+04 1.186e-09
 67.96455   -207.9 1.240e+04 1.186e-09
 67.98434   -207.5 1.241e+04 1.183e-09
 68.00412   -207.2 1.251e+04 1.188e-09
 68.02135   -207.0 1.266e+04 1.211e-09
 68.03125   -206.7 1.292e+04 1.280e-09
 68.03625   -206.6 1.317e+04 1.380e-09
 68.04614   -207.5 1.350e+04 1.495e-09
 68.06346   -207.4 1.381e+04 1.652e-09
 68.08324   -207.5 1.408e+04 1.739e-09
 68.10302   -207.9 1.419e+04 1.758e-09
 68.12281   -208.5 1.424e+04 1.709e-09
 68.14259   -209.1 1.409e+04 1.486e-09
 68.15483   -209.6 1.363e+04 1.210e-09
 68.16472   -210.1 1.546e+04 2.238e-09
 68.18215   -210.3 1.473e+04 1.579e-09
 68.20193   -210.4 1.385e+04 1.084e-09
 68.22171   -210.5 1.297e+04 7.718e-10
 68.24149   -210.5 1.223e+04 5.941e-10
 68.26128   -210.4 1.165e+04 5.031e-10
 68.27841   -209.9 1.118e+04 4.656e-10
 68.28830   -209.8 1.136e+04 4.350e-10
 68.30084   -209.3 1.115e+04 4.038e-10
 68.32062   -208.6 1.092e+04 3.859e-10
 68.34040   -207.8 1.078e+04 3.776e-10
 68.36018   -206.9 1.072e+04 3.766e-10
 68.37997   -206.0 1.067e+04 3.908e-10
 68.39975   -205.0 1.069e+04 4.106e-10
 68.41188   -204.1 1.078e+04 4.303e-10
 68.42177   -203.6 1.077e+04 3.732e-10
 68.43931   -202.8 1.081e+04 3.866e-10
 68.45909   -201.8 1.084e+04 3.952e-10
 68.47048   -201.1 1.085e+04 3.969e-10
 68.48037   -202.5 1.115e+04 5.215e-10
 68.49865   -201.7 1.126e+04 4.910e-10
 68.51844   -200.9 1.138e+04 4.491e-10
 68.53547   -200.3 1.149e+04 4.194e-10
 68.54536   -200.5 1.095e+04 5.859e-10
 68.55800   -199.9 1.111e+04 5.820e-10
 68.57778   -199.3 1.129e+04 5.855e-10
 68.59756   -198.8 1.144e+04 5.966e-10
 68.61734   -198.2 1.157e+04 6.150e-10
 68.63713   -197.7 1.167e+04 6.386e-10
 68.65691   -197.0 1.172e+04 6.623e-10
 68.66894   -196.3 1.173e+04 6.828e-10
 68.67883   -195.9 1.171e+04 9.022e-10
 68.69647   -195.1 1.173e+04 9.065e-10
 68.71625   -194.3 1.174e+04 8.682e-10
 68.73603   -193.5 1.171e+04 8.203e-10
 68.75581   -192.8 1.164e+04 7.796e-10
 68.77560   -192.2 1.156e+04 7.324e-10
 68.79252   -191.6 1.145e+04 6.866e-10
 68.80241   -191.3 1.148e+04 7.322e-10
 68.81516   -190.9 1.138e+04 6.661e-10
 68.83494   -190.6 1.127e+04 6.183e-10
 68.85472   -190.4 1.117e+04 5.910e-10
 68.87450   -190.2 1.108e+04 5.835e-10
 68.89428   -190.0 1.104e+04 5.841e-10
 68.90470   -189.8 1.096e+04 5.989e-10
 68.91459   -190.7 1.080e+04 5.628e-10
 68.92600   -190.4 1.079e+04 5.725e-10
 68.93589   -190.3 1.114e+04 5.279e-10
 68.95363   -189.7 1.107e+04 5.284e-10
 68.97341   -189.0 1.090e+04 5.031e-10
 68.99319   -188.3 1.069e+04 4.552e-10
 69.01297   -187.7 1.042e+04 3.996e-10
 69.03276   -187.2 1.012e+04 3.537e-10
 69.06253   -186.9 9.855e+03 3.158e-10
 69.10219   -185.6 9.599e+03 2.661e-10
 69.14175   -183.8 9.286e+03 2.158e-10
 69.17336   -181.9 9.022e+03 1.780e-10
 69.19314   -181.0 9.051e+03 1.754e-10
 69.22088   -178.9 8.841e+03 1.536e-10
 69.26044   -176.7 8.714e+03 1.403e-10
 69.30000   -174.3 8.656e+03 1.337e-10
 69.33956   -171.9 8.646e+03 1.320e-10
 69.37913   -169.3 8.649e+03 1.325e-10
 69.41869   -166.7 8.710e+03 1.412e-10
 69.44030   -164.0 8.857e+03 1.597e-10
 69.46008   -163.6 8.883e+03 1.568e-10
 69.49782   -160.9 9.055e+03 1.801e-10
 69.53738   -157.9 9.202e+03 2.117e-10
 69.57694   -154.7 9.339e+03 2.531e-10
 69.61651   -151.5 9.693e+03 3.259e-10
 69.65607   -149.3 1.092e+04 5.137e-10
 69.68564   -147.8 1.139e+04 6.469e-10
 69.69716   -147.8 1.278e+04 1.069e-09
 69.70705   -146.2 1.039e+04 5.544e-10
 69.72511   -146.2 1.187e+04 9.520e-10
 69.74489   -146.6 1.364e+04 1.754e-09
 69.76326   -146.6 1.516e+04 3.200e-09
 69.77315   -147.3 1.560e+04 3.638e-09
 69.78445   -147.2 1.671e+04 6.008e-09
 69.80423   -147.0 1.749e+04 8.412e-09
 69.82074   -147.4 1.787e+04 9.769e-09
 69.83064   -146.1 1.745e+04 8.817e-09
 69.84380   -146.4 1.791e+04 1.002e-08
 69.86358   -147.6 1.795e+04 1.013e-08
 69.88336   -149.3 1.747e+04 8.972e-09
 69.90314   -151.7 1.621e+04 6.721e-09
 69.92292   -154.7 1.460e+04 4.670e-09
 69.94271   -157.4 1.332e+04 3.307e-09
 69.95422   -159.8 1.252e+04 2.375e-09
 69.96411   -159.8 1.264e+04 1.165e-09
 69.98227   -163.5 1.173e+04 8.206e-10
 70.00205   -166.3 1.052e+04 6.948e-10
 70.02183   -168.1 1.009e+04 6.260e-10
 70.04161   -169.3 9.889e+03 6.086e-10
 70.06139   -170.4 9.846e+03 6.080e-10
 70.07780   -171.9 9.325e+03 7.426e-10
 70.08769   -173.9 9.875e+03 9.086e-10
 70.10096   -176.7 1.254e+04 1.719e-09
 70.12074   -179.3 1.505e+04 3.393e-09
 70.14052   -181.6 1.699e+04 6.600e-09
 70.16030   -183.5 1.857e+04 1.174e-08
 70.18008   -185.5 1.987e+04 1.812e-08
 70.19487   -187.5 2.054e+04 2.381e-08
 70.20233   -188.3 2.071e+04 2.645e-08
 70.20727   -189.2 2.102e+04 2.784e-08
 70.21118   -190.5 2.119e+04 3.204e-08
 70.21612   -190.4 2.102e+04 2.860e-08
 70.22449   -191.5 2.108e+04 3.041e-08
 70.23439   -192.5 2.109e+04 3.243e-08
 70.24428   -193.5 2.099e+04 3.382e-08
 70.25417   -194.4 2.093e+04 3.421e-08
 70.26406   -195.0 2.070e+04 3.447e-08
 70.27297   -195.4 2.006e+04 3.392e-08
 70.27791   -195.2 1.999e+04 2.633e-08
 70.28384   -195.4 1.937e+04 2.399e-08
 70.29373   -195.4 1.881e+04 2.131e-08
 70.30362   -195.4 1.839e+04 1.894e-08
 70.31351   -195.4 1.817e+04 1.727e-08
 70.32340   -195.4 1.813e+04 1.643e-08
 70.33329   -195.5 1.813e+04 1.624e-08
 70.33970   -195.5 1.817e+04 1.621e-08
 70.34465   -194.9 1.848e+04 1.230e-08
 70.35307   -194.9 1.859e+04 1.248e-08
 70.36297   -194.9 1.872e+04 1.319e-08
 70.37286   -194.9 1.897e+04 1.441e-08
 70.38275   -195.3 1.935e+04 1.627e-08
 70.39264   -196.0 1.986e+04 1.904e-08
 70.40150   -196.9 2.044e+04 2.332e-08
 70.40644   -197.3 2.181e+04 1.950e-08
 70.41242   -199.0 2.211e+04 2.777e-08
 70.41944   -200.4 2.178e+04 4.200e-08
 70.42438   -201.2 2.097e+04 5.773e-08
 70.43220   -201.6 2.069e+04 7.612e-08
 70.44209   -201.7 2.062e+04 9.414e-08
 70.45198   -201.6 2.057e+04 1.125e-07
 70.46187   -201.6 2.062e+04 1.209e-07
 70.46823   -201.7 2.069e+04 1.219e-07
 70.47318   -202.9 2.112e+04 1.765e-07
 70.48165   -204.0 2.162e+04 1.367e-07
 70.49154   -205.6 2.260e+04 8.529e-08
 70.50144   -208.2 2.389e+04 4.440e-08
 70.51133   -212.0 2.478e+04 2.034e-08
 70.52122   -217.1 2.357e+04 9.300e-09
 70.53002   -222.5 1.938e+04 5.244e-09
 70.53497   -222.7 2.067e+04 7.903e-09
 70.54100   -226.4 1.702e+04 5.752e-09
 70.55089   -228.8 1.496e+04 4.869e-09
 70.56078   -230.1 1.438e+04 4.427e-09
 70.57067   -230.8 1.426e+04 4.211e-09
 70.58056   -231.3 1.418e+04 4.129e-09
 70.59186   -231.9 1.405e+04 4.005e-09
 70.60175   -232.5 1.468e+04 4.772e-09
 70.61523   -232.9 1.456e+04 4.533e-09
 70.63170   -233.6 1.393e+04 3.716e-09
 70.64159   -234.4 1.324e+04 3.158e-09
 70.65484   -235.2 1.263e+04 2.534e-09
 70.67462   -235.9 1.240e+04 2.188e-09
 70.69440   -236.4 1.238e+04 2.092e-09
 70.71418   -236.8 1.238e+04 2.078e-09
 70.72538   -237.1 1.244e+04 2.083e-09
 70.73528   -236.9 1.261e+04 2.353e-09
 70.75375   -237.2 1.263e+04 2.324e-09
 70.77353   -237.3 1.258e+04 2.238e-09
 70.79331   -237.4 1.239e+04 2.076e-09
 70.81309   -237.5 1.211e+04 1.849e-09
 70.83287   -237.5 1.181e+04 1.602e-09
 70.84897   -237.5 1.152e+04 1.390e-09
 70.85886   -237.5 1.159e+04 1.475e-09
 70.87244   -237.6 1.138e+04 1.339e-09
 70.89222   -237.6 1.121e+04 1.242e-09
 70.91200   -237.5 1.105e+04 1.162e-09
 70.93178   -237.2 1.088e+04 1.080e-09
 70.95156   -236.7 1.068e+04 9.893e-10
 70.97134   -236.1 1.048e+04 8.907e-10
 70.98244   -235.4 1.026e+04 7.902e-10
 70.99233   -235.3 1.049e+04 8.839e-10
 71.01091   -234.6 1.026e+04 7.760e-10
 71.03069   -233.8 1.006e+04 6.847e-10
 71.05047   -233.0 9.882e+03 6.116e-10
 71.06593   -232.2 9.739e+03 5.553e-10
 71.07582   -232.4 9.596e+03 4.954e-10
 71.09003   -231.5 9.492e+03 4.581e-10
 71.10602   -230.5 9.430e+03 4.357e-10
 71.11591   -230.5 9.647e+03 4.978e-10
 71.12960   -229.5 9.581e+03 4.679e-10
 71.14938   -228.5 9.525e+03 4.511e-10
 71.16916   -227.6 9.500e+03 4.478e-10
 71.19893   -226.9 9.511e+03 4.521e-10
 71.22980   -225.2 9.457e+03 4.343e-10
 71.24958   -224.6 9.455e+03 4.241e-10
 71.27815   -223.0 9.270e+03 3.670e-10
 71.31772   -221.3 9.079e+03 3.140e-10
 71.35728   -219.9 8.892e+03 2.642e-10
 71.39684   -218.4 8.679e+03 2.163e-10
 71.43641   -216.8 8.498e+03 1.769e-10
 71.47597   -215.2 8.344e+03 1.453e-10
 71.49675   -213.5 8.233e+03 1.220e-10
 71.50134   -212.7 8.178e+03 1.164e-10
 71.52013   -213.2 8.154e+03 1.174e-10
 71.55509   -211.4 8.113e+03 1.073e-10
 71.59466   -209.6 8.111e+03 1.040e-10
 71.63422   -207.9 8.114e+03 1.036e-10
 71.67378   -206.4 8.213e+03 1.059e-10
 71.71335   -205.3 8.457e+03 1.227e-10
 71.74391   -204.4 8.674e+03 1.498e-10
 71.76369   -203.8 8.792e+03 1.768e-10
 71.79247   -203.2 8.951e+03 2.087e-10
 71.83204   -202.8 9.006e+03 2.224e-10
 71.87160   -202.3 9.006e+03 2.246e-10
 71.91116   -201.6 8.898e+03 2.094e-10
 71.95072   -200.7 8.742e+03 1.713e-10
 71.99029   -199.6 8.597e+03 1.324e-10
 72.01086   -198.6 8.499e+03 1.026e-10
 72.03064   -198.2 8.546e+03 1.135e-10
 72.06941   -197.2 8.480e+03 8.996e-11
 72.10898   -196.0 8.450e+03 7.514e-11
 72.14854   -194.9 8.443e+03 6.683e-11
 72.18810   -193.8 8.454e+03 6.371e-11
 72.22767   -192.8 8.460e+03 6.320e-11
 72.25802   -192.3 8.517e+03 6.336e-11
 72.27781   -191.6 8.482e+03 6.376e-11
 72.30679   -191.5 8.715e+03 6.837e-11
 72.34636   -191.4 8.933e+03 9.431e-11
 72.36879   -191.5 9.157e+03 1.416e-10
 72.38857   -191.9 9.208e+03 1.733e-10
 72.42548   -192.0 9.423e+03 2.287e-10
 72.46504   -192.6 9.610e+03 2.678e-10
 72.50461   -193.3 9.750e+03 2.901e-10
 72.52497   -194.1 9.919e+03 3.106e-10
 72.54475   -193.4 9.854e+03 2.940e-10
 72.58373   -194.1 1.010e+04 3.269e-10
 72.62330   -195.0 1.038e+04 3.806e-10
 72.66286   -195.8 1.060e+04 4.446e-10
 72.70242   -196.5 1.069e+04 4.921e-10
 72.74199   -196.7 1.069e+04 5.059e-10
 72.77213   -196.7 1.067e+04 4.952e-10
 72.79192   -196.0 1.081e+04 5.620e-10
 72.82111   -196.0 1.080e+04 5.405e-10
 72.86067   -195.8 1.082e+04 5.191e-10
 72.90024   -195.5 1.084e+04 5.145e-10
 72.93980   -195.2 1.087e+04 5.164e-10
 72.97936   -194.8 1.090e+04 5.202e-10
 73.01893   -194.3 1.094e+04 5.076e-10
 73.03908   -193.7 1.085e+04 4.550e-10
 73.05886   -193.4 1.078e+04 3.929e-10
 73.09805   -192.5 1.060e+04 3.030e-10
 73.13762   -191.5 1.047e+04 2.271e-10
 73.17718   -190.3 1.039e+04 1.719e-10
 73.21674   -189.0 1.036e+04 1.374e-10
 73.23724   -187.7 1.038e+04 1.185e-10
 73.25702   -187.6 1.033e+04 1.236e-10
 73.28625   -186.2 1.036e+04 1.233e-10
 73.30603   -186.3 1.040e+04 1.068e-10
 73.33543   -184.9 1.055e+04 1.121e-10
 73.37499   -183.4 1.063e+04 1.260e-10
 73.41456   -182.0 1.074e+04 1.427e-10
 73.45412   -180.5 1.085e+04 1.603e-10
 73.49368   -179.1 1.098e+04 1.778e-10
 73.53325   -177.8 1.109e+04 1.957e-10
 73.57281   -176.1 1.118e+04 2.061e-10
 73.61237   -174.9 1.125e+04 2.434e-10
 73.65194   -173.8 1.135e+04 2.825e-10
 73.69150   -172.8 1.147e+04 3.214e-10
 73.73106   -171.9 1.160e+04 3.612e-10
 73.77062   -171.2 1.169e+04 3.879e-10
 73.80036   -170.7 1.172e+04 3.965e-10
 73.82014   -170.6 1.207e+04 6.556e-10
 73.84975   -170.4 1.207e+04 6.416e-10
 73.88931   -170.3 1.198e+04 5.754e-10
 73.92888   -170.4 1.185e+04 5.027e-10
 73.96844   -170.5 1.170e+04 4.419e-10
 74.00800   -170.3 1.156e+04 4.020e-10
 74.04752   -169.9 1.142e+04 3.704e-10
 74.08586   -169.4 1.138e+04 4.788e-10
 74.10569   -169.1 1.130e+04 4.430e-10
 74.12669   -168.2 1.125e+04 4.338e-10
 74.16625   -167.1 1.121e+04 4.166e-10
 74.20582   -166.1 1.118e+04 3.916e-10
 74.24538   -165.0 1.115e+04 3.627e-10
 74.28494   -164.0 1.111e+04 3.333e-10
 74.31447   -163.0 1.106e+04 3.070e-10
 74.33425   -162.3 1.119e+04 3.088e-10
 74.36407   -161.4 1.120e+04 3.005e-10
 74.40363   -160.6 1.122e+04 3.009e-10
 74.44320   -160.1 1.137e+04 3.355e-10
 74.48276   -159.6 1.152e+04 4.245e-10
 74.52232   -159.1 1.165e+04 5.316e-10
 74.56163   -158.8 1.173e+04 6.108e-10
 74.58142   -158.2 1.176e+04 6.543e-10
 74.60145   -158.0 1.177e+04 6.668e-10
 74.64101   -157.7 1.163e+04 6.335e-10
 74.68057   -156.9 1.138e+04 5.069e-10
 74.72014   -155.9 1.116e+04 3.889e-10
 74.75970   -154.8 1.106e+04 3.133e-10
 74.79926   -153.8 1.106e+04 2.745e-10
 74.82858   -152.9 1.109e+04 2.568e-10
 74.84836   -152.2 1.110e+04 2.560e-10
 74.87839   -151.3 1.109e+04 2.473e-10
 74.91795   -150.3 1.105e+04 2.348e-10
 74.95435   -149.3 1.100e+04 2.177e-10
 74.97413   -148.6 1.099e+04 2.202e-10
 74.99708   -147.5 1.096e+04 2.025e-10
 75.03664   -146.5 1.095e+04 1.833e-10
 75.07575   -145.5 1.093e+04 1.648e-10
 75.09553   -144.5 1.091e+04 1.672e-10
 75.11577   -143.4 1.089e+04 1.513e-10
 75.15533   -142.3 1.083e+04 1.376e-10
 75.19489   -141.2 1.075e+04 1.265e-10
 75.23446   -140.0 1.064e+04 1.173e-10
 75.27402   -138.8 1.052e+04 1.098e-10
 75.31358   -137.3 1.042e+04 1.025e-10
 75.34269   -135.8 1.034e+04 9.478e-11
 75.36247   -135.1 1.039e+04 1.056e-10
 75.39271   -133.5 1.030e+04 9.649e-11
 75.43227   -131.9 1.021e+04 8.812e-11
 75.47184   -130.3 1.012e+04 8.180e-11
 75.51140   -128.7 1.004e+04 7.833e-11
 75.55096   -127.1 1.000e+04 7.741e-11
 75.58986   -125.5 9.993e+03 7.728e-11
 75.60964   -124.8 1.003e+04 9.214e-11
 75.63009   -123.2 1.000e+04 9.374e-11
 75.66965   -121.7 9.965e+03 9.793e-11
 75.70921   -120.2 9.933e+03 1.027e-10
 75.74878   -118.7 9.939e+03 1.072e-10
 75.78834   -117.3 9.999e+03 1.130e-10
 75.82280   -116.1 1.007e+04 1.254e-10
 75.84258   -115.6 9.909e+03 1.102e-10
 75.85680   -114.5 9.991e+03 1.179e-10
 75.87658   -113.9 1.003e+04 1.400e-10
 75.90703   -112.9 1.015e+04 1.698e-10
 75.94659   -111.9 1.030e+04 2.281e-10
 75.98615   -111.0 1.052e+04 3.203e-10
 76.02572   -110.0 1.075e+04 4.294e-10
 76.06528   -109.2 1.094e+04 5.085e-10
 76.10397   -108.6 1.099e+04 5.270e-10
 76.12375   -107.9 1.094e+04 4.976e-10
 76.14441   -107.2 1.092e+04 4.905e-10
 76.18397   -106.4 1.080e+04 4.160e-10
 76.22353   -105.6 1.067e+04 3.260e-10
 76.26310   -104.9 1.060e+04 2.780e-10
 76.30266   -104.5 1.060e+04 2.685e-10
 76.34222   -104.4 1.067e+04 2.781e-10
 76.37091   -104.3 1.085e+04 3.408e-10
 76.39070   -103.1 1.074e+04 3.269e-10
 76.42135   -103.0 1.088e+04 3.946e-10
 76.46091   -102.8 1.101e+04 4.319e-10
 76.50047   -102.6 1.104e+04 4.369e-10
 76.54004   -102.2 1.102e+04 4.256e-10
 76.57960   -101.5 1.101e+04 4.092e-10
 76.61808   -100.6 1.103e+04 4.035e-10
 76.63786   -100.0 1.116e+04 4.698e-10
 76.65873    -99.1 1.118e+04 4.415e-10
 76.69124    -98.2 1.114e+04 4.089e-10
 76.71103    -98.2 1.109e+04 3.800e-10
 76.73785    -97.3 1.111e+04 3.617e-10
 76.77742    -96.4 1.116e+04 3.500e-10
 76.81698    -95.4 1.119e+04 3.473e-10
 76.85654    -94.5 1.125e+04 3.479e-10
 76.88503    -93.6 1.134e+04 3.455e-10
 76.90481    -93.5 1.122e+04 3.381e-10
 76.93567    -92.6 1.120e+04 3.179e-10
 76.97523    -91.7 1.125e+04 3.072e-10
 77.01479    -90.8 1.138e+04 3.099e-10
 77.05436    -90.2 1.165e+04 3.793e-10
 77.09392    -89.6 1.175e+04 5.396e-10
 77.13219    -88.8 1.184e+04 7.286e-10
 77.15197    -88.4 1.173e+04 6.742e-10
 77.17305    -87.5 1.176e+04 7.808e-10
 77.21261    -86.7 1.176e+04 8.050e-10
 77.25217    -85.5 1.146e+04 7.352e-10
 77.29173    -84.0 1.108e+04 5.473e-10
 77.33130    -82.5 1.081e+04 3.848e-10
 77.37086    -81.1 1.063e+04 2.865e-10
 77.39914    -79.7 1.051e+04 2.450e-10
 77.41892    -79.0 1.042e+04 2.343e-10
 77.44999    -77.3 1.038e+04 2.293e-10
 77.48955    -75.6 1.035e+04 2.347e-10
 77.52911    -73.9 1.034e+04 2.457e-10
 77.55969    -72.1 1.033e+04 2.497e-10
 77.57947    -72.6 1.033e+04 2.580e-10
 77.60824    -70.7 1.029e+04 2.595e-10
 77.64630    -68.9 1.020e+04 2.555e-10
 77.66608    -68.3 1.019e+04 2.500e-10
 77.68737    -66.5 1.012e+04 2.399e-10
 77.72693    -64.7 1.002e+04 2.229e-10
 77.76649    -63.0 9.890e+03 2.000e-10
 77.80605    -61.2 9.775e+03 1.746e-10
 77.84562    -59.7 9.747e+03 1.584e-10
 77.88518    -58.6 9.763e+03 1.556e-10
 77.91325    -58.3 9.873e+03 1.583e-10
 77.93303    -57.5 9.921e+03 1.720e-10
 77.96431    -58.1 1.038e+04 2.914e-10
 78.00387    -59.3 1.121e+04 6.444e-10
 78.04343    -61.0 1.227e+04 1.228e-09
 78.07301    -62.4 1.283e+04 1.690e-09
 78.09269    -63.7 1.317e+04 2.057e-09
 78.11247    -65.2 1.340e+04 2.676e-09
 78.13225    -66.1 1.351e+04 3.383e-09
 78.15204    -66.8 1.361e+04 3.882e-09
 78.17011    -67.5 1.365e+04 3.993e-09
 78.18000    -67.8 1.371e+04 3.947e-09
 78.19160    -68.9 1.376e+04 3.879e-09
 78.21138    -70.3 1.377e+04 3.487e-09
 78.23116    -72.0 1.370e+04 3.156e-09
 78.25094    -73.5 1.346e+04 2.952e-09
 78.27072    -74.4 1.307e+04 2.762e-09
 78.29051    -74.7 1.259e+04 2.466e-09
 78.30358    -74.8 1.209e+04 2.056e-09
 78.31347    -75.0 1.229e+04 2.315e-09
 78.33007    -75.0 1.177e+04 1.706e-09
 78.34985    -75.1 1.126e+04 1.197e-09
 78.36963    -75.2 1.079e+04 8.562e-10
 78.38941    -75.0 1.044e+04 6.433e-10
 78.40920    -74.7 1.024e+04 5.191e-10
 78.42716    -74.3 1.017e+04 4.561e-10
 78.43612    -74.8 1.012e+04 4.451e-10
 78.44792    -74.9 9.987e+03 3.991e-10
 78.47863    -73.8 9.734e+03 3.261e-10
 78.51819    -72.4 9.514e+03 2.798e-10
 78.55775    -70.9 9.397e+03 2.562e-10
 78.59731    -69.3 9.339e+03 2.400e-10
 78.63688    -67.6 9.313e+03 2.308e-10
 78.67452    -65.9 9.309e+03 2.293e-10
 78.69431    -65.9 9.302e+03 2.285e-10
 78.71600    -64.3 9.380e+03 2.391e-10
 78.75557    -62.6 9.464e+03 2.633e-10
 78.79513    -60.9 9.541e+03 2.907e-10
 78.83469    -59.1 9.611e+03 3.135e-10
 78.87426    -57.4 9.676e+03 3.279e-10
 78.91382    -55.9 9.805e+03 3.389e-10
 78.94147    -54.6 1.000e+04 3.728e-10
 78.96125    -54.8 1.009e+04 3.746e-10
 78.99295    -54.0 1.038e+04 4.804e-10
 79.02252    -53.3 1.042e+04 5.486e-10
 79.04220    -52.8 1.063e+04 6.793e-10
 79.06199    -52.2 1.088e+04 8.413e-10
 79.07475    -51.7 1.112e+04 1.005e-09
 79.08464    -51.9 1.137e+04 1.188e-09
 79.10155    -51.4 1.157e+04 1.347e-09
 79.12133    -51.0 1.170e+04 1.447e-09
 79.14111    -50.6 1.174e+04 1.477e-09
 79.16089    -50.3 1.174e+04 1.466e-09
 79.18067    -50.0 1.162e+04 1.312e-09
 79.19833    -49.4 1.142e+04 1.123e-09
 79.20822    -49.6 1.143e+04 1.101e-09
 79.23023    -49.5 1.111e+04 8.238e-10
 79.26989    -47.7 1.056e+04 4.804e-10
 79.29659    -46.3 1.033e+04 3.436e-10
 79.31637    -45.8 1.051e+04 4.376e-10
 79.34901    -44.3 1.034e+04 3.475e-10
 79.38858    -42.5 1.027e+04 3.244e-10
 79.42814    -40.4 1.024e+04 3.224e-10
 79.45558    -38.3 1.028e+04 3.328e-10
 79.47536    -38.6 1.044e+04 4.740e-10
 79.50726    -36.3 1.050e+04 4.906e-10
 79.54683    -34.1 1.067e+04 5.199e-10
 79.58639    -32.3 1.101e+04 6.007e-10
 79.62595    -30.9 1.148e+04 8.365e-10
 79.66552    -29.5 1.204e+04 1.305e-09
 79.70275    -28.1 1.264e+04 1.901e-09
 79.72253    -28.5 1.263e+04 1.877e-09
 79.73071    -27.3 1.318e+04 2.440e-09
 79.74050    -27.9 1.310e+04 2.317e-09
 79.75434    -27.8 1.330e+04 2.512e-09
 79.77412    -27.8 1.350e+04 2.730e-09
 79.79390    -27.7 1.380e+04 2.860e-09
 79.81368    -28.2 1.418e+04 3.012e-09
 79.83346    -29.0 1.434e+04 3.194e-09
 79.84592    -30.0 1.426e+04 3.260e-09
 79.85581    -30.6 1.415e+04 3.373e-09
 79.87303    -31.3 1.390e+04 3.249e-09
 79.89281    -31.8 1.352e+04 2.984e-09
 79.91259    -32.0 1.321e+04 2.648e-09
 79.93237    -32.2 1.298e+04 2.336e-09
 79.95215    -32.4 1.275e+04 2.072e-09
 79.96950    -32.5 1.253e+04 1.878e-09
 79.97939    -32.5 1.234e+04 1.622e-09
 79.99172    -32.3 1.212e+04 1.423e-09
 80.02149    -32.8 1.176e+04 1.165e-09
 80.06115    -32.2 1.135e+04 9.716e-10
 80.10071    -31.5 1.115e+04 8.765e-10
 80.14027    -30.7 1.100e+04 7.951e-10
 80.16503    -29.9 1.083e+04 6.999e-10
 80.18481    -29.1 1.046e+04 4.493e-10
 80.21686    -28.4 1.043e+04 4.397e-10
 80.23664    -28.5 1.070e+04 5.464e-10
 80.25896    -27.9 1.073e+04 5.766e-10
 80.29853    -27.0 1.076e+04 6.000e-10
 80.32810    -26.3 1.065e+04 5.792e-10
 80.34778    -25.4 1.053e+04 5.252e-10
 80.37755    -24.4 1.042e+04 4.314e-10
 80.41721    -23.7 1.041e+04 3.521e-10
 80.45678    -23.7 1.056e+04 3.373e-10
 80.48371    -24.6 1.081e+04 4.665e-10
 80.49350    -24.8 1.078e+04 4.805e-10
 80.50604    -24.5 1.087e+04 6.439e-10
 80.52582    -24.2 1.102e+04 8.557e-10
 80.54560    -23.6 1.122e+04 1.089e-09
 80.56538    -22.9 1.144e+04 1.289e-09
 80.58516    -22.1 1.168e+04 1.404e-09
 80.61493    -22.1 1.177e+04 1.418e-09
 80.65459    -21.7 1.163e+04 1.294e-09
 80.69416    -21.0 1.156e+04 1.217e-09
 80.72373    -21.1 1.207e+04 1.430e-09
 80.74067    -21.4 1.263e+04 1.769e-09
 80.75056    -22.7 1.326e+04 2.539e-09
 80.76320    -22.8 1.379e+04 3.618e-09
 80.78298    -22.2 1.415e+04 4.773e-09
 80.80276    -21.2 1.438e+04 5.547e-09
 80.82254    -19.9 1.451e+04 5.817e-09
 80.84232    -18.7 1.446e+04 5.603e-09
 80.86210    -17.4 1.413e+04 4.336e-09
 80.87414    -16.7 1.364e+04 2.906e-09
 80.88403    -17.1 1.278e+04 1.843e-09
 80.90167    -17.2 1.208e+04 1.202e-09
 80.93144    -17.1 1.188e+04 1.076e-09
 80.97110    -16.2 1.074e+04 5.794e-10
 80.99792    -14.7 9.802e+03 3.235e-10
 81.01770    -15.3 9.253e+03 2.231e-10
 81.03348    -13.8 9.063e+03 2.008e-10
 81.05326    -13.9 9.161e+03 2.406e-10
 81.08979    -11.9 9.048e+03 2.433e-10
 81.12935    -10.0 9.041e+03 2.495e-10
 81.16891     -8.3 9.134e+03 2.536e-10
 81.20848     -7.0 9.394e+03 2.763e-10
 81.24508     -6.6 9.409e+03 2.833e-10
 81.26477     -6.2 9.422e+03 3.251e-10
 81.27752     -5.5 9.413e+03 3.652e-10
 81.29730     -5.1 9.504e+03 3.907e-10
 81.31708     -3.9 9.671e+03 4.334e-10
 81.33686     -3.5 9.657e+03 4.359e-10
 81.35664     -2.5 9.643e+03 4.484e-10
 81.37642     -2.0 9.602e+03 4.287e-10
 81.38825     -1.0 9.630e+03 3.932e-10
 81.39814     -1.1 9.614e+03 4.199e-10
 81.41599     -0.6 9.549e+03 3.924e-10
 81.43577      0.2 9.467e+03 3.473e-10
 81.45555      0.8 9.434e+03 3.245e-10
 81.46751      1.8 9.478e+03 2.985e-10
 81.47740      1.8 9.444e+03 3.005e-10
 81.49511      2.2 9.409e+03 2.846e-10
 81.51183      3.4 9.525e+03 2.757e-10
 81.52172      3.2 9.984e+03 3.521e-10
 81.53468      3.5 1.043e+04 3.912e-10
 81.55446      3.7 1.076e+04 4.947e-10
 81.57424      4.2 1.120e+04 6.837e-10
 81.59402      5.5 1.218e+04 9.796e-10
 81.61380      6.7 1.310e+04 1.387e-09
 81.63358      7.9 1.371e+04 2.005e-09
 81.64531      8.5 1.446e+04 2.676e-09
 81.65020      8.0 1.510e+04 4.243e-09
 81.65821      8.1 1.527e+04 4.404e-09
 81.66810      8.5 1.567e+04 5.352e-09
 81.67799      8.6 1.584e+04 5.648e-09
 81.68452      9.5 1.615e+04 7.544e-09
 81.68947      9.5 1.632e+04 7.144e-09
 81.69777      9.7 1.664e+04 7.504e-09
 81.70700     10.4 1.698e+04 9.746e-09
 81.71194     10.7 1.801e+04 1.499e-08
 81.71756     11.6 1.861e+04 1.734e-08
 81.72745     12.6 1.888e+04 2.096e-08
 81.73734     13.2 1.954e+04 2.395e-08
 81.74723     13.7 2.029e+04 2.926e-08
 81.75712     13.6 2.136e+04 3.494e-08
 81.76701     13.0 2.351e+04 4.461e-08
 81.77374     11.6 2.536e+04 6.034e-08
 81.77868      9.4 2.606e+04 1.126e-07
 81.78679      7.8 2.504e+04 2.050e-07
 81.79668      6.7 2.333e+04 4.120e-07
 81.80657      5.5 2.204e+04 7.156e-07
 81.81646      4.0 2.150e+04 8.784e-07
 81.82635      3.3 2.108e+04 8.676e-07
 81.83553      3.3 2.089e+04 6.932e-07
 81.84047      1.9 2.084e+04 6.310e-07
 81.84614      2.4 2.074e+04 3.474e-07
 81.85603      3.3 2.047e+04 1.726e-07
 81.86592      3.8 2.028e+04 9.091e-08
 81.87581      3.7 2.044e+04 5.221e-08
 81.88570      2.6 2.071e+04 3.284e-08
 81.89559      1.0 2.022e+04 2.224e-08
 81.90168     -1.5 1.984e+04 1.314e-08
 81.90341     -0.0 1.962e+04 2.010e-08
 81.91220     -1.4 1.813e+04 1.125e-08
 81.93031     -2.3 1.731e+04 9.040e-09
 81.95009     -1.9 1.759e+04 8.395e-09
 81.96987     -1.7 1.830e+04 8.732e-09
 81.98965     -1.5 1.900e+04 1.008e-08
 82.00943     -1.1 1.985e+04 1.277e-08
 82.02422     -1.2 2.102e+04 1.639e-08
 82.03079     -1.3 2.165e+04 1.867e-08
 82.03579     -0.4 1.928e+04 9.588e-09
 82.04400     -1.3 2.142e+04 1.507e-08
 82.05384     -1.7 2.171e+04 1.658e-08
 82.06373     -2.6 2.221e+04 2.104e-08
 82.07362     -2.9 2.207e+04 2.468e-08
 82.08351     -3.5 2.149e+04 2.936e-08
 82.09258     -3.5 2.118e+04 3.442e-08
 82.09753     -3.4 2.052e+04 2.772e-08
 82.10330     -3.3 2.042e+04 3.267e-08
 82.11319     -2.7 2.047e+04 3.615e-08
 82.11875     -2.3 2.050e+04 3.642e-08
 82.12369     -2.0 2.009e+04 2.873e-08
 82.13297     -1.3 2.012e+04 2.934e-08
 82.14286     -0.9 2.012e+04 2.741e-08
 82.15275     -0.1 2.001e+04 2.397e-08
 82.15937      0.5 2.009e+04 1.883e-08
 82.16931      0.9 1.934e+04 1.716e-08
 82.18747      1.1 1.870e+04 1.037e-08
 82.20725     -0.0 1.715e+04 5.797e-09
 82.22703     -1.6 1.483e+04 3.535e-09
 82.24681     -2.4 1.333e+04 2.687e-09
 82.26659     -1.8 1.294e+04 2.436e-09
 82.28300     -1.1 1.279e+04 2.392e-09
 82.29289     -0.9 1.283e+04 2.394e-09
 82.30615     -0.3 1.259e+04 2.343e-09
 82.32594      0.9 1.255e+04 2.324e-09
 82.33595      2.0 1.233e+04 2.049e-09
 82.34585      2.2 1.233e+04 2.040e-09
 82.36550      3.7 1.202e+04 1.790e-09
 82.38528      4.8 1.178e+04 1.391e-09
 82.40506      5.9 1.152e+04 1.187e-09
 82.43483      6.1 1.118e+04 8.461e-10
 82.47449      7.6 1.044e+04 5.206e-10
 82.51406      9.1 1.003e+04 3.658e-10
 82.54025     10.0 9.810e+03 2.980e-10
 82.56003      9.4 9.708e+03 3.321e-10
 82.59318     10.9 9.727e+03 3.401e-10
 82.63274     12.5 9.770e+03 3.875e-10
 82.67231     14.0 9.928e+03 4.092e-10
 82.71187     15.2 1.007e+04 4.214e-10
 82.75059     16.0 1.026e+04 4.181e-10
 82.77028     16.9 1.025e+04 4.107e-10
 82.78091     17.4 1.023e+04 4.211e-10
 82.79711     17.7 1.021e+04 4.273e-10
 82.80700     17.4 1.032e+04 4.692e-10
 82.82047     18.0 1.032e+04 4.899e-10
 82.84026     18.7 1.030e+04 4.964e-10
 82.86004     19.4 1.032e+04 5.015e-10
 82.87982     20.2 1.039e+04 5.069e-10
 82.89960     20.2 1.060e+04 5.330e-10
 82.91938     20.6 1.073e+04 5.541e-10
 82.93058     20.8 1.081e+04 5.853e-10
 82.94048     20.4 1.072e+04 5.721e-10
 82.95894     20.5 1.097e+04 6.316e-10
 82.97873     20.3 1.124e+04 7.658e-10
 82.99851     20.3 1.142e+04 9.228e-10
 83.01829     19.9 1.198e+04 1.250e-09
 83.03807     19.5 1.251e+04 1.629e-09
 83.05417     19.5 1.286e+04 2.080e-09
 83.06406     18.7 1.294e+04 2.375e-09
 83.07763     19.4 1.284e+04 2.597e-09
 83.09742     20.2 1.256e+04 2.482e-09
 83.11720     20.9 1.229e+04 2.115e-09
 83.13698     21.5 1.195e+04 1.630e-09
 83.15676     22.2 1.167e+04 1.171e-09
 83.17654     22.0 1.157e+04 8.133e-10
 83.18764     22.2 1.118e+04 5.794e-10
 83.19572     21.2 1.114e+04 4.164e-10
 83.20440     22.2 1.150e+04 6.573e-10
 83.21610     22.0 1.113e+04 4.602e-10
 83.23589     22.2 1.068e+04 3.724e-10
 83.26566     24.3 1.030e+04 2.569e-10
 83.30153     25.9 1.006e+04 1.540e-10
 83.32131     24.3 1.000e+04 1.628e-10
 83.34488     25.7 9.954e+03 1.411e-10
 83.38444     27.4 9.933e+03 1.700e-10
 83.42401     29.1 1.014e+04 2.507e-10
 83.46357     30.8 1.053e+04 3.812e-10
 83.50313     32.5 1.095e+04 5.845e-10
 83.54269     34.2 1.108e+04 7.044e-10
 83.56838     35.4 1.103e+04 7.507e-10
 83.57817     34.6 1.154e+04 9.519e-10
 83.59195     35.4 1.158e+04 9.982e-10
 83.61173     36.1 1.152e+04 1.022e-09
 83.62873     37.0 1.140e+04 1.017e-09
 83.63863     38.0 1.124e+04 8.686e-10
 83.65130     38.8 1.109e+04 8.627e-10
 83.67108     39.6 1.097e+04 8.462e-10
 83.69086     40.4 1.087e+04 8.092e-10
 83.70175     41.3 1.078e+04 7.562e-10
 83.71164     40.9 1.124e+04 7.825e-10
 83.73042     41.8 1.108e+04 6.891e-10
 83.75021     42.6 1.094e+04 6.001e-10
 83.76999     43.6 1.065e+04 5.301e-10
 83.78977     44.7 1.034e+04 4.637e-10
 83.80955     45.8 1.009e+04 3.989e-10
 83.82533     46.2 1.001e+04 3.811e-10
 83.83532     45.6 9.698e+03 4.212e-10
 83.85920     47.5 9.572e+03 4.132e-10
 83.89876     49.7 9.535e+03 4.247e-10
 83.93832     51.9 9.538e+03 4.543e-10
 83.97789     53.7 9.545e+03 4.670e-10
 84.00746     54.8 9.508e+03 4.767e-10
 84.02715     55.7 9.628e+03 4.971e-10
 84.04693     56.4 9.765e+03 5.241e-10
 84.06296     57.0 9.907e+03 5.741e-10
 84.07285     57.6 9.885e+03 5.717e-10
 84.08239     58.0 1.005e+04 6.488e-10
 84.09228     57.5 1.052e+04 6.369e-10
 84.10627     57.8 1.073e+04 7.547e-10
 84.12605     58.3 1.092e+04 8.961e-10
 84.14584     58.7 1.110e+04 1.043e-09
 84.16562     59.2 1.125e+04 1.167e-09
 84.18540     59.4 1.126e+04 1.211e-09
 84.20518     59.5 1.123e+04 1.197e-09
 84.21586     59.6 1.109e+04 1.132e-09
 84.22575     59.5 1.094e+04 1.139e-09
 84.24474     59.4 1.086e+04 9.983e-10
 84.26452     59.0 1.082e+04 8.627e-10
 84.28431     58.2 1.083e+04 7.456e-10
 84.30409     57.0 1.080e+04 6.548e-10
 84.32387     55.8 1.068e+04 5.977e-10
 84.33945     54.8 1.061e+04 5.971e-10
 84.34934     52.7 1.106e+04 6.374e-10
 84.36343     51.4 1.148e+04 7.963e-10
 84.38321     50.4 1.184e+04 1.029e-09
 84.40300     49.6 1.201e+04 1.311e-09
 84.42278     49.0 1.216e+04 1.648e-09
 84.44256     48.7 1.239e+04 2.023e-09
 84.46234     48.7 1.263e+04 2.275e-09
 84.47292     48.6 1.263e+04 2.270e-09
 84.48281     47.9 1.265e+04 2.160e-09
 84.49718     47.8 1.244e+04 1.848e-09
 84.50707     47.6 1.253e+04 1.951e-09
 84.52168     47.3 1.223e+04 1.592e-09
 84.54147     46.8 1.185e+04 1.251e-09
 84.56125     46.1 1.148e+04 9.939e-10
 84.58103     45.3 1.120e+04 8.348e-10
 84.59650     44.8 1.090e+04 7.668e-10
 84.60639     43.9 1.088e+04 8.660e-10
 84.62059     43.9 1.092e+04 9.087e-10
 84.64037     44.0 1.104e+04 9.880e-10
 84.66015     44.3 1.121e+04 1.070e-09
 84.67994     44.7 1.137e+04 1.109e-09
 84.69972     44.9 1.142e+04 1.107e-09
 84.71950     45.0 1.144e+04 1.069e-09
 84.72997     44.9 1.146e+04 9.937e-10
 84.73986     44.2 1.171e+04 1.149e-09
 84.75906     43.8 1.168e+04 1.071e-09
 84.77884     43.6 1.157e+04 1.040e-09
 84.79863     43.6 1.154e+04 1.013e-09
 84.81841     43.7 1.150e+04 9.952e-10
 84.84376     44.3 1.127e+04 8.700e-10
 84.86364     43.4 1.119e+04 7.576e-10
 84.88784     44.2 1.078e+04 5.094e-10
 84.92740     44.9 1.037e+04 3.185e-10
 84.96696     45.6 1.002e+04 2.060e-10
 85.00653     46.3 9.709e+03 1.483e-10
 85.04609     47.2 9.309e+03 1.325e-10
 85.08565     48.5 9.285e+03 1.332e-10
 85.11081     49.8 9.408e+03 1.414e-10
 85.13059     49.2 9.797e+03 1.635e-10
 85.16478     48.9 1.019e+04 2.477e-10
 85.20434     49.0 1.100e+04 5.877e-10
 85.23392     48.7 1.135e+04 8.225e-10
 85.24409     48.5 1.174e+04 1.113e-09
 85.25398     48.3 1.190e+04 1.231e-09
 85.27338     48.0 1.237e+04 1.650e-09
 85.29316     47.8 1.280e+04 2.073e-09
 85.31295     47.4 1.302e+04 2.203e-09
 85.33273     47.0 1.297e+04 2.116e-09
 85.35251     46.9 1.277e+04 1.795e-09
 85.36563     46.8 1.249e+04 1.369e-09
 85.37090     46.5 1.238e+04 1.191e-09
 85.37756     46.0 1.248e+04 1.074e-09
 85.39207     45.1 1.231e+04 8.188e-10
 85.41185     44.0 1.203e+04 7.003e-10
 85.43163     43.3 1.172e+04 6.946e-10
 85.45142     43.2 1.166e+04 7.189e-10
 85.47120     43.3 1.158e+04 7.549e-10
 85.49098     43.8 1.157e+04 7.800e-10
 85.50114     44.5 1.156e+04 7.646e-10
 85.51103     44.1 1.166e+04 8.033e-10
 85.53054     44.7 1.161e+04 7.558e-10
 85.55032     45.5 1.141e+04 6.761e-10
 85.57010     45.8 1.136e+04 6.494e-10
 85.58989     46.8 1.113e+04 5.432e-10
 85.60967     47.0 1.111e+04 5.235e-10
 85.62472     48.0 1.093e+04 4.608e-10
 85.64460     47.4 1.092e+04 3.887e-10
 85.67910     48.9 1.082e+04 3.914e-10
 85.71866     50.6 1.068e+04 3.797e-10
 85.75822     52.2 1.064e+04 3.771e-10
 85.79779     53.7 1.064e+04 3.919e-10
 85.83735     55.3 1.065e+04 4.134e-10
 85.87208     57.1 1.062e+04 4.306e-10
 85.89187     56.9 1.061e+04 4.574e-10
 85.91648     58.7 1.059e+04 4.600e-10
 85.95604     60.5 1.061e+04 4.659e-10
 85.99560     62.1 1.070e+04 4.893e-10
 86.02518     63.0 1.075e+04 5.301e-10
 86.04486     63.7 1.079e+04 5.585e-10
 86.06464     64.7 1.089e+04 6.198e-10
 86.08442     65.3 1.098e+04 6.669e-10
 86.10421     66.2 1.104e+04 7.079e-10
 86.12399     66.7 1.108e+04 7.270e-10
 86.13884     67.4 1.109e+04 7.298e-10
 86.15871     67.8 1.104e+04 7.221e-10
 86.19342     68.8 1.102e+04 7.153e-10
 86.22438     69.9 1.094e+04 6.666e-10
 86.24416     70.0 1.104e+04 6.977e-10
 86.27254     71.1 1.085e+04 5.681e-10
 86.31211     72.0 1.067e+04 4.521e-10
 86.35167     73.0 1.049e+04 3.825e-10
 86.38620     74.2 1.031e+04 3.555e-10
 86.40598     74.3 1.040e+04 4.414e-10
 86.43080     75.6 1.024e+04 3.850e-10
 86.47036     77.0 1.017e+04 3.552e-10
 86.50992     78.3 1.014e+04 3.333e-10
 86.54949     79.7 1.012e+04 3.100e-10
 86.58905     81.2 1.010e+04 2.809e-10
 86.62861     82.7 1.013e+04 2.639e-10
 86.65314     84.3 1.016e+04 2.669e-10
 86.67292     84.6 9.717e+03 1.661e-10
 86.70774     86.3 9.789e+03 1.766e-10
 86.74730     87.9 9.977e+03 2.100e-10
 86.78686     89.5 1.022e+04 2.687e-10
 86.82643     91.1 1.044e+04 3.420e-10
 86.86599     92.7 1.060e+04 4.043e-10
 86.90031     94.3 1.070e+04 4.201e-10
 86.92009     95.5 1.035e+04 3.085e-10
 86.94512     97.2 1.044e+04 3.223e-10
 86.98468     98.8 1.047e+04 3.311e-10
 87.02424    100.4 1.056e+04 3.554e-10
 87.06380    101.7 1.086e+04 4.336e-10
 87.09283    102.6 1.131e+04 5.602e-10
 87.11261    102.3 1.133e+04 5.759e-10
 87.14293    102.7 1.166e+04 6.903e-10
 87.16725    103.0 1.186e+04 7.315e-10
 87.18703    104.8 1.197e+04 8.046e-10
 87.22206    104.9 1.235e+04 9.634e-10
 87.26162    105.2 1.259e+04 1.109e-09
 87.30118    106.2 1.275e+04 1.259e-09
 87.34075    107.0 1.286e+04 1.422e-09
 87.37032    106.9 1.312e+04 1.643e-09
 87.39000    106.8 1.346e+04 2.048e-09
 87.40979    106.4 1.393e+04 2.796e-09
 87.42411    106.0 1.453e+04 3.918e-09
 87.43400    105.9 1.556e+04 6.258e-09
 87.44935    105.1 1.641e+04 9.364e-09
 87.46913    104.2 1.725e+04 1.182e-08
 87.48891    102.6 1.752e+04 1.192e-08
 87.50869    101.0 1.747e+04 1.101e-08
 87.52685     99.8 1.697e+04 8.138e-09
 87.53675     99.5 1.601e+04 5.725e-09
 87.54770     98.6 1.498e+04 3.662e-09
 87.55759     99.9 1.578e+04 4.152e-09
 87.56804     99.3 1.449e+04 1.853e-09
 87.58782     98.1 1.319e+04 8.245e-10
 87.60760     96.7 1.263e+04 4.774e-10
 87.62738     95.9 1.219e+04 3.838e-10
 87.64716     95.8 1.176e+04 3.624e-10
 87.66695     95.8 1.164e+04 3.638e-10
 87.68117     96.1 1.158e+04 3.653e-10
 87.69106     96.1 1.159e+04 3.393e-10
 87.70651     96.5 1.149e+04 3.516e-10
 87.72629     96.8 1.146e+04 4.060e-10
 87.74607     97.1 1.159e+04 5.031e-10
 87.76585     97.3 1.174e+04 6.410e-10
 87.78563     97.5 1.189e+04 8.223e-10
 87.80475     97.8 1.205e+04 1.047e-09
 87.81464     98.0 1.216e+04 1.079e-09
 87.82520     98.4 1.229e+04 1.348e-09
 87.84498     98.9 1.242e+04 1.584e-09
 87.86476     99.3 1.245e+04 1.621e-09
 87.88454     99.5 1.241e+04 1.602e-09
 87.90432     99.8 1.227e+04 1.508e-09
 87.92411    100.3 1.204e+04 1.347e-09
 87.93822    100.8 1.180e+04 1.167e-09
 87.94812    100.9 1.174e+04 1.174e-09
 87.96108    101.5 1.151e+04 9.962e-10
 87.97097    101.4 1.170e+04 1.164e-09
 87.98345    102.0 1.153e+04 1.003e-09
 88.00323    102.7 1.141e+04 8.720e-10
 88.02301    103.2 1.137e+04 7.894e-10
 88.04279    103.9 1.130e+04 7.173e-10
 88.06181    104.2 1.128e+04 6.916e-10
 88.07170    104.3 1.124e+04 6.831e-10
 88.09235    105.4 1.117e+04 6.253e-10
 88.13201    106.7 1.097e+04 4.983e-10
 88.17157    107.9 1.080e+04 3.675e-10
 88.19548    109.0 1.062e+04 2.620e-10
 88.21526    109.4 1.058e+04 3.128e-10
 88.25070    110.6 1.053e+04 2.777e-10
 88.29026    111.8 1.054e+04 2.791e-10
 88.32982    112.9 1.064e+04 2.973e-10
 88.36938    113.9 1.087e+04 3.560e-10
 88.40895    113.9 1.113e+04 4.269e-10
 88.43852    113.6 1.137e+04 5.199e-10
 88.45234    113.4 1.162e+04 6.460e-10
 88.46223    113.3 1.195e+04 8.093e-10
 88.47799    112.8 1.231e+04 9.638e-10
 88.49777    112.3 1.254e+04 1.091e-09
 88.52754    111.5 1.279e+04 1.235e-09
 88.56720    110.1 1.285e+04 1.277e-09
 88.60676    108.7 1.271e+04 1.215e-09
 88.64633    107.5 1.237e+04 1.048e-09
 88.68589    107.2 1.193e+04 8.143e-10
 88.70959    107.3 1.147e+04 5.737e-10
 88.72937    107.8 1.163e+04 6.461e-10
 88.76502    108.5 1.128e+04 4.734e-10
 88.80458    109.5 1.101e+04 3.373e-10
 88.82972    110.6 1.087e+04 2.348e-10
 88.84950    110.3 1.058e+04 2.002e-10
 88.88370    111.4 1.051e+04 1.456e-10
 88.92327    112.7 1.032e+04 1.303e-10
 88.95675    114.3 1.029e+04 1.310e-10
 88.97653    115.2 1.048e+04 1.302e-10
 89.00239    116.7 1.041e+04 1.312e-10
 89.04196    118.3 1.045e+04 1.329e-10
 89.08152    119.9 1.058e+04 1.382e-10
 89.12108    121.4 1.076e+04 1.467e-10
 89.16065    122.8 1.096e+04 1.574e-10
 89.20021    124.1 1.117e+04 1.713e-10
 89.22370    125.2 1.134e+04 1.883e-10
 89.24348    124.6 1.195e+04 4.856e-10
 89.27933    125.6 1.196e+04 5.760e-10
 89.31890    126.6 1.193e+04 6.437e-10
 89.35846    127.5 1.188e+04 6.743e-10
 89.39802    128.5 1.187e+04 6.869e-10
 89.43759    129.5 1.190e+04 7.052e-10
 89.47086    130.5 1.197e+04 7.467e-10
 89.49064    129.6 1.256e+04 9.617e-10
 89.51671    130.4 1.263e+04 9.745e-10
 89.55628    131.1 1.270e+04 1.007e-09
 89.59584    131.7 1.270e+04 1.015e-09
 89.63540    132.1 1.266e+04 9.887e-10
 89.67497    132.6 1.249e+04 8.927e-10
 89.69817    133.1 1.223e+04 7.364e-10
 89.71795    133.3 1.203e+04 6.122e-10
 89.73781    133.8 1.178e+04 5.117e-10
 89.75759    132.8 1.171e+04 4.965e-10
 89.79365    133.8 1.148e+04 4.098e-10
 89.83322    134.9 1.129e+04 3.366e-10
 89.87278    136.1 1.117e+04 2.765e-10
 89.91234    137.5 1.110e+04 2.302e-10
 89.95191    139.0 1.106e+04 1.944e-10
 89.98497    140.6 1.105e+04 1.623e-10
 90.00476    140.3 1.110e+04 1.082e-10
 90.03103    141.8 1.108e+04 8.971e-11
 90.07060    143.4 1.105e+04 7.850e-11
 90.11016    145.0 1.094e+04 7.379e-11
 90.14972    146.9 1.084e+04 7.303e-11
 90.18928    148.8 1.081e+04 7.331e-11
 90.22885    150.9 1.076e+04 7.415e-11
 90.25192    153.0 1.074e+04 7.403e-11
 90.27170    152.9 1.078e+04 7.951e-11
 90.30797    155.0 1.077e+04 7.627e-11
 90.34754    157.2 1.072e+04 7.227e-11
 90.38710    159.3 1.066e+04 6.989e-11
 90.42666    161.5 1.066e+04 6.959e-11
 90.46623    163.6 1.065e+04 7.044e-11
 90.49909    165.6 1.065e+04 7.509e-11
 90.51887    165.3 1.065e+04 8.815e-11
 90.54535    167.2 1.066e+04 1.045e-10
 90.56661    169.1 1.069e+04 1.266e-10
 90.58640    168.9 1.065e+04 1.139e-10
 90.62448    170.8 1.066e+04 1.366e-10
 90.66404    172.6 1.067e+04 1.597e-10
 90.70360    174.4 1.068e+04 1.808e-10
 90.74317    176.1 1.070e+04 2.009e-10
 90.76603    177.6 1.080e+04 2.242e-10
 90.78581    176.9 1.104e+04 2.951e-10
 90.82229    177.9 1.122e+04 3.841e-10
 90.86186    178.9 1.148e+04 5.340e-10
 90.90142    179.7 1.179e+04 7.457e-10
 90.94098    180.2 1.206e+04 9.572e-10
 90.98055    180.3 1.217e+04 1.010e-09
 91.01320    180.3 1.214e+04 9.809e-10
 91.03298    179.6 1.219e+04 9.967e-10
 91.05967    179.8 1.187e+04 7.667e-10
 91.09923    180.1 1.146e+04 5.082e-10
 91.13880    180.7 1.107e+04 3.050e-10
 91.17836    181.4 1.076e+04 1.807e-10
 91.21792    182.3 1.051e+04 1.246e-10
 91.25749    183.5 1.032e+04 1.156e-10
 91.28014    185.1 1.030e+04 1.148e-10
 91.29993    184.9 1.037e+04 1.180e-10
 91.33661    186.6 1.039e+04 1.206e-10
 91.37618    188.2 1.043e+04 1.222e-10
 91.41528    189.5 1.044e+04 1.206e-10
 91.43506    189.7 1.042e+04 1.204e-10
 91.45530    191.0 1.042e+04 1.182e-10
 91.49486    192.1 1.040e+04 1.113e-10
 91.52731    193.2 1.033e+04 1.010e-10
 91.54709    192.8 1.039e+04 1.350e-10
 91.57399    193.9 1.029e+04 1.200e-10
 91.61355    195.1 1.019e+04 1.103e-10
 91.65312    196.3 1.014e+04 1.060e-10
 91.69268    197.6 1.013e+04 1.057e-10
 91.73224    198.9 1.012e+04 1.065e-10
 91.77181    200.2 1.011e+04 1.094e-10
 91.79426    201.5 1.013e+04 1.154e-10
 91.81404    201.0 1.024e+04 1.329e-10
 91.85093    202.1 1.030e+04 1.503e-10
 91.89050    203.2 1.037e+04 1.777e-10
 91.93006    204.3 1.045e+04 2.122e-10
 91.96962    205.3 1.051e+04 2.428e-10
 92.00918    206.2 1.056e+04 2.728e-10
 92.04142    207.1 1.064e+04 2.916e-10
 92.06120    206.8 1.051e+04 2.361e-10
 92.08831    207.7 1.049e+04 2.219e-10
 92.12787    208.4 1.056e+04 2.137e-10
 92.16744    208.7 1.058e+04 2.150e-10
 92.20700    208.6 1.065e+04 2.211e-10
 92.24656    208.4 1.078e+04 2.393e-10
 92.28373    207.9 1.092e+04 2.704e-10
 92.30351    208.4 1.074e+04 2.504e-10
 92.30837    207.6 1.091e+04 2.795e-10
 92.32815    207.8 1.107e+04 2.936e-10
 92.36525    206.7 1.126e+04 3.442e-10
 92.40481    205.3 1.142e+04 4.169e-10
 92.44438    204.0 1.157e+04 5.307e-10
 92.48394    202.8 1.174e+04 6.841e-10
 92.52350    201.5 1.186e+04 7.855e-10
 92.55553    199.9 1.185e+04 7.833e-10
 92.57531    199.7 1.191e+04 8.209e-10
 92.60263    198.4 1.165e+04 6.970e-10
 92.64219    197.9 1.125e+04 5.002e-10
 92.68176    197.6 1.086e+04 3.265e-10
 92.72132    197.3 1.056e+04 2.203e-10
 92.76088    197.2 1.031e+04 1.789e-10
 92.80045    197.3 1.023e+04 1.787e-10
 92.82248    198.0 1.020e+04 1.813e-10
 92.84226    197.6 1.014e+04 1.782e-10
 92.87957    198.7 1.011e+04 1.891e-10
 92.91913    199.7 1.012e+04 2.055e-10
 92.95870    200.8 1.016e+04 2.257e-10
 92.99826    201.9 1.022e+04 2.523e-10
 93.03782    203.0 1.030e+04 2.849e-10
 93.06964    204.2 1.044e+04 3.248e-10
 93.08942    204.1 1.024e+04 2.824e-10
 93.11695    205.1 1.036e+04 3.109e-10
 93.15217    206.1 1.053e+04 3.523e-10
 93.17196    205.9 1.056e+04 3.445e-10
 93.19608    206.6 1.082e+04 4.294e-10
 93.23564    207.0 1.108e+04 5.618e-10
 93.27520    207.8 1.132e+04 7.531e-10
 93.31476    207.9 1.154e+04 9.552e-10
 93.33659    207.8 1.174e+04 1.106e-09
 93.35637    208.1 1.137e+04 8.380e-10
 93.39389    207.7 1.164e+04 9.979e-10
 93.43345    207.0 1.187e+04 1.084e-09
 93.47302    206.1 1.200e+04 1.118e-09
 93.51258    205.1 1.213e+04 1.131e-09
 93.55214    204.0 1.229e+04 1.143e-09
 93.58375    202.8 1.247e+04 1.149e-09
 93.60354    203.8 1.233e+04 1.110e-09
 93.63127    202.5 1.239e+04 1.106e-09
 93.67083    201.4 1.246e+04 1.079e-09
 93.71039    200.5 1.250e+04 1.010e-09
 93.74996    199.8 1.248e+04 9.353e-10
 93.78952    199.1 1.246e+04 8.806e-10
 93.82908    198.6 1.239e+04 8.799e-10
 93.85070    198.3 1.236e+04 8.839e-10
 93.87048    199.8 1.262e+04 1.138e-09
 93.90821    199.6 1.261e+04 1.138e-09
 93.94777    199.4 1.260e+04 1.158e-09
 93.98734    199.0 1.267e+04 1.267e-09
 94.02062    198.3 1.288e+04 1.495e-09
 94.04040    197.5 1.249e+04 1.096e-09
 94.06646    196.3 1.292e+04 1.519e-09
 94.09787    194.5 1.332e+04 1.816e-09
 94.11765    195.1 1.338e+04 1.860e-09
 94.14559    192.7 1.347e+04 1.853e-09
 94.18515    189.9 1.345e+04 1.707e-09
 94.22471    187.2 1.325e+04 1.257e-09
 94.26428    184.5 1.292e+04 7.319e-10
 94.30384    181.7 1.241e+04 3.833e-10
 94.34340    178.9 1.150e+04 2.934e-10
 94.36481    176.9 1.134e+04 2.918e-10
 94.38459    177.7 1.123e+04 2.818e-10
 94.42253    176.6 1.112e+04 2.925e-10
 94.46209    175.9 1.097e+04 3.196e-10
 94.50166    175.2 1.083e+04 3.382e-10
 94.54122    174.5 1.079e+04 3.360e-10
 94.58078    174.0 1.064e+04 3.280e-10
 94.61198    173.6 1.050e+04 3.061e-10
 94.63176    174.3 1.034e+04 2.731e-10
 94.65991    174.0 1.022e+04 2.514e-10
 94.69947    173.9 1.013e+04 2.274e-10
 94.73903    173.7 1.006e+04 1.997e-10
 94.77860    173.4 1.003e+04 1.713e-10
 94.81816    172.9 1.005e+04 1.528e-10
 94.85772    172.3 1.006e+04 1.505e-10
 94.87892    171.6 1.009e+04 1.533e-10
 94.89049    172.5 9.978e+03 1.673e-10
 94.90885    172.1 1.006e+04 1.738e-10
 94.93685    171.3 1.015e+04 1.817e-10
 94.97641    170.0 1.035e+04 2.171e-10
 95.01598    167.9 1.090e+04 3.393e-10
 95.05554    164.8 1.201e+04 6.922e-10
 95.09510    160.8 1.309e+04 1.297e-09
 95.12609    156.2 1.370e+04 1.570e-09
 95.14587    157.1 1.299e+04 1.045e-09
 95.17423    152.1 1.299e+04 9.892e-10
 95.21379    147.4 1.278e+04 9.402e-10
 95.25335    143.3 1.271e+04 9.842e-10
 95.29292    139.7 1.281e+04 1.202e-09
 95.33248    136.3 1.311e+04 1.429e-09
 95.37204    132.9 1.315e+04 1.418e-09
 95.39303    129.4 1.301e+04 1.257e-09
 95.41282    130.7 1.296e+04 1.199e-09
 95.45117    126.7 1.270e+04 9.746e-10
 95.49073    122.5 1.244e+04 9.390e-10
 95.53029    118.9 1.227e+04 9.432e-10
 95.56986    116.2 1.211e+04 9.439e-10
 95.60942    114.6 1.187e+04 9.401e-10
 95.64020    113.8 1.164e+04 9.086e-10
 95.65998    113.9 1.166e+04 9.178e-10
 95.68855    113.7 1.144e+04 8.080e-10
 95.72811    113.6 1.121e+04 6.663e-10
 95.75751    113.7 1.094e+04 5.110e-10
 95.77730    113.0 1.084e+04 4.563e-10
 95.80724    113.4 1.052e+04 3.005e-10
 95.84680    113.7 1.015e+04 1.979e-10
 95.88636    114.2 9.825e+03 1.707e-10
 95.90715    115.0 9.809e+03 1.708e-10
 95.92693    115.9 9.955e+03 2.000e-10
 95.96549    116.9 9.952e+03 2.072e-10
 96.00505    118.0 1.000e+04 2.287e-10
 96.04461    118.8 1.008e+04 2.522e-10
 96.08418    119.4 1.017e+04 2.664e-10
 96.12374    119.8 1.027e+04 2.744e-10
 96.15431    120.2 1.046e+04 2.927e-10
 96.17409    121.5 1.034e+04 2.911e-10
 96.20287    121.9 1.047e+04 3.053e-10
 96.23244    122.2 1.058e+04 3.236e-10
 96.25212    122.2 1.075e+04 3.710e-10
 96.27191    122.0 1.087e+04 4.667e-10
 96.28759    122.1 1.093e+04 5.977e-10
 96.29748    122.7 1.082e+04 5.175e-10
 96.31147    123.0 1.085e+04 6.496e-10
 96.33125    123.4 1.094e+04 7.958e-10
 96.35103    123.9 1.107e+04 9.321e-10
 96.37081    124.5 1.123e+04 1.032e-09
 96.39060    125.0 1.132e+04 1.066e-09
 96.41038    125.5 1.129e+04 1.048e-09
 96.42106    126.1 1.115e+04 9.712e-10
 96.43095    126.5 1.126e+04 9.770e-10
 96.44994    127.0 1.113e+04 8.765e-10
 96.46972    127.6 1.089e+04 7.105e-10
 96.48950    127.9 1.061e+04 5.503e-10
 96.51927    128.4 1.038e+04 3.990e-10
 96.55893    129.5 1.010e+04 3.035e-10
 96.59850    130.7 9.901e+03 2.567e-10
 96.62596    131.9 9.918e+03 2.540e-10
 96.64574    133.0 1.020e+04 3.058e-10
 96.66842    134.2 1.017e+04 2.950e-10
 96.68820    135.3 1.039e+04 3.421e-10
 96.71719    136.3 1.050e+04 3.517e-10
 96.75675    137.1 1.057e+04 3.552e-10
 96.79631    137.8 1.058e+04 3.498e-10
 96.83587    138.3 1.056e+04 3.395e-10
 96.87544    138.7 1.056e+04 3.447e-10
 96.91500    139.0 1.062e+04 3.729e-10
 96.93537    139.2 1.074e+04 4.161e-10
 96.94516    139.3 1.072e+04 4.847e-10
 96.96426    139.6 1.081e+04 5.443e-10
 96.98404    140.0 1.099e+04 5.593e-10
 97.00382    140.2 1.103e+04 5.503e-10
 97.02360    140.4 1.107e+04 5.021e-10
 97.04339    140.5 1.099e+04 4.247e-10
 97.05876    140.6 1.084e+04 3.376e-10
 97.06547    141.1 1.106e+04 3.746e-10
 97.06988    142.3 1.136e+04 5.110e-10
 97.08295    141.9 1.118e+04 3.718e-10
 97.11272    141.2 1.064e+04 2.625e-10
 97.15238    141.4 1.022e+04 2.415e-10
 97.18253    142.0 1.021e+04 2.452e-10
 97.20232    141.6 1.037e+04 2.464e-10
 97.22152    142.2 1.029e+04 2.601e-10
 97.24120    142.7 1.033e+04 2.798e-10
 97.26098    143.2 1.054e+04 3.205e-10
 97.28076    143.3 1.093e+04 3.933e-10
 97.30055    143.2 1.145e+04 5.296e-10
 97.31581    142.5 1.219e+04 8.017e-10
 97.32570    141.8 1.270e+04 1.051e-09
 97.34011    140.7 1.366e+04 1.801e-09
 97.35989    139.8 1.474e+04 3.188e-09
 97.37967    139.7 1.586e+04 5.363e-09
 97.39945    139.7 1.678e+04 7.515e-09
 97.41923    139.4 1.746e+04 8.283e-09
 97.43402    138.7 1.778e+04 8.804e-09
 97.44386    138.0 1.804e+04 8.907e-09
 97.44919    137.3 1.813e+04 8.650e-09
 97.45413    136.5 1.940e+04 1.102e-08
 97.46364    135.5 1.964e+04 1.080e-08
 97.47354    133.8 2.010e+04 1.073e-08
 97.48343    131.4 2.073e+04 1.090e-08
 97.49332    128.6 2.130e+04 1.147e-08
 97.49906    125.9 2.147e+04 1.230e-08
 97.50401    126.4 2.211e+04 1.567e-08
 97.51098    124.0 2.239e+04 1.655e-08
 97.51592    124.0 2.303e+04 2.696e-08
 97.52299    122.0 2.301e+04 2.655e-08
 97.53288    120.1 2.285e+04 2.414e-08
 97.54277    118.2 2.227e+04 1.926e-08
 97.55266    115.7 2.112e+04 1.380e-08
 97.56255    114.2 1.998e+04 1.113e-08
 97.57282    111.8 1.978e+04 9.808e-09
 97.58271    108.2 1.928e+04 7.739e-09
 97.59722    104.2 1.852e+04 6.256e-09
 97.61705     98.8 1.569e+04 4.212e-09
 97.63683     95.3 1.435e+04 3.533e-09
 97.65661     94.4 1.417e+04 3.484e-09
 97.67639     94.2 1.407e+04 3.451e-09
 97.69618     94.1 1.387e+04 3.257e-09
 97.70634     94.3 1.359e+04 2.859e-09
 97.71623     93.5 1.435e+04 3.507e-09
 97.73574     93.7 1.393e+04 2.928e-09
 97.75552     93.9 1.345e+04 2.335e-09
 97.77530     93.8 1.289e+04 1.790e-09
 97.79508     93.9 1.232e+04 1.381e-09
 97.82485     93.9 1.192e+04 1.017e-09
 97.86451     94.5 1.104e+04 6.253e-10
 97.90408     95.5 1.019e+04 4.177e-10
 97.94364     96.9 9.509e+03 3.383e-10
 97.98320     99.3 9.117e+03 2.780e-10
 98.02277    101.5 9.052e+03 3.049e-10
 98.06233    103.9 9.305e+03 3.904e-10
 98.10189    106.3 9.773e+03 5.116e-10
 98.14145    108.2 1.011e+04 5.894e-10
 98.18102    109.6 1.021e+04 5.989e-10
 98.21059    109.9 9.984e+03 5.412e-10
 98.23028    110.5 9.805e+03 5.015e-10
 98.25006    110.6 9.795e+03 4.995e-10
 98.26984    110.6 9.807e+03 5.059e-10
 98.28962    110.6 9.855e+03 5.374e-10
 98.30940    110.5 1.000e+04 5.910e-10
 98.32918    110.4 1.019e+04 6.851e-10
 98.34403    110.1 1.044e+04 8.262e-10
 98.35393    110.2 1.063e+04 9.207e-10
 98.36266    109.8 1.099e+04 1.175e-09
 98.37255    110.0 1.105e+04 1.183e-09
 98.38853    109.6 1.154e+04 1.550e-09
 98.40831    109.4 1.201e+04 1.992e-09
 98.42809    109.4 1.240e+04 2.346e-09
 98.44787    109.2 1.256e+04 2.400e-09
 98.46762    108.9 1.256e+04 2.357e-09
 98.48740    108.3 1.293e+04 2.534e-09
 98.50722    107.7 1.261e+04 2.078e-09
 98.52700    106.9 1.210e+04 1.593e-09
 98.54678    106.0 1.154e+04 1.248e-09
 98.57655    105.3 1.096e+04 9.203e-10
 98.61621    105.4 9.815e+03 5.337e-10
 98.65577    105.5 8.911e+03 3.377e-10
 98.69534    106.2 8.755e+03 3.001e-10
 98.72487    107.4 8.768e+03 3.062e-10
 98.74465    108.1 8.759e+03 3.001e-10
 98.77446    109.8 8.844e+03 3.151e-10
 98.79698    110.4 8.929e+03 3.440e-10
 98.80677    110.6 8.890e+03 3.250e-10
 98.82372    110.9 8.982e+03 3.427e-10
 98.84350    110.8 9.253e+03 3.885e-10
 98.85815    109.7 1.014e+04 5.591e-10
 98.86804    111.2 9.756e+03 4.857e-10
 98.88307    108.7 1.153e+04 9.176e-10
 98.90285    105.6 1.390e+04 2.268e-09
 98.92263    103.6 1.562e+04 5.271e-09
 98.94241    102.8 1.692e+04 9.828e-09
 98.96219    102.1 1.784e+04 1.304e-08
 98.98173    100.5 1.805e+04 1.308e-08
 98.99162    101.0 1.853e+04 1.511e-08
 99.00176     99.2 1.833e+04 1.383e-08
 99.02154     97.6 1.745e+04 9.412e-09
 99.04132     95.6 1.597e+04 5.249e-09
 99.06110     93.3 1.415e+04 2.793e-09
 99.08088     91.2 1.253e+04 1.608e-09
 99.10066     89.8 1.151e+04 1.051e-09
 99.11520     89.2 1.090e+04 7.629e-10
 99.12509     89.5 1.064e+04 6.429e-10
 99.14023     89.0 1.021e+04 5.115e-10
 99.16001     89.1 9.862e+03 4.534e-10
 99.17979     89.2 9.778e+03 4.469e-10
 99.19957     89.8 9.793e+03 4.506e-10
 99.21935     90.5 9.858e+03 4.641e-10
 99.23111     91.3 9.963e+03 4.840e-10
 99.24065     91.4 1.026e+04 5.933e-10
 99.24867     91.7 1.015e+04 5.594e-10
 99.25892     92.3 1.033e+04 6.176e-10
 99.27870     92.9 1.053e+04 6.896e-10
 99.29848     93.6 1.074e+04 7.816e-10
 99.31826     94.2 1.099e+04 8.957e-10
 99.33804     94.8 1.123e+04 1.026e-09
 99.35782     95.4 1.149e+04 1.167e-09
 99.37226     95.9 1.176e+04 1.299e-09
 99.38215     96.2 1.191e+04 1.459e-09
 99.39739     96.6 1.223e+04 1.611e-09
 99.41717     96.9 1.246e+04 1.684e-09
 99.43695     97.0 1.254e+04 1.682e-09
 99.45673     97.0 1.258e+04 1.664e-09
 99.47651     96.9 1.261e+04 1.646e-09
 99.49584     96.5 1.269e+04 1.654e-09
 99.50573     96.2 1.321e+04 1.991e-09
 99.51608     95.4 1.359e+04 2.140e-09
 99.53586     94.5 1.412e+04 2.447e-09
 99.55564     93.7 1.479e+04 2.999e-09
 99.57542     93.0 1.559e+04 3.913e-09
 99.59520     92.2 1.654e+04 5.407e-09
 99.61498     91.3 1.754e+04 7.698e-09
 99.62931     90.4 1.838e+04 1.094e-08
 99.63920     89.1 1.876e+04 1.247e-08
 99.65455     88.8 1.927e+04 1.620e-08
 99.66533     88.7 1.974e+04 1.975e-08
 99.67522     87.3 1.960e+04 1.801e-08
 99.69411     86.9 1.967e+04 1.790e-08
 99.71389     86.6 1.946e+04 1.565e-08
 99.73367     86.5 1.888e+04 1.147e-08
 99.75290     86.2 1.810e+04 7.531e-09
 99.76279     84.6 1.741e+04 4.866e-09
 99.77323     83.6 1.628e+04 3.180e-09
 99.79302     82.7 1.497e+04 2.233e-09
 99.81280     82.2 1.405e+04 1.781e-09
 99.83258     82.3 1.368e+04 1.609e-09
 99.85236     82.7 1.371e+04 1.602e-09
 99.87214     83.0 1.402e+04 1.715e-09
 99.88637     83.3 1.475e+04 1.990e-09
 99.89626     81.5 1.451e+04 1.800e-09
 99.91171     81.6 1.510e+04 1.995e-09
 99.93149     81.6 1.512e+04 2.148e-09
 99.95127     81.4 1.457e+04 2.314e-09
 99.97105     81.1 1.380e+04 2.566e-09
 99.99083     80.9 1.341e+04 2.897e-09
