# Columns:
#   distance along LOS (in CHIMPs)
#   peculiar velocity  (in km/s)
#   temperature (K)
#   HI number density
# pos=(156.022,82.5831,206.746), angles=(0.241787,3.0669)
  0.00052    -70.4 9.320e+03 1.108e-10
  0.00801    -68.7 9.321e+03 1.150e-10
  0.02813    -67.9 9.406e+03 1.327e-10
  0.06139    -66.4 9.504e+03 1.570e-10
  0.10163    -65.0 9.645e+03 1.908e-10
  0.14186    -63.7 9.814e+03 2.357e-10
  0.17028    -62.5 1.002e+04 2.921e-10
  0.19039    -61.7 1.034e+04 4.105e-10
  0.22232    -60.8 1.060e+04 4.979e-10
  0.26256    -60.4 1.094e+04 6.069e-10
  0.30279    -60.4 1.151e+04 8.011e-10
  0.33244    -61.5 1.222e+04 1.146e-09
  0.34240    -61.1 1.229e+04 1.205e-09
  0.35289    -61.7 1.271e+04 1.494e-09
  0.36495    -62.7 1.352e+04 2.185e-09
  0.37501    -63.2 1.356e+04 2.138e-09
  0.39312    -64.3 1.495e+04 3.735e-09
  0.41323    -65.3 1.645e+04 6.356e-09
  0.42354    -66.8 1.785e+04 9.464e-09
  0.43360    -66.6 1.876e+04 1.108e-08
  0.45347    -69.5 1.994e+04 1.595e-08
  0.47358    -72.7 2.029e+04 1.845e-08
  0.48862    -75.2 2.053e+04 2.114e-08
  0.49863    -76.5 2.044e+04 2.088e-08
  0.50457    -77.9 2.017e+04 1.986e-08
  0.50960    -78.0 2.087e+04 2.453e-08
  0.51875    -79.2 2.026e+04 2.169e-08
  0.52881    -80.0 1.955e+04 1.794e-08
  0.53886    -80.4 1.913e+04 1.538e-08
  0.54514    -81.3 1.835e+04 1.194e-08
  0.55017    -81.2 1.871e+04 1.352e-08
  0.55898    -81.7 1.812e+04 1.076e-08
  0.57412    -82.4 1.729e+04 7.820e-09
  0.58580    -83.0 1.620e+04 4.967e-09
  0.59586    -82.8 1.618e+04 4.835e-09
  0.61440    -84.0 1.472e+04 2.749e-09
  0.63452    -84.5 1.399e+04 1.942e-09
  0.65463    -84.6 1.350e+04 1.528e-09
  0.66693    -84.6 1.327e+04 1.343e-09
  0.67699    -84.9 1.322e+04 1.302e-09
  0.69486    -84.5 1.317e+04 1.280e-09
  0.71498    -84.1 1.318e+04 1.284e-09
  0.73510    -83.9 1.328e+04 1.331e-09
  0.74807    -83.8 1.337e+04 1.387e-09
  0.75813    -83.8 1.339e+04 1.421e-09
  0.77533    -83.8 1.346e+04 1.456e-09
  0.79545    -83.9 1.355e+04 1.496e-09
  0.81556    -84.5 1.368e+04 1.562e-09
  0.82920    -85.1 1.388e+04 1.685e-09
  0.83926    -85.1 1.403e+04 1.885e-09
  0.85580    -85.7 1.423e+04 2.095e-09
  0.87591    -86.3 1.439e+04 2.313e-09
  0.89603    -86.7 1.446e+04 2.452e-09
  0.91033    -87.0 1.445e+04 2.491e-09
  0.92039    -86.6 1.450e+04 2.683e-09
  0.93626    -86.7 1.425e+04 2.371e-09
  0.95638    -86.7 1.391e+04 1.969e-09
  0.97649    -86.6 1.356e+04 1.547e-09
  0.99146    -86.6 1.316e+04 1.184e-09
  1.00152    -86.5 1.307e+04 1.094e-09
  1.01673    -86.5 1.264e+04 8.657e-10
  1.03684    -86.1 1.228e+04 7.480e-10
  1.05696    -85.4 1.214e+04 7.177e-10
  1.07260    -84.6 1.213e+04 7.164e-10
  1.08266    -84.5 1.201e+04 7.191e-10
  1.09719    -84.2 1.218e+04 7.460e-10
  1.11731    -84.1 1.251e+04 8.922e-10
  1.13743    -84.3 1.299e+04 1.185e-09
  1.15373    -85.3 1.365e+04 1.686e-09
  1.16379    -84.6 1.350e+04 1.652e-09
  1.17766    -85.4 1.425e+04 2.397e-09
  1.19777    -86.3 1.503e+04 3.426e-09
  1.21789    -87.1 1.595e+04 4.688e-09
  1.23486    -87.8 1.675e+04 6.267e-09
  1.24492    -87.3 1.671e+04 6.263e-09
  1.25812    -88.1 1.733e+04 8.010e-09
  1.27824    -88.9 1.780e+04 9.707e-09
  1.29836    -89.6 1.805e+04 1.094e-08
  1.31599    -90.3 1.808e+04 1.137e-08
  1.32605    -89.8 1.809e+04 1.150e-08
  1.33859    -90.2 1.794e+04 1.140e-08
  1.35871    -90.2 1.748e+04 1.022e-08
  1.37882    -90.1 1.684e+04 8.308e-09
  1.39713    -89.9 1.602e+04 6.217e-09
  1.40719    -89.2 1.596e+04 6.053e-09
  1.41905    -88.8 1.506e+04 4.325e-09
  1.43917    -88.3 1.418e+04 3.013e-09
  1.45467    -87.9 1.339e+04 2.146e-09
  1.46473    -88.2 1.333e+04 2.014e-09
  1.47826    -88.0 1.269e+04 1.539e-09
  1.48832    -87.3 1.265e+04 1.522e-09
  1.50968    -86.6 1.222e+04 1.283e-09
  1.55001    -84.5 1.172e+04 1.066e-09
  1.59024    -82.7 1.145e+04 9.600e-10
  1.63047    -81.5 1.135e+04 9.125e-10
  1.67071    -79.0 1.118e+04 8.477e-10
  1.71094    -78.1 1.101e+04 7.706e-10
  1.75117    -77.2 1.080e+04 6.971e-10
  1.79140    -76.4 1.063e+04 6.543e-10
  1.81304    -75.5 1.058e+04 6.470e-10
  1.83316    -73.2 1.035e+04 5.781e-10
  1.87187    -72.3 1.035e+04 5.797e-10
  1.91210    -71.3 1.042e+04 6.086e-10
  1.95233    -70.4 1.048e+04 6.487e-10
  1.97531    -69.7 1.053e+04 6.874e-10
  1.99542    -67.3 1.036e+04 6.438e-10
  2.03280    -66.7 1.072e+04 7.519e-10
  2.05634    -67.3 1.122e+04 8.698e-10
  2.06630    -66.0 1.114e+04 8.623e-10
  2.08290    -66.5 1.181e+04 1.002e-09
  2.10301    -66.0 1.179e+04 1.121e-09
  2.12313    -68.6 1.475e+04 1.845e-09
  2.13738    -72.6 1.929e+04 4.569e-09
  2.14744    -68.9 1.787e+04 3.005e-09
  2.16336    -73.1 2.165e+04 8.031e-09
  2.18348    -76.9 2.305e+04 1.621e-08
  2.19852    -79.3 2.336e+04 2.258e-08
  2.20853    -80.8 2.357e+04 2.427e-08
  2.21841    -82.5 2.391e+04 2.428e-08
  2.22344    -81.3 2.392e+04 3.102e-08
  2.22864    -83.8 2.490e+04 2.846e-08
  2.23870    -88.1 2.745e+04 1.536e-08
  2.24876    -95.4 2.753e+04 4.996e-09
  2.25882   -104.8 2.069e+04 1.415e-09
  2.26401   -111.4 1.336e+04 8.583e-10
  2.26904   -108.8 1.787e+04 1.017e-09
  2.27893   -113.1 1.205e+04 7.782e-10
  2.28899   -114.6 1.077e+04 7.141e-10
  2.29959   -116.4 1.004e+04 6.327e-10
  2.30970   -115.3 1.047e+04 6.726e-10
  2.32429   -116.9 9.652e+03 5.836e-10
  2.34441   -118.1 9.344e+03 5.063e-10
  2.36453   -118.7 9.275e+03 4.848e-10
  2.38078   -119.3 9.266e+03 4.810e-10
  2.39083   -118.6 9.275e+03 4.837e-10
  2.40476   -119.4 9.312e+03 4.877e-10
  2.42487   -120.5 9.597e+03 5.464e-10
  2.44499   -121.7 9.993e+03 6.531e-10
  2.46191   -123.1 1.039e+04 7.808e-10
  2.47197   -122.6 1.045e+04 8.105e-10
  2.48522   -124.1 1.079e+04 9.449e-10
  2.50534   -125.6 1.101e+04 1.048e-09
  2.52546   -127.0 1.111e+04 1.111e-09
  2.54304   -128.3 1.114e+04 1.136e-09
  2.55191   -128.1 1.122e+04 1.167e-09
  2.55444   -128.1 1.129e+04 1.186e-09
  2.56569   -129.2 1.124e+04 1.172e-09
  2.58581   -130.1 1.112e+04 1.124e-09
  2.60592   -130.8 1.098e+04 1.062e-09
  2.62417   -131.3 1.080e+04 9.917e-10
  2.63423   -131.5 1.077e+04 9.675e-10
  2.64616   -131.8 1.057e+04 8.887e-10
  2.66627   -132.0 1.036e+04 8.064e-10
  2.68639   -132.1 1.013e+04 7.208e-10
  2.70531   -132.0 9.900e+03 6.363e-10
  2.71536   -132.3 9.913e+03 6.364e-10
  2.72662   -132.0 9.708e+03 5.654e-10
  2.74674   -131.8 9.541e+03 5.079e-10
  2.76685   -131.6 9.408e+03 4.643e-10
  2.78644   -131.3 9.312e+03 4.349e-10
  2.79650   -131.6 9.440e+03 4.645e-10
  2.80709   -131.2 9.411e+03 4.545e-10
  2.82720   -130.7 9.406e+03 4.525e-10
  2.84732   -130.3 9.487e+03 4.668e-10
  2.86744   -129.9 9.635e+03 5.020e-10
  2.87763   -129.5 9.827e+03 5.565e-10
  2.88769   -129.9 1.015e+04 6.723e-10
  2.90767   -129.3 1.033e+04 7.513e-10
  2.92778   -128.7 1.051e+04 8.335e-10
  2.94790   -128.1 1.067e+04 9.120e-10
  2.95876   -127.4 1.080e+04 9.784e-10
  2.96882   -127.6 1.102e+04 1.127e-09
  2.98813   -126.8 1.105e+04 1.143e-09
  3.00825   -126.1 1.105e+04 1.140e-09
  3.02837   -125.3 1.089e+04 1.041e-09
  3.03989   -124.5 1.069e+04 9.152e-10
  3.04995   -124.4 1.070e+04 9.059e-10
  3.06860   -123.6 1.050e+04 7.701e-10
  3.08872   -122.8 1.033e+04 6.300e-10
  3.10883   -122.3 1.017e+04 5.049e-10
  3.12103   -121.9 1.005e+04 4.190e-10
  3.13118   -122.6 9.986e+03 3.799e-10
  3.15932   -121.2 9.786e+03 3.214e-10
  3.19955   -119.0 9.526e+03 2.628e-10
  3.23978   -116.7 9.418e+03 2.299e-10
  3.27343   -114.3 9.403e+03 2.206e-10
  3.29354   -113.7 9.408e+03 2.177e-10
  3.32025   -111.2 9.501e+03 2.220e-10
  3.36048   -108.7 9.538e+03 2.242e-10
  3.40072   -106.3 9.587e+03 2.195e-10
  3.43569   -103.8 9.509e+03 2.045e-10
  3.45581   -103.1 9.573e+03 2.213e-10
  3.48118   -100.6 9.425e+03 1.958e-10
  3.52141    -97.9 9.252e+03 1.671e-10
  3.56165    -95.1 9.120e+03 1.441e-10
  3.59796    -92.3 9.055e+03 1.300e-10
  3.61807    -91.6 9.075e+03 1.398e-10
  3.63430    -88.8 9.049e+03 1.283e-10
  3.65441    -89.3 8.938e+03 1.151e-10
  3.68235    -86.6 8.940e+03 1.144e-10
  3.72258    -84.1 9.024e+03 1.221e-10
  3.76022    -81.9 9.215e+03 1.436e-10
  3.78034    -80.9 9.089e+03 1.375e-10
  3.80304    -78.7 9.194e+03 1.551e-10
  3.84328    -76.6 9.336e+03 1.802e-10
  3.88351    -74.7 9.523e+03 2.108e-10
  3.92249    -72.9 9.710e+03 2.472e-10
  3.94260    -71.3 9.682e+03 2.331e-10
  3.96397    -69.1 9.904e+03 2.774e-10
  4.00421    -67.0 1.008e+04 3.237e-10
  4.03428    -65.6 1.012e+04 3.487e-10
  4.05430    -65.2 1.004e+04 3.629e-10
  4.07442    -64.4 1.003e+04 3.924e-10
  4.09454    -63.8 1.013e+04 4.290e-10
  4.11465    -62.8 1.076e+04 5.787e-10
  4.13477    -62.6 1.137e+04 7.098e-10
  4.15489    -62.6 1.208e+04 9.176e-10
  4.17500    -63.0 1.282e+04 1.253e-09
  4.18581    -63.5 1.353e+04 1.775e-09
  4.19586    -63.7 1.482e+04 2.873e-09
  4.21523    -64.0 1.550e+04 4.108e-09
  4.23535    -64.1 1.604e+04 5.459e-09
  4.25547    -64.2 1.640e+04 6.502e-09
  4.26694    -64.6 1.651e+04 6.772e-09
  4.27700    -64.5 1.759e+04 9.628e-09
  4.29062    -64.4 1.726e+04 8.562e-09
  4.30063    -64.8 1.720e+04 8.428e-09
  4.30741    -65.0 1.700e+04 7.889e-09
  4.31244    -65.3 1.744e+04 9.337e-09
  4.32075    -65.6 1.714e+04 8.270e-09
  4.33081    -66.1 1.678e+04 7.166e-09
  4.34086    -66.6 1.638e+04 6.273e-09
  4.34797    -67.1 1.600e+04 5.641e-09
  4.35808    -68.0 1.615e+04 6.058e-09
  4.37617    -68.5 1.563e+04 5.316e-09
  4.39628    -69.0 1.512e+04 4.884e-09
  4.41640    -69.2 1.486e+04 4.573e-09
  4.42920    -69.3 1.483e+04 4.396e-09
  4.43926    -69.9 1.514e+04 4.950e-09
  4.45663    -69.9 1.519e+04 4.888e-09
  4.47675    -70.1 1.521e+04 4.811e-09
  4.49686    -70.0 1.517e+04 4.600e-09
  4.51034    -69.8 1.492e+04 4.131e-09
  4.52039    -70.4 1.541e+04 4.795e-09
  4.53710    -70.4 1.514e+04 4.189e-09
  4.55721    -70.2 1.474e+04 3.551e-09
  4.57733    -70.1 1.437e+04 3.080e-09
  4.59147    -70.1 1.424e+04 2.865e-09
  4.60153    -71.1 1.446e+04 3.026e-09
  4.61756    -70.9 1.437e+04 2.897e-09
  4.63768    -70.7 1.436e+04 2.874e-09
  4.65780    -70.5 1.443e+04 2.922e-09
  4.67260    -70.2 1.468e+04 3.288e-09
  4.68266    -70.8 1.487e+04 3.497e-09
  4.69803    -70.1 1.520e+04 4.003e-09
  4.71814    -69.3 1.569e+04 4.774e-09
  4.73388    -68.7 1.635e+04 5.790e-09
  4.74393    -69.8 1.641e+04 5.739e-09
  4.75373    -69.6 1.709e+04 6.834e-09
  4.76379    -70.4 1.690e+04 6.038e-09
  4.77849    -70.4 1.754e+04 7.158e-09
  4.79861    -70.8 1.810e+04 8.481e-09
  4.81873    -71.2 1.848e+04 9.777e-09
  4.83487    -71.6 1.869e+04 1.072e-08
  4.84492    -71.6 1.819e+04 8.585e-09
  4.85896    -72.1 1.837e+04 9.568e-09
  4.87908    -72.5 1.843e+04 9.993e-09
  4.89919    -72.8 1.830e+04 9.746e-09
  4.91600    -73.1 1.802e+04 8.897e-09
  4.92606    -73.1 1.905e+04 1.040e-08
  4.93942    -73.1 1.909e+04 1.021e-08
  4.95954    -73.0 1.882e+04 9.455e-09
  4.97966    -72.8 1.849e+04 8.748e-09
  4.99713    -72.6 1.812e+04 8.068e-09
  5.00719    -72.7 2.098e+04 1.286e-08
  5.01989    -72.4 2.081e+04 1.210e-08
  5.04001    -72.1 2.036e+04 1.113e-08
  5.06012    -71.7 2.026e+04 1.047e-08
  5.07826    -71.2 2.000e+04 9.846e-09
  5.08832    -71.5 2.287e+04 1.641e-08
  5.10036    -70.9 2.294e+04 1.537e-08
  5.11539    -70.3 2.233e+04 1.235e-08
  5.12376    -69.9 2.232e+04 1.178e-08
  5.12879    -70.1 2.370e+04 1.624e-08
  5.13546    -69.5 2.404e+04 1.608e-08
  5.14552    -69.1 2.415e+04 1.695e-08
  5.15558    -68.5 2.429e+04 1.784e-08
  5.16433    -67.8 2.433e+04 1.839e-08
  5.16936    -67.9 2.508e+04 3.246e-08
  5.17570    -67.0 2.514e+04 3.569e-08
  5.18575    -66.0 2.522e+04 3.811e-08
  5.19581    -65.2 2.527e+04 3.906e-08
  5.20489    -64.6 2.521e+04 3.850e-08
  5.20992    -64.0 2.516e+04 7.127e-08
  5.21593    -63.6 2.526e+04 7.231e-08
  5.22599    -63.1 2.524e+04 7.099e-08
  5.23604    -62.4 2.519e+04 6.966e-08
  5.24546    -61.5 2.520e+04 6.900e-08
  5.25049    -60.3 2.443e+04 1.096e-07
  5.25616    -59.1 2.467e+04 1.241e-07
  5.26622    -58.1 2.496e+04 1.382e-07
  5.27628    -57.4 2.524e+04 1.466e-07
  5.28367    -56.8 2.534e+04 1.516e-07
  5.28839    -56.4 2.553e+04 1.101e-07
  5.29106    -54.0 2.461e+04 2.094e-07
  5.29639    -53.2 2.475e+04 2.554e-07
  5.30645    -53.2 2.466e+04 3.051e-07
  5.31651    -53.8 2.418e+04 3.578e-07
  5.32657    -54.3 2.402e+04 3.715e-07
  5.33409    -52.0 2.381e+04 7.041e-07
  5.33909    -51.9 2.384e+04 6.833e-07
  5.34412    -52.6 2.506e+04 4.794e-07
  5.34915    -54.5 2.663e+04 3.024e-07
  5.35186    -58.6 2.749e+04 1.723e-07
  5.35437    -56.6 2.512e+04 5.925e-07
  5.35921    -61.3 2.517e+04 4.216e-07
  5.36424    -65.8 2.555e+04 2.601e-07
  5.36927    -69.9 2.664e+04 1.166e-07
  5.37214    -72.8 2.621e+04 8.560e-08
  5.37465    -74.5 2.620e+04 1.394e-07
  5.37932    -75.8 2.609e+04 1.020e-07
  5.38435    -76.5 2.603e+04 9.507e-08
  5.38938    -76.8 2.608e+04 9.758e-08
  5.39695    -77.6 2.588e+04 1.021e-07
  5.40703    -76.8 2.511e+04 7.151e-08
  5.41275    -76.3 2.421e+04 3.748e-08
  5.41778    -77.8 2.616e+04 7.277e-08
  5.42715    -77.6 2.655e+04 3.230e-08
  5.43721    -78.3 2.496e+04 1.896e-08
  5.44727    -79.3 2.223e+04 1.300e-08
  5.45332    -80.1 1.996e+04 9.470e-09
  5.45835    -81.1 2.283e+04 1.316e-08
  5.46738    -81.8 2.125e+04 9.913e-09
  5.47744    -82.3 2.035e+04 8.056e-09
  5.48750    -82.8 2.012e+04 7.108e-09
  5.49389    -83.3 2.008e+04 6.846e-09
  5.49892    -86.6 2.626e+04 1.300e-08
  5.50762    -87.8 2.675e+04 1.327e-08
  5.51767    -89.3 2.722e+04 1.393e-08
  5.52773    -90.6 2.776e+04 1.482e-08
  5.53445    -91.9 2.835e+04 1.583e-08
  5.53948    -95.1 2.777e+04 1.910e-08
  5.54785    -95.6 2.766e+04 1.775e-08
  5.56298    -95.1 2.769e+04 1.694e-08
  5.57512    -95.9 2.841e+04 1.665e-08
  5.58518   -101.6 2.770e+04 1.539e-08
  5.60327   -101.7 2.898e+04 1.477e-08
  5.61563    -99.2 2.947e+04 1.825e-08
  5.62061   -101.0 2.880e+04 1.351e-08
  5.62831   -100.3 2.891e+04 1.463e-08
  5.63837   -100.1 2.896e+04 1.572e-08
  5.64843   -100.0 2.907e+04 1.898e-08
  5.65615   -100.4 2.893e+04 2.468e-08
  5.66118   -100.9 2.993e+04 8.935e-09
  5.66855   -101.0 3.010e+04 9.876e-09
  5.67861   -102.2 2.931e+04 1.525e-08
  5.68866   -103.4 2.876e+04 1.936e-08
  5.69672   -105.4 2.766e+04 2.603e-08
  5.70175   -104.8 3.118e+04 4.584e-09
  5.70878   -106.6 3.005e+04 5.414e-09
  5.71884   -108.9 2.849e+04 6.306e-09
  5.72890   -111.1 2.681e+04 8.253e-09
  5.73728   -113.2 2.511e+04 1.108e-08
  5.74739   -115.4 2.559e+04 1.350e-09
  5.76420   -118.1 2.306e+04 3.110e-09
  5.78431   -119.4 2.188e+04 6.819e-09
  5.79935   -119.3 2.103e+04 5.701e-09
  5.80936   -119.3 2.107e+04 7.574e-09
  5.81842   -119.5 2.113e+04 9.806e-09
  5.82757   -120.9 1.962e+04 3.524e-09
  5.83365   -119.5 1.942e+04 2.000e-09
  5.84466   -119.7 1.974e+04 4.184e-09
  5.86478   -119.4 2.006e+04 6.290e-09
  5.88490   -119.2 2.025e+04 7.711e-09
  5.89965   -119.1 2.022e+04 8.158e-09
  5.90971   -119.1 1.693e+04 3.468e-09
  5.92513   -118.9 1.680e+04 3.818e-09
  5.94525   -118.5 1.660e+04 3.894e-09
  5.96536   -118.0 1.639e+04 3.827e-09
  5.98078   -117.3 1.622e+04 3.706e-09
  5.99084   -117.5 1.353e+04 2.311e-09
  6.00559   -116.8 1.361e+04 2.341e-09
  6.02571   -116.2 1.368e+04 2.386e-09
  6.04583   -115.6 1.375e+04 2.457e-09
  6.06191   -115.0 1.385e+04 2.559e-09
  6.07197   -114.9 1.340e+04 2.282e-09
  6.08606   -114.2 1.383e+04 2.577e-09
  6.10618   -113.6 1.414e+04 2.912e-09
  6.12629   -112.9 1.433e+04 3.203e-09
  6.14304   -112.2 1.441e+04 3.432e-09
  6.15310   -111.7 1.470e+04 3.730e-09
  6.16653   -110.9 1.488e+04 4.101e-09
  6.18664   -110.1 1.494e+04 4.301e-09
  6.20676   -109.3 1.495e+04 4.350e-09
  6.22418   -108.3 1.474e+04 4.264e-09
  6.23424   -107.9 1.490e+04 4.269e-09
  6.24699   -106.8 1.462e+04 3.774e-09
  6.26711   -105.7 1.431e+04 3.246e-09
  6.28722   -104.7 1.399e+04 2.669e-09
  6.30531   -103.9 1.356e+04 2.106e-09
  6.31537   -104.0 1.358e+04 2.100e-09
  6.32746   -103.5 1.310e+04 1.647e-09
  6.34757   -103.0 1.260e+04 1.335e-09
  6.37648   -102.1 1.215e+04 1.112e-09
  6.39660   -101.3 1.217e+04 1.154e-09
  6.40792    -99.7 1.192e+04 1.052e-09
  6.42804    -99.1 1.189e+04 1.034e-09
  6.44816    -98.1 1.189e+04 1.024e-09
  6.46757    -97.8 1.208e+04 1.068e-09
  6.47763    -98.4 1.280e+04 1.389e-09
  6.48839    -98.5 1.328e+04 1.734e-09
  6.50850    -98.6 1.370e+04 2.133e-09
  6.52862    -98.9 1.406e+04 2.503e-09
  6.54871    -99.7 1.433e+04 2.769e-09
  6.56882   -102.6 1.543e+04 4.193e-09
  6.58897   -104.4 1.538e+04 4.071e-09
  6.60909   -106.3 1.524e+04 3.979e-09
  6.62920   -108.3 1.513e+04 4.010e-09
  6.63990   -109.9 1.497e+04 4.064e-09
  6.64996   -111.1 1.464e+04 3.828e-09
  6.66944   -112.2 1.420e+04 3.470e-09
  6.68955   -112.7 1.370e+04 2.991e-09
  6.70967   -113.0 1.318e+04 2.412e-09
  6.72103   -113.4 1.265e+04 1.877e-09
  6.73109   -114.2 1.236e+04 1.642e-09
  6.74990   -114.4 1.196e+04 1.374e-09
  6.77002   -114.4 1.164e+04 1.176e-09
  6.79013   -114.1 1.137e+04 1.048e-09
  6.80216   -113.5 1.121e+04 9.798e-10
  6.81222   -113.5 1.117e+04 9.582e-10
  6.83037   -112.8 1.111e+04 9.172e-10
  6.85048   -112.1 1.106e+04 8.773e-10
  6.87060   -111.4 1.098e+04 8.346e-10
  6.88330   -110.7 1.088e+04 7.844e-10
  6.89335   -110.6 1.073e+04 6.658e-10
  6.91083   -110.0 1.065e+04 6.432e-10
  6.94110   -108.8 1.055e+04 6.246e-10
  6.98143   -106.6 1.019e+04 5.167e-10
  7.02167   -104.4 9.849e+03 4.122e-10
  7.04576   -102.6 9.564e+03 3.351e-10
  7.06587   -102.5 9.464e+03 3.204e-10
  7.10213   -100.6 9.217e+03 2.683e-10
  7.14237    -98.5 9.001e+03 2.255e-10
  7.18260    -96.2 8.843e+03 1.919e-10
  7.20802    -93.9 8.761e+03 1.701e-10
  7.22814    -93.9 8.990e+03 2.144e-10
  7.26306    -91.8 8.986e+03 2.098e-10
  7.30330    -89.7 8.997e+03 2.089e-10
  7.34353    -87.5 9.013e+03 2.111e-10
  7.37029    -85.5 9.061e+03 2.167e-10
  7.39040    -85.9 9.381e+03 2.947e-10
  7.42400    -83.9 9.458e+03 3.110e-10
  7.46423    -81.9 9.549e+03 3.355e-10
  7.50446    -79.8 9.650e+03 3.648e-10
  7.53255    -77.6 9.775e+03 3.947e-10
  7.55267    -78.2 9.988e+03 4.551e-10
  7.57477    -76.2 1.000e+04 4.524e-10
  7.59479    -75.9 1.007e+04 4.699e-10
  7.61349    -74.8 1.022e+04 5.009e-10
  7.62355    -75.7 1.033e+04 5.574e-10
  7.63502    -75.0 1.041e+04 5.869e-10
  7.65514    -74.4 1.045e+04 6.109e-10
  7.67526    -73.6 1.047e+04 6.177e-10
  7.69462    -72.9 1.049e+04 6.177e-10
  7.70468    -73.5 1.064e+04 6.741e-10
  7.71549    -72.9 1.067e+04 6.809e-10
  7.73560    -72.3 1.068e+04 6.858e-10
  7.75572    -71.8 1.069e+04 6.915e-10
  7.77575    -71.2 1.068e+04 7.002e-10
  7.79587    -70.8 1.068e+04 7.283e-10
  7.81607    -69.9 1.064e+04 6.960e-10
  7.83619    -69.0 1.060e+04 6.401e-10
  7.85630    -68.2 1.054e+04 5.635e-10
  7.86694    -67.6 1.048e+04 4.880e-10
  7.87700    -67.9 1.035e+04 4.399e-10
  7.90669    -67.4 1.018e+04 3.696e-10
  7.94702    -66.4 9.985e+03 3.288e-10
  7.98726    -65.1 9.828e+03 3.062e-10
  8.01328    -63.8 9.762e+03 3.006e-10
  8.02525    -64.9 9.981e+03 3.520e-10
  8.03946    -65.2 1.000e+04 3.596e-10
  8.06772    -64.5 1.007e+04 3.859e-10
  8.10795    -63.7 1.030e+04 4.442e-10
  8.13803    -63.4 1.037e+04 4.796e-10
  8.15805    -63.6 1.045e+04 5.215e-10
  8.17817    -63.6 1.050e+04 5.552e-10
  8.19147    -63.6 1.053e+04 5.799e-10
  8.20153    -64.0 1.070e+04 6.672e-10
  8.21840    -64.1 1.073e+04 6.832e-10
  8.23851    -64.2 1.078e+04 6.974e-10
  8.25863    -64.4 1.083e+04 7.174e-10
  8.27261    -64.7 1.088e+04 7.455e-10
  8.28266    -65.3 1.099e+04 8.098e-10
  8.30902    -65.0 1.090e+04 7.755e-10
  8.34388    -64.5 1.093e+04 7.854e-10
  8.36399    -66.4 1.152e+04 1.040e-09
  8.38958    -65.9 1.139e+04 9.968e-10
  8.42982    -65.3 1.129e+04 9.683e-10
  8.47005    -64.3 1.120e+04 9.494e-10
  8.50614    -63.3 1.121e+04 9.637e-10
  8.52626    -64.7 1.153e+04 1.127e-09
  8.55051    -63.4 1.138e+04 1.005e-09
  8.59075    -62.2 1.123e+04 8.421e-10
  8.63098    -61.1 1.100e+04 6.219e-10
  8.66841    -60.2 1.070e+04 4.249e-10
  8.68852    -62.3 1.041e+04 3.459e-10
  8.71145    -62.0 1.014e+04 2.807e-10
  8.75168    -62.3 1.004e+04 2.555e-10
  8.79191    -63.0 1.019e+04 3.056e-10
  8.83067    -64.8 1.134e+04 5.396e-10
  8.85079    -66.7 1.094e+04 4.628e-10
  8.86222    -68.0 1.175e+04 7.190e-10
  8.88224    -69.1 1.203e+04 8.385e-10
  8.90236    -71.6 1.249e+04 1.236e-09
  8.92167    -73.9 1.267e+04 1.484e-09
  8.93172    -74.2 1.269e+04 1.551e-09
  8.94259    -75.7 1.287e+04 1.716e-09
  8.96271    -77.1 1.291e+04 1.744e-09
  8.98282    -78.4 1.279e+04 1.570e-09
  9.00280    -79.9 1.248e+04 1.172e-09
  9.01286    -79.6 1.267e+04 1.337e-09
  9.02305    -81.4 1.215e+04 9.154e-10
  9.04317    -83.2 1.155e+04 6.655e-10
  9.06329    -84.4 1.106e+04 5.371e-10
  9.08340    -85.0 1.076e+04 4.598e-10
  9.09399    -85.2 1.057e+04 3.969e-10
  9.10333    -84.9 1.057e+04 4.037e-10
  9.11286    -85.1 1.047e+04 3.677e-10
  9.12364    -85.2 1.041e+04 3.356e-10
  9.15391    -85.2 1.033e+04 3.051e-10
  9.17532    -85.0 1.008e+04 2.422e-10
  9.19543    -84.8 1.036e+04 3.024e-10
  9.23447    -84.5 1.027e+04 2.761e-10
  9.27470    -84.1 1.014e+04 2.518e-10
  9.31494    -83.8 1.004e+04 2.378e-10
  9.33758    -83.6 1.004e+04 2.447e-10
  9.35770    -83.4 1.037e+04 3.246e-10
  9.39540    -83.4 1.048e+04 3.540e-10
  9.41862    -83.4 1.049e+04 3.601e-10
  9.42858    -83.7 1.057e+04 3.801e-10
  9.44550    -84.0 1.069e+04 4.483e-10
  9.46562    -84.2 1.080e+04 5.181e-10
  9.48573    -84.4 1.090e+04 6.010e-10
  9.49965    -84.6 1.102e+04 6.917e-10
  9.50971    -85.2 1.137e+04 9.016e-10
  9.52596    -85.5 1.162e+04 1.026e-09
  9.54608    -86.0 1.192e+04 1.176e-09
  9.56620    -86.3 1.223e+04 1.356e-09
  9.58078    -86.6 1.245e+04 1.547e-09
  9.59084    -87.4 1.333e+04 2.367e-09
  9.60643    -87.1 1.334e+04 2.511e-09
  9.62655    -87.0 1.328e+04 2.551e-09
  9.64666    -87.5 1.366e+04 2.561e-09
  9.66192    -90.2 1.568e+04 3.167e-09
  9.67197    -92.6 1.774e+04 3.703e-09
  9.68690    -97.8 2.056e+04 5.729e-09
  9.70193   -100.2 2.023e+04 8.070e-09
  9.70741   -102.2 2.105e+04 1.053e-08
  9.71244   -105.9 2.321e+04 1.662e-08
  9.72200   -108.1 2.319e+04 2.602e-08
  9.73206   -109.6 2.298e+04 3.641e-08
  9.74212   -110.5 2.276e+04 4.461e-08
  9.74798   -110.9 2.274e+04 4.708e-08
  9.75301   -112.3 2.239e+04 6.257e-08
  9.76223   -111.9 2.276e+04 5.386e-08
  9.77229   -112.0 2.362e+04 3.891e-08
  9.78235   -113.2 2.363e+04 2.588e-08
  9.78855   -115.5 2.232e+04 1.506e-08
  9.79358   -117.5 2.174e+04 9.920e-09
  9.80247   -120.6 1.749e+04 5.282e-09
  9.81253   -122.3 1.433e+04 3.414e-09
  9.82258   -122.8 1.354e+04 2.893e-09
  9.82911   -121.6 1.350e+04 2.799e-09
  9.83419   -123.2 1.360e+04 1.917e-09
  9.84783   -122.1 1.226e+04 1.330e-09
  9.86794   -120.8 1.181e+04 9.102e-10
  9.88806   -120.3 1.085e+04 5.598e-10
  9.90531   -120.2 1.018e+04 3.737e-10
  9.91537   -123.3 8.782e+03 2.114e-10
  9.92829   -122.7 8.667e+03 2.041e-10
  9.94841   -121.8 8.638e+03 2.023e-10
  9.96853   -120.8 8.696e+03 2.017e-10
  9.98645   -119.8 8.763e+03 2.083e-10
 10.00666   -120.7 8.918e+03 2.337e-10
 10.03913   -118.8 9.005e+03 2.668e-10
 10.07936   -116.8 9.115e+03 3.119e-10
 10.11959   -115.1 9.215e+03 3.442e-10
 10.14891   -113.7 9.381e+03 3.761e-10
 10.15887   -114.7 9.277e+03 3.551e-10
 10.16969   -114.5 9.445e+03 3.647e-10
 10.18981   -114.2 9.698e+03 3.882e-10
 10.20258   -114.1 9.991e+03 4.294e-10
 10.21264   -115.2 1.059e+04 5.812e-10
 10.22984   -115.4 1.090e+04 6.783e-10
 10.23990   -116.3 1.108e+04 7.632e-10
 10.25015   -116.5 1.136e+04 9.180e-10
 10.27027   -116.7 1.163e+04 1.113e-09
 10.29039   -116.9 1.190e+04 1.359e-09
 10.31050   -117.0 1.215e+04 1.670e-09
 10.32103   -117.1 1.242e+04 2.051e-09
 10.33109   -117.1 1.244e+04 2.164e-09
 10.35074   -117.0 1.271e+04 2.523e-09
 10.37085   -116.9 1.289e+04 2.787e-09
 10.39097   -116.9 1.294e+04 2.865e-09
 10.40217   -117.0 1.290e+04 2.849e-09
 10.41223   -116.8 1.285e+04 2.757e-09
 10.43120   -116.5 1.257e+04 2.385e-09
 10.45132   -116.1 1.215e+04 1.822e-09
 10.47144   -115.9 1.172e+04 1.336e-09
 10.48330   -115.8 1.133e+04 9.804e-10
 10.49336   -116.0 1.158e+04 9.084e-10
 10.51167   -116.0 1.120e+04 6.915e-10
 10.53178   -115.8 1.087e+04 5.650e-10
 10.55190   -115.5 1.062e+04 5.059e-10
 10.56443   -115.0 1.051e+04 4.891e-10
 10.57449   -115.3 1.071e+04 4.989e-10
 10.59213   -114.8 1.070e+04 4.976e-10
 10.61225   -114.4 1.077e+04 5.313e-10
 10.63237   -114.0 1.096e+04 6.264e-10
 10.64556   -113.6 1.116e+04 7.530e-10
 10.65562   -113.8 1.151e+04 8.739e-10
 10.67260   -113.2 1.171e+04 1.032e-09
 10.69272   -112.7 1.192e+04 1.199e-09
 10.71283   -112.4 1.212e+04 1.359e-09
 10.72670   -112.3 1.229e+04 1.494e-09
 10.73676   -112.4 1.253e+04 1.635e-09
 10.75306   -112.4 1.268e+04 1.728e-09
 10.77318   -112.8 1.277e+04 1.771e-09
 10.79330   -113.3 1.278e+04 1.775e-09
 10.80783   -113.7 1.265e+04 1.720e-09
 10.81789   -114.0 1.306e+04 1.830e-09
 10.83353   -114.3 1.274e+04 1.676e-09
 10.85365   -114.5 1.233e+04 1.524e-09
 10.87376   -114.6 1.190e+04 1.377e-09
 10.88896   -114.4 1.143e+04 1.213e-09
 10.89902   -114.6 1.170e+04 1.239e-09
 10.91400   -114.2 1.124e+04 1.093e-09
 10.93411   -113.6 1.087e+04 9.617e-10
 10.95423   -113.0 1.061e+04 8.466e-10
 10.97009   -112.4 1.045e+04 7.516e-10
 10.98015   -112.5 1.075e+04 8.023e-10
 10.99446   -112.0 1.067e+04 7.358e-10
 11.01458   -111.4 1.060e+04 6.812e-10
 11.03469   -110.9 1.054e+04 6.382e-10
 11.05123   -110.2 1.047e+04 6.096e-10
 11.06129   -110.3 1.066e+04 6.498e-10
 11.07493   -109.6 1.058e+04 6.384e-10
 11.09504   -108.8 1.055e+04 6.362e-10
 11.11516   -108.1 1.053e+04 6.397e-10
 11.13236   -107.4 1.056e+04 6.735e-10
 11.14242   -107.9 1.064e+04 7.332e-10
 11.16555   -107.4 1.080e+04 8.156e-10
 11.20588   -106.2 1.125e+04 1.030e-09
 11.24611   -105.4 1.165e+04 1.233e-09
 11.28476   -104.7 1.176e+04 1.296e-09
 11.30488   -106.0 1.173e+04 1.342e-09
 11.32658   -104.7 1.124e+04 1.069e-09
 11.36681   -103.2 1.062e+04 7.645e-10
 11.39689   -102.0 1.004e+04 4.894e-10
 11.41691   -101.3 9.912e+03 4.368e-10
 11.44693   -100.3 9.819e+03 4.195e-10
 11.46714   -101.3 9.578e+03 3.231e-10
 11.48751    -99.1 9.236e+03 2.542e-10
 11.52774    -96.8 8.981e+03 2.036e-10
 11.56797    -94.3 8.890e+03 1.755e-10
 11.60821    -91.7 8.901e+03 1.672e-10
 11.62941    -89.1 8.920e+03 1.667e-10
 11.64952    -89.7 8.755e+03 1.304e-10
 11.68867    -87.4 8.992e+03 1.440e-10
 11.72891    -85.2 9.319e+03 2.049e-10
 11.76914    -82.9 9.687e+03 3.039e-10
 11.79167    -80.8 1.016e+04 4.493e-10
 11.81179    -82.1 1.018e+04 3.747e-10
 11.84960    -80.5 1.071e+04 5.909e-10
 11.88984    -79.1 1.128e+04 9.120e-10
 11.93007    -77.9 1.181e+04 1.274e-09
 11.95394    -77.0 1.217e+04 1.533e-09
 11.96390    -79.3 1.220e+04 1.492e-09
 11.98017    -79.2 1.218e+04 1.477e-09
 12.00028    -79.0 1.197e+04 1.415e-09
 12.02040    -78.7 1.176e+04 1.319e-09
 12.03488    -78.3 1.141e+04 1.140e-09
 12.04493    -79.5 1.109e+04 1.042e-09
 12.06063    -79.2 1.062e+04 8.331e-10
 12.08075    -78.8 1.023e+04 6.695e-10
 12.10086    -78.4 9.921e+03 5.310e-10
 12.11601    -78.1 9.688e+03 4.225e-10
 12.12607    -79.2 9.682e+03 3.577e-10
 12.14110    -79.3 9.628e+03 3.196e-10
 12.17137    -79.6 9.648e+03 3.004e-10
 12.21170    -79.8 9.589e+03 2.898e-10
 12.25193    -80.0 9.564e+03 3.249e-10
 12.27837    -79.5 9.357e+03 3.167e-10
 12.29849    -80.5 9.401e+03 3.602e-10
 12.32224    -79.9 9.199e+03 3.192e-10
 12.34226    -79.7 9.125e+03 3.209e-10
 12.35941    -79.4 9.027e+03 3.145e-10
 12.36946    -79.4 8.933e+03 3.032e-10
 12.38201    -79.1 8.849e+03 2.951e-10
 12.39217    -78.6 8.707e+03 2.419e-10
 12.41286    -77.6 8.599e+03 2.338e-10
 12.44073    -76.4 8.439e+03 2.225e-10
 12.46085    -76.5 8.147e+03 1.717e-10
 12.49333    -75.0 8.059e+03 1.655e-10
 12.53356    -73.2 8.039e+03 1.641e-10
 12.57379    -71.1 7.994e+03 1.674e-10
 12.60300    -68.7 8.053e+03 1.766e-10
 12.62311    -68.4 7.795e+03 1.366e-10
 12.65426    -66.0 7.865e+03 1.502e-10
 12.69449    -63.6 8.020e+03 1.699e-10
 12.73473    -61.2 8.334e+03 2.034e-10
 12.76526    -58.9 8.843e+03 2.592e-10
 12.78538    -58.3 8.640e+03 2.191e-10
 12.81519    -55.9 9.373e+03 2.951e-10
 12.85542    -53.5 1.015e+04 4.134e-10
 12.89566    -50.9 1.081e+04 5.819e-10
 12.92753    -48.4 1.125e+04 7.933e-10
 12.94764    -48.1 1.152e+04 7.214e-10
 12.97612    -45.6 1.169e+04 9.455e-10
 13.01636    -42.7 1.169e+04 1.174e-09
 13.05659    -39.8 1.148e+04 1.286e-09
 13.08979    -36.9 1.124e+04 1.326e-09
 13.10991    -37.0 1.133e+04 1.366e-09
 13.13705    -34.0 1.142e+04 1.566e-09
 13.17729    -31.2 1.163e+04 1.811e-09
 13.21752    -28.2 1.196e+04 2.173e-09
 13.24760    -25.5 1.230e+04 2.211e-09
 13.26192    -23.2 1.247e+04 2.184e-09
 13.27208    -24.0 1.234e+04 2.112e-09
 13.28783    -21.4 1.280e+04 1.765e-09
 13.30785    -19.7 1.272e+04 1.573e-09
 13.32796    -18.0 1.299e+04 1.372e-09
 13.34305    -16.9 1.308e+04 1.193e-09
 13.35311    -17.2 1.291e+04 1.123e-09
 13.36820    -15.2 1.330e+04 1.057e-09
 13.38831    -14.4 1.293e+04 9.186e-10
 13.40843    -12.5 1.310e+04 8.812e-10
 13.42419    -12.1 1.237e+04 7.990e-10
 13.43434    -11.3 1.293e+04 1.418e-09
 13.44876     -9.9 1.284e+04 1.186e-09
 13.46878     -8.7 1.268e+04 1.266e-09
 13.48179     -6.5 1.294e+04 1.516e-09
 13.49184     -5.5 1.502e+04 2.512e-09
 13.50532     -3.8 1.465e+04 2.665e-09
 13.51538     -3.3 1.434e+04 3.082e-09
 13.52913     -0.9 1.439e+04 3.430e-09
 13.54924      1.7 1.497e+04 3.925e-09
 13.56936      3.5 1.689e+04 5.013e-09
 13.58645      2.7 2.095e+04 7.477e-09
 13.59651      4.3 2.277e+04 1.102e-08
 13.60452      1.3 2.734e+04 1.641e-08
 13.61453      0.1 2.853e+04 2.053e-08
 13.62458     -0.7 2.869e+04 2.820e-08
 13.63195     -1.6 2.797e+04 3.545e-08
 13.63698     -1.0 2.911e+04 6.229e-08
 13.64470     -2.9 2.792e+04 8.884e-08
 13.65476     -5.8 2.801e+04 1.222e-07
 13.66482     -8.7 2.893e+04 1.477e-07
 13.67234    -17.2 3.133e+04 5.011e-08
 13.67498    -21.0 2.977e+04 4.165e-08
 13.67750    -23.7 3.125e+04 4.119e-08
 13.68237    -31.8 2.793e+04 2.760e-08
 13.68740    -34.4 2.729e+04 2.684e-08
 13.69497    -40.3 2.514e+04 2.697e-08
 13.70505    -41.8 2.294e+04 2.145e-08
 13.71308    -42.0 2.122e+04 1.470e-08
 13.71811    -43.8 2.391e+04 1.997e-08
 13.72517    -42.4 2.345e+04 1.703e-08
 13.73522    -41.1 2.293e+04 1.333e-08
 13.74528    -40.1 2.227e+04 9.960e-09
 13.75365    -39.4 2.140e+04 7.306e-09
 13.75868    -40.6 2.382e+04 9.018e-09
 13.77048    -40.5 2.169e+04 7.261e-09
 13.79064    -39.1 1.822e+04 3.699e-09
 13.81076    -38.7 1.542e+04 1.977e-09
 13.82985    -38.5 1.369e+04 1.364e-09
 13.83991    -38.9 1.493e+04 2.200e-09
 13.85099    -38.2 1.368e+04 1.753e-09
 13.87111    -37.4 1.326e+04 1.634e-09
 13.89122    -36.9 1.321e+04 1.662e-09
 13.91098    -36.6 1.352e+04 1.950e-09
 13.92104    -37.9 1.484e+04 3.506e-09
 13.93146    -37.6 1.532e+04 4.356e-09
 13.95157    -37.2 1.575e+04 5.537e-09
 13.97169    -36.5 1.600e+04 6.841e-09
 13.99181    -35.6 1.621e+04 7.757e-09
 14.00217    -35.0 1.623e+04 8.134e-09
 14.01223    -34.8 1.649e+04 9.087e-09
 14.03204    -34.1 1.636e+04 8.614e-09
 14.05215    -33.6 1.617e+04 7.808e-09
 14.07227    -33.2 1.586e+04 6.690e-09
 14.08330    -33.0 1.543e+04 5.473e-09
 14.09336    -33.6 1.489e+04 3.833e-09
 14.11250    -33.9 1.395e+04 2.759e-09
 14.13262    -34.3 1.300e+04 1.974e-09
 14.15274    -34.7 1.213e+04 1.458e-09
 14.16444    -34.9 1.144e+04 1.135e-09
 14.17450    -35.3 1.051e+04 7.405e-10
 14.19297    -35.2 1.009e+04 6.265e-10
 14.21309    -34.9 9.801e+03 5.477e-10
 14.23320    -34.5 9.614e+03 4.950e-10
 14.24557    -33.9 9.558e+03 4.661e-10
 14.25563    -33.4 9.250e+03 3.603e-10
 14.27344    -32.7 9.239e+03 3.531e-10
 14.29355    -32.2 9.269e+03 3.531e-10
 14.31367    -31.6 9.310e+03 3.711e-10
 14.32670    -31.0 9.394e+03 4.074e-10
 14.33676    -30.4 9.235e+03 3.374e-10
 14.35390    -29.8 9.416e+03 3.938e-10
 14.37402    -29.1 9.551e+03 4.604e-10
 14.39413    -28.4 9.664e+03 5.200e-10
 14.40783    -27.4 9.897e+03 6.141e-10
 14.42805    -26.4 9.697e+03 5.019e-10
 14.45458    -25.5 9.842e+03 5.860e-10
 14.47460    -24.4 9.945e+03 6.189e-10
 14.50487    -23.4 1.006e+04 6.353e-10
 14.54520    -22.0 1.012e+04 6.468e-10
 14.57029    -21.1 1.002e+04 5.487e-10
 14.57668    -20.3 9.582e+03 5.344e-10
 14.59181    -20.7 9.163e+03 4.025e-10
 14.62567    -20.0 8.864e+03 2.728e-10
 14.66590    -20.0 8.484e+03 1.988e-10
 14.70613    -19.9 8.368e+03 1.836e-10
 14.73256    -19.2 8.355e+03 2.024e-10
 14.75268    -18.3 8.274e+03 1.765e-10
 14.78660    -17.5 8.375e+03 2.199e-10
 14.82683    -17.1 8.916e+03 3.046e-10
 14.86706    -17.9 1.002e+04 5.248e-10
 14.89482    -18.4 1.112e+04 1.106e-09
 14.91494    -16.1 1.063e+04 7.557e-10
 14.94753    -15.7 1.147e+04 1.344e-09
 14.98776    -14.4 1.193e+04 1.650e-09
 15.02800    -13.5 1.194e+04 1.549e-09
 15.05709    -13.1 1.147e+04 8.875e-10
 15.07721    -12.3 1.094e+04 8.358e-10
 15.10846    -12.1 1.033e+04 4.040e-10
 15.14869    -12.9 9.533e+03 2.319e-10
 15.18893    -12.5 9.198e+03 1.999e-10
 15.21935    -10.6 9.104e+03 1.982e-10
 15.23947     -9.3 9.059e+03 1.922e-10
 15.26939     -8.0 8.867e+03 1.659e-10
 15.30963     -6.9 8.711e+03 1.438e-10
 15.34986     -6.0 8.674e+03 1.376e-10
 15.38162     -5.0 8.688e+03 1.457e-10
 15.40174     -4.0 8.682e+03 1.568e-10
 15.43032     -2.8 8.696e+03 1.749e-10
 15.47056     -1.5 8.703e+03 1.834e-10
 15.51079     -0.2 8.698e+03 1.791e-10
 15.54388      0.8 8.693e+03 1.736e-10
 15.56400      1.2 8.717e+03 1.783e-10
 15.59125      1.8 8.789e+03 1.932e-10
 15.63149      2.2 9.045e+03 2.445e-10
 15.66132      2.6 9.310e+03 3.216e-10
 15.67128      2.5 9.324e+03 3.323e-10
 15.68158      2.5 9.455e+03 3.638e-10
 15.70170      2.8 9.675e+03 4.725e-10
 15.71601      3.2 9.975e+03 5.547e-10
 15.72607      3.3 1.004e+04 6.437e-10
 15.74193      3.7 1.022e+04 7.125e-10
 15.76205      3.9 1.029e+04 7.491e-10
 15.78217      4.1 1.021e+04 7.491e-10
 15.79715      4.4 1.011e+04 7.191e-10
 15.80720      4.5 9.846e+03 6.163e-10
 15.82240      4.7 9.628e+03 5.055e-10
 15.84251      4.8 9.541e+03 3.945e-10
 15.86263      4.0 9.768e+03 2.865e-10
 15.87828      1.6 9.741e+03 2.754e-10
 15.88834     -0.5 9.455e+03 2.672e-10
 15.90286     -4.6 1.039e+04 3.921e-10
 15.92298     -6.9 1.096e+04 7.010e-10
 15.94310     -7.3 1.130e+04 1.220e-09
 15.95941     -6.4 1.168e+04 1.807e-09
 15.96947     -5.8 1.113e+04 1.428e-09
 15.98333     -4.6 1.160e+04 1.721e-09
 16.00345     -4.0 1.224e+04 1.905e-09
 16.02356     -4.9 1.312e+04 1.939e-09
 16.04054     -6.9 1.354e+04 1.999e-09
 16.05060     -7.6 1.199e+04 1.094e-09
 16.06379     -9.1 1.215e+04 1.218e-09
 16.08391     -9.8 1.244e+04 1.462e-09
 16.10403    -10.1 1.266e+04 1.702e-09
 16.12168     -9.9 1.278e+04 1.937e-09
 16.13173     -9.9 1.234e+04 1.671e-09
 16.14426     -9.8 1.244e+04 1.911e-09
 16.16438     -9.1 1.243e+04 2.003e-09
 16.18449     -8.4 1.242e+04 2.010e-09
 16.20281     -7.7 1.227e+04 1.873e-09
 16.21287     -7.2 1.246e+04 2.136e-09
 16.22473     -6.4 1.234e+04 1.934e-09
 16.24484     -6.0 1.222e+04 1.704e-09
 16.26496     -5.7 1.192e+04 1.430e-09
 16.28394     -5.2 1.171e+04 1.242e-09
 16.29400     -4.5 1.199e+04 1.492e-09
 16.30519     -4.1 1.173e+04 1.271e-09
 16.32531     -3.6 1.162e+04 1.163e-09
 16.34542     -3.3 1.170e+04 1.138e-09
 16.36507     -4.0 1.251e+04 1.326e-09
 16.37513     -2.8 1.252e+04 1.477e-09
 16.38566     -4.4 1.363e+04 2.059e-09
 16.40577     -6.3 1.482e+04 3.495e-09
 16.42589     -7.2 1.562e+04 5.921e-09
 16.44601     -6.7 1.629e+04 8.929e-09
 16.45621     -4.3 1.720e+04 1.148e-08
 16.46119     -3.8 1.719e+04 1.086e-08
 16.47105     -3.4 1.712e+04 1.096e-08
 16.48111     -2.4 1.768e+04 1.159e-08
 16.49117     -2.0 1.815e+04 1.101e-08
 16.49673     -2.3 1.844e+04 9.332e-09
 16.50176     -2.5 1.842e+04 9.310e-09
 16.51129     -3.4 1.819e+04 7.579e-09
 16.52135     -5.2 1.698e+04 5.464e-09
 16.53140     -6.5 1.579e+04 4.367e-09
 16.53735     -8.6 1.455e+04 3.030e-09
 16.54238     -7.9 1.513e+04 3.796e-09
 16.55152     -7.8 1.502e+04 3.613e-09
 16.56666     -8.7 1.406e+04 2.860e-09
 16.58682     -8.7 1.367e+04 2.467e-09
 16.60694     -8.4 1.344e+04 2.209e-09
 16.61853     -7.8 1.322e+04 1.981e-09
 16.62859     -6.6 1.361e+04 2.250e-09
 16.64717     -6.1 1.338e+04 1.952e-09
 16.66729     -5.6 1.327e+04 1.770e-09
 16.68740     -4.9 1.327e+04 1.674e-09
 16.69966     -3.7 1.344e+04 1.683e-09
 16.70972     -3.1 1.326e+04 1.579e-09
 16.72764     -1.8 1.348e+04 1.612e-09
 16.74775     -0.3 1.370e+04 1.672e-09
 16.76100      1.3 1.390e+04 1.744e-09
 16.77105     -0.2 1.416e+04 1.905e-09
 16.78079      0.7 1.462e+04 2.130e-09
 16.79085      0.7 1.446e+04 2.000e-09
 16.80810     -0.6 1.645e+04 2.467e-09
 16.82131    -12.3 2.364e+04 3.722e-09
 16.82629    -15.8 2.443e+04 3.578e-09
 16.83315    -22.3 2.509e+04 7.711e-09
 16.84321    -24.5 2.502e+04 1.881e-08
 16.85327    -31.3 2.450e+04 6.622e-08
 16.86183    -37.9 2.683e+04 1.879e-07
 16.86686    -41.7 2.780e+04 2.229e-07
 16.87338    -55.1 2.965e+04 2.938e-07
 16.88344    -77.6 3.648e+04 8.229e-08
 16.89350   -105.7 2.877e+04 8.734e-09
 16.90239   -114.6 1.852e+04 4.882e-09
 16.90742   -114.5 1.828e+04 5.103e-09
 16.91362   -115.3 1.753e+04 4.625e-09
 16.92367   -115.6 1.720e+04 4.160e-09
 16.93373   -115.9 1.666e+04 3.628e-09
 16.94301   -116.0 1.592e+04 3.019e-09
 16.95312   -115.3 1.574e+04 3.096e-09
 16.96903   -116.2 1.427e+04 2.219e-09
 16.98915   -116.4 1.355e+04 1.789e-09
 17.00927   -116.2 1.296e+04 1.494e-09
 17.02419   -116.0 1.240e+04 1.267e-09
 17.03425   -115.3 1.244e+04 1.305e-09
 17.04950   -115.2 1.199e+04 1.140e-09
 17.06961   -115.1 1.164e+04 1.044e-09
 17.08973   -114.8 1.145e+04 1.012e-09
 17.10532   -114.4 1.139e+04 1.008e-09
 17.11538   -114.1 1.152e+04 1.049e-09
 17.12996   -113.8 1.157e+04 1.094e-09
 17.15008   -113.4 1.167e+04 1.195e-09
 17.17020   -113.1 1.185e+04 1.326e-09
 17.18646   -112.7 1.200e+04 1.447e-09
 17.19651   -112.6 1.212e+04 1.507e-09
 17.21043   -112.2 1.219e+04 1.570e-09
 17.23055   -111.9 1.219e+04 1.581e-09
 17.25066   -111.5 1.208e+04 1.557e-09
 17.26759   -110.8 1.183e+04 1.420e-09
 17.27765   -110.7 1.177e+04 1.359e-09
 17.29090   -109.9 1.152e+04 1.198e-09
 17.31101   -109.1 1.129e+04 1.056e-09
 17.33113   -108.3 1.108e+04 9.452e-10
 17.34872   -107.4 1.096e+04 8.758e-10
 17.35878   -107.6 1.104e+04 8.871e-10
 17.37136   -106.9 1.102e+04 8.718e-10
 17.39148   -106.3 1.122e+04 9.004e-10
 17.41159   -105.9 1.162e+04 1.028e-09
 17.42985   -105.7 1.221e+04 1.276e-09
 17.43991   -105.9 1.243e+04 1.465e-09
 17.45183   -105.6 1.303e+04 1.900e-09
 17.47194   -105.4 1.364e+04 2.498e-09
 17.49206   -105.0 1.418e+04 3.206e-09
 17.51099   -104.5 1.459e+04 3.876e-09
 17.52104   -103.9 1.437e+04 3.598e-09
 17.53229   -103.3 1.463e+04 3.907e-09
 17.55241   -102.6 1.475e+04 4.050e-09
 17.57252   -101.9 1.470e+04 3.720e-09
 17.59212   -101.4 1.450e+04 3.102e-09
 17.60218   -101.1 1.417e+04 2.566e-09
 17.61276   -101.0 1.376e+04 1.927e-09
 17.63287   -101.4 1.311e+04 1.390e-09
 17.65299   -102.0 1.217e+04 1.007e-09
 17.67311   -102.4 1.127e+04 7.646e-10
 17.68331   -102.5 1.066e+04 6.610e-10
 17.69337   -102.2 1.045e+04 6.350e-10
 17.71334   -101.9 1.023e+04 5.848e-10
 17.73346   -101.2 9.939e+03 5.483e-10
 17.75357   -100.4 9.735e+03 5.462e-10
 17.76444    -99.6 9.846e+03 5.591e-10
 17.77450    -99.4 9.800e+03 5.280e-10
 17.80396    -98.7 1.087e+04 6.265e-10
 17.83414    -97.8 1.274e+04 1.180e-09
 17.84557    -97.4 1.333e+04 1.529e-09
 17.85219    -98.5 1.432e+04 2.049e-09
 17.86077    -96.9 1.271e+04 8.002e-10
 17.87427    -96.6 1.325e+04 1.024e-09
 17.89439    -96.2 1.392e+04 1.523e-09
 17.91450    -95.6 1.449e+04 2.231e-09
 17.92671    -94.9 1.492e+04 3.177e-09
 17.93676    -94.9 1.479e+04 3.059e-09
 17.95474    -94.1 1.510e+04 3.962e-09
 17.97485    -93.3 1.533e+04 4.705e-09
 17.99497    -92.5 1.547e+04 5.124e-09
 18.00784    -91.6 1.553e+04 5.203e-09
 18.01790    -92.2 1.522e+04 4.207e-09
 18.03520    -91.4 1.518e+04 4.115e-09
 18.05532    -90.5 1.515e+04 3.986e-09
 18.07543    -90.2 1.537e+04 3.905e-09
 18.08897    -92.2 1.837e+04 3.724e-09
 18.09903   -103.2 2.725e+04 5.090e-09
 18.11059   -109.5 3.166e+04 7.715e-09
 18.12060   -114.4 2.911e+04 1.914e-08
 18.12944   -117.4 2.517e+04 5.111e-08
 18.13447   -118.9 2.299e+04 9.162e-08
 18.14072   -118.8 2.207e+04 1.635e-07
 18.15077   -118.6 2.184e+04 2.132e-07
 18.16083   -118.8 2.182e+04 2.223e-07
 18.17001   -118.9 2.154e+04 1.958e-07
 18.17504   -118.6 2.142e+04 1.542e-07
 18.18095   -117.7 2.146e+04 8.675e-08
 18.19101   -117.2 2.218e+04 4.337e-08
 18.20106   -117.7 2.369e+04 2.029e-08
 18.21057   -121.6 2.491e+04 8.807e-09
 18.21560   -126.4 2.330e+04 4.060e-09
 18.22118   -135.7 1.725e+04 1.879e-09
 18.23124   -139.8 1.396e+04 1.366e-09
 18.24130   -140.8 1.311e+04 1.232e-09
 18.25119   -141.7 1.243e+04 1.080e-09
 18.26129   -142.0 1.052e+04 6.780e-10
 18.27660   -142.2 1.018e+04 6.378e-10
 18.29672   -141.8 1.012e+04 6.353e-10
 18.31683   -140.7 1.014e+04 6.506e-10
 18.33237   -139.6 1.016e+04 6.587e-10
 18.34243   -138.8 9.904e+03 6.031e-10
 18.35706   -137.6 9.922e+03 6.080e-10
 18.37718   -136.5 9.913e+03 6.049e-10
 18.39730   -135.3 9.831e+03 5.779e-10
 18.41350   -133.9 9.735e+03 5.443e-10
 18.42356   -133.3 9.762e+03 5.710e-10
 18.43753   -132.1 9.690e+03 5.370e-10
 18.45765   -130.9 9.616e+03 5.043e-10
 18.47776   -129.7 9.550e+03 4.780e-10
 18.49463   -128.6 9.506e+03 4.648e-10
 18.50469   -127.9 9.587e+03 5.159e-10
 18.51800   -126.7 9.549e+03 4.967e-10
 18.53811   -125.5 9.515e+03 4.812e-10
 18.55823   -124.3 9.490e+03 4.684e-10
 18.57577   -123.2 9.475e+03 4.587e-10
 18.58582   -123.2 9.720e+03 5.293e-10
 18.59846   -122.2 9.703e+03 5.222e-10
 18.61858   -121.2 9.733e+03 5.251e-10
 18.63869   -120.2 9.789e+03 5.408e-10
 18.65690   -119.2 9.863e+03 5.630e-10
 18.66696   -119.8 1.015e+04 6.962e-10
 18.67893   -118.8 1.022e+04 7.200e-10
 18.69904   -117.9 1.026e+04 7.337e-10
 18.71916   -116.8 1.026e+04 7.358e-10
 18.73803   -115.6 1.024e+04 7.299e-10
 18.74809   -115.7 1.048e+04 8.393e-10
 18.75939   -114.4 1.034e+04 7.986e-10
 18.77951   -113.1 1.018e+04 7.520e-10
 18.79963   -111.8 1.001e+04 6.961e-10
 18.81916   -110.3 9.831e+03 6.339e-10
 18.82922   -110.4 9.654e+03 6.490e-10
 18.83986   -108.9 9.460e+03 5.623e-10
 18.85997   -107.6 9.322e+03 4.960e-10
 18.89025   -106.6 9.184e+03 4.383e-10
 18.93057   -104.7 8.944e+03 3.817e-10
 18.97080   -102.6 8.574e+03 3.113e-10
 18.99168   -100.0 8.214e+03 2.485e-10
 19.01180   -100.3 8.043e+03 2.107e-10
 19.05128    -98.0 7.811e+03 1.750e-10
 19.09151    -95.7 7.656e+03 1.518e-10
 19.13174    -93.5 7.573e+03 1.389e-10
 19.15395    -91.3 7.539e+03 1.357e-10
 19.17406    -91.6 7.683e+03 1.570e-10
 19.21221    -89.4 7.687e+03 1.581e-10
 19.25244    -87.1 7.686e+03 1.583e-10
 19.29267    -84.8 7.636e+03 1.544e-10
 19.31621    -82.4 7.536e+03 1.422e-10
 19.33633    -82.2 7.633e+03 1.588e-10
 19.37314    -79.8 7.532e+03 1.432e-10
 19.41337    -77.4 7.450e+03 1.306e-10
 19.45360    -75.1 7.395e+03 1.218e-10
 19.47848    -72.9 7.381e+03 1.176e-10
 19.49859    -73.0 7.678e+03 1.425e-10
 19.53407    -71.1 7.807e+03 1.604e-10
 19.57430    -69.2 7.980e+03 1.868e-10
 19.61453    -67.3 8.190e+03 2.234e-10
 19.64074    -65.5 8.422e+03 2.711e-10
 19.66086    -65.7 9.068e+03 4.413e-10
 19.69500    -63.7 9.308e+03 5.112e-10
 19.73523    -61.7 9.402e+03 5.419e-10
 19.77547    -59.7 9.472e+03 5.186e-10
 19.80301    -57.7 9.336e+03 4.535e-10
 19.82312    -58.5 9.468e+03 4.710e-10
 19.85593    -56.8 9.296e+03 3.960e-10
 19.89616    -55.1 9.197e+03 3.665e-10
 19.93640    -53.1 9.155e+03 3.576e-10
 19.96527    -50.9 9.115e+03 3.501e-10
 19.98539    -51.2 9.091e+03 3.498e-10
 20.01686    -48.7 8.980e+03 3.086e-10
 20.05710    -46.1 8.899e+03 2.640e-10
 20.09733    -43.5 8.859e+03 2.307e-10
 20.12754    -41.1 8.838e+03 2.095e-10
 20.14765    -41.2 8.745e+03 1.685e-10
 20.17779    -38.8 8.791e+03 1.668e-10
 20.21803    -36.7 9.005e+03 1.840e-10
 20.25826    -34.4 9.693e+03 2.772e-10
 20.28980    -31.6 1.038e+04 4.227e-10
 20.30992    -31.7 1.074e+04 5.492e-10
 20.32857    -29.3 1.012e+04 5.287e-10
 20.34859    -28.5 1.112e+04 6.616e-10
 20.36870    -26.7 1.090e+04 7.367e-10
 20.38080    -25.7 1.215e+04 8.785e-10
 20.39086    -30.8 1.742e+04 2.148e-09
 20.40894    -33.0 2.066e+04 4.231e-09
 20.42905    -35.0 2.205e+04 1.013e-08
 20.44409    -35.6 2.165e+04 2.423e-08
 20.45410    -35.7 2.117e+04 3.440e-08
 20.46183    -35.4 2.080e+04 5.104e-08
 20.46686    -34.1 2.030e+04 6.799e-08
 20.47422    -33.3 2.042e+04 8.082e-08
 20.48428    -32.3 2.044e+04 8.638e-08
 20.49433    -31.4 2.036e+04 8.633e-08
 20.50240    -30.2 2.033e+04 8.375e-08
 20.50743    -28.7 2.040e+04 6.780e-08
 20.51445    -28.0 2.103e+04 5.255e-08
 20.52451    -27.6 2.186e+04 3.656e-08
 20.53457    -27.6 2.267e+04 2.307e-08
 20.54297    -28.6 2.299e+04 1.432e-08
 20.54799    -32.3 2.202e+04 7.265e-09
 20.55468    -36.2 1.795e+04 4.171e-09
 20.56474    -38.4 1.541e+04 3.049e-09
 20.57480    -38.7 1.475e+04 2.759e-09
 20.58994    -38.1 1.429e+04 2.402e-09
 20.61010    -37.2 1.341e+04 1.889e-09
 20.62420    -36.6 1.273e+04 1.579e-09
 20.63425    -36.9 1.223e+04 1.351e-09
 20.65033    -35.8 1.206e+04 1.279e-09
 20.67045    -34.7 1.181e+04 1.187e-09
 20.69057    -33.5 1.161e+04 1.096e-09
 20.70533    -32.3 1.140e+04 9.819e-10
 20.71539    -31.9 1.134e+04 9.634e-10
 20.73080    -30.6 1.105e+04 8.476e-10
 20.75092    -29.1 1.075e+04 7.328e-10
 20.77103    -27.6 1.050e+04 6.205e-10
 20.78646    -26.2 1.035e+04 5.154e-10
 20.79652    -26.1 1.034e+04 4.413e-10
 20.82142    -24.8 1.028e+04 3.632e-10
 20.86175    -22.3 9.962e+03 3.168e-10
 20.90198    -19.5 9.841e+03 2.959e-10
 20.93886    -17.0 9.805e+03 2.816e-10
 20.95898    -16.9 9.690e+03 2.330e-10
 20.98245    -14.4 9.713e+03 2.361e-10
 21.02268    -12.2 9.758e+03 2.382e-10
 21.06292     -9.9 9.755e+03 2.434e-10
 21.10113     -7.4 9.601e+03 2.348e-10
 21.12124     -7.3 9.625e+03 2.284e-10
 21.13012     -4.7 9.583e+03 1.874e-10
 21.15023     -5.2 9.688e+03 2.082e-10
 21.18361     -3.1 9.573e+03 1.908e-10
 21.22385     -1.0 9.491e+03 1.918e-10
 21.26339      1.2 9.473e+03 2.061e-10
 21.28351      1.2 9.548e+03 2.159e-10
 21.30431      3.2 9.561e+03 2.383e-10
 21.34455      5.2 9.582e+03 2.813e-10
 21.38478      7.3 9.632e+03 3.289e-10
 21.42501      9.3 9.673e+03 3.351e-10
 21.44577     11.2 9.601e+03 3.114e-10
 21.46589     11.0 9.550e+03 3.178e-10
 21.50548     12.3 9.460e+03 2.808e-10
 21.54571     13.5 9.336e+03 2.656e-10
 21.58594     14.9 9.194e+03 2.606e-10
 21.60804     16.6 9.067e+03 2.575e-10
 21.62816     16.3 9.138e+03 2.778e-10
 21.66641     18.1 9.113e+03 2.715e-10
 21.70664     20.1 9.046e+03 2.606e-10
 21.74687     22.2 8.939e+03 2.393e-10
 21.77030     24.4 8.836e+03 2.232e-10
 21.79042     24.0 8.981e+03 2.430e-10
 21.82734     26.1 8.960e+03 2.394e-10
 21.86757     28.2 9.006e+03 2.484e-10
 21.90780     30.1 9.163e+03 2.925e-10
 21.93257     32.0 9.407e+03 3.841e-10
 21.95269     31.7 9.465e+03 3.936e-10
 21.98827     33.6 9.662e+03 4.752e-10
 22.02850     35.1 9.796e+03 5.060e-10
 22.06874     36.1 9.862e+03 5.087e-10
 22.09483     36.1 9.907e+03 5.158e-10
 22.11495     36.0 9.895e+03 4.884e-10
 22.13905     35.8 1.006e+04 5.348e-10
 22.15906     35.7 1.011e+04 5.534e-10
 22.18934     35.0 1.033e+04 6.320e-10
 22.22967     34.2 1.088e+04 8.879e-10
 22.25710     33.1 1.110e+04 9.842e-10
 22.27722     33.7 1.096e+04 8.874e-10
 22.29998     33.1 1.097e+04 9.027e-10
 22.32000     32.9 1.084e+04 8.455e-10
 22.35027     33.0 1.055e+04 6.685e-10
 22.39060     33.0 1.016e+04 4.826e-10
 22.41936     33.2 9.784e+03 3.480e-10
 22.43948     34.4 9.851e+03 3.642e-10
 22.47106     35.0 9.516e+03 2.932e-10
 22.51130     36.2 9.247e+03 2.764e-10
 22.55153     37.8 9.221e+03 2.807e-10
 22.58163     39.5 9.209e+03 3.016e-10
 22.60175     40.5 9.270e+03 3.126e-10
 22.63200     42.3 9.317e+03 3.519e-10
 22.67223     44.0 9.339e+03 3.695e-10
 22.71246     45.8 9.319e+03 3.635e-10
 22.74389     47.6 9.226e+03 3.411e-10
 22.76401     48.4 9.449e+03 4.019e-10
 22.79293     50.1 9.320e+03 3.745e-10
 22.83316     51.7 9.268e+03 3.682e-10
 22.87339     53.4 9.296e+03 3.770e-10
 22.90616     55.0 9.428e+03 4.225e-10
 22.92628     55.6 9.677e+03 5.151e-10
 22.95386     57.1 9.862e+03 6.026e-10
 22.99409     58.5 1.005e+04 6.906e-10
 23.03432     59.8 1.018e+04 7.474e-10
 23.06842     61.2 1.015e+04 7.151e-10
 23.08854     61.7 1.041e+04 8.194e-10
 23.11479     62.9 1.015e+04 6.486e-10
 23.15502     63.6 9.597e+03 4.434e-10
 23.19525     64.0 9.142e+03 3.623e-10
 23.23069     64.6 9.145e+03 3.805e-10
 23.25081     65.1 9.473e+03 4.871e-10
 23.27572     65.7 9.689e+03 5.838e-10
 23.30955     66.2 1.064e+04 9.642e-10
 23.32967     63.2 1.113e+04 1.271e-09
 23.35619     63.2 1.179e+04 1.636e-09
 23.39295     62.7 1.224e+04 1.807e-09
 23.41307     63.7 1.254e+04 2.198e-09
 23.43665     62.6 1.249e+04 1.890e-09
 23.47688     60.6 1.191e+04 1.311e-09
 23.51712     58.3 1.093e+04 8.047e-10
 23.55522     55.9 1.010e+04 5.535e-10
 23.57534     57.9 1.046e+04 7.540e-10
 23.59758     56.1 9.927e+03 5.901e-10
 23.63782     54.1 1.017e+04 6.128e-10
 23.67805     51.4 1.110e+04 8.561e-10
 23.71748     48.3 1.198e+04 1.478e-09
 23.73750     47.8 1.212e+04 1.618e-09
 23.75842     47.2 1.222e+04 2.058e-09
 23.79875     46.4 1.201e+04 1.836e-09
 23.83898     45.5 1.126e+04 1.132e-09
 23.87921     44.5 1.023e+04 5.955e-10
 23.89987     44.1 9.394e+03 3.476e-10
 23.91998     45.0 9.380e+03 3.848e-10
 23.95968     45.3 8.957e+03 2.745e-10
 23.99991     46.4 8.727e+03 2.130e-10
 24.04014     47.9 8.543e+03 1.689e-10
 24.06213     49.5 8.389e+03 1.319e-10
 24.08225     50.2 8.401e+03 1.314e-10
 24.12061     51.6 8.267e+03 1.029e-10
 24.16084     52.9 8.156e+03 8.479e-11
 24.20107     54.2 8.094e+03 7.618e-11
 24.22440     55.6 8.159e+03 7.377e-11
 24.24451     56.2 8.225e+03 7.977e-11
 24.28154     57.3 8.276e+03 8.029e-11
 24.32177     58.4 8.347e+03 8.148e-11
 24.36201     59.2 8.402e+03 8.351e-11
 24.38666     60.0 8.442e+03 8.792e-11
 24.40678     60.0 8.572e+03 1.340e-10
 24.44247     60.8 8.556e+03 1.414e-10
 24.48270     61.7 8.607e+03 1.557e-10
 24.52294     62.4 8.759e+03 1.862e-10
 24.54893     63.0 8.986e+03 2.355e-10
 24.56904     62.9 9.089e+03 2.354e-10
 24.60340     63.5 9.310e+03 2.919e-10
 24.64364     64.1 9.461e+03 3.166e-10
 24.68387     64.5 9.478e+03 3.088e-10
 24.71119     65.0 9.518e+03 2.903e-10
 24.73131     64.5 9.812e+03 4.007e-10
 24.76433     64.9 9.942e+03 4.274e-10
 24.80457     64.8 1.017e+04 4.766e-10
 24.84480     64.5 1.054e+04 5.530e-10
 24.87336     63.3 1.119e+04 6.638e-10
 24.88332     63.0 1.156e+04 8.974e-10
 24.89489     59.1 1.373e+04 1.542e-09
 24.91501     56.0 1.485e+04 2.738e-09
 24.93513     54.3 1.454e+04 3.421e-09
 24.95439     53.5 1.424e+04 3.260e-09
 24.96445     53.8 1.477e+04 5.000e-09
 24.97536     54.0 1.386e+04 3.333e-09
 25.00563     52.9 1.259e+04 1.342e-09
 25.03572     50.3 1.100e+04 4.041e-10
 25.05584     48.5 1.087e+04 3.047e-10
 25.08620     46.7 9.629e+03 1.609e-10
 25.12643     47.2 9.217e+03 1.305e-10
 25.16666     48.7 9.104e+03 1.176e-10
 25.19799     50.3 9.098e+03 1.088e-10
 25.21810     49.9 9.276e+03 1.203e-10
 25.24713     51.3 9.304e+03 1.226e-10
 25.28736     52.3 9.410e+03 1.371e-10
 25.32759     53.2 9.632e+03 2.054e-10
 25.36025     54.5 9.937e+03 3.304e-10
 25.38037     54.2 1.020e+04 4.699e-10
 25.39790     54.7 1.028e+04 5.836e-10
 25.41792     55.4 1.048e+04 7.034e-10
 25.43804     56.1 1.074e+04 7.815e-10
 25.45125     56.6 1.081e+04 7.814e-10
 25.46130     56.5 1.089e+04 7.676e-10
 25.48843     57.1 1.075e+04 6.544e-10
 25.50910     57.5 1.053e+04 4.966e-10
 25.52298     57.3 1.048e+04 4.674e-10
 25.54263     56.8 1.030e+04 4.114e-10
 25.56899     56.9 1.004e+04 3.140e-10
 25.60922     57.1 9.968e+03 3.014e-10
 25.64946     57.3 9.973e+03 3.170e-10
 25.67953     57.8 1.000e+04 3.433e-10
 25.69464     58.2 1.010e+04 3.815e-10
 25.70470     58.0 1.007e+04 3.907e-10
 25.71967     58.2 1.025e+04 4.506e-10
 25.73978     57.9 1.080e+04 5.795e-10
 25.75990     56.9 1.173e+04 8.789e-10
 25.77578     55.6 1.248e+04 1.460e-09
 25.78583     56.0 1.248e+04 1.515e-09
 25.80013     55.5 1.333e+04 2.551e-09
 25.82025     54.5 1.455e+04 4.323e-09
 25.84037     53.5 1.624e+04 7.605e-09
 25.85691     53.1 1.750e+04 1.217e-08
 25.86697     51.5 1.785e+04 1.428e-08
 25.88060     51.5 1.797e+04 1.656e-08
 25.90071     51.8 1.766e+04 1.453e-08
 25.92083     51.9 1.683e+04 9.255e-09
 25.93804     51.3 1.566e+04 4.846e-09
 25.94810     50.7 1.606e+04 6.001e-09
 25.96106     49.8 1.464e+04 3.038e-09
 25.98118     49.0 1.343e+04 1.539e-09
 26.00130     48.1 1.258e+04 7.984e-10
 26.01917     47.4 1.161e+04 4.462e-10
 26.02923     47.8 1.211e+04 4.326e-10
 26.04153     46.3 1.037e+04 2.745e-10
 26.06165     46.2 9.834e+03 2.600e-10
 26.08176     46.5 9.813e+03 2.644e-10
 26.10031     47.1 9.819e+03 2.880e-10
 26.11036     46.9 9.787e+03 2.876e-10
 26.12200     47.6 1.004e+04 3.778e-10
 26.14211     48.2 1.028e+04 4.898e-10
 26.16223     49.1 1.080e+04 7.433e-10
 26.18144     49.9 1.108e+04 9.123e-10
 26.19159     49.6 1.102e+04 8.757e-10
 26.21271     51.5 1.182e+04 1.471e-09
 26.25295     53.1 1.222e+04 1.786e-09
 26.29318     54.4 1.216e+04 1.722e-09
 26.33341     55.9 1.176e+04 1.373e-09
 26.35396     57.3 1.112e+04 8.700e-10
 26.37407     57.7 1.118e+04 1.015e-09
 26.41388     59.1 1.050e+04 6.337e-10
 26.45411     60.4 9.921e+03 4.148e-10
 26.49434     61.9 9.576e+03 3.295e-10
 26.51622     63.8 9.464e+03 3.207e-10
 26.53634     64.9 9.347e+03 2.802e-10
 26.57481     67.1 9.241e+03 2.739e-10
 26.61504     69.3 9.231e+03 2.763e-10
 26.65528     71.5 9.240e+03 2.873e-10
 26.67849     73.7 9.270e+03 3.010e-10
 26.69860     74.6 9.128e+03 2.104e-10
 26.73574     76.8 9.130e+03 2.330e-10
 26.77597     78.9 9.143e+03 2.492e-10
 26.81621     80.9 9.148e+03 2.478e-10
 26.84075     82.8 9.136e+03 2.298e-10
 26.86087     83.6 9.275e+03 2.112e-10
 26.89667     85.4 9.268e+03 2.088e-10
 26.93690     87.2 9.236e+03 2.013e-10
 26.97714     89.1 9.198e+03 1.974e-10
 27.00302     91.1 9.171e+03 2.003e-10
 27.02313     92.2 9.224e+03 2.510e-10
 27.05760     94.4 9.189e+03 2.467e-10
 27.09784     96.6 9.147e+03 2.402e-10
 27.13807     98.9 9.095e+03 2.294e-10
 27.16528    101.2 9.030e+03 2.109e-10
 27.18540    102.4 8.974e+03 1.693e-10
 27.21853    104.6 8.894e+03 1.551e-10
 27.25877    107.0 8.825e+03 1.389e-10
 27.29900    109.3 8.776e+03 1.209e-10
 27.32755    111.6 8.740e+03 1.036e-10
 27.34766    112.7 8.687e+03 1.089e-10
 27.37947    115.1 8.688e+03 1.045e-10
 27.41970    117.5 8.746e+03 1.010e-10
 27.45993    119.9 8.769e+03 1.008e-10
 27.48981    122.2 8.810e+03 1.014e-10
 27.50993    123.3 8.914e+03 1.364e-10
 27.54040    125.4 8.983e+03 1.419e-10
 27.58063    127.4 9.059e+03 1.540e-10
 27.62086    129.3 9.179e+03 1.774e-10
 27.65208    131.2 9.370e+03 2.156e-10
 27.67219    131.9 9.563e+03 2.882e-10
 27.68853    133.6 9.715e+03 3.280e-10
 27.70865    134.1 9.533e+03 2.630e-10
 27.74156    135.7 9.789e+03 3.243e-10
 27.78179    137.1 9.997e+03 3.902e-10
 27.81434    138.5 1.020e+04 4.569e-10
 27.83446    139.4 1.011e+04 4.533e-10
 27.86226    140.9 1.011e+04 4.470e-10
 27.90249    142.2 1.007e+04 3.996e-10
 27.94272    143.4 9.868e+03 2.970e-10
 27.97661    144.2 9.545e+03 2.047e-10
 27.99672    145.5 9.366e+03 2.035e-10
 28.02319    146.4 9.099e+03 1.554e-10
 28.06342    147.3 9.089e+03 1.526e-10
 28.10366    148.3 9.120e+03 1.591e-10
 28.13887    149.1 9.217e+03 1.859e-10
 28.15899    150.7 9.015e+03 1.496e-10
 28.18412    151.5 9.100e+03 1.656e-10
 28.22435    152.2 9.227e+03 2.038e-10
 28.26459    152.9 9.392e+03 2.725e-10
 28.30114    153.4 9.634e+03 3.790e-10
 28.32125    154.8 9.131e+03 2.119e-10
 28.34505    155.2 9.349e+03 2.968e-10
 28.38529    155.5 9.613e+03 4.024e-10
 28.42552    155.7 9.799e+03 4.612e-10
 28.46340    155.9 9.807e+03 4.552e-10
 28.48352    157.3 9.573e+03 3.823e-10
 28.50598    157.4 9.553e+03 3.737e-10
 28.54622    157.7 9.435e+03 3.303e-10
 28.58645    158.0 9.203e+03 2.648e-10
 28.62567    158.2 8.941e+03 2.166e-10
 28.64578    159.4 9.246e+03 2.832e-10
 28.66692    159.8 9.070e+03 2.499e-10
 28.70715    160.4 9.003e+03 2.459e-10
 28.74738    161.3 9.001e+03 2.489e-10
 28.78761    162.3 9.026e+03 2.614e-10
 28.80805    163.3 9.115e+03 2.768e-10
 28.82816    163.7 9.281e+03 3.133e-10
 28.86808    164.4 9.399e+03 3.268e-10
 28.90831    164.8 9.455e+03 3.255e-10
 28.94854    164.9 9.485e+03 3.116e-10
 28.97031    164.9 9.431e+03 2.818e-10
 28.99043    164.9 9.708e+03 3.801e-10
 29.02901    165.0 9.555e+03 3.318e-10
 29.06924    165.5 9.353e+03 2.710e-10
 29.10948    166.2 9.142e+03 2.172e-10
 29.13258    167.1 8.974e+03 1.806e-10
 29.15269    167.2 8.982e+03 1.725e-10
 29.18994    168.4 8.880e+03 1.499e-10
 29.23017    169.8 8.844e+03 1.385e-10
 29.27041    171.3 8.854e+03 1.360e-10
 29.29484    173.0 8.863e+03 1.363e-10
 29.31496    173.4 8.815e+03 1.187e-10
 29.35087    175.2 8.842e+03 1.205e-10
 29.39111    176.9 8.913e+03 1.291e-10
 29.43134    178.5 9.044e+03 1.496e-10
 29.45711    180.1 9.268e+03 1.860e-10
 29.47722    181.1 9.151e+03 1.649e-10
 29.51180    182.7 9.435e+03 2.059e-10
 29.55204    184.3 9.809e+03 2.670e-10
 29.59227    185.5 1.013e+04 3.341e-10
 29.61928    186.1 1.034e+04 3.861e-10
 29.63939    188.0 1.026e+04 3.190e-10
 29.66258    188.6 1.076e+04 4.905e-10
 29.68260    189.3 1.104e+04 6.391e-10
 29.70031    190.1 1.124e+04 7.448e-10
 29.71037    190.6 1.114e+04 6.155e-10
 29.72283    191.3 1.121e+04 6.700e-10
 29.74295    191.9 1.120e+04 6.712e-10
 29.76306    192.7 1.115e+04 6.579e-10
 29.78144    193.6 1.106e+04 6.082e-10
 29.79150    194.1 1.101e+04 5.561e-10
 29.80330    195.1 1.089e+04 5.059e-10
 29.82341    196.1 1.079e+04 4.416e-10
 29.84353    197.1 1.072e+04 3.818e-10
 29.86258    197.8 1.069e+04 3.371e-10
 29.87263    198.5 1.064e+04 3.414e-10
 29.87783    199.3 1.061e+04 3.230e-10
 29.88789    199.1 1.073e+04 3.311e-10
 29.90388    199.9 1.069e+04 3.312e-10
 29.92400    200.9 1.068e+04 3.320e-10
 29.94371    202.0 1.067e+04 3.388e-10
 29.95377    202.6 1.074e+04 3.502e-10
 29.96423    203.7 1.074e+04 3.709e-10
 29.98434    204.8 1.079e+04 4.157e-10
 30.00446    206.0 1.088e+04 4.857e-10
 30.02458    207.1 1.109e+04 5.928e-10
 30.03490    208.2 1.159e+04 7.728e-10
 30.04496    208.8 1.150e+04 7.765e-10
 30.06481    210.2 1.206e+04 1.059e-09
 30.08493    211.4 1.290e+04 1.452e-09
 30.09996    212.0 1.316e+04 1.664e-09
 30.10997    212.6 1.338e+04 1.806e-09
 30.11593    212.6 1.435e+04 2.133e-09
 30.12096    213.5 1.373e+04 2.174e-09
 30.13009    213.4 1.528e+04 2.690e-09
 30.14015    212.2 1.956e+04 3.974e-09
 30.15021    209.9 2.381e+04 6.716e-09
 30.15650    208.1 2.563e+04 1.169e-08
 30.16153    210.4 2.438e+04 9.092e-09
 30.17032    209.6 2.563e+04 1.603e-08
 30.18038    210.0 2.486e+04 2.644e-08
 30.19044    211.0 2.382e+04 3.899e-08
 30.19707    212.5 2.278e+04 5.452e-08
 30.20210    213.7 2.335e+04 5.087e-08
 30.21056    215.5 2.274e+04 6.863e-08
 30.22061    217.4 2.228e+04 8.715e-08
 30.23067    219.3 2.177e+04 1.016e-07
 30.23763    221.4 2.163e+04 1.069e-07
 30.24266    222.8 2.232e+04 1.155e-07
 30.25079    225.4 2.218e+04 1.270e-07
 30.26085    228.2 2.213e+04 1.348e-07
 30.27091    231.0 2.236e+04 1.403e-07
 30.27820    232.6 2.357e+04 1.387e-07
 30.28323    237.8 2.496e+04 1.701e-07
 30.28848    237.0 2.661e+04 1.567e-07
 30.29349    236.3 2.765e+04 1.391e-07
 30.29843    233.1 3.127e+04 1.174e-07
 30.30095    236.8 3.113e+04 1.261e-07
 30.30355    232.5 3.452e+04 1.107e-07
 30.30857    224.8 3.969e+04 9.542e-08
 30.31360    217.0 4.131e+04 9.815e-08
 30.31874    207.2 3.668e+04 2.098e-07
 30.32377    204.9 3.441e+04 3.959e-07
 30.33123    192.6 3.144e+04 7.207e-07
 30.34131    170.8 5.557e+04 2.831e-08
 30.35137    145.4 4.697e+04 8.170e-09
 30.35938    139.0 2.398e+04 6.928e-09
 30.36441    137.6 2.695e+04 1.606e-08
 30.37149    133.2 1.517e+04 1.338e-08
 30.38662    135.2 1.922e+04 1.116e-08
 30.40679    140.1 1.839e+04 9.556e-09
 30.42691    144.9 1.818e+04 8.180e-09
 30.44056    148.1 1.785e+04 6.744e-09
 30.45062    147.8 1.808e+04 6.479e-09
 30.46714    149.9 1.725e+04 5.047e-09
 30.48725    151.6 1.635e+04 3.889e-09
 30.50737    153.2 1.554e+04 3.018e-09
 30.52169    154.6 1.489e+04 2.354e-09
 30.53175    154.0 1.360e+04 1.506e-09
 30.54760    155.2 1.307e+04 1.144e-09
 30.56772    156.1 1.257e+04 8.993e-10
 30.58784    156.8 1.202e+04 7.269e-10
 30.60283    157.4 1.161e+04 6.239e-10
 30.61288    157.5 1.139e+04 5.486e-10
 30.63823    159.1 1.196e+04 5.418e-10
 30.67856    159.7 1.144e+04 4.831e-10
 30.71879    160.3 1.111e+04 4.856e-10
 30.75523    160.9 1.102e+04 5.059e-10
 30.77534    160.8 1.052e+04 3.066e-10
 30.79925    161.5 1.060e+04 3.349e-10
 30.83949    162.2 1.068e+04 3.830e-10
 30.87972    162.9 1.075e+04 4.434e-10
 30.91749    163.7 1.079e+04 4.903e-10
 30.93761    163.9 1.052e+04 3.481e-10
 30.96019    164.8 1.061e+04 3.861e-10
 31.00042    165.7 1.071e+04 4.253e-10
 31.04065    166.6 1.091e+04 4.806e-10
 31.07976    167.4 1.125e+04 5.711e-10
 31.09987    167.2 1.112e+04 5.200e-10
 31.12112    167.7 1.153e+04 6.812e-10
 31.16135    167.9 1.184e+04 8.578e-10
 31.20158    167.9 1.195e+04 9.399e-10
 31.24181    167.8 1.193e+04 9.359e-10
 31.26214    167.9 1.183e+04 9.027e-10
 31.28226    167.6 1.189e+04 9.629e-10
 31.32228    168.2 1.175e+04 9.074e-10
 31.36251    169.1 1.163e+04 8.543e-10
 31.40275    170.3 1.161e+04 8.211e-10
 31.42440    171.6 1.167e+04 8.294e-10
 31.44452    171.4 1.158e+04 7.099e-10
 31.48321    172.7 1.165e+04 6.669e-10
 31.52344    173.9 1.166e+04 6.495e-10
 31.56368    175.1 1.161e+04 6.360e-10
 31.58667    176.2 1.148e+04 6.125e-10
 31.60679    176.0 1.133e+04 5.190e-10
 31.64414    177.2 1.137e+04 5.744e-10
 31.68438    178.2 1.146e+04 6.116e-10
 31.72461    179.1 1.147e+04 6.081e-10
 31.74893    179.8 1.144e+04 5.825e-10
 31.76905    179.7 1.187e+04 7.785e-10
 31.80507    180.3 1.172e+04 7.017e-10
 31.84531    181.1 1.136e+04 5.690e-10
 31.88554    182.2 1.091e+04 4.546e-10
 31.91120    183.6 1.055e+04 4.098e-10
 31.93132    183.5 1.050e+04 4.060e-10
 31.96601    185.3 1.046e+04 4.063e-10
 32.00624    187.3 1.046e+04 4.189e-10
 32.04647    189.2 1.054e+04 4.532e-10
 32.06752    190.8 1.067e+04 5.001e-10
 32.07440    190.9 1.091e+04 5.998e-10
 32.09358    191.2 1.079e+04 5.775e-10
 32.12694    192.6 1.098e+04 6.610e-10
 32.16717    193.5 1.114e+04 7.438e-10
 32.20740    194.3 1.127e+04 8.328e-10
 32.23573    194.9 1.141e+04 9.348e-10
 32.25585    195.6 1.120e+04 8.450e-10
 32.28787    196.3 1.142e+04 9.890e-10
 32.32810    196.7 1.162e+04 1.099e-09
 32.36833    196.9 1.164e+04 1.102e-09
 32.39799    197.1 1.159e+04 1.056e-09
 32.41811    197.7 1.135e+04 8.927e-10
 32.44880    197.9 1.108e+04 7.157e-10
 32.48903    198.2 1.064e+04 5.229e-10
 32.52926    198.6 1.012e+04 3.870e-10
 32.56026    199.1 9.663e+03 3.218e-10
 32.58038    199.8 9.284e+03 2.517e-10
 32.60973    201.0 9.239e+03 2.524e-10
 32.64996    202.4 9.215e+03 2.609e-10
 32.69020    204.1 9.241e+03 2.788e-10
 32.72252    205.8 9.311e+03 2.986e-10
 32.74264    206.8 9.198e+03 2.749e-10
 32.77066    208.4 9.299e+03 2.985e-10
 32.81089    210.0 9.403e+03 3.186e-10
 32.85113    211.4 9.503e+03 3.369e-10
 32.88479    212.7 9.609e+03 3.563e-10
 32.90491    213.8 9.475e+03 3.320e-10
 32.93159    215.1 9.585e+03 3.569e-10
 32.97183    216.4 9.682e+03 3.805e-10
 33.01206    217.7 9.751e+03 3.958e-10
 33.04705    218.9 9.767e+03 3.965e-10
 33.06717    220.3 9.694e+03 3.899e-10
 33.09252    221.5 9.734e+03 3.898e-10
 33.13276    222.8 9.734e+03 3.851e-10
 33.17299    224.0 9.706e+03 3.637e-10
 33.20932    225.3 9.586e+03 3.244e-10
 33.22944    226.6 9.644e+03 3.454e-10
 33.25345    228.0 9.494e+03 3.017e-10
 33.29369    229.5 9.317e+03 2.652e-10
 33.33392    231.1 9.187e+03 2.474e-10
 33.37158    232.9 9.164e+03 2.460e-10
 33.39170    234.1 9.256e+03 2.679e-10
 33.41439    235.9 9.256e+03 2.685e-10
 33.45462    237.7 9.270e+03 2.721e-10
 33.49485    239.5 9.313e+03 2.802e-10
 33.53385    241.2 9.395e+03 2.937e-10
 33.55397    242.2 9.520e+03 3.245e-10
 33.57532    243.8 9.579e+03 3.334e-10
 33.61555    245.3 9.661e+03 3.455e-10
 33.65578    246.8 9.766e+03 3.627e-10
 33.69602    248.3 9.894e+03 3.885e-10
 33.73625    250.6 9.821e+03 3.541e-10
 33.77648    252.0 9.863e+03 3.654e-10
 33.81671    253.4 9.883e+03 3.728e-10
 33.85695    254.9 9.865e+03 3.730e-10
 33.87850    256.3 9.831e+03 3.678e-10
 33.89861    257.5 9.724e+03 3.337e-10
 33.93741    258.9 9.767e+03 3.511e-10
 33.97765    260.2 9.838e+03 3.757e-10
 34.01788    261.3 9.972e+03 4.121e-10
 34.04076    262.1 1.017e+04 4.547e-10
 34.06088    263.5 1.021e+04 4.899e-10
 34.09834    263.9 1.045e+04 5.303e-10
 34.13858    263.9 1.053e+04 5.295e-10
 34.17881    264.2 1.055e+04 5.178e-10
 34.20303    265.0 1.054e+04 4.679e-10
 34.22314    266.1 1.075e+04 5.649e-10
 34.24685    266.0 1.069e+04 5.186e-10
 34.25681    266.0 1.073e+04 5.206e-10
 34.26914    266.0 1.073e+04 4.766e-10
 34.28396    266.0 1.066e+04 4.133e-10
 34.29402    267.0 1.075e+04 4.857e-10
 34.30937    267.0 1.070e+04 4.232e-10
 34.33964    267.2 1.051e+04 3.446e-10
 34.36529    268.2 1.020e+04 2.856e-10
 34.38541    269.3 1.056e+04 3.764e-10
 34.42021    270.3 1.032e+04 3.296e-10
 34.46044    271.6 1.004e+04 2.989e-10
 34.50067    273.2 9.834e+03 2.843e-10
 34.52756    274.8 9.703e+03 2.794e-10
 34.54767    275.7 1.000e+04 3.383e-10
 34.58114    277.6 9.881e+03 3.343e-10
 34.62137    279.5 9.789e+03 3.316e-10
 34.66160    281.2 9.706e+03 3.290e-10
 34.68982    282.7 9.648e+03 3.263e-10
 34.70994    283.8 1.003e+04 4.210e-10
 34.74207    285.0 9.914e+03 4.032e-10
 34.78230    286.2 9.789e+03 3.769e-10
 34.82253    287.2 9.662e+03 3.456e-10
 34.85209    288.2 9.544e+03 3.160e-10
 34.87220    288.8 9.525e+03 3.065e-10
 34.90300    289.7 9.281e+03 2.588e-10
 34.94323    290.8 9.153e+03 2.433e-10
 34.98347    292.0 9.145e+03 2.422e-10
 35.01435    293.3 9.147e+03 2.423e-10
 35.03447    294.0 8.963e+03 2.060e-10
 35.06393    295.4 8.978e+03 2.075e-10
 35.10416    296.9 8.999e+03 2.093e-10
 35.14440    298.4 9.036e+03 2.121e-10
 35.17662    299.7 9.123e+03 2.207e-10
 35.19673    300.8 8.826e+03 1.779e-10
 35.22486    302.2 8.907e+03 1.873e-10
 35.26509    303.6 9.076e+03 2.064e-10
 35.30533    305.2 9.458e+03 2.489e-10
 35.33888    306.8 9.839e+03 2.962e-10
 35.35900    307.6 9.195e+03 2.115e-10
 35.38579    308.8 9.651e+03 2.617e-10
 35.42603    309.6 1.023e+04 3.485e-10
 35.45610    309.8 1.039e+04 3.793e-10
 35.47612    309.9 1.069e+04 4.416e-10
 35.49624    309.3 1.114e+04 5.725e-10
 35.51101    308.3 1.149e+04 7.408e-10
 35.52107    310.5 1.090e+04 4.922e-10
 35.53647    309.1 1.137e+04 6.381e-10
 35.55659    308.1 1.158e+04 7.545e-10
 35.58686    308.8 1.153e+04 6.956e-10
 35.62719    308.1 1.142e+04 7.550e-10
 35.66341    307.2 1.128e+04 7.369e-10
 35.68353    308.6 1.113e+04 5.864e-10
 35.70766    307.5 1.093e+04 5.614e-10
 35.74789    306.2 1.054e+04 4.949e-10
 35.78812    304.6 1.007e+04 3.940e-10
 35.82568    302.8 9.718e+03 3.186e-10
 35.84579    303.9 9.968e+03 3.529e-10
 35.86859    302.0 9.683e+03 3.005e-10
 35.90882    300.5 9.669e+03 2.983e-10
 35.94905    299.6 9.763e+03 3.211e-10
 35.97913    298.6 9.981e+03 3.768e-10
 35.99780    298.3 1.027e+04 4.940e-10
 36.00786    298.5 1.018e+04 4.429e-10
 36.01926    298.1 1.050e+04 5.997e-10
 36.03938    297.7 1.086e+04 7.915e-10
 36.05950    297.2 1.130e+04 1.008e-09
 36.07894    296.5 1.180e+04 1.252e-09
 36.08899    296.1 1.193e+04 1.286e-09
 36.09973    295.1 1.252e+04 1.648e-09
 36.11985    293.9 1.304e+04 2.042e-09
 36.13996    292.6 1.342e+04 2.351e-09
 36.16007    291.2 1.356e+04 2.407e-09
 36.18019    289.0 1.378e+04 2.504e-09
 36.20031    287.2 1.365e+04 2.350e-09
 36.22043    285.4 1.338e+04 2.096e-09
 36.24055    283.7 1.303e+04 1.810e-09
 36.25126    282.1 1.266e+04 1.543e-09
 36.26132    281.4 1.274e+04 1.610e-09
 36.28078    280.0 1.241e+04 1.423e-09
 36.30089    279.0 1.217e+04 1.306e-09
 36.32101    278.4 1.207e+04 1.255e-09
 36.33239    278.1 1.209e+04 1.250e-09
 36.34245    277.6 1.227e+04 1.297e-09
 36.36124    277.3 1.230e+04 1.273e-09
 36.38136    277.0 1.230e+04 1.240e-09
 36.40148    276.9 1.224e+04 1.190e-09
 36.41352    277.0 1.215e+04 1.117e-09
 36.42358    275.9 1.221e+04 1.125e-09
 36.43625    276.1 1.213e+04 1.068e-09
 36.44631    274.6 1.204e+04 1.049e-09
 36.46183    274.8 1.207e+04 1.046e-09
 36.48194    274.8 1.245e+04 1.130e-09
 36.49466    274.6 1.313e+04 1.326e-09
 36.50472    271.0 1.496e+04 2.189e-09
 36.52217    271.7 1.503e+04 2.349e-09
 36.53517    273.4 1.460e+04 2.174e-09
 36.54015    271.6 1.600e+04 2.901e-09
 36.54722    271.3 1.707e+04 3.584e-09
 36.55728    270.8 1.846e+04 4.926e-09
 36.56734    270.0 1.998e+04 7.412e-09
 36.57569    269.2 2.130e+04 1.200e-08
 36.58072    265.9 2.250e+04 3.084e-08
 36.58746    265.5 2.275e+04 4.881e-08
 36.59751    265.2 2.279e+04 7.254e-08
 36.60757    265.2 2.270e+04 9.644e-08
 36.61626    265.4 2.274e+04 1.086e-07
 36.62129    263.6 2.280e+04 1.088e-07
 36.62769    263.5 2.299e+04 1.054e-07
 36.63775    263.3 2.345e+04 9.612e-08
 36.64780    262.7 2.436e+04 7.972e-08
 36.65682    261.5 2.589e+04 5.884e-08
 36.66185    256.7 2.928e+04 2.150e-08
 36.66792    253.8 3.205e+04 1.149e-08
 36.67798    250.2 3.344e+04 6.155e-09
 36.68804    246.0 3.095e+04 3.856e-09
 36.69739    241.7 2.389e+04 3.367e-09
 36.70242    236.5 1.581e+04 3.933e-09
 36.70815    235.5 1.551e+04 3.879e-09
 36.71821    235.2 1.542e+04 3.815e-09
 36.72827    235.1 1.536e+04 3.794e-09
 36.73796    235.0 1.537e+04 3.816e-09
 36.74299    234.7 1.590e+04 4.276e-09
 36.74839    234.6 1.607e+04 4.402e-09
 36.75844    234.4 1.621e+04 4.541e-09
 36.76850    234.2 1.631e+04 4.694e-09
 36.77852    234.0 1.633e+04 4.859e-09
 36.78858    233.5 1.825e+04 6.813e-09
 36.79868    233.2 1.841e+04 7.121e-09
 36.80874    232.8 1.858e+04 7.370e-09
 36.81879    232.2 1.893e+04 7.625e-09
 36.82412    231.4 1.946e+04 8.266e-09
 36.82915    229.1 2.463e+04 1.705e-08
 36.83891    227.6 2.510e+04 2.159e-08
 36.84897    225.9 2.541e+04 2.797e-08
 36.85903    224.2 2.565e+04 3.593e-08
 36.86468    222.6 2.569e+04 4.593e-08
 36.86971    220.5 2.545e+04 9.509e-08
 36.87914    219.5 2.502e+04 1.036e-07
 36.88920    219.0 2.446e+04 1.125e-07
 36.89926    218.9 2.399e+04 1.218e-07
 36.90525    218.9 2.364e+04 1.311e-07
 36.91028    217.8 2.336e+04 1.242e-07
 36.91938    217.8 2.311e+04 1.236e-07
 36.92943    217.7 2.296e+04 1.170e-07
 36.93949    217.8 2.283e+04 1.080e-07
 36.94582    217.8 2.270e+04 9.823e-08
 36.95085    216.2 2.222e+04 7.270e-08
 36.95961    216.1 2.202e+04 7.047e-08
 36.96967    216.1 2.189e+04 7.084e-08
 36.97973    216.2 2.172e+04 7.599e-08
 36.98604    216.1 2.174e+04 8.635e-08
 36.98767    216.4 2.175e+04 8.915e-08
 36.99141    215.3 2.177e+04 1.019e-07
 36.99984    214.8 2.198e+04 1.162e-07
 37.00990    213.5 2.194e+04 1.159e-07
 37.01996    212.9 2.160e+04 1.078e-07
 37.02695    212.9 2.111e+04 8.932e-08
 37.03198    212.0 2.113e+04 8.037e-08
 37.04007    212.5 2.075e+04 5.689e-08
 37.05013    212.5 2.062e+04 3.892e-08
 37.06019    212.1 2.069e+04 2.704e-08
 37.06752    211.5 2.071e+04 1.961e-08
 37.07259    210.9 2.069e+04 1.843e-08
 37.08543    209.7 1.989e+04 1.128e-08
 37.10555    209.0 1.891e+04 8.267e-09
 37.12567    209.0 1.814e+04 6.817e-09
 37.14372    209.2 1.763e+04 6.009e-09
 37.15378    209.5 1.671e+04 4.724e-09
 37.16590    210.0 1.631e+04 3.982e-09
 37.18602    210.6 1.590e+04 3.285e-09
 37.20613    211.4 1.543e+04 2.689e-09
 37.22485    212.1 1.490e+04 2.184e-09
 37.23491    212.3 1.398e+04 1.631e-09
 37.24637    213.1 1.352e+04 1.339e-09
 37.26648    214.3 1.323e+04 1.168e-09
 37.28660    215.5 1.310e+04 1.070e-09
 37.30608    215.9 1.258e+04 7.589e-10
 37.32629    216.2 1.206e+04 6.187e-10
 37.35720    217.8 1.147e+04 4.458e-10
 37.39743    219.6 1.084e+04 3.258e-10
 37.43767    221.7 1.025e+04 2.473e-10
 37.46844    224.1 1.004e+04 2.370e-10
 37.48856    224.4 9.995e+03 2.190e-10
 37.51813    226.9 1.001e+04 2.257e-10
 37.55836    229.4 1.006e+04 2.414e-10
 37.59860    231.8 1.014e+04 2.594e-10
 37.63071    234.3 1.021e+04 2.740e-10
 37.65082    234.3 1.020e+04 2.813e-10
 37.67906    236.7 1.028e+04 2.960e-10
 37.71930    239.0 1.033e+04 2.975e-10
 37.75953    241.2 1.033e+04 2.968e-10
 37.79297    243.4 1.032e+04 2.924e-10
 37.81309    243.2 1.056e+04 3.338e-10
 37.83999    245.2 1.057e+04 3.268e-10
 37.88023    247.2 1.056e+04 3.110e-10
 37.92046    249.2 1.051e+04 2.910e-10
 37.95524    251.0 1.044e+04 2.720e-10
 37.97535    250.4 1.074e+04 3.268e-10
 38.00093    252.2 1.067e+04 3.084e-10
 38.04116    254.0 1.066e+04 3.037e-10
 38.08139    255.8 1.067e+04 3.045e-10
 38.11750    257.4 1.070e+04 3.091e-10
 38.13762    256.8 1.089e+04 3.708e-10
 38.16186    258.3 1.099e+04 3.808e-10
 38.20209    259.6 1.102e+04 3.959e-10
 38.24232    261.0 1.103e+04 4.081e-10
 38.27977    262.2 1.101e+04 4.156e-10
 38.29988    262.1 1.091e+04 4.137e-10
 38.32279    263.4 1.091e+04 4.011e-10
 38.36302    264.5 1.088e+04 3.888e-10
 38.40325    265.5 1.085e+04 3.777e-10
 38.44203    266.5 1.082e+04 3.694e-10
 38.46215    266.3 1.064e+04 3.229e-10
 38.48372    267.1 1.058e+04 3.179e-10
 38.52395    267.6 1.052e+04 3.116e-10
 38.56418    267.8 1.044e+04 3.020e-10
 38.60430    268.0 1.032e+04 2.845e-10
 38.62582    268.4 1.006e+04 2.444e-10
 38.64605    266.5 9.748e+03 1.748e-10
 38.68488    267.0 9.547e+03 1.389e-10
 38.72512    267.6 9.351e+03 1.094e-10
 38.76535    268.2 9.184e+03 8.814e-11
 38.78668    268.9 9.052e+03 7.522e-11
 38.80680    269.3 8.999e+03 7.109e-11
 38.84581    270.0 8.916e+03 6.704e-11
 38.88605    270.8 8.901e+03 6.708e-11
 38.92628    271.5 8.903e+03 6.801e-11
 38.94894    272.1 8.920e+03 7.086e-11
 38.96906    273.0 8.915e+03 7.126e-11
 39.00675    273.7 8.949e+03 7.711e-11
 39.04698    274.3 9.001e+03 8.857e-11
 39.08721    275.0 9.075e+03 1.057e-10
 39.11121    275.6 9.164e+03 1.269e-10
 39.13133    276.9 9.162e+03 1.322e-10
 39.16768    277.6 9.246e+03 1.505e-10
 39.20791    278.1 9.305e+03 1.570e-10
 39.24814    278.4 9.306e+03 1.563e-10
 39.27347    278.8 9.284e+03 1.527e-10
 39.29359    280.3 9.284e+03 1.543e-10
 39.32861    280.7 9.212e+03 1.453e-10
 39.36884    281.2 9.117e+03 1.349e-10
 39.40907    281.8 9.022e+03 1.243e-10
 39.43574    282.5 8.934e+03 1.142e-10
 39.45586    284.0 8.961e+03 1.210e-10
 39.48954    284.7 8.897e+03 1.143e-10
 39.52977    285.5 8.836e+03 1.080e-10
 39.57000    286.3 8.780e+03 1.031e-10
 39.59800    287.1 8.765e+03 1.020e-10
 39.61812    288.4 8.855e+03 1.158e-10
 39.65047    289.2 8.860e+03 1.164e-10
 39.69070    289.9 8.903e+03 1.195e-10
 39.73094    290.1 9.021e+03 1.316e-10
 39.76027    290.2 9.247e+03 1.613e-10
 39.78039    291.0 9.403e+03 1.870e-10
 39.81140    290.8 9.692e+03 2.349e-10
 39.85163    289.9 9.976e+03 2.962e-10
 39.89187    289.3 1.016e+04 3.509e-10
 39.92194    289.0 1.028e+04 4.001e-10
 39.93240    289.4 1.046e+04 4.766e-10
 39.94245    289.8 1.057e+04 5.288e-10
 39.96208    289.9 1.085e+04 6.520e-10
 39.98220    289.9 1.115e+04 7.818e-10
 40.00231    289.7 1.143e+04 9.106e-10
 40.01353    289.4 1.168e+04 1.035e-09
 40.02359    289.5 1.179e+04 1.101e-09
 40.04254    289.2 1.193e+04 1.171e-09
 40.06266    288.9 1.201e+04 1.207e-09
 40.08278    288.6 1.203e+04 1.206e-09
 40.09466    288.2 1.201e+04 1.168e-09
 40.10472    288.3 1.171e+04 9.921e-10
 40.12301    287.9 1.153e+04 8.852e-10
 40.14313    287.5 1.130e+04 7.811e-10
 40.16324    287.2 1.109e+04 7.104e-10
 40.17579    286.9 1.101e+04 6.949e-10
 40.18585    287.2 1.063e+04 6.082e-10
 40.20348    287.2 1.064e+04 6.125e-10
 40.22359    287.1 1.075e+04 6.479e-10
 40.24371    286.5 1.130e+04 8.099e-10
 40.25693    285.4 1.267e+04 1.262e-09
 40.26698    286.4 1.227e+04 1.103e-09
 40.28394    285.1 1.400e+04 1.941e-09
 40.30406    283.9 1.533e+04 3.144e-09
 40.31910    283.2 1.590e+04 3.827e-09
 40.32911    282.5 1.670e+04 4.691e-09
 40.33796    281.2 1.788e+04 6.414e-09
 40.34299    281.7 1.775e+04 6.064e-09
 40.34922    280.2 1.902e+04 9.067e-09
 40.35928    278.8 2.000e+04 1.320e-08
 40.36934    277.7 2.069e+04 1.767e-08
 40.37853    276.4 2.125e+04 2.139e-08
 40.38356    276.8 2.148e+04 2.463e-08
 40.38946    275.3 2.213e+04 2.864e-08
 40.39951    273.1 2.277e+04 3.072e-08
 40.40957    270.2 2.334e+04 3.146e-08
 40.41909    266.7 2.381e+04 3.171e-08
 40.42412    266.3 2.445e+04 4.307e-08
 40.42969    261.9 2.501e+04 4.488e-08
 40.43975    257.1 2.543e+04 4.773e-08
 40.44980    252.4 2.562e+04 5.147e-08
 40.45966    247.9 2.550e+04 5.525e-08
 40.46469    246.6 2.497e+04 9.918e-08
 40.46992    242.6 2.485e+04 9.856e-08
 40.47998    239.0 2.474e+04 8.599e-08
 40.49004    235.7 2.478e+04 6.380e-08
 40.50010    232.5 2.480e+04 4.001e-08
 40.50526    229.5 2.457e+04 2.347e-08
 40.51028    228.3 2.487e+04 1.953e-08
 40.52529    221.7 2.193e+04 4.621e-09
 40.54545    214.2 1.494e+04 1.866e-09
 40.56557    211.1 1.318e+04 1.691e-09
 40.58146    210.4 1.320e+04 1.713e-09
 40.59151    211.0 1.385e+04 2.046e-09
 40.60580    211.0 1.417e+04 2.067e-09
 40.62592    210.1 1.507e+04 2.219e-09
 40.64604    208.3 1.622e+04 2.546e-09
 40.66108    207.0 1.679e+04 2.848e-09
 40.66752    205.5 1.772e+04 3.232e-09
 40.67255    206.7 1.749e+04 3.371e-09
 40.68114    204.0 1.866e+04 4.450e-09
 40.69120    199.8 2.106e+04 7.052e-09
 40.70126    191.0 2.621e+04 1.801e-08
 40.70809    177.4 3.060e+04 5.895e-08
 40.71312    177.0 3.041e+04 6.618e-08
 40.72138    163.6 3.057e+04 1.043e-07
 40.73143    151.3 2.984e+04 9.914e-08
 40.74149    142.2 2.724e+04 7.079e-08
 40.74865    136.1 2.376e+04 3.929e-08
 40.75368    136.5 2.403e+04 2.861e-08
 40.76161    132.3 2.146e+04 1.345e-08
 40.77167    129.5 2.043e+04 7.581e-09
 40.78680    121.3 2.050e+04 2.004e-09
 40.80517    108.2 1.453e+04 5.616e-10
 40.81523    112.4 1.604e+04 5.496e-10
 40.82485    104.6 1.201e+04 4.276e-10
 40.83491    104.9 1.144e+04 3.755e-10
 40.84720    104.2 1.143e+04 3.776e-10
 40.86732    104.4 1.149e+04 3.850e-10
 40.88743    103.8 1.174e+04 4.121e-10
 40.90599    103.8 1.176e+04 4.261e-10
 40.91604    105.4 1.154e+04 4.070e-10
 40.93782    105.4 1.143e+04 3.966e-10
 40.97815    104.9 1.155e+04 4.666e-10
 41.01839    105.3 1.192e+04 5.865e-10
 41.05839    105.9 1.224e+04 7.042e-10
 41.07841    107.5 1.207e+04 6.821e-10
 41.08860    108.1 1.229e+04 6.959e-10
 41.10871    108.3 1.233e+04 7.043e-10
 41.12883    108.2 1.234e+04 7.083e-10
 41.14895    108.4 1.228e+04 6.953e-10
 41.15944    108.8 1.220e+04 6.680e-10
 41.16950    110.3 1.216e+04 6.659e-10
 41.18918    110.8 1.207e+04 6.367e-10
 41.20930    111.1 1.210e+04 6.263e-10
 41.22941    111.2 1.242e+04 6.627e-10
 41.24057    111.2 1.274e+04 7.438e-10
 41.25063    113.5 1.198e+04 6.245e-10
 41.26965    113.7 1.215e+04 6.852e-10
 41.28976    112.0 1.582e+04 1.015e-09
 41.30988    103.3 2.584e+04 2.961e-09
 41.32166    101.1 2.892e+04 2.927e-09
 41.32664     95.4 3.346e+04 1.388e-09
 41.33493     88.2 3.340e+04 6.042e-09
 41.34498     87.1 3.291e+04 2.280e-08
 41.35496     83.3 2.744e+04 1.098e-07
 41.35999     82.2 2.797e+04 1.126e-07
 41.36218     77.1 2.801e+04 1.186e-07
 41.36721     80.2 2.735e+04 1.458e-07
 41.37516     73.2 3.026e+04 9.230e-08
 41.38522     59.4 4.390e+04 1.546e-08
 41.39528     34.3 4.151e+04 2.723e-09
 41.40274     12.8 1.669e+04 1.504e-09
 41.40777     17.8 2.349e+04 1.593e-09
 41.41539      9.7 1.516e+04 1.660e-09
 41.42545      5.6 1.433e+04 1.564e-09
 41.43551      5.1 1.457e+04 1.598e-09
 41.45064     -1.1 1.465e+04 1.568e-09
 41.47081     -8.6 1.453e+04 1.401e-09
 41.48397    -16.2 1.413e+04 1.326e-09
 41.49403    -15.2 1.468e+04 1.566e-09
 41.51104    -22.4 1.464e+04 1.616e-09
 41.53116    -28.9 1.521e+04 1.952e-09
 41.55127    -35.3 1.546e+04 2.257e-09
 41.56510    -40.9 1.535e+04 2.415e-09
 41.57516    -40.5 1.572e+04 2.676e-09
 41.59151    -45.0 1.532e+04 2.658e-09
 41.61162    -48.5 1.463e+04 2.193e-09
 41.63174    -51.7 1.372e+04 1.530e-09
 41.64624    -55.1 1.269e+04 9.697e-10
 41.65630    -55.4 1.257e+04 8.967e-10
 41.67197    -59.3 1.159e+04 5.742e-10
 41.69209    -63.2 1.103e+04 4.227e-10
 41.71221    -66.4 1.093e+04 3.791e-10
 41.72737    -69.1 1.098e+04 3.724e-10
 41.73743    -69.5 1.098e+04 3.727e-10
 41.75244    -71.9 1.120e+04 3.895e-10
 41.77256    -74.6 1.135e+04 4.071e-10
 41.79267    -77.3 1.136e+04 4.136e-10
 41.80850    -80.0 1.127e+04 4.114e-10
 41.81856    -80.7 1.141e+04 4.209e-10
 41.83290    -84.7 1.147e+04 4.270e-10
 41.85302    -93.6 1.358e+04 4.391e-10
 41.87314   -107.0 1.879e+04 9.677e-10
 41.88963   -116.8 1.946e+04 3.582e-09
 41.89969   -120.3 2.013e+04 5.635e-09
 41.90495   -123.8 2.032e+04 1.140e-08
 41.91501   -123.6 1.993e+04 9.430e-09
 41.92841   -124.6 2.007e+04 1.197e-08
 41.93513   -125.4 2.025e+04 1.266e-08
 41.94016   -126.7 2.073e+04 1.507e-08
 41.94848   -128.9 2.081e+04 1.599e-08
 41.95853   -130.4 2.067e+04 1.510e-08
 41.96859   -131.9 1.964e+04 1.111e-08
 41.97570   -134.3 1.860e+04 6.922e-09
 41.98073   -135.8 1.862e+04 6.475e-09
 41.98871   -138.7 1.748e+04 4.242e-09
 41.99877   -141.0 1.672e+04 3.321e-09
 42.01390   -143.6 1.623e+04 2.784e-09
 42.03407   -149.4 1.471e+04 1.976e-09
 42.05190   -154.5 1.375e+04 1.742e-09
 42.06196   -158.5 1.419e+04 1.942e-09
 42.07430   -161.0 1.429e+04 2.267e-09
 42.09442   -162.6 1.523e+04 3.244e-09
 42.11453   -163.9 1.581e+04 4.180e-09
 42.13303   -165.5 1.606e+04 4.623e-09
 42.14309   -168.2 1.605e+04 4.560e-09
 42.15477   -170.3 1.608e+04 4.482e-09
 42.17488   -173.2 1.618e+04 4.323e-09
 42.19500   -177.6 1.691e+04 4.211e-09
 42.21416   -182.9 1.753e+04 4.572e-09
 42.22422   -187.7 1.757e+04 3.859e-09
 42.23523   -192.0 1.808e+04 4.572e-09
 42.25027   -193.4 1.855e+04 5.440e-09
 42.25966   -195.5 1.898e+04 6.224e-09
 42.26469   -197.9 1.882e+04 6.034e-09
 42.27034   -200.1 1.881e+04 6.411e-09
 42.28040   -202.0 1.878e+04 6.481e-09
 42.29046   -203.8 1.837e+04 6.298e-09
 42.30023   -205.5 1.765e+04 5.722e-09
 42.30526   -206.6 1.688e+04 4.963e-09
 42.31565   -207.5 1.619e+04 4.457e-09
 42.33581   -208.8 1.481e+04 3.325e-09
 42.35593   -210.7 1.442e+04 2.245e-09
 42.37605   -214.9 1.487e+04 1.891e-09
 42.38649   -223.7 1.686e+04 1.716e-09
 42.39655   -228.2 2.013e+04 1.615e-09
 42.41120   -235.0 2.555e+04 1.577e-09
 42.42121   -239.6 2.697e+04 3.063e-09
 42.42696   -243.2 2.502e+04 1.067e-08
 42.43199   -243.3 2.343e+04 1.427e-08
 42.44133   -244.0 2.245e+04 3.857e-08
 42.44971   -244.2 2.229e+04 8.039e-08
 42.45474   -244.3 2.259e+04 3.299e-08
 42.46144   -244.9 2.216e+04 5.542e-08
 42.46752   -245.6 2.194e+04 7.396e-08
 42.47255   -244.7 2.161e+04 6.919e-08
 42.48156   -245.0 2.150e+04 7.310e-08
 42.49162   -245.0 2.141e+04 7.326e-08
 42.50168   -244.8 2.126e+04 6.239e-08
 42.50809   -244.5 2.128e+04 4.479e-08
 42.51312   -244.6 2.151e+04 2.985e-08
 42.52179   -245.4 2.140e+04 1.875e-08
 42.53185   -246.6 2.090e+04 1.172e-08
 42.54191   -248.0 1.994e+04 7.869e-09
 42.54866   -248.9 1.887e+04 6.026e-09
 42.55876   -250.9 1.778e+04 4.291e-09
 42.57721   -252.1 1.606e+04 2.903e-09
 42.59733   -252.9 1.483e+04 2.282e-09
 42.61744   -253.0 1.443e+04 2.113e-09
 42.62989   -252.4 1.432e+04 2.079e-09
 42.63994   -252.8 1.408e+04 1.936e-09
 42.65768   -251.9 1.428e+04 2.076e-09
 42.67779   -251.1 1.447e+04 2.210e-09
 42.69791   -250.4 1.461e+04 2.328e-09
 42.71102   -249.7 1.469e+04 2.410e-09
 42.72108   -250.1 1.441e+04 2.115e-09
 42.73814   -249.5 1.442e+04 2.120e-09
 42.75826   -249.1 1.442e+04 2.102e-09
 42.77838   -248.7 1.433e+04 2.034e-09
 42.79215   -248.3 1.415e+04 1.935e-09
 42.80221   -248.8 1.367e+04 1.540e-09
 42.81861   -248.3 1.348e+04 1.452e-09
 42.83872   -247.9 1.327e+04 1.360e-09
 42.85884   -247.3 1.305e+04 1.267e-09
 42.87328   -246.7 1.282e+04 1.176e-09
 42.88334   -246.7 1.231e+04 9.277e-10
 42.89907   -245.9 1.212e+04 8.719e-10
 42.91919   -245.1 1.195e+04 8.221e-10
 42.93931   -244.2 1.179e+04 7.791e-10
 42.95442   -243.3 1.166e+04 7.428e-10
 42.96447   -243.4 1.147e+04 6.455e-10
 42.97954   -242.6 1.145e+04 6.428e-10
 42.99467   -241.7 1.139e+04 6.552e-10
 43.00472   -241.3 1.132e+04 6.067e-10
 43.01977   -240.4 1.133e+04 6.321e-10
 43.03555   -239.5 1.134e+04 6.697e-10
 43.04561   -239.8 1.143e+04 6.988e-10
 43.06001   -238.8 1.152e+04 7.714e-10
 43.08012   -237.9 1.163e+04 8.528e-10
 43.10024   -237.0 1.174e+04 9.351e-10
 43.11668   -236.1 1.183e+04 1.006e-09
 43.12674   -236.3 1.194e+04 1.032e-09
 43.14047   -235.4 1.196e+04 1.064e-09
 43.16059   -234.7 1.196e+04 1.074e-09
 43.18070   -233.9 1.194e+04 1.074e-09
 43.19781   -233.0 1.184e+04 1.054e-09
 43.20787   -233.2 1.182e+04 1.034e-09
 43.22094   -232.3 1.172e+04 9.952e-10
 43.24105   -231.5 1.161e+04 9.489e-10
 43.26117   -230.7 1.150e+04 9.049e-10
 43.27895   -229.8 1.137e+04 8.606e-10
 43.28900   -230.1 1.139e+04 8.583e-10
 43.30140   -229.3 1.127e+04 8.196e-10
 43.32152   -228.5 1.113e+04 7.729e-10
 43.34163   -227.6 1.097e+04 7.179e-10
 43.36008   -226.7 1.079e+04 6.654e-10
 43.37014   -226.9 1.075e+04 6.499e-10
 43.38187   -225.8 1.054e+04 5.872e-10
 43.40198   -224.7 1.035e+04 5.196e-10
 43.42210   -223.8 1.022e+04 4.622e-10
 43.44121   -223.1 1.014e+04 4.288e-10
 43.45127   -223.1 1.012e+04 4.223e-10
 43.47249   -222.4 1.008e+04 4.090e-10
 43.51248   -220.3 9.929e+03 3.720e-10
 43.53260   -220.3 9.760e+03 3.352e-10
 43.55305   -218.5 9.671e+03 3.197e-10
 43.59328   -216.7 9.655e+03 3.176e-10
 43.63352   -215.3 9.711e+03 3.292e-10
 43.67375   -214.2 9.898e+03 3.763e-10
 43.69486   -213.3 1.011e+04 4.455e-10
 43.71498   -213.3 9.750e+03 3.386e-10
 43.75422   -212.5 9.921e+03 3.979e-10
 43.79445   -211.8 1.007e+04 4.586e-10
 43.83468   -211.3 1.016e+04 4.985e-10
 43.85713   -210.9 1.017e+04 5.077e-10
 43.87724   -210.6 9.980e+03 4.358e-10
 43.91515   -210.3 9.999e+03 4.466e-10
 43.95538   -210.1 9.945e+03 4.322e-10
 43.99561   -209.9 9.866e+03 4.012e-10
 44.01939   -210.0 9.859e+03 3.848e-10
 44.03951   -211.2 1.030e+04 4.961e-10
 44.07608   -212.3 1.052e+04 5.306e-10
 44.11631   -213.6 1.079e+04 5.773e-10
 44.15654   -215.1 1.096e+04 6.205e-10
 44.18166   -216.7 1.101e+04 6.342e-10
 44.20177   -219.5 1.135e+04 7.467e-10
 44.23701   -220.4 1.098e+04 5.746e-10
 44.27724   -220.9 1.052e+04 4.174e-10
 44.31748   -221.3 1.001e+04 3.028e-10
 44.34392   -221.0 9.613e+03 2.292e-10
 44.36404   -221.6 9.597e+03 2.208e-10
 44.39794   -220.7 9.359e+03 1.820e-10
 44.43817   -219.8 9.305e+03 1.675e-10
 44.47841   -218.9 9.301e+03 1.643e-10
 44.50619   -217.9 9.305e+03 1.641e-10
 44.52630   -218.2 9.375e+03 1.678e-10
 44.55887   -217.3 9.400e+03 1.696e-10
 44.59911   -216.3 9.420e+03 1.713e-10
 44.63934   -215.3 9.443e+03 1.728e-10
 44.66845   -214.2 9.480e+03 1.761e-10
 44.68857   -214.3 9.534e+03 1.873e-10
 44.71980   -213.1 9.618e+03 2.039e-10
 44.76004   -211.9 9.738e+03 2.306e-10
 44.80027   -210.7 9.907e+03 2.676e-10
 44.83072   -209.6 1.012e+04 3.156e-10
 44.85083   -209.7 1.003e+04 2.978e-10
 44.88073   -209.2 1.033e+04 3.576e-10
 44.92097   -209.1 1.079e+04 4.513e-10
 44.96120   -209.4 1.140e+04 5.886e-10
 44.99298   -210.6 1.216e+04 7.764e-10
 45.01310   -214.4 1.294e+04 1.107e-09
 45.03151   -214.3 1.336e+04 1.342e-09
 45.05153   -215.0 1.382e+04 1.698e-09
 45.07165   -216.0 1.440e+04 2.303e-09
 45.08398   -216.9 1.511e+04 3.232e-09
 45.09404   -218.1 1.519e+04 3.912e-09
 45.11188   -219.2 1.570e+04 4.626e-09
 45.13199   -220.5 1.605e+04 5.095e-09
 45.15211   -222.2 1.617e+04 5.231e-09
 45.16511   -223.9 1.617e+04 5.118e-09
 45.17517   -225.7 1.503e+04 3.192e-09
 45.18416   -228.0 1.435e+04 2.543e-09
 45.19422   -227.5 1.449e+04 2.684e-09
 45.21246   -230.0 1.373e+04 2.169e-09
 45.23258   -232.6 1.303e+04 1.789e-09
 45.24624   -235.2 1.259e+04 1.538e-09
 45.25630   -235.7 1.196e+04 1.127e-09
 45.27281   -237.9 1.198e+04 1.110e-09
 45.29293   -240.2 1.203e+04 1.108e-09
 45.31304   -242.7 1.231e+04 1.152e-09
 45.32737   -245.3 1.262e+04 1.265e-09
 45.33753   -242.9 1.194e+04 8.283e-10
 45.36353   -247.0 1.225e+04 1.015e-09
 45.40376   -250.7 1.231e+04 1.100e-09
 45.44399   -253.8 1.217e+04 1.076e-09
 45.47978   -256.2 1.167e+04 8.472e-10
 45.49989   -252.1 1.122e+04 7.560e-10
 45.52446   -253.7 1.073e+04 5.859e-10
 45.56469   -255.0 1.019e+04 4.146e-10
 45.60493   -255.9 9.885e+03 3.361e-10
 45.64204   -256.6 9.816e+03 3.214e-10
 45.66216   -253.9 9.538e+03 2.635e-10
 45.68539   -254.8 9.510e+03 2.560e-10
 45.72562   -255.8 9.529e+03 2.602e-10
 45.76586   -257.1 1.017e+04 3.517e-10
 45.80431   -258.9 1.133e+04 5.833e-10
 45.82442   -256.4 1.010e+04 3.830e-10
 45.84632   -259.0 1.141e+04 6.332e-10
 45.88655   -262.6 1.261e+04 1.155e-09
 45.91663   -264.6 1.321e+04 1.643e-09
 45.93665   -266.4 1.391e+04 2.268e-09
 45.95677   -268.3 1.470e+04 3.029e-09
 45.97643   -270.8 1.537e+04 3.758e-09
 45.98649   -270.0 1.540e+04 3.617e-09
 45.99700   -273.2 1.585e+04 4.168e-09
 46.01712   -277.0 1.593e+04 4.274e-09
 46.03723   -280.8 1.581e+04 4.080e-09
 46.05735   -284.4 1.521e+04 3.207e-09
 46.06763   -287.8 1.433e+04 2.321e-09
 46.07768   -288.2 1.508e+04 2.982e-09
 46.09758   -290.8 1.395e+04 2.080e-09
 46.11770   -292.7 1.301e+04 1.529e-09
 46.13781   -293.7 1.243e+04 1.216e-09
 46.14876   -294.4 1.214e+04 1.038e-09
 46.15882   -294.7 1.210e+04 1.027e-09
 46.17805   -295.3 1.194e+04 9.133e-10
 46.19816   -295.7 1.188e+04 8.639e-10
 46.21828   -296.0 1.184e+04 8.453e-10
 46.22989   -296.3 1.179e+04 8.326e-10
 46.23995   -296.4 1.170e+04 8.065e-10
 46.25851   -296.4 1.164e+04 7.918e-10
 46.27388   -296.4 1.154e+04 7.482e-10
 46.28393   -296.2 1.157e+04 7.712e-10
 46.29875   -296.0 1.141e+04 6.902e-10
 46.31102   -295.7 1.125e+04 5.863e-10
 46.32108   -295.2 1.106e+04 5.115e-10
 46.33898   -294.7 1.096e+04 4.223e-10
 46.36925   -294.9 1.093e+04 3.650e-10
 46.40958   -295.2 1.088e+04 3.253e-10
 46.44981   -295.3 1.077e+04 2.868e-10
 46.47348   -295.3 1.065e+04 2.580e-10
 46.49360   -294.6 1.072e+04 2.690e-10
 46.53028   -294.5 1.069e+04 2.491e-10
 46.57051   -294.3 1.062e+04 2.260e-10
 46.61075   -294.2 1.051e+04 2.006e-10
 46.63575   -294.1 1.038e+04 1.748e-10
 46.65586   -293.1 1.065e+04 2.273e-10
 46.69121   -292.6 1.049e+04 1.982e-10
 46.73144   -291.9 1.035e+04 1.754e-10
 46.77168   -291.1 1.023e+04 1.584e-10
 46.79801   -290.2 1.015e+04 1.470e-10
 46.81813   -289.1 1.046e+04 2.019e-10
 46.85214   -288.3 1.040e+04 1.895e-10
 46.89237   -287.4 1.037e+04 1.813e-10
 46.93261   -286.6 1.038e+04 1.784e-10
 46.96028   -285.7 1.040e+04 1.786e-10
 46.98039   -284.9 1.054e+04 2.083e-10
 47.01307   -284.0 1.055e+04 2.071e-10
 47.05331   -283.3 1.058e+04 2.079e-10
 47.09354   -282.6 1.064e+04 2.087e-10
 47.12254   -281.9 1.068e+04 2.082e-10
 47.14266   -280.8 1.074e+04 2.174e-10
 47.17400   -280.0 1.081e+04 2.254e-10
 47.21424   -279.4 1.086e+04 2.276e-10
 47.25447   -278.9 1.087e+04 2.275e-10
 47.28481   -278.6 1.090e+04 2.246e-10
 47.30492   -277.3 1.106e+04 2.571e-10
 47.33494   -277.0 1.107e+04 2.514e-10
 47.36379   -276.7 1.106e+04 2.383e-10
 47.38390   -276.4 1.099e+04 2.353e-10
 47.41540   -276.0 1.095e+04 2.167e-10
 47.44707   -275.4 1.094e+04 2.024e-10
 47.46719   -274.5 1.115e+04 2.427e-10
 47.49587   -274.0 1.115e+04 2.388e-10
 47.53610   -273.6 1.116e+04 2.387e-10
 47.57633   -273.5 1.118e+04 2.400e-10
 47.60934   -274.0 1.140e+04 2.579e-10
 47.62945   -274.3 1.180e+04 3.571e-10
 47.65680   -275.7 1.270e+04 6.084e-10
 47.69703   -277.4 1.358e+04 1.049e-09
 47.72711   -279.4 1.421e+04 1.636e-09
 47.74713   -280.9 1.451e+04 1.950e-09
 47.76724   -283.1 1.464e+04 2.147e-09
 47.78147   -285.6 1.464e+04 2.185e-09
 47.79152   -285.6 1.465e+04 2.195e-09
 47.80748   -287.5 1.455e+04 2.162e-09
 47.82759   -289.1 1.439e+04 1.977e-09
 47.84771   -290.5 1.423e+04 1.772e-09
 47.86260   -291.7 1.401e+04 1.598e-09
 47.87266   -291.2 1.401e+04 1.649e-09
 47.88794   -292.0 1.371e+04 1.466e-09
 47.90806   -292.5 1.340e+04 1.284e-09
 47.92817   -292.8 1.316e+04 1.103e-09
 47.94373   -292.9 1.303e+04 9.421e-10
 47.95379   -292.4 1.292e+04 9.332e-10
 47.96841   -292.4 1.284e+04 7.846e-10
 47.98852   -292.5 1.277e+04 6.890e-10
 48.00864   -292.5 1.266e+04 6.400e-10
 48.02486   -292.5 1.251e+04 6.262e-10
 48.03492   -292.4 1.241e+04 5.630e-10
 48.04887   -292.3 1.233e+04 5.590e-10
 48.06899   -292.0 1.230e+04 5.609e-10
 48.08911   -291.5 1.220e+04 5.922e-10
 48.10600   -291.1 1.216e+04 6.415e-10
 48.11605   -291.2 1.212e+04 6.217e-10
 48.12934   -290.7 1.212e+04 6.811e-10
 48.14945   -290.1 1.212e+04 7.328e-10
 48.16957   -289.5 1.209e+04 7.740e-10
 48.18713   -288.8 1.206e+04 7.941e-10
 48.19719   -288.8 1.213e+04 8.588e-10
 48.20980   -288.1 1.211e+04 8.777e-10
 48.22992   -287.4 1.209e+04 8.821e-10
 48.25004   -286.6 1.197e+04 8.568e-10
 48.26826   -285.7 1.187e+04 7.770e-10
 48.27832   -285.8 1.203e+04 8.060e-10
 48.29027   -284.9 1.191e+04 7.065e-10
 48.31039   -284.0 1.179e+04 5.969e-10
 48.33050   -283.0 1.167e+04 4.954e-10
 48.34939   -282.0 1.158e+04 4.191e-10
 48.35945   -282.2 1.159e+04 4.158e-10
 48.37073   -281.1 1.150e+04 3.708e-10
 48.39085   -280.0 1.140e+04 3.604e-10
 48.42057   -279.4 1.133e+04 3.568e-10
 48.44078   -279.5 1.130e+04 3.446e-10
 48.46145   -277.9 1.105e+04 2.959e-10
 48.50169   -275.8 1.075e+04 2.459e-10
 48.54192   -273.6 1.051e+04 2.073e-10
 48.58215   -271.2 1.034e+04 1.774e-10
 48.60304   -268.8 1.022e+04 1.536e-10
 48.62316   -268.4 1.023e+04 1.550e-10
 48.66262   -266.0 1.015e+04 1.361e-10
 48.70285   -263.7 1.012e+04 1.207e-10
 48.74308   -261.5 1.011e+04 1.083e-10
 48.76531   -259.5 1.012e+04 9.900e-11
 48.78543   -258.9 1.016e+04 1.199e-10
 48.82355   -257.1 1.016e+04 1.117e-10
 48.86378   -255.3 1.016e+04 1.053e-10
 48.90401   -253.5 1.015e+04 1.013e-10
 48.92757   -251.8 1.016e+04 9.916e-11
 48.94769   -251.3 1.015e+04 1.185e-10
 48.98448   -249.6 1.013e+04 1.128e-10
 49.02471   -247.9 1.013e+04 1.101e-10
 49.06495   -246.1 1.014e+04 1.089e-10
 49.08984   -244.4 1.016e+04 1.082e-10
 49.10996   -243.9 1.013e+04 1.225e-10
 49.14541   -242.2 1.016e+04 1.213e-10
 49.18564   -240.5 1.017e+04 1.213e-10
 49.22588   -238.9 1.020e+04 1.216e-10
 49.25210   -237.4 1.036e+04 1.251e-10
 49.27222   -237.0 1.036e+04 1.401e-10
 49.30634   -235.7 1.047e+04 1.488e-10
 49.34658   -234.5 1.054e+04 1.624e-10
 49.38681   -233.4 1.059e+04 1.733e-10
 49.41437   -232.3 1.062e+04 1.769e-10
 49.43449   -232.0 1.061e+04 1.819e-10
 49.46727   -230.7 1.062e+04 1.824e-10
 49.50751   -229.4 1.064e+04 1.815e-10
 49.54322   -227.9 1.066e+04 1.817e-10
 49.56334   -227.6 1.068e+04 1.770e-10
 49.57663   -226.2 1.073e+04 1.794e-10
 49.59675   -225.6 1.094e+04 2.216e-10
 49.62821   -224.1 1.109e+04 2.352e-10
 49.66844   -222.6 1.128e+04 2.566e-10
 49.70867   -221.4 1.149e+04 2.879e-10
 49.73890   -220.3 1.168e+04 3.244e-10
 49.75902   -219.6 1.184e+04 3.675e-10
 49.78914   -218.8 1.197e+04 3.980e-10
 49.81921   -218.4 1.200e+04 3.990e-10
 49.82989   -218.2 1.200e+04 4.049e-10
 49.83995   -218.6 1.208e+04 4.566e-10
 49.85935   -218.6 1.210e+04 4.614e-10
 49.87946   -218.7 1.211e+04 4.637e-10
 49.89958   -218.7 1.213e+04 4.677e-10
 49.91103   -218.9 1.218e+04 4.898e-10
 49.92109   -219.4 1.235e+04 6.265e-10
 49.93981   -219.4 1.241e+04 7.118e-10
 49.95993   -219.2 1.249e+04 8.311e-10
 49.98005   -218.9 1.258e+04 9.624e-10
 49.99216   -218.5 1.264e+04 1.067e-09
 50.00222   -218.6 1.280e+04 1.218e-09
 50.02028   -218.2 1.279e+04 1.231e-09
 50.04040   -217.8 1.268e+04 1.136e-09
 50.06051   -217.2 1.247e+04 9.544e-10
 50.07329   -216.6 1.225e+04 7.459e-10
 50.08335   -216.7 1.222e+04 6.218e-10
 50.10075   -216.3 1.205e+04 4.721e-10
 50.12086   -215.9 1.195e+04 3.943e-10
 50.15113   -215.8 1.187e+04 3.504e-10
 50.19146   -214.7 1.171e+04 3.012e-10
 50.22569   -213.4 1.158e+04 2.667e-10
 50.24581   -213.9 1.156e+04 2.558e-10
 50.27193   -212.5 1.155e+04 2.527e-10
 50.31216   -211.1 1.154e+04 2.526e-10
 50.35240   -209.7 1.157e+04 2.611e-10
 50.38796   -208.3 1.160e+04 2.853e-10
 50.40808   -208.9 1.168e+04 3.338e-10
 50.43286   -207.6 1.166e+04 3.541e-10
 50.47309   -206.3 1.165e+04 3.608e-10
 50.51333   -205.1 1.156e+04 3.570e-10
 50.55022   -203.8 1.151e+04 3.352e-10
 50.57034   -204.1 1.144e+04 3.117e-10
 50.59379   -202.7 1.139e+04 2.834e-10
 50.63403   -201.3 1.140e+04 2.577e-10
 50.67426   -199.8 1.145e+04 2.393e-10
 50.71249   -198.2 1.151e+04 2.280e-10
 50.73261   -198.0 1.145e+04 1.931e-10
 50.75472   -196.2 1.147e+04 1.866e-10
 50.79496   -194.3 1.145e+04 1.827e-10
 50.83519   -192.2 1.140e+04 1.799e-10
 50.87475   -189.9 1.131e+04 1.786e-10
 50.89487   -189.3 1.114e+04 1.733e-10
 50.91565   -186.8 1.116e+04 1.741e-10
 50.95589   -184.2 1.120e+04 1.757e-10
 50.99612   -181.6 1.129e+04 1.820e-10
 51.03635   -179.2 1.138e+04 2.072e-10
 51.05714   -176.8 1.151e+04 2.720e-10
 51.07725   -176.5 1.146e+04 2.698e-10
 51.11682   -174.1 1.164e+04 3.621e-10
 51.15705   -171.6 1.188e+04 4.872e-10
 51.19728   -169.3 1.218e+04 6.243e-10
 51.21940   -167.2 1.249e+04 7.392e-10
 51.23952   -166.9 1.206e+04 4.314e-10
 51.27775   -165.1 1.227e+04 4.456e-10
 51.31798   -163.6 1.246e+04 4.646e-10
 51.35822   -162.3 1.256e+04 5.115e-10
 51.38167   -161.1 1.261e+04 5.889e-10
 51.40178   -160.5 1.208e+04 4.965e-10
 51.43868   -159.1 1.224e+04 6.373e-10
 51.47891   -157.8 1.242e+04 7.656e-10
 51.51915   -156.7 1.249e+04 8.231e-10
 51.54393   -155.7 1.248e+04 8.294e-10
 51.56405   -155.0 1.248e+04 8.920e-10
 51.59961   -153.9 1.228e+04 8.757e-10
 51.63985   -152.4 1.180e+04 7.201e-10
 51.68008   -150.6 1.132e+04 5.162e-10
 51.70620   -148.8 1.092e+04 3.564e-10
 51.72631   -148.4 1.086e+04 3.682e-10
 51.74277   -146.4 1.054e+04 2.492e-10
 51.76289   -145.6 1.061e+04 2.768e-10
 51.80078   -143.7 1.035e+04 1.871e-10
 51.84101   -141.7 1.021e+04 1.312e-10
 51.86846   -139.7 1.016e+04 9.702e-11
 51.88858   -139.0 1.011e+04 8.311e-11
 51.92148   -137.1 1.013e+04 6.708e-11
 51.96171   -135.1 1.012e+04 5.972e-11
 52.00194   -133.2 1.010e+04 5.783e-11
 52.03073   -131.2 1.010e+04 5.752e-11
 52.05084   -130.4 1.005e+04 5.742e-11
 52.08241   -128.4 1.013e+04 5.989e-11
 52.12264   -126.6 1.016e+04 6.695e-11
 52.16287   -124.7 1.019e+04 7.720e-11
 52.19299   -122.8 1.028e+04 8.956e-11
 52.21311   -122.0 1.025e+04 8.507e-11
 52.24334   -120.2 1.034e+04 9.409e-11
 52.28357   -118.5 1.046e+04 1.010e-10
 52.32380   -117.0 1.056e+04 1.035e-10
 52.35526   -115.5 1.058e+04 1.036e-10
 52.37537   -114.7 1.045e+04 9.527e-11
 52.40427   -113.2 1.044e+04 9.296e-11
 52.44450   -111.5 1.045e+04 8.257e-11
 52.48473   -109.8 1.051e+04 7.038e-11
 52.51752   -108.1 1.057e+04 6.087e-11
 52.53764   -107.4 1.052e+04 6.408e-11
 52.56520   -105.8 1.055e+04 6.114e-11
 52.60543   -104.1 1.056e+04 6.054e-11
 52.64567   -102.4 1.060e+04 6.140e-11
 52.67979   -100.8 1.060e+04 6.339e-11
 52.69990   -100.3 1.064e+04 7.266e-11
 52.72613    -98.8 1.066e+04 7.513e-11
 52.76636    -97.4 1.068e+04 7.664e-11
 52.80660    -96.2 1.076e+04 7.866e-11
 52.84205    -95.2 1.099e+04 9.131e-11
 52.86217    -95.3 1.124e+04 1.266e-10
 52.88706    -94.4 1.138e+04 1.829e-10
 52.92730    -93.3 1.149e+04 2.588e-10
 52.96753    -92.2 1.156e+04 3.266e-10
 53.00432    -91.1 1.157e+04 3.541e-10
 53.02443    -91.4 1.169e+04 3.582e-10
 53.04799    -90.4 1.155e+04 3.318e-10
 53.08823    -89.3 1.135e+04 2.746e-10
 53.12846    -88.3 1.113e+04 2.239e-10
 53.16658    -87.3 1.102e+04 1.952e-10
 53.18670    -88.3 1.123e+04 1.884e-10
 53.20892    -87.7 1.119e+04 2.019e-10
 53.24916    -87.0 1.125e+04 2.320e-10
 53.28939    -86.0 1.121e+04 2.648e-10
 53.32885    -85.0 1.118e+04 2.772e-10
 53.34896    -86.1 1.147e+04 3.759e-10
 53.36986    -85.3 1.141e+04 3.511e-10
 53.41009    -84.4 1.133e+04 3.407e-10
 53.45032    -83.5 1.128e+04 3.507e-10
 53.49055    -82.4 1.128e+04 4.187e-10
 53.51123    -81.1 1.131e+04 5.132e-10
 53.53134    -81.7 1.107e+04 3.989e-10
 53.57102    -80.3 1.101e+04 4.006e-10
 53.61125    -78.8 1.094e+04 3.840e-10
 53.65149    -77.2 1.086e+04 3.743e-10
 53.67349    -75.5 1.083e+04 3.703e-10
 53.69361    -75.6 1.059e+04 1.830e-10
 53.73195    -73.9 1.058e+04 1.896e-10
 53.77218    -72.2 1.060e+04 2.197e-10
 53.81242    -70.5 1.062e+04 2.569e-10
 53.83576    -68.7 1.061e+04 2.864e-10
 53.85587    -68.9 1.045e+04 1.611e-10
 53.89288    -67.0 1.043e+04 1.916e-10
 53.92221    -65.2 1.038e+04 2.101e-10
 53.94232    -64.9 1.051e+04 2.339e-10
 53.97335    -63.1 1.048e+04 2.414e-10
 53.99802    -61.2 1.042e+04 2.384e-10
 54.01814    -61.4 1.035e+04 1.834e-10
 54.05381    -59.5 1.029e+04 1.811e-10
 54.09405    -57.6 1.020e+04 1.605e-10
 54.13428    -55.7 1.016e+04 1.334e-10
 54.16029    -54.0 1.016e+04 1.130e-10
 54.18040    -54.0 1.010e+04 8.665e-11
 54.21474    -52.4 1.013e+04 7.703e-11
 54.25498    -51.0 1.015e+04 7.489e-11
 54.29521    -49.7 1.018e+04 7.567e-11
 54.32255    -48.5 1.017e+04 8.820e-11
 54.34267    -48.5 1.005e+04 8.807e-11
 54.37568    -47.2 1.015e+04 1.152e-10
 54.41591    -45.8 1.026e+04 1.472e-10
 54.45614    -44.4 1.039e+04 1.843e-10
 54.48482    -43.0 1.054e+04 2.222e-10
 54.50493    -43.2 1.061e+04 2.527e-10
 54.53661    -42.3 1.077e+04 2.734e-10
 54.57684    -42.0 1.089e+04 2.904e-10
 54.61707    -41.7 1.093e+04 3.300e-10
 54.64708    -41.1 1.087e+04 3.957e-10
 54.66710    -41.0 1.089e+04 5.076e-10
 54.68728    -40.2 1.085e+04 5.025e-10
 54.70740    -39.9 1.078e+04 4.561e-10
 54.73767    -39.2 1.055e+04 3.773e-10
 54.77800    -36.6 1.006e+04 2.322e-10
 54.80935    -34.6 9.810e+03 1.369e-10
 54.82946    -34.9 9.636e+03 1.184e-10
 54.85847    -33.1 9.525e+03 9.247e-11
 54.89870    -31.0 9.440e+03 8.387e-11
 54.93894    -28.6 9.416e+03 8.230e-11
 54.97161    -26.1 9.400e+03 8.706e-11
 54.99173    -25.9 9.362e+03 9.535e-11
 55.01940    -23.4 9.390e+03 1.097e-10
 55.05963    -20.9 9.413e+03 1.250e-10
 55.09987    -18.5 9.435e+03 1.370e-10
 55.13388    -16.2 9.431e+03 1.403e-10
 55.15399    -15.9 9.449e+03 1.407e-10
 55.18033    -13.8 9.377e+03 1.399e-10
 55.22056    -11.9 9.294e+03 1.389e-10
 55.26080    -10.1 9.224e+03 1.385e-10
 55.29614     -8.3 9.133e+03 1.363e-10
 55.31626     -7.6 9.131e+03 1.329e-10
 55.34126     -5.7 9.050e+03 1.304e-10
 55.38150     -3.7 8.976e+03 1.278e-10
 55.42173     -1.6 8.840e+03 1.220e-10
 55.45841      0.6 8.712e+03 1.058e-10
 55.47852      1.4 8.824e+03 1.160e-10
 55.50219      3.7 8.705e+03 9.809e-11
 55.54243      5.7 8.630e+03 8.168e-11
 55.58266      7.5 8.541e+03 7.342e-11
 55.62067      9.4 8.497e+03 7.149e-11
 55.64079     10.3 8.571e+03 8.591e-11
 55.66313     12.4 8.538e+03 8.889e-11
 55.70336     14.5 8.535e+03 9.056e-11
 55.74359     16.4 8.498e+03 9.010e-11
 55.78294     18.2 8.418e+03 8.842e-11
 55.80305     19.1 8.597e+03 1.176e-10
 55.82406     21.1 8.536e+03 1.205e-10
 55.86429     22.9 8.565e+03 1.127e-10
 55.90452     24.2 8.527e+03 1.083e-10
 55.94476     25.4 8.470e+03 1.214e-10
 55.96532     26.6 8.740e+03 1.416e-10
 55.98543     27.1 9.037e+03 1.871e-10
 56.02522     27.9 9.246e+03 2.168e-10
 56.06545     29.1 9.346e+03 2.693e-10
 56.10164     30.8 9.402e+03 3.021e-10
 56.12176     30.5 9.076e+03 2.334e-10
 56.12758     32.1 9.160e+03 2.251e-10
 56.14770     31.7 9.132e+03 2.031e-10
 56.18615     32.9 9.241e+03 2.198e-10
 56.22638     34.4 9.491e+03 2.590e-10
 56.25646     35.4 9.640e+03 3.056e-10
 56.27648     35.9 9.775e+03 3.334e-10
 56.28965     36.4 1.012e+04 4.203e-10
 56.29971     36.2 1.033e+04 4.865e-10
 56.31671     35.3 1.160e+04 7.978e-10
 56.33683     33.4 1.308e+04 1.455e-09
 56.35695     31.8 1.443e+04 2.893e-09
 56.37079     29.7 1.702e+04 6.239e-09
 56.38084     29.8 1.796e+04 9.904e-09
 56.39210     27.3 1.951e+04 1.448e-08
 56.40211     25.6 2.098e+04 1.825e-08
 56.41125     23.9 2.121e+04 2.783e-08
 56.41628     24.2 2.149e+04 2.790e-08
 56.42223     22.8 2.135e+04 3.379e-08
 56.43228     20.8 2.140e+04 3.890e-08
 56.44234     18.6 2.172e+04 3.953e-08
 56.45182     16.0 2.259e+04 3.379e-08
 56.45685     15.5 2.227e+04 3.037e-08
 56.46246     12.7 2.347e+04 2.557e-08
 56.47252      7.0 2.348e+04 1.884e-08
 56.48258      1.4 2.500e+04 1.705e-08
 56.49771    -12.9 2.503e+04 1.322e-08
 56.51788    -31.6 2.684e+04 1.514e-08
 56.53305    -47.7 2.323e+04 1.564e-08
 56.54306    -48.8 2.378e+04 1.596e-08
 56.55298    -57.1 2.012e+04 1.078e-08
 56.56304    -58.9 1.987e+04 8.537e-09
 56.57818    -67.9 1.663e+04 3.071e-09
 56.59834    -74.3 1.449e+04 1.565e-09
 56.61418    -82.7 1.150e+04 6.653e-10
 56.62424    -84.6 1.119e+04 5.107e-10
 56.63858    -87.4 1.046e+04 3.962e-10
 56.65869    -88.4 1.039e+04 3.771e-10
 56.67881    -88.9 1.041e+04 3.739e-10
 56.70908    -88.9 1.042e+04 3.811e-10
 56.74941    -88.3 1.070e+04 4.748e-10
 56.77664    -87.8 1.102e+04 6.038e-10
 56.79676    -87.4 9.980e+03 3.144e-10
 56.82988    -86.6 1.026e+04 3.850e-10
 56.87011    -86.0 1.064e+04 4.974e-10
 56.91034    -85.3 1.131e+04 7.183e-10
 56.93891    -84.7 1.218e+04 1.111e-09
 56.95902    -83.5 1.157e+04 8.177e-10
 56.99081    -82.8 1.241e+04 1.280e-09
 57.03104    -82.3 1.291e+04 1.626e-09
 57.07127    -82.2 1.300e+04 1.709e-09
 57.10117    -81.8 1.280e+04 1.613e-09
 57.12129    -80.3 1.255e+04 1.424e-09
 57.15174    -79.4 1.207e+04 1.134e-09
 57.19197    -78.1 1.147e+04 8.122e-10
 57.23220    -76.7 1.094e+04 5.934e-10
 57.26344    -75.2 1.049e+04 4.484e-10
 57.28355    -73.7 1.042e+04 4.309e-10
 57.31267    -71.9 1.009e+04 3.393e-10
 57.35290    -70.1 9.798e+03 2.746e-10
 57.39314    -68.3 9.515e+03 2.270e-10
 57.42570    -66.4 9.221e+03 1.887e-10
 57.44582    -65.0 9.293e+03 1.961e-10
 57.47360    -63.4 9.021e+03 1.633e-10
 57.51383    -61.9 8.783e+03 1.386e-10
 57.55407    -60.3 8.591e+03 1.203e-10
 57.58797    -58.7 8.440e+03 1.074e-10
 57.60808    -57.6 8.561e+03 1.290e-10
 57.63453    -56.1 8.441e+03 1.199e-10
 57.67477    -54.5 8.346e+03 1.146e-10
 57.71500    -52.9 8.290e+03 1.128e-10
 57.75023    -51.2 8.261e+03 1.125e-10
 57.77035    -50.5 8.570e+03 1.556e-10
 57.79546    -48.9 8.471e+03 1.513e-10
 57.83570    -47.3 8.370e+03 1.448e-10
 57.87593    -45.6 8.289e+03 1.383e-10
 57.91250    -43.8 8.229e+03 1.323e-10
 57.93261    -43.2 8.379e+03 1.594e-10
 57.95640    -41.3 8.284e+03 1.470e-10
 57.99663    -39.4 8.210e+03 1.380e-10
 58.03686    -37.5 8.163e+03 1.320e-10
 58.07476    -35.5 8.155e+03 1.298e-10
 58.09488    -35.0 8.279e+03 1.501e-10
 58.11733    -33.2 8.320e+03 1.543e-10
 58.15756    -31.4 8.447e+03 1.731e-10
 58.19779    -29.7 8.638e+03 2.047e-10
 58.23703    -28.0 8.900e+03 2.542e-10
 58.25714    -27.9 9.237e+03 3.281e-10
 58.27826    -26.3 9.474e+03 3.956e-10
 58.30119    -24.6 9.667e+03 4.642e-10
 58.32131    -23.3 8.956e+03 2.793e-10
 58.35872    -21.5 9.222e+03 3.504e-10
 58.39896    -19.8 9.502e+03 4.336e-10
 58.41941    -18.0 9.875e+03 5.460e-10
 58.42937    -18.7 9.848e+03 5.385e-10
 58.44905    -18.6 9.856e+03 5.493e-10
 58.46917    -17.9 1.002e+04 6.406e-10
 58.48928    -17.2 1.015e+04 7.079e-10
 58.50035    -16.5 1.028e+04 7.786e-10
 58.51041    -16.8 9.930e+03 6.246e-10
 58.52952    -16.0 9.952e+03 6.447e-10
 58.54963    -15.1 1.002e+04 6.670e-10
 58.56975    -14.5 1.006e+04 6.710e-10
 58.58148    -14.0 1.007e+04 6.682e-10
 58.59154    -14.5 9.697e+03 4.999e-10
 58.60998    -14.3 9.675e+03 4.996e-10
 58.63010    -13.7 9.713e+03 5.409e-10
 58.65022    -13.3 9.702e+03 5.619e-10
 58.66261    -12.8 9.777e+03 6.024e-10
 58.67267    -12.9 9.722e+03 5.808e-10
 58.69045    -12.4 9.882e+03 6.479e-10
 58.71057    -11.8 1.008e+04 7.289e-10
 58.73068    -11.4 1.033e+04 8.253e-10
 58.74374    -11.1 1.062e+04 9.382e-10
 58.75380    -11.2 1.094e+04 1.088e-09
 58.77091    -11.0 1.130e+04 1.269e-09
 58.79103    -11.0 1.168e+04 1.485e-09
 58.81115    -11.0 1.206e+04 1.728e-09
 58.82488    -11.1 1.242e+04 1.986e-09
 58.83494    -11.2 1.327e+04 2.599e-09
 58.85138    -11.5 1.367e+04 2.953e-09
 58.87150    -11.9 1.393e+04 3.251e-09
 58.89161    -12.5 1.412e+04 3.439e-09
 58.90601    -13.3 1.429e+04 3.548e-09
 58.91607    -13.9 1.578e+04 5.536e-09
 58.93185    -14.8 1.584e+04 5.659e-09
 58.95196    -15.7 1.563e+04 5.448e-09
 58.96700    -16.0 1.599e+04 6.185e-09
 58.97701    -16.3 1.592e+04 6.081e-09
 58.98704    -16.8 1.576e+04 5.894e-09
 58.99710    -17.2 1.647e+04 7.503e-09
 59.00718    -17.9 1.635e+04 7.265e-09
 59.01724    -18.4 1.635e+04 7.261e-09
 59.03238    -19.1 1.631e+04 7.109e-09
 59.05254    -20.2 1.629e+04 7.022e-09
 59.06827    -21.4 1.636e+04 7.238e-09
 59.07833    -22.0 1.693e+04 8.661e-09
 59.08770    -22.5 1.678e+04 8.213e-09
 59.09771    -22.6 1.678e+04 8.283e-09
 59.11284    -23.0 1.671e+04 8.313e-09
 59.13301    -23.2 1.646e+04 7.324e-09
 59.14941    -23.7 1.594e+04 5.706e-09
 59.15947    -23.3 1.604e+04 5.755e-09
 59.17324    -24.3 1.508e+04 3.914e-09
 59.19336    -25.8 1.395e+04 2.749e-09
 59.21348    -27.1 1.292e+04 2.116e-09
 59.23054    -27.5 1.230e+04 1.800e-09
 59.24060    -27.5 1.193e+04 1.577e-09
 59.25371    -27.5 1.180e+04 1.520e-09
 59.27382    -27.2 1.187e+04 1.502e-09
 59.29394    -26.8 1.190e+04 1.472e-09
 59.31167    -26.6 1.186e+04 1.403e-09
 59.32173    -26.4 1.198e+04 1.505e-09
 59.33417    -26.3 1.196e+04 1.455e-09
 59.35429    -26.3 1.185e+04 1.371e-09
 59.37441    -26.2 1.172e+04 1.284e-09
 59.39071    -26.1 1.157e+04 1.202e-09
 59.39905    -26.2 1.144e+04 1.135e-09
 59.40286    -26.5 1.159e+04 1.212e-09
 59.41464    -26.4 1.146e+04 1.144e-09
 59.43476    -26.2 1.140e+04 1.102e-09
 59.45487    -26.0 1.141e+04 1.087e-09
 59.47394    -26.1 1.162e+04 1.153e-09
 59.48400    -29.1 1.291e+04 1.528e-09
 59.49510    -29.7 1.355e+04 1.862e-09
 59.51522    -29.8 1.408e+04 2.253e-09
 59.53026    -30.0 1.474e+04 2.817e-09
 59.54027    -30.9 1.563e+04 3.362e-09
 59.55033    -31.9 1.733e+04 4.499e-09
 59.56000    -33.7 1.958e+04 6.365e-09
 59.56503    -39.3 2.249e+04 1.483e-08
 59.57044    -40.7 2.328e+04 2.247e-08
 59.58050    -42.0 2.360e+04 3.306e-08
 59.59056    -43.3 2.351e+04 4.721e-08
 59.60057    -44.3 2.327e+04 6.531e-08
 59.60560    -46.9 2.388e+04 8.197e-08
 59.61068    -48.3 2.462e+04 9.631e-08
 59.62073    -50.3 2.588e+04 1.049e-07
 59.63079    -52.6 2.752e+04 1.054e-07
 59.64085    -55.6 2.867e+04 1.007e-07
 59.64616    -58.9 3.033e+04 8.034e-08
 59.65119    -67.3 3.015e+04 5.060e-08
 59.66097    -70.1 2.756e+04 3.564e-08
 59.67103    -72.3 2.384e+04 2.583e-08
 59.68108    -73.6 2.045e+04 1.953e-08
 59.68673    -73.8 1.878e+04 1.511e-08
 59.69176    -73.9 1.859e+04 1.557e-08
 59.70120    -73.7 1.808e+04 1.173e-08
 59.71126    -73.8 1.748e+04 8.947e-09
 59.72132    -74.1 1.691e+04 7.105e-09
 59.72734    -74.4 1.641e+04 5.583e-09
 59.73745    -75.3 1.592e+04 4.496e-09
 59.75662    -75.3 1.469e+04 2.314e-09
 59.77673    -76.3 1.332e+04 1.186e-09
 59.79685    -77.9 1.183e+04 6.905e-10
 59.80853    -79.0 1.072e+04 5.148e-10
 59.81858    -81.1 9.963e+03 3.763e-10
 59.83708    -81.3 9.956e+03 3.661e-10
 59.85720    -81.6 1.024e+04 3.803e-10
 59.87732    -83.0 1.107e+04 4.809e-10
 59.88966    -84.8 1.195e+04 7.272e-10
 59.89972    -86.3 1.191e+04 8.762e-10
 59.91755    -87.0 1.234e+04 1.381e-09
 59.93767    -87.0 1.269e+04 1.976e-09
 59.95778    -86.3 1.304e+04 2.512e-09
 59.97079    -85.7 1.328e+04 2.777e-09
 59.98085    -86.0 1.339e+04 2.688e-09
 59.99801    -86.2 1.346e+04 2.505e-09
 60.01813    -87.1 1.344e+04 2.049e-09
 60.03825    -89.4 1.309e+04 1.550e-09
 60.05192    -92.3 1.238e+04 1.231e-09
 60.06198    -94.1 1.195e+04 1.163e-09
 60.07848    -96.2 1.161e+04 1.126e-09
 60.09860    -97.4 1.154e+04 1.231e-09
 60.11871    -98.0 1.170e+04 1.375e-09
 60.13306    -98.6 1.184e+04 1.437e-09
 60.14311    -99.6 1.188e+04 1.458e-09
 60.15895   -100.5 1.190e+04 1.438e-09
 60.17906   -101.5 1.176e+04 1.322e-09
 60.19918   -102.6 1.148e+04 1.183e-09
 60.21419   -103.6 1.118e+04 1.048e-09
 60.22425   -104.7 1.105e+04 1.003e-09
 60.23941   -105.6 1.082e+04 8.964e-10
 60.25953   -106.6 1.064e+04 8.112e-10
 60.27964   -107.6 1.052e+04 7.468e-10
 60.29532   -108.4 1.046e+04 7.044e-10
 60.30538   -108.6 1.045e+04 7.039e-10
 60.33003   -109.2 1.043e+04 6.713e-10
 60.36659   -110.4 1.049e+04 6.689e-10
 60.38661   -112.8 1.110e+04 9.191e-10
 60.40034   -113.5 1.117e+04 9.777e-10
 60.42046   -114.1 1.128e+04 1.042e-09
 60.44058   -114.6 1.136e+04 1.095e-09
 60.45759   -115.0 1.146e+04 1.145e-09
 60.46764   -115.6 1.160e+04 1.212e-09
 60.48043   -116.0 1.158e+04 1.201e-09
 60.49049   -116.2 1.174e+04 1.301e-09
 60.50092   -116.5 1.161e+04 1.229e-09
 60.52104   -116.8 1.147e+04 1.160e-09
 60.53872   -117.1 1.129e+04 1.085e-09
 60.54878   -117.6 1.115e+04 1.010e-09
 60.56127   -117.7 1.091e+04 9.119e-10
 60.58139   -117.6 1.062e+04 7.907e-10
 60.60151   -117.5 1.028e+04 6.543e-10
 60.61985   -117.4 9.924e+03 5.198e-10
 60.62991   -117.4 9.854e+03 5.083e-10
 60.64174   -117.4 9.502e+03 4.021e-10
 60.66186   -117.6 9.208e+03 3.237e-10
 60.69102   -118.0 8.993e+03 2.706e-10
 60.71124   -117.0 9.257e+03 3.120e-10
 60.73246   -116.9 9.127e+03 2.760e-10
 60.77269   -116.6 8.925e+03 2.346e-10
 60.81292   -115.8 8.730e+03 1.965e-10
 60.85316   -114.6 8.564e+03 1.612e-10
 60.87350   -113.2 8.453e+03 1.332e-10
 60.89362   -111.8 8.463e+03 1.487e-10
 60.93362   -109.9 8.300e+03 1.165e-10
 60.97386   -107.9 8.271e+03 1.040e-10
 61.01409   -105.7 8.281e+03 1.021e-10
 61.03577   -103.5 8.433e+03 1.044e-10
 61.05588   -102.0 8.344e+03 1.116e-10
 61.09455    -99.6 8.472e+03 1.142e-10
 61.13479    -97.7 9.000e+03 1.524e-10
 61.17502    -96.5 9.723e+03 2.723e-10
 61.19793    -95.3 1.002e+04 3.699e-10
 61.20789    -93.9 9.750e+03 2.877e-10
 61.22512    -94.4 1.034e+04 4.068e-10
 61.24523    -94.7 1.129e+04 7.575e-10
 61.26535    -94.7 1.218e+04 1.373e-09
 61.27897    -94.7 1.295e+04 2.285e-09
 61.28903    -93.5 1.277e+04 1.785e-09
 61.30558    -93.3 1.347e+04 2.829e-09
 61.32570    -92.9 1.402e+04 4.034e-09
 61.34581    -92.6 1.443e+04 5.114e-09
 61.36010    -92.2 1.465e+04 5.724e-09
 61.37016    -91.7 1.456e+04 4.900e-09
 61.38605    -91.7 1.465e+04 5.166e-09
 61.40616    -91.8 1.455e+04 4.945e-09
 61.42628    -92.6 1.441e+04 3.969e-09
 61.44123    -94.4 1.412e+04 2.908e-09
 61.45129    -95.5 1.440e+04 3.368e-09
 61.46651    -98.2 1.405e+04 2.865e-09
 61.48663   -100.7 1.364e+04 2.614e-09
 61.50674   -102.3 1.327e+04 2.522e-09
 61.52237   -102.9 1.295e+04 2.466e-09
 61.53242   -103.3 1.325e+04 3.043e-09
 61.54698   -103.4 1.288e+04 2.644e-09
 61.56709   -103.0 1.248e+04 2.052e-09
 61.58020   -102.8 1.207e+04 1.474e-09
 61.59026   -103.3 1.202e+04 1.400e-09
 61.60350   -103.5 1.156e+04 9.755e-10
 61.61356   -105.0 1.152e+04 9.975e-10
 61.62744   -105.3 1.090e+04 7.344e-10
 61.64756   -105.5 1.042e+04 5.930e-10
 61.66768   -105.0 1.008e+04 5.182e-10
 61.68463   -104.3 9.884e+03 4.811e-10
 61.69469   -104.6 9.910e+03 5.374e-10
 61.70791   -103.9 9.844e+03 5.046e-10
 61.72803   -103.1 9.812e+03 4.837e-10
 61.74814   -102.4 9.814e+03 4.755e-10
 61.76576   -101.7 9.853e+03 4.780e-10
 61.77582   -102.3 9.928e+03 4.981e-10
 61.78837   -101.6 9.964e+03 5.101e-10
 61.80849   -100.7 1.001e+04 5.278e-10
 61.82861    -99.7 1.006e+04 5.445e-10
 61.84690    -98.7 1.016e+04 5.546e-10
 61.85695   -101.1 1.211e+04 7.848e-10
 61.86884   -100.7 1.278e+04 8.831e-10
 61.88896   -100.1 1.317e+04 9.576e-10
 61.90907    -99.1 1.323e+04 9.875e-10
 61.92803    -98.0 1.319e+04 9.790e-10
 61.93809   -100.0 1.381e+04 2.324e-09
 61.94931    -98.6 1.354e+04 2.150e-09
 61.96942    -97.5 1.345e+04 1.958e-09
 61.98954    -96.4 1.348e+04 1.820e-09
 62.00916    -95.5 1.353e+04 1.762e-09
 62.01922    -96.7 1.484e+04 3.830e-09
 62.02977    -95.8 1.507e+04 3.940e-09
 62.04989    -95.1 1.515e+04 4.047e-09
 62.07000    -93.9 1.513e+04 4.140e-09
 62.09012    -92.7 1.509e+04 4.196e-09
 62.10035    -91.4 1.499e+04 4.179e-09
 62.11041    -91.7 1.524e+04 5.956e-09
 62.13035    -90.1 1.496e+04 5.303e-09
 62.15047    -88.4 1.462e+04 4.584e-09
 62.17059    -87.0 1.423e+04 3.904e-09
 62.18148    -85.4 1.383e+04 3.349e-09
 62.19154    -85.3 1.370e+04 3.217e-09
 62.21082    -83.6 1.348e+04 2.810e-09
 62.23094    -82.1 1.335e+04 2.550e-09
 62.25105    -80.9 1.315e+04 2.305e-09
 62.26262    -79.4 1.285e+04 2.057e-09
 62.27267    -79.5 1.256e+04 1.715e-09
 62.29128    -77.8 1.236e+04 1.569e-09
 62.31140    -76.0 1.235e+04 1.488e-09
 62.33152    -74.4 1.239e+04 1.460e-09
 62.34375    -72.9 1.246e+04 1.425e-09
 62.35381    -73.1 1.164e+04 1.092e-09
 62.37175    -71.6 1.166e+04 1.070e-09
 62.39187    -70.0 1.156e+04 1.033e-09
 62.41198    -68.4 1.149e+04 9.920e-10
 62.42488    -66.9 1.143e+04 9.532e-10
 62.43494    -66.9 1.145e+04 9.510e-10
 62.46237    -65.1 1.133e+04 8.687e-10
 62.49615    -61.4 1.103e+04 7.683e-10
 62.51617    -60.8 1.108e+04 7.864e-10
 62.53268    -59.5 1.096e+04 7.265e-10
 62.55280    -58.0 1.080e+04 6.676e-10
 62.57291    -56.1 1.074e+04 6.242e-10
 62.58715    -54.9 1.066e+04 5.834e-10
 62.59720    -54.8 1.080e+04 6.064e-10
 62.62330    -52.5 1.063e+04 5.188e-10
 62.65842    -49.2 1.039e+04 4.266e-10
 62.67486    -49.0 1.061e+04 5.279e-10
 62.67998    -49.5 1.065e+04 5.369e-10
 62.70377    -47.9 1.070e+04 5.365e-10
 62.74410    -44.4 1.032e+04 4.298e-10
 62.78433    -41.4 1.019e+04 3.821e-10
 62.82068    -38.6 1.007e+04 3.598e-10
 62.84080    -39.5 1.030e+04 4.214e-10
 62.86480    -36.6 1.015e+04 3.977e-10
 62.90503    -33.8 1.013e+04 4.082e-10
 62.94526    -31.4 1.027e+04 4.495e-10
 62.98295    -29.1 1.050e+04 4.946e-10
 63.00306    -31.1 1.031e+04 2.568e-10
 63.02573    -29.5 1.061e+04 3.247e-10
 63.05581    -27.2 1.103e+04 4.781e-10
 63.07394    -26.6 1.074e+04 5.019e-10
 63.08400    -28.3 1.081e+04 3.905e-10
 63.09594    -26.6 1.087e+04 4.652e-10
 63.11606    -25.5 1.092e+04 5.121e-10
 63.13617    -24.1 1.103e+04 5.481e-10
 63.15507    -22.9 1.113e+04 5.627e-10
 63.16513    -24.4 1.113e+04 5.483e-10
 63.17641    -23.1 1.125e+04 5.641e-10
 63.19652    -22.1 1.124e+04 5.714e-10
 63.21664    -21.0 1.136e+04 6.094e-10
 63.23621    -20.2 1.179e+04 6.620e-10
 63.24626    -21.1 1.129e+04 7.620e-10
 63.25687    -20.4 1.196e+04 8.746e-10
 63.27699    -20.3 1.321e+04 1.114e-09
 63.29710    -20.5 1.443e+04 1.704e-09
 63.31722    -20.5 1.529e+04 3.012e-09
 63.32740    -19.7 1.583e+04 5.357e-09
 63.33746    -19.8 1.511e+04 3.490e-09
 63.35745    -18.8 1.567e+04 5.461e-09
 63.37757    -17.1 1.613e+04 7.717e-09
 63.39769    -14.9 1.667e+04 1.026e-08
 63.40853    -12.4 1.666e+04 1.101e-08
 63.41859    -13.4 1.588e+04 6.556e-09
 63.43284    -11.8 1.653e+04 8.118e-09
 63.44285    -11.1 1.670e+04 8.216e-09
 63.44900    -10.8 1.723e+04 8.251e-09
 63.45403    -11.8 1.682e+04 7.289e-09
 63.46297    -11.3 1.700e+04 7.938e-09
 63.47303    -10.8 1.732e+04 8.504e-09
 63.48308    -10.1 1.767e+04 9.041e-09
 63.48956     -9.9 1.855e+04 9.109e-09
 63.49459    -10.7 1.776e+04 1.100e-08
 63.50320    -11.0 1.886e+04 1.249e-08
 63.51326    -11.3 2.051e+04 1.390e-08
 63.52332    -11.3 2.188e+04 1.403e-08
 63.53013    -11.2 2.403e+04 9.537e-09
 63.53516    -11.6 2.188e+04 2.557e-08
 63.54343    -10.8 2.219e+04 2.113e-08
 63.55349     -9.9 2.336e+04 1.331e-08
 63.56355    -10.2 2.248e+04 9.435e-09
 63.57070    -11.0 1.983e+04 7.595e-09
 63.57573    -10.1 2.099e+04 9.826e-09
 63.58367    -11.3 1.899e+04 7.916e-09
 63.59372    -12.2 1.800e+04 6.758e-09
 63.60378    -12.4 1.832e+04 6.671e-09
 63.61126    -17.2 2.247e+04 8.460e-09
 63.61629    -20.6 2.604e+04 1.140e-08
 63.62390    -31.3 3.522e+04 2.358e-08
 63.63142    -39.7 3.981e+04 4.610e-08
 63.63401    -45.2 3.497e+04 1.211e-07
 63.63653    -45.3 3.191e+04 1.782e-07
 63.64145    -50.4 2.649e+04 4.956e-07
 63.64648    -53.5 2.343e+04 8.960e-07
 63.65151    -55.9 2.193e+04 1.136e-06
 63.65430    -56.4 2.150e+04 1.052e-06
 63.65681    -55.6 2.047e+04 1.556e-06
 63.66157    -56.0 2.119e+04 1.016e-06
 63.66660    -56.8 2.183e+04 6.357e-07
 63.67416    -56.0 2.245e+04 4.675e-07
 63.68425    -56.9 2.377e+04 1.702e-07
 63.69240    -58.3 2.423e+04 5.646e-08
 63.69743    -58.0 2.383e+04 5.696e-08
 63.70436    -59.6 2.234e+04 2.418e-08
 63.71442    -61.0 2.042e+04 1.405e-08
 63.72448    -61.6 1.907e+04 1.020e-08
 63.73301    -61.1 1.853e+04 8.365e-09
 63.74312    -58.5 1.852e+04 8.829e-09
 63.75964    -57.3 1.651e+04 5.028e-09
 63.76969    -58.3 1.461e+04 3.080e-09
 63.77990    -57.2 1.330e+04 2.200e-09
 63.80001    -55.7 1.261e+04 1.785e-09
 63.81419    -53.9 1.219e+04 1.574e-09
 63.82425    -52.2 1.208e+04 1.500e-09
 63.84025    -50.4 1.180e+04 1.370e-09
 63.86036    -48.5 1.165e+04 1.291e-09
 63.88048    -46.7 1.148e+04 1.213e-09
 63.89532    -44.8 1.134e+04 1.155e-09
 63.90538    -43.6 1.129e+04 1.114e-09
 63.92071    -41.9 1.117e+04 1.075e-09
 63.94083    -40.2 1.111e+04 1.049e-09
 63.96095    -38.5 1.112e+04 1.036e-09
 63.97646    -37.1 1.111e+04 1.024e-09
 63.98652    -36.1 1.115e+04 1.009e-09
 64.00118    -34.9 1.098e+04 9.786e-10
 64.03145    -31.7 1.095e+04 9.317e-10
 64.05769    -29.6 1.135e+04 1.067e-09
 64.06765    -28.4 1.111e+04 1.054e-09
 64.08164    -27.8 1.115e+04 1.068e-09
 64.10176    -26.0 1.144e+04 1.104e-09
 64.12188    -24.9 1.148e+04 1.086e-09
 64.13872    -23.4 1.184e+04 1.124e-09
 64.14878    -22.4 1.169e+04 1.222e-09
 64.16211    -21.2 1.186e+04 1.237e-09
 64.18223    -20.0 1.201e+04 1.201e-09
 64.20234    -18.7 1.178e+04 1.093e-09
 64.21985    -17.2 1.161e+04 9.847e-10
 64.22991    -16.1 1.189e+04 1.192e-09
 64.24258    -14.8 1.168e+04 1.015e-09
 64.27285    -13.9 1.073e+04 6.872e-10
 64.30118    -10.9 1.034e+04 5.547e-10
 64.32130     -9.3 1.074e+04 6.313e-10
 64.35341     -6.4 1.022e+04 4.371e-10
 64.39364     -4.0 9.933e+03 3.490e-10
 64.43388     -1.4 9.880e+03 3.249e-10
 64.46345      1.3 9.778e+03 3.016e-10
 64.48356      3.0 9.630e+03 2.453e-10
 64.51434      5.6 9.673e+03 2.397e-10
 64.55457      8.1 9.796e+03 2.801e-10
 64.59481     10.6 1.004e+04 3.637e-10
 64.62571     13.0 1.015e+04 4.411e-10
 64.64583     14.6 1.002e+04 3.532e-10
 64.67527     17.3 1.019e+04 4.353e-10
 64.71551     20.2 1.028e+04 4.577e-10
 64.75574     22.4 1.048e+04 4.666e-10
 64.78798     24.9 1.047e+04 4.382e-10
 64.80809     26.7 1.028e+04 4.161e-10
 64.83620     28.9 1.037e+04 4.372e-10
 64.85961     31.5 1.056e+04 4.624e-10
 64.87972     30.5 1.069e+04 4.678e-10
 64.91667     32.8 1.097e+04 4.812e-10
 64.95024     35.1 1.148e+04 5.287e-10
 64.97026     36.7 1.139e+04 5.454e-10
 64.98688     37.8 1.156e+04 5.665e-10
 65.00700     38.8 1.177e+04 6.003e-10
 65.02711     39.6 1.195e+04 6.715e-10
 65.04124     40.0 1.211e+04 7.946e-10
 65.05130     41.0 1.227e+04 8.726e-10
 65.06735     41.3 1.256e+04 1.055e-09
 65.08746     41.6 1.308e+04 1.339e-09
 65.10758     41.8 1.365e+04 1.799e-09
 65.12237     42.1 1.407e+04 2.369e-09
 65.13243     43.3 1.456e+04 2.592e-09
 65.14781     43.7 1.493e+04 3.182e-09
 65.16793     43.9 1.504e+04 3.673e-09
 65.18805     44.0 1.483e+04 3.992e-09
 65.20350     44.2 1.462e+04 4.017e-09
 65.21356     45.0 1.554e+04 5.013e-09
 65.22828     45.2 1.506e+04 4.898e-09
 65.24840     45.4 1.446e+04 4.232e-09
 65.26851     45.3 1.394e+04 3.514e-09
 65.28464     44.8 1.363e+04 2.899e-09
 65.29469     46.4 1.407e+04 3.711e-09
 65.30874     45.2 1.440e+04 2.925e-09
 65.32886     41.8 1.537e+04 3.050e-09
 65.34898     37.9 1.645e+04 3.762e-09
 65.36577     35.2 1.645e+04 5.152e-09
 65.37583     35.9 1.632e+04 3.746e-09
 65.38921     33.0 1.567e+04 5.269e-09
 65.40933     32.4 1.598e+04 7.566e-09
 65.42944     32.3 1.649e+04 8.265e-09
 65.44690     32.5 1.644e+04 7.436e-09
 65.45696     32.6 1.614e+04 7.058e-09
 65.46968     32.8 1.568e+04 5.349e-09
 65.48979     32.0 1.489e+04 3.583e-09
 65.50991     30.1 1.385e+04 2.386e-09
 65.52803     28.3 1.303e+04 1.787e-09
 65.53809     29.1 1.279e+04 1.677e-09
 65.55014     27.9 1.251e+04 1.573e-09
 65.57026     27.4 1.256e+04 1.596e-09
 65.59037     27.0 1.289e+04 1.752e-09
 65.60917     27.1 1.279e+04 1.731e-09
 65.61922     27.2 1.325e+04 2.031e-09
 65.63061     27.7 1.300e+04 1.970e-09
 65.65072     28.5 1.254e+04 1.776e-09
 65.67084     29.2 1.209e+04 1.474e-09
 65.69030     29.3 1.171e+04 1.142e-09
 65.70036     30.2 1.209e+04 1.456e-09
 65.71107     29.9 1.191e+04 1.095e-09
 65.73119     28.3 1.177e+04 9.146e-10
 65.75131     25.7 1.193e+04 9.284e-10
 65.77142     24.0 1.183e+04 1.005e-09
 65.79154     23.2 1.201e+04 1.559e-09
 65.81165     24.0 1.165e+04 1.508e-09
 65.84193     26.2 1.122e+04 1.289e-09
 65.88226     26.8 1.011e+04 6.581e-10
 65.92249     26.5 9.051e+03 3.476e-10
 65.94395     27.1 8.359e+03 2.335e-10
 65.96407     26.8 8.442e+03 2.502e-10
 66.00296     28.7 8.241e+03 2.096e-10
 66.04319     30.8 8.260e+03 2.015e-10
 66.08342     32.7 8.316e+03 2.081e-10
 66.10621     34.5 8.410e+03 2.287e-10
 66.12633     34.0 8.847e+03 3.279e-10
 66.16389     36.1 9.039e+03 3.813e-10
 66.20412     38.4 9.234e+03 4.299e-10
 66.23420     39.9 9.458e+03 5.048e-10
 66.25422     40.6 9.554e+03 5.383e-10
 66.26828     41.7 9.618e+03 5.657e-10
 66.27834     41.9 9.833e+03 6.269e-10
 66.29445     43.0 9.868e+03 6.353e-10
 66.31456     43.8 9.961e+03 6.549e-10
 66.33468     44.6 1.004e+04 6.837e-10
 66.34942     45.5 1.016e+04 7.297e-10
 66.35947     45.7 1.011e+04 6.942e-10
 66.37491     46.6 1.024e+04 7.374e-10
 66.39503     47.5 1.034e+04 7.799e-10
 66.41515     48.4 1.041e+04 8.187e-10
 66.43055     49.3 1.049e+04 8.576e-10
 66.44061     49.4 1.045e+04 8.226e-10
 66.45538     49.9 1.070e+04 9.315e-10
 66.47550     49.7 1.123e+04 1.146e-09
 66.49561     48.8 1.276e+04 1.838e-09
 66.51168     46.4 1.514e+04 3.190e-09
 66.52169     45.8 1.592e+04 3.747e-09
 66.53072     42.9 1.812e+04 5.780e-09
 66.54078     40.0 1.939e+04 9.612e-09
 66.55083     38.2 1.951e+04 1.447e-08
 66.55718     38.0 1.911e+04 1.950e-08
 66.56221     38.0 1.888e+04 2.188e-08
 66.57095     38.3 1.849e+04 2.585e-08
 66.58101     38.4 1.844e+04 2.674e-08
 66.59276     39.5 1.807e+04 2.171e-08
 66.60287     40.2 1.782e+04 2.486e-08
 66.61631     41.8 1.679e+04 1.496e-08
 66.63643     42.7 1.573e+04 6.514e-09
 66.65654     41.9 1.460e+04 1.878e-09
 66.68682     33.2 1.145e+04 1.921e-10
 66.72715     28.6 7.357e+03 1.071e-10
 66.75527     29.7 7.187e+03 1.055e-10
 66.77539     30.0 7.211e+03 1.112e-10
 66.80761     31.9 7.282e+03 1.160e-10
 66.84784     33.8 7.320e+03 1.142e-10
 66.88808     35.5 7.354e+03 1.082e-10
 66.91754     37.0 7.379e+03 1.036e-10
 66.93766     37.3 7.554e+03 1.247e-10
 66.96854     39.1 7.573e+03 1.181e-10
 67.00878     41.0 7.601e+03 1.097e-10
 67.03904     43.2 7.586e+03 9.626e-11
 67.05916     42.8 7.607e+03 8.089e-11
 67.07980     44.8 7.532e+03 6.133e-11
 67.09992     45.3 7.802e+03 7.591e-11
 67.12947     47.3 7.648e+03 5.414e-11
 67.16971     49.5 7.477e+03 4.702e-11
 67.20994     51.8 7.449e+03 4.745e-11
 67.24207     54.3 7.446e+03 4.951e-11
 67.26219     54.6 7.436e+03 4.326e-11
 67.29041     57.3 7.428e+03 4.533e-11
 67.33064     59.9 7.454e+03 4.914e-11
 67.37087     62.7 7.507e+03 5.452e-11
 67.40433     65.4 7.580e+03 6.160e-11
 67.42445     65.7 7.516e+03 4.178e-11
 67.45134     68.4 7.594e+03 4.569e-11
 67.49157     71.0 7.690e+03 5.205e-11
 67.53180     73.4 7.799e+03 6.290e-11
 67.56660     75.7 7.930e+03 8.126e-11
 67.58672     75.7 7.793e+03 5.471e-11
 67.61227     78.0 7.953e+03 8.107e-11
 67.65250     80.2 8.199e+03 1.281e-10
 67.69273     82.4 8.530e+03 2.030e-10
 67.72886     84.5 8.898e+03 3.007e-10
 67.74898     84.7 8.785e+03 2.722e-10
 67.77320     86.8 9.125e+03 3.686e-10
 67.81343     88.7 9.380e+03 4.070e-10
 67.85366     90.3 9.400e+03 4.035e-10
 67.89113     91.8 9.392e+03 3.779e-10
 67.91125     92.0 9.183e+03 3.195e-10
 67.93413     93.6 9.099e+03 2.763e-10
 67.97436     95.2 8.958e+03 2.261e-10
 68.01460     96.9 8.829e+03 1.875e-10
 68.05339     98.7 8.725e+03 1.626e-10
 68.07351     99.5 8.795e+03 1.791e-10
 68.09506    101.5 8.775e+03 1.670e-10
 68.13529    103.7 8.742e+03 1.588e-10
 68.17553    105.9 8.760e+03 1.532e-10
 68.21566    108.3 8.781e+03 1.531e-10
 68.25589    111.2 9.153e+03 2.008e-10
 68.29623    113.5 9.372e+03 2.266e-10
 68.33646    115.7 9.611e+03 2.606e-10
 68.37669    117.8 9.811e+03 2.924e-10
 68.39804    119.6 9.944e+03 3.154e-10
 68.40800    119.1 1.035e+04 4.537e-10
 68.42679    120.1 1.048e+04 4.997e-10
 68.44690    121.4 1.063e+04 5.528e-10
 68.46702    122.5 1.077e+04 5.987e-10
 68.47898    123.3 1.089e+04 6.353e-10
 68.48904    123.5 1.134e+04 9.287e-10
 68.50725    124.3 1.147e+04 9.621e-10
 68.52737    125.0 1.157e+04 9.885e-10
 68.54749    125.7 1.163e+04 1.016e-09
 68.56011    126.2 1.166e+04 1.052e-09
 68.57017    126.2 1.210e+04 1.419e-09
 68.58772    126.7 1.214e+04 1.433e-09
 68.60783    127.0 1.217e+04 1.463e-09
 68.62795    127.4 1.220e+04 1.513e-09
 68.64124    127.7 1.225e+04 1.566e-09
 68.65130    126.7 1.356e+04 2.143e-09
 68.66818    126.7 1.376e+04 2.184e-09
 68.68830    126.7 1.395e+04 2.208e-09
 68.70842    126.4 1.415e+04 2.225e-09
 68.72238    126.0 1.436e+04 2.298e-09
 68.73243    124.6 1.514e+04 3.767e-09
 68.74865    124.4 1.496e+04 3.987e-09
 68.76877    124.3 1.485e+04 4.372e-09
 68.78888    124.4 1.500e+04 4.910e-09
 68.80351    124.5 1.528e+04 5.471e-09
 68.81357    124.6 1.493e+04 4.968e-09
 68.82911    124.8 1.500e+04 4.965e-09
 68.84923    125.0 1.495e+04 4.656e-09
 68.86935    125.5 1.460e+04 3.767e-09
 68.88464    126.2 1.399e+04 2.710e-09
 68.89470    126.0 1.304e+04 1.566e-09
 68.90958    126.3 1.271e+04 1.141e-09
 68.93985    126.0 1.159e+04 4.942e-10
 68.98018    126.1 1.050e+04 3.094e-10
 69.02042    127.0 1.006e+04 3.017e-10
 69.04710    128.6 9.926e+03 3.071e-10
 69.06722    129.3 9.606e+03 2.194e-10
 69.10088    131.1 9.563e+03 2.444e-10
 69.14111    132.9 9.505e+03 2.655e-10
 69.18135    134.7 9.485e+03 2.663e-10
 69.20937    136.6 9.436e+03 2.577e-10
 69.22638    137.0 9.476e+03 2.544e-10
 69.23859    137.4 9.449e+03 2.523e-10
 69.26181    139.2 9.300e+03 2.224e-10
 69.30205    141.1 9.101e+03 1.887e-10
 69.34228    143.0 8.977e+03 1.726e-10
 69.37163    145.1 8.977e+03 1.730e-10
 69.39175    145.1 8.945e+03 1.639e-10
 69.42274    147.3 8.962e+03 1.695e-10
 69.46298    149.8 9.126e+03 2.038e-10
 69.50321    151.7 9.449e+03 2.752e-10
 69.53329    152.3 9.607e+03 3.271e-10
 69.54376    153.1 9.831e+03 4.047e-10
 69.55382    152.8 9.809e+03 3.917e-10
 69.57342    153.8 1.010e+04 5.185e-10
 69.59354    154.9 1.049e+04 7.011e-10
 69.61365    155.9 1.094e+04 9.331e-10
 69.62489    156.8 1.144e+04 1.212e-09
 69.63495    156.6 1.125e+04 1.127e-09
 69.65389    157.5 1.171e+04 1.430e-09
 69.67400    158.3 1.216e+04 1.770e-09
 69.69412    159.2 1.253e+04 2.092e-09
 69.70602    160.0 1.271e+04 2.257e-09
 69.71608    160.1 1.229e+04 2.002e-09
 69.73435    161.0 1.236e+04 2.078e-09
 69.75447    161.9 1.235e+04 2.067e-09
 69.77459    162.9 1.228e+04 2.015e-09
 69.78716    163.9 1.215e+04 1.910e-09
 69.79721    164.1 1.176e+04 1.720e-09
 69.81482    165.2 1.173e+04 1.700e-09
 69.83493    166.3 1.173e+04 1.676e-09
 69.85505    167.5 1.175e+04 1.672e-09
 69.86829    168.6 1.179e+04 1.690e-09
 69.87835    168.8 1.156e+04 1.614e-09
 69.89528    169.9 1.169e+04 1.681e-09
 69.91540    171.1 1.178e+04 1.737e-09
 69.93552    172.4 1.183e+04 1.817e-09
 69.94942    173.6 1.192e+04 1.865e-09
 69.95948    173.9 1.178e+04 1.827e-09
 69.97575    175.1 1.189e+04 1.867e-09
 69.99587    176.3 1.193e+04 1.879e-09
 70.01598    177.4 1.195e+04 1.874e-09
 70.03055    178.5 1.203e+04 1.839e-09
 70.04061    178.7 1.192e+04 1.826e-09
 70.05622    179.8 1.203e+04 1.842e-09
 70.07633    180.8 1.221e+04 1.895e-09
 70.09645    181.5 1.257e+04 2.016e-09
 70.11169    181.7 1.309e+04 2.256e-09
 70.12174    182.0 1.300e+04 2.244e-09
 70.13668    182.1 1.360e+04 2.650e-09
 70.15680    182.2 1.417e+04 3.261e-09
 70.17691    182.2 1.459e+04 4.075e-09
 70.19282    182.2 1.497e+04 5.144e-09
 70.20288    182.7 1.494e+04 5.088e-09
 70.21715    182.8 1.548e+04 6.563e-09
 70.23726    182.9 1.603e+04 7.703e-09
 70.25738    182.5 1.624e+04 7.800e-09
 70.27395    181.6 1.622e+04 7.509e-09
 70.28401    182.8 1.718e+04 1.035e-08
 70.29761    181.9 1.706e+04 8.993e-09
 70.31773    181.1 1.637e+04 6.330e-09
 70.32811    180.3 1.512e+04 3.751e-09
 70.33817    180.5 1.483e+04 3.580e-09
 70.35508    179.8 1.339e+04 2.096e-09
 70.36514    181.7 1.413e+04 2.360e-09
 70.37808    180.5 1.210e+04 1.180e-09
 70.39819    179.2 1.060e+04 7.199e-10
 70.41831    179.0 1.038e+04 5.934e-10
 70.43622    179.4 1.029e+04 5.524e-10
 70.44627    179.6 1.015e+04 5.023e-10
 70.45854    180.4 1.011e+04 4.894e-10
 70.47866    181.5 1.011e+04 4.715e-10
 70.49878    182.6 1.012e+04 4.500e-10
 70.51735    183.4 1.011e+04 4.237e-10
 70.52741    183.8 1.011e+04 4.383e-10
 70.53901    184.7 1.010e+04 4.174e-10
 70.55913    185.4 1.009e+04 3.956e-10
 70.57924    186.1 1.007e+04 3.783e-10
 70.59848    186.7 1.007e+04 3.720e-10
 70.60854    187.2 1.019e+04 3.993e-10
 70.61947    187.8 1.022e+04 3.899e-10
 70.63959    188.4 1.022e+04 3.908e-10
 70.65971    188.9 1.027e+04 3.987e-10
 70.67961    189.2 1.033e+04 4.236e-10
 70.68967    189.8 1.042e+04 4.231e-10
 70.69994    189.9 1.050e+04 4.492e-10
 70.72006    189.9 1.062e+04 5.089e-10
 70.74017    189.8 1.080e+04 6.091e-10
 70.76029    189.5 1.109e+04 7.664e-10
 70.77080    189.0 1.147e+04 9.988e-10
 70.78086    189.5 1.155e+04 9.529e-10
 70.80052    188.8 1.203e+04 1.303e-09
 70.82064    188.2 1.254e+04 1.699e-09
 70.84075    187.3 1.297e+04 1.878e-09
 70.85194    186.2 1.301e+04 1.856e-09
 70.86199    186.7 1.326e+04 2.098e-09
 70.88099    185.3 1.326e+04 1.954e-09
 70.90110    184.0 1.306e+04 1.525e-09
 70.92122    182.9 1.275e+04 1.121e-09
 70.95149    181.6 1.219e+04 6.400e-10
 70.99182    178.7 1.075e+04 3.192e-10
 71.01440    177.4 1.040e+04 2.998e-10
 71.03451    177.2 1.073e+04 3.613e-10
 71.07229    177.0 1.074e+04 3.934e-10
 71.11252    176.9 1.098e+04 4.848e-10
 71.15275    177.2 1.135e+04 5.640e-10
 71.17666    177.6 1.147e+04 5.689e-10
 71.19678    177.1 1.179e+04 6.728e-10
 71.23322    177.8 1.174e+04 6.419e-10
 71.27345    178.9 1.155e+04 5.241e-10
 71.31369    180.4 1.127e+04 3.832e-10
 71.33893    181.9 1.097e+04 2.770e-10
 71.35904    182.1 1.108e+04 3.110e-10
 71.39415    183.9 1.088e+04 2.345e-10
 71.41802    185.8 1.076e+04 1.922e-10
 71.43814    184.7 1.093e+04 1.831e-10
 71.47462    186.8 1.093e+04 1.623e-10
 71.50119    188.9 1.095e+04 1.457e-10
 71.52131    189.1 1.082e+04 1.398e-10
 71.55508    191.2 1.077e+04 1.204e-10
 71.59532    193.1 1.075e+04 1.055e-10
 71.63555    195.2 1.076e+04 1.029e-10
 71.66346    197.3 1.075e+04 1.040e-10
 71.68357    197.5 1.074e+04 1.064e-10
 71.71601    199.6 1.069e+04 1.104e-10
 71.75625    201.7 1.060e+04 1.200e-10
 71.79648    204.0 1.052e+04 1.356e-10
 71.82572    206.3 1.050e+04 1.579e-10
 71.84584    206.5 1.059e+04 1.722e-10
 71.87694    209.0 1.062e+04 2.080e-10
 71.91718    211.4 1.069e+04 2.545e-10
 71.95741    213.9 1.081e+04 3.109e-10
 71.98799    216.3 1.095e+04 3.693e-10
 72.00810    216.4 1.095e+04 3.793e-10
 72.03788    218.8 1.110e+04 4.416e-10
 72.07811    221.2 1.126e+04 4.939e-10
 72.11834    223.5 1.143e+04 5.277e-10
 72.15025    225.7 1.154e+04 5.287e-10
 72.17037    225.8 1.171e+04 6.701e-10
 72.19881    227.8 1.195e+04 6.887e-10
 72.23904    229.6 1.199e+04 6.822e-10
 72.27927    231.3 1.205e+04 6.437e-10
 72.31252    233.0 1.205e+04 5.765e-10
 72.33263    232.4 1.249e+04 7.032e-10
 72.35974    233.9 1.243e+04 5.644e-10
 72.39997    235.3 1.227e+04 4.435e-10
 72.44020    236.5 1.207e+04 3.603e-10
 72.47478    237.8 1.191e+04 3.036e-10
 72.49490    236.9 1.197e+04 2.650e-10
 72.52067    238.4 1.175e+04 2.331e-10
 72.56090    240.0 1.157e+04 2.161e-10
 72.60114    241.7 1.147e+04 2.054e-10
 72.63705    243.5 1.140e+04 1.966e-10
 72.65716    243.5 1.142e+04 1.996e-10
 72.68160    245.5 1.136e+04 1.925e-10
 72.72183    247.5 1.131e+04 1.863e-10
 72.76207    249.5 1.126e+04 1.818e-10
 72.79931    251.7 1.125e+04 1.776e-10
 72.81943    251.9 1.137e+04 1.843e-10
 72.84253    254.1 1.134e+04 1.758e-10
 72.88276    256.4 1.130e+04 1.691e-10
 72.92300    258.7 1.125e+04 1.686e-10
 72.96158    261.1 1.123e+04 1.701e-10
 72.98169    261.3 1.124e+04 1.504e-10
 73.00346    263.7 1.121e+04 1.506e-10
 73.04370    266.2 1.118e+04 1.530e-10
 73.08393    268.7 1.115e+04 1.605e-10
 73.12384    271.2 1.112e+04 1.751e-10
 73.14396    271.4 1.104e+04 1.323e-10
 73.16439    273.9 1.096e+04 1.429e-10
 73.20463    276.5 1.097e+04 1.652e-10
 73.24486    279.1 1.113e+04 2.024e-10
 73.28509    281.6 1.138e+04 2.541e-10
 73.30622    283.4 1.154e+04 3.062e-10
 73.32634    284.4 1.152e+04 2.651e-10
 73.36556    285.6 1.165e+04 3.080e-10
 73.38726    287.7 1.151e+04 3.648e-10
 73.39722    287.5 1.155e+04 3.304e-10
 73.41565    289.3 1.159e+04 3.796e-10
 73.43577    291.1 1.177e+04 4.572e-10
 73.45589    292.7 1.210e+04 5.587e-10
 73.46829    294.0 1.254e+04 6.797e-10
 73.47835    294.0 1.246e+04 5.686e-10
 73.49612    295.1 1.294e+04 6.781e-10
 73.51624    296.1 1.345e+04 8.132e-10
 73.53635    296.9 1.399e+04 1.003e-09
 73.54943    297.5 1.453e+04 1.291e-09
 73.55948    297.7 1.414e+04 9.604e-10
 73.57659    298.2 1.462e+04 1.200e-09
 73.59670    298.5 1.502e+04 1.534e-09
 73.60732    298.7 1.534e+04 1.966e-09
 73.61738    299.1 1.499e+04 1.812e-09
 73.63056    299.1 1.536e+04 2.201e-09
 73.64062    299.1 1.454e+04 1.512e-09
 73.65705    299.1 1.481e+04 1.754e-09
 73.67717    299.2 1.498e+04 1.980e-09
 73.69728    299.2 1.495e+04 2.134e-09
 73.71169    299.2 1.490e+04 2.145e-09
 73.72175    299.5 1.454e+04 1.833e-09
 73.73752    299.4 1.453e+04 1.829e-09
 73.75763    299.4 1.444e+04 1.807e-09
 73.77775    299.4 1.424e+04 1.733e-09
 73.79282    299.4 1.399e+04 1.605e-09
 73.80288    299.7 1.391e+04 1.541e-09
 73.81798    299.8 1.356e+04 1.375e-09
 73.83810    300.2 1.328e+04 1.237e-09
 73.85822    300.7 1.307e+04 1.124e-09
 73.88849    301.9 1.268e+04 1.017e-09
 73.92882    302.6 1.211e+04 8.758e-10
 73.95519    302.7 1.188e+04 8.511e-10
 73.97530    302.8 1.175e+04 8.747e-10
 74.00928    303.6 1.174e+04 8.875e-10
 74.04952    304.3 1.181e+04 9.829e-10
 74.08975    304.7 1.206e+04 1.175e-09
 74.11755    304.6 1.231e+04 1.335e-09
 74.13766    301.6 1.188e+04 1.112e-09
 74.17021    301.1 1.174e+04 9.752e-10
 74.21045    300.3 1.146e+04 7.505e-10
 74.25068    299.7 1.107e+04 5.418e-10
 74.27981    299.3 1.055e+04 4.032e-10
 74.29993    298.1 9.810e+03 2.755e-10
 74.33115    298.6 9.490e+03 2.497e-10
 74.37138    299.5 9.323e+03 2.435e-10
 74.41161    300.6 9.276e+03 2.393e-10
 74.44208    301.6 9.249e+03 2.307e-10
 74.46219    301.9 9.054e+03 1.772e-10
 74.49208    302.8 8.962e+03 1.573e-10
 74.53231    303.8 8.830e+03 1.360e-10
 74.57254    304.8 8.654e+03 1.185e-10
 74.60434    306.0 8.479e+03 1.109e-10
 74.62446    306.3 8.302e+03 9.210e-11
 74.65301    307.8 8.290e+03 9.250e-11
 74.69324    309.5 8.261e+03 9.557e-11
 74.73347    311.3 8.247e+03 1.056e-10
 74.76661    313.1 8.321e+03 1.226e-10
 74.78672    313.7 8.228e+03 1.089e-10
 74.81394    315.6 8.360e+03 1.309e-10
 74.85417    317.5 8.554e+03 1.591e-10
 74.89441    319.3 8.814e+03 1.951e-10
 74.92887    321.1 9.134e+03 2.420e-10
 74.94899    321.5 9.084e+03 2.339e-10
 74.97487    322.9 9.427e+03 2.975e-10
 75.01510    323.8 9.701e+03 3.681e-10
 75.04518    323.9 9.790e+03 4.067e-10
 75.06520    324.8 9.894e+03 4.544e-10
 75.08532    326.2 1.010e+04 5.459e-10
 75.10100    327.7 1.038e+04 6.589e-10
 75.11106    327.7 1.043e+04 6.769e-10
 75.12555    328.7 1.071e+04 7.448e-10
 75.14566    329.3 1.082e+04 7.495e-10
 75.16578    329.6 1.082e+04 7.473e-10
 75.18213    329.9 1.083e+04 7.325e-10
 75.19219    329.7 1.095e+04 7.658e-10
 75.20601    330.0 1.090e+04 7.279e-10
 75.22613    330.3 1.082e+04 6.788e-10
 75.24625    330.6 1.072e+04 6.293e-10
 75.26327    330.9 1.062e+04 5.805e-10
 75.27342    330.9 1.085e+04 6.640e-10
 75.29673    331.6 1.062e+04 5.652e-10
 75.33697    332.1 1.034e+04 4.735e-10
 75.37720    332.8 1.007e+04 3.958e-10
 75.41567    333.5 9.825e+03 3.355e-10
 75.43578    333.2 9.753e+03 3.246e-10
 75.45766    334.1 9.519e+03 2.702e-10
 75.49790    335.0 9.397e+03 2.473e-10
 75.53813    336.1 9.399e+03 2.473e-10
 75.57793    337.1 9.429e+03 2.549e-10
 75.59805    336.9 9.270e+03 2.419e-10
 75.61860    337.9 9.412e+03 2.662e-10
 75.65883    338.7 9.625e+03 3.178e-10
 75.69906    339.0 9.773e+03 3.709e-10
 75.72914    339.4 9.892e+03 4.268e-10
 75.74916    340.7 1.012e+04 5.186e-10
 75.76012    342.2 1.048e+04 6.570e-10
 75.77018    341.9 1.032e+04 6.089e-10
 75.78676    342.9 1.070e+04 7.678e-10
 75.79681    342.9 1.061e+04 7.465e-10
 75.80951    342.9 1.095e+04 8.994e-10
 75.82962    342.6 1.151e+04 1.116e-09
 75.84125    341.8 1.250e+04 1.539e-09
 75.85131    341.1 1.283e+04 1.709e-09
 75.86986    339.6 1.407e+04 2.680e-09
 75.88997    338.0 1.488e+04 3.776e-09
 75.90501    337.1 1.525e+04 4.420e-09
 75.91502    336.4 1.584e+04 5.398e-09
 75.92229    335.5 1.684e+04 7.632e-09
 75.92732    335.6 1.664e+04 7.427e-09
 75.93514    334.8 1.760e+04 1.126e-08
 75.94519    334.3 1.853e+04 1.746e-08
 75.95525    334.2 1.942e+04 2.644e-08
 75.96285    333.9 2.022e+04 3.769e-08
 75.96788    334.1 1.999e+04 3.204e-08
 75.97537    333.1 2.050e+04 4.104e-08
 75.98543    331.8 2.071e+04 4.763e-08
 75.99549    330.6 2.071e+04 5.183e-08
 76.00342    329.3 2.079e+04 5.603e-08
 76.00845    329.5 2.027e+04 4.088e-08
 76.01560    328.2 2.053e+04 4.631e-08
 76.02566    326.6 2.106e+04 5.518e-08
 76.03572    324.9 2.167e+04 6.602e-08
 76.04399    323.2 2.208e+04 7.646e-08
 76.04901    323.5 2.114e+04 5.624e-08
 76.05583    322.4 2.170e+04 7.046e-08
 76.06589    321.2 2.224e+04 8.863e-08
 76.07595    319.6 2.283e+04 1.090e-07
 76.08455    317.6 2.425e+04 1.103e-07
 76.08958    318.3 2.289e+04 1.412e-07
 76.09607    315.8 2.401e+04 1.618e-07
 76.10613    312.3 2.485e+04 1.568e-07
 76.11618    307.5 2.547e+04 1.422e-07
 76.12512    302.3 2.682e+04 1.017e-07
 76.13015    302.3 2.436e+04 2.657e-07
 76.13630    297.2 2.519e+04 1.678e-07
 76.14636    293.6 2.543e+04 7.662e-08
 76.15642    290.8 2.490e+04 2.684e-08
 76.16573    286.6 2.132e+04 5.039e-09
 76.17584    290.3 2.491e+04 4.647e-09
 76.19172    281.9 1.447e+04 1.373e-09
 76.21183    277.6 1.235e+04 1.154e-09
 76.23195    276.4 1.163e+04 1.041e-09
 76.24701    276.6 1.107e+04 7.519e-10
 76.26723    276.5 1.115e+04 7.875e-10
 76.30255    276.1 1.061e+04 5.624e-10
 76.34279    275.3 1.011e+04 3.906e-10
 76.38302    274.1 9.663e+03 2.943e-10
 76.40937    272.9 9.405e+03 2.529e-10
 76.42949    273.9 9.958e+03 3.448e-10
 76.46348    272.7 9.746e+03 3.077e-10
 76.50372    271.4 9.572e+03 2.773e-10
 76.54395    270.0 9.476e+03 2.661e-10
 76.57164    268.4 9.488e+03 2.688e-10
 76.59176    268.4 9.737e+03 2.909e-10
 76.62442    266.0 9.746e+03 2.964e-10
 76.66465    263.6 9.737e+03 3.168e-10
 76.69473    262.6 9.711e+03 3.342e-10
 76.71474    262.3 9.795e+03 3.653e-10
 76.73371    262.0 1.005e+04 4.301e-10
 76.74377    261.7 1.024e+04 4.923e-10
 76.75498    261.0 1.057e+04 5.997e-10
 76.77509    260.3 1.086e+04 7.157e-10
 76.79521    259.2 1.126e+04 8.600e-10
 76.81484    257.6 1.193e+04 1.094e-09
 76.82490    254.7 1.297e+04 1.637e-09
 76.83036    253.7 1.318e+04 1.792e-09
 76.84037    253.3 1.337e+04 1.860e-09
 76.85043    252.2 1.415e+04 2.050e-09
 76.86034    248.3 1.727e+04 2.923e-09
 76.86537    241.7 2.122e+04 7.073e-09
 76.87055    235.1 2.372e+04 1.962e-08
 76.88061    229.8 2.409e+04 5.009e-08
 76.88643    226.3 2.369e+04 1.007e-07
 76.89146    225.6 2.402e+04 1.005e-07
 76.90072    222.9 2.422e+04 1.405e-07
 76.90593    220.5 2.444e+04 1.409e-07
 76.91096    216.2 2.531e+04 1.034e-07
 76.92084    213.3 2.656e+04 6.407e-08
 76.93090    209.3 2.858e+04 2.883e-08
 76.94096    205.2 3.076e+04 1.134e-08
 76.95609    193.3 2.760e+04 3.134e-09
 76.97626    184.2 1.842e+04 1.328e-09
 76.98717    180.3 1.225e+04 1.369e-09
 76.99722    179.3 1.185e+04 1.207e-09
 77.01649    179.5 1.183e+04 1.208e-09
 77.03661    180.0 1.184e+04 1.213e-09
 77.05672    180.8 1.189e+04 1.242e-09
 77.06830    181.5 1.202e+04 1.310e-09
 77.07836    180.8 1.139e+04 9.439e-10
 77.09696    181.5 1.155e+04 1.002e-09
 77.11707    182.2 1.178e+04 1.090e-09
 77.13719    182.7 1.207e+04 1.217e-09
 77.14943    183.2 1.241e+04 1.392e-09
 77.15949    182.0 1.178e+04 9.882e-10
 77.17742    182.3 1.227e+04 1.199e-09
 77.19754    182.1 1.298e+04 1.529e-09
 77.21765    181.5 1.387e+04 2.044e-09
 77.23056    180.7 1.484e+04 2.785e-09
 77.24062    177.9 1.471e+04 2.811e-09
 77.25789    177.3 1.534e+04 3.873e-09
 77.27800    177.1 1.571e+04 4.906e-09
 77.29812    176.9 1.583e+04 5.434e-09
 77.31165    176.8 1.584e+04 5.731e-09
 77.32170    176.2 1.554e+04 5.532e-09
 77.33835    176.8 1.540e+04 5.312e-09
 77.35847    177.6 1.522e+04 4.850e-09
 77.37859    178.1 1.509e+04 4.283e-09
 77.39283    178.3 1.505e+04 3.752e-09
 77.40289    176.9 1.404e+04 2.004e-09
 77.41882    176.1 1.389e+04 1.736e-09
 77.43893    175.5 1.376e+04 1.694e-09
 77.45905    175.1 1.375e+04 1.708e-09
 77.47396    175.1 1.379e+04 1.797e-09
 77.48402    173.6 1.264e+04 1.255e-09
 77.49928    174.1 1.297e+04 1.480e-09
 77.51940    174.6 1.332e+04 1.756e-09
 77.53952    175.2 1.363e+04 2.063e-09
 77.55509    175.9 1.389e+04 2.382e-09
 77.56515    175.0 1.333e+04 2.034e-09
 77.57975    175.5 1.357e+04 2.280e-09
 77.59987    175.7 1.385e+04 2.529e-09
 77.61998    175.6 1.427e+04 2.877e-09
 77.63623    175.2 1.491e+04 3.412e-09
 77.64628    173.9 1.462e+04 3.103e-09
 77.66021    173.1 1.543e+04 3.745e-09
 77.68033    171.6 1.632e+04 4.497e-09
 77.70045    169.6 1.720e+04 5.360e-09
 77.71736    167.2 1.802e+04 6.311e-09
 77.72742    165.6 1.759e+04 5.946e-09
 77.74068    163.1 1.810e+04 6.381e-09
 77.76080    160.3 1.819e+04 6.376e-09
 77.78091    157.4 1.813e+04 6.238e-09
 77.79849    154.4 1.783e+04 5.922e-09
 77.80855    153.0 1.730e+04 5.602e-09
 77.82115    150.1 1.688e+04 5.481e-09
 77.84126    147.4 1.677e+04 5.515e-09
 77.86138    145.2 1.674e+04 5.767e-09
 77.87962    143.4 1.676e+04 6.003e-09
 77.88968    142.8 1.648e+04 5.916e-09
 77.90161    141.4 1.635e+04 5.697e-09
 77.92173    140.2 1.591e+04 4.916e-09
 77.94184    139.3 1.525e+04 3.764e-09
 77.96076    138.2 1.442e+04 2.607e-09
 77.97081    137.5 1.377e+04 2.122e-09
 77.97625    136.1 1.279e+04 1.412e-09
 77.98631    135.7 1.285e+04 1.501e-09
 78.00219    134.7 1.223e+04 1.166e-09
 78.02231    133.9 1.176e+04 9.609e-10
 78.04189    133.6 1.139e+04 8.208e-10
 78.05195    133.8 1.115e+04 7.457e-10
 78.06254    133.8 1.075e+04 6.295e-10
 78.08266    133.9 1.047e+04 5.535e-10
 78.10278    134.2 1.028e+04 5.007e-10
 78.12289    134.5 1.016e+04 4.679e-10
 78.13308    135.1 1.008e+04 4.461e-10
 78.14314    135.5 9.994e+03 4.245e-10
 78.16312    136.2 9.983e+03 4.198e-10
 78.18324    136.9 9.985e+03 4.188e-10
 78.20336    137.6 9.992e+03 4.196e-10
 78.21421    138.5 1.002e+04 4.233e-10
 78.22427    138.5 9.979e+03 4.140e-10
 78.24359    139.6 1.001e+04 4.196e-10
 78.26371    140.7 1.008e+04 4.287e-10
 78.28382    141.6 1.013e+04 4.379e-10
 78.29534    142.5 1.020e+04 4.511e-10
 78.30540    142.8 1.021e+04 4.531e-10
 78.32406    143.8 1.033e+04 4.811e-10
 78.34417    144.6 1.050e+04 5.220e-10
 78.36429    145.5 1.070e+04 5.763e-10
 78.37648    146.4 1.093e+04 6.455e-10
 78.38653    146.5 1.105e+04 6.784e-10
 78.40452    147.3 1.130e+04 7.674e-10
 78.42464    148.1 1.156e+04 8.660e-10
 78.44475    149.0 1.180e+04 9.719e-10
 78.45761    149.9 1.205e+04 1.086e-09
 78.46767    149.6 1.196e+04 1.075e-09
 78.48499    150.4 1.212e+04 1.181e-09
 78.50510    151.3 1.228e+04 1.297e-09
 78.52522    152.1 1.245e+04 1.423e-09
 78.53874    153.0 1.263e+04 1.561e-09
 78.54880    152.6 1.248e+04 1.552e-09
 78.56545    153.6 1.270e+04 1.704e-09
 78.58557    154.7 1.286e+04 1.849e-09
 78.60569    155.7 1.295e+04 1.931e-09
 78.61987    156.6 1.296e+04 1.920e-09
 78.62993    156.2 1.265e+04 1.717e-09
 78.64592    157.0 1.252e+04 1.595e-09
 78.66603    157.8 1.237e+04 1.464e-09
 78.68615    158.6 1.236e+04 1.411e-09
 78.70101    159.3 1.238e+04 1.417e-09
 78.71106    158.3 1.173e+04 1.063e-09
 78.72638    158.9 1.177e+04 1.079e-09
 78.74650    159.5 1.186e+04 1.140e-09
 78.76662    160.2 1.204e+04 1.259e-09
 78.78214    161.1 1.228e+04 1.431e-09
 78.79220    160.5 1.157e+04 1.104e-09
 78.80685    161.7 1.188e+04 1.260e-09
 78.82697    162.8 1.218e+04 1.412e-09
 78.84708    164.0 1.247e+04 1.519e-09
 78.86327    164.9 1.271e+04 1.526e-09
 78.87333    164.4 1.218e+04 1.236e-09
 78.88732    165.3 1.228e+04 1.231e-09
 78.90743    166.0 1.233e+04 1.208e-09
 78.92755    166.6 1.236e+04 1.151e-09
 78.94440    166.6 1.231e+04 1.072e-09
 78.95446    165.7 1.212e+04 1.031e-09
 78.96778    165.5 1.210e+04 9.933e-10
 78.98790    165.3 1.200e+04 9.685e-10
 79.00801    164.9 1.198e+04 9.646e-10
 79.02554    164.6 1.198e+04 9.684e-10
 79.03559    163.3 1.236e+04 1.109e-09
 79.04825    162.5 1.241e+04 1.114e-09
 79.06596    161.5 1.255e+04 1.134e-09
 79.07602    162.1 1.365e+04 1.709e-09
 79.08848    160.2 1.402e+04 1.805e-09
 79.10667    157.9 1.440e+04 1.942e-09
 79.11673    154.5 1.478e+04 2.158e-09
 79.12871    151.9 1.470e+04 2.125e-09
 79.14883    149.5 1.449e+04 2.036e-09
 79.16894    147.3 1.423e+04 1.891e-09
 79.18780    145.4 1.396e+04 1.704e-09
 79.19786    142.7 1.339e+04 1.371e-09
 79.20918    140.9 1.314e+04 1.195e-09
 79.22929    139.2 1.294e+04 1.059e-09
 79.24941    137.6 1.276e+04 9.568e-10
 79.26893    136.2 1.261e+04 8.844e-10
 79.27899    134.1 1.232e+04 7.795e-10
 79.28964    133.4 1.233e+04 7.742e-10
 79.30976    133.0 1.240e+04 7.814e-10
 79.32988    132.7 1.256e+04 8.096e-10
 79.34999    132.8 1.274e+04 8.505e-10
 79.37011    132.4 1.267e+04 7.719e-10
 79.39023    133.1 1.271e+04 7.552e-10
 79.41034    133.9 1.274e+04 7.304e-10
 79.43046    134.7 1.276e+04 7.012e-10
 79.44126    135.6 1.278e+04 6.699e-10
 79.45131    134.5 1.267e+04 6.270e-10
 79.47069    135.3 1.271e+04 6.284e-10
 79.49081    136.2 1.281e+04 6.241e-10
 79.51092    137.0 1.292e+04 6.240e-10
 79.52239    137.8 1.304e+04 6.304e-10
 79.53245    136.8 1.305e+04 7.072e-10
 79.55116    137.7 1.311e+04 7.251e-10
 79.57127    138.6 1.314e+04 7.324e-10
 79.59139    139.4 1.365e+04 7.335e-10
 79.60352    135.3 3.413e+04 4.430e-10
 79.61358    108.5 1.028e+05 3.217e-10
 79.62654     87.4 1.039e+05 5.615e-10
 79.63655     78.1 9.045e+04 1.113e-09
 79.64399     81.0 7.397e+04 2.798e-09
 79.64902     74.4 4.082e+04 3.860e-08
 79.65667     74.1 3.051e+04 1.531e-07
 79.66673     73.1 2.642e+04 3.657e-07
 79.67679     70.3 2.592e+04 5.076e-07
 79.68456     64.7 2.733e+04 4.669e-07
 79.68959     54.9 3.173e+04 2.354e-07
 79.69690     41.8 4.387e+04 3.547e-08
 79.70696     22.8 5.599e+04 2.712e-09
 79.71702      2.4 2.748e+04 1.197e-09
 79.72512     -6.5 1.483e+04 1.148e-09
 79.73015     -7.9 1.411e+04 1.106e-09
 79.73714     -8.7 1.389e+04 1.044e-09
 79.74719    -13.8 1.460e+04 8.711e-10
 79.75725    -16.4 1.485e+04 7.692e-10
 79.76569    -38.1 3.260e+04 1.212e-09
 79.77072    -42.9 3.450e+04 1.372e-09
 79.77737    -68.4 4.065e+04 6.264e-09
 79.78743    -79.3 2.724e+04 3.277e-08
 79.79748    -87.3 2.833e+04 5.596e-08
 79.80626    -96.5 3.531e+04 5.308e-08
 79.81128    -96.3 3.550e+04 5.264e-08
 79.81760   -116.6 4.298e+04 1.399e-08
 79.82766   -140.5 2.215e+04 5.506e-09
 79.83772   -144.7 1.929e+04 4.733e-09
 79.84682   -146.1 1.909e+04 4.325e-09
 79.85185   -145.2 1.923e+04 4.704e-09
 79.85783   -147.0 1.889e+04 3.932e-09
 79.87297   -149.4 1.837e+04 3.033e-09
 79.89314   -156.6 1.587e+04 1.180e-09
 79.91325   -163.1 1.363e+04 5.262e-10
 79.92805   -167.8 1.274e+04 3.615e-10
 79.93811   -165.3 1.267e+04 3.710e-10
 79.95348   -167.6 1.244e+04 3.201e-10
 79.97360   -169.3 1.247e+04 3.093e-10
 79.99922   -172.1 1.252e+04 3.084e-10
 80.01944   -167.1 1.212e+04 3.061e-10
 80.04420   -170.0 1.168e+04 2.740e-10
 80.08444   -172.1 1.116e+04 2.270e-10
 80.12467   -173.0 1.078e+04 1.916e-10
 80.15588   -173.5 1.057e+04 1.765e-10
 80.17268   -174.2 1.055e+04 1.770e-10
 80.18170   -169.4 1.024e+04 1.557e-10
 80.20513   -169.8 1.019e+04 1.522e-10
 80.24537   -170.2 1.019e+04 1.529e-10
 80.28560   -170.6 1.033e+04 1.638e-10
 80.32385   -170.9 1.056e+04 1.818e-10
 80.34397   -166.3 1.011e+04 1.578e-10
 80.36607   -166.4 1.028e+04 1.760e-10
 80.40630   -166.3 1.044e+04 1.894e-10
 80.44653   -166.1 1.074e+04 1.963e-10
 80.47661   -163.9 1.054e+04 1.882e-10
 80.49598   -163.5 1.060e+04 1.885e-10
 80.50613   -162.4 1.047e+04 1.771e-10
 80.52700   -161.7 1.071e+04 1.827e-10
 80.55707   -161.3 1.065e+04 1.807e-10
 80.57709   -160.9 1.095e+04 2.036e-10
 80.59721   -159.0 1.079e+04 2.003e-10
 80.61733   -158.9 1.086e+04 2.212e-10
 80.63744   -158.6 1.082e+04 2.646e-10
 80.65756   -158.1 1.102e+04 3.333e-10
 80.66830   -158.0 1.135e+04 4.177e-10
 80.67836   -156.0 1.064e+04 2.703e-10
 80.69779   -156.1 1.106e+04 3.388e-10
 80.71791   -156.6 1.183e+04 4.819e-10
 80.73802   -157.4 1.290e+04 7.325e-10
 80.74943   -158.3 1.380e+04 1.160e-09
 80.75949   -156.2 1.276e+04 6.905e-10
 80.77826   -156.9 1.367e+04 1.143e-09
 80.79837   -157.2 1.437e+04 1.774e-09
 80.81849   -157.3 1.487e+04 2.448e-09
 80.83057   -157.3 1.512e+04 2.913e-09
 80.84063   -155.7 1.463e+04 2.289e-09
 80.85872   -155.9 1.479e+04 2.606e-09
 80.87884   -156.2 1.473e+04 2.642e-09
 80.89896   -156.4 1.430e+04 2.359e-09
 80.91170   -156.6 1.373e+04 1.949e-09
 80.92176   -154.9 1.382e+04 1.998e-09
 80.93919   -155.0 1.328e+04 1.679e-09
 80.95930   -154.8 1.275e+04 1.388e-09
 80.97942   -154.6 1.224e+04 1.129e-09
 80.99283   -154.2 1.177e+04 9.060e-10
 81.00289   -152.7 1.193e+04 9.572e-10
 81.01965   -152.4 1.148e+04 7.556e-10
 81.03977   -152.0 1.109e+04 5.962e-10
 81.05989   -151.6 1.079e+04 4.867e-10
 81.07396   -151.2 1.060e+04 4.251e-10
 81.08402   -149.8 1.063e+04 4.205e-10
 81.10012   -149.5 1.045e+04 3.795e-10
 81.12024   -149.2 1.035e+04 3.639e-10
 81.14035   -148.7 1.033e+04 3.628e-10
 81.15510   -148.3 1.037e+04 3.864e-10
 81.16516   -146.9 1.028e+04 3.497e-10
 81.18059   -146.5 1.032e+04 3.689e-10
 81.20070   -146.0 1.037e+04 3.954e-10
 81.22082   -145.7 1.045e+04 4.338e-10
 81.23623   -145.2 1.053e+04 4.789e-10
 81.24629   -144.3 1.032e+04 3.875e-10
 81.25546   -143.8 1.045e+04 4.234e-10
 81.26551   -144.1 1.054e+04 4.915e-10
 81.28117   -143.8 1.062e+04 5.256e-10
 81.30128   -143.6 1.074e+04 5.681e-10
 81.31736   -143.6 1.091e+04 6.259e-10
 81.32742   -143.1 1.088e+04 6.107e-10
 81.34152   -143.4 1.126e+04 7.446e-10
 81.36163   -143.8 1.173e+04 9.402e-10
 81.38175   -144.4 1.222e+04 1.189e-09
 81.39849   -145.1 1.265e+04 1.447e-09
 81.40855   -144.6 1.304e+04 1.758e-09
 81.42198   -145.3 1.338e+04 2.056e-09
 81.44210   -146.0 1.348e+04 2.161e-09
 81.46221   -146.6 1.347e+04 2.168e-09
 81.47963   -147.0 1.317e+04 1.950e-09
 81.48969   -146.6 1.340e+04 2.295e-09
 81.50245   -146.7 1.293e+04 1.820e-09
 81.52256   -146.8 1.240e+04 1.374e-09
 81.54268   -147.0 1.190e+04 1.044e-09
 81.56076   -147.2 1.149e+04 8.220e-10
 81.57082   -146.8 1.166e+04 9.171e-10
 81.58291   -146.9 1.132e+04 7.447e-10
 81.60303   -146.9 1.104e+04 6.198e-10
 81.62315   -146.8 1.079e+04 5.213e-10
 81.64189   -146.4 1.058e+04 4.451e-10
 81.65195   -145.9 1.063e+04 4.501e-10
 81.66338   -145.4 1.049e+04 3.973e-10
 81.69365   -145.2 1.045e+04 3.658e-10
 81.73398   -144.8 1.030e+04 3.405e-10
 81.77421   -144.1 1.018e+04 3.164e-10
 81.80435   -143.4 1.008e+04 2.885e-10
 81.82447   -142.8 1.014e+04 2.964e-10
 81.85468   -142.2 1.005e+04 2.702e-10
 81.89491   -141.6 9.938e+03 2.397e-10
 81.93515   -141.0 9.861e+03 2.203e-10
 81.96662   -140.5 9.844e+03 2.159e-10
 81.98673   -140.1 9.865e+03 2.168e-10
 82.01561   -139.6 9.881e+03 2.169e-10
 82.05584   -139.1 9.968e+03 2.268e-10
 82.09608   -138.6 1.001e+04 2.332e-10
 82.12888   -138.1 1.001e+04 2.328e-10
 82.14900   -137.7 1.000e+04 2.190e-10
 82.17654   -136.9 9.977e+03 2.007e-10
 82.21678   -136.0 9.879e+03 1.607e-10
 82.25701   -135.0 9.787e+03 1.203e-10
 82.29115   -134.0 9.746e+03 9.095e-11
 82.31126   -133.5 9.942e+03 1.037e-10
 82.33531   -132.5 9.980e+03 8.705e-11
 82.35543   -133.8 1.001e+04 8.572e-11
 82.37771   -132.7 1.007e+04 8.101e-11
 82.41794   -131.7 1.010e+04 8.041e-11
 82.45341   -130.8 1.026e+04 8.657e-11
 82.47353   -130.8 1.034e+04 1.339e-10
 82.49840   -130.1 1.037e+04 1.624e-10
 82.53864   -129.8 1.063e+04 2.031e-10
 82.57887   -130.0 1.160e+04 2.994e-10
 82.61568   -130.7 1.287e+04 5.651e-10
 82.63579   -130.9 1.300e+04 5.573e-10
 82.65934   -133.1 1.382e+04 1.167e-09
 82.68941   -132.7 1.389e+04 1.618e-09
 82.70667   -132.6 1.421e+04 2.213e-09
 82.71673   -132.7 1.453e+04 2.494e-09
 82.72955   -132.7 1.496e+04 3.152e-09
 82.74966   -132.9 1.525e+04 3.459e-09
 82.76978   -133.7 1.533e+04 3.513e-09
 82.78781   -134.5 1.530e+04 3.346e-09
 82.79786   -135.1 1.625e+04 4.684e-09
 82.81001   -136.1 1.616e+04 3.686e-09
 82.83013   -137.2 1.573e+04 2.453e-09
 82.85025   -138.5 1.486e+04 1.525e-09
 82.86894   -139.6 1.378e+04 9.899e-10
 82.87900   -140.3 1.423e+04 1.209e-09
 82.89048   -141.0 1.306e+04 7.850e-10
 82.91060   -141.3 1.231e+04 5.886e-10
 82.93071   -141.0 1.187e+04 4.888e-10
 82.95007   -140.4 1.163e+04 4.383e-10
 82.96013   -141.1 1.161e+04 4.365e-10
 82.97094   -140.3 1.149e+04 4.100e-10
 82.99106   -139.5 1.144e+04 3.952e-10
 83.01118   -138.7 1.142e+04 3.839e-10
 83.03120   -138.0 1.143e+04 3.791e-10
 83.05132   -137.6 1.147e+04 3.679e-10
 83.07153   -137.2 1.149e+04 3.672e-10
 83.09164   -137.0 1.164e+04 3.689e-10
 83.11176   -136.9 1.176e+04 3.983e-10
 83.12239   -137.0 1.184e+04 4.696e-10
 83.13245   -137.3 1.174e+04 4.451e-10
 83.15199   -137.4 1.185e+04 5.336e-10
 83.17211   -137.6 1.205e+04 6.476e-10
 83.19223   -138.2 1.232e+04 7.963e-10
 83.20353   -138.8 1.255e+04 9.847e-10
 83.21358   -138.9 1.225e+04 8.661e-10
 83.23246   -139.3 1.236e+04 1.050e-09
 83.25257   -139.5 1.241e+04 1.232e-09
 83.27269   -139.5 1.241e+04 1.365e-09
 83.28466   -139.4 1.238e+04 1.403e-09
 83.29472   -138.8 1.223e+04 1.302e-09
 83.31292   -138.3 1.213e+04 1.303e-09
 83.33304   -137.5 1.179e+04 1.161e-09
 83.35316   -136.6 1.149e+04 9.028e-10
 83.36579   -135.8 1.124e+04 6.610e-10
 83.37585   -135.4 1.123e+04 6.306e-10
 83.39339   -134.8 1.102e+04 4.844e-10
 83.41351   -134.4 1.088e+04 4.051e-10
 83.43362   -134.0 1.083e+04 3.763e-10
 83.44702   -133.4 1.081e+04 3.543e-10
 83.45708   -133.0 1.085e+04 3.345e-10
 83.47385   -132.7 1.085e+04 3.343e-10
 83.49397   -132.2 1.094e+04 3.434e-10
 83.51409   -132.1 1.095e+04 3.574e-10
 83.52806   -131.7 1.100e+04 4.088e-10
 83.53811   -131.4 1.104e+04 4.558e-10
 83.55432   -130.8 1.120e+04 5.359e-10
 83.57444   -130.2 1.143e+04 6.173e-10
 83.59455   -129.7 1.168e+04 6.807e-10
 83.60919   -129.6 1.187e+04 7.218e-10
 83.61925   -129.4 1.213e+04 8.365e-10
 83.63479   -129.4 1.214e+04 8.664e-10
 83.65490   -129.4 1.213e+04 8.751e-10
 83.67502   -129.2 1.204e+04 8.643e-10
 83.69032   -128.6 1.185e+04 7.946e-10
 83.70038   -128.3 1.207e+04 9.188e-10
 83.71525   -127.5 1.187e+04 7.711e-10
 83.74552   -127.0 1.160e+04 5.915e-10
 83.77165   -125.9 1.135e+04 4.917e-10
 83.79177   -125.5 1.163e+04 5.820e-10
 83.82609   -124.3 1.123e+04 4.550e-10
 83.86632   -122.7 1.086e+04 3.525e-10
 83.90655   -120.9 1.056e+04 2.755e-10
 83.93391   -119.1 1.038e+04 2.243e-10
 83.95403   -118.4 1.044e+04 2.332e-10
 83.98702   -116.5 1.034e+04 2.043e-10
 84.02725   -114.5 1.030e+04 1.899e-10
 84.06748   -112.5 1.028e+04 1.800e-10
 84.09618   -110.5 1.025e+04 1.687e-10
 84.11630   -109.7 1.036e+04 1.964e-10
 84.14795   -107.7 1.034e+04 1.829e-10
 84.18818   -105.8 1.030e+04 1.654e-10
 84.22842   -103.9 1.027e+04 1.463e-10
 84.25844   -102.0 1.029e+04 1.353e-10
 84.27856   -101.3 1.035e+04 1.413e-10
 84.30888    -99.8 1.037e+04 1.376e-10
 84.34911    -99.0 1.062e+04 1.467e-10
 84.38935    -98.8 1.100e+04 2.469e-10
 84.42071    -98.4 1.128e+04 4.466e-10
 84.44083    -98.0 1.121e+04 4.088e-10
 84.46981    -97.7 1.144e+04 5.968e-10
 84.51004    -98.0 1.151e+04 6.541e-10
 84.53486    -98.5 1.122e+04 5.912e-10
 84.55498    -98.2 1.148e+04 6.979e-10
 84.58297    -98.4 1.078e+04 4.197e-10
 84.60309    -98.3 1.093e+04 4.674e-10
 84.63074    -98.4 1.025e+04 2.541e-10
 84.67098    -98.3 9.757e+03 1.525e-10
 84.71121    -97.4 9.435e+03 1.084e-10
 84.74524    -96.1 9.254e+03 8.574e-11
 84.76536    -95.9 9.343e+03 9.301e-11
 84.79167    -94.6 9.245e+03 7.818e-11
 84.83191    -93.2 9.214e+03 7.484e-11
 84.87214    -91.8 9.213e+03 7.592e-11
 84.90750    -90.5 9.229e+03 9.479e-11
 84.92762    -90.4 9.279e+03 1.112e-10
 84.95261    -88.7 9.274e+03 1.397e-10
 84.99284    -86.8 9.287e+03 1.669e-10
 85.03307    -84.9 9.318e+03 1.861e-10
 85.06977    -83.0 9.341e+03 1.956e-10
 85.08989    -82.8 9.417e+03 1.989e-10
 85.11354    -81.0 9.441e+03 2.108e-10
 85.15377    -79.4 9.489e+03 2.256e-10
 85.19400    -77.8 9.553e+03 2.444e-10
 85.23203    -76.3 9.624e+03 2.680e-10
 85.25215    -75.8 9.829e+03 3.135e-10
 85.27447    -74.4 9.903e+03 3.489e-10
 85.31470    -73.1 9.979e+03 3.992e-10
 85.35493    -71.7 1.010e+04 4.698e-10
 85.39430    -70.1 1.029e+04 5.620e-10
 85.41442    -69.3 1.033e+04 5.684e-10
 85.43540    -67.9 1.043e+04 6.287e-10
 85.47563    -67.0 1.046e+04 6.577e-10
 85.51586    -65.9 1.055e+04 7.105e-10
 85.55610    -65.0 1.056e+04 7.466e-10
 85.57668    -64.0 1.056e+04 7.627e-10
 85.59680    -62.6 1.048e+04 7.280e-10
 85.63656    -61.3 1.037e+04 6.834e-10
 85.67680    -60.0 1.003e+04 5.303e-10
 85.71703    -59.1 9.552e+03 3.718e-10
 85.73895    -58.7 9.300e+03 3.139e-10
 85.75906    -57.1 9.043e+03 2.451e-10
 85.79749    -57.0 8.853e+03 2.329e-10
 85.83773    -57.7 9.611e+03 3.631e-10
 85.87796    -58.1 1.064e+04 6.892e-10
 85.90121    -58.2 1.131e+04 1.014e-09
 85.92133    -57.3 1.115e+04 9.443e-10
 85.95843    -57.7 1.148e+04 1.077e-09
 85.98225    -59.3 1.140e+04 1.094e-09
 85.99221    -58.7 1.138e+04 1.066e-09
 86.00852    -61.5 1.266e+04 1.232e-09
 86.02864    -67.4 1.425e+04 2.176e-09
 86.04875    -70.8 1.521e+04 3.964e-09
 86.06328    -72.5 1.586e+04 6.073e-09
 86.07334    -72.5 1.581e+04 5.953e-09
 86.08391    -73.0 1.635e+04 7.582e-09
 86.09392    -73.6 1.677e+04 8.392e-09
 86.10375    -74.4 1.707e+04 8.881e-09
 86.10878    -74.4 1.670e+04 7.935e-09
 86.11403    -75.4 1.678e+04 7.761e-09
 86.12409    -76.7 1.670e+04 6.721e-09
 86.13415    -78.6 1.627e+04 5.792e-09
 86.14436    -80.6 1.563e+04 4.969e-09
 86.15447    -80.4 1.533e+04 4.325e-09
 86.16945    -83.6 1.402e+04 3.109e-09
 86.18957    -85.4 1.316e+04 2.428e-09
 86.20969    -86.1 1.267e+04 1.964e-09
 86.22554    -86.8 1.218e+04 1.538e-09
 86.23560    -86.8 1.198e+04 1.381e-09
 86.24992    -87.2 1.153e+04 1.110e-09
 86.27003    -87.6 1.108e+04 8.793e-10
 86.29015    -88.1 1.073e+04 7.149e-10
 86.30668    -89.0 1.064e+04 6.580e-10
 86.31674    -88.6 1.077e+04 6.653e-10
 86.32531    -89.4 1.129e+04 6.068e-10
 86.33532    -95.5 2.027e+04 4.861e-10
 86.34537   -116.9 4.734e+04 9.058e-10
 86.35218   -129.0 3.048e+04 1.889e-08
 86.35720   -128.9 3.005e+04 1.987e-08
 86.36549   -132.2 2.367e+04 1.138e-07
 86.37555   -134.0 2.236e+04 2.441e-07
 86.38561   -136.4 2.238e+04 2.821e-07
 86.39274   -139.8 2.310e+04 2.420e-07
 86.39777   -139.0 2.322e+04 2.497e-07
 86.40572   -144.3 2.466e+04 8.073e-08
 86.41578   -152.5 2.411e+04 1.304e-08
 86.42584   -160.9 1.796e+04 3.783e-09
 86.43331   -164.5 1.477e+04 2.539e-09
 86.43834   -164.7 1.471e+04 2.444e-09
 86.45103   -166.3 1.375e+04 1.924e-09
 86.46894   -168.4 1.194e+04 1.121e-09
 86.47900   -168.3 1.185e+04 1.066e-09
 86.49131   -169.0 1.126e+04 7.360e-10
 86.51143   -169.5 1.066e+04 5.586e-10
 86.53155   -169.8 1.040e+04 4.520e-10
 86.55007   -170.0 1.018e+04 3.761e-10
 86.56013   -169.8 1.015e+04 3.609e-10
 86.57178   -170.2 9.993e+03 3.142e-10
 86.59190   -170.5 9.920e+03 2.924e-10
 86.61201   -170.7 9.898e+03 2.873e-10
 86.63121   -170.9 9.900e+03 2.869e-10
 86.64127   -170.8 9.934e+03 2.866e-10
 86.65225   -172.4 1.012e+04 2.936e-10
 86.67236   -177.2 1.171e+04 3.993e-10
 86.69248   -181.9 1.427e+04 1.151e-09
 86.71234   -184.3 1.590e+04 3.174e-09
 86.72240   -184.4 1.574e+04 3.228e-09
 86.72416   -185.3 1.675e+04 6.065e-09
 86.73422   -185.2 1.706e+04 5.948e-09
 86.75283   -185.7 1.797e+04 9.577e-09
 86.77294   -186.8 1.842e+04 1.164e-08
 86.79306   -188.3 1.842e+04 1.192e-08
 86.80353   -189.4 1.770e+04 1.006e-08
 86.81359   -189.4 1.679e+04 7.376e-09
 86.83329   -190.5 1.583e+04 5.306e-09
 86.85341   -192.2 1.513e+04 4.026e-09
 86.87353   -194.3 1.501e+04 3.721e-09
 86.88466   -196.7 1.523e+04 3.750e-09
 86.89472   -197.6 1.553e+04 3.553e-09
 86.91376   -200.0 1.699e+04 5.388e-09
 86.93388   -201.8 1.827e+04 8.206e-09
 86.95399   -203.3 1.912e+04 1.086e-08
 86.96580   -205.3 1.947e+04 1.187e-08
 86.97585   -206.3 1.945e+04 1.247e-08
 86.99422   -208.5 1.937e+04 1.240e-08
 87.01434   -210.7 1.860e+04 1.037e-08
 87.03446   -213.2 1.741e+04 7.773e-09
 87.04693   -215.9 1.616e+04 5.783e-09
 87.05699   -216.5 1.572e+04 4.455e-09
 87.07469   -219.4 1.469e+04 3.113e-09
 87.09481   -222.2 1.395e+04 2.294e-09
 87.11492   -224.7 1.345e+04 1.737e-09
 87.12806   -227.0 1.294e+04 1.319e-09
 87.13812   -229.4 1.170e+04 8.590e-10
 87.15516   -231.1 1.129e+04 7.543e-10
 87.17527   -232.5 1.111e+04 7.130e-10
 87.19539   -233.7 1.109e+04 7.070e-10
 87.20919   -235.0 1.138e+04 7.393e-10
 87.21925   -236.2 1.152e+04 8.048e-10
 87.23562   -237.4 1.205e+04 1.016e-09
 87.25574   -238.4 1.260e+04 1.319e-09
 87.27585   -239.2 1.303e+04 1.639e-09
 87.29033   -239.8 1.326e+04 1.866e-09
 87.30038   -240.9 1.325e+04 1.934e-09
 87.31609   -241.5 1.323e+04 1.935e-09
 87.33620   -241.9 1.303e+04 1.762e-09
 87.35632   -242.3 1.274e+04 1.447e-09
 87.37146   -243.0 1.244e+04 1.164e-09
 87.38152   -244.2 1.229e+04 1.054e-09
 87.39655   -245.1 1.209e+04 8.981e-10
 87.41667   -246.1 1.201e+04 8.185e-10
 87.43679   -247.2 1.203e+04 7.902e-10
 87.45259   -248.3 1.204e+04 7.831e-10
 87.46265   -249.3 1.200e+04 7.596e-10
 87.47702   -250.5 1.202e+04 7.521e-10
 87.49714   -251.8 1.203e+04 7.336e-10
 87.51725   -253.2 1.192e+04 7.002e-10
 87.53372   -254.5 1.170e+04 6.530e-10
 87.54378   -255.2 1.151e+04 6.035e-10
 87.55748   -256.3 1.126e+04 5.470e-10
 87.57760   -257.2 1.099e+04 4.774e-10
 87.59772   -257.9 1.069e+04 4.122e-10
 87.61486   -258.2 1.045e+04 3.654e-10
 87.62491   -258.0 1.037e+04 3.422e-10
 87.64811   -257.8 1.035e+04 3.350e-10
 87.68613   -258.3 1.039e+04 3.378e-10
 87.70624   -259.3 1.036e+04 3.344e-10
 87.72867   -260.1 1.044e+04 3.816e-10
 87.76890   -260.7 1.071e+04 4.874e-10
 87.79898   -261.9 1.116e+04 7.123e-10
 87.81387   -262.5 1.153e+04 8.916e-10
 87.82393   -261.2 1.146e+04 7.868e-10
 87.83911   -261.8 1.191e+04 1.027e-09
 87.85825   -262.5 1.237e+04 1.331e-09
 87.86831   -263.3 1.264e+04 1.587e-09
 87.87935   -264.3 1.308e+04 1.979e-09
 87.89946   -265.7 1.366e+04 2.376e-09
 87.91958   -267.8 1.458e+04 2.903e-09
 87.93939   -270.6 1.579e+04 3.689e-09
 87.94944   -272.6 1.613e+04 4.060e-09
 87.95981   -275.7 1.713e+04 5.560e-09
 87.97993   -278.6 1.758e+04 7.262e-09
 88.00005   -281.1 1.750e+04 8.316e-09
 88.02016   -283.0 1.738e+04 8.517e-09
 88.03058   -283.9 1.647e+04 8.140e-09
 88.04063   -284.3 1.638e+04 8.217e-09
 88.06039   -284.5 1.534e+04 6.086e-09
 88.08051   -284.6 1.434e+04 3.994e-09
 88.10063   -285.3 1.351e+04 2.486e-09
 88.11171   -287.5 1.280e+04 1.603e-09
 88.12177   -288.3 1.260e+04 1.421e-09
 88.14086   -290.5 1.201e+04 1.066e-09
 88.16098   -292.2 1.163e+04 9.235e-10
 88.18109   -293.5 1.147e+04 8.786e-10
 88.19284   -294.6 1.139e+04 8.496e-10
 88.20290   -294.6 1.126e+04 8.296e-10
 88.22133   -295.6 1.116e+04 7.839e-10
 88.24144   -296.5 1.098e+04 6.742e-10
 88.26156   -297.3 1.065e+04 5.323e-10
 88.27397   -297.9 1.028e+04 4.153e-10
 88.28403   -297.7 1.021e+04 4.118e-10
 88.30179   -298.2 9.969e+03 3.538e-10
 88.33206   -299.0 9.847e+03 3.246e-10
 88.35530   -300.2 9.737e+03 2.964e-10
 88.37542   -299.7 9.689e+03 2.903e-10
 88.41263   -300.5 9.664e+03 2.763e-10
 88.45286   -301.1 9.671e+03 2.745e-10
 88.49309   -301.8 9.865e+03 2.834e-10
 88.51757   -302.6 1.030e+04 3.718e-10
 88.53768   -302.2 1.021e+04 3.253e-10
 88.57356   -303.0 1.076e+04 5.126e-10
 88.61379   -303.7 1.146e+04 8.503e-10
 88.65402   -304.3 1.230e+04 1.378e-09
 88.67973   -303.7 1.266e+04 1.672e-09
 88.69985   -303.6 1.233e+04 1.529e-09
 88.73449   -303.5 1.274e+04 1.845e-09
 88.76087   -303.1 1.311e+04 2.309e-09
 88.77083   -302.6 1.261e+04 1.749e-09
 88.78458   -302.5 1.277e+04 1.857e-09
 88.80470   -302.4 1.288e+04 1.929e-09
 88.82482   -302.3 1.300e+04 2.020e-09
 88.84190   -302.6 1.328e+04 2.172e-09
 88.85196   -302.0 1.289e+04 1.721e-09
 88.86505   -302.8 1.339e+04 1.949e-09
 88.88517   -303.8 1.398e+04 2.363e-09
 88.90359   -305.0 1.454e+04 2.922e-09
 88.91365   -302.3 1.462e+04 3.050e-09
 88.92303   -303.8 1.529e+04 3.956e-09
 88.93309   -302.8 1.501e+04 3.492e-09
 88.94552   -304.3 1.551e+04 4.208e-09
 88.96563   -306.1 1.565e+04 4.390e-09
 88.98575   -308.2 1.557e+04 4.285e-09
 89.00417   -310.7 1.489e+04 3.277e-09
 89.01422   -309.8 1.492e+04 3.200e-09
 89.02598   -312.7 1.363e+04 2.032e-09
 89.04610   -315.4 1.195e+04 1.185e-09
 89.06621   -317.5 1.054e+04 7.262e-10
 89.08530   -318.4 9.854e+03 4.998e-10
 89.09536   -318.3 9.917e+03 5.087e-10
 89.10645   -318.6 9.707e+03 3.925e-10
 89.12656   -318.6 9.635e+03 3.326e-10
 89.14668   -318.3 9.611e+03 3.105e-10
 89.16653   -317.9 9.638e+03 3.061e-10
 89.18674   -318.5 9.768e+03 3.138e-10
 89.21728   -319.0 9.805e+03 3.107e-10
 89.25752   -319.7 9.836e+03 3.150e-10
 89.29775   -319.9 9.925e+03 3.369e-10
 89.32889   -319.9 9.993e+03 3.662e-10
 89.34901   -320.0 9.991e+03 3.784e-10
 89.37821   -319.6 9.951e+03 3.785e-10
 89.41845   -319.1 9.841e+03 3.676e-10
 89.45868   -318.5 9.698e+03 3.446e-10
 89.49116   -317.7 9.580e+03 3.217e-10
 89.51127   -317.5 9.478e+03 2.955e-10
 89.53915   -316.7 9.326e+03 2.657e-10
 89.57938   -315.6 9.173e+03 2.355e-10
 89.61961   -314.4 9.010e+03 2.055e-10
 89.65342   -312.9 8.853e+03 1.789e-10
 89.67354   -312.8 8.821e+03 1.737e-10
 89.70008   -311.1 8.698e+03 1.544e-10
 89.74031   -309.1 8.628e+03 1.423e-10
 89.78054   -306.9 8.615e+03 1.372e-10
 89.81569   -304.6 8.618e+03 1.360e-10
 89.83580   -304.5 8.659e+03 1.372e-10
 89.86101   -302.2 8.675e+03 1.370e-10
 89.90124   -300.2 8.889e+03 1.521e-10
 89.94147   -298.4 9.418e+03 2.285e-10
 89.97795   -296.7 1.016e+04 3.861e-10
 89.99807   -297.2 1.047e+04 4.833e-10
 90.02194   -296.0 1.134e+04 7.978e-10
 90.06217   -295.2 1.227e+04 1.237e-09
 90.09225   -294.3 1.304e+04 1.716e-09
 90.11227   -294.2 1.351e+04 2.027e-09
 90.13238   -294.2 1.412e+04 2.524e-09
 90.15008   -294.4 1.459e+04 3.046e-09
 90.16014   -294.7 1.380e+04 2.133e-09
 90.17262   -294.9 1.414e+04 2.480e-09
 90.19273   -295.1 1.436e+04 2.829e-09
 90.21285   -295.2 1.453e+04 3.217e-09
 90.23121   -295.2 1.468e+04 3.623e-09
 90.24127   -295.5 1.386e+04 2.369e-09
 90.25308   -295.5 1.404e+04 2.660e-09
 90.27320   -295.2 1.415e+04 2.900e-09
 90.29331   -294.8 1.421e+04 3.071e-09
 90.31234   -294.5 1.424e+04 3.176e-09
 90.32240   -295.0 1.336e+04 2.051e-09
 90.33355   -294.8 1.340e+04 2.140e-09
 90.35366   -294.5 1.342e+04 2.199e-09
 90.37378   -294.3 1.341e+04 2.220e-09
 90.39348   -294.1 1.333e+04 2.227e-09
 90.40354   -294.6 1.269e+04 1.675e-09
 90.41401   -294.3 1.265e+04 1.678e-09
 90.43413   -293.9 1.251e+04 1.637e-09
 90.45425   -293.3 1.236e+04 1.555e-09
 90.47436   -292.7 1.221e+04 1.439e-09
 90.48467   -292.1 1.209e+04 1.312e-09
 90.49473   -292.1 1.181e+04 1.145e-09
 90.51460   -291.3 1.171e+04 1.039e-09
 90.53471   -290.6 1.162e+04 9.360e-10
 90.55483   -289.9 1.154e+04 8.412e-10
 90.56580   -289.1 1.146e+04 7.611e-10
 90.57586   -288.7 1.122e+04 6.610e-10
 90.59506   -287.9 1.115e+04 5.944e-10
 90.61518   -287.0 1.111e+04 5.498e-10
 90.63529   -286.1 1.111e+04 5.316e-10
 90.64693   -285.3 1.112e+04 5.287e-10
 90.65699   -284.6 1.092e+04 4.477e-10
 90.67553   -283.8 1.093e+04 4.471e-10
 90.69564   -283.1 1.105e+04 4.566e-10
 90.71576   -282.4 1.119e+04 5.011e-10
 90.72807   -281.7 1.130e+04 5.628e-10
 90.73812   -281.0 1.113e+04 4.622e-10
 90.75599   -280.3 1.123e+04 5.065e-10
 90.77611   -279.6 1.129e+04 5.476e-10
 90.79622   -278.9 1.130e+04 5.762e-10
 90.80920   -278.2 1.128e+04 5.883e-10
 90.81926   -277.4 1.118e+04 5.008e-10
 90.83646   -276.7 1.116e+04 5.085e-10
 90.85657   -275.9 1.112e+04 5.113e-10
 90.87669   -275.1 1.108e+04 4.986e-10
 90.89033   -274.3 1.110e+04 4.871e-10
 90.90039   -273.6 1.106e+04 4.645e-10
 90.91692   -272.9 1.111e+04 4.705e-10
 90.93704   -272.1 1.116e+04 4.771e-10
 90.95716   -271.4 1.122e+04 4.857e-10
 90.97146   -270.7 1.125e+04 4.902e-10
 90.98152   -270.2 1.131e+04 5.010e-10
 90.99739   -269.6 1.133e+04 5.039e-10
 91.01751   -269.1 1.132e+04 5.009e-10
 91.03762   -268.3 1.125e+04 4.775e-10
 91.05260   -267.6 1.117e+04 4.496e-10
 91.06265   -267.4 1.127e+04 4.856e-10
 91.07785   -266.6 1.117e+04 4.505e-10
 91.09318   -265.9 1.103e+04 4.004e-10
 91.11339   -265.4 1.092e+04 3.791e-10
 91.13392   -263.5 1.066e+04 3.080e-10
 91.15404   -263.3 1.093e+04 3.876e-10
 91.18869   -261.2 1.063e+04 3.032e-10
 91.22892   -259.1 1.037e+04 2.410e-10
 91.26916   -257.0 1.017e+04 2.013e-10
 91.29619   -254.7 1.007e+04 1.813e-10
 91.31630   -254.4 1.009e+04 1.881e-10
 91.34962   -252.0 9.984e+03 1.659e-10
 91.38985   -249.6 9.921e+03 1.534e-10
 91.43009   -247.2 9.854e+03 1.424e-10
 91.45845   -244.7 9.799e+03 1.325e-10
 91.47857   -244.3 9.793e+03 1.317e-10
 91.51055   -241.9 9.749e+03 1.222e-10
 91.55079   -239.4 9.720e+03 1.139e-10
 91.59102   -237.0 9.710e+03 1.075e-10
 91.62072   -234.5 9.723e+03 1.042e-10
 91.64083   -234.5 9.727e+03 1.041e-10
 91.67148   -232.2 9.735e+03 1.034e-10
 91.71172   -230.0 9.785e+03 1.034e-10
 91.75195   -227.9 9.892e+03 1.088e-10
 91.78298   -225.8 9.943e+03 1.186e-10
 91.80310   -226.1 9.894e+03 1.184e-10
 91.83241   -224.1 9.872e+03 1.257e-10
 91.87265   -222.0 9.834e+03 1.279e-10
 91.91288   -220.0 9.799e+03 1.273e-10
 91.94525   -217.9 9.763e+03 1.247e-10
 91.96536   -217.9 9.684e+03 1.144e-10
 91.99335   -215.7 9.646e+03 1.090e-10
 92.03358   -213.5 9.616e+03 1.052e-10
 92.07381   -211.2 9.593e+03 1.030e-10
 92.10751   -208.8 9.583e+03 1.022e-10
 92.12763   -208.7 9.559e+03 9.410e-11
 92.15428   -206.4 9.560e+03 9.397e-11
 92.19451   -204.1 9.574e+03 9.624e-11
 92.23474   -201.9 9.636e+03 1.108e-10
 92.26978   -199.9 9.805e+03 1.496e-10
 92.28989   -199.8 9.851e+03 1.370e-10
 92.31521   -198.0 1.012e+04 2.114e-10
 92.35544   -196.3 1.052e+04 3.414e-10
 92.39567   -194.8 1.099e+04 5.351e-10
 92.43204   -193.7 1.142e+04 7.677e-10
 92.45216   -194.0 1.154e+04 8.586e-10
 92.46598   -193.1 1.198e+04 1.147e-09
 92.48600   -193.1 1.216e+04 1.305e-09
 92.50612   -193.1 1.233e+04 1.472e-09
 92.52304   -193.2 1.237e+04 1.523e-09
 92.53310   -193.1 1.248e+04 1.576e-09
 92.54635   -193.2 1.250e+04 1.605e-09
 92.56647   -193.3 1.248e+04 1.605e-09
 92.58658   -193.4 1.242e+04 1.576e-09
 92.60417   -193.5 1.237e+04 1.532e-09
 92.61423   -193.2 1.247e+04 1.570e-09
 92.62682   -193.3 1.242e+04 1.523e-09
 92.64693   -193.5 1.236e+04 1.479e-09
 92.66705   -193.6 1.230e+04 1.432e-09
 92.68530   -193.7 1.222e+04 1.379e-09
 92.69536   -193.5 1.224e+04 1.381e-09
 92.70728   -193.5 1.215e+04 1.313e-09
 92.72740   -193.5 1.204e+04 1.230e-09
 92.74752   -193.5 1.191e+04 1.129e-09
 92.76644   -193.4 1.175e+04 1.012e-09
 92.77649   -193.3 1.175e+04 1.013e-09
 92.78775   -193.0 1.157e+04 9.134e-10
 92.80786   -192.6 1.144e+04 8.386e-10
 92.83814   -192.0 1.134e+04 7.648e-10
 92.87847   -190.2 1.114e+04 6.205e-10
 92.91870   -188.8 1.099e+04 5.115e-10
 92.95893   -187.1 1.084e+04 4.449e-10
 92.99917   -185.3 1.084e+04 4.183e-10
 93.03940   -183.5 1.085e+04 4.153e-10
 93.07963   -181.5 1.102e+04 4.375e-10
 93.10122   -179.4 1.130e+04 5.348e-10
 93.12134   -179.3 1.125e+04 5.277e-10
 93.16010   -177.3 1.153e+04 6.592e-10
 93.20033   -175.3 1.187e+04 8.529e-10
 93.24056   -173.5 1.216e+04 1.051e-09
 93.26348   -172.1 1.230e+04 1.158e-09
 93.27552   -172.1 1.199e+04 9.042e-10
 93.29273   -172.1 1.297e+04 1.461e-09
 93.31077   -171.6 1.328e+04 1.792e-09
 93.33089   -171.0 1.346e+04 2.071e-09
 93.34442   -170.4 1.352e+04 2.289e-09
 93.35448   -170.5 1.349e+04 2.199e-09
 93.37112   -169.9 1.347e+04 2.314e-09
 93.39124   -169.1 1.344e+04 2.335e-09
 93.41136   -168.2 1.318e+04 2.234e-09
 93.42555   -167.3 1.287e+04 1.953e-09
 93.43561   -167.4 1.282e+04 1.912e-09
 93.45159   -166.4 1.252e+04 1.604e-09
 93.47171   -165.5 1.225e+04 1.332e-09
 93.49182   -164.6 1.200e+04 1.111e-09
 93.50669   -163.7 1.178e+04 9.431e-10
 93.51674   -163.7 1.172e+04 9.219e-10
 93.53206   -162.6 1.157e+04 8.049e-10
 93.55217   -161.6 1.146e+04 7.193e-10
 93.57229   -160.7 1.136e+04 6.573e-10
 93.58792   -159.5 1.121e+04 5.978e-10
 93.60813   -159.6 1.117e+04 5.474e-10
 93.64289   -156.7 1.088e+04 4.797e-10
 93.68312   -153.6 1.065e+04 4.418e-10
 93.72336   -150.2 1.059e+04 4.332e-10
 93.75028   -147.1 1.062e+04 4.455e-10
 93.77040   -147.4 1.055e+04 3.808e-10
 93.80382   -144.3 1.064e+04 4.075e-10
 93.84405   -141.5 1.083e+04 4.731e-10
 93.88429   -138.7 1.101e+04 5.500e-10
 93.91254   -136.1 1.112e+04 6.142e-10
 93.93266   -136.2 1.100e+04 4.734e-10
 93.96475   -133.7 1.110e+04 5.248e-10
 94.00499   -131.2 1.117e+04 5.681e-10
 94.04522   -129.0 1.115e+04 5.884e-10
 94.07481   -126.9 1.120e+04 5.822e-10
 94.09493   -127.3 1.190e+04 7.854e-10
 94.12568   -125.3 1.216e+04 9.464e-10
 94.16592   -123.4 1.239e+04 1.109e-09
 94.20615   -121.6 1.256e+04 1.250e-09
 94.23707   -119.8 1.263e+04 1.328e-09
 94.25719   -120.6 1.325e+04 1.933e-09
 94.28662   -118.7 1.326e+04 1.944e-09
 94.32685   -116.7 1.313e+04 1.825e-09
 94.36708   -114.6 1.291e+04 1.627e-09
 94.39934   -112.4 1.273e+04 1.461e-09
 94.41946   -113.5 1.299e+04 1.641e-09
 94.43739   -111.7 1.290e+04 1.612e-09
 94.45741   -110.2 1.274e+04 1.517e-09
 94.47753   -108.6 1.272e+04 1.494e-09
 94.49033   -107.2 1.277e+04 1.495e-09
 94.50039   -107.9 1.279e+04 1.507e-09
 94.51776   -106.8 1.283e+04 1.508e-09
 94.53788   -105.6 1.283e+04 1.500e-09
 94.55799   -104.2 1.285e+04 1.506e-09
 94.57147   -103.1 1.293e+04 1.534e-09
 94.58153   -103.9 1.286e+04 1.367e-09
 94.59822   -102.8 1.282e+04 1.342e-09
 94.61834   -101.4 1.280e+04 1.328e-09
 94.63846   -100.2 1.287e+04 1.343e-09
 94.65260    -99.1 1.295e+04 1.383e-09
 94.66266    -99.9 1.259e+04 1.073e-09
 94.67869    -98.7 1.261e+04 1.064e-09
 94.69881    -97.5 1.267e+04 1.056e-09
 94.71892    -96.4 1.277e+04 1.045e-09
 94.73373    -95.4 1.288e+04 1.031e-09
 94.74379    -96.5 1.217e+04 6.199e-10
 94.75916    -95.7 1.217e+04 5.853e-10
 94.77927    -95.0 1.223e+04 5.637e-10
 94.79939    -94.5 1.233e+04 5.489e-10
 94.81486    -94.5 1.281e+04 6.045e-10
 94.82492    -96.2 1.227e+04 4.686e-10
 94.83962    -96.5 1.267e+04 6.129e-10
 94.85974    -96.9 1.316e+04 8.783e-10
 94.87985    -97.2 1.378e+04 1.340e-09
 94.89600    -97.2 1.443e+04 2.097e-09
 94.90606    -98.6 1.385e+04 1.767e-09
 94.92009    -98.3 1.439e+04 2.435e-09
 94.94020    -97.9 1.493e+04 3.118e-09
 94.96032    -98.0 1.540e+04 3.681e-09
 94.97713    -98.5 1.584e+04 4.116e-09
 94.98719   -100.5 1.514e+04 2.713e-09
 95.00055   -102.4 1.565e+04 3.217e-09
 95.02067   -104.8 1.628e+04 4.146e-09
 95.04079   -107.1 1.688e+04 5.478e-09
 95.05826   -109.4 1.726e+04 6.702e-09
 95.06832   -110.8 1.648e+04 5.338e-09
 95.07594   -111.9 1.658e+04 6.012e-09
 95.08595   -112.7 1.660e+04 6.068e-09
 95.09601   -113.7 1.643e+04 6.090e-09
 95.10376   -114.3 1.621e+04 5.951e-09
 95.10879   -114.2 1.600e+04 5.482e-09
 95.12120   -115.0 1.579e+04 5.462e-09
 95.13939   -116.1 1.526e+04 4.351e-09
 95.14945   -115.5 1.445e+04 3.235e-09
 95.16148   -116.6 1.380e+04 2.125e-09
 95.18160   -118.0 1.315e+04 1.371e-09
 95.20172   -119.4 1.240e+04 9.293e-10
 95.22053   -120.1 1.166e+04 7.007e-10
 95.23059   -119.0 1.136e+04 5.801e-10
 95.24195   -119.0 1.094e+04 4.883e-10
 95.26207   -118.5 1.074e+04 4.303e-10
 95.28218   -117.5 1.070e+04 3.845e-10
 95.30166   -116.3 1.076e+04 3.526e-10
 95.31172   -115.4 1.084e+04 3.373e-10
 95.32242   -114.7 1.081e+04 3.244e-10
 95.34253   -114.3 1.076e+04 3.197e-10
 95.37280   -113.3 1.070e+04 3.017e-10
 95.41313   -109.6 1.028e+04 2.334e-10
 95.45215   -107.1 1.020e+04 2.221e-10
 95.47226   -105.2 1.016e+04 2.219e-10
 95.49360   -102.5 1.013e+04 2.185e-10
 95.53383    -99.8 1.012e+04 2.212e-10
 95.55531    -97.2 1.027e+04 2.622e-10
 95.57543    -96.7 1.012e+04 2.177e-10
 95.61430    -94.1 1.037e+04 2.947e-10
 95.63635    -92.7 1.044e+04 3.380e-10
 95.64631    -92.1 1.043e+04 3.342e-10
 95.66439    -91.8 1.042e+04 3.398e-10
 95.68451    -90.4 1.044e+04 3.544e-10
 95.70463    -90.0 1.047e+04 3.640e-10
 95.71738    -89.5 1.055e+04 3.872e-10
 95.72744    -89.2 1.047e+04 3.580e-10
 95.74486    -89.2 1.045e+04 3.663e-10
 95.76498    -89.2 1.053e+04 4.158e-10
 95.78509    -89.2 1.063e+04 4.895e-10
 95.79851    -89.1 1.081e+04 5.979e-10
 95.80857    -88.8 1.081e+04 5.772e-10
 95.82533    -88.5 1.100e+04 6.963e-10
 95.84544    -88.1 1.121e+04 8.273e-10
 95.86556    -87.6 1.137e+04 9.350e-10
 95.87965    -86.9 1.143e+04 9.930e-10
 95.88970    -86.7 1.136e+04 9.145e-10
 95.90579    -86.0 1.135e+04 9.199e-10
 95.92591    -85.1 1.120e+04 8.773e-10
 95.94602    -84.0 1.098e+04 7.552e-10
 95.96078    -83.0 1.073e+04 5.994e-10
 95.97084    -82.8 1.066e+04 5.626e-10
 95.98626    -81.8 1.047e+04 4.516e-10
 96.01653    -80.7 1.036e+04 3.768e-10
 96.04211    -79.0 1.009e+04 2.771e-10
 96.06222    -78.3 1.016e+04 2.933e-10
 96.09709    -75.8 9.760e+03 2.035e-10
 96.13732    -73.4 9.452e+03 1.516e-10
 96.17756    -71.2 9.310e+03 1.332e-10
 96.20437    -69.0 9.284e+03 1.312e-10
 96.22449    -68.8 9.591e+03 1.607e-10
 96.25802    -67.0 9.640e+03 1.887e-10
 96.29826    -65.2 9.723e+03 2.472e-10
 96.33849    -62.9 9.851e+03 3.070e-10
 96.36664    -60.8 9.876e+03 3.340e-10
 96.38675    -61.1 1.004e+04 3.658e-10
 96.41895    -59.1 9.924e+03 3.503e-10
 96.45919    -57.2 9.799e+03 3.311e-10
 96.49942    -55.3 9.742e+03 3.236e-10
 96.52890    -53.4 9.710e+03 3.298e-10
 96.54902    -53.9 9.750e+03 3.359e-10
 96.57989    -51.8 9.720e+03 3.533e-10
 96.62012    -49.6 9.660e+03 3.633e-10
 96.66035    -47.2 9.590e+03 3.522e-10
 96.69117    -44.6 9.448e+03 3.118e-10
 96.71128    -44.5 9.237e+03 2.513e-10
 96.74082    -42.2 9.154e+03 2.251e-10
 96.78105    -40.0 9.173e+03 2.209e-10
 96.82128    -37.9 9.301e+03 2.680e-10
 96.85343    -35.4 9.605e+03 3.525e-10
 96.87355    -34.8 9.566e+03 3.406e-10
 96.90175    -32.9 9.873e+03 4.244e-10
 96.93182    -31.8 1.017e+04 5.385e-10
 96.94443    -31.0 1.048e+04 6.471e-10
 96.95448    -30.9 1.048e+04 6.449e-10
 96.97196    -30.1 1.067e+04 7.811e-10
 96.99208    -29.1 1.084e+04 8.979e-10
 97.01219    -28.0 1.093e+04 9.640e-10
 97.02556    -26.9 1.087e+04 9.608e-10
 97.03562    -26.7 1.093e+04 9.842e-10
 97.06258    -25.6 1.092e+04 8.322e-10
 97.10291    -23.9 1.059e+04 6.575e-10
 97.14314    -22.8 1.020e+04 5.307e-10
 97.17796    -21.6 9.820e+03 4.480e-10
 97.19808    -21.8 9.917e+03 4.925e-10
 97.22361    -20.1 9.518e+03 4.065e-10
 97.26384    -18.1 9.104e+03 3.118e-10
 97.30408    -16.1 8.703e+03 2.309e-10
 97.34023    -14.1 8.402e+03 1.781e-10
 97.36034    -14.3 8.414e+03 1.737e-10
 97.38454    -12.4 8.209e+03 1.426e-10
 97.42477    -10.3 8.042e+03 1.321e-10
 97.46501     -8.1 8.054e+03 1.340e-10
 97.50249     -6.3 8.114e+03 1.423e-10
 97.52261     -6.7 8.160e+03 1.439e-10
 97.54547     -5.0 8.451e+03 1.829e-10
 97.58571     -3.3 8.960e+03 2.679e-10
 97.62594     -1.9 9.539e+03 3.915e-10
 97.65160     -0.9 9.623e+03 4.190e-10
 97.67030     -0.1 9.536e+03 3.821e-10
 97.68487     -0.8 9.610e+03 3.945e-10
 97.69625     -1.1 1.002e+04 5.260e-10
 97.71627     -1.5 1.030e+04 6.491e-10
 97.73638     -1.5 1.053e+04 7.514e-10
 97.75575     -1.5 1.066e+04 7.899e-10
 97.76581     -1.5 1.057e+04 7.396e-10
 97.77662     -1.5 1.055e+04 7.221e-10
 97.79673     -1.7 1.049e+04 6.740e-10
 97.81685     -2.1 1.041e+04 6.174e-10
 97.83688     -2.6 1.029e+04 5.640e-10
 97.85700     -3.0 1.003e+04 4.993e-10
 97.87720     -3.2 9.911e+03 4.718e-10
 97.89731     -3.4 9.825e+03 4.405e-10
 97.91743     -3.9 9.862e+03 4.118e-10
 97.92807     -5.6 1.064e+04 4.653e-10
 97.93813     -4.4 1.003e+04 4.215e-10
 97.95766    -10.6 1.364e+04 7.961e-10
 97.97778    -19.9 1.733e+04 3.124e-09
 97.99790    -22.4 1.751e+04 9.363e-09
 98.00921    -21.7 1.789e+04 1.512e-08
 98.01927    -20.6 1.738e+04 1.136e-08
 98.03813    -20.7 1.753e+04 1.241e-08
 98.05825    -21.1 1.761e+04 8.792e-09
 98.07836    -23.3 1.666e+04 4.954e-09
 98.09034    -26.8 1.458e+04 2.314e-09
 98.10040    -24.5 1.485e+04 3.093e-09
 98.11859    -27.0 1.337e+04 1.713e-09
 98.13871    -28.2 1.249e+04 1.100e-09
 98.15883    -28.7 1.209e+04 8.211e-10
 98.17147    -28.7 1.173e+04 6.677e-10
 98.18153    -27.0 1.205e+04 8.473e-10
 98.19906    -27.1 1.183e+04 7.243e-10
 98.21918    -26.9 1.163e+04 6.694e-10
 98.23929    -26.6 1.155e+04 6.757e-10
 98.25260    -26.1 1.152e+04 7.591e-10
 98.26266    -25.1 1.189e+04 7.736e-10
 98.27953    -24.8 1.192e+04 8.388e-10
 98.29964    -23.8 1.171e+04 9.609e-10
 98.31976    -23.3 1.215e+04 1.073e-09
 98.33374    -24.2 1.369e+04 1.418e-09
 98.34380    -27.4 1.516e+04 2.049e-09
 98.35999    -30.0 1.595e+04 3.573e-09
 98.38011    -31.4 1.642e+04 5.750e-09
 98.40022    -32.0 1.659e+04 8.166e-09
 98.41487    -32.3 1.696e+04 9.671e-09
 98.42493    -32.5 1.691e+04 7.667e-09
 98.44046    -34.2 1.698e+04 6.117e-09
 98.46057    -37.1 1.714e+04 4.309e-09
 98.48069    -42.1 1.585e+04 2.782e-09
 98.49600    -47.4 1.441e+04 2.172e-09
 98.50606    -46.8 1.312e+04 1.514e-09
 98.52092    -49.0 1.308e+04 1.429e-09
 98.54104    -51.8 1.362e+04 1.692e-09
 98.56116    -54.5 1.379e+04 2.261e-09
 98.57713    -55.6 1.376e+04 2.926e-09
 98.58719    -55.3 1.363e+04 2.631e-09
 98.60139    -55.2 1.396e+04 3.537e-09
 98.62150    -54.3 1.412e+04 3.917e-09
 98.64162    -53.6 1.418e+04 3.541e-09
 98.65827    -54.0 1.415e+04 2.213e-09
 98.66833    -52.2 1.449e+04 3.206e-09
 98.68185    -54.0 1.408e+04 1.718e-09
 98.70197    -58.0 1.260e+04 9.814e-10
 98.72209    -60.6 1.168e+04 8.504e-10
 98.73940    -61.1 1.150e+04 9.052e-10
 98.74847    -59.3 1.165e+04 8.947e-10
 98.75128    -59.1 1.182e+04 9.858e-10
 98.76232    -59.1 1.169e+04 1.053e-09
 98.78244    -58.7 1.166e+04 1.140e-09
 98.80255    -58.0 1.163e+04 1.150e-09
 98.82053    -57.2 1.144e+04 1.085e-09
 98.83059    -55.9 1.167e+04 1.138e-09
 98.84279    -55.2 1.151e+04 1.048e-09
 98.86290    -54.7 1.138e+04 9.020e-10
 98.88302    -54.3 1.121e+04 7.380e-10
 98.90166    -53.9 1.112e+04 6.363e-10
 98.91172    -52.5 1.143e+04 8.815e-10
 98.92325    -51.9 1.130e+04 7.450e-10
 98.94337    -51.2 1.125e+04 6.659e-10
 98.96348    -50.4 1.125e+04 6.560e-10
 98.98280    -49.7 1.125e+04 6.869e-10
 98.99286    -48.3 1.156e+04 7.677e-10
 99.00372    -47.6 1.145e+04 7.543e-10
 99.02383    -46.7 1.149e+04 8.176e-10
 99.04395    -45.8 1.163e+04 9.420e-10
 99.06393    -44.6 1.182e+04 1.124e-09
 99.07399    -44.1 1.199e+04 1.174e-09
 99.08418    -42.9 1.217e+04 1.399e-09
 99.10430    -41.5 1.252e+04 1.746e-09
 99.12441    -40.1 1.300e+04 2.184e-09
 99.14453    -38.7 1.358e+04 2.736e-09
 99.15512    -37.7 1.425e+04 3.346e-09
 99.16518    -36.9 1.392e+04 3.190e-09
 99.18476    -36.0 1.447e+04 3.763e-09
 99.20488    -35.3 1.491e+04 4.429e-09
 99.22500    -34.5 1.515e+04 5.112e-09
 99.23625    -33.6 1.509e+04 5.433e-09
 99.24631    -32.6 1.460e+04 4.004e-09
 99.26523    -31.6 1.449e+04 4.176e-09
 99.28535    -30.2 1.421e+04 4.191e-09
 99.30546    -28.5 1.386e+04 3.673e-09
 99.31739    -26.9 1.360e+04 2.935e-09
 99.32744    -26.6 1.317e+04 2.590e-09
 99.34570    -25.2 1.289e+04 2.102e-09
 99.36581    -24.2 1.241e+04 1.536e-09
 99.38593    -23.2 1.195e+04 1.135e-09
 99.39852    -22.6 1.169e+04 8.543e-10
 99.40858    -21.4 1.161e+04 8.917e-10
 99.42616    -20.7 1.134e+04 7.351e-10
 99.44628    -20.0 1.112e+04 6.270e-10
 99.46639    -19.1 1.084e+04 6.002e-10
 99.47965    -18.1 1.073e+04 6.036e-10
 99.48971    -16.8 1.084e+04 5.973e-10
 99.50663    -15.5 1.056e+04 6.312e-10
 99.52674    -14.3 1.057e+04 6.633e-10
 99.54686    -12.9 1.080e+04 6.664e-10
 99.56078    -11.8 1.070e+04 7.360e-10
 99.57084    -10.8 1.079e+04 7.211e-10
 99.58709     -9.7 1.091e+04 7.953e-10
 99.60721     -8.7 1.096e+04 8.795e-10
 99.62732     -7.7 1.107e+04 9.762e-10
 99.64192     -6.5 1.120e+04 1.082e-09
 99.65197     -5.9 1.126e+04 1.095e-09
 99.66756     -4.8 1.135e+04 1.172e-09
 99.68767     -3.6 1.146e+04 1.281e-09
 99.70779     -2.3 1.163e+04 1.382e-09
 99.72305     -1.3 1.181e+04 1.463e-09
 99.73311     -1.2 1.219e+04 1.570e-09
 99.74802     -0.6 1.265e+04 1.796e-09
 99.76814     -0.4 1.340e+04 2.260e-09
 99.78826     -0.4 1.414e+04 2.979e-09
 99.80418     -0.2 1.489e+04 4.095e-09
 99.81424     -0.5 1.501e+04 4.241e-09
 99.82849      0.2 1.566e+04 5.778e-09
 99.84099      1.3 1.614e+04 7.347e-09
 99.85105      1.9 1.568e+04 6.153e-09
 99.86872      3.1 1.576e+04 6.881e-09
 99.88531      4.3 1.583e+04 6.589e-09
 99.89537      4.6 1.477e+04 4.545e-09
 99.90895      5.6 1.437e+04 3.637e-09
 99.92907      5.8 1.414e+04 2.802e-09
 99.94919      5.6 1.430e+04 2.333e-09
 99.96645      5.8 1.412e+04 2.017e-09
 99.97650      5.2 1.156e+04 8.831e-10
 99.98942      5.4 1.120e+04 7.119e-10
100.00954      5.9 1.082e+04 5.992e-10
