# Columns:
#   distance along LOS (in CHIMPs)
#   peculiar velocity  (in km/s)
#   temperature (K)
#   HI number density
# pos=(72.5631,112.204,126.958), angles=(2.99348,3.77367)
  0.00669   -112.1 1.363e+04 3.243e-09
  0.02325   -111.7 1.343e+04 2.891e-09
  0.04300   -111.3 1.332e+04 2.615e-09
  0.06274   -110.9 1.326e+04 2.364e-09
  0.07782   -110.5 1.316e+04 2.103e-09
  0.08769   -110.6 1.244e+04 1.767e-09
  0.10224   -110.3 1.226e+04 1.516e-09
  0.12199   -110.1 1.205e+04 1.290e-09
  0.13679   -109.9 1.185e+04 1.096e-09
  0.14667   -110.6 1.167e+04 1.082e-09
  0.16148   -110.3 1.151e+04 8.998e-10
  0.18123   -109.9 1.140e+04 7.566e-10
  0.20097   -109.6 1.136e+04 6.504e-10
  0.22072   -109.3 1.136e+04 5.710e-10
  0.23882   -109.0 1.136e+04 5.093e-10
  0.24870   -108.9 1.105e+04 4.182e-10
  0.26022   -108.8 1.111e+04 3.667e-10
  0.27996   -108.7 1.116e+04 3.326e-10
  0.29971   -108.8 1.117e+04 3.125e-10
  0.31946   -109.0 1.110e+04 3.033e-10
  0.33921   -109.1 1.107e+04 3.026e-10
  0.35741   -109.2 1.088e+04 3.179e-10
  0.37725   -110.8 1.069e+04 3.490e-10
  0.39855   -110.0 1.081e+04 3.925e-10
  0.40971   -109.8 1.092e+04 4.420e-10
  0.41968   -111.0 1.086e+04 3.461e-10
  0.44801   -110.7 1.100e+04 4.048e-10
  0.48751   -110.3 1.101e+04 4.199e-10
  0.51703   -108.9 1.103e+04 4.498e-10
  0.53668   -108.9 1.092e+04 4.110e-10
  0.56640   -109.2 1.057e+04 3.267e-10
  0.60599   -108.4 1.040e+04 2.809e-10
  0.64549   -107.4 1.021e+04 2.418e-10
  0.68498   -106.3 1.004e+04 2.202e-10
  0.72205   -105.0 9.896e+03 2.127e-10
  0.74179   -104.9 9.744e+03 1.661e-10
  0.76397   -103.7 9.928e+03 2.003e-10
  0.79883   -102.4 1.016e+04 2.742e-10
  0.81858   -104.3 1.046e+04 3.174e-10
  0.84296   -102.4 1.070e+04 4.415e-10
  0.88246   -100.4 1.089e+04 5.715e-10
  0.92195    -98.2 1.103e+04 6.816e-10
  0.96145    -96.1 1.111e+04 7.468e-10
  1.00094    -94.1 1.113e+04 7.612e-10
  1.04044    -92.1 1.110e+04 7.341e-10
  1.06371    -90.9 1.084e+04 6.012e-10
  1.08346    -90.6 1.084e+04 5.907e-10
  1.10946    -89.3 1.060e+04 5.067e-10
  1.12911    -88.3 1.048e+04 4.763e-10
  1.15883    -86.8 1.035e+04 4.312e-10
  1.19842    -85.2 1.012e+04 3.752e-10
  1.23791    -82.5 9.788e+03 3.154e-10
  1.25981    -80.4 9.686e+03 2.936e-10
  1.27955    -81.2 9.497e+03 3.034e-10
  1.31690    -78.7 9.390e+03 2.922e-10
  1.35640    -76.2 9.330e+03 2.895e-10
  1.38583    -73.5 9.312e+03 2.898e-10
  1.40558    -73.3 9.083e+03 1.669e-10
  1.43539    -71.0 9.109e+03 1.680e-10
  1.47488    -69.2 9.347e+03 2.135e-10
  1.51438    -67.5 9.808e+03 3.456e-10
  1.55387    -65.5 1.031e+04 5.503e-10
  1.59337    -63.5 1.074e+04 7.658e-10
  1.63286    -62.0 1.094e+04 8.620e-10
  1.67236    -61.0 1.094e+04 8.543e-10
  1.70103    -59.8 1.062e+04 6.500e-10
  1.71678    -60.4 1.125e+04 9.170e-10
  1.72759    -61.3 1.173e+04 1.164e-09
  1.75135    -60.6 1.110e+04 7.856e-10
  1.79084    -60.1 1.084e+04 6.401e-10
  1.83034    -59.3 1.085e+04 6.243e-10
  1.86983    -59.0 1.130e+04 7.876e-10
  1.90933    -58.8 1.196e+04 1.314e-09
  1.93142    -57.9 1.204e+04 1.612e-09
  1.94120    -58.5 1.236e+04 2.094e-09
  1.95850    -58.0 1.253e+04 2.497e-09
  1.97825    -57.2 1.262e+04 2.796e-09
  1.99799    -56.3 1.263e+04 2.832e-09
  2.01774    -55.1 1.249e+04 2.581e-09
  2.03749    -53.9 1.221e+04 1.994e-09
  2.04942    -53.2 1.198e+04 1.402e-09
  2.05929    -52.7 1.207e+04 1.492e-09
  2.07698    -52.6 1.187e+04 1.008e-09
  2.09673    -52.6 1.159e+04 7.038e-10
  2.11648    -52.7 1.119e+04 5.302e-10
  2.13623    -52.4 1.078e+04 4.370e-10
  2.15194    -51.8 1.053e+04 3.970e-10
  2.16181    -53.2 1.088e+04 3.838e-10
  2.17572    -52.8 1.091e+04 3.800e-10
  2.19547    -52.3 1.099e+04 4.090e-10
  2.21043    -51.7 1.102e+04 4.815e-10
  2.22030    -50.9 1.114e+04 4.369e-10
  2.23496    -50.2 1.113e+04 5.104e-10
  2.25471    -49.3 1.110e+04 5.875e-10
  2.27446    -48.3 1.112e+04 6.537e-10
  2.29421    -47.4 1.116e+04 7.100e-10
  2.31395    -46.7 1.126e+04 7.653e-10
  2.34367    -45.4 1.157e+04 8.511e-10
  2.37163    -43.0 1.144e+04 7.735e-10
  2.38076    -42.6 1.124e+04 7.768e-10
  2.38243    -42.7 1.183e+04 1.126e-09
  2.39294    -41.7 1.169e+04 1.042e-09
  2.41269    -40.9 1.155e+04 9.467e-10
  2.43244    -40.3 1.153e+04 8.940e-10
  2.45219    -39.7 1.162e+04 8.692e-10
  2.47193    -39.1 1.196e+04 8.948e-10
  2.49168    -38.6 1.243e+04 9.555e-10
  2.51143    -38.0 1.292e+04 1.049e-09
  2.53118    -37.2 1.344e+04 1.165e-09
  2.54232    -36.3 1.391e+04 1.284e-09
  2.55219    -37.3 1.580e+04 2.378e-09
  2.57067    -36.4 1.614e+04 2.546e-09
  2.59042    -35.6 1.665e+04 2.749e-09
  2.60304    -34.8 1.712e+04 3.012e-09
  2.61291    -36.4 1.759e+04 9.859e-09
  2.62991    -35.6 1.780e+04 1.105e-08
  2.64966    -35.0 1.802e+04 1.216e-08
  2.66941    -34.2 1.804e+04 1.238e-08
  2.68916    -32.7 1.765e+04 9.454e-09
  2.70333    -31.9 1.667e+04 6.402e-09
  2.71320    -32.5 1.722e+04 1.437e-08
  2.72865    -31.4 1.653e+04 1.108e-08
  2.74840    -29.6 1.605e+04 8.402e-09
  2.76815    -27.8 1.588e+04 6.800e-09
  2.78789    -26.2 1.569e+04 5.516e-09
  2.80764    -24.7 1.540e+04 4.461e-09
  2.82366    -23.3 1.517e+04 3.679e-09
  2.83353    -23.9 1.470e+04 3.248e-09
  2.84714    -22.6 1.430e+04 2.579e-09
  2.86433    -21.0 1.418e+04 2.149e-09
  2.87421    -21.1 1.438e+04 4.857e-09
  2.88663    -19.6 1.408e+04 4.250e-09
  2.90638    -18.0 1.378e+04 3.582e-09
  2.92613    -16.0 1.343e+04 2.972e-09
  2.94587    -14.0 1.322e+04 2.295e-09
  2.96562    -12.5 1.308e+04 1.621e-09
  2.98537    -11.6 1.281e+04 1.420e-09
  3.00512     -9.8 1.273e+04 1.277e-09
  3.02486     -8.8 1.248e+04 1.191e-09
  3.03522     -7.7 1.180e+04 1.144e-09
  3.04475     -7.5 1.460e+04 3.278e-09
  3.05414     -8.1 1.332e+04 1.990e-09
  3.06436     -8.4 1.402e+04 2.329e-09
  3.08411    -10.7 1.588e+04 3.667e-09
  3.10385    -13.4 1.715e+04 6.163e-09
  3.12360    -15.0 1.740e+04 1.054e-08
  3.14335    -14.8 1.797e+04 1.786e-08
  3.16310    -13.9 1.815e+04 2.528e-08
  3.17786    -12.4 1.800e+04 3.255e-08
  3.18768    -10.7 1.829e+04 3.392e-08
  3.19618     -9.8 1.866e+04 2.509e-08
  3.20610     -9.0 1.922e+04 1.182e-08
  3.22234     -8.2 1.841e+04 5.250e-09
  3.24209    -10.9 1.563e+04 1.732e-09
  3.26183    -15.0 1.111e+04 6.158e-10
  3.27476    -15.5 9.434e+03 3.778e-10
  3.28463    -15.5 9.500e+03 4.163e-10
  3.30133    -14.7 8.961e+03 3.232e-10
  3.32108    -13.8 8.628e+03 2.556e-10
  3.34082    -13.3 8.451e+03 2.283e-10
  3.35733    -11.5 8.294e+03 2.053e-10
  3.37718    -11.6 8.001e+03 1.588e-10
  3.41013     -9.0 7.740e+03 1.419e-10
  3.44963     -6.4 7.683e+03 1.255e-10
  3.48569     -4.4 7.623e+03 1.031e-10
  3.50544     -5.3 7.696e+03 1.049e-10
  3.52862     -4.1 7.758e+03 1.061e-10
  3.56811     -2.8 7.893e+03 1.393e-10
  3.60761     -0.7 8.029e+03 1.801e-10
  3.64710      1.7 8.137e+03 2.031e-10
  3.67945      4.0 8.220e+03 2.103e-10
  3.69920      3.4 8.347e+03 2.242e-10
  3.72609      5.2 8.331e+03 2.083e-10
  3.76559      6.8 8.361e+03 1.957e-10
  3.80508      8.4 8.399e+03 1.904e-10
  3.84458     10.1 8.427e+03 1.919e-10
  3.88407     11.7 8.574e+03 2.091e-10
  3.92357     13.4 8.816e+03 2.452e-10
  3.94667     14.4 9.064e+03 2.855e-10
  3.95644     12.9 9.024e+03 2.691e-10
  3.97274     13.2 9.131e+03 2.881e-10
  3.99249     12.9 9.643e+03 4.014e-10
  4.01114     13.1 9.882e+03 5.250e-10
  4.02102     12.8 9.662e+03 4.505e-10
  4.04196     12.9 1.063e+04 8.445e-10
  4.08155     14.0 1.139e+04 1.318e-09
  4.12104     14.9 1.140e+04 1.265e-09
  4.15057     15.6 1.120e+04 1.122e-09
  4.16709     16.1 1.101e+04 9.350e-10
  4.17696     16.1 1.117e+04 1.034e-09
  4.18203     16.0 1.099e+04 8.598e-10
  4.19190     15.1 1.109e+04 9.450e-10
  4.20971     15.0 1.094e+04 8.286e-10
  4.22946     15.0 1.078e+04 7.554e-10
  4.24921     15.1 1.064e+04 7.148e-10
  4.26895     15.5 1.065e+04 7.166e-10
  4.28870     15.4 1.082e+04 7.538e-10
  4.30845     14.7 1.158e+04 9.242e-10
  4.32820     12.8 1.291e+04 1.415e-09
  4.34304     11.1 1.384e+04 2.352e-09
  4.35291     10.4 1.373e+04 2.520e-09
  4.36769      9.9 1.423e+04 3.755e-09
  4.38744      9.8 1.465e+04 5.118e-09
  4.39757      9.5 1.528e+04 6.427e-09
  4.40745      9.6 1.568e+04 7.057e-09
  4.42693      7.7 1.656e+04 8.493e-09
  4.44668      3.0 1.866e+04 1.126e-08
  4.46144     -2.5 2.116e+04 1.826e-08
  4.47127     -6.4 2.292e+04 2.599e-08
  4.48114     -8.5 2.286e+04 3.496e-08
  4.49102     -9.7 2.170e+04 3.432e-08
  4.50089    -10.2 2.028e+04 2.773e-08
  4.50778    -10.3 1.860e+04 1.820e-08
  4.51084    -10.5 1.840e+04 1.695e-08
  4.51382    -10.1 1.862e+04 1.873e-08
  4.52064    -10.5 1.722e+04 1.158e-08
  4.53051    -11.3 1.662e+04 6.813e-09
  4.54537    -13.4 1.655e+04 3.202e-09
  4.56517    -20.5 1.272e+04 7.718e-10
  4.58491    -24.5 9.754e+03 3.785e-10
  4.60466    -23.6 9.441e+03 3.019e-10
  4.63438    -22.8 9.373e+03 2.720e-10
  4.66525    -21.2 9.148e+03 2.383e-10
  4.68500    -19.7 8.677e+03 1.599e-10
  4.71347    -17.9 8.660e+03 1.478e-10
  4.75296    -15.9 8.729e+03 1.468e-10
  4.79246    -13.9 8.702e+03 1.413e-10
  4.82912    -11.9 8.619e+03 1.325e-10
  4.84887    -11.2 8.868e+03 1.814e-10
  4.87145     -9.4 8.651e+03 1.486e-10
  4.91094     -7.6 8.535e+03 1.304e-10
  4.95044     -5.8 8.559e+03 1.297e-10
  4.98727     -4.0 8.622e+03 1.384e-10
  5.00701     -2.7 8.486e+03 1.092e-10
  5.02943     -0.8 8.606e+03 1.365e-10
  5.06892      1.1 8.781e+03 1.768e-10
  5.10842      3.0 9.054e+03 2.251e-10
  5.14791      4.6 9.413e+03 2.935e-10
  5.18741      5.7 9.776e+03 3.870e-10
  5.21693      6.9 9.850e+03 4.438e-10
  5.23658      7.1 9.944e+03 4.675e-10
  5.26630      8.0 1.018e+04 5.645e-10
  5.29010      9.4 1.019e+04 5.635e-10
  5.30984      9.6 9.882e+03 4.318e-10
  5.32903     11.0 9.898e+03 4.310e-10
  5.34878     11.9 9.926e+03 4.389e-10
  5.38488     13.6 9.896e+03 4.194e-10
  5.42438     15.3 9.857e+03 3.817e-10
  5.46387     16.9 9.842e+03 3.495e-10
  5.50337     18.7 9.878e+03 3.416e-10
  5.54286     20.7 9.926e+03 3.426e-10
  5.58236     22.8 9.979e+03 3.389e-10
  5.62185     25.0 1.003e+04 3.195e-10
  5.65105     27.1 1.004e+04 2.932e-10
  5.67080     28.4 1.003e+04 3.178e-10
  5.70084     30.6 1.003e+04 3.010e-10
  5.73132     32.7 9.990e+03 2.902e-10
  5.75107     32.9 1.017e+04 3.815e-10
  5.77983     35.1 1.013e+04 4.067e-10
  5.81933     37.5 1.009e+04 4.218e-10
  5.85882     39.9 1.005e+04 4.090e-10
  5.89832     42.0 9.975e+03 3.733e-10
  5.93781     43.9 9.835e+03 3.456e-10
  5.97307     45.6 9.698e+03 3.285e-10
  5.99281     47.4 1.019e+04 4.886e-10
  6.01680     48.8 9.919e+03 4.195e-10
  6.05630     50.0 9.576e+03 3.477e-10
  6.09579     51.1 9.254e+03 2.794e-10
  6.13529     52.1 8.999e+03 2.213e-10
  6.17255     53.0 8.836e+03 1.876e-10
  6.19230     53.1 9.230e+03 2.357e-10
  6.21428     54.0 9.108e+03 2.199e-10
  6.25377     55.0 9.136e+03 2.261e-10
  6.29327     56.0 9.232e+03 2.486e-10
  6.31483     57.0 9.396e+03 2.815e-10
  6.33458     57.9 9.149e+03 2.145e-10
  6.37226     58.5 9.490e+03 2.874e-10
  6.41175     58.8 9.815e+03 3.655e-10
  6.45125     58.9 1.008e+04 4.310e-10
  6.49074     58.6 1.038e+04 4.901e-10
  6.53024     58.1 1.066e+04 5.429e-10
  6.56973     57.9 1.075e+04 5.719e-10
  6.60923     58.1 1.073e+04 5.714e-10
  6.63353     58.7 1.063e+04 5.546e-10
  6.64140     59.1 1.117e+04 9.496e-10
  6.65660     59.9 1.137e+04 1.102e-09
  6.68821     61.0 1.139e+04 9.994e-10
  6.71774     61.5 1.133e+04 9.583e-10
  6.73739     61.9 1.135e+04 9.326e-10
  6.75714     62.3 1.137e+04 9.300e-10
  6.77688     62.9 1.140e+04 9.311e-10
  6.79663     63.5 1.140e+04 9.304e-10
  6.80754     64.2 1.137e+04 9.240e-10
  6.81741     64.6 1.153e+04 1.016e-09
  6.83613     65.4 1.150e+04 9.977e-10
  6.85395     66.3 1.148e+04 9.876e-10
  6.86382     66.6 1.154e+04 1.017e-09
  6.87562     67.5 1.157e+04 1.051e-09
  6.89537     68.4 1.155e+04 1.073e-09
  6.91512     69.5 1.149e+04 1.061e-09
  6.93486     70.7 1.149e+04 1.020e-09
  6.95461     71.8 1.159e+04 9.665e-10
  6.96854     72.8 1.180e+04 9.016e-10
  6.97842     73.4 1.214e+04 1.316e-09
  6.99411     74.2 1.262e+04 1.328e-09
  7.01385     74.4 1.329e+04 1.401e-09
  7.03360     74.1 1.429e+04 1.581e-09
  7.05335     73.0 1.537e+04 1.969e-09
  7.07310     71.7 1.594e+04 2.606e-09
  7.08443     71.5 1.592e+04 3.524e-09
  7.09431     71.7 1.714e+04 6.248e-09
  7.11259     72.0 1.693e+04 6.401e-09
  7.12955     72.5 1.640e+04 6.154e-09
  7.13943     72.7 1.773e+04 1.020e-08
  7.15209     73.1 1.674e+04 7.720e-09
  7.17183     73.7 1.580e+04 5.382e-09
  7.19158     73.9 1.493e+04 3.497e-09
  7.21133     73.6 1.409e+04 2.184e-09
  7.23108     72.6 1.319e+04 1.444e-09
  7.25082     71.4 1.230e+04 1.107e-09
  7.27057     70.7 1.167e+04 1.069e-09
  7.29032     70.4 1.162e+04 1.116e-09
  7.30044     70.5 1.172e+04 1.288e-09
  7.30529     72.6 1.339e+04 1.750e-09
  7.31492     74.0 1.357e+04 1.823e-09
  7.32981     74.0 1.312e+04 1.842e-09
  7.34956     73.9 1.285e+04 1.922e-09
  7.36931     73.9 1.251e+04 2.019e-09
  7.38905     73.9 1.232e+04 2.017e-09
  7.40880     73.7 1.210e+04 1.935e-09
  7.42855     73.5 1.178e+04 1.723e-09
  7.44830     73.4 1.141e+04 1.409e-09
  7.46145     73.1 1.101e+04 1.111e-09
  7.47132     71.7 1.217e+04 1.315e-09
  7.48779     71.2 1.138e+04 1.062e-09
  7.50754     71.0 1.114e+04 9.433e-10
  7.52566     71.1 1.102e+04 9.084e-10
  7.53553     70.8 1.171e+04 1.241e-09
  7.54703     71.3 1.153e+04 1.195e-09
  7.56678     72.3 1.138e+04 1.160e-09
  7.58653     73.4 1.132e+04 1.162e-09
  7.60628     74.5 1.131e+04 1.174e-09
  7.62245     75.7 1.131e+04 1.207e-09
  7.63233     76.2 1.194e+04 1.571e-09
  7.64577     77.4 1.185e+04 1.574e-09
  7.66552     78.7 1.187e+04 1.620e-09
  7.68527     79.8 1.195e+04 1.735e-09
  7.70501     81.0 1.207e+04 1.893e-09
  7.72476     82.4 1.223e+04 2.066e-09
  7.74451     83.9 1.248e+04 2.259e-09
  7.75615     85.4 1.273e+04 2.443e-09
  7.76602     85.4 1.239e+04 2.246e-09
  7.78346     86.8 1.244e+04 2.220e-09
  7.79334     87.3 1.235e+04 2.325e-09
  7.80375     88.7 1.248e+04 2.358e-09
  7.82350     90.2 1.258e+04 2.340e-09
  7.84325     91.5 1.263e+04 2.290e-09
  7.86299     92.7 1.266e+04 2.185e-09
  7.88274     93.9 1.262e+04 2.053e-09
  7.90249     95.1 1.254e+04 1.921e-09
  7.92224     96.1 1.243e+04 1.799e-09
  7.94198     97.3 1.227e+04 1.665e-09
  7.95435     98.4 1.204e+04 1.510e-09
  7.96422     99.0 1.297e+04 2.076e-09
  7.97676    100.1 1.281e+04 1.879e-09
  7.98664    100.1 1.234e+04 1.611e-09
  8.00123    101.3 1.222e+04 1.478e-09
  8.02097    102.4 1.201e+04 1.309e-09
  8.04072    103.4 1.167e+04 1.116e-09
  8.06047    104.3 1.126e+04 9.361e-10
  8.08022    105.1 1.089e+04 8.012e-10
  8.09996    105.8 1.062e+04 7.144e-10
  8.11535    106.5 1.042e+04 6.719e-10
  8.12523    107.4 1.145e+04 8.801e-10
  8.13946    108.1 1.105e+04 7.953e-10
  8.15921    108.7 1.082e+04 7.602e-10
  8.17895    109.5 1.071e+04 7.493e-10
  8.19738    110.2 1.067e+04 7.554e-10
  8.20725    110.4 1.094e+04 8.279e-10
  8.21845    111.1 1.099e+04 8.752e-10
  8.23820    111.8 1.107e+04 9.286e-10
  8.25794    112.5 1.114e+04 9.697e-10
  8.27636    113.3 1.119e+04 9.937e-10
  8.28624    113.4 1.230e+04 1.407e-09
  8.29744    114.2 1.219e+04 1.341e-09
  8.31719    114.9 1.206e+04 1.260e-09
  8.33693    115.6 1.190e+04 1.180e-09
  8.35668    116.2 1.176e+04 1.117e-09
  8.37643    116.8 1.165e+04 1.080e-09
  8.39618    117.5 1.163e+04 1.079e-09
  8.41592    118.2 1.164e+04 1.100e-09
  8.42786    119.0 1.169e+04 1.155e-09
  8.43774    119.6 1.257e+04 1.581e-09
  8.44725    120.3 1.272e+04 1.659e-09
  8.45712    119.8 1.313e+04 2.115e-09
  8.47517    120.7 1.319e+04 2.293e-09
  8.49491    121.7 1.328e+04 2.474e-09
  8.51466    122.7 1.325e+04 2.545e-09
  8.53441    123.6 1.322e+04 2.538e-09
  8.55416    124.4 1.311e+04 2.487e-09
  8.57390    125.2 1.296e+04 2.372e-09
  8.59365    125.9 1.279e+04 2.231e-09
  8.60825    126.5 1.266e+04 2.088e-09
  8.61813    126.8 1.297e+04 2.471e-09
  8.63315    127.3 1.282e+04 2.309e-09
  8.64848    128.0 1.276e+04 2.177e-09
  8.65835    127.5 1.262e+04 1.955e-09
  8.67264    127.7 1.254e+04 1.825e-09
  8.69239    127.8 1.252e+04 1.761e-09
  8.71214    127.7 1.252e+04 1.760e-09
  8.73188    127.6 1.252e+04 1.775e-09
  8.75163    127.3 1.253e+04 1.831e-09
  8.76926    126.9 1.264e+04 1.981e-09
  8.77914    127.5 1.277e+04 1.963e-09
  8.79113    126.7 1.324e+04 2.340e-09
  8.81087    125.6 1.402e+04 3.020e-09
  8.83062    124.5 1.490e+04 4.005e-09
  8.85037    123.3 1.562e+04 4.983e-09
  8.86909    122.0 1.588e+04 5.224e-09
  8.87897    122.8 1.511e+04 4.136e-09
  8.88986    121.3 1.519e+04 4.149e-09
  8.90961    119.8 1.504e+04 3.913e-09
  8.92936    118.4 1.449e+04 3.239e-09
  8.94015    117.0 1.366e+04 2.411e-09
  8.95002    117.6 1.332e+04 2.073e-09
  8.96885    115.9 1.224e+04 1.351e-09
  8.98860    114.2 1.140e+04 9.270e-10
  9.01832    113.3 1.075e+04 5.625e-10
  9.04794    112.0 1.027e+04 4.751e-10
  9.06759    111.3 9.964e+03 4.250e-10
  9.08734    110.9 9.736e+03 3.896e-10
  9.09958    110.6 9.610e+03 3.761e-10
  9.10352    111.5 9.475e+03 3.543e-10
  9.11103    111.5 9.490e+03 3.649e-10
  9.12683    111.5 9.495e+03 3.682e-10
  9.14658    111.4 9.546e+03 3.847e-10
  9.16633    111.2 9.701e+03 4.234e-10
  9.18607    110.9 9.938e+03 4.859e-10
  9.20582    110.6 1.021e+04 5.699e-10
  9.22557    110.3 1.045e+04 6.645e-10
  9.24532    110.1 1.063e+04 7.555e-10
  9.26216    109.8 1.075e+04 8.323e-10
  9.27204    109.6 1.099e+04 9.553e-10
  9.28481    109.6 1.105e+04 1.000e-09
  9.30456    109.6 1.109e+04 1.035e-09
  9.32019    109.7 1.113e+04 1.064e-09
  9.33007    110.5 1.062e+04 8.120e-10
  9.34405    110.6 1.068e+04 8.458e-10
  9.36380    110.6 1.074e+04 8.841e-10
  9.38355    110.9 1.079e+04 9.228e-10
  9.40330    111.4 1.083e+04 9.602e-10
  9.42304    111.9 1.087e+04 9.929e-10
  9.43305    112.5 1.093e+04 1.029e-09
  9.44292    112.4 1.095e+04 1.002e-09
  9.46254    113.2 1.112e+04 1.071e-09
  9.48229    113.6 1.145e+04 1.191e-09
  9.50203    113.6 1.204e+04 1.421e-09
  9.52178    113.2 1.306e+04 1.890e-09
  9.54081    112.4 1.435e+04 2.755e-09
  9.55068    113.9 1.280e+04 1.806e-09
  9.56128    113.3 1.395e+04 2.648e-09
  9.58102    113.3 1.509e+04 3.967e-09
  9.59405    113.6 1.602e+04 5.655e-09
  9.60393    114.0 1.563e+04 4.228e-09
  9.62052    114.3 1.615e+04 5.544e-09
  9.64027    114.9 1.636e+04 6.387e-09
  9.66001    115.6 1.623e+04 6.536e-09
  9.67976    116.4 1.608e+04 6.420e-09
  9.69951    117.1 1.586e+04 6.079e-09
  9.71926    117.6 1.558e+04 5.689e-09
  9.73900    118.1 1.538e+04 5.366e-09
  9.75506    118.6 1.529e+04 5.126e-09
  9.76494    119.4 1.532e+04 5.170e-09
  9.77129    120.0 1.532e+04 5.062e-09
  9.78117    120.3 1.524e+04 4.644e-09
  9.79825    120.8 1.531e+04 4.931e-09
  9.81799    121.4 1.546e+04 5.298e-09
  9.83774    122.1 1.571e+04 5.619e-09
  9.85749    122.9 1.600e+04 5.649e-09
  9.87724    123.4 1.606e+04 5.589e-09
  9.89698    123.9 1.619e+04 5.276e-09
  9.91607    124.0 1.629e+04 4.720e-09
  9.92595    124.0 1.677e+04 4.867e-09
  9.93648    123.8 1.643e+04 4.493e-09
  9.95623    123.4 1.580e+04 4.366e-09
  9.97597    123.2 1.532e+04 4.453e-09
  9.99191    123.3 1.521e+04 4.547e-09
 10.00178    124.6 1.597e+04 4.798e-09
 10.01547    124.5 1.561e+04 4.760e-09
 10.03522    124.6 1.528e+04 4.746e-09
 10.05496    124.7 1.500e+04 4.668e-09
 10.07471    124.9 1.480e+04 4.539e-09
 10.08695    125.2 1.465e+04 4.418e-09
 10.09683    125.0 1.475e+04 4.742e-09
 10.11421    125.3 1.468e+04 4.591e-09
 10.13395    125.5 1.465e+04 4.462e-09
 10.15370    125.8 1.465e+04 4.321e-09
 10.17345    126.1 1.465e+04 4.112e-09
 10.19320    126.3 1.456e+04 3.743e-09
 10.21252    126.3 1.432e+04 3.191e-09
 10.22240    126.7 1.440e+04 3.189e-09
 10.23269    126.7 1.400e+04 2.624e-09
 10.24796    126.4 1.347e+04 2.024e-09
 10.25784    126.1 1.321e+04 1.826e-09
 10.27219    125.6 1.256e+04 1.344e-09
 10.29193    125.1 1.186e+04 9.808e-10
 10.31168    124.7 1.123e+04 7.179e-10
 10.33143    124.5 1.075e+04 5.523e-10
 10.35118    124.6 1.048e+04 4.398e-10
 10.37092    124.7 1.037e+04 3.897e-10
 10.40064    125.6 1.011e+04 3.510e-10
 10.44023    126.8 9.815e+03 2.990e-10
 10.47973    128.5 9.792e+03 2.823e-10
 10.51922    130.5 9.830e+03 2.868e-10
 10.55872    132.2 9.982e+03 3.084e-10
 10.58005    133.3 1.001e+04 3.287e-10
 10.58983    133.1 1.003e+04 3.491e-10
 10.60789    134.0 1.011e+04 3.916e-10
 10.62764    135.1 1.032e+04 4.732e-10
 10.64739    136.2 1.064e+04 5.976e-10
 10.66362    137.1 1.101e+04 7.632e-10
 10.67350    136.7 1.137e+04 8.663e-10
 10.68688    136.9 1.222e+04 1.179e-09
 10.70663    136.6 1.352e+04 1.702e-09
 10.72638    136.0 1.512e+04 2.566e-09
 10.74086    135.3 1.640e+04 3.842e-09
 10.75074    135.8 1.671e+04 4.235e-09
 10.76587    135.0 1.760e+04 5.970e-09
 10.78562    134.1 1.806e+04 7.445e-09
 10.80537    133.4 1.812e+04 8.698e-09
 10.82512    132.8 1.780e+04 9.253e-09
 10.84486    132.4 1.775e+04 9.227e-09
 10.86461    132.2 1.790e+04 8.753e-09
 10.88424    132.0 1.849e+04 7.049e-09
 10.89411    128.3 1.736e+04 2.249e-09
 10.90187    126.5 1.621e+04 1.276e-09
 10.91175    127.8 1.725e+04 1.702e-09
 10.92385    125.5 1.496e+04 8.855e-10
 10.94360    123.1 1.160e+04 5.357e-10
 10.96335    122.0 1.026e+04 3.915e-10
 10.98309    121.9 1.039e+04 3.505e-10
 11.00284    122.2 1.040e+04 3.502e-10
 11.02259    122.2 1.046e+04 3.577e-10
 11.04234    122.0 1.062e+04 3.893e-10
 11.06208    121.7 1.088e+04 4.682e-10
 11.07276    121.2 1.125e+04 6.194e-10
 11.08263    121.6 1.139e+04 6.154e-10
 11.10158    121.1 1.187e+04 8.453e-10
 11.11472    120.8 1.240e+04 1.168e-09
 11.12460    119.0 1.301e+04 1.615e-09
 11.14107    118.6 1.368e+04 2.118e-09
 11.16082    117.7 1.430e+04 2.581e-09
 11.18057    116.2 1.477e+04 2.934e-09
 11.20032    113.9 1.510e+04 3.185e-09
 11.22006    111.2 1.519e+04 3.415e-09
 11.23376    108.4 1.515e+04 3.430e-09
 11.24364    107.6 1.521e+04 3.516e-09
 11.25956    105.0 1.510e+04 3.448e-09
 11.27931    102.7 1.482e+04 3.128e-09
 11.29905    100.3 1.442e+04 2.526e-09
 11.31880     97.7 1.381e+04 1.879e-09
 11.33534     94.8 1.300e+04 1.366e-09
 11.34521     92.2 1.243e+04 1.084e-09
 11.35830     90.0 1.171e+04 8.287e-10
 11.37804     88.4 1.132e+04 6.724e-10
 11.39477     87.1 1.120e+04 5.740e-10
 11.40465     84.5 1.089e+04 4.442e-10
 11.41754     83.2 1.097e+04 4.517e-10
 11.43729     81.8 1.123e+04 4.976e-10
 11.45703     79.8 1.163e+04 5.903e-10
 11.47678     77.7 1.283e+04 7.841e-10
 11.49653     76.0 1.474e+04 1.040e-09
 11.51129     71.5 1.918e+04 1.758e-09
 11.52112     67.1 2.483e+04 3.480e-09
 11.53099     63.5 2.756e+04 7.165e-09
 11.54086     60.9 2.705e+04 1.333e-08
 11.55074     59.2 2.511e+04 2.384e-08
 11.56061     57.9 2.310e+04 4.134e-08
 11.56573     56.4 2.123e+04 9.634e-08
 11.57067     55.7 2.103e+04 8.524e-08
 11.58036     55.5 2.098e+04 1.019e-07
 11.59023     55.3 2.122e+04 1.038e-07
 11.60011     55.2 2.136e+04 1.004e-07
 11.60998     54.9 2.177e+04 8.723e-08
 11.61985     54.6 2.268e+04 6.300e-08
 11.62973     53.9 2.461e+04 3.606e-08
 11.63960     52.9 2.755e+04 1.681e-08
 11.64606     50.4 2.934e+04 8.160e-09
 11.65100     48.9 3.068e+04 3.920e-09
 11.65935     45.9 3.045e+04 1.827e-09
 11.67421     44.7 2.514e+04 2.048e-09
 11.69400     40.6 1.808e+04 9.753e-10
 11.71375     39.1 1.338e+04 6.986e-10
 11.72666     39.2 1.165e+04 6.010e-10
 11.73654     37.3 1.076e+04 5.146e-10
 11.75325     38.7 1.075e+04 5.202e-10
 11.77299     40.2 1.070e+04 5.344e-10
 11.78644     41.9 1.065e+04 5.499e-10
 11.79631     43.3 1.084e+04 6.154e-10
 11.81249     45.1 1.092e+04 6.464e-10
 11.83224     46.9 1.096e+04 6.807e-10
 11.85198     48.6 1.093e+04 7.040e-10
 11.87173     50.4 1.093e+04 7.267e-10
 11.88767     52.1 1.107e+04 7.699e-10
 11.89755     51.3 1.112e+04 7.410e-10
 11.91123     52.6 1.141e+04 8.337e-10
 11.93097     53.5 1.172e+04 9.501e-10
 11.95072     54.1 1.207e+04 1.094e-09
 11.97047     54.7 1.241e+04 1.292e-09
 11.99022     55.9 1.280e+04 1.527e-09
 12.00705     57.1 1.315e+04 1.736e-09
 12.01693     58.8 1.315e+04 1.787e-09
 12.02971     59.6 1.330e+04 1.841e-09
 12.04868     60.3 1.332e+04 1.793e-09
 12.05856     60.1 1.349e+04 1.959e-09
 12.06921     61.0 1.330e+04 1.710e-09
 12.08895     61.9 1.281e+04 1.291e-09
 12.10870     62.3 1.220e+04 9.448e-10
 12.13842     64.0 1.158e+04 6.380e-10
 12.17801     63.6 9.940e+03 3.207e-10
 12.20989     63.7 8.724e+03 1.960e-10
 12.22963     64.6 9.275e+03 2.557e-10
 12.25700     65.3 8.520e+03 1.740e-10
 12.29650     66.5 8.540e+03 1.606e-10
 12.33599     67.7 8.577e+03 1.634e-10
 12.37549     68.8 8.771e+03 1.748e-10
 12.41498     69.0 9.210e+03 2.138e-10
 12.44451     68.6 9.441e+03 2.407e-10
 12.45815     68.2 9.607e+03 2.642e-10
 12.46803     68.1 9.610e+03 2.634e-10
 12.48390     67.4 9.886e+03 3.121e-10
 12.50365     66.7 1.038e+04 4.128e-10
 12.52340     66.2 1.097e+04 5.767e-10
 12.54158     65.9 1.179e+04 8.643e-10
 12.55146     67.0 1.158e+04 7.460e-10
 12.56289     66.8 1.278e+04 1.084e-09
 12.57335     66.6 1.312e+04 1.370e-09
 12.57824     65.3 1.602e+04 1.262e-09
 12.58748     60.7 2.986e+04 1.612e-09
 12.59735     53.1 4.768e+04 2.802e-09
 12.60723     45.0 4.896e+04 9.905e-09
 12.61710     39.7 4.039e+04 4.179e-08
 12.62693     36.3 3.140e+04 1.567e-07
 12.63680     36.6 2.847e+04 2.621e-07
 12.64672     35.1 2.599e+04 4.092e-07
 12.65660     33.8 2.593e+04 4.291e-07
 12.66647     32.5 2.698e+04 3.370e-07
 12.67634     31.1 3.103e+04 1.365e-07
 12.68361     28.4 3.540e+04 3.671e-08
 12.68854     15.5 2.458e+04 6.663e-09
 12.69609     12.7 1.840e+04 3.836e-09
 12.70596     11.0 1.633e+04 3.054e-09
 12.71237     11.5 1.490e+04 2.293e-09
 12.71730     13.2 1.567e+04 2.573e-09
 12.72571     12.8 1.509e+04 2.318e-09
 12.74057     12.5 1.453e+04 1.795e-09
 12.76037     12.6 1.457e+04 1.767e-09
 12.78011     11.7 1.484e+04 1.866e-09
 12.79986      9.8 1.526e+04 2.144e-09
 12.81462      4.7 1.652e+04 3.044e-09
 12.82445      4.4 1.633e+04 3.051e-09
 12.83432     -0.1 1.786e+04 4.690e-09
 12.84420     -1.4 1.810e+04 5.036e-09
 12.85407     -6.1 1.911e+04 7.627e-09
 12.86394     -6.7 1.949e+04 7.502e-09
 12.87338    -12.4 2.063e+04 9.365e-09
 12.87831    -16.3 2.090e+04 8.091e-09
 12.88369    -17.6 2.110e+04 8.088e-09
 12.89357    -24.0 2.056e+04 6.369e-09
 12.90344    -25.0 2.079e+04 6.226e-09
 12.90916    -32.8 1.810e+04 4.153e-09
 12.91908    -33.1 1.746e+04 3.972e-09
 12.93311    -38.2 1.623e+04 3.282e-09
 12.94293    -39.1 1.650e+04 3.389e-09
 12.95281    -41.7 1.602e+04 3.135e-09
 12.95882    -42.4 1.621e+04 3.189e-09
 12.96375    -42.6 1.575e+04 2.856e-09
 12.97256    -44.8 1.526e+04 2.602e-09
 12.98243    -45.2 1.527e+04 2.588e-09
 12.99230    -46.7 1.487e+04 2.406e-09
 13.00218    -47.2 1.485e+04 2.378e-09
 13.01205    -48.1 1.462e+04 2.239e-09
 13.01947    -48.1 1.472e+04 2.223e-09
 13.02440    -48.0 1.450e+04 2.186e-09
 13.03180    -48.3 1.433e+04 2.107e-09
 13.03932    -48.2 1.443e+04 2.164e-09
 13.04426    -47.5 1.413e+04 1.915e-09
 13.05154    -47.3 1.412e+04 1.895e-09
 13.06142    -47.3 1.419e+04 1.914e-09
 13.07129    -47.3 1.467e+04 2.097e-09
 13.08117    -47.4 1.507e+04 2.208e-09
 13.09104    -47.8 1.613e+04 2.775e-09
 13.10091    -48.3 1.735e+04 3.400e-09
 13.11079    -48.5 1.908e+04 4.781e-09
 13.11983    -48.9 2.115e+04 6.646e-09
 13.12476    -47.8 1.966e+04 4.799e-09
 13.12977    -47.9 2.181e+04 6.834e-09
 13.13471    -47.2 1.909e+04 5.750e-09
 13.14041    -47.2 1.982e+04 7.258e-09
 13.15028    -47.0 2.159e+04 9.862e-09
 13.16016    -47.8 2.534e+04 1.382e-08
 13.17003    -49.1 3.021e+04 2.388e-08
 13.17990    -51.3 2.987e+04 6.627e-08
 13.18978    -52.0 2.603e+04 2.579e-07
 13.19965    -51.8 2.278e+04 8.681e-07
 13.20524    -53.0 2.377e+04 7.939e-07
 13.20769    -52.6 2.700e+04 3.368e-07
 13.21194    -55.2 2.592e+04 5.628e-07
 13.21688    -57.6 2.364e+04 1.055e-06
 13.22182    -58.5 2.231e+04 1.311e-06
 13.22675    -58.1 2.169e+04 1.413e-06
 13.23169    -57.4 2.172e+04 1.202e-06
 13.23912    -57.3 2.179e+04 9.061e-07
 13.24502    -56.0 2.296e+04 4.771e-07
 13.24995    -54.0 2.328e+04 4.496e-07
 13.25889    -53.7 2.406e+04 3.115e-07
 13.26877    -53.5 2.489e+04 2.163e-07
 13.27864    -53.0 2.564e+04 1.412e-07
 13.28577    -52.2 2.603e+04 9.434e-08
 13.29071    -52.1 2.508e+04 1.372e-07
 13.29839    -51.1 2.560e+04 9.647e-08
 13.30826    -50.3 2.637e+04 6.819e-08
 13.31814    -50.0 2.684e+04 4.651e-08
 13.32801    -49.8 2.667e+04 3.013e-08
 13.33788    -49.5 2.576e+04 1.865e-08
 13.35044    -50.5 2.288e+04 9.363e-09
 13.36031    -48.6 2.368e+04 1.628e-08
 13.36632    -47.8 2.278e+04 1.395e-08
 13.37126    -48.0 2.473e+04 2.007e-08
 13.37738    -46.7 2.426e+04 1.572e-08
 13.38725    -45.6 2.386e+04 1.256e-08
 13.39713    -45.3 2.350e+04 1.070e-08
 13.41199    -43.6 2.375e+04 1.227e-08
 13.43178    -41.6 2.235e+04 7.594e-09
 13.45153    -39.2 2.044e+04 4.396e-09
 13.47128    -36.9 1.840e+04 2.387e-09
 13.49102    -34.3 1.616e+04 1.382e-09
 13.51077    -31.7 1.423e+04 9.699e-10
 13.52738    -29.0 1.230e+04 5.964e-10
 13.53726    -28.9 1.599e+04 6.615e-10
 13.55027    -25.7 1.420e+04 4.506e-10
 13.57001    -24.4 1.296e+04 3.155e-10
 13.58097    -21.1 1.308e+04 2.503e-10
 13.59085    -19.8 1.603e+04 8.159e-10
 13.60951    -18.4 1.520e+04 5.929e-10
 13.63923    -19.0 1.260e+04 2.867e-10
 13.67882    -15.4 1.047e+04 2.322e-10
 13.71832    -11.1 9.319e+03 2.406e-10
 13.75781     -6.8 9.265e+03 2.707e-10
 13.79191     -2.6 9.403e+03 3.043e-10
 13.81165     -0.9 1.206e+04 3.379e-10
 13.83680      2.6 1.084e+04 3.770e-10
 13.85947      6.3 1.100e+04 5.795e-10
 13.87922      5.5 1.161e+04 3.944e-10
 13.90582      7.3 1.091e+04 4.636e-10
 13.92547      9.4 1.098e+04 5.466e-10
 13.94522     10.9 1.137e+04 6.839e-10
 13.96496     12.4 1.161e+04 8.274e-10
 13.98471     14.2 1.173e+04 9.565e-10
 14.00446     15.9 1.179e+04 1.104e-09
 14.02028     17.7 1.167e+04 1.111e-09
 14.02815     17.2 1.103e+04 9.167e-10
 14.03207     17.2 1.074e+04 7.429e-10
 14.04395     18.4 1.088e+04 7.933e-10
 14.06370     20.5 1.068e+04 7.452e-10
 14.08345     21.3 1.071e+04 7.356e-10
 14.11317     23.9 1.049e+04 6.684e-10
 14.15276     26.6 1.004e+04 5.059e-10
 14.18149     29.2 9.707e+03 4.015e-10
 14.20123     28.9 9.164e+03 2.764e-10
 14.23175     31.6 8.975e+03 2.548e-10
 14.25288     34.6 8.999e+03 2.545e-10
 14.27263     35.2 9.104e+03 2.698e-10
 14.31074     38.2 9.093e+03 2.683e-10
 14.35023     41.2 9.058e+03 2.659e-10
 14.38973     44.2 9.077e+03 2.705e-10
 14.42922     47.2 9.116e+03 2.785e-10
 14.46872     50.0 9.159e+03 2.893e-10
 14.50350     52.8 9.208e+03 2.995e-10
 14.52325     52.5 8.458e+03 1.691e-10
 14.54771     55.3 8.439e+03 1.650e-10
 14.58720     57.9 8.432e+03 1.626e-10
 14.62670     60.5 8.446e+03 1.633e-10
 14.66619     63.0 8.496e+03 1.670e-10
 14.69411     65.4 8.579e+03 1.785e-10
 14.71386     65.6 8.646e+03 1.914e-10
 14.74518     67.8 8.803e+03 2.273e-10
 14.78468     69.8 9.091e+03 2.948e-10
 14.82417     71.8 9.459e+03 3.925e-10
 14.84527     74.0 9.919e+03 5.095e-10
 14.86502     74.2 9.280e+03 3.666e-10
 14.90316     75.9 9.377e+03 3.704e-10
 14.94266     77.7 9.458e+03 3.703e-10
 14.97218     78.4 9.537e+03 3.814e-10
 14.99183     79.2 9.574e+03 3.949e-10
 15.00608     80.1 9.597e+03 4.090e-10
 15.01596     80.8 9.436e+03 3.581e-10
 15.03133     81.7 9.509e+03 3.692e-10
 15.05107     82.9 9.611e+03 3.979e-10
 15.07082     84.0 9.778e+03 4.444e-10
 15.09057     85.1 9.967e+03 5.090e-10
 15.11032     86.1 1.016e+04 5.982e-10
 15.13006     87.2 1.037e+04 7.133e-10
 15.14502     88.3 1.061e+04 8.517e-10
 15.15489     88.3 1.079e+04 9.416e-10
 15.16709     89.5 1.100e+04 1.077e-09
 15.17697     90.2 1.064e+04 9.051e-10
 15.18931     91.4 1.090e+04 1.052e-09
 15.20905     92.5 1.115e+04 1.186e-09
 15.22880     93.5 1.136e+04 1.255e-09
 15.24855     94.4 1.137e+04 1.246e-09
 15.26830     95.1 1.129e+04 1.179e-09
 15.28804     95.9 1.107e+04 1.044e-09
 15.30779     96.5 1.079e+04 8.889e-10
 15.32754     96.9 1.047e+04 7.452e-10
 15.33797     97.2 1.018e+04 6.308e-10
 15.34785     98.0 1.079e+04 8.586e-10
 15.36563     98.2 1.053e+04 7.573e-10
 15.37550     97.2 1.113e+04 1.036e-09
 15.38678     97.4 1.104e+04 1.008e-09
 15.40653     98.0 1.100e+04 1.004e-09
 15.42628     98.8 1.098e+04 1.010e-09
 15.44602     99.8 1.097e+04 1.010e-09
 15.46577    100.9 1.091e+04 1.001e-09
 15.48552    101.9 1.081e+04 9.683e-10
 15.49898    103.0 1.068e+04 9.223e-10
 15.50886    103.4 1.122e+04 1.259e-09
 15.52501    104.2 1.115e+04 1.151e-09
 15.54476    104.9 1.112e+04 1.096e-09
 15.56451    105.5 1.113e+04 1.099e-09
 15.58426    106.1 1.120e+04 1.126e-09
 15.59612    106.6 1.133e+04 1.232e-09
 15.60599    105.8 1.117e+04 1.326e-09
 15.62375    106.5 1.152e+04 1.536e-09
 15.64350    107.5 1.196e+04 1.831e-09
 15.65999    108.7 1.252e+04 2.218e-09
 15.66987    107.2 1.421e+04 3.519e-09
 15.68299    108.4 1.460e+04 4.115e-09
 15.70274    109.7 1.487e+04 4.681e-09
 15.72249    110.8 1.504e+04 5.141e-09
 15.74224    112.0 1.515e+04 5.494e-09
 15.76198    113.1 1.525e+04 5.764e-09
 15.78173    114.1 1.528e+04 5.960e-09
 15.80148    115.0 1.524e+04 6.146e-09
 15.81673    116.1 1.524e+04 6.198e-09
 15.82638    115.4 1.464e+04 5.238e-09
 15.83087    114.9 1.496e+04 5.971e-09
 15.84097    115.8 1.495e+04 5.560e-09
 15.86072    116.6 1.482e+04 5.006e-09
 15.88047    117.4 1.458e+04 4.324e-09
 15.90022    117.7 1.423e+04 3.610e-09
 15.91996    117.6 1.374e+04 2.982e-09
 15.93971    117.4 1.331e+04 2.538e-09
 15.95946    117.0 1.301e+04 2.267e-09
 15.97921    116.7 1.280e+04 2.088e-09
 15.99188    116.6 1.265e+04 1.929e-09
 16.00176    117.4 1.265e+04 1.898e-09
 16.01870    117.5 1.242e+04 1.635e-09
 16.03734    117.4 1.211e+04 1.368e-09
 16.04722    117.6 1.253e+04 1.721e-09
 16.05820    117.5 1.214e+04 1.433e-09
 16.07794    117.4 1.169e+04 1.183e-09
 16.09769    117.4 1.126e+04 9.897e-10
 16.11744    117.6 1.090e+04 8.432e-10
 16.13719    117.9 1.063e+04 7.312e-10
 16.15289    118.2 1.044e+04 6.510e-10
 16.16277    118.3 9.873e+03 4.491e-10
 16.17668    118.7 9.862e+03 4.498e-10
 16.19643    119.2 9.862e+03 4.570e-10
 16.21618    119.8 9.907e+03 4.747e-10
 16.23592    120.4 9.986e+03 5.001e-10
 16.25567    121.1 1.010e+04 5.330e-10
 16.26783    121.6 1.025e+04 5.728e-10
 16.27771    121.5 1.042e+04 6.353e-10
 16.29516    121.9 1.060e+04 6.957e-10
 16.31390    122.3 1.078e+04 7.678e-10
 16.32378    122.8 1.102e+04 9.089e-10
 16.33466    123.1 1.132e+04 1.060e-09
 16.35441    123.4 1.162e+04 1.237e-09
 16.37415    123.6 1.192e+04 1.438e-09
 16.39390    123.9 1.219e+04 1.648e-09
 16.41365    124.3 1.239e+04 1.827e-09
 16.43340    124.6 1.250e+04 1.903e-09
 16.45314    124.7 1.250e+04 1.898e-09
 16.47289    124.9 1.244e+04 1.861e-09
 16.48478    125.0 1.231e+04 1.781e-09
 16.49046    125.4 1.257e+04 2.051e-09
 16.49832    125.0 1.256e+04 2.026e-09
 16.51239    125.1 1.236e+04 1.861e-09
 16.53213    125.2 1.216e+04 1.715e-09
 16.55188    125.4 1.200e+04 1.601e-09
 16.57163    125.6 1.187e+04 1.521e-09
 16.59138    126.0 1.178e+04 1.481e-09
 16.61112    126.5 1.178e+04 1.477e-09
 16.63087    127.0 1.181e+04 1.484e-09
 16.64579    127.5 1.191e+04 1.516e-09
 16.65567    127.6 1.169e+04 1.272e-09
 16.67037    128.2 1.179e+04 1.308e-09
 16.69011    128.5 1.188e+04 1.346e-09
 16.70906    128.7 1.188e+04 1.352e-09
 16.71893    128.8 1.174e+04 1.256e-09
 16.72961    128.9 1.171e+04 1.251e-09
 16.74936    128.9 1.157e+04 1.222e-09
 16.76910    128.8 1.139e+04 1.169e-09
 16.78885    128.5 1.129e+04 1.132e-09
 16.80680    128.2 1.130e+04 1.134e-09
 16.81668    128.2 1.099e+04 9.830e-10
 16.82835    127.8 1.099e+04 9.850e-10
 16.84809    127.3 1.104e+04 1.002e-09
 16.86784    126.5 1.121e+04 1.051e-09
 16.88759    125.6 1.143e+04 1.114e-09
 16.90734    124.5 1.150e+04 1.130e-09
 16.92708    123.4 1.147e+04 1.113e-09
 16.93955    122.3 1.134e+04 1.040e-09
 16.94942    123.2 1.130e+04 1.037e-09
 16.96658    122.2 1.108e+04 9.318e-10
 16.97768    121.0 1.086e+04 8.491e-10
 16.98756    120.7 1.086e+04 9.144e-10
 17.00607    119.2 1.109e+04 9.850e-10
 17.02582    117.5 1.150e+04 1.153e-09
 17.04557    116.0 1.191e+04 1.411e-09
 17.06532    114.9 1.225e+04 1.710e-09
 17.08506    114.1 1.249e+04 1.996e-09
 17.10481    113.9 1.272e+04 2.213e-09
 17.12456    113.9 1.301e+04 2.222e-09
 17.13869    113.8 1.306e+04 2.188e-09
 17.14857    112.2 1.270e+04 1.745e-09
 17.16016    111.4 1.220e+04 1.354e-09
 17.17003    113.0 1.238e+04 1.493e-09
 17.18380    112.1 1.177e+04 1.150e-09
 17.20355    111.3 1.108e+04 9.147e-10
 17.22330    111.1 1.055e+04 7.801e-10
 17.24304    111.1 1.025e+04 7.100e-10
 17.26279    111.7 1.013e+04 6.722e-10
 17.28254    112.4 1.013e+04 6.537e-10
 17.29970    113.3 1.015e+04 6.435e-10
 17.30958    111.9 1.010e+04 6.069e-10
 17.32203    112.6 1.004e+04 5.959e-10
 17.34178    113.2 9.967e+03 5.928e-10
 17.36153    114.0 9.947e+03 5.948e-10
 17.38077    114.6 9.971e+03 6.110e-10
 17.39065    115.9 9.737e+03 5.246e-10
 17.40102    116.5 9.732e+03 5.418e-10
 17.42077    117.3 9.849e+03 5.961e-10
 17.44052    118.1 9.947e+03 6.482e-10
 17.46027    118.9 1.025e+04 7.339e-10
 17.47058    119.6 1.043e+04 7.936e-10
 17.48056    118.7 1.010e+04 6.878e-10
 17.50983    118.8 1.040e+04 7.238e-10
 17.54932    118.4 1.040e+04 6.766e-10
 17.58882    116.4 1.039e+04 6.061e-10
 17.62831    113.3 1.017e+04 5.554e-10
 17.66781    110.6 9.732e+03 5.091e-10
 17.70730    109.3 9.288e+03 4.444e-10
 17.74680    108.9 8.919e+03 3.611e-10
 17.78292    109.0 8.520e+03 2.653e-10
 17.80267    111.5 9.221e+03 4.589e-10
 17.82220    112.1 8.813e+03 3.386e-10
 17.84195    112.3 9.040e+03 4.074e-10
 17.86528    113.2 8.531e+03 2.816e-10
 17.90478    114.4 7.931e+03 1.893e-10
 17.94427    116.0 7.584e+03 1.535e-10
 17.98377    118.2 7.576e+03 1.522e-10
 18.02326    120.7 7.627e+03 1.597e-10
 18.06276    123.4 7.823e+03 1.814e-10
 18.10225    126.2 8.097e+03 2.117e-10
 18.12469    128.2 8.274e+03 2.330e-10
 18.14444    130.2 8.133e+03 2.307e-10
 18.18124    132.9 8.370e+03 2.533e-10
 18.22074    134.9 8.519e+03 2.684e-10
 18.25026    136.0 8.602e+03 2.837e-10
 18.26991    137.5 8.822e+03 3.147e-10
 18.28298    139.0 9.289e+03 3.754e-10
 18.28869    138.3 9.121e+03 3.767e-10
 18.29538    138.8 8.837e+03 3.321e-10
 18.30941    140.1 8.938e+03 3.501e-10
 18.32915    141.3 9.007e+03 3.640e-10
 18.34890    142.6 9.087e+03 3.799e-10
 18.36865    144.1 9.202e+03 4.036e-10
 18.38840    145.6 9.359e+03 4.381e-10
 18.40814    147.0 9.569e+03 4.843e-10
 18.42789    148.3 9.822e+03 5.402e-10
 18.44651    149.5 1.012e+04 6.050e-10
 18.45638    149.8 9.311e+03 4.368e-10
 18.46739    151.1 9.528e+03 4.804e-10
 18.48713    152.3 9.813e+03 5.388e-10
 18.50359    153.4 1.021e+04 6.216e-10
 18.51347    152.1 1.000e+04 5.679e-10
 18.52663    152.8 1.032e+04 6.472e-10
 18.54638    153.1 1.064e+04 7.525e-10
 18.56612    153.1 1.094e+04 8.867e-10
 18.58587    153.0 1.128e+04 1.068e-09
 18.60562    152.9 1.166e+04 1.305e-09
 18.61739    152.6 1.215e+04 1.564e-09
 18.62727    153.9 1.149e+04 1.264e-09
 18.64511    153.7 1.187e+04 1.478e-09
 18.66486    153.3 1.228e+04 1.636e-09
 18.68461    152.4 1.279e+04 1.757e-09
 18.70436    150.9 1.383e+04 1.959e-09
 18.72410    148.9 1.526e+04 2.360e-09
 18.73408    146.7 1.634e+04 2.960e-09
 18.74395    148.5 1.260e+04 1.339e-09
 18.76360    147.2 1.336e+04 1.534e-09
 18.77840    146.2 1.415e+04 1.875e-09
 18.78828    148.8 1.298e+04 1.380e-09
 18.80309    147.8 1.388e+04 1.737e-09
 18.82284    147.3 1.457e+04 2.211e-09
 18.84259    147.5 1.495e+04 2.678e-09
 18.86234    147.9 1.522e+04 3.085e-09
 18.88208    148.3 1.510e+04 3.322e-09
 18.90183    148.8 1.506e+04 3.314e-09
 18.92158    149.3 1.492e+04 3.245e-09
 18.93941    149.9 1.467e+04 3.054e-09
 18.94928    150.8 1.557e+04 4.047e-09
 18.95469    151.5 1.534e+04 3.813e-09
 18.96457    152.4 1.461e+04 3.107e-09
 18.98082    153.2 1.454e+04 3.025e-09
 19.00057    154.2 1.433e+04 2.776e-09
 19.02032    155.1 1.403e+04 2.401e-09
 19.04006    156.0 1.360e+04 1.964e-09
 19.05981    156.8 1.301e+04 1.537e-09
 19.07956    157.4 1.231e+04 1.182e-09
 19.09931    158.0 1.164e+04 9.218e-10
 19.11029    158.5 1.108e+04 7.542e-10
 19.12017    159.4 1.148e+04 8.039e-10
 19.13880    159.6 1.073e+04 6.398e-10
 19.15855    160.0 1.040e+04 6.060e-10
 19.17531    160.7 1.036e+04 6.043e-10
 19.18518    162.0 1.015e+04 5.044e-10
 19.19804    162.6 1.013e+04 5.050e-10
 19.21779    163.4 1.012e+04 5.171e-10
 19.23754    164.1 1.016e+04 5.520e-10
 19.25729    164.9 1.024e+04 6.010e-10
 19.27130    165.6 1.034e+04 6.575e-10
 19.28118    165.8 1.025e+04 6.232e-10
 19.29678    166.5 1.036e+04 6.846e-10
 19.31653    167.3 1.049e+04 7.410e-10
 19.33628    168.1 1.063e+04 7.885e-10
 19.35602    168.8 1.071e+04 7.949e-10
 19.37577    169.5 1.071e+04 7.892e-10
 19.39552    170.0 1.070e+04 7.630e-10
 19.40579    170.4 1.063e+04 7.131e-10
 19.41567    171.5 1.092e+04 8.313e-10
 19.43231    171.6 1.086e+04 7.759e-10
 19.44219    171.7 1.083e+04 7.644e-10
 19.45476    171.8 1.064e+04 6.752e-10
 19.47451    171.7 1.038e+04 5.996e-10
 19.49426    171.6 1.021e+04 5.813e-10
 19.51400    171.5 1.020e+04 5.859e-10
 19.53375    171.4 1.022e+04 6.186e-10
 19.55350    171.4 1.038e+04 7.032e-10
 19.57325    171.6 1.063e+04 8.325e-10
 19.59299    172.0 1.092e+04 9.891e-10
 19.60319    172.5 1.119e+04 1.130e-09
 19.61307    172.1 1.104e+04 1.050e-09
 19.62641    172.7 1.126e+04 1.166e-09
 19.63628    172.9 1.154e+04 1.342e-09
 19.65224    173.4 1.178e+04 1.503e-09
 19.67198    174.0 1.195e+04 1.545e-09
 19.69173    174.6 1.195e+04 1.525e-09
 19.71148    175.3 1.188e+04 1.429e-09
 19.73123    175.9 1.168e+04 1.243e-09
 19.75097    176.6 1.138e+04 1.018e-09
 19.76420    177.3 1.100e+04 7.999e-10
 19.77408    177.3 1.137e+04 1.080e-09
 19.79047    178.1 1.102e+04 8.462e-10
 19.81022    178.8 1.062e+04 6.428e-10
 19.82996    179.3 1.018e+04 4.888e-10
 19.84702    179.7 9.755e+03 3.897e-10
 19.85690    180.3 1.026e+04 4.883e-10
 19.86946    180.5 9.790e+03 3.988e-10
 19.88920    180.9 9.462e+03 3.568e-10
 19.90895    181.3 9.282e+03 3.340e-10
 19.92521    182.0 9.243e+03 3.295e-10
 19.93509    182.2 9.331e+03 3.341e-10
 19.95842    183.1 9.228e+03 3.162e-10
 19.99801    184.5 9.245e+03 3.200e-10
 20.03751    185.8 9.287e+03 3.262e-10
 20.06783    186.8 9.331e+03 3.270e-10
 20.08702    186.4 9.538e+03 3.828e-10
 20.09609    185.5 9.844e+03 4.527e-10
 20.11640    185.3 1.058e+04 6.382e-10
 20.15599    185.1 1.111e+04 8.395e-10
 20.19549    185.4 1.121e+04 9.611e-10
 20.23498    186.4 1.118e+04 9.734e-10
 20.27448    187.8 1.102e+04 9.305e-10
 20.31397    189.4 1.079e+04 8.362e-10
 20.35347    191.1 1.078e+04 8.310e-10
 20.39296    192.9 1.091e+04 8.874e-10
 20.41831    194.5 1.128e+04 1.039e-09
 20.43805    194.1 1.034e+04 4.977e-10
 20.47195    195.4 1.049e+04 5.139e-10
 20.50906    196.4 1.056e+04 5.285e-10
 20.52881    196.8 1.106e+04 7.050e-10
 20.55094    197.2 1.116e+04 7.105e-10
 20.59044    197.6 1.113e+04 6.901e-10
 20.62993    198.0 1.100e+04 6.161e-10
 20.66943    198.5 1.077e+04 5.142e-10
 20.70892    199.1 1.054e+04 4.168e-10
 20.74032    199.9 1.037e+04 3.413e-10
 20.76007    199.7 9.846e+03 2.625e-10
 20.78791    200.7 9.782e+03 2.204e-10
 20.82741    201.7 9.754e+03 1.865e-10
 20.86690    202.7 9.739e+03 1.607e-10
 20.90640    203.7 9.682e+03 1.440e-10
 20.94589    204.6 9.533e+03 1.410e-10
 20.97003    205.7 9.517e+03 1.415e-10
 20.98978    205.8 9.532e+03 1.467e-10
 21.02488    206.8 9.519e+03 1.489e-10
 21.06234    207.8 9.522e+03 1.583e-10
 21.08209    207.6 9.520e+03 1.617e-10
 21.10387    208.2 9.621e+03 1.838e-10
 21.14336    208.6 9.816e+03 2.283e-10
 21.18286    208.8 1.011e+04 3.067e-10
 21.22235    208.7 1.058e+04 4.573e-10
 21.26185    208.5 1.129e+04 7.575e-10
 21.30134    208.1 1.215e+04 1.265e-09
 21.34084    207.3 1.292e+04 1.714e-09
 21.38033    205.4 1.307e+04 1.701e-09
 21.40411    202.7 1.300e+04 1.317e-09
 21.41529    201.0 1.283e+04 1.187e-09
 21.43101    198.6 1.209e+04 8.581e-10
 21.45932    196.0 1.128e+04 5.875e-10
 21.49882    194.2 1.049e+04 4.890e-10
 21.53831    193.9 1.036e+04 4.884e-10
 21.57781    193.8 1.032e+04 4.891e-10
 21.61730    193.9 1.026e+04 4.828e-10
 21.65680    194.3 1.019e+04 4.684e-10
 21.69629    194.9 1.012e+04 4.573e-10
 21.72613    195.6 1.007e+04 4.508e-10
 21.74587    195.1 9.875e+03 3.442e-10
 21.77528    195.8 9.854e+03 3.368e-10
 21.81478    196.6 9.808e+03 3.282e-10
 21.85249    197.5 9.729e+03 3.164e-10
 21.87224    197.9 9.621e+03 3.023e-10
 21.89377    198.8 9.465e+03 2.791e-10
 21.93326    199.9 9.284e+03 2.528e-10
 21.97276    201.1 9.101e+03 2.278e-10
 22.01225    202.4 8.921e+03 2.114e-10
 22.04814    203.8 8.855e+03 2.093e-10
 22.06789    204.1 8.985e+03 2.004e-10
 22.09124    205.7 8.974e+03 2.062e-10
 22.13074    207.1 9.005e+03 2.228e-10
 22.17023    208.4 9.095e+03 2.501e-10
 22.20973    209.4 9.208e+03 2.865e-10
 22.24922    210.2 9.304e+03 3.271e-10
 22.28872    210.8 9.394e+03 3.657e-10
 22.31346    211.0 9.381e+03 3.872e-10
 22.33321    211.7 9.269e+03 3.558e-10
 22.36771    211.9 9.291e+03 3.804e-10
 22.38991    211.9 9.276e+03 3.789e-10
 22.40966    213.1 9.768e+03 4.991e-10
 22.44670    212.9 9.774e+03 4.960e-10
 22.48619    212.2 9.691e+03 4.581e-10
 22.52569    211.3 9.435e+03 3.665e-10
 22.56518    210.1 9.026e+03 2.611e-10
 22.60468    208.7 8.515e+03 1.834e-10
 22.64417    207.3 8.393e+03 1.720e-10
 22.68367    206.2 8.419e+03 1.771e-10
 22.71193    205.3 8.609e+03 2.053e-10
 22.72170    206.2 8.734e+03 2.210e-10
 22.73284    206.0 8.733e+03 2.229e-10
 22.75259    205.3 8.862e+03 2.440e-10
 22.76437    204.4 9.346e+03 3.233e-10
 22.77424    206.7 8.858e+03 2.430e-10
 22.79208    205.7 9.400e+03 3.315e-10
 22.81183    204.7 1.004e+04 5.090e-10
 22.83158    203.9 1.063e+04 8.146e-10
 22.85133    202.8 1.167e+04 1.342e-09
 22.87107    200.8 1.375e+04 2.334e-09
 22.88261    197.9 1.627e+04 4.191e-09
 22.89249    194.6 1.776e+04 7.201e-09
 22.91057    191.7 1.857e+04 1.052e-08
 22.93032    188.6 1.857e+04 1.113e-08
 22.95006    185.6 1.835e+04 1.054e-08
 22.96981    183.0 1.769e+04 8.297e-09
 22.98498    180.4 1.689e+04 5.353e-09
 22.99486    181.5 1.760e+04 6.838e-09
 23.00931    177.9 1.682e+04 3.948e-09
 23.02905    173.0 1.558e+04 2.085e-09
 23.04362    167.5 1.344e+04 1.160e-09
 23.05350    161.8 1.308e+04 1.371e-09
 23.06855    159.1 1.268e+04 1.320e-09
 23.08830    157.5 1.266e+04 1.330e-09
 23.10804    156.0 1.265e+04 1.371e-09
 23.12779    154.6 1.256e+04 1.435e-09
 23.14754    153.3 1.245e+04 1.451e-09
 23.16729    152.4 1.224e+04 1.443e-09
 23.18703    151.9 1.196e+04 1.358e-09
 23.20463    151.8 1.162e+04 1.199e-09
 23.21332    150.8 1.190e+04 1.339e-09
 23.21547    150.5 1.182e+04 1.360e-09
 23.22653    150.6 1.134e+04 9.821e-10
 23.24628    150.7 1.096e+04 7.849e-10
 23.27599    151.0 1.043e+04 5.389e-10
 23.31559    150.6 9.556e+03 2.851e-10
 23.35508    149.9 8.679e+03 1.575e-10
 23.37571    149.5 8.295e+03 1.309e-10
 23.39546    147.4 8.129e+03 1.187e-10
 23.43407    147.9 8.160e+03 1.218e-10
 23.47357    148.1 8.341e+03 1.397e-10
 23.51306    147.9 8.736e+03 1.839e-10
 23.55256    147.5 9.242e+03 2.559e-10
 23.59205    147.1 9.600e+03 3.096e-10
 23.63155    146.4 9.667e+03 3.105e-10
 23.65689    145.4 9.646e+03 2.882e-10
 23.67664    146.2 9.957e+03 3.593e-10
 23.69773    145.2 9.780e+03 2.861e-10
 23.71747    143.1 9.590e+03 2.324e-10
 23.75003    141.8 9.221e+03 1.523e-10
 23.78953    140.7 8.872e+03 1.239e-10
 23.82902    140.3 8.839e+03 1.262e-10
 23.86852    140.2 8.838e+03 1.400e-10
 23.90801    140.6 8.936e+03 1.694e-10
 23.94751    141.2 9.108e+03 2.086e-10
 23.98700    141.8 9.297e+03 2.521e-10
 24.01974    142.4 9.533e+03 3.001e-10
 24.03949    141.2 9.465e+03 3.015e-10
 24.06599    141.3 9.623e+03 3.452e-10
 24.09812    140.9 9.722e+03 3.845e-10
 24.11777    140.9 9.799e+03 4.409e-10
 24.13491    141.6 1.010e+04 5.559e-10
 24.15466    142.1 1.058e+04 7.363e-10
 24.17441    142.3 1.108e+04 9.428e-10
 24.19043    142.2 1.149e+04 1.136e-09
 24.20030    141.5 1.086e+04 8.802e-10
 24.21390    141.4 1.108e+04 9.741e-10
 24.23365    141.2 1.123e+04 9.980e-10
 24.25340    140.8 1.123e+04 9.776e-10
 24.27314    140.0 1.119e+04 9.236e-10
 24.29289    138.7 1.104e+04 8.128e-10
 24.31264    137.7 1.080e+04 7.097e-10
 24.32841    136.4 1.064e+04 6.791e-10
 24.33829    136.0 1.038e+04 5.871e-10
 24.35144    135.4 1.027e+04 5.786e-10
 24.36141    135.6 1.034e+04 5.976e-10
 24.38195    134.5 1.050e+04 6.822e-10
 24.42145    133.8 1.070e+04 7.867e-10
 24.46094    133.4 1.080e+04 8.434e-10
 24.50044    133.0 1.071e+04 8.205e-10
 24.52242    132.4 1.059e+04 7.868e-10
 24.53220    132.3 1.060e+04 7.953e-10
 24.54903    132.2 1.048e+04 7.672e-10
 24.55900    132.0 1.048e+04 7.516e-10
 24.56945    131.7 1.037e+04 7.301e-10
 24.58910    131.8 1.030e+04 7.076e-10
 24.60885    131.8 1.026e+04 6.902e-10
 24.62860    131.8 1.024e+04 6.767e-10
 24.64835    131.8 1.023e+04 6.690e-10
 24.66809    131.9 1.023e+04 6.672e-10
 24.68333    131.9 1.022e+04 6.636e-10
 24.69320    132.2 1.028e+04 6.793e-10
 24.70759    132.2 1.031e+04 6.916e-10
 24.72734    132.3 1.037e+04 7.180e-10
 24.74708    132.3 1.048e+04 7.612e-10
 24.76683    132.3 1.061e+04 8.186e-10
 24.77952    132.3 1.074e+04 8.813e-10
 24.78939    131.7 1.093e+04 9.720e-10
 24.80633    131.7 1.096e+04 9.872e-10
 24.82607    131.7 1.093e+04 9.757e-10
 24.84434    131.8 1.081e+04 9.250e-10
 24.85421    132.2 1.080e+04 8.957e-10
 24.86557    132.4 1.066e+04 8.257e-10
 24.89529    132.5 1.043e+04 7.015e-10
 24.93488    132.2 9.895e+03 4.828e-10
 24.97437    131.7 9.187e+03 2.957e-10
 25.00032    130.8 8.656e+03 2.063e-10
 25.01175    130.8 8.560e+03 2.027e-10
 25.02529    130.0 8.483e+03 1.921e-10
 25.05336    129.3 8.530e+03 1.975e-10
 25.09286    128.4 8.958e+03 2.510e-10
 25.13235    128.3 9.550e+03 3.623e-10
 25.16188    128.0 9.759e+03 4.284e-10
 25.17623    128.0 1.000e+04 5.168e-10
 25.18610    127.9 1.008e+04 5.484e-10
 25.20128    127.8 1.027e+04 6.547e-10
 25.22074    126.6 1.121e+04 8.911e-10
 25.23062    127.4 1.082e+04 8.797e-10
 25.24077    124.8 1.297e+04 1.512e-09
 25.26052    120.4 1.627e+04 3.410e-09
 25.28026    116.7 1.804e+04 7.167e-09
 25.29503    114.9 1.867e+04 9.976e-09
 25.30485    113.7 1.922e+04 1.310e-08
 25.31473    112.4 1.983e+04 1.761e-08
 25.32460    111.3 2.041e+04 2.232e-08
 25.33447    110.2 2.092e+04 2.487e-08
 25.34083    108.8 2.099e+04 2.467e-08
 25.34350    109.5 2.098e+04 2.428e-08
 25.34702    108.6 2.131e+04 2.559e-08
 25.35422    106.8 2.154e+04 2.170e-08
 25.36409    105.0 2.154e+04 1.670e-08
 25.37397    102.4 2.109e+04 1.187e-08
 25.38384    100.3 2.016e+04 9.230e-09
 25.39870     96.4 1.845e+04 5.964e-09
 25.41850     92.2 1.561e+04 3.194e-09
 25.43824     88.9 1.281e+04 1.705e-09
 25.45123     87.0 1.132e+04 9.897e-10
 25.46110     87.7 1.143e+04 1.009e-09
 25.47774     86.0 1.078e+04 6.382e-10
 25.49749     84.8 1.047e+04 4.688e-10
 25.50812     84.1 1.011e+04 3.973e-10
 25.51800     83.1 9.910e+03 3.346e-10
 25.53698     83.0 9.891e+03 3.340e-10
 25.55673     83.5 9.914e+03 3.481e-10
 25.57648     83.7 9.958e+03 3.563e-10
 25.59622     84.3 1.000e+04 3.760e-10
 25.61597     84.6 1.007e+04 4.020e-10
 25.63572     85.1 1.018e+04 4.482e-10
 25.65547     85.6 1.034e+04 5.121e-10
 25.66913     86.1 1.051e+04 5.838e-10
 25.67564     85.7 1.040e+04 5.448e-10
 25.68172     85.4 1.084e+04 6.996e-10
 25.69496     85.9 1.101e+04 7.781e-10
 25.71471     86.2 1.120e+04 8.535e-10
 25.73446     86.5 1.139e+04 9.223e-10
 25.75420     86.5 1.157e+04 9.789e-10
 25.77395     86.5 1.170e+04 1.017e-09
 25.79370     86.4 1.173e+04 1.020e-09
 25.81345     86.7 1.173e+04 1.009e-09
 25.84317     86.3 1.161e+04 9.239e-10
 25.88276     86.1 1.132e+04 8.211e-10
 25.92225     85.5 1.079e+04 6.489e-10
 25.96175     85.6 1.020e+04 4.356e-10
 25.99134     85.4 9.694e+03 2.794e-10
 26.01109     85.6 9.732e+03 2.813e-10
 26.04074     85.3 9.445e+03 2.118e-10
 26.08023     85.0 9.412e+03 2.087e-10
 26.11973     84.8 9.424e+03 2.153e-10
 26.15922     84.5 9.551e+03 2.479e-10
 26.19872     84.2 9.785e+03 2.969e-10
 26.23821     83.8 9.976e+03 3.299e-10
 26.27771     83.2 1.001e+04 3.325e-10
 26.31336     82.9 9.976e+03 3.213e-10
 26.33311     82.2 1.015e+04 3.663e-10
 26.34376     82.1 9.941e+03 3.251e-10
 26.36350     82.2 9.981e+03 3.275e-10
 26.39619     82.2 9.806e+03 3.022e-10
 26.43569     82.5 9.727e+03 2.998e-10
 26.47518     83.2 9.721e+03 3.087e-10
 26.51468     84.2 9.825e+03 3.302e-10
 26.55417     85.2 9.931e+03 3.465e-10
 26.59367     86.4 9.949e+03 3.458e-10
 26.63316     87.7 9.924e+03 3.333e-10
 26.65513     89.1 9.885e+03 3.181e-10
 26.67487     88.4 9.749e+03 2.765e-10
 26.71215     89.8 9.739e+03 2.772e-10
 26.75165     91.3 9.727e+03 2.804e-10
 26.78498     92.9 9.716e+03 2.856e-10
 26.80463     93.0 9.813e+03 3.207e-10
 26.81594     94.1 9.803e+03 3.251e-10
 26.82581     93.9 9.772e+03 3.147e-10
 26.84032     94.5 9.776e+03 3.185e-10
 26.86006     95.6 9.780e+03 3.287e-10
 26.87981     96.2 9.780e+03 3.355e-10
 26.89956     97.2 9.776e+03 3.516e-10
 26.91931     98.0 9.787e+03 3.695e-10
 26.93905     99.1 9.843e+03 4.095e-10
 26.95880    100.6 1.002e+04 4.783e-10
 26.97695    102.1 1.027e+04 5.718e-10
 26.98682    102.1 1.008e+04 5.099e-10
 26.99830    103.6 1.038e+04 6.063e-10
 27.01527    104.9 1.067e+04 7.115e-10
 27.02515    104.7 1.102e+04 7.813e-10
 27.03779    105.5 1.157e+04 9.712e-10
 27.05754    106.0 1.252e+04 1.316e-09
 27.07728    106.6 1.380e+04 1.962e-09
 27.09703    107.2 1.506e+04 3.005e-09
 27.11678    107.7 1.579e+04 3.987e-09
 27.13047    108.1 1.605e+04 4.487e-09
 27.13536    107.7 1.633e+04 4.959e-09
 27.14137    108.1 1.681e+04 5.939e-09
 27.14773    108.7 1.739e+04 7.312e-09
 27.15267    108.4 1.736e+04 7.405e-09
 27.16111    109.1 1.789e+04 9.125e-09
 27.17099    109.7 1.855e+04 1.124e-08
 27.18086    110.2 1.911e+04 1.344e-08
 27.19074    110.6 1.955e+04 1.580e-08
 27.20061    111.0 1.988e+04 1.779e-08
 27.21048    111.4 2.019e+04 1.952e-08
 27.22036    111.8 2.052e+04 2.099e-08
 27.23522    112.4 2.045e+04 2.143e-08
 27.24576    113.3 2.087e+04 2.389e-08
 27.25564    112.3 2.126e+04 2.332e-08
 27.27476    113.1 2.133e+04 2.310e-08
 27.29451    114.0 2.132e+04 2.179e-08
 27.30884    115.3 2.126e+04 1.987e-08
 27.31871    115.8 2.089e+04 1.522e-08
 27.33400    117.4 2.090e+04 1.380e-08
 27.35375    119.0 2.088e+04 1.228e-08
 27.37350    121.0 2.102e+04 1.091e-08
 27.39324    123.0 2.141e+04 9.640e-09
 27.41299    124.8 2.189e+04 8.223e-09
 27.43274    126.9 2.249e+04 6.683e-09
 27.45249    128.9 2.319e+04 5.499e-09
 27.46638    130.9 2.381e+04 4.762e-09
 27.47387    125.5 1.703e+04 1.007e-09
 27.47972    125.9 1.674e+04 7.739e-10
 27.49198    128.4 1.613e+04 8.832e-10
 27.51173    129.5 1.483e+04 1.026e-09
 27.53148    129.1 1.439e+04 1.208e-09
 27.54624    128.8 1.482e+04 1.425e-09
 27.55519    128.2 1.588e+04 1.746e-09
 27.56013    129.4 1.477e+04 1.466e-09
 27.56594    129.0 1.553e+04 1.753e-09
 27.57581    127.4 1.781e+04 2.464e-09
 27.58152    123.8 2.273e+04 4.667e-09
 27.58646    123.0 2.053e+04 4.117e-09
 27.59556    118.6 2.506e+04 8.669e-09
 27.60543    114.0 2.764e+04 1.948e-08
 27.61531    110.0 2.822e+04 4.132e-08
 27.62518    106.3 2.782e+04 7.660e-08
 27.63505    102.4 2.797e+04 1.113e-07
 27.64063     97.5 3.003e+04 1.313e-07
 27.64557    101.2 2.904e+04 1.544e-07
 27.65480     94.7 3.139e+04 1.930e-07
 27.66467     86.9 3.646e+04 1.425e-07
 27.67455     77.8 4.232e+04 6.443e-08
 27.68442     66.8 3.830e+04 3.340e-08
 27.69183     56.8 2.429e+04 3.673e-08
 27.69677     63.4 3.361e+04 4.589e-08
 27.70417     56.3 2.307e+04 5.750e-08
 27.71404     54.0 2.186e+04 7.116e-08
 27.72114     52.7 2.176e+04 7.748e-08
 27.72608     51.7 2.217e+04 7.319e-08
 27.73379     50.8 2.201e+04 6.148e-08
 27.74366     50.1 2.212e+04 4.179e-08
 27.75354     48.6 2.230e+04 2.528e-08
 27.76341     45.9 2.183e+04 1.376e-08
 27.77329     44.3 2.107e+04 1.098e-08
 27.78815     40.8 1.942e+04 4.935e-09
 27.80174     34.1 1.468e+04 1.787e-09
 27.81161     30.3 1.336e+04 1.700e-09
 27.82769     30.1 1.203e+04 1.109e-09
 27.84744     31.6 1.175e+04 9.688e-10
 27.86718     33.4 1.167e+04 8.968e-10
 27.88693     34.6 1.158e+04 8.421e-10
 27.90668     35.5 1.138e+04 7.952e-10
 27.91748     36.3 1.111e+04 7.533e-10
 27.92735     35.8 1.138e+04 8.625e-10
 27.94617     36.7 1.113e+04 8.071e-10
 27.96275     37.8 1.093e+04 7.447e-10
 27.97262     38.1 1.096e+04 7.580e-10
 27.98567     39.0 1.080e+04 6.720e-10
 28.00542     39.2 1.069e+04 6.120e-10
 28.02516     39.2 1.068e+04 6.063e-10
 28.04491     38.9 1.085e+04 6.538e-10
 28.06466     37.6 1.149e+04 8.800e-10
 28.08441     35.8 1.263e+04 1.505e-09
 28.10415     34.7 1.373e+04 2.711e-09
 28.12376     34.5 1.488e+04 4.641e-09
 28.13363     34.6 1.496e+04 4.158e-09
 28.13809     34.2 1.610e+04 6.852e-09
 28.14797     34.0 1.605e+04 5.929e-09
 28.16340     33.6 1.689e+04 8.820e-09
 28.18314     33.4 1.740e+04 1.093e-08
 28.20289     32.5 1.794e+04 1.118e-08
 28.22264     29.7 1.876e+04 1.123e-08
 28.24239     25.0 1.953e+04 1.174e-08
 28.26213     20.8 1.901e+04 1.135e-08
 28.27690     19.2 1.886e+04 1.253e-08
 28.28672     18.8 1.852e+04 1.156e-08
 28.29454     18.2 1.839e+04 1.038e-08
 28.29948     17.8 1.855e+04 1.413e-08
 28.30647     17.4 1.836e+04 1.219e-08
 28.31634     17.2 1.819e+04 9.771e-09
 28.32621     17.0 1.788e+04 7.604e-09
 28.33609     16.1 1.714e+04 5.464e-09
 28.34596     15.4 1.646e+04 4.753e-09
 28.35866     14.3 1.482e+04 2.898e-09
 28.36858     15.2 1.593e+04 4.521e-09
 28.38062     13.2 1.378e+04 2.417e-09
 28.40037     11.3 1.221e+04 1.485e-09
 28.42011     13.6 1.095e+04 9.587e-10
 28.44983     12.7 1.120e+04 8.700e-10
 28.48942     13.5 1.053e+04 6.113e-10
 28.52892     13.8 9.737e+03 4.167e-10
 28.56841     14.9 9.590e+03 3.966e-10
 28.58939     13.7 1.019e+04 5.206e-10
 28.60821     14.6 1.045e+04 6.210e-10
 28.62673     15.4 1.039e+04 6.284e-10
 28.63743     12.9 1.099e+04 8.228e-10
 28.65708     14.9 1.043e+04 7.646e-10
 28.67683     15.4 1.065e+04 8.886e-10
 28.69658     16.7 1.076e+04 9.700e-10
 28.71633     17.3 1.108e+04 1.065e-09
 28.73607     17.4 1.117e+04 1.049e-09
 28.75582     16.8 1.137e+04 1.067e-09
 28.77557     16.5 1.123e+04 1.009e-09
 28.78754     15.8 1.105e+04 9.480e-10
 28.79742     16.3 1.084e+04 8.651e-10
 28.80981     16.4 1.061e+04 7.477e-10
 28.81968     16.5 1.061e+04 7.545e-10
 28.83481     16.4 1.033e+04 6.227e-10
 28.85456     15.9 1.011e+04 5.063e-10
 28.87430     15.2 9.859e+03 4.019e-10
 28.89405     14.6 9.680e+03 3.126e-10
 28.91380     13.0 9.898e+03 3.335e-10
 28.93355     12.5 9.965e+03 3.491e-10
 28.94855     11.9 9.906e+03 3.969e-10
 28.96840     12.8 9.901e+03 3.674e-10
 28.99289     12.5 9.646e+03 3.497e-10
 29.01254     12.9 9.658e+03 3.448e-10
 29.03042     12.0 9.956e+03 3.638e-10
 29.04029     12.7 9.772e+03 3.501e-10
 29.05203     11.7 1.026e+04 3.960e-10
 29.07178      9.5 1.102e+04 5.867e-10
 29.09153      8.3 1.119e+04 8.079e-10
 29.10956      8.2 1.120e+04 1.122e-09
 29.11943      8.6 1.105e+04 9.019e-10
 29.13102      9.4 1.116e+04 1.164e-09
 29.15077     10.0 1.156e+04 1.356e-09
 29.17052      9.7 1.217e+04 1.408e-09
 29.19026      8.4 1.236e+04 1.428e-09
 29.21001      7.5 1.195e+04 1.285e-09
 29.22976      6.6 1.169e+04 1.166e-09
 29.24951      6.1 1.138e+04 1.045e-09
 29.26091      5.6 1.116e+04 9.092e-10
 29.27078      5.9 1.112e+04 8.604e-10
 29.28044      5.2 1.084e+04 7.603e-10
 29.29032      6.2 1.093e+04 7.790e-10
 29.30875      5.8 1.054e+04 7.170e-10
 29.32850      6.2 1.014e+04 6.494e-10
 29.34824      7.2 9.516e+03 4.760e-10
 29.36799      9.2 9.409e+03 4.330e-10
 29.39771      8.2 9.606e+03 3.763e-10
 29.43730      8.3 9.123e+03 2.508e-10
 29.47184      8.3 8.675e+03 1.822e-10
 29.49159      9.0 8.643e+03 1.508e-10
 29.51629      9.0 8.316e+03 1.315e-10
 29.55579      9.2 8.393e+03 1.484e-10
 29.59278      9.3 8.721e+03 2.133e-10
 29.61253     10.8 8.521e+03 1.830e-10
 29.63478     10.7 9.066e+03 2.838e-10
 29.67427      9.5 1.020e+04 4.963e-10
 29.71377      7.8 1.127e+04 8.974e-10
 29.74329      4.5 1.095e+04 1.019e-09
 29.76294      5.4 1.083e+04 7.535e-10
 29.77334      4.0 1.102e+04 9.289e-10
 29.78322      5.5 1.077e+04 8.793e-10
 29.80244      3.1 1.207e+04 8.945e-10
 29.82218     -0.2 1.219e+04 1.117e-09
 29.84193     -1.4 1.168e+04 1.315e-09
 29.86168     -1.2 1.179e+04 1.416e-09
 29.88143     -0.9 1.207e+04 1.263e-09
 29.90117     -2.1 1.190e+04 8.129e-10
 29.92092     -4.1 1.108e+04 5.712e-10
 29.93262     -7.7 9.688e+03 3.191e-10
 29.93618     -8.4 9.573e+03 3.288e-10
 29.94422     -7.4 9.871e+03 3.790e-10
 29.96042     -7.2 9.929e+03 3.650e-10
 29.99013    -10.0 9.876e+03 3.454e-10
 30.02973    -12.5 1.010e+04 3.907e-10
 30.05925    -14.5 9.892e+03 4.495e-10
 30.07890    -13.9 1.005e+04 4.968e-10
 30.09536    -14.7 1.000e+04 5.041e-10
 30.10523    -14.5 9.761e+03 4.316e-10
 30.11840    -14.5 9.789e+03 4.267e-10
 30.13814    -14.7 9.930e+03 3.777e-10
 30.15324    -15.2 1.000e+04 3.365e-10
 30.16311    -15.9 1.001e+04 3.240e-10
 30.18761    -18.2 9.864e+03 2.922e-10
 30.22720    -21.2 9.855e+03 2.836e-10
 30.25656    -25.3 1.027e+04 3.718e-10
 30.27631    -23.4 9.692e+03 2.821e-10
 30.30619    -26.2 1.064e+04 5.423e-10
 30.34569    -28.1 1.159e+04 9.131e-10
 30.37405    -30.4 1.205e+04 1.058e-09
 30.39379    -31.5 1.226e+04 1.141e-09
 30.42468    -35.2 1.252e+04 1.051e-09
 30.46417    -40.7 1.240e+04 8.220e-10
 30.50367    -48.1 1.301e+04 8.573e-10
 30.53319    -53.1 1.351e+04 1.084e-09
 30.55284    -57.4 1.488e+04 1.631e-09
 30.57259    -62.7 1.584e+04 2.734e-09
 30.58826    -66.9 1.619e+04 4.082e-09
 30.59813    -65.4 1.647e+04 4.014e-09
 30.60434    -69.1 1.632e+04 4.798e-09
 30.61421    -71.0 1.664e+04 5.606e-09
 30.63183    -73.8 1.645e+04 5.440e-09
 30.65158    -77.1 1.579e+04 3.650e-09
 30.67132    -81.8 1.444e+04 2.021e-09
 30.69107    -86.6 1.266e+04 1.342e-09
 30.71082    -89.2 1.196e+04 1.179e-09
 30.73057    -90.2 1.183e+04 1.139e-09
 30.74927    -91.0 1.183e+04 1.126e-09
 30.75914    -90.0 1.204e+04 1.282e-09
 30.77006    -91.0 1.202e+04 1.268e-09
 30.78981    -91.9 1.195e+04 1.230e-09
 30.80956    -92.8 1.182e+04 1.200e-09
 30.82495    -93.5 1.177e+04 1.196e-09
 30.83483    -94.3 1.124e+04 9.336e-10
 30.84905    -94.6 1.122e+04 9.258e-10
 30.86880    -94.8 1.120e+04 9.021e-10
 30.88855    -94.9 1.113e+04 8.241e-10
 30.90829    -95.1 1.094e+04 6.895e-10
 30.92025    -96.0 1.056e+04 5.314e-10
 30.94009    -94.5 1.070e+04 6.403e-10
 30.97761    -94.4 1.046e+04 5.402e-10
 31.01710    -94.3 1.023e+04 4.553e-10
 31.05660    -94.0 1.004e+04 3.770e-10
 31.09609    -93.9 1.003e+04 3.378e-10
 31.13559    -93.6 1.006e+04 3.281e-10
 31.17508    -93.4 1.015e+04 3.274e-10
 31.21458    -93.2 1.034e+04 3.523e-10
 31.24236    -92.6 1.043e+04 3.993e-10
 31.26211    -91.9 1.050e+04 4.841e-10
 31.27615    -90.4 8.172e+03 6.571e-10
 31.28593    -90.6 1.018e+04 8.220e-10
 31.30324    -96.1 1.508e+04 8.421e-10
 31.32299   -107.9 2.787e+04 7.067e-10
 31.33775   -128.7 4.544e+04 2.596e-09
 31.34758   -133.2 2.927e+04 4.710e-08
 31.35745   -135.1 2.263e+04 3.473e-07
 31.36733   -136.1 2.108e+04 1.031e-06
 31.37720   -138.5 2.079e+04 1.477e-06
 31.38626   -142.3 2.088e+04 1.464e-06
 31.39120   -143.5 2.108e+04 1.424e-06
 31.39695   -148.6 2.226e+04 6.565e-07
 31.40682   -154.0 2.400e+04 1.401e-07
 31.41295   -159.3 2.324e+04 2.472e-08
 31.41789   -159.0 2.342e+04 2.346e-08
 31.42657   -163.5 1.908e+04 8.697e-09
 31.43644   -164.8 1.664e+04 5.911e-09
 31.44632   -164.9 1.582e+04 5.058e-09
 31.46117   -164.1 1.547e+04 4.216e-09
 31.48097   -163.6 1.483e+04 3.345e-09
 31.49667   -162.2 1.349e+04 2.199e-09
 31.50654   -162.9 1.379e+04 2.191e-09
 31.52047   -162.6 1.297e+04 1.666e-09
 31.54021   -162.6 1.280e+04 1.561e-09
 31.55996   -162.8 1.277e+04 1.556e-09
 31.57406   -163.0 1.291e+04 1.748e-09
 31.58393   -161.9 1.229e+04 1.359e-09
 31.59946   -161.9 1.272e+04 1.674e-09
 31.61920   -161.9 1.324e+04 2.097e-09
 31.63895   -161.7 1.371e+04 2.517e-09
 31.65870   -161.5 1.408e+04 2.863e-09
 31.67845   -161.4 1.431e+04 3.115e-09
 31.69819   -161.4 1.445e+04 3.232e-09
 31.71728   -161.6 1.449e+04 3.226e-09
 31.72715   -162.6 1.407e+04 2.620e-09
 31.73507   -163.0 1.367e+04 2.179e-09
 31.74494   -162.6 1.345e+04 2.059e-09
 31.75744   -163.0 1.302e+04 1.770e-09
 31.77718   -163.5 1.254e+04 1.504e-09
 31.79693   -163.8 1.206e+04 1.273e-09
 31.81668   -164.0 1.163e+04 1.077e-09
 31.83643   -163.9 1.129e+04 9.173e-10
 31.85617   -163.7 1.099e+04 7.874e-10
 31.87592   -163.4 1.072e+04 6.814e-10
 31.89567   -163.0 1.047e+04 5.910e-10
 31.90595   -162.6 1.021e+04 5.078e-10
 31.91583   -162.2 1.040e+04 5.632e-10
 31.93516   -161.8 1.014e+04 4.877e-10
 31.94777   -161.5 9.927e+03 4.348e-10
 31.95764   -161.6 9.837e+03 4.168e-10
 31.97466   -161.4 9.763e+03 3.983e-10
 31.99441   -161.1 9.743e+03 3.928e-10
 32.01415   -160.8 9.731e+03 3.915e-10
 32.03390   -160.5 9.774e+03 3.987e-10
 32.05365   -160.4 9.911e+03 4.311e-10
 32.06696   -160.1 1.014e+04 4.904e-10
 32.07683   -159.6 1.032e+04 5.272e-10
 32.09314   -159.4 1.056e+04 5.937e-10
 32.11289   -159.3 1.078e+04 6.569e-10
 32.13264   -159.2 1.094e+04 7.051e-10
 32.15239   -159.2 1.103e+04 7.329e-10
 32.16838   -159.3 1.106e+04 7.429e-10
 32.17826   -159.3 1.156e+04 9.489e-10
 32.19188   -159.3 1.156e+04 9.556e-10
 32.21163   -159.2 1.156e+04 9.560e-10
 32.22797   -159.1 1.153e+04 9.536e-10
 32.23784   -158.9 1.188e+04 1.069e-09
 32.25112   -158.7 1.186e+04 1.074e-09
 32.27087   -158.6 1.191e+04 1.090e-09
 32.29062   -160.5 1.365e+04 1.095e-09
 32.31037   -168.4 2.304e+04 1.845e-09
 32.33011   -176.1 2.609e+04 6.285e-09
 32.34487   -182.3 2.501e+04 2.702e-08
 32.35470   -184.1 2.407e+04 4.621e-08
 32.36457   -185.7 2.339e+04 6.438e-08
 32.37445   -186.9 2.300e+04 7.297e-08
 32.38432   -187.7 2.287e+04 7.541e-08
 32.39382   -188.4 2.244e+04 7.267e-08
 32.39875   -187.7 2.157e+04 7.753e-08
 32.40407   -189.1 2.204e+04 4.667e-08
 32.41394   -192.0 2.251e+04 2.652e-08
 32.42382   -196.3 2.254e+04 1.444e-08
 32.43369   -201.9 2.156e+04 7.877e-09
 32.44356   -208.1 1.912e+04 4.675e-09
 32.45344   -213.5 1.684e+04 3.418e-09
 32.46331   -217.2 1.622e+04 3.108e-09
 32.47318   -219.8 1.621e+04 3.065e-09
 32.48804   -223.2 1.656e+04 3.184e-09
 32.50784   -228.9 1.734e+04 4.271e-09
 32.52759   -233.3 1.841e+04 6.209e-09
 32.54733   -237.1 1.983e+04 9.301e-09
 32.55986   -240.4 2.058e+04 1.233e-08
 32.56973   -237.7 1.707e+04 5.908e-09
 32.58683   -240.3 1.742e+04 6.381e-09
 32.60658   -242.4 1.751e+04 6.493e-09
 32.61948   -243.7 1.707e+04 6.198e-09
 32.62936   -244.6 1.685e+04 4.091e-09
 32.64607   -245.4 1.590e+04 3.350e-09
 32.66582   -246.0 1.489e+04 2.608e-09
 32.68557   -246.4 1.422e+04 2.042e-09
 32.70531   -246.6 1.364e+04 1.634e-09
 32.72087   -246.7 1.318e+04 1.365e-09
 32.73074   -246.2 1.115e+04 7.161e-10
 32.74481   -246.4 1.094e+04 6.687e-10
 32.76456   -246.4 1.083e+04 6.491e-10
 32.78430   -246.4 1.079e+04 6.451e-10
 32.80405   -246.4 1.079e+04 6.529e-10
 32.82380   -246.3 1.077e+04 6.583e-10
 32.84010   -246.2 1.073e+04 6.587e-10
 32.84997   -246.2 1.042e+04 5.850e-10
 32.86329   -246.0 1.039e+04 5.818e-10
 32.88188   -245.4 1.024e+04 5.484e-10
 32.89175   -244.8 1.030e+04 5.613e-10
 32.90279   -244.1 1.012e+04 5.044e-10
 32.92254   -243.1 9.929e+03 4.348e-10
 32.94228   -242.1 9.811e+03 3.843e-10
 32.96203   -241.4 9.786e+03 3.609e-10
 32.99175   -241.5 9.810e+03 3.454e-10
 33.03134   -242.4 9.797e+03 3.184e-10
 33.06091   -243.3 9.734e+03 3.014e-10
 33.08065   -242.2 9.835e+03 3.176e-10
 33.11033   -243.1 9.868e+03 3.164e-10
 33.14983   -244.2 1.009e+04 3.360e-10
 33.17935   -244.9 1.025e+04 3.734e-10
 33.19900   -245.6 1.040e+04 4.128e-10
 33.21377   -246.4 1.054e+04 4.575e-10
 33.22364   -246.3 1.063e+04 4.916e-10
 33.23850   -247.3 1.076e+04 5.426e-10
 33.25824   -248.5 1.089e+04 5.905e-10
 33.27799   -249.9 1.102e+04 6.337e-10
 33.29120   -251.5 1.119e+04 6.805e-10
 33.30107   -251.6 1.152e+04 7.971e-10
 33.31749   -253.4 1.191e+04 9.136e-10
 33.33723   -255.3 1.232e+04 1.084e-09
 33.35698   -256.9 1.267e+04 1.295e-09
 33.37478   -258.3 1.291e+04 1.499e-09
 33.38465   -259.0 1.319e+04 1.717e-09
 33.39648   -260.6 1.328e+04 1.834e-09
 33.41622   -262.4 1.335e+04 1.869e-09
 33.43597   -264.5 1.346e+04 1.877e-09
 33.45572   -266.9 1.363e+04 1.878e-09
 33.47547   -269.6 1.377e+04 1.884e-09
 33.49521   -272.1 1.378e+04 1.901e-09
 33.51181   -274.3 1.372e+04 1.911e-09
 33.52169   -276.5 1.303e+04 1.817e-09
 33.53471   -277.7 1.255e+04 1.647e-09
 33.54566   -278.7 1.210e+04 1.395e-09
 33.55553   -279.5 1.202e+04 1.345e-09
 33.57420   -280.6 1.163e+04 1.027e-09
 33.59395   -281.9 1.119e+04 7.366e-10
 33.61370   -283.6 1.067e+04 5.177e-10
 33.63345   -285.2 1.012e+04 3.804e-10
 33.65319   -286.5 9.711e+03 3.154e-10
 33.67294   -287.3 9.578e+03 2.994e-10
 33.70266   -288.3 9.584e+03 2.965e-10
 33.74225   -290.1 9.691e+03 2.972e-10
 33.78175   -292.3 9.920e+03 3.344e-10
 33.82124   -293.9 1.021e+04 4.315e-10
 33.85800   -294.6 1.047e+04 5.394e-10
 33.87765   -296.0 1.079e+04 6.708e-10
 33.89016   -296.2 1.078e+04 6.789e-10
 33.90991   -296.4 1.073e+04 6.549e-10
 33.92966   -296.2 1.048e+04 5.385e-10
 33.94941   -295.1 1.022e+04 4.197e-10
 33.96301   -294.6 9.985e+03 3.428e-10
 33.98286   -297.7 9.689e+03 2.868e-10
 34.01872   -298.3 9.438e+03 2.396e-10
 34.05821   -298.7 9.145e+03 1.996e-10
 34.09771   -299.1 9.010e+03 1.802e-10
 34.13720   -299.4 8.987e+03 1.763e-10
 34.17670   -300.1 9.061e+03 1.782e-10
 34.19977   -302.3 9.482e+03 2.118e-10
 34.21951   -302.2 9.468e+03 2.195e-10
 34.25569   -304.9 9.921e+03 2.782e-10
 34.29518   -308.0 1.021e+04 3.397e-10
 34.33468   -311.4 1.028e+04 3.677e-10
 34.37417   -314.6 1.027e+04 3.710e-10
 34.40434   -317.2 1.019e+04 3.586e-10
 34.42408   -316.9 1.061e+04 4.837e-10
 34.45316   -318.7 1.055e+04 4.617e-10
 34.49266   -320.0 1.055e+04 4.550e-10
 34.52178   -321.2 1.070e+04 4.716e-10
 34.54153   -321.9 1.139e+04 7.145e-10
 34.57165   -323.2 1.193e+04 9.115e-10
 34.61114   -324.4 1.248e+04 1.164e-09
 34.63473   -325.5 1.309e+04 1.442e-09
 34.64450   -324.7 1.262e+04 1.223e-09
 34.66031   -325.3 1.297e+04 1.438e-09
 34.68006   -325.3 1.320e+04 1.584e-09
 34.69247   -326.1 1.355e+04 1.896e-09
 34.70234   -326.6 1.369e+04 1.955e-09
 34.71956   -327.4 1.404e+04 2.414e-09
 34.73930   -327.8 1.427e+04 2.935e-09
 34.75905   -327.8 1.440e+04 3.375e-09
 34.77880   -327.8 1.442e+04 3.604e-09
 34.79855   -327.7 1.442e+04 3.650e-09
 34.81829   -327.4 1.426e+04 3.596e-09
 34.83804   -327.1 1.393e+04 3.202e-09
 34.85348   -326.6 1.357e+04 2.688e-09
 34.86081   -326.9 1.354e+04 3.100e-09
 34.86512   -326.8 1.412e+04 3.714e-09
 34.87754   -326.1 1.356e+04 3.100e-09
 34.89728   -325.4 1.305e+04 2.528e-09
 34.91703   -324.7 1.265e+04 2.087e-09
 34.93678   -324.0 1.237e+04 1.785e-09
 34.95653   -323.3 1.220e+04 1.593e-09
 34.97627   -322.6 1.210e+04 1.471e-09
 34.99602   -321.9 1.202e+04 1.384e-09
 35.01449   -321.1 1.193e+04 1.310e-09
 35.02436   -321.3 1.180e+04 1.159e-09
 35.03552   -320.5 1.171e+04 1.104e-09
 35.05526   -319.6 1.161e+04 1.047e-09
 35.07501   -318.8 1.151e+04 9.843e-10
 35.08573   -318.0 1.141e+04 9.189e-10
 35.09560   -317.9 1.148e+04 8.665e-10
 35.11451   -317.1 1.133e+04 8.069e-10
 35.13425   -316.4 1.120e+04 7.565e-10
 35.15400   -315.7 1.110e+04 7.148e-10
 35.17375   -315.1 1.100e+04 6.790e-10
 35.18537   -314.5 1.089e+04 6.457e-10
 35.19524   -314.8 1.083e+04 5.758e-10
 35.21324   -314.0 1.069e+04 5.440e-10
 35.23299   -313.3 1.055e+04 5.000e-10
 35.25274   -312.6 1.047e+04 4.578e-10
 35.28246   -312.5 1.045e+04 4.252e-10
 35.30654   -312.2 1.041e+04 3.894e-10
 35.31632   -311.2 1.064e+04 4.177e-10
 35.33173   -311.0 1.060e+04 4.044e-10
 35.34638   -310.8 1.058e+04 3.949e-10
 35.35625   -310.8 1.065e+04 3.861e-10
 35.37122   -310.7 1.063e+04 3.857e-10
 35.39097   -310.6 1.063e+04 3.863e-10
 35.41072   -310.5 1.062e+04 3.920e-10
 35.44044   -310.8 1.069e+04 4.123e-10
 35.48003   -311.1 1.096e+04 5.079e-10
 35.50758   -311.8 1.114e+04 5.990e-10
 35.52733   -310.9 1.134e+04 5.974e-10
 35.55902   -311.7 1.133e+04 6.262e-10
 35.59851   -312.4 1.116e+04 6.036e-10
 35.63801   -312.6 1.073e+04 4.532e-10
 35.67750   -312.6 1.030e+04 3.039e-10
 35.71700   -312.6 1.000e+04 2.151e-10
 35.74777   -312.5 9.859e+03 1.655e-10
 35.76751   -312.6 1.017e+04 2.356e-10
 35.79599   -312.1 1.023e+04 2.177e-10
 35.82960   -311.3 1.028e+04 2.134e-10
 35.84935   -310.7 1.016e+04 1.954e-10
 35.87498   -309.6 1.026e+04 1.892e-10
 35.91447   -308.3 1.031e+04 1.891e-10
 35.95397   -307.0 1.038e+04 1.900e-10
 35.99346   -305.6 1.057e+04 1.903e-10
 36.03296   -304.2 1.102e+04 2.019e-10
 36.07245   -302.8 1.124e+04 2.514e-10
 36.11195   -301.4 1.135e+04 3.274e-10
 36.15144   -300.1 1.139e+04 4.114e-10
 36.18900   -297.8 1.139e+04 4.883e-10
 36.20864   -296.0 1.207e+04 6.563e-10
 36.22036   -295.4 1.209e+04 6.794e-10
 36.24011   -294.9 1.208e+04 6.850e-10
 36.25986   -294.4 1.207e+04 6.878e-10
 36.27961   -294.0 1.197e+04 6.783e-10
 36.29935   -293.6 1.184e+04 6.581e-10
 36.31910   -293.2 1.166e+04 6.230e-10
 36.33218   -292.8 1.149e+04 5.821e-10
 36.34205   -292.5 1.161e+04 5.971e-10
 36.35860   -292.2 1.145e+04 5.459e-10
 36.37834   -291.8 1.130e+04 4.932e-10
 36.39809   -291.3 1.114e+04 4.410e-10
 36.41784   -290.8 1.099e+04 3.937e-10
 36.42916   -290.3 1.086e+04 3.515e-10
 36.43903   -290.3 1.091e+04 3.576e-10
 36.45733   -289.6 1.078e+04 3.216e-10
 36.47708   -288.8 1.068e+04 2.966e-10
 36.49329   -287.9 1.062e+04 2.767e-10
 36.51313   -287.1 1.061e+04 2.854e-10
 36.54639   -285.0 1.061e+04 2.797e-10
 36.58589   -282.7 1.062e+04 2.813e-10
 36.62538   -280.3 1.068e+04 2.963e-10
 36.64997   -277.8 1.072e+04 3.272e-10
 36.66972   -277.4 1.100e+04 4.339e-10
 36.70437   -275.3 1.101e+04 4.185e-10
 36.74387   -272.7 1.096e+04 3.949e-10
 36.78336   -270.2 1.091e+04 3.752e-10
 36.81540   -267.7 1.088e+04 3.630e-10
 36.83515   -267.4 1.080e+04 2.998e-10
 36.86235   -264.9 1.079e+04 2.890e-10
 36.90185   -262.3 1.079e+04 2.858e-10
 36.94134   -259.8 1.079e+04 2.860e-10
 36.98084   -257.2 1.082e+04 2.908e-10
 37.02033   -254.6 1.085e+04 3.036e-10
 37.05983   -251.9 1.089e+04 3.173e-10
 37.09120   -249.3 1.094e+04 3.269e-10
 37.11095   -249.1 1.098e+04 2.653e-10
 37.13742   -246.6 1.098e+04 2.813e-10
 37.15717   -246.2 1.107e+04 2.502e-10
 37.17831   -243.7 1.109e+04 2.668e-10
 37.21781   -241.3 1.111e+04 2.765e-10
 37.25730   -238.8 1.113e+04 2.813e-10
 37.29680   -236.4 1.118e+04 2.834e-10
 37.33629   -234.0 1.126e+04 2.851e-10
 37.37579   -231.6 1.136e+04 2.895e-10
 37.41528   -229.3 1.149e+04 2.986e-10
 37.45478   -227.1 1.160e+04 3.134e-10
 37.47918   -224.8 1.170e+04 3.350e-10
 37.49893   -224.3 1.166e+04 2.913e-10
 37.53243   -222.1 1.173e+04 3.067e-10
 37.55217   -221.8 1.168e+04 3.926e-10
 37.57326   -219.6 1.170e+04 4.134e-10
 37.61276   -217.4 1.172e+04 4.349e-10
 37.65225   -215.3 1.172e+04 4.543e-10
 37.69175   -213.3 1.171e+04 4.642e-10
 37.73124   -211.3 1.169e+04 4.654e-10
 37.77074   -209.2 1.164e+04 4.430e-10
 37.80120   -207.0 1.160e+04 4.124e-10
 37.82085   -205.5 1.155e+04 3.946e-10
 37.84963   -203.7 1.155e+04 3.809e-10
 37.88922   -201.7 1.154e+04 3.578e-10
 37.92872   -199.8 1.150e+04 3.363e-10
 37.96821   -197.7 1.142e+04 3.148e-10
 37.99340   -195.6 1.137e+04 3.019e-10
 38.00318   -196.4 1.185e+04 3.666e-10
 38.01738   -195.6 1.188e+04 3.787e-10
 38.03713   -194.8 1.189e+04 3.970e-10
 38.05688   -194.0 1.189e+04 4.236e-10
 38.07663   -193.2 1.189e+04 4.607e-10
 38.09637   -192.5 1.191e+04 5.129e-10
 38.11612   -191.6 1.196e+04 5.807e-10
 38.13290   -190.8 1.204e+04 6.566e-10
 38.14277   -190.3 1.243e+04 9.257e-10
 38.16559   -189.5 1.253e+04 1.022e-09
 38.20518   -187.5 1.271e+04 1.187e-09
 38.24468   -186.1 1.286e+04 1.255e-09
 38.27420   -185.0 1.284e+04 1.219e-09
 38.29385   -184.5 1.290e+04 1.217e-09
 38.31360   -184.2 1.321e+04 1.201e-09
 38.33334   -184.0 1.325e+04 1.143e-09
 38.35309   -183.8 1.326e+04 1.068e-09
 38.37284   -183.7 1.324e+04 9.858e-10
 38.39259   -183.7 1.316e+04 9.130e-10
 38.41233   -183.5 1.300e+04 8.553e-10
 38.43208   -183.2 1.281e+04 8.069e-10
 38.44431   -182.8 1.261e+04 7.668e-10
 38.45428   -183.4 1.242e+04 7.841e-10
 38.46498   -181.8 1.227e+04 7.273e-10
 38.48473   -182.0 1.257e+04 9.587e-10
 38.51117   -180.4 1.219e+04 7.458e-10
 38.53082   -179.6 1.207e+04 6.872e-10
 38.55057   -178.5 1.192e+04 6.152e-10
 38.57031   -177.7 1.183e+04 5.665e-10
 38.59006   -176.6 1.173e+04 5.162e-10
 38.60981   -175.9 1.169e+04 4.814e-10
 38.62580   -174.9 1.168e+04 4.532e-10
 38.63567   -175.5 1.167e+04 4.166e-10
 38.64930   -174.6 1.169e+04 4.133e-10
 38.66492   -173.7 1.176e+04 4.120e-10
 38.67479   -174.3 1.205e+04 4.683e-10
 38.68880   -173.5 1.214e+04 4.839e-10
 38.70855   -172.8 1.213e+04 5.312e-10
 38.72829   -172.0 1.208e+04 5.836e-10
 38.74804   -171.2 1.204e+04 6.346e-10
 38.76779   -170.3 1.196e+04 6.706e-10
 38.78681   -169.5 1.192e+04 6.830e-10
 38.79668   -169.9 1.203e+04 6.919e-10
 38.80728   -169.1 1.197e+04 6.916e-10
 38.82703   -168.2 1.180e+04 6.749e-10
 38.84678   -167.3 1.162e+04 6.246e-10
 38.86653   -166.4 1.148e+04 5.713e-10
 38.88553   -165.6 1.135e+04 5.263e-10
 38.89541   -166.2 1.134e+04 5.557e-10
 38.90602   -165.2 1.127e+04 5.355e-10
 38.92577   -164.3 1.126e+04 5.316e-10
 38.94552   -163.7 1.127e+04 5.304e-10
 38.95769   -163.2 1.139e+04 5.510e-10
 38.96756   -163.2 1.145e+04 5.616e-10
 38.98501   -162.8 1.164e+04 6.501e-10
 39.00476   -162.5 1.184e+04 7.807e-10
 39.02451   -162.2 1.207e+04 9.370e-10
 39.04425   -162.0 1.227e+04 1.093e-09
 39.06400   -161.9 1.244e+04 1.218e-09
 39.08375   -162.0 1.257e+04 1.298e-09
 39.10350   -162.1 1.264e+04 1.331e-09
 39.11602   -162.5 1.267e+04 1.337e-09
 39.12135   -163.3 1.224e+04 1.048e-09
 39.12857   -163.3 1.215e+04 1.004e-09
 39.14299   -163.7 1.215e+04 9.979e-10
 39.16274   -164.3 1.217e+04 9.972e-10
 39.18249   -164.9 1.223e+04 1.030e-09
 39.20223   -165.5 1.233e+04 1.104e-09
 39.22198   -166.0 1.244e+04 1.199e-09
 39.24173   -166.4 1.254e+04 1.294e-09
 39.26148   -166.6 1.262e+04 1.359e-09
 39.27971   -166.9 1.264e+04 1.378e-09
 39.28958   -166.5 1.260e+04 1.330e-09
 39.30097   -166.7 1.259e+04 1.327e-09
 39.32072   -166.7 1.247e+04 1.274e-09
 39.33664   -166.7 1.233e+04 1.188e-09
 39.34651   -166.3 1.219e+04 1.104e-09
 39.36021   -166.3 1.210e+04 1.043e-09
 39.37996   -166.3 1.208e+04 1.018e-09
 39.39971   -166.3 1.208e+04 1.014e-09
 39.41946   -166.5 1.221e+04 1.080e-09
 39.43920   -166.7 1.255e+04 1.290e-09
 39.45059   -166.9 1.293e+04 1.583e-09
 39.46046   -166.1 1.264e+04 1.374e-09
 39.47870   -166.3 1.298e+04 1.673e-09
 39.49845   -166.8 1.318e+04 1.886e-09
 39.51819   -167.4 1.321e+04 1.942e-09
 39.53794   -168.0 1.314e+04 1.934e-09
 39.55725   -168.2 1.281e+04 1.776e-09
 39.56712   -167.9 1.288e+04 1.793e-09
 39.57744   -168.1 1.248e+04 1.579e-09
 39.59718   -168.1 1.211e+04 1.353e-09
 39.61160   -168.1 1.179e+04 1.153e-09
 39.62147   -167.4 1.197e+04 1.211e-09
 39.63668   -167.3 1.171e+04 1.041e-09
 39.65642   -167.3 1.147e+04 8.914e-10
 39.67617   -167.2 1.121e+04 7.619e-10
 39.69592   -167.1 1.092e+04 6.487e-10
 39.71567   -167.0 1.062e+04 5.493e-10
 39.73541   -166.9 1.034e+04 4.696e-10
 39.75516   -166.7 1.012e+04 4.186e-10
 39.77270   -166.4 1.001e+04 3.945e-10
 39.78258   -166.2 1.016e+04 4.152e-10
 39.78774   -165.9 1.010e+04 4.056e-10
 39.79771   -165.5 1.015e+04 4.043e-10
 39.82447   -165.1 9.970e+03 3.703e-10
 39.86397   -164.3 9.937e+03 3.649e-10
 39.90346   -163.6 9.941e+03 3.843e-10
 39.94296   -163.1 9.995e+03 4.523e-10
 39.98245   -162.7 1.003e+04 5.016e-10
 40.02195   -162.2 1.003e+04 5.106e-10
 40.06144   -161.5 9.840e+03 4.941e-10
 40.09482   -160.3 9.556e+03 4.248e-10
 40.11457   -159.8 9.680e+03 4.190e-10
 40.14043   -158.7 9.564e+03 3.970e-10
 40.17993   -157.5 9.470e+03 3.803e-10
 40.21929   -156.1 9.398e+03 3.698e-10
 40.25878   -154.0 9.335e+03 3.967e-10
 40.29841   -152.8 9.241e+03 3.707e-10
 40.33791   -151.5 9.137e+03 3.427e-10
 40.37740   -150.2 9.025e+03 3.154e-10
 40.41684   -148.8 8.900e+03 2.893e-10
 40.45633   -147.9 8.849e+03 2.794e-10
 40.49589   -146.6 8.728e+03 2.584e-10
 40.53538   -145.3 8.686e+03 2.495e-10
 40.57488   -144.1 8.685e+03 2.480e-10
 40.61437   -143.0 8.786e+03 2.634e-10
 40.65387   -142.0 8.977e+03 2.955e-10
 40.68026   -141.1 9.207e+03 3.425e-10
 40.70001   -140.5 9.229e+03 3.453e-10
 40.73286   -140.1 9.521e+03 4.166e-10
 40.75860   -139.8 9.729e+03 4.620e-10
 40.77835   -140.3 9.863e+03 4.971e-10
 40.80188   -139.8 9.809e+03 4.816e-10
 40.82153   -139.8 9.834e+03 4.794e-10
 40.84127   -139.8 9.828e+03 4.603e-10
 40.86102   -139.9 9.784e+03 4.337e-10
 40.88077   -139.9 9.677e+03 3.910e-10
 40.90052   -139.8 9.572e+03 3.593e-10
 40.91055   -139.6 9.483e+03 3.372e-10
 40.91958   -139.0 9.407e+03 3.179e-10
 40.92929   -139.8 9.466e+03 3.237e-10
 40.94001   -139.5 9.456e+03 3.152e-10
 40.95976   -139.2 9.520e+03 3.155e-10
 40.97951   -139.0 9.681e+03 3.348e-10
 40.99925   -138.7 9.827e+03 3.725e-10
 41.01900   -138.6 9.938e+03 4.369e-10
 41.03875   -138.6 1.036e+04 5.522e-10
 41.05850   -139.6 1.200e+04 8.036e-10
 41.07824   -141.5 1.503e+04 1.463e-09
 41.09030   -143.8 1.819e+04 3.085e-09
 41.10017   -146.6 2.034e+04 1.202e-08
 41.11275   -146.2 2.012e+04 8.818e-09
 41.12258   -147.7 2.075e+04 1.280e-08
 41.13107   -148.5 2.089e+04 1.825e-08
 41.13601   -147.3 2.022e+04 1.199e-08
 41.14232   -148.0 2.051e+04 1.727e-08
 41.15220   -148.4 2.071e+04 2.253e-08
 41.16207   -148.7 2.081e+04 2.702e-08
 41.17071   -148.8 2.076e+04 3.125e-08
 41.17564   -149.1 2.104e+04 3.921e-08
 41.18182   -149.1 2.072e+04 3.752e-08
 41.19169   -149.1 2.054e+04 3.426e-08
 41.20157   -149.3 2.036e+04 3.027e-08
 41.21144   -149.6 2.012e+04 2.501e-08
 41.22131   -149.9 1.984e+04 1.966e-08
 41.23119   -150.2 1.945e+04 1.523e-08
 41.24106   -150.6 1.896e+04 1.163e-08
 41.24631   -150.9 1.839e+04 8.907e-09
 41.25125   -150.5 1.841e+04 9.905e-09
 41.25615   -150.7 1.788e+04 7.727e-09
 41.26113   -152.2 1.765e+04 4.491e-09
 41.27572   -153.3 1.577e+04 2.321e-09
 41.29547   -154.3 1.384e+04 1.362e-09
 41.31521   -154.9 1.206e+04 9.073e-10
 41.33496   -155.0 1.150e+04 7.418e-10
 41.35178   -154.3 1.116e+04 6.771e-10
 41.36165   -153.9 1.144e+04 7.841e-10
 41.37445   -153.3 1.121e+04 7.443e-10
 41.39420   -152.6 1.106e+04 7.381e-10
 41.41232   -151.9 1.100e+04 7.450e-10
 41.42219   -151.9 1.057e+04 5.226e-10
 41.43370   -151.3 1.060e+04 5.880e-10
 41.45344   -150.5 1.071e+04 6.727e-10
 41.47319   -149.7 1.083e+04 7.610e-10
 41.49294   -148.8 1.095e+04 8.433e-10
 41.51269   -147.9 1.103e+04 9.068e-10
 41.53243   -147.1 1.107e+04 9.431e-10
 41.55218   -146.2 1.107e+04 9.530e-10
 41.57193   -145.4 1.105e+04 9.537e-10
 41.58227   -144.5 1.097e+04 9.326e-10
 41.58366   -144.1 1.072e+04 8.199e-10
 41.59307   -144.3 1.084e+04 7.931e-10
 41.61142   -143.4 1.076e+04 7.631e-10
 41.63117   -142.5 1.067e+04 7.244e-10
 41.65092   -141.6 1.055e+04 6.803e-10
 41.67067   -140.7 1.042e+04 6.306e-10
 41.69041   -139.8 1.031e+04 5.802e-10
 41.71016   -139.0 1.020e+04 5.330e-10
 41.72991   -138.1 1.011e+04 4.913e-10
 41.74421   -137.2 1.004e+04 4.571e-10
 41.75408   -137.8 1.029e+04 5.524e-10
 41.76940   -137.1 1.024e+04 5.283e-10
 41.78915   -136.2 1.020e+04 5.052e-10
 41.80288   -135.6 1.019e+04 4.923e-10
 41.81276   -135.4 1.011e+04 4.527e-10
 41.82865   -134.8 1.009e+04 4.442e-10
 41.84839   -134.4 1.007e+04 4.349e-10
 41.86814   -133.9 1.007e+04 4.283e-10
 41.88789   -133.5 1.009e+04 4.271e-10
 41.90522   -133.2 1.010e+04 4.258e-10
 41.91509   -133.4 1.029e+04 4.670e-10
 41.92738   -133.2 1.036e+04 4.745e-10
 41.94713   -133.1 1.043e+04 4.895e-10
 41.96688   -132.9 1.047e+04 5.079e-10
 41.98663   -132.7 1.048e+04 5.251e-10
 42.00637   -132.4 1.047e+04 5.347e-10
 42.02350   -132.1 1.047e+04 5.382e-10
 42.03337   -131.6 1.040e+04 4.933e-10
 42.04587   -130.9 1.026e+04 4.821e-10
 42.06632   -130.1 1.006e+04 4.543e-10
 42.08617   -130.9 9.896e+03 5.264e-10
 42.11518   -129.1 9.536e+03 3.887e-10
 42.15468   -127.1 9.213e+03 2.697e-10
 42.19417   -125.1 8.977e+03 1.897e-10
 42.23367   -123.2 8.817e+03 1.397e-10
 42.27316   -121.2 8.725e+03 1.107e-10
 42.31266   -119.3 8.670e+03 9.637e-11
 42.35215   -117.3 8.646e+03 9.253e-11
 42.38844   -115.4 8.641e+03 9.234e-11
 42.40819   -116.3 8.767e+03 1.437e-10
 42.43114   -114.4 8.759e+03 1.560e-10
 42.46492   -112.4 8.767e+03 1.647e-10
 42.48467   -111.9 8.932e+03 1.732e-10
 42.51013   -110.0 8.984e+03 1.784e-10
 42.54962   -108.2 9.001e+03 1.788e-10
 42.58912   -106.4 9.030e+03 1.769e-10
 42.62861   -104.8 9.043e+03 1.761e-10
 42.66811   -103.5 9.109e+03 1.772e-10
 42.70760   -102.5 9.368e+03 2.135e-10
 42.73020   -101.6 9.621e+03 2.910e-10
 42.74995   -102.8 9.831e+03 3.656e-10
 42.78659   -101.8 1.011e+04 4.495e-10
 42.82609   -101.0 1.032e+04 4.971e-10
 42.86558   -100.5 1.041e+04 5.053e-10
 42.90508   -100.0 1.045e+04 4.919e-10
 42.92589    -99.6 1.045e+04 4.845e-10
 42.94564    -99.4 1.090e+04 7.024e-10
 42.98407    -98.9 1.094e+04 6.728e-10
 43.02356    -98.6 1.091e+04 6.255e-10
 43.05212    -98.6 1.073e+04 5.550e-10
 43.07187    -99.3 1.041e+04 4.050e-10
 43.10255    -99.2 1.044e+04 3.966e-10
 43.13208    -99.3 1.056e+04 4.355e-10
 43.14631    -99.5 1.070e+04 4.480e-10
 43.15619   -100.0 1.081e+04 4.564e-10
 43.17147   -100.2 1.093e+04 5.052e-10
 43.19122   -100.2 1.100e+04 5.532e-10
 43.22094   -100.2 1.101e+04 5.821e-10
 43.26053   -100.0 1.107e+04 6.459e-10
 43.30003    -99.3 1.097e+04 6.369e-10
 43.32955    -98.7 1.096e+04 6.794e-10
 43.34920    -98.2 1.085e+04 5.550e-10
 43.36702    -97.8 1.077e+04 3.885e-10
 43.37690    -98.6 1.099e+04 5.510e-10
 43.38392    -98.5 1.088e+04 4.311e-10
 43.39389    -98.3 1.149e+04 9.144e-10
 43.40854    -97.1 1.088e+04 4.671e-10
 43.42819    -96.8 1.075e+04 3.799e-10
 43.45791    -96.6 1.052e+04 3.121e-10
 43.49750    -95.3 1.002e+04 1.983e-10
 43.53700    -93.3 9.598e+03 1.298e-10
 43.57649    -91.3 9.539e+03 1.034e-10
 43.61599    -89.4 9.566e+03 9.706e-11
 43.65548    -87.4 9.596e+03 9.614e-11
 43.69498    -85.8 9.773e+03 1.088e-10
 43.71600    -84.2 9.899e+03 1.438e-10
 43.73575    -84.2 9.921e+03 1.425e-10
 43.77397    -82.5 9.998e+03 1.943e-10
 43.80835    -80.7 1.010e+04 2.526e-10
 43.82810    -82.2 1.032e+04 3.823e-10
 43.85296    -80.5 1.035e+04 3.949e-10
 43.89245    -79.1 1.042e+04 3.458e-10
 43.93195    -78.0 1.040e+04 2.822e-10
 43.97144    -77.2 1.038e+04 2.154e-10
 44.01094    -76.7 1.027e+04 1.544e-10
 44.03802    -76.3 1.006e+04 1.083e-10
 44.05777    -76.4 1.010e+04 1.226e-10
 44.08993    -75.8 9.826e+03 9.233e-11
 44.12942    -75.2 9.708e+03 8.373e-11
 44.16892    -74.6 9.698e+03 8.278e-11
 44.20841    -74.5 1.001e+04 9.530e-11
 44.24791    -74.3 1.031e+04 1.622e-10
 44.26932    -73.7 1.059e+04 3.040e-10
 44.28907    -75.3 1.077e+04 5.315e-10
 44.32690    -74.2 1.122e+04 6.890e-10
 44.35642    -72.5 1.123e+04 7.284e-10
 44.36972    -73.1 1.217e+04 8.431e-10
 44.37969    -74.0 1.222e+04 7.417e-10
 44.39592    -72.6 1.238e+04 8.701e-10
 44.41557    -75.0 1.445e+04 1.094e-09
 44.43531    -80.2 1.835e+04 2.332e-09
 44.45506    -84.0 1.999e+04 7.408e-09
 44.46982    -86.1 2.015e+04 2.127e-08
 44.47965    -86.2 2.015e+04 3.553e-08
 44.48952    -85.7 2.009e+04 5.865e-08
 44.49458    -85.3 2.019e+04 7.217e-08
 44.49952    -85.3 1.988e+04 7.746e-08
 44.50927    -85.4 1.976e+04 7.860e-08
 44.51914    -84.8 1.904e+04 6.491e-08
 44.52902    -83.8 1.833e+04 4.175e-08
 44.53557    -83.3 1.762e+04 2.488e-08
 44.54050    -83.5 1.770e+04 2.911e-08
 44.54876    -83.4 1.724e+04 1.725e-08
 44.55864    -83.4 1.676e+04 1.058e-08
 44.56851    -83.5 1.628e+04 6.381e-09
 44.57838    -84.3 1.567e+04 4.039e-09
 44.59324    -85.0 1.488e+04 2.629e-09
 44.61304    -85.0 1.360e+04 1.220e-09
 44.63279    -85.2 1.219e+04 5.117e-10
 44.65254    -85.7 1.106e+04 2.761e-10
 44.67228    -85.9 1.052e+04 2.089e-10
 44.69174    -85.2 1.021e+04 1.858e-10
 44.70161    -85.8 1.008e+04 1.684e-10
 44.71036    -84.9 9.944e+03 1.598e-10
 44.73020    -85.1 9.842e+03 1.540e-10
 44.76134    -83.2 9.809e+03 1.535e-10
 44.80084    -81.7 9.886e+03 1.848e-10
 44.84033    -80.3 1.008e+04 2.546e-10
 44.87983    -78.8 1.027e+04 3.364e-10
 44.91932    -77.4 1.042e+04 4.110e-10
 44.94094    -76.1 1.035e+04 4.041e-10
 44.95072    -76.5 1.051e+04 4.783e-10
 44.96849    -76.0 1.046e+04 4.834e-10
 44.98824    -75.2 1.039e+04 4.970e-10
 45.00799    -74.5 1.041e+04 5.261e-10
 45.02363    -73.6 1.042e+04 5.447e-10
 45.03350    -73.5 1.046e+04 5.057e-10
 45.04748    -72.7 1.049e+04 5.291e-10
 45.06723    -71.8 1.050e+04 5.471e-10
 45.08698    -71.0 1.050e+04 5.560e-10
 45.11670    -69.9 1.047e+04 5.679e-10
 45.15178    -67.7 1.046e+04 6.103e-10
 45.17153    -68.2 1.044e+04 5.836e-10
 45.19579    -66.2 1.027e+04 5.085e-10
 45.23528    -64.3 1.003e+04 4.063e-10
 45.27478    -62.4 9.792e+03 3.340e-10
 45.31427    -60.6 9.609e+03 2.884e-10
 45.34584    -58.6 9.478e+03 2.650e-10
 45.36559    -58.6 9.542e+03 3.001e-10
 45.39326    -56.5 9.458e+03 2.859e-10
 45.43276    -54.2 9.333e+03 2.748e-10
 45.47225    -51.9 9.214e+03 2.568e-10
 45.51175    -49.5 9.131e+03 2.356e-10
 45.55124    -47.2 9.085e+03 2.228e-10
 45.59074    -45.0 9.061e+03 2.202e-10
 45.61275    -42.7 9.007e+03 2.229e-10
 45.63250    -43.7 9.036e+03 2.380e-10
 45.66786    -41.3 8.968e+03 2.277e-10
 45.68761    -41.3 8.705e+03 1.626e-10
 45.70922    -39.1 8.608e+03 1.433e-10
 45.74872    -37.1 8.519e+03 1.285e-10
 45.78821    -35.4 8.465e+03 1.223e-10
 45.82771    -33.9 8.455e+03 1.225e-10
 45.86720    -32.6 8.485e+03 1.527e-10
 45.90670    -30.7 8.568e+03 2.061e-10
 45.94619    -28.4 8.665e+03 2.405e-10
 45.98569    -26.3 8.653e+03 2.397e-10
 46.00962    -24.4 8.596e+03 2.264e-10
 46.02937    -24.8 8.445e+03 1.913e-10
 46.05398    -22.9 8.414e+03 1.911e-10
 46.07373    -24.2 8.274e+03 1.699e-10
 46.10417    -22.2 8.195e+03 1.589e-10
 46.14366    -20.1 8.192e+03 1.548e-10
 46.18316    -18.2 8.310e+03 1.604e-10
 46.22265    -16.6 8.501e+03 2.012e-10
 46.26215    -14.8 8.785e+03 2.860e-10
 46.30164    -13.0 9.209e+03 4.169e-10
 46.33164    -11.0 9.670e+03 6.100e-10
 46.35139    -11.6 1.003e+04 7.622e-10
 46.38063     -9.5 1.051e+04 9.756e-10
 46.42013     -8.2 1.093e+04 1.096e-09
 46.45962     -7.4 1.124e+04 1.178e-09
 46.49521     -7.0 1.134e+04 1.247e-09
 46.51496     -8.7 1.163e+04 1.444e-09
 46.53861     -8.1 1.131e+04 1.314e-09
 46.57811     -7.0 1.083e+04 1.117e-09
 46.61760     -5.4 1.017e+04 8.023e-10
 46.64713     -3.7 9.913e+03 6.400e-10
 46.66334     -3.7 9.802e+03 5.935e-10
 46.67321     -4.3 9.654e+03 5.474e-10
 46.68653     -4.0 9.447e+03 4.715e-10
 46.70627     -3.9 9.370e+03 4.291e-10
 46.72550     -3.6 9.269e+03 4.237e-10
 46.73538     -4.7 9.406e+03 4.780e-10
 46.74577     -4.3 9.441e+03 4.914e-10
 46.76551     -3.4 9.469e+03 5.169e-10
 46.78526     -3.3 9.509e+03 5.242e-10
 46.80501     -2.2 9.699e+03 5.949e-10
 46.82435     -2.0 9.774e+03 6.202e-10
 46.83422     -2.1 9.789e+03 6.278e-10
 46.84450     -1.1 9.913e+03 6.695e-10
 46.86425     -0.7 9.979e+03 6.845e-10
 46.88400     -0.3 1.009e+04 6.825e-10
 46.90375     -1.6 1.065e+04 7.349e-10
 46.92349     -6.0 1.253e+04 1.139e-09
 46.94324     -9.5 1.326e+04 1.842e-09
 46.95599    -10.1 1.305e+04 2.702e-09
 46.96586    -10.9 1.279e+04 2.591e-09
 46.98274     -9.7 1.252e+04 2.940e-09
 46.99523     -8.4 1.255e+04 2.766e-09
 47.00510     -8.1 1.254e+04 2.512e-09
 47.02223     -8.8 1.278e+04 1.807e-09
 47.04198    -11.9 1.249e+04 1.193e-09
 47.06173    -16.3 1.128e+04 8.499e-10
 47.08147    -18.5 1.067e+04 7.683e-10
 47.10122    -19.0 1.048e+04 7.925e-10
 47.12097    -19.0 1.044e+04 8.330e-10
 47.14072    -19.1 1.048e+04 8.553e-10
 47.15624    -19.7 1.075e+04 8.817e-10
 47.16611    -19.6 1.084e+04 9.179e-10
 47.17660    -20.4 1.101e+04 9.724e-10
 47.18648    -20.9 1.092e+04 9.553e-10
 47.19996    -21.4 1.100e+04 1.018e-09
 47.21971    -21.7 1.099e+04 1.044e-09
 47.23945    -21.8 1.097e+04 1.047e-09
 47.25920    -21.9 1.091e+04 9.784e-10
 47.27895    -22.6 1.084e+04 8.920e-10
 47.29870    -23.8 1.080e+04 8.406e-10
 47.31725    -25.5 1.088e+04 8.456e-10
 47.32712    -25.6 1.121e+04 9.175e-10
 47.33819    -27.8 1.150e+04 1.048e-09
 47.35794    -29.6 1.181e+04 1.301e-09
 47.37769    -30.7 1.192e+04 1.558e-09
 47.39722    -31.0 1.217e+04 1.741e-09
 47.40709    -30.5 1.167e+04 1.385e-09
 47.41718    -30.6 1.175e+04 1.359e-09
 47.43693    -30.7 1.170e+04 1.088e-09
 47.45668    -31.6 1.149e+04 8.365e-10
 47.47642    -32.5 1.112e+04 6.727e-10
 47.48813    -33.1 1.085e+04 5.929e-10
 47.49800    -33.5 1.105e+04 7.835e-10
 47.51592    -33.6 1.091e+04 7.476e-10
 47.53567    -33.3 1.085e+04 7.325e-10
 47.55541    -32.9 1.082e+04 7.293e-10
 47.57516    -32.5 1.078e+04 7.303e-10
 47.59491    -32.0 1.072e+04 7.198e-10
 47.61466    -31.4 1.066e+04 6.964e-10
 47.62771    -30.7 1.069e+04 6.723e-10
 47.63758    -30.5 1.064e+04 6.336e-10
 47.64914    -30.0 1.072e+04 6.128e-10
 47.65901    -30.5 1.103e+04 7.142e-10
 47.67390    -30.5 1.119e+04 7.088e-10
 47.69365    -30.7 1.136e+04 7.246e-10
 47.71339    -31.6 1.182e+04 8.646e-10
 47.73314    -32.8 1.222e+04 1.144e-09
 47.75289    -33.5 1.257e+04 1.589e-09
 47.77264    -33.8 1.278e+04 2.081e-09
 47.79238    -32.8 1.289e+04 2.453e-09
 47.81015    -31.9 1.273e+04 2.464e-09
 47.82002    -32.0 1.258e+04 2.093e-09
 47.83188    -30.7 1.204e+04 1.530e-09
 47.84832    -29.9 1.149e+04 9.884e-10
 47.85819    -29.8 1.150e+04 1.002e-09
 47.87137    -29.9 1.076e+04 5.643e-10
 47.89112    -30.3 1.030e+04 3.476e-10
 47.92084    -29.9 1.003e+04 2.560e-10
 47.96043    -28.2 9.447e+03 1.692e-10
 47.98122    -26.1 9.175e+03 1.294e-10
 48.00097    -27.0 8.826e+03 8.495e-11
 48.03942    -25.3 8.751e+03 7.506e-11
 48.07892    -23.2 8.812e+03 7.455e-11
 48.11841    -21.6 8.833e+03 8.864e-11
 48.15791    -19.5 8.887e+03 1.116e-10
 48.19740    -17.4 9.205e+03 1.439e-10
 48.23690    -16.0 9.667e+03 2.048e-10
 48.27639    -15.0 1.003e+04 3.288e-10
 48.29962    -14.0 1.058e+04 5.152e-10
 48.30672    -13.4 1.053e+04 4.892e-10
 48.32299    -15.2 1.081e+04 6.035e-10
 48.35538    -13.7 1.142e+04 9.426e-10
 48.39488    -12.3 1.178e+04 1.164e-09
 48.43437    -11.2 1.186e+04 1.219e-09
 48.47387    -10.0 1.163e+04 1.052e-09
 48.51336     -8.6 1.117e+04 7.622e-10
 48.55286     -7.2 1.066e+04 5.113e-10
 48.59235     -5.6 1.029e+04 3.536e-10
 48.62526     -3.7 1.005e+04 2.601e-10
 48.64501     -4.6 1.000e+04 2.548e-10
 48.67134     -3.0 9.956e+03 2.150e-10
 48.71084     -1.5 9.961e+03 2.202e-10
 48.74084      0.1 9.961e+03 2.528e-10
 48.76059      0.7 1.046e+04 4.077e-10
 48.78983      2.4 1.079e+04 5.178e-10
 48.81935      2.2 1.079e+04 5.750e-10
 48.83900      2.6 1.082e+04 6.425e-10
 48.85875      1.9 1.127e+04 8.105e-10
 48.87849      1.1 1.190e+04 1.023e-09
 48.89824     -0.7 1.261e+04 1.576e-09
 48.91799     -1.3 1.290e+04 2.333e-09
 48.93774     -0.9 1.315e+04 2.946e-09
 48.95695     -1.0 1.370e+04 3.266e-09
 48.96683     -0.8 1.281e+04 2.116e-09
 48.97114     -2.3 1.352e+04 2.241e-09
 48.98101     -4.6 1.395e+04 2.349e-09
 48.99698     -7.3 1.381e+04 2.344e-09
 49.01673     -9.7 1.342e+04 2.376e-09
 49.03647    -10.9 1.289e+04 2.252e-09
 49.05622    -11.5 1.250e+04 2.019e-09
 49.07597    -11.7 1.215e+04 1.607e-09
 49.09572    -12.4 1.176e+04 1.188e-09
 49.11546    -13.4 1.111e+04 8.562e-10
 49.12784    -14.5 1.045e+04 6.337e-10
 49.13771    -13.6 1.073e+04 6.871e-10
 49.15496    -14.8 1.015e+04 5.468e-10
 49.17471    -15.4 9.889e+03 4.851e-10
 49.19175    -15.6 9.785e+03 4.581e-10
 49.20162    -16.5 9.795e+03 4.396e-10
 49.22417    -16.8 9.676e+03 3.676e-10
 49.26377    -16.5 9.552e+03 3.599e-10
 49.28904    -16.1 9.456e+03 3.573e-10
 49.29882    -16.2 9.660e+03 4.183e-10
 49.31294    -16.2 9.621e+03 4.153e-10
 49.33269    -15.8 9.564e+03 3.915e-10
 49.35243    -15.7 9.548e+03 3.909e-10
 49.37218    -15.3 9.573e+03 3.875e-10
 49.39193    -15.4 9.664e+03 4.001e-10
 49.41168    -15.6 9.809e+03 4.502e-10
 49.42224    -15.9 1.013e+04 5.240e-10
 49.43211    -15.5 9.934e+03 4.272e-10
 49.44986    -15.8 1.026e+04 5.321e-10
 49.45973    -17.2 1.070e+04 8.000e-10
 49.47092    -16.7 1.079e+04 9.850e-10
 49.49067    -15.8 1.090e+04 1.089e-09
 49.51041    -14.8 1.084e+04 1.064e-09
 49.53016    -13.9 1.076e+04 8.411e-10
 49.54991    -13.7 1.068e+04 7.585e-10
 49.56966    -13.2 1.040e+04 5.998e-10
 49.58940    -13.2 1.037e+04 5.774e-10
 49.61096    -12.3 1.020e+04 4.823e-10
 49.63071    -14.1 1.069e+04 5.464e-10
 49.64285    -13.5 1.080e+04 5.670e-10
 49.66270    -13.7 1.091e+04 6.128e-10
 49.69821    -12.2 1.103e+04 7.125e-10
 49.73770    -10.2 1.110e+04 8.064e-10
 49.77720     -7.7 1.118e+04 8.324e-10
 49.81669     -5.0 1.121e+04 7.762e-10
 49.85619     -2.6 1.106e+04 6.797e-10
 49.89568     -0.2 1.083e+04 6.162e-10
 49.93308      2.6 1.086e+04 6.257e-10
 49.95282      1.2 1.078e+04 5.575e-10
 49.97467      3.8 1.090e+04 5.855e-10
 50.01417      6.4 1.100e+04 6.073e-10
 50.05366      9.1 1.111e+04 6.395e-10
 50.08427     11.7 1.115e+04 6.374e-10
 50.10402     13.0 1.133e+04 7.106e-10
 50.13265     15.7 1.146e+04 7.155e-10
 50.17215     18.0 1.154e+04 6.694e-10
 50.20167     18.5 1.140e+04 4.900e-10
 50.22132     18.8 1.119e+04 4.169e-10
 50.24107     20.0 1.103e+04 3.645e-10
 50.26082     20.2 1.096e+04 3.487e-10
 50.27465     21.3 1.083e+04 3.231e-10
 50.29449     21.1 1.066e+04 2.874e-10
 50.33013     22.3 1.068e+04 2.975e-10
 50.36962     23.0 1.075e+04 3.436e-10
 50.39915     23.6 1.085e+04 4.518e-10
 50.41880     24.2 1.098e+04 5.614e-10
 50.43566     24.9 1.120e+04 6.926e-10
 50.44553     24.4 1.103e+04 5.811e-10
 50.45829     25.0 1.128e+04 6.929e-10
 50.47804     25.5 1.152e+04 7.950e-10
 50.49779     25.9 1.173e+04 8.797e-10
 50.51753     26.2 1.186e+04 9.391e-10
 50.53518     26.5 1.197e+04 9.788e-10
 50.54505     26.8 1.239e+04 1.248e-09
 50.55703     27.1 1.252e+04 1.282e-09
 50.57678     27.4 1.268e+04 1.311e-09
 50.59652     27.6 1.286e+04 1.355e-09
 50.60654     27.8 1.302e+04 1.420e-09
 50.61641     27.9 1.270e+04 1.144e-09
 50.63602     28.3 1.283e+04 1.184e-09
 50.65577     28.7 1.288e+04 1.227e-09
 50.67551     28.9 1.289e+04 1.292e-09
 50.69526     28.6 1.323e+04 1.422e-09
 50.71501     27.5 1.444e+04 1.528e-09
 50.73476     24.6 1.969e+04 1.588e-09
 50.75450     21.1 2.263e+04 2.696e-09
 50.76567     18.6 2.175e+04 6.049e-09
 50.76879     15.1 2.294e+04 1.454e-08
 50.77239     15.4 2.442e+04 1.246e-08
 50.77909     15.4 2.302e+04 1.911e-08
 50.78896     16.1 2.206e+04 2.407e-08
 50.79884     16.7 2.154e+04 2.977e-08
 50.80871     17.5 2.133e+04 3.213e-08
 50.81859     17.7 2.140e+04 3.163e-08
 50.82846     18.0 2.161e+04 2.747e-08
 50.83833     17.5 2.196e+04 2.369e-08
 50.84795     16.3 2.236e+04 2.205e-08
 50.85289     17.5 2.198e+04 3.335e-08
 50.85808     15.3 2.265e+04 3.121e-08
 50.86795     13.8 2.289e+04 2.973e-08
 50.87588     13.4 2.325e+04 2.582e-08
 50.88081     12.4 2.567e+04 1.110e-08
 50.88770     11.8 2.422e+04 7.656e-09
 50.89758      9.7 2.194e+04 4.722e-09
 50.90745      7.6 1.914e+04 2.733e-09
 50.91732      6.3 1.694e+04 2.085e-09
 50.92720      5.6 1.542e+04 1.747e-09
 50.93339      5.3 1.524e+04 1.594e-09
 50.93833      5.2 1.605e+04 1.750e-09
 50.94694      4.8 1.631e+04 1.733e-09
 50.95682      4.4 1.699e+04 1.718e-09
 50.96669      3.5 1.786e+04 1.902e-09
 50.97657      3.4 1.821e+04 2.108e-09
 50.98618      3.1 1.855e+04 2.951e-09
 50.99611      2.7 1.643e+04 1.907e-09
 51.01122      3.2 1.709e+04 2.951e-09
 51.03097      3.7 1.787e+04 4.590e-09
 51.05072      4.1 1.831e+04 6.393e-09
 51.07046      4.5 1.866e+04 8.685e-09
 51.08956      5.3 1.890e+04 1.143e-08
 51.09939      5.2 1.978e+04 1.777e-08
 51.10991      6.5 1.965e+04 1.808e-08
 51.12971      8.3 1.942e+04 1.645e-08
 51.14945     10.1 1.881e+04 1.237e-08
 51.16920     11.4 1.778e+04 8.134e-09
 51.18895     12.1 1.666e+04 5.346e-09
 51.20689     12.4 1.563e+04 3.708e-09
 51.21677     13.9 1.563e+04 3.685e-09
 51.22844     14.2 1.488e+04 2.836e-09
 51.24819     14.5 1.422e+04 2.421e-09
 51.26045     15.1 1.403e+04 2.357e-09
 51.27032     16.0 1.430e+04 2.513e-09
 51.28769     16.7 1.435e+04 2.551e-09
 51.30743     17.0 1.449e+04 2.786e-09
 51.32718     17.4 1.454e+04 3.184e-09
 51.34693     18.1 1.449e+04 3.391e-09
 51.36668     18.8 1.431e+04 3.167e-09
 51.38642     19.5 1.376e+04 2.467e-09
 51.40617     19.7 1.249e+04 1.480e-09
 51.42146     18.7 1.158e+04 9.226e-10
 51.43133     20.4 1.390e+04 1.290e-09
 51.43738     18.5 1.229e+04 8.280e-10
 51.44726     20.1 1.557e+04 1.169e-09
 51.46541     17.8 1.365e+04 7.003e-10
 51.48516     15.9 1.228e+04 4.565e-10
 51.51488     13.9 1.113e+04 2.724e-10
 51.55447     12.0 9.216e+03 1.874e-10
 51.58266     11.8 9.171e+03 1.962e-10
 51.60241     10.2 1.099e+04 5.115e-10
 51.63346     11.1 1.090e+04 5.802e-10
 51.67296     12.9 1.099e+04 6.799e-10
 51.71245     14.7 1.097e+04 7.324e-10
 51.75195     16.5 1.082e+04 6.915e-10
 51.79144     18.1 1.057e+04 5.935e-10
 51.83094     19.6 1.034e+04 5.109e-10
 51.86893     21.0 1.014e+04 4.403e-10
 51.88868     20.9 1.023e+04 4.837e-10
 51.90468     22.5 1.011e+04 4.412e-10
 51.92443     23.1 9.694e+03 3.137e-10
 51.94942     25.0 9.707e+03 3.150e-10
 51.98892     26.7 9.756e+03 3.302e-10
 52.02841     28.3 9.796e+03 3.536e-10
 52.06791     29.7 9.842e+03 3.836e-10
 52.10740     31.2 9.803e+03 3.829e-10
 52.14690     32.6 9.667e+03 3.410e-10
 52.18639     33.9 9.423e+03 2.658e-10
 52.22589     35.1 9.113e+03 1.904e-10
 52.24644     36.3 8.857e+03 1.422e-10
 52.26619     37.7 9.255e+03 2.007e-10
 52.30488     38.4 8.825e+03 1.329e-10
 52.32991     38.6 8.842e+03 1.141e-10
 52.34965     35.1 9.341e+03 1.547e-10
 52.38387     34.7 1.065e+04 3.223e-10
 52.42336     35.7 1.151e+04 7.022e-10
 52.46286     37.7 1.192e+04 1.135e-09
 52.50235     39.7 1.203e+04 1.349e-09
 52.54185     41.5 1.188e+04 1.265e-09
 52.56846     43.6 1.159e+04 1.067e-09
 52.58821     42.7 1.158e+04 9.849e-10
 52.61086     43.8 1.133e+04 8.734e-10
 52.63051     44.8 1.109e+04 7.552e-10
 52.65026     45.7 1.089e+04 6.533e-10
 52.67001     46.6 1.078e+04 5.980e-10
 52.68976     47.3 1.073e+04 5.913e-10
 52.70950     48.1 1.072e+04 5.965e-10
 52.72925     49.1 1.073e+04 6.194e-10
 52.74900     49.8 1.066e+04 5.957e-10
 52.76875     50.9 1.079e+04 6.681e-10
 52.78081     52.0 1.090e+04 7.364e-10
 52.79069     51.4 1.083e+04 7.053e-10
 52.80824     52.3 1.097e+04 7.635e-10
 52.82799     53.1 1.109e+04 8.142e-10
 52.84774     53.7 1.118e+04 8.601e-10
 52.86748     54.2 1.124e+04 9.043e-10
 52.88723     54.6 1.128e+04 9.469e-10
 52.90016     55.0 1.131e+04 9.845e-10
 52.91003     55.0 1.145e+04 1.034e-09
 52.92673     55.3 1.145e+04 1.020e-09
 52.94647     55.6 1.139e+04 9.796e-10
 52.96622     55.7 1.127e+04 9.089e-10
 52.98597     55.6 1.112e+04 8.262e-10
 53.00143     55.5 1.095e+04 7.532e-10
 53.01130     54.8 1.078e+04 6.608e-10
 53.02546     54.4 1.066e+04 6.233e-10
 53.04521     53.8 1.055e+04 6.035e-10
 53.06117     53.3 1.047e+04 5.936e-10
 53.07104     52.9 1.041e+04 5.746e-10
 53.08471     52.6 1.031e+04 5.578e-10
 53.10445     52.3 1.021e+04 5.318e-10
 53.12420     52.0 1.005e+04 4.649e-10
 53.14395     51.7 9.942e+03 4.277e-10
 53.17367     52.2 9.680e+03 3.582e-10
 53.21236     52.8 9.215e+03 2.523e-10
 53.23211     52.8 9.112e+03 2.315e-10
 53.25275     53.7 8.799e+03 1.745e-10
 53.29225     54.8 8.583e+03 1.424e-10
 53.33174     56.2 8.452e+03 1.253e-10
 53.37124     57.8 8.364e+03 1.137e-10
 53.41073     59.5 8.287e+03 1.025e-10
 53.45023     61.3 8.200e+03 9.092e-11
 53.48972     63.0 8.124e+03 8.366e-11
 53.52922     64.7 8.115e+03 8.317e-11
 53.55426     66.3 8.135e+03 8.450e-11
 53.57401     67.2 8.271e+03 9.149e-11
 53.60821     68.8 8.310e+03 9.730e-11
 53.64770     70.0 8.496e+03 1.156e-10
 53.67334     71.1 8.783e+03 1.522e-10
 53.69308     71.2 8.659e+03 1.301e-10
 53.72669     72.2 8.871e+03 1.660e-10
 53.76619     73.2 9.141e+03 2.103e-10
 53.80568     73.7 9.462e+03 2.613e-10
 53.84518     73.7 9.624e+03 2.901e-10
 53.87470     73.8 9.722e+03 3.289e-10
 53.88596     73.2 1.009e+04 4.187e-10
 53.89523     73.9 1.006e+04 4.040e-10
 53.90363     74.7 9.892e+03 3.458e-10
 53.91410     73.5 1.049e+04 4.805e-10
 53.93385     71.3 1.179e+04 8.613e-10
 53.95359     69.0 1.312e+04 1.734e-09
 53.97334     67.4 1.412e+04 3.107e-09
 53.99309     66.1 1.464e+04 3.901e-09
 54.01284     64.7 1.463e+04 3.749e-09
 54.03258     63.4 1.424e+04 2.826e-09
 54.04697     62.0 1.350e+04 1.611e-09
 54.05684     63.6 1.357e+04 1.836e-09
 54.08205     57.5 1.207e+04 5.677e-10
 54.11456     52.0 1.001e+04 3.401e-10
 54.13431     55.4 1.078e+04 4.036e-10
 54.16114     53.0 1.017e+04 3.903e-10
 54.19830     51.7 1.021e+04 4.508e-10
 54.21804     53.0 1.009e+04 3.913e-10
 54.23016     51.5 1.010e+04 4.356e-10
 54.24981     50.9 1.015e+04 4.814e-10
 54.26955     50.5 1.028e+04 5.287e-10
 54.28930     49.9 1.042e+04 5.528e-10
 54.30905     48.9 1.055e+04 5.628e-10
 54.32880     48.0 1.053e+04 5.538e-10
 54.34486     47.1 1.047e+04 5.438e-10
 54.35473     48.2 1.056e+04 5.603e-10
 54.36829     47.2 1.058e+04 5.694e-10
 54.37886     45.6 1.083e+04 6.323e-10
 54.38873     44.6 1.120e+04 7.693e-10
 54.40779     40.6 1.244e+04 1.245e-09
 54.42753     36.6 1.379e+04 2.429e-09
 54.44728     34.2 1.461e+04 3.928e-09
 54.46703     32.7 1.458e+04 4.146e-09
 54.48678     31.5 1.437e+04 3.620e-09
 54.50652     29.8 1.378e+04 2.336e-09
 54.52627     26.6 1.263e+04 1.220e-09
 54.53987     22.2 1.103e+04 6.638e-10
 54.54974     20.0 1.052e+04 5.699e-10
 54.56547     17.9 1.026e+04 4.738e-10
 54.57534     17.1 1.055e+04 5.318e-10
 54.59549     14.0 1.105e+04 7.005e-10
 54.63508     12.8 1.139e+04 9.325e-10
 54.67457     12.6 1.170e+04 1.229e-09
 54.71407     13.1 1.180e+04 1.370e-09
 54.75356     13.9 1.168e+04 1.318e-09
 54.79306     14.8 1.141e+04 1.164e-09
 54.83255     15.8 1.123e+04 1.016e-09
 54.86208     16.7 1.138e+04 1.041e-09
 54.88173     15.2 1.061e+04 7.265e-10
 54.90147     15.8 1.047e+04 6.923e-10
 54.92122     16.3 1.042e+04 6.861e-10
 54.94097     17.2 1.038e+04 6.701e-10
 54.96072     18.0 1.034e+04 6.462e-10
 54.98046     19.0 1.024e+04 5.866e-10
 55.00021     19.7 1.011e+04 5.264e-10
 55.01657     20.4 9.927e+03 4.508e-10
 55.02645     20.4 9.904e+03 4.552e-10
 55.03277     20.7 9.753e+03 4.089e-10
 55.04264     19.9 9.291e+03 3.007e-10
 55.05945     21.0 9.263e+03 2.959e-10
 55.07920     21.2 9.256e+03 2.929e-10
 55.10892     22.5 9.534e+03 3.527e-10
 55.14851     24.0 9.601e+03 3.766e-10
 55.18410     25.5 9.635e+03 4.042e-10
 55.20384     25.2 9.660e+03 4.101e-10
 55.22750     26.7 9.800e+03 4.600e-10
 55.25703     28.1 9.820e+03 4.460e-10
 55.27668     28.5 9.847e+03 4.453e-10
 55.29642     29.5 9.828e+03 4.259e-10
 55.31617     29.8 9.828e+03 4.171e-10
 55.33592     30.5 9.792e+03 3.986e-10
 55.35478     30.8 9.803e+03 3.925e-10
 55.36466     30.7 9.865e+03 4.304e-10
 55.37541     31.2 9.892e+03 4.346e-10
 55.39516     31.5 9.923e+03 4.420e-10
 55.41491     32.0 9.995e+03 4.616e-10
 55.43466     32.2 1.005e+04 4.691e-10
 55.45790     32.9 9.924e+03 4.286e-10
 55.47774     33.5 9.878e+03 4.247e-10
 55.50397     34.8 9.675e+03 3.600e-10
 55.52586     36.1 9.418e+03 2.723e-10
 55.54561     36.2 9.392e+03 2.643e-10
 55.58296     37.4 9.083e+03 1.917e-10
 55.62245     38.9 8.911e+03 1.727e-10
 55.66195     40.7 8.910e+03 1.741e-10
 55.70144     42.7 8.953e+03 1.849e-10
 55.74094     44.6 9.044e+03 2.079e-10
 55.78043     46.5 9.060e+03 2.254e-10
 55.81993     48.4 9.060e+03 2.257e-10
 55.84788     50.2 9.045e+03 2.270e-10
 55.86763     50.1 9.400e+03 3.251e-10
 55.89892     51.9 9.493e+03 3.410e-10
 55.91897     53.8 9.484e+03 3.369e-10
 55.93872     54.5 9.523e+03 3.452e-10
 55.97791     56.6 9.473e+03 3.284e-10
 56.01740     58.7 9.353e+03 2.984e-10
 56.05690     60.9 9.236e+03 2.751e-10
 56.09639     63.2 9.212e+03 2.726e-10
 56.13589     65.6 9.215e+03 2.761e-10
 56.16990     68.1 9.247e+03 2.898e-10
 56.18964     67.6 9.411e+03 3.211e-10
 56.21488     70.0 9.455e+03 3.407e-10
 56.25437     72.4 9.521e+03 3.723e-10
 56.29387     74.8 9.604e+03 3.974e-10
 56.33336     77.1 9.687e+03 4.025e-10
 56.36020     79.4 9.687e+03 3.937e-10
 56.37995     80.0 9.482e+03 3.182e-10
 56.41235     82.2 9.471e+03 2.969e-10
 56.45185     84.4 9.454e+03 2.760e-10
 56.49134     86.5 9.431e+03 2.553e-10
 56.51166     88.5 9.390e+03 2.353e-10
 56.53141     87.5 9.472e+03 2.409e-10
 56.57033     89.5 9.550e+03 2.464e-10
 56.60983     91.7 9.610e+03 2.545e-10
 56.64932     93.9 9.645e+03 2.641e-10
 56.68882     96.2 9.695e+03 2.746e-10
 56.72831     98.5 9.767e+03 2.893e-10
 56.76781    100.8 9.862e+03 3.097e-10
 56.80143    103.0 9.976e+03 3.376e-10
 56.82117    103.6 9.887e+03 3.007e-10
 56.83368    105.8 9.988e+03 3.303e-10
 56.85343    104.8 9.978e+03 3.317e-10
 56.88629    107.0 1.005e+04 3.601e-10
 56.92578    109.1 1.009e+04 3.798e-10
 56.96528    111.3 1.010e+04 3.820e-10
 57.00477    113.6 1.008e+04 3.673e-10
 57.04427    115.9 1.003e+04 3.342e-10
 57.08376    118.2 9.963e+03 2.936e-10
 57.12326    120.6 9.899e+03 2.510e-10
 57.15570    122.9 9.835e+03 2.130e-10
 57.17544    122.6 9.646e+03 1.290e-10
 57.20225    124.9 9.601e+03 1.133e-10
 57.24174    127.3 9.568e+03 1.024e-10
 57.26240    129.7 9.555e+03 9.564e-11
 57.28215    130.7 9.615e+03 1.008e-10
 57.32073    133.1 9.623e+03 9.451e-11
 57.36023    135.4 9.640e+03 9.064e-11
 57.39972    137.8 9.653e+03 9.152e-11
 57.43922    140.1 9.674e+03 9.500e-11
 57.47771    142.5 9.710e+03 1.033e-10
 57.49746    142.4 9.671e+03 9.938e-11
 57.51821    144.8 9.745e+03 1.143e-10
 57.55770    147.2 9.848e+03 1.340e-10
 57.59720    149.6 9.956e+03 1.563e-10
 57.63669    152.0 1.002e+04 1.730e-10
 57.67619    154.2 1.004e+04 1.741e-10
 57.70363    156.4 1.003e+04 1.693e-10
 57.72338    157.7 1.002e+04 1.596e-10
 57.75518    159.9 9.983e+03 1.504e-10
 57.79467    162.1 9.889e+03 1.364e-10
 57.81948    164.5 9.758e+03 1.232e-10
 57.83923    164.4 9.565e+03 9.009e-11
 57.87366    166.9 9.456e+03 8.799e-11
 57.91316    169.4 9.443e+03 8.853e-11
 57.95265    172.0 9.418e+03 9.189e-11
 57.99215    174.5 9.414e+03 9.998e-11
 58.03164    177.0 9.431e+03 1.123e-10
 58.07114    179.4 9.473e+03 1.278e-10
 58.11063    181.8 9.529e+03 1.443e-10
 58.14150    184.1 9.589e+03 1.573e-10
 58.15597    184.2 9.554e+03 1.556e-10
 58.16460    185.5 9.525e+03 1.510e-10
 58.18962    187.8 9.622e+03 1.668e-10
 58.22912    189.8 9.667e+03 1.689e-10
 58.26861    191.7 9.664e+03 1.673e-10
 58.30811    193.6 9.626e+03 1.582e-10
 58.34760    195.5 9.529e+03 1.400e-10
 58.38710    197.5 9.392e+03 1.191e-10
 58.42659    199.5 9.212e+03 1.034e-10
 58.46352    201.7 9.057e+03 1.001e-10
 58.48326    201.3 9.197e+03 1.156e-10
 58.50558    203.6 9.188e+03 1.171e-10
 58.54508    205.8 9.183e+03 1.253e-10
 58.58457    208.0 9.225e+03 1.423e-10
 58.60583    210.1 9.299e+03 1.661e-10
 58.62558    211.1 9.378e+03 1.716e-10
 58.66356    213.2 9.472e+03 2.042e-10
 58.70306    215.2 9.605e+03 2.544e-10
 58.74255    217.3 9.845e+03 3.422e-10
 58.78205    219.3 1.026e+04 4.912e-10
 58.80528    220.9 1.076e+04 7.137e-10
 58.82503    219.9 1.089e+04 8.415e-10
 58.86104    221.0 1.126e+04 1.057e-09
 58.90053    221.4 1.133e+04 1.157e-09
 58.94003    221.8 1.127e+04 1.131e-09
 58.97952    222.5 1.100e+04 9.851e-10
 59.01902    223.9 1.060e+04 7.525e-10
 59.04696    224.5 1.026e+04 5.934e-10
 59.05674    224.3 9.988e+03 4.880e-10
 59.06819    224.6 9.762e+03 4.276e-10
 59.09791    226.4 9.572e+03 3.858e-10
 59.12730    228.4 9.133e+03 2.979e-10
 59.14705    228.2 8.666e+03 2.138e-10
 59.17700    230.2 8.325e+03 1.752e-10
 59.21649    232.3 8.166e+03 1.581e-10
 59.25599    234.3 8.119e+03 1.519e-10
 59.29548    236.4 8.116e+03 1.520e-10
 59.33498    238.3 8.115e+03 1.528e-10
 59.37447    240.1 8.122e+03 1.553e-10
 59.41397    241.9 8.132e+03 1.603e-10
 59.44932    243.7 8.149e+03 1.674e-10
 59.46906    243.5 8.089e+03 1.613e-10
 59.48829    245.3 8.089e+03 1.653e-10
 59.50803    245.2 8.230e+03 1.933e-10
 59.53245    247.0 8.201e+03 1.893e-10
 59.57195    248.7 8.136e+03 1.787e-10
 59.61144    250.6 8.037e+03 1.612e-10
 59.65094    252.4 7.911e+03 1.390e-10
 59.69043    254.4 7.779e+03 1.156e-10
 59.72993    256.4 7.651e+03 9.464e-11
 59.76942    258.4 7.523e+03 7.822e-11
 59.79108    260.5 7.401e+03 6.748e-11
 59.81083    260.3 7.403e+03 6.758e-11
 59.84841    262.3 7.317e+03 6.262e-11
 59.88791    264.4 7.273e+03 6.130e-11
 59.92740    266.5 7.250e+03 6.087e-11
 59.94926    268.6 7.231e+03 6.134e-11
 59.96901    268.8 7.394e+03 6.694e-11
 60.00639    271.0 7.370e+03 6.789e-11
 60.04589    273.1 7.347e+03 7.066e-11
 60.08538    275.3 7.329e+03 7.429e-11
 60.11310    277.6 7.321e+03 7.788e-11
 60.13285    277.2 7.276e+03 6.805e-11
 60.16437    279.5 7.264e+03 7.089e-11
 60.20387    281.8 7.252e+03 7.352e-11
 60.24336    284.2 7.247e+03 7.576e-11
 60.28286    286.5 7.250e+03 7.776e-11
 60.32235    288.8 7.271e+03 7.994e-11
 60.36185    291.0 7.309e+03 8.322e-11
 60.39049    293.3 7.358e+03 8.873e-11
 60.41024    293.3 7.457e+03 9.624e-11
 60.43512    295.5 7.521e+03 1.049e-10
 60.45486    295.2 7.547e+03 1.055e-10
 60.48033    297.3 7.624e+03 1.156e-10
 60.51982    299.3 7.722e+03 1.284e-10
 60.55932    301.3 7.849e+03 1.447e-10
 60.59881    303.0 8.013e+03 1.661e-10
 60.63831    304.7 8.205e+03 1.939e-10
 60.67780    306.1 8.420e+03 2.273e-10
 60.71730    307.5 8.632e+03 2.608e-10
 60.75679    308.7 8.788e+03 2.792e-10
 60.77688    309.9 8.824e+03 2.799e-10
 60.79663    310.6 8.568e+03 2.340e-10
 60.83172    311.9 8.633e+03 2.398e-10
 60.85146    312.6 8.582e+03 2.215e-10
 60.87528    313.3 8.745e+03 2.462e-10
 60.91477    313.3 8.893e+03 2.705e-10
 60.95427    313.3 9.048e+03 3.003e-10
 60.99376    313.1 9.255e+03 3.416e-10
 61.03326    312.7 9.491e+03 3.908e-10
 61.07275    311.9 9.715e+03 4.399e-10
 61.09890    310.9 9.901e+03 4.784e-10
 61.11865    311.3 9.914e+03 4.809e-10
 61.15174    310.3 1.003e+04 5.024e-10
 61.19124    309.4 1.015e+04 5.206e-10
 61.23073    308.6 1.024e+04 5.358e-10
 61.27023    308.0 1.032e+04 5.470e-10
 61.29269    307.6 1.039e+04 5.560e-10
 61.31244    307.0 1.036e+04 5.544e-10
 61.34922    307.0 1.045e+04 5.733e-10
 61.38871    307.0 1.054e+04 5.914e-10
 61.42092    307.0 1.067e+04 6.087e-10
 61.44066    307.2 1.060e+04 5.552e-10
 61.46770    307.2 1.064e+04 5.348e-10
 61.50720    307.1 1.067e+04 5.133e-10
 61.54669    307.1 1.072e+04 4.904e-10
 61.58619    307.1 1.075e+04 4.634e-10
 61.62568    307.3 1.075e+04 4.303e-10
 61.66518    307.6 1.068e+04 3.914e-10
 61.70467    308.3 1.054e+04 3.508e-10
 61.73392    309.3 1.038e+04 3.181e-10
 61.75243    309.9 1.020e+04 2.523e-10
 61.76268    310.4 1.022e+04 2.834e-10
 61.78366    311.7 1.017e+04 2.932e-10
 61.82316    313.2 1.014e+04 3.063e-10
 61.86265    314.7 1.013e+04 3.135e-10
 61.90215    316.2 1.011e+04 3.129e-10
 61.94164    317.7 1.002e+04 3.055e-10
 61.98114    319.3 9.902e+03 2.876e-10
 62.02063    321.0 9.761e+03 2.620e-10
 62.06013    322.6 9.616e+03 2.337e-10
 62.08470    324.2 9.487e+03 2.062e-10
 62.10445    324.9 9.645e+03 2.500e-10
 62.13912    326.5 9.552e+03 2.278e-10
 62.17515    327.9 9.485e+03 2.076e-10
 62.19489    328.8 9.584e+03 2.541e-10
 62.21811    330.2 9.560e+03 2.460e-10
 62.25760    331.5 9.559e+03 2.377e-10
 62.29710    332.6 9.557e+03 2.269e-10
 62.33659    333.5 9.541e+03 2.121e-10
 62.37609    334.3 9.477e+03 1.930e-10
 62.40672    334.9 9.329e+03 1.723e-10
 62.42646    336.3 9.682e+03 2.453e-10
 62.45508    336.9 9.471e+03 2.071e-10
 62.49457    337.3 9.144e+03 1.747e-10
 62.53407    337.6 8.848e+03 1.603e-10
 62.57356    337.8 8.785e+03 1.618e-10
 62.61306    337.9 8.711e+03 1.796e-10
 62.63612    337.8 8.886e+03 2.185e-10
 62.65587    338.5 9.137e+03 2.275e-10
 62.69205    338.2 9.380e+03 2.866e-10
 62.72873    337.9 9.642e+03 3.527e-10
 62.74848    339.3 9.710e+03 3.417e-10
 62.76107    338.1 9.804e+03 3.973e-10
 62.78072    337.4 9.960e+03 4.721e-10
 62.80046    336.9 1.021e+04 5.778e-10
 62.82021    336.5 1.054e+04 7.074e-10
 62.83996    336.1 1.092e+04 8.496e-10
 62.85654    335.4 1.130e+04 9.813e-10
 62.86641    335.6 1.145e+04 1.028e-09
 62.87945    334.6 1.181e+04 1.101e-09
 62.89920    333.2 1.194e+04 1.098e-09
 62.90930    331.7 1.192e+04 1.083e-09
 62.91917    330.0 1.195e+04 1.044e-09
 62.93869    328.9 1.181e+04 9.765e-10
 62.96841    328.9 1.157e+04 8.558e-10
 63.00801    328.0 1.120e+04 6.762e-10
 63.04750    327.3 1.073e+04 4.938e-10
 63.07050    326.6 1.019e+04 3.326e-10
 63.08060    326.1 9.489e+03 2.153e-10
 63.09710    326.3 9.783e+03 2.475e-10
 63.12649    325.7 9.138e+03 1.503e-10
 63.16599    325.2 8.690e+03 1.150e-10
 63.20548    325.2 8.622e+03 1.124e-10
 63.24498    325.3 8.615e+03 1.123e-10
 63.28447    325.7 8.613e+03 1.132e-10
 63.32397    326.3 8.630e+03 1.185e-10
 63.36346    327.0 8.714e+03 1.315e-10
 63.39252    327.4 8.839e+03 1.511e-10
 63.41226    328.4 8.609e+03 1.289e-10
 63.44245    328.5 8.721e+03 1.490e-10
 63.48195    328.6 8.870e+03 1.761e-10
 63.51858    328.4 9.080e+03 2.123e-10
 63.53832    330.2 8.918e+03 1.834e-10
 63.56094    329.9 9.105e+03 2.180e-10
 63.60043    329.0 9.371e+03 2.619e-10
 63.63993    327.4 9.648e+03 3.067e-10
 63.67942    325.3 9.928e+03 3.478e-10
 63.71454    323.6 1.015e+04 3.993e-10
 63.73428    323.7 1.018e+04 3.626e-10
 63.74844    322.2 1.032e+04 4.004e-10
 63.75874    321.2 1.055e+04 4.597e-10
 63.76862    322.1 1.049e+04 4.380e-10
 63.78784    321.3 1.071e+04 5.044e-10
 63.80758    320.0 1.097e+04 5.967e-10
 63.82733    318.5 1.123e+04 7.124e-10
 63.84708    316.9 1.148e+04 8.411e-10
 63.86683    315.3 1.174e+04 9.620e-10
 63.88522    313.8 1.204e+04 1.037e-09
 63.89510    314.8 1.186e+04 1.022e-09
 63.90632    313.4 1.224e+04 1.093e-09
 63.92607    311.8 1.246e+04 1.088e-09
 63.94582    310.0 1.251e+04 1.069e-09
 63.96556    308.0 1.259e+04 9.846e-10
 63.97936    305.9 1.252e+04 8.615e-10
 63.98923    308.4 1.250e+04 9.294e-10
 64.00506    306.5 1.232e+04 7.883e-10
 64.02481    304.6 1.203e+04 6.858e-10
 64.04455    302.8 1.186e+04 6.710e-10
 64.05610    301.2 1.185e+04 6.796e-10
 64.06598    301.5 1.214e+04 7.676e-10
 64.08405    299.8 1.216e+04 8.133e-10
 64.10380    298.4 1.226e+04 9.237e-10
 64.12354    297.2 1.240e+04 1.087e-09
 64.14329    296.3 1.254e+04 1.285e-09
 64.16304    295.5 1.265e+04 1.497e-09
 64.18279    294.8 1.271e+04 1.697e-09
 64.19997    294.1 1.273e+04 1.848e-09
 64.20984    296.1 1.277e+04 1.697e-09
 64.21711    295.4 1.280e+04 1.868e-09
 64.22699    295.2 1.279e+04 1.919e-09
 64.24203    294.5 1.282e+04 1.958e-09
 64.26178    293.4 1.292e+04 1.988e-09
 64.28152    291.8 1.317e+04 2.047e-09
 64.30127    289.2 1.368e+04 2.165e-09
 64.32102    285.5 1.436e+04 2.308e-09
 64.34077    280.6 1.494e+04 2.326e-09
 64.36051    274.8 1.501e+04 2.284e-09
 64.37812    268.6 1.494e+04 2.067e-09
 64.38800    267.1 1.416e+04 1.653e-09
 64.40001    262.4 1.373e+04 1.448e-09
 64.42068    257.7 1.310e+04 1.190e-09
 64.44043    257.4 1.303e+04 1.213e-09
 64.46922    255.2 1.264e+04 1.068e-09
 64.50881    249.8 1.176e+04 7.300e-10
 64.54831    244.3 1.054e+04 4.107e-10
 64.58780    239.7 9.155e+03 2.352e-10
 64.62730    236.3 8.743e+03 2.011e-10
 64.66679    234.0 8.741e+03 2.025e-10
 64.70034    232.2 8.827e+03 2.169e-10
 64.72008    233.0 8.819e+03 2.049e-10
 64.74578    230.7 9.184e+03 2.561e-10
 64.78528    228.9 9.568e+03 3.179e-10
 64.81480    227.2 9.974e+03 4.093e-10
 64.83445    225.8 1.061e+04 5.954e-10
 64.85420    224.2 1.135e+04 9.118e-10
 64.87102    222.6 1.205e+04 1.317e-09
 64.87863    222.6 1.225e+04 1.437e-09
 64.88156    222.8 1.218e+04 1.397e-09
 64.89369    221.0 1.277e+04 1.805e-09
 64.91344    218.9 1.326e+04 2.022e-09
 64.93319    216.4 1.340e+04 2.025e-09
 64.95294    213.8 1.339e+04 2.012e-09
 64.97268    211.1 1.331e+04 1.949e-09
 64.99243    208.7 1.316e+04 1.852e-09
 65.01218    206.3 1.302e+04 1.753e-09
 65.03193    203.9 1.292e+04 1.671e-09
 65.04191    201.3 1.291e+04 1.619e-09
 65.05178    201.5 1.313e+04 1.822e-09
 65.07142    198.7 1.335e+04 1.942e-09
 65.09117    196.0 1.366e+04 2.148e-09
 65.10217    193.4 1.399e+04 2.426e-09
 65.11205    193.1 1.328e+04 1.793e-09
 65.13066    190.5 1.353e+04 1.996e-09
 65.15041    188.0 1.378e+04 2.241e-09
 65.17016    185.6 1.394e+04 2.418e-09
 65.18991    183.2 1.394e+04 2.421e-09
 65.20291    181.1 1.380e+04 2.321e-09
 65.21279    181.7 1.406e+04 2.598e-09
 65.22940    180.0 1.358e+04 2.137e-09
 65.24915    177.6 1.318e+04 1.629e-09
 65.26890    175.4 1.266e+04 1.282e-09
 65.28864    173.4 1.240e+04 1.163e-09
 65.30839    171.6 1.195e+04 9.580e-10
 65.32279    169.6 1.150e+04 7.984e-10
 65.33266    170.3 1.152e+04 7.618e-10
 65.34789    168.6 1.119e+04 6.807e-10
 65.36392    167.2 1.085e+04 6.390e-10
 65.37380    167.4 1.084e+04 6.432e-10
 65.38738    166.5 1.074e+04 6.428e-10
 65.40713    165.9 1.074e+04 6.569e-10
 65.42688    165.4 1.085e+04 7.263e-10
 65.44662    164.8 1.123e+04 8.791e-10
 65.46637    163.8 1.184e+04 1.138e-09
 65.48612    162.4 1.257e+04 1.522e-09
 65.50587    160.8 1.327e+04 2.029e-09
 65.52493    159.3 1.379e+04 2.526e-09
 65.53481    159.4 1.379e+04 2.538e-09
 65.54340    157.7 1.381e+04 2.556e-09
 65.55327    158.5 1.363e+04 2.329e-09
 65.56511    156.7 1.354e+04 2.262e-09
 65.58486    155.1 1.319e+04 1.995e-09
 65.60460    153.9 1.259e+04 1.568e-09
 65.62435    152.8 1.186e+04 1.133e-09
 65.64410    151.6 1.108e+04 7.875e-10
 65.66385    150.3 1.042e+04 5.846e-10
 65.68359    149.5 1.022e+04 5.418e-10
 65.69581    149.4 1.022e+04 5.438e-10
 65.70569    149.5 1.003e+04 4.863e-10
 65.72309    149.4 1.013e+04 5.187e-10
 65.74284    149.5 1.040e+04 6.077e-10
 65.76258    149.6 1.082e+04 7.617e-10
 65.77389    149.9 1.133e+04 9.874e-10
 65.78376    150.5 1.137e+04 9.779e-10
 65.80208    150.9 1.198e+04 1.314e-09
 65.82183    151.7 1.260e+04 1.746e-09
 65.84157    152.7 1.324e+04 2.253e-09
 65.85682    153.7 1.395e+04 2.776e-09
 65.86670    153.7 1.343e+04 2.382e-09
 65.88107    154.6 1.367e+04 2.513e-09
 65.90082    155.4 1.396e+04 2.494e-09
 65.92056    156.4 1.419e+04 2.433e-09
 65.94031    157.6 1.443e+04 2.360e-09
 65.96006    159.2 1.472e+04 2.355e-09
 65.97981    161.1 1.531e+04 2.392e-09
 65.99450    161.9 1.641e+04 2.465e-09
 66.00438    162.5 1.548e+04 2.139e-09
 66.01431    161.4 1.641e+04 2.122e-09
 66.02267    161.0 1.650e+04 2.123e-09
 66.02766    158.8 1.557e+04 1.740e-09
 66.03406    157.6 1.697e+04 2.125e-09
 66.04389    156.1 1.730e+04 2.368e-09
 66.05376    154.6 1.748e+04 2.642e-09
 66.06363    152.7 1.839e+04 3.102e-09
 66.07351    148.5 2.043e+04 4.023e-09
 66.08338    141.1 2.451e+04 6.335e-09
 66.09326    131.4 2.781e+04 1.290e-08
 66.10313    121.8 2.850e+04 2.580e-08
 66.10965    120.0 2.592e+04 2.079e-08
 66.11459    122.9 2.523e+04 1.534e-08
 66.12288    115.0 2.677e+04 3.359e-08
 66.13275    110.0 2.673e+04 5.270e-08
 66.14262    107.8 2.633e+04 5.625e-08
 66.15250    107.1 2.583e+04 4.592e-08
 66.16237    106.8 2.539e+04 3.270e-08
 66.17225    106.6 2.477e+04 2.224e-08
 66.18212    106.9 2.420e+04 1.646e-08
 66.18867    106.5 2.334e+04 8.733e-09
 66.19859    109.6 2.359e+04 1.662e-08
 66.21512    110.0 2.248e+04 1.196e-08
 66.22499    110.7 2.311e+04 1.564e-08
 66.23652    111.3 2.205e+04 1.117e-08
 66.25627    111.9 2.059e+04 7.141e-09
 66.27602    112.8 1.891e+04 4.266e-09
 66.29577    113.8 1.726e+04 2.528e-09
 66.31551    114.9 1.596e+04 1.583e-09
 66.33526    116.2 1.488e+04 1.046e-09
 66.34972    117.3 1.387e+04 7.276e-10
 66.35960    119.2 1.564e+04 2.176e-09
 66.37476    120.2 1.478e+04 1.523e-09
 66.39450    121.3 1.414e+04 1.113e-09
 66.41425    122.3 1.367e+04 8.408e-10
 66.43400    123.3 1.332e+04 6.562e-10
 66.44560    124.0 1.299e+04 5.364e-10
 66.45548    125.7 1.422e+04 8.114e-10
 66.47349    126.1 1.388e+04 6.643e-10
 66.49324    126.4 1.331e+04 5.830e-10
 66.51073    126.3 1.248e+04 5.445e-10
 66.52061    129.6 1.556e+04 1.348e-09
 66.53273    129.3 1.533e+04 1.207e-09
 66.55248    128.6 1.470e+04 1.121e-09
 66.57223    127.7 1.374e+04 1.058e-09
 66.59198    126.2 1.278e+04 1.095e-09
 66.61172    123.6 1.278e+04 1.218e-09
 66.63147    119.4 1.388e+04 1.684e-09
 66.65122    114.6 1.537e+04 2.653e-09
 66.66622    110.1 1.648e+04 4.104e-09
 66.67609    108.7 1.600e+04 3.473e-09
 66.68161    104.7 1.646e+04 4.272e-09
 66.69149    106.4 1.682e+04 4.791e-09
 66.71046    102.1 1.681e+04 4.745e-09
 66.73021     98.5 1.639e+04 4.090e-09
 66.74996     95.5 1.539e+04 2.763e-09
 66.76970     92.4 1.405e+04 1.561e-09
 66.78945     88.7 1.250e+04 8.414e-10
 66.80920     85.3 1.109e+04 5.371e-10
 66.82895     84.2 1.073e+04 4.874e-10
 66.84262     84.0 1.066e+04 4.802e-10
 66.85250     83.0 1.089e+04 5.163e-10
 66.86844     83.4 1.089e+04 5.285e-10
 66.88683     84.0 1.098e+04 5.797e-10
 66.89670     82.0 1.140e+04 6.925e-10
 66.90794     82.9 1.168e+04 8.218e-10
 66.92768     84.0 1.196e+04 9.635e-10
 66.94743     85.2 1.219e+04 1.091e-09
 66.96718     86.4 1.230e+04 1.160e-09
 66.98693     87.5 1.230e+04 1.162e-09
 67.00363     88.7 1.223e+04 1.137e-09
 67.01351     88.5 1.295e+04 1.448e-09
 67.02642     89.6 1.269e+04 1.293e-09
 67.04617     90.7 1.235e+04 1.103e-09
 67.06592     91.7 1.198e+04 9.241e-10
 67.08566     92.6 1.162e+04 7.753e-10
 67.10541     93.3 1.132e+04 6.758e-10
 67.11732     94.3 1.125e+04 6.596e-10
 67.12719     93.1 1.137e+04 7.039e-10
 67.14491     94.3 1.140e+04 7.131e-10
 67.16464     95.1 1.158e+04 7.572e-10
 67.18439     95.1 1.183e+04 8.548e-10
 67.20415     95.9 1.182e+04 8.979e-10
 67.22390     96.7 1.174e+04 9.094e-10
 67.24364     97.5 1.168e+04 9.106e-10
 67.26339     98.4 1.167e+04 9.168e-10
 67.28314     99.3 1.171e+04 9.450e-10
 67.30289    100.1 1.188e+04 1.004e-09
 67.32263    100.7 1.218e+04 1.107e-09
 67.33552    101.0 1.256e+04 1.272e-09
 67.34095    100.1 1.254e+04 1.207e-09
 67.34781     99.4 1.248e+04 1.181e-09
 67.36213     99.4 1.275e+04 1.356e-09
 67.38188     99.6 1.304e+04 1.573e-09
 67.40162     99.7 1.311e+04 1.682e-09
 67.42137     99.8 1.308e+04 1.669e-09
 67.44112     99.9 1.291e+04 1.577e-09
 67.46087    100.3 1.258e+04 1.353e-09
 67.48061    100.9 1.213e+04 1.062e-09
 67.49653    101.5 1.163e+04 7.737e-10
 67.50641    101.0 1.140e+04 6.520e-10
 67.52011    101.6 1.100e+04 4.699e-10
 67.53986    101.9 1.076e+04 3.593e-10
 67.55855    102.5 1.064e+04 3.163e-10
 67.56842    102.1 1.060e+04 3.308e-10
 67.58932    102.5 1.044e+04 3.281e-10
 67.62891    103.7 1.006e+04 2.694e-10
 67.65774    105.2 9.766e+03 2.390e-10
 67.67748    105.1 9.659e+03 1.964e-10
 67.70790    106.8 9.431e+03 1.765e-10
 67.74740    108.8 9.384e+03 1.777e-10
 67.78689    110.7 9.463e+03 1.892e-10
 67.82639    112.6 9.720e+03 2.230e-10
 67.86588    114.2 9.925e+03 2.560e-10
 67.90538    115.6 1.017e+04 3.039e-10
 67.93490    115.6 1.016e+04 2.932e-10
 67.95455    115.9 1.005e+04 2.939e-10
 67.97430    116.1 9.930e+03 3.084e-10
 67.98943    116.4 9.746e+03 3.372e-10
 67.99931    115.9 9.923e+03 2.892e-10
 68.00965    116.6 9.806e+03 2.987e-10
 68.01952    116.1 9.804e+03 2.981e-10
 68.03354    117.2 9.644e+03 3.315e-10
 68.05329    118.2 9.788e+03 3.899e-10
 68.07304    118.9 1.009e+04 4.568e-10
 68.09279    119.3 1.038e+04 5.161e-10
 68.11253    119.5 1.059e+04 5.543e-10
 68.13228    119.7 1.080e+04 5.872e-10
 68.15044    119.8 1.101e+04 6.229e-10
 68.16032    120.3 1.095e+04 6.139e-10
 68.17178    120.3 1.116e+04 6.593e-10
 68.19152    120.4 1.138e+04 7.222e-10
 68.21127    120.6 1.156e+04 7.976e-10
 68.23026    120.8 1.167e+04 8.692e-10
 68.24014    121.2 1.109e+04 6.797e-10
 68.25076    121.4 1.116e+04 7.324e-10
 68.27051    121.7 1.124e+04 7.998e-10
 68.29026    122.1 1.133e+04 8.716e-10
 68.31001    122.7 1.143e+04 9.413e-10
 68.32132    123.2 1.157e+04 1.006e-09
 68.33120    123.9 1.214e+04 1.247e-09
 68.34950    124.3 1.234e+04 1.318e-09
 68.36925    124.7 1.255e+04 1.377e-09
 68.38900    124.8 1.281e+04 1.445e-09
 68.40874    124.9 1.307e+04 1.522e-09
 68.42849    125.1 1.335e+04 1.587e-09
 68.44824    125.4 1.343e+04 1.585e-09
 68.46075    125.8 1.333e+04 1.541e-09
 68.47062    127.2 1.434e+04 1.925e-09
 68.48233    127.5 1.398e+04 1.759e-09
 68.48722    128.0 1.414e+04 1.841e-09
 68.49257    128.1 1.406e+04 1.776e-09
 68.50245    128.4 1.382e+04 1.621e-09
 68.51232    128.6 1.384e+04 1.570e-09
 68.52220    128.8 1.383e+04 1.430e-09
 68.53207    128.9 1.394e+04 1.400e-09
 68.54194    129.2 1.444e+04 1.289e-09
 68.55182    129.4 1.488e+04 1.267e-09
 68.56169    129.9 1.558e+04 1.189e-09
 68.56768    130.1 1.603e+04 1.171e-09
 68.57201    129.8 1.947e+04 1.475e-09
 68.57590    128.3 2.656e+04 4.466e-09
 68.58144    128.9 2.697e+04 4.596e-09
 68.59131    129.6 2.723e+04 4.678e-09
 68.60118    130.4 2.755e+04 4.770e-09
 68.61106    131.2 2.793e+04 4.959e-09
 68.62093    132.0 2.850e+04 5.283e-09
 68.63081    132.9 2.913e+04 5.760e-09
 68.64068    133.7 2.987e+04 6.361e-09
 68.64818    134.5 3.053e+04 6.963e-09
 68.65312    136.0 2.861e+04 1.558e-08
 68.66043    137.2 2.892e+04 1.715e-08
 68.67030    138.6 2.925e+04 1.878e-08
 68.68017    140.0 2.964e+04 2.071e-08
 68.68620    141.7 3.038e+04 2.334e-08
 68.69114    143.8 2.476e+04 4.450e-08
 68.69992    145.7 2.569e+04 4.909e-08
 68.70980    147.6 2.717e+04 5.473e-08
 68.71967    149.1 2.890e+04 6.600e-08
 68.72869    150.0 3.080e+04 9.068e-08
 68.73362    152.8 2.824e+04 7.942e-08
 68.73942    154.2 3.137e+04 1.074e-07
 68.74680    153.8 3.147e+04 1.330e-07
 68.75171    153.5 3.265e+04 1.589e-07
 68.75665    152.7 3.210e+04 2.412e-07
 68.76158    151.4 2.839e+04 5.847e-07
 68.76652    149.2 2.314e+04 1.903e-06
 68.77136    146.0 1.966e+04 5.606e-06
 68.77383    150.3 2.233e+04 2.036e-06
 68.77639    146.1 1.964e+04 5.455e-06
 68.78133    137.8 1.840e+04 1.144e-05
 68.78627    126.0 1.783e+04 1.989e-05
 68.79121    110.7 1.684e+04 3.891e-05
 68.79614     93.7 1.616e+04 6.069e-05
 68.79893     77.3 1.803e+04 2.455e-05
 68.80140     76.7 3.151e+04 1.348e-06
 68.80602     55.5 4.727e+04 1.485e-07
 68.81095     42.3 3.529e+04 1.910e-07
 68.81408     30.7 2.828e+04 3.829e-07
 68.81655     34.5 2.958e+04 3.305e-07
 68.82083     29.2 2.486e+04 5.023e-07
 68.82576     25.3 2.512e+04 8.702e-07
 68.83070     24.2 2.422e+04 1.299e-06
 68.83813     23.3 2.897e+04 6.697e-07
 68.84803     22.4 3.666e+04 3.225e-07
 68.85790     22.8 4.962e+04 7.512e-08
 68.86778     20.7 5.732e+04 2.260e-08
 68.87765     15.4 5.048e+04 1.154e-08
 68.88752      8.1 3.627e+04 7.204e-09
 68.89463      5.7 3.035e+04 4.823e-09
 68.89957      4.7 3.037e+04 4.497e-09
 68.90682      1.4 2.568e+04 3.451e-09
 68.91180      2.2 2.254e+04 3.554e-09
 68.92218     -0.9 1.687e+04 2.994e-09
 68.94193     -1.0 1.552e+04 2.997e-09
 68.96167     -1.1 1.520e+04 2.980e-09
 68.97523     -1.0 1.509e+04 3.067e-09
 68.98511     -1.5 1.540e+04 3.310e-09
 69.00117     -1.3 1.534e+04 3.399e-09
 69.02092     -1.4 1.542e+04 3.547e-09
 69.04066     -1.9 1.567e+04 3.695e-09
 69.06041     -2.5 1.563e+04 3.621e-09
 69.08016     -2.5 1.507e+04 3.224e-09
 69.09991     -2.2 1.425e+04 2.714e-09
 69.11965     -1.7 1.382e+04 2.397e-09
 69.13246     -1.6 1.405e+04 2.173e-09
 69.13918     -0.4 1.393e+04 2.068e-09
 69.14612     -1.0 1.361e+04 1.732e-09
 69.15915     -1.4 1.348e+04 1.665e-09
 69.17890     -2.8 1.348e+04 1.544e-09
 69.19864     -5.2 1.367e+04 1.674e-09
 69.21839     -8.8 1.461e+04 2.000e-09
 69.23814    -12.4 1.602e+04 2.828e-09
 69.25789    -15.3 1.704e+04 3.893e-09
 69.27763    -18.0 1.732e+04 4.556e-09
 69.29725    -20.1 1.738e+04 4.929e-09
 69.30712    -18.5 1.656e+04 4.195e-09
 69.31713    -21.0 1.669e+04 4.117e-09
 69.33688    -23.7 1.562e+04 3.334e-09
 69.35308    -25.3 1.480e+04 2.721e-09
 69.36295    -24.9 1.561e+04 3.340e-09
 69.37637    -26.0 1.505e+04 2.843e-09
 69.39612    -27.2 1.448e+04 2.381e-09
 69.41587    -28.4 1.383e+04 1.992e-09
 69.43561    -29.1 1.353e+04 1.793e-09
 69.45536    -28.8 1.381e+04 1.783e-09
 69.48508    -31.8 1.392e+04 1.699e-09
 69.51470    -33.3 1.379e+04 1.741e-09
 69.53435    -33.4 1.393e+04 1.750e-09
 69.55410    -34.9 1.368e+04 1.665e-09
 69.57369    -35.3 1.361e+04 1.628e-09
 69.58357    -35.4 1.323e+04 1.406e-09
 69.59359    -35.9 1.212e+04 1.004e-09
 69.61334    -35.1 1.173e+04 7.780e-10
 69.62914    -35.8 1.102e+04 5.600e-10
 69.63902    -35.1 1.133e+04 6.642e-10
 69.65284    -35.5 1.116e+04 5.665e-10
 69.67258    -37.0 1.094e+04 5.232e-10
 69.69233    -37.9 1.088e+04 5.219e-10
 69.71208    -38.8 1.096e+04 6.173e-10
 69.73183    -39.9 1.164e+04 8.243e-10
 69.75157    -41.8 1.302e+04 1.267e-09
 69.77132    -44.4 1.464e+04 2.094e-09
 69.79015    -47.0 1.579e+04 3.213e-09
 69.80002    -47.1 1.577e+04 3.249e-09
 69.80418    -49.0 1.630e+04 4.126e-09
 69.81405    -50.7 1.732e+04 6.179e-09
 69.83056    -51.7 1.721e+04 6.081e-09
 69.85031    -52.7 1.664e+04 4.476e-09
 69.87006    -55.9 1.556e+04 2.573e-09
 69.88981    -60.8 1.370e+04 1.468e-09
 69.90955    -64.0 1.268e+04 1.184e-09
 69.92930    -65.1 1.256e+04 1.150e-09
 69.94905    -65.7 1.287e+04 1.296e-09
 69.96103    -66.2 1.332e+04 1.642e-09
 69.97091    -66.4 1.362e+04 1.987e-09
 69.98854    -66.3 1.399e+04 2.391e-09
 70.00829    -65.8 1.438e+04 2.842e-09
 70.02479    -65.2 1.476e+04 3.271e-09
 70.03467    -66.2 1.429e+04 2.856e-09
 70.04778    -65.6 1.444e+04 2.973e-09
 70.06753    -65.2 1.448e+04 2.989e-09
 70.08728    -65.1 1.446e+04 2.799e-09
 70.10703    -65.2 1.434e+04 2.466e-09
 70.12204    -65.6 1.418e+04 2.187e-09
 70.13192    -66.6 1.451e+04 2.397e-09
 70.14652    -67.1 1.433e+04 2.201e-09
 70.16627    -67.6 1.415e+04 2.074e-09
 70.18602    -68.3 1.407e+04 2.036e-09
 70.20576    -69.1 1.406e+04 2.056e-09
 70.22551    -70.1 1.409e+04 2.132e-09
 70.24526    -71.0 1.414e+04 2.239e-09
 70.25528    -71.7 1.413e+04 2.348e-09
 70.26515    -71.0 1.413e+04 2.167e-09
 70.28305    -71.5 1.413e+04 2.235e-09
 70.29292    -71.7 1.405e+04 2.199e-09
 70.30450    -71.9 1.382e+04 2.135e-09
 70.32425    -72.0 1.347e+04 1.968e-09
 70.34400    -72.0 1.318e+04 1.781e-09
 70.36374    -71.9 1.300e+04 1.594e-09
 70.38349    -72.1 1.293e+04 1.444e-09
 70.40324    -72.6 1.299e+04 1.383e-09
 70.42299    -73.7 1.302e+04 1.376e-09
 70.44273    -75.2 1.327e+04 1.482e-09
 70.45393    -76.5 1.368e+04 1.875e-09
 70.46381    -77.0 1.265e+04 1.329e-09
 70.47589    -77.3 1.314e+04 1.682e-09
 70.48577    -76.9 1.361e+04 2.035e-09
 70.50198    -77.2 1.402e+04 2.365e-09
 70.52172    -77.6 1.421e+04 2.497e-09
 70.54147    -78.4 1.424e+04 2.513e-09
 70.56122    -79.5 1.408e+04 2.328e-09
 70.58097    -80.6 1.372e+04 2.006e-09
 70.60071    -82.0 1.329e+04 1.740e-09
 70.61494    -83.3 1.298e+04 1.597e-09
 70.62482    -82.8 1.265e+04 1.456e-09
 70.64021    -83.3 1.255e+04 1.424e-09
 70.65996    -83.8 1.246e+04 1.403e-09
 70.67970    -84.1 1.236e+04 1.380e-09
 70.69651    -84.3 1.227e+04 1.360e-09
 70.70638    -84.1 1.285e+04 1.719e-09
 70.71920    -84.2 1.278e+04 1.714e-09
 70.73895    -84.1 1.275e+04 1.746e-09
 70.75869    -83.8 1.284e+04 1.789e-09
 70.77595    -83.5 1.288e+04 1.805e-09
 70.78583    -83.1 1.305e+04 1.921e-09
 70.79819    -82.9 1.306e+04 1.933e-09
 70.81794    -82.6 1.294e+04 1.862e-09
 70.83768    -82.3 1.257e+04 1.632e-09
 70.85743    -82.2 1.210e+04 1.377e-09
 70.87718    -82.2 1.166e+04 1.156e-09
 70.89693    -82.4 1.139e+04 1.006e-09
 70.91667    -82.6 1.132e+04 9.437e-10
 70.92700    -83.1 1.133e+04 9.350e-10
 70.93687    -83.5 1.204e+04 1.229e-09
 70.94683    -84.0 1.215e+04 1.266e-09
 70.95671    -84.3 1.275e+04 1.620e-09
 70.97592    -84.7 1.282e+04 1.722e-09
 70.99566    -84.9 1.285e+04 1.768e-09
 71.01541    -85.2 1.267e+04 1.758e-09
 71.03516    -85.7 1.248e+04 1.606e-09
 71.05491    -86.5 1.214e+04 1.420e-09
 71.07465    -87.4 1.197e+04 1.276e-09
 71.09440    -88.5 1.198e+04 1.223e-09
 71.10784    -89.9 1.210e+04 1.215e-09
 71.11772    -91.2 1.249e+04 1.356e-09
 71.13390    -93.4 1.263e+04 1.364e-09
 71.14761    -95.4 1.260e+04 1.511e-09
 71.15748    -95.2 1.251e+04 1.462e-09
 71.17339    -97.3 1.242e+04 1.827e-09
 71.19314   -102.0 1.495e+04 2.649e-09
 71.21289   -110.0 1.944e+04 5.064e-09
 71.23263   -118.7 2.185e+04 1.105e-08
 71.24740   -124.7 2.225e+04 1.818e-08
 71.25722   -127.1 2.227e+04 2.180e-08
 71.26276   -130.2 2.204e+04 2.533e-08
 71.26769   -130.6 2.208e+04 2.622e-08
 71.27369   -133.0 2.189e+04 2.627e-08
 71.27863   -133.5 2.160e+04 2.925e-08
 71.28684   -135.2 2.105e+04 2.379e-08
 71.29671   -136.9 2.052e+04 1.798e-08
 71.30659   -138.7 1.998e+04 1.331e-08
 71.31646   -140.5 1.935e+04 9.863e-09
 71.33132   -143.2 1.842e+04 6.768e-09
 71.35112   -148.3 1.579e+04 3.353e-09
 71.36822   -152.1 1.334e+04 1.829e-09
 71.37810   -153.3 1.233e+04 1.255e-09
 71.39061   -154.8 1.149e+04 8.944e-10
 71.41036   -155.5 1.125e+04 7.239e-10
 71.42986   -156.5 1.093e+04 5.538e-10
 71.43973   -156.9 1.052e+04 4.194e-10
 71.44986   -158.2 1.034e+04 3.432e-10
 71.46960   -159.5 1.034e+04 3.084e-10
 71.48935   -160.8 1.038e+04 2.985e-10
 71.50910   -162.1 1.043e+04 2.970e-10
 71.53882   -164.9 1.046e+04 2.950e-10
 71.57841   -169.2 1.057e+04 3.249e-10
 71.59891   -173.0 1.073e+04 4.271e-10
 71.60169   -173.1 1.062e+04 4.067e-10
 71.62069   -173.7 1.056e+04 4.152e-10
 71.65740   -176.5 1.073e+04 5.106e-10
 71.69689   -179.3 1.074e+04 5.333e-10
 71.73639   -181.6 1.058e+04 5.172e-10
 71.77588   -183.6 1.019e+04 4.166e-10
 71.81538   -185.6 9.788e+03 3.171e-10
 71.85487   -187.7 9.466e+03 2.552e-10
 71.89437   -189.7 9.292e+03 2.316e-10
 71.92296   -191.3 9.256e+03 2.282e-10
 71.94270   -191.9 9.072e+03 2.023e-10
 71.97336   -193.2 9.098e+03 2.193e-10
 72.01285   -194.2 9.181e+03 2.546e-10
 72.04013   -195.0 9.210e+03 2.778e-10
 72.05988   -194.9 9.475e+03 3.400e-10
 72.09184   -195.5 9.445e+03 3.401e-10
 72.13134   -195.9 9.417e+03 3.355e-10
 72.17083   -196.4 9.421e+03 3.339e-10
 72.21033   -197.8 9.507e+03 3.457e-10
 72.24497   -201.6 1.071e+04 6.138e-10
 72.26472   -202.5 1.087e+04 6.703e-10
 72.27052   -205.2 1.168e+04 1.039e-09
 72.28030   -206.3 1.261e+04 1.463e-09
 72.29900   -208.4 1.478e+04 2.853e-09
 72.31874   -210.1 1.692e+04 5.807e-09
 72.33849   -211.6 1.844e+04 1.030e-08
 72.35824   -213.4 1.920e+04 1.414e-08
 72.37799   -215.8 1.935e+04 1.522e-08
 72.39773   -217.9 1.908e+04 1.480e-08
 72.41566   -219.3 1.798e+04 1.055e-08
 72.42553   -219.6 1.798e+04 1.019e-08
 72.43723   -221.2 1.673e+04 6.729e-09
 72.45698   -222.6 1.523e+04 4.078e-09
 72.47672   -224.0 1.383e+04 2.521e-09
 72.49104   -225.1 1.273e+04 1.679e-09
 72.50091   -225.8 1.211e+04 1.308e-09
 72.51622   -226.3 1.148e+04 1.006e-09
 72.53597   -226.4 1.108e+04 8.448e-10
 72.55571   -226.5 1.081e+04 7.603e-10
 72.57546   -226.2 1.063e+04 7.165e-10
 72.58654   -225.9 1.053e+04 6.978e-10
 72.59642   -226.2 1.118e+04 9.517e-10
 72.61496   -225.9 1.109e+04 9.233e-10
 72.63470   -225.5 1.106e+04 9.175e-10
 72.65445   -225.2 1.107e+04 9.269e-10
 72.67420   -224.8 1.113e+04 9.638e-10
 72.69395   -224.5 1.122e+04 1.012e-09
 72.71165   -224.1 1.130e+04 1.059e-09
 72.72153   -224.1 1.143e+04 1.141e-09
 72.73344   -223.8 1.144e+04 1.153e-09
 72.74755   -223.4 1.143e+04 1.155e-09
 72.75743   -223.4 1.187e+04 1.399e-09
 72.77294   -223.0 1.176e+04 1.342e-09
 72.79268   -222.5 1.161e+04 1.261e-09
 72.81243   -221.9 1.144e+04 1.172e-09
 72.83218   -221.4 1.127e+04 1.085e-09
 72.85193   -220.8 1.111e+04 1.002e-09
 72.87167   -220.3 1.097e+04 9.237e-10
 72.89142   -219.8 1.085e+04 8.500e-10
 72.90856   -219.5 1.074e+04 7.837e-10
 72.91843   -218.9 1.109e+04 9.546e-10
 72.93092   -218.5 1.094e+04 8.712e-10
 72.94214   -218.2 1.078e+04 7.880e-10
 72.95202   -218.2 1.041e+04 6.485e-10
 72.97041   -217.8 1.024e+04 5.739e-10
 72.99016   -217.4 1.011e+04 5.181e-10
 73.00991   -217.0 1.003e+04 4.772e-10
 73.02965   -216.6 1.001e+04 4.565e-10
 73.04940   -216.1 1.002e+04 4.516e-10
 73.07912   -215.9 1.009e+04 4.569e-10
 73.11871   -215.3 1.013e+04 4.575e-10
 73.15821   -215.2 1.017e+04 4.658e-10
 73.19770   -215.6 1.037e+04 5.343e-10
 73.23077   -216.4 1.067e+04 6.428e-10
 73.25052   -216.0 1.148e+04 9.048e-10
 73.27669   -217.6 1.190e+04 1.132e-09
 73.31619   -218.7 1.214e+04 1.288e-09
 73.35568   -219.8 1.219e+04 1.331e-09
 73.38356   -220.7 1.214e+04 1.324e-09
 73.40331   -221.8 1.196e+04 1.194e-09
 73.43467   -222.4 1.154e+04 9.479e-10
 73.47417   -222.8 1.102e+04 6.900e-10
 73.51366   -223.2 1.059e+04 5.245e-10
 73.55279   -223.1 1.032e+04 4.390e-10
 73.57254   -224.3 1.055e+04 5.037e-10
 73.59265   -223.8 1.037e+04 4.520e-10
 73.63215   -223.1 1.026e+04 4.139e-10
 73.67164   -222.4 1.016e+04 3.723e-10
 73.71114   -221.7 1.007e+04 3.241e-10
 73.75063   -221.0 1.000e+04 2.724e-10
 73.79013   -220.6 9.973e+03 2.310e-10
 73.82479   -220.3 9.940e+03 2.073e-10
 73.84454   -222.1 9.936e+03 2.169e-10
 73.86912   -221.8 9.970e+03 2.210e-10
 73.89456   -221.2 9.919e+03 2.339e-10
 73.91430   -221.4 9.759e+03 1.936e-10
 73.94811   -220.6 9.704e+03 2.013e-10
 73.98760   -219.7 9.662e+03 2.053e-10
 74.02710   -218.7 9.618e+03 2.058e-10
 74.06659   -217.7 9.503e+03 1.936e-10
 74.10609   -216.6 9.424e+03 1.694e-10
 74.14558   -215.7 9.371e+03 1.460e-10
 74.18508   -214.8 9.333e+03 1.304e-10
 74.21657   -213.9 9.288e+03 1.243e-10
 74.23632   -213.8 9.283e+03 1.177e-10
 74.26407   -212.9 9.275e+03 1.165e-10
 74.28577   -212.0 9.270e+03 1.166e-10
 74.30551   -213.9 9.491e+03 1.864e-10
 74.34306   -212.9 9.444e+03 1.876e-10
 74.38255   -212.2 9.439e+03 1.889e-10
 74.42205   -211.6 9.538e+03 1.960e-10
 74.46154   -211.2 9.705e+03 2.117e-10
 74.50104   -210.7 9.853e+03 2.290e-10
 74.53859   -210.2 9.947e+03 2.396e-10
 74.55834   -212.5 1.061e+04 3.337e-10
 74.58003   -211.7 1.072e+04 3.525e-10
 74.61952   -210.5 1.073e+04 3.580e-10
 74.65902   -209.2 1.073e+04 3.654e-10
 74.69851   -207.9 1.074e+04 4.135e-10
 74.72699   -207.2 1.134e+04 5.786e-10
 74.74674   -207.6 1.145e+04 5.553e-10
 74.77750   -207.2 1.235e+04 9.161e-10
 74.81699   -207.6 1.300e+04 1.383e-09
 74.84652   -207.9 1.322e+04 1.759e-09
 74.86617   -207.8 1.329e+04 1.882e-09
 74.88016   -207.7 1.343e+04 1.984e-09
 74.89004   -209.5 1.436e+04 2.022e-09
 74.90566   -215.1 1.957e+04 3.519e-09
 74.92541   -221.7 2.258e+04 9.529e-09
 74.94017   -225.5 2.325e+04 1.515e-08
 74.95000   -229.0 2.337e+04 2.046e-08
 74.95719   -232.4 2.327e+04 2.474e-08
 74.96213   -233.1 2.360e+04 2.790e-08
 74.96551   -236.8 2.342e+04 2.965e-08
 74.97044   -238.5 2.317e+04 3.292e-08
 74.97962   -241.7 2.260e+04 2.859e-08
 74.98949   -244.7 2.193e+04 2.179e-08
 74.99937   -247.4 2.132e+04 1.559e-08
 75.00924   -249.9 2.064e+04 1.126e-08
 75.01911   -252.1 1.984e+04 8.576e-09
 75.02899   -253.8 1.907e+04 7.102e-09
 75.04112   -255.9 1.811e+04 5.854e-09
 75.05104   -258.6 1.576e+04 2.578e-09
 75.06364   -260.1 1.404e+04 1.835e-09
 75.08339   -260.7 1.312e+04 1.484e-09
 75.10314   -260.7 1.286e+04 1.361e-09
 75.12289   -260.7 1.263e+04 1.240e-09
 75.14263   -260.9 1.238e+04 1.120e-09
 75.16238   -261.5 1.211e+04 1.014e-09
 75.17790   -262.4 1.186e+04 9.341e-10
 75.18777   -263.0 1.229e+04 1.196e-09
 75.20188   -263.8 1.198e+04 1.111e-09
 75.21205   -264.3 1.175e+04 1.088e-09
 75.22193   -263.5 1.089e+04 6.662e-10
 75.24137   -263.7 1.097e+04 7.394e-10
 75.26112   -263.7 1.104e+04 8.197e-10
 75.28087   -263.7 1.108e+04 8.814e-10
 75.30061   -263.4 1.107e+04 9.051e-10
 75.32036   -263.1 1.104e+04 9.056e-10
 75.34011   -262.6 1.092e+04 8.465e-10
 75.35986   -262.2 1.077e+04 7.429e-10
 75.37306   -261.6 1.061e+04 6.162e-10
 75.38294   -260.4 1.037e+04 5.471e-10
 75.39851   -259.6 1.029e+04 4.651e-10
 75.40839   -259.8 1.026e+04 4.568e-10
 75.41910   -259.5 1.026e+04 4.122e-10
 75.44882   -260.0 1.032e+04 3.889e-10
 75.48841   -260.5 1.033e+04 3.803e-10
 75.52439   -260.6 1.041e+04 3.867e-10
 75.54414   -258.9 1.028e+04 3.773e-10
 75.56740   -259.0 1.045e+04 3.991e-10
 75.60689   -259.0 1.056e+04 4.205e-10
 75.62920   -258.9 1.059e+04 4.255e-10
 75.64894   -258.3 1.060e+04 4.168e-10
 75.68588   -258.3 1.052e+04 3.809e-10
 75.72538   -258.4 1.047e+04 3.535e-10
 75.76487   -257.8 1.049e+04 3.543e-10
 75.79440   -256.8 1.068e+04 4.017e-10
 75.81405   -256.6 1.082e+04 4.415e-10
 75.83379   -256.5 1.098e+04 4.755e-10
 75.84962   -256.4 1.111e+04 4.996e-10
 75.85949   -256.2 1.107e+04 4.961e-10
 75.86596   -256.2 1.122e+04 5.227e-10
 75.87584   -255.5 1.131e+04 5.250e-10
 75.89304   -255.7 1.137e+04 5.318e-10
 75.91278   -256.0 1.137e+04 5.328e-10
 75.93253   -256.4 1.134e+04 5.288e-10
 75.95228   -256.6 1.128e+04 5.219e-10
 75.97203   -256.8 1.124e+04 5.183e-10
 75.99177   -256.9 1.122e+04 5.172e-10
 76.01152   -256.9 1.120e+04 5.159e-10
 76.02697   -256.8 1.112e+04 5.122e-10
 76.03684   -256.5 1.110e+04 5.036e-10
 76.05102   -256.3 1.093e+04 4.641e-10
 76.07023   -255.4 1.072e+04 4.059e-10
 76.08010   -254.7 1.068e+04 3.862e-10
 76.09051   -253.3 1.057e+04 3.394e-10
 76.12023   -252.3 1.054e+04 3.140e-10
 76.15982   -251.3 1.049e+04 2.838e-10
 76.18818   -249.8 1.036e+04 2.518e-10
 76.20792   -250.3 1.029e+04 2.299e-10
 76.23881   -248.2 1.013e+04 2.080e-10
 76.27831   -245.7 1.006e+04 2.007e-10
 76.31780   -243.1 1.005e+04 1.997e-10
 76.35730   -240.6 1.005e+04 2.006e-10
 76.39679   -238.4 1.005e+04 2.245e-10
 76.43629   -236.7 1.049e+04 3.367e-10
 76.47578   -235.3 1.135e+04 5.703e-10
 76.50531   -234.4 1.196e+04 8.154e-10
 76.51987   -234.2 1.254e+04 1.096e-09
 76.52612   -234.4 1.273e+04 1.192e-09
 76.53130   -234.4 1.195e+04 7.807e-10
 76.54480   -234.0 1.282e+04 1.286e-09
 76.56445   -233.9 1.345e+04 1.722e-09
 76.58420   -234.2 1.430e+04 2.380e-09
 76.60395   -235.3 1.525e+04 3.303e-09
 76.62369   -236.4 1.625e+04 4.653e-09
 76.64344   -237.3 1.735e+04 6.742e-09
 76.66319   -238.0 1.845e+04 9.837e-09
 76.68088   -238.7 1.933e+04 1.355e-08
 76.69070   -239.8 2.054e+04 2.286e-08
 76.69765   -240.3 2.077e+04 2.534e-08
 76.70752   -241.0 2.085e+04 2.674e-08
 76.71740   -241.8 2.082e+04 2.691e-08
 76.72727   -242.4 2.047e+04 2.572e-08
 76.73714   -242.8 1.999e+04 2.262e-08
 76.74678   -243.2 1.935e+04 1.838e-08
 76.75172   -243.3 2.019e+04 2.401e-08
 76.75689   -244.0 1.965e+04 2.024e-08
 76.76622   -244.5 1.909e+04 1.716e-08
 76.77116   -244.6 1.913e+04 1.733e-08
 76.78162   -245.2 1.843e+04 1.388e-08
 76.80142   -245.4 1.702e+04 8.859e-09
 76.82117   -245.6 1.551e+04 5.401e-09
 76.84092   -245.7 1.406e+04 3.280e-09
 76.85176   -245.7 1.259e+04 1.953e-09
 76.86164   -245.8 1.221e+04 1.728e-09
 76.88041   -245.8 1.100e+04 1.012e-09
 76.90016   -245.4 1.003e+04 6.284e-10
 76.91991   -243.9 9.311e+03 4.273e-10
 76.93965   -242.0 9.052e+03 3.383e-10
 76.95940   -240.7 9.024e+03 3.120e-10
 76.97253   -240.2 9.019e+03 2.934e-10
 76.99238   -240.8 9.020e+03 2.893e-10
 77.02871   -239.5 8.851e+03 2.501e-10
 77.06821   -237.7 8.586e+03 2.093e-10
 77.10770   -235.8 8.356e+03 1.814e-10
 77.14720   -233.9 8.255e+03 1.682e-10
 77.17398   -232.1 8.235e+03 1.652e-10
 77.19372   -231.1 7.942e+03 1.258e-10
 77.22619   -229.1 7.936e+03 1.245e-10
 77.26568   -227.4 7.929e+03 1.272e-10
 77.30518   -225.9 8.220e+03 1.588e-10
 77.34467   -224.5 8.751e+03 2.275e-10
 77.38417   -222.9 9.342e+03 3.375e-10
 77.41386   -221.1 9.851e+03 4.806e-10
 77.43360   -221.8 1.017e+04 6.091e-10
 77.45318   -219.5 1.030e+04 6.658e-10
 77.47283   -219.3 1.044e+04 7.541e-10
 77.49258   -219.0 1.074e+04 9.056e-10
 77.50567   -219.3 1.138e+04 1.123e-09
 77.51555   -217.2 1.086e+04 8.783e-10
 77.53208   -217.6 1.151e+04 1.091e-09
 77.55182   -218.6 1.249e+04 1.493e-09
 77.57157   -219.7 1.355e+04 2.171e-09
 77.59132   -220.6 1.449e+04 3.039e-09
 77.61107   -221.4 1.511e+04 3.884e-09
 77.63081   -222.2 1.537e+04 4.312e-09
 77.64415   -222.9 1.539e+04 4.365e-09
 77.65402   -224.0 1.513e+04 3.999e-09
 77.66668   -224.6 1.471e+04 3.458e-09
 77.67655   -222.0 1.494e+04 3.761e-09
 77.69006   -222.6 1.448e+04 3.167e-09
 77.70980   -223.0 1.375e+04 2.404e-09
 77.72955   -223.4 1.287e+04 1.762e-09
 77.74930   -223.6 1.210e+04 1.346e-09
 77.76905   -223.5 1.157e+04 1.094e-09
 77.78879   -223.1 1.131e+04 9.338e-10
 77.80854   -222.3 1.121e+04 8.339e-10
 77.82769   -221.4 1.117e+04 7.722e-10
 77.83756   -220.2 1.104e+04 7.657e-10
 77.84804   -219.3 1.100e+04 7.044e-10
 77.86476   -218.5 1.098e+04 6.648e-10
 77.87464   -219.2 1.117e+04 7.047e-10
 77.88753   -218.4 1.130e+04 7.104e-10
 77.90728   -217.6 1.153e+04 7.994e-10
 77.92703   -216.8 1.178e+04 9.477e-10
 77.94677   -215.9 1.201e+04 1.147e-09
 77.96652   -214.9 1.221e+04 1.365e-09
 77.98627   -213.8 1.236e+04 1.566e-09
 77.99857   -212.8 1.244e+04 1.707e-09
 78.00845   -212.0 1.221e+04 1.324e-09
 78.02576   -211.1 1.232e+04 1.491e-09
 78.04551   -210.2 1.237e+04 1.614e-09
 78.06526   -209.3 1.237e+04 1.677e-09
 78.08501   -208.5 1.235e+04 1.682e-09
 78.09525   -207.7 1.227e+04 1.633e-09
 78.10512   -208.0 1.250e+04 1.794e-09
 78.12450   -207.3 1.243e+04 1.749e-09
 78.14425   -206.6 1.239e+04 1.703e-09
 78.15958   -205.9 1.239e+04 1.682e-09
 78.16945   -205.2 1.259e+04 1.881e-09
 78.18374   -204.5 1.261e+04 1.883e-09
 78.20349   -204.0 1.262e+04 1.881e-09
 78.22324   -203.7 1.264e+04 1.836e-09
 78.24299   -203.6 1.258e+04 1.738e-09
 78.26273   -203.7 1.244e+04 1.611e-09
 78.28248   -203.9 1.227e+04 1.478e-09
 78.30223   -204.3 1.206e+04 1.339e-09
 78.31586   -204.6 1.189e+04 1.234e-09
 78.32435   -205.6 1.200e+04 1.315e-09
 78.33046   -204.4 1.182e+04 1.210e-09
 78.34172   -204.6 1.163e+04 1.119e-09
 78.36147   -204.6 1.151e+04 1.072e-09
 78.38122   -204.5 1.145e+04 1.052e-09
 78.40097   -204.4 1.140e+04 1.035e-09
 78.42071   -204.0 1.132e+04 1.004e-09
 78.44046   -203.4 1.120e+04 9.581e-10
 78.46021   -202.9 1.108e+04 9.001e-10
 78.47996   -202.2 1.096e+04 8.429e-10
 78.49147   -201.6 1.088e+04 7.978e-10
 78.50135   -200.7 1.056e+04 6.337e-10
 78.51945   -200.0 1.054e+04 6.141e-10
 78.53648   -199.3 1.054e+04 6.094e-10
 78.54635   -199.7 1.046e+04 5.881e-10
 78.55895   -198.9 1.045e+04 5.829e-10
 78.57869   -197.9 1.045e+04 5.826e-10
 78.59844   -196.9 1.046e+04 5.934e-10
 78.61819   -195.8 1.045e+04 6.017e-10
 78.63794   -194.7 1.044e+04 6.016e-10
 78.65248   -193.3 1.036e+04 5.749e-10
 78.66235   -192.3 1.030e+04 4.902e-10
 78.67743   -190.9 1.027e+04 4.897e-10
 78.69718   -189.8 1.025e+04 4.731e-10
 78.71693   -188.3 1.022e+04 4.495e-10
 78.73667   -187.2 1.023e+04 4.331e-10
 78.75719   -185.6 1.023e+04 4.190e-10
 78.77703   -186.1 1.004e+04 3.598e-10
 78.80381   -183.5 9.852e+03 3.270e-10
 78.82356   -181.9 9.780e+03 3.290e-10
 78.84548   -179.1 9.720e+03 3.162e-10
 78.88497   -176.2 9.668e+03 3.059e-10
 78.92447   -173.3 9.641e+03 2.994e-10
 78.96396   -170.3 9.646e+03 2.962e-10
 79.00346   -167.2 9.658e+03 2.952e-10
 79.04295   -164.1 9.683e+03 2.958e-10
 79.08245   -161.1 9.745e+03 2.988e-10
 79.12194   -158.2 9.906e+03 3.098e-10
 79.14558   -155.4 1.012e+04 3.484e-10
 79.16532   -153.8 1.029e+04 4.100e-10
 79.19851   -151.2 1.063e+04 5.067e-10
 79.21826   -151.6 1.065e+04 5.144e-10
 79.24043   -149.3 1.108e+04 6.816e-10
 79.27992   -147.3 1.157e+04 9.240e-10
 79.31942   -145.5 1.209e+04 1.220e-09
 79.35891   -144.3 1.261e+04 1.525e-09
 79.38844   -143.1 1.305e+04 1.865e-09
 79.40809   -142.9 1.333e+04 1.987e-09
 79.42783   -142.8 1.389e+04 2.214e-09
 79.43868   -144.5 1.509e+04 2.905e-09
 79.44855   -144.0 1.468e+04 2.536e-09
 79.46733   -146.5 1.595e+04 3.766e-09
 79.48708   -147.0 1.778e+04 6.279e-09
 79.50682   -149.9 1.836e+04 8.806e-09
 79.52657   -153.2 1.842e+04 1.020e-08
 79.54632   -156.6 1.834e+04 1.041e-08
 79.56607   -159.7 1.778e+04 9.399e-09
 79.58581   -162.5 1.687e+04 7.191e-09
 79.60556   -165.0 1.576e+04 5.087e-09
 79.62531   -166.8 1.463e+04 3.546e-09
 79.63828   -167.9 1.370e+04 2.505e-09
 79.64816   -168.3 1.392e+04 2.288e-09
 79.65929   -169.6 1.323e+04 1.615e-09
 79.66917   -169.6 1.337e+04 1.552e-09
 79.68455   -171.1 1.281e+04 1.119e-09
 79.70430   -172.4 1.234e+04 8.601e-10
 79.72405   -173.5 1.193e+04 6.982e-10
 79.74379   -174.3 1.159e+04 5.913e-10
 79.76354   -174.7 1.133e+04 5.139e-10
 79.78329   -175.0 1.112e+04 4.520e-10
 79.79929   -175.1 1.094e+04 3.973e-10
 79.80916   -176.4 1.111e+04 3.920e-10
 79.82278   -176.6 1.101e+04 3.534e-10
 79.84253   -176.9 1.095e+04 3.313e-10
 79.86228   -177.1 1.094e+04 3.252e-10
 79.87991   -177.4 1.095e+04 3.251e-10
 79.88978   -177.5 1.093e+04 2.898e-10
 79.90177   -177.5 1.091e+04 2.933e-10
 79.92152   -177.6 1.090e+04 3.121e-10
 79.94127   -177.5 1.088e+04 3.357e-10
 79.96030   -177.3 1.086e+04 3.576e-10
 79.97017   -177.9 1.102e+04 4.515e-10
 79.98076   -177.7 1.105e+04 4.779e-10
 80.00051   -177.6 1.111e+04 5.033e-10
 80.02026   -177.5 1.119e+04 5.310e-10
 80.04001   -177.4 1.132e+04 5.660e-10
 80.05975   -177.2 1.145e+04 6.104e-10
 80.07950   -177.1 1.157e+04 6.660e-10
 80.09925   -176.8 1.166e+04 7.328e-10
 80.11039   -176.5 1.172e+04 8.083e-10
 80.12027   -176.3 1.143e+04 6.702e-10
 80.13118   -175.9 1.149e+04 7.318e-10
 80.14106   -176.3 1.169e+04 8.769e-10
 80.15849   -175.7 1.178e+04 9.314e-10
 80.17824   -174.9 1.200e+04 1.003e-09
 80.19799   -174.2 1.240e+04 1.101e-09
 80.21773   -173.9 1.292e+04 1.250e-09
 80.23748   -174.2 1.342e+04 1.506e-09
 80.25723   -175.0 1.402e+04 2.042e-09
 80.27698   -176.5 1.518e+04 3.283e-09
 80.29219   -178.2 1.705e+04 6.028e-09
 80.30206   -180.0 1.829e+04 8.797e-09
 80.31647   -182.4 2.034e+04 1.528e-08
 80.33096   -184.7 2.126e+04 2.073e-08
 80.34083   -188.6 2.156e+04 2.249e-08
 80.35098   -189.8 2.182e+04 2.467e-08
 80.36080   -192.3 2.186e+04 2.502e-08
 80.37068   -194.5 2.170e+04 2.471e-08
 80.37753   -196.5 2.109e+04 2.220e-08
 80.38247   -197.4 2.086e+04 2.192e-08
 80.39043   -198.8 2.001e+04 1.785e-08
 80.40030   -200.0 1.906e+04 1.349e-08
 80.41017   -201.2 1.808e+04 9.708e-09
 80.42005   -202.4 1.715e+04 6.866e-09
 80.42992   -203.7 1.621e+04 4.906e-09
 80.43979   -204.7 1.567e+04 4.004e-09
 80.45315   -206.2 1.507e+04 3.160e-09
 80.46307   -206.7 1.443e+04 2.129e-09
 80.47445   -208.2 1.345e+04 1.439e-09
 80.49420   -208.7 1.300e+04 1.175e-09
 80.51395   -208.9 1.280e+04 1.058e-09
 80.53369   -209.0 1.271e+04 9.897e-10
 80.55162   -209.0 1.262e+04 9.352e-10
 80.56150   -209.9 1.271e+04 9.417e-10
 80.57319   -210.0 1.261e+04 8.959e-10
 80.59294   -210.0 1.248e+04 8.511e-10
 80.61268   -209.8 1.232e+04 7.998e-10
 80.62408   -209.6 1.215e+04 7.396e-10
 80.63396   -210.0 1.219e+04 7.018e-10
 80.65218   -209.8 1.202e+04 6.454e-10
 80.67193   -209.6 1.184e+04 5.846e-10
 80.69167   -209.3 1.167e+04 5.302e-10
 80.71142   -209.0 1.152e+04 4.876e-10
 80.73117   -208.6 1.140e+04 4.568e-10
 80.75092   -208.1 1.131e+04 4.385e-10
 80.77066   -207.6 1.124e+04 4.308e-10
 80.78211   -207.0 1.122e+04 4.291e-10
 80.78666   -207.3 1.132e+04 4.612e-10
 80.79496   -207.7 1.137e+04 4.774e-10
 80.81016   -207.4 1.139e+04 4.789e-10
 80.82990   -207.4 1.147e+04 4.859e-10
 80.84965   -207.7 1.184e+04 5.404e-10
 80.86940   -208.4 1.232e+04 7.326e-10
 80.88915   -209.3 1.295e+04 1.094e-09
 80.90889   -210.0 1.366e+04 1.653e-09
 80.92864   -210.8 1.432e+04 2.355e-09
 80.94610   -211.7 1.481e+04 3.014e-09
 80.95597   -212.8 1.490e+04 3.150e-09
 80.96814   -214.2 1.508e+04 3.407e-09
 80.98788   -216.0 1.510e+04 3.446e-09
 81.00272   -217.7 1.501e+04 3.376e-09
 81.01260   -218.6 1.519e+04 3.655e-09
 81.02738   -220.4 1.491e+04 3.324e-09
 81.04713   -222.3 1.459e+04 2.982e-09
 81.06687   -224.0 1.419e+04 2.618e-09
 81.08662   -225.5 1.372e+04 2.221e-09
 81.10637   -226.6 1.322e+04 1.837e-09
 81.11698   -227.4 1.268e+04 1.468e-09
 81.12686   -228.4 1.232e+04 1.210e-09
 81.14586   -228.8 1.183e+04 9.565e-10
 81.16561   -229.0 1.144e+04 7.782e-10
 81.18536   -229.2 1.113e+04 6.556e-10
 81.20511   -229.0 1.088e+04 5.724e-10
 81.22334   -228.6 1.072e+04 5.204e-10
 81.23321   -229.4 1.092e+04 5.705e-10
 81.24460   -228.9 1.087e+04 5.603e-10
 81.26435   -228.3 1.085e+04 5.558e-10
 81.27799   -227.7 1.085e+04 5.541e-10
 81.28786   -228.3 1.064e+04 4.759e-10
 81.30384   -227.8 1.068e+04 4.909e-10
 81.32359   -227.3 1.074e+04 5.187e-10
 81.34334   -226.8 1.085e+04 5.598e-10
 81.36309   -226.4 1.099e+04 6.130e-10
 81.38283   -226.1 1.116e+04 6.777e-10
 81.40258   -225.9 1.133e+04 7.516e-10
 81.42233   -225.8 1.149e+04 8.293e-10
 81.43900   -225.8 1.164e+04 9.036e-10
 81.44887   -226.2 1.161e+04 8.897e-10
 81.45382   -226.2 1.175e+04 9.517e-10
 81.46370   -226.6 1.167e+04 9.063e-10
 81.48157   -226.5 1.175e+04 9.397e-10
 81.50132   -226.4 1.183e+04 9.602e-10
 81.52107   -226.4 1.189e+04 9.706e-10
 81.54081   -226.5 1.194e+04 9.779e-10
 81.56056   -226.6 1.200e+04 9.905e-10
 81.58031   -226.7 1.206e+04 1.016e-09
 81.60001   -226.8 1.211e+04 1.060e-09
 81.61976   -226.7 1.217e+04 1.137e-09
 81.63955   -226.6 1.222e+04 1.222e-09
 81.65930   -226.3 1.226e+04 1.296e-09
 81.67444   -226.0 1.229e+04 1.344e-09
 81.68431   -225.3 1.213e+04 1.217e-09
 81.69879   -225.2 1.224e+04 1.306e-09
 81.71854   -225.8 1.271e+04 1.502e-09
 81.73829   -227.4 1.372e+04 1.967e-09
 81.75804   -229.4 1.502e+04 2.897e-09
 81.77089   -231.3 1.618e+04 4.403e-09
 81.78076   -230.9 1.662e+04 5.517e-09
 81.79753   -232.6 1.736e+04 7.407e-09
 81.81728   -234.5 1.763e+04 8.405e-09
 81.83703   -236.6 1.762e+04 8.562e-09
 81.85677   -238.1 1.696e+04 7.486e-09
 81.87652   -239.2 1.586e+04 5.288e-09
 81.89505   -240.3 1.468e+04 3.475e-09
 81.90493   -241.1 1.478e+04 3.658e-09
 81.91602   -242.6 1.364e+04 2.418e-09
 81.93190   -243.7 1.278e+04 1.726e-09
 81.94177   -243.4 1.262e+04 1.654e-09
 81.95551   -243.9 1.208e+04 1.306e-09
 81.97526   -244.0 1.168e+04 1.072e-09
 81.99501   -244.1 1.139e+04 9.105e-10
 82.01475   -244.1 1.115e+04 7.969e-10
 82.03450   -244.0 1.094e+04 7.079e-10
 82.05425   -243.9 1.072e+04 6.264e-10
 82.07400   -243.5 1.044e+04 5.386e-10
 82.09291   -242.5 1.016e+04 4.553e-10
 82.10278   -240.8 1.011e+04 4.299e-10
 82.12346   -239.5 1.004e+04 3.850e-10
 82.16305   -239.1 9.939e+03 3.537e-10
 82.20255   -238.0 9.754e+03 3.178e-10
 82.24204   -236.5 9.594e+03 2.936e-10
 82.28154   -234.7 9.521e+03 2.823e-10
 82.32103   -232.7 9.512e+03 2.800e-10
 82.34635   -230.9 9.569e+03 2.917e-10
 82.36610   -231.3 9.686e+03 3.035e-10
 82.40002   -230.2 1.071e+04 5.331e-10
 82.42500   -229.1 1.166e+04 9.495e-10
 82.44474   -226.6 1.097e+04 6.595e-10
 82.47901   -225.5 1.185e+04 1.137e-09
 82.51851   -224.8 1.231e+04 1.508e-09
 82.55800   -224.5 1.242e+04 1.606e-09
 82.59750   -224.4 1.226e+04 1.519e-09
 82.63699   -224.4 1.169e+04 1.096e-09
 82.67649   -225.0 1.134e+04 8.432e-10
 82.71598   -225.7 1.134e+04 8.119e-10
 82.74701   -227.4 1.151e+04 8.727e-10
 82.76666   -226.9 1.163e+04 9.404e-10
 82.78490   -228.2 1.183e+04 1.150e-09
 82.79726   -229.2 1.182e+04 1.288e-09
 82.80713   -228.8 1.149e+04 1.058e-09
 82.82440   -229.5 1.145e+04 1.101e-09
 82.84415   -230.0 1.143e+04 1.110e-09
 82.86389   -230.2 1.119e+04 1.112e-09
 82.88364   -230.2 1.092e+04 1.022e-09
 82.90339   -230.1 1.067e+04 9.073e-10
 82.91770   -229.7 1.043e+04 7.893e-10
 82.92757   -229.3 1.044e+04 8.261e-10
 82.94288   -228.8 1.020e+04 6.969e-10
 82.96263   -228.2 1.003e+04 5.949e-10
 82.98238   -227.7 9.909e+03 5.165e-10
 83.00213   -227.2 9.888e+03 4.623e-10
 83.01787   -226.8 9.947e+03 4.369e-10
 83.02774   -226.4 9.903e+03 4.306e-10
 83.04162   -226.1 9.941e+03 4.233e-10
 83.06137   -225.8 9.973e+03 4.223e-10
 83.07871   -225.7 1.018e+04 4.301e-10
 83.08858   -224.5 9.761e+03 3.511e-10
 83.10086   -224.6 1.002e+04 3.658e-10
 83.12061   -224.4 1.023e+04 4.157e-10
 83.14036   -224.3 1.039e+04 5.013e-10
 83.16011   -224.0 1.053e+04 6.151e-10
 83.17985   -223.6 1.067e+04 7.423e-10
 83.19960   -223.1 1.080e+04 8.546e-10
 83.21935   -222.6 1.086e+04 9.181e-10
 83.23848   -222.1 1.088e+04 9.329e-10
 83.24836   -222.0 1.084e+04 9.152e-10
 83.24959   -221.5 1.082e+04 9.103e-10
 83.25947   -221.0 1.079e+04 8.764e-10
 83.27859   -220.6 1.078e+04 8.777e-10
 83.29834   -220.1 1.067e+04 8.366e-10
 83.31809   -219.7 1.052e+04 7.672e-10
 83.33783   -219.3 1.035e+04 6.873e-10
 83.35758   -218.9 1.020e+04 6.033e-10
 83.37733   -218.3 1.007e+04 5.158e-10
 83.39708   -217.6 9.986e+03 4.346e-10
 83.41070   -217.0 9.922e+03 3.745e-10
 83.42057   -217.2 1.007e+04 5.493e-10
 83.43657   -216.3 1.001e+04 4.883e-10
 83.45632   -215.4 1.000e+04 4.402e-10
 83.46897   -214.5 1.004e+04 4.153e-10
 83.47884   -214.5 1.003e+04 4.090e-10
 83.50579   -214.0 1.008e+04 4.002e-10
 83.54538   -213.5 1.001e+04 3.636e-10
 83.58487   -212.4 9.874e+03 3.247e-10
 83.62437   -211.0 9.775e+03 2.967e-10
 83.66386   -209.4 9.711e+03 2.739e-10
 83.68978   -207.6 9.655e+03 2.518e-10
 83.70953   -207.5 9.545e+03 2.394e-10
 83.73281   -205.6 9.459e+03 2.110e-10
 83.75256   -204.8 9.573e+03 2.531e-10
 83.78235   -202.8 9.443e+03 2.238e-10
 83.82184   -200.7 9.339e+03 1.998e-10
 83.86134   -198.6 9.280e+03 1.844e-10
 83.90083   -196.5 9.265e+03 1.787e-10
 83.94033   -194.4 9.267e+03 1.777e-10
 83.97982   -192.3 9.353e+03 1.840e-10
 84.01932   -190.4 9.486e+03 2.008e-10
 84.05483   -188.4 9.620e+03 2.228e-10
 84.07458   -187.3 9.930e+03 2.930e-10
 84.09831   -185.4 1.007e+04 3.181e-10
 84.13101   -183.6 1.022e+04 3.447e-10
 84.15075   -182.9 9.721e+03 2.560e-10
 84.17730   -180.8 9.936e+03 2.892e-10
 84.21679   -178.9 1.015e+04 3.237e-10
 84.25629   -177.2 1.035e+04 3.595e-10
 84.29578   -175.6 1.053e+04 4.013e-10
 84.33528   -174.3 1.069e+04 4.604e-10
 84.37477   -173.0 1.094e+04 5.417e-10
 84.39660   -171.7 1.126e+04 6.501e-10
 84.40637   -171.7 1.102e+04 5.195e-10
 84.42394   -171.4 1.113e+04 5.370e-10
 84.44369   -171.2 1.123e+04 5.472e-10
 84.46344   -171.0 1.127e+04 5.491e-10
 84.49316   -171.0 1.130e+04 5.418e-10
 84.53275   -170.6 1.147e+04 5.784e-10
 84.57223   -170.5 1.156e+04 5.998e-10
 84.61173   -169.7 1.170e+04 7.014e-10
 84.65124   -169.9 1.165e+04 6.585e-10
 84.69073   -169.4 1.152e+04 5.627e-10
 84.71861   -168.8 1.143e+04 4.852e-10
 84.73836   -169.4 1.150e+04 5.480e-10
 84.76972   -168.5 1.134e+04 5.075e-10
 84.80922   -167.8 1.117e+04 4.718e-10
 84.84871   -166.9 1.110e+04 4.628e-10
 84.88821   -166.2 1.107e+04 4.613e-10
 84.92770   -165.6 1.104e+04 4.679e-10
 84.96720   -165.2 1.100e+04 4.762e-10
 85.00669   -165.0 1.094e+04 4.853e-10
 85.03321   -164.8 1.089e+04 4.892e-10
 85.04740   -164.6 1.076e+04 4.624e-10
 85.06038   -164.4 1.088e+04 4.997e-10
 85.08568   -164.1 1.067e+04 4.313e-10
 85.12518   -163.8 1.040e+04 3.453e-10
 85.16467   -163.5 1.016e+04 2.710e-10
 85.20417   -163.2 9.964e+03 2.172e-10
 85.24366   -162.3 9.830e+03 1.842e-10
 85.28316   -161.0 9.754e+03 1.717e-10
 85.32265   -159.6 9.735e+03 1.694e-10
 85.36215   -158.0 9.751e+03 1.781e-10
 85.38240   -156.4 9.874e+03 2.163e-10
 85.40214   -156.5 9.634e+03 1.864e-10
 85.44114   -154.8 9.789e+03 2.258e-10
 85.47444   -153.2 9.978e+03 2.797e-10
 85.49418   -152.9 9.975e+03 2.745e-10
 85.52012   -151.3 1.017e+04 3.367e-10
 85.55962   -149.8 1.031e+04 3.922e-10
 85.59911   -148.4 1.038e+04 4.188e-10
 85.63861   -147.1 1.039e+04 4.223e-10
 85.67810   -145.8 1.029e+04 4.010e-10
 85.70441   -144.3 1.010e+04 3.408e-10
 85.72416   -144.6 9.975e+03 2.818e-10
 85.75709   -143.1 9.819e+03 2.406e-10
 85.79659   -141.6 9.701e+03 2.071e-10
 85.83608   -140.2 9.616e+03 1.819e-10
 85.87558   -138.9 9.539e+03 1.627e-10
 85.91507   -137.4 9.448e+03 1.469e-10
 85.93541   -135.9 9.339e+03 1.322e-10
 85.95516   -135.6 9.358e+03 1.320e-10
 85.99406   -134.1 9.244e+03 1.183e-10
 86.02643   -132.6 9.194e+03 1.092e-10
 86.04618   -133.3 9.168e+03 1.071e-10
 86.07305   -131.9 9.165e+03 1.049e-10
 86.11255   -130.9 9.189e+03 1.049e-10
 86.15204   -130.5 9.491e+03 1.222e-10
 86.19154   -130.3 9.763e+03 1.778e-10
 86.23103   -130.2 9.981e+03 2.495e-10
 86.27053   -130.2 1.015e+04 3.087e-10
 86.31002   -130.5 1.022e+04 3.313e-10
 86.34845   -130.9 1.021e+04 3.298e-10
 86.36820   -131.1 1.015e+04 3.085e-10
 86.37664   -131.4 1.005e+04 2.710e-10
 86.39639   -133.1 9.972e+03 2.235e-10
 86.42851   -133.4 9.874e+03 1.820e-10
 86.46800   -133.7 9.793e+03 1.533e-10
 86.50750   -133.8 9.695e+03 1.377e-10
 86.54699   -133.7 9.688e+03 1.328e-10
 86.58649   -133.5 9.703e+03 1.384e-10
 86.62598   -133.1 9.643e+03 1.605e-10
 86.66548   -132.4 9.541e+03 1.829e-10
 86.69021   -131.4 9.413e+03 1.928e-10
 86.70996   -131.5 9.516e+03 2.283e-10
 86.74447   -130.2 9.282e+03 2.104e-10
 86.78396   -128.8 9.027e+03 1.804e-10
 86.81787   -127.3 8.782e+03 1.527e-10
 86.83762   -128.4 8.533e+03 1.110e-10
 86.86295   -126.9 8.434e+03 1.001e-10
 86.90245   -125.5 8.420e+03 9.756e-11
 86.94194   -124.5 8.499e+03 1.019e-10
 86.98144   -124.0 8.747e+03 1.450e-10
 87.01223   -123.9 9.079e+03 2.283e-10
 87.03198   -124.3 9.471e+03 3.023e-10
 87.06043   -124.3 1.010e+04 5.215e-10
 87.09992   -124.4 1.064e+04 7.867e-10
 87.12945   -125.1 1.093e+04 9.804e-10
 87.14910   -125.4 1.094e+04 1.001e-09
 87.16884   -126.0 1.091e+04 1.041e-09
 87.18292   -126.2 1.088e+04 1.060e-09
 87.19279   -126.3 1.109e+04 1.199e-09
 87.20834   -126.4 1.089e+04 1.132e-09
 87.22809   -126.4 1.063e+04 1.004e-09
 87.24783   -126.4 1.035e+04 8.697e-10
 87.26758   -126.4 1.008e+04 7.460e-10
 87.27865   -126.3 9.821e+03 6.405e-10
 87.28852   -126.7 9.935e+03 6.775e-10
 87.30708   -126.7 9.716e+03 5.952e-10
 87.32682   -126.6 9.566e+03 5.385e-10
 87.34393   -126.5 9.478e+03 5.027e-10
 87.35380   -126.6 9.504e+03 5.017e-10
 87.36632   -126.5 9.495e+03 4.916e-10
 87.38607   -126.6 9.477e+03 4.879e-10
 87.41578   -126.8 9.418e+03 4.837e-10
 87.45538   -126.6 9.312e+03 4.912e-10
 87.49487   -126.3 9.292e+03 5.014e-10
 87.53437   -125.8 9.298e+03 5.042e-10
 87.56389   -125.3 9.182e+03 4.732e-10
 87.58354   -125.3 9.146e+03 4.671e-10
 87.60329   -125.0 9.042e+03 4.450e-10
 87.62304   -124.8 9.000e+03 4.385e-10
 87.65275   -124.4 8.976e+03 4.348e-10
 87.67601   -124.2 8.850e+03 3.996e-10
 87.69576   -124.7 8.809e+03 3.832e-10
 87.72007   -124.6 8.631e+03 3.336e-10
 87.73982   -124.7 8.315e+03 2.568e-10
 87.77134   -124.3 8.274e+03 2.467e-10
 87.81083   -124.0 8.314e+03 2.492e-10
 87.85033   -123.9 8.627e+03 2.949e-10
 87.88982   -123.6 8.963e+03 3.667e-10
 87.92932   -123.3 9.201e+03 4.314e-10
 87.96881   -123.0 9.332e+03 4.745e-10
 87.99793   -122.7 9.421e+03 5.087e-10
 88.00771   -122.8 9.414e+03 5.078e-10
 88.01798   -122.8 9.467e+03 5.375e-10
 88.03773   -122.4 9.564e+03 5.672e-10
 88.05748   -122.1 9.666e+03 5.899e-10
 88.07723   -121.9 9.719e+03 5.981e-10
 88.09697   -121.8 9.691e+03 5.852e-10
 88.12669   -121.8 9.587e+03 5.504e-10
 88.16130   -120.7 9.495e+03 5.098e-10
 88.18105   -119.7 9.594e+03 5.268e-10
 88.20578   -118.2 9.485e+03 4.770e-10
 88.24528   -116.8 9.383e+03 4.286e-10
 88.28477   -115.3 9.240e+03 3.740e-10
 88.32005   -113.7 9.073e+03 3.196e-10
 88.33980   -113.5 9.352e+03 3.766e-10
 88.36376   -111.8 9.267e+03 3.327e-10
 88.40326   -110.0 9.227e+03 2.974e-10
 88.44275   -108.3 9.200e+03 2.757e-10
 88.48225   -106.6 9.204e+03 2.693e-10
 88.52174   -104.7 9.226e+03 2.687e-10
 88.56124   -102.7 9.286e+03 2.691e-10
 88.60073   -100.9 9.404e+03 2.797e-10
 88.62227    -99.1 9.627e+03 3.096e-10
 88.64202    -97.2 9.571e+03 2.961e-10
 88.66182    -95.7 9.823e+03 3.359e-10
 88.68156    -96.0 1.011e+04 3.776e-10
 88.70924    -94.7 1.026e+04 4.164e-10
 88.72889    -94.2 1.030e+04 4.287e-10
 88.74864    -93.4 1.030e+04 4.366e-10
 88.76839    -92.5 1.025e+04 4.293e-10
 88.78814    -91.5 1.022e+04 4.122e-10
 88.80788    -90.4 1.029e+04 3.970e-10
 88.82263    -89.4 1.035e+04 3.930e-10
 88.83250    -89.7 1.039e+04 4.173e-10
 88.84269    -88.9 1.042e+04 4.113e-10
 88.85257    -88.2 1.037e+04 3.813e-10
 88.86713    -86.9 1.042e+04 3.643e-10
 88.88687    -86.3 1.049e+04 3.670e-10
 88.90662    -85.0 1.063e+04 3.739e-10
 88.92637    -84.7 1.075e+04 3.982e-10
 88.94612    -83.7 1.093e+04 4.489e-10
 88.96586    -82.9 1.106e+04 5.053e-10
 88.98364    -82.1 1.122e+04 5.966e-10
 88.99351    -82.4 1.139e+04 6.579e-10
 89.00536    -81.7 1.154e+04 7.666e-10
 89.02511    -81.0 1.171e+04 8.972e-10
 89.04485    -80.2 1.193e+04 1.049e-09
 89.06331    -79.5 1.215e+04 1.205e-09
 89.07318    -78.6 1.182e+04 9.961e-10
 89.08435    -78.0 1.208e+04 1.181e-09
 89.10410    -77.4 1.234e+04 1.364e-09
 89.12384    -76.9 1.258e+04 1.502e-09
 89.14359    -76.7 1.273e+04 1.597e-09
 89.15452    -76.6 1.279e+04 1.694e-09
 89.16439    -77.2 1.307e+04 2.021e-09
 89.18309    -77.1 1.314e+04 2.178e-09
 89.20283    -76.9 1.323e+04 2.346e-09
 89.22258    -76.6 1.327e+04 2.466e-09
 89.24233    -76.3 1.325e+04 2.492e-09
 89.26208    -75.7 1.303e+04 2.396e-09
 89.28182    -74.9 1.270e+04 2.161e-09
 89.29379    -74.0 1.228e+04 1.817e-09
 89.30367    -73.6 1.212e+04 1.622e-09
 89.31553    -72.8 1.182e+04 1.427e-09
 89.32540    -73.0 1.170e+04 1.295e-09
 89.34107    -72.2 1.140e+04 1.069e-09
 89.36081    -71.3 1.116e+04 9.144e-10
 89.38056    -70.4 1.103e+04 7.980e-10
 89.40031    -69.7 1.089e+04 6.967e-10
 89.43003    -69.1 1.064e+04 5.814e-10
 89.46962    -67.3 1.057e+04 5.672e-10
 89.50473    -65.6 1.054e+04 5.894e-10
 89.52448    -65.2 1.070e+04 6.778e-10
 89.54861    -63.5 1.067e+04 6.888e-10
 89.58810    -61.7 1.055e+04 6.555e-10
 89.62760    -59.9 1.045e+04 6.233e-10
 89.64752    -58.9 1.033e+04 6.021e-10
 89.65729    -59.0 1.028e+04 5.715e-10
 89.67677    -58.0 1.027e+04 5.643e-10
 89.69652    -57.1 1.026e+04 5.587e-10
 89.71627    -56.2 1.024e+04 5.556e-10
 89.73502    -55.2 1.029e+04 5.759e-10
 89.74489    -55.7 1.014e+04 5.051e-10
 89.75576    -55.0 1.026e+04 5.574e-10
 89.77551    -54.3 1.042e+04 6.324e-10
 89.79526    -53.6 1.059e+04 7.228e-10
 89.80843    -52.8 1.079e+04 8.260e-10
 89.81830    -53.1 1.094e+04 8.842e-10
 89.83475    -52.3 1.123e+04 1.038e-09
 89.85450    -51.5 1.140e+04 1.135e-09
 89.87425    -50.7 1.139e+04 1.151e-09
 89.89399    -50.1 1.117e+04 1.096e-09
 89.91374    -50.1 1.106e+04 1.040e-09
 89.93349    -53.9 1.307e+04 1.290e-09
 89.95324    -60.4 1.661e+04 2.757e-09
 89.96551    -65.8 1.916e+04 7.242e-09
 89.97184    -68.2 1.992e+04 8.860e-09
 89.97926    -71.1 2.083e+04 2.058e-08
 89.98770    -72.1 2.121e+04 2.832e-08
 89.99757    -73.1 2.156e+04 3.432e-08
 90.00745    -74.2 2.173e+04 3.577e-08
 90.01732    -75.7 2.166e+04 3.407e-08
 90.02719    -77.3 2.128e+04 2.596e-08
 90.03707    -79.4 2.048e+04 1.783e-08
 90.05193    -82.6 1.897e+04 9.985e-09
 90.07172    -87.5 1.618e+04 4.330e-09
 90.09147    -91.4 1.310e+04 2.006e-09
 90.11122    -93.2 1.151e+04 1.270e-09
 90.13045    -93.7 1.108e+04 1.095e-09
 90.14032    -94.8 1.068e+04 9.315e-10
 90.15071    -94.6 1.094e+04 9.399e-10
 90.17046    -95.0 1.157e+04 1.102e-09
 90.18612    -95.4 1.217e+04 1.448e-09
 90.19600    -93.6 1.131e+04 9.250e-10
 90.20995    -93.9 1.178e+04 1.177e-09
 90.22970    -94.0 1.211e+04 1.512e-09
 90.24945    -93.4 1.226e+04 1.829e-09
 90.26920    -92.5 1.234e+04 2.033e-09
 90.28894    -91.3 1.235e+04 2.094e-09
 90.30133    -90.1 1.229e+04 1.969e-09
 90.31120    -90.8 1.072e+04 9.875e-10
 90.32844    -90.1 1.047e+04 7.871e-10
 90.34819    -89.8 1.013e+04 6.193e-10
 90.36793    -89.4 9.826e+03 5.088e-10
 90.38768    -88.9 9.623e+03 4.556e-10
 90.40674    -88.1 9.562e+03 4.376e-10
 90.41661    -87.0 9.584e+03 4.318e-10
 90.42718    -86.2 9.552e+03 4.211e-10
 90.44692    -85.0 9.528e+03 4.189e-10
 90.46234    -83.8 9.470e+03 4.130e-10
 90.47221    -83.8 9.333e+03 3.520e-10
 90.49639    -81.6 9.440e+03 3.902e-10
 90.53598    -78.9 9.446e+03 3.947e-10
 90.57548    -76.2 9.376e+03 3.757e-10
 90.61367    -73.5 9.175e+03 3.235e-10
 90.63342    -73.5 8.905e+03 2.609e-10
 90.65447    -70.8 8.776e+03 2.289e-10
 90.69396    -68.1 8.702e+03 2.053e-10
 90.73346    -65.3 8.690e+03 1.944e-10
 90.77295    -62.5 8.689e+03 1.922e-10
 90.81245    -59.7 8.761e+03 1.941e-10
 90.84816    -56.9 8.834e+03 2.082e-10
 90.86791    -56.4 8.956e+03 2.365e-10
 90.89144    -53.6 9.011e+03 2.460e-10
 90.93093    -50.7 9.075e+03 2.544e-10
 90.95543    -47.8 9.139e+03 2.622e-10
 90.97518    -48.1 9.122e+03 2.492e-10
 91.00992    -45.3 9.246e+03 2.608e-10
 91.04942    -42.7 9.435e+03 2.856e-10
 91.08891    -40.3 9.717e+03 3.449e-10
 91.12841    -38.0 1.016e+04 4.693e-10
 91.16790    -35.9 1.076e+04 6.983e-10
 91.19743    -33.8 1.142e+04 1.110e-09
 91.21708    -32.8 1.170e+04 1.333e-09
 91.23682    -31.0 1.251e+04 1.774e-09
 91.25657    -30.9 1.257e+04 1.867e-09
 91.27632    -29.2 1.295e+04 2.500e-09
 91.28713    -27.6 1.329e+04 2.873e-09
 91.29700    -27.5 1.310e+04 2.423e-09
 91.30894    -26.2 1.332e+04 2.746e-09
 91.31881    -26.8 1.318e+04 2.356e-09
 91.33556    -25.7 1.387e+04 2.828e-09
 91.35531    -25.4 1.488e+04 3.661e-09
 91.37506    -26.3 1.652e+04 5.118e-09
 91.39480    -28.0 1.859e+04 8.704e-09
 91.41455    -29.2 2.016e+04 1.595e-08
 91.42931    -30.8 2.090e+04 2.362e-08
 91.43914    -31.1 2.131e+04 2.861e-08
 91.44804    -31.1 2.150e+04 3.797e-08
 91.45298    -31.6 2.077e+04 3.297e-08
 91.45888    -31.1 2.085e+04 3.487e-08
 91.46876    -30.9 2.084e+04 3.458e-08
 91.47863    -30.7 2.072e+04 3.067e-08
 91.48851    -30.8 2.039e+04 2.438e-08
 91.49838    -31.2 2.015e+04 1.888e-08
 91.50825    -32.2 1.992e+04 1.446e-08
 91.51813    -33.3 1.968e+04 1.148e-08
 91.52800    -34.4 1.947e+04 9.142e-09
 91.53348    -35.5 1.933e+04 7.859e-09
 91.53494    -38.3 1.812e+04 5.212e-09
 91.53933    -38.8 1.743e+04 4.597e-09
 91.54775    -39.9 1.748e+04 4.664e-09
 91.55762    -40.8 1.761e+04 4.862e-09
 91.56750    -41.8 1.782e+04 5.437e-09
 91.57737    -42.7 1.786e+04 6.014e-09
 91.58724    -43.3 1.808e+04 7.010e-09
 91.59712    -44.1 1.798e+04 7.718e-09
 91.60699    -44.2 1.814e+04 9.222e-09
 91.61399    -44.5 1.803e+04 1.075e-08
 91.61892    -44.8 1.763e+04 1.216e-08
 91.62674    -44.2 1.795e+04 1.374e-08
 91.63661    -44.2 1.783e+04 1.415e-08
 91.64470    -43.7 1.752e+04 1.373e-08
 91.64964    -43.3 1.749e+04 1.385e-08
 91.65636    -42.8 1.714e+04 1.210e-08
 91.66623    -42.5 1.679e+04 1.014e-08
 91.67611    -42.0 1.679e+04 8.814e-09
 91.68598    -42.8 1.618e+04 6.931e-09
 91.69449    -42.6 1.605e+04 6.264e-09
 91.69943    -43.1 1.545e+04 5.137e-09
 91.71071    -43.6 1.517e+04 4.665e-09
 91.73051    -44.0 1.475e+04 4.133e-09
 91.75017    -43.9 1.440e+04 3.713e-09
 91.76991    -42.4 1.421e+04 3.701e-09
 91.78003    -41.8 1.364e+04 3.210e-09
 91.78990    -41.9 1.300e+04 2.257e-09
 91.80950    -40.9 1.271e+04 2.169e-09
 91.82925    -39.6 1.243e+04 2.054e-09
 91.84899    -38.0 1.211e+04 1.825e-09
 91.86874    -36.5 1.195e+04 1.518e-09
 91.88849    -35.2 1.172e+04 1.194e-09
 91.90824    -34.0 1.138e+04 9.351e-10
 91.92798    -32.7 1.116e+04 7.578e-10
 91.94104    -31.5 1.106e+04 6.435e-10
 91.95091    -31.4 1.126e+04 7.125e-10
 91.96748    -30.8 1.115e+04 6.575e-10
 91.99720    -28.5 1.147e+04 7.308e-10
 92.03679    -25.7 1.140e+04 8.154e-10
 92.07629    -22.7 1.159e+04 9.035e-10
 92.11578    -19.7 1.172e+04 9.911e-10
 92.15528    -17.0 1.175e+04 9.806e-10
 92.19159    -14.7 1.170e+04 9.850e-10
 92.21134    -14.9 1.221e+04 1.390e-09
 92.23427    -12.9 1.217e+04 1.427e-09
 92.26325    -10.8 1.212e+04 1.477e-09
 92.27303    -11.5 1.268e+04 1.905e-09
 92.28344    -10.4 1.266e+04 1.934e-09
 92.30319     -9.4 1.267e+04 1.983e-09
 92.32293     -8.4 1.258e+04 1.946e-09
 92.34268     -7.6 1.250e+04 1.895e-09
 92.36243     -6.7 1.236e+04 1.765e-09
 92.38218     -5.5 1.217e+04 1.611e-09
 92.40192     -4.7 1.204e+04 1.461e-09
 92.42167     -3.8 1.184e+04 1.275e-09
 92.43176     -3.0 1.185e+04 1.137e-09
 92.43415     -3.4 1.229e+04 1.432e-09
 92.44381     -4.1 1.322e+04 1.929e-09
 92.46117     -3.8 1.328e+04 1.783e-09
 92.48091     -3.3 1.334e+04 1.758e-09
 92.50066     -3.2 1.367e+04 1.904e-09
 92.52041     -3.8 1.442e+04 2.444e-09
 92.54016     -4.5 1.506e+04 3.559e-09
 92.55990     -4.3 1.558e+04 5.348e-09
 92.57965     -3.4 1.602e+04 7.385e-09
 92.59495     -2.2 1.624e+04 8.414e-09
 92.60482     -2.8 1.696e+04 9.551e-09
 92.61915     -1.8 1.690e+04 9.139e-09
 92.63889     -0.9 1.662e+04 7.808e-09
 92.65237     -0.4 1.621e+04 6.187e-09
 92.66224      0.1 1.581e+04 5.395e-09
 92.67839      0.0 1.530e+04 3.909e-09
 92.69814     -0.4 1.467e+04 2.926e-09
 92.71788     -0.4 1.403e+04 2.525e-09
 92.73763      0.1 1.365e+04 2.460e-09
 92.75596      1.1 1.351e+04 2.550e-09
 92.76583      0.8 1.441e+04 2.912e-09
 92.77713      2.0 1.438e+04 2.945e-09
 92.79687      3.3 1.457e+04 3.263e-09
 92.81662      4.4 1.511e+04 3.824e-09
 92.83637      5.3 1.571e+04 4.585e-09
 92.85612      6.2 1.623e+04 5.654e-09
 92.87298      7.3 1.687e+04 7.167e-09
 92.88286      7.0 1.570e+04 4.651e-09
 92.89561      8.0 1.633e+04 5.886e-09
 92.91536      9.1 1.695e+04 7.362e-09
 92.92684     10.4 1.763e+04 9.070e-09
 92.93671      9.4 1.815e+04 9.082e-09
 92.95485     10.7 1.917e+04 1.093e-08
 92.97460     11.9 2.031e+04 1.294e-08
 92.98818     12.5 2.129e+04 1.486e-08
 92.99307     12.2 2.097e+04 1.294e-08
 92.99919     12.1 2.116e+04 1.308e-08
 93.00725     11.8 2.211e+04 1.466e-08
 93.01218     10.8 2.212e+04 1.472e-08
 93.01893     10.6 2.254e+04 1.618e-08
 93.02881      9.7 2.345e+04 1.951e-08
 93.03868      8.7 2.452e+04 2.458e-08
 93.04856      7.4 2.561e+04 3.246e-08
 93.05843      6.4 2.615e+04 4.492e-08
 93.06830      5.3 2.595e+04 6.578e-08
 93.07818      4.5 2.495e+04 1.025e-07
 93.08775      4.7 2.342e+04 1.689e-07
 93.09269      3.1 2.246e+04 1.221e-07
 93.09792      3.6 2.253e+04 1.376e-07
 93.10337      3.6 2.298e+04 1.284e-07
 93.10831      3.1 2.208e+04 7.931e-08
 93.11767      2.7 2.240e+04 8.176e-08
 93.12755      2.0 2.267e+04 7.937e-08
 93.13742      1.2 2.295e+04 7.492e-08
 93.14729      0.4 2.302e+04 6.640e-08
 93.15717     -0.7 2.305e+04 5.667e-08
 93.16704     -2.1 2.301e+04 4.795e-08
 93.17319     -3.8 2.303e+04 4.134e-08
 93.17813     -6.5 2.001e+04 1.634e-08
 93.18679     -7.9 1.964e+04 1.381e-08
 93.19666     -9.1 1.989e+04 1.211e-08
 93.20654    -10.1 2.014e+04 1.094e-08
 93.21368    -10.5 1.942e+04 9.092e-09
 93.21862    -10.4 1.865e+04 9.033e-09
 93.22628    -10.7 1.865e+04 7.946e-09
 93.23616    -11.5 1.845e+04 7.493e-09
 93.24603    -12.6 1.838e+04 6.757e-09
 93.25370    -13.4 1.849e+04 6.887e-09
 93.25863    -12.9 1.550e+04 4.093e-09
 93.26578    -14.2 1.580e+04 4.436e-09
 93.27565    -14.8 1.604e+04 4.710e-09
 93.28553    -16.2 1.683e+04 5.936e-09
 93.29540    -16.1 1.721e+04 7.053e-09
 93.30527    -16.6 1.769e+04 9.103e-09
 93.31515    -16.1 1.759e+04 1.078e-08
 93.32399    -16.0 1.795e+04 1.364e-08
 93.32892    -16.0 1.802e+04 1.343e-08
 93.33420    -15.0 1.810e+04 1.572e-08
 93.33914    -14.4 1.737e+04 1.076e-08
 93.34477    -14.2 1.795e+04 1.340e-08
 93.35464    -13.7 1.808e+04 1.480e-08
 93.36452    -13.0 1.827e+04 1.629e-08
 93.37439    -12.3 1.855e+04 1.737e-08
 93.38925    -11.4 1.907e+04 1.931e-08
 93.40904     -9.9 1.886e+04 1.736e-08
 93.41974     -9.1 1.863e+04 1.433e-08
 93.42961     -8.5 1.807e+04 1.399e-08
 93.44854     -7.9 1.795e+04 1.192e-08
 93.46829     -7.5 1.763e+04 1.035e-08
 93.48803     -7.3 1.746e+04 9.614e-09
 93.50778     -7.1 1.742e+04 9.223e-09
 93.52753     -6.6 1.729e+04 9.015e-09
 93.54470     -5.9 1.726e+04 9.109e-09
 93.55457     -5.2 1.752e+04 1.053e-08
 93.56702     -4.4 1.781e+04 1.153e-08
 93.58075     -3.7 1.797e+04 1.216e-08
 93.59062     -3.2 1.760e+04 1.112e-08
 93.60652     -2.5 1.773e+04 1.162e-08
 93.62627     -2.0 1.797e+04 1.219e-08
 93.64601     -1.5 1.806e+04 1.249e-08
 93.66576     -1.0 1.794e+04 1.213e-08
 93.68551     -0.1 1.754e+04 1.073e-08
 93.70526      1.1 1.682e+04 8.368e-09
 93.72500      2.3 1.603e+04 5.985e-09
 93.74176      3.2 1.517e+04 4.087e-09
 93.75163      3.7 1.526e+04 4.330e-09
 93.76450      4.2 1.440e+04 2.973e-09
 93.77519      4.8 1.356e+04 2.142e-09
 93.78506      5.3 1.409e+04 2.584e-09
 93.80399      5.8 1.322e+04 1.801e-09
 93.82374      6.6 1.253e+04 1.349e-09
 93.84349      7.8 1.211e+04 1.088e-09
 93.86324      9.0 1.191e+04 9.344e-10
 93.88298     10.3 1.180e+04 8.312e-10
 93.90273     11.5 1.171e+04 7.577e-10
 93.92248     12.6 1.184e+04 8.400e-10
 93.94223     13.7 1.179e+04 8.060e-10
 93.96197     14.8 1.170e+04 7.704e-10
 93.98172     16.1 1.163e+04 7.400e-10
 93.99580     17.3 1.161e+04 7.109e-10
 94.00567     17.1 1.114e+04 4.340e-10
 94.02122     18.1 1.114e+04 4.122e-10
 94.04096     19.3 1.111e+04 3.885e-10
 94.06071     20.1 1.111e+04 3.711e-10
 94.07365     21.0 1.108e+04 3.606e-10
 94.08352     21.0 1.126e+04 4.415e-10
 94.10021     21.6 1.126e+04 4.321e-10
 94.11995     22.3 1.123e+04 4.274e-10
 94.13970     22.8 1.121e+04 4.268e-10
 94.15945     23.5 1.116e+04 4.234e-10
 94.17920     24.1 1.112e+04 4.197e-10
 94.19894     24.9 1.101e+04 4.006e-10
 94.21641     25.5 1.094e+04 3.809e-10
 94.22629     25.4 1.077e+04 3.171e-10
 94.23476     26.4 1.072e+04 3.068e-10
 94.24463     26.8 1.069e+04 2.955e-10
 94.25819     27.1 1.063e+04 2.774e-10
 94.28791     28.3 1.059e+04 2.496e-10
 94.32750     29.2 1.034e+04 1.870e-10
 94.36699     30.1 1.012e+04 1.456e-10
 94.40649     31.1 9.992e+03 1.369e-10
 94.43722     32.2 9.989e+03 1.415e-10
 94.45697     32.4 9.806e+03 1.030e-10
 94.48548     33.2 9.895e+03 1.228e-10
 94.52497     34.1 1.012e+04 1.768e-10
 94.55687     34.7 1.046e+04 2.513e-10
 94.57662     34.1 1.050e+04 2.897e-10
 94.59399     34.1 1.071e+04 3.421e-10
 94.61364     33.6 1.099e+04 4.532e-10
 94.63339     32.9 1.148e+04 6.918e-10
 94.65314     32.3 1.212e+04 1.163e-09
 94.66751     32.3 1.278e+04 1.900e-09
 94.67739     32.1 1.254e+04 1.650e-09
 94.69263     32.2 1.309e+04 2.382e-09
 94.71238     32.5 1.354e+04 3.038e-09
 94.72756     32.4 1.384e+04 3.332e-09
 94.73743     32.1 1.360e+04 3.029e-09
 94.75187     31.8 1.380e+04 3.171e-09
 94.77162     31.3 1.378e+04 3.083e-09
 94.79137     30.7 1.356e+04 2.804e-09
 94.81112     30.4 1.319e+04 2.413e-09
 94.83086     30.4 1.280e+04 2.053e-09
 94.85061     30.5 1.247e+04 1.775e-09
 94.87036     30.9 1.223e+04 1.607e-09
 94.88813     31.4 1.205e+04 1.494e-09
 94.89646     31.1 1.151e+04 1.034e-09
 94.89844     31.6 1.136e+04 9.339e-10
 94.90985     32.1 1.124e+04 8.589e-10
 94.92960     32.7 1.118e+04 8.230e-10
 94.94935     33.4 1.116e+04 8.084e-10
 94.96910     34.0 1.113e+04 7.979e-10
 94.98884     34.6 1.108e+04 7.830e-10
 95.00859     35.2 1.101e+04 7.621e-10
 95.02834     35.7 1.092e+04 7.341e-10
 95.04809     36.2 1.083e+04 7.028e-10
 95.05945     36.6 1.076e+04 6.696e-10
 95.06932     37.4 1.054e+04 5.998e-10
 95.08758     37.8 1.049e+04 5.749e-10
 95.10733     38.2 1.048e+04 5.491e-10
 95.11862     38.5 1.052e+04 5.281e-10
 95.12849     38.7 1.034e+04 4.482e-10
 95.14682     39.1 1.034e+04 4.460e-10
 95.16657     39.5 1.036e+04 4.495e-10
 95.18632     39.7 1.047e+04 4.710e-10
 95.20606     39.7 1.086e+04 5.503e-10
 95.22046     39.3 1.158e+04 7.507e-10
 95.23033     40.7 1.089e+04 5.784e-10
 95.24556     40.5 1.161e+04 8.245e-10
 95.26531     40.6 1.237e+04 1.251e-09
 95.28505     41.0 1.300e+04 1.870e-09
 95.30480     41.7 1.342e+04 2.545e-09
 95.32455     42.8 1.366e+04 3.109e-09
 95.33923     43.9 1.373e+04 3.293e-09
 95.34910     44.8 1.306e+04 2.298e-09
 95.36404     45.7 1.318e+04 2.409e-09
 95.39376     47.3 1.289e+04 2.100e-09
 95.43336     48.6 1.293e+04 1.975e-09
 95.47285     50.1 1.278e+04 1.759e-09
 95.51235     51.9 1.265e+04 1.676e-09
 95.54267     53.9 1.263e+04 1.679e-09
 95.56242     55.1 1.273e+04 1.799e-09
 95.59134     56.9 1.280e+04 1.859e-09
 95.63083     58.6 1.282e+04 1.875e-09
 95.67033     60.2 1.276e+04 1.829e-09
 95.70982     61.7 1.266e+04 1.760e-09
 95.74932     63.1 1.263e+04 1.725e-09
 95.78065     64.2 1.270e+04 1.691e-09
 95.80030     64.2 1.325e+04 2.198e-09
 95.81824     64.0 1.355e+04 2.527e-09
 95.83798     63.7 1.389e+04 2.981e-09
 95.85773     63.4 1.427e+04 3.559e-09
 95.87437     63.0 1.464e+04 4.267e-09
 95.88424     63.0 1.441e+04 4.053e-09
 95.89723     62.7 1.467e+04 4.599e-09
 95.91697     62.7 1.479e+04 4.891e-09
 95.93672     62.6 1.478e+04 4.883e-09
 95.95647     62.7 1.467e+04 4.651e-09
 95.97622     62.9 1.441e+04 4.014e-09
 95.99596     63.2 1.409e+04 3.243e-09
 96.01094     63.3 1.377e+04 2.548e-09
 96.02082     62.4 1.378e+04 2.307e-09
 96.03538     62.4 1.350e+04 1.982e-09
 96.05512     62.6 1.302e+04 1.511e-09
 96.07495     62.8 1.298e+04 1.452e-09
 96.10467     64.1 1.304e+04 1.502e-09
 96.14427     65.8 1.299e+04 1.486e-09
 96.18376     67.7 1.288e+04 1.455e-09
 96.20645     69.7 1.295e+04 1.522e-09
 96.22483     69.5 1.283e+04 1.400e-09
 96.24163     69.3 1.301e+04 1.544e-09
 96.26275     71.3 1.332e+04 1.776e-09
 96.29227     72.2 1.354e+04 2.022e-09
 96.31192     72.8 1.386e+04 2.329e-09
 96.33167     73.3 1.424e+04 2.871e-09
 96.35142     74.1 1.461e+04 3.633e-09
 96.36727     74.9 1.499e+04 4.527e-09
 96.37714     74.8 1.529e+04 5.297e-09
 96.39091     75.7 1.560e+04 6.132e-09
 96.41066     76.4 1.570e+04 6.303e-09
 96.43041     77.2 1.565e+04 6.166e-09
 96.45016     77.9 1.550e+04 5.717e-09
 96.46205     78.6 1.529e+04 5.145e-09
 96.47192     78.8 1.507e+04 3.956e-09
 96.48965     79.2 1.497e+04 3.751e-09
 96.50940     79.6 1.487e+04 3.586e-09
 96.52828     80.0 1.476e+04 3.447e-09
 96.53815     80.0 1.453e+04 3.045e-09
 96.54889     80.5 1.449e+04 2.980e-09
 96.56864     81.1 1.448e+04 2.997e-09
 96.58839     81.7 1.443e+04 2.956e-09
 96.60814     82.3 1.429e+04 2.796e-09
 96.62788     82.9 1.413e+04 2.548e-09
 96.64763     83.7 1.400e+04 2.168e-09
 96.66738     84.4 1.388e+04 1.915e-09
 96.68276     84.9 1.350e+04 1.405e-09
 96.70260     84.9 1.368e+04 1.532e-09
 96.73669     86.2 1.313e+04 9.997e-10
 96.77618     87.5 1.246e+04 8.016e-10
 96.81568     89.4 1.241e+04 8.014e-10
 96.85049     91.6 1.243e+04 8.570e-10
 96.87024     90.5 1.281e+04 1.141e-09
 96.89467     92.8 1.296e+04 1.323e-09
 96.93416     95.1 1.318e+04 1.594e-09
 96.97366     97.1 1.337e+04 1.861e-09
 97.01315     99.0 1.353e+04 2.119e-09
 97.05265    100.5 1.353e+04 2.162e-09
 97.09214    101.8 1.338e+04 2.031e-09
 97.12408    103.0 1.292e+04 1.655e-09
 97.14383    104.2 1.320e+04 1.813e-09
 97.17113    105.9 1.261e+04 1.272e-09
 97.19225    108.0 1.196e+04 8.028e-10
 97.21200    108.6 1.163e+04 5.674e-10
 97.25012    111.0 1.110e+04 3.471e-10
 97.28962    113.3 1.070e+04 2.616e-10
 97.32911    115.9 1.055e+04 2.520e-10
 97.36861    118.6 1.054e+04 2.581e-10
 97.40810    121.4 1.052e+04 2.695e-10
 97.44760    124.1 1.052e+04 2.853e-10
 97.48709    126.7 1.057e+04 3.050e-10
 97.51427    129.2 1.062e+04 3.253e-10
 97.53402    130.3 1.076e+04 3.852e-10
 97.56531    132.7 1.087e+04 4.179e-10
 97.58506    133.3 1.094e+04 4.071e-10
 97.60558    135.6 1.097e+04 4.046e-10
 97.64507    137.7 1.096e+04 3.866e-10
 97.68457    139.6 1.089e+04 3.552e-10
 97.72406    141.2 1.082e+04 3.204e-10
 97.76356    142.7 1.075e+04 2.843e-10
 97.80305    143.9 1.061e+04 2.487e-10
 97.83629    144.9 1.049e+04 2.130e-10
 97.85604    146.8 1.082e+04 3.183e-10
 97.88204    147.5 1.080e+04 2.927e-10
 97.92154    148.1 1.081e+04 2.785e-10
 97.96103    148.4 1.083e+04 2.746e-10
 98.00053    148.6 1.084e+04 2.716e-10
 98.02629    148.4 1.082e+04 2.687e-10
 98.04603    147.1 1.128e+04 3.189e-10
 98.07952    146.7 1.126e+04 3.200e-10
 98.11901    146.3 1.131e+04 3.342e-10
 98.15831    146.0 1.184e+04 4.245e-10
 98.17805    144.0 1.282e+04 8.179e-10
 98.19800    143.7 1.327e+04 1.140e-09
 98.22753    144.7 1.321e+04 1.202e-09
 98.24670    145.0 1.335e+04 1.380e-09
 98.25658    144.4 1.346e+04 1.546e-09
 98.26692    145.1 1.360e+04 1.716e-09
 98.28667    145.7 1.371e+04 1.876e-09
 98.30642    146.3 1.378e+04 1.974e-09
 98.32617    146.8 1.378e+04 2.009e-09
 98.33887    147.2 1.376e+04 1.980e-09
 98.34874    146.0 1.377e+04 2.059e-09
 98.36566    146.3 1.372e+04 1.996e-09
 98.38541    146.6 1.363e+04 1.927e-09
 98.40516    146.6 1.351e+04 1.852e-09
 98.42490    146.5 1.339e+04 1.769e-09
 98.44465    146.1 1.335e+04 1.730e-09
 98.46440    145.6 1.337e+04 1.744e-09
 98.47719    144.7 1.344e+04 1.810e-09
 98.48707    145.9 1.344e+04 1.808e-09
 98.49988    144.5 1.361e+04 1.966e-09
 98.50975    143.0 1.403e+04 2.323e-09
 98.52364    140.8 1.427e+04 2.522e-09
 98.54339    138.3 1.443e+04 2.626e-09
 98.56314    135.9 1.455e+04 2.699e-09
 98.58288    134.5 1.452e+04 2.705e-09
 98.60263    134.2 1.430e+04 2.636e-09
 98.62238    134.0 1.401e+04 2.540e-09
 98.64213    134.0 1.381e+04 2.540e-09
 98.66089    134.3 1.378e+04 2.580e-09
 98.67076    132.7 1.416e+04 3.199e-09
 98.68162    133.5 1.413e+04 3.415e-09
 98.69781    134.4 1.419e+04 3.769e-09
 98.70768    133.7 1.440e+04 4.051e-09
 98.72111    135.0 1.438e+04 4.301e-09
 98.74086    136.1 1.436e+04 4.473e-09
 98.76061    137.2 1.430e+04 4.435e-09
 98.78036    138.3 1.415e+04 4.212e-09
 98.80010    139.4 1.392e+04 3.713e-09
 98.81985    140.3 1.365e+04 3.056e-09
 98.83177    141.0 1.337e+04 2.390e-09
 98.84164    140.9 1.337e+04 2.365e-09
 98.85935    141.3 1.304e+04 1.861e-09
 98.87909    141.5 1.282e+04 1.619e-09
 98.90864    142.8 1.288e+04 1.727e-09
 98.94824    143.5 1.271e+04 1.488e-09
 98.98790    144.6 1.289e+04 1.586e-09
 99.02740    145.4 1.294e+04 1.604e-09
 99.06689    146.1 1.285e+04 1.548e-09
 99.10639    146.9 1.261e+04 1.400e-09
 99.14411    148.0 1.230e+04 1.219e-09
 99.16385    147.0 1.256e+04 1.404e-09
 99.18538    148.2 1.220e+04 1.179e-09
 99.22487    149.5 1.193e+04 1.022e-09
 99.26437    150.9 1.174e+04 9.317e-10
 99.30386    152.4 1.174e+04 8.891e-10
 99.34336    154.1 1.165e+04 7.937e-10
 99.36972    155.8 1.156e+04 6.778e-10
 99.38946    155.5 1.195e+04 8.449e-10
 99.42235    157.3 1.205e+04 8.323e-10
 99.46184    159.1 1.214e+04 8.336e-10
 99.48587    160.8 1.221e+04 8.366e-10
 99.50562    160.7 1.208e+04 7.196e-10
 99.54083    162.3 1.214e+04 7.384e-10
 99.58033    163.9 1.213e+04 7.240e-10
 99.61982    165.7 1.202e+04 6.594e-10
 99.65932    167.6 1.185e+04 5.653e-10
 99.69881    169.6 1.164e+04 4.636e-10
 99.73831    171.7 1.143e+04 3.779e-10
 99.77780    174.0 1.125e+04 3.151e-10
 99.80789    176.3 1.111e+04 2.790e-10
 99.82129    176.7 1.131e+04 3.031e-10
 99.83069    176.5 1.131e+04 2.971e-10
 99.85679    178.7 1.118e+04 2.704e-10
 99.89628    180.9 1.114e+04 2.592e-10
 99.93578    183.0 1.118e+04 2.606e-10
 99.97527    185.1 1.126e+04 2.662e-10
100.01477    187.0 1.133e+04 2.720e-10
