# Columns:
#   distance along LOS (in CHIMPs)
#   peculiar velocity  (in km/s)
#   temperature (K)
#   HI number density
# pos=(216.64,213.369,91.3408), angles=(0.304819,2.46963)
  0.00250     96.8 1.243e+04 7.628e-10
  0.00540     96.3 1.335e+04 1.307e-09
  0.00808     95.3 1.428e+04 1.877e-09
  0.01831     94.7 1.437e+04 2.227e-09
  0.03652     93.9 1.553e+04 3.655e-09
  0.05699     93.1 1.647e+04 5.561e-09
  0.07747     92.0 1.723e+04 6.895e-09
  0.09060     90.4 1.751e+04 7.006e-09
  0.10084     90.1 1.750e+04 6.745e-09
  0.10886     88.1 1.746e+04 6.335e-09
  0.11909     87.1 1.890e+04 1.078e-08
  0.13889     85.1 1.806e+04 7.446e-09
  0.15937     82.2 1.668e+04 4.734e-09
  0.17313     79.0 1.510e+04 3.226e-09
  0.18337     77.9 1.488e+04 3.477e-09
  0.20032     76.1 1.400e+04 3.066e-09
  0.21231     75.6 1.379e+04 2.981e-09
  0.22255     74.7 1.364e+04 2.891e-09
  0.24127     74.7 1.345e+04 2.834e-09
  0.25566     74.9 1.331e+04 2.684e-09
  0.26590     74.7 1.301e+04 2.309e-09
  0.28222     74.8 1.280e+04 2.085e-09
  0.30269     74.8 1.263e+04 1.898e-09
  0.31577     74.6 1.247e+04 1.736e-09
  0.32601     74.1 1.206e+04 1.488e-09
  0.33819     74.0 1.195e+04 1.400e-09
  0.34843     73.9 1.161e+04 1.137e-09
  0.36412     73.9 1.153e+04 1.093e-09
  0.38459     73.9 1.143e+04 1.045e-09
  0.40507     73.9 1.130e+04 9.738e-10
  0.41923     74.1 1.111e+04 8.849e-10
  0.42464     74.3 1.109e+04 8.891e-10
  0.43095     74.4 1.093e+04 8.053e-10
  0.44602     74.9 1.075e+04 7.333e-10
  0.46649     75.3 1.054e+04 6.494e-10
  0.48697     75.8 1.034e+04 5.603e-10
  0.50325     76.3 1.014e+04 4.854e-10
  0.51348     76.5 9.982e+03 4.334e-10
  0.52269     77.0 9.815e+03 3.884e-10
  0.54326     77.4 9.841e+03 3.879e-10
  0.57573     78.5 9.743e+03 3.759e-10
  0.59621     79.0 9.706e+03 3.458e-10
  0.62025     80.1 9.686e+03 3.561e-10
  0.65087     80.9 9.797e+03 3.975e-10
  0.66830     81.2 1.010e+04 4.985e-10
  0.67854     81.5 1.009e+04 4.865e-10
  0.69172     81.7 1.044e+04 6.263e-10
  0.71220     81.7 1.082e+04 8.013e-10
  0.72960     81.8 1.119e+04 1.003e-09
  0.73984     82.3 1.116e+04 9.956e-10
  0.75083     82.4 1.152e+04 1.208e-09
  0.76107     82.5 1.176e+04 1.381e-09
  0.77362     82.5 1.204e+04 1.529e-09
  0.79410     82.3 1.205e+04 1.524e-09
  0.81457     82.0 1.196e+04 1.455e-09
  0.83306     81.8 1.168e+04 1.277e-09
  0.84161     82.3 1.168e+04 1.275e-09
  0.84360     82.6 1.192e+04 1.450e-09
  0.85552     82.6 1.149e+04 1.167e-09
  0.87600     82.5 1.105e+04 9.191e-10
  0.89647     82.1 1.068e+04 7.567e-10
  0.91589     81.8 1.053e+04 7.163e-10
  0.92612     82.1 1.052e+04 7.171e-10
  0.93651     81.9 1.051e+04 7.167e-10
  0.94675     82.2 1.061e+04 7.453e-10
  0.95790     82.2 1.061e+04 7.520e-10
  0.97837     82.1 1.065e+04 7.801e-10
  0.99842     81.9 1.072e+04 8.162e-10
  1.00865     82.2 1.066e+04 7.905e-10
  1.01932     81.9 1.074e+04 8.018e-10
  1.03980     81.5 1.076e+04 7.969e-10
  1.05021     80.9 1.077e+04 7.707e-10
  1.06045     81.4 1.076e+04 7.475e-10
  1.08075     80.6 1.074e+04 6.993e-10
  1.09118     79.5 1.083e+04 6.691e-10
  1.10142     78.6 1.097e+04 7.170e-10
  1.12170     77.1 1.114e+04 7.811e-10
  1.14217     75.6 1.130e+04 9.118e-10
  1.15367     74.5 1.147e+04 1.097e-09
  1.16390     75.1 1.140e+04 1.003e-09
  1.17371     74.3 1.160e+04 1.218e-09
  1.18395     74.0 1.168e+04 1.303e-09
  1.20360     73.4 1.170e+04 1.296e-09
  1.22407     72.7 1.168e+04 1.215e-09
  1.24455     71.9 1.156e+04 1.031e-09
  1.25624     70.8 1.138e+04 8.216e-10
  1.25857     70.0 1.125e+04 7.217e-10
  1.26736     70.8 1.102e+04 6.267e-10
  1.28550     69.3 1.075e+04 5.224e-10
  1.30597     68.1 1.056e+04 4.948e-10
  1.32645     67.3 1.055e+04 4.990e-10
  1.33877     66.6 1.066e+04 5.272e-10
  1.34900     66.3 1.093e+04 5.982e-10
  1.36058     65.9 1.107e+04 6.375e-10
  1.37082     66.4 1.101e+04 6.177e-10
  1.39821     66.8 1.105e+04 6.143e-10
  1.42149     66.9 1.104e+04 6.090e-10
  1.44196     66.7 1.121e+04 6.883e-10
  1.48021     67.1 1.091e+04 5.341e-10
  1.52116     67.7 1.049e+04 3.665e-10
  1.55745     68.5 1.025e+04 2.903e-10
  1.57793     68.7 1.061e+04 3.714e-10
  1.58655     69.5 1.054e+04 3.384e-10
  1.60702     68.8 1.057e+04 3.538e-10
  1.63367     69.3 1.057e+04 3.625e-10
  1.65405     69.5 1.069e+04 4.143e-10
  1.66888     69.7 1.089e+04 5.243e-10
  1.67554     69.4 1.101e+04 6.068e-10
  1.68119     69.0 1.101e+04 6.134e-10
  1.69500     69.5 1.129e+04 7.771e-10
  1.71548     70.1 1.162e+04 9.631e-10
  1.73595     70.6 1.195e+04 1.141e-09
  1.75141     70.9 1.224e+04 1.232e-09
  1.76165     70.5 1.231e+04 1.250e-09
  1.77441     70.4 1.231e+04 1.247e-09
  1.78465     69.6 1.214e+04 1.077e-09
  1.79738     69.4 1.212e+04 1.042e-09
  1.81785     69.1 1.202e+04 9.889e-10
  1.84866     68.9 1.158e+04 8.099e-10
  1.88971     69.5 1.117e+04 6.319e-10
  1.91666     70.1 1.078e+04 4.782e-10
  1.93713     69.7 1.049e+04 3.567e-10
  1.97128     70.9 1.016e+04 2.817e-10
  1.99176     70.2 9.917e+03 2.370e-10
  2.01256     71.7 9.682e+03 1.935e-10
  2.05351     73.3 9.507e+03 1.612e-10
  2.08172     74.9 9.345e+03 1.373e-10
  2.10219     75.0 9.290e+03 1.243e-10
  2.13541     76.7 9.176e+03 1.203e-10
  2.17636     78.4 9.156e+03 1.212e-10
  2.19867     80.2 9.135e+03 1.251e-10
  2.21915     79.8 9.057e+03 1.269e-10
  2.24677     81.6 9.093e+03 1.440e-10
  2.26725     81.6 9.210e+03 1.611e-10
  2.29921     83.4 9.391e+03 1.958e-10
  2.34016     85.2 9.654e+03 2.418e-10
  2.38111     86.7 9.956e+03 2.991e-10
  2.40559     87.7 1.020e+04 3.648e-10
  2.41583     87.5 9.995e+03 3.374e-10
  2.43230     87.3 9.991e+03 3.128e-10
  2.46301     88.1 1.017e+04 3.561e-10
  2.49363     88.5 1.021e+04 3.847e-10
  2.50440     88.8 1.027e+04 4.162e-10
  2.50948     88.7 1.025e+04 3.751e-10
  2.51909     88.4 1.026e+04 3.755e-10
  2.53448     88.3 1.039e+04 4.140e-10
  2.55496     88.0 1.056e+04 4.784e-10
  2.57543     87.7 1.074e+04 5.488e-10
  2.58693     87.4 1.087e+04 6.092e-10
  2.59717     87.6 1.085e+04 5.920e-10
  2.61231     87.4 1.086e+04 6.348e-10
  2.62254     86.6 1.092e+04 7.496e-10
  2.63686     86.2 1.090e+04 7.399e-10
  2.65733     85.9 1.081e+04 6.999e-10
  2.66946     85.7 1.065e+04 6.395e-10
  2.67969     86.0 1.068e+04 6.333e-10
  2.69828     85.8 1.054e+04 5.885e-10
  2.71576     85.5 1.044e+04 5.398e-10
  2.72600     84.6 1.030e+04 4.805e-10
  2.73923     84.1 1.013e+04 4.075e-10
  2.75199     83.8 1.002e+04 3.724e-10
  2.76222     84.3 1.012e+04 3.878e-10
  2.79052     84.8 1.011e+04 3.632e-10
  2.81942     84.8 9.994e+03 3.119e-10
  2.83989     84.5 9.603e+03 2.545e-10
  2.87252     84.8 9.497e+03 2.436e-10
  2.90700     85.2 9.557e+03 2.501e-10
  2.92747     85.8 9.698e+03 2.712e-10
  2.95442     86.2 9.814e+03 2.933e-10
  2.99537     86.3 9.972e+03 3.260e-10
  3.02598     86.4 1.006e+04 3.512e-10
  3.03637     86.2 1.022e+04 4.013e-10
  3.04661     85.8 1.032e+04 4.444e-10
  3.06684     85.3 1.057e+04 5.707e-10
  3.08210     84.8 1.087e+04 7.474e-10
  3.09234     85.4 1.074e+04 6.282e-10
  3.10779     84.7 1.110e+04 8.454e-10
  3.12826     84.0 1.154e+04 1.177e-09
  3.13983     83.3 1.209e+04 1.656e-09
  3.15007     83.6 1.195e+04 1.701e-09
  3.16463     83.1 1.243e+04 2.191e-09
  3.17486     83.5 1.238e+04 2.046e-09
  3.18969     82.9 1.273e+04 2.555e-09
  3.21016     81.8 1.308e+04 2.690e-09
  3.23064     80.4 1.316e+04 2.652e-09
  3.24329     78.7 1.326e+04 2.418e-09
  3.24957     79.2 1.297e+04 2.316e-09
  3.25739     79.5 1.290e+04 2.040e-09
  3.27159     77.8 1.277e+04 1.747e-09
  3.29206     75.9 1.255e+04 1.366e-09
  3.31254     73.7 1.231e+04 1.031e-09
  3.32968     70.8 1.234e+04 9.194e-10
  3.33992     69.5 1.247e+04 9.682e-10
  3.34674     65.2 1.289e+04 1.103e-09
  3.35698     66.8 1.274e+04 1.042e-09
  3.37396     64.4 1.256e+04 1.136e-09
  3.40207     62.0 1.237e+04 1.108e-09
  3.42264     60.7 1.255e+04 1.243e-09
  3.44016     59.1 1.171e+04 8.538e-10
  3.46063     61.7 1.183e+04 9.218e-10
  3.48677     60.6 1.107e+04 5.220e-10
  3.52772     59.6 1.021e+04 1.888e-10
  3.56723     57.9 9.157e+03 6.124e-11
  3.58770     56.5 8.755e+03 4.855e-11
  3.60962     56.3 8.569e+03 4.444e-11
  3.64707     56.8 8.554e+03 4.317e-11
  3.66755     58.1 8.608e+03 4.357e-11
  3.69152     58.7 8.581e+03 4.356e-11
  3.73228     59.8 8.621e+03 4.381e-11
  3.77323     61.4 8.686e+03 4.356e-11
  3.81437     62.6 8.749e+03 4.604e-11
  3.85399     63.9 8.795e+03 5.062e-11
  3.87446     64.4 8.885e+03 5.581e-11
  3.89627     65.7 8.916e+03 6.064e-11
  3.91781     67.1 8.954e+03 6.635e-11
  3.93829     67.7 8.945e+03 6.348e-11
  3.97817     69.1 8.992e+03 6.987e-11
  4.01912     70.4 9.065e+03 7.890e-11
  4.06007     71.7 9.175e+03 9.374e-11
  4.08138     72.9 9.328e+03 1.179e-10
  4.08370     73.4 9.349e+03 1.144e-10
  4.10335     74.2 9.333e+03 1.041e-10
  4.14197     75.3 9.534e+03 1.270e-10
  4.18293     76.3 9.755e+03 1.490e-10
  4.22388     77.1 9.972e+03 1.611e-10
  4.24793     77.6 1.008e+04 1.626e-10
  4.26840     78.5 1.000e+04 1.508e-10
  4.28829     79.0 1.003e+04 1.529e-10
  4.30877     79.7 1.003e+04 1.528e-10
  4.34673     80.1 1.005e+04 1.605e-10
  4.38768     80.6 1.009e+04 1.805e-10
  4.41298     81.2 1.019e+04 2.148e-10
  4.43346     82.2 1.016e+04 2.132e-10
  4.46958     82.7 1.030e+04 2.613e-10
  4.49521     83.3 1.046e+04 3.177e-10
  4.51568     83.8 1.044e+04 3.170e-10
  4.55148     84.3 1.061e+04 3.758e-10
  4.57804     84.7 1.083e+04 4.562e-10
  4.59852     85.5 1.056e+04 4.068e-10
  4.63338     86.0 1.075e+04 4.765e-10
  4.67433     86.6 1.095e+04 5.402e-10
  4.70212     87.0 1.124e+04 6.264e-10
  4.71226     86.9 1.098e+04 4.868e-10
  4.72532     86.9 1.106e+04 5.161e-10
  4.74290     86.8 1.118e+04 5.700e-10
  4.75314     87.1 1.104e+04 4.675e-10
  4.76627     87.1 1.114e+04 5.199e-10
  4.78675     87.0 1.129e+04 5.936e-10
  4.80538     86.9 1.148e+04 6.826e-10
  4.81562     86.8 1.128e+04 5.777e-10
  4.82543     86.6 1.151e+04 6.782e-10
  4.83567     87.1 1.134e+04 5.671e-10
  4.84817     86.8 1.161e+04 6.884e-10
  4.86865     86.3 1.199e+04 8.538e-10
  4.88912     85.6 1.246e+04 1.089e-09
  4.90796     84.8 1.298e+04 1.415e-09
  4.91744     85.6 1.273e+04 1.243e-09
  4.91908     85.7 1.233e+04 9.504e-10
  4.93007     84.8 1.276e+04 1.232e-09
  4.95055     83.7 1.320e+04 1.592e-09
  4.97102     82.7 1.344e+04 1.878e-09
  4.99049     81.5 1.354e+04 2.009e-09
  5.00073     82.2 1.368e+04 2.190e-09
  5.01197     80.8 1.371e+04 2.252e-09
  5.02253     79.7 1.362e+04 2.238e-09
  5.03277     80.0 1.329e+04 1.881e-09
  5.05292     79.2 1.322e+04 1.853e-09
  5.07311     77.1 1.281e+04 1.560e-09
  5.08335     78.9 1.329e+04 2.035e-09
  5.09387     78.1 1.298e+04 1.764e-09
  5.11585     76.6 1.247e+04 1.346e-09
  5.13642     77.8 1.251e+04 1.392e-09
  5.16573     77.2 1.173e+04 8.939e-10
  5.20668     77.2 1.108e+04 5.577e-10
  5.23827     77.4 1.059e+04 3.692e-10
  5.25874     77.4 1.067e+04 4.605e-10
  5.28858     77.9 1.035e+04 3.532e-10
  5.32286     79.0 1.019e+04 3.106e-10
  5.34334     79.9 1.022e+04 3.136e-10
  5.37048     81.1 1.011e+04 2.880e-10
  5.40332     82.4 1.006e+04 2.662e-10
  5.42380     82.3 9.995e+03 2.478e-10
  5.45238     83.5 9.885e+03 1.914e-10
  5.49333     84.5 9.791e+03 1.414e-10
  5.52978     85.3 9.696e+03 1.100e-10
  5.55025     85.9 9.835e+03 1.415e-10
  5.56838     86.5 9.780e+03 1.227e-10
  5.58886     86.0 9.677e+03 8.672e-11
  5.61618     86.5 9.652e+03 9.045e-11
  5.65713     86.9 9.603e+03 1.082e-10
  5.69808     87.2 9.723e+03 1.484e-10
  5.73344     87.3 1.003e+04 2.196e-10
  5.75157     86.3 1.019e+04 2.327e-10
  5.75717     86.6 9.964e+03 1.914e-10
  5.77999     86.0 1.054e+04 2.773e-10
  5.81060     85.4 1.086e+04 3.409e-10
  5.82601     84.3 1.134e+04 4.507e-10
  5.83625     83.2 1.157e+04 5.348e-10
  5.85019     81.3 1.197e+04 8.396e-10
  5.86043     82.1 1.181e+04 6.780e-10
  5.87193     80.6 1.214e+04 9.978e-10
  5.89240     79.6 1.247e+04 1.315e-09
  5.90854     78.5 1.290e+04 1.510e-09
  5.91877     77.3 1.308e+04 1.521e-09
  5.94351     74.8 1.312e+04 1.377e-09
  5.98456     74.6 1.271e+04 1.043e-09
  6.02569     72.6 1.247e+04 6.158e-10
  6.06355     70.6 1.205e+04 3.459e-10
  6.08403     68.1 1.161e+04 2.572e-10
  6.10759     67.5 1.098e+04 2.257e-10
  6.14854     67.5 1.092e+04 2.231e-10
  6.17100     68.2 1.093e+04 2.253e-10
  6.19147     69.5 1.113e+04 2.546e-10
  6.22861     70.2 1.128e+04 2.714e-10
  6.24908     68.4 1.144e+04 2.946e-10
  6.27139     68.6 1.185e+04 3.746e-10
  6.30200     68.7 1.207e+04 4.372e-10
  6.32118     68.1 1.230e+04 5.575e-10
  6.33142     66.8 1.228e+04 6.484e-10
  6.34286     66.0 1.242e+04 9.030e-10
  6.36333     65.5 1.263e+04 1.238e-09
  6.37772     65.3 1.291e+04 1.573e-09
  6.38795     65.5 1.303e+04 1.791e-09
  6.40371     65.1 1.305e+04 1.744e-09
  6.41394     64.1 1.276e+04 1.364e-09
  6.43509     63.5 1.238e+04 9.342e-10
  6.47614     62.7 1.176e+04 5.174e-10
  6.51709     61.6 1.101e+04 2.645e-10
  6.55804     60.6 1.051e+04 1.541e-10
  6.57920     60.3 1.038e+04 1.075e-10
  6.58551     59.9 1.033e+04 8.588e-11
  6.60530     60.6 1.028e+04 8.313e-11
  6.63994     60.9 1.030e+04 6.801e-11
  6.68089     61.3 1.035e+04 5.723e-11
  6.72184     61.7 1.039e+04 5.493e-11
  6.74425     62.3 1.043e+04 5.543e-11
  6.76473     62.2 1.041e+04 5.456e-11
  6.79174     62.5 1.059e+04 5.862e-11
  6.81222     62.7 1.066e+04 6.223e-11
  6.84469     63.0 1.079e+04 8.933e-11
  6.88564     63.7 1.092e+04 1.453e-10
  6.90931     64.5 1.115e+04 2.306e-10
  6.92978     64.1 1.111e+04 2.252e-10
  6.96754     64.5 1.136e+04 3.102e-10
  6.99866     64.2 1.158e+04 4.069e-10
  7.01913     64.4 1.143e+04 3.617e-10
  7.04944     64.0 1.161e+04 4.878e-10
  7.07437     63.7 1.188e+04 6.266e-10
  7.08451     63.6 1.157e+04 4.989e-10
  7.10044     63.2 1.182e+04 5.770e-10
  7.11216     61.7 1.245e+04 7.379e-10
  7.12239     60.5 1.296e+04 8.888e-10
  7.14139     57.0 1.399e+04 1.597e-09
  7.15670     53.7 1.465e+04 2.831e-09
  7.16694     52.6 1.432e+04 3.125e-09
  7.18234     50.9 1.450e+04 4.094e-09
  7.20281     49.2 1.480e+04 4.297e-09
  7.21561     46.7 1.498e+04 4.038e-09
  7.22585     45.8 1.453e+04 2.961e-09
  7.23923     42.0 1.433e+04 2.552e-09
  7.24947     40.2 1.367e+04 1.878e-09
  7.26424     37.0 1.325e+04 1.970e-09
  7.28471     35.2 1.304e+04 2.008e-09
  7.30519     34.0 1.293e+04 1.964e-09
  7.33600     33.5 1.251e+04 1.598e-09
  7.37704     33.2 1.199e+04 1.099e-09
  7.40448     33.0 1.134e+04 7.056e-10
  7.41944     32.9 1.106e+04 5.869e-10
  7.43296     34.4 1.104e+04 6.319e-10
  7.45895     34.2 1.063e+04 4.492e-10
  7.49990     34.2 1.049e+04 4.091e-10
  7.54085     34.5 1.044e+04 3.964e-10
  7.56954     35.1 1.038e+04 3.717e-10
  7.59001     35.0 1.038e+04 3.864e-10
  7.61940     35.6 1.036e+04 3.790e-10
  7.63987     36.7 1.044e+04 4.335e-10
  7.66370     37.2 1.030e+04 3.862e-10
  7.70465     37.8 1.027e+04 3.723e-10
  7.73459     38.3 1.032e+04 3.812e-10
  7.75507     38.6 1.033e+04 3.866e-10
  7.78655     39.2 1.045e+04 4.229e-10
  7.81702     39.3 1.055e+04 4.653e-10
  7.82716     39.4 1.052e+04 4.544e-10
  7.83636     39.3 1.061e+04 4.799e-10
  7.84669     39.7 1.046e+04 4.491e-10
  7.86845     39.3 1.077e+04 5.462e-10
  7.89965     38.5 1.113e+04 6.870e-10
  7.92012     38.7 1.113e+04 6.902e-10
  7.95035     38.2 1.117e+04 7.436e-10
  7.99130     37.4 1.118e+04 7.332e-10
  8.03225     36.4 1.125e+04 7.500e-10
  8.05370     35.2 1.152e+04 8.395e-10
  8.06569     36.2 1.166e+04 9.247e-10
  8.08518     36.2 1.166e+04 9.285e-10
  8.11415     34.5 1.209e+04 1.266e-09
  8.15510     32.6 1.204e+04 1.259e-09
  8.19605     31.7 1.153e+04 9.918e-10
  8.22976     31.7 1.072e+04 5.473e-10
  8.25024     32.2 1.049e+04 5.164e-10
  8.26062     31.9 9.732e+03 2.150e-10
  8.28109     33.0 9.689e+03 2.024e-10
  8.31890     31.8 9.084e+03 8.571e-11
  8.35985     31.6 8.959e+03 7.851e-11
  8.39482     32.1 8.940e+03 7.970e-11
  8.41529     32.7 8.865e+03 7.318e-11
  8.44175     33.3 8.935e+03 8.121e-11
  8.46753     33.5 9.104e+03 9.875e-11
  8.48801     34.5 9.109e+03 9.774e-11
  8.52365     34.5 9.288e+03 1.238e-10
  8.55988     34.3 9.481e+03 1.612e-10
  8.58035     34.4 9.472e+03 1.596e-10
  8.60555     33.7 9.681e+03 2.262e-10
  8.64650     33.0 9.861e+03 3.131e-10
  8.67445     32.6 9.889e+03 3.445e-10
  8.69492     33.6 9.927e+03 3.786e-10
  8.72493     33.2 9.959e+03 4.079e-10
  8.74541     33.3 9.952e+03 4.127e-10
  8.76935     33.1 9.924e+03 3.911e-10
  8.81030     32.7 9.829e+03 3.171e-10
  8.85125     31.9 9.652e+03 2.506e-10
  8.88136     31.2 9.409e+03 2.203e-10
  8.89962     32.7 9.743e+03 3.062e-10
  8.91046     32.9 9.734e+03 3.060e-10
  8.93315     32.2 9.483e+03 2.192e-10
  8.97410     31.2 9.219e+03 1.866e-10
  9.01506     30.1 9.223e+03 1.930e-10
  9.05505     28.7 9.347e+03 2.434e-10
  9.07552     28.7 9.287e+03 2.415e-10
  9.08828     27.4 9.652e+03 3.972e-10
  9.10875     28.7 9.362e+03 2.949e-10
  9.13791     27.0 9.880e+03 4.527e-10
  9.17886     24.6 1.067e+04 7.152e-10
  9.20187     22.1 1.166e+04 1.047e-09
  9.21201     22.5 1.127e+04 9.434e-10
  9.22985     18.5 1.269e+04 1.619e-09
  9.24038     14.7 1.404e+04 2.975e-09
  9.25062     14.9 1.403e+04 3.128e-09
  9.27080     12.6 1.440e+04 3.668e-09
  9.29127     11.1 1.418e+04 3.353e-09
  9.30523      9.3 1.343e+04 2.464e-09
  9.31547     10.1 1.404e+04 3.628e-09
  9.32291      8.8 1.299e+04 2.119e-09
  9.33315      8.8 1.296e+04 2.053e-09
  9.35270      6.8 1.189e+04 1.214e-09
  9.38351      1.8 9.886e+03 4.339e-10
  9.40563     -1.0 8.898e+03 2.820e-10
  9.42611     -0.2 8.921e+03 2.781e-10
  9.46551     -0.4 8.685e+03 2.707e-10
  9.50210     -0.3 8.596e+03 2.830e-10
  9.52258      0.2 8.408e+03 2.202e-10
  9.54741      0.6 8.544e+03 2.143e-10
  9.57069     -0.0 8.801e+03 2.264e-10
  9.59117      0.7 8.829e+03 2.142e-10
  9.62931     -1.2 9.381e+03 3.063e-10
  9.67026     -2.1 9.666e+03 4.551e-10
  9.70902     -2.5 9.721e+03 4.623e-10
  9.72949     -2.8 9.358e+03 3.572e-10
  9.73575     -3.8 9.374e+03 3.261e-10
  9.75622     -3.1 9.541e+03 3.450e-10
  9.79311     -5.9 9.834e+03 4.055e-10
  9.83406     -8.8 1.058e+04 7.699e-10
  9.87501     -9.0 1.121e+04 1.330e-09
  9.90080     -8.5 1.104e+04 1.233e-09
  9.92125     -8.8 1.132e+04 1.357e-09
  9.95688     -8.5 1.106e+04 1.130e-09
  9.99786     -9.9 1.083e+04 8.259e-10
 10.03881    -11.1 1.030e+04 6.815e-10
 10.06586    -10.5 9.784e+03 5.708e-10
 10.08634     -9.7 9.721e+03 5.056e-10
 10.12071     -9.0 9.273e+03 3.813e-10
 10.14332     -8.2 8.871e+03 2.708e-10
 10.16380     -8.2 8.722e+03 2.342e-10
 10.20261     -6.7 8.280e+03 1.704e-10
 10.23092     -5.0 8.051e+03 1.145e-10
 10.25139     -3.9 8.065e+03 1.133e-10
 10.28451     -3.0 8.025e+03 7.742e-11
 10.32546     -2.0 7.825e+03 6.837e-11
 10.35024     -0.9 7.831e+03 7.097e-11
 10.37071     -0.4 7.745e+03 7.069e-11
 10.39597      0.8 7.872e+03 8.305e-11
 10.41645      1.6 8.055e+03 9.295e-11
 10.44831      3.2 8.131e+03 1.226e-10
 10.48926      5.1 8.244e+03 1.543e-10
 10.53021      7.0 8.359e+03 1.738e-10
 10.55715      8.6 8.442e+03 1.781e-10
 10.56749      9.1 8.197e+03 1.320e-10
 10.58151      9.8 8.352e+03 1.497e-10
 10.61212     11.4 8.377e+03 1.523e-10
 10.65307     12.8 8.481e+03 1.646e-10
 10.69402     14.0 8.707e+03 2.083e-10
 10.72609     15.4 9.015e+03 2.961e-10
 10.74656     16.3 9.104e+03 3.383e-10
 10.76407     18.1 9.486e+03 4.756e-10
 10.78454     19.0 9.309e+03 3.827e-10
 10.81687     20.6 9.714e+03 5.128e-10
 10.84748     21.7 9.977e+03 5.914e-10
 10.86733     22.6 1.013e+04 6.181e-10
 10.87757     22.9 9.992e+03 6.121e-10
 10.88833     23.9 1.018e+04 6.155e-10
 10.90119     24.3 1.029e+04 5.947e-10
 10.91142     24.9 1.027e+04 5.989e-10
 10.92928     25.1 1.047e+04 5.751e-10
 10.94976     25.2 1.057e+04 5.759e-10
 10.97088     25.1 1.112e+04 7.092e-10
 10.98436     25.9 1.103e+04 6.851e-10
 10.99395     26.7 1.105e+04 6.854e-10
 11.01118     26.0 1.156e+04 8.265e-10
 11.03166     23.9 1.250e+04 1.321e-09
 11.05213     21.9 1.314e+04 2.461e-09
 11.06624     21.7 1.386e+04 4.034e-09
 11.07648     22.2 1.409e+04 4.355e-09
 11.08448     22.0 1.506e+04 5.452e-09
 11.09472     21.8 1.565e+04 7.374e-09
 11.11356     20.8 1.626e+04 7.623e-09
 11.13404     19.8 1.626e+04 6.441e-09
 11.14877     18.0 1.574e+04 3.875e-09
 11.15901     18.6 1.568e+04 4.517e-09
 11.17499     16.8 1.437e+04 2.448e-09
 11.18794     15.1 1.283e+04 1.308e-09
 11.19818     16.0 1.321e+04 1.443e-09
 11.22116     13.6 1.161e+04 5.099e-10
 11.24164     14.2 1.150e+04 5.162e-10
 11.26722     13.5 1.083e+04 2.927e-10
 11.30827     12.8 1.019e+04 1.115e-10
 11.34922     13.0 9.942e+03 7.716e-11
 11.38481     12.6 1.001e+04 9.025e-11
 11.40143     13.0 1.012e+04 9.861e-11
 11.40679     13.5 1.105e+04 1.792e-10
 11.43112     10.3 1.192e+04 4.766e-10
 11.47207      9.0 1.288e+04 1.366e-09
 11.49841      8.4 1.322e+04 2.273e-09
 11.50855      8.6 1.334e+04 2.377e-09
 11.52306      8.8 1.349e+04 2.562e-09
 11.54354      8.3 1.363e+04 2.425e-09
 11.56141      7.6 1.351e+04 2.264e-09
 11.57165      7.4 1.316e+04 1.899e-09
 11.58449      7.1 1.260e+04 1.500e-09
 11.60177      6.9 1.230e+04 1.253e-09
 11.61200      6.3 1.248e+04 1.391e-09
 11.62544      6.2 1.244e+04 1.296e-09
 11.64394      5.9 1.249e+04 1.286e-09
 11.65418      5.5 1.206e+04 9.875e-10
 11.66639      5.5 1.209e+04 1.106e-09
 11.68686      5.9 1.221e+04 1.323e-09
 11.70522      6.6 1.255e+04 1.564e-09
 11.71546      6.3 1.263e+04 1.568e-09
 11.72647      6.8 1.296e+04 1.720e-09
 11.73671      7.1 1.282e+04 1.575e-09
 11.74829      7.2 1.326e+04 1.829e-09
 11.76876      7.1 1.394e+04 2.217e-09
 11.78924      6.5 1.520e+04 2.895e-09
 11.80868      5.2 1.616e+04 3.814e-09
 11.81820      4.5 1.609e+04 2.445e-09
 11.81924      5.9 1.601e+04 1.925e-09
 11.83019      1.8 1.673e+04 2.994e-09
 11.85066     -1.1 1.617e+04 4.729e-09
 11.87114     -3.9 1.645e+04 6.760e-09
 11.89153     -8.3 1.823e+04 9.342e-09
 11.91200    -10.8 1.902e+04 1.424e-08
 11.93257    -12.4 1.701e+04 1.179e-08
 11.95304    -12.5 1.559e+04 5.795e-09
 11.97352    -14.8 1.626e+04 2.374e-09
 11.98429    -20.6 1.529e+04 1.080e-09
 11.99453    -21.4 1.492e+04 1.073e-09
 12.01447    -25.3 1.257e+04 7.515e-10
 12.02583    -25.8 1.181e+04 7.857e-10
 12.03607    -26.1 1.153e+04 7.306e-10
 12.05542    -25.0 1.146e+04 7.296e-10
 12.06682    -24.0 1.140e+04 6.838e-10
 12.07706    -23.5 1.140e+04 5.852e-10
 12.09637    -22.7 1.139e+04 4.796e-10
 12.11684    -22.4 1.143e+04 3.793e-10
 12.12929    -22.2 1.140e+04 3.339e-10
 12.13953    -22.8 1.120e+04 2.689e-10
 12.14935    -22.6 1.116e+04 2.531e-10
 12.15959    -22.6 1.100e+04 2.343e-10
 12.17827    -22.5 1.100e+04 2.366e-10
 12.19874    -22.1 1.109e+04 2.801e-10
 12.21922    -22.1 1.110e+04 3.033e-10
 12.23188    -21.5 1.098e+04 4.003e-10
 12.23517    -21.0 1.085e+04 3.587e-10
 12.25332    -21.1 1.085e+04 2.976e-10
 12.29108    -19.1 1.086e+04 4.812e-10
 12.31450    -17.4 1.092e+04 5.681e-10
 12.32464    -17.1 1.067e+04 4.773e-10
 12.33621    -16.3 1.075e+04 4.787e-10
 12.34644    -16.3 1.090e+04 5.222e-10
 12.36254    -15.5 1.117e+04 5.214e-10
 12.38302    -15.5 1.218e+04 5.742e-10
 12.39693    -16.4 1.387e+04 7.845e-10
 12.40717    -14.5 1.195e+04 4.588e-10
 12.42397    -16.0 1.346e+04 6.474e-10
 12.43966    -17.6 1.347e+04 1.257e-09
 12.44990    -16.7 1.342e+04 1.336e-09
 12.46492    -17.3 1.373e+04 2.644e-09
 12.47946    -16.7 1.425e+04 4.732e-09
 12.48970    -15.8 1.353e+04 2.137e-09
 12.50587    -15.5 1.438e+04 4.301e-09
 12.52634    -15.5 1.566e+04 7.080e-09
 12.54312    -15.8 1.705e+04 9.673e-09
 12.55336    -15.6 1.636e+04 9.149e-09
 12.56199    -15.8 1.688e+04 9.795e-09
 12.57223    -15.5 1.620e+04 9.978e-09
 12.58777    -14.8 1.674e+04 1.125e-08
 12.60824    -14.1 1.722e+04 9.464e-09
 12.62872    -13.9 1.796e+04 4.555e-09
 12.64452    -16.7 1.780e+04 1.483e-09
 12.65214    -13.6 1.861e+04 4.617e-09
 12.65682    -12.7 1.834e+04 5.085e-09
 12.66967    -15.7 1.888e+04 1.791e-09
 12.69015    -21.5 1.389e+04 7.024e-10
 12.71062    -23.6 1.128e+04 5.674e-10
 12.72705    -23.7 1.144e+04 6.359e-10
 12.73728    -22.7 1.176e+04 6.966e-10
 12.75003    -23.3 1.137e+04 7.483e-10
 12.76027    -23.0 1.161e+04 8.355e-10
 12.78238    -22.8 1.171e+04 9.107e-10
 12.82343    -21.9 1.168e+04 1.004e-09
 12.85369    -20.9 1.143e+04 9.028e-10
 12.86383    -20.5 1.142e+04 1.046e-09
 12.87442    -19.9 1.142e+04 9.010e-10
 12.89220    -20.4 1.100e+04 6.527e-10
 12.90244    -19.4 1.125e+04 7.380e-10
 12.91537    -19.2 1.122e+04 6.520e-10
 12.93585    -19.8 1.081e+04 5.336e-10
 12.95632    -19.5 1.072e+04 5.076e-10
 12.98713    -19.6 1.031e+04 4.392e-10
 13.02818    -18.9 9.927e+03 3.897e-10
 13.05736    -18.0 9.762e+03 3.335e-10
 13.06930    -16.9 9.864e+03 3.922e-10
 13.08108    -16.7 9.955e+03 3.236e-10
 13.11008    -16.4 9.855e+03 2.613e-10
 13.15103    -16.1 9.651e+03 2.348e-10
 13.19198    -15.3 9.352e+03 2.131e-10
 13.22241    -13.9 8.990e+03 1.784e-10
 13.24289    -13.4 9.066e+03 1.480e-10
 13.26752    -12.0 8.731e+03 9.880e-11
 13.28799    -11.8 8.716e+03 1.212e-10
 13.31483    -10.6 8.545e+03 7.207e-11
 13.35578     -9.9 8.532e+03 4.550e-11
 13.38747     -9.3 8.417e+03 3.668e-11
 13.40794     -8.7 8.354e+03 3.324e-11
 13.43768     -7.8 8.314e+03 3.163e-11
 13.47443     -6.4 8.095e+03 3.625e-11
 13.49491     -6.3 8.018e+03 6.152e-11
 13.51958     -4.3 7.821e+03 6.420e-11
 13.55253     -2.2 7.797e+03 5.884e-11
 13.57300     -2.1 7.880e+03 6.744e-11
 13.60148     -0.8 8.044e+03 6.676e-11
 13.64243      0.3 8.082e+03 7.012e-11
 13.68135      1.6 7.941e+03 8.223e-11
 13.70182      1.9 7.904e+03 8.603e-11
 13.71758      3.7 8.007e+03 8.094e-11
 13.73806      4.3 8.021e+03 9.546e-11
 13.76528      5.1 8.240e+03 7.891e-11
 13.80623      5.5 8.369e+03 8.128e-11
 13.84719      5.4 8.444e+03 1.050e-10
 13.88264      6.4 8.355e+03 1.530e-10
 13.90311      7.2 8.481e+03 1.817e-10
 13.92909      8.0 8.619e+03 1.629e-10
 13.97004      7.8 8.618e+03 2.004e-10
 14.01099      8.5 8.526e+03 2.609e-10
 14.04770      9.4 8.727e+03 2.795e-10
 14.06817      9.8 8.652e+03 2.795e-10
 14.09289      9.8 8.944e+03 2.482e-10
 14.11565      5.9 1.035e+04 3.569e-10
 14.13612      6.7 1.017e+04 3.030e-10
 14.17479      4.2 1.073e+04 8.544e-10
 14.21275      4.6 1.072e+04 1.304e-09
 14.23323      5.5 1.047e+04 1.215e-09
 14.25669      8.3 1.017e+04 5.174e-10
 14.29764      5.2 9.965e+03 2.117e-10
 14.32256      2.8 8.847e+03 1.388e-10
 14.34304      3.7 8.990e+03 1.600e-10
 14.37781      3.4 8.761e+03 1.488e-10
 14.39828      4.9 8.739e+03 1.441e-10
 14.42049      5.3 8.712e+03 1.497e-10
 14.46144      5.8 8.580e+03 1.764e-10
 14.50239      6.6 8.598e+03 1.899e-10
 14.52948      6.9 8.808e+03 1.823e-10
 14.54948      7.4 8.821e+03 2.007e-10
 14.56334      8.9 8.591e+03 1.482e-10
 14.58429      9.1 8.710e+03 1.657e-10
 14.62524      9.1 8.831e+03 2.065e-10
 14.66619      9.4 9.054e+03 2.634e-10
 14.70714      9.7 9.261e+03 3.391e-10
 14.72840      9.0 9.981e+03 4.986e-10
 14.73718     11.2 9.625e+03 3.806e-10
 14.75687     11.5 9.830e+03 4.497e-10
 14.77871      9.4 1.091e+04 7.879e-10
 14.79908      6.8 1.238e+04 1.177e-09
 14.81073      4.6 1.318e+04 2.462e-09
 14.82097      5.8 1.292e+04 2.141e-09
 14.83966      5.2 1.361e+04 3.487e-09
 14.84989      4.5 1.415e+04 5.166e-09
 14.86051      6.0 1.467e+04 6.010e-09
 14.88098      6.4 1.503e+04 4.811e-09
 14.89326      4.4 1.484e+04 3.347e-09
 14.90350      5.8 1.486e+04 3.334e-09
 14.92193      2.7 1.283e+04 1.998e-09
 14.94321      1.6 1.156e+04 1.412e-09
 14.96378      0.2 1.127e+04 1.285e-09
 14.99379      1.0 1.021e+04 7.407e-10
 15.03474      1.8 9.420e+03 3.815e-10
 15.05851      2.2 8.857e+03 2.438e-10
 15.07899      4.4 9.153e+03 3.208e-10
 15.11664      5.4 8.767e+03 2.401e-10
 15.15022      6.8 8.483e+03 2.080e-10
 15.17070      6.6 8.671e+03 2.945e-10
 15.19854      8.5 8.602e+03 2.999e-10
 15.22357     10.7 8.550e+03 2.950e-10
 15.24404     12.2 8.707e+03 3.329e-10
 15.28044     14.4 8.624e+03 3.150e-10
 15.32139     16.4 8.751e+03 2.522e-10
 15.35714     17.7 8.940e+03 2.305e-10
 15.37761     17.4 9.207e+03 3.588e-10
 15.38862     18.9 9.229e+03 3.730e-10
 15.40910     20.6 9.237e+03 3.757e-10
 15.44424     22.3 9.355e+03 3.840e-10
 15.48520     23.3 9.774e+03 4.351e-10
 15.51581     23.5 1.026e+04 5.306e-10
 15.53619     23.5 1.034e+04 5.449e-10
 15.55349     23.3 1.045e+04 6.564e-10
 15.56372     23.7 1.056e+04 6.778e-10
 15.57409     24.0 1.054e+04 7.492e-10
 15.58433     24.1 1.048e+04 7.229e-10
 15.59761     24.5 1.046e+04 7.248e-10
 15.61809     25.0 1.038e+04 6.988e-10
 15.63601     25.4 1.032e+04 6.308e-10
 15.64625     26.0 1.041e+04 6.514e-10
 15.65904     25.8 1.038e+04 5.775e-10
 15.67755     25.3 1.035e+04 5.111e-10
 15.68779     24.3 1.021e+04 4.478e-10
 15.69999     23.9 1.000e+04 4.282e-10
 15.71854     24.0 9.765e+03 4.530e-10
 15.72878     24.3 9.835e+03 4.752e-10
 15.74094     24.9 9.688e+03 4.748e-10
 15.76141     26.0 9.479e+03 4.370e-10
 15.78101     26.7 9.443e+03 4.115e-10
 15.79125     26.6 9.488e+03 3.740e-10
 15.81270     28.1 9.439e+03 3.140e-10
 15.85375     29.3 9.245e+03 2.702e-10
 15.88379     31.1 9.172e+03 2.746e-10
 15.90427     31.4 9.241e+03 2.856e-10
 15.93565     33.6 9.351e+03 3.256e-10
 15.97660     36.0 9.430e+03 3.744e-10
 15.99826     38.4 9.557e+03 4.382e-10
 16.00840     38.5 9.587e+03 4.963e-10
 16.02759     40.3 9.691e+03 4.950e-10
 16.04807     42.3 9.815e+03 4.883e-10
 16.05889     44.2 9.977e+03 4.809e-10
 16.06913     44.6 9.564e+03 4.127e-10
 16.08902     46.5 9.653e+03 3.794e-10
 16.10162     48.3 9.676e+03 3.466e-10
 16.11185     48.3 9.481e+03 3.270e-10
 16.12997     49.9 9.579e+03 3.162e-10
 16.14142     51.2 1.010e+04 3.462e-10
 16.15166     52.1 9.250e+03 2.866e-10
 16.17092     53.3 9.534e+03 3.176e-10
 16.19139     54.1 9.991e+03 4.105e-10
 16.20507     55.1 1.056e+04 6.200e-10
 16.21531     55.5 1.092e+04 7.638e-10
 16.22395     53.5 2.107e+04 1.217e-09
 16.22902     53.1 2.593e+04 9.046e-10
 16.23736     45.5 4.002e+04 1.162e-09
 16.24760     43.7 5.200e+04 1.629e-09
 16.25671     36.3 6.605e+04 2.726e-09
 16.26182     28.3 4.338e+04 4.029e-08
 16.26512     21.9 3.742e+04 1.042e-07
 16.26765     23.8 3.521e+04 1.851e-07
 16.27059     22.0 3.354e+04 2.030e-07
 16.27571     12.8 2.807e+04 4.308e-07
 16.28082      8.9 2.701e+04 4.352e-07
 16.28508      2.8 2.769e+04 4.326e-07
 16.28740     -0.2 2.439e+04 1.003e-06
 16.28826     -1.4 2.209e+04 2.021e-06
 16.29106     -6.5 2.513e+04 9.077e-07
 16.29618    -11.0 2.611e+04 4.921e-07
 16.30130    -13.4 2.758e+04 3.056e-07
 16.30633    -16.7 2.881e+04 1.877e-07
 16.30889    -17.6 3.707e+04 9.034e-08
 16.31094    -18.3 3.775e+04 8.325e-08
 16.31353    -19.2 4.503e+04 2.601e-08
 16.31926    -30.0 4.410e+04 6.739e-09
 16.32950    -40.1 3.014e+04 4.368e-09
 16.33974    -46.7 2.004e+04 3.764e-09
 16.34764    -49.6 1.592e+04 3.788e-09
 16.35276    -51.6 1.489e+04 2.974e-09
 16.36016    -50.5 1.530e+04 3.445e-09
 16.36528    -48.7 1.535e+04 3.366e-09
 16.37045    -48.0 1.549e+04 3.842e-09
 16.38069    -47.9 1.567e+04 4.163e-09
 16.38896    -47.4 1.583e+04 4.704e-09
 16.39924    -50.1 1.457e+04 3.098e-09
 16.41199    -49.5 1.421e+04 3.220e-09
 16.42223    -48.6 1.379e+04 2.713e-09
 16.43709    -49.0 1.345e+04 2.726e-09
 16.45757    -49.5 1.322e+04 2.598e-09
 16.47153    -50.3 1.317e+04 2.440e-09
 16.48177    -50.9 1.314e+04 2.435e-09
 16.49852    -52.0 1.321e+04 2.454e-09
 16.51545    -53.2 1.327e+04 2.457e-09
 16.52568    -52.1 1.299e+04 2.175e-09
 16.53947    -53.2 1.311e+04 2.218e-09
 16.55406    -54.1 1.323e+04 2.263e-09
 16.56430    -53.7 1.348e+04 2.547e-09
 16.58042    -54.4 1.358e+04 2.591e-09
 16.60089    -55.1 1.362e+04 2.589e-09
 16.61890    -55.7 1.354e+04 2.582e-09
 16.62914    -54.1 1.357e+04 2.577e-09
 16.63659    -54.5 1.346e+04 2.595e-09
 16.64683    -54.5 1.353e+04 2.728e-09
 16.66232    -54.5 1.334e+04 2.716e-09
 16.68279    -54.3 1.308e+04 2.649e-09
 16.70327    -53.8 1.280e+04 2.516e-09
 16.71912    -52.9 1.244e+04 2.287e-09
 16.72797    -52.7 1.224e+04 2.174e-09
 16.73260    -51.4 1.234e+04 2.243e-09
 16.74422    -50.6 1.200e+04 2.024e-09
 16.76470    -49.5 1.164e+04 1.772e-09
 16.78517    -48.2 1.136e+04 1.555e-09
 16.80165    -46.9 1.113e+04 1.375e-09
 16.81189    -48.0 1.116e+04 1.367e-09
 16.82582    -47.3 1.103e+04 1.271e-09
 16.83606    -47.2 1.132e+04 1.448e-09
 16.84660    -46.9 1.122e+04 1.364e-09
 16.86707    -47.3 1.105e+04 1.244e-09
 16.88418    -48.7 1.111e+04 1.148e-09
 16.89441    -49.8 1.108e+04 1.253e-09
 16.90802    -51.7 1.100e+04 1.170e-09
 16.92850    -53.8 1.136e+04 1.143e-09
 16.93951    -56.4 1.457e+04 1.081e-09
 16.94975    -55.5 1.097e+04 1.162e-09
 16.96670    -58.7 1.272e+04 1.169e-09
 16.97694    -55.2 1.086e+04 1.209e-09
 16.98992    -57.9 1.146e+04 1.280e-09
 17.01040    -63.8 1.699e+04 1.861e-09
 17.03087    -69.2 2.145e+04 5.226e-09
 17.04297    -72.0 2.269e+04 1.164e-08
 17.05109    -68.6 1.995e+04 6.949e-09
 17.05947    -63.1 1.567e+04 3.015e-09
 17.07182    -65.4 1.754e+04 5.225e-09
 17.09230    -66.8 1.825e+04 7.196e-09
 17.11277    -67.6 1.840e+04 7.795e-09
 17.13176    -67.9 1.832e+04 7.458e-09
 17.14200    -64.8 1.661e+04 5.185e-09
 17.14643    -65.1 1.662e+04 5.212e-09
 17.15666    -63.6 1.532e+04 4.103e-09
 17.17420    -63.6 1.493e+04 3.913e-09
 17.19467    -63.0 1.487e+04 3.818e-09
 17.21429    -62.2 1.518e+04 3.872e-09
 17.22453    -60.4 1.407e+04 3.140e-09
 17.23562    -59.6 1.479e+04 3.519e-09
 17.24988    -58.7 1.573e+04 4.014e-09
 17.26012    -57.6 1.370e+04 3.050e-09
 17.27657    -56.7 1.398e+04 3.126e-09
 17.29682    -55.8 1.432e+04 3.225e-09
 17.30706    -54.5 1.375e+04 2.970e-09
 17.31752    -53.7 1.430e+04 3.248e-09
 17.33800    -53.0 1.477e+04 3.497e-09
 17.35334    -52.1 1.499e+04 3.701e-09
 17.36358    -51.2 1.389e+04 3.102e-09
 17.37895    -50.2 1.422e+04 3.097e-09
 17.38958    -49.2 1.427e+04 2.869e-09
 17.39982    -48.3 1.460e+04 3.696e-09
 17.41990    -47.1 1.479e+04 3.627e-09
 17.44037    -45.9 1.448e+04 3.176e-09
 17.45680    -44.6 1.371e+04 2.536e-09
 17.46704    -44.0 1.447e+04 2.934e-09
 17.47211    -42.8 1.380e+04 2.321e-09
 17.48235    -41.8 1.548e+04 4.557e-09
 17.50180    -40.7 1.523e+04 3.626e-09
 17.52228    -39.8 1.438e+04 2.614e-09
 17.54275    -39.0 1.320e+04 1.793e-09
 17.55464    -38.2 1.209e+04 1.289e-09
 17.56191    -37.2 1.536e+04 3.128e-09
 17.57049    -36.7 1.633e+04 5.346e-09
 17.58370    -36.0 1.542e+04 3.681e-09
 17.60418    -35.2 1.423e+04 2.545e-09
 17.62465    -34.3 1.301e+04 1.863e-09
 17.63717    -33.3 1.209e+04 1.452e-09
 17.64741    -32.1 1.456e+04 2.807e-09
 17.66371    -31.4 1.323e+04 1.941e-09
 17.67395    -30.6 1.440e+04 3.005e-09
 17.68608    -29.5 1.355e+04 2.353e-09
 17.70655    -28.7 1.243e+04 1.684e-09
 17.71970    -28.0 1.155e+04 1.286e-09
 17.72993    -26.3 1.377e+04 2.420e-09
 17.74750    -25.4 1.284e+04 1.820e-09
 17.76717    -24.8 1.198e+04 1.452e-09
 17.77741    -24.8 1.200e+04 1.495e-09
 17.78845    -24.4 1.143e+04 1.293e-09
 17.80223    -24.2 1.132e+04 1.278e-09
 17.81246    -22.4 1.256e+04 1.791e-09
 17.82940    -22.2 1.243e+04 1.779e-09
 17.84988    -22.9 1.231e+04 1.931e-09
 17.87035    -23.3 1.253e+04 2.403e-09
 17.88087    -23.4 1.294e+04 3.053e-09
 17.88503    -21.8 1.268e+04 1.595e-09
 17.89499    -19.9 1.459e+04 1.782e-09
 17.91130    -21.2 1.403e+04 1.650e-09
 17.93178    -22.1 1.420e+04 1.485e-09
 17.95225    -22.4 1.408e+04 1.166e-09
 17.96728    -22.5 1.383e+04 7.471e-10
 17.97752    -27.1 1.734e+04 7.902e-10
 17.98432    -27.8 1.365e+04 4.534e-10
 17.99456    -33.2 1.110e+04 2.572e-10
 18.01368    -33.0 9.334e+03 1.765e-10
 18.03415    -33.0 8.687e+03 1.502e-10
 18.04981    -31.8 8.472e+03 1.441e-10
 18.06005    -33.9 1.013e+04 3.443e-10
 18.07510    -32.4 9.692e+03 3.133e-10
 18.08778    -30.9 9.414e+03 2.994e-10
 18.09802    -31.1 1.034e+04 5.002e-10
 18.11605    -29.6 1.011e+04 4.530e-10
 18.13234    -28.3 9.910e+03 4.131e-10
 18.14258    -29.4 1.136e+04 1.004e-09
 18.15700    -27.9 1.101e+04 8.530e-10
 18.17748    -26.5 1.067e+04 7.307e-10
 18.19124    -25.2 1.034e+04 6.363e-10
 18.20148    -25.1 1.065e+04 7.914e-10
 18.21487    -23.8 1.029e+04 6.647e-10
 18.22510    -24.0 1.110e+04 1.106e-09
 18.23890    -22.8 1.081e+04 9.034e-10
 18.25938    -21.8 1.059e+04 7.620e-10
 18.27985    -20.8 1.047e+04 6.876e-10
 18.29479    -19.6 1.049e+04 6.661e-10
 18.31537    -19.4 1.042e+04 6.853e-10
 18.35171    -17.1 1.010e+04 5.605e-10
 18.38012    -15.6 1.028e+04 5.736e-10
 18.40059    -15.9 1.081e+04 8.083e-10
 18.43361    -14.8 1.160e+04 1.009e-09
 18.46255    -14.2 1.234e+04 1.339e-09
 18.47269    -14.0 1.233e+04 1.446e-09
 18.48461    -14.0 1.313e+04 1.880e-09
 18.50161    -14.5 1.427e+04 2.784e-09
 18.51185    -13.6 1.407e+04 2.612e-09
 18.52556    -14.0 1.515e+04 3.869e-09
 18.54498    -13.9 1.580e+04 5.545e-09
 18.55522    -13.3 1.594e+04 4.827e-09
 18.56651    -13.5 1.639e+04 6.613e-09
 18.58698    -14.0 1.668e+04 8.147e-09
 18.60507    -14.8 1.686e+04 9.712e-09
 18.61530    -15.8 1.801e+04 1.114e-08
 18.62751    -17.3 1.847e+04 1.477e-08
 18.63775    -18.4 1.980e+04 1.592e-08
 18.64324    -18.7 1.963e+04 1.889e-08
 18.65343    -18.9 1.971e+04 2.019e-08
 18.66182    -19.4 1.980e+04 2.043e-08
 18.66694    -19.8 2.021e+04 2.331e-08
 18.67379    -20.1 2.034e+04 2.371e-08
 18.67891    -20.4 2.071e+04 2.961e-08
 18.68414    -20.6 2.066e+04 2.936e-08
 18.69438    -20.5 2.050e+04 2.398e-08
 18.70462    -20.6 2.011e+04 1.872e-08
 18.71354    -20.5 1.961e+04 1.476e-08
 18.71866    -20.7 1.977e+04 1.716e-08
 18.72018    -21.4 1.916e+04 1.292e-08
 18.72530    -21.1 1.907e+04 1.274e-08
 18.73533    -21.7 1.822e+04 9.746e-09
 18.75073    -22.5 1.708e+04 7.024e-09
 18.77126    -23.1 1.547e+04 4.414e-09
 18.79173    -22.9 1.472e+04 3.553e-09
 18.80280    -22.0 1.419e+04 2.950e-09
 18.81281    -22.5 1.415e+04 1.650e-09
 18.82222    -23.7 1.306e+04 8.619e-10
 18.83268    -23.1 1.283e+04 6.201e-10
 18.85316    -22.7 1.255e+04 4.761e-10
 18.87363    -22.5 1.223e+04 4.132e-10
 18.88533    -21.8 1.210e+04 4.487e-10
 18.89557    -23.1 1.064e+04 3.377e-10
 18.91554    -21.8 1.088e+04 3.404e-10
 18.93601    -22.5 9.548e+03 2.572e-10
 18.95553    -21.5 9.568e+03 2.540e-10
 18.96786    -21.1 9.502e+03 2.548e-10
 18.97810    -21.6 9.233e+03 2.542e-10
 18.99648    -21.3 9.252e+03 2.754e-10
 19.01696    -21.3 9.264e+03 3.107e-10
 19.02913    -20.9 9.314e+03 3.667e-10
 19.03937    -20.8 9.289e+03 3.516e-10
 19.05039    -20.6 9.345e+03 3.820e-10
 19.06063    -20.9 9.449e+03 3.972e-10
 19.07838    -20.6 9.588e+03 4.578e-10
 19.09886    -20.5 9.676e+03 4.830e-10
 19.11933    -20.6 9.718e+03 5.037e-10
 19.13259    -20.8 9.721e+03 5.264e-10
 19.13593    -20.8 9.789e+03 5.454e-10
 19.14315    -20.9 9.947e+03 6.065e-10
 19.17062    -20.9 9.856e+03 5.851e-10
 19.20540    -21.0 9.710e+03 5.682e-10
 19.22588    -21.3 9.971e+03 6.439e-10
 19.25262    -21.4 9.747e+03 5.837e-10
 19.29357    -21.2 9.444e+03 4.996e-10
 19.32946    -20.7 9.053e+03 3.767e-10
 19.34994    -20.5 9.161e+03 4.182e-10
 19.37046    -19.8 8.673e+03 2.703e-10
 19.39093    -19.9 8.927e+03 3.352e-10
 19.41642    -19.3 8.480e+03 2.095e-10
 19.45737    -19.2 8.203e+03 1.469e-10
 19.49832    -18.9 8.146e+03 1.350e-10
 19.53552    -19.1 8.290e+03 1.390e-10
 19.55310    -20.1 8.959e+03 2.629e-10
 19.55685    -21.6 9.842e+03 3.902e-10
 19.56989    -24.2 1.075e+04 6.380e-10
 19.59026    -25.8 1.161e+04 9.324e-10
 19.61074    -28.3 1.293e+04 2.014e-09
 19.62809    -29.7 1.416e+04 3.593e-09
 19.63832    -29.9 1.427e+04 3.878e-09
 19.64988    -30.8 1.480e+04 4.636e-09
 19.66011    -30.4 1.485e+04 4.767e-09
 19.67216    -32.1 1.487e+04 4.467e-09
 19.69264    -34.2 1.426e+04 3.087e-09
 19.71061    -37.2 1.348e+04 1.833e-09
 19.72085    -39.3 1.272e+04 1.229e-09
 19.73359    -42.9 1.181e+04 8.081e-10
 19.75333    -45.7 1.109e+04 6.834e-10
 19.76357    -45.2 1.112e+04 7.348e-10
 19.77454    -46.4 1.094e+04 7.072e-10
 19.79314    -47.0 1.093e+04 7.047e-10
 19.80338    -46.8 1.074e+04 6.202e-10
 19.81549    -47.5 1.075e+04 6.061e-10
 19.83596    -48.3 1.083e+04 6.034e-10
 19.86553    -50.0 1.130e+04 6.530e-10
 19.88610    -48.8 1.042e+04 4.244e-10
 19.90782    -52.2 1.128e+04 5.077e-10
 19.94877    -55.1 1.227e+04 1.026e-09
 19.97068    -56.4 1.247e+04 1.548e-09
 19.99116    -55.1 1.229e+04 1.361e-09
 20.03067    -56.1 1.227e+04 1.582e-09
 20.07162    -54.6 1.151e+04 1.243e-09
 20.11257    -54.2 1.068e+04 8.803e-10
 20.15352    -53.7 9.718e+03 5.053e-10
 20.17760    -52.5 8.878e+03 2.924e-10
 20.19807    -52.0 9.168e+03 3.467e-10
 20.21622    -50.2 8.587e+03 2.212e-10
 20.23669    -49.2 8.718e+03 2.365e-10
 20.27637    -47.4 8.360e+03 1.702e-10
 20.31733    -45.6 8.238e+03 1.488e-10
 20.35828    -43.5 8.207e+03 1.442e-10
 20.38127    -41.4 8.221e+03 1.443e-10
 20.38703    -40.5 8.288e+03 1.478e-10
 20.40499    -40.3 8.433e+03 1.628e-10
 20.44018    -38.5 8.599e+03 1.898e-10
 20.48113    -36.5 8.769e+03 2.320e-10
 20.52208    -34.5 8.907e+03 2.678e-10
 20.54633    -32.5 8.957e+03 2.790e-10
 20.56681    -31.8 9.267e+03 3.554e-10
 20.59142    -29.9 9.260e+03 3.535e-10
 20.61190    -29.4 9.504e+03 4.176e-10
 20.64493    -27.3 9.391e+03 3.703e-10
 20.68588    -25.2 9.159e+03 2.855e-10
 20.71139    -23.3 8.950e+03 2.173e-10
 20.73186    -22.8 9.253e+03 2.992e-10
 20.76778    -21.0 8.988e+03 2.236e-10
 20.79834    -19.0 8.772e+03 1.739e-10
 20.81881    -18.5 9.139e+03 2.548e-10
 20.84968    -16.4 8.972e+03 2.073e-10
 20.87644    -14.1 8.855e+03 1.673e-10
 20.89692    -13.6 8.882e+03 1.678e-10
 20.93158    -11.5 8.792e+03 1.323e-10
 20.97253     -9.4 8.703e+03 1.099e-10
 21.00525     -7.1 8.619e+03 9.859e-11
 21.02573     -7.2 8.867e+03 1.513e-10
 21.04150     -4.9 8.846e+03 1.471e-10
 21.06198     -4.4 8.953e+03 1.679e-10
 21.09538     -2.1 8.997e+03 1.685e-10
 21.13633     -0.2 9.258e+03 1.864e-10
 21.17728      1.1 9.561e+03 2.624e-10
 21.20656      2.3 9.994e+03 4.470e-10
 21.22097      3.0 1.020e+04 5.085e-10
 21.23264      3.6 9.941e+03 3.720e-10
 21.25918      5.7 1.028e+04 4.261e-10
 21.30013      7.0 1.038e+04 4.383e-10
 21.34108      7.5 1.058e+04 3.909e-10
 21.37152      7.0 1.071e+04 3.196e-10
 21.39199      8.0 1.095e+04 3.783e-10
 21.41265      6.3 1.105e+04 4.390e-10
 21.42913      5.9 1.098e+04 5.196e-10
 21.43946      6.3 1.085e+04 4.474e-10
 21.46393      7.0 1.126e+04 7.660e-10
 21.50488      8.4 1.168e+04 8.877e-10
 21.53268      8.4 1.226e+04 7.948e-10
 21.54282      9.1 1.190e+04 6.762e-10
 21.54671      8.4 1.234e+04 6.089e-10
 21.55695      8.9 1.259e+04 7.170e-10
 21.57635      6.8 1.332e+04 6.795e-10
 21.59683      4.4 1.366e+04 8.298e-10
 21.61730      2.8 1.362e+04 1.256e-09
 21.62924      2.6 1.380e+04 1.839e-09
 21.63774      2.7 1.332e+04 1.401e-09
 21.64628      3.3 1.295e+04 1.041e-09
 21.65825      3.1 1.316e+04 1.286e-09
 21.67873      3.0 1.336e+04 1.379e-09
 21.69920      2.2 1.340e+04 1.327e-09
 21.71177      1.3 1.314e+04 1.195e-09
 21.72201      1.2 1.289e+04 9.987e-10
 21.73950      0.6 1.270e+04 9.294e-10
 21.74973      1.7 1.261e+04 9.103e-10
 21.76063      1.4 1.246e+04 8.498e-10
 21.78110      1.2 1.221e+04 7.474e-10
 21.79430      1.1 1.195e+04 6.388e-10
 21.80454      1.2 1.197e+04 5.550e-10
 21.82205      0.7 1.165e+04 4.659e-10
 21.84253      0.3 1.131e+04 4.232e-10
 21.85319     -0.1 1.106e+04 4.013e-10
 21.86343      0.5 1.131e+04 3.847e-10
 21.87683      0.3 1.098e+04 4.031e-10
 21.88706      0.0 1.102e+04 4.232e-10
 21.90395      0.0 1.099e+04 4.568e-10
 21.92443      0.3 1.104e+04 4.708e-10
 21.94490      0.3 1.099e+04 4.594e-10
 21.95665      0.4 1.086e+04 4.191e-10
 21.96086      1.0 1.106e+04 4.517e-10
 21.96959      1.0 1.118e+04 5.119e-10
 21.98585      0.9 1.100e+04 4.336e-10
 22.00633      0.5 1.082e+04 3.687e-10
 22.03174     -0.3 1.059e+04 3.149e-10
 22.05222     -0.9 1.059e+04 3.165e-10
 22.06011     -2.3 1.040e+04 2.920e-10
 22.07034     -2.1 1.030e+04 2.939e-10
 22.08823     -2.9 1.020e+04 3.149e-10
 22.10870     -3.9 1.008e+04 3.590e-10
 22.12441     -4.7 1.020e+04 4.310e-10
 22.13465     -5.3 1.043e+04 4.980e-10
 22.14965     -6.0 1.057e+04 5.686e-10
 22.16356     -6.7 1.060e+04 6.180e-10
 22.17380     -6.2 1.073e+04 7.201e-10
 22.19060     -7.0 1.070e+04 7.293e-10
 22.20694     -7.4 1.053e+04 6.978e-10
 22.21718     -8.3 1.060e+04 6.983e-10
 22.23155     -8.5 1.032e+04 6.335e-10
 22.25203     -8.7 1.004e+04 5.509e-10
 22.26702     -8.7 9.730e+03 4.621e-10
 22.27726     -9.3 9.805e+03 4.876e-10
 22.28947     -9.2 9.567e+03 4.024e-10
 22.29971     -9.9 9.592e+03 4.050e-10
 22.32379     -9.6 9.297e+03 3.268e-10
 22.36195     -9.0 8.744e+03 2.404e-10
 22.38243    -10.1 9.178e+03 3.293e-10
 22.40579     -8.6 8.917e+03 2.991e-10
 22.44674     -6.9 8.842e+03 2.766e-10
 22.47413     -5.5 8.728e+03 2.310e-10
 22.49461     -6.0 8.512e+03 1.748e-10
 22.52701     -4.6 8.391e+03 1.539e-10
 22.54749     -5.8 8.388e+03 1.492e-10
 22.56959     -4.3 8.227e+03 1.296e-10
 22.61054     -2.8 8.110e+03 1.143e-10
 22.65149     -1.3 8.065e+03 1.062e-10
 22.68105      0.1 8.068e+03 1.068e-10
 22.70115      0.3 7.854e+03 8.172e-11
 22.71254     -0.3 7.832e+03 8.148e-11
 22.73339      0.9 8.023e+03 9.105e-11
 22.77434      2.0 8.117e+03 1.279e-10
 22.81529      3.8 8.276e+03 1.922e-10
 22.85624      5.8 8.569e+03 2.544e-10
 22.87760      7.5 8.784e+03 2.886e-10
 22.88884      7.2 8.772e+03 2.443e-10
 22.90843      8.2 8.440e+03 1.873e-10
 22.93814      9.5 8.682e+03 1.854e-10
 22.97909     10.1 8.836e+03 1.994e-10
 23.02004     10.5 8.904e+03 2.992e-10
 23.04266     11.1 9.397e+03 4.393e-10
 23.06313     10.7 9.546e+03 5.062e-10
 23.09487     11.3 1.040e+04 7.863e-10
 23.11535     11.4 1.072e+04 9.779e-10
 23.14289     12.1 1.161e+04 1.551e-09
 23.18384     12.9 1.182e+04 1.801e-09
 23.20771     13.6 1.141e+04 1.299e-09
 23.22819     12.9 1.149e+04 1.325e-09
 23.26574     11.0 1.117e+04 8.807e-10
 23.30179      9.1 1.049e+04 7.187e-10
 23.32226      9.4 1.070e+04 9.455e-10
 23.34764      9.5 1.019e+04 6.370e-10
 23.37277      9.5 1.010e+04 4.110e-10
 23.39324      9.2 1.023e+04 2.778e-10
 23.42954      6.7 1.012e+04 1.999e-10
 23.47049      5.4 9.684e+03 2.676e-10
 23.50870      6.1 9.745e+03 4.085e-10
 23.52918      6.5 9.671e+03 5.803e-10
 23.53783      6.6 1.023e+04 5.796e-10
 23.55830      7.0 1.026e+04 5.834e-10
 23.59335      4.8 1.129e+04 5.903e-10
 23.63430      2.3 1.139e+04 8.164e-10
 23.67525      2.1 1.156e+04 1.070e-09
 23.70288      2.1 1.124e+04 8.838e-10
 23.72278      2.5 1.117e+04 6.909e-10
 23.73609      2.0 1.074e+04 5.909e-10
 23.75715      1.7 1.018e+04 2.893e-10
 23.79810      1.0 9.810e+03 1.751e-10
 23.83905      0.8 9.760e+03 1.375e-10
 23.86794      0.7 9.789e+03 1.341e-10
 23.88841      1.1 9.752e+03 1.334e-10
 23.92095      1.3 9.889e+03 1.907e-10
 23.94301      2.1 1.020e+04 2.699e-10
 23.96348      2.1 1.006e+04 2.487e-10
 24.00285      2.1 1.016e+04 2.914e-10
 24.03300      1.5 1.020e+04 3.683e-10
 24.05347      2.4 1.031e+04 3.905e-10
 24.08475      1.7 1.062e+04 5.726e-10
 24.12570      0.7 1.115e+04 7.953e-10
 24.14992     -1.4 1.186e+04 1.072e-09
 24.17040     -0.8 1.151e+04 8.899e-10
 24.19726     -3.2 1.233e+04 1.202e-09
 24.20809     -7.2 1.383e+04 1.982e-09
 24.21833     -6.7 1.369e+04 2.073e-09
 24.23812    -11.5 1.523e+04 3.480e-09
 24.25318    -15.3 1.633e+04 6.068e-09
 24.26342    -15.1 1.610e+04 6.659e-09
 24.27907    -17.0 1.658e+04 8.877e-09
 24.29062    -18.6 1.673e+04 9.266e-09
 24.30086    -18.3 1.595e+04 6.701e-09
 24.32002    -19.9 1.596e+04 4.781e-09
 24.34049    -23.6 1.524e+04 2.359e-09
 24.35664    -28.8 1.374e+04 1.356e-09
 24.36688    -29.5 1.372e+04 1.453e-09
 24.37315    -32.2 1.302e+04 1.259e-09
 24.38339    -30.9 1.278e+04 1.004e-09
 24.40192    -32.2 1.265e+04 9.953e-10
 24.42239    -33.3 1.245e+04 1.013e-09
 24.45320    -33.9 1.225e+04 1.005e-09
 24.49425    -34.5 1.189e+04 1.080e-09
 24.52817    -34.4 1.185e+04 1.223e-09
 24.54864    -32.8 1.165e+04 9.325e-10
 24.56365    -33.2 1.175e+04 1.135e-09
 24.58413    -34.1 1.116e+04 8.731e-10
 24.61710    -33.8 1.112e+04 8.955e-10
 24.65805    -33.6 1.106e+04 8.708e-10
 24.69322    -33.6 1.092e+04 7.669e-10
 24.71370    -32.6 1.092e+04 7.192e-10
 24.73995    -32.5 1.080e+04 6.234e-10
 24.77057    -32.9 1.068e+04 5.388e-10
 24.78579    -32.9 1.033e+04 4.322e-10
 24.79603    -32.3 1.034e+04 4.368e-10
 24.81142    -32.3 1.036e+04 4.361e-10
 24.83190    -32.2 1.042e+04 4.408e-10
 24.85237    -32.1 1.049e+04 4.484e-10
 24.86832    -32.1 1.066e+04 4.599e-10
 24.87856    -31.4 1.067e+04 4.654e-10
 24.88416    -33.7 1.094e+04 4.732e-10
 24.89440    -35.1 1.167e+04 5.831e-10
 24.91380    -40.5 1.479e+04 1.206e-09
 24.93427    -44.5 1.673e+04 3.654e-09
 24.95085    -45.2 1.753e+04 9.554e-09
 24.96109    -43.9 1.749e+04 7.737e-09
 24.97522    -43.9 1.816e+04 1.502e-08
 24.98762    -43.7 1.850e+04 1.849e-08
 24.99786    -44.4 1.912e+04 2.536e-08
 25.01617    -44.8 1.862e+04 2.013e-08
 25.03338    -45.8 1.742e+04 1.003e-08
 25.04362    -45.0 1.816e+04 1.496e-08
 25.05712    -47.5 1.646e+04 6.886e-09
 25.07760    -50.9 1.442e+04 3.672e-09
 25.09108    -52.6 1.334e+04 2.826e-09
 25.10132    -52.6 1.329e+04 2.979e-09
 25.11591    -52.8 1.305e+04 2.737e-09
 25.12614    -51.5 1.327e+04 2.987e-09
 25.13902    -51.6 1.299e+04 2.500e-09
 25.15950    -51.9 1.280e+04 2.054e-09
 25.17997    -52.5 1.273e+04 1.764e-09
 25.19454    -53.4 1.275e+04 1.686e-09
 25.20276    -53.7 1.250e+04 1.526e-09
 25.20867    -52.9 1.241e+04 1.454e-09
 25.22092    -53.7 1.247e+04 1.492e-09
 25.24140    -54.2 1.260e+04 1.635e-09
 25.26187    -54.6 1.268e+04 1.733e-09
 25.28096    -54.9 1.268e+04 1.738e-09
 25.29120    -54.1 1.276e+04 1.824e-09
 25.29799    -54.4 1.266e+04 1.717e-09
 25.30823    -54.3 1.262e+04 1.676e-09
 25.32330    -54.7 1.234e+04 1.347e-09
 25.34377    -55.1 1.205e+04 1.056e-09
 25.36349    -55.4 1.186e+04 8.674e-10
 25.37373    -54.4 1.200e+04 9.615e-10
 25.38472    -54.7 1.188e+04 8.052e-10
 25.40145    -54.7 1.188e+04 7.257e-10
 25.41169    -54.8 1.187e+04 7.128e-10
 25.42567    -55.0 1.193e+04 6.585e-10
 25.44602    -55.0 1.202e+04 6.457e-10
 25.45626    -54.5 1.200e+04 6.191e-10
 25.47696    -54.9 1.221e+04 6.713e-10
 25.51801    -54.3 1.253e+04 8.470e-10
 25.53888    -53.5 1.272e+04 9.671e-10
 25.54902    -52.8 1.249e+04 7.284e-10
 25.56900    -52.8 1.259e+04 8.095e-10
 25.58948    -52.5 1.272e+04 9.588e-10
 25.60837    -52.2 1.275e+04 1.057e-09
 25.61860    -52.5 1.267e+04 1.047e-09
 25.62131    -51.9 1.261e+04 1.075e-09
 25.63155    -51.2 1.248e+04 9.929e-10
 25.65090    -50.5 1.242e+04 1.009e-09
 25.67138    -49.8 1.234e+04 9.887e-10
 25.69185    -49.2 1.229e+04 8.945e-10
 25.70384    -48.6 1.222e+04 7.861e-10
 25.71358    -47.8 1.218e+04 7.974e-10
 25.72206    -48.0 1.188e+04 5.788e-10
 25.73280    -47.7 1.187e+04 4.994e-10
 25.75328    -47.5 1.193e+04 4.472e-10
 25.77375    -47.4 1.199e+04 4.298e-10
 25.78637    -47.2 1.208e+04 4.307e-10
 25.79661    -46.5 1.200e+04 4.108e-10
 25.81470    -46.4 1.207e+04 4.150e-10
 25.82552    -46.0 1.223e+04 4.681e-10
 25.84609    -46.4 1.218e+04 4.767e-10
 25.86900    -45.1 1.223e+04 5.113e-10
 25.88947    -44.1 1.198e+04 4.587e-10
 25.92751    -42.8 1.190e+04 4.681e-10
 25.96846    -40.8 1.165e+04 4.452e-10
 26.00941    -39.1 1.172e+04 4.057e-10
 26.03253    -37.5 1.181e+04 3.803e-10
 26.03670    -37.4 1.159e+04 3.657e-10
 26.04419    -36.8 1.155e+04 3.677e-10
 26.06040    -36.0 1.154e+04 3.701e-10
 26.08088    -38.3 1.304e+04 3.987e-10
 26.10135    -51.3 2.634e+04 6.552e-10
 26.11644    -59.4 2.459e+04 5.779e-09
 26.12667    -57.8 2.514e+04 3.697e-09
 26.13584    -60.7 2.280e+04 3.817e-08
 26.14091    -61.5 2.246e+04 6.709e-08
 26.14732    -60.5 2.240e+04 1.520e-07
 26.15756    -60.3 2.248e+04 2.213e-07
 26.16277    -61.2 2.248e+04 2.385e-07
 26.16789    -60.6 2.251e+04 2.099e-07
 26.17804    -61.6 2.216e+04 1.870e-07
 26.18752    -61.7 2.194e+04 1.053e-07
 26.19264    -61.6 2.189e+04 7.306e-08
 26.19851    -63.1 2.195e+04 3.471e-08
 26.20403    -66.0 2.117e+04 1.747e-08
 26.20915    -65.7 2.117e+04 1.742e-08
 26.21899    -68.9 1.938e+04 1.006e-08
 26.22923    -71.6 1.790e+04 6.965e-09
 26.23925    -73.4 1.726e+04 5.638e-09
 26.24954    -75.0 1.687e+04 4.724e-09
 26.26515    -77.6 1.683e+04 4.317e-09
 26.28154    -80.7 1.772e+04 5.294e-09
 26.29178    -79.8 1.571e+04 4.001e-09
 26.30610    -82.1 1.676e+04 5.625e-09
 26.32658    -83.5 1.794e+04 9.207e-09
 26.34280    -85.0 1.872e+04 1.194e-08
 26.35304    -86.4 1.942e+04 1.522e-08
 26.36407    -88.3 1.960e+04 1.665e-08
 26.37431    -87.4 1.791e+04 9.392e-09
 26.38801    -89.0 1.785e+04 9.414e-09
 26.40848    -90.2 1.706e+04 7.385e-09
 26.42896    -91.3 1.603e+04 5.052e-09
 26.44626    -92.3 1.507e+04 3.632e-09
 26.45367    -92.6 1.514e+04 4.165e-09
 26.45683    -92.0 1.446e+04 2.944e-09
 26.46991    -92.8 1.382e+04 2.402e-09
 26.49038    -93.1 1.340e+04 2.160e-09
 26.51086    -93.1 1.310e+04 1.998e-09
 26.52913    -92.9 1.281e+04 1.806e-09
 26.53936    -92.2 1.266e+04 1.651e-09
 26.54972    -91.6 1.241e+04 1.511e-09
 26.55996    -91.4 1.239e+04 1.517e-09
 26.57228    -90.5 1.210e+04 1.286e-09
 26.59276    -89.6 1.179e+04 1.009e-09
 26.61165    -88.7 1.146e+04 7.380e-10
 26.62189    -88.1 1.152e+04 8.042e-10
 26.63371    -87.4 1.128e+04 5.990e-10
 26.65327    -87.2 1.113e+04 4.629e-10
 26.67385    -86.4 1.107e+04 4.637e-10
 26.69438    -85.7 1.092e+04 3.937e-10
 26.71485    -84.5 1.104e+04 4.548e-10
 26.74652    -83.3 1.091e+04 4.217e-10
 26.78747    -82.2 1.087e+04 4.207e-10
 26.82842    -81.2 1.088e+04 4.644e-10
 26.85943    -80.5 1.096e+04 5.263e-10
 26.87083    -79.5 1.093e+04 5.169e-10
 26.88076    -79.2 1.101e+04 5.739e-10
 26.91032    -78.6 1.104e+04 5.930e-10
 26.95127    -78.2 1.106e+04 6.065e-10
 26.99222    -78.0 1.111e+04 6.189e-10
 27.02449    -77.9 1.116e+04 6.357e-10
 27.04497    -76.4 1.120e+04 6.353e-10
 27.06720    -76.3 1.131e+04 6.837e-10
 27.08768    -77.1 1.151e+04 8.154e-10
 27.11507    -77.0 1.152e+04 8.072e-10
 27.14568    -77.0 1.138e+04 7.298e-10
 27.16606    -77.1 1.127e+04 6.724e-10
 27.18070    -77.2 1.120e+04 6.196e-10
 27.19094    -77.8 1.114e+04 5.714e-10
 27.19959    -77.9 1.110e+04 5.313e-10
 27.20983    -77.4 1.115e+04 5.787e-10
 27.22749    -77.5 1.113e+04 5.401e-10
 27.24796    -77.6 1.114e+04 5.188e-10
 27.26844    -77.5 1.121e+04 5.050e-10
 27.28212    -77.5 1.122e+04 4.849e-10
 27.28760    -77.3 1.122e+04 4.937e-10
 27.29449    -77.9 1.119e+04 4.462e-10
 27.31982    -78.5 1.117e+04 3.682e-10
 27.35460    -79.4 1.110e+04 3.042e-10
 27.37508    -78.6 1.118e+04 3.217e-10
 27.40172    -79.6 1.111e+04 2.877e-10
 27.44267    -80.5 1.110e+04 2.832e-10
 27.48103    -81.6 1.143e+04 3.231e-10
 27.50150    -82.3 1.112e+04 3.055e-10
 27.51966    -83.0 1.163e+04 4.249e-10
 27.54004    -83.2 1.181e+04 4.629e-10
 27.55509    -85.0 1.207e+04 6.851e-10
 27.57556    -86.1 1.226e+04 9.615e-10
 27.59453    -86.8 1.246e+04 1.240e-09
 27.60477    -86.5 1.222e+04 9.903e-10
 27.61223    -87.0 1.239e+04 1.165e-09
 27.62247    -87.3 1.250e+04 1.232e-09
 27.63699    -88.0 1.263e+04 1.332e-09
 27.65746    -88.7 1.270e+04 1.369e-09
 27.67794    -89.5 1.276e+04 1.388e-09
 27.69476    -90.4 1.292e+04 1.429e-09
 27.70457    -91.3 1.322e+04 1.601e-09
 27.70822    -90.9 1.291e+04 1.416e-09
 27.71889    -91.6 1.318e+04 1.633e-09
 27.73936    -92.3 1.357e+04 1.961e-09
 27.75984    -92.9 1.402e+04 2.353e-09
 27.77729    -93.5 1.446e+04 2.753e-09
 27.78753    -93.8 1.433e+04 2.514e-09
 27.80079    -94.4 1.454e+04 2.607e-09
 27.81168    -95.0 1.467e+04 2.577e-09
 27.82192    -94.6 1.389e+04 1.999e-09
 27.84174    -95.2 1.387e+04 1.824e-09
 27.85982    -95.6 1.378e+04 1.713e-09
 27.87005    -95.7 1.345e+04 1.376e-09
 27.88269    -95.9 1.342e+04 1.360e-09
 27.90316    -95.9 1.339e+04 1.392e-09
 27.91514    -96.0 1.344e+04 1.488e-09
 27.92538    -95.7 1.305e+04 1.148e-09
 27.94234    -96.1 1.326e+04 1.292e-09
 27.95258    -96.4 1.315e+04 1.178e-09
 27.96459    -97.1 1.354e+04 1.545e-09
 27.98506    -97.9 1.397e+04 2.092e-09
 28.00554    -98.7 1.443e+04 2.898e-09
 28.01860    -99.3 1.486e+04 3.964e-09
 28.02769    -99.4 1.484e+04 4.087e-09
 28.03511    -99.7 1.464e+04 3.931e-09
 28.04649   -100.0 1.479e+04 4.460e-09
 28.06697   -100.2 1.479e+04 4.565e-09
 28.08744   -100.2 1.460e+04 4.294e-09
 28.10740   -100.1 1.430e+04 3.452e-09
 28.11764   -100.3 1.396e+04 2.532e-09
 28.12205   -100.6 1.367e+04 1.850e-09
 28.13229   -101.2 1.324e+04 1.219e-09
 28.14887   -101.9 1.299e+04 9.637e-10
 28.16934   -102.2 1.266e+04 8.750e-10
 28.18982   -102.4 1.255e+04 8.529e-10
 28.20017   -102.0 1.256e+04 8.433e-10
 28.21040   -102.3 1.251e+04 8.900e-10
 28.22551   -101.7 1.259e+04 9.345e-10
 28.23575   -102.1 1.249e+04 8.212e-10
 28.25124   -101.5 1.255e+04 8.371e-10
 28.27172   -101.1 1.254e+04 8.385e-10
 28.30253   -100.4 1.253e+04 8.296e-10
 28.32916    -98.7 1.232e+04 7.358e-10
 28.34964    -99.1 1.196e+04 6.484e-10
 28.36542    -97.2 1.189e+04 6.265e-10
 28.38589    -97.3 1.204e+04 7.113e-10
 28.42548    -95.4 1.217e+04 7.181e-10
 28.44785    -94.3 1.203e+04 6.663e-10
 28.45799    -94.5 1.215e+04 7.005e-10
 28.47647    -94.0 1.224e+04 7.214e-10
 28.49694    -93.4 1.231e+04 7.662e-10
 28.51742    -92.9 1.233e+04 8.178e-10
 28.53028    -92.4 1.235e+04 8.815e-10
 28.53851    -92.7 1.254e+04 9.590e-10
 28.54612    -92.7 1.233e+04 8.041e-10
 28.55837    -92.3 1.240e+04 8.955e-10
 28.57884    -91.8 1.247e+04 1.006e-09
 28.59932    -91.4 1.256e+04 1.137e-09
 28.61281    -90.9 1.267e+04 1.292e-09
 28.62305    -91.3 1.299e+04 1.546e-09
 28.63934    -90.9 1.309e+04 1.729e-09
 28.64958    -90.9 1.283e+04 1.427e-09
 28.66074    -90.2 1.290e+04 1.583e-09
 28.68122    -89.9 1.292e+04 1.622e-09
 28.69534    -89.4 1.294e+04 1.667e-09
 28.70557    -90.0 1.308e+04 1.713e-09
 28.72217    -89.5 1.289e+04 1.564e-09
 28.74264    -89.0 1.269e+04 1.403e-09
 28.75303    -88.7 1.255e+04 1.260e-09
 28.76327    -88.9 1.267e+04 1.409e-09
 28.77787    -88.7 1.260e+04 1.341e-09
 28.78810    -89.4 1.260e+04 1.259e-09
 28.80407    -89.2 1.258e+04 1.212e-09
 28.82455    -89.1 1.258e+04 1.200e-09
 28.84502    -89.0 1.266e+04 1.210e-09
 28.85649    -89.0 1.270e+04 1.242e-09
 28.86163    -89.2 1.259e+04 1.190e-09
 28.87063    -89.7 1.253e+04 1.108e-09
 28.88597    -89.7 1.245e+04 1.047e-09
 28.90645    -89.7 1.230e+04 9.552e-10
 28.92692    -89.7 1.207e+04 8.350e-10
 28.94292    -89.5 1.181e+04 6.968e-10
 28.95316    -89.6 1.174e+04 6.794e-10
 28.95995    -89.2 1.148e+04 5.488e-10
 28.97019    -89.4 1.131e+04 4.782e-10
 28.99868    -88.9 1.114e+04 3.911e-10
 29.02565    -87.9 1.083e+04 2.916e-10
 29.04612    -87.6 1.080e+04 3.065e-10
 29.08068    -86.3 1.061e+04 2.566e-10
 29.12163    -84.8 1.055e+04 2.395e-10
 29.15682    -83.4 1.054e+04 2.381e-10
 29.17730    -82.8 1.039e+04 2.161e-10
 29.19070    -81.5 1.053e+04 2.409e-10
 29.21118    -81.2 1.062e+04 2.845e-10
 29.24448    -80.1 1.079e+04 3.236e-10
 29.28543    -79.1 1.099e+04 3.708e-10
 29.32638    -78.2 1.120e+04 4.322e-10
 29.35576    -77.3 1.141e+04 5.032e-10
 29.37264    -77.1 1.154e+04 5.867e-10
 29.38421    -76.3 1.173e+04 7.589e-10
 29.40828    -75.6 1.219e+04 8.993e-10
 29.43819    -75.5 1.219e+04 8.305e-10
 29.44833    -76.0 1.252e+04 9.798e-10
 29.45927    -76.5 1.280e+04 1.170e-09
 29.47723    -76.8 1.301e+04 1.386e-09
 29.48747    -76.6 1.298e+04 1.519e-09
 29.50022    -76.8 1.311e+04 1.662e-09
 29.52062    -76.9 1.331e+04 1.731e-09
 29.54110    -77.9 1.347e+04 1.716e-09
 29.56165    -78.5 1.339e+04 1.624e-09
 29.58069    -79.0 1.325e+04 1.534e-09
 29.59093    -79.0 1.291e+04 1.282e-09
 29.61294    -79.3 1.265e+04 1.125e-09
 29.65398    -79.0 1.243e+04 1.001e-09
 29.68587    -78.8 1.229e+04 9.018e-10
 29.70635    -79.2 1.221e+04 8.370e-10
 29.73588    -78.5 1.201e+04 7.270e-10
 29.77683    -77.6 1.175e+04 5.889e-10
 29.79804    -76.4 1.158e+04 4.821e-10
 29.81851    -76.0 1.158e+04 4.608e-10
 29.85093    -75.0 1.145e+04 4.061e-10
 29.87140    -75.0 1.159e+04 4.973e-10
 29.89968    -73.8 1.150e+04 4.787e-10
 29.94063    -72.0 1.143e+04 4.830e-10
 29.98159    -70.3 1.158e+04 5.384e-10
 30.00495    -68.9 1.182e+04 6.451e-10
 30.01888    -67.9 1.174e+04 6.271e-10
 30.03646    -67.9 1.193e+04 7.845e-10
 30.06349    -66.3 1.212e+04 9.180e-10
 30.10444    -64.7 1.222e+04 1.013e-09
 30.14539    -63.3 1.224e+04 1.042e-09
 30.18104    -61.8 1.219e+04 9.739e-10
 30.20152    -61.6 1.212e+04 9.506e-10
 30.21187    -60.0 1.201e+04 8.628e-10
 30.23234    -59.0 1.208e+04 9.104e-10
 30.26824    -57.4 1.201e+04 8.494e-10
 30.30919    -55.7 1.186e+04 7.467e-10
 30.34610    -53.9 1.168e+04 6.252e-10
 30.36657    -53.3 1.165e+04 6.824e-10
 30.39109    -51.3 1.148e+04 5.788e-10
 30.41878    -49.2 1.134e+04 4.831e-10
 30.43926    -48.6 1.144e+04 5.626e-10
 30.47299    -46.5 1.136e+04 4.957e-10
 30.51116    -44.4 1.138e+04 4.670e-10
 30.53163    -43.7 1.129e+04 5.043e-10
 30.55489    -41.6 1.135e+04 4.843e-10
 30.59584    -39.8 1.146e+04 4.984e-10
 30.62570    -38.1 1.154e+04 5.279e-10
 30.64617    -37.6 1.195e+04 8.270e-10
 30.67621    -36.2 1.218e+04 9.436e-10
 30.69669    -35.0 1.206e+04 9.886e-10
 30.71869    -33.7 1.219e+04 1.034e-09
 30.75964    -32.6 1.225e+04 1.018e-09
 30.80059    -31.4 1.212e+04 8.972e-10
 30.83261    -30.3 1.200e+04 7.642e-10
 30.85282    -30.7 1.260e+04 1.248e-09
 30.86174    -29.5 1.248e+04 1.192e-09
 30.88249    -28.4 1.223e+04 1.001e-09
 30.92344    -27.2 1.212e+04 9.425e-10
 30.96439    -25.8 1.210e+04 9.421e-10
 31.00534    -24.5 1.212e+04 1.017e-09
 31.02680    -23.2 1.206e+04 1.066e-09
 31.04051    -21.9 1.196e+04 1.024e-09
 31.06000    -22.6 1.215e+04 1.114e-09
 31.08724    -21.1 1.207e+04 1.158e-09
 31.12819    -19.5 1.190e+04 1.134e-09
 31.16914    -17.7 1.176e+04 1.056e-09
 31.19186    -15.8 1.163e+04 9.107e-10
 31.21233    -14.6 1.199e+04 1.290e-09
 31.24644    -12.7 1.204e+04 1.239e-09
 31.26692    -13.1 1.202e+04 1.263e-09
 31.29199    -11.2 1.206e+04 1.189e-09
 31.33294     -9.4 1.200e+04 1.042e-09
 31.35691     -7.7 1.184e+04 8.953e-10
 31.37739     -7.0 1.210e+04 1.234e-09
 31.41484     -5.5 1.182e+04 1.000e-09
 31.45336     -4.1 1.171e+04 9.507e-10
 31.47383     -3.8 1.151e+04 7.618e-10
 31.49674     -2.6 1.164e+04 8.354e-10
 31.52197     -1.5 1.179e+04 9.667e-10
 31.54245     -0.6 1.152e+04 7.924e-10
 31.57865      0.6 1.163e+04 8.777e-10
 31.61960      1.7 1.162e+04 8.810e-10
 31.66027      2.7 1.144e+04 7.289e-10
 31.68074      3.4 1.123e+04 5.814e-10
 31.68703      4.0 1.112e+04 4.860e-10
 31.70750      5.5 1.120e+04 5.531e-10
 31.74245      5.9 1.105e+04 4.664e-10
 31.78340      6.3 1.095e+04 4.237e-10
 31.82435      7.0 1.092e+04 4.199e-10
 31.85208      7.6 1.107e+04 4.925e-10
 31.87256      9.1 1.110e+04 5.137e-10
 31.88766      9.5 1.150e+04 6.130e-10
 31.90813      9.2 1.152e+04 4.530e-10
 31.94720      6.6 1.302e+04 9.807e-10
 31.97781      5.2 1.387e+04 1.984e-09
 31.99092      4.3 1.445e+04 3.393e-09
 32.00116      3.9 1.423e+04 3.148e-09
 32.01695      3.8 1.457e+04 4.187e-09
 32.02718      4.5 1.462e+04 4.170e-09
 32.03914      4.4 1.485e+04 4.789e-09
 32.05962      3.8 1.480e+04 4.323e-09
 32.08009      2.1 1.438e+04 2.644e-09
 32.09438     -1.1 1.359e+04 1.651e-09
 32.10352     -1.0 1.386e+04 1.881e-09
 32.10971      0.9 1.424e+04 2.275e-09
 32.12104     -2.0 1.368e+04 1.846e-09
 32.14152     -3.9 1.348e+04 1.773e-09
 32.16199     -5.2 1.339e+04 1.844e-09
 32.18200     -6.2 1.339e+04 1.962e-09
 32.19224     -5.2 1.363e+04 2.169e-09
 32.19784     -6.2 1.360e+04 2.276e-09
 32.20807     -6.7 1.421e+04 3.326e-09
 32.22342     -7.6 1.396e+04 3.227e-09
 32.24389     -8.2 1.352e+04 2.729e-09
 32.26437     -8.8 1.301e+04 2.146e-09
 32.27477     -9.3 1.250e+04 1.650e-09
 32.28501     -8.5 1.293e+04 2.060e-09
 32.30129     -9.0 1.244e+04 1.553e-09
 32.31153     -9.4 1.250e+04 1.599e-09
 32.32579     -9.9 1.209e+04 1.244e-09
 32.34627    -10.1 1.176e+04 1.030e-09
 32.35730    -10.0 1.145e+04 8.773e-10
 32.36753     -9.7 1.158e+04 9.608e-10
 32.38722     -9.3 1.128e+04 7.757e-10
 32.40475     -9.0 1.113e+04 5.855e-10
 32.41499     -9.4 1.105e+04 4.750e-10
 32.43850     -9.3 1.100e+04 4.040e-10
 32.47955     -9.6 1.074e+04 3.241e-10
 32.50840     -9.7 1.043e+04 2.780e-10
 32.52069    -10.2 1.029e+04 2.506e-10
 32.53279     -9.8 1.030e+04 2.503e-10
 32.56145     -9.9 1.016e+04 2.408e-10
 32.60240    -10.1 1.000e+04 2.312e-10
 32.64335    -10.2 9.836e+03 2.163e-10
 32.67737    -10.1 9.701e+03 1.963e-10
 32.69784     -9.7 9.693e+03 1.943e-10
 32.71532     -9.7 9.627e+03 1.757e-10
 32.73579    -10.0 9.618e+03 1.729e-10
 32.76620    -10.2 9.640e+03 1.690e-10
 32.80715    -11.2 1.011e+04 2.186e-10
 32.84242    -11.9 1.046e+04 4.125e-10
 32.86290    -11.5 1.072e+04 4.225e-10
 32.87872    -12.1 1.093e+04 6.762e-10
 32.89910    -12.3 1.101e+04 7.830e-10
 32.91957    -12.2 1.100e+04 8.413e-10
 32.93227    -11.9 1.075e+04 7.446e-10
 32.93746    -12.5 1.098e+04 8.876e-10
 32.94523    -12.4 1.121e+04 1.035e-09
 32.96052    -12.4 1.084e+04 8.044e-10
 32.98100    -12.5 1.048e+04 6.376e-10
 33.00147    -12.4 1.019e+04 5.257e-10
 33.01752    -11.9 1.004e+04 4.631e-10
 33.02776    -12.0 1.024e+04 5.762e-10
 33.03573    -11.5 1.015e+04 5.302e-10
 33.04597    -11.9 1.017e+04 5.902e-10
 33.06290    -11.3 1.008e+04 5.494e-10
 33.08337    -10.6 1.001e+04 5.152e-10
 33.10005    -10.2 9.979e+03 5.087e-10
 33.11029    -10.2 1.019e+04 6.567e-10
 33.12432     -9.5 1.017e+04 6.525e-10
 33.13919     -8.9 1.017e+04 6.507e-10
 33.14943     -9.1 1.016e+04 6.630e-10
 33.16527     -8.5 1.019e+04 6.547e-10
 33.18258     -8.0 1.020e+04 6.440e-10
 33.19282     -8.0 1.049e+04 7.745e-10
 33.20622     -7.7 1.050e+04 7.596e-10
 33.22670     -7.5 1.050e+04 7.438e-10
 33.24265     -7.4 1.048e+04 7.313e-10
 33.25288     -7.8 1.052e+04 7.558e-10
 33.26511     -7.7 1.052e+04 7.783e-10
 33.27535     -8.3 1.073e+04 9.269e-10
 33.28812     -8.2 1.075e+04 9.758e-10
 33.30860     -8.1 1.085e+04 1.039e-09
 33.32907     -8.1 1.108e+04 1.126e-09
 33.34610     -8.3 1.142e+04 1.260e-09
 33.35443     -7.9 1.137e+04 1.276e-09
 33.35787    -10.1 1.243e+04 1.927e-09
 33.37002    -10.7 1.290e+04 2.291e-09
 33.39050    -11.2 1.339e+04 2.815e-09
 33.41097    -11.7 1.389e+04 3.468e-09
 33.43016    -11.8 1.438e+04 4.051e-09
 33.44040    -14.7 1.547e+04 4.928e-09
 33.44956    -15.1 1.554e+04 4.525e-09
 33.45980    -14.5 1.567e+04 4.952e-09
 33.47240    -15.0 1.540e+04 4.403e-09
 33.49287    -15.6 1.514e+04 3.745e-09
 33.51269    -16.5 1.481e+04 3.077e-09
 33.52293    -20.4 1.403e+04 2.189e-09
 33.53382    -21.3 1.321e+04 1.706e-09
 33.55302    -22.4 1.255e+04 1.450e-09
 33.56326    -21.5 1.294e+04 1.574e-09
 33.57477    -23.4 1.287e+04 1.462e-09
 33.59522    -27.2 1.414e+04 1.885e-09
 33.61570    -38.3 1.534e+04 3.589e-09
 33.63620    -41.3 1.549e+04 5.399e-09
 33.65647    -42.9 1.539e+04 6.416e-09
 33.66671    -42.4 1.523e+04 6.033e-09
 33.67715    -44.0 1.534e+04 5.714e-09
 33.68799    -46.3 1.505e+04 4.236e-09
 33.69822    -48.4 1.481e+04 2.930e-09
 33.71810    -53.3 1.375e+04 1.407e-09
 33.73858    -58.9 1.214e+04 8.190e-10
 33.75905    -62.6 1.154e+04 7.119e-10
 33.77017    -64.4 1.168e+04 7.465e-10
 33.77140    -62.9 1.141e+04 7.076e-10
 33.78075    -62.8 1.104e+04 6.083e-10
 33.80000    -63.6 1.132e+04 6.648e-10
 33.83081    -64.7 1.188e+04 8.211e-10
 33.85314    -66.5 1.245e+04 1.196e-09
 33.87362    -64.5 1.207e+04 8.686e-10
 33.90247    -64.6 1.253e+04 1.143e-09
 33.92285    -65.5 1.343e+04 1.742e-09
 33.93557    -66.4 1.430e+04 2.859e-09
 33.94581    -64.8 1.365e+04 1.988e-09
 33.96380    -65.5 1.478e+04 3.467e-09
 33.97708    -66.1 1.573e+04 5.257e-09
 33.98732    -65.1 1.552e+04 4.486e-09
 34.00475    -66.0 1.660e+04 6.899e-09
 34.01810    -67.2 1.759e+04 8.509e-09
 34.02834    -66.3 1.839e+04 1.041e-08
 34.04570    -67.6 1.972e+04 1.303e-08
 34.05932    -69.2 2.000e+04 1.017e-08
 34.06439    -69.1 2.118e+04 1.626e-08
 34.07120    -70.4 2.217e+04 1.659e-08
 34.08044    -72.3 2.296e+04 1.565e-08
 34.08556    -73.1 2.351e+04 3.258e-08
 34.09167    -75.4 2.406e+04 2.445e-08
 34.10053    -78.1 2.324e+04 1.502e-08
 34.10565    -77.8 2.326e+04 3.451e-08
 34.11215    -80.6 2.226e+04 1.942e-08
 34.12239    -82.9 2.056e+04 1.159e-08
 34.13217    -84.4 1.878e+04 7.806e-09
 34.13729    -85.2 1.876e+04 1.068e-08
 34.14180    -85.9 1.765e+04 7.872e-09
 34.14691    -86.0 1.848e+04 1.379e-08
 34.15310    -86.5 1.796e+04 1.079e-08
 34.16334    -87.2 1.777e+04 9.133e-09
 34.17357    -88.2 1.784e+04 8.534e-09
 34.18306    -89.6 1.790e+04 8.440e-09
 34.18818    -90.0 1.876e+04 1.236e-08
 34.18902    -91.9 1.906e+04 1.229e-08
 34.19414    -92.6 1.932e+04 1.537e-08
 34.20429    -94.5 1.972e+04 1.636e-08
 34.21452    -96.3 2.006e+04 1.869e-08
 34.22432    -97.6 2.037e+04 2.153e-08
 34.22944    -97.2 2.056e+04 2.399e-08
 34.23500    -98.4 2.078e+04 2.558e-08
 34.24075    -99.7 2.086e+04 2.606e-08
 34.24587    -99.9 2.099e+04 2.710e-08
 34.25547   -101.2 2.089e+04 2.609e-08
 34.26559   -102.3 2.055e+04 2.241e-08
 34.27071   -102.0 2.060e+04 2.244e-08
 34.27595   -103.0 2.015e+04 1.760e-08
 34.28619   -104.0 1.959e+04 1.313e-08
 34.29248   -105.3 1.885e+04 9.534e-09
 34.29760   -105.6 1.867e+04 8.135e-09
 34.31183   -108.3 1.724e+04 4.725e-09
 34.33235   -114.4 1.333e+04 1.814e-09
 34.34821   -116.8 1.223e+04 1.446e-09
 34.35845   -116.9 1.221e+04 1.456e-09
 34.37330   -117.6 1.202e+04 1.391e-09
 34.39091   -118.3 1.200e+04 1.407e-09
 34.40115   -119.1 1.185e+04 1.215e-09
 34.41425   -121.8 1.332e+04 1.742e-09
 34.43074   -125.0 1.593e+04 3.247e-09
 34.44098   -127.9 1.698e+04 4.204e-09
 34.45521   -130.5 1.815e+04 7.542e-09
 34.47568   -132.6 1.847e+04 1.058e-08
 34.49437   -134.8 1.844e+04 1.136e-08
 34.50461   -137.1 1.920e+04 1.576e-08
 34.51327   -137.9 1.841e+04 1.392e-08
 34.52351   -138.4 1.750e+04 1.046e-08
 34.53711   -138.7 1.639e+04 7.173e-09
 34.55758   -139.1 1.507e+04 4.428e-09
 34.57806   -139.8 1.380e+04 2.605e-09
 34.59580   -140.5 1.270e+04 1.631e-09
 34.60533   -141.9 1.161e+04 1.042e-09
 34.60807   -143.4 1.093e+04 7.744e-10
 34.61901   -143.7 1.043e+04 6.576e-10
 34.63948   -143.2 1.019e+04 6.027e-10
 34.65996   -142.5 1.001e+04 5.545e-10
 34.67833   -141.7 9.911e+03 5.095e-10
 34.68856   -141.2 9.895e+03 5.094e-10
 34.70091   -140.1 9.802e+03 4.678e-10
 34.71152   -139.0 9.720e+03 4.322e-10
 34.72176   -139.2 9.870e+03 4.735e-10
 34.74186   -138.1 9.793e+03 4.413e-10
 34.77267   -136.8 9.739e+03 4.179e-10
 34.80494   -135.1 9.599e+03 3.898e-10
 34.82532   -134.1 9.823e+03 4.628e-10
 34.84338   -133.2 9.792e+03 4.567e-10
 34.85362   -133.0 9.833e+03 4.811e-10
 34.86471   -131.9 9.800e+03 4.789e-10
 34.88518   -130.7 9.783e+03 4.813e-10
 34.90566   -129.9 9.764e+03 4.802e-10
 34.91844   -128.6 9.743e+03 4.826e-10
 34.92845   -128.7 9.836e+03 5.245e-10
 34.93615   -128.7 9.998e+03 6.121e-10
 34.94661   -127.6 9.888e+03 5.736e-10
 34.97742   -126.2 9.718e+03 4.968e-10
 35.00864   -124.4 9.588e+03 4.606e-10
 35.02250   -124.2 9.723e+03 5.233e-10
 35.03233   -123.4 9.694e+03 4.982e-10
 35.05942   -122.1 9.594e+03 4.387e-10
 35.10037   -119.7 9.304e+03 3.603e-10
 35.14132   -117.0 9.038e+03 2.966e-10
 35.17369   -114.6 8.883e+03 2.567e-10
 35.19417   -114.1 8.973e+03 2.785e-10
 35.21877   -111.8 8.944e+03 2.674e-10
 35.23924   -111.6 8.656e+03 1.909e-10
 35.26417   -109.8 8.657e+03 1.896e-10
 35.30512   -108.7 8.774e+03 2.049e-10
 35.33875   -108.3 9.362e+03 3.224e-10
 35.35922   -108.1 9.590e+03 3.967e-10
 35.38702   -107.9 1.022e+04 6.489e-10
 35.42568   -108.0 1.077e+04 9.364e-10
 35.44616   -106.9 1.064e+04 8.617e-10
 35.46892   -107.2 1.113e+04 1.121e-09
 35.50381   -108.1 1.131e+04 1.210e-09
 35.52428   -108.5 1.152e+04 1.358e-09
 35.55082   -109.2 1.152e+04 1.357e-09
 35.59177   -109.4 1.127e+04 1.074e-09
 35.63260   -109.5 1.085e+04 7.521e-10
 35.66874   -108.5 1.055e+04 5.744e-10
 35.68934   -108.7 1.050e+04 5.387e-10
 35.71462   -107.8 9.959e+03 3.389e-10
 35.75557   -106.4 9.496e+03 2.169e-10
 35.79652   -104.8 9.225e+03 1.518e-10
 35.83392   -103.1 9.105e+03 1.219e-10
 35.85439   -102.9 9.022e+03 9.943e-11
 35.85999   -101.2 9.017e+03 9.184e-11
 35.88046   -100.5 9.112e+03 9.270e-11
 35.91937    -98.7 9.098e+03 9.117e-11
 35.96032    -97.0 9.106e+03 9.176e-11
 35.99898    -95.3 9.157e+03 9.615e-11
 36.01945    -94.8 9.050e+03 7.793e-11
 36.04222    -93.1 9.110e+03 8.586e-11
 36.06690    -91.4 9.159e+03 9.381e-11
 36.08737    -91.0 9.230e+03 9.707e-11
 36.12412    -89.2 9.243e+03 1.042e-10
 36.16403    -87.4 9.246e+03 1.073e-10
 36.18451    -87.0 9.207e+03 9.955e-11
 36.20602    -85.2 9.214e+03 1.017e-10
 36.24697    -83.4 9.207e+03 1.019e-10
 36.27381    -81.5 9.196e+03 9.670e-11
 36.29429    -80.9 9.217e+03 9.924e-11
 36.32887    -79.0 9.207e+03 9.096e-11
 36.34956    -77.0 9.193e+03 8.098e-11
 36.37004    -76.7 9.181e+03 7.472e-11
 36.41077    -74.8 9.161e+03 6.439e-11
 36.45173    -72.9 9.147e+03 5.556e-11
 36.48073    -71.0 9.142e+03 4.936e-11
 36.50120    -70.4 9.160e+03 5.106e-11
 36.51462    -68.5 9.171e+03 4.813e-11
 36.53510    -68.4 9.145e+03 4.652e-11
 36.57458    -66.6 9.147e+03 4.668e-11
 36.61553    -65.0 9.291e+03 4.911e-11
 36.65648    -63.6 9.427e+03 6.301e-11
 36.67968    -62.1 9.525e+03 8.802e-11
 36.69037    -62.0 9.488e+03 8.469e-11
 36.70812    -61.5 9.523e+03 8.210e-11
 36.73838    -60.1 9.646e+03 1.008e-10
 36.77933    -58.7 9.782e+03 1.167e-10
 36.82028    -57.6 9.914e+03 1.271e-10
 36.84473    -56.6 1.001e+04 1.323e-10
 36.86521    -56.8 9.953e+03 1.239e-10
 36.89456    -55.8 1.002e+04 1.286e-10
 36.91503    -55.5 9.997e+03 1.191e-10
 36.94313    -54.5 1.002e+04 1.203e-10
 36.98408    -53.5 1.005e+04 1.174e-10
 37.00979    -52.3 1.009e+04 1.101e-10
 37.03027    -52.2 1.009e+04 1.099e-10
 37.06598    -51.0 1.014e+04 1.054e-10
 37.10147    -49.7 1.016e+04 1.049e-10
 37.12195    -49.2 1.020e+04 9.684e-11
 37.14788    -48.0 1.035e+04 1.022e-10
 37.17485    -46.8 1.049e+04 1.196e-10
 37.19532    -46.6 1.056e+04 1.380e-10
 37.22978    -45.4 1.069e+04 1.657e-10
 37.27073    -44.2 1.086e+04 1.931e-10
 37.30839    -43.2 1.102e+04 2.206e-10
 37.32886    -42.7 1.103e+04 2.236e-10
 37.33990    -41.8 1.113e+04 2.532e-10
 37.36038    -42.0 1.119e+04 2.792e-10
 37.39358    -41.2 1.121e+04 3.105e-10
 37.43453    -40.3 1.120e+04 3.325e-10
 37.47548    -39.3 1.117e+04 3.380e-10
 37.50496    -38.1 1.109e+04 3.136e-10
 37.52431    -38.3 1.098e+04 2.767e-10
 37.53578    -37.9 1.110e+04 3.127e-10
 37.55738    -36.7 1.103e+04 2.580e-10
 37.59833    -35.6 1.096e+04 2.194e-10
 37.63928    -34.4 1.090e+04 2.014e-10
 37.67002    -33.0 1.089e+04 1.960e-10
 37.69049    -33.3 1.073e+04 1.961e-10
 37.72118    -31.8 1.078e+04 2.033e-10
 37.74269    -30.1 1.085e+04 2.082e-10
 37.76317    -30.1 1.096e+04 2.491e-10
 37.80308    -28.5 1.098e+04 2.385e-10
 37.83507    -26.9 1.103e+04 2.248e-10
 37.85555    -27.3 1.106e+04 2.516e-10
 37.88498    -25.7 1.108e+04 2.489e-10
 37.92593    -24.3 1.118e+04 2.630e-10
 37.94961    -22.9 1.129e+04 3.136e-10
 37.97008    -23.5 1.142e+04 3.788e-10
 38.00013    -22.1 1.149e+04 4.345e-10
 38.02061    -22.6 1.158e+04 4.940e-10
 38.04879    -21.5 1.162e+04 5.268e-10
 38.08974    -20.5 1.162e+04 5.514e-10
 38.12035    -20.5 1.164e+04 5.441e-10
 38.14073    -20.4 1.161e+04 5.403e-10
 38.15632    -20.4 1.168e+04 5.523e-10
 38.17045    -20.6 1.145e+04 4.686e-10
 38.18566    -22.0 1.134e+04 5.318e-10
 38.21259    -22.0 1.133e+04 5.892e-10
 38.25354    -21.9 1.132e+04 6.497e-10
 38.29449    -22.1 1.135e+04 7.035e-10
 38.33024    -22.4 1.137e+04 7.491e-10
 38.35072    -24.1 1.142e+04 8.848e-10
 38.36343    -24.0 1.140e+04 9.181e-10
 38.38391    -23.8 1.143e+04 9.897e-10
 38.41734    -23.4 1.141e+04 1.018e-09
 38.45829    -22.7 1.132e+04 9.563e-10
 38.49530    -22.0 1.123e+04 8.764e-10
 38.51578    -23.4 1.111e+04 8.079e-10
 38.54019    -22.6 1.093e+04 6.814e-10
 38.57035    -21.9 1.073e+04 5.671e-10
 38.59082    -21.8 1.065e+04 5.344e-10
 38.62209    -21.2 1.048e+04 4.558e-10
 38.66036    -20.6 1.035e+04 4.144e-10
 38.68083    -21.4 1.021e+04 4.056e-10
 38.70399    -20.7 1.022e+04 3.991e-10
 38.74494    -19.8 1.018e+04 3.664e-10
 38.77726    -18.9 1.013e+04 3.206e-10
 38.79774    -18.2 1.009e+04 3.069e-10
 38.82541    -17.3 1.004e+04 2.548e-10
 38.84589    -17.8 1.002e+04 2.562e-10
 38.86779    -17.0 1.002e+04 2.483e-10
 38.90874    -16.0 1.009e+04 2.836e-10
 38.94969    -14.8 1.018e+04 3.458e-10
 38.98418    -13.4 1.026e+04 3.853e-10
 39.00448    -12.7 1.013e+04 3.184e-10
 39.03142    -11.5 1.030e+04 3.905e-10
 39.07254    -10.1 1.036e+04 3.566e-10
 39.11349     -9.0 1.044e+04 3.364e-10
 39.15444     -7.9 1.049e+04 3.214e-10
 39.17600     -6.9 1.051e+04 3.164e-10
 39.19218     -7.5 1.041e+04 2.658e-10
 39.21157     -6.6 1.043e+04 2.857e-10
 39.23634     -5.5 1.040e+04 2.663e-10
 39.27729     -4.2 1.034e+04 2.411e-10
 39.31824     -2.7 1.028e+04 2.005e-10
 39.34106     -1.2 1.028e+04 1.514e-10
 39.36153     -1.3 1.020e+04 1.212e-10
 39.39801     -0.1 1.027e+04 9.020e-11
 39.41848      0.7 1.017e+04 9.635e-11
 39.44109      2.1 1.021e+04 7.663e-11
 39.48204      3.4 1.014e+04 6.933e-11
 39.50612      4.8 1.011e+04 6.918e-11
 39.52659      5.0 1.008e+04 6.877e-11
 39.56394      6.6 1.020e+04 7.183e-11
 39.60489      8.2 1.026e+04 8.216e-11
 39.64585     10.7 1.029e+04 9.055e-11
 39.67117     12.4 1.040e+04 1.080e-10
 39.69165     12.7 1.040e+04 1.053e-10
 39.72775     14.3 1.050e+04 1.248e-10
 39.76870     16.0 1.056e+04 1.462e-10
 39.80965     17.8 1.063e+04 1.639e-10
 39.83231     19.6 1.067e+04 1.751e-10
 39.83842     20.6 1.066e+04 1.343e-10
 39.85670     20.7 1.067e+04 1.090e-10
 39.89155     22.5 1.072e+04 1.094e-10
 39.93250     24.0 1.070e+04 1.131e-10
 39.97345     25.4 1.056e+04 1.220e-10
 40.00129     27.1 1.046e+04 1.317e-10
 40.02176     27.2 1.043e+04 1.227e-10
 40.03923     29.2 1.040e+04 1.256e-10
 40.05970     29.7 1.037e+04 1.339e-10
 40.09630     31.9 1.028e+04 1.328e-10
 40.13725     34.5 1.033e+04 1.070e-10
 40.16634     36.4 1.050e+04 7.778e-11
 40.18682     36.6 1.047e+04 8.755e-11
 40.21915     37.7 1.051e+04 7.399e-11
 40.24614     39.3 1.033e+04 8.023e-11
 40.26662     40.0 1.037e+04 7.756e-11
 40.30105     42.0 1.023e+04 8.461e-11
 40.33140     44.3 1.025e+04 8.265e-11
 40.35187     44.4 1.024e+04 9.131e-11
 40.38295     46.4 1.032e+04 8.217e-11
 40.42390     48.2 1.034e+04 7.736e-11
 40.45305     49.8 1.035e+04 7.982e-11
 40.47353     50.5 1.031e+04 8.046e-11
 40.49646     52.2 1.033e+04 8.597e-11
 40.51693     52.2 1.033e+04 8.590e-11
 40.54675     53.8 1.032e+04 9.484e-11
 40.58770     55.6 1.030e+04 1.008e-10
 40.62865     57.5 1.027e+04 9.852e-11
 40.65997     59.4 1.025e+04 8.886e-11
 40.67236     60.2 1.026e+04 8.915e-11
 40.68199     60.0 1.020e+04 8.762e-11
 40.71055     61.8 1.025e+04 7.169e-11
 40.75150     63.3 1.026e+04 5.963e-11
 40.79245     64.8 1.018e+04 5.386e-11
 40.82657     66.5 1.009e+04 5.140e-11
 40.84704     66.3 1.009e+04 5.115e-11
 40.86688     68.3 1.004e+04 4.816e-11
 40.88736     69.1 1.009e+04 5.107e-11
 40.91530     71.1 1.006e+04 4.772e-11
 40.95625     73.1 1.008e+04 4.338e-11
 40.99163     75.0 1.011e+04 3.927e-11
 41.01210     74.8 1.011e+04 3.944e-11
 41.03815     76.7 1.012e+04 3.829e-11
 41.07380     78.5 1.013e+04 3.916e-11
 41.09427     79.4 1.024e+04 4.065e-11
 41.12005     81.2 1.027e+04 4.241e-11
 41.15668     83.0 1.026e+04 4.942e-11
 41.17716     82.8 1.026e+04 5.531e-11
 41.20195     84.9 1.023e+04 6.740e-11
 41.24290     87.1 1.022e+04 8.002e-11
 41.28071     89.2 1.028e+04 8.681e-11
 41.30119     90.0 1.035e+04 7.214e-11
 41.32174     92.1 1.041e+04 7.295e-11
 41.34221     91.9 1.040e+04 7.630e-11
 41.36576     94.0 1.042e+04 7.587e-11
 41.40671     96.1 1.045e+04 7.607e-11
 41.44766     98.1 1.051e+04 7.915e-11
 41.48680    100.0 1.054e+04 9.244e-11
 41.50629     99.7 1.060e+04 9.720e-11
 41.50810    100.7 1.056e+04 9.551e-11
 41.52956    102.6 1.061e+04 1.274e-10
 41.57051    104.6 1.069e+04 1.793e-10
 41.61146    106.6 1.078e+04 2.431e-10
 41.65185    108.4 1.092e+04 2.865e-10
 41.67233    107.9 1.094e+04 2.652e-10
 41.69336    109.4 1.095e+04 2.592e-10
 41.71502    111.0 1.096e+04 2.385e-10
 41.73549    112.0 1.106e+04 3.046e-10
 41.77526    113.5 1.104e+04 2.670e-10
 41.81621    115.0 1.102e+04 2.208e-10
 41.83738    116.5 1.104e+04 1.798e-10
 41.85786    116.0 1.103e+04 1.668e-10
 41.89811    117.5 1.105e+04 1.404e-10
 41.92193    119.0 1.104e+04 1.229e-10
 41.94241    120.0 1.104e+04 1.628e-10
 41.98001    121.6 1.102e+04 1.487e-10
 42.00244    123.1 1.099e+04 1.400e-10
 42.02292    122.9 1.077e+04 1.310e-10
 42.06191    124.5 1.065e+04 1.297e-10
 42.10286    126.2 1.061e+04 1.278e-10
 42.12885    127.8 1.063e+04 1.242e-10
 42.14932    128.7 1.068e+04 1.645e-10
 42.16750    130.2 1.071e+04 1.582e-10
 42.18797    130.3 1.046e+04 1.558e-10
 42.22571    131.8 1.043e+04 1.443e-10
 42.26666    133.2 1.048e+04 1.405e-10
 42.30761    134.8 1.050e+04 1.455e-10
 42.33255    136.3 1.051e+04 1.615e-10
 42.34023    136.5 1.023e+04 1.412e-10
 42.35624    137.3 1.031e+04 1.604e-10
 42.38951    139.0 1.032e+04 1.719e-10
 42.43046    140.8 1.033e+04 1.942e-10
 42.47141    142.6 1.033e+04 2.235e-10
 42.49761    144.5 1.032e+04 2.508e-10
 42.51809    144.7 1.028e+04 2.666e-10
 42.54268    146.6 1.033e+04 3.106e-10
 42.56315    147.3 1.032e+04 3.026e-10
 42.59426    149.4 1.037e+04 3.418e-10
 42.63521    151.4 1.041e+04 3.673e-10
 42.66267    153.4 1.043e+04 3.751e-10
 42.68314    153.3 1.075e+04 5.786e-10
 42.71711    155.1 1.079e+04 5.862e-10
 42.74959    156.6 1.077e+04 5.712e-10
 42.77006    157.3 1.081e+04 5.842e-10
 42.79901    158.7 1.076e+04 5.527e-10
 42.82772    160.2 1.061e+04 4.888e-10
 42.84820    159.3 1.087e+04 6.198e-10
 42.88092    160.7 1.060e+04 4.871e-10
 42.92187    162.2 1.034e+04 3.813e-10
 42.95650    163.8 1.014e+04 3.167e-10
 42.97698    164.1 1.015e+04 3.117e-10
 42.99278    165.7 1.002e+04 2.750e-10
 43.01326    164.6 9.954e+03 2.622e-10
 43.04472    166.2 9.845e+03 2.381e-10
 43.08567    167.7 9.757e+03 2.200e-10
 43.12662    169.2 9.665e+03 2.001e-10
 43.15784    170.7 9.521e+03 1.796e-10
 43.17416    170.1 9.460e+03 1.800e-10
 43.18389    170.5 9.294e+03 1.300e-10
 43.20852    172.1 9.245e+03 1.212e-10
 43.24947    173.9 9.184e+03 1.134e-10
 43.29042    175.8 9.104e+03 1.100e-10
 43.32289    177.8 9.073e+03 1.111e-10
 43.34337    177.6 9.070e+03 1.286e-10
 43.37033    179.7 9.071e+03 1.393e-10
 43.39081    180.4 8.976e+03 1.166e-10
 43.41327    182.6 9.020e+03 1.359e-10
 43.45422    184.8 9.106e+03 1.620e-10
 43.48795    187.1 9.228e+03 1.938e-10
 43.50843    186.9 9.369e+03 2.308e-10
 43.53612    189.0 9.532e+03 2.608e-10
 43.57707    191.0 9.669e+03 2.846e-10
 43.61802    193.9 9.867e+03 3.603e-10
 43.65301    195.7 9.997e+03 3.925e-10
 43.67348    194.9 1.003e+04 3.943e-10
 43.69992    196.4 1.012e+04 4.258e-10
 43.74087    197.7 1.019e+04 4.667e-10
 43.78182    198.9 1.028e+04 5.138e-10
 43.80464    199.9 1.037e+04 5.651e-10
 43.82041    200.9 1.047e+04 5.925e-10
 43.83854    199.9 1.050e+04 6.216e-10
 43.86372    200.7 1.057e+04 6.561e-10
 43.90467    201.2 1.060e+04 6.596e-10
 43.94562    201.6 1.059e+04 6.515e-10
 43.98312    202.1 1.052e+04 6.206e-10
 44.00360    201.0 1.036e+04 5.516e-10
 44.01155    201.6 1.018e+04 4.718e-10
 44.03203    202.3 1.051e+04 6.271e-10
 44.06847    203.0 1.038e+04 5.632e-10
 44.10942    203.8 1.027e+04 4.915e-10
 44.14818    204.5 1.015e+04 4.104e-10
 44.16865    203.6 9.580e+03 2.484e-10
 44.19132    204.3 9.343e+03 1.924e-10
 44.21847    205.0 9.172e+03 1.608e-10
 44.23894    205.6 9.529e+03 2.181e-10
 44.27322    206.1 9.333e+03 1.783e-10
 44.31323    206.5 9.184e+03 1.609e-10
 44.33371    206.2 9.159e+03 1.612e-10
 44.35512    206.7 9.067e+03 1.571e-10
 44.39607    207.2 9.032e+03 1.581e-10
 44.42538    207.8 9.012e+03 1.632e-10
 44.44586    208.4 8.992e+03 1.577e-10
 44.47797    209.2 8.987e+03 1.718e-10
 44.49877    209.9 9.031e+03 1.981e-10
 44.51924    209.7 8.970e+03 1.940e-10
 44.55988    210.4 9.056e+03 2.334e-10
 44.60083    211.1 9.141e+03 2.732e-10
 44.63230    211.7 9.204e+03 2.912e-10
 44.65277    212.6 9.302e+03 3.229e-10
 44.66382    213.0 9.318e+03 3.235e-10
 44.68430    212.4 9.318e+03 3.224e-10
 44.72368    212.5 9.296e+03 3.144e-10
 44.76463    212.6 9.175e+03 2.802e-10
 44.80558    212.8 8.946e+03 2.217e-10
 44.82888    213.2 8.653e+03 1.604e-10
 44.84204    212.1 8.532e+03 1.380e-10
 44.85969    212.6 8.622e+03 1.541e-10
 44.88748    213.1 8.297e+03 1.078e-10
 44.92843    213.7 8.036e+03 8.108e-11
 44.96938    214.6 7.862e+03 6.838e-11
 44.99394    215.7 7.757e+03 6.347e-11
 45.01441    214.9 7.720e+03 6.362e-11
 45.04612    216.3 7.695e+03 6.107e-11
 45.06660    216.6 7.714e+03 6.500e-11
 45.09223    218.0 7.705e+03 6.170e-11
 45.13318    219.3 7.692e+03 5.783e-11
 45.15899    220.7 7.671e+03 5.402e-11
 45.17947    219.9 7.621e+03 5.093e-11
 45.21508    221.2 7.580e+03 4.710e-11
 45.25304    222.7 7.538e+03 4.586e-11
 45.27351    222.9 7.533e+03 4.684e-11
 45.29698    224.5 7.523e+03 4.680e-11
 45.32405    226.1 7.524e+03 4.700e-11
 45.34452    225.6 7.457e+03 4.228e-11
 45.37888    227.2 7.470e+03 4.333e-11
 45.41983    228.8 7.504e+03 4.735e-11
 45.45995    230.4 7.566e+03 5.589e-11
 45.48043    230.6 7.565e+03 5.727e-11
 45.48911    232.2 7.658e+03 7.195e-11
 45.50958    231.9 7.612e+03 6.785e-11
 45.54268    233.5 7.745e+03 8.884e-11
 45.58363    235.1 7.933e+03 1.193e-10
 45.62458    236.6 8.195e+03 1.628e-10
 45.65416    237.9 8.528e+03 2.200e-10
 45.67464    237.8 8.472e+03 2.092e-10
 45.68734    238.8 8.875e+03 2.826e-10
 45.70782    238.7 8.863e+03 2.745e-10
 45.74743    239.1 9.215e+03 3.302e-10
 45.78838    238.9 9.315e+03 3.369e-10
 45.81922    238.8 9.313e+03 3.305e-10
 45.83969    238.6 9.320e+03 3.315e-10
 45.87028    238.5 9.263e+03 2.951e-10
 45.89426    238.7 9.105e+03 2.330e-10
 45.91473    238.7 9.012e+03 2.171e-10
 45.95218    239.0 8.859e+03 1.666e-10
 45.98428    239.3 8.752e+03 1.285e-10
 46.00475    239.2 8.753e+03 1.328e-10
 46.03408    239.5 8.734e+03 1.174e-10
 46.07503    240.0 8.734e+03 1.172e-10
 46.10117    240.6 8.738e+03 1.184e-10
 46.12165    240.5 8.816e+03 1.382e-10
 46.14933    241.1 8.881e+03 1.440e-10
 46.16981    240.9 8.921e+03 1.607e-10
 46.19789    241.5 9.060e+03 1.790e-10
 46.23884    242.0 9.227e+03 2.038e-10
 46.27979    242.5 9.425e+03 2.347e-10
 46.30809    242.9 9.656e+03 2.728e-10
 46.32221    242.4 9.831e+03 3.157e-10
 46.33486    241.5 1.004e+04 3.926e-10
 46.35135    241.5 1.008e+04 4.134e-10
 46.37173    241.7 1.012e+04 4.240e-10
 46.39220    242.1 1.025e+04 4.667e-10
 46.40696    242.4 1.046e+04 5.509e-10
 46.41587    242.6 1.075e+04 7.436e-10
 46.42159    242.5 1.091e+04 8.194e-10
 46.43315    242.8 1.125e+04 9.992e-10
 46.45363    243.0 1.153e+04 1.144e-09
 46.47410    243.0 1.172e+04 1.181e-09
 46.48949    242.9 1.173e+04 1.172e-09
 46.49973    242.5 1.196e+04 1.312e-09
 46.51481    242.5 1.189e+04 1.219e-09
 46.52504    242.2 1.163e+04 9.727e-10
 46.53553    242.4 1.149e+04 8.255e-10
 46.55601    242.5 1.133e+04 6.361e-10
 46.57202    242.6 1.120e+04 5.230e-10
 46.58225    242.4 1.126e+04 6.702e-10
 46.59696    242.7 1.116e+04 5.799e-10
 46.61743    243.0 1.109e+04 5.137e-10
 46.62850    243.3 1.103e+04 4.697e-10
 46.63874    243.1 1.100e+04 4.235e-10
 46.65454    243.6 1.099e+04 4.206e-10
 46.66478    243.8 1.115e+04 5.405e-10
 46.67886    244.4 1.116e+04 5.420e-10
 46.69933    244.9 1.119e+04 5.509e-10
 46.71981    245.4 1.132e+04 5.897e-10
 46.73196    245.8 1.153e+04 6.759e-10
 46.73899    245.4 1.152e+04 6.818e-10
 46.74731    245.6 1.188e+04 8.383e-10
 46.76076    246.0 1.213e+04 9.871e-10
 46.78123    246.3 1.241e+04 1.194e-09
 46.80171    246.7 1.274e+04 1.475e-09
 46.81960    246.7 1.310e+04 1.850e-09
 46.82984    246.8 1.342e+04 2.266e-09
 46.83542    246.7 1.384e+04 2.838e-09
 46.84565    246.4 1.352e+04 2.092e-09
 46.86313    246.0 1.400e+04 2.642e-09
 46.88361    245.2 1.459e+04 3.568e-09
 46.90213    244.3 1.530e+04 5.101e-09
 46.91237    244.1 1.558e+04 5.579e-09
 46.92456    243.1 1.643e+04 8.454e-09
 46.93887    242.1 1.739e+04 1.287e-08
 46.94911    241.6 1.661e+04 8.862e-09
 46.96551    240.6 1.733e+04 1.134e-08
 46.98466    239.4 1.778e+04 1.199e-08
 46.99490    239.0 1.881e+04 1.990e-08
 47.00646    237.1 1.916e+04 2.057e-08
 47.02693    235.2 1.911e+04 1.961e-08
 47.04233    233.5 1.873e+04 1.625e-08
 47.05257    232.3 1.793e+04 1.182e-08
 47.06719    230.7 1.742e+04 1.049e-08
 47.07742    230.1 1.851e+04 1.490e-08
 47.08836    228.8 1.750e+04 1.040e-08
 47.10883    227.6 1.638e+04 6.846e-09
 47.12931    226.3 1.543e+04 4.597e-09
 47.14579    224.7 1.481e+04 3.390e-09
 47.15596    224.3 1.453e+04 3.289e-09
 47.17019    221.3 1.394e+04 2.198e-09
 47.19073    220.4 1.364e+04 1.894e-09
 47.22154    219.1 1.309e+04 1.112e-09
 47.26259    218.0 1.239e+04 5.484e-10
 47.30354    217.4 1.153e+04 2.391e-10
 47.32520    216.7 1.083e+04 1.112e-10
 47.34385    215.5 1.058e+04 1.087e-10
 47.36313    215.1 1.051e+04 1.120e-10
 47.38544    215.8 1.050e+04 9.361e-11
 47.42639    217.0 1.048e+04 8.938e-11
 47.46734    218.5 1.049e+04 8.720e-11
 47.49026    220.0 1.049e+04 8.498e-11
 47.51074    219.9 1.052e+04 8.958e-11
 47.54924    221.5 1.050e+04 8.770e-11
 47.57005    223.0 1.048e+04 8.750e-11
 47.59052    223.2 1.046e+04 8.854e-11
 47.63114    224.8 1.044e+04 8.913e-11
 47.65532    226.4 1.041e+04 9.186e-11
 47.67579    226.5 1.052e+04 1.076e-10
 47.71305    228.1 1.050e+04 1.132e-10
 47.75400    229.6 1.049e+04 1.215e-10
 47.77696    231.1 1.049e+04 1.324e-10
 47.79744    231.3 1.051e+04 1.287e-10
 47.82037    232.7 1.051e+04 1.379e-10
 47.84085    232.7 1.067e+04 1.725e-10
 47.87685    234.0 1.068e+04 1.932e-10
 47.91780    235.3 1.070e+04 2.135e-10
 47.95875    236.5 1.073e+04 2.303e-10
 47.98388    237.6 1.077e+04 2.423e-10
 47.99009    237.7 1.076e+04 1.945e-10
 48.00591    237.6 1.097e+04 2.494e-10
 48.04065    238.5 1.105e+04 2.579e-10
 48.08160    239.1 1.115e+04 2.742e-10
 48.12255    239.6 1.126e+04 3.022e-10
 48.15049    239.8 1.135e+04 3.368e-10
 48.17096    239.1 1.149e+04 3.925e-10
 48.19079    238.9 1.145e+04 3.825e-10
 48.21127    238.6 1.137e+04 3.346e-10
 48.24540    238.2 1.122e+04 3.063e-10
 48.28635    237.7 1.108e+04 2.576e-10
 48.31554    237.0 1.095e+04 2.048e-10
 48.33602    236.0 1.076e+04 1.776e-10
 48.36825    235.1 1.060e+04 1.372e-10
 48.39771    234.3 1.039e+04 1.110e-10
 48.41818    234.1 1.048e+04 1.106e-10
 48.45015    233.4 1.025e+04 9.030e-11
 48.48060    232.8 1.009e+04 8.302e-11
 48.50108    232.7 1.004e+04 8.774e-11
 48.53205    232.6 1.003e+04 8.752e-11
 48.57300    232.5 1.002e+04 8.972e-11
 48.60462    232.2 1.003e+04 9.749e-11
 48.62510    231.9 1.005e+04 9.876e-11
 48.64566    231.6 1.010e+04 1.127e-10
 48.66613    232.1 1.007e+04 1.260e-10
 48.69585    231.8 1.013e+04 1.400e-10
 48.73680    231.4 1.020e+04 1.583e-10
 48.77775    230.8 1.033e+04 1.823e-10
 48.81071    230.1 1.052e+04 2.139e-10
 48.82402    230.6 1.048e+04 2.033e-10
 48.83201    229.9 1.053e+04 2.055e-10
 48.85965    229.1 1.067e+04 2.342e-10
 48.90060    228.2 1.076e+04 2.643e-10
 48.94155    227.6 1.083e+04 2.973e-10
 48.97577    227.0 1.092e+04 3.367e-10
 48.99625    227.5 1.089e+04 3.172e-10
 49.01845    226.9 1.103e+04 3.744e-10
 49.03893    226.3 1.107e+04 3.617e-10
 49.06440    225.8 1.121e+04 4.200e-10
 49.09502    225.6 1.129e+04 4.916e-10
 49.11540    225.7 1.140e+04 5.955e-10
 49.13195    225.7 1.153e+04 7.097e-10
 49.14219    225.3 1.145e+04 6.507e-10
 49.15087    225.1 1.153e+04 7.095e-10
 49.16111    225.2 1.171e+04 8.387e-10
 49.17682    225.0 1.181e+04 8.996e-10
 49.19730    224.7 1.189e+04 9.425e-10
 49.21777    224.2 1.197e+04 9.872e-10
 49.23340    223.7 1.209e+04 1.056e-09
 49.24080    223.5 1.257e+04 1.450e-09
 49.24564    223.3 1.228e+04 1.208e-09
 49.25872    222.8 1.250e+04 1.369e-09
 49.27920    222.1 1.277e+04 1.605e-09
 49.29967    221.5 1.309e+04 1.915e-09
 49.31593    220.8 1.343e+04 2.281e-09
 49.32616    220.5 1.414e+04 3.092e-09
 49.33886    219.6 1.436e+04 3.419e-09
 49.34910    219.6 1.424e+04 3.235e-09
 49.36110    218.8 1.459e+04 3.675e-09
 49.38157    217.6 1.504e+04 4.193e-09
 49.39845    215.9 1.555e+04 4.801e-09
 49.40869    215.3 1.551e+04 4.725e-09
 49.42252    213.4 1.583e+04 5.154e-09
 49.43783    212.4 1.602e+04 5.472e-09
 49.44474    211.4 1.631e+04 5.895e-09
 49.44918    210.9 1.631e+04 5.941e-09
 49.45251    210.9 1.643e+04 5.674e-09
 49.45831    208.9 1.684e+04 6.352e-09
 49.46849    207.3 1.726e+04 7.155e-09
 49.47873    205.4 1.793e+04 8.462e-09
 49.48600    203.1 1.902e+04 1.086e-08
 49.49112    203.3 1.885e+04 1.135e-08
 49.49907    200.8 2.020e+04 1.591e-08
 49.50419    200.0 2.007e+04 1.340e-08
 49.50944    196.9 2.142e+04 1.822e-08
 49.51968    193.8 2.255e+04 2.507e-08
 49.52727    190.7 2.332e+04 3.072e-08
 49.53239    191.5 2.320e+04 2.843e-08
 49.54016    188.1 2.343e+04 2.882e-08
 49.55039    184.8 2.335e+04 2.748e-08
 49.55592    182.0 2.285e+04 2.267e-08
 49.56387    178.6 2.066e+04 1.042e-08
 49.57375    179.4 2.076e+04 9.555e-09
 49.58632    174.9 1.832e+04 5.534e-09
 49.60680    171.5 1.507e+04 2.681e-09
 49.62727    168.6 1.180e+04 1.193e-09
 49.64604    165.9 1.053e+04 6.377e-10
 49.65628    167.6 1.113e+04 9.444e-10
 49.65947    166.2 1.072e+04 6.559e-10
 49.66971    167.2 1.119e+04 8.146e-10
 49.68870    166.3 1.095e+04 7.519e-10
 49.70917    165.9 1.093e+04 7.504e-10
 49.72857    165.8 1.095e+04 7.638e-10
 49.73881    166.4 1.131e+04 9.293e-10
 49.75012    166.0 1.136e+04 9.635e-10
 49.76293    165.8 1.152e+04 1.050e-09
 49.77317    165.6 1.201e+04 1.295e-09
 49.79108    165.1 1.229e+04 1.442e-09
 49.81110    164.5 1.248e+04 1.522e-09
 49.82133    164.7 1.287e+04 1.799e-09
 49.83203    163.7 1.286e+04 1.777e-09
 49.85250    162.9 1.269e+04 1.641e-09
 49.86639    162.2 1.227e+04 1.363e-09
 49.87663    160.7 1.282e+04 1.612e-09
 49.89345    159.6 1.224e+04 1.265e-09
 49.90386    158.2 1.171e+04 1.020e-09
 49.91410    158.6 1.190e+04 1.124e-09
 49.93440    157.2 1.142e+04 9.958e-10
 49.95488    156.1 1.131e+04 9.898e-10
 49.96985    155.0 1.134e+04 1.008e-09
 49.98008    153.9 1.153e+04 1.169e-09
 49.98639    152.1 1.174e+04 1.243e-09
 49.99663    152.7 1.181e+04 1.303e-09
 50.01630    149.9 1.241e+04 1.589e-09
 50.03678    146.9 1.347e+04 2.477e-09
 50.05725    144.5 1.435e+04 3.907e-09
 50.06892    142.6 1.473e+04 4.627e-09
 50.07473    143.4 1.467e+04 4.485e-09
 50.08354    142.3 1.361e+04 2.476e-09
 50.09820    139.7 1.355e+04 2.326e-09
 50.12901    136.0 1.264e+04 1.282e-09
 50.15164    131.9 1.097e+04 4.850e-10
 50.17212    132.8 1.103e+04 5.963e-10
 50.21101    129.0 9.065e+03 2.481e-10
 50.25196    125.9 8.461e+03 1.824e-10
 50.28041    123.8 8.470e+03 1.856e-10
 50.30089    124.0 8.331e+03 1.490e-10
 50.31670    122.4 8.417e+03 1.526e-10
 50.33717    124.1 8.515e+03 1.792e-10
 50.37481    122.3 8.558e+03 1.734e-10
 50.41576    120.3 8.603e+03 1.733e-10
 50.45671    118.3 8.733e+03 1.810e-10
 50.48166    117.3 8.904e+03 1.993e-10
 50.49170    117.7 8.946e+03 2.176e-10
 50.50770    118.1 8.733e+03 1.953e-10
 50.52828    117.1 8.782e+03 2.112e-10
 50.54865    116.4 8.956e+03 2.333e-10
 50.56409    114.3 1.065e+04 3.411e-10
 50.57433    114.8 1.036e+04 3.588e-10
 50.58961    110.2 1.447e+04 1.013e-09
 50.60083    106.0 1.742e+04 3.983e-09
 50.61106    110.7 1.441e+04 1.014e-09
 50.63056    106.9 1.722e+04 3.470e-09
 50.64662    104.4 1.808e+04 8.707e-09
 50.65685    105.1 1.793e+04 7.116e-09
 50.67151    103.2 1.891e+04 1.283e-08
 50.69198    102.0 1.961e+04 1.641e-08
 50.70428    100.8 2.028e+04 1.620e-08
 50.71452    103.2 1.949e+04 1.444e-08
 50.72915    101.9 2.037e+04 1.595e-08
 50.73938    101.9 2.039e+04 1.493e-08
 50.74824    101.0 2.043e+04 1.419e-08
 50.75591    100.6 1.998e+04 1.263e-08
 50.76103    101.4 2.019e+04 1.448e-08
 50.76866    101.1 1.973e+04 1.347e-08
 50.77543    100.9 1.916e+04 1.143e-08
 50.78055    100.8 1.932e+04 1.214e-08
 50.78914    100.2 1.865e+04 9.658e-09
 50.79938     99.6 1.791e+04 7.380e-09
 50.80769     98.0 1.653e+04 3.810e-09
 50.81281    100.3 1.831e+04 8.507e-09
 50.81669     99.6 1.772e+04 6.478e-09
 50.82181     99.5 1.789e+04 7.750e-09
 50.83009     98.6 1.789e+04 5.636e-09
 50.84033     98.1 1.766e+04 4.444e-09
 50.85057     96.9 1.754e+04 3.463e-09
 50.85796     96.1 1.675e+04 2.816e-09
 50.86165     96.1 1.739e+04 3.125e-09
 50.86449     97.6 1.955e+04 5.461e-09
 50.87621     95.5 1.779e+04 3.328e-09
 50.89420     92.4 1.564e+04 2.146e-09
 50.90444     92.6 1.727e+04 2.578e-09
 50.91120     88.8 1.412e+04 1.637e-09
 50.92144     93.7 1.952e+04 3.668e-09
 50.93768     89.2 1.528e+04 1.854e-09
 50.95816     86.4 1.282e+04 1.392e-09
 50.97673     85.4 1.218e+04 1.201e-09
 50.98697     84.4 1.226e+04 1.229e-09
 50.99911     84.3 1.223e+04 1.195e-09
 51.02992     83.7 1.207e+04 1.037e-09
 51.07097     83.0 1.166e+04 8.034e-10
 51.10807     82.6 1.154e+04 7.397e-10
 51.12855     82.2 1.172e+04 8.065e-10
 51.14198     82.3 1.180e+04 8.580e-10
 51.16246     82.3 1.184e+04 8.943e-10
 51.19382     82.6 1.190e+04 9.665e-10
 51.23477     83.2 1.181e+04 9.515e-10
 51.27572     84.3 1.147e+04 7.997e-10
 51.30704     85.8 1.096e+04 5.510e-10
 51.32583     86.1 1.064e+04 4.403e-10
 51.33546     86.7 1.066e+04 4.328e-10
 51.35762     88.0 1.032e+04 3.208e-10
 51.39857     89.5 1.009e+04 2.641e-10
 51.43952     91.3 9.922e+03 2.328e-10
 51.47210     93.1 9.842e+03 2.209e-10
 51.49257     93.8 9.900e+03 2.502e-10
 51.52142     95.7 9.852e+03 2.496e-10
 51.54237     97.4 9.811e+03 2.532e-10
 51.56285     98.4 9.797e+03 2.368e-10
 51.60332    100.0 9.690e+03 2.212e-10
 51.63715    101.5 9.564e+03 1.968e-10
 51.65763    102.0 9.644e+03 2.362e-10
 51.68522    103.4 9.493e+03 2.029e-10
 51.72617    104.6 9.403e+03 1.824e-10
 51.74929    105.6 9.414e+03 1.853e-10
 51.76976    106.9 9.126e+03 1.272e-10
 51.80221    107.9 9.179e+03 1.397e-10
 51.82268    108.4 9.114e+03 1.501e-10
 51.84902    109.4 9.174e+03 1.738e-10
 51.88997    110.5 9.363e+03 2.206e-10
 51.93092    111.6 9.596e+03 2.771e-10
 51.95611    112.5 9.646e+03 2.982e-10
 51.96625    113.7 9.540e+03 2.776e-10
 51.97731    113.6 9.762e+03 3.125e-10
 51.98755    113.9 9.658e+03 3.030e-10
 52.00239    113.3 1.031e+04 3.884e-10
 52.02286    110.0 1.226e+04 7.878e-10
 52.04334    106.2 1.392e+04 2.063e-09
 52.05947    105.4 1.454e+04 4.058e-09
 52.06573    106.1 1.468e+04 3.587e-09
 52.07007    106.3 1.470e+04 3.313e-09
 52.08429    106.3 1.514e+04 5.297e-09
 52.10476    106.3 1.504e+04 5.383e-09
 52.12524    106.5 1.466e+04 4.412e-09
 52.14236    106.2 1.391e+04 2.547e-09
 52.15260    106.7 1.384e+04 2.715e-09
 52.16292    105.2 1.255e+04 1.213e-09
 52.17316    106.6 1.320e+04 1.762e-09
 52.18666    103.5 1.135e+04 7.303e-10
 52.20714    100.3 8.958e+03 3.213e-10
 52.22489     99.2 8.649e+03 2.501e-10
 52.23513     99.5 8.599e+03 2.308e-10
 52.25843    100.8 8.568e+03 2.289e-10
 52.29738    101.7 8.144e+03 1.737e-10
 52.31785    102.3 8.080e+03 1.644e-10
 52.34042    103.6 7.839e+03 1.430e-10
 52.37003    105.3 7.725e+03 1.333e-10
 52.39051    106.3 7.859e+03 1.497e-10
 52.42232    108.0 7.791e+03 1.442e-10
 52.46244    109.9 7.754e+03 1.401e-10
 52.48291    110.8 7.711e+03 1.328e-10
 52.50422    112.6 7.671e+03 1.289e-10
 52.54517    114.6 7.667e+03 1.287e-10
 52.57695    116.5 7.677e+03 1.304e-10
 52.59742    117.5 7.832e+03 1.536e-10
 52.62708    119.5 7.861e+03 1.579e-10
 52.64797    121.5 7.921e+03 1.658e-10
 52.66844    122.5 7.850e+03 1.567e-10
 52.70898    124.6 7.893e+03 1.606e-10
 52.74993    126.8 7.928e+03 1.620e-10
 52.78386    128.9 7.973e+03 1.638e-10
 52.80434    129.9 8.147e+03 1.925e-10
 52.81302    132.1 8.188e+03 1.931e-10
 52.83350    132.8 7.983e+03 1.648e-10
 52.87278    134.9 7.990e+03 1.624e-10
 52.91373    136.8 8.070e+03 1.705e-10
 52.95468    138.8 8.210e+03 1.877e-10
 52.97808    140.9 8.491e+03 2.224e-10
 52.99370    140.9 8.400e+03 2.121e-10
 53.01125    142.1 8.227e+03 1.903e-10
 53.03658    144.0 8.587e+03 2.346e-10
 53.07753    145.3 9.066e+03 3.026e-10
 53.10437    144.9 9.467e+03 3.825e-10
 53.11451    145.7 9.291e+03 3.455e-10
 53.12852    145.7 9.684e+03 4.331e-10
 53.14294    145.6 1.018e+04 5.824e-10
 53.15318    145.2 1.021e+04 5.891e-10
 53.16947    145.1 1.071e+04 7.836e-10
 53.18995    145.2 1.116e+04 9.892e-10
 53.20773    145.3 1.150e+04 1.112e-09
 53.21797    145.7 1.143e+04 1.082e-09
 53.22547    145.7 1.151e+04 1.087e-09
 53.23571    145.1 1.132e+04 9.955e-10
 53.25137    145.1 1.125e+04 9.316e-10
 53.27185    145.1 1.101e+04 7.786e-10
 53.29232    145.1 1.065e+04 5.997e-10
 53.30800    144.8 1.031e+04 4.508e-10
 53.31663    144.0 1.006e+04 4.026e-10
 53.32143    144.3 1.015e+04 4.437e-10
 53.33327    144.3 9.983e+03 3.865e-10
 53.35375    144.6 9.961e+03 3.678e-10
 53.37422    145.5 9.917e+03 3.598e-10
 53.39053    146.8 9.907e+03 3.531e-10
 53.40076    146.2 9.950e+03 3.625e-10
 53.41465    147.5 1.006e+04 3.655e-10
 53.42489    148.7 1.074e+04 5.091e-10
 53.43565    151.0 1.145e+04 5.715e-10
 53.45612    153.9 1.221e+04 6.256e-10
 53.47143    153.4 1.224e+04 6.134e-10
 53.47808    154.5 1.331e+04 6.631e-10
 53.48324    151.3 1.271e+04 6.604e-10
 53.49191    149.1 1.528e+04 7.409e-10
 53.50209    143.6 3.077e+04 6.466e-10
 53.51233    136.5 4.346e+04 9.720e-10
 53.51934    126.0 4.195e+04 2.633e-09
 53.52446    133.4 2.313e+04 1.372e-09
 53.52824    117.6 3.464e+04 3.083e-09
 53.53336    100.5 4.170e+04 1.255e-08
 53.54304     89.1 3.107e+04 6.973e-08
 53.55328     80.7 2.717e+04 1.974e-07
 53.56060     76.3 2.827e+04 2.133e-07
 53.56572     76.4 2.774e+04 1.908e-07
 53.57376     73.1 2.968e+04 1.509e-07
 53.57997     70.1 3.238e+04 8.294e-08
 53.58509     61.4 3.201e+04 8.049e-08
 53.59423     59.6 2.931e+04 4.738e-08
 53.60187     58.9 2.644e+04 3.205e-08
 53.60699     60.1 2.624e+04 4.850e-08
 53.61471     61.0 2.422e+04 3.614e-08
 53.62494     62.3 2.363e+04 2.917e-08
 53.63170     64.5 2.288e+04 2.311e-08
 53.63682     63.4 2.363e+04 3.187e-08
 53.64313     65.1 2.347e+04 2.763e-08
 53.64825     65.6 2.305e+04 3.510e-08
 53.65566     67.8 2.262e+04 2.972e-08
 53.66590     69.1 2.279e+04 2.753e-08
 53.67613     71.3 2.242e+04 2.407e-08
 53.68343     72.3 2.258e+04 2.323e-08
 53.68658     71.7 2.316e+04 2.860e-08
 53.68952     71.9 2.300e+04 2.924e-08
 53.69661     73.3 2.265e+04 2.604e-08
 53.70685     74.1 2.257e+04 2.445e-08
 53.72059     76.0 2.191e+04 2.016e-08
 53.73088     76.3 2.169e+04 2.046e-08
 53.73526     78.4 2.130e+04 1.870e-08
 53.74549     77.4 2.110e+04 1.771e-08
 53.76325     79.6 2.124e+04 1.855e-08
 53.77856     81.2 2.144e+04 1.944e-08
 53.78689     81.7 2.155e+04 2.034e-08
 53.79201     80.9 2.121e+04 1.895e-08
 53.79898     81.5 2.113e+04 1.940e-08
 53.80819     82.3 2.112e+04 2.019e-08
 53.81336     82.6 2.019e+04 1.355e-08
 53.82468     83.9 2.037e+04 1.451e-08
 53.83867     84.2 2.068e+04 1.646e-08
 53.84890     83.7 1.911e+04 9.154e-09
 53.86563     84.5 1.930e+04 8.790e-09
 53.88570     85.1 1.924e+04 7.562e-09
 53.89593     84.6 1.531e+04 2.444e-09
 53.90658     85.0 1.493e+04 2.430e-09
 53.92705     85.5 1.467e+04 2.560e-09
 53.94217     86.6 1.443e+04 2.837e-09
 53.95241     86.5 1.327e+04 2.125e-09
 53.96800     87.9 1.386e+04 2.566e-09
 53.97846     89.8 1.456e+04 3.155e-09
 53.98870     89.5 1.234e+04 1.498e-09
 54.00895     91.6 1.307e+04 1.850e-09
 54.02943     93.4 1.385e+04 2.368e-09
 54.04563     95.1 1.459e+04 2.923e-09
 54.05587     95.1 1.445e+04 2.566e-09
 54.06099     96.8 1.540e+04 3.345e-09
 54.07123     96.2 1.256e+04 1.555e-09
 54.09085     97.7 1.348e+04 1.916e-09
 54.11133     99.0 1.441e+04 2.416e-09
 54.13180    100.2 1.526e+04 3.073e-09
 54.14352    101.3 1.604e+04 3.783e-09
 54.15057    100.0 1.344e+04 2.002e-09
 54.15932    100.1 1.298e+04 1.622e-09
 54.17275    101.1 1.374e+04 2.031e-09
 54.19323    102.1 1.438e+04 2.403e-09
 54.21370    103.2 1.486e+04 2.699e-09
 54.22605    104.3 1.516e+04 2.838e-09
 54.23629    102.1 1.232e+04 1.607e-09
 54.25254    102.7 1.244e+04 1.563e-09
 54.26278    102.7 1.217e+04 1.342e-09
 54.27513    103.4 1.191e+04 1.229e-09
 54.29560    104.1 1.149e+04 1.080e-09
 54.30858    104.8 1.090e+04 8.310e-10
 54.31891    102.0 1.069e+04 6.009e-10
 54.34699    102.1 1.024e+04 3.397e-10
 54.38794    101.6 1.006e+04 2.774e-10
 54.42889    100.9 1.018e+04 3.105e-10
 54.45965     99.7 1.073e+04 4.870e-10
 54.47388    101.4 1.024e+04 3.490e-10
 54.48407     99.8 9.725e+03 2.853e-10
 54.51079     98.6 1.004e+04 4.145e-10
 54.55174     97.3 1.102e+04 6.430e-10
 54.59269     95.3 1.189e+04 8.625e-10
 54.62330     95.0 1.178e+04 8.920e-10
 54.63869     93.4 1.223e+04 1.040e-09
 54.64902     95.9 1.180e+04 8.533e-10
 54.66425     93.9 1.244e+04 1.092e-09
 54.67661     92.0 1.369e+04 1.638e-09
 54.68685     92.5 1.329e+04 1.417e-09
 54.70511     90.7 1.433e+04 2.220e-09
 54.72122     89.7 1.501e+04 3.377e-09
 54.73146     92.1 1.396e+04 2.246e-09
 54.74606     91.6 1.443e+04 3.049e-09
 54.76653     91.4 1.457e+04 3.373e-09
 54.78007     91.1 1.449e+04 3.293e-09
 54.79030     91.2 1.419e+04 3.162e-09
 54.80375     91.2 1.376e+04 2.723e-09
 54.81398     93.1 1.345e+04 2.402e-09
 54.82796     92.9 1.301e+04 2.022e-09
 54.84843     92.5 1.249e+04 1.608e-09
 54.86891     92.1 1.197e+04 1.255e-09
 54.88352     91.9 1.152e+04 1.007e-09
 54.89065     91.9 1.133e+04 9.114e-10
 54.89651     94.1 1.149e+04 1.017e-09
 54.90986     93.6 1.106e+04 8.112e-10
 54.93033     93.2 1.073e+04 6.962e-10
 54.95081     93.1 1.054e+04 6.395e-10
 54.96880     93.2 1.045e+04 6.241e-10
 54.97904     94.9 1.042e+04 6.103e-10
 54.98698     95.0 1.036e+04 5.982e-10
 54.99722     94.8 1.025e+04 5.760e-10
 55.01223     95.1 1.021e+04 5.844e-10
 55.03271     95.5 1.018e+04 5.829e-10
 55.05133     96.1 1.007e+04 5.654e-10
 55.06157     97.2 1.007e+04 5.495e-10
 55.07366     97.8 9.957e+03 5.174e-10
 55.09044     98.3 9.865e+03 4.672e-10
 55.10068     98.1 9.880e+03 4.537e-10
 55.12372     98.7 9.594e+03 3.538e-10
 55.14429    101.0 9.796e+03 4.033e-10
 55.16599    102.3 9.409e+03 2.934e-10
 55.20694    103.5 8.966e+03 2.013e-10
 55.24789    104.6 8.643e+03 1.417e-10
 55.28731    106.0 8.568e+03 1.222e-10
 55.30779    105.9 8.571e+03 1.237e-10
 55.32979    109.3 8.645e+03 1.359e-10
 55.37074    110.9 8.700e+03 1.423e-10
 55.41169    112.5 8.831e+03 1.580e-10
 55.45264    114.0 8.963e+03 1.744e-10
 55.47441    115.3 9.169e+03 1.961e-10
 55.49488    116.7 9.088e+03 1.862e-10
 55.51470    117.8 9.318e+03 2.082e-10
 55.53518    117.9 9.326e+03 2.108e-10
 55.57549    118.7 9.641e+03 2.498e-10
 55.61644    119.2 1.000e+04 3.217e-10
 55.63946    119.7 1.057e+04 4.868e-10
 55.65994    121.1 1.042e+04 4.356e-10
 55.69834    121.8 1.102e+04 6.456e-10
 55.72162    122.7 1.154e+04 8.695e-10
 55.74209    122.7 1.098e+04 5.977e-10
 55.78025    123.9 1.127e+04 6.898e-10
 55.80452    125.2 1.135e+04 7.095e-10
 55.82499    126.2 1.135e+04 7.117e-10
 55.86215    127.4 1.135e+04 7.027e-10
 55.90310    128.8 1.131e+04 6.814e-10
 55.92853    130.2 1.133e+04 6.849e-10
 55.94901    129.9 1.070e+04 4.272e-10
 55.96958    131.0 1.094e+04 5.234e-10
 55.99005    131.9 1.070e+04 4.404e-10
 56.02595    133.0 1.090e+04 5.233e-10
 56.06690    134.1 1.105e+04 5.987e-10
 56.10785    135.1 1.113e+04 5.958e-10
 56.13463    135.9 1.108e+04 5.550e-10
 56.14175    136.6 1.063e+04 3.955e-10
 56.15592    136.3 1.086e+04 5.303e-10
 56.18975    136.9 1.114e+04 5.897e-10
 56.23070    137.3 1.156e+04 6.841e-10
 56.26131    137.0 1.215e+04 8.697e-10
 56.28169    136.8 1.263e+04 1.061e-09
 56.29949    136.7 1.302e+04 1.206e-09
 56.32007    137.3 1.213e+04 7.595e-10
 56.34226    136.1 1.372e+04 1.440e-09
 56.35240    136.2 1.470e+04 2.598e-09
 56.36359    135.6 1.569e+04 4.011e-09
 56.38202    135.0 1.656e+04 5.885e-09
 56.39226    135.6 1.505e+04 2.730e-09
 56.40454    135.0 1.572e+04 3.784e-09
 56.42502    134.3 1.606e+04 4.804e-09
 56.44549    133.8 1.612e+04 5.710e-09
 56.45586    133.8 1.609e+04 6.478e-09
 56.46468    134.3 1.641e+04 7.810e-09
 56.47479    134.2 1.583e+04 5.590e-09
 56.48644    134.4 1.620e+04 7.307e-09
 56.50692    135.0 1.666e+04 8.888e-09
 56.52739    135.7 1.721e+04 1.048e-08
 56.54708    136.1 1.731e+04 9.907e-09
 56.55732    135.3 1.785e+04 1.204e-08
 56.55932    135.3 1.824e+04 1.223e-08
 56.56955    136.6 1.772e+04 1.081e-08
 56.58882    136.8 1.778e+04 9.308e-09
 56.60929    136.8 1.780e+04 7.769e-09
 56.62961    136.8 1.747e+04 6.432e-09
 56.63984    135.6 1.774e+04 8.390e-09
 56.65024    135.4 1.610e+04 5.613e-09
 56.66277    133.9 1.773e+04 3.833e-09
 56.67301    134.1 1.684e+04 1.532e-09
 56.69119    117.1 3.725e+04 1.702e-09
 56.70650    108.7 4.129e+04 3.244e-09
 56.71440     96.3 4.041e+04 1.453e-08
 56.71952     90.2 3.300e+04 4.427e-08
 56.72228     88.2 2.248e+04 4.934e-07
 56.72739     86.5 2.482e+04 1.726e-07
 56.73716     86.1 2.120e+04 5.176e-07
 56.74280     88.7 2.155e+04 3.805e-07
 56.74340     87.3 2.105e+04 5.823e-07
 56.74542     86.0 2.107e+04 5.729e-07
 56.74991     86.8 2.113e+04 6.298e-07
 56.75503     87.3 2.168e+04 5.737e-07
 56.76015     86.8 2.254e+04 5.456e-07
 56.76349     85.1 2.361e+04 4.886e-07
 56.76605     86.2 2.258e+04 7.305e-07
 56.76864     83.8 2.240e+04 1.023e-06
 56.77120     86.1 1.904e+04 4.592e-06
 56.77551     85.7 1.844e+04 7.894e-06
 56.78063     82.9 1.852e+04 8.661e-06
 56.78412     82.7 1.924e+04 4.274e-06
 56.78668     82.8 1.717e+04 1.945e-05
 56.79086     83.3 2.022e+04 3.077e-06
 56.79857     82.4 3.120e+04 1.443e-07
 56.80480     74.4 4.836e+04 3.764e-09
 56.80992     76.2 4.438e+04 5.703e-09
 56.81786     71.2 4.119e+04 2.638e-09
 56.82298     71.3 4.261e+04 2.437e-09
 56.83447     56.8 1.884e+04 6.613e-10
 56.85499     55.5 1.122e+04 5.842e-10
 56.86969     58.2 1.107e+04 5.406e-10
 56.87993     57.8 1.124e+04 5.677e-10
 56.88743     59.7 1.108e+04 5.576e-10
 56.89767     61.0 1.109e+04 5.050e-10
 56.91642     62.6 1.088e+04 5.061e-10
 56.93689     64.2 1.065e+04 5.112e-10
 56.95737     65.8 1.050e+04 4.991e-10
 56.96996     67.1 1.038e+04 4.833e-10
 56.97550     68.0 1.041e+04 4.758e-10
 56.98338     68.1 1.052e+04 5.249e-10
 57.00865     70.6 1.031e+04 4.775e-10
 57.04970     73.1 1.011e+04 4.139e-10
 57.09065     75.5 9.854e+03 3.410e-10
 57.12497     77.4 9.560e+03 2.832e-10
 57.14545     79.3 9.699e+03 2.992e-10
 57.17002     80.6 9.472e+03 2.446e-10
 57.19049     80.6 9.252e+03 1.921e-10
 57.21350     81.9 9.195e+03 1.950e-10
 57.25445     83.2 9.183e+03 2.205e-10
 57.29003     84.5 9.262e+03 2.484e-10
 57.31050     86.0 9.282e+03 2.452e-10
 57.33635     86.9 9.434e+03 2.760e-10
 57.37693     87.7 9.437e+03 3.034e-10
 57.39741     87.7 9.363e+03 2.808e-10
 57.41826     88.3 9.432e+03 2.946e-10
 57.45509     88.9 9.469e+03 2.807e-10
 57.47556     90.5 9.462e+03 2.821e-10
 57.50016     90.7 9.480e+03 2.536e-10
 57.54111     90.9 9.422e+03 2.324e-10
 57.58206     91.0 9.336e+03 2.261e-10
 57.60432     91.7 9.195e+03 2.116e-10
 57.62193     91.5 9.158e+03 2.087e-10
 57.64062     93.0 9.295e+03 2.307e-10
 57.66396     94.0 9.129e+03 1.891e-10
 57.70491     94.1 9.196e+03 1.577e-10
 57.74586     93.0 9.680e+03 1.842e-10
 57.78520     90.5 1.056e+04 4.288e-10
 57.80567     91.8 1.038e+04 3.449e-10
 57.81124     90.7 1.103e+04 7.358e-10
 57.83171     90.5 1.079e+04 6.165e-10
 57.85837     89.8 1.130e+04 7.512e-10
 57.87777     89.6 1.115e+04 6.714e-10
 57.88801     90.0 1.100e+04 6.359e-10
 57.89923     89.3 1.084e+04 5.177e-10
 57.91450     87.7 1.078e+04 4.017e-10
 57.92474     86.9 1.057e+04 3.829e-10
 57.95016     85.3 1.059e+04 3.266e-10
 57.97073     86.7 1.061e+04 3.265e-10
 57.99156     85.7 1.036e+04 3.089e-10
 58.01815     85.7 1.032e+04 3.225e-10
 58.03863     84.6 1.038e+04 3.713e-10
 58.07346     84.8 1.052e+04 3.433e-10
 58.11441     84.4 1.068e+04 3.170e-10
 58.13579     83.9 1.074e+04 3.380e-10
 58.14593     83.9 1.073e+04 3.497e-10
 58.16540     83.8 1.077e+04 3.545e-10
 58.18588     83.5 1.093e+04 3.862e-10
 58.20635     83.3 1.100e+04 4.031e-10
 58.21812     82.8 1.114e+04 4.202e-10
 58.22640     82.5 1.123e+04 4.467e-10
 58.23511     81.7 1.134e+04 4.866e-10
 58.24730     81.1 1.133e+04 4.733e-10
 58.27811     80.4 1.131e+04 4.499e-10
 58.30084     79.1 1.130e+04 4.628e-10
 58.32132     78.3 1.136e+04 5.569e-10
 58.36011     77.2 1.145e+04 5.674e-10
 58.40106     76.0 1.162e+04 6.783e-10
 58.43198     75.3 1.164e+04 7.354e-10
 58.45245     74.5 1.144e+04 5.819e-10
 58.46590     74.0 1.112e+04 3.590e-10
 58.48638     73.1 1.058e+04 1.999e-10
 58.52391     72.5 9.911e+03 1.353e-10
 58.56486     72.6 9.515e+03 1.105e-10
 58.60581     73.1 9.394e+03 9.679e-11
 58.63096     73.9 9.262e+03 8.811e-11
 58.64356     74.5 9.238e+03 8.665e-11
 58.65937     74.5 9.056e+03 8.202e-11
 58.68771     75.8 8.944e+03 6.833e-11
 58.72866     76.9 8.989e+03 5.165e-11
 58.76961     77.7 8.923e+03 4.278e-11
 58.79601     78.7 8.774e+03 4.053e-11
 58.81649     79.5 8.809e+03 4.224e-11
 58.84581     80.8 8.767e+03 4.287e-11
 58.86628     80.9 8.741e+03 4.272e-11
 58.89246     82.4 8.663e+03 4.545e-11
 58.93341     84.1 8.618e+03 4.812e-11
 58.96107     85.8 8.640e+03 5.019e-11
 58.98155     86.4 8.692e+03 5.647e-11
 59.01532     88.1 8.690e+03 5.578e-11
 59.05272     89.8 8.705e+03 5.170e-11
 59.07320     89.8 8.696e+03 5.602e-11
 59.09722     91.3 8.741e+03 5.339e-11
 59.12613     92.8 8.747e+03 5.186e-11
 59.14660     93.4 8.806e+03 5.626e-11
 59.17912     94.8 8.784e+03 5.624e-11
 59.22007     96.4 8.769e+03 5.707e-11
 59.25964     98.0 8.780e+03 5.805e-11
 59.28011     98.0 8.810e+03 7.154e-11
 59.29118     99.7 8.847e+03 7.256e-11
 59.31166    100.2 8.888e+03 7.491e-11
 59.34292    101.6 8.935e+03 7.799e-11
 59.38387    103.0 8.991e+03 8.659e-11
 59.42482    104.3 9.048e+03 9.999e-11
 59.45624    105.6 9.105e+03 1.150e-10
 59.47672    105.8 9.128e+03 1.123e-10
 59.48703    107.0 9.209e+03 1.223e-10
 59.50750    107.1 9.149e+03 1.180e-10
 59.54767    108.1 9.189e+03 1.199e-10
 59.58862    109.0 9.222e+03 1.228e-10
 59.62130    109.8 9.253e+03 1.289e-10
 59.64177    110.5 9.154e+03 1.147e-10
 59.67052    111.4 9.194e+03 1.245e-10
 59.69394    112.2 9.305e+03 1.433e-10
 59.71442    112.2 9.290e+03 1.444e-10
 59.75242    113.0 9.491e+03 1.756e-10
 59.78635    113.7 9.688e+03 2.063e-10
 59.80683    114.9 9.614e+03 1.830e-10
 59.83432    115.4 9.780e+03 2.103e-10
 59.87527    115.8 9.892e+03 2.413e-10
 59.90086    116.2 9.928e+03 2.607e-10
 59.92133    116.1 9.919e+03 2.723e-10
 59.95141    116.4 9.856e+03 2.550e-10
 59.97189    117.6 9.846e+03 2.513e-10
 59.99812    118.0 9.743e+03 2.293e-10
 60.03907    118.5 9.623e+03 1.989e-10
 60.08002    119.0 9.508e+03 1.649e-10
 60.10777    119.3 9.441e+03 1.333e-10
 60.12374    119.4 9.361e+03 1.314e-10
 60.13694    120.8 9.359e+03 1.317e-10
 60.16192    121.1 9.326e+03 1.152e-10
 60.20287    121.2 9.321e+03 1.123e-10
 60.24382    121.2 9.350e+03 1.154e-10
 60.28152    120.7 9.538e+03 1.357e-10
 60.30200    122.3 9.541e+03 1.414e-10
 60.31468    120.7 1.025e+04 2.162e-10
 60.33516    120.5 1.035e+04 2.487e-10
 60.35634    118.3 1.088e+04 3.467e-10
 60.37409    116.6 1.121e+04 5.142e-10
 60.38433    117.5 1.123e+04 5.140e-10
 60.39719    116.2 1.149e+04 7.003e-10
 60.41767    114.9 1.170e+04 7.343e-10
 60.42818    113.6 1.161e+04 6.874e-10
 60.43842    113.7 1.156e+04 6.193e-10
 60.45662    112.2 1.129e+04 5.006e-10
 60.46686    112.7 1.143e+04 5.420e-10
 60.47909    110.9 1.114e+04 4.333e-10
 60.49957    109.0 1.103e+04 3.419e-10
 60.52004    107.1 1.111e+04 3.369e-10
 60.53164    104.4 1.153e+04 3.736e-10
 60.54051    104.3 1.181e+04 4.213e-10
 60.54939    104.7 1.198e+04 5.001e-10
 60.56099    101.9 1.222e+04 7.153e-10
 60.58147    100.7 1.211e+04 9.919e-10
 60.60194    100.2 1.226e+04 1.137e-09
 60.62168     99.8 1.224e+04 1.079e-09
 60.63192    100.1 1.236e+04 1.118e-09
 60.63510     99.4 1.217e+04 8.810e-10
 60.64534     99.4 1.219e+04 8.582e-10
 60.66337     98.3 1.166e+04 5.782e-10
 60.68384     96.5 1.138e+04 3.404e-10
 60.70421     94.8 1.130e+04 2.573e-10
 60.71445     94.9 1.124e+04 2.790e-10
 60.72842     93.8 1.107e+04 2.558e-10
 60.74899     92.6 1.120e+04 2.749e-10
 60.77618     91.2 1.105e+04 4.273e-10
 60.79717     91.3 1.099e+04 5.302e-10
 60.81764     91.8 1.093e+04 4.685e-10
 60.85808     91.2 1.087e+04 4.341e-10
 60.89903     90.6 1.065e+04 4.081e-10
 60.93543     90.6 1.044e+04 3.867e-10
 60.95590     90.3 1.025e+04 3.316e-10
 60.96223     90.7 1.007e+04 2.737e-10
 60.98270     91.2 1.015e+04 2.899e-10
 61.02188     91.3 1.005e+04 2.358e-10
 61.06283     91.2 9.923e+03 2.080e-10
 61.10378     91.2 9.950e+03 2.080e-10
 61.12728     90.8 1.013e+04 2.593e-10
 61.14537     91.4 9.985e+03 2.147e-10
 61.16282     91.5 9.707e+03 1.580e-10
 61.18568     91.8 9.701e+03 1.978e-10
 61.22663     92.6 9.788e+03 2.353e-10
 61.26758     92.9 1.003e+04 2.682e-10
 61.29234     92.8 1.030e+04 3.405e-10
 61.31281     93.9 9.931e+03 2.318e-10
 61.34926     93.6 1.020e+04 3.238e-10
 61.36973     93.8 1.014e+04 3.401e-10
 61.39043     93.8 1.042e+04 4.934e-10
 61.43138     92.7 1.123e+04 7.749e-10
 61.45740     89.6 1.286e+04 1.445e-09
 61.47787     91.2 1.252e+04 1.298e-09
 61.50295     87.5 1.347e+04 2.194e-09
 61.52332     88.0 1.304e+04 3.028e-09
 61.53973     88.7 1.281e+04 2.662e-09
 61.54997     88.8 1.295e+04 2.703e-09
 61.56427     89.0 1.235e+04 1.941e-09
 61.57645     88.0 1.223e+04 1.103e-09
 61.58669     87.9 1.217e+04 1.098e-09
 61.60522     85.4 1.118e+04 6.386e-10
 61.62226     83.2 9.958e+03 4.144e-10
 61.63249     84.0 1.023e+04 4.804e-10
 61.64617     83.1 9.632e+03 3.768e-10
 61.66665     82.5 9.632e+03 3.332e-10
 61.67991     82.5 9.626e+03 3.310e-10
 61.69015     82.5 9.630e+03 3.370e-10
 61.71793     82.5 9.645e+03 3.202e-10
 61.75898     82.0 9.752e+03 3.547e-10
 61.78346     81.7 9.868e+03 4.149e-10
 61.79152     81.7 9.820e+03 4.172e-10
 61.79765     81.5 9.927e+03 4.274e-10
 61.80997     81.0 9.919e+03 4.687e-10
 61.83045     81.1 9.910e+03 5.501e-10
 61.85092     81.6 1.011e+04 5.836e-10
 61.86984     81.7 1.033e+04 5.922e-10
 61.88008     81.4 1.041e+04 6.067e-10
 61.88682     80.8 1.053e+04 5.704e-10
 61.89706     80.5 1.044e+04 5.514e-10
 61.91235     79.5 1.051e+04 5.307e-10
 61.93283     78.3 1.055e+04 5.292e-10
 61.95247     78.2 1.093e+04 6.413e-10
 61.96271     76.5 1.091e+04 6.200e-10
 61.97378     76.3 1.096e+04 6.307e-10
 61.99038     74.2 1.142e+04 8.211e-10
 62.01095     74.0 1.137e+04 8.593e-10
 62.03500     72.5 1.183e+04 1.063e-09
 62.04514     71.0 1.190e+04 1.083e-09
 62.05568     70.8 1.199e+04 1.105e-09
 62.07615     69.2 1.250e+04 1.348e-09
 62.09374     67.3 1.300e+04 1.503e-09
 62.10398     68.0 1.269e+04 1.478e-09
 62.11710     65.9 1.353e+04 1.761e-09
 62.12766     61.5 1.494e+04 2.079e-09
 62.13790     57.2 1.523e+04 1.883e-09
 62.15805     51.7 1.527e+04 2.551e-09
 62.17853     48.1 1.488e+04 3.349e-09
 62.19720     45.8 1.487e+04 3.720e-09
 62.20743     45.2 1.487e+04 3.934e-09
 62.21019     43.4 1.501e+04 3.879e-09
 62.22043     41.9 1.445e+04 2.990e-09
 62.23995     38.9 1.392e+04 2.210e-09
 62.26043     35.0 1.301e+04 1.676e-09
 62.28090     33.0 1.270e+04 1.559e-09
 62.29272     30.8 1.242e+04 1.385e-09
 62.30306     30.7 1.217e+04 1.060e-09
 62.33229     27.3 1.177e+04 9.184e-10
 62.37324     24.7 1.120e+04 7.697e-10
 62.40431     22.4 1.082e+04 6.852e-10
 62.42478     21.8 1.022e+04 4.497e-10
 62.44774     19.5 1.079e+04 6.277e-10
 62.46821     19.2 1.028e+04 4.604e-10
 62.49609     16.9 1.090e+04 6.515e-10
 62.53704     12.3 1.187e+04 9.228e-10
 62.56765      6.6 1.253e+04 1.150e-09
 62.58803      2.5 1.352e+04 1.581e-09
 62.60850     -1.8 1.482e+04 2.337e-09
 62.62126     -6.5 1.584e+04 3.730e-09
 62.62535     -6.9 1.576e+04 3.917e-09
 62.63307     -5.6 1.497e+04 3.049e-09
 62.64945     -9.2 1.547e+04 4.088e-09
 62.66993    -12.5 1.560e+04 4.434e-09
 62.69041    -15.6 1.511e+04 3.996e-09
 62.70536    -18.7 1.402e+04 2.564e-09
 62.71560    -17.0 1.433e+04 2.940e-09
 62.72472    -20.2 1.302e+04 1.745e-09
 62.73496    -20.2 1.286e+04 1.666e-09
 62.75183    -23.0 1.169e+04 1.094e-09
 62.77231    -24.9 1.105e+04 8.324e-10
 62.78789    -26.2 1.076e+04 7.051e-10
 62.79813    -25.2 1.097e+04 7.935e-10
 62.81326    -26.6 1.079e+04 7.120e-10
 62.82818    -28.0 1.069e+04 6.655e-10
 62.83841    -27.2 1.080e+04 6.954e-10
 62.85421    -28.8 1.074e+04 6.665e-10
 62.87042    -30.5 1.075e+04 6.613e-10
 62.88066    -29.8 1.096e+04 7.610e-10
 62.89516    -31.5 1.119e+04 7.858e-10
 62.91563    -33.3 1.150e+04 8.501e-10
 62.94281    -35.6 1.181e+04 9.261e-10
 62.96338    -34.2 1.211e+04 1.101e-09
 62.98749    -38.0 1.259e+04 1.453e-09
 63.01810    -40.3 1.298e+04 1.754e-09
 63.03509    -42.8 1.352e+04 2.070e-09
 63.04232    -42.6 1.384e+04 2.314e-09
 63.04571    -42.7 1.418e+04 2.594e-09
 63.05896    -45.8 1.469e+04 3.207e-09
 63.07943    -48.9 1.486e+04 3.452e-09
 63.09991    -52.1 1.486e+04 3.492e-09
 63.11800    -54.9 1.456e+04 3.411e-09
 63.12824    -54.5 1.495e+04 4.062e-09
 63.13855    -56.6 1.434e+04 3.486e-09
 63.14879    -56.3 1.457e+04 3.736e-09
 63.16133    -58.1 1.371e+04 2.668e-09
 63.18181    -59.6 1.289e+04 1.831e-09
 63.20053    -61.0 1.219e+04 1.214e-09
 63.21077    -60.6 1.218e+04 1.168e-09
 63.22276    -62.0 1.153e+04 7.452e-10
 63.24201    -63.4 1.096e+04 4.865e-10
 63.25224    -63.5 1.085e+04 4.386e-10
 63.27292    -64.9 1.034e+04 3.110e-10
 63.29349    -64.1 1.037e+04 3.083e-10
 63.31509    -64.4 1.007e+04 2.567e-10
 63.35604    -64.4 9.764e+03 2.157e-10
 63.39699    -64.4 9.592e+03 2.004e-10
 63.43794    -64.4 9.540e+03 1.978e-10
 63.45935    -63.8 1.002e+04 2.714e-10
 63.47983    -63.4 9.802e+03 2.568e-10
 63.51984    -63.4 1.007e+04 2.938e-10
 63.56079    -63.8 1.024e+04 3.224e-10
 63.60174    -64.3 1.030e+04 3.368e-10
 63.62361    -65.1 1.034e+04 3.452e-10
 63.63375    -64.7 1.043e+04 3.727e-10
 63.65274    -65.0 1.046e+04 3.766e-10
 63.66607    -65.9 1.051e+04 3.879e-10
 63.67631    -65.4 1.038e+04 3.561e-10
 63.69369    -66.0 1.050e+04 3.814e-10
 63.70594    -67.5 1.074e+04 4.535e-10
 63.71618    -68.4 1.099e+04 5.580e-10
 63.73464    -69.7 1.118e+04 6.507e-10
 63.75511    -70.8 1.126e+04 7.198e-10
 63.76953    -71.7 1.128e+04 7.372e-10
 63.77977    -71.6 1.136e+04 8.020e-10
 63.78847    -72.4 1.132e+04 7.868e-10
 63.79871    -72.7 1.145e+04 8.623e-10
 63.81654    -73.5 1.127e+04 6.649e-10
 63.83701    -74.4 1.108e+04 4.641e-10
 63.85749    -75.1 1.091e+04 3.499e-10
 63.87308    -75.5 1.076e+04 2.842e-10
 63.89366    -75.7 1.069e+04 2.520e-10
 63.92935    -76.2 1.022e+04 1.686e-10
 63.95372    -76.3 9.941e+03 1.340e-10
 63.97420    -76.7 9.971e+03 1.359e-10
 64.01125    -76.0 9.922e+03 1.316e-10
 64.05220    -75.3 9.957e+03 1.368e-10
 64.08010    -74.8 1.005e+04 1.536e-10
 64.10057    -75.1 9.993e+03 1.527e-10
 64.11878    -74.7 9.986e+03 1.608e-10
 64.13925    -74.7 1.003e+04 1.653e-10
 64.17505    -74.1 9.958e+03 1.656e-10
 64.21600    -73.4 9.877e+03 1.531e-10
 64.25695    -72.7 9.818e+03 1.381e-10
 64.28383    -72.2 9.834e+03 1.311e-10
 64.29342    -72.1 9.893e+03 1.419e-10
 64.30749    -72.2 9.797e+03 1.285e-10
 64.33885    -72.2 9.915e+03 1.338e-10
 64.37980    -72.4 1.016e+04 1.772e-10
 64.42075    -72.7 1.041e+04 2.543e-10
 64.44889    -73.0 1.068e+04 3.331e-10
 64.46937    -72.8 1.069e+04 3.341e-10
 64.49393    -73.8 1.084e+04 3.690e-10
 64.51440    -73.7 1.075e+04 3.435e-10
 64.54360    -75.0 1.077e+04 3.465e-10
 64.58455    -76.3 1.066e+04 3.125e-10
 64.61395    -77.6 1.041e+04 2.496e-10
 64.63442    -77.4 1.052e+04 2.648e-10
 64.66645    -78.6 1.036e+04 2.347e-10
 64.70084    -79.6 1.032e+04 2.281e-10
 64.72132    -78.8 1.023e+04 2.127e-10
 64.74835    -79.7 1.023e+04 2.159e-10
 64.77900    -80.6 1.024e+04 2.281e-10
 64.79948    -80.2 1.056e+04 2.772e-10
 64.83025    -81.1 1.059e+04 2.981e-10
 64.87120    -82.1 1.072e+04 3.279e-10
 64.90775    -83.4 1.095e+04 3.643e-10
 64.92823    -82.6 1.082e+04 3.200e-10
 64.94406    -84.8 1.116e+04 3.682e-10
 64.96444    -85.1 1.128e+04 4.129e-10
 64.98362    -88.1 1.142e+04 4.883e-10
 65.00409    -90.3 1.160e+04 5.623e-10
 65.02125    -92.5 1.182e+04 6.423e-10
 65.03149    -92.0 1.186e+04 6.431e-10
 65.03663    -94.3 1.203e+04 7.065e-10
 65.04687    -94.3 1.199e+04 6.746e-10
 65.06552    -96.9 1.203e+04 6.869e-10
 65.08599    -99.7 1.201e+04 6.598e-10
 65.10647   -102.6 1.170e+04 5.186e-10
 65.11916   -105.3 1.126e+04 3.844e-10
 65.12716   -104.8 1.128e+04 3.908e-10
 65.13495   -104.4 1.125e+04 3.729e-10
 65.15776   -106.0 1.091e+04 2.988e-10
 65.19880   -108.6 1.040e+04 2.295e-10
 65.23975   -111.1 9.961e+03 1.851e-10
 65.27417   -113.0 9.807e+03 1.680e-10
 65.29465   -112.8 1.003e+04 1.969e-10
 65.32158   -114.4 1.001e+04 1.946e-10
 65.36253   -116.1 1.043e+04 2.455e-10
 65.40355   -117.8 1.051e+04 2.572e-10
 65.43923   -119.2 1.051e+04 2.597e-10
 65.45971   -119.7 1.076e+04 2.984e-10
 65.48546   -121.1 1.056e+04 2.735e-10
 65.52641   -122.4 1.035e+04 2.451e-10
 65.54897   -123.6 1.025e+04 2.298e-10
 65.56945   -123.9 1.030e+04 2.354e-10
 65.60429   -125.0 1.026e+04 2.295e-10
 65.62476   -126.1 1.045e+04 2.423e-10
 65.64926   -127.3 1.092e+04 2.864e-10
 65.67987   -127.7 1.129e+04 3.459e-10
 65.69686   -129.3 1.164e+04 4.490e-10
 65.70710   -131.1 1.179e+04 5.746e-10
 65.72072   -133.4 1.207e+04 8.405e-10
 65.74120   -135.0 1.236e+04 1.042e-09
 65.75569   -136.6 1.257e+04 1.145e-09
 65.76593   -137.3 1.306e+04 1.403e-09
 65.77939   -139.4 1.320e+04 1.451e-09
 65.78962   -140.3 1.283e+04 1.176e-09
 65.80262   -142.5 1.281e+04 1.091e-09
 65.82310   -144.8 1.256e+04 9.685e-10
 65.84357   -146.8 1.221e+04 8.817e-10
 65.85915   -148.4 1.191e+04 8.601e-10
 65.86725   -149.3 1.216e+04 1.144e-09
 65.87215   -149.9 1.192e+04 1.030e-09
 65.88452   -150.4 1.172e+04 1.059e-09
 65.90500   -150.6 1.158e+04 1.068e-09
 65.92548   -150.7 1.137e+04 9.906e-10
 65.94444   -150.5 1.115e+04 8.606e-10
 65.95468   -150.7 1.121e+04 9.047e-10
 65.96261   -150.5 1.095e+04 7.515e-10
 65.97284   -151.2 1.068e+04 5.627e-10
 65.98690   -151.3 1.038e+04 4.147e-10
 66.01771   -151.7 1.013e+04 3.352e-10
 66.05876   -151.6 9.900e+03 2.768e-10
 66.09946   -150.3 9.551e+03 2.208e-10
 66.11993   -150.8 9.750e+03 2.944e-10
 66.14066   -149.8 9.451e+03 2.461e-10
 66.16972   -148.6 9.273e+03 2.223e-10
 66.19019   -148.8 9.090e+03 2.001e-10
 66.22256   -147.6 9.085e+03 1.972e-10
 66.26351   -146.5 9.088e+03 1.974e-10
 66.28499   -145.4 9.157e+03 2.049e-10
 66.30546   -146.0 9.339e+03 2.552e-10
 66.34541   -145.1 9.421e+03 2.666e-10
 66.37663   -144.3 9.461e+03 2.723e-10
 66.39711   -144.2 9.222e+03 2.153e-10
 66.42731   -143.4 9.221e+03 2.053e-10
 66.45005   -142.5 9.202e+03 1.888e-10
 66.47052   -143.1 9.265e+03 2.072e-10
 66.50921   -142.4 9.236e+03 1.857e-10
 66.55016   -141.7 9.226e+03 1.681e-10
 66.58355   -141.1 9.241e+03 1.560e-10
 66.60402   -140.9 9.078e+03 1.357e-10
 66.61510   -140.4 9.163e+03 1.353e-10
 66.63558   -141.2 9.270e+03 1.545e-10
 66.67301   -140.8 9.313e+03 1.598e-10
 66.71396   -140.5 9.370e+03 1.633e-10
 66.75491   -140.3 9.402e+03 1.645e-10
 66.78016   -140.2 9.416e+03 1.591e-10
 66.79523   -141.1 9.423e+03 1.549e-10
 66.81094   -141.0 9.431e+03 1.604e-10
 66.83681   -140.9 9.377e+03 1.455e-10
 66.87776   -140.8 9.316e+03 1.291e-10
 66.91871   -140.7 9.253e+03 1.145e-10
 66.94522   -140.5 9.204e+03 1.024e-10
 66.96569   -141.0 9.203e+03 1.025e-10
 66.99737   -140.6 9.172e+03 9.343e-11
 67.01785   -140.6 9.175e+03 9.543e-11
 67.04156   -140.0 9.153e+03 8.856e-11
 67.08252   -139.3 9.142e+03 8.541e-11
 67.11027   -138.5 9.140e+03 8.468e-11
 67.13075   -138.8 9.151e+03 8.490e-11
 67.16442   -137.8 9.158e+03 8.492e-11
 67.20429   -136.8 9.189e+03 8.642e-11
 67.22476   -136.7 9.137e+03 8.422e-11
 67.24632   -135.6 9.156e+03 8.587e-11
 67.27533   -134.5 9.178e+03 8.808e-11
 67.29580   -134.8 9.224e+03 9.200e-11
 67.32822   -133.6 9.263e+03 9.738e-11
 67.36917   -132.4 9.305e+03 1.032e-10
 67.41012   -131.2 9.354e+03 1.092e-10
 67.43168   -130.0 9.412e+03 1.152e-10
 67.44147   -129.9 9.450e+03 1.227e-10
 67.46086   -130.5 9.570e+03 1.368e-10
 67.49202   -129.4 9.667e+03 1.510e-10
 67.53297   -128.5 9.783e+03 1.672e-10
 67.57392   -127.8 9.927e+03 1.852e-10
 67.60544   -127.4 1.009e+04 2.035e-10
 67.62592   -128.3 1.021e+04 2.126e-10
 67.63859   -128.3 1.036e+04 2.241e-10
 67.65907   -128.7 1.051e+04 2.666e-10
 67.69677   -129.0 1.059e+04 2.697e-10
 67.73772   -129.5 1.061e+04 2.695e-10
 67.77050   -129.9 1.064e+04 2.567e-10
 67.79097   -131.1 1.056e+04 2.479e-10
 67.81962   -131.2 1.040e+04 2.168e-10
 67.84551   -131.0 1.017e+04 1.884e-10
 67.86598   -131.4 1.017e+04 2.211e-10
 67.90152   -130.8 9.960e+03 1.825e-10
 67.93556   -129.9 9.831e+03 1.568e-10
 67.95603   -130.5 9.783e+03 1.465e-10
 67.98342   -129.5 9.723e+03 1.268e-10
 68.02437   -128.4 9.674e+03 1.113e-10
 68.05242   -127.3 9.618e+03 9.591e-11
 68.07290   -127.7 9.577e+03 8.598e-11
 68.10061   -126.5 9.509e+03 7.347e-11
 68.12109   -126.9 9.397e+03 6.681e-11
 68.14722   -125.6 9.304e+03 5.937e-11
 68.18817   -124.3 9.231e+03 5.471e-11
 68.22912   -122.9 9.185e+03 5.244e-11
 68.25934   -121.6 9.166e+03 5.180e-11
 68.27541   -121.8 9.222e+03 5.744e-11
 68.28614   -122.2 9.172e+03 5.973e-11
 68.31102   -120.8 9.160e+03 6.163e-11
 68.35197   -119.5 9.162e+03 6.423e-11
 68.39292   -118.2 9.194e+03 6.737e-11
 68.43073   -117.0 9.260e+03 7.111e-11
 68.45120   -117.3 9.204e+03 6.718e-11
 68.46625   -116.2 9.265e+03 6.863e-11
 68.48673   -116.7 9.350e+03 7.911e-11
 68.51577   -115.7 9.388e+03 7.964e-11
 68.55672   -114.6 9.422e+03 8.050e-11
 68.59578   -113.6 9.447e+03 8.130e-11
 68.61626   -113.7 9.364e+03 7.181e-11
 68.63862   -112.6 9.378e+03 7.293e-11
 68.67317   -111.5 9.373e+03 7.458e-11
 68.69364   -111.8 9.393e+03 8.284e-11
 68.72053   -110.4 9.378e+03 8.418e-11
 68.76084   -109.0 9.397e+03 8.480e-11
 68.78131   -109.0 9.398e+03 8.634e-11
 68.80243   -107.6 9.442e+03 8.829e-11
 68.84338   -106.7 9.536e+03 9.306e-11
 68.88008   -106.6 9.711e+03 1.168e-10
 68.90056   -107.5 9.944e+03 1.341e-10
 68.92528   -108.5 1.100e+04 2.991e-10
 68.94637   -110.4 1.219e+04 7.090e-10
 68.96685   -110.9 1.264e+04 8.058e-10
 69.00718   -113.6 1.356e+04 1.585e-09
 69.02880   -116.1 1.385e+04 2.221e-09
 69.03894   -116.8 1.389e+04 2.157e-09
 69.05817   -118.5 1.393e+04 2.292e-09
 69.07864   -120.5 1.384e+04 2.248e-09
 69.09704   -122.9 1.320e+04 1.653e-09
 69.10727   -123.1 1.313e+04 1.586e-09
 69.11133   -125.4 1.225e+04 1.096e-09
 69.13190   -125.3 1.203e+04 1.003e-09
 69.17098   -127.9 1.107e+04 6.359e-10
 69.21193   -130.2 1.047e+04 4.588e-10
 69.25288   -131.8 1.023e+04 3.980e-10
 69.27648   -132.7 1.001e+04 3.640e-10
 69.29696   -133.0 1.005e+04 3.840e-10
 69.33478   -134.3 1.012e+04 4.312e-10
 69.37573   -134.6 9.915e+03 3.805e-10
 69.41668   -134.5 9.683e+03 3.203e-10
 69.44154   -134.0 9.475e+03 2.812e-10
 69.46202   -134.1 9.442e+03 2.630e-10
 69.49858   -133.5 9.346e+03 2.504e-10
 69.52130   -132.8 9.331e+03 2.490e-10
 69.54177   -133.7 9.533e+03 3.142e-10
 69.58048   -133.1 9.523e+03 3.178e-10
 69.60660   -132.6 9.510e+03 3.231e-10
 69.62707   -132.8 9.508e+03 3.163e-10
 69.66238   -132.3 9.458e+03 3.195e-10
 69.70333   -131.8 9.246e+03 2.950e-10
 69.72821   -131.0 9.066e+03 2.587e-10
 69.74869   -131.7 8.921e+03 2.219e-10
 69.77165   -130.7 8.684e+03 1.747e-10
 69.79213   -131.2 8.697e+03 1.748e-10
 69.82618   -130.2 8.478e+03 1.369e-10
 69.86713   -129.3 8.302e+03 1.108e-10
 69.90808   -128.2 8.187e+03 9.610e-11
 69.93513   -127.1 8.151e+03 9.191e-11
 69.94328   -127.8 8.149e+03 9.062e-11
 69.95719   -128.4 8.318e+03 1.086e-10
 69.98998   -127.5 8.379e+03 1.205e-10
 70.03093   -126.6 8.516e+03 1.439e-10
 70.07188   -125.9 8.725e+03 1.762e-10
 70.10177   -125.4 9.012e+03 2.136e-10
 70.12224   -126.5 9.439e+03 2.600e-10
 70.14204   -126.7 9.785e+03 2.994e-10
 70.16252   -128.6 9.974e+03 3.174e-10
 70.19473   -129.1 1.019e+04 3.551e-10
 70.23568   -129.5 1.031e+04 3.964e-10
 70.26682   -130.4 1.037e+04 4.467e-10
 70.28730   -132.4 1.043e+04 5.108e-10
 70.31759   -133.4 1.042e+04 5.328e-10
 70.34896   -134.1 1.022e+04 5.329e-10
 70.36943   -136.1 1.021e+04 5.036e-10
 70.39949   -135.9 9.669e+03 3.541e-10
 70.43188   -135.4 9.082e+03 2.368e-10
 70.45236   -136.5 8.806e+03 2.088e-10
 70.48139   -135.4 8.635e+03 1.763e-10
 70.52234   -134.1 8.628e+03 1.711e-10
 70.55587   -133.0 8.679e+03 1.738e-10
 70.57635   -133.7 8.653e+03 1.531e-10
 70.59694   -133.0 9.140e+03 2.229e-10
 70.61741   -134.0 9.343e+03 2.857e-10
 70.64519   -133.3 9.766e+03 4.285e-10
 70.68614   -132.9 1.008e+04 5.662e-10
 70.72709   -132.7 1.025e+04 6.419e-10
 70.76199   -132.7 1.027e+04 6.541e-10
 70.77722   -133.7 1.029e+04 6.548e-10
 70.78326   -134.5 1.019e+04 5.682e-10
 70.80899   -134.5 1.017e+04 5.581e-10
 70.84994   -134.4 1.006e+04 5.166e-10
 70.89089   -134.2 9.900e+03 4.691e-10
 70.92705   -133.9 9.740e+03 4.181e-10
 70.94753   -134.8 9.585e+03 3.599e-10
 70.96970   -134.0 9.341e+03 2.920e-10
 70.99018   -135.1 9.374e+03 2.911e-10
 71.01374   -134.2 9.124e+03 2.221e-10
 71.05469   -133.2 8.904e+03 1.684e-10
 71.09211   -132.2 8.725e+03 1.324e-10
 71.11258   -132.6 8.672e+03 1.125e-10
 71.13659   -131.5 8.617e+03 1.019e-10
 71.17662   -130.3 8.603e+03 9.876e-11
 71.19709   -131.3 8.702e+03 1.009e-10
 71.21849   -130.1 8.712e+03 1.065e-10
 71.25716   -129.1 8.793e+03 1.213e-10
 71.27764   -129.6 8.958e+03 1.448e-10
 71.30039   -128.7 9.162e+03 1.858e-10
 71.34134   -128.0 9.410e+03 2.410e-10
 71.38229   -127.5 9.683e+03 3.078e-10
 71.40400   -127.4 9.974e+03 3.824e-10
 71.42346   -129.2 1.039e+04 4.888e-10
 71.44270   -130.6 1.073e+04 5.731e-10
 71.46419   -131.3 1.113e+04 6.768e-10
 71.50514   -132.4 1.150e+04 7.824e-10
 71.54609   -133.8 1.172e+04 8.603e-10
 71.58704   -135.2 1.177e+04 8.800e-10
 71.60775   -136.5 1.163e+04 7.709e-10
 71.61115   -138.0 1.130e+04 5.813e-10
 71.63139   -139.9 1.108e+04 4.854e-10
 71.66894   -140.8 1.066e+04 3.173e-10
 71.70989   -141.7 1.028e+04 2.349e-10
 71.75084   -142.4 1.010e+04 2.168e-10
 71.77281   -142.8 1.009e+04 2.160e-10
 71.79328   -143.5 1.003e+04 2.226e-10
 71.81783   -143.6 1.007e+04 2.670e-10
 71.83831   -143.9 1.012e+04 2.852e-10
 71.87369   -143.9 1.034e+04 3.105e-10
 71.91465   -144.1 1.053e+04 3.231e-10
 71.93787   -144.5 1.062e+04 3.248e-10
 71.95834   -145.4 1.058e+04 2.858e-10
 71.99655   -146.0 1.064e+04 2.820e-10
 72.02475   -146.6 1.070e+04 2.733e-10
 72.04522   -147.5 1.047e+04 2.142e-10
 72.07845   -147.9 1.049e+04 2.146e-10
 72.10292   -147.8 1.046e+04 2.117e-10
 72.12340   -149.1 1.039e+04 2.026e-10
 72.16035   -148.6 1.036e+04 1.906e-10
 72.20130   -147.8 1.032e+04 1.786e-10
 72.23166   -146.9 1.030e+04 1.729e-10
 72.25214   -147.3 1.036e+04 1.742e-10
 72.26798   -146.4 1.035e+04 1.737e-10
 72.28845   -147.7 1.024e+04 1.607e-10
 72.32415   -146.6 1.025e+04 1.762e-10
 72.36510   -145.5 1.033e+04 2.139e-10
 72.40605   -144.4 1.045e+04 2.626e-10
 72.43304   -143.4 1.058e+04 3.166e-10
 72.44509   -144.4 1.031e+04 2.373e-10
 72.45905   -144.7 9.919e+03 1.111e-10
 72.48795   -144.1 1.012e+04 1.458e-10
 72.52890   -143.6 1.022e+04 2.164e-10
 72.56985   -142.9 1.031e+04 2.954e-10
 72.59809   -142.2 1.036e+04 3.551e-10
 72.61857   -143.1 1.020e+04 3.342e-10
 72.64549   -142.3 1.020e+04 3.454e-10
 72.66597   -142.4 1.032e+04 3.683e-10
 72.69270   -141.5 1.034e+04 3.762e-10
 72.73365   -140.4 1.031e+04 3.733e-10
 72.76315   -139.2 1.022e+04 3.517e-10
 72.78362   -139.8 1.008e+04 3.218e-10
 72.81555   -138.4 1.007e+04 3.146e-10
 72.85241   -137.2 1.012e+04 3.161e-10
 72.87288   -138.1 1.072e+04 4.067e-10
 72.89745   -137.6 1.108e+04 5.296e-10
 72.92821   -137.1 1.144e+04 7.105e-10
 72.94868   -137.7 1.139e+04 7.012e-10
 72.97935   -137.4 1.161e+04 8.181e-10
 73.02030   -137.5 1.166e+04 8.395e-10
 73.05932   -137.5 1.158e+04 7.978e-10
 73.07970   -137.8 1.158e+04 8.320e-10
 73.09177   -137.9 1.142e+04 7.366e-10
 73.10330   -138.0 1.121e+04 6.318e-10
 73.11354   -138.4 1.119e+04 6.354e-10
 73.13272   -138.6 1.093e+04 5.284e-10
 73.15319   -138.7 1.070e+04 4.398e-10
 73.17282   -138.8 1.050e+04 3.733e-10
 73.18306   -138.8 1.040e+04 3.903e-10
 73.18583   -138.6 1.030e+04 3.404e-10
 73.19607   -138.8 1.036e+04 3.584e-10
 73.21462   -138.8 1.040e+04 3.382e-10
 73.23510   -138.9 1.042e+04 3.350e-10
 73.25557   -139.2 1.065e+04 3.373e-10
 73.26836   -140.4 1.124e+04 3.846e-10
 73.27860   -142.1 1.191e+04 5.331e-10
 73.28652   -143.6 1.236e+04 7.987e-10
 73.29675   -143.5 1.253e+04 8.496e-10
 73.31700   -144.6 1.285e+04 1.272e-09
 73.33747   -145.2 1.309e+04 1.754e-09
 73.35089   -145.5 1.326e+04 2.176e-09
 73.36113   -146.2 1.382e+04 3.109e-09
 73.37842   -146.2 1.381e+04 3.236e-09
 73.38997   -146.2 1.375e+04 3.242e-09
 73.40021   -145.7 1.374e+04 3.157e-09
 73.41937   -145.7 1.344e+04 2.579e-09
 73.43342   -145.9 1.306e+04 2.149e-09
 73.44366   -146.6 1.310e+04 2.113e-09
 73.46032   -146.9 1.281e+04 1.798e-09
 73.48080   -147.3 1.256e+04 1.571e-09
 73.49343   -147.6 1.238e+04 1.410e-09
 73.50367   -147.2 1.240e+04 1.389e-09
 73.51595   -147.6 1.240e+04 1.376e-09
 73.52618   -148.7 1.271e+04 1.485e-09
 73.54222   -149.5 1.295e+04 1.640e-09
 73.56270   -150.5 1.316e+04 1.855e-09
 73.58317   -151.5 1.331e+04 2.065e-09
 73.59689   -152.4 1.339e+04 2.228e-09
 73.60195   -152.1 1.380e+04 2.624e-09
 73.60871   -153.3 1.425e+04 3.182e-09
 73.62412   -154.1 1.421e+04 3.223e-09
 73.64460   -154.8 1.386e+04 2.937e-09
 73.66507   -155.5 1.334e+04 2.288e-09
 73.68100   -156.1 1.272e+04 1.608e-09
 73.69124   -157.3 1.250e+04 1.366e-09
 73.70034   -158.0 1.177e+04 8.909e-10
 73.71058   -157.8 1.178e+04 8.886e-10
 73.72650   -158.5 1.116e+04 5.840e-10
 73.74697   -159.0 1.072e+04 4.147e-10
 73.76353   -159.3 1.046e+04 3.379e-10
 73.77377   -160.1 1.051e+04 3.357e-10
 73.79826   -160.1 1.036e+04 3.051e-10
 73.83931   -159.5 1.013e+04 2.673e-10
 73.88026   -158.6 9.916e+03 2.431e-10
 73.90745   -157.6 9.831e+03 2.379e-10
 73.92527   -157.7 9.812e+03 2.105e-10
 73.93902   -158.3 9.985e+03 2.453e-10
 73.96216   -157.2 9.978e+03 2.454e-10
 74.00311   -156.0 1.003e+04 2.535e-10
 74.04406   -154.8 1.013e+04 2.846e-10
 74.08360   -153.6 1.025e+04 3.336e-10
 74.10408   -153.3 1.050e+04 3.950e-10
 74.11427   -152.3 1.050e+04 4.156e-10
 74.12441   -152.2 1.054e+04 3.182e-10
 74.13600   -152.0 1.060e+04 3.428e-10
 74.15648   -151.6 1.071e+04 3.877e-10
 74.17617   -151.3 1.082e+04 4.368e-10
 74.18641   -151.6 1.111e+04 5.340e-10
 74.19743   -151.4 1.131e+04 6.141e-10
 74.21763   -151.3 1.154e+04 7.038e-10
 74.22787   -152.1 1.183e+04 8.087e-10
 74.23838   -152.0 1.200e+04 9.456e-10
 74.25870   -151.8 1.214e+04 1.075e-09
 74.26894   -152.6 1.249e+04 1.359e-09
 74.27933   -152.3 1.249e+04 1.417e-09
 74.29980   -152.0 1.246e+04 1.429e-09
 74.32028   -151.6 1.229e+04 1.375e-09
 74.33133   -151.2 1.215e+04 1.281e-09
 74.34156   -151.7 1.232e+04 1.466e-09
 74.35147   -151.3 1.224e+04 1.324e-09
 74.36170   -151.9 1.235e+04 1.295e-09
 74.38170   -151.7 1.233e+04 1.236e-09
 74.40218   -151.4 1.234e+04 1.227e-09
 74.42265   -151.3 1.241e+04 1.238e-09
 74.43400   -151.2 1.258e+04 1.301e-09
 74.43589   -152.0 1.271e+04 1.281e-09
 74.44502   -153.0 1.296e+04 1.383e-09
 74.46360   -153.0 1.304e+04 1.412e-09
 74.48408   -153.1 1.306e+04 1.418e-09
 74.50455   -153.2 1.298e+04 1.387e-09
 74.51652   -153.3 1.281e+04 1.307e-09
 74.52676   -153.9 1.259e+04 1.214e-09
 74.53824   -153.9 1.234e+04 1.105e-09
 74.54848   -154.3 1.225e+04 1.092e-09
 74.56598   -154.0 1.196e+04 9.610e-10
 74.58645   -153.6 1.170e+04 8.372e-10
 74.59905   -153.1 1.148e+04 7.251e-10
 74.60929   -153.1 1.133e+04 6.408e-10
 74.62740   -152.7 1.112e+04 5.130e-10
 74.65821   -152.3 1.087e+04 4.064e-10
 74.69926   -151.3 1.058e+04 3.194e-10
 74.73511   -149.7 1.023e+04 2.461e-10
 74.75559   -148.8 1.017e+04 2.526e-10
 74.76430   -147.3 9.973e+03 2.160e-10
 74.78478   -147.3 9.980e+03 2.208e-10
 74.82211   -145.6 9.816e+03 1.896e-10
 74.86306   -143.8 9.689e+03 1.644e-10
 74.90401   -141.9 9.604e+03 1.459e-10
 74.92936   -140.0 9.578e+03 1.353e-10
 74.94690   -140.0 9.625e+03 1.483e-10
 74.96250   -139.3 9.716e+03 1.767e-10
 74.98591   -137.4 9.685e+03 1.725e-10
 75.02686   -135.5 9.682e+03 1.713e-10
 75.06781   -133.7 9.685e+03 1.709e-10
 75.09442   -131.9 9.720e+03 1.718e-10
 75.11489   -131.9 9.806e+03 1.892e-10
 75.14894   -130.1 9.854e+03 1.915e-10
 75.16942   -129.5 9.920e+03 2.186e-10
 75.19067   -128.1 1.014e+04 2.498e-10
 75.23162   -126.9 1.045e+04 3.416e-10
 75.25947   -125.9 1.082e+04 4.780e-10
 75.27995   -126.4 1.096e+04 5.126e-10
 75.31352   -126.1 1.132e+04 6.395e-10
 75.35447   -126.3 1.156e+04 7.036e-10
 75.37633   -126.7 1.166e+04 7.116e-10
 75.39681   -126.8 1.187e+04 8.733e-10
 75.42453   -127.4 1.188e+04 7.992e-10
 75.44501   -128.8 1.188e+04 8.034e-10
 75.47732   -129.5 1.171e+04 6.549e-10
 75.51827   -129.9 1.152e+04 5.456e-10
 75.55922   -130.2 1.129e+04 4.590e-10
 75.58325   -129.9 1.100e+04 3.629e-10
 75.59314   -129.6 1.109e+04 3.380e-10
 75.61006   -130.3 1.108e+04 3.120e-10
 75.64112   -129.6 1.070e+04 2.193e-10
 75.68207   -128.5 1.036e+04 1.509e-10
 75.72302   -127.2 1.012e+04 1.112e-10
 75.75464   -125.9 9.970e+03 8.936e-11
 75.77512   -125.9 1.004e+04 9.224e-11
 75.79016   -124.3 9.947e+03 8.251e-11
 75.81064   -124.2 1.003e+04 1.091e-10
 75.84587   -122.5 9.996e+03 1.085e-10
 75.88682   -120.6 9.929e+03 1.107e-10
 75.91970   -118.8 9.850e+03 1.178e-10
 75.94018   -118.6 9.918e+03 1.214e-10
 75.96872   -116.7 9.881e+03 1.261e-10
 75.99707   -114.8 9.874e+03 1.274e-10
 76.01755   -114.4 1.002e+04 1.428e-10
 76.05062   -112.6 9.999e+03 1.346e-10
 76.08476   -110.9 9.975e+03 1.239e-10
 76.10523   -110.5 9.992e+03 1.247e-10
 76.13252   -108.9 9.991e+03 1.174e-10
 76.17347   -107.6 1.000e+04 1.157e-10
 76.20399   -106.8 1.014e+04 1.204e-10
 76.22446   -107.3 1.059e+04 1.284e-10
 76.24981   -107.0 1.072e+04 1.883e-10
 76.27029   -106.5 1.070e+04 1.868e-10
 76.29632   -106.1 1.076e+04 2.651e-10
 76.33727   -105.6 1.074e+04 3.305e-10
 76.37822   -105.2 1.071e+04 3.513e-10
 76.41090   -104.7 1.062e+04 3.503e-10
 76.42708   -104.3 1.055e+04 3.506e-10
 76.43535   -104.1 1.066e+04 3.331e-10
 76.46012   -103.1 1.054e+04 3.065e-10
 76.50107   -102.1 1.051e+04 2.885e-10
 76.54202   -101.1 1.052e+04 2.858e-10
 76.57993   -100.3 1.071e+04 3.134e-10
 76.60040    -99.8 1.065e+04 2.580e-10
 76.61782    -99.1 1.098e+04 2.990e-10
 76.63829    -98.4 1.107e+04 4.197e-10
 76.66487    -97.5 1.138e+04 4.978e-10
 76.70582    -96.9 1.181e+04 6.086e-10
 76.74498    -96.5 1.244e+04 7.857e-10
 76.76546    -96.7 1.330e+04 9.793e-10
 76.77739    -95.9 1.350e+04 1.131e-09
 76.79777    -96.1 1.421e+04 1.497e-09
 76.81824    -96.4 1.493e+04 2.225e-09
 76.83477    -97.0 1.543e+04 3.403e-09
 76.84385    -95.4 1.489e+04 1.664e-09
 76.84779    -96.2 1.605e+04 3.478e-09
 76.85919    -96.8 1.658e+04 5.808e-09
 76.87967    -97.4 1.706e+04 8.358e-09
 76.90014    -98.1 1.742e+04 1.067e-08
 76.92008    -99.1 1.767e+04 1.218e-08
 76.93032    -99.2 1.892e+04 1.639e-08
 76.93823   -100.6 1.903e+04 1.463e-08
 76.94842   -101.2 1.869e+04 1.797e-08
 76.95635   -101.9 1.868e+04 1.841e-08
 76.96637   -102.0 1.860e+04 1.749e-08
 76.97149   -102.2 1.894e+04 1.864e-08
 76.97683   -102.2 1.829e+04 1.589e-08
 76.98706   -102.2 1.775e+04 1.341e-08
 76.99498   -102.4 1.719e+04 1.126e-08
 77.00010   -102.2 1.747e+04 1.174e-08
 77.00754   -102.3 1.678e+04 9.720e-09
 77.01280   -102.2 1.615e+04 7.959e-09
 77.02309   -102.6 1.588e+04 7.119e-09
 77.04169   -102.2 1.491e+04 4.873e-09
 77.05193   -102.0 1.514e+04 5.288e-09
 77.06394   -101.2 1.430e+04 3.506e-09
 77.08442   -100.9 1.364e+04 2.391e-09
 77.09538   -100.7 1.319e+04 1.773e-09
 77.10561   -101.5 1.293e+04 1.546e-09
 77.12537   -101.1 1.254e+04 1.255e-09
 77.14515   -100.6 1.219e+04 1.049e-09
 77.15538   -100.8 1.197e+04 1.142e-09
 77.16632   -100.0 1.166e+04 9.610e-10
 77.17791    -99.1 1.134e+04 8.022e-10
 77.18814    -99.2 1.149e+04 8.541e-10
 77.20727    -98.3 1.122e+04 7.102e-10
 77.22775    -97.4 1.096e+04 5.805e-10
 77.24822    -96.4 1.076e+04 4.824e-10
 77.25894    -95.4 1.065e+04 4.179e-10
 77.26101    -95.1 1.047e+04 3.948e-10
 77.28110    -95.2 1.049e+04 4.118e-10
 77.32008    -93.5 1.033e+04 3.543e-10
 77.34306    -91.7 1.022e+04 3.245e-10
 77.35320    -92.1 1.031e+04 3.451e-10
 77.36230    -91.2 1.031e+04 3.428e-10
 77.37254    -91.1 1.015e+04 3.282e-10
 77.39155    -90.4 1.016e+04 3.282e-10
 77.41202    -90.4 1.023e+04 3.390e-10
 77.42549    -91.8 1.074e+04 4.142e-10
 77.43573    -96.0 1.236e+04 8.216e-10
 77.45297    -99.5 1.501e+04 2.227e-09
 77.46576   -101.7 1.699e+04 5.324e-09
 77.47599   -102.5 1.765e+04 5.103e-09
 77.49392   -103.5 1.903e+04 1.034e-08
 77.50802   -104.3 1.995e+04 1.478e-08
 77.51826   -107.7 2.011e+04 1.764e-08
 77.53487   -109.1 1.936e+04 1.514e-08
 77.55535   -110.3 1.780e+04 1.028e-08
 77.56921   -111.3 1.556e+04 5.891e-09
 77.57945   -110.0 1.758e+04 7.620e-09
 77.59055   -111.6 1.552e+04 4.286e-09
 77.60078   -114.0 1.334e+04 2.193e-09
 77.61677   -115.3 1.239e+04 1.434e-09
 77.63725   -115.9 1.200e+04 1.141e-09
 77.65772   -116.2 1.171e+04 1.060e-09
 77.67267   -116.0 1.157e+04 1.043e-09
 77.67778   -116.9 1.138e+04 8.596e-10
 77.68331   -118.3 1.009e+04 5.819e-10
 77.69867   -117.8 1.012e+04 5.911e-10
 77.71915   -117.4 1.010e+04 5.905e-10
 77.73962   -116.9 9.973e+03 5.715e-10
 77.75560   -116.5 9.800e+03 5.122e-10
 77.76584   -116.9 9.407e+03 4.185e-10
 77.77613   -116.4 9.247e+03 3.715e-10
 77.78637   -116.4 9.224e+03 3.672e-10
 77.81138   -115.6 9.087e+03 3.217e-10
 77.85243   -113.8 8.772e+03 2.445e-10
 77.87978   -112.3 8.578e+03 1.958e-10
 77.90026   -111.8 8.510e+03 2.059e-10
 77.92086   -110.1 8.334e+03 1.689e-10
 77.94133   -110.5 8.326e+03 1.692e-10
 77.97528   -108.8 8.248e+03 1.526e-10
 78.01623   -107.2 8.241e+03 1.489e-10
 78.05718   -105.9 8.292e+03 1.493e-10
 78.08591   -105.3 8.757e+03 1.842e-10
 78.09495   -105.6 9.007e+03 2.428e-10
 78.10717   -103.4 8.568e+03 1.716e-10
 78.13908   -102.9 9.156e+03 2.583e-10
 78.18003   -102.4 9.677e+03 4.327e-10
 78.22098   -101.8 1.014e+04 6.672e-10
 78.25097   -101.3 1.049e+04 8.701e-10
 78.27144   -101.0 1.074e+04 1.033e-09
 78.29361   -100.5 1.082e+04 1.070e-09
 78.31408    -99.0 1.100e+04 1.170e-09
 78.34383    -98.7 1.106e+04 1.202e-09
 78.38479    -98.3 1.098e+04 1.134e-09
 78.41603    -97.2 1.067e+04 9.345e-10
 78.43650    -96.9 1.064e+04 9.459e-10
 78.46669    -95.3 1.027e+04 7.480e-10
 78.50052    -93.5 9.950e+03 6.016e-10
 78.52100    -93.2 1.021e+04 7.572e-10
 78.54859    -91.4 9.840e+03 5.767e-10
 78.58108    -89.5 9.555e+03 4.412e-10
 78.60156    -89.0 9.144e+03 3.262e-10
 78.63049    -87.1 8.908e+03 2.368e-10
 78.67144    -85.1 8.783e+03 1.805e-10
 78.70744    -83.0 8.754e+03 1.505e-10
 78.72791    -82.8 8.631e+03 1.394e-10
 78.74614    -80.4 8.626e+03 1.191e-10
 78.76661    -79.7 8.532e+03 1.198e-10
 78.79429    -77.2 8.542e+03 1.117e-10
 78.83524    -74.5 8.549e+03 1.103e-10
 78.87619    -71.8 8.598e+03 1.102e-10
 78.91120    -69.2 8.734e+03 1.157e-10
 78.92888    -68.8 8.609e+03 1.173e-10
 78.93483    -68.4 8.709e+03 1.314e-10
 78.95809    -65.9 8.853e+03 1.541e-10
 78.99904    -63.3 8.998e+03 1.848e-10
 79.03999    -60.7 9.173e+03 2.199e-10
 79.07625    -58.0 9.378e+03 2.571e-10
 79.09673    -58.1 9.075e+03 2.010e-10
 79.12127    -55.8 9.183e+03 2.153e-10
 79.14174    -55.3 9.334e+03 2.467e-10
 79.16284    -53.2 9.455e+03 2.465e-10
 79.20379    -51.3 9.669e+03 2.543e-10
 79.24131    -49.7 9.999e+03 2.748e-10
 79.26178    -50.4 9.507e+03 2.181e-10
 79.28569    -48.9 9.674e+03 2.549e-10
 79.32664    -47.3 9.831e+03 2.834e-10
 79.34866    -45.9 9.948e+03 2.981e-10
 79.36913    -46.8 1.004e+04 3.010e-10
 79.40637    -45.9 1.017e+04 2.741e-10
 79.42684    -45.8 9.698e+03 2.368e-10
 79.44949    -45.0 9.755e+03 2.297e-10
 79.49044    -44.6 1.005e+04 2.429e-10
 79.53139    -43.9 1.034e+04 3.070e-10
 79.55557    -42.6 1.038e+04 3.589e-10
 79.57513    -42.9 1.011e+04 2.601e-10
 79.59190    -41.5 1.010e+04 2.684e-10
 79.61329    -39.7 1.010e+04 2.599e-10
 79.65424    -37.7 1.004e+04 2.037e-10
 79.69519    -35.8 9.998e+03 1.551e-10
 79.73614    -34.0 9.979e+03 1.338e-10
 79.75695    -31.9 9.966e+03 1.303e-10
 79.76282    -31.5 1.004e+04 1.630e-10
 79.78296    -31.1 1.004e+04 1.403e-10
 79.81804    -29.2 1.016e+04 1.475e-10
 79.85899    -27.1 1.022e+04 1.747e-10
 79.89994    -24.9 1.025e+04 1.988e-10
 79.92201    -22.7 1.030e+04 2.096e-10
 79.94249    -22.4 1.035e+04 1.745e-10
 79.96940    -20.5 1.039e+04 1.376e-10
 79.98988    -19.9 1.062e+04 2.097e-10
 80.02280    -18.5 1.071e+04 1.947e-10
 80.06375    -17.9 1.080e+04 1.932e-10
 80.08707    -18.3 1.095e+04 2.292e-10
 80.10754    -17.3 1.102e+04 2.364e-10
 80.14565    -18.4 1.176e+04 5.017e-10
 80.16950    -19.8 1.242e+04 9.272e-10
 80.17959    -19.5 1.254e+04 9.615e-10
 80.19659    -19.6 1.270e+04 1.307e-09
 80.21711    -19.6 1.303e+04 1.862e-09
 80.23759    -19.4 1.318e+04 2.297e-09
 80.25193    -19.0 1.323e+04 2.430e-09
 80.26217    -18.8 1.342e+04 2.207e-09
 80.27854    -18.7 1.314e+04 2.054e-09
 80.28981    -18.7 1.272e+04 1.701e-09
 80.30005    -19.6 1.258e+04 1.071e-09
 80.31949    -19.5 1.229e+04 9.606e-10
 80.33446    -19.3 1.206e+04 8.783e-10
 80.34469    -19.8 1.247e+04 9.211e-10
 80.36044    -19.7 1.248e+04 9.427e-10
 80.38091    -19.5 1.244e+04 9.904e-10
 80.39327    -19.0 1.231e+04 1.044e-09
 80.40351    -19.6 1.241e+04 1.134e-09
 80.41698    -18.7 1.224e+04 1.154e-09
 80.42722    -18.2 1.260e+04 1.562e-09
 80.44234    -17.1 1.250e+04 1.368e-09
 80.46282    -16.4 1.243e+04 1.139e-09
 80.48329    -16.0 1.234e+04 9.398e-10
 80.49673    -15.9 1.226e+04 7.860e-10
 80.50271    -16.7 1.233e+04 6.846e-10
 80.50975    -16.3 1.280e+04 7.440e-10
 80.52424    -16.7 1.232e+04 6.261e-10
 80.54472    -16.8 1.201e+04 5.874e-10
 80.56519    -16.7 1.192e+04 5.823e-10
 80.58204    -16.5 1.181e+04 6.159e-10
 80.59228    -16.6 1.204e+04 7.025e-10
 80.60019    -16.2 1.196e+04 7.907e-10
 80.61042    -16.4 1.214e+04 9.088e-10
 80.62662    -15.8 1.222e+04 1.024e-09
 80.64709    -15.1 1.232e+04 1.073e-09
 80.66457    -14.5 1.232e+04 1.068e-09
 80.67481    -14.5 1.241e+04 1.380e-09
 80.68804    -14.2 1.249e+04 1.234e-09
 80.70364    -14.7 1.284e+04 1.103e-09
 80.71388    -17.4 1.526e+04 2.292e-09
 80.72899    -20.1 1.681e+04 2.906e-09
 80.74710    -23.0 1.714e+04 3.937e-09
 80.75734    -23.0 1.632e+04 6.589e-09
 80.76994    -23.2 1.577e+04 7.444e-09
 80.79042    -23.0 1.559e+04 7.430e-09
 80.80710    -22.3 1.521e+04 7.598e-09
 80.81734    -22.3 1.612e+04 9.745e-09
 80.82963    -21.1 1.560e+04 7.013e-09
 80.83986    -20.9 1.532e+04 3.688e-09
 80.85184    -20.5 1.498e+04 2.333e-09
 80.87232    -20.7 1.419e+04 1.404e-09
 80.89279    -21.2 1.312e+04 9.562e-10
 80.91225    -21.1 1.226e+04 7.279e-10
 80.93283    -21.2 1.127e+04 5.498e-10
 80.96465    -18.1 1.100e+04 4.315e-10
 81.00397    -15.2 1.090e+04 3.070e-10
 81.02445    -15.7 1.092e+04 3.117e-10
 81.04655    -13.5 1.081e+04 2.283e-10
 81.07741    -11.5 1.064e+04 1.973e-10
 81.09788    -11.4 1.073e+04 2.874e-10
 81.12845     -9.4 1.071e+04 2.684e-10
 81.16940     -7.4 1.066e+04 2.883e-10
 81.21035     -5.1 1.059e+04 3.629e-10
 81.23136     -2.5 1.058e+04 4.335e-10
 81.24300     -2.5 1.062e+04 5.034e-10
 81.26294     -2.9 1.083e+04 5.823e-10
 81.29225     -0.4 1.079e+04 5.582e-10
 81.33320      2.0 1.087e+04 5.032e-10
 81.37415      3.8 1.094e+04 4.914e-10
 81.40752      5.6 1.086e+04 5.596e-10
 81.42800      4.6 1.100e+04 5.788e-10
 81.43828      7.1 1.106e+04 7.500e-10
 81.45875      6.6 1.110e+04 7.011e-10
 81.49700      8.9 1.143e+04 8.592e-10
 81.52762      9.6 1.161e+04 8.532e-10
 81.54154     10.0 1.199e+04 9.327e-10
 81.55178      8.9 1.248e+04 1.108e-09
 81.56847      8.5 1.321e+04 1.432e-09
 81.58262      8.1 1.347e+04 1.828e-09
 81.59286      7.6 1.341e+04 2.636e-09
 81.60942      8.7 1.333e+04 2.915e-09
 81.62990      9.9 1.323e+04 2.775e-09
 81.64500     10.8 1.334e+04 2.518e-09
 81.66557      9.9 1.329e+04 1.458e-09
 81.69142      8.6 1.308e+04 9.249e-10
 81.71180      8.0 1.275e+04 8.198e-10
 81.73227      6.5 1.265e+04 7.377e-10
 81.74768      5.5 1.253e+04 7.704e-10
 81.75362      3.8 1.216e+04 7.281e-10
 81.75869      2.9 1.180e+04 6.394e-10
 81.77322      3.5 1.139e+04 7.766e-10
 81.79370      4.6 1.138e+04 7.964e-10
 81.81417      5.7 1.156e+04 6.541e-10
 81.83020      6.5 1.123e+04 5.564e-10
 81.84044      5.8 1.120e+04 4.234e-10
 81.85201      7.2 1.121e+04 2.929e-10
 81.87258      6.6 1.111e+04 2.378e-10
 81.90269      6.7 1.145e+04 9.481e-11
 81.92317      3.5 1.178e+04 5.229e-11
 81.94746      3.3 1.124e+04 5.084e-11
 81.98841      4.4 1.071e+04 5.821e-11
 82.02936      6.5 1.069e+04 6.468e-11
 82.05902      8.3 1.107e+04 7.086e-11
 82.07693      6.8 1.146e+04 1.284e-10
 82.08822      5.7 1.126e+04 2.417e-10
 82.11126      7.0 1.131e+04 2.841e-10
 82.15221      8.5 1.128e+04 3.534e-10
 82.19316     10.5 1.124e+04 4.450e-10
 82.23280     12.7 1.126e+04 4.961e-10
 82.25328     13.1 1.128e+04 4.079e-10
 82.26594     15.3 1.124e+04 3.123e-10
 82.28641     13.9 1.113e+04 2.624e-10
 82.31601     15.7 1.115e+04 2.014e-10
 82.35696     17.2 1.109e+04 1.619e-10
 82.39786     18.7 1.116e+04 1.492e-10
 82.43881     20.1 1.121e+04 2.576e-10
 82.47285     22.6 1.115e+04 2.476e-10
 82.49332     22.2 1.122e+04 2.794e-10
 82.52076     24.9 1.121e+04 2.240e-10
 82.56171     27.0 1.143e+04 1.696e-10
 82.58339     28.7 1.155e+04 1.409e-10
 82.60387     28.2 1.135e+04 1.409e-10
 82.64361     30.1 1.136e+04 1.438e-10
 82.67976     31.6 1.151e+04 1.624e-10
 82.70024     31.1 1.145e+04 1.649e-10
 82.72551     32.7 1.156e+04 2.271e-10
 82.74845     34.4 1.170e+04 3.345e-10
 82.76892     34.3 1.182e+04 3.845e-10
 82.80741     35.9 1.213e+04 5.504e-10
 82.84836     37.3 1.249e+04 7.288e-10
 82.88668     38.3 1.289e+04 8.896e-10
 82.90715     38.4 1.285e+04 7.258e-10
 82.91351     38.8 1.339e+04 1.046e-09
 82.92365     38.5 1.319e+04 1.519e-09
 82.94031     38.5 1.353e+04 1.665e-09
 82.96078     38.2 1.394e+04 1.863e-09
 82.98126     37.9 1.428e+04 2.252e-09
 82.99584     37.9 1.441e+04 2.642e-09
 83.00452     38.0 1.420e+04 3.120e-09
 83.01042     38.4 1.445e+04 3.801e-09
 83.02221     38.8 1.446e+04 3.743e-09
 83.04268     39.5 1.430e+04 3.307e-09
 83.06316     40.1 1.403e+04 2.561e-09
 83.07846     40.1 1.351e+04 1.540e-09
 83.09857     40.5 1.316e+04 1.093e-09
 83.11407     40.6 1.355e+04 1.361e-09
 83.13501     40.5 1.281e+04 6.145e-10
 83.17596     40.5 1.188e+04 3.881e-10
 83.21692     41.4 1.155e+04 3.814e-10
 83.24362     43.2 1.142e+04 4.279e-10
 83.26409     43.9 1.135e+04 3.406e-10
 83.29882     46.0 1.135e+04 4.778e-10
 83.32098     48.3 1.147e+04 6.909e-10
 83.34146     48.7 1.193e+04 1.044e-09
 83.38072     51.0 1.229e+04 1.397e-09
 83.40868     53.2 1.254e+04 1.454e-09
 83.42915     54.3 1.200e+04 1.106e-09
 83.46262     56.5 1.210e+04 1.092e-09
 83.50357     58.6 1.222e+04 9.841e-10
 83.52790     60.3 1.233e+04 8.792e-10
 83.53804     60.1 1.291e+04 1.650e-09
 83.55456     61.1 1.290e+04 1.498e-09
 83.57354     62.0 1.300e+04 1.376e-09
 83.58377     62.7 1.219e+04 1.005e-09
 83.59551     63.4 1.241e+04 1.068e-09
 83.61598     64.0 1.270e+04 1.177e-09
 83.63116     64.4 1.299e+04 1.346e-09
 83.64140     64.1 1.360e+04 2.470e-09
 83.65606     64.3 1.391e+04 2.903e-09
 83.66630     65.0 1.324e+04 2.034e-09
 83.67741     65.2 1.353e+04 2.542e-09
 83.69789     65.5 1.381e+04 3.143e-09
 83.71836     65.8 1.402e+04 3.762e-09
 83.73462     66.0 1.430e+04 4.251e-09
 83.74461     65.8 1.489e+04 5.064e-09
 83.74883     66.3 1.450e+04 4.141e-09
 83.75931     66.3 1.461e+04 4.513e-09
 83.77979     66.2 1.482e+04 4.818e-09
 83.80026     66.0 1.508e+04 4.982e-09
 83.82074     65.6 1.510e+04 4.947e-09
 83.83136     65.2 1.498e+04 4.758e-09
 83.83846     66.2 1.513e+04 4.921e-09
 83.84831     65.3 1.470e+04 3.914e-09
 83.86169     64.8 1.422e+04 3.519e-09
 83.88216     64.5 1.362e+04 2.984e-09
 83.90264     64.3 1.305e+04 2.442e-09
 83.91389     64.0 1.262e+04 1.997e-09
 83.92413     64.1 1.302e+04 2.209e-09
 83.94153     63.8 1.253e+04 1.841e-09
 83.95177     63.3 1.258e+04 1.816e-09
 83.96406     63.2 1.238e+04 1.665e-09
 83.98454     63.2 1.221e+04 1.639e-09
 83.99642     63.6 1.211e+04 1.611e-09
 84.00665     63.7 1.215e+04 1.692e-09
 84.03582     64.2 1.199e+04 1.611e-09
 84.06890     65.1 1.158e+04 1.389e-09
 84.08938     65.6 1.102e+04 9.795e-10
 84.11782     66.4 1.027e+04 6.439e-10
 84.14864     67.2 9.692e+03 4.677e-10
 84.16912     67.1 9.812e+03 5.091e-10
 84.19972     68.2 9.342e+03 3.833e-10
 84.23396     69.8 8.986e+03 3.030e-10
 84.25443     70.1 8.611e+03 2.280e-10
 84.28162     72.1 8.482e+03 2.107e-10
 84.32257     74.2 8.316e+03 1.786e-10
 84.35556     76.4 8.121e+03 1.348e-10
 84.37603     76.4 8.153e+03 1.464e-10
 84.39902     78.6 7.961e+03 1.075e-10
 84.41949     79.3 7.963e+03 1.213e-10
 84.44542     81.4 7.777e+03 9.064e-11
 84.48637     83.6 7.618e+03 7.051e-11
 84.52732     85.7 7.498e+03 5.956e-11
 84.56247     88.0 7.401e+03 5.379e-11
 84.57874     88.4 7.469e+03 6.610e-11
 84.58455     89.0 7.479e+03 7.038e-11
 84.60922     91.3 7.394e+03 5.950e-11
 84.65017     93.5 7.315e+03 5.074e-11
 84.69112     95.6 7.238e+03 4.415e-11
 84.72913     97.8 7.157e+03 4.120e-11
 84.74960     98.5 7.186e+03 4.496e-11
 84.76938    100.7 7.162e+03 4.482e-11
 84.78986    100.8 7.194e+03 4.810e-11
 84.81397    103.1 7.195e+03 4.833e-11
 84.85493    105.4 7.205e+03 4.976e-11
 84.89419    107.8 7.244e+03 5.337e-11
 84.91466    108.5 7.277e+03 6.010e-11
 84.93683    110.8 7.342e+03 6.569e-11
 84.97630    113.1 7.432e+03 7.266e-11
 84.99677    113.1 7.537e+03 9.428e-11
 85.01873    115.2 7.679e+03 1.058e-10
 85.05924    117.2 7.828e+03 1.185e-10
 85.07972    117.6 7.919e+03 1.323e-10
 85.10063    119.5 8.066e+03 1.490e-10
 85.14158    121.3 8.208e+03 1.709e-10
 85.18253    123.1 8.389e+03 2.031e-10
 85.20369    124.8 8.623e+03 2.483e-10
 85.22416    124.2 9.210e+03 4.241e-10
 85.24468    125.0 9.288e+03 4.475e-10
 85.25482    124.7 9.327e+03 4.755e-10
 85.27447    125.5 9.425e+03 5.070e-10
 85.29495    126.2 9.609e+03 5.944e-10
 85.30695    126.9 9.795e+03 7.052e-10
 85.31719    126.7 9.993e+03 8.346e-10
 85.32711    127.5 1.012e+04 9.107e-10
 85.33734    127.4 1.019e+04 9.183e-10
 85.35637    128.1 1.033e+04 9.890e-10
 85.37685    128.9 1.046e+04 1.056e-09
 85.39732    129.6 1.050e+04 1.073e-09
 85.40963    130.3 1.049e+04 1.065e-09
 85.41248    129.9 1.045e+04 1.013e-09
 85.42065    129.3 1.014e+04 7.971e-10
 85.43827    129.8 1.011e+04 7.503e-10
 85.45875    130.2 1.007e+04 6.988e-10
 85.47922    130.5 1.002e+04 6.507e-10
 85.49216    130.6 9.948e+03 6.087e-10
 85.50240    129.6 9.799e+03 5.933e-10
 85.51387    129.7 9.805e+03 6.039e-10
 85.52410    128.5 9.568e+03 5.780e-10
 85.54065    128.7 9.752e+03 6.648e-10
 85.56112    129.0 1.003e+04 7.955e-10
 85.57469    129.3 1.035e+04 9.714e-10
 85.58493    128.7 1.052e+04 1.090e-09
 85.60207    129.2 1.092e+04 1.324e-09
 85.61732    129.7 1.127e+04 1.555e-09
 85.62756    129.2 1.136e+04 1.545e-09
 85.64302    129.6 1.159e+04 1.606e-09
 85.65722    129.8 1.162e+04 1.597e-09
 85.66746    128.6 1.154e+04 1.460e-09
 85.68397    128.4 1.152e+04 1.357e-09
 85.70445    128.2 1.135e+04 1.195e-09
 85.72078    127.8 1.106e+04 1.026e-09
 85.73102    126.5 1.061e+04 8.730e-10
 85.73975    126.3 1.022e+04 7.588e-10
 85.74999    125.3 9.714e+03 6.493e-10
 85.76587    125.5 9.488e+03 5.980e-10
 85.78635    125.8 9.384e+03 5.458e-10
 85.80682    126.0 9.327e+03 5.110e-10
 85.82228    126.5 9.316e+03 4.782e-10
 85.82945    126.1 9.248e+03 4.267e-10
 85.84481    126.0 9.133e+03 3.710e-10
 85.87868    126.7 9.211e+03 3.582e-10
 85.90500    127.2 9.264e+03 3.640e-10
 85.92548    126.4 8.785e+03 2.501e-10
 85.96058    127.1 8.993e+03 3.013e-10
 86.00153    127.8 9.246e+03 3.753e-10
 86.03135    128.3 9.547e+03 4.539e-10
 86.05182    127.7 9.373e+03 4.025e-10
 86.06996    127.7 9.518e+03 4.259e-10
 86.08010    127.9 9.602e+03 4.313e-10
 86.09348    127.8 9.655e+03 4.366e-10
 86.11395    127.6 9.700e+03 4.403e-10
 86.13443    127.3 9.768e+03 4.478e-10
 86.14485    126.9 9.863e+03 4.632e-10
 86.15257    126.5 9.779e+03 4.306e-10
 86.16263    126.5 9.739e+03 4.229e-10
 86.17538    126.3 9.853e+03 4.451e-10
 86.19585    125.7 1.014e+04 5.230e-10
 86.21633    125.3 1.032e+04 5.913e-10
 86.23492    124.9 1.065e+04 7.367e-10
 86.24652    125.5 1.055e+04 6.767e-10
 86.25874    125.5 1.036e+04 6.411e-10
 86.28818    124.9 1.061e+04 7.507e-10
 86.32913    124.2 1.064e+04 7.536e-10
 86.37008    123.8 1.054e+04 7.000e-10
 86.40017    123.5 1.033e+04 5.571e-10
 86.42065    122.7 9.701e+03 3.824e-10
 86.44518    122.5 9.347e+03 2.851e-10
 86.46565    122.7 9.692e+03 3.700e-10
 86.49294    122.7 9.624e+03 3.590e-10
 86.53389    122.9 9.621e+03 3.657e-10
 86.56523    123.3 9.650e+03 3.946e-10
 86.58570    123.5 9.141e+03 2.781e-10
 86.61579    124.2 9.215e+03 3.032e-10
 86.65209    125.1 9.338e+03 3.398e-10
 86.67257    125.0 9.409e+03 3.430e-10
 86.69769    125.9 9.523e+03 3.742e-10
 86.73028    126.8 9.678e+03 4.112e-10
 86.75076    127.5 9.526e+03 3.947e-10
 86.77959    128.5 9.844e+03 4.980e-10
 86.82054    129.4 1.028e+04 6.534e-10
 86.85900    130.3 1.079e+04 8.655e-10
 86.87948    129.5 1.107e+04 9.674e-10
 86.89534    129.9 1.144e+04 1.145e-09
 86.91582    130.9 1.140e+04 1.116e-09
 86.94339    130.9 1.143e+04 1.103e-09
 86.98434    130.8 1.136e+04 9.902e-10
 87.02529    131.0 1.105e+04 7.586e-10
 87.06040    131.3 1.060e+04 5.073e-10
 87.08055    132.2 1.050e+04 4.520e-10
 87.08639    131.2 1.017e+04 3.389e-10
 87.10719    131.9 9.769e+03 2.298e-10
 87.14814    132.8 9.450e+03 1.630e-10
 87.18909    134.1 9.431e+03 1.411e-10
 87.22545    135.7 9.431e+03 1.413e-10
 87.24593    136.9 9.424e+03 1.316e-10
 87.27099    138.6 9.434e+03 1.324e-10
 87.29331    140.4 9.478e+03 1.383e-10
 87.31378    140.2 9.406e+03 1.256e-10
 87.35289    142.0 9.433e+03 1.503e-10
 87.39051    143.9 9.472e+03 1.911e-10
 87.41099    144.8 9.398e+03 1.522e-10
 87.43479    146.7 9.483e+03 2.025e-10
 87.47574    148.6 9.595e+03 2.750e-10
 87.50022    150.4 9.765e+03 3.447e-10
 87.52070    150.3 9.497e+03 2.679e-10
 87.55557    151.7 9.510e+03 2.692e-10
 87.57604    152.7 9.496e+03 2.714e-10
 87.59859    153.8 9.487e+03 2.675e-10
 87.63954    154.7 9.419e+03 2.496e-10
 87.68049    155.7 9.279e+03 2.223e-10
 87.70714    156.6 9.113e+03 1.974e-10
 87.72679    156.9 8.947e+03 1.744e-10
 87.74110    157.5 9.013e+03 1.834e-10
 87.76239    158.5 8.929e+03 1.766e-10
 87.80334    159.4 8.858e+03 1.733e-10
 87.84429    160.5 8.768e+03 1.742e-10
 87.88524    161.5 8.756e+03 1.752e-10
 87.90616    162.5 8.746e+03 1.765e-10
 87.91449    162.7 8.686e+03 1.757e-10
 87.93453    163.3 8.753e+03 1.818e-10
 87.96714    164.2 8.747e+03 1.826e-10
 88.00809    165.1 8.746e+03 1.834e-10
 88.04905    166.0 8.739e+03 1.849e-10
 88.07121    167.0 8.730e+03 1.885e-10
 88.09169    167.2 8.738e+03 1.967e-10
 88.12097    168.5 8.763e+03 2.073e-10
 88.14144    168.6 8.916e+03 2.104e-10
 88.17190    170.2 9.030e+03 2.474e-10
 88.21285    172.3 9.450e+03 3.340e-10
 88.23456    173.2 9.633e+03 3.914e-10
 88.23741    173.2 9.654e+03 3.982e-10
 88.25665    173.7 9.799e+03 4.835e-10
 88.29475    175.7 1.044e+04 7.010e-10
 88.31870    175.9 1.088e+04 8.851e-10
 88.32884    176.1 1.076e+04 8.498e-10
 88.33792    176.3 1.108e+04 9.979e-10
 88.34816    176.1 1.148e+04 1.199e-09
 88.36621    176.3 1.175e+04 1.394e-09
 88.38669    176.5 1.194e+04 1.543e-09
 88.40113    176.8 1.207e+04 1.644e-09
 88.41137    176.8 1.181e+04 1.439e-09
 88.42764    176.7 1.195e+04 1.526e-09
 88.44138    176.6 1.211e+04 1.630e-09
 88.45162    176.5 1.255e+04 1.994e-09
 88.46859    176.3 1.283e+04 2.226e-09
 88.48366    175.9 1.315e+04 2.536e-09
 88.49390    175.8 1.289e+04 2.344e-09
 88.50954    175.5 1.313e+04 2.623e-09
 88.53002    175.1 1.330e+04 2.836e-09
 88.54484    174.8 1.342e+04 2.979e-09
 88.55508    174.9 1.356e+04 3.009e-09
 88.56619    174.8 1.350e+04 2.888e-09
 88.57642    175.2 1.320e+04 2.604e-09
 88.59144    175.0 1.321e+04 2.493e-09
 88.61192    174.8 1.327e+04 2.462e-09
 88.63239    174.5 1.337e+04 2.496e-09
 88.64830    174.2 1.354e+04 2.614e-09
 88.65438    174.5 1.291e+04 1.895e-09
 88.65895    174.5 1.283e+04 1.809e-09
 88.67334    174.3 1.308e+04 2.001e-09
 88.69382    174.1 1.349e+04 2.371e-09
 88.71429    174.0 1.403e+04 2.955e-09
 88.73124    173.8 1.457e+04 3.703e-09
 88.74148    174.3 1.410e+04 3.110e-09
 88.75175    174.1 1.440e+04 3.414e-09
 88.76199    174.4 1.396e+04 2.744e-09
 88.77572    174.0 1.414e+04 2.926e-09
 88.79619    173.5 1.414e+04 2.942e-09
 88.81377    172.9 1.406e+04 2.907e-09
 88.82401    173.0 1.406e+04 2.513e-09
 88.83714    172.2 1.402e+04 2.481e-09
 88.85521    171.4 1.394e+04 2.452e-09
 88.86545    171.7 1.414e+04 2.486e-09
 88.87809    170.9 1.404e+04 2.458e-09
 88.89630    170.2 1.389e+04 2.329e-09
 88.90654    169.7 1.455e+04 2.577e-09
 88.91904    169.2 1.422e+04 2.313e-09
 88.93952    169.0 1.385e+04 1.932e-09
 88.95867    169.0 1.353e+04 1.564e-09
 88.96890    169.3 1.382e+04 1.648e-09
 88.99080    169.8 1.371e+04 1.198e-09
 89.03185    170.8 1.248e+04 5.244e-10
 89.06155    171.9 1.116e+04 2.053e-10
 89.08203    171.5 1.113e+04 2.249e-10
 89.11375    173.0 1.052e+04 1.083e-10
 89.15470    175.3 1.034e+04 9.959e-11
 89.17601    178.4 1.027e+04 9.855e-11
 89.19649    178.9 1.027e+04 9.735e-11
 89.22661    182.2 1.025e+04 9.780e-11
 89.24708    182.7 1.041e+04 1.080e-10
 89.27755    186.0 1.036e+04 1.108e-10
 89.31850    189.5 1.032e+04 1.242e-10
 89.35945    192.9 1.039e+04 1.482e-10
 89.38293    196.3 1.054e+04 1.829e-10
 89.39467    196.9 1.075e+04 2.180e-10
 89.41214    197.5 1.095e+04 2.268e-10
 89.44135    200.9 1.108e+04 2.679e-10
 89.48230    204.0 1.122e+04 3.205e-10
 89.51292    205.3 1.119e+04 3.491e-10
 89.53330    206.9 1.114e+04 3.843e-10
 89.55377    208.9 1.113e+04 4.369e-10
 89.56676    211.1 1.117e+04 4.936e-10
 89.57700    211.6 1.118e+04 4.972e-10
 89.58965    213.5 1.126e+04 5.424e-10
 89.59989    213.8 1.130e+04 5.899e-10
 89.61520    215.6 1.134e+04 6.127e-10
 89.63567    217.4 1.138e+04 6.380e-10
 89.64929    219.2 1.147e+04 6.751e-10
 89.65953    219.6 1.147e+04 6.985e-10
 89.67662    221.3 1.158e+04 7.579e-10
 89.69311    222.9 1.181e+04 8.574e-10
 89.70334    222.8 1.177e+04 8.636e-10
 89.71757    224.2 1.227e+04 1.039e-09
 89.73182    225.5 1.342e+04 1.403e-09
 89.74206    226.4 1.265e+04 1.366e-09
 89.75852    227.6 1.354e+04 1.866e-09
 89.77900    228.8 1.448e+04 2.601e-09
 89.79656    229.3 1.491e+04 3.114e-09
 89.80675    228.8 1.507e+04 3.382e-09
 89.81425    228.7 1.579e+04 3.885e-09
 89.81937    230.3 1.526e+04 3.888e-09
 89.82497    230.1 1.601e+04 4.471e-09
 89.83521    229.0 1.784e+04 5.894e-09
 89.84544    227.4 1.995e+04 8.909e-09
 89.85331    225.6 2.142e+04 1.480e-08
 89.85826    224.9 2.132e+04 1.757e-08
 89.86063    227.3 2.033e+04 1.280e-08
 89.86592    225.8 2.131e+04 2.107e-08
 89.87616    224.7 2.183e+04 3.455e-08
 89.88639    223.6 2.209e+04 5.484e-08
 89.89663    222.4 2.246e+04 7.800e-08
 89.90190    220.9 2.310e+04 9.047e-08
 89.90519    222.4 2.242e+04 9.265e-08
 89.91016    222.6 2.355e+04 7.109e-08
 89.91711    220.6 2.393e+04 6.910e-08
 89.92734    218.1 2.461e+04 6.001e-08
 89.93758    214.9 2.550e+04 4.162e-08
 89.94316    210.9 2.602e+04 2.375e-08
 89.94828    213.3 2.606e+04 4.223e-08
 89.95677    208.4 2.670e+04 2.164e-08
 89.96189    204.9 2.488e+04 1.014e-08
 89.96830    200.1 2.240e+04 6.177e-09
 89.97936    194.3 2.140e+04 3.945e-09
 89.98959    192.0 2.191e+04 3.600e-09
 90.00343    187.6 2.422e+04 2.382e-09
 90.01371    184.0 1.616e+04 2.025e-09
 90.02470    177.4 1.189e+04 1.056e-09
 90.04517    175.2 1.046e+04 6.521e-10
 90.06193    174.9 1.046e+04 5.371e-10
 90.07217    172.1 1.006e+04 4.304e-10
 90.08612    172.9 9.869e+03 4.099e-10
 90.10660    174.2 9.861e+03 4.150e-10
 90.11717    175.3 9.729e+03 3.978e-10
 90.12741    175.9 9.700e+03 3.948e-10
 90.14446    176.4 9.568e+03 3.778e-10
 90.15470    176.5 9.485e+03 3.680e-10
 90.17836    177.5 9.468e+03 3.640e-10
 90.21059    179.6 9.414e+03 3.585e-10
 90.22860    180.9 9.313e+03 3.512e-10
 90.23742    180.8 9.356e+03 3.691e-10
 90.26036    183.1 9.342e+03 3.716e-10
 90.30131    185.5 9.363e+03 3.796e-10
 90.34226    187.7 9.483e+03 4.029e-10
 90.38201    189.4 9.593e+03 4.362e-10
 90.40248    190.8 9.492e+03 4.076e-10
 90.41382    192.0 9.569e+03 4.344e-10
 90.42754    193.1 9.685e+03 4.728e-10
 90.43788    193.5 9.638e+03 4.516e-10
 90.45477    194.6 9.842e+03 5.201e-10
 90.47458    195.8 1.007e+04 6.087e-10
 90.48481    196.0 9.787e+03 4.975e-10
 90.49563    197.4 9.953e+03 5.585e-10
 90.51610    198.7 1.015e+04 6.389e-10
 90.53100    199.9 1.034e+04 7.242e-10
 90.54124    200.1 1.020e+04 6.640e-10
 90.55705    201.3 1.032e+04 7.250e-10
 90.57753    203.0 1.009e+04 5.727e-10
 90.59800    204.2 1.022e+04 6.240e-10
 90.61848    205.4 1.030e+04 6.649e-10
 90.63446    206.7 1.036e+04 6.935e-10
 90.64470    206.7 1.009e+04 5.855e-10
 90.64987    208.1 1.012e+04 5.968e-10
 90.66011    208.3 9.859e+03 4.959e-10
 90.67990    209.8 9.916e+03 5.194e-10
 90.70038    211.1 9.963e+03 5.385e-10
 90.72085    212.4 1.001e+04 5.495e-10
 90.73240    213.8 1.005e+04 5.573e-10
 90.73922    214.1 9.931e+03 5.194e-10
 90.74815    214.0 9.755e+03 4.642e-10
 90.76180    215.5 9.820e+03 4.926e-10
 90.78228    217.1 9.893e+03 5.306e-10
 90.80275    218.5 9.979e+03 5.670e-10
 90.81493    219.9 1.007e+04 5.949e-10
 90.82516    220.5 1.013e+04 6.346e-10
 90.84137    221.8 1.024e+04 6.811e-10
 90.85161    222.1 1.010e+04 6.365e-10
 90.86418    223.4 1.021e+04 6.698e-10
 90.88465    224.6 1.029e+04 6.928e-10
 90.89745    225.8 1.036e+04 7.077e-10
 90.90769    226.5 1.061e+04 8.450e-10
 90.92561    227.7 1.070e+04 8.833e-10
 90.94483    228.9 1.080e+04 8.926e-10
 90.95507    229.0 1.069e+04 8.477e-10
 90.96656    230.1 1.072e+04 8.463e-10
 90.97998    231.2 1.073e+04 8.329e-10
 90.99022    231.9 1.129e+04 1.139e-09
 91.00751    233.0 1.131e+04 1.125e-09
 91.02798    233.9 1.130e+04 1.078e-09
 91.04829    234.8 1.119e+04 9.919e-10
 91.05853    234.9 1.115e+04 1.018e-09
 91.06251    235.8 1.098e+04 9.312e-10
 91.07275    236.5 1.187e+04 1.428e-09
 91.08941    237.3 1.169e+04 1.297e-09
 91.10988    238.1 1.140e+04 1.118e-09
 91.13036    238.8 1.101e+04 9.241e-10
 91.14504    239.6 1.055e+04 7.446e-10
 91.15528    240.4 1.153e+04 1.188e-09
 91.16198    241.2 1.100e+04 9.255e-10
 91.17222    241.6 1.097e+04 9.556e-10
 91.19178    242.5 1.042e+04 7.422e-10
 91.21226    243.3 9.922e+03 5.921e-10
 91.22757    243.9 9.543e+03 4.981e-10
 91.23781    244.7 1.028e+04 6.959e-10
 91.25321    245.4 9.980e+03 6.060e-10
 91.26544    246.1 9.754e+03 5.584e-10
 91.27568    246.9 9.702e+03 5.557e-10
 91.29416    247.8 9.592e+03 5.392e-10
 91.31010    248.7 9.490e+03 5.358e-10
 91.32033    250.1 1.015e+04 7.070e-10
 91.33511    251.1 1.017e+04 7.136e-10
 91.35558    251.9 1.021e+04 7.275e-10
 91.36890    252.5 1.020e+04 7.338e-10
 91.37913    254.6 1.022e+04 7.507e-10
 91.39262    255.1 1.028e+04 7.556e-10
 91.40281    255.9 1.049e+04 7.929e-10
 91.41179    255.5 1.049e+04 7.753e-10
 91.42053    254.9 1.048e+04 7.604e-10
 91.42565    255.7 1.057e+04 7.577e-10
 91.43227    254.6 1.055e+04 7.375e-10
 91.43891    253.4 1.065e+04 7.355e-10
 91.44403    251.1 1.723e+04 7.875e-10
 91.45274    240.3 2.725e+04 1.224e-09
 91.46298    221.8 3.590e+04 5.238e-09
 91.47226    205.1 3.157e+04 3.817e-08
 91.47738    196.0 2.918e+04 1.012e-07
 91.48017    193.4 2.475e+04 3.168e-07
 91.48529    194.1 2.144e+04 5.066e-07
 91.49369    194.5 2.120e+04 4.929e-07
 91.50393    195.1 2.117e+04 4.050e-07
 91.51417    195.3 2.222e+04 2.563e-07
 91.52144    194.5 2.433e+04 1.285e-07
 91.52614    195.4 4.000e+04 1.265e-08
 91.52910    189.0 4.653e+04 6.465e-09
 91.53464    187.1 4.693e+04 4.214e-09
 91.54488    185.3 4.248e+04 3.762e-09
 91.55512    184.4 3.830e+04 3.545e-09
 91.56270    184.2 3.526e+04 3.365e-09
 91.56787    182.6 2.201e+04 1.912e-09
 91.57581    182.6 1.610e+04 2.217e-09
 91.58605    182.7 1.713e+04 2.403e-09
 91.60128    184.6 1.544e+04 2.583e-09
 91.62176    186.4 1.487e+04 2.893e-09
 91.64021    188.4 1.519e+04 3.370e-09
 91.65045    188.9 1.384e+04 2.201e-09
 91.66271    190.5 1.454e+04 2.560e-09
 91.67927    192.0 1.517e+04 2.959e-09
 91.68951    192.3 1.472e+04 2.719e-09
 91.70366    193.7 1.500e+04 3.009e-09
 91.72274    195.1 1.501e+04 3.257e-09
 91.73298    195.4 1.349e+04 1.991e-09
 91.74461    196.7 1.374e+04 2.127e-09
 91.76509    198.1 1.395e+04 2.170e-09
 91.78273    199.5 1.397e+04 2.166e-09
 91.79296    199.8 1.347e+04 1.958e-09
 91.80527    201.1 1.343e+04 1.928e-09
 91.81550    201.4 1.209e+04 1.204e-09
 91.82651    202.8 1.215e+04 1.201e-09
 91.84699    204.3 1.225e+04 1.200e-09
 91.86746    205.8 1.238e+04 1.207e-09
 91.88618    207.2 1.250e+04 1.235e-09
 91.89628    207.3 1.234e+04 1.192e-09
 91.89803    207.7 1.122e+04 7.797e-10
 91.90841    209.1 1.147e+04 8.292e-10
 91.92889    210.4 1.177e+04 9.121e-10
 91.94936    211.6 1.208e+04 1.046e-09
 91.96984    212.7 1.237e+04 1.248e-09
 91.98056    213.7 1.262e+04 1.530e-09
 91.99013    214.2 1.221e+04 1.183e-09
 91.99988    214.0 1.245e+04 1.219e-09
 92.01079    214.9 1.287e+04 1.554e-09
 92.03126    215.9 1.320e+04 1.957e-09
 92.05174    216.9 1.352e+04 2.387e-09
 92.06309    217.9 1.381e+04 2.828e-09
 92.07333    218.2 1.397e+04 2.740e-09
 92.09269    218.9 1.436e+04 3.360e-09
 92.10334    219.2 1.470e+04 4.081e-09
 92.11357    219.0 1.412e+04 3.473e-09
 92.13364    219.1 1.427e+04 4.000e-09
 92.14562    218.9 1.453e+04 4.740e-09
 92.15585    220.0 1.410e+04 3.787e-09
 92.17459    219.7 1.461e+04 4.621e-09
 92.19506    219.3 1.540e+04 5.977e-09
 92.20679    218.8 1.641e+04 7.893e-09
 92.21703    218.7 1.594e+04 6.549e-09
 92.22815    218.0 1.704e+04 7.929e-09
 92.23838    214.8 1.996e+04 4.551e-09
 92.25649    213.0 2.032e+04 4.697e-09
 92.27696    211.0 2.011e+04 4.597e-09
 92.29744    209.2 1.907e+04 4.174e-09
 92.31025    207.6 1.746e+04 3.614e-09
 92.31325    208.6 1.686e+04 3.434e-09
 92.32091    205.8 1.390e+04 2.197e-09
 92.33839    205.9 1.392e+04 2.242e-09
 92.35886    206.2 1.414e+04 2.252e-09
 92.37934    206.6 1.421e+04 2.235e-09
 92.39320    207.2 1.430e+04 2.154e-09
 92.40344    205.7 1.326e+04 1.570e-09
 92.41371    206.0 1.307e+04 1.424e-09
 92.42394    206.9 1.298e+04 1.352e-09
 92.44076    207.2 1.271e+04 1.195e-09
 92.46124    207.7 1.242e+04 1.040e-09
 92.47573    208.4 1.212e+04 8.976e-10
 92.48597    207.5 1.168e+04 8.278e-10
 92.50219    208.4 1.146e+04 7.307e-10
 92.51716    209.2 1.125e+04 6.462e-10
 92.52740    209.6 1.124e+04 6.283e-10
 92.54314    210.5 1.110e+04 5.697e-10
 92.55826    211.3 1.100e+04 5.222e-10
 92.56850    211.2 1.088e+04 4.823e-10
 92.58409    212.1 1.076e+04 4.445e-10
 92.60457    213.0 1.066e+04 4.153e-10
 92.62062    214.0 1.057e+04 3.955e-10
 92.63086    214.1 1.039e+04 3.841e-10
 92.64079    215.0 1.031e+04 3.794e-10
 92.65102    215.1 1.020e+04 3.250e-10
 92.66599    216.2 1.020e+04 3.275e-10
 92.68647    217.2 1.022e+04 3.338e-10
 92.70694    218.1 1.025e+04 3.438e-10
 92.72332    219.0 1.031e+04 3.572e-10
 92.73031    219.3 1.025e+04 3.023e-10
 92.73441    219.6 1.037e+04 3.292e-10
 92.74789    220.7 1.042e+04 3.504e-10
 92.76837    221.8 1.047e+04 3.746e-10
 92.78884    223.0 1.049e+04 4.026e-10
 92.80584    224.3 1.050e+04 4.347e-10
 92.81608    224.2 1.042e+04 3.632e-10
 92.82754    225.7 1.040e+04 3.939e-10
 92.83777    225.7 1.050e+04 3.960e-10
 92.85027    227.0 1.065e+04 4.365e-10
 92.87074    228.2 1.093e+04 4.932e-10
 92.88837    229.1 1.139e+04 5.838e-10
 92.89861    229.8 1.096e+04 4.867e-10
 92.91169    230.9 1.121e+04 5.489e-10
 92.93099    231.7 1.164e+04 6.462e-10
 92.94123    231.0 1.247e+04 8.447e-10
 92.95264    231.7 1.322e+04 1.140e-09
 92.97090    232.5 1.384e+04 1.603e-09
 92.98114    233.5 1.236e+04 9.548e-10
 92.99359    234.3 1.318e+04 1.244e-09
 93.01407    235.2 1.391e+04 1.704e-09
 93.03445    236.1 1.434e+04 2.346e-09
 93.05334    237.1 1.452e+04 4.101e-09
 93.06367    237.5 1.493e+04 2.182e-09
 93.07549    238.4 1.511e+04 3.061e-09
 93.09597    239.5 1.501e+04 4.188e-09
 93.11644    240.9 1.493e+04 5.530e-09
 93.13596    242.4 1.493e+04 6.721e-09
 93.14619    241.6 1.606e+04 3.948e-09
 93.14815    242.9 1.574e+04 5.475e-09
 93.15838    243.0 1.609e+04 7.787e-09
 93.17787    244.3 1.592e+04 8.766e-09
 93.19834    245.6 1.587e+04 8.798e-09
 93.21849    246.7 1.570e+04 8.644e-09
 93.22872    246.6 1.679e+04 6.750e-09
 93.23929    247.9 1.625e+04 7.646e-09
 93.25160    249.2 1.603e+04 8.116e-09
 93.26184    248.6 1.682e+04 9.484e-09
 93.28024    249.7 1.693e+04 9.398e-09
 93.30072    250.8 1.703e+04 9.208e-09
 93.31125    251.8 1.708e+04 8.888e-09
 93.32149    253.1 1.842e+04 9.727e-09
 93.34167    254.3 1.829e+04 9.695e-09
 93.35506    255.4 1.820e+04 9.374e-09
 93.36530    254.9 1.857e+04 9.191e-09
 93.38262    255.9 1.837e+04 8.001e-09
 93.39378    257.0 1.794e+04 6.908e-09
 93.40402    257.5 1.863e+04 7.173e-09
 93.42357    258.6 1.844e+04 6.169e-09
 93.44405    259.7 1.821e+04 5.184e-09
 93.45852    260.8 1.783e+04 4.416e-09
 93.46875    260.3 1.779e+04 4.356e-09
 93.47631    261.5 1.698e+04 3.984e-09
 93.48655    262.0 1.774e+04 3.702e-09
 93.50547    263.1 1.778e+04 3.203e-09
 93.52595    264.2 1.747e+04 2.948e-09
 93.54642    265.3 1.676e+04 2.945e-09
 93.55884    266.5 1.616e+04 3.020e-09
 93.56415    266.7 1.622e+04 2.279e-09
 93.57221    266.5 1.693e+04 3.142e-09
 93.58737    267.7 1.685e+04 3.155e-09
 93.60785    268.9 1.669e+04 3.212e-09
 93.62832    270.3 1.639e+04 3.358e-09
 93.64136    271.6 1.606e+04 3.528e-09
 93.65160    272.1 1.638e+04 2.990e-09
 93.66543    273.4 1.646e+04 3.029e-09
 93.67567    273.4 1.760e+04 4.538e-09
 93.68975    274.7 1.752e+04 4.513e-09
 93.71022    276.2 1.728e+04 4.408e-09
 93.72389    277.6 1.689e+04 4.255e-09
 93.73413    278.1 1.748e+04 4.442e-09
 93.75117    279.5 1.783e+04 4.207e-09
 93.76889    281.0 1.797e+04 4.112e-09
 93.77913    280.9 1.965e+04 5.921e-09
 93.79212    282.4 1.938e+04 5.875e-09
 93.80642    283.7 1.918e+04 5.976e-09
 93.81149    283.6 1.910e+04 6.720e-09
 93.81762    284.4 1.944e+04 6.628e-09
 93.82564    285.1 1.992e+04 6.589e-09
 93.83076    285.0 2.009e+04 7.084e-09
 93.83809    285.7 2.047e+04 7.248e-09
 93.84759    286.3 2.083e+04 7.571e-09
 93.85271    286.2 2.017e+04 7.268e-09
 93.85857    286.8 2.044e+04 7.540e-09
 93.86881    287.5 2.064e+04 7.927e-09
 93.87737    288.3 2.078e+04 8.471e-09
 93.88249    288.4 2.153e+04 1.061e-08
 93.88885    289.2 2.163e+04 1.150e-08
 93.89397    289.6 2.222e+04 1.280e-08
 93.89952    290.4 2.257e+04 1.383e-08
 93.90976    291.1 2.285e+04 1.520e-08
 93.91999    291.8 2.309e+04 1.693e-08
 93.92910    292.4 2.329e+04 1.900e-08
 93.93410    292.3 2.368e+04 2.239e-08
 93.93524    292.9 2.356e+04 2.102e-08
 93.94047    293.3 2.390e+04 2.378e-08
 93.95071    293.8 2.414e+04 2.676e-08
 93.96094    294.4 2.434e+04 3.011e-08
 93.97118    294.9 2.463e+04 3.422e-08
 93.97650    295.4 2.511e+04 3.942e-08
 93.98102    296.9 2.454e+04 3.237e-08
 93.98594    297.0 2.483e+04 3.732e-08
 93.99166    297.5 2.552e+04 4.594e-08
 94.00190    298.0 2.627e+04 5.653e-08
 94.01213    298.2 2.661e+04 6.959e-08
 94.01776    298.2 2.672e+04 8.540e-08
 94.02288    300.6 2.619e+04 6.504e-08
 94.03255    300.6 2.662e+04 8.179e-08
 94.03767    299.9 2.663e+04 9.336e-08
 94.04285    299.5 2.655e+04 1.152e-07
 94.05308    299.6 2.656e+04 1.214e-07
 94.05903    300.1 2.666e+04 1.166e-07
 94.06415    302.8 2.564e+04 1.296e-07
 94.07356    303.5 2.508e+04 1.606e-07
 94.08380    304.3 2.454e+04 1.974e-07
 94.08940    304.9 2.464e+04 2.052e-07
 94.09452    304.3 2.521e+04 1.631e-07
 94.10029    304.5 2.582e+04 1.320e-07
 94.10541    309.3 2.267e+04 2.889e-07
 94.11451    310.5 2.222e+04 3.384e-07
 94.12475    311.3 2.226e+04 3.335e-07
 94.13498    311.4 2.253e+04 3.008e-07
 94.14113    311.0 2.343e+04 2.290e-07
 94.14258    309.3 2.610e+04 1.063e-07
 94.14667    315.0 2.141e+04 4.277e-07
 94.15546    313.7 2.221e+04 3.506e-07
 94.16570    311.3 2.395e+04 2.053e-07
 94.17593    308.3 2.749e+04 8.054e-08
 94.18282    305.1 3.539e+04 1.968e-08
 94.18794    310.3 2.429e+04 1.424e-07
 94.19286    306.6 3.107e+04 4.021e-08
 94.19798    303.5 4.611e+04 8.280e-09
 94.20665    294.9 7.702e+04 1.059e-09
 94.21901    277.2 7.392e+04 4.140e-10
 94.22925    279.1 7.966e+04 1.459e-09
 94.23736    270.2 7.452e+04 1.403e-09
 94.24459    264.5 6.352e+04 1.600e-09
 94.24971    261.1 5.059e+04 1.616e-09
 94.25783    258.6 3.702e+04 1.944e-09
 94.26535    257.4 2.532e+04 2.416e-09
 94.27047    244.6 6.583e+04 7.825e-09
 94.27831    251.4 5.370e+04 4.640e-09
 94.28855    253.7 2.419e+04 6.269e-09
 94.29632    252.9 1.904e+04 7.954e-09
 94.30143    251.4 1.816e+04 1.069e-08
 94.30661    252.3 1.840e+04 1.355e-08
 94.31173    250.7 2.014e+04 1.706e-08
 94.31926    251.7 1.956e+04 1.966e-08
 94.32950    252.8 1.968e+04 2.247e-08
 94.33973    253.9 2.021e+04 2.367e-08
 94.34788    254.8 2.043e+04 2.347e-08
 94.35107    252.6 2.037e+04 2.495e-08
 94.35316    252.5 2.029e+04 2.061e-08
 94.36021    253.8 2.043e+04 1.975e-08
 94.37045    254.7 2.034e+04 1.814e-08
 94.38407    256.9 2.001e+04 1.694e-08
 94.39436    254.4 1.962e+04 1.168e-08
 94.39987    255.2 1.809e+04 6.421e-09
 94.41011    252.8 1.655e+04 2.748e-09
 94.42685    252.0 1.392e+04 1.324e-09
 94.44733    250.8 1.156e+04 7.431e-10
 94.46665    250.9 1.091e+04 5.430e-10
 94.47689    249.7 1.149e+04 5.079e-10
 94.48828    251.1 1.152e+04 4.531e-10
 94.51909    252.3 1.067e+04 3.925e-10
 94.54937    254.6 1.009e+04 3.489e-10
 94.56985    254.4 1.047e+04 3.196e-10
 94.59674    256.7 9.677e+03 2.805e-10
 94.61722    256.9 9.807e+03 2.743e-10
 94.64204    259.2 9.059e+03 2.531e-10
 94.68299    261.2 8.903e+03 2.342e-10
 94.71443    263.2 8.877e+03 2.181e-10
 94.73490    262.7 9.023e+03 2.332e-10
 94.76489    265.0 9.025e+03 2.339e-10
 94.80366    267.0 9.053e+03 2.374e-10
 94.82413    265.8 9.087e+03 2.470e-10
 94.84679    267.9 9.111e+03 2.495e-10
 94.87949    269.6 9.140e+03 2.521e-10
 94.89996    268.3 9.643e+03 3.553e-10
 94.92869    270.0 9.718e+03 3.649e-10
 94.96964    271.6 9.699e+03 3.629e-10
 95.01057    273.1 9.654e+03 3.488e-10
 95.04452    273.7 9.277e+03 2.827e-10
 95.06502    272.1 9.749e+03 3.504e-10
 95.09249    273.1 9.588e+03 3.177e-10
 95.13344    274.0 9.469e+03 3.053e-10
 95.17439    274.7 9.481e+03 3.069e-10
 95.20960    275.2 9.594e+03 3.224e-10
 95.22998    274.5 9.807e+03 3.756e-10
 95.23777    274.9 9.871e+03 3.890e-10
 95.24800    275.0 9.864e+03 3.910e-10
 95.26633    275.3 9.935e+03 4.056e-10
 95.28681    275.7 1.001e+04 4.249e-10
 95.30217    276.1 1.012e+04 4.566e-10
 95.31241    276.4 1.017e+04 4.913e-10
 95.32776    276.5 1.027e+04 5.103e-10
 95.34122    276.5 1.040e+04 5.341e-10
 95.35146    276.7 1.046e+04 5.515e-10
 95.36871    276.7 1.067e+04 5.987e-10
 95.38470    276.5 1.093e+04 6.716e-10
 95.39493    277.0 1.070e+04 5.962e-10
 95.40966    276.6 1.097e+04 6.659e-10
 95.43013    275.9 1.129e+04 7.668e-10
 95.44468    274.7 1.166e+04 9.068e-10
 95.45492    274.7 1.205e+04 1.099e-09
 95.46723    272.7 1.269e+04 1.413e-09
 95.47746    273.2 1.289e+04 1.396e-09
 95.49156    270.4 1.382e+04 1.964e-09
 95.51203    267.4 1.454e+04 2.570e-09
 95.53251    264.2 1.478e+04 2.783e-09
 95.54814    261.0 1.475e+04 2.754e-09
 95.55515    260.5 1.568e+04 3.659e-09
 95.55999    260.4 1.704e+04 5.169e-09
 95.57346    257.5 1.652e+04 4.280e-09
 95.59393    254.7 1.545e+04 2.952e-09
 95.61441    251.4 1.414e+04 2.063e-09
 95.63228    247.8 1.376e+04 1.934e-09
 95.64252    248.0 1.476e+04 2.592e-09
 95.65159    244.4 1.470e+04 2.623e-09
 95.66183    243.8 1.438e+04 2.376e-09
 95.67583    241.3 1.443e+04 2.777e-09
 95.69631    239.7 1.498e+04 3.739e-09
 95.71481    238.5 1.553e+04 4.658e-09
 95.72505    238.0 1.545e+04 4.238e-09
 95.73726    236.4 1.547e+04 4.222e-09
 95.75505    235.0 1.531e+04 3.901e-09
 95.76529    235.6 1.544e+04 4.153e-09
 95.77821    234.4 1.497e+04 3.105e-09
 95.79734    233.3 1.422e+04 1.887e-09
 95.80758    232.1 1.366e+04 1.410e-09
 95.82950    230.1 1.275e+04 7.989e-10
 95.85870    228.0 1.093e+04 3.643e-10
 95.87846    229.8 1.063e+04 3.227e-10
 95.89030    229.0 1.080e+04 3.988e-10
 95.91149    229.2 1.019e+04 3.089e-10
 95.95244    229.9 1.014e+04 3.060e-10
 95.99339    230.9 1.015e+04 3.119e-10
 96.03434    231.8 1.028e+04 3.460e-10
 96.05536    232.3 1.053e+04 4.097e-10
 96.06616    233.7 1.070e+04 5.041e-10
 96.08609    235.0 1.072e+04 5.114e-10
 96.11625    235.4 1.101e+04 6.047e-10
 96.15720    235.5 1.122e+04 6.616e-10
 96.19815    235.2 1.124e+04 6.630e-10
 96.22041    234.6 1.121e+04 6.466e-10
 96.24089    236.5 1.129e+04 6.991e-10
 96.27253    235.9 1.114e+04 6.187e-10
 96.29301    236.4 1.138e+04 7.236e-10
 96.32100    235.6 1.111e+04 5.931e-10
 96.36195    234.6 1.076e+04 4.700e-10
 96.38547    233.8 1.041e+04 3.877e-10
 96.40595    235.8 1.051e+04 3.931e-10
 96.44385    235.3 1.017e+04 3.473e-10
 96.47945    235.6 1.008e+04 3.400e-10
 96.49992    235.5 1.009e+04 3.444e-10
 96.52575    235.8 1.007e+04 3.380e-10
 96.55053    236.1 1.001e+04 3.186e-10
 96.57100    237.8 1.011e+04 3.538e-10
 96.60765    238.3 1.006e+04 3.370e-10
 96.64860    239.0 9.967e+03 2.960e-10
 96.68636    239.7 9.832e+03 2.406e-10
 96.70684    239.5 9.791e+03 2.220e-10
 96.71558    240.0 9.630e+03 1.743e-10
 96.73606    241.4 1.014e+04 3.152e-10
 96.77145    241.8 1.006e+04 2.741e-10
 96.81240    242.0 9.953e+03 2.430e-10
 96.85335    242.4 9.826e+03 2.187e-10
 96.88064    242.8 9.693e+03 1.955e-10
 96.90009    243.9 1.030e+04 3.414e-10
 96.91375    243.9 1.031e+04 3.504e-10
 96.93525    244.4 9.984e+03 2.547e-10
 96.97620    245.1 9.668e+03 1.740e-10
 97.01715    245.9 9.387e+03 1.173e-10
 97.04570    246.8 9.181e+03 8.928e-11
 97.06617    247.4 9.204e+03 9.054e-11
 97.09905    248.5 9.175e+03 8.674e-11
 97.12067    249.9 9.174e+03 8.680e-11
 97.14114    250.1 9.161e+03 8.163e-11
 97.18095    251.6 9.173e+03 8.468e-11
 97.21075    252.9 9.238e+03 9.270e-11
 97.23123    253.5 9.278e+03 9.438e-11
 97.26285    254.5 9.363e+03 1.049e-10
 97.30380    255.2 9.408e+03 1.119e-10
 97.32758    255.6 9.409e+03 1.120e-10
 97.34806    255.8 9.477e+03 1.126e-10
 97.37581    256.0 9.469e+03 1.105e-10
 97.39629    256.7 9.465e+03 1.109e-10
 97.42665    257.1 9.364e+03 9.892e-11
 97.46760    257.6 9.212e+03 8.422e-11
 97.50855    258.2 9.072e+03 7.513e-11
 97.53450    259.0 9.044e+03 7.441e-11
 97.54633    259.1 9.123e+03 8.461e-11
 97.56134    259.8 9.138e+03 8.455e-11
 97.59045    260.5 9.137e+03 8.681e-11
 97.63140    261.2 9.166e+03 9.523e-11
 97.67235    261.9 9.244e+03 1.095e-10
 97.70592    262.5 9.339e+03 1.264e-10
 97.72640    262.6 9.375e+03 1.255e-10
 97.74141    263.2 9.432e+03 1.354e-10
 97.76189    262.9 9.514e+03 1.460e-10
 97.79521    263.2 9.556e+03 1.508e-10
 97.83616    263.5 9.598e+03 1.545e-10
 97.87098    263.6 9.648e+03 1.603e-10
 97.89146    263.4 9.682e+03 1.635e-10
 97.91806    263.3 9.809e+03 1.806e-10
 97.94832    263.0 9.992e+03 2.112e-10
 97.96880    261.6 1.019e+04 2.452e-10
 97.99996    261.4 1.036e+04 2.883e-10
 98.03604    261.4 1.049e+04 3.249e-10
 98.05651    260.6 1.069e+04 3.851e-10
 98.08186    260.9 1.084e+04 3.903e-10
 98.12281    261.3 1.083e+04 3.762e-10
 98.15524    261.5 1.077e+04 3.283e-10
 98.17571    260.8 1.049e+04 2.513e-10
 98.20109    260.5 1.022e+04 1.964e-10
 98.22157    259.2 1.031e+04 2.262e-10
 98.24566    259.2 9.995e+03 1.993e-10
 98.28661    259.6 9.912e+03 1.959e-10
 98.32756    260.4 9.901e+03 1.967e-10
 98.36215    261.5 9.890e+03 2.032e-10
 98.38027    261.4 9.941e+03 2.381e-10
 98.38663    260.6 1.000e+04 2.518e-10
 98.40946    261.7 1.010e+04 2.759e-10
 98.45041    262.9 1.023e+04 3.090e-10
 98.49136    264.1 1.043e+04 3.529e-10
 98.53121    265.3 1.061e+04 3.964e-10
 98.55168    264.3 1.060e+04 3.500e-10
 98.56907    264.9 1.077e+04 3.875e-10
 98.58954    264.1 1.070e+04 3.678e-10
 98.60388    265.6 1.086e+04 4.366e-10
 98.62378    266.5 1.105e+04 4.981e-10
 98.63401    265.4 1.090e+04 4.417e-10
 98.64473    266.1 1.112e+04 5.050e-10
 98.66520    266.5 1.135e+04 5.712e-10
 98.68257    266.7 1.155e+04 6.352e-10
 98.69281    266.5 1.158e+04 6.675e-10
 98.70615    266.6 1.171e+04 7.313e-10
 98.71654    266.8 1.180e+04 7.887e-10
 98.72678    265.9 1.162e+04 7.534e-10
 98.74710    266.1 1.170e+04 8.228e-10
 98.76758    266.3 1.178e+04 8.934e-10
 98.78602    266.6 1.185e+04 9.654e-10
 98.79626    266.8 1.179e+04 9.362e-10
 98.79907    267.2 1.184e+04 9.909e-10
 98.80931    266.5 1.152e+04 8.254e-10
 98.82900    267.0 1.158e+04 8.345e-10
 98.84948    267.4 1.168e+04 8.503e-10
 98.86995    267.9 1.185e+04 8.793e-10
 98.88160    268.3 1.212e+04 9.290e-10
 98.89089    267.1 1.154e+04 5.350e-10
 98.89972    266.7 1.120e+04 4.201e-10
 98.91090    266.8 1.127e+04 3.988e-10
 98.93138    266.7 1.130e+04 3.931e-10
 98.95185    266.5 1.132e+04 3.927e-10
 98.96413    266.2 1.132e+04 3.956e-10
 98.97437    264.5 1.003e+04 2.885e-10
 98.99281    264.5 1.001e+04 2.955e-10
 99.00318    264.5 1.004e+04 3.255e-10
 99.01341    264.2 9.998e+03 3.234e-10
 99.03376    264.4 1.018e+04 3.759e-10
 99.04666    264.7 1.043e+04 4.429e-10
 99.05689    264.4 1.031e+04 4.214e-10
 99.07471    265.0 1.057e+04 5.052e-10
 99.09518    265.5 1.084e+04 6.076e-10
 99.10663    266.0 1.109e+04 7.250e-10
 99.11687    266.0 1.100e+04 6.859e-10
 99.12918    266.5 1.122e+04 7.933e-10
 99.13942    266.3 1.134e+04 8.636e-10
 99.15661    266.7 1.166e+04 1.048e-09
 99.17708    267.1 1.204e+04 1.295e-09
 99.19756    267.4 1.250e+04 1.643e-09
 99.21009    267.6 1.307e+04 2.150e-09
 99.21401    267.4 1.290e+04 2.053e-09
 99.22195    267.4 1.316e+04 2.326e-09
 99.23851    267.9 1.382e+04 3.036e-09
 99.25898    268.4 1.459e+04 4.068e-09
 99.27946    269.0 1.556e+04 5.673e-09
 99.29424    269.6 1.658e+04 7.946e-09
 99.30448    269.4 1.599e+04 6.002e-09
 99.31355    269.6 1.668e+04 7.034e-09
 99.32379    269.5 1.605e+04 5.214e-09
 99.34088    269.5 1.625e+04 5.186e-09
 99.36136    269.2 1.630e+04 5.092e-09
 99.37677    268.7 1.635e+04 4.758e-09
 99.38701    267.5 1.478e+04 2.524e-09
 99.40231    266.9 1.447e+04 2.285e-09
 99.41701    266.3 1.405e+04 2.057e-09
 99.42724    266.1 1.294e+04 1.560e-09
 99.44326    265.9 1.267e+04 1.469e-09
 99.45930    266.1 1.254e+04 1.445e-09
 99.46954    265.8 1.205e+04 1.251e-09
 99.48421    266.3 1.207e+04 1.231e-09
 99.51502    267.0 1.219e+04 1.249e-09
 99.54202    267.9 1.200e+04 1.116e-09
 99.56250    267.6 1.118e+04 8.264e-10
 99.59702    269.1 1.097e+04 7.343e-10
 99.62412    270.8 1.073e+04 6.371e-10
 99.64459    271.8 1.037e+04 5.452e-10
 99.67892    273.5 1.028e+04 5.040e-10
 99.70708    275.1 1.018e+04 4.620e-10
 99.72755    274.8 9.934e+03 4.201e-10
 99.76082    276.6 9.863e+03 3.892e-10
 99.80177    278.5 9.733e+03 3.516e-10
 99.83103    280.5 9.613e+03 3.212e-10
 99.85151    281.5 9.612e+03 3.174e-10
 99.87214    283.5 9.611e+03 3.137e-10
 99.89261    282.6 9.489e+03 3.043e-10
 99.92462    284.5 9.625e+03 3.132e-10
 99.96557    286.2 9.795e+03 3.329e-10
100.00652    287.6 9.969e+03 3.577e-10
