# Columns:
#   distance along LOS (in CHIMPs)
#   peculiar velocity  (in km/s)
#   temperature (K)
#   HI number density
# pos=(96.7406,62.6579,53.8111), angles=(2.88009,5.30749)
  0.00514     89.4 9.271e+03 1.554e-10
  0.03049     89.1 9.406e+03 2.164e-10
  0.07093     89.8 9.361e+03 1.848e-10
  0.10340     90.5 9.231e+03 1.518e-10
  0.12362     91.4 9.109e+03 1.344e-10
  0.15180     92.3 8.908e+03 1.160e-10
  0.19224     93.5 8.838e+03 1.159e-10
  0.23268     95.0 8.816e+03 1.214e-10
  0.26647     96.7 8.845e+03 1.421e-10
  0.28669     95.9 8.868e+03 1.456e-10
  0.29572     97.4 9.059e+03 1.835e-10
  0.31594     98.0 8.952e+03 1.447e-10
  0.35399     99.0 9.272e+03 2.266e-10
  0.39443    100.1 9.890e+03 4.209e-10
  0.43486    101.3 1.066e+04 7.665e-10
  0.46783    102.4 1.130e+04 1.194e-09
  0.48805    102.5 1.068e+04 9.235e-10
  0.51574    103.0 1.082e+04 9.769e-10
  0.54277    103.2 1.076e+04 9.396e-10
  0.56298    101.6 1.067e+04 8.617e-10
  0.59661    102.1 1.031e+04 6.581e-10
  0.63705    102.7 9.867e+03 4.750e-10
  0.66015    103.4 9.511e+03 3.719e-10
  0.68037    103.9 8.999e+03 3.196e-10
  0.71793    105.4 9.012e+03 3.221e-10
  0.75836    107.2 9.107e+03 3.331e-10
  0.79880    109.0 9.403e+03 3.723e-10
  0.83225    109.7 9.768e+03 4.477e-10
  0.85247    110.5 9.582e+03 4.317e-10
  0.86947    111.0 9.823e+03 4.977e-10
  0.88959    111.4 1.012e+04 5.915e-10
  0.90981    112.0 1.051e+04 7.411e-10
  0.92822    112.5 1.091e+04 9.245e-10
  0.93833    112.8 1.082e+04 8.958e-10
  0.94690    113.1 1.118e+04 1.080e-09
  0.95701    112.6 1.130e+04 1.153e-09
  0.97046    112.8 1.158e+04 1.293e-09
  0.99068    112.7 1.174e+04 1.322e-09
  1.01090    112.7 1.173e+04 1.315e-09
  1.02438    112.7 1.171e+04 1.253e-09
  1.03449    113.0 1.160e+04 1.170e-09
  1.05134    113.2 1.154e+04 1.043e-09
  1.07156    113.3 1.148e+04 8.923e-10
  1.08505    113.4 1.144e+04 7.548e-10
  1.09516    112.8 1.128e+04 6.127e-10
  1.11043    112.7 1.122e+04 5.297e-10
  1.12054    113.0 1.106e+04 5.117e-10
  1.13221    113.0 1.094e+04 4.710e-10
  1.15243    113.1 1.085e+04 4.696e-10
  1.17265    113.5 1.084e+04 4.741e-10
  1.19287    113.9 1.083e+04 4.938e-10
  1.20660    114.3 1.083e+04 5.415e-10
  1.21670    114.8 1.090e+04 4.962e-10
  1.23330    114.5 1.084e+04 4.428e-10
  1.25352    114.8 1.091e+04 4.971e-10
  1.27374    115.3 1.105e+04 6.027e-10
  1.29265    115.9 1.127e+04 7.613e-10
  1.30276    116.2 1.135e+04 6.478e-10
  1.31418    116.6 1.161e+04 7.976e-10
  1.33440    116.7 1.183e+04 9.580e-10
  1.35123    116.5 1.205e+04 1.136e-09
  1.37155    116.0 1.147e+04 8.176e-10
  1.38900    115.9 1.183e+04 1.054e-09
  1.40922    116.3 1.173e+04 1.026e-09
  1.44580    116.2 1.197e+04 1.249e-09
  1.48623    115.9 1.206e+04 1.274e-09
  1.52667    115.4 1.203e+04 1.204e-09
  1.56111    115.1 1.183e+04 9.542e-10
  1.58133    115.4 1.215e+04 1.118e-09
  1.60750    115.2 1.180e+04 7.257e-10
  1.64794    115.6 1.150e+04 5.437e-10
  1.68842    115.7 1.123e+04 3.976e-10
  1.72886    116.0 1.122e+04 3.922e-10
  1.75343    116.5 1.128e+04 4.086e-10
  1.77365    116.7 1.130e+04 4.213e-10
  1.80973    117.4 1.146e+04 4.765e-10
  1.85017    117.8 1.159e+04 5.209e-10
  1.88379    118.3 1.163e+04 5.468e-10
  1.90401    118.1 1.215e+04 8.451e-10
  1.92553    118.7 1.207e+04 8.139e-10
  1.94575    119.3 1.211e+04 5.675e-10
  1.97148    120.2 1.206e+04 5.194e-10
  2.01192    121.3 1.206e+04 5.147e-10
  2.05235    122.7 1.200e+04 5.355e-10
  2.09279    124.1 1.196e+04 5.688e-10
  2.11786    125.3 1.191e+04 5.813e-10
  2.13808    125.6 1.175e+04 4.169e-10
  2.16008    127.3 1.185e+04 4.783e-10
  2.18030    127.7 1.209e+04 4.338e-10
  2.20381    128.5 1.225e+04 5.099e-10
  2.22393    129.2 1.231e+04 5.864e-10
  2.24424    129.7 1.246e+04 6.849e-10
  2.26446    130.1 1.262e+04 8.123e-10
  2.28467    130.3 1.280e+04 9.662e-10
  2.29804    130.3 1.307e+04 1.156e-09
  2.30313    130.4 1.328e+04 1.193e-09
  2.31008    129.4 1.274e+04 6.668e-10
  2.33542    129.3 1.308e+04 7.622e-10
  2.37585    128.5 1.347e+04 8.767e-10
  2.40608    127.6 1.317e+04 8.671e-10
  2.42607    126.7 1.310e+04 8.886e-10
  2.43618    125.3 1.285e+04 8.711e-10
  2.44642    124.0 1.308e+04 1.035e-09
  2.46664    123.2 1.340e+04 1.291e-09
  2.48209    122.5 1.389e+04 1.712e-09
  2.49220    122.6 1.359e+04 1.277e-09
  2.50708    121.8 1.446e+04 1.874e-09
  2.52730    120.3 1.620e+04 3.298e-09
  2.54752    118.4 1.805e+04 6.884e-09
  2.56422    117.2 1.934e+04 1.400e-08
  2.57433    115.1 1.996e+04 1.594e-08
  2.57825    114.1 2.013e+04 2.167e-08
  2.58836    114.8 1.929e+04 1.321e-08
  2.60817    113.5 1.914e+04 1.305e-08
  2.62839    113.3 1.839e+04 1.100e-08
  2.64861    113.6 1.712e+04 6.849e-09
  2.66430    113.7 1.554e+04 3.208e-09
  2.67441    112.9 1.492e+04 2.627e-09
  2.68905    112.8 1.400e+04 1.543e-09
  2.70236    112.4 1.314e+04 9.924e-10
  2.71257    110.1 1.288e+04 1.020e-09
  2.73979    110.3 1.201e+04 6.227e-10
  2.78023    111.2 1.147e+04 4.816e-10
  2.82066    113.2 1.135e+04 4.693e-10
  2.84671    115.6 1.134e+04 4.708e-10
  2.86693    116.3 1.122e+04 5.013e-10
  2.90154    118.5 1.124e+04 5.105e-10
  2.94197    120.6 1.131e+04 5.453e-10
  2.96874    122.5 1.141e+04 6.024e-10
  2.98896    121.5 1.116e+04 4.096e-10
  3.01881    123.3 1.132e+04 5.133e-10
  3.03903    123.1 1.146e+04 5.709e-10
  3.06329    124.7 1.195e+04 8.783e-10
  3.10372    126.1 1.260e+04 1.359e-09
  3.14416    127.1 1.325e+04 1.933e-09
  3.18460    127.5 1.364e+04 2.234e-09
  3.21114    127.8 1.365e+04 2.200e-09
  3.23114    127.4 1.337e+04 1.907e-09
  3.24504    126.8 1.314e+04 1.489e-09
  3.26547    127.2 1.269e+04 1.034e-09
  3.30591    127.5 1.215e+04 6.297e-10
  3.34635    127.8 1.156e+04 3.984e-10
  3.38324    128.3 1.107e+04 3.567e-10
  3.40346    128.6 1.065e+04 2.243e-10
  3.42722    130.1 1.063e+04 2.270e-10
  3.46766    131.9 1.059e+04 2.495e-10
  3.50111    133.7 1.063e+04 3.022e-10
  3.52133    133.4 1.070e+04 2.840e-10
  3.54853    135.2 1.077e+04 3.437e-10
  3.57556    137.0 1.085e+04 3.995e-10
  3.59578    137.7 1.075e+04 2.548e-10
  3.62941    139.5 1.077e+04 2.997e-10
  3.66985    141.2 1.079e+04 3.370e-10
  3.71028    143.0 1.088e+04 3.574e-10
  3.74767    144.7 1.101e+04 3.583e-10
  3.76789    145.2 1.093e+04 2.679e-10
  3.77740    146.7 1.093e+04 2.660e-10
  3.79762    146.3 1.091e+04 2.672e-10
  3.83159    147.7 1.086e+04 2.504e-10
  3.87203    149.1 1.079e+04 2.282e-10
  3.91247    150.4 1.071e+04 2.049e-10
  3.93999    151.7 1.064e+04 1.825e-10
  3.96021    152.2 1.055e+04 1.614e-10
  3.99334    153.4 1.047e+04 1.544e-10
  4.03348    154.7 1.041e+04 1.438e-10
  4.05370    154.7 1.047e+04 1.515e-10
  4.07422    155.8 1.048e+04 1.446e-10
  4.11209    156.9 1.038e+04 1.453e-10
  4.13231    157.8 1.038e+04 1.156e-10
  4.15509    158.9 1.033e+04 1.027e-10
  4.19553    160.1 1.029e+04 1.026e-10
  4.23597    161.3 1.024e+04 1.074e-10
  4.27640    162.7 1.016e+04 1.235e-10
  4.30442    164.2 1.012e+04 1.527e-10
  4.31756    164.8 1.016e+04 7.526e-11
  4.32999    164.6 1.023e+04 1.011e-10
  4.35728    166.3 1.013e+04 1.286e-10
  4.39772    168.0 1.013e+04 1.670e-10
  4.43815    169.8 1.017e+04 2.026e-10
  4.47652    171.4 1.018e+04 2.095e-10
  4.49674    172.2 1.006e+04 1.428e-10
  4.51903    173.8 1.004e+04 1.436e-10
  4.55947    175.6 9.988e+03 1.376e-10
  4.58606    177.5 9.877e+03 1.164e-10
  4.60628    177.6 1.005e+04 1.425e-10
  4.64034    179.7 9.928e+03 9.843e-11
  4.66884    181.7 9.792e+03 6.458e-11
  4.68906    182.7 9.842e+03 7.615e-11
  4.72121    184.8 9.721e+03 5.707e-11
  4.76165    186.9 9.672e+03 4.611e-11
  4.80209    189.0 9.560e+03 4.169e-11
  4.84095    191.4 9.455e+03 4.138e-11
  4.86078    192.5 9.655e+03 5.021e-11
  4.86236    192.5 9.838e+03 5.022e-11
  4.88296    194.8 9.805e+03 4.972e-11
  4.92340    197.1 9.804e+03 4.996e-11
  4.96384    199.5 9.807e+03 5.145e-11
  5.00428    201.7 9.840e+03 5.615e-11
  5.03327    203.9 9.833e+03 6.554e-11
  5.05349    204.9 9.833e+03 8.932e-11
  5.08515    207.2 9.872e+03 1.023e-10
  5.11843    209.4 9.938e+03 1.175e-10
  5.13865    209.3 1.025e+04 1.765e-10
  5.16602    211.5 1.033e+04 1.903e-10
  5.20537    213.5 1.042e+04 1.920e-10
  5.22559    214.4 1.048e+04 2.178e-10
  5.24690    216.4 1.051e+04 2.094e-10
  5.28734    218.5 1.051e+04 1.931e-10
  5.32777    220.5 1.051e+04 1.729e-10
  5.36821    222.5 1.049e+04 1.551e-10
  5.39472    224.5 1.056e+04 1.426e-10
  5.40399    224.0 1.073e+04 1.581e-10
  5.41792    225.1 1.078e+04 1.683e-10
  5.44909    227.2 1.084e+04 1.621e-10
  5.48952    229.2 1.084e+04 1.636e-10
  5.52996    231.3 1.085e+04 1.678e-10
  5.56980    233.4 1.087e+04 1.743e-10
  5.59002    234.5 1.105e+04 1.851e-10
  5.61083    236.6 1.110e+04 1.946e-10
  5.65080    238.7 1.119e+04 2.103e-10
  5.67101    238.7 1.150e+04 2.896e-10
  5.69171    240.9 1.157e+04 3.054e-10
  5.73215    242.9 1.161e+04 3.112e-10
  5.76212    244.9 1.160e+04 3.095e-10
  5.77214    244.7 1.191e+04 3.371e-10
  5.78250    245.6 1.189e+04 3.334e-10
  5.79886    246.7 1.186e+04 3.263e-10
  5.80897    246.5 1.215e+04 3.846e-10
  5.82293    247.3 1.204e+04 3.594e-10
  5.85336    249.3 1.225e+04 3.812e-10
  5.89390    251.5 1.209e+04 3.444e-10
  5.92709    253.8 1.191e+04 3.212e-10
  5.94711    253.4 1.240e+04 3.987e-10
  5.95425    253.0 1.275e+04 5.633e-10
  5.96447    254.1 1.256e+04 5.498e-10
  5.98468    255.3 1.253e+04 5.515e-10
  6.00490    256.5 1.250e+04 5.614e-10
  6.02512    257.7 1.249e+04 5.841e-10
  6.04030    258.9 1.251e+04 6.167e-10
  6.05041    258.7 1.240e+04 7.351e-10
  6.06504    259.9 1.243e+04 7.732e-10
  6.07515    259.5 1.247e+04 9.577e-10
  6.08578    260.6 1.257e+04 1.054e-09
  6.10600    261.5 1.271e+04 1.183e-09
  6.12621    262.4 1.290e+04 1.361e-09
  6.13646    263.2 1.317e+04 1.618e-09
  6.14657    263.2 1.299e+04 1.530e-09
  6.16665    263.9 1.327e+04 1.869e-09
  6.18687    264.7 1.362e+04 2.357e-09
  6.20319    265.6 1.407e+04 3.044e-09
  6.21330    265.1 1.463e+04 3.921e-09
  6.22252    266.1 1.527e+04 5.030e-09
  6.23263    266.1 1.488e+04 3.621e-09
  6.24753    267.2 1.573e+04 4.687e-09
  6.26264    267.8 1.597e+04 5.231e-09
  6.27050    268.2 1.620e+04 5.848e-09
  6.27501    268.3 1.605e+04 5.359e-09
  6.27722    267.6 1.638e+04 5.344e-09
  6.28281    267.9 1.674e+04 5.888e-09
  6.29292    268.2 1.714e+04 6.748e-09
  6.30303    268.7 1.746e+04 7.822e-09
  6.31314    269.2 1.769e+04 8.977e-09
  6.31858    269.8 1.784e+04 1.022e-08
  6.32364    269.1 1.849e+04 8.446e-09
  6.33336    269.5 1.880e+04 9.766e-09
  6.34123    269.9 1.907e+04 1.119e-08
  6.34629    268.3 1.945e+04 1.085e-08
  6.35358    268.4 1.980e+04 1.218e-08
  6.36161    268.5 2.027e+04 1.354e-08
  6.36666    267.4 2.017e+04 1.240e-08
  6.37379    267.5 2.026e+04 1.413e-08
  6.38390    267.6 2.020e+04 1.594e-08
  6.39401    267.8 1.998e+04 1.793e-08
  6.40412    268.0 1.971e+04 2.032e-08
  6.40969    268.4 1.949e+04 2.356e-08
  6.41082    268.5 1.847e+04 2.054e-08
  6.41536    267.8 1.774e+04 1.893e-08
  6.42434    268.7 1.799e+04 2.233e-08
  6.43445    269.4 1.845e+04 2.655e-08
  6.44456    269.5 1.896e+04 3.003e-08
  6.45271    269.3 1.920e+04 3.031e-08
  6.45777    269.6 1.892e+04 2.132e-08
  6.46478    269.4 1.899e+04 2.086e-08
  6.47433    269.1 1.914e+04 1.926e-08
  6.47938    267.9 1.873e+04 1.148e-08
  6.48500    267.3 1.867e+04 9.652e-09
  6.49511    266.6 1.851e+04 8.120e-09
  6.50079    265.7 1.826e+04 7.033e-09
  6.51095    264.4 1.715e+04 2.961e-09
  6.53059    263.4 1.703e+04 3.021e-09
  6.55081    262.9 1.699e+04 3.334e-09
  6.57102    263.0 1.682e+04 3.577e-09
  6.58694    263.5 1.671e+04 3.777e-09
  6.59705    261.9 1.445e+04 9.480e-10
  6.60752    262.6 1.434e+04 1.010e-09
  6.61763    261.6 1.135e+04 3.793e-10
  6.63168    262.4 1.113e+04 4.491e-10
  6.65190    263.3 1.116e+04 5.656e-10
  6.67212    264.4 1.145e+04 7.244e-10
  6.68310    265.8 1.177e+04 9.422e-10
  6.69321    264.8 9.872e+03 4.226e-10
  6.71255    266.5 1.039e+04 5.529e-10
  6.73277    268.2 1.090e+04 7.131e-10
  6.74566    270.0 1.136e+04 8.979e-10
  6.75577    269.7 1.055e+04 5.096e-10
  6.76916    271.4 1.089e+04 6.053e-10
  6.77927    270.5 9.906e+03 3.431e-10
  6.79343    272.2 1.005e+04 3.846e-10
  6.81365    273.9 1.019e+04 4.310e-10
  6.83387    275.4 1.041e+04 5.039e-10
  6.85409    276.7 1.110e+04 6.736e-10
  6.86532    278.0 1.254e+04 1.092e-09
  6.87482    277.2 1.178e+04 7.872e-10
  6.88381    276.8 9.979e+03 4.715e-10
  6.89452    278.3 1.209e+04 9.118e-10
  6.91474    279.2 1.407e+04 1.825e-09
  6.93496    279.2 1.505e+04 2.769e-09
  6.94778    279.1 1.577e+04 3.555e-09
  6.95278    279.0 1.532e+04 3.271e-09
  6.95633    278.6 1.632e+04 4.219e-09
  6.96138    277.2 1.717e+04 4.774e-09
  6.97024    276.1 1.903e+04 7.231e-09
  6.98035    274.5 2.076e+04 1.237e-08
  6.99046    274.0 2.208e+04 2.313e-08
  6.99935    274.1 2.292e+04 4.593e-08
  7.00441    273.6 2.205e+04 4.242e-08
  7.01068    273.7 2.249e+04 7.894e-08
  7.01680    273.5 2.277e+04 1.388e-07
  7.02186    273.1 2.230e+04 8.520e-08
  7.03090    272.3 2.302e+04 1.178e-07
  7.04101    270.2 2.366e+04 1.266e-07
  7.04743    267.5 2.369e+04 1.241e-07
  7.05249    266.0 2.323e+04 6.563e-08
  7.06123    263.8 2.320e+04 5.800e-08
  7.07134    262.1 2.283e+04 4.584e-08
  7.08082    260.9 2.219e+04 3.445e-08
  7.08588    260.5 2.130e+04 2.396e-08
  7.09046    259.6 2.048e+04 1.877e-08
  7.09551    258.6 1.924e+04 1.473e-08
  7.10167    258.7 1.926e+04 1.399e-08
  7.11688    259.3 2.028e+04 1.539e-08
  7.13358    259.1 2.045e+04 1.357e-08
  7.14369    257.3 1.844e+04 9.201e-09
  7.14999    256.9 1.899e+04 9.022e-09
  7.16010    253.9 1.963e+04 7.787e-09
  7.17758    253.4 2.045e+04 8.880e-09
  7.19780    253.2 2.108e+04 1.035e-08
  7.21802    253.5 2.160e+04 1.185e-08
  7.22974    254.2 2.191e+04 1.313e-08
  7.23475    252.0 2.118e+04 1.302e-08
  7.24320    252.0 2.150e+04 1.458e-08
  7.25331    252.0 2.149e+04 1.648e-08
  7.26341    252.2 2.121e+04 1.836e-08
  7.27267    252.5 2.094e+04 1.976e-08
  7.27773    252.2 2.006e+04 1.673e-08
  7.28299    252.7 1.991e+04 1.661e-08
  7.28804    251.7 1.951e+04 1.171e-08
  7.29374    252.2 1.971e+04 1.093e-08
  7.30385    252.7 1.997e+04 1.005e-08
  7.31396    253.3 2.034e+04 9.123e-09
  7.32075    253.9 2.081e+04 8.182e-09
  7.32581    251.0 1.976e+04 2.898e-09
  7.33418    251.1 1.990e+04 2.354e-09
  7.34429    251.0 1.992e+04 1.905e-09
  7.35206    250.9 1.976e+04 1.531e-09
  7.35711    248.3 1.630e+04 9.008e-10
  7.36378    248.0 1.553e+04 7.711e-10
  7.36883    247.3 1.467e+04 7.089e-10
  7.37972    248.1 1.505e+04 6.906e-10
  7.39999    247.3 1.295e+04 5.634e-10
  7.41191    246.4 1.054e+04 5.010e-10
  7.41799    244.6 9.794e+03 4.220e-10
  7.42628    243.2 9.364e+03 3.541e-10
  7.44043    244.3 9.584e+03 4.017e-10
  7.46064    245.3 9.880e+03 4.617e-10
  7.48086    246.0 1.019e+04 5.267e-10
  7.49801    246.6 1.050e+04 5.894e-10
  7.50812    243.7 1.043e+04 6.106e-10
  7.52130    244.1 1.075e+04 7.221e-10
  7.54152    244.1 1.118e+04 8.802e-10
  7.55432    243.8 1.173e+04 1.116e-09
  7.56443    242.9 1.166e+04 1.100e-09
  7.58196    242.0 1.237e+04 1.472e-09
  7.59417    240.8 1.323e+04 2.082e-09
  7.60428    238.6 1.362e+04 2.522e-09
  7.62239    236.9 1.456e+04 3.516e-09
  7.64261    234.4 1.567e+04 4.786e-09
  7.66283    231.0 1.676e+04 6.048e-09
  7.68022    226.5 1.755e+04 6.558e-09
  7.68964    225.0 1.770e+04 7.491e-09
  7.69247    225.3 1.749e+04 7.204e-09
  7.70327    221.4 1.756e+04 7.049e-09
  7.72349    217.2 1.758e+04 6.080e-09
  7.74370    212.8 1.727e+04 4.131e-09
  7.76392    208.4 1.651e+04 2.239e-09
  7.77638    203.9 1.494e+04 1.074e-09
  7.78649    207.3 1.580e+04 1.946e-09
  7.80436    203.9 1.366e+04 8.982e-10
  7.82050    201.2 1.132e+04 6.466e-10
  7.83061    202.0 1.091e+04 6.154e-10
  7.84480    202.3 1.079e+04 6.124e-10
  7.86244    202.9 1.080e+04 6.156e-10
  7.87255    204.4 1.082e+04 6.161e-10
  7.88524    205.1 1.082e+04 6.176e-10
  7.90545    206.0 1.087e+04 6.276e-10
  7.92567    207.2 1.101e+04 6.546e-10
  7.94589    208.3 1.122e+04 7.048e-10
  7.95860    209.4 1.150e+04 7.886e-10
  7.96871    211.5 1.101e+04 6.528e-10
  7.98633    212.6 1.121e+04 7.082e-10
  8.00655    213.6 1.147e+04 7.998e-10
  8.02677    214.7 1.178e+04 9.375e-10
  8.04465    215.9 1.209e+04 1.126e-09
  8.05476    217.0 1.162e+04 8.673e-10
  8.06720    218.2 1.193e+04 1.000e-09
  8.08669    219.4 1.220e+04 1.153e-09
  8.09680    219.9 1.188e+04 9.631e-10
  8.10764    221.0 1.210e+04 1.073e-09
  8.12786    222.1 1.225e+04 1.155e-09
  8.14081    223.1 1.233e+04 1.195e-09
  8.15092    223.8 1.182e+04 8.630e-10
  8.16830    224.7 1.190e+04 8.851e-10
  8.18851    225.5 1.196e+04 9.041e-10
  8.20873    226.2 1.204e+04 9.326e-10
  8.22483    226.8 1.217e+04 9.868e-10
  8.23286    226.4 1.205e+04 9.191e-10
  8.23697    227.3 1.161e+04 7.347e-10
  8.24917    227.9 1.185e+04 8.147e-10
  8.26939    228.4 1.216e+04 9.386e-10
  8.28961    228.9 1.248e+04 1.103e-09
  8.30983    229.5 1.278e+04 1.298e-09
  8.32302    230.2 1.302e+04 1.507e-09
  8.33313    231.0 1.278e+04 1.210e-09
  8.35026    231.6 1.310e+04 1.407e-09
  8.36298    232.3 1.338e+04 1.640e-09
  8.37309    231.6 1.396e+04 2.087e-09
  8.39070    232.5 1.420e+04 2.403e-09
  8.40908    233.4 1.439e+04 2.697e-09
  8.41919    233.4 1.492e+04 3.085e-09
  8.43114    234.5 1.516e+04 3.576e-09
  8.45136    235.9 1.544e+04 4.122e-09
  8.47158    237.7 1.573e+04 4.616e-09
  8.48669    238.1 1.603e+04 5.017e-09
  8.49597    238.3 1.642e+04 5.567e-09
  8.50103    237.4 1.701e+04 6.698e-09
  8.50514    237.7 1.749e+04 7.633e-09
  8.51020    237.1 1.827e+04 1.045e-08
  8.51697    237.2 1.888e+04 1.235e-08
  8.52708    236.9 1.964e+04 1.477e-08
  8.53719    236.2 2.048e+04 1.799e-08
  8.54730    234.9 2.128e+04 2.288e-08
  8.55322    233.3 2.191e+04 3.226e-08
  8.55828    232.5 2.172e+04 4.416e-08
  8.56505    231.2 2.202e+04 7.161e-08
  8.57010    229.7 2.200e+04 8.045e-08
  8.57763    228.3 2.247e+04 1.276e-07
  8.58774    226.0 2.316e+04 1.766e-07
  8.59625    222.5 2.369e+04 1.819e-07
  8.60130    221.2 2.421e+04 1.418e-07
  8.60795    216.9 2.507e+04 1.146e-07
  8.61806    212.4 2.621e+04 6.545e-08
  8.62817    207.4 2.712e+04 2.689e-08
  8.63412    202.0 2.682e+04 9.857e-09
  8.63918    201.9 2.547e+04 8.094e-09
  8.65349    192.7 2.087e+04 2.396e-09
  8.67376    182.1 1.305e+04 5.456e-10
  8.68745    176.8 1.121e+04 3.640e-10
  8.69756    176.9 1.119e+04 3.715e-10
  8.71420    177.1 1.104e+04 3.532e-10
  8.73442    177.5 1.097e+04 3.430e-10
  8.76484    179.0 1.087e+04 3.306e-10
  8.80538    182.0 1.055e+04 2.937e-10
  8.84582    185.3 1.025e+04 2.633e-10
  8.86986    188.6 1.014e+04 2.549e-10
  8.88926    188.7 1.016e+04 2.420e-10
  8.90565    189.6 1.009e+04 2.343e-10
  8.92669    192.3 1.010e+04 2.324e-10
  8.96713    195.1 1.019e+04 2.390e-10
  9.00756    197.7 1.047e+04 2.641e-10
  9.04196    199.7 1.073e+04 2.963e-10
  9.06218    199.2 1.038e+04 2.350e-10
  9.08844    200.9 1.063e+04 2.715e-10
  9.11867    201.5 1.070e+04 2.899e-10
  9.13793    202.4 1.075e+04 3.085e-10
  9.14804    201.9 1.073e+04 3.016e-10
  9.15901    202.7 1.082e+04 3.358e-10
  9.17164    203.4 1.110e+04 4.126e-10
  9.18175    203.3 1.107e+04 4.044e-10
  9.19945    203.2 1.147e+04 5.370e-10
  9.21967    203.0 1.205e+04 7.583e-10
  9.23409    202.4 1.282e+04 1.124e-09
  9.24420    202.1 1.230e+04 9.120e-10
  9.26010    201.2 1.292e+04 1.238e-09
  9.28032    199.7 1.345e+04 1.577e-09
  9.29968    197.8 1.369e+04 1.724e-09
  9.30979    196.7 1.364e+04 1.664e-09
  9.32014    194.4 1.357e+04 1.617e-09
  9.33025    194.7 1.316e+04 1.367e-09
  9.34098    192.7 1.294e+04 1.223e-09
  9.36120    190.7 1.252e+04 9.140e-10
  9.38141    188.7 1.192e+04 5.896e-10
  9.40163    186.4 1.120e+04 3.758e-10
  9.41630    185.0 1.064e+04 2.901e-10
  9.42641    186.2 1.075e+04 2.920e-10
  9.43792    186.8 1.056e+04 2.813e-10
  9.45824    185.7 1.003e+04 2.450e-10
  9.49281    185.6 1.003e+04 2.477e-10
  9.53325    186.3 1.004e+04 2.652e-10
  9.57369    187.6 1.016e+04 3.039e-10
  9.59871    189.2 1.037e+04 3.644e-10
  9.61893    187.6 1.083e+04 3.434e-10
  9.65456    188.7 1.149e+04 4.175e-10
  9.69409    190.0 1.207e+04 5.128e-10
  9.71431    187.7 1.337e+04 7.045e-10
  9.72523    188.0 1.378e+04 9.124e-10
  9.74535    188.6 1.385e+04 9.901e-10
  9.76557    190.2 1.367e+04 9.513e-10
  9.78073    190.4 1.382e+04 1.173e-09
  9.79084    188.5 1.427e+04 2.040e-09
  9.80601    189.5 1.439e+04 2.425e-09
  9.82622    190.5 1.456e+04 2.840e-09
  9.84215    191.5 1.476e+04 3.245e-09
  9.85226    190.6 1.517e+04 4.190e-09
  9.86666    191.5 1.534e+04 4.420e-09
  9.87689    192.2 1.550e+04 4.517e-09
  9.88700    191.0 1.571e+04 4.791e-09
  9.90710    191.6 1.582e+04 4.800e-09
  9.92732    192.0 1.599e+04 4.805e-09
  9.94754    192.2 1.616e+04 4.832e-09
  9.96294    192.3 1.635e+04 4.919e-09
  9.97305    190.5 1.588e+04 4.287e-09
  9.98030    190.6 1.594e+04 4.640e-09
  9.99041    189.1 1.489e+04 3.706e-09
 10.00819    189.5 1.507e+04 4.249e-09
 10.02841    190.0 1.532e+04 4.860e-09
 10.04863    190.4 1.551e+04 5.189e-09
 10.05911    190.4 1.551e+04 5.184e-09
 10.06922    190.0 1.465e+04 4.066e-09
 10.08907    190.0 1.464e+04 3.999e-09
 10.10834    190.0 1.454e+04 3.690e-09
 10.11845    189.4 1.380e+04 2.666e-09
 10.12950    189.5 1.356e+04 2.278e-09
 10.14516    189.5 1.322e+04 1.858e-09
 10.15527    188.7 1.277e+04 1.480e-09
 10.16994    188.7 1.241e+04 1.244e-09
 10.19016    188.7 1.201e+04 1.053e-09
 10.21038    188.9 1.164e+04 9.122e-10
 10.23060    189.3 1.137e+04 8.189e-10
 10.24132    189.8 1.118e+04 7.615e-10
 10.24710    189.4 1.114e+04 7.535e-10
 10.25659    189.5 1.116e+04 7.559e-10
 10.27103    190.1 1.115e+04 7.449e-10
 10.29125    190.7 1.119e+04 7.393e-10
 10.31147    191.1 1.120e+04 7.371e-10
 10.32737    192.0 1.120e+04 7.302e-10
 10.34769    192.5 1.126e+04 7.635e-10
 10.38243    193.7 1.129e+04 7.738e-10
 10.42287    194.3 1.126e+04 7.680e-10
 10.46331    194.8 1.109e+04 7.246e-10
 10.49967    195.5 1.080e+04 6.382e-10
 10.51890    194.9 1.078e+04 6.587e-10
 10.52297    193.9 1.071e+04 6.531e-10
 10.54418    195.2 1.047e+04 5.574e-10
 10.58462    196.1 1.015e+04 4.553e-10
 10.62506    197.6 9.808e+03 3.621e-10
 10.66549    198.9 9.471e+03 2.826e-10
 10.69199    200.2 9.171e+03 2.260e-10
 10.71221    199.8 9.009e+03 2.033e-10
 10.74637    201.3 8.781e+03 1.768e-10
 10.77905    203.0 8.743e+03 1.752e-10
 10.79926    202.6 8.671e+03 1.702e-10
 10.82724    204.5 8.670e+03 1.707e-10
 10.86410    206.6 8.685e+03 1.753e-10
 10.88432    206.8 8.681e+03 1.764e-10
 10.90812    208.8 8.770e+03 1.933e-10
 10.94855    210.8 8.946e+03 2.250e-10
 10.98899    212.7 9.182e+03 2.724e-10
 11.02943    214.5 9.452e+03 3.348e-10
 11.05534    216.2 9.736e+03 4.075e-10
 11.06211    216.1 9.805e+03 4.331e-10
 11.07664    216.2 9.781e+03 4.394e-10
 11.11030    217.9 1.012e+04 5.380e-10
 11.15074    219.4 1.039e+04 5.932e-10
 11.19118    220.6 1.044e+04 5.944e-10
 11.22852    221.7 1.044e+04 5.801e-10
 11.24874    221.9 1.039e+04 5.843e-10
 11.27205    223.1 1.038e+04 5.397e-10
 11.31141    224.5 1.026e+04 4.605e-10
 11.33163    224.3 1.026e+04 4.577e-10
 11.35293    225.9 1.007e+04 3.691e-10
 11.39336    227.8 9.884e+03 2.909e-10
 11.42085    229.8 9.798e+03 2.504e-10
 11.44107    230.3 1.014e+04 3.465e-10
 11.47424    232.6 1.026e+04 3.391e-10
 11.51468    235.4 1.034e+04 3.434e-10
 11.55511    238.0 1.049e+04 3.471e-10
 11.58534    238.2 1.062e+04 3.639e-10
 11.59762    238.6 1.068e+04 3.993e-10
 11.60513    238.6 1.074e+04 4.231e-10
 11.61297    238.9 1.095e+04 4.545e-10
 11.62568    239.9 1.097e+04 4.879e-10
 11.64590    241.0 1.101e+04 5.565e-10
 11.66612    242.1 1.116e+04 6.483e-10
 11.68634    242.6 1.150e+04 7.527e-10
 11.69903    242.6 1.215e+04 9.289e-10
 11.70914    241.3 1.365e+04 1.254e-09
 11.72566    240.5 1.536e+04 2.234e-09
 11.73577    240.8 1.574e+04 2.536e-09
 11.74699    239.8 1.769e+04 4.934e-09
 11.76721    238.8 1.929e+04 8.725e-09
 11.78233    237.0 2.029e+04 1.316e-08
 11.79004    235.1 2.136e+04 2.264e-08
 11.79509    234.8 2.223e+04 4.371e-08
 11.79969    233.2 2.278e+04 6.802e-08
 11.80474    234.1 2.302e+04 1.218e-07
 11.81261    231.9 2.318e+04 1.464e-07
 11.82272    229.2 2.316e+04 1.435e-07
 11.83283    226.8 2.304e+04 1.225e-07
 11.83812    225.3 2.287e+04 7.962e-08
 11.84317    225.0 2.300e+04 8.340e-08
 11.85304    224.1 2.299e+04 3.892e-08
 11.86375    221.3 2.256e+04 1.186e-08
 11.87386    220.6 2.330e+04 5.464e-09
 11.88119    214.7 2.038e+04 2.033e-09
 11.89135    212.5 1.833e+04 1.379e-09
 11.90874    203.0 1.306e+04 1.103e-09
 11.92896    197.8 1.236e+04 1.063e-09
 11.94918    196.4 1.235e+04 1.061e-09
 11.96729    195.7 1.242e+04 1.069e-09
 11.97740    195.5 1.229e+04 9.396e-10
 11.99983    194.7 1.243e+04 9.888e-10
 12.04036    192.6 1.224e+04 8.611e-10
 12.08080    191.3 1.164e+04 6.185e-10
 12.12007    190.4 1.077e+04 3.807e-10
 12.14029    188.7 1.108e+04 4.112e-10
 12.14970    187.6 1.009e+04 2.551e-10
 12.16992    187.8 9.810e+03 2.065e-10
 12.20211    187.4 9.815e+03 2.069e-10
 12.24255    187.1 9.866e+03 2.158e-10
 12.28298    187.3 9.894e+03 2.314e-10
 12.32180    187.9 9.937e+03 2.497e-10
 12.34202    187.6 9.589e+03 1.994e-10
 12.36386    188.1 9.600e+03 2.069e-10
 12.39636    188.9 9.653e+03 2.153e-10
 12.41658    187.7 1.006e+04 2.824e-10
 12.44473    188.4 1.018e+04 2.901e-10
 12.48517    189.1 1.031e+04 3.076e-10
 12.51413    189.4 1.052e+04 3.589e-10
 12.53435    188.9 1.003e+04 2.421e-10
 12.56604    189.2 1.036e+04 2.851e-10
 12.60648    188.4 1.088e+04 3.546e-10
 12.64692    186.5 1.114e+04 4.113e-10
 12.67266    185.9 1.105e+04 4.072e-10
 12.69175    184.1 1.107e+04 4.412e-10
 12.70645    183.5 1.119e+04 4.099e-10
 12.72779    182.3 1.100e+04 4.003e-10
 12.75802    182.4 1.083e+04 3.847e-10
 12.77814    182.0 1.077e+04 3.739e-10
 12.79231    181.0 1.083e+04 3.819e-10
 12.80242    178.2 1.110e+04 4.545e-10
 12.81061    175.9 1.141e+04 5.762e-10
 12.82072    173.4 1.191e+04 7.320e-10
 12.83880    172.2 1.219e+04 1.008e-09
 12.85902    171.6 1.247e+04 1.295e-09
 12.87836    171.2 1.278e+04 1.534e-09
 12.88847    169.3 1.307e+04 1.694e-09
 12.89946    168.6 1.328e+04 1.791e-09
 12.91968    167.7 1.346e+04 1.886e-09
 12.93864    166.7 1.364e+04 2.034e-09
 12.94875    164.8 1.400e+04 2.435e-09
 12.96011    164.1 1.417e+04 2.699e-09
 12.97452    163.7 1.439e+04 3.026e-09
 12.98463    162.2 1.408e+04 2.864e-09
 13.00055    162.1 1.430e+04 3.139e-09
 13.02077    161.9 1.443e+04 3.254e-09
 13.04099    161.7 1.442e+04 3.244e-09
 13.06057    161.5 1.437e+04 3.162e-09
 13.07068    160.5 1.384e+04 2.542e-09
 13.07679    160.4 1.367e+04 2.356e-09
 13.08690    159.7 1.343e+04 2.154e-09
 13.10164    159.8 1.311e+04 1.863e-09
 13.12186    160.0 1.273e+04 1.550e-09
 13.14208    160.2 1.233e+04 1.249e-09
 13.15673    160.4 1.192e+04 9.853e-10
 13.16684    159.4 1.146e+04 7.732e-10
 13.18252    159.5 1.112e+04 6.274e-10
 13.20274    159.6 1.081e+04 5.309e-10
 13.21494    159.7 1.068e+04 4.998e-10
 13.22505    159.2 1.074e+04 5.260e-10
 13.24278    159.1 1.082e+04 5.393e-10
 13.25289    158.5 1.070e+04 5.044e-10
 13.26339    158.2 1.096e+04 5.606e-10
 13.28361    157.5 1.127e+04 6.503e-10
 13.30383    157.1 1.138e+04 7.101e-10
 13.33425    157.7 1.130e+04 7.319e-10
 13.37479    158.0 1.143e+04 8.086e-10
 13.41508    157.5 1.151e+04 8.271e-10
 13.45552    155.6 1.120e+04 7.006e-10
 13.48132    155.2 1.120e+04 6.905e-10
 13.50153    154.0 1.123e+04 7.163e-10
 13.53654    153.8 1.115e+04 6.721e-10
 13.57698    153.9 1.105e+04 6.147e-10
 13.60741    154.2 1.095e+04 5.485e-10
 13.62763    152.8 1.102e+04 4.911e-10
 13.64764    152.2 1.093e+04 4.335e-10
 13.66776    151.7 1.086e+04 4.042e-10
 13.69819    151.6 1.076e+04 3.627e-10
 13.73739    152.0 1.049e+04 3.132e-10
 13.75761    152.0 1.006e+04 2.771e-10
 13.77916    152.7 9.945e+03 2.697e-10
 13.79973    153.6 9.971e+03 2.737e-10
 13.81995    151.8 1.001e+04 2.824e-10
 13.86004    152.4 1.017e+04 3.074e-10
 13.90047    152.8 1.039e+04 3.435e-10
 13.94091    152.9 1.062e+04 3.854e-10
 13.97183    153.0 1.086e+04 4.345e-10
 13.99205    150.3 1.083e+04 4.295e-10
 14.01368    150.1 1.098e+04 4.480e-10
 14.03390    149.8 1.138e+04 5.428e-10
 14.06222    149.3 1.167e+04 5.763e-10
 14.10266    148.6 1.176e+04 5.575e-10
 14.14310    148.0 1.188e+04 5.011e-10
 14.16416    147.0 1.192e+04 4.144e-10
 14.18437    142.6 1.126e+04 3.272e-10
 14.22397    141.3 1.133e+04 3.190e-10
 14.26441    140.3 1.159e+04 3.299e-10
 14.28988    137.1 1.203e+04 4.127e-10
 14.29989    134.0 1.216e+04 5.327e-10
 14.31476    131.3 1.215e+04 6.673e-10
 14.33498    129.2 1.199e+04 7.624e-10
 14.34617    127.7 1.180e+04 7.783e-10
 14.35628    126.1 1.161e+04 7.146e-10
 14.37542    124.9 1.162e+04 7.211e-10
 14.39564    122.3 1.200e+04 7.861e-10
 14.41585    115.5 1.420e+04 1.147e-09
 14.42793    105.7 1.705e+04 2.265e-09
 14.43419    102.3 1.729e+04 2.649e-09
 14.44234     98.4 1.740e+04 3.289e-09
 14.45629     94.0 1.787e+04 4.745e-09
 14.47141     92.8 1.825e+04 5.252e-09
 14.48021     90.8 1.861e+04 5.574e-09
 14.48526     89.3 1.852e+04 5.384e-09
 14.49158     85.9 1.860e+04 5.109e-09
 14.49690     84.3 1.856e+04 4.874e-09
 14.50196     84.0 1.854e+04 4.873e-09
 14.51690     80.4 1.890e+04 3.951e-09
 14.52839     71.6 1.872e+04 2.173e-09
 14.53850     66.9 1.748e+04 1.444e-09
 14.55596     55.8 1.348e+04 8.951e-10
 14.56607     54.3 1.283e+04 1.040e-09
 14.57760     47.5 1.197e+04 1.085e-09
 14.59782     43.8 1.212e+04 1.236e-09
 14.61444     40.4 1.298e+04 1.591e-09
 14.62455     39.8 1.303e+04 1.561e-09
 14.63826     34.9 1.412e+04 2.097e-09
 14.65848     29.7 1.498e+04 2.815e-09
 14.67870     25.1 1.553e+04 3.673e-09
 14.69411     21.6 1.567e+04 4.311e-09
 14.70422     21.4 1.524e+04 3.673e-09
 14.71060     18.6 1.516e+04 3.694e-09
 14.72071     18.8 1.514e+04 3.810e-09
 14.73935     16.5 1.507e+04 3.670e-09
 14.75957     14.0 1.507e+04 3.453e-09
 14.77979     11.3 1.506e+04 3.225e-09
 14.79665      8.4 1.501e+04 3.027e-09
 14.80676      8.9 1.471e+04 2.736e-09
 14.82023      6.3 1.449e+04 2.538e-09
 14.83226      4.2 1.421e+04 2.340e-09
 14.84237      4.2 1.384e+04 2.122e-09
 14.86066      2.8 1.389e+04 2.091e-09
 14.88088      0.1 1.451e+04 2.244e-09
 14.89281     -6.7 1.740e+04 3.237e-09
 14.90292     -3.1 1.551e+04 2.272e-09
 14.92132    -10.7 1.891e+04 4.497e-09
 14.94154    -16.3 2.012e+04 9.456e-09
 14.96029    -18.9 1.997e+04 1.375e-08
 14.97040    -19.7 1.998e+04 1.507e-08
 14.97887    -20.1 1.970e+04 1.387e-08
 14.98898    -18.5 1.931e+04 1.224e-08
 15.00219    -18.9 1.877e+04 9.817e-09
 15.02241    -19.3 1.822e+04 5.329e-09
 15.04263    -22.1 1.763e+04 1.981e-09
 15.06285    -28.0 1.528e+04 6.919e-10
 15.07503    -33.0 1.187e+04 5.512e-10
 15.08514    -29.9 1.254e+04 5.138e-10
 15.09844    -32.1 1.158e+04 5.142e-10
 15.10855    -32.4 1.159e+04 5.104e-10
 15.12351    -32.5 1.172e+04 5.730e-10
 15.14372    -32.8 1.222e+04 7.156e-10
 15.16108    -33.5 1.286e+04 9.392e-10
 15.17119    -32.1 1.255e+04 8.375e-10
 15.18416    -33.0 1.328e+04 1.164e-09
 15.20438    -33.7 1.392e+04 1.595e-09
 15.22460    -34.1 1.432e+04 1.961e-09
 15.23659    -34.6 1.435e+04 2.001e-09
 15.24670    -35.2 1.424e+04 1.940e-09
 15.25724    -35.2 1.390e+04 1.718e-09
 15.26735    -34.3 1.399e+04 1.798e-09
 15.28526    -34.3 1.346e+04 1.405e-09
 15.30547    -34.4 1.286e+04 9.803e-10
 15.32569    -35.0 1.236e+04 6.614e-10
 15.34329    -35.9 1.193e+04 4.176e-10
 15.35340    -34.9 1.206e+04 5.204e-10
 15.36462    -35.9 1.170e+04 3.842e-10
 15.37473    -36.9 1.141e+04 3.032e-10
 15.39656    -36.6 1.082e+04 2.465e-10
 15.42954    -35.8 1.047e+04 2.313e-10
 15.44976    -34.6 1.084e+04 2.802e-10
 15.47753    -33.6 1.061e+04 2.559e-10
 15.51796    -33.0 1.042e+04 2.374e-10
 15.55840    -32.6 1.025e+04 2.254e-10
 15.59884    -32.7 1.018e+04 2.261e-10
 15.62186    -32.8 1.029e+04 2.435e-10
 15.63381    -31.7 1.033e+04 2.522e-10
 15.65122    -32.1 1.011e+04 2.303e-10
 15.67971    -32.6 1.052e+04 2.829e-10
 15.70782    -33.0 1.071e+04 3.208e-10
 15.71783    -32.3 1.064e+04 3.192e-10
 15.73007    -32.8 1.082e+04 3.595e-10
 15.75028    -34.3 1.114e+04 4.855e-10
 15.76895    -35.3 1.147e+04 6.415e-10
 15.77906    -35.4 1.133e+04 6.252e-10
 15.79072    -35.9 1.146e+04 7.529e-10
 15.80388    -36.4 1.165e+04 8.602e-10
 15.81399    -35.4 1.162e+04 8.227e-10
 15.83116    -36.4 1.201e+04 9.808e-10
 15.85138    -37.9 1.243e+04 1.193e-09
 15.87160    -39.7 1.303e+04 1.508e-09
 15.88993    -44.0 1.488e+04 2.426e-09
 15.90004    -41.0 1.432e+04 2.382e-09
 15.90710    -46.7 1.747e+04 4.318e-09
 15.91721    -47.7 1.715e+04 3.954e-09
 15.93225    -54.3 1.878e+04 7.731e-09
 15.95247    -59.4 1.825e+04 8.955e-09
 15.97269    -64.7 1.835e+04 8.318e-09
 15.98609    -72.4 1.878e+04 5.978e-09
 15.99620    -69.2 1.851e+04 6.811e-09
 16.01313    -80.4 1.894e+04 5.286e-09
 16.03334    -89.2 1.665e+04 5.138e-09
 16.04525    -92.2 1.520e+04 5.007e-09
 16.05535    -91.1 1.452e+04 4.022e-09
 16.07215    -91.9 1.429e+04 3.761e-09
 16.08226    -91.9 1.425e+04 3.775e-09
 16.09400    -92.6 1.453e+04 3.393e-09
 16.11422    -93.9 1.435e+04 2.439e-09
 16.13444    -96.6 1.305e+04 1.405e-09
 16.15466    -99.4 1.154e+04 7.773e-10
 16.16831   -101.0 1.071e+04 5.253e-10
 16.17682   -100.1 1.119e+04 6.885e-10
 16.18339    -98.9 1.118e+04 6.938e-10
 16.19509   -100.1 1.070e+04 5.203e-10
 16.21531   -101.0 1.045e+04 4.409e-10
 16.24574   -100.8 1.022e+04 3.950e-10
 16.28627   -101.1 9.954e+03 3.594e-10
 16.32671   -100.6 9.930e+03 3.518e-10
 16.35072   -100.2 9.986e+03 3.413e-10
 16.37093    -99.9 9.852e+03 3.154e-10
 16.40758    -99.6 9.788e+03 3.125e-10
 16.43966    -99.2 9.785e+03 3.300e-10
 16.45988    -98.4 9.794e+03 3.293e-10
 16.48846    -97.8 9.964e+03 3.740e-10
 16.52282    -97.2 1.010e+04 3.926e-10
 16.54304    -96.7 1.020e+04 4.240e-10
 16.56933    -96.2 1.025e+04 4.492e-10
 16.59956    -95.3 1.025e+04 3.990e-10
 16.61879    -98.3 1.152e+04 5.715e-10
 16.62890    -99.0 1.201e+04 6.964e-10
 16.63990   -101.6 1.242e+04 1.165e-09
 16.66012   -102.6 1.312e+04 2.013e-09
 16.68034   -103.4 1.418e+04 3.052e-09
 16.70056   -104.7 1.527e+04 4.317e-09
 16.71495   -107.7 1.646e+04 5.261e-09
 16.72004   -108.6 1.640e+04 5.143e-09
 16.72587   -107.5 1.577e+04 4.169e-09
 16.74100   -112.1 1.608e+04 4.313e-09
 16.76122   -117.2 1.523e+04 3.798e-09
 16.78143   -121.9 1.478e+04 3.310e-09
 16.80100   -127.6 1.514e+04 3.143e-09
 16.81111   -128.8 1.493e+04 2.810e-09
 16.82187   -136.8 1.542e+04 3.048e-09
 16.84209   -143.5 1.519e+04 3.744e-09
 16.85391   -147.4 1.527e+04 4.417e-09
 16.86401   -147.2 1.502e+04 4.041e-09
 16.88253   -150.6 1.513e+04 4.106e-09
 16.89716   -154.5 1.470e+04 3.071e-09
 16.90727   -154.9 1.422e+04 2.663e-09
 16.92296   -159.5 1.254e+04 1.480e-09
 16.94318   -163.2 1.099e+04 8.648e-10
 16.96340   -165.1 1.023e+04 5.530e-10
 16.98194   -166.4 9.846e+03 3.819e-10
 16.99164   -166.0 9.858e+03 3.774e-10
 16.99332   -165.7 9.765e+03 3.426e-10
 17.01405   -167.2 9.528e+03 2.866e-10
 17.05458   -169.1 9.159e+03 2.398e-10
 17.07957   -169.5 9.003e+03 2.225e-10
 17.09979   -167.9 8.685e+03 1.830e-10
 17.13546   -167.6 8.693e+03 1.868e-10
 17.17589   -167.1 8.901e+03 2.214e-10
 17.21633   -166.3 9.151e+03 2.636e-10
 17.24832   -165.5 9.329e+03 2.922e-10
 17.26345   -164.8 9.221e+03 2.794e-10
 17.27189   -163.4 9.097e+03 2.592e-10
 17.29720   -162.6 9.245e+03 2.792e-10
 17.33764   -161.8 9.304e+03 2.850e-10
 17.37808   -160.9 9.310e+03 2.824e-10
 17.41852   -160.0 9.289e+03 2.799e-10
 17.44400   -158.9 9.268e+03 2.793e-10
 17.46421   -157.5 9.151e+03 2.630e-10
 17.49939   -156.5 9.115e+03 2.600e-10
 17.52461   -155.4 9.078e+03 2.580e-10
 17.54483   -154.7 8.955e+03 2.337e-10
 17.58027   -153.6 8.919e+03 2.324e-10
 17.61610   -152.4 8.895e+03 2.327e-10
 17.63632   -151.1 8.881e+03 2.306e-10
 17.66114   -149.9 8.835e+03 2.274e-10
 17.70158   -148.5 8.765e+03 2.182e-10
 17.74201   -147.1 8.675e+03 2.050e-10
 17.78069   -145.5 8.616e+03 1.936e-10
 17.80091   -144.6 8.611e+03 1.908e-10
 17.80842   -142.9 8.586e+03 1.837e-10
 17.82864   -142.3 8.575e+03 1.823e-10
 17.86333   -140.6 8.573e+03 1.805e-10
 17.90376   -138.8 8.695e+03 1.928e-10
 17.94420   -136.8 8.992e+03 2.370e-10
 17.98053   -134.7 9.367e+03 3.059e-10
 18.00075   -134.3 9.403e+03 3.079e-10
 18.02508   -131.9 9.828e+03 4.001e-10
 18.05531   -129.3 1.002e+04 4.487e-10
 18.06689   -129.3 1.005e+04 4.620e-10
 18.07710   -128.8 9.974e+03 4.272e-10
 18.08670   -127.3 1.020e+04 4.930e-10
 18.09671   -127.2 1.019e+04 5.008e-10
 18.11586   -126.8 1.027e+04 5.340e-10
 18.13608   -125.8 1.045e+04 5.931e-10
 18.15630   -124.6 1.051e+04 6.035e-10
 18.17265   -123.4 1.061e+04 5.890e-10
 18.18276   -123.5 1.059e+04 5.925e-10
 18.19493   -122.4 1.059e+04 5.527e-10
 18.20504   -122.0 1.059e+04 5.539e-10
 18.21696   -121.0 1.060e+04 5.290e-10
 18.23718   -120.2 1.060e+04 5.163e-10
 18.26760   -119.8 1.066e+04 5.166e-10
 18.30814   -118.0 1.064e+04 5.074e-10
 18.33327   -116.3 1.066e+04 4.982e-10
 18.34987   -115.3 1.078e+04 5.499e-10
 18.36517   -116.0 1.105e+04 6.885e-10
 18.38901   -114.5 1.110e+04 6.925e-10
 18.41924   -113.4 1.092e+04 6.278e-10
 18.43936   -112.9 1.087e+04 6.222e-10
 18.45103   -112.3 1.088e+04 6.308e-10
 18.46114   -112.8 1.088e+04 6.302e-10
 18.47122   -112.3 1.083e+04 6.167e-10
 18.48133   -112.0 1.095e+04 6.612e-10
 18.50002   -111.5 1.094e+04 6.628e-10
 18.52024   -111.0 1.093e+04 6.605e-10
 18.53708   -110.5 1.092e+04 6.483e-10
 18.54719   -111.3 1.086e+04 5.700e-10
 18.56067   -111.1 1.087e+04 5.472e-10
 18.58089   -111.2 1.093e+04 5.324e-10
 18.59926   -111.6 1.094e+04 5.269e-10
 18.60937   -111.6 1.120e+04 6.347e-10
 18.62133   -112.2 1.120e+04 6.409e-10
 18.63324   -113.0 1.118e+04 6.491e-10
 18.64335   -114.0 1.115e+04 6.552e-10
 18.66177   -114.6 1.113e+04 6.695e-10
 18.68199   -115.5 1.113e+04 6.705e-10
 18.70220   -116.8 1.105e+04 6.599e-10
 18.71929   -118.5 1.083e+04 6.518e-10
 18.72940   -119.3 1.076e+04 6.280e-10
 18.73741   -120.8 1.060e+04 6.245e-10
 18.74752   -120.6 1.059e+04 6.242e-10
 18.76286   -121.6 1.041e+04 6.634e-10
 18.78308   -122.4 1.054e+04 7.102e-10
 18.80330   -123.4 1.062e+04 7.251e-10
 18.81546   -124.7 1.060e+04 7.262e-10
 18.82556   -125.2 1.059e+04 7.246e-10
 18.84373   -126.5 1.040e+04 6.822e-10
 18.86395   -127.9 1.015e+04 5.993e-10
 18.87555   -129.4 9.850e+03 4.755e-10
 18.88566   -128.5 9.827e+03 4.488e-10
 18.90161   -129.4 9.616e+03 3.382e-10
 18.92192   -130.2 9.582e+03 3.345e-10
 18.95513   -132.6 9.377e+03 3.050e-10
 18.99557   -133.8 9.314e+03 3.002e-10
 19.03601   -134.0 9.410e+03 3.060e-10
 19.07381   -134.1 9.502e+03 3.128e-10
 19.09403   -133.8 9.611e+03 3.172e-10
 19.11688   -133.6 9.603e+03 3.038e-10
 19.14193   -133.3 9.534e+03 2.680e-10
 19.16215   -131.7 9.365e+03 2.472e-10
 19.19776   -131.5 9.282e+03 2.094e-10
 19.23819   -131.5 9.147e+03 1.827e-10
 19.26613   -131.4 9.113e+03 1.773e-10
 19.28635   -130.8 9.212e+03 1.841e-10
 19.31907   -130.8 9.471e+03 2.020e-10
 19.34930   -130.1 9.778e+03 2.645e-10
 19.36210   -130.4 9.888e+03 2.833e-10
 19.37220   -130.4 9.958e+03 2.902e-10
 19.38964   -131.1 1.043e+04 4.677e-10
 19.40792   -131.7 1.084e+04 6.702e-10
 19.41803   -130.1 1.048e+04 4.979e-10
 19.43008   -130.5 1.085e+04 7.315e-10
 19.44815   -130.4 1.110e+04 8.455e-10
 19.45826   -130.1 1.122e+04 9.002e-10
 19.47051   -129.8 1.131e+04 9.305e-10
 19.49073   -129.7 1.132e+04 9.001e-10
 19.51095   -129.9 1.121e+04 8.080e-10
 19.53117   -130.3 1.092e+04 6.905e-10
 19.56159   -129.5 1.071e+04 6.122e-10
 19.60213   -128.9 1.044e+04 5.342e-10
 19.63056   -127.9 1.038e+04 5.049e-10
 19.65077   -127.0 1.038e+04 5.035e-10
 19.67430   -126.1 1.040e+04 4.766e-10
 19.69452   -125.1 1.053e+04 5.426e-10
 19.72344   -124.6 1.069e+04 5.792e-10
 19.75367   -124.2 1.059e+04 5.291e-10
 19.77379   -124.3 1.065e+04 5.422e-10
 19.79401   -125.6 1.103e+04 6.317e-10
 19.81225   -128.1 1.194e+04 9.089e-10
 19.82070   -128.1 1.241e+04 1.156e-09
 19.82268   -127.8 1.233e+04 1.030e-09
 19.83445   -131.0 1.341e+04 1.700e-09
 19.85467   -133.6 1.414e+04 2.752e-09
 19.87489   -135.6 1.486e+04 3.908e-09
 19.89510   -138.3 1.596e+04 4.719e-09
 19.90874   -143.8 1.733e+04 5.048e-09
 19.91884   -144.6 1.780e+04 6.184e-09
 19.93554   -152.1 1.802e+04 6.066e-09
 19.95035   -156.9 1.694e+04 4.915e-09
 19.95535   -156.8 1.675e+04 4.621e-09
 19.95672   -158.4 1.668e+04 4.737e-09
 19.96177   -158.3 1.673e+04 4.878e-09
 19.97083   -161.2 1.602e+04 4.896e-09
 19.98094   -161.9 1.591e+04 5.217e-09
 19.99104   -163.0 1.579e+04 5.436e-09
 19.99974   -163.4 1.583e+04 5.401e-09
 20.00485   -163.2 1.572e+04 5.303e-09
 20.01642   -164.8 1.556e+04 4.767e-09
 20.03663   -167.5 1.503e+04 2.903e-09
 20.05685   -171.7 1.362e+04 1.342e-09
 20.07707   -176.3 1.156e+04 6.669e-10
 20.08854   -178.8 1.042e+04 5.256e-10
 20.09231   -177.3 1.046e+04 5.123e-10
 20.10106   -177.6 1.026e+04 4.933e-10
 20.11751   -178.3 9.961e+03 4.340e-10
 20.13773   -178.5 9.889e+03 4.173e-10
 20.15795   -178.5 9.887e+03 4.152e-10
 20.17700   -178.6 9.935e+03 4.190e-10
 20.18711   -178.5 1.011e+04 4.444e-10
 20.19838   -178.8 1.012e+04 4.948e-10
 20.21658   -179.4 1.023e+04 6.166e-10
 20.22669   -178.7 1.002e+04 5.315e-10
 20.23882   -179.7 1.063e+04 7.965e-10
 20.25904   -181.3 1.210e+04 1.372e-09
 20.27316   -183.9 1.429e+04 2.544e-09
 20.28327   -183.7 1.418e+04 2.308e-09
 20.29948   -187.3 1.623e+04 4.191e-09
 20.31970   -190.6 1.781e+04 6.886e-09
 20.33481   -192.2 1.854e+04 9.016e-09
 20.34487   -194.2 1.891e+04 1.066e-08
 20.35463   -196.3 1.891e+04 1.159e-08
 20.35968   -195.5 1.909e+04 1.205e-08
 20.36417   -197.2 1.899e+04 1.216e-08
 20.36923   -197.0 1.877e+04 1.151e-08
 20.37520   -198.2 1.815e+04 1.021e-08
 20.38531   -199.5 1.742e+04 7.435e-09
 20.39542   -201.2 1.660e+04 5.140e-09
 20.40553   -202.8 1.590e+04 3.824e-09
 20.42074   -204.2 1.551e+04 3.114e-09
 20.44101   -208.3 1.439e+04 1.845e-09
 20.45538   -213.0 1.277e+04 1.211e-09
 20.46548   -212.8 1.270e+04 1.185e-09
 20.48144   -215.5 1.204e+04 1.075e-09
 20.49287   -216.7 1.194e+04 1.070e-09
 20.50298   -215.6 1.185e+04 9.933e-10
 20.52188   -216.6 1.188e+04 1.064e-09
 20.54143   -217.8 1.254e+04 1.319e-09
 20.55154   -217.2 1.225e+04 1.126e-09
 20.56232   -218.8 1.291e+04 1.373e-09
 20.58254   -220.6 1.349e+04 1.702e-09
 20.60276   -222.3 1.384e+04 2.005e-09
 20.62091   -223.9 1.393e+04 2.118e-09
 20.63102   -222.3 1.386e+04 2.085e-09
 20.63759   -223.8 1.387e+04 2.121e-09
 20.64770   -223.4 1.359e+04 1.867e-09
 20.66341   -224.7 1.342e+04 1.793e-09
 20.68363   -225.9 1.302e+04 1.349e-09
 20.70385   -227.4 1.253e+04 8.850e-10
 20.72364   -229.1 1.205e+04 5.661e-10
 20.73375   -228.7 1.209e+04 5.908e-10
 20.74429   -230.5 1.171e+04 4.053e-10
 20.75915   -232.6 1.136e+04 3.053e-10
 20.76926   -230.3 1.136e+04 3.257e-10
 20.78472   -230.7 1.114e+04 2.876e-10
 20.81515   -230.6 1.100e+04 2.666e-10
 20.85568   -231.5 1.082e+04 2.364e-10
 20.89594   -232.3 1.068e+04 2.115e-10
 20.93638   -232.1 1.054e+04 1.850e-10
 20.97700   -232.2 1.051e+04 1.608e-10
 21.01533   -232.3 1.053e+04 1.448e-10
 21.03554   -229.6 1.044e+04 1.387e-10
 21.05787   -229.7 1.047e+04 1.291e-10
 21.08826   -230.1 1.050e+04 1.285e-10
 21.10848   -229.9 1.064e+04 1.407e-10
 21.13875   -230.2 1.097e+04 1.944e-10
 21.17918   -229.9 1.128e+04 2.710e-10
 21.21962   -229.4 1.153e+04 3.362e-10
 21.26006   -228.3 1.167e+04 3.712e-10
 21.28059   -227.6 1.177e+04 3.889e-10
 21.29193   -226.4 1.168e+04 3.749e-10
 21.31184   -225.5 1.141e+04 3.142e-10
 21.34093   -224.7 1.143e+04 3.097e-10
 21.38137   -223.8 1.138e+04 2.929e-10
 21.42181   -222.7 1.133e+04 2.662e-10
 21.45269   -221.4 1.130e+04 2.391e-10
 21.47291   -220.2 1.129e+04 2.372e-10
 21.50268   -218.7 1.131e+04 2.337e-10
 21.54312   -217.5 1.147e+04 2.382e-10
 21.56791   -216.5 1.199e+04 3.107e-10
 21.58813   -214.8 1.148e+04 2.182e-10
 21.62399   -213.9 1.200e+04 3.122e-10
 21.64501   -213.1 1.247e+04 4.599e-10
 21.66523   -212.1 1.279e+04 5.855e-10
 21.70487   -211.3 1.326e+04 8.491e-10
 21.74530   -210.6 1.352e+04 1.028e-09
 21.78574   -210.0 1.357e+04 1.074e-09
 21.81712   -209.1 1.323e+04 9.381e-10
 21.83514   -208.3 1.367e+04 1.284e-09
 21.84420   -207.0 1.370e+04 1.270e-09
 21.86662   -206.0 1.335e+04 1.067e-09
 21.90705   -204.5 1.298e+04 8.450e-10
 21.94749   -202.7 1.272e+04 7.086e-10
 21.98793   -200.8 1.267e+04 6.721e-10
 22.00944   -198.7 1.271e+04 6.726e-10
 22.02966   -198.2 1.272e+04 7.334e-10
 22.06880   -196.4 1.308e+04 8.140e-10
 22.10028   -194.9 1.369e+04 1.131e-09
 22.12050   -194.8 1.379e+04 1.251e-09
 22.14968   -193.4 1.444e+04 1.746e-09
 22.17991   -192.2 1.464e+04 1.992e-09
 22.19146   -191.6 1.490e+04 2.218e-09
 22.20157   -192.0 1.460e+04 2.004e-09
 22.22025   -191.9 1.488e+04 2.244e-09
 22.23823   -191.9 1.516e+04 2.499e-09
 22.24834   -191.9 1.536e+04 2.750e-09
 22.26068   -192.0 1.597e+04 3.318e-09
 22.27751   -192.2 1.684e+04 4.221e-09
 22.28762   -192.6 1.544e+04 3.081e-09
 22.30112   -192.8 1.582e+04 3.366e-09
 22.32134   -193.2 1.637e+04 3.582e-09
 22.34156   -194.0 1.681e+04 3.656e-09
 22.36178   -195.6 1.738e+04 3.276e-09
 22.37367   -197.2 1.764e+04 2.787e-09
 22.37816   -195.1 1.510e+04 1.498e-09
 22.38648   -196.4 1.663e+04 3.007e-09
 22.40221   -197.1 1.695e+04 3.096e-09
 22.42243   -197.2 1.710e+04 3.090e-09
 22.44265   -197.2 1.698e+04 3.085e-09
 22.45972   -196.9 1.667e+04 3.045e-09
 22.46983   -195.1 1.601e+04 1.715e-09
 22.48309   -194.8 1.577e+04 1.833e-09
 22.50331   -194.3 1.549e+04 1.982e-09
 22.51452   -193.6 1.522e+04 2.156e-09
 22.52463   -193.3 1.566e+04 3.684e-09
 22.54374   -192.5 1.538e+04 3.543e-09
 22.55588   -191.6 1.517e+04 3.390e-09
 22.56599   -190.4 1.495e+04 2.699e-09
 22.58418   -189.5 1.484e+04 2.695e-09
 22.60440   -188.5 1.472e+04 2.631e-09
 22.62462   -187.7 1.458e+04 2.495e-09
 22.64194   -186.8 1.443e+04 2.316e-09
 22.64977   -185.6 1.426e+04 1.906e-09
 22.65267   -185.6 1.424e+04 2.028e-09
 22.66506   -184.6 1.405e+04 1.905e-09
 22.68528   -183.7 1.372e+04 1.777e-09
 22.70549   -182.7 1.345e+04 1.606e-09
 22.72571   -181.6 1.323e+04 1.461e-09
 22.73810   -180.3 1.295e+04 1.310e-09
 22.74821   -179.6 1.312e+04 1.439e-09
 22.76615   -178.4 1.289e+04 1.333e-09
 22.78070   -177.1 1.260e+04 1.151e-09
 22.79081   -176.5 1.227e+04 7.512e-10
 22.80659   -175.1 1.204e+04 6.003e-10
 22.82415   -173.9 1.185e+04 4.747e-10
 22.83426   -173.3 1.204e+04 6.613e-10
 22.84702   -172.2 1.187e+04 5.236e-10
 22.86724   -171.1 1.167e+04 4.064e-10
 22.88746   -170.3 1.151e+04 3.436e-10
 22.90768   -169.3 1.136e+04 3.103e-10
 22.91885   -168.8 1.131e+04 3.059e-10
 22.92147   -168.8 1.109e+04 2.473e-10
 22.93052   -166.9 1.134e+04 2.804e-10
 22.94812   -166.0 1.125e+04 2.744e-10
 22.96834   -165.0 1.119e+04 2.715e-10
 22.98855   -164.0 1.116e+04 2.744e-10
 23.00636   -163.0 1.118e+04 2.851e-10
 23.01647   -162.6 1.136e+04 3.492e-10
 23.02899   -161.8 1.136e+04 3.680e-10
 23.04689   -161.2 1.138e+04 3.943e-10
 23.05700   -161.0 1.131e+04 3.519e-10
 23.06943   -160.0 1.147e+04 4.389e-10
 23.08965   -159.8 1.150e+04 4.672e-10
 23.10252   -159.0 1.170e+04 6.466e-10
 23.12284   -158.3 1.183e+04 8.245e-10
 23.15040   -157.2 1.218e+04 1.114e-09
 23.17052   -156.6 1.241e+04 1.335e-09
 23.18503   -156.1 1.261e+04 1.544e-09
 23.19298   -156.1 1.277e+04 1.672e-09
 23.19869   -155.5 1.251e+04 1.464e-09
 23.21096   -155.2 1.255e+04 1.540e-09
 23.23118   -154.6 1.255e+04 1.580e-09
 23.25140   -154.1 1.241e+04 1.521e-09
 23.27162   -153.6 1.224e+04 1.414e-09
 23.28474   -153.2 1.212e+04 1.318e-09
 23.29485   -152.6 1.156e+04 9.911e-10
 23.32226   -151.8 1.125e+04 8.492e-10
 23.36279   -150.1 1.089e+04 7.131e-10
 23.40323   -148.2 1.051e+04 5.975e-10
 23.44130   -146.0 1.026e+04 5.325e-10
 23.46152   -145.7 1.022e+04 5.248e-10
 23.46715   -143.3 1.012e+04 4.961e-10
 23.48736   -142.1 9.879e+03 4.176e-10
 23.52454   -139.8 9.887e+03 4.275e-10
 23.56498   -137.8 1.002e+04 4.710e-10
 23.60542   -136.0 1.024e+04 5.419e-10
 23.63925   -134.4 1.053e+04 6.428e-10
 23.65947   -132.9 1.039e+04 6.088e-10
 23.68629   -131.5 1.068e+04 7.221e-10
 23.71760   -130.3 1.089e+04 8.127e-10
 23.73781   -130.0 1.088e+04 8.067e-10
 23.76717   -129.0 1.091e+04 8.184e-10
 23.80760   -127.7 1.072e+04 7.462e-10
 23.83157   -126.2 1.037e+04 5.966e-10
 23.85179   -124.8 1.059e+04 7.010e-10
 23.88848   -123.2 1.025e+04 5.669e-10
 23.92892   -121.5 9.929e+03 4.554e-10
 23.96935   -119.7 9.646e+03 3.720e-10
 23.99389   -117.9 9.400e+03 3.108e-10
 24.00799   -116.8 9.276e+03 2.702e-10
 24.02389   -115.6 9.495e+03 3.346e-10
 24.05023   -113.7 9.275e+03 2.868e-10
 24.09067   -111.8 9.103e+03 2.524e-10
 24.13110   -109.9 8.975e+03 2.256e-10
 24.17154   -107.9 8.895e+03 2.054e-10
 24.19600   -106.1 8.861e+03 1.915e-10
 24.21622   -105.0 9.094e+03 2.658e-10
 24.24996   -103.3 9.057e+03 2.522e-10
 24.27018   -102.4 9.081e+03 2.506e-10
 24.29285   -100.9 9.031e+03 2.388e-10
 24.33329    -99.4 8.984e+03 2.244e-10
 24.36810    -97.7 8.915e+03 2.142e-10
 24.38832    -96.2 9.039e+03 2.654e-10
 24.41416    -94.3 8.853e+03 2.319e-10
 24.45460    -92.2 8.680e+03 2.001e-10
 24.49504    -90.0 8.548e+03 1.721e-10
 24.52626    -87.9 8.517e+03 1.568e-10
 24.54647    -87.8 8.888e+03 2.034e-10
 24.56043    -85.8 9.119e+03 2.249e-10
 24.58064    -84.0 8.801e+03 1.897e-10
 24.61635    -81.9 9.045e+03 2.157e-10
 24.65679    -79.9 9.341e+03 2.643e-10
 24.69722    -77.8 9.664e+03 3.384e-10
 24.73253    -75.6 1.000e+04 4.388e-10
 24.75275    -73.6 9.567e+03 3.277e-10
 24.77810    -71.3 9.881e+03 4.058e-10
 24.80255    -68.9 1.016e+04 4.863e-10
 24.82277    -68.6 1.047e+04 6.097e-10
 24.85897    -66.1 1.065e+04 6.694e-10
 24.89941    -63.6 1.074e+04 6.804e-10
 24.92485    -61.2 1.093e+04 6.502e-10
 24.94507    -58.9 1.046e+04 5.652e-10
 24.98029    -56.3 1.059e+04 5.327e-10
 25.02072    -53.9 1.088e+04 5.241e-10
 25.05095    -50.5 1.105e+04 5.570e-10
 25.06854    -53.4 1.776e+04 5.647e-10
 25.07865    -56.5 2.491e+04 6.289e-10
 25.09129    -67.4 3.421e+04 3.606e-09
 25.10641    -70.6 2.959e+04 1.039e-08
 25.11183    -71.3 2.368e+04 3.973e-08
 25.11688    -70.6 2.818e+04 2.005e-08
 25.12658    -70.9 2.250e+04 7.892e-08
 25.13669    -69.2 2.148e+04 2.169e-07
 25.14257    -68.1 2.152e+04 4.121e-07
 25.14762    -67.9 2.106e+04 3.433e-07
 25.15485    -68.0 2.103e+04 4.042e-07
 25.15991    -67.9 2.121e+04 2.809e-07
 25.16701    -68.5 2.124e+04 2.792e-07
 25.17712    -68.9 2.236e+04 1.556e-07
 25.18723    -70.3 2.727e+04 4.254e-08
 25.19734    -85.3 3.652e+04 5.413e-09
 25.20293   -103.9 1.988e+04 1.154e-09
 25.20712    -98.4 2.733e+04 1.784e-09
 25.21164   -102.5 2.339e+04 1.410e-09
 25.21756   -110.1 1.260e+04 9.902e-10
 25.23277   -111.2 1.168e+04 9.463e-10
 25.25304   -110.6 1.148e+04 9.054e-10
 25.27326   -109.5 1.138e+04 8.639e-10
 25.28908   -108.6 1.128e+04 8.124e-10
 25.29919   -109.1 1.162e+04 9.803e-10
 25.31370   -108.0 1.146e+04 9.080e-10
 25.33392   -107.0 1.130e+04 8.421e-10
 25.34483   -106.0 1.118e+04 7.897e-10
 25.35494   -106.4 1.123e+04 8.127e-10
 25.37435   -105.5 1.117e+04 7.912e-10
 25.38525   -104.7 1.114e+04 7.843e-10
 25.39535   -104.6 1.135e+04 9.142e-10
 25.41479   -103.8 1.134e+04 9.128e-10
 25.43501   -103.1 1.135e+04 9.246e-10
 25.45523   -102.5 1.140e+04 9.681e-10
 25.47130   -101.8 1.148e+04 1.030e-09
 25.47883   -101.5 1.155e+04 1.071e-09
 25.48298   -101.8 1.149e+04 1.030e-09
 25.49567   -101.0 1.158e+04 1.091e-09
 25.51588   -100.4 1.164e+04 1.136e-09
 25.53610    -99.7 1.166e+04 1.150e-09
 25.55632    -99.1 1.164e+04 1.148e-09
 25.56746    -98.5 1.156e+04 1.104e-09
 25.57757    -98.0 1.136e+04 9.785e-10
 25.59676    -97.5 1.128e+04 9.235e-10
 25.61101    -97.1 1.123e+04 8.747e-10
 25.62112    -97.5 1.105e+04 7.812e-10
 25.63720    -97.1 1.100e+04 7.441e-10
 25.65351    -96.8 1.096e+04 7.139e-10
 25.66362    -96.5 1.078e+04 6.534e-10
 25.67763    -96.1 1.074e+04 6.392e-10
 25.69785    -95.7 1.067e+04 6.190e-10
 25.71807    -95.2 1.059e+04 5.920e-10
 25.73829    -94.8 1.052e+04 5.645e-10
 25.74916    -94.3 1.049e+04 5.423e-10
 25.75043    -94.0 1.015e+04 4.167e-10
 25.75978    -93.6 1.009e+04 3.993e-10
 25.77873    -93.2 1.008e+04 3.717e-10
 25.79894    -93.0 1.009e+04 3.637e-10
 25.81916    -92.5 1.010e+04 3.545e-10
 25.83572    -92.3 1.012e+04 3.545e-10
 25.84583    -91.4 9.932e+03 3.212e-10
 25.85960    -90.9 9.955e+03 3.202e-10
 25.87720    -90.8 1.001e+04 3.280e-10
 25.88740    -90.9 9.797e+03 2.742e-10
 25.91034    -90.5 9.982e+03 3.014e-10
 25.95078    -90.1 1.021e+04 3.696e-10
 25.98101    -89.8 1.043e+04 4.616e-10
 26.00113    -89.8 1.052e+04 5.176e-10
 26.01534    -89.7 1.060e+04 5.749e-10
 26.02204    -89.5 1.055e+04 5.378e-10
 26.02805    -89.2 1.049e+04 5.283e-10
 26.04157    -89.0 1.064e+04 5.946e-10
 26.06179    -88.7 1.073e+04 6.244e-10
 26.08201    -88.4 1.076e+04 6.255e-10
 26.10222    -88.2 1.073e+04 5.857e-10
 26.11410    -88.1 1.068e+04 5.211e-10
 26.12421    -88.0 1.087e+04 6.169e-10
 26.14266    -88.1 1.081e+04 5.408e-10
 26.15349    -88.1 1.070e+04 4.743e-10
 26.16360    -88.3 1.107e+04 6.431e-10
 26.19014    -88.6 1.117e+04 6.662e-10
 26.21036    -89.1 1.125e+04 7.173e-10
 26.23374    -89.5 1.142e+04 8.367e-10
 26.27428    -89.5 1.136e+04 8.427e-10
 26.31472    -89.7 1.147e+04 9.397e-10
 26.35515    -90.1 1.177e+04 1.109e-09
 26.38256    -90.8 1.230e+04 1.422e-09
 26.40278    -91.4 1.185e+04 1.178e-09
 26.41987    -92.2 1.223e+04 1.418e-09
 26.44009    -93.0 1.161e+04 9.961e-10
 26.47646    -94.3 1.164e+04 9.780e-10
 26.51690    -96.1 1.156e+04 8.798e-10
 26.55466    -98.2 1.135e+04 7.329e-10
 26.57478    -99.3 1.132e+04 7.105e-10
 26.58747   -100.7 1.122e+04 6.662e-10
 26.60769   -101.0 1.118e+04 6.386e-10
 26.62791   -102.1 1.100e+04 5.650e-10
 26.64813   -102.4 1.092e+04 5.290e-10
 26.66074   -102.8 1.076e+04 4.752e-10
 26.67085   -102.8 1.081e+04 4.916e-10
 26.68586   -102.8 1.074e+04 4.586e-10
 26.69606   -103.3 1.082e+04 4.900e-10
 26.71909   -103.5 1.048e+04 3.663e-10
 26.74699   -103.3 1.023e+04 2.939e-10
 26.76720   -102.7 1.005e+04 2.483e-10
 26.79996   -101.9 9.884e+03 2.072e-10
 26.84040   -100.7 9.868e+03 1.997e-10
 26.88084    -99.8 9.928e+03 2.015e-10
 26.91909    -99.5 1.035e+04 2.423e-10
 26.93931    -99.1 1.012e+04 1.568e-10
 26.95223    -98.9 1.079e+04 2.995e-10
 26.97245    -99.8 1.123e+04 4.357e-10
 27.00215    -99.0 1.205e+04 8.617e-10
 27.04259    -98.5 1.285e+04 1.386e-09
 27.08302    -98.3 1.333e+04 1.701e-09
 27.11141    -99.7 1.343e+04 1.780e-09
 27.12142    -99.0 1.372e+04 2.056e-09
 27.13337    -99.6 1.372e+04 2.061e-09
 27.15359   -100.7 1.370e+04 2.012e-09
 27.17381   -102.1 1.369e+04 1.985e-09
 27.19403   -103.7 1.369e+04 2.033e-09
 27.20738   -104.9 1.363e+04 2.099e-09
 27.21749   -105.3 1.408e+04 2.285e-09
 27.22833   -106.0 1.375e+04 2.285e-09
 27.23844   -106.8 1.354e+04 2.140e-09
 27.25469   -107.0 1.303e+04 1.828e-09
 27.27491   -106.8 1.246e+04 1.407e-09
 27.29343   -106.5 1.189e+04 1.026e-09
 27.30354   -106.7 1.172e+04 9.213e-10
 27.31534   -106.6 1.125e+04 6.464e-10
 27.33556   -106.4 1.093e+04 4.793e-10
 27.35578   -106.1 1.071e+04 3.828e-10
 27.36648   -105.6 1.061e+04 3.375e-10
 27.37659   -105.7 1.060e+04 3.351e-10
 27.40642   -104.9 1.059e+04 3.215e-10
 27.44696   -103.3 1.057e+04 3.118e-10
 27.47584   -101.7 1.060e+04 3.181e-10
 27.49326   -103.3 1.058e+04 3.461e-10
 27.50482   -103.2 1.048e+04 3.172e-10
 27.51763   -101.7 1.052e+04 3.304e-10
 27.53775   -101.2 1.050e+04 3.377e-10
 27.55797   -100.7 1.070e+04 3.708e-10
 27.57181   -100.9 1.092e+04 3.991e-10
 27.58191   -101.9 1.114e+04 4.518e-10
 27.59840   -105.6 1.121e+04 4.551e-10
 27.61862   -109.8 1.364e+04 9.349e-10
 27.63266   -112.9 1.608e+04 2.388e-09
 27.64277   -113.9 1.678e+04 2.288e-09
 27.65786   -120.3 1.936e+04 6.570e-09
 27.66797   -121.4 1.888e+04 7.158e-09
 27.67928   -127.4 2.017e+04 1.113e-08
 27.69950   -135.2 2.054e+04 1.211e-08
 27.71972   -144.7 1.997e+04 8.402e-09
 27.73993   -156.5 1.697e+04 3.708e-09
 27.75402   -165.7 1.469e+04 2.690e-09
 27.76413   -165.5 1.449e+04 2.584e-09
 27.77081   -169.0 1.423e+04 2.551e-09
 27.78092   -171.1 1.352e+04 2.084e-09
 27.80059   -172.8 1.341e+04 2.107e-09
 27.82081   -174.4 1.343e+04 2.139e-09
 27.84007   -175.6 1.330e+04 2.124e-09
 27.85018   -174.9 1.350e+04 2.271e-09
 27.86125   -175.8 1.301e+04 1.989e-09
 27.88146   -176.6 1.239e+04 1.544e-09
 27.89884   -177.4 1.174e+04 1.148e-09
 27.90895   -177.8 1.165e+04 1.128e-09
 27.92190   -178.2 1.131e+04 9.329e-10
 27.93623   -178.6 1.111e+04 8.199e-10
 27.94634   -178.5 1.148e+04 9.685e-10
 27.96234   -179.0 1.141e+04 9.111e-10
 27.98256   -179.5 1.140e+04 8.979e-10
 28.00278   -180.3 1.144e+04 8.989e-10
 28.02228   -181.2 1.159e+04 9.585e-10
 28.03239   -181.3 1.245e+04 1.234e-09
 28.03699   -182.3 1.246e+04 1.278e-09
 28.04710   -181.9 1.328e+04 1.653e-09
 28.06343   -182.8 1.324e+04 1.626e-09
 28.08365   -183.8 1.285e+04 1.476e-09
 28.10387   -184.7 1.232e+04 1.283e-09
 28.11845   -185.5 1.186e+04 1.098e-09
 28.12855   -185.6 1.192e+04 1.012e-09
 28.14431   -186.4 1.121e+04 7.880e-10
 28.16453   -187.1 1.081e+04 6.686e-10
 28.17514   -187.7 1.066e+04 6.276e-10
 28.18525   -188.1 1.060e+04 6.039e-10
 28.20450   -188.5 1.056e+04 5.965e-10
 28.21461   -188.3 1.017e+04 5.129e-10
 28.22518   -188.7 1.019e+04 5.196e-10
 28.24540   -189.4 1.052e+04 6.204e-10
 28.26562   -190.4 1.107e+04 8.236e-10
 28.28584   -191.8 1.168e+04 1.125e-09
 28.30066   -193.3 1.231e+04 1.531e-09
 28.30789   -193.5 1.237e+04 1.497e-09
 28.31328   -195.1 1.289e+04 1.834e-09
 28.32627   -196.5 1.348e+04 2.415e-09
 28.34649   -197.8 1.385e+04 2.841e-09
 28.36671   -199.4 1.400e+04 2.997e-09
 28.38671   -201.1 1.394e+04 2.975e-09
 28.39682   -201.6 1.343e+04 2.396e-09
 28.40715   -203.6 1.307e+04 2.102e-09
 28.42737   -205.8 1.254e+04 1.697e-09
 28.44132   -207.8 1.190e+04 1.325e-09
 28.45143   -210.0 1.142e+04 1.064e-09
 28.46780   -211.4 1.089e+04 8.571e-10
 28.48287   -212.3 1.056e+04 7.231e-10
 28.49298   -212.2 1.063e+04 7.371e-10
 28.50824   -213.0 1.055e+04 6.742e-10
 28.52846   -214.4 1.056e+04 6.645e-10
 28.54868   -217.5 1.087e+04 6.748e-10
 28.56890   -222.5 1.335e+04 8.926e-10
 28.57947   -225.4 1.465e+04 1.440e-09
 28.58958   -226.0 1.428e+04 1.390e-09
 28.60933   -229.3 1.607e+04 3.284e-09
 28.62955   -231.1 1.714e+04 6.103e-09
 28.64977   -232.7 1.770e+04 8.030e-09
 28.66509   -234.7 1.780e+04 8.410e-09
 28.67519   -234.5 1.871e+04 1.119e-08
 28.69021   -237.0 1.857e+04 1.101e-08
 28.70750   -239.2 1.760e+04 7.713e-09
 28.71761   -239.3 1.731e+04 7.543e-09
 28.73065   -241.7 1.602e+04 4.421e-09
 28.75087   -244.5 1.436e+04 2.565e-09
 28.76125   -246.8 1.289e+04 1.747e-09
 28.77136   -245.8 1.349e+04 2.127e-09
 28.79130   -247.5 1.225e+04 1.483e-09
 28.81152   -248.3 1.166e+04 1.208e-09
 28.83174   -248.6 1.141e+04 1.045e-09
 28.84565   -248.7 1.125e+04 9.010e-10
 28.85110   -248.8 1.107e+04 8.227e-10
 28.85741   -249.7 1.139e+04 7.274e-10
 28.87218   -250.1 1.143e+04 6.791e-10
 28.89240   -250.5 1.152e+04 6.545e-10
 28.91261   -250.8 1.156e+04 6.497e-10
 28.93283   -250.8 1.166e+04 6.460e-10
 28.94346   -250.5 1.170e+04 6.691e-10
 28.95357   -251.6 1.128e+04 7.322e-10
 28.97327   -251.0 1.120e+04 7.441e-10
 28.98380   -250.4 1.110e+04 7.666e-10
 28.99391   -250.1 1.092e+04 6.773e-10
 29.01371   -249.5 1.091e+04 6.998e-10
 29.02951   -248.9 1.095e+04 7.271e-10
 29.03962   -249.7 1.111e+04 6.176e-10
 29.05414   -249.3 1.136e+04 6.100e-10
 29.07436   -248.8 1.161e+04 6.021e-10
 29.09458   -248.4 1.185e+04 5.842e-10
 29.11183   -248.0 1.213e+04 5.514e-10
 29.12194   -247.7 1.195e+04 4.980e-10
 29.12567   -247.5 1.200e+04 4.588e-10
 29.13578   -250.0 1.112e+04 3.946e-10
 29.15524   -249.7 1.081e+04 3.728e-10
 29.17546   -249.4 1.061e+04 3.557e-10
 29.19568   -249.0 1.054e+04 3.484e-10
 29.21173   -248.7 1.054e+04 3.474e-10
 29.22183   -249.1 1.076e+04 3.391e-10
 29.23611   -249.0 1.077e+04 3.398e-10
 29.24998   -249.1 1.079e+04 3.461e-10
 29.26009   -248.7 1.077e+04 3.219e-10
 29.27655   -249.0 1.088e+04 3.624e-10
 29.29677   -249.3 1.123e+04 4.952e-10
 29.30789   -249.5 1.179e+04 7.172e-10
 29.31800   -249.2 1.175e+04 7.818e-10
 29.33721   -249.2 1.229e+04 1.109e-09
 29.35742   -249.2 1.291e+04 1.529e-09
 29.37764   -249.2 1.347e+04 1.993e-09
 29.38813   -249.2 1.389e+04 2.395e-09
 29.39431   -249.0 1.320e+04 1.765e-09
 29.40405   -248.8 1.300e+04 1.680e-09
 29.41808   -248.9 1.323e+04 1.939e-09
 29.43830   -249.0 1.335e+04 2.124e-09
 29.45852   -248.9 1.335e+04 2.215e-09
 29.47874   -248.8 1.333e+04 2.236e-09
 29.49010   -248.4 1.314e+04 2.091e-09
 29.50021   -248.6 1.297e+04 2.024e-09
 29.51616   -248.3 1.277e+04 1.938e-09
 29.52627   -247.9 1.273e+04 1.808e-09
 29.53939   -247.5 1.264e+04 1.766e-09
 29.55961   -246.9 1.252e+04 1.710e-09
 29.57615   -246.4 1.245e+04 1.637e-09
 29.58626   -246.5 1.263e+04 1.647e-09
 29.60005   -246.1 1.270e+04 1.557e-09
 29.62027   -245.7 1.281e+04 1.461e-09
 29.64049   -245.6 1.291e+04 1.383e-09
 29.65431   -245.4 1.297e+04 1.338e-09
 29.66442   -244.7 1.268e+04 1.244e-09
 29.67231   -244.6 1.253e+04 1.198e-09
 29.68242   -245.4 1.211e+04 1.277e-09
 29.70114   -245.1 1.187e+04 1.359e-09
 29.72136   -244.8 1.182e+04 1.474e-09
 29.74158   -244.4 1.177e+04 1.580e-09
 29.75837   -243.8 1.168e+04 1.648e-09
 29.76847   -243.4 1.193e+04 1.645e-09
 29.78202   -242.8 1.190e+04 1.658e-09
 29.79246   -242.1 1.165e+04 1.672e-09
 29.80257   -241.5 1.182e+04 1.392e-09
 29.82245   -240.7 1.157e+04 1.410e-09
 29.84267   -239.9 1.138e+04 1.361e-09
 29.85453   -239.0 1.129e+04 1.275e-09
 29.86464   -239.0 1.150e+04 1.005e-09
 29.88311   -238.2 1.142e+04 9.991e-10
 29.90333   -237.4 1.146e+04 9.999e-10
 29.92049   -236.6 1.160e+04 1.002e-09
 29.93060   -236.3 1.164e+04 1.101e-09
 29.94058   -235.5 1.185e+04 1.149e-09
 29.95069   -235.8 1.138e+04 1.033e-09
 29.96398   -235.0 1.165e+04 1.175e-09
 29.98420   -234.5 1.205e+04 1.297e-09
 30.00442   -234.1 1.247e+04 1.343e-09
 30.02464   -234.1 1.270e+04 1.341e-09
 30.03674   -234.2 1.292e+04 1.341e-09
 30.04685   -233.4 1.287e+04 1.900e-09
 30.05864   -233.7 1.332e+04 2.107e-09
 30.06875   -232.9 1.326e+04 2.353e-09
 30.08530   -233.1 1.368e+04 2.622e-09
 30.10551   -233.6 1.395e+04 2.785e-09
 30.12279   -234.3 1.403e+04 2.824e-09
 30.13290   -233.8 1.425e+04 3.438e-09
 30.14595   -234.6 1.431e+04 3.473e-09
 30.16617   -235.2 1.427e+04 3.403e-09
 30.18639   -235.6 1.404e+04 3.048e-09
 30.19679   -236.0 1.372e+04 2.599e-09
 30.20690   -235.4 1.396e+04 3.085e-09
 30.21895   -235.8 1.365e+04 2.547e-09
 30.22906   -235.5 1.366e+04 2.650e-09
 30.24704   -235.8 1.335e+04 2.187e-09
 30.26726   -236.0 1.296e+04 1.745e-09
 30.28748   -236.1 1.249e+04 1.375e-09
 30.30501   -236.0 1.199e+04 1.110e-09
 30.31511   -236.1 1.224e+04 1.189e-09
 30.32482   -235.8 1.192e+04 9.898e-10
 30.33493   -235.9 1.192e+04 9.890e-10
 30.34814   -235.4 1.158e+04 8.163e-10
 30.36836   -234.8 1.127e+04 6.736e-10
 30.38857   -234.0 1.099e+04 5.532e-10
 30.40117   -233.1 1.075e+04 4.480e-10
 30.41128   -232.6 1.079e+04 5.370e-10
 30.42901   -231.9 1.058e+04 4.224e-10
 30.44923   -231.0 1.042e+04 3.404e-10
 30.46297   -229.9 1.042e+04 3.025e-10
 30.47308   -229.9 1.048e+04 3.185e-10
 30.48722   -229.2 1.051e+04 2.980e-10
 30.49733   -229.2 1.064e+04 3.107e-10
 30.52009   -228.9 1.050e+04 2.827e-10
 30.56063   -228.2 1.023e+04 2.369e-10
 30.58358   -227.3 1.001e+04 2.113e-10
 30.60379   -226.2 1.033e+04 2.864e-10
 30.64150   -224.9 1.022e+04 2.539e-10
 30.68194   -223.4 1.024e+04 2.450e-10
 30.71217   -222.3 1.025e+04 2.354e-10
 30.72915   -222.4 1.060e+04 2.405e-10
 30.73936   -222.2 1.028e+04 2.285e-10
 30.75261   -221.8 1.089e+04 2.476e-10
 30.76559   -222.4 1.154e+04 3.106e-10
 30.77570   -224.9 1.151e+04 6.688e-10
 30.79295   -225.0 1.177e+04 9.673e-10
 30.81317   -225.0 1.218e+04 1.385e-09
 30.83338   -225.0 1.274e+04 1.927e-09
 30.85165   -225.0 1.343e+04 2.592e-09
 30.86175   -225.4 1.413e+04 3.295e-09
 30.86730   -225.5 1.463e+04 3.786e-09
 30.87741   -224.8 1.447e+04 3.526e-09
 30.89404   -224.9 1.483e+04 3.794e-09
 30.91426   -225.1 1.503e+04 3.860e-09
 30.93448   -225.3 1.506e+04 3.858e-09
 30.94781   -225.4 1.511e+04 3.628e-09
 30.95792   -226.8 1.438e+04 2.283e-09
 30.97492   -227.0 1.409e+04 1.888e-09
 30.99513   -227.3 1.372e+04 1.536e-09
 31.00545   -227.6 1.329e+04 1.240e-09
 31.01555   -226.9 1.326e+04 1.276e-09
 31.03386   -227.1 1.292e+04 1.073e-09
 31.04397   -228.3 1.226e+04 8.242e-10
 31.05579   -228.2 1.207e+04 7.205e-10
 31.07601   -227.9 1.192e+04 6.329e-10
 31.09623   -227.6 1.178e+04 5.581e-10
 31.11645   -227.2 1.166e+04 4.949e-10
 31.13002   -226.9 1.154e+04 4.459e-10
 31.13695   -227.5 1.138e+04 3.953e-10
 31.14359   -226.8 1.148e+04 4.273e-10
 31.15688   -226.6 1.142e+04 3.934e-10
 31.17710   -226.5 1.139e+04 3.751e-10
 31.20753   -226.8 1.138e+04 3.680e-10
 31.24806   -226.4 1.173e+04 4.321e-10
 31.27182   -226.3 1.230e+04 6.173e-10
 31.29204   -225.7 1.224e+04 5.754e-10
 31.31233   -225.8 1.249e+04 7.081e-10
 31.33255   -226.5 1.224e+04 6.182e-10
 31.36937   -226.4 1.233e+04 6.468e-10
 31.40981   -226.1 1.232e+04 6.092e-10
 31.45025   -225.2 1.212e+04 4.760e-10
 31.48453   -224.3 1.190e+04 3.927e-10
 31.50475   -223.7 1.148e+04 3.248e-10
 31.52790   -222.3 1.137e+04 3.092e-10
 31.54812   -221.7 1.140e+04 3.111e-10
 31.57156   -220.1 1.138e+04 3.092e-10
 31.61200   -218.5 1.140e+04 3.227e-10
 31.65243   -217.0 1.152e+04 3.567e-10
 31.67686   -215.7 1.165e+04 3.935e-10
 31.69707   -214.8 1.133e+04 3.099e-10
 31.73331   -213.6 1.154e+04 3.803e-10
 31.77375   -212.6 1.183e+04 4.905e-10
 31.80419   -211.8 1.223e+04 6.526e-10
 31.82441   -212.2 1.234e+04 6.957e-10
 31.84896   -211.5 1.279e+04 9.501e-10
 31.86918   -210.7 1.264e+04 9.255e-10
 31.89506   -210.1 1.310e+04 1.278e-09
 31.93550   -209.8 1.339e+04 1.534e-09
 31.97593   -209.6 1.345e+04 1.610e-09
 32.01637   -209.6 1.338e+04 1.584e-09
 32.04128   -209.3 1.296e+04 1.213e-09
 32.06150   -208.4 1.301e+04 1.350e-09
 32.08048   -207.6 1.244e+04 8.669e-10
 32.10070   -207.3 1.229e+04 8.118e-10
 32.13768   -205.9 1.178e+04 4.899e-10
 32.17812   -204.2 1.140e+04 2.950e-10
 32.21339   -202.5 1.118e+04 1.967e-10
 32.23360   -202.1 1.118e+04 1.947e-10
 32.25899   -200.5 1.101e+04 1.475e-10
 32.29943   -198.9 1.095e+04 1.364e-10
 32.33656   -197.4 1.094e+04 1.351e-10
 32.35678   -196.9 1.097e+04 1.262e-10
 32.38031   -195.6 1.098e+04 1.279e-10
 32.40571   -194.7 1.103e+04 1.508e-10
 32.42593   -194.1 1.094e+04 1.413e-10
 32.46118   -193.2 1.102e+04 1.697e-10
 32.50162   -192.4 1.110e+04 1.992e-10
 32.54205   -191.6 1.117e+04 2.249e-10
 32.57781   -190.7 1.122e+04 2.470e-10
 32.59803   -190.6 1.102e+04 1.775e-10
 32.61285   -189.8 1.099e+04 1.790e-10
 32.63307   -189.3 1.095e+04 1.633e-10
 32.66337   -188.3 1.087e+04 1.550e-10
 32.70380   -187.3 1.083e+04 1.524e-10
 32.74424   -186.4 1.070e+04 1.672e-10
 32.77014   -185.4 1.074e+04 2.075e-10
 32.79035   -185.4 1.046e+04 1.389e-10
 32.82512   -185.0 1.064e+04 1.928e-10
 32.86555   -184.6 1.094e+04 2.805e-10
 32.88905   -183.8 1.114e+04 3.369e-10
 32.90926   -183.9 1.115e+04 3.255e-10
 32.93622   -183.6 1.150e+04 4.393e-10
 32.95215   -184.1 1.189e+04 5.814e-10
 32.96236   -184.1 1.157e+04 4.429e-10
 32.98686   -183.9 1.229e+04 7.738e-10
 33.01708   -185.0 1.294e+04 1.210e-09
 33.03720   -185.5 1.317e+04 1.491e-09
 33.04831   -186.3 1.331e+04 1.670e-09
 33.05842   -185.7 1.305e+04 1.525e-09
 33.07765   -186.4 1.304e+04 1.585e-09
 33.09787   -186.9 1.302e+04 1.592e-09
 33.11809   -187.1 1.277e+04 1.521e-09
 33.13437   -187.2 1.252e+04 1.337e-09
 33.14448   -186.1 1.268e+04 1.349e-09
 33.15513   -186.0 1.249e+04 1.190e-09
 33.16524   -185.8 1.262e+04 1.289e-09
 33.17875   -185.6 1.243e+04 1.105e-09
 33.19896   -185.5 1.228e+04 9.521e-10
 33.21918   -185.3 1.215e+04 8.306e-10
 33.23053   -185.1 1.207e+04 7.361e-10
 33.24064   -184.9 1.229e+04 8.066e-10
 33.25962   -184.6 1.222e+04 7.168e-10
 33.27984   -184.2 1.211e+04 6.395e-10
 33.30657   -183.7 1.197e+04 5.596e-10
 33.32688   -182.6 1.208e+04 9.498e-10
 33.35080   -181.3 1.197e+04 9.291e-10
 33.39124   -179.6 1.184e+04 8.934e-10
 33.42151   -177.7 1.173e+04 8.140e-10
 33.44173   -176.9 1.155e+04 7.027e-10
 33.47211   -174.8 1.150e+04 6.326e-10
 33.49899   -172.6 1.144e+04 5.458e-10
 33.51921   -172.1 1.147e+04 6.166e-10
 33.55299   -169.8 1.144e+04 5.371e-10
 33.59342   -167.4 1.144e+04 4.551e-10
 33.63386   -165.0 1.146e+04 3.758e-10
 33.67109   -162.7 1.151e+04 3.063e-10
 33.69131   -162.4 1.144e+04 3.682e-10
 33.69780   -160.1 1.147e+04 3.225e-10
 33.71802   -159.3 1.150e+04 3.713e-10
 33.75517   -157.1 1.163e+04 3.421e-10
 33.79561   -155.1 1.181e+04 3.156e-10
 33.83605   -153.2 1.200e+04 2.982e-10
 33.86342   -151.5 1.209e+04 2.943e-10
 33.88363   -150.9 1.183e+04 3.828e-10
 33.91692   -149.1 1.204e+04 4.334e-10
 33.95388   -147.3 1.221e+04 4.946e-10
 33.97410   -147.3 1.257e+04 7.625e-10
 33.99780   -145.5 1.268e+04 9.276e-10
 34.03552   -143.7 1.276e+04 1.060e-09
 34.05574   -142.9 1.288e+04 1.203e-09
 34.07867   -141.4 1.311e+04 1.514e-09
 34.11911   -139.9 1.335e+04 1.857e-09
 34.15955   -138.4 1.359e+04 2.190e-09
 34.19998   -137.1 1.384e+04 2.396e-09
 34.22784   -135.7 1.405e+04 2.510e-09
 34.23771   -136.2 1.404e+04 3.437e-09
 34.24008   -136.3 1.420e+04 3.727e-09
 34.25033   -135.6 1.433e+04 4.026e-09
 34.27055   -134.6 1.447e+04 4.222e-09
 34.29077   -133.9 1.456e+04 4.023e-09
 34.31099   -133.2 1.458e+04 3.630e-09
 34.32381   -132.8 1.455e+04 3.134e-09
 34.33392   -132.8 1.520e+04 5.465e-09
 34.35143   -132.5 1.520e+04 5.030e-09
 34.36812   -132.5 1.507e+04 4.446e-09
 34.37823   -132.7 1.460e+04 3.289e-09
 34.39186   -132.7 1.436e+04 2.859e-09
 34.40986   -132.6 1.416e+04 2.575e-09
 34.41997   -132.6 1.504e+04 4.429e-09
 34.43230   -132.4 1.460e+04 3.909e-09
 34.45252   -131.7 1.420e+04 3.527e-09
 34.47274   -130.9 1.393e+04 3.245e-09
 34.49296   -130.1 1.370e+04 3.003e-09
 34.50602   -129.0 1.353e+04 2.827e-09
 34.50922   -128.9 1.380e+04 2.437e-09
 34.51638   -128.9 1.384e+04 2.339e-09
 34.53339   -128.0 1.382e+04 2.193e-09
 34.55361   -127.0 1.386e+04 2.131e-09
 34.57383   -125.7 1.387e+04 2.145e-09
 34.59207   -124.3 1.408e+04 2.218e-09
 34.60218   -125.4 1.439e+04 1.542e-09
 34.61427   -124.1 1.438e+04 1.520e-09
 34.63430   -122.9 1.433e+04 1.500e-09
 34.64441   -122.7 1.432e+04 1.705e-09
 34.65471   -121.4 1.426e+04 1.676e-09
 34.67493   -120.1 1.423e+04 1.664e-09
 34.68823   -119.1 1.420e+04 1.657e-09
 34.69834   -120.0 1.276e+04 9.464e-10
 34.71536   -118.9 1.276e+04 9.396e-10
 34.73558   -118.1 1.277e+04 9.507e-10
 34.75580   -117.5 1.277e+04 1.047e-09
 34.77245   -116.7 1.278e+04 1.238e-09
 34.78083   -116.1 1.288e+04 1.276e-09
 34.78449   -116.7 1.175e+04 5.195e-10
 34.80654   -114.3 1.195e+04 5.814e-10
 34.84698   -112.4 1.222e+04 6.438e-10
 34.88742   -111.5 1.226e+04 6.539e-10
 34.92785   -111.0 1.201e+04 6.140e-10
 34.95670   -110.6 1.198e+04 5.756e-10
 34.97691   -110.9 1.140e+04 3.565e-10
 35.00873   -110.7 1.179e+04 4.982e-10
 35.03883   -111.9 1.261e+04 7.435e-10
 35.04884   -112.5 1.313e+04 1.179e-09
 35.05266   -113.4 1.371e+04 1.663e-09
 35.06277   -113.2 1.352e+04 1.701e-09
 35.07930   -113.9 1.406e+04 2.488e-09
 35.09952   -114.8 1.480e+04 3.693e-09
 35.11974   -115.5 1.538e+04 4.898e-09
 35.13871   -116.1 1.563e+04 5.476e-09
 35.14882   -115.2 1.563e+04 6.544e-09
 35.16017   -115.7 1.571e+04 6.725e-09
 35.17678   -116.0 1.541e+04 5.810e-09
 35.18689   -116.2 1.531e+04 5.640e-09
 35.20061   -116.1 1.452e+04 3.456e-09
 35.22083   -116.4 1.361e+04 1.948e-09
 35.23487   -116.6 1.279e+04 1.160e-09
 35.24498   -115.7 1.289e+04 1.267e-09
 35.26127   -115.8 1.221e+04 7.631e-10
 35.28148   -115.7 1.173e+04 5.257e-10
 35.30170   -115.0 1.141e+04 4.105e-10
 35.31493   -113.8 1.134e+04 3.748e-10
 35.32414   -113.3 1.134e+04 3.646e-10
 35.34134   -113.1 1.123e+04 3.367e-10
 35.37266   -111.6 1.103e+04 2.865e-10
 35.41310   -109.2 1.074e+04 2.417e-10
 35.45354   -106.7 1.057e+04 2.167e-10
 35.49323   -104.1 1.051e+04 2.062e-10
 35.51344   -103.5 1.042e+04 1.749e-10
 35.53441   -100.9 1.042e+04 1.719e-10
 35.57120    -98.2 1.042e+04 1.716e-10
 35.59141    -97.8 1.044e+04 1.770e-10
 35.61529    -95.1 1.043e+04 1.852e-10
 35.65572    -92.5 1.042e+04 1.997e-10
 35.68555    -89.9 1.045e+04 2.235e-10
 35.70577    -89.3 1.054e+04 1.833e-10
 35.73660    -86.8 1.057e+04 2.230e-10
 35.77704    -84.2 1.061e+04 2.730e-10
 35.81747    -81.5 1.065e+04 3.154e-10
 35.84749    -78.9 1.066e+04 3.353e-10
 35.86745    -78.5 1.065e+04 3.401e-10
 35.87787    -77.7 1.074e+04 3.442e-10
 35.89835    -75.1 1.074e+04 3.550e-10
 35.93879    -72.6 1.063e+04 3.389e-10
 35.97922    -70.0 1.048e+04 2.835e-10
 36.01966    -67.6 1.035e+04 2.258e-10
 36.04998    -65.2 1.025e+04 1.882e-10
 36.07019    -64.6 1.047e+04 2.515e-10
 36.10053    -62.3 1.037e+04 2.152e-10
 36.12378    -60.0 1.031e+04 1.931e-10
 36.14400    -59.4 1.026e+04 1.824e-10
 36.18141    -57.3 1.027e+04 1.793e-10
 36.22185    -55.2 1.034e+04 1.942e-10
 36.24230    -53.3 1.039e+04 2.272e-10
 36.26252    -52.7 1.047e+04 1.969e-10
 36.30272    -50.8 1.052e+04 2.103e-10
 36.34316    -48.9 1.059e+04 2.312e-10
 36.37985    -46.9 1.063e+04 2.487e-10
 36.40007    -46.6 1.075e+04 2.961e-10
 36.41440    -44.5 1.075e+04 3.005e-10
 36.43462    -44.0 1.068e+04 2.301e-10
 36.46447    -41.9 1.063e+04 2.248e-10
 36.50491    -39.7 1.064e+04 2.094e-10
 36.54534    -37.8 1.070e+04 1.966e-10
 36.58578    -36.1 1.075e+04 1.957e-10
 36.60672    -34.5 1.076e+04 2.197e-10
 36.62694    -34.1 1.089e+04 2.295e-10
 36.65615    -32.3 1.079e+04 2.732e-10
 36.67637    -32.2 1.095e+04 3.679e-10
 36.70709    -30.0 1.078e+04 3.753e-10
 36.74753    -27.7 1.050e+04 3.098e-10
 36.77883    -25.6 1.032e+04 2.480e-10
 36.79905    -25.5 1.052e+04 2.923e-10
 36.82840    -23.5 1.034e+04 2.625e-10
 36.86884    -21.4 1.017e+04 2.505e-10
 36.90928    -19.0 1.003e+04 2.450e-10
 36.93244    -16.3 9.968e+03 2.271e-10
 36.95266    -16.4 9.935e+03 2.181e-10
 36.97115    -13.9 9.934e+03 1.853e-10
 36.99137    -13.6 1.010e+04 2.193e-10
 37.03059    -11.9 1.009e+04 2.029e-10
 37.07103    -10.5 1.015e+04 2.324e-10
 37.11147     -8.7 1.008e+04 3.219e-10
 37.14326     -6.0 1.003e+04 4.094e-10
 37.16347     -5.2 1.025e+04 4.788e-10
 37.18851     -2.6 1.018e+04 4.060e-10
 37.20873     -2.4 9.985e+03 3.133e-10
 37.23278     -0.5 9.941e+03 2.422e-10
 37.27321      1.0 9.829e+03 2.113e-10
 37.31365      2.7 9.788e+03 2.199e-10
 37.33558      4.7 9.800e+03 2.587e-10
 37.35580      4.9 1.023e+04 3.619e-10
 37.38432      6.3 1.040e+04 4.104e-10
 37.40444      6.8 1.057e+04 4.486e-10
 37.42143      8.2 1.057e+04 4.541e-10
 37.43154      7.9 1.083e+04 6.120e-10
 37.44488      8.2 1.099e+04 6.400e-10
 37.46471      9.7 1.074e+04 4.656e-10
 37.47482      8.9 1.139e+04 8.245e-10
 37.48532      9.3 1.158e+04 8.123e-10
 37.50553      9.5 1.163e+04 7.915e-10
 37.51760      9.6 1.165e+04 7.914e-10
 37.52771      9.1 1.207e+04 1.259e-09
 37.54597      9.5 1.188e+04 1.215e-09
 37.56619     10.1 1.175e+04 1.190e-09
 37.58641     10.7 1.168e+04 1.176e-09
 37.60276     11.5 1.163e+04 1.174e-09
 37.60989     10.9 1.190e+04 1.354e-09
 37.61376     10.7 1.197e+04 1.377e-09
 37.62685     11.4 1.183e+04 1.256e-09
 37.64706     12.0 1.176e+04 1.183e-09
 37.66728     12.6 1.169e+04 1.134e-09
 37.68750     13.3 1.164e+04 1.117e-09
 37.69981     14.2 1.154e+04 1.100e-09
 37.70992     13.8 1.106e+04 8.557e-10
 37.72794     14.7 1.094e+04 8.213e-10
 37.74090     15.7 1.085e+04 7.858e-10
 37.75101     15.1 1.067e+04 7.217e-10
 37.76838     16.2 1.055e+04 6.740e-10
 37.78586     17.2 1.046e+04 6.286e-10
 37.79597     16.9 1.015e+04 4.647e-10
 37.80881     17.7 1.011e+04 4.402e-10
 37.82903     18.6 1.000e+04 4.128e-10
 37.84925     19.5 9.989e+03 4.024e-10
 37.86894     20.4 9.987e+03 4.021e-10
 37.87905     20.0 9.974e+03 4.000e-10
 37.88202     20.9 1.002e+04 4.192e-10
 37.89223     20.6 9.672e+03 3.205e-10
 37.92021     22.4 9.755e+03 3.525e-10
 37.96065     24.1 1.000e+04 4.273e-10
 37.99088     24.9 1.023e+04 5.133e-10
 38.00709     25.5 1.045e+04 6.100e-10
 38.01720     25.3 1.068e+04 7.196e-10
 38.03122     25.9 1.077e+04 7.843e-10
 38.05144     26.6 1.091e+04 8.765e-10
 38.06424     26.9 1.124e+04 1.058e-09
 38.07435     27.4 1.087e+04 8.325e-10
 38.09187     27.3 1.130e+04 1.076e-09
 38.11209     27.3 1.184e+04 1.458e-09
 38.13231     27.5 1.250e+04 2.025e-09
 38.16274     28.1 1.254e+04 2.085e-09
 38.20327     29.1 1.219e+04 1.823e-09
 38.23654     30.0 1.130e+04 1.108e-09
 38.25675     30.2 1.159e+04 1.305e-09
 38.27347     31.0 1.078e+04 8.136e-10
 38.29368     31.1 1.069e+04 7.501e-10
 38.32458     31.7 9.997e+03 4.481e-10
 38.36502     32.6 9.470e+03 3.078e-10
 38.40546     33.9 9.416e+03 2.923e-10
 38.42886     35.0 9.501e+03 3.108e-10
 38.43887     35.5 9.547e+03 3.252e-10
 38.45581     35.6 9.623e+03 3.382e-10
 38.47603     35.8 9.876e+03 4.196e-10
 38.49625     35.8 1.030e+04 5.819e-10
 38.51471     35.9 1.080e+04 8.148e-10
 38.52482     35.8 1.125e+04 1.056e-09
 38.53668     35.9 1.186e+04 1.559e-09
 38.54956     36.5 1.237e+04 2.033e-09
 38.55967     36.6 1.244e+04 2.032e-09
 38.57712     36.8 1.281e+04 2.254e-09
 38.59734     36.6 1.306e+04 2.325e-09
 38.61088     36.0 1.320e+04 2.364e-09
 38.62099     37.0 1.357e+04 2.970e-09
 38.63778     36.1 1.348e+04 2.678e-09
 38.65800     35.1 1.325e+04 2.422e-09
 38.67760     34.2 1.301e+04 2.241e-09
 38.68771     34.7 1.306e+04 2.370e-09
 38.69693     34.5 1.293e+04 2.238e-09
 38.70704     34.8 1.248e+04 1.743e-09
 38.71865     34.7 1.235e+04 1.588e-09
 38.73887     34.8 1.239e+04 1.569e-09
 38.75909     34.8 1.245e+04 1.608e-09
 38.77931     34.8 1.256e+04 1.744e-09
 38.79309     35.0 1.270e+04 1.979e-09
 38.80320     35.5 1.226e+04 1.360e-09
 38.81575     35.7 1.250e+04 1.664e-09
 38.82586     36.2 1.262e+04 1.642e-09
 38.83996     36.3 1.305e+04 2.139e-09
 38.86018     36.5 1.343e+04 2.840e-09
 38.87914     36.8 1.376e+04 3.570e-09
 38.88925     37.3 1.342e+04 2.816e-09
 38.90062     37.7 1.388e+04 3.739e-09
 38.92084     38.0 1.431e+04 4.646e-09
 38.94106     38.2 1.468e+04 5.395e-09
 38.95389     38.7 1.498e+04 6.026e-09
 38.96400     38.9 1.499e+04 6.212e-09
 38.97530     39.5 1.490e+04 5.711e-09
 38.98541     39.3 1.536e+04 6.868e-09
 39.00171     39.6 1.535e+04 6.427e-09
 39.02193     39.8 1.516e+04 5.103e-09
 39.04215     39.4 1.470e+04 3.539e-09
 39.06135     37.9 1.384e+04 2.282e-09
 39.07146     39.0 1.529e+04 4.032e-09
 39.08193     37.6 1.415e+04 2.433e-09
 39.09204     38.1 1.427e+04 2.269e-09
 39.10281     36.4 1.254e+04 1.340e-09
 39.12302     35.4 1.152e+04 1.021e-09
 39.14324     35.4 1.135e+04 9.204e-10
 39.15752     35.6 1.137e+04 9.358e-10
 39.16763     35.4 1.128e+04 8.541e-10
 39.18368     35.8 1.127e+04 8.518e-10
 39.20390     36.4 1.125e+04 8.476e-10
 39.22008     37.0 1.123e+04 8.264e-10
 39.23019     37.1 1.100e+04 6.915e-10
 39.24357     37.8 1.098e+04 6.528e-10
 39.25368     38.1 1.088e+04 6.099e-10
 39.26455     38.7 1.084e+04 5.514e-10
 39.28477     39.4 1.071e+04 4.741e-10
 39.30499     39.9 1.061e+04 4.266e-10
 39.32521     40.8 1.047e+04 3.913e-10
 39.33973     41.0 1.046e+04 3.828e-10
 39.34984     41.4 1.044e+04 3.568e-10
 39.35832     43.1 1.044e+04 3.662e-10
 39.37864     43.1 1.038e+04 3.404e-10
 39.41639     45.4 1.045e+04 3.554e-10
 39.45683     47.6 1.065e+04 3.859e-10
 39.48636     48.9 1.065e+04 4.144e-10
 39.49637     48.8 1.071e+04 4.142e-10
 39.50718     49.8 1.083e+04 4.606e-10
 39.52194     51.1 1.098e+04 5.386e-10
 39.53205     51.3 1.115e+04 6.157e-10
 39.54762     52.5 1.135e+04 7.326e-10
 39.56783     53.6 1.160e+04 8.784e-10
 39.58805     54.7 1.189e+04 1.051e-09
 39.60799     55.8 1.221e+04 1.251e-09
 39.61810     55.8 1.257e+04 1.541e-09
 39.62441     56.8 1.289e+04 1.836e-09
 39.63452     56.1 1.285e+04 1.905e-09
 39.64871     57.1 1.312e+04 2.145e-09
 39.66893     58.1 1.322e+04 2.373e-09
 39.68915     59.3 1.326e+04 2.540e-09
 39.70416     60.4 1.336e+04 2.659e-09
 39.71427     60.5 1.356e+04 3.010e-09
 39.72958     61.5 1.367e+04 3.054e-09
 39.74980     62.5 1.378e+04 3.120e-09
 39.76255     63.5 1.403e+04 3.301e-09
 39.77266     63.1 1.320e+04 2.115e-09
 39.79021     63.7 1.350e+04 2.282e-09
 39.81043     64.1 1.392e+04 2.388e-09
 39.83068     64.6 1.479e+04 3.346e-09
 39.85090     64.6 1.529e+04 4.194e-09
 39.86601     64.1 1.527e+04 4.221e-09
 39.87607     63.8 1.534e+04 4.320e-09
 39.88618     63.3 1.579e+04 4.947e-09
 39.89133     62.9 1.636e+04 5.754e-09
 39.89564     62.4 1.608e+04 4.805e-09
 39.90065     62.6 1.477e+04 3.401e-09
 39.90645     61.6 1.547e+04 4.380e-09
 39.91651     61.0 1.601e+04 5.150e-09
 39.92662     60.1 1.662e+04 6.355e-09
 39.93435     59.1 1.729e+04 8.081e-09
 39.93941     59.0 1.691e+04 7.411e-09
 39.94684     58.1 1.755e+04 9.180e-09
 39.95695     56.3 1.936e+04 1.285e-08
 39.96462     53.9 2.143e+04 2.084e-08
 39.96967     54.8 2.028e+04 1.473e-08
 39.97716     52.5 2.157e+04 2.510e-08
 39.98243     50.6 2.167e+04 4.374e-08
 39.98749     51.9 2.160e+04 2.929e-08
 39.99738     50.1 2.151e+04 5.305e-08
 40.00749     49.2 2.112e+04 8.696e-08
 40.01760     48.9 2.113e+04 1.194e-07
 40.02546     48.5 2.146e+04 1.307e-07
 40.03051     48.9 2.151e+04 1.265e-07
 40.03369     48.2 2.159e+04 1.237e-07
 40.03875     49.1 2.105e+04 8.584e-08
 40.04793     49.3 2.085e+04 8.002e-08
 40.05804     49.6 2.069e+04 5.964e-08
 40.06815     49.7 2.062e+04 3.659e-08
 40.07354     48.9 2.037e+04 2.459e-08
 40.07859     49.5 2.043e+04 3.391e-08
 40.09347     49.8 1.988e+04 2.263e-08
 40.11374     48.9 1.913e+04 9.922e-09
 40.13396     46.4 1.788e+04 4.038e-09
 40.15417     43.0 1.521e+04 2.447e-09
 40.16474     41.9 1.390e+04 2.208e-09
 40.16734     43.4 1.501e+04 2.603e-09
 40.17699     44.6 1.589e+04 2.714e-09
 40.19461     42.7 1.411e+04 2.092e-09
 40.21483     42.5 1.345e+04 1.904e-09
 40.23505     42.7 1.319e+04 1.766e-09
 40.25080     43.1 1.295e+04 1.559e-09
 40.26091     43.3 1.293e+04 1.538e-09
 40.27549     43.7 1.264e+04 1.285e-09
 40.29492     44.3 1.236e+04 1.013e-09
 40.30503     44.1 1.218e+04 8.918e-10
 40.31592     44.5 1.205e+04 6.976e-10
 40.33614     45.0 1.192e+04 5.215e-10
 40.34696     44.9 1.189e+04 4.730e-10
 40.35707     45.1 1.190e+04 4.784e-10
 40.38679     45.8 1.179e+04 4.230e-10
 40.42310     47.0 1.176e+04 4.533e-10
 40.44331     48.0 1.147e+04 3.082e-10
 40.46776     49.4 1.153e+04 3.484e-10
 40.50820     51.1 1.162e+04 4.183e-10
 40.54863     52.9 1.177e+04 5.240e-10
 40.57131     54.6 1.191e+04 6.072e-10
 40.58132     54.7 1.184e+04 5.511e-10
 40.59898     55.0 1.186e+04 5.584e-10
 40.61532     56.4 1.221e+04 8.013e-10
 40.63564     57.9 1.193e+04 5.724e-10
 40.65974     59.3 1.207e+04 6.715e-10
 40.67986     59.5 1.211e+04 6.918e-10
 40.69935     61.6 1.222e+04 7.837e-10
 40.71966     61.5 1.183e+04 5.395e-10
 40.75082     63.5 1.189e+04 5.836e-10
 40.78752     65.7 1.190e+04 6.131e-10
 40.80774     67.2 1.171e+04 5.277e-10
 40.83169     69.5 1.175e+04 5.646e-10
 40.87213     71.9 1.183e+04 6.204e-10
 40.91257     74.3 1.198e+04 7.031e-10
 40.95301     76.7 1.216e+04 8.275e-10
 40.97574     79.1 1.237e+04 1.028e-09
 40.98236     79.3 1.216e+04 7.103e-10
 40.98986     79.3 1.219e+04 7.069e-10
 41.00336     80.0 1.227e+04 7.591e-10
 41.02358     81.1 1.234e+04 8.081e-10
 41.04379     82.3 1.246e+04 8.725e-10
 41.06401     83.5 1.255e+04 9.237e-10
 41.07581     84.7 1.267e+04 9.972e-10
 41.08592     85.1 1.254e+04 8.203e-10
 41.10358     86.2 1.263e+04 8.792e-10
 41.11369     86.1 1.223e+04 5.222e-10
 41.12467     86.9 1.233e+04 5.467e-10
 41.14489     88.1 1.243e+04 5.917e-10
 41.16186     89.1 1.254e+04 6.671e-10
 41.17197     89.1 1.224e+04 5.530e-10
 41.18533     90.1 1.231e+04 6.511e-10
 41.20554     91.1 1.241e+04 7.942e-10
 41.22576     92.1 1.254e+04 9.759e-10
 41.24173     93.2 1.274e+04 1.171e-09
 41.25183     92.9 1.215e+04 8.072e-10
 41.25802     94.0 1.233e+04 9.559e-10
 41.26813     94.0 1.220e+04 9.664e-10
 41.28642     94.8 1.235e+04 1.074e-09
 41.30664     95.5 1.243e+04 1.159e-09
 41.32686     96.1 1.252e+04 1.194e-09
 41.34417     97.2 1.267e+04 1.225e-09
 41.36449     97.1 1.241e+04 1.159e-09
 41.39782     98.4 1.234e+04 1.100e-09
 41.43825     99.2 1.235e+04 1.091e-09
 41.46848     99.2 1.254e+04 1.168e-09
 41.48860     99.1 1.264e+04 1.205e-09
 41.50791     98.5 1.314e+04 1.450e-09
 41.51802     98.2 1.345e+04 1.660e-09
 41.52629     96.6 1.450e+04 2.969e-09
 41.53640     97.5 1.413e+04 2.302e-09
 41.54926     96.3 1.518e+04 4.652e-09
 41.56948     96.0 1.574e+04 7.646e-09
 41.58970     95.8 1.582e+04 8.222e-09
 41.60992     96.0 1.560e+04 7.523e-09
 41.62245     96.3 1.496e+04 5.182e-09
 41.63256     96.9 1.521e+04 6.315e-09
 41.64606     97.0 1.446e+04 3.900e-09
 41.65616     96.9 1.443e+04 3.669e-09
 41.68078     96.8 1.330e+04 1.443e-09
 41.70870     97.0 1.193e+04 4.247e-10
 41.72892     98.7 1.253e+04 7.382e-10
 41.76175     99.0 1.164e+04 2.327e-10
 41.78440     99.7 1.122e+04 1.241e-10
 41.80462     99.3 1.113e+04 1.086e-10
 41.84263    101.4 1.096e+04 1.064e-10
 41.88080    104.1 1.094e+04 1.062e-10
 41.90102    105.3 1.094e+04 1.143e-10
 41.92350    108.0 1.093e+04 1.154e-10
 41.96394    110.7 1.092e+04 1.200e-10
 42.00438    113.3 1.095e+04 1.272e-10
 42.04047    115.9 1.097e+04 1.364e-10
 42.06069    115.8 1.099e+04 1.273e-10
 42.07312    118.3 1.101e+04 1.366e-10
 42.09334    119.4 1.100e+04 1.285e-10
 42.12569    121.7 1.101e+04 1.371e-10
 42.16612    124.0 1.102e+04 1.478e-10
 42.20656    126.3 1.105e+04 1.623e-10
 42.24523    128.5 1.110e+04 1.817e-10
 42.26545    129.4 1.108e+04 1.731e-10
 42.28744    131.5 1.116e+04 1.998e-10
 42.31676    133.4 1.125e+04 2.269e-10
 42.33698    133.2 1.128e+04 2.400e-10
 42.36831    134.8 1.141e+04 2.875e-10
 42.40875    136.3 1.153e+04 3.446e-10
 42.43755    137.6 1.166e+04 4.168e-10
 42.45777    138.5 1.166e+04 4.047e-10
 42.48962    139.8 1.181e+04 5.026e-10
 42.53006    140.9 1.197e+04 6.187e-10
 42.57050    141.8 1.210e+04 7.266e-10
 42.59306    142.5 1.214e+04 7.903e-10
 42.61200    141.7 1.215e+04 7.961e-10
 42.62987    142.5 1.218e+04 7.765e-10
 42.65137    143.1 1.211e+04 7.272e-10
 42.69181    143.7 1.197e+04 6.350e-10
 42.73225    144.4 1.184e+04 5.524e-10
 42.77268    145.1 1.172e+04 5.078e-10
 42.80198    146.0 1.161e+04 4.968e-10
 42.82220    146.7 1.154e+04 4.281e-10
 42.84913    147.9 1.151e+04 4.287e-10
 42.86935    147.3 1.143e+04 4.010e-10
 42.89400    148.7 1.140e+04 4.207e-10
 42.93443    150.0 1.149e+04 4.589e-10
 42.97408    150.9 1.168e+04 5.017e-10
 42.99430    151.7 1.161e+04 4.544e-10
 43.01531    152.2 1.182e+04 4.982e-10
 43.05574    152.3 1.198e+04 5.037e-10
 43.09618    152.3 1.199e+04 4.854e-10
 43.12542    152.4 1.202e+04 4.360e-10
 43.14564    150.2 1.256e+04 5.021e-10
 43.16640    150.1 1.263e+04 4.760e-10
 43.17642    151.2 1.254e+04 4.696e-10
 43.18697    151.1 1.256e+04 4.680e-10
 43.20719    151.1 1.262e+04 4.740e-10
 43.22741    150.7 1.272e+04 5.113e-10
 43.24763    150.1 1.272e+04 5.883e-10
 43.26237    149.6 1.272e+04 7.004e-10
 43.26801    150.0 1.274e+04 7.671e-10
 43.27348    148.1 1.286e+04 9.064e-10
 43.28806    147.9 1.298e+04 1.060e-09
 43.30828    147.7 1.313e+04 1.201e-09
 43.32850    147.5 1.332e+04 1.290e-09
 43.34842    147.1 1.342e+04 1.259e-09
 43.35853    147.5 1.349e+04 1.304e-09
 43.36894    146.7 1.359e+04 1.186e-09
 43.38916    145.6 1.358e+04 1.006e-09
 43.40152    144.4 1.339e+04 8.133e-10
 43.41163    142.5 1.302e+04 6.448e-10
 43.42959    141.3 1.260e+04 5.502e-10
 43.46002    140.9 1.234e+04 5.498e-10
 43.50055    141.0 1.230e+04 5.865e-10
 43.53083    141.6 1.236e+04 6.911e-10
 43.55105    141.8 1.243e+04 7.314e-10
 43.58143    142.1 1.256e+04 8.510e-10
 43.62187    142.8 1.260e+04 8.570e-10
 43.65779    143.1 1.257e+04 8.000e-10
 43.67791    142.0 1.218e+04 5.835e-10
 43.69244    142.4 1.211e+04 5.253e-10
 43.71265    142.5 1.208e+04 4.781e-10
 43.72306    143.2 1.200e+04 4.054e-10
 43.74337    143.7 1.197e+04 4.095e-10
 43.78361    144.7 1.190e+04 3.457e-10
 43.82405    145.9 1.182e+04 2.902e-10
 43.86449    147.1 1.180e+04 2.696e-10
 43.89526    148.5 1.183e+04 2.700e-10
 43.91548    149.4 1.182e+04 2.776e-10
 43.93408    151.0 1.188e+04 2.825e-10
 43.95430    151.6 1.173e+04 2.592e-10
 43.98580    153.3 1.193e+04 2.857e-10
 44.02624    155.0 1.221e+04 3.423e-10
 44.06668    155.9 1.242e+04 4.122e-10
 44.08748    157.1 1.265e+04 5.492e-10
 44.09749    158.2 1.257e+04 4.904e-10
 44.11703    158.8 1.271e+04 6.311e-10
 44.13725    159.9 1.280e+04 7.763e-10
 44.15746    161.0 1.293e+04 9.042e-10
 44.17344    161.8 1.315e+04 1.044e-09
 44.18355    162.7 1.304e+04 9.532e-10
 44.19790    163.4 1.353e+04 1.179e-09
 44.21018    164.2 1.429e+04 1.580e-09
 44.22029    162.0 1.469e+04 1.867e-09
 44.23834    161.8 1.529e+04 2.337e-09
 44.25345    161.4 1.642e+04 2.784e-09
 44.26351    157.3 1.967e+04 5.016e-09
 44.26950    150.9 2.234e+04 1.571e-08
 44.27456    151.4 2.243e+04 1.583e-08
 44.27916    146.5 2.273e+04 4.687e-08
 44.28421    145.5 2.217e+04 4.281e-08
 44.29384    143.4 2.207e+04 7.338e-08
 44.30395    141.9 2.200e+04 7.835e-08
 44.31253    140.6 2.203e+04 7.222e-08
 44.31758    141.2 2.200e+04 6.788e-08
 44.32417    139.9 2.236e+04 4.619e-08
 44.33428    136.7 2.344e+04 1.893e-08
 44.34317    134.7 2.398e+04 1.140e-08
 44.34828    134.2 2.275e+04 1.233e-08
 44.35565    126.6 2.349e+04 2.515e-09
 44.36576    126.4 2.408e+04 2.322e-09
 44.37987    114.4 1.649e+04 8.373e-10
 44.40009    109.3 1.234e+04 8.783e-10
 44.42031    109.3 1.225e+04 9.076e-10
 44.44053    109.6 1.223e+04 1.024e-09
 44.45181    110.2 1.236e+04 1.141e-09
 44.46192    110.0 1.239e+04 1.167e-09
 44.47636    110.6 1.254e+04 1.231e-09
 44.48647    110.5 1.240e+04 1.134e-09
 44.50118    110.9 1.243e+04 1.129e-09
 44.52140    111.2 1.242e+04 1.088e-09
 44.53786    111.4 1.235e+04 1.006e-09
 44.54797    111.4 1.258e+04 1.136e-09
 44.56184    111.4 1.248e+04 1.042e-09
 44.58206    111.3 1.236e+04 9.690e-10
 44.60227    111.1 1.227e+04 9.349e-10
 44.61451    110.9 1.222e+04 9.274e-10
 44.62462    111.4 1.257e+04 1.118e-09
 44.63403    111.3 1.260e+04 1.148e-09
 44.64413    111.1 1.298e+04 1.327e-09
 44.66293    110.8 1.297e+04 1.311e-09
 44.68315    110.4 1.294e+04 1.272e-09
 44.70337    109.8 1.287e+04 1.203e-09
 44.72008    108.9 1.273e+04 1.106e-09
 44.73019    108.5 1.280e+04 1.119e-09
 44.74255    107.0 1.256e+04 1.037e-09
 44.75266    108.6 1.328e+04 1.340e-09
 44.76402    106.5 1.312e+04 1.273e-09
 44.78424    103.2 1.327e+04 1.470e-09
 44.80446     98.9 1.402e+04 2.200e-09
 44.81624     94.4 1.508e+04 3.648e-09
 44.82635     92.3 1.548e+04 4.837e-09
 44.84490     88.3 1.606e+04 5.859e-09
 44.86512     85.0 1.607e+04 5.769e-09
 44.88069     82.8 1.568e+04 4.902e-09
 44.89080     81.0 1.656e+04 6.643e-09
 44.90229     79.6 1.567e+04 4.310e-09
 44.91240     77.8 1.506e+04 2.808e-09
 44.92577     75.5 1.414e+04 1.524e-09
 44.95620     74.5 1.312e+04 8.917e-10
 44.98854     71.4 1.173e+04 5.560e-10
 45.00866     68.5 1.146e+04 5.227e-10
 45.01894     67.5 1.123e+04 4.382e-10
 45.03925     65.0 1.117e+04 4.262e-10
 45.07761     65.8 1.075e+04 3.593e-10
 45.11804     67.0 1.041e+04 3.152e-10
 45.15848     68.3 1.023e+04 2.969e-10
 45.18086     69.7 1.022e+04 3.050e-10
 45.20108     68.1 1.015e+04 2.960e-10
 45.23936     69.5 1.023e+04 3.054e-10
 45.27511     70.8 1.049e+04 3.254e-10
 45.29533     69.6 1.036e+04 2.988e-10
 45.32023     70.8 1.060e+04 3.150e-10
 45.35296     72.0 1.088e+04 3.550e-10
 45.37318     70.8 1.068e+04 3.313e-10
 45.40111     72.0 1.088e+04 3.662e-10
 45.42327     72.8 1.100e+04 4.089e-10
 45.43328     72.7 1.101e+04 4.106e-10
 45.44893     73.3 1.116e+04 4.740e-10
 45.45904     72.7 1.110e+04 4.286e-10
 45.47168     73.3 1.128e+04 5.003e-10
 45.49189     74.0 1.151e+04 5.958e-10
 45.51211     74.6 1.178e+04 7.125e-10
 45.53233     75.1 1.212e+04 8.609e-10
 45.54509     75.4 1.255e+04 1.070e-09
 45.55386     74.5 1.240e+04 8.468e-10
 45.56132     74.4 1.265e+04 1.051e-09
 45.57277     74.6 1.322e+04 1.372e-09
 45.59299     74.6 1.383e+04 1.869e-09
 45.61321     74.6 1.448e+04 2.631e-09
 45.63114     74.4 1.520e+04 3.787e-09
 45.64125     73.2 1.518e+04 3.132e-09
 45.65364     72.8 1.614e+04 4.839e-09
 45.67386     72.2 1.722e+04 7.690e-09
 45.68935     71.5 1.863e+04 1.274e-08
 45.69946     72.1 1.895e+04 1.430e-08
 45.71430     72.2 1.992e+04 2.049e-08
 45.72726     71.2 2.059e+04 2.462e-08
 45.73226     69.7 2.064e+04 2.411e-08
 45.73947     69.2 2.126e+04 2.912e-08
 45.74958     68.2 2.191e+04 3.536e-08
 45.75833     66.9 2.264e+04 4.213e-08
 45.76338     68.3 2.267e+04 4.538e-08
 45.76980     66.7 2.358e+04 5.409e-08
 45.77529     64.2 2.438e+04 7.032e-08
 45.78034     62.0 2.408e+04 6.577e-08
 45.79002     59.3 2.368e+04 9.797e-08
 45.80013     56.9 2.301e+04 1.358e-07
 45.81024     54.5 2.290e+04 1.325e-07
 45.81831     53.0 2.262e+04 1.049e-07
 45.82337     52.8 2.171e+04 5.948e-08
 45.82740     52.2 2.138e+04 3.218e-08
 45.83246     52.0 2.132e+04 6.173e-08
 45.84057     51.6 2.125e+04 2.936e-08
 45.85578     49.1 2.201e+04 6.666e-09
 45.87605     40.0 1.714e+04 1.164e-09
 45.89627     32.5 1.122e+04 8.778e-10
 45.90952     32.8 1.149e+04 8.949e-10
 45.91963     32.8 1.142e+04 8.217e-10
 45.93670     32.1 1.119e+04 8.032e-10
 45.96713     31.9 1.151e+04 9.325e-10
 46.00766     31.9 1.097e+04 6.892e-10
 46.04810     31.8 1.043e+04 5.208e-10
 46.07833     30.9 1.053e+04 5.396e-10
 46.09173     30.3 1.062e+04 5.465e-10
 46.09707     29.7 1.145e+04 7.574e-10
 46.10379     28.4 1.259e+04 1.145e-09
 46.11867     26.5 1.369e+04 1.614e-09
 46.13889     24.0 1.478e+04 2.660e-09
 46.15911     22.3 1.545e+04 4.393e-09
 46.17778     21.7 1.559e+04 6.188e-09
 46.18789     21.7 1.601e+04 8.021e-09
 46.19955     22.0 1.580e+04 7.697e-09
 46.21976     22.0 1.532e+04 6.579e-09
 46.23183     21.7 1.465e+04 4.861e-09
 46.24194     21.4 1.460e+04 4.539e-09
 46.26020     19.5 1.372e+04 2.924e-09
 46.27395     17.0 1.254e+04 1.903e-09
 46.28405     16.1 1.219e+04 1.745e-09
 46.30064     14.4 1.161e+04 1.464e-09
 46.32086     14.1 1.141e+04 1.210e-09
 46.34108     14.1 1.142e+04 1.193e-09
 46.35996     13.8 1.136e+04 1.050e-09
 46.38028     14.9 1.139e+04 1.117e-09
 46.41204     14.9 1.125e+04 9.443e-10
 46.44624     15.2 1.085e+04 6.811e-10
 46.46646     16.4 1.105e+04 7.123e-10
 46.49291     16.6 1.056e+04 5.001e-10
 46.53335     16.9 1.030e+04 4.292e-10
 46.57379     17.9 1.024e+04 4.246e-10
 46.61422     19.5 1.026e+04 4.203e-10
 46.63635     21.1 1.019e+04 3.916e-10
 46.64038     20.6 1.068e+04 5.521e-10
 46.64848     20.5 1.113e+04 7.228e-10
 46.66457     21.3 1.122e+04 7.343e-10
 46.68479     22.1 1.128e+04 7.370e-10
 46.70501     22.8 1.129e+04 7.286e-10
 46.72442     23.7 1.128e+04 7.120e-10
 46.73453     23.7 1.176e+04 1.097e-09
 46.74545     24.7 1.178e+04 1.085e-09
 46.76420     25.6 1.185e+04 1.087e-09
 46.77430     25.6 1.206e+04 1.348e-09
 46.78589     26.4 1.211e+04 1.343e-09
 46.80611     27.2 1.223e+04 1.376e-09
 46.82059     28.1 1.257e+04 1.525e-09
 46.83069     27.7 1.316e+04 2.384e-09
 46.84654     28.1 1.369e+04 2.859e-09
 46.86676     28.2 1.441e+04 3.707e-09
 46.88698     28.2 1.553e+04 5.586e-09
 46.90234     28.2 1.682e+04 8.966e-09
 46.91189     28.6 1.649e+04 8.257e-09
 46.91675     29.0 1.661e+04 8.448e-09
 46.92742     29.0 1.770e+04 1.237e-08
 46.94764     28.9 1.879e+04 1.753e-08
 46.96785     28.4 1.965e+04 2.145e-08
 46.98807     27.3 1.989e+04 2.194e-08
 47.00280     26.3 1.979e+04 2.071e-08
 47.01291     25.3 1.909e+04 1.653e-08
 47.02851     24.2 1.883e+04 1.546e-08
 47.04049     23.2 1.835e+04 1.275e-08
 47.05060     23.9 1.857e+04 1.464e-08
 47.06895     22.9 1.829e+04 1.241e-08
 47.08885     21.5 1.791e+04 1.020e-08
 47.09896     21.4 1.699e+04 6.955e-09
 47.10938     19.8 1.625e+04 5.638e-09
 47.12960     18.9 1.529e+04 4.647e-09
 47.14982     18.9 1.452e+04 3.809e-09
 47.16852     19.3 1.380e+04 2.752e-09
 47.17863     19.6 1.424e+04 3.347e-09
 47.18501     19.9 1.338e+04 2.075e-09
 47.19512     19.8 1.306e+04 1.597e-09
 47.22068     20.0 1.227e+04 8.752e-10
 47.26122     20.9 1.120e+04 4.178e-10
 47.30166     21.9 1.049e+04 2.116e-10
 47.34209     22.9 1.017e+04 1.397e-10
 47.36742     24.4 1.002e+04 1.241e-10
 47.38764     24.8 1.013e+04 1.547e-10
 47.42297     26.4 1.011e+04 1.528e-10
 47.44501     27.8 1.013e+04 1.534e-10
 47.46523     28.1 1.014e+04 1.522e-10
 47.50384     29.6 1.015e+04 1.506e-10
 47.53952     31.2 1.019e+04 1.438e-10
 47.55974     31.4 1.025e+04 1.438e-10
 47.58472     32.5 1.030e+04 1.259e-10
 47.62516     33.7 1.040e+04 1.208e-10
 47.66559     34.1 1.053e+04 1.273e-10
 47.70109     33.8 1.075e+04 1.589e-10
 47.72131     34.2 1.074e+04 1.540e-10
 47.73185     34.0 1.086e+04 2.266e-10
 47.75207     34.2 1.084e+04 2.314e-10
 47.78690     34.4 1.090e+04 3.012e-10
 47.82734     34.6 1.085e+04 3.050e-10
 47.86778     35.0 1.071e+04 2.764e-10
 47.90395     35.4 1.053e+04 2.131e-10
 47.92417     35.6 1.046e+04 2.027e-10
 47.94865     35.9 1.032e+04 1.601e-10
 47.97738     36.4 1.026e+04 1.553e-10
 47.99760     36.9 1.015e+04 1.411e-10
 48.02953     37.6 1.014e+04 1.543e-10
 48.06997     38.4 1.019e+04 1.883e-10
 48.09627     38.9 1.035e+04 2.486e-10
 48.11649     39.2 1.041e+04 2.466e-10
 48.15084     39.3 1.066e+04 3.835e-10
 48.19128     39.3 1.098e+04 6.286e-10
 48.23171     39.0 1.124e+04 8.435e-10
 48.25367     38.2 1.118e+04 8.321e-10
 48.27012     38.9 1.103e+04 8.144e-10
 48.28860     39.4 1.108e+04 8.079e-10
 48.31259     38.9 1.064e+04 6.355e-10
 48.35303     38.4 1.010e+04 3.906e-10
 48.39346     37.3 9.631e+03 2.478e-10
 48.43390     36.9 9.370e+03 2.145e-10
 48.46070     37.0 9.262e+03 2.088e-10
 48.48092     37.4 9.724e+03 3.079e-10
 48.50975     37.5 9.656e+03 2.890e-10
 48.52996     37.8 9.555e+03 2.826e-10
 48.55521     37.6 9.571e+03 2.849e-10
 48.59565     37.0 9.639e+03 3.059e-10
 48.63280     35.7 9.797e+03 3.613e-10
 48.65293     34.8 9.973e+03 4.197e-10
 48.65781     33.6 1.011e+04 5.191e-10
 48.66792     33.6 1.014e+04 5.461e-10
 48.68644     33.4 1.014e+04 5.709e-10
 48.71686     32.1 1.034e+04 6.822e-10
 48.75740     31.3 1.014e+04 6.597e-10
 48.78604     30.3 9.823e+03 5.655e-10
 48.80626     30.7 9.608e+03 4.964e-10
 48.82513     30.1 9.198e+03 3.805e-10
 48.84535     29.5 9.445e+03 4.295e-10
 48.87871     29.0 9.049e+03 3.359e-10
 48.91915     28.8 8.913e+03 3.256e-10
 48.95959     29.1 8.891e+03 3.333e-10
 48.99723     29.9 8.885e+03 3.341e-10
 49.01745     29.5 9.005e+03 3.383e-10
 49.04046     30.7 8.881e+03 3.120e-10
 49.06233     32.0 8.778e+03 2.728e-10
 49.08255     32.3 8.845e+03 2.845e-10
 49.12133     33.3 8.812e+03 2.708e-10
 49.16177     34.4 8.823e+03 2.768e-10
 49.18955     35.7 8.861e+03 2.932e-10
 49.20977     35.4 8.975e+03 3.328e-10
 49.24265     36.9 9.016e+03 3.408e-10
 49.28308     38.5 9.010e+03 3.368e-10
 49.31841     40.1 8.975e+03 3.161e-10
 49.33862     40.4 9.010e+03 3.467e-10
 49.36166     42.0 8.967e+03 3.197e-10
 49.38188     41.6 8.992e+03 3.203e-10
 49.40440     43.0 9.035e+03 3.239e-10
 49.44483     44.3 9.146e+03 3.420e-10
 49.48527     45.6 9.312e+03 3.770e-10
 49.52571     46.8 9.587e+03 4.300e-10
 49.55398     47.4 9.967e+03 5.190e-10
 49.56399     47.1 1.006e+04 5.792e-10
 49.57606     47.3 1.017e+04 6.078e-10
 49.59450     47.1 1.044e+04 7.002e-10
 49.60461     47.1 1.055e+04 7.660e-10
 49.61650     47.1 1.063e+04 7.969e-10
 49.64692     46.8 1.108e+04 9.474e-10
 49.68746     46.0 1.148e+04 1.018e-09
 49.72608     44.8 1.150e+04 9.914e-10
 49.74630     44.7 1.149e+04 8.793e-10
 49.76833     44.1 1.144e+04 8.219e-10
 49.80877     43.6 1.142e+04 7.534e-10
 49.84921     43.3 1.150e+04 7.405e-10
 49.87099     42.8 1.184e+04 7.909e-10
 49.89121     42.0 1.217e+04 9.199e-10
 49.91841     40.6 1.292e+04 1.161e-09
 49.92842     41.7 1.300e+04 1.191e-09
 49.93999     40.9 1.335e+04 1.363e-09
 49.96021     39.3 1.382e+04 1.849e-09
 49.98043     38.0 1.415e+04 2.574e-09
 49.99883     37.2 1.451e+04 3.186e-09
 50.00894     37.0 1.446e+04 3.217e-09
 50.01437     35.9 1.458e+04 3.261e-09
 50.02448     36.1 1.479e+04 3.855e-09
 50.04109     35.1 1.466e+04 3.524e-09
 50.06131     34.3 1.427e+04 2.641e-09
 50.08152     33.3 1.378e+04 1.717e-09
 50.10043     31.6 1.337e+04 1.063e-09
 50.11053     31.2 1.361e+04 1.084e-09
 50.12196     28.6 1.328e+04 7.451e-10
 50.13698     26.6 1.293e+04 7.238e-10
 50.14709     26.5 1.293e+04 7.612e-10
 50.16240     25.3 1.288e+04 8.010e-10
 50.18262     24.5 1.288e+04 9.059e-10
 50.19659     24.2 1.293e+04 1.031e-09
 50.20670     23.4 1.303e+04 1.299e-09
 50.22305     23.4 1.300e+04 1.293e-09
 50.24327     23.3 1.292e+04 1.191e-09
 50.26349     23.1 1.281e+04 1.059e-09
 50.27513     22.7 1.275e+04 9.490e-10
 50.28416     22.4 1.272e+04 8.363e-10
 50.29275     21.2 1.278e+04 7.536e-10
 50.30393     20.5 1.262e+04 6.527e-10
 50.33435     19.9 1.233e+04 5.832e-10
 50.37489     20.1 1.192e+04 4.821e-10
 50.40336     20.5 1.162e+04 3.991e-10
 50.42358     20.6 1.158e+04 3.699e-10
 50.45494     21.5 1.138e+04 2.894e-10
 50.47516     20.9 1.127e+04 2.155e-10
 50.49620     22.0 1.118e+04 1.666e-10
 50.53664     23.4 1.100e+04 1.408e-10
 50.57708     25.0 1.083e+04 1.292e-10
 50.61751     26.7 1.081e+04 1.232e-10
 50.64726     28.6 1.084e+04 1.193e-10
 50.66748     28.4 1.083e+04 1.232e-10
 50.67965     30.3 1.081e+04 1.209e-10
 50.69987     30.3 1.103e+04 1.301e-10
 50.73882     32.1 1.100e+04 1.258e-10
 50.77926     33.9 1.097e+04 1.290e-10
 50.81936     35.8 1.090e+04 1.348e-10
 50.83958     35.8 1.087e+04 1.326e-10
 50.86014     37.7 1.080e+04 1.358e-10
 50.90057     39.8 1.075e+04 1.383e-10
 50.93572     41.8 1.071e+04 1.391e-10
 50.95594     41.8 1.085e+04 1.575e-10
 50.98145     43.9 1.084e+04 1.562e-10
 51.01169     45.9 1.086e+04 1.571e-10
 51.03191     46.0 1.082e+04 1.604e-10
 51.06232     48.0 1.087e+04 1.645e-10
 51.10276     49.9 1.093e+04 1.782e-10
 51.14320     51.7 1.103e+04 2.071e-10
 51.18363     53.5 1.115e+04 2.532e-10
 51.21202     55.1 1.136e+04 3.458e-10
 51.23224     55.2 1.157e+04 4.997e-10
 51.26451     56.6 1.183e+04 6.378e-10
 51.30495     57.8 1.203e+04 7.457e-10
 51.34538     58.8 1.216e+04 8.036e-10
 51.37611     59.7 1.222e+04 8.276e-10
 51.39633     59.5 1.228e+04 8.753e-10
 51.42626     60.4 1.214e+04 7.768e-10
 51.46670     61.3 1.198e+04 6.603e-10
 51.48831     62.3 1.181e+04 5.580e-10
 51.50853     62.9 1.167e+04 4.468e-10
 51.54757     64.0 1.151e+04 3.868e-10
 51.56844     65.4 1.139e+04 3.423e-10
 51.58866     65.5 1.121e+04 2.712e-10
 51.62844     67.2 1.115e+04 2.541e-10
 51.66888     68.9 1.112e+04 2.331e-10
 51.70932     70.7 1.109e+04 2.079e-10
 51.74054     72.5 1.106e+04 1.810e-10
 51.75539     72.8 1.108e+04 2.150e-10
 51.76460     73.5 1.121e+04 2.933e-10
 51.79019     75.3 1.119e+04 2.859e-10
 51.83063     77.2 1.115e+04 2.755e-10
 51.87107     79.3 1.114e+04 2.759e-10
 51.91151     81.3 1.115e+04 2.931e-10
 51.93286     83.3 1.121e+04 3.694e-10
 51.95308     83.6 1.124e+04 4.320e-10
 51.99238     85.9 1.162e+04 6.340e-10
 52.02068     88.0 1.222e+04 9.886e-10
 52.04090     89.2 1.266e+04 1.149e-09
 52.06305     89.4 1.296e+04 1.448e-09
 52.08317     89.4 1.335e+04 1.820e-09
 52.10339     89.2 1.390e+04 2.364e-09
 52.11488     89.1 1.463e+04 3.138e-09
 52.12499     88.8 1.464e+04 3.174e-09
 52.14382     88.7 1.523e+04 3.917e-09
 52.15863     88.5 1.529e+04 3.905e-09
 52.16874     88.4 1.726e+04 8.471e-09
 52.18426     88.0 1.718e+04 8.047e-09
 52.20093     87.7 1.664e+04 6.340e-09
 52.21104     87.6 1.653e+04 6.551e-09
 52.22470     87.5 1.560e+04 4.251e-09
 52.24492     87.3 1.447e+04 2.529e-09
 52.27534     87.4 1.333e+04 1.273e-09
 52.29697     87.6 1.246e+04 9.273e-10
 52.29860     86.9 1.275e+04 9.636e-10
 52.31751     86.5 1.255e+04 8.807e-10
 52.35632     87.4 1.197e+04 7.572e-10
 52.39675     89.4 1.191e+04 7.578e-10
 52.43719     91.6 1.189e+04 7.918e-10
 52.46939     93.9 1.209e+04 9.411e-10
 52.48961     94.0 1.190e+04 8.715e-10
 52.51806     96.4 1.225e+04 1.073e-09
 52.54829     97.1 1.243e+04 1.222e-09
 52.56296     97.6 1.259e+04 1.395e-09
 52.57001     97.2 1.233e+04 1.236e-09
 52.57547     97.6 1.234e+04 1.276e-09
 52.58863     98.4 1.249e+04 1.429e-09
 52.60885     99.2 1.268e+04 1.611e-09
 52.62907    100.0 1.289e+04 1.813e-09
 52.64929    100.6 1.308e+04 2.004e-09
 52.66152    101.2 1.318e+04 2.085e-09
 52.67163    101.8 1.354e+04 2.264e-09
 52.68973    102.2 1.354e+04 2.248e-09
 52.70110    102.5 1.347e+04 2.153e-09
 52.71121    102.3 1.335e+04 1.776e-09
 52.73016    102.5 1.314e+04 1.523e-09
 52.74757    102.7 1.282e+04 1.250e-09
 52.75768    102.8 1.418e+04 1.949e-09
 52.77060    102.9 1.375e+04 1.496e-09
 52.79082    102.9 1.317e+04 1.154e-09
 52.81104    103.0 1.253e+04 9.484e-10
 52.82914    103.2 1.219e+04 8.775e-10
 52.83925    102.6 1.270e+04 1.023e-09
 52.84373    103.1 1.263e+04 1.057e-09
 52.85384    102.3 1.422e+04 2.012e-09
 52.87170    103.1 1.411e+04 2.112e-09
 52.89191    104.3 1.410e+04 2.417e-09
 52.91213    105.6 1.433e+04 2.912e-09
 52.92979    106.9 1.469e+04 3.531e-09
 52.93990    106.1 1.567e+04 5.024e-09
 52.95257    107.1 1.597e+04 5.652e-09
 52.96729    108.2 1.637e+04 6.426e-09
 52.97740    108.5 1.641e+04 6.659e-09
 52.99301    109.3 1.677e+04 7.574e-09
 53.01323    110.1 1.717e+04 8.586e-09
 53.02595    110.7 1.763e+04 9.777e-09
 53.03606    110.0 1.786e+04 1.111e-08
 53.05366    110.6 1.848e+04 1.315e-08
 53.07388    111.0 1.906e+04 1.476e-08
 53.09410    111.2 1.931e+04 1.495e-08
 53.10543    110.6 1.978e+04 1.408e-08
 53.11044    109.3 2.102e+04 2.104e-08
 53.11696    108.3 2.200e+04 2.325e-08
 53.12201    106.6 2.241e+04 2.175e-08
 53.12939    104.7 2.383e+04 2.861e-08
 53.13949    102.5 2.476e+04 4.182e-08
 53.14960    100.4 2.480e+04 6.514e-08
 53.15971     98.7 2.432e+04 9.731e-08
 53.16504     97.3 2.392e+04 1.308e-07
 53.16962     95.8 2.386e+04 1.287e-07
 53.17441     94.0 2.408e+04 1.468e-07
 53.17993     91.8 2.466e+04 1.537e-07
 53.19004     87.9 2.586e+04 1.443e-07
 53.20015     81.9 2.784e+04 1.090e-07
 53.20806     73.8 3.005e+04 5.670e-08
 53.21312     69.4 3.005e+04 4.538e-08
 53.22037     59.6 2.719e+04 2.412e-08
 53.23048     51.6 2.152e+04 1.769e-08
 53.23843     47.3 1.910e+04 1.829e-08
 53.24348     46.6 1.863e+04 1.525e-08
 53.25070     45.1 1.923e+04 1.805e-08
 53.25614     43.7 1.954e+04 1.958e-08
 53.26120     43.3 1.992e+04 2.184e-08
 53.27092     41.2 1.977e+04 2.049e-08
 53.28103     40.3 1.953e+04 1.934e-08
 53.29416     38.5 1.903e+04 1.719e-08
 53.30432     38.1 1.877e+04 1.397e-08
 53.31651     36.1 1.780e+04 9.161e-09
 53.33672     33.9 1.703e+04 5.960e-09
 53.35694     31.5 1.648e+04 3.839e-09
 53.37162     28.6 1.567e+04 2.529e-09
 53.38173     31.1 1.551e+04 2.803e-09
 53.39037     28.4 1.471e+04 2.078e-09
 53.40048     26.1 1.342e+04 1.706e-09
 53.41760     24.6 1.340e+04 1.865e-09
 53.43782     23.6 1.369e+04 2.284e-09
 53.45804     23.0 1.404e+04 2.736e-09
 53.47643     22.4 1.415e+04 2.887e-09
 53.48654     22.9 1.429e+04 2.993e-09
 53.49847     22.4 1.413e+04 2.659e-09
 53.50976     21.6 1.373e+04 2.130e-09
 53.51987     22.6 1.393e+04 2.507e-09
 53.53891     21.9 1.334e+04 1.803e-09
 53.55913     20.7 1.267e+04 1.264e-09
 53.57259     19.3 1.202e+04 9.337e-10
 53.58270     19.6 1.225e+04 1.077e-09
 53.59957     18.8 1.179e+04 9.079e-10
 53.61978     18.4 1.144e+04 8.025e-10
 53.63780     18.2 1.119e+04 7.188e-10
 53.64791     18.6 1.114e+04 6.772e-10
 53.65864     18.6 1.101e+04 6.305e-10
 53.66875     19.3 1.136e+04 7.958e-10
 53.68044     19.0 1.121e+04 7.115e-10
 53.70066     18.1 1.123e+04 6.187e-10
 53.72088     16.3 1.131e+04 6.124e-10
 53.74110     13.7 1.150e+04 6.474e-10
 53.75480     11.5 1.153e+04 7.791e-10
 53.76491     11.4 1.258e+04 1.199e-09
 53.77595     10.2 1.229e+04 1.212e-09
 53.78606     10.9 1.267e+04 1.356e-09
 53.80175     10.1 1.211e+04 1.222e-09
 53.82197      9.4 1.174e+04 1.048e-09
 53.84085      8.4 1.151e+04 8.919e-10
 53.85096      8.3 1.146e+04 8.614e-10
 53.86241      7.0 1.118e+04 7.802e-10
 53.89283      5.8 1.117e+04 7.997e-10
 53.91429      4.6 1.127e+04 8.966e-10
 53.92824      5.2 1.129e+04 8.912e-10
 53.94732      4.9 1.145e+04 1.077e-09
 53.97381      4.2 1.152e+04 1.141e-09
 54.01424      3.7 1.138e+04 1.041e-09
 54.05468      3.3 1.096e+04 7.865e-10
 54.08491      3.2 1.056e+04 5.651e-10
 54.10503      2.3 1.026e+04 4.421e-10
 54.11933      2.4 9.893e+03 3.361e-10
 54.13964      2.4 9.564e+03 2.478e-10
 54.17036      1.8 9.331e+03 1.875e-10
 54.19058      1.3 9.396e+03 1.879e-10
 54.21643      0.2 9.431e+03 1.931e-10
 54.25687     -0.3 9.778e+03 2.486e-10
 54.29153     -0.0 1.007e+04 3.552e-10
 54.31175      0.6 9.682e+03 2.698e-10
 54.33774      1.1 9.858e+03 3.417e-10
 54.37818      1.5 1.016e+04 4.287e-10
 54.41862      1.4 1.060e+04 5.770e-10
 54.44666      1.2 1.101e+04 7.879e-10
 54.46687      0.2 1.102e+04 7.880e-10
 54.48385      0.5 1.100e+04 8.113e-10
 54.50407      1.8 1.073e+04 6.225e-10
 54.53993      2.2 1.063e+04 5.899e-10
 54.58037      2.9 1.038e+04 4.716e-10
 54.62080      3.6 1.010e+04 3.346e-10
 54.65595      4.0 9.881e+03 2.338e-10
 54.67617      4.7 1.001e+04 2.852e-10
 54.70168      5.0 9.850e+03 2.312e-10
 54.72295      5.6 9.781e+03 2.241e-10
 54.74317      5.4 9.712e+03 1.989e-10
 54.78255      6.4 9.741e+03 2.048e-10
 54.82299      7.5 9.832e+03 2.206e-10
 54.84828      8.5 9.921e+03 2.330e-10
 54.86850      8.7 1.002e+04 2.912e-10
 54.90386      9.6 1.008e+04 2.843e-10
 54.94430      9.3 1.021e+04 3.056e-10
 54.97902      8.0 1.073e+04 4.584e-10
 54.99924      7.5 1.085e+04 5.530e-10
 55.02038      6.2 1.138e+04 9.258e-10
 55.04060      6.1 1.118e+04 8.311e-10
 55.06561      5.1 1.112e+04 8.811e-10
 55.10605      5.4 1.054e+04 6.684e-10
 55.14649      5.8 9.760e+03 3.398e-10
 55.18692      5.4 9.143e+03 1.483e-10
 55.21270      4.7 8.638e+03 8.862e-11
 55.23292      5.1 8.653e+03 9.206e-11
 55.25531      5.3 8.439e+03 8.812e-11
 55.27553      5.3 8.324e+03 7.445e-11
 55.30824      6.4 8.298e+03 7.722e-11
 55.34867      7.6 8.301e+03 8.580e-11
 55.38481      8.7 8.357e+03 9.614e-11
 55.40503      8.7 8.324e+03 1.001e-10
 55.42955      9.5 8.414e+03 1.078e-10
 55.46999     10.0 8.605e+03 1.273e-10
 55.51042     10.2 8.881e+03 1.651e-10
 55.53161     10.0 9.162e+03 2.195e-10
 55.55183     10.3 9.159e+03 2.138e-10
 55.57713      9.4 9.659e+03 3.233e-10
 55.59735      8.4 9.724e+03 3.181e-10
 55.62153      6.2 1.054e+04 5.304e-10
 55.64165      5.3 1.081e+04 6.715e-10
 55.65945      3.3 1.154e+04 9.571e-10
 55.66956      3.6 1.152e+04 9.563e-10
 55.67310      0.6 1.267e+04 1.564e-09
 55.68321      0.5 1.266e+04 1.595e-09
 55.70230     -1.8 1.351e+04 2.216e-09
 55.72252     -4.3 1.360e+04 2.245e-09
 55.74274     -5.9 1.319e+04 1.881e-09
 55.75915     -8.6 1.263e+04 1.445e-09
 55.76926     -8.3 1.204e+04 1.150e-09
 55.78758     -9.3 1.092e+04 5.964e-10
 55.80780    -12.5 1.169e+04 9.222e-10
 55.82362    -14.3 1.174e+04 9.540e-10
 55.84383    -16.3 1.212e+04 1.161e-09
 55.85531    -17.5 1.285e+04 1.470e-09
 55.86542    -17.6 1.268e+04 1.333e-09
 55.88427    -18.3 1.342e+04 2.067e-09
 55.90449    -18.3 1.407e+04 3.033e-09
 55.92471    -17.7 1.432e+04 4.065e-09
 55.93574    -16.7 1.467e+04 4.511e-09
 55.94228    -17.0 1.550e+04 6.014e-09
 55.95147    -17.1 1.511e+04 5.463e-09
 55.96515    -17.4 1.544e+04 5.349e-09
 55.98537    -18.1 1.574e+04 5.400e-09
 56.00558    -18.8 1.589e+04 5.506e-09
 56.02580    -19.1 1.583e+04 5.500e-09
 56.03752    -18.5 1.561e+04 4.924e-09
 56.04763    -18.3 1.467e+04 3.315e-09
 56.06378    -18.5 1.418e+04 2.408e-09
 56.07389    -19.0 1.420e+04 2.422e-09
 56.08646    -20.1 1.324e+04 1.625e-09
 56.10668    -20.3 1.210e+04 1.298e-09
 56.12357    -20.5 1.138e+04 1.008e-09
 56.13378    -19.8 1.154e+04 1.046e-09
 56.15742    -18.9 1.073e+04 7.210e-10
 56.19786    -17.6 1.025e+04 5.314e-10
 56.23829    -16.1 9.866e+03 4.058e-10
 56.27873    -14.4 9.529e+03 3.251e-10
 56.30598    -12.6 9.223e+03 2.771e-10
 56.32620    -11.5 8.941e+03 1.924e-10
 56.34027     -9.6 8.771e+03 1.858e-10
 56.36049     -9.0 9.047e+03 2.400e-10
 56.40004     -7.0 8.829e+03 2.231e-10
 56.44048     -4.7 8.748e+03 2.211e-10
 56.47809     -2.4 8.800e+03 2.230e-10
 56.49831     -1.4 8.662e+03 2.068e-10
 56.52135      0.6 8.826e+03 2.202e-10
 56.56179      1.6 9.316e+03 2.831e-10
 56.59634      2.1 1.027e+04 4.852e-10
 56.61656      2.3 1.088e+04 8.582e-10
 56.64267      2.9 1.173e+04 1.449e-09
 56.67041      3.8 1.160e+04 1.391e-09
 56.69063      5.2 1.154e+04 1.354e-09
 56.72354      6.7 1.107e+04 1.098e-09
 56.76398      7.9 1.007e+04 5.885e-10
 56.80442      7.7 9.030e+03 2.961e-10
 56.84251      7.8 8.611e+03 2.338e-10
 56.86273      9.4 8.938e+03 3.135e-10
 56.87263      9.6 8.969e+03 3.225e-10
 56.89285     10.3 8.877e+03 3.053e-10
 56.92573     10.3 9.166e+03 3.764e-10
 56.96616     10.4 9.770e+03 5.501e-10
 57.00660     10.4 1.033e+04 7.819e-10
 57.03484     10.2 1.075e+04 9.358e-10
 57.05506     10.5 1.122e+04 1.105e-09
 57.08748     10.0 1.121e+04 1.086e-09
 57.12791      9.9 1.098e+04 9.185e-10
 57.14893      9.7 1.067e+04 7.237e-10
 57.16914      9.9 1.018e+04 5.514e-10
 57.20694      9.2 1.023e+04 5.622e-10
 57.22716      8.9 1.101e+04 9.009e-10
 57.24922      8.4 1.122e+04 1.030e-09
 57.28966      8.1 1.156e+04 1.173e-09
 57.33010      7.9 1.162e+04 1.206e-09
 57.37054      7.8 1.160e+04 1.166e-09
 57.39926      7.7 1.136e+04 1.013e-09
 57.41351      7.9 1.109e+04 8.434e-10
 57.42522      7.9 1.106e+04 8.655e-10
 57.45141      8.0 1.083e+04 7.157e-10
 57.48164      7.7 1.077e+04 6.516e-10
 57.49523      7.4 1.072e+04 6.493e-10
 57.50534      7.7 1.075e+04 6.348e-10
 57.53219      7.5 1.073e+04 6.899e-10
 57.57137      8.0 1.086e+04 7.720e-10
 57.59159      9.1 1.102e+04 7.385e-10
 57.61316      9.7 1.125e+04 8.096e-10
 57.65360     10.3 1.120e+04 7.415e-10
 57.68129     11.0 1.108e+04 5.623e-10
 57.70151     11.4 1.124e+04 7.080e-10
 57.73447     11.9 1.105e+04 4.596e-10
 57.76369     11.9 1.078e+04 2.946e-10
 57.78391     12.8 1.109e+04 3.870e-10
 57.81535     12.9 1.092e+04 3.442e-10
 57.85578     13.0 1.096e+04 3.990e-10
 57.89622     13.6 1.108e+04 5.277e-10
 57.93579     14.6 1.113e+04 5.674e-10
 57.95592     15.4 1.115e+04 5.672e-10
 57.95749     16.5 1.097e+04 4.674e-10
 57.97780     17.2 1.125e+04 5.959e-10
 58.01753     18.1 1.109e+04 5.293e-10
 58.05797     18.8 1.118e+04 5.571e-10
 58.08552     19.2 1.123e+04 5.802e-10
 58.09554     19.6 1.125e+04 6.152e-10
 58.10832     19.9 1.140e+04 6.878e-10
 58.12792     19.7 1.185e+04 8.480e-10
 58.13803     20.5 1.185e+04 8.769e-10
 58.14876     19.8 1.262e+04 1.197e-09
 58.16898     18.5 1.364e+04 1.861e-09
 58.18920     17.6 1.445e+04 2.992e-09
 58.20941     17.3 1.504e+04 4.159e-09
 58.22357     16.5 1.586e+04 5.043e-09
 58.22813     16.4 1.653e+04 6.526e-09
 58.23419     17.9 1.640e+04 6.437e-09
 58.24985     15.6 1.803e+04 8.445e-09
 58.26497      8.1 2.148e+04 1.245e-08
 58.27207      5.2 2.205e+04 1.425e-08
 58.27712      4.7 2.451e+04 1.863e-08
 58.28514     -0.2 2.485e+04 2.973e-08
 58.29255     -3.3 2.333e+04 4.043e-08
 58.29760     -3.5 2.348e+04 3.467e-08
 58.30536     -6.9 2.264e+04 3.991e-08
 58.31509    -10.1 2.272e+04 4.203e-08
 58.32015     -9.6 2.324e+04 8.543e-08
 58.32557    -13.0 2.441e+04 6.139e-08
 58.33568    -16.6 2.459e+04 3.600e-08
 58.34579    -22.6 2.147e+04 1.803e-08
 58.35590    -25.1 1.959e+04 1.346e-08
 58.36167    -29.1 1.730e+04 8.201e-09
 58.37183    -29.0 1.719e+04 7.994e-09
 58.39138    -30.1 1.554e+04 4.462e-09
 58.40630    -31.2 1.417e+04 2.486e-09
 58.41641    -33.7 1.423e+04 2.456e-09
 58.43182    -35.6 1.290e+04 1.442e-09
 58.45204    -37.4 1.189e+04 1.069e-09
 58.47226    -38.4 1.138e+04 9.588e-10
 58.48976    -38.4 1.117e+04 9.591e-10
 58.49974    -39.0 1.100e+04 8.700e-10
 58.50246    -40.2 1.121e+04 9.995e-10
 58.51269    -40.3 1.168e+04 1.189e-09
 58.53291    -42.2 1.346e+04 1.732e-09
 58.55313    -45.9 1.614e+04 3.157e-09
 58.57335    -49.1 1.774e+04 6.232e-09
 58.58851    -50.5 1.743e+04 1.033e-08
 58.59862    -52.0 1.691e+04 9.814e-09
 58.61379    -51.6 1.675e+04 1.094e-08
 58.62790    -50.8 1.666e+04 9.596e-09
 58.63801    -50.4 1.646e+04 8.698e-09
 58.65422    -50.0 1.661e+04 5.331e-09
 58.67444    -52.5 1.689e+04 2.415e-09
 58.68467    -58.1 1.464e+04 9.649e-10
 58.69478    -63.9 9.843e+03 5.134e-10
 58.71488    -64.6 9.603e+03 4.893e-10
 58.73510    -64.5 9.754e+03 5.183e-10
 58.75532    -64.6 1.009e+04 5.859e-10
 58.76605    -65.2 1.046e+04 6.879e-10
 58.77135    -65.2 9.854e+03 4.838e-10
 58.78083    -66.7 9.800e+03 4.695e-10
 58.79576    -67.3 1.006e+04 5.838e-10
 58.81597    -67.8 1.027e+04 7.199e-10
 58.83619    -67.6 1.044e+04 8.629e-10
 58.85641    -67.3 1.062e+04 9.787e-10
 58.86688    -67.1 1.070e+04 1.013e-09
 58.87699    -67.5 1.027e+04 7.587e-10
 58.89409    -67.7 1.005e+04 6.194e-10
 58.90420    -67.7 9.777e+03 5.178e-10
 58.91707    -68.6 9.515e+03 4.385e-10
 58.93729    -69.7 9.375e+03 4.082e-10
 58.95294    -70.4 9.411e+03 4.105e-10
 58.96305    -70.7 9.590e+03 3.993e-10
 58.97772    -71.5 9.773e+03 4.182e-10
 58.99794    -72.3 9.982e+03 4.619e-10
 59.01816    -73.0 1.015e+04 5.306e-10
 59.03223    -73.1 1.030e+04 6.148e-10
 59.04234    -72.6 1.022e+04 6.008e-10
 59.04910    -72.5 1.035e+04 6.750e-10
 59.06941    -71.5 9.798e+03 5.090e-10
 59.10934    -70.8 9.929e+03 5.738e-10
 59.14978    -69.8 1.000e+04 5.995e-10
 59.19021    -68.7 1.008e+04 6.118e-10
 59.22140    -67.4 1.022e+04 6.418e-10
 59.24162    -67.5 1.021e+04 6.462e-10
 59.27109    -66.3 1.023e+04 6.512e-10
 59.29861    -64.6 1.007e+04 5.842e-10
 59.31883    -63.7 9.880e+03 5.139e-10
 59.35196    -61.9 9.714e+03 4.302e-10
 59.39240    -60.1 9.720e+03 3.322e-10
 59.41372    -58.8 9.770e+03 2.512e-10
 59.43394    -60.5 9.248e+03 1.700e-10
 59.47327    -59.9 9.203e+03 1.628e-10
 59.51371    -59.4 9.336e+03 1.697e-10
 59.55415    -58.7 9.480e+03 2.044e-10
 59.57490    -57.7 9.653e+03 2.523e-10
 59.58636    -57.5 9.768e+03 2.830e-10
 59.60604    -57.9 9.786e+03 2.771e-10
 59.63502    -56.8 9.800e+03 2.423e-10
 59.67546    -55.6 9.821e+03 2.325e-10
 59.71590    -54.2 9.893e+03 2.337e-10
 59.75634    -52.7 1.007e+04 2.440e-10
 59.77815    -51.3 1.030e+04 2.557e-10
 59.79836    -52.7 1.059e+04 3.305e-10
 59.83098    -51.5 1.078e+04 3.840e-10
 59.85120    -50.3 1.092e+04 3.971e-10
 59.87765    -49.5 1.135e+04 5.028e-10
 59.91808    -50.3 1.192e+04 6.715e-10
 59.94831    -52.4 1.240e+04 8.678e-10
 59.96016    -52.8 1.282e+04 1.078e-09
 59.97027    -53.9 1.305e+04 1.174e-09
 59.97904    -56.3 1.438e+04 1.622e-09
 59.98915    -62.6 1.999e+04 2.181e-09
 60.00887    -69.8 2.262e+04 7.925e-09
 60.02399    -74.6 2.372e+04 1.666e-08
 60.03405    -76.2 2.411e+04 2.779e-08
 60.04296    -77.9 2.401e+04 4.111e-08
 60.04801    -77.9 2.430e+04 4.901e-08
 60.05117    -79.6 2.372e+04 5.998e-08
 60.05623    -81.6 2.303e+04 6.679e-08
 60.06438    -82.4 2.248e+04 7.187e-08
 60.07449    -82.9 2.174e+04 6.870e-08
 60.08460    -83.1 2.142e+04 5.631e-08
 60.09420    -83.3 2.130e+04 4.134e-08
 60.09925    -84.0 2.140e+04 2.828e-08
 60.10481    -85.4 2.152e+04 1.997e-08
 60.11203    -87.5 2.096e+04 1.440e-08
 60.11709    -89.0 2.042e+04 1.339e-08
 60.12503    -90.9 1.950e+04 1.048e-08
 60.13514    -91.9 1.891e+04 9.040e-09
 60.14233    -93.7 1.841e+04 7.507e-09
 60.15249    -98.5 1.809e+04 8.074e-09
 60.17062   -101.0 1.758e+04 8.421e-09
 60.19084   -101.9 1.727e+04 8.813e-09
 60.21106   -102.1 1.687e+04 8.699e-09
 60.22843   -102.0 1.624e+04 7.154e-09
 60.23854   -102.5 1.587e+04 6.661e-09
 60.24522   -102.6 1.488e+04 4.164e-09
 60.25533   -102.9 1.444e+04 3.636e-09
 60.27172   -103.5 1.357e+04 2.438e-09
 60.29193   -104.0 1.267e+04 1.641e-09
 60.31215   -104.3 1.194e+04 1.166e-09
 60.32459   -104.4 1.142e+04 8.909e-10
 60.33470   -105.6 1.095e+04 6.786e-10
 60.35259   -105.3 1.070e+04 5.949e-10
 60.37281   -105.1 1.058e+04 5.653e-10
 60.38337   -105.1 1.064e+04 5.703e-10
 60.39348   -104.6 1.060e+04 5.302e-10
 60.41064   -105.1 1.087e+04 5.975e-10
 60.42075   -107.3 1.119e+04 6.566e-10
 60.43346   -108.6 1.188e+04 1.006e-09
 60.45368   -109.6 1.261e+04 1.638e-09
 60.47390   -110.0 1.334e+04 2.559e-09
 60.49412   -109.9 1.395e+04 3.471e-09
 60.50680   -109.9 1.430e+04 3.974e-09
 60.51398   -110.8 1.392e+04 3.504e-09
 60.52151   -110.5 1.377e+04 3.367e-09
 60.53456   -110.6 1.362e+04 3.027e-09
 60.55478   -111.1 1.296e+04 2.178e-09
 60.57499   -112.2 1.207e+04 1.475e-09
 60.59286   -113.5 1.117e+04 1.046e-09
 60.60297   -114.4 1.064e+04 8.499e-10
 60.61543   -114.7 1.027e+04 7.312e-10
 60.63565   -114.7 1.007e+04 6.682e-10
 60.64955   -114.5 9.927e+03 6.250e-10
 60.65966   -114.0 9.935e+03 6.241e-10
 60.67609   -113.7 9.832e+03 5.900e-10
 60.68902   -113.4 9.734e+03 5.565e-10
 60.69913   -113.3 9.556e+03 4.905e-10
 60.71653   -112.9 9.438e+03 4.552e-10
 60.73674   -112.6 9.331e+03 4.250e-10
 60.75696   -112.2 9.260e+03 4.016e-10
 60.77507   -112.1 9.245e+03 3.917e-10
 60.78518   -111.9 9.253e+03 3.780e-10
 60.78770   -111.9 9.263e+03 3.762e-10
 60.79781   -110.8 9.258e+03 3.607e-10
 60.81762   -111.1 9.357e+03 3.793e-10
 60.83784   -112.0 9.665e+03 4.469e-10
 60.85806   -112.8 1.003e+04 5.780e-10
 60.87133   -113.2 1.038e+04 7.722e-10
 60.89164   -113.8 1.063e+04 8.493e-10
 60.91593   -113.8 1.106e+04 1.126e-09
 60.93615   -112.2 1.051e+04 7.999e-10
 60.96945   -112.6 1.079e+04 9.822e-10
 61.00989   -113.1 1.086e+04 1.018e-09
 61.04353   -113.5 1.058e+04 8.302e-10
 61.05729   -114.3 1.055e+04 7.942e-10
 61.06399   -113.3 1.056e+04 7.778e-10
 61.08046   -113.8 1.029e+04 7.143e-10
 61.10068   -114.3 1.016e+04 6.844e-10
 61.12090   -114.3 1.014e+04 6.793e-10
 61.13950   -117.4 1.130e+04 8.017e-10
 61.14961   -117.1 1.120e+04 7.517e-10
 61.16134   -126.7 1.776e+04 2.398e-09
 61.17645   -131.3 2.045e+04 6.310e-09
 61.18651   -134.1 2.302e+04 9.625e-09
 61.19193   -138.5 2.448e+04 2.919e-08
 61.19290   -134.8 2.343e+04 1.516e-08
 61.19759   -135.5 2.385e+04 1.671e-08
 61.20673   -138.9 2.498e+04 4.284e-08
 61.21684   -141.4 2.476e+04 8.580e-08
 61.22695   -143.4 2.437e+04 1.102e-07
 61.23556   -145.1 2.306e+04 1.151e-07
 61.24061   -145.7 2.314e+04 1.321e-07
 61.24717   -147.1 2.304e+04 7.562e-08
 61.25595   -148.4 2.218e+04 3.126e-08
 61.26100   -146.3 2.253e+04 4.662e-08
 61.26739   -147.8 2.193e+04 1.826e-08
 61.27749   -150.7 2.061e+04 6.193e-09
 61.28364   -154.2 1.860e+04 2.553e-09
 61.28870   -154.2 1.844e+04 2.713e-09
 61.30282   -158.0 1.592e+04 1.169e-09
 61.32007   -163.2 1.158e+04 3.090e-10
 61.32880   -158.7 1.458e+04 5.859e-10
 61.33182   -158.2 1.446e+04 6.721e-10
 61.34330   -162.7 1.106e+04 2.445e-10
 61.36352   -164.6 9.729e+03 1.760e-10
 61.38374   -164.6 9.594e+03 1.685e-10
 61.40786   -164.0 9.530e+03 1.651e-10
 61.42818   -163.0 9.732e+03 1.817e-10
 61.44830   -161.9 9.643e+03 1.794e-10
 61.46852   -161.8 9.726e+03 1.781e-10
 61.49514   -161.1 9.633e+03 1.759e-10
 61.53558   -160.6 9.508e+03 1.675e-10
 61.57601   -159.8 9.399e+03 1.455e-10
 61.60028   -158.8 9.274e+03 1.199e-10
 61.62050   -157.9 9.387e+03 1.255e-10
 61.65689   -156.7 9.295e+03 1.054e-10
 61.69732   -155.4 9.255e+03 9.136e-11
 61.72459   -154.0 9.235e+03 8.397e-11
 61.74481   -154.3 9.226e+03 8.331e-11
 61.77238   -152.9 9.204e+03 8.162e-11
 61.79260   -152.0 9.367e+03 8.244e-11
 61.81864   -150.6 9.368e+03 8.187e-11
 61.85907   -149.3 9.371e+03 8.289e-11
 61.89951   -148.1 9.464e+03 9.016e-11
 61.93995   -146.9 9.540e+03 1.015e-10
 61.96471   -145.7 9.630e+03 1.152e-10
 61.98492   -145.0 9.735e+03 1.184e-10
 62.00088   -143.7 9.800e+03 1.314e-10
 62.02110   -143.8 9.812e+03 1.263e-10
 62.06126   -142.7 9.940e+03 1.419e-10
 62.10170   -141.7 1.011e+04 1.661e-10
 62.13681   -140.7 1.028e+04 2.069e-10
 62.15703   -139.9 1.034e+04 2.038e-10
 62.18257   -139.0 1.055e+04 2.691e-10
 62.22301   -138.1 1.082e+04 3.639e-10
 62.25696   -137.2 1.111e+04 4.780e-10
 62.27718   -137.1 1.069e+04 3.037e-10
 62.30388   -136.1 1.088e+04 3.543e-10
 62.32913   -135.3 1.108e+04 4.055e-10
 62.34935   -134.5 1.131e+04 5.290e-10
 62.38476   -133.8 1.152e+04 6.100e-10
 62.42520   -133.3 1.170e+04 7.069e-10
 62.46563   -132.7 1.192e+04 8.308e-10
 62.50124   -132.1 1.226e+04 9.898e-10
 62.52146   -131.6 1.227e+04 1.031e-09
 62.53315   -130.5 1.233e+04 1.036e-09
 62.55337   -129.9 1.210e+04 8.994e-10
 62.57674   -129.8 1.256e+04 1.173e-09
 62.59686   -129.8 1.285e+04 1.352e-09
 62.60731   -129.6 1.299e+04 1.421e-09
 62.61742   -129.2 1.281e+04 1.247e-09
 62.63730   -129.1 1.281e+04 1.261e-09
 62.65751   -128.8 1.277e+04 1.227e-09
 62.67120   -128.5 1.263e+04 1.050e-09
 62.68131   -127.9 1.267e+04 1.168e-09
 62.69336   -127.5 1.249e+04 9.622e-10
 62.70347   -127.1 1.248e+04 9.162e-10
 62.71817   -126.9 1.226e+04 7.235e-10
 62.74860   -126.9 1.190e+04 5.390e-10
 62.78913   -125.5 1.155e+04 3.751e-10
 62.82957   -122.8 1.142e+04 3.041e-10
 62.86566   -121.2 1.125e+04 2.026e-10
 62.88588   -120.5 1.131e+04 2.449e-10
 62.91044   -119.0 1.122e+04 1.869e-10
 62.95088   -117.5 1.115e+04 1.579e-10
 62.99132   -116.0 1.107e+04 1.434e-10
 63.03175   -114.5 1.101e+04 1.345e-10
 63.05799   -113.1 1.101e+04 1.293e-10
 63.07163   -112.5 1.101e+04 1.152e-10
 63.08583   -111.8 1.108e+04 1.192e-10
 63.11263   -110.6 1.104e+04 1.100e-10
 63.15307   -109.5 1.105e+04 1.065e-10
 63.19350   -108.4 1.103e+04 1.058e-10
 63.23009   -107.5 1.103e+04 1.144e-10
 63.25031   -106.7 1.099e+04 1.045e-10
 63.27438   -105.8 1.101e+04 1.251e-10
 63.31482   -104.8 1.107e+04 1.545e-10
 63.34191   -104.0 1.114e+04 1.800e-10
 63.36213   -103.7 1.105e+04 1.598e-10
 63.39569   -103.1 1.112e+04 1.768e-10
 63.42241   -102.9 1.116e+04 1.828e-10
 63.44263   -102.0 1.117e+04 1.792e-10
 63.47656   -102.0 1.131e+04 1.908e-10
 63.51700   -102.9 1.151e+04 2.149e-10
 63.55744   -104.1 1.164e+04 2.673e-10
 63.59452   -105.2 1.167e+04 3.484e-10
 63.61474   -104.4 1.185e+04 4.774e-10
 63.63831   -104.2 1.173e+04 4.339e-10
 63.67875   -104.2 1.160e+04 4.372e-10
 63.71919   -104.1 1.144e+04 4.140e-10
 63.75963   -103.6 1.132e+04 3.643e-10
 63.78684   -102.7 1.122e+04 2.936e-10
 63.80706   -101.8 1.117e+04 2.668e-10
 63.84050   -100.9 1.111e+04 2.151e-10
 63.87428    -99.9 1.109e+04 1.769e-10
 63.89449    -99.0 1.108e+04 1.780e-10
 63.92137    -98.0 1.109e+04 1.527e-10
 63.95894    -97.0 1.110e+04 1.372e-10
 63.97916    -95.8 1.111e+04 1.370e-10
 64.00225    -94.7 1.113e+04 1.260e-10
 64.04269    -93.6 1.111e+04 1.198e-10
 64.08312    -92.4 1.107e+04 1.170e-10
 64.12356    -91.0 1.101e+04 1.157e-10
 64.15057    -89.5 1.093e+04 1.147e-10
 64.15806    -88.9 1.091e+04 1.020e-10
 64.17148    -87.9 1.100e+04 1.116e-10
 64.20443    -86.4 1.083e+04 1.095e-10
 64.24487    -84.8 1.070e+04 1.068e-10
 64.28531    -83.1 1.063e+04 1.026e-10
 64.32337    -81.5 1.064e+04 9.910e-11
 64.34359    -80.8 1.060e+04 1.177e-10
 64.36618    -79.4 1.056e+04 1.206e-10
 64.40662    -77.9 1.054e+04 1.309e-10
 64.44706    -75.6 1.049e+04 1.145e-10
 64.48750    -74.0 1.055e+04 1.336e-10
 64.51569    -72.4 1.061e+04 1.544e-10
 64.53591    -71.4 1.056e+04 1.554e-10
 64.56837    -69.7 1.066e+04 1.586e-10
 64.60881    -68.2 1.078e+04 1.616e-10
 64.64924    -66.9 1.095e+04 1.627e-10
 64.68294    -66.2 1.138e+04 1.653e-10
 64.70127    -65.2 1.134e+04 2.219e-10
 64.70802    -64.6 1.113e+04 2.005e-10
 64.73012    -64.0 1.146e+04 2.386e-10
 64.77056    -63.4 1.162e+04 3.405e-10
 64.81099    -62.5 1.165e+04 4.993e-10
 64.85143    -61.6 1.165e+04 6.336e-10
 64.88012    -60.7 1.164e+04 6.656e-10
 64.90034    -60.0 1.149e+04 5.632e-10
 64.93231    -59.2 1.139e+04 5.593e-10
 64.95923    -58.2 1.113e+04 4.922e-10
 64.97945    -57.4 1.122e+04 5.195e-10
 65.01318    -56.3 1.107e+04 4.383e-10
 65.05222    -55.1 1.097e+04 3.786e-10
 65.07244    -54.9 1.100e+04 4.151e-10
 65.09405    -53.6 1.094e+04 3.961e-10
 65.13449    -52.4 1.089e+04 3.690e-10
 65.17493    -51.2 1.090e+04 3.485e-10
 65.21530    -50.4 1.101e+04 3.543e-10
 65.24448    -49.7 1.166e+04 7.427e-10
 65.26476    -50.2 1.214e+04 1.231e-09
 65.29624    -49.6 1.254e+04 1.679e-09
 65.33668    -49.2 1.263e+04 1.773e-09
 65.37712    -49.2 1.217e+04 1.365e-09
 65.41665    -49.7 1.151e+04 9.340e-10
 65.43687    -49.9 1.123e+04 7.177e-10
 65.45799    -49.9 1.083e+04 4.744e-10
 65.49159    -49.7 1.061e+04 3.595e-10
 65.51181    -49.8 1.060e+04 3.570e-10
 65.53886    -49.6 1.050e+04 3.315e-10
 65.57930    -49.1 1.041e+04 3.223e-10
 65.60897    -48.4 1.025e+04 2.932e-10
 65.62919    -48.3 1.015e+04 2.667e-10
 65.66018    -47.3 1.001e+04 2.553e-10
 65.70061    -46.0 9.850e+03 2.379e-10
 65.74105    -44.5 9.704e+03 2.066e-10
 65.76789    -42.9 9.584e+03 1.687e-10
 65.78769    -43.7 9.689e+03 1.635e-10
 65.80130    -44.1 1.009e+04 2.408e-10
 65.82193    -43.1 1.018e+04 2.181e-10
 65.86236    -42.0 1.032e+04 2.299e-10
 65.90280    -40.8 1.036e+04 2.821e-10
 65.94324    -39.1 1.028e+04 3.525e-10
 65.97340    -37.3 1.029e+04 4.114e-10
 65.99362    -37.7 1.102e+04 8.699e-10
 66.02396    -36.8 1.122e+04 9.104e-10
 66.06440    -37.7 1.128e+04 9.496e-10
 66.10499    -36.3 1.113e+04 1.004e-09
 66.14542    -34.2 1.068e+04 8.556e-10
 66.18586    -32.8 9.987e+03 2.849e-10
 66.22630    -32.7 9.599e+03 1.584e-10
 66.26674    -31.9 9.373e+03 1.344e-10
 66.30025    -30.1 9.458e+03 1.403e-10
 66.32047    -31.0 9.566e+03 2.004e-10
 66.33783    -29.5 9.673e+03 2.414e-10
 66.35804    -29.1 9.560e+03 2.456e-10
 66.38805    -27.6 9.851e+03 3.161e-10
 66.42848    -26.5 1.020e+04 4.571e-10
 66.46892    -25.2 1.053e+04 6.852e-10
 66.50936    -23.3 1.081e+04 8.744e-10
 66.53015    -22.4 1.093e+04 8.311e-10
 66.55037    -22.6 1.107e+04 1.023e-09
 66.57655    -21.2 1.090e+04 7.854e-10
 66.59677    -22.1 1.052e+04 6.540e-10
 66.63067    -21.4 1.032e+04 4.808e-10
 66.67111    -20.7 1.008e+04 3.912e-10
 66.70225    -19.7 9.981e+03 3.424e-10
 66.72247    -20.0 9.865e+03 3.855e-10
 66.75198    -18.7 1.003e+04 3.655e-10
 66.79242    -17.8 1.007e+04 3.696e-10
 66.83262    -16.7 1.002e+04 3.906e-10
 66.85284    -17.1 9.844e+03 3.435e-10
 66.87329    -15.8 9.916e+03 3.295e-10
 66.89458    -14.7 1.001e+04 2.965e-10
 66.91479    -15.5 9.863e+03 2.746e-10
 66.95417    -14.5 9.764e+03 2.591e-10
 66.99461    -13.5 9.735e+03 2.467e-10
 67.03504    -12.5 9.818e+03 2.358e-10
 67.06668    -11.8 9.874e+03 2.241e-10
 67.08690    -12.1 9.957e+03 2.202e-10
 67.10891    -11.2 9.908e+03 1.913e-10
 67.12913    -10.9 9.944e+03 2.385e-10
 67.15636     -9.6 9.828e+03 1.719e-10
 67.19679     -8.4 9.727e+03 1.150e-10
 67.23723     -7.8 9.721e+03 8.173e-11
 67.25900     -6.9 9.528e+03 7.359e-11
 67.27922     -7.2 9.793e+03 8.030e-11
 67.31810     -6.3 9.866e+03 8.743e-11
 67.35854     -5.4 9.927e+03 1.190e-10
 67.38521     -4.1 9.958e+03 1.883e-10
 67.40542     -3.8 9.795e+03 1.798e-10
 67.43111     -2.0 9.896e+03 2.527e-10
 67.45132     -1.9 9.973e+03 3.040e-10
 67.47985     -0.4 1.022e+04 3.385e-10
 67.52029      0.7 1.035e+04 3.472e-10
 67.56073      1.6 1.044e+04 3.522e-10
 67.60117      2.4 1.051e+04 3.567e-10
 67.62343      3.1 1.053e+04 3.594e-10
 67.64333      3.2 1.067e+04 4.523e-10
 67.66150      3.9 1.046e+04 3.725e-10
 67.68204      4.7 1.049e+04 3.769e-10
 67.72248      5.6 1.047e+04 3.683e-10
 67.76291      6.6 1.042e+04 3.390e-10
 67.79553      7.5 1.042e+04 2.925e-10
 67.81575      7.2 1.061e+04 3.000e-10
 67.84379      7.7 1.055e+04 2.524e-10
 67.88423      8.5 1.051e+04 2.476e-10
 67.91757      9.3 1.062e+04 2.659e-10
 67.93779     10.0 1.047e+04 2.687e-10
 67.96510     10.6 1.068e+04 3.234e-10
 67.98786     11.2 1.107e+04 4.789e-10
 68.00807     11.0 1.112e+04 4.662e-10
 68.04598     11.7 1.159e+04 6.775e-10
 68.08641     12.1 1.184e+04 7.744e-10
 68.12685     12.4 1.190e+04 7.245e-10
 68.15996     12.6 1.184e+04 4.828e-10
 68.18018     12.6 1.194e+04 5.526e-10
 68.19387     12.6 1.178e+04 2.911e-10
 68.21408     13.4 1.202e+04 7.113e-10
 68.24816     13.3 1.181e+04 4.173e-10
 68.28860     13.0 1.155e+04 2.401e-10
 68.32904     12.7 1.121e+04 1.831e-10
 68.35228     12.3 1.118e+04 2.031e-10
 68.37250     12.4 1.133e+04 2.360e-10
 68.40991     11.0 1.165e+04 4.764e-10
 68.44994      9.0 1.292e+04 1.372e-09
 68.47016     10.1 1.291e+04 1.309e-09
 68.48058      9.0 1.345e+04 2.260e-09
 68.50070      8.8 1.369e+04 2.585e-09
 68.52429      8.6 1.326e+04 1.823e-09
 68.54451      8.6 1.334e+04 1.709e-09
 68.56136      8.2 1.295e+04 1.106e-09
 68.58157      6.2 1.258e+04 6.170e-10
 68.61200      4.1 1.197e+04 3.687e-10
 68.65253      1.5 1.104e+04 2.169e-10
 68.69297      0.2 1.061e+04 2.085e-10
 68.71671     -0.8 1.058e+04 2.506e-10
 68.72975     -1.0 1.074e+04 3.157e-10
 68.74645      1.3 1.134e+04 5.039e-10
 68.77385      0.2 1.136e+04 6.510e-10
 68.81428     -0.3 1.131e+04 7.864e-10
 68.85472     -0.3 1.099e+04 5.873e-10
 68.88881     -2.9 1.088e+04 4.225e-10
 68.90903     -3.2 1.104e+04 4.380e-10
 68.93560     -6.9 1.070e+04 4.074e-10
 68.97603    -10.5 1.103e+04 4.840e-10
 69.00253    -13.1 1.116e+04 6.272e-10
 69.02274    -13.9 1.096e+04 6.136e-10
 69.05691    -15.8 1.113e+04 7.021e-10
 69.08114    -17.4 1.119e+04 8.280e-10
 69.10135    -18.3 1.100e+04 7.247e-10
 69.13778    -18.8 1.048e+04 6.184e-10
 69.17822    -18.4 9.888e+03 3.550e-10
 69.21866    -18.9 9.552e+03 1.661e-10
 69.25324    -20.2 9.098e+03 1.186e-10
 69.27296    -20.7 9.076e+03 1.095e-10
 69.27882    -20.3 9.104e+03 9.634e-11
 69.29953    -20.1 8.880e+03 1.092e-10
 69.33997    -19.0 8.843e+03 1.454e-10
 69.38041    -17.4 8.934e+03 1.676e-10
 69.42084    -16.2 8.991e+03 1.683e-10
 69.44556    -15.4 8.986e+03 1.689e-10
 69.46578    -15.3 9.005e+03 1.690e-10
 69.50172    -15.0 9.158e+03 1.832e-10
 69.53489    -15.5 9.476e+03 2.631e-10
 69.55511    -14.3 9.306e+03 2.303e-10
 69.58259    -13.8 9.649e+03 3.583e-10
 69.61767    -13.3 1.001e+04 4.989e-10
 69.63788    -13.3 9.764e+03 3.690e-10
 69.66347    -15.5 1.114e+04 6.829e-10
 69.69370    -22.4 1.524e+04 1.593e-09
 69.71363    -28.6 1.665e+04 4.786e-09
 69.72374    -27.4 1.564e+04 4.228e-09
 69.73404    -28.7 1.618e+04 7.509e-09
 69.75425    -28.5 1.678e+04 9.415e-09
 69.77447    -29.2 1.633e+04 8.067e-09
 69.79469    -30.2 1.512e+04 4.442e-09
 69.80979    -34.2 1.343e+04 2.126e-09
 69.81598    -35.1 1.274e+04 1.814e-09
 69.82110    -35.2 1.286e+04 1.993e-09
 69.83513    -37.2 1.189e+04 1.224e-09
 69.86555    -38.7 1.119e+04 8.306e-10
 69.89588    -39.6 1.117e+04 7.971e-10
 69.91600    -39.7 1.107e+04 6.826e-10
 69.93622    -40.7 1.143e+04 7.614e-10
 69.94914    -41.1 1.179e+04 1.057e-09
 69.95924    -41.2 1.194e+04 1.056e-09
 69.97666    -41.0 1.208e+04 1.666e-09
 69.99201    -40.4 1.238e+04 2.141e-09
 70.00212    -40.4 1.191e+04 1.597e-09
 70.01710    -40.5 1.337e+04 2.200e-09
 70.03732    -49.5 2.455e+04 3.477e-09
 70.05243    -58.4 2.880e+04 7.999e-09
 70.06249    -62.9 2.672e+04 1.650e-08
 70.07260    -66.5 2.270e+04 3.616e-08
 70.08213    -67.3 2.047e+04 5.937e-08
 70.08718    -67.0 2.028e+04 6.157e-08
 70.08807    -66.8 1.988e+04 6.980e-08
 70.09313    -66.5 2.027e+04 6.542e-08
 70.10293    -65.5 1.933e+04 6.702e-08
 70.11304    -63.6 1.868e+04 5.836e-08
 70.12315    -61.8 1.878e+04 4.498e-08
 70.13110    -60.7 1.967e+04 2.908e-08
 70.13615    -60.9 1.921e+04 3.309e-08
 70.14337    -60.3 2.027e+04 1.778e-08
 70.15120    -60.3 2.217e+04 7.502e-09
 70.15626    -63.8 2.251e+04 4.195e-09
 70.16358    -70.6 1.894e+04 1.728e-09
 70.17417    -75.2 1.410e+04 9.665e-10
 70.18433    -71.6 1.564e+04 1.455e-09
 70.19906    -75.1 1.131e+04 7.447e-10
 70.21532    -75.2 1.030e+04 4.985e-10
 70.22543    -75.4 1.027e+04 5.022e-10
 70.23950    -74.6 1.025e+04 4.320e-10
 70.25972    -73.8 1.021e+04 3.806e-10
 70.27038    -73.2 1.019e+04 3.604e-10
 70.28049    -72.4 1.006e+04 3.608e-10
 70.30016    -71.9 1.006e+04 3.593e-10
 70.32038    -71.4 1.017e+04 3.717e-10
 70.34059    -70.9 1.029e+04 4.315e-10
 70.35347    -70.2 1.041e+04 5.204e-10
 70.35919    -69.9 1.041e+04 4.828e-10
 70.36654    -68.9 1.038e+04 4.853e-10
 70.38103    -68.4 1.058e+04 5.924e-10
 70.40125    -68.1 1.099e+04 7.633e-10
 70.42147    -68.5 1.165e+04 1.089e-09
 70.44169    -69.4 1.252e+04 1.727e-09
 70.45260    -70.2 1.353e+04 2.866e-09
 70.46270    -70.8 1.393e+04 3.876e-09
 70.48150    -70.9 1.515e+04 6.692e-09
 70.49161    -70.7 1.575e+04 8.310e-09
 70.50234    -70.6 1.733e+04 1.271e-08
 70.52256    -71.4 1.893e+04 1.721e-08
 70.53865    -73.7 2.003e+04 2.001e-08
 70.54876    -72.8 1.933e+04 1.888e-08
 70.56300    -75.1 1.978e+04 1.989e-08
 70.58322    -77.5 1.981e+04 2.025e-08
 70.60344    -78.9 1.932e+04 1.958e-08
 70.61965    -79.4 1.870e+04 1.626e-08
 70.62976    -80.0 1.923e+04 1.813e-08
 70.63481    -80.1 1.824e+04 1.124e-08
 70.64492    -79.8 1.923e+04 1.770e-08
 70.66409    -80.1 1.864e+04 1.173e-08
 70.68431    -81.2 1.777e+04 7.139e-09
 70.70453    -82.4 1.627e+04 4.480e-09
 70.72086    -83.1 1.470e+04 3.135e-09
 70.73097    -81.6 1.701e+04 5.026e-09
 70.74497    -81.6 1.532e+04 3.327e-09
 70.75779    -81.4 1.404e+04 2.390e-09
 70.76790    -81.7 1.298e+04 1.724e-09
 70.78540    -80.7 1.281e+04 1.567e-09
 70.80562    -83.5 1.811e+04 1.313e-09
 70.81702   -102.0 4.225e+04 2.082e-09
 70.82203   -101.9 4.539e+04 1.753e-09
 70.82677   -109.5 3.164e+04 1.471e-08
 70.83183   -106.3 3.739e+04 6.550e-09
 70.84091   -111.3 2.530e+04 5.709e-08
 70.85102   -112.4 2.169e+04 2.188e-07
 70.85995   -113.9 2.137e+04 3.713e-07
 70.86500   -109.9 2.115e+04 5.317e-07
 70.87124   -113.6 2.156e+04 5.566e-07
 70.88135   -122.2 2.374e+04 2.501e-07
 70.89079   -138.2 2.740e+04 2.635e-08
 70.89584   -131.5 3.004e+04 5.621e-08
 70.90156   -149.1 3.019e+04 5.062e-09
 70.90803   -161.6 1.882e+04 1.877e-09
 70.91309   -162.7 1.752e+04 2.054e-09
 70.92178   -165.7 1.220e+04 1.510e-09
 70.93189   -165.9 1.155e+04 1.350e-09
 70.94711   -166.1 1.123e+04 1.159e-09
 70.96737   -164.8 1.027e+04 8.089e-10
 70.98759   -163.7 9.619e+03 6.102e-10
 70.99924   -162.7 9.324e+03 5.048e-10
 71.00934   -162.2 9.361e+03 5.067e-10
 71.02398   -161.3 9.082e+03 4.320e-10
 71.03409   -161.2 9.015e+03 4.096e-10
 71.04825   -160.6 8.905e+03 3.842e-10
 71.07528   -160.0 8.898e+03 3.794e-10
 71.09559   -158.9 8.865e+03 3.572e-10
 71.11921   -157.2 8.696e+03 3.295e-10
 71.15221   -155.6 8.679e+03 3.283e-10
 71.17243   -154.7 8.651e+03 3.247e-10
 71.20008   -153.5 8.820e+03 3.607e-10
 71.24052   -152.7 9.004e+03 4.094e-10
 71.26770   -151.9 9.048e+03 4.279e-10
 71.28791   -150.3 8.998e+03 4.140e-10
 71.32139   -149.6 9.036e+03 4.266e-10
 71.36183   -149.0 9.031e+03 4.228e-10
 71.40227   -148.6 9.003e+03 4.063e-10
 71.42850   -148.4 9.005e+03 4.024e-10
 71.44582   -147.3 9.359e+03 5.121e-10
 71.46002   -146.1 9.788e+03 6.474e-10
 71.48314   -146.5 1.028e+04 7.985e-10
 71.52358   -147.4 1.083e+04 1.040e-09
 71.56402   -148.5 1.124e+04 1.294e-09
 71.60445   -149.8 1.136e+04 1.402e-09
 71.63212   -150.9 1.129e+04 1.398e-09
 71.65234   -149.4 1.098e+04 1.233e-09
 71.68458   -149.7 1.049e+04 9.364e-10
 71.70480   -148.6 1.093e+04 1.186e-09
 71.72577   -148.6 1.029e+04 7.721e-10
 71.76620   -148.3 9.590e+03 4.461e-10
 71.80423   -148.0 9.069e+03 2.703e-10
 71.82445   -146.4 8.997e+03 2.315e-10
 71.84708   -145.9 8.817e+03 1.787e-10
 71.88752   -144.9 8.778e+03 1.679e-10
 71.92795   -143.7 8.807e+03 1.696e-10
 71.96087   -142.6 9.013e+03 1.961e-10
 71.98109   -141.5 9.101e+03 2.052e-10
 71.99655   -140.6 9.300e+03 2.464e-10
 72.01677   -139.3 9.034e+03 1.726e-10
 72.04926   -138.4 9.135e+03 1.901e-10
 72.08970   -137.5 9.160e+03 1.964e-10
 72.13014   -136.4 9.157e+03 1.978e-10
 72.16865   -135.0 9.138e+03 1.887e-10
 72.18887   -133.8 8.977e+03 1.605e-10
 72.21101   -132.3 8.979e+03 1.436e-10
 72.23716   -130.8 8.966e+03 1.184e-10
 72.25738   -130.2 8.877e+03 1.119e-10
 72.29189   -128.7 8.880e+03 8.619e-11
 72.33233   -127.2 9.001e+03 6.708e-11
 72.36098   -125.8 9.187e+03 5.832e-11
 72.38119   -124.3 8.821e+03 5.245e-11
 72.41320   -122.9 8.924e+03 4.633e-11
 72.45364   -121.5 8.972e+03 4.532e-11
 72.49324   -120.1 9.206e+03 4.586e-11
 72.51346   -119.6 9.231e+03 4.460e-11
 72.53308   -118.3 9.419e+03 5.197e-11
 72.55330   -116.7 9.132e+03 4.643e-11
 72.57495   -115.4 9.274e+03 5.418e-11
 72.61539   -114.0 9.346e+03 6.211e-11
 72.65582   -112.4 9.389e+03 6.673e-11
 72.69626   -110.8 9.404e+03 6.795e-11
 72.72540   -109.1 9.407e+03 6.791e-11
 72.74562   -107.6 9.373e+03 6.662e-11
 72.76953   -105.8 9.418e+03 6.558e-11
 72.78975   -105.3 9.422e+03 6.730e-11
 72.81757   -103.4 9.494e+03 6.280e-11
 72.85801   -101.6 9.566e+03 5.898e-11
 72.89751    -99.8 9.637e+03 5.649e-11
 72.91773    -98.4 9.590e+03 5.536e-11
 72.93888    -96.6 9.663e+03 5.371e-11
 72.97932    -94.8 9.700e+03 5.318e-11
 73.01976    -93.0 9.821e+03 5.280e-11
 73.04582    -91.2 9.951e+03 5.404e-11
 73.06604    -90.5 9.942e+03 5.259e-11
 73.08983    -88.7 1.001e+04 5.529e-11
 73.11005    -87.3 9.884e+03 4.875e-11
 73.14107    -85.4 9.966e+03 4.912e-11
 73.18151    -83.5 9.990e+03 5.190e-11
 73.22195    -81.7 9.992e+03 5.760e-11
 73.26193    -79.9 9.987e+03 6.718e-11
 73.28215    -78.3 9.978e+03 4.974e-11
 73.30190    -76.5 9.964e+03 6.051e-11
 73.32211    -75.9 1.004e+04 4.914e-11
 73.34326    -74.2 1.007e+04 6.182e-11
 73.38369    -72.5 1.009e+04 8.774e-11
 73.42413    -70.7 1.019e+04 1.304e-10
 73.45426    -68.8 1.035e+04 1.884e-10
 73.47447    -67.2 1.021e+04 1.529e-10
 73.50501    -65.4 1.041e+04 2.187e-10
 73.54544    -63.6 1.059e+04 2.756e-10
 73.57819    -61.9 1.070e+04 3.057e-10
 73.59841    -61.6 1.060e+04 2.504e-10
 73.62632    -60.0 1.060e+04 2.554e-10
 73.66676    -56.8 1.063e+04 2.647e-10
 73.70719    -55.2 1.063e+04 2.577e-10
 73.74763    -53.7 1.066e+04 2.327e-10
 73.78807    -52.3 1.074e+04 2.094e-10
 73.81868    -51.1 1.086e+04 1.951e-10
 73.83890    -49.3 1.097e+04 3.040e-10
 73.85448    -48.1 1.107e+04 2.930e-10
 73.87470    -48.0 1.094e+04 2.457e-10
 73.90938    -46.8 1.105e+04 2.440e-10
 73.94982    -45.5 1.107e+04 2.422e-10
 73.99025    -44.3 1.104e+04 2.368e-10
 74.01101    -43.1 1.098e+04 2.280e-10
 74.03122    -41.5 1.094e+04 2.586e-10
 74.07113    -40.3 1.085e+04 2.286e-10
 74.11056    -39.0 1.081e+04 1.986e-10
 74.13077    -38.7 1.075e+04 1.828e-10
 74.15200    -37.3 1.073e+04 1.674e-10
 74.18311    -35.8 1.073e+04 1.483e-10
 74.20333    -34.4 1.056e+04 1.292e-10
 74.23288    -32.9 1.062e+04 1.188e-10
 74.27331    -31.7 1.069e+04 1.179e-10
 74.31375    -31.4 1.114e+04 1.291e-10
 74.35419    -31.7 1.160e+04 2.654e-10
 74.37543    -31.3 1.201e+04 6.376e-10
 74.38787    -29.7 1.196e+04 5.979e-10
 74.40707    -29.6 1.210e+04 6.350e-10
 74.43506    -28.6 1.269e+04 1.204e-09
 74.47550    -28.1 1.299e+04 1.480e-09
 74.51594    -28.1 1.285e+04 1.427e-09
 74.54754    -27.5 1.204e+04 8.690e-10
 74.56775    -26.2 1.212e+04 8.792e-10
 74.59681    -25.8 1.142e+04 4.586e-10
 74.63725    -25.5 1.096e+04 2.785e-10
 74.66314    -24.4 1.065e+04 2.092e-10
 74.68336    -23.6 1.073e+04 2.776e-10
 74.71812    -22.2 1.055e+04 2.245e-10
 74.73986    -20.6 1.040e+04 1.810e-10
 74.76008    -19.5 1.040e+04 2.070e-10
 74.79900    -17.8 1.025e+04 1.701e-10
 74.83944    -16.2 1.012e+04 1.369e-10
 74.87987    -14.5 1.001e+04 1.109e-10
 74.91196    -12.8 9.954e+03 9.356e-11
 74.93109    -11.5 9.988e+03 1.134e-10
 74.93943    -11.2 9.968e+03 1.240e-10
 74.96075     -9.7 9.921e+03 1.150e-10
 75.00119     -8.1 9.909e+03 1.130e-10
 75.04162     -6.6 9.926e+03 1.166e-10
 75.08206     -5.1 9.954e+03 1.282e-10
 75.10429     -3.7 1.003e+04 1.463e-10
 75.12450     -2.5 1.003e+04 1.604e-10
 75.16293     -1.2 1.021e+04 1.855e-10
 75.19551     -0.4 1.033e+04 2.287e-10
 75.21573      0.0 1.025e+04 1.910e-10
 75.24381      0.5 1.038e+04 2.463e-10
 75.27639      1.2 1.049e+04 3.405e-10
 75.29661      2.0 1.049e+04 3.446e-10
 75.32468      2.9 1.064e+04 4.491e-10
 75.36512      3.7 1.071e+04 4.799e-10
 75.40556      4.4 1.065e+04 4.346e-10
 75.44600      4.7 1.050e+04 3.090e-10
 75.46871      4.4 1.038e+04 2.420e-10
 75.47430      5.8 1.023e+04 1.975e-10
 75.49202      6.0 1.045e+04 2.593e-10
 75.52687      5.9 1.041e+04 2.569e-10
 75.56731      6.0 1.043e+04 3.444e-10
 75.60774      7.0 1.055e+04 4.617e-10
 75.64082      8.1 1.072e+04 5.033e-10
 75.66103     10.0 1.078e+04 5.461e-10
 75.68862     10.5 1.081e+04 4.987e-10
 75.72787     10.1 1.065e+04 3.713e-10
 75.74809      9.8 1.056e+04 3.539e-10
 75.76949      9.6 1.036e+04 3.284e-10
 75.80993     10.0 1.029e+04 3.399e-10
 75.83314     10.6 1.028e+04 3.454e-10
 75.85336     12.3 1.029e+04 3.509e-10
 75.89081     12.9 1.023e+04 3.189e-10
 75.93124     13.3 1.012e+04 2.738e-10
 75.97168     13.7 9.927e+03 2.483e-10
 76.00417     14.2 9.869e+03 2.516e-10
 76.01751     13.3 1.043e+04 3.116e-10
 76.02546     15.2 1.020e+04 2.927e-10
 76.04235     14.6 1.107e+04 4.223e-10
 76.06247     13.7 1.146e+04 4.683e-10
 76.08269     11.6 1.335e+04 9.238e-10
 76.10121      9.1 1.412e+04 1.762e-09
 76.11132     10.5 1.423e+04 1.630e-09
 76.12312      9.4 1.440e+04 2.876e-09
 76.14212      9.4 1.421e+04 4.212e-09
 76.15223      8.9 1.392e+04 4.484e-09
 76.16356     10.1 1.383e+04 4.499e-09
 76.18378     11.0 1.397e+04 3.399e-09
 76.19737     10.9 1.401e+04 2.019e-09
 76.20748     11.8 1.434e+04 2.610e-09
 76.22422      9.5 1.384e+04 1.463e-09
 76.24444      7.1 1.254e+04 9.161e-10
 76.26465      5.9 1.197e+04 7.912e-10
 76.28026      5.4 1.204e+04 8.053e-10
 76.28892      4.2 1.192e+04 6.568e-10
 76.29353      3.8 1.211e+04 8.286e-10
 76.30509      3.7 1.225e+04 1.088e-09
 76.32531      4.2 1.237e+04 1.458e-09
 76.34553      5.2 1.265e+04 1.909e-09
 76.36575      6.4 1.310e+04 2.337e-09
 76.37958      7.3 1.354e+04 2.613e-09
 76.38969      7.4 1.388e+04 3.065e-09
 76.40619      7.7 1.404e+04 3.038e-09
 76.41841      7.8 1.396e+04 2.904e-09
 76.42852      6.6 1.344e+04 2.033e-09
 76.44662      7.0 1.328e+04 2.037e-09
 76.46564      7.3 1.323e+04 2.064e-09
 76.47574      7.4 1.331e+04 2.092e-09
 76.48706      7.8 1.340e+04 2.081e-09
 76.50728      8.1 1.359e+04 2.120e-09
 76.52750      8.1 1.369e+04 2.177e-09
 76.54645      8.3 1.372e+04 2.308e-09
 76.55656      7.3 1.290e+04 1.543e-09
 76.56180      7.7 1.307e+04 1.658e-09
 76.57191      7.6 1.319e+04 1.718e-09
 76.58815      7.5 1.333e+04 1.851e-09
 76.60837      7.9 1.340e+04 1.964e-09
 76.62859      8.1 1.322e+04 1.947e-09
 76.64785      9.1 1.294e+04 1.903e-09
 76.65796      9.1 1.285e+04 1.830e-09
 76.66903     10.1 1.236e+04 1.502e-09
 76.68459     11.1 1.207e+04 1.188e-09
 76.69470     10.0 1.161e+04 9.251e-10
 76.70946     10.4 1.144e+04 6.826e-10
 76.72968     10.5 1.123e+04 5.295e-10
 76.74401     10.5 1.105e+04 4.573e-10
 76.75412      9.8 1.082e+04 4.399e-10
 76.77012      9.8 1.067e+04 4.214e-10
 76.79034     10.1 1.061e+04 4.152e-10
 76.81056     10.5 1.059e+04 4.295e-10
 76.82274     10.6 1.074e+04 4.674e-10
 76.83214      9.3 1.108e+04 6.147e-10
 76.84017      9.1 1.110e+04 6.196e-10
 76.85100      8.9 1.151e+04 7.464e-10
 76.87121      8.5 1.192e+04 9.465e-10
 76.89143      8.1 1.216e+04 1.232e-09
 76.91165      8.1 1.227e+04 1.580e-09
 76.92622      8.6 1.234e+04 1.904e-09
 76.93633      8.3 1.236e+04 1.940e-09
 76.95078      9.0 1.250e+04 2.244e-09
 76.96089      9.3 1.229e+04 2.049e-09
 76.97231     10.0 1.238e+04 2.014e-09
 76.99253     10.3 1.242e+04 1.855e-09
 77.01228     10.2 1.252e+04 1.685e-09
 77.02238      8.9 1.311e+04 1.921e-09
 77.03296      7.9 1.334e+04 2.061e-09
 77.05318      7.2 1.340e+04 2.384e-09
 77.07340      7.0 1.355e+04 2.867e-09
 77.08892      7.4 1.361e+04 3.390e-09
 77.09903      7.4 1.370e+04 3.746e-09
 77.10844      8.7 1.393e+04 4.441e-09
 77.11855      8.7 1.456e+04 5.834e-09
 77.13406      9.7 1.471e+04 5.536e-09
 77.15427     10.1 1.456e+04 4.643e-09
 77.17449      9.9 1.430e+04 3.847e-09
 77.19449      8.5 1.440e+04 3.391e-09
 77.20460      6.8 1.419e+04 2.764e-09
 77.21493      2.7 1.583e+04 2.660e-09
 77.22707     -6.4 2.017e+04 3.198e-09
 77.23718    -10.1 2.290e+04 8.913e-09
 77.24757    -15.7 2.291e+04 1.191e-08
 77.25258    -16.8 2.233e+04 1.217e-08
 77.26032    -20.4 2.187e+04 1.875e-08
 77.27043    -23.3 2.151e+04 2.604e-08
 77.28054    -25.5 2.177e+04 3.238e-08
 77.29055    -27.7 2.182e+04 3.501e-08
 77.29561    -27.6 2.171e+04 3.497e-08
 77.29605    -29.6 2.139e+04 3.469e-08
 77.30110    -29.9 2.058e+04 2.778e-08
 77.31087    -31.5 1.937e+04 1.935e-08
 77.32098    -32.8 1.820e+04 1.296e-08
 77.33109    -33.9 1.734e+04 9.014e-09
 77.33863    -34.7 1.677e+04 6.558e-09
 77.34369    -34.5 1.677e+04 6.642e-09
 77.35506    -35.5 1.628e+04 5.151e-09
 77.36522    -37.2 1.479e+04 2.042e-09
 77.37668    -41.4 1.238e+04 8.193e-10
 77.39690    -42.2 1.133e+04 5.568e-10
 77.41712    -42.4 1.108e+04 5.409e-10
 77.43734    -42.0 1.101e+04 6.032e-10
 77.45755    -41.2 1.106e+04 6.837e-10
 77.47286    -40.4 1.115e+04 7.531e-10
 77.48297    -40.2 1.103e+04 6.382e-10
 77.49325    -39.5 1.111e+04 6.743e-10
 77.50336    -39.8 1.100e+04 5.836e-10
 77.51821    -39.2 1.107e+04 6.087e-10
 77.53843    -38.7 1.109e+04 6.118e-10
 77.55865    -38.5 1.108e+04 6.009e-10
 77.56902    -38.1 1.103e+04 5.750e-10
 77.57913    -38.1 1.089e+04 5.166e-10
 77.59908    -37.9 1.083e+04 4.905e-10
 77.61930    -37.8 1.080e+04 4.457e-10
 77.63140    -37.8 1.080e+04 4.202e-10
 77.64161    -39.2 1.117e+04 4.949e-10
 77.65527    -39.6 1.127e+04 4.812e-10
 77.67549    -37.3 1.050e+04 3.250e-10
 77.71048    -37.6 1.083e+04 3.577e-10
 77.75092    -37.6 1.147e+04 6.026e-10
 77.79136    -36.8 1.189e+04 9.554e-10
 77.82738    -36.1 1.221e+04 1.219e-09
 77.84759    -33.7 1.217e+04 1.213e-09
 77.87223    -33.3 1.250e+04 1.466e-09
 77.89768    -33.8 1.245e+04 1.433e-09
 77.90769    -34.4 1.226e+04 1.354e-09
 77.92258    -34.3 1.223e+04 1.346e-09
 77.93345    -34.2 1.221e+04 1.351e-09
 77.94356    -33.1 1.244e+04 1.557e-09
 77.96302    -32.9 1.247e+04 1.602e-09
 77.98324    -32.5 1.247e+04 1.604e-09
 78.00346    -32.1 1.238e+04 1.531e-09
 78.01950    -31.6 1.220e+04 1.395e-09
 78.02961    -30.9 1.268e+04 1.872e-09
 78.03573    -30.4 1.249e+04 1.703e-09
 78.04584    -31.0 1.258e+04 1.824e-09
 78.06411    -30.3 1.229e+04 1.555e-09
 78.08433    -29.7 1.199e+04 1.275e-09
 78.10455    -29.1 1.170e+04 1.041e-09
 78.11566    -28.5 1.145e+04 8.567e-10
 78.12577    -28.0 1.202e+04 1.264e-09
 78.14499    -27.6 1.179e+04 1.059e-09
 78.16377    -27.1 1.161e+04 9.120e-10
 78.17388    -27.9 1.160e+04 9.116e-10
 78.18542    -27.3 1.143e+04 8.210e-10
 78.20172    -26.6 1.131e+04 7.730e-10
 78.21183    -26.5 1.183e+04 1.133e-09
 78.22586    -25.8 1.167e+04 1.058e-09
 78.24608    -24.8 1.144e+04 9.852e-10
 78.26630    -23.7 1.123e+04 8.943e-10
 78.28652    -22.7 1.104e+04 7.841e-10
 78.29788    -21.5 1.082e+04 6.509e-10
 78.30316    -21.7 1.107e+04 8.084e-10
 78.31202    -22.1 1.087e+04 6.522e-10
 78.32696    -21.4 1.069e+04 5.713e-10
 78.34717    -19.6 1.039e+04 4.381e-10
 78.36739    -19.1 1.031e+04 4.035e-10
 78.38403    -17.0 1.033e+04 3.497e-10
 78.40434    -17.0 1.025e+04 3.658e-10
 78.43015    -14.7 1.017e+04 3.220e-10
 78.45036    -14.9 9.990e+03 2.743e-10
 78.47879    -12.5 9.900e+03 2.617e-10
 78.51923     -9.9 9.878e+03 2.594e-10
 78.55623     -7.3 9.872e+03 2.584e-10
 78.57645     -6.9 9.903e+03 2.799e-10
 78.60010     -4.3 9.904e+03 2.724e-10
 78.64054     -1.7 9.896e+03 2.547e-10
 78.68098      0.7 9.903e+03 2.398e-10
 78.70644      2.9 9.951e+03 2.390e-10
 78.72666      2.2 9.919e+03 2.441e-10
 78.74855      4.1 1.008e+04 2.827e-10
 78.76877      4.5 1.015e+04 3.191e-10
 78.80229      6.3 1.025e+04 3.710e-10
 78.84273      8.0 1.041e+04 4.251e-10
 78.88316      9.7 1.049e+04 4.553e-10
 78.92066     11.2 1.048e+04 4.417e-10
 78.94087     11.7 1.048e+04 4.498e-10
 78.96251     13.2 1.045e+04 4.415e-10
 78.98273     12.7 1.008e+04 2.955e-10
 79.00447     14.2 1.001e+04 2.692e-10
 79.04491     15.7 9.960e+03 2.546e-10
 79.08535     17.5 1.006e+04 2.630e-10
 79.11298     19.2 9.980e+03 2.284e-10
 79.13320     19.7 1.019e+04 2.834e-10
 79.16622     21.3 1.007e+04 2.363e-10
 79.20666     23.2 1.003e+04 1.815e-10
 79.23881     25.1 9.999e+03 1.386e-10
 79.25902     25.3 9.886e+03 1.094e-10
 79.28508     27.3 9.899e+03 8.949e-11
 79.30530     27.6 9.935e+03 9.614e-11
 79.32797     29.8 9.941e+03 8.073e-11
 79.36841     31.9 1.002e+04 7.128e-11
 79.40885     34.1 1.008e+04 7.114e-11
 79.44928     36.1 1.011e+04 7.614e-11
 79.47741     38.4 1.009e+04 8.152e-11
 79.49762     38.8 1.012e+04 7.918e-11
 79.51510     41.3 1.012e+04 8.015e-11
 79.53532     41.4 1.016e+04 7.671e-11
 79.57060     44.0 1.018e+04 7.142e-11
 79.61103     46.4 1.020e+04 6.388e-11
 79.64951     48.7 1.020e+04 5.783e-11
 79.66973     49.3 1.023e+04 6.026e-11
 79.69191     51.7 1.022e+04 5.478e-11
 79.73235     54.0 1.024e+04 5.088e-11
 79.77117     56.2 1.033e+04 5.005e-11
 79.79139     56.1 1.038e+04 4.388e-11
 79.81322     58.3 1.044e+04 4.466e-11
 79.84183     60.2 1.058e+04 4.846e-11
 79.86205     60.9 1.047e+04 4.275e-11
 79.89409     62.8 1.063e+04 4.839e-11
 79.93453     64.6 1.067e+04 6.010e-11
 79.97497     66.4 1.073e+04 7.339e-11
 80.01394     68.2 1.083e+04 9.212e-11
 80.03415     69.2 1.080e+04 8.067e-11
 80.04746     71.1 1.086e+04 1.029e-10
 80.06768     70.5 1.095e+04 1.336e-10
 80.09628     72.4 1.098e+04 1.683e-10
 80.13672     74.3 1.099e+04 1.968e-10
 80.17716     76.0 1.097e+04 2.148e-10
 80.20626     77.7 1.094e+04 2.177e-10
 80.22648     78.6 1.095e+04 2.413e-10
 80.25803     80.2 1.092e+04 2.433e-10
 80.29847     81.9 1.090e+04 2.352e-10
 80.32376     83.5 1.089e+04 2.180e-10
 80.34398     82.6 1.100e+04 2.249e-10
 80.37836     84.2 1.091e+04 2.016e-10
 80.39858     84.8 1.094e+04 2.271e-10
 80.41978     86.5 1.086e+04 2.172e-10
 80.46022     88.2 1.088e+04 2.185e-10
 80.50065     89.9 1.097e+04 2.322e-10
 80.54109     91.6 1.108e+04 2.707e-10
 80.57069     93.3 1.120e+04 3.284e-10
 80.58921     93.6 1.128e+04 3.573e-10
 80.60005     92.5 1.145e+04 3.873e-10
 80.62197     94.1 1.148e+04 4.248e-10
 80.66240     95.6 1.144e+04 4.308e-10
 80.70284     97.0 1.137e+04 4.213e-10
 80.74279     98.4 1.121e+04 3.932e-10
 80.76301     98.7 1.119e+04 3.895e-10
 80.78371    100.2 1.098e+04 3.663e-10
 80.82415    101.6 1.079e+04 3.520e-10
 80.85612    103.0 1.066e+04 3.438e-10
 80.87634    102.3 1.078e+04 3.503e-10
 80.90503    103.5 1.076e+04 3.619e-10
 80.93511    104.5 1.081e+04 3.917e-10
 80.95533    105.1 1.098e+04 4.879e-10
 80.98590    106.0 1.104e+04 5.339e-10
 81.02634    106.7 1.107e+04 5.551e-10
 81.06678    107.4 1.104e+04 5.406e-10
 81.10721    108.4 1.089e+04 4.808e-10
 81.13242    109.9 1.078e+04 4.210e-10
 81.15264    109.6 1.087e+04 4.399e-10
 81.18809    111.0 1.063e+04 3.046e-10
 81.22852    112.6 1.049e+04 2.114e-10
 81.26896    114.0 1.043e+04 1.499e-10
 81.29954    115.1 1.036e+04 1.138e-10
 81.31976    115.2 1.036e+04 1.117e-10
 81.34984    116.1 1.070e+04 8.770e-11
 81.38849    116.7 1.057e+04 1.239e-10
 81.40871    114.1 1.356e+04 1.013e-09
 81.42050    115.4 1.342e+04 1.062e-09
 81.44062    116.1 1.374e+04 1.395e-09
 81.46084    117.1 1.399e+04 1.732e-09
 81.48106    118.0 1.418e+04 2.104e-09
 81.49167    119.0 1.425e+04 2.315e-09
 81.50178    119.0 1.447e+04 2.503e-09
 81.52150    120.1 1.458e+04 2.789e-09
 81.53655    121.0 1.461e+04 2.909e-09
 81.54666    120.0 1.540e+04 4.673e-09
 81.56194    121.0 1.528e+04 4.468e-09
 81.57772    122.0 1.520e+04 4.264e-09
 81.58783    122.2 1.557e+04 5.123e-09
 81.60237    123.0 1.551e+04 4.912e-09
 81.62259    123.8 1.539e+04 4.696e-09
 81.64281    124.8 1.521e+04 4.513e-09
 81.66303    126.0 1.514e+04 4.462e-09
 81.67388    127.2 1.517e+04 4.531e-09
 81.67544    127.4 1.534e+04 4.925e-09
 81.68481    126.4 1.515e+04 4.778e-09
 81.70347    127.6 1.515e+04 4.663e-09
 81.72369    128.7 1.518e+04 4.660e-09
 81.74390    129.9 1.530e+04 4.729e-09
 81.75993    131.0 1.554e+04 4.925e-09
 81.77004    131.1 1.534e+04 4.246e-09
 81.78434    132.0 1.561e+04 4.341e-09
 81.80273    132.9 1.587e+04 4.449e-09
 81.81284    131.9 1.468e+04 1.994e-09
 81.82478    132.7 1.475e+04 1.939e-09
 81.84500    133.4 1.479e+04 1.879e-09
 81.85609    134.1 1.482e+04 1.842e-09
 81.86620    134.0 1.429e+04 1.237e-09
 81.88543    134.7 1.429e+04 1.254e-09
 81.90565    135.4 1.433e+04 1.299e-09
 81.92587    136.1 1.440e+04 1.380e-09
 81.94088    136.8 1.449e+04 1.483e-09
 81.94704    136.2 1.301e+04 7.760e-10
 81.95225    136.5 1.273e+04 6.445e-10
 81.96631    137.2 1.280e+04 6.976e-10
 81.99673    138.5 1.311e+04 8.835e-10
 82.02706    139.8 1.346e+04 1.095e-09
 82.03831    140.5 1.368e+04 1.280e-09
 82.04851    141.4 1.319e+04 9.475e-10
 82.07771    142.9 1.374e+04 1.346e-09
 82.10794    143.4 1.407e+04 1.743e-09
 82.12436    143.9 1.435e+04 2.235e-09
 82.13447    144.7 1.438e+04 2.077e-09
 82.14828    145.3 1.475e+04 2.737e-09
 82.16850    146.0 1.515e+04 3.461e-09
 82.18871    146.7 1.558e+04 4.231e-09
 82.20706    147.3 1.591e+04 4.858e-09
 82.21717    147.8 1.618e+04 5.779e-09
 82.22052    148.2 1.626e+04 5.834e-09
 82.23063    149.0 1.694e+04 6.879e-09
 82.24937    149.2 1.693e+04 6.841e-09
 82.26959    149.4 1.672e+04 6.377e-09
 82.28981    149.9 1.625e+04 5.303e-09
 82.30657    150.3 1.565e+04 4.013e-09
 82.31668    150.6 1.614e+04 4.387e-09
 82.33024    151.0 1.547e+04 3.225e-09
 82.34521    151.4 1.475e+04 2.353e-09
 82.35532    152.1 1.545e+04 2.844e-09
 82.37068    152.5 1.475e+04 1.954e-09
 82.39090    152.7 1.405e+04 1.538e-09
 82.40273    153.0 1.361e+04 1.349e-09
 82.41284    153.3 1.399e+04 1.411e-09
 82.43134    154.0 1.377e+04 1.299e-09
 82.45156    154.8 1.371e+04 1.261e-09
 82.47178    155.5 1.383e+04 1.281e-09
 82.48336    156.2 1.411e+04 1.352e-09
 82.49026    155.7 1.537e+04 2.168e-09
 82.49889    155.5 1.667e+04 3.266e-09
 82.51221    156.0 1.701e+04 3.941e-09
 82.53243    156.6 1.738e+04 4.953e-09
 82.55265    157.1 1.775e+04 6.388e-09
 82.57287    157.7 1.817e+04 8.413e-09
 82.58495    158.5 1.868e+04 1.115e-08
 82.59506    158.3 1.939e+04 1.313e-08
 82.61139    159.0 1.985e+04 1.598e-08
 82.62150    159.4 2.074e+04 2.472e-08
 82.63352    160.2 2.115e+04 2.870e-08
 82.64864    159.9 2.124e+04 2.973e-08
 82.65870    160.0 2.140e+04 3.171e-08
 82.66881    160.1 2.153e+04 3.344e-08
 82.67595    160.2 2.164e+04 3.459e-08
 82.68101    159.6 2.154e+04 3.172e-08
 82.68542    159.7 2.161e+04 3.220e-08
 82.69048    160.0 2.223e+04 4.469e-08
 82.69914    160.2 2.237e+04 4.579e-08
 82.70925    160.1 2.240e+04 4.452e-08
 82.71898    159.9 2.235e+04 4.170e-08
 82.72404    159.5 2.167e+04 2.995e-08
 82.72947    159.4 2.144e+04 2.679e-08
 82.73957    159.4 2.121e+04 2.309e-08
 82.74949    159.7 2.072e+04 1.624e-08
 82.75455    160.0 2.136e+04 2.778e-08
 82.75979    160.2 2.115e+04 2.363e-08
 82.76706    160.3 2.106e+04 2.070e-08
 82.77722    159.7 1.988e+04 1.116e-08
 82.79527    159.4 1.977e+04 8.868e-09
 82.81549    158.9 1.954e+04 6.916e-09
 82.83571    158.2 1.894e+04 5.419e-09
 82.85321    157.4 1.775e+04 4.561e-09
 82.86332    156.2 1.620e+04 4.200e-09
 82.87615    155.5 1.575e+04 4.390e-09
 82.88769    154.8 1.562e+04 4.411e-09
 82.89780    156.0 1.686e+04 4.417e-09
 82.91659    155.2 1.605e+04 4.341e-09
 82.93680    154.4 1.549e+04 4.163e-09
 82.94937    153.6 1.511e+04 3.709e-09
 82.95948    152.8 1.509e+04 3.743e-09
 82.97724    151.9 1.461e+04 3.114e-09
 82.99746    150.9 1.404e+04 2.505e-09
 83.01572    149.6 1.347e+04 2.071e-09
 83.02583    149.3 1.462e+04 2.864e-09
 83.03542    147.7 1.437e+04 2.753e-09
 83.04553    148.1 1.462e+04 2.778e-09
 83.05812    146.8 1.427e+04 2.381e-09
 83.07833    145.9 1.415e+04 2.048e-09
 83.09855    145.4 1.406e+04 1.702e-09
 83.11877    145.4 1.398e+04 1.377e-09
 83.13159    145.3 1.377e+04 1.010e-09
 83.14170    145.4 1.350e+04 8.153e-10
 83.16942    145.0 1.296e+04 5.169e-10
 83.20995    145.4 1.196e+04 3.218e-10
 83.25039    146.8 1.147e+04 2.468e-10
 83.28210    148.8 1.111e+04 2.093e-10
 83.30232    149.5 1.124e+04 2.252e-10
 83.31399    151.7 1.105e+04 2.097e-10
 83.33421    152.0 1.147e+04 2.398e-10
 83.37170    154.1 1.139e+04 2.293e-10
 83.41214    156.0 1.141e+04 2.318e-10
 83.44237    156.9 1.155e+04 2.466e-10
 83.46249    157.4 1.168e+04 2.608e-10
 83.48271    157.5 1.184e+04 2.915e-10
 83.49601    157.3 1.210e+04 3.607e-10
 83.50612    156.6 1.257e+04 4.771e-10
 83.52314    156.2 1.294e+04 7.049e-10
 83.54336    155.7 1.335e+04 1.069e-09
 83.55820    155.3 1.373e+04 1.556e-09
 83.56831    155.3 1.437e+04 2.489e-09
 83.58206    155.2 1.459e+04 3.090e-09
 83.59217    154.8 1.534e+04 4.333e-09
 83.60402    154.5 1.532e+04 4.385e-09
 83.62424    154.2 1.515e+04 4.134e-09
 83.64446    154.0 1.471e+04 3.405e-09
 83.66467    153.8 1.412e+04 2.484e-09
 83.67823    153.4 1.353e+04 1.700e-09
 83.68834    153.0 1.346e+04 1.541e-09
 83.69635    152.2 1.283e+04 9.974e-10
 83.70646    152.7 1.281e+04 1.000e-09
 83.72533    151.9 1.217e+04 7.783e-10
 83.74555    151.6 1.203e+04 7.674e-10
 83.76428    151.6 1.202e+04 7.751e-10
 83.77439    151.3 1.184e+04 6.894e-10
 83.78599    151.4 1.190e+04 7.459e-10
 83.80621    151.3 1.214e+04 9.098e-10
 83.82438    151.2 1.249e+04 1.186e-09
 83.83449    152.0 1.251e+04 1.168e-09
 83.84664    151.8 1.291e+04 1.547e-09
 83.86044    151.5 1.342e+04 2.039e-09
 83.87055    150.7 1.335e+04 1.994e-09
 83.88708    149.7 1.414e+04 2.788e-09
 83.90730    147.8 1.550e+04 4.204e-09
 83.92752    144.9 1.727e+04 6.800e-09
 83.94649    141.8 1.881e+04 1.113e-08
 83.95660    139.2 1.913e+04 1.297e-08
 83.96253    136.9 1.966e+04 1.632e-08
 83.97264    137.8 1.889e+04 1.189e-08
 83.98817    135.6 1.897e+04 1.186e-08
 84.00839    133.9 1.898e+04 8.919e-09
 84.02861    130.9 1.944e+04 4.536e-09
 84.04265    123.0 1.886e+04 2.988e-09
 84.05276    113.8 1.821e+04 3.070e-09
 84.06905    104.9 1.754e+04 4.279e-09
 84.08927    100.5 1.752e+04 8.067e-09
 84.10068     99.4 1.804e+04 1.271e-08
 84.11079     99.9 1.827e+04 1.515e-08
 84.12870     99.3 1.832e+04 1.516e-08
 84.13881     98.0 1.899e+04 1.697e-08
 84.14992     97.3 1.825e+04 1.202e-08
 84.17014     96.2 1.730e+04 6.728e-09
 84.19036     93.7 1.577e+04 3.178e-09
 84.21058     90.8 1.378e+04 1.603e-09
 84.22487     88.6 1.218e+04 1.038e-09
 84.23289     87.1 1.208e+04 1.044e-09
 84.23882     86.0 1.208e+04 1.089e-09
 84.26122     85.0 1.176e+04 8.855e-10
 84.30176     84.4 1.168e+04 8.208e-10
 84.34219     84.0 1.197e+04 8.934e-10
 84.36696     83.2 1.230e+04 9.839e-10
 84.38718     83.2 1.288e+04 1.215e-09
 84.40718     82.5 1.269e+04 1.214e-09
 84.42740     82.0 1.043e+04 4.920e-10
 84.46351     80.4 1.089e+04 5.430e-10
 84.50394     79.7 1.115e+04 6.093e-10
 84.54438     80.1 1.094e+04 5.568e-10
 84.57938     80.8 1.066e+04 4.517e-10
 84.59960     82.1 1.060e+04 4.500e-10
 84.62313     83.0 1.050e+04 3.947e-10
 84.64335     84.0 1.039e+04 3.714e-10
 84.66569     84.8 1.028e+04 3.061e-10
 84.70613     85.7 1.009e+04 2.445e-10
 84.74657     86.7 9.900e+03 2.121e-10
 84.77170     87.9 9.825e+03 2.080e-10
 84.79192     88.4 1.016e+04 2.767e-10
 84.82744     89.4 1.017e+04 2.804e-10
 84.86788     90.4 1.025e+04 2.994e-10
 84.89942     91.2 1.059e+04 3.763e-10
 84.91964     91.3 1.061e+04 3.787e-10
 84.93855     91.0 1.095e+04 4.834e-10
 84.95372     90.8 1.128e+04 6.033e-10
 84.96383     90.4 1.142e+04 6.335e-10
 84.97889     89.9 1.174e+04 7.535e-10
 84.99910     89.2 1.201e+04 8.851e-10
 85.01932     88.4 1.221e+04 9.923e-10
 85.03737     87.5 1.224e+04 1.011e-09
 85.04748     87.2 1.227e+04 1.008e-09
 85.04988     86.0 1.215e+04 9.015e-10
 85.05999     85.3 1.203e+04 8.100e-10
 85.07998     84.8 1.192e+04 7.443e-10
 85.11040     84.6 1.169e+04 6.296e-10
 85.13613     83.3 1.135e+04 4.676e-10
 85.15635     81.9 1.110e+04 3.785e-10
 85.17571     80.3 1.113e+04 3.671e-10
 85.19593     79.5 1.093e+04 3.172e-10
 85.23181     77.9 1.104e+04 3.359e-10
 85.27225     75.9 1.114e+04 3.907e-10
 85.30248     73.9 1.116e+04 4.079e-10
 85.31366     72.6 1.105e+04 4.158e-10
 85.31932     72.6 1.102e+04 3.831e-10
 85.32835     72.7 1.080e+04 3.261e-10
 85.35313     70.1 1.070e+04 3.601e-10
 85.39356     67.6 1.055e+04 3.486e-10
 85.43179     65.2 1.018e+04 2.920e-10
 85.45201     64.7 1.015e+04 2.879e-10
 85.47444     62.7 9.769e+03 1.929e-10
 85.50055     60.7 9.421e+03 1.161e-10
 85.52077     60.2 9.414e+03 1.150e-10
 85.55531     58.3 9.079e+03 9.504e-11
 85.59575     57.2 9.044e+03 9.593e-11
 85.63619     56.4 9.077e+03 1.042e-10
 85.67266     55.1 9.285e+03 1.407e-10
 85.69288     54.8 9.480e+03 1.736e-10
 85.70808     53.1 1.007e+04 3.193e-10
 85.72830     53.2 1.034e+04 3.937e-10
 85.75750     51.9 1.086e+04 6.278e-10
 85.79794     50.3 1.089e+04 6.055e-10
 85.83837     47.6 1.075e+04 4.705e-10
 85.86498     44.1 1.068e+04 4.476e-10
 85.88520     43.2 1.092e+04 5.549e-10
 85.91925     40.2 1.116e+04 7.370e-10
 85.95968     38.7 1.131e+04 8.714e-10
 85.98437     37.5 1.124e+04 7.996e-10
 86.00459     36.5 1.129e+04 7.852e-10
 86.03709     34.9 1.107e+04 6.275e-10
 86.05730     34.1 1.090e+04 4.724e-10
 86.08100     32.7 1.059e+04 4.408e-10
 86.12143     32.5 1.040e+04 4.560e-10
 86.16187     33.2 1.013e+04 4.255e-10
 86.20231     34.5 9.809e+03 3.339e-10
 86.22941     35.9 9.557e+03 2.377e-10
 86.24733     35.7 9.551e+03 2.343e-10
 86.26067     35.2 9.517e+03 2.005e-10
 86.28318     36.4 9.317e+03 1.547e-10
 86.32362     38.1 9.298e+03 1.531e-10
 86.36406     39.8 9.402e+03 1.687e-10
 86.40151     41.3 9.669e+03 2.262e-10
 86.42173     41.1 9.681e+03 2.288e-10
 86.44493     42.8 1.011e+04 3.650e-10
 86.48537     44.6 1.062e+04 5.680e-10
 86.51674     46.4 1.108e+04 7.494e-10
 86.53696     46.3 1.111e+04 7.669e-10
 86.56624     47.7 1.130e+04 7.877e-10
 86.59383     49.1 1.130e+04 7.488e-10
 86.61405     48.9 1.116e+04 6.132e-10
 86.64712     50.2 1.109e+04 5.249e-10
 86.68756     51.8 1.101e+04 4.881e-10
 86.72799     53.9 1.108e+04 5.030e-10
 86.76594     55.9 1.128e+04 5.689e-10
 86.78616     55.5 1.126e+04 4.772e-10
 86.79294     56.1 1.154e+04 6.016e-10
 86.80295     55.3 1.156e+04 6.205e-10
 86.81878     56.0 1.175e+04 7.342e-10
 86.83900     56.8 1.197e+04 8.728e-10
 86.85922     57.4 1.224e+04 1.029e-09
 86.87201     58.0 1.253e+04 1.195e-09
 86.88212     57.1 1.248e+04 1.187e-09
 86.89966     57.5 1.272e+04 1.369e-09
 86.91987     57.9 1.286e+04 1.474e-09
 86.93098     58.3 1.290e+04 1.469e-09
 86.94109     57.2 1.253e+04 1.259e-09
 86.95807     57.5 1.239e+04 1.171e-09
 86.96818     56.9 1.225e+04 1.128e-09
 86.98053     57.2 1.196e+04 9.444e-10
 87.00075     57.2 1.167e+04 7.562e-10
 87.02097     57.0 1.139e+04 5.958e-10
 87.04119     56.6 1.116e+04 4.814e-10
 87.05423     56.2 1.089e+04 4.182e-10
 87.06195     54.9 1.070e+04 3.668e-10
 87.06913     54.0 1.064e+04 3.440e-10
 87.08162     54.2 1.053e+04 3.434e-10
 87.10184     54.4 1.050e+04 3.492e-10
 87.12206     54.7 1.045e+04 3.683e-10
 87.14028     54.9 1.042e+04 3.878e-10
 87.15049     53.6 1.047e+04 3.631e-10
 87.16260     54.2 1.042e+04 4.073e-10
 87.18272     54.5 1.043e+04 4.386e-10
 87.19717     54.8 1.039e+04 4.578e-10
 87.20728     54.0 1.032e+04 4.123e-10
 87.22315     54.1 1.031e+04 4.131e-10
 87.23644     54.4 1.024e+04 4.040e-10
 87.24655     54.0 1.026e+04 4.042e-10
 87.26359     54.1 1.024e+04 3.964e-10
 87.28381     54.4 1.024e+04 3.987e-10
 87.30403     54.2 1.038e+04 4.187e-10
 87.32249     53.6 1.069e+04 4.809e-10
 87.33260     52.1 1.086e+04 5.235e-10
 87.33531     51.1 1.117e+04 6.919e-10
 87.34542     51.0 1.103e+04 6.672e-10
 87.36468     50.5 1.124e+04 8.575e-10
 87.38490     50.5 1.149e+04 1.084e-09
 87.40512     50.6 1.152e+04 1.091e-09
 87.41865     50.5 1.146e+04 1.026e-09
 87.42876     49.6 1.114e+04 8.356e-10
 87.45577     50.8 1.093e+04 7.417e-10
 87.49479     51.3 1.003e+04 3.877e-10
 87.51501     49.1 9.122e+03 2.206e-10
 87.53674     49.0 8.405e+03 1.177e-10
 87.57718     49.6 8.140e+03 9.523e-11
 87.60169     51.1 8.097e+03 9.472e-11
 87.62191     52.2 7.995e+03 8.053e-11
 87.65805     54.2 8.001e+03 8.191e-11
 87.68711     56.3 8.039e+03 8.759e-11
 87.70733     55.8 8.098e+03 8.806e-11
 87.73892     57.7 8.128e+03 9.692e-11
 87.77936     59.6 8.170e+03 1.075e-10
 87.81980     61.5 8.226e+03 1.166e-10
 87.85777     63.3 8.281e+03 1.199e-10
 87.87697     64.4 8.248e+03 1.166e-10
 87.87944     63.8 8.249e+03 1.007e-10
 87.90067     65.4 8.304e+03 1.014e-10
 87.94111     66.9 8.344e+03 1.017e-10
 87.98155     68.2 8.391e+03 1.035e-10
 88.02199     69.4 8.452e+03 1.096e-10
 88.05154     70.4 8.536e+03 1.202e-10
 88.07176     69.8 8.552e+03 1.103e-10
 88.10286     70.7 8.631e+03 1.097e-10
 88.13406     71.5 8.679e+03 1.035e-10
 88.15428     72.2 8.702e+03 1.015e-10
 88.18373     72.7 8.742e+03 8.712e-11
 88.22365     73.1 8.763e+03 8.087e-11
 88.24386     72.4 8.759e+03 7.808e-11
 88.26461     72.7 8.827e+03 8.462e-11
 88.30505     72.9 9.033e+03 1.105e-10
 88.34548     73.1 9.376e+03 1.658e-10
 88.38592     73.3 9.802e+03 2.370e-10
 88.41035     73.1 1.026e+04 2.673e-10
 88.42018     73.8 1.011e+04 2.493e-10
 88.43619     73.0 1.023e+04 2.332e-10
 88.46680     72.5 1.044e+04 2.153e-10
 88.50723     71.1 1.067e+04 1.802e-10
 88.54767     68.9 1.074e+04 1.796e-10
 88.58807     66.0 1.083e+04 2.226e-10
 88.62851     63.8 1.067e+04 2.784e-10
 88.66643     62.4 1.075e+04 3.776e-10
 88.68664     62.3 1.073e+04 3.604e-10
 88.70942     61.6 1.053e+04 3.378e-10
 88.74986     61.7 1.023e+04 2.614e-10
 88.78039     61.7 9.966e+03 1.742e-10
 88.80061     62.0 9.944e+03 1.967e-10
 88.83073     62.1 9.774e+03 1.451e-10
 88.87117     62.4 9.675e+03 1.265e-10
 88.91161     63.1 9.654e+03 1.252e-10
 88.94272     64.2 9.664e+03 1.261e-10
 88.96294     64.9 9.660e+03 1.220e-10
 88.97272     66.0 9.713e+03 1.280e-10
 88.99294     66.0 9.772e+03 1.503e-10
 89.03292     66.9 9.798e+03 1.443e-10
 89.07335     67.7 9.836e+03 1.304e-10
 89.11379     68.5 9.895e+03 1.229e-10
 89.14482     69.2 9.936e+03 1.259e-10
 89.16504     68.6 9.850e+03 1.196e-10
 89.19467     69.1 1.003e+04 1.440e-10
 89.21901     69.1 1.047e+04 2.317e-10
 89.23923     69.6 1.053e+04 2.702e-10
 89.27554     69.7 1.118e+04 4.901e-10
 89.31598     69.5 1.204e+04 8.812e-10
 89.33705     69.0 1.232e+04 1.056e-09
 89.35726     68.4 1.235e+04 1.072e-09
 89.38665     67.6 1.303e+04 1.366e-09
 89.40677     66.8 1.367e+04 1.696e-09
 89.42300     65.8 1.425e+04 2.141e-09
 89.43311     66.0 1.347e+04 1.457e-09
 89.44720     65.5 1.385e+04 1.658e-09
 89.46742     65.3 1.412e+04 1.886e-09
 89.48500     65.2 1.426e+04 2.047e-09
 89.49511     66.2 1.499e+04 3.389e-09
 89.50786     66.3 1.507e+04 3.371e-09
 89.51916     65.9 1.533e+04 3.509e-09
 89.52927     65.2 1.460e+04 2.176e-09
 89.54830     62.9 1.539e+04 2.771e-09
 89.56852     59.7 1.686e+04 4.645e-09
 89.58873     56.6 1.788e+04 7.415e-09
 89.60521     52.6 1.918e+04 7.852e-09
 89.61532     55.0 1.753e+04 5.655e-09
 89.62315     50.1 1.994e+04 4.920e-09
 89.62815     48.2 2.416e+04 9.578e-09
 89.63413     43.7 2.653e+04 9.111e-09
 89.64424     39.5 2.925e+04 9.301e-09
 89.65320     35.3 2.954e+04 1.173e-08
 89.65825     38.0 2.931e+04 9.528e-09
 89.66446     34.2 2.784e+04 1.365e-08
 89.67457     31.0 2.536e+04 2.029e-08
 89.68468     28.0 2.357e+04 2.420e-08
 89.69212     25.6 2.221e+04 2.683e-08
 89.69718     24.7 2.375e+04 3.277e-08
 89.70128     22.4 2.279e+04 2.803e-08
 89.70633     24.8 2.330e+04 3.381e-08
 89.71500     21.4 2.411e+04 3.037e-08
 89.72511     17.0 2.561e+04 2.528e-08
 89.73522     12.5 2.625e+04 1.591e-08
 89.74430      6.3 2.216e+04 9.607e-09
 89.74936      8.9 2.455e+04 1.232e-08
 89.75544      1.5 1.792e+04 6.719e-09
 89.76119     -4.1 1.491e+04 3.693e-09
 89.76625     -4.4 1.482e+04 3.609e-09
 89.77566     -4.8 1.495e+04 3.428e-09
 89.78738     -9.6 1.579e+04 1.862e-09
 89.79754    -11.4 1.671e+04 1.859e-09
 89.81114    -20.9 1.342e+04 9.106e-10
 89.83136    -24.8 1.167e+04 6.179e-10
 89.85158    -24.3 1.097e+04 6.420e-10
 89.87180    -23.3 1.095e+04 4.777e-10
 89.88359    -23.4 1.091e+04 3.354e-10
 89.89101    -24.4 1.096e+04 3.460e-10
 89.89944    -24.8 1.095e+04 3.136e-10
 89.92244    -25.2 1.064e+04 2.657e-10
 89.96297    -24.3 1.050e+04 2.531e-10
 90.00341    -22.6 1.050e+04 2.697e-10
 90.02767    -20.9 1.056e+04 3.248e-10
 90.04789    -20.5 1.037e+04 2.642e-10
 90.06600    -18.6 1.052e+04 3.059e-10
 90.08622    -18.8 1.034e+04 2.517e-10
 90.11452    -17.5 1.049e+04 2.674e-10
 90.13464    -17.4 1.044e+04 2.699e-10
 90.15185    -16.7 1.055e+04 3.013e-10
 90.16196    -17.3 1.051e+04 2.581e-10
 90.16562    -18.8 1.174e+04 3.048e-10
 90.17573    -18.2 1.148e+04 2.636e-10
 90.19529    -29.0 1.747e+04 7.322e-10
 90.21551    -36.4 1.782e+04 3.552e-09
 90.22959    -37.5 1.756e+04 8.420e-09
 90.23460    -37.4 1.746e+04 8.399e-09
 90.24069    -37.8 1.762e+04 1.006e-08
 90.24797    -37.1 1.816e+04 1.316e-08
 90.25812    -36.8 1.753e+04 1.119e-08
 90.27617    -36.5 1.787e+04 9.128e-09
 90.29366    -37.9 1.764e+04 2.165e-09
 90.30377    -37.0 1.776e+04 2.543e-09
 90.31661    -52.0 1.283e+04 3.880e-10
 90.33407    -56.5 1.019e+04 2.374e-10
 90.34418    -56.1 1.017e+04 2.382e-10
 90.35704    -56.2 1.009e+04 2.309e-10
 90.37726    -56.2 1.007e+04 2.304e-10
 90.40769    -55.9 1.001e+04 2.330e-10
 90.43042    -54.7 1.004e+04 2.466e-10
 90.45064    -54.6 1.012e+04 2.810e-10
 90.48866    -53.7 1.035e+04 3.269e-10
 90.52910    -52.9 1.055e+04 3.758e-10
 90.55933    -52.5 1.072e+04 4.676e-10
 90.56995    -52.2 1.079e+04 5.294e-10
 90.58006    -52.3 1.081e+04 5.390e-10
 90.59967    -51.7 1.090e+04 6.133e-10
 90.61244    -51.1 1.100e+04 6.601e-10
 90.62255    -51.4 1.121e+04 7.543e-10
 90.64010    -51.0 1.124e+04 7.501e-10
 90.66032    -50.9 1.121e+04 7.064e-10
 90.68054    -50.9 1.114e+04 6.599e-10
 90.69799    -51.0 1.105e+04 6.192e-10
 90.70583    -51.4 1.189e+04 8.550e-10
 90.70860    -52.0 1.188e+04 8.831e-10
 90.72098    -52.0 1.180e+04 8.557e-10
 90.74120    -51.9 1.165e+04 8.106e-10
 90.76142    -51.8 1.144e+04 7.394e-10
 90.78163    -51.7 1.123e+04 6.533e-10
 90.79466    -51.6 1.108e+04 5.690e-10
 90.81497    -52.7 1.105e+04 5.247e-10
 90.83633    -52.3 1.098e+04 4.836e-10
 90.85655    -53.1 1.232e+04 9.390e-10
 90.89303    -52.9 1.248e+04 9.995e-10
 90.93347    -52.7 1.269e+04 1.264e-09
 90.96695    -52.0 1.282e+04 1.516e-09
 90.98708    -52.3 1.323e+04 1.991e-09
 91.01425    -51.8 1.285e+04 1.647e-09
 91.05478    -51.2 1.239e+04 1.344e-09
 91.09240    -50.7 1.199e+04 1.131e-09
 91.11262    -51.6 1.208e+04 1.204e-09
 91.13566    -50.8 1.198e+04 1.157e-09
 91.15928    -49.8 1.212e+04 1.304e-09
 91.17950    -50.0 1.199e+04 1.221e-09
 91.20632    -48.6 1.221e+04 1.504e-09
 91.22644    -48.2 1.214e+04 1.496e-09
 91.24046    -47.1 1.207e+04 1.486e-09
 91.24905    -46.8 1.163e+04 1.155e-09
 91.25524    -47.0 1.143e+04 1.040e-09
 91.26688    -46.4 1.133e+04 9.799e-10
 91.28710    -46.1 1.131e+04 9.368e-10
 91.30732    -46.0 1.134e+04 9.245e-10
 91.32754    -45.9 1.143e+04 9.374e-10
 91.34130    -45.7 1.151e+04 9.703e-10
 91.35150    -46.8 1.172e+04 1.121e-09
 91.36870    -46.1 1.172e+04 1.106e-09
 91.38892    -43.8 1.150e+04 9.356e-10
 91.41872    -42.9 1.171e+04 1.040e-09
 91.45915    -42.4 1.199e+04 1.064e-09
 91.49959    -42.3 1.212e+04 9.158e-10
 91.52370    -42.1 1.213e+04 7.536e-10
 91.53372    -42.2 1.209e+04 8.408e-10
 91.54994    -42.4 1.209e+04 8.113e-10
 91.57016    -43.7 1.163e+04 7.277e-10
 91.59038    -44.2 1.145e+04 7.218e-10
 91.60956    -44.9 1.105e+04 7.134e-10
 91.61967    -45.0 1.108e+04 7.537e-10
 91.63082    -45.0 1.096e+04 7.358e-10
 91.64479    -45.0 1.079e+04 6.519e-10
 91.65490    -43.9 1.095e+04 6.818e-10
 91.67125    -44.0 1.076e+04 5.814e-10
 91.69147    -44.3 1.061e+04 5.067e-10
 91.70572    -44.6 1.049e+04 4.393e-10
 91.71593    -44.4 1.044e+04 4.247e-10
 91.74221    -44.9 1.013e+04 3.340e-10
 91.78265    -44.7 9.985e+03 3.092e-10
 91.82309    -44.0 1.007e+04 3.201e-10
 91.86353    -44.0 1.061e+04 4.852e-10
 91.88813    -44.0 1.152e+04 9.004e-10
 91.90545    -43.6 1.161e+04 9.365e-10
 91.92128    -41.9 1.093e+04 6.172e-10
 91.94440    -41.9 1.203e+04 1.133e-09
 91.97409    -42.4 1.290e+04 1.794e-09
 91.98410    -42.5 1.301e+04 1.966e-09
 91.99475    -42.6 1.329e+04 2.408e-09
 92.01497    -42.3 1.344e+04 2.606e-09
 92.03519    -41.9 1.339e+04 2.463e-09
 92.04912    -41.6 1.322e+04 1.938e-09
 92.05923    -41.0 1.330e+04 2.228e-09
 92.07015    -41.0 1.312e+04 1.698e-09
 92.08026    -40.5 1.337e+04 2.088e-09
 92.09584    -41.4 1.309e+04 1.420e-09
 92.11606    -42.1 1.268e+04 1.055e-09
 92.14649    -43.4 1.200e+04 7.311e-10
 92.17736    -44.5 1.156e+04 6.395e-10
 92.19757    -44.2 1.244e+04 1.050e-09
 92.22746    -46.0 1.265e+04 1.269e-09
 92.25246    -46.9 1.340e+04 2.025e-09
 92.26247    -47.7 1.368e+04 2.647e-09
 92.27781    -47.7 1.410e+04 3.509e-09
 92.29803    -47.0 1.426e+04 4.251e-09
 92.31531    -46.0 1.424e+04 4.365e-09
 92.32542    -45.7 1.360e+04 2.983e-09
 92.33841    -44.6 1.338e+04 2.457e-09
 92.35863    -44.2 1.313e+04 1.226e-09
 92.37891    -44.6 1.289e+04 7.803e-10
 92.39912    -45.5 1.249e+04 5.085e-10
 92.41934    -46.6 1.195e+04 3.847e-10
 92.43458    -47.4 1.148e+04 3.505e-10
 92.44468    -48.2 1.107e+04 3.175e-10
 92.45345    -48.1 1.103e+04 3.534e-10
 92.46356    -48.4 1.109e+04 3.478e-10
 92.48000    -48.1 1.113e+04 3.944e-10
 92.50022    -48.0 1.129e+04 4.483e-10
 92.52044    -48.3 1.183e+04 5.406e-10
 92.53074    -49.4 1.264e+04 7.594e-10
 92.54085    -48.8 1.223e+04 6.843e-10
 92.56087    -50.1 1.289e+04 9.880e-10
 92.58109    -51.1 1.319e+04 1.462e-09
 92.59160    -51.4 1.321e+04 1.961e-09
 92.60171    -51.0 1.292e+04 1.483e-09
 92.61679    -51.1 1.285e+04 1.810e-09
 92.62690    -50.8 1.275e+04 1.664e-09
 92.64175    -50.7 1.273e+04 1.809e-09
 92.66197    -50.6 1.247e+04 1.817e-09
 92.68219    -50.5 1.211e+04 1.373e-09
 92.70240    -50.8 1.163e+04 9.345e-10
 92.71295    -51.0 1.115e+04 6.378e-10
 92.72007    -50.6 1.124e+04 7.448e-10
 92.72975    -50.0 1.127e+04 7.845e-10
 92.74284    -49.9 1.087e+04 5.510e-10
 92.76306    -49.7 1.055e+04 4.007e-10
 92.78899    -49.5 1.026e+04 3.057e-10
 92.80931    -48.7 1.029e+04 3.195e-10
 92.83402    -48.3 9.895e+03 2.292e-10
 92.87446    -46.8 9.467e+03 1.660e-10
 92.91489    -45.2 9.343e+03 1.486e-10
 92.95533    -43.5 9.341e+03 1.475e-10
 92.98141    -42.0 9.448e+03 1.746e-10
 92.99188    -41.5 9.484e+03 1.795e-10
 93.00623    -41.2 9.502e+03 1.731e-10
 93.03621    -40.0 9.703e+03 2.645e-10
 93.07664    -38.5 1.002e+04 3.927e-10
 93.11708    -37.0 1.038e+04 5.186e-10
 93.15351    -35.8 1.056e+04 5.693e-10
 93.17373    -35.3 1.075e+04 6.955e-10
 93.19796    -34.4 1.071e+04 6.707e-10
 93.23839    -33.2 1.034e+04 4.808e-10
 93.26231    -32.2 9.920e+03 2.983e-10
 93.28253    -31.9 9.913e+03 2.897e-10
 93.31927    -30.9 9.520e+03 1.658e-10
 93.34584    -29.6 9.287e+03 1.229e-10
 93.36606    -29.3 9.305e+03 1.316e-10
 93.40014    -27.7 9.141e+03 1.088e-10
 93.44058    -25.8 9.102e+03 1.028e-10
 93.48102    -24.1 9.211e+03 1.047e-10
 93.51794    -23.1 9.693e+03 1.428e-10
 93.53509    -23.1 9.549e+03 1.443e-10
 93.53860    -22.7 9.286e+03 1.078e-10
 93.56189    -21.6 9.566e+03 1.544e-10
 93.60233    -20.6 9.934e+03 2.570e-10
 93.64277    -19.3 1.039e+04 4.337e-10
 93.68320    -18.4 1.120e+04 7.721e-10
 93.71026    -17.4 1.200e+04 1.120e-09
 93.73048    -18.1 1.126e+04 6.497e-10
 93.76408    -18.3 1.171e+04 8.463e-10
 93.79467    -18.4 1.217e+04 1.118e-09
 93.80660    -19.0 1.264e+04 1.571e-09
 93.81634    -19.0 1.255e+04 1.481e-09
 93.83465    -19.0 1.269e+04 1.552e-09
 93.85487    -19.0 1.284e+04 1.623e-09
 93.87508    -19.1 1.289e+04 1.579e-09
 93.89228    -19.4 1.311e+04 1.671e-09
 93.90249    -19.7 1.286e+04 1.387e-09
 93.91562    -20.3 1.300e+04 1.484e-09
 93.93263    -20.9 1.321e+04 1.711e-09
 93.94274    -21.6 1.321e+04 1.711e-09
 93.95596    -22.3 1.348e+04 2.098e-09
 93.97618    -22.3 1.371e+04 2.554e-09
 93.98844    -21.6 1.387e+04 2.933e-09
 93.99855    -21.1 1.345e+04 2.264e-09
 94.01662    -20.5 1.345e+04 2.311e-09
 94.03683    -19.6 1.316e+04 2.095e-09
 94.05705    -18.6 1.273e+04 1.578e-09
 94.07077    -18.0 1.232e+04 1.120e-09
 94.07811    -18.9 1.214e+04 1.061e-09
 94.08460    -18.8 1.202e+04 1.028e-09
 94.09749    -18.0 1.180e+04 8.282e-10
 94.11771    -17.3 1.165e+04 6.416e-10
 94.13793    -16.6 1.148e+04 5.209e-10
 94.15815    -15.8 1.128e+04 4.394e-10
 94.17066    -15.0 1.110e+04 4.068e-10
 94.18077    -14.8 1.116e+04 4.529e-10
 94.19858    -13.9 1.112e+04 4.476e-10
 94.20892    -13.0 1.122e+04 4.724e-10
 94.21903    -13.2 1.111e+04 4.491e-10
 94.23902    -12.5 1.139e+04 4.926e-10
 94.25671    -12.1 1.157e+04 6.125e-10
 94.26682    -12.0 1.138e+04 5.802e-10
 94.27946    -11.2 1.150e+04 7.336e-10
 94.29968    -10.2 1.170e+04 8.905e-10
 94.31989     -9.1 1.192e+04 1.068e-09
 94.33696     -8.3 1.227e+04 1.238e-09
 94.34707     -9.0 1.222e+04 1.217e-09
 94.35287     -9.6 1.307e+04 1.418e-09
 94.36298     -8.8 1.185e+04 8.692e-10
 94.38055     -9.1 1.283e+04 9.221e-10
 94.40077    -10.9 1.498e+04 1.244e-09
 94.42099    -13.2 1.623e+04 2.342e-09
 94.43610    -14.1 1.625e+04 2.979e-09
 94.44388    -15.0 1.698e+04 3.569e-09
 94.44893    -14.5 1.643e+04 1.967e-09
 94.45627    -17.7 1.984e+04 4.518e-09
 94.46638    -22.0 2.336e+04 9.955e-09
 94.47500    -24.8 2.394e+04 2.658e-08
 94.48006    -21.0 2.373e+04 1.374e-08
 94.48660    -24.3 2.407e+04 3.040e-08
 94.49196    -25.2 2.328e+04 6.740e-08
 94.49701    -25.4 2.341e+04 5.701e-08
 94.50682    -25.5 2.261e+04 1.147e-07
 94.51693    -24.8 2.249e+04 1.740e-07
 94.52704    -25.6 2.285e+04 1.680e-07
 94.53499    -26.6 2.366e+04 1.055e-07
 94.54004    -26.6 2.347e+04 1.206e-07
 94.54408    -28.9 2.529e+04 4.303e-08
 94.54913    -26.3 2.436e+04 1.124e-07
 94.55737    -29.1 2.806e+04 3.464e-08
 94.56748    -35.1 3.178e+04 6.931e-09
 94.57758    -38.3 2.361e+04 7.506e-09
 94.58307    -43.3 2.180e+04 5.498e-09
 94.58812    -44.6 2.079e+04 5.815e-09
 94.60291    -55.1 1.595e+04 3.143e-09
 94.61325    -58.1 1.565e+04 2.348e-09
 94.61825    -57.5 2.367e+04 5.468e-09
 94.62609    -59.0 2.338e+04 5.205e-09
 94.63120    -60.2 2.118e+04 8.729e-09
 94.64339    -59.7 2.104e+04 5.803e-09
 94.66361    -59.3 1.972e+04 3.439e-09
 94.68383    -59.1 1.717e+04 2.044e-09
 94.70405    -58.7 1.425e+04 1.590e-09
 94.71730    -57.6 1.292e+04 1.432e-09
 94.72741    -57.1 1.255e+04 1.253e-09
 94.74129    -55.5 1.244e+04 1.164e-09
 94.75139    -56.1 1.252e+04 1.156e-09
 94.76470    -54.3 1.236e+04 1.079e-09
 94.78492    -52.5 1.225e+04 1.015e-09
 94.80335    -51.0 1.224e+04 9.782e-10
 94.82367    -49.3 1.167e+04 7.071e-10
 94.85588    -46.2 1.134e+04 6.138e-10
 94.87953    -43.8 1.130e+04 6.117e-10
 94.89975    -43.4 1.132e+04 5.982e-10
 94.93676    -40.4 1.109e+04 5.464e-10
 94.97565    -37.5 1.099e+04 5.093e-10
 94.99587    -36.4 1.050e+04 3.167e-10
 95.01763    -33.7 1.048e+04 3.271e-10
 95.05807    -31.1 1.052e+04 3.532e-10
 95.09851    -28.4 1.063e+04 3.926e-10
 95.13570    -25.8 1.083e+04 4.511e-10
 95.15592    -25.7 1.129e+04 7.121e-10
 95.16797    -23.4 1.165e+04 9.090e-10
 95.18819    -22.3 1.109e+04 6.296e-10
 95.21982    -20.3 1.154e+04 8.637e-10
 95.26026    -18.7 1.215e+04 1.301e-09
 95.28386    -17.5 1.249e+04 1.641e-09
 95.29387    -17.2 1.259e+04 1.778e-09
 95.31061    -16.5 1.295e+04 2.174e-09
 95.33083    -15.6 1.335e+04 2.756e-09
 95.34999    -14.7 1.353e+04 3.089e-09
 95.36010    -14.2 1.305e+04 2.414e-09
 95.37126    -13.0 1.312e+04 2.504e-09
 95.39148    -12.4 1.304e+04 2.408e-09
 95.41190    -11.4 1.269e+04 1.904e-09
 95.43221    -11.0 1.211e+04 1.422e-09
 95.46244     -9.8 1.137e+04 9.169e-10
 95.50288     -8.1 1.063e+04 5.551e-10
 95.53240     -6.5 1.021e+04 3.798e-10
 95.55262     -5.4 1.027e+04 4.083e-10
 95.58375     -3.8 1.000e+04 3.451e-10
 95.62419     -1.6 9.897e+03 3.208e-10
 95.66463      0.5 9.902e+03 3.087e-10
 95.68829      2.3 1.005e+04 3.109e-10
 95.70794      3.6 9.891e+03 2.933e-10
 95.72472      4.8 9.721e+03 2.384e-10
 95.74550      6.3 9.889e+03 2.278e-10
 95.78594      7.7 9.856e+03 2.558e-10
 95.82638      9.7 9.736e+03 2.872e-10
 95.86682     11.8 9.702e+03 2.571e-10
 95.89682     13.6 9.671e+03 1.977e-10
 95.91704     14.2 9.524e+03 1.546e-10
 95.94436     15.8 9.428e+03 1.444e-10
 95.96458     16.7 9.525e+03 1.973e-10
 95.98813     18.5 9.440e+03 1.754e-10
 96.02856     20.3 9.411e+03 1.536e-10
 96.06893     22.0 9.354e+03 1.421e-10
 96.10937     25.3 9.289e+03 1.337e-10
 96.14988     27.5 9.173e+03 1.139e-10
 96.19031     29.8 9.126e+03 9.348e-11
 96.22065     31.7 9.141e+03 7.653e-11
 96.24087     32.3 9.097e+03 7.162e-11
 96.26125     34.2 9.096e+03 7.015e-11
 96.28147     35.6 9.065e+03 7.322e-11
 96.31163     37.7 9.061e+03 7.532e-11
 96.35206     40.0 9.048e+03 8.088e-11
 96.39250     42.3 9.059e+03 8.244e-11
 96.43294     44.8 9.051e+03 8.178e-11
 96.45357     47.5 9.047e+03 7.377e-11
 96.47379     49.0 9.037e+03 7.181e-11
 96.49695     51.5 9.057e+03 6.220e-11
 96.51716     52.0 8.993e+03 5.676e-11
 96.55425     54.4 9.027e+03 5.105e-11
 96.59469     56.7 9.038e+03 4.749e-11
 96.62568     59.1 9.028e+03 4.684e-11
 96.64590     60.6 9.043e+03 5.027e-11
 96.67556     63.0 9.060e+03 5.131e-11
 96.71600     65.5 9.066e+03 5.415e-11
 96.75302     67.9 9.085e+03 5.896e-11
 96.77324     68.5 9.074e+03 5.740e-11
 96.79687     70.9 9.115e+03 6.351e-11
 96.81800     73.4 9.171e+03 7.163e-11
 96.83822     74.8 9.200e+03 8.114e-11
 96.87775     77.3 9.254e+03 9.340e-11
 96.91818     79.8 9.289e+03 9.821e-11
 96.95862     82.1 9.291e+03 9.688e-11
 96.99010     84.4 9.258e+03 9.027e-11
 97.01032     85.7 9.317e+03 1.110e-10
 97.02931     87.9 9.243e+03 9.591e-11
 97.04953     88.5 9.249e+03 8.852e-11
 97.07993     90.7 9.206e+03 7.371e-11
 97.12037     92.7 9.150e+03 6.187e-11
 97.16081     94.6 9.058e+03 5.779e-11
 97.18243     96.5 9.048e+03 5.819e-11
 97.20265     98.0 9.034e+03 5.849e-11
 97.24168     99.9 9.019e+03 5.998e-11
 97.28212    101.8 9.021e+03 6.508e-11
 97.30561    103.9 9.098e+03 8.463e-11
 97.32582    104.3 9.204e+03 9.162e-11
 97.35453    106.6 9.270e+03 1.285e-10
 97.37475    107.9 9.118e+03 1.036e-10
 97.40343    110.2 9.223e+03 1.413e-10
 97.44387    112.6 9.293e+03 1.748e-10
 97.48431    114.8 9.291e+03 1.847e-10
 97.52474    117.0 9.281e+03 1.785e-10
 97.54685    119.3 9.220e+03 1.578e-10
 97.56357    120.5 9.223e+03 1.739e-10
 97.58190    120.9 9.297e+03 1.903e-10
 97.60562    123.0 9.209e+03 1.671e-10
 97.64606    125.2 9.093e+03 1.494e-10
 97.68649    127.5 9.047e+03 1.466e-10
 97.71896    129.9 9.046e+03 1.483e-10
 97.73918    130.9 9.133e+03 1.791e-10
 97.76737    133.3 9.151e+03 1.938e-10
 97.80780    135.8 9.245e+03 2.227e-10
 97.83797    138.3 9.427e+03 2.627e-10
 97.85819    138.4 9.562e+03 2.739e-10
 97.88868    140.5 9.898e+03 3.207e-10
 97.91128    142.0 1.017e+04 3.577e-10
 97.92129    142.0 1.015e+04 4.068e-10
 97.93903    142.5 1.021e+04 4.159e-10
 97.95925    143.4 1.029e+04 4.522e-10
 97.97592    144.5 1.044e+04 5.053e-10
 97.98603    144.4 1.050e+04 5.102e-10
 97.99714    145.2 1.068e+04 5.636e-10
 98.00725    145.9 1.095e+04 7.115e-10
 98.01990    146.6 1.112e+04 7.615e-10
 98.04012    147.2 1.123e+04 7.989e-10
 98.06034    147.7 1.128e+04 8.235e-10
 98.08056    148.1 1.127e+04 8.298e-10
 98.09330    148.5 1.125e+04 8.234e-10
 98.10341    148.9 1.148e+04 9.499e-10
 98.11407    149.1 1.138e+04 9.067e-10
 98.12418    149.0 1.133e+04 8.740e-10
 98.14122    149.1 1.123e+04 8.362e-10
 98.16143    149.1 1.112e+04 8.184e-10
 98.17935    149.1 1.107e+04 8.159e-10
 98.18946    149.1 1.132e+04 9.314e-10
 98.20187    148.8 1.138e+04 9.343e-10
 98.22209    148.6 1.143e+04 9.382e-10
 98.24211    148.4 1.155e+04 9.717e-10
 98.25222    147.8 1.246e+04 1.193e-09
 98.26253    147.7 1.270e+04 1.387e-09
 98.27551    147.7 1.280e+04 1.561e-09
 98.28562    147.4 1.286e+04 1.643e-09
 98.30297    147.7 1.283e+04 1.709e-09
 98.32318    148.1 1.275e+04 1.718e-09
 98.34340    148.6 1.265e+04 1.684e-09
 98.37024    149.9 1.211e+04 1.232e-09
 98.39046    149.7 1.300e+04 2.007e-09
 98.40406    150.3 1.280e+04 1.804e-09
 98.42428    150.9 1.260e+04 1.586e-09
 98.44450    151.2 1.246e+04 1.418e-09
 98.45772    151.5 1.237e+04 1.298e-09
 98.46783    151.8 1.209e+04 1.080e-09
 98.48493    152.1 1.205e+04 1.072e-09
 98.50515    152.4 1.204e+04 1.069e-09
 98.51840    153.1 1.203e+04 1.037e-09
 98.52851    152.4 1.389e+04 2.091e-09
 98.54378    152.8 1.392e+04 2.108e-09
 98.55389    153.5 1.364e+04 1.773e-09
 98.56581    153.7 1.383e+04 1.988e-09
 98.58603    153.9 1.409e+04 2.321e-09
 98.60624    153.9 1.445e+04 2.761e-09
 98.62646    153.7 1.497e+04 3.434e-09
 98.63994    153.2 1.558e+04 4.519e-09
 98.64980    154.4 1.536e+04 3.815e-09
 98.65655    153.4 1.670e+04 6.716e-09
 98.66690    153.0 1.708e+04 8.237e-09
 98.68712    153.0 1.741e+04 9.621e-09
 98.70223    153.2 1.751e+04 1.024e-08
 98.71230    153.2 1.761e+04 1.114e-08
 98.72047    153.3 1.763e+04 1.136e-08
 98.72552    153.2 1.771e+04 1.149e-08
 98.73095    153.4 1.762e+04 1.118e-08
 98.73600    153.8 1.799e+04 1.287e-08
 98.74262    154.0 1.787e+04 1.207e-08
 98.75273    154.0 1.770e+04 1.134e-08
 98.76795    154.7 1.779e+04 1.072e-08
 98.77908    154.5 1.716e+04 7.039e-09
 98.78408    154.9 1.754e+04 8.722e-09
 98.78954    154.6 1.711e+04 6.620e-09
 98.79459    153.3 1.643e+04 4.780e-09
 98.80838    152.6 1.555e+04 2.990e-09
 98.82215    151.1 1.410e+04 1.397e-09
 98.83226    153.0 1.529e+04 2.516e-09
 98.84887    151.3 1.368e+04 1.105e-09
 98.86909    148.5 1.112e+04 4.600e-10
 98.88931    146.9 1.016e+04 3.048e-10
 98.90820    146.8 9.996e+03 2.935e-10
 98.91831    147.3 1.010e+04 3.310e-10
 98.92273    147.4 1.000e+04 3.155e-10
 98.93284    147.4 1.040e+04 3.377e-10
 98.94996    147.7 1.033e+04 3.276e-10
 98.97018    148.0 1.030e+04 3.270e-10
 98.99040    148.4 1.028e+04 3.358e-10
 99.00436    148.6 1.029e+04 3.519e-10
 99.01447    148.7 1.031e+04 3.893e-10
 99.03084    148.8 1.033e+04 4.199e-10
 99.05077    149.0 1.040e+04 4.711e-10
 99.06088    149.1 1.048e+04 5.064e-10
 99.07127    149.2 1.062e+04 5.750e-10
 99.09042    148.9 1.087e+04 6.771e-10
 99.10053    147.9 1.113e+04 7.527e-10
 99.11171    147.2 1.169e+04 9.852e-10
 99.13193    146.5 1.224e+04 1.273e-09
 99.15215    146.1 1.262e+04 1.511e-09
 99.17237    145.8 1.281e+04 1.589e-09
 99.18658    145.4 1.279e+04 1.545e-09
 99.19301    144.6 1.275e+04 1.482e-09
 99.19902    144.9 1.295e+04 1.655e-09
 99.22301    144.1 1.235e+04 1.016e-09
 99.26355    143.6 1.131e+04 5.403e-10
 99.30398    143.6 1.040e+04 3.349e-10
 99.34442    144.4 1.010e+04 2.875e-10
 99.36899    145.9 1.012e+04 2.921e-10
 99.38921    146.1 1.011e+04 2.935e-10
 99.42529    147.4 1.023e+04 3.281e-10
 99.45494    148.5 1.023e+04 3.518e-10
 99.46462    148.3 1.026e+04 3.831e-10
 99.46521    148.9 1.034e+04 4.571e-10
 99.47565    149.7 1.044e+04 5.069e-10
 99.49586    150.6 1.056e+04 5.662e-10
 99.51608    151.4 1.069e+04 6.266e-10
 99.53630    152.3 1.080e+04 6.782e-10
 99.55100    153.2 1.090e+04 7.127e-10
 99.56111    152.9 1.112e+04 8.414e-10
 99.57674    153.6 1.115e+04 8.452e-10
 99.59324    154.3 1.116e+04 8.360e-10
 99.60335    154.4 1.136e+04 9.246e-10
 99.61718    155.1 1.140e+04 9.338e-10
 99.63706    155.7 1.145e+04 9.484e-10
 99.64717    155.3 1.153e+04 9.978e-10
 99.65761    155.7 1.156e+04 1.002e-09
 99.67783    156.2 1.161e+04 1.023e-09
 99.69805    156.6 1.173e+04 1.085e-09
 99.71827    157.0 1.191e+04 1.175e-09
 99.73139    157.4 1.213e+04 1.287e-09
 99.73623    158.1 1.249e+04 1.638e-09
 99.74333    157.6 1.229e+04 1.460e-09
 99.75871    158.1 1.244e+04 1.488e-09
 99.77893    158.4 1.245e+04 1.464e-09
 99.79914    158.7 1.239e+04 1.391e-09
 99.81927    158.9 1.220e+04 1.275e-09
 99.83949    158.7 1.150e+04 9.475e-10
 99.85943    158.9 1.131e+04 8.662e-10
 99.86953    159.7 1.148e+04 8.822e-10
 99.88002    159.8 1.117e+04 7.864e-10
 99.90024    160.0 1.096e+04 7.207e-10
 99.91543    160.4 1.082e+04 6.838e-10
 99.92554    160.4 1.067e+04 6.367e-10
 99.94067    161.1 1.067e+04 6.446e-10
 99.96089    161.9 1.072e+04 6.701e-10
 99.98111    162.7 1.082e+04 7.105e-10
 99.99757    163.6 1.095e+04 7.649e-10
