# Columns:
#   distance along LOS (in CHIMPs)
#   peculiar velocity  (in km/s)
#   temperature (K)
#   HI number density
# pos=(11.3575,132.91,128.036), angles=(2.87668,4.17722)
  0.00302    -88.7 1.061e+04 8.914e-10
  0.01537    -88.1 1.070e+04 9.312e-10
  0.02549    -88.3 1.072e+04 9.300e-10
  0.03640    -87.7 1.086e+04 9.949e-10
  0.05664    -87.0 1.103e+04 1.085e-09
  0.07688    -86.5 1.122e+04 1.199e-09
  0.09711    -85.9 1.141e+04 1.336e-09
  0.10933    -85.2 1.165e+04 1.504e-09
  0.11868    -85.6 1.156e+04 1.462e-09
  0.12671    -85.6 1.151e+04 1.342e-09
  0.13759    -85.1 1.167e+04 1.435e-09
  0.15782    -84.6 1.180e+04 1.506e-09
  0.17806    -84.2 1.190e+04 1.553e-09
  0.19316    -83.8 1.203e+04 1.564e-09
  0.20328    -84.0 1.141e+04 1.074e-09
  0.21854    -84.0 1.146e+04 9.721e-10
  0.23877    -84.1 1.146e+04 8.779e-10
  0.25901    -84.4 1.143e+04 8.069e-10
  0.27067    -84.8 1.132e+04 7.590e-10
  0.27854    -84.8 1.117e+04 6.869e-10
  0.28712    -85.2 1.024e+04 4.312e-10
  0.29948    -85.2 1.022e+04 4.289e-10
  0.31972    -85.2 1.025e+04 4.359e-10
  0.33996    -85.1 1.030e+04 4.609e-10
  0.36020    -84.8 1.034e+04 4.881e-10
  0.37095    -84.2 1.031e+04 5.074e-10
  0.38107    -84.2 1.004e+04 4.420e-10
  0.40067    -83.7 1.012e+04 4.792e-10
  0.41474    -82.9 1.018e+04 5.019e-10
  0.42485    -83.0 1.031e+04 5.958e-10
  0.44115    -82.2 1.038e+04 6.360e-10
  0.45479    -81.3 1.039e+04 6.526e-10
  0.47512    -80.4 1.008e+04 5.466e-10
  0.51217    -78.5 1.007e+04 5.506e-10
  0.55265    -76.5 9.863e+03 4.911e-10
  0.59312    -74.2 9.606e+03 3.944e-10
  0.62266    -71.9 9.310e+03 2.959e-10
  0.64289    -71.2 9.124e+03 2.792e-10
  0.67407    -69.1 9.031e+03 2.331e-10
  0.70277    -67.0 8.934e+03 1.905e-10
  0.72300    -66.4 9.009e+03 2.032e-10
  0.75502    -64.4 8.890e+03 1.566e-10
  0.79033    -62.5 8.778e+03 1.239e-10
  0.81056    -61.7 8.929e+03 1.596e-10
  0.83597    -59.8 8.898e+03 1.324e-10
  0.87644    -58.0 8.901e+03 1.226e-10
  0.91691    -56.3 8.917e+03 1.214e-10
  0.95739    -54.8 9.077e+03 1.370e-10
  0.97824    -53.3 9.231e+03 1.765e-10
  0.99131    -53.0 9.754e+03 3.092e-10
  1.01094    -52.5 9.951e+03 3.819e-10
  1.03834    -50.7 1.017e+04 4.416e-10
  1.07881    -49.2 1.018e+04 4.363e-10
  1.10907    -48.0 1.013e+04 4.243e-10
  1.12921    -46.9 9.972e+03 3.551e-10
  1.14581    -46.0 9.922e+03 2.961e-10
  1.15593    -46.0 1.025e+04 4.164e-10
  1.16968    -45.5 1.016e+04 3.603e-10
  1.20014    -44.6 1.007e+04 3.193e-10
  1.24071    -43.4 9.830e+03 2.620e-10
  1.27863    -41.6 9.683e+03 2.423e-10
  1.29887    -41.6 9.694e+03 2.493e-10
  1.31358    -39.9 9.708e+03 2.549e-10
  1.33382    -39.5 9.809e+03 2.682e-10
  1.36213    -37.7 1.003e+04 3.169e-10
  1.40261    -35.9 1.032e+04 4.223e-10
  1.44308    -33.9 1.059e+04 5.216e-10
  1.48125    -32.0 1.077e+04 5.743e-10
  1.50149    -31.8 1.093e+04 5.891e-10
  1.52403    -29.9 1.098e+04 6.077e-10
  1.56451    -27.9 1.096e+04 5.916e-10
  1.58680    -26.0 1.077e+04 4.966e-10
  1.60704    -25.1 1.052e+04 4.526e-10
  1.64545    -23.1 1.051e+04 4.184e-10
  1.66916    -21.1 1.054e+04 3.846e-10
  1.67918    -21.4 1.066e+04 4.146e-10
  1.69585    -20.9 1.064e+04 3.894e-10
  1.71609    -19.9 1.062e+04 3.437e-10
  1.73057    -19.0 1.059e+04 3.198e-10
  1.74069    -18.3 1.063e+04 3.555e-10
  1.75280    -17.5 1.068e+04 3.384e-10
  1.76292    -17.6 1.081e+04 3.522e-10
  1.77680    -16.9 1.080e+04 3.376e-10
  1.79704    -16.3 1.081e+04 3.346e-10
  1.81728    -15.6 1.081e+04 3.390e-10
  1.83664    -14.9 1.095e+04 3.613e-10
  1.84675    -15.7 1.099e+04 3.786e-10
  1.85775    -15.5 1.106e+04 4.161e-10
  1.87454    -15.5 1.116e+04 4.649e-10
  1.88465    -14.7 1.125e+04 4.734e-10
  1.89822    -15.0 1.128e+04 5.474e-10
  1.91846    -15.3 1.131e+04 6.302e-10
  1.93059    -15.4 1.132e+04 7.118e-10
  1.94071    -16.0 1.099e+04 6.845e-10
  1.95894    -15.7 1.094e+04 7.025e-10
  1.97917    -15.2 1.075e+04 6.999e-10
  1.99941    -14.4 1.063e+04 6.321e-10
  2.01443    -13.9 1.050e+04 5.155e-10
  2.02464    -14.7 1.047e+04 4.967e-10
  2.05020    -13.3 1.007e+04 3.097e-10
  2.09067    -12.3 9.919e+03 1.892e-10
  2.13115    -11.2 9.873e+03 1.297e-10
  2.16266     -9.4 9.821e+03 1.192e-10
  2.18290     -8.7 1.016e+04 1.616e-10
  2.19241     -6.7 1.006e+04 1.809e-10
  2.21265     -5.9 9.480e+03 1.122e-10
  2.25257     -3.7 9.632e+03 1.350e-10
  2.29304     -1.9 9.612e+03 1.946e-10
  2.33352     -0.8 1.044e+04 3.535e-10
  2.35998     -0.4 1.142e+04 5.848e-10
  2.37001     -0.7 1.165e+04 6.704e-10
  2.38392     -3.0 1.236e+04 1.114e-09
  2.40415     -3.6 1.275e+04 1.888e-09
  2.42439     -3.5 1.321e+04 2.534e-09
  2.44372     -2.5 1.372e+04 2.744e-09
  2.45384     -2.2 1.415e+04 3.342e-09
  2.46052     -1.9 1.401e+04 1.986e-09
  2.47064     -1.8 1.454e+04 2.482e-09
  2.48510     -6.2 1.283e+04 1.142e-09
  2.50534     -9.3 1.068e+04 6.740e-10
  2.52558     -9.6 1.016e+04 5.492e-10
  2.53768     -9.3 9.897e+03 4.858e-10
  2.54789     -9.0 1.034e+04 6.490e-10
  2.57637     -7.6 9.548e+03 4.115e-10
  2.61684     -5.8 8.994e+03 2.554e-10
  2.65731     -4.7 8.771e+03 1.817e-10
  2.69543     -3.3 8.732e+03 1.698e-10
  2.71566     -3.3 8.694e+03 1.683e-10
  2.73826     -1.5 8.587e+03 1.741e-10
  2.75877      0.4 8.585e+03 1.925e-10
  2.77900      1.8 8.351e+03 1.299e-10
  2.81921      3.7 8.495e+03 1.791e-10
  2.85969      5.7 8.815e+03 2.504e-10
  2.88333      7.7 9.201e+03 3.621e-10
  2.90357      8.1 8.800e+03 2.171e-10
  2.94064      9.5 9.189e+03 3.159e-10
  2.98111     11.2 9.505e+03 4.624e-10
  3.02158     13.4 9.659e+03 5.580e-10
  3.04670     15.4 9.653e+03 5.413e-10
  3.05588     17.3 9.746e+03 5.649e-10
  3.07124     16.9 9.586e+03 5.480e-10
  3.10253     19.1 9.466e+03 4.550e-10
  3.14301     20.1 9.165e+03 3.675e-10
  3.18348     21.4 8.855e+03 3.010e-10
  3.21868     22.8 8.647e+03 2.460e-10
  3.23891     22.4 8.836e+03 3.026e-10
  3.26443     23.6 8.721e+03 2.756e-10
  3.30491     24.8 8.766e+03 2.870e-10
  3.33463     25.8 9.038e+03 3.304e-10
  3.35487     28.0 9.130e+03 3.578e-10
  3.38585     28.7 9.299e+03 3.784e-10
  3.40649     27.5 9.630e+03 4.383e-10
  3.41651     27.4 9.659e+03 4.691e-10
  3.43625     26.9 9.917e+03 5.446e-10
  3.45649     26.5 1.004e+04 6.347e-10
  3.47673     26.6 1.008e+04 7.024e-10
  3.48852     26.7 1.010e+04 7.119e-10
  3.49190     27.8 1.009e+04 7.011e-10
  3.50034     27.8 1.018e+04 7.451e-10
  3.51720     27.8 1.016e+04 7.261e-10
  3.53744     21.6 1.355e+04 1.099e-09
  3.55768     11.1 1.690e+04 2.970e-09
  3.57280      5.8 1.693e+04 6.134e-09
  3.57902      3.9 1.705e+04 7.643e-09
  3.58408      3.2 1.738e+04 9.467e-09
  3.59299      2.6 1.716e+04 1.153e-08
  3.60311      1.9 1.671e+04 1.145e-08
  3.61323      2.9 1.708e+04 1.167e-08
  3.62094      3.6 1.782e+04 1.000e-08
  3.62600      4.0 1.806e+04 9.848e-09
  3.63244      0.8 1.720e+04 4.829e-09
  3.64260      0.6 1.783e+04 5.320e-09
  3.65790    -14.9 1.219e+04 6.179e-10
  3.66802    -18.5 1.137e+04 4.474e-10
  3.67910    -24.4 8.268e+03 2.158e-10
  3.69934    -26.0 7.905e+03 1.866e-10
  3.71957    -26.7 7.890e+03 1.843e-10
  3.74183    -27.5 7.940e+03 1.928e-10
  3.76217    -28.2 8.468e+03 2.636e-10
  3.79060    -29.1 8.758e+03 3.391e-10
  3.83107    -29.3 9.039e+03 4.251e-10
  3.87155    -28.7 9.135e+03 4.625e-10
  3.90960    -28.1 9.130e+03 4.660e-10
  3.92821    -28.4 9.334e+03 5.161e-10
  3.93063    -29.5 9.581e+03 5.628e-10
  3.95250    -28.9 9.455e+03 5.432e-10
  3.99297    -27.8 9.397e+03 5.372e-10
  4.03344    -26.4 9.373e+03 5.360e-10
  4.07392    -24.7 9.279e+03 5.173e-10
  4.09751    -22.9 9.194e+03 4.762e-10
  4.11775    -23.8 9.000e+03 3.894e-10
  4.15487    -23.2 9.108e+03 3.640e-10
  4.19534    -23.3 9.509e+03 3.937e-10
  4.21866    -23.5 1.007e+04 5.135e-10
  4.23890    -22.0 8.629e+03 2.038e-10
  4.26518    -22.7 9.583e+03 3.558e-10
  4.28542    -23.5 9.559e+03 3.920e-10
  4.31677    -23.9 1.045e+04 6.700e-10
  4.35724    -24.3 1.159e+04 1.079e-09
  4.39771    -24.8 1.252e+04 1.391e-09
  4.42797    -25.4 1.276e+04 1.490e-09
  4.44277    -26.0 1.261e+04 1.461e-09
  4.45299    -25.7 1.184e+04 1.201e-09
  4.47866    -26.5 1.203e+04 1.299e-09
  4.50650    -27.1 1.173e+04 1.231e-09
  4.51652    -26.4 1.165e+04 1.123e-09
  4.52661    -26.7 1.144e+04 1.023e-09
  4.53673    -26.2 1.148e+04 1.045e-09
  4.54930    -26.5 1.127e+04 9.308e-10
  4.56954    -27.0 1.109e+04 8.384e-10
  4.58977    -27.6 1.093e+04 7.623e-10
  4.61001    -28.2 1.078e+04 7.048e-10
  4.62056    -28.6 1.062e+04 6.606e-10
  4.63068    -28.1 1.060e+04 6.511e-10
  4.65037    -28.3 1.042e+04 6.118e-10
  4.66049    -27.8 1.047e+04 6.396e-10
  4.67072    -27.9 1.028e+04 5.932e-10
  4.69096    -27.9 1.009e+04 5.395e-10
  4.70440    -27.8 9.909e+03 4.852e-10
  4.71452    -27.4 9.891e+03 4.843e-10
  4.73143    -27.4 9.739e+03 4.379e-10
  4.76189    -27.6 9.575e+03 4.001e-10
  4.78843    -27.2 9.528e+03 3.946e-10
  4.80074    -26.5 9.521e+03 3.989e-10
  4.81467    -26.4 9.588e+03 4.348e-10
  4.83262    -25.9 9.584e+03 4.473e-10
  4.85286    -25.7 9.563e+03 4.484e-10
  4.87207    -25.0 9.554e+03 4.503e-10
  4.88219    -24.9 9.636e+03 4.746e-10
  4.89333    -24.6 9.607e+03 4.720e-10
  4.91357    -24.2 9.616e+03 4.720e-10
  4.93381    -24.1 9.679e+03 4.764e-10
  4.94842    -24.3 9.854e+03 5.172e-10
  4.95854    -24.4 1.002e+04 5.886e-10
  4.96603    -24.7 1.019e+04 6.606e-10
  4.97614    -24.7 1.034e+04 7.392e-10
  4.99452    -24.7 1.043e+04 8.206e-10
  5.01475    -24.4 1.043e+04 8.633e-10
  5.03499    -23.8 1.042e+04 8.760e-10
  5.04986    -23.3 1.033e+04 8.399e-10
  5.05998    -22.9 1.009e+04 7.423e-10
  5.07547    -22.6 9.959e+03 5.987e-10
  5.09238    -23.0 1.005e+04 4.991e-10
  5.10250    -22.8 1.013e+04 4.992e-10
  5.11594    -26.4 1.073e+04 4.810e-10
  5.13370    -32.7 1.216e+04 6.423e-10
  5.14382    -30.9 1.120e+04 3.785e-10
  5.15641    -35.6 1.183e+04 7.815e-10
  5.17665    -37.6 1.230e+04 1.529e-09
  5.19689    -38.2 1.297e+04 2.208e-09
  5.21713    -39.1 1.339e+04 2.404e-09
  5.22765    -40.8 1.358e+04 2.171e-09
  5.23676    -38.5 1.318e+04 2.155e-09
  5.24647    -38.9 1.341e+04 2.378e-09
  5.25760    -40.8 1.321e+04 1.747e-09
  5.27784    -43.3 1.209e+04 1.084e-09
  5.29807    -45.1 1.104e+04 7.558e-10
  5.31149    -46.0 1.053e+04 5.717e-10
  5.32161    -44.3 1.061e+04 5.481e-10
  5.33855    -45.1 1.016e+04 3.992e-10
  5.36900    -45.5 9.751e+03 2.969e-10
  5.39063    -46.5 9.227e+03 2.193e-10
  5.41087    -46.7 9.209e+03 2.206e-10
  5.45005    -47.3 8.795e+03 1.654e-10
  5.47935    -47.9 8.689e+03 1.528e-10
  5.49959    -45.8 8.664e+03 1.472e-10
  5.53100    -46.5 8.668e+03 1.477e-10
  5.57147    -47.6 8.863e+03 1.808e-10
  5.61195    -48.7 9.123e+03 2.420e-10
  5.64703    -49.7 9.312e+03 2.934e-10
  5.66726    -47.9 9.381e+03 3.012e-10
  5.67856    -49.0 9.504e+03 3.320e-10
  5.69880    -48.8 9.675e+03 3.717e-10
  5.73337    -50.1 9.731e+03 3.742e-10
  5.77384    -51.5 9.621e+03 3.330e-10
  5.80410    -52.2 9.412e+03 2.971e-10
  5.82233    -52.7 9.447e+03 2.983e-10
  5.83245    -53.5 9.720e+03 3.505e-10
  5.83474    -54.1 9.675e+03 3.576e-10
  5.84486    -54.1 9.815e+03 4.028e-10
  5.86472    -54.5 9.785e+03 4.312e-10
  5.88495    -55.9 9.872e+03 5.071e-10
  5.90519    -59.8 1.207e+04 8.198e-10
  5.91857    -65.7 1.560e+04 2.021e-09
  5.92869    -63.2 1.430e+04 1.458e-09
  5.94567    -68.1 1.676e+04 3.494e-09
  5.96590    -71.3 1.801e+04 7.479e-09
  5.97642    -73.1 1.878e+04 1.218e-08
  5.98654    -74.3 1.773e+04 9.803e-09
  6.00241    -76.1 1.795e+04 1.048e-08
  6.01253    -75.0 1.722e+04 8.090e-09
  6.02661    -77.2 1.740e+04 7.567e-09
  6.04685    -79.9 1.677e+04 5.230e-09
  6.06709    -83.4 1.545e+04 2.839e-09
  6.08625    -87.1 1.343e+04 1.532e-09
  6.09636    -85.7 1.375e+04 1.529e-09
  6.10756    -89.0 1.171e+04 9.424e-10
  6.12038    -90.9 1.081e+04 7.523e-10
  6.13050    -91.6 1.047e+04 6.892e-10
  6.14804    -92.0 1.042e+04 6.711e-10
  6.16827    -92.1 1.038e+04 6.558e-10
  6.18020    -92.2 1.035e+04 6.395e-10
  6.19032    -91.8 1.032e+04 6.372e-10
  6.20875    -91.8 1.025e+04 6.129e-10
  6.22899    -91.5 1.015e+04 5.743e-10
  6.24922    -91.2 1.003e+04 5.190e-10
  6.26404    -90.9 9.894e+03 4.574e-10
  6.26904    -90.9 9.807e+03 4.210e-10
  6.27447    -91.4 9.867e+03 4.406e-10
  6.29991    -91.3 9.881e+03 4.438e-10
  6.33795    -90.4 9.795e+03 4.258e-10
  6.35819    -90.1 9.418e+03 3.115e-10
  6.38096    -88.8 9.317e+03 3.033e-10
  6.42144    -87.3 9.263e+03 2.999e-10
  6.46191    -85.6 9.197e+03 2.946e-10
  6.50238    -83.9 9.140e+03 2.845e-10
  6.52586    -82.2 9.094e+03 2.737e-10
  6.54559    -82.3 9.026e+03 2.601e-10
  6.56260    -82.9 9.264e+03 3.014e-10
  6.58333    -81.3 9.377e+03 3.275e-10
  6.62381    -79.6 9.503e+03 3.596e-10
  6.66428    -77.8 9.600e+03 3.870e-10
  6.69353    -76.1 9.631e+03 3.995e-10
  6.71377    -76.3 9.877e+03 4.905e-10
  6.74523    -74.5 9.821e+03 4.854e-10
  6.78571    -72.4 9.588e+03 4.160e-10
  6.82618    -70.2 9.369e+03 3.465e-10
  6.85053    -68.2 9.262e+03 3.103e-10
  6.86531    -68.6 9.124e+03 2.774e-10
  6.88144    -69.0 9.147e+03 2.900e-10
  6.90713    -67.1 9.122e+03 2.823e-10
  6.94760    -65.5 9.214e+03 2.993e-10
  6.98808    -64.5 9.862e+03 4.607e-10
  7.02855    -63.2 1.058e+04 7.677e-10
  7.04911    -61.7 1.116e+04 1.141e-09
  7.05913    -62.1 1.123e+04 1.181e-09
  7.07895    -61.8 1.143e+04 1.323e-09
  7.09919    -61.1 1.166e+04 1.512e-09
  7.11942    -60.7 1.169e+04 1.540e-09
  7.13275    -60.2 1.160e+04 1.521e-09
  7.14147    -60.3 1.156e+04 1.513e-09
  7.15860    -60.0 1.107e+04 1.185e-09
  7.19045    -57.9 1.041e+04 8.496e-10
  7.21678    -55.5 9.639e+03 5.172e-10
  7.23702    -55.5 9.508e+03 4.670e-10
  7.27140    -52.8 8.938e+03 2.923e-10
  7.31187    -50.2 8.444e+03 1.904e-10
  7.35235    -47.8 8.293e+03 1.590e-10
  7.38445    -45.1 8.216e+03 1.498e-10
  7.40469    -44.7 8.392e+03 1.749e-10
  7.42639    -42.1 8.444e+03 1.850e-10
  7.44663    -41.8 8.475e+03 1.955e-10
  7.47377    -39.3 8.634e+03 2.351e-10
  7.51424    -36.7 8.768e+03 2.772e-10
  7.55212    -34.2 8.822e+03 2.983e-10
  7.57236    -33.8 9.323e+03 4.398e-10
  7.59519    -31.4 9.402e+03 4.671e-10
  7.63567    -29.1 9.384e+03 4.635e-10
  7.67614    -26.8 9.235e+03 4.288e-10
  7.71432    -24.6 9.044e+03 3.870e-10
  7.73456    -23.9 9.299e+03 4.257e-10
  7.74003    -21.9 9.075e+03 3.771e-10
  7.75005    -21.9 9.776e+03 5.777e-10
  7.76701    -21.3 9.662e+03 5.449e-10
  7.78725    -19.9 9.427e+03 4.758e-10
  7.80749    -19.3 9.342e+03 4.533e-10
  7.82367    -18.1 9.254e+03 4.264e-10
  7.83379    -18.3 9.689e+03 5.690e-10
  7.84796    -17.3 9.569e+03 5.365e-10
  7.86820    -16.2 9.498e+03 5.118e-10
  7.88844    -15.2 9.620e+03 5.494e-10
  7.90751    -14.1 9.574e+03 5.329e-10
  7.91763    -14.1 1.013e+04 7.695e-10
  7.92891    -13.1 1.007e+04 7.431e-10
  7.94915    -12.2 1.001e+04 7.176e-10
  7.96939    -11.2 9.931e+03 6.913e-10
  7.98962    -10.1 9.906e+03 6.812e-10
  8.00146     -9.3 9.911e+03 6.835e-10
  8.01158     -9.3 1.041e+04 9.134e-10
  8.02230     -8.8 1.052e+04 9.302e-10
  8.03242     -8.9 1.058e+04 9.379e-10
  8.05034     -8.7 1.092e+04 1.034e-09
  8.07057     -8.8 1.141e+04 1.283e-09
  8.08530     -8.8 1.190e+04 1.657e-09
  8.09542     -9.2 1.244e+04 2.006e-09
  8.11105     -8.6 1.287e+04 2.434e-09
  8.13128     -7.9 1.318e+04 2.750e-09
  8.15152     -7.2 1.327e+04 2.836e-09
  8.16626     -6.6 1.317e+04 2.534e-09
  8.17376     -7.8 1.242e+04 1.817e-09
  8.17925     -8.8 1.245e+04 1.740e-09
  8.19200     -8.8 1.189e+04 1.438e-09
  8.21223     -8.7 1.134e+04 1.148e-09
  8.24269     -7.9 1.096e+04 9.133e-10
  8.26328     -7.0 1.041e+04 6.788e-10
  8.28352     -8.3 1.055e+04 7.195e-10
  8.31043     -6.4 1.033e+04 6.282e-10
  8.33066     -5.8 1.040e+04 6.505e-10
  8.36421     -3.8 1.035e+04 6.212e-10
  8.40468     -1.7 1.041e+04 6.449e-10
  8.43095      0.3 1.060e+04 7.189e-10
  8.45119     -0.5 1.109e+04 8.516e-10
  8.48563      1.3 1.155e+04 1.047e-09
  8.51469      3.5 1.182e+04 1.234e-09
  8.52471      2.8 1.226e+04 1.412e-09
  8.53603      2.4 1.247e+04 1.662e-09
  8.55627      3.3 1.309e+04 2.365e-09
  8.57650      3.4 1.342e+04 2.862e-09
  8.59674      4.2 1.406e+04 3.582e-09
  8.60828      4.5 1.450e+04 4.052e-09
  8.60997      4.6 1.442e+04 4.174e-09
  8.61867      4.1 1.434e+04 4.125e-09
  8.63721      4.9 1.472e+04 4.743e-09
  8.65745      5.6 1.485e+04 4.981e-09
  8.67769      6.4 1.475e+04 4.852e-09
  8.69238      7.6 1.441e+04 3.976e-09
  8.70250      7.7 1.386e+04 2.989e-09
  8.71816      8.2 1.340e+04 2.071e-09
  8.73840      7.9 1.261e+04 1.347e-09
  8.75225      7.0 1.173e+04 9.453e-10
  8.76237      7.7 1.205e+04 1.051e-09
  8.77622      7.4 1.144e+04 8.237e-10
  8.78634      8.0 1.099e+04 7.109e-10
  8.79911      8.3 1.070e+04 6.020e-10
  8.81935      8.9 1.079e+04 5.864e-10
  8.83959      9.2 1.131e+04 6.211e-10
  8.85982      9.2 1.203e+04 7.744e-10
  8.87017      9.4 1.272e+04 1.088e-09
  8.88029     11.1 1.179e+04 6.986e-10
  8.89621     11.0 1.243e+04 9.593e-10
  8.90633     12.3 1.167e+04 6.831e-10
  8.92054     12.4 1.224e+04 9.275e-10
  8.94077     12.5 1.242e+04 1.255e-09
  8.95401     13.0 1.240e+04 1.591e-09
  8.96413     14.2 1.232e+04 1.258e-09
  8.98125     14.8 1.225e+04 1.567e-09
  9.00148     15.9 1.218e+04 1.715e-09
  9.02172     17.2 1.204e+04 1.645e-09
  9.03785     18.7 1.185e+04 1.432e-09
  9.04619     19.3 1.183e+04 1.424e-09
  9.05030     19.6 1.177e+04 1.403e-09
  9.06220     20.8 1.170e+04 1.289e-09
  9.08243     21.6 1.156e+04 1.022e-09
  9.10267     21.8 1.117e+04 7.596e-10
  9.12168     21.6 1.075e+04 5.826e-10
  9.13180     22.4 1.091e+04 6.511e-10
  9.14314     22.4 1.056e+04 5.440e-10
  9.16338     22.4 1.031e+04 4.819e-10
  9.18362     22.8 1.018e+04 4.630e-10
  9.19426     23.7 1.022e+04 4.666e-10
  9.20438     24.2 1.042e+04 5.789e-10
  9.21564     25.0 1.043e+04 5.589e-10
  9.22575     25.5 1.050e+04 5.816e-10
  9.24433     26.0 1.055e+04 5.493e-10
  9.26457     26.2 1.058e+04 5.256e-10
  9.28480     26.4 1.067e+04 5.162e-10
  9.29947     26.2 1.078e+04 5.302e-10
  9.30959     26.1 1.086e+04 5.436e-10
  9.32528     25.6 1.103e+04 6.142e-10
  9.33823     25.3 1.126e+04 7.367e-10
  9.34835     25.6 1.139e+04 7.469e-10
  9.36575     25.2 1.179e+04 9.844e-10
  9.38331     24.6 1.234e+04 1.316e-09
  9.39343     23.7 1.289e+04 1.751e-09
  9.40623     23.6 1.356e+04 2.443e-09
  9.42647     23.7 1.411e+04 3.027e-09
  9.44670     24.0 1.425e+04 3.353e-09
  9.46694     24.4 1.413e+04 3.236e-09
  9.47726     24.8 1.383e+04 2.811e-09
  9.48240     24.7 1.384e+04 2.745e-09
  9.49232     25.0 1.410e+04 2.956e-09
  9.50741     24.3 1.366e+04 2.145e-09
  9.52765     23.0 1.296e+04 1.576e-09
  9.54789     22.4 1.251e+04 1.317e-09
  9.56110     21.7 1.216e+04 1.139e-09
  9.57122     21.8 1.201e+04 1.071e-09
  9.58836     21.5 1.187e+04 1.033e-09
  9.60860     21.4 1.197e+04 1.085e-09
  9.62616     21.2 1.205e+04 1.180e-09
  9.63628     21.4 1.186e+04 1.083e-09
  9.64493     21.4 1.193e+04 1.146e-09
  9.65505     22.1 1.186e+04 1.121e-09
  9.66931     22.2 1.194e+04 1.171e-09
  9.68955     22.3 1.190e+04 1.179e-09
  9.70979     22.2 1.178e+04 1.089e-09
  9.72877     21.7 1.171e+04 9.766e-10
  9.73889     22.8 1.176e+04 1.081e-09
  9.75026     21.6 1.199e+04 1.027e-09
  9.77013     19.3 1.268e+04 1.057e-09
  9.78025     20.6 1.253e+04 1.035e-09
  9.79074     17.1 1.303e+04 1.180e-09
  9.81097     13.0 1.317e+04 1.577e-09
  9.82272     10.0 1.434e+04 2.328e-09
  9.83284      8.8 1.537e+04 3.191e-09
  9.85145      6.0 1.630e+04 4.225e-09
  9.87168      3.4 1.648e+04 5.105e-09
  9.89192      2.1 1.611e+04 5.686e-09
  9.90656      1.7 1.530e+04 4.907e-09
  9.91668      1.5 1.548e+04 4.872e-09
  9.92421      1.4 1.520e+04 4.173e-09
  9.93433      1.3 1.585e+04 4.797e-09
  9.95263      0.2 1.519e+04 3.163e-09
  9.97287     -1.5 1.459e+04 2.323e-09
  9.99039     -2.9 1.411e+04 1.954e-09
 10.00051     -4.2 1.358e+04 1.585e-09
 10.01334     -5.0 1.349e+04 1.542e-09
 10.03358     -6.1 1.382e+04 1.661e-09
 10.05382     -7.6 1.429e+04 2.119e-09
 10.06818     -8.8 1.460e+04 2.607e-09
 10.07830     -9.4 1.420e+04 2.110e-09
 10.08435    -10.8 1.428e+04 2.222e-09
 10.09447    -11.5 1.335e+04 1.457e-09
 10.11453    -13.4 1.320e+04 1.465e-09
 10.13477    -15.5 1.307e+04 1.487e-09
 10.15500    -17.5 1.300e+04 1.542e-09
 10.16818    -19.2 1.299e+04 1.688e-09
 10.17830    -19.2 1.273e+04 1.484e-09
 10.19548    -20.3 1.271e+04 1.678e-09
 10.21215    -20.9 1.266e+04 1.792e-09
 10.22226    -20.9 1.288e+04 1.975e-09
 10.23595    -21.1 1.279e+04 1.962e-09
 10.25202    -21.1 1.237e+04 1.704e-09
 10.26214    -21.1 1.214e+04 1.530e-09
 10.27643    -21.3 1.178e+04 1.252e-09
 10.29667    -21.5 1.140e+04 9.785e-10
 10.31690    -21.7 1.102e+04 7.546e-10
 10.33586    -22.0 1.067e+04 5.850e-10
 10.34597    -22.3 1.062e+04 5.521e-10
 10.35611    -22.6 1.035e+04 4.572e-10
 10.36623    -23.1 1.022e+04 4.124e-10
 10.38783    -23.5 1.011e+04 3.892e-10
 10.42840    -23.0 1.013e+04 4.015e-10
 10.46888    -22.2 1.015e+04 4.116e-10
 10.50372    -21.1 1.009e+04 3.972e-10
 10.52386    -21.2 1.019e+04 4.465e-10
 10.54973    -20.7 1.006e+04 3.722e-10
 10.59030    -19.5 9.671e+03 2.589e-10
 10.63077    -18.0 9.373e+03 1.958e-10
 10.65436    -16.4 9.318e+03 1.788e-10
 10.67460    -16.4 9.349e+03 1.825e-10
 10.71172    -16.1 9.456e+03 1.978e-10
 10.75220    -14.8 9.559e+03 2.302e-10
 10.79267    -13.6 9.744e+03 2.925e-10
 10.83315    -12.4 9.952e+03 3.743e-10
 10.85930    -11.3 1.010e+04 4.667e-10
 10.87954    -11.6 9.788e+03 3.779e-10
 10.91410    -10.5 9.806e+03 3.795e-10
 10.94229     -9.6 9.780e+03 3.396e-10
 10.96253     -9.9 9.583e+03 2.798e-10
 10.99504     -9.8 9.428e+03 2.322e-10
 11.02697    -10.0 9.591e+03 2.485e-10
 11.04721    -10.5 9.694e+03 2.667e-10
 11.06578    -10.5 9.840e+03 3.001e-10
 11.08592    -11.0 1.000e+04 3.363e-10
 11.09618    -11.4 1.027e+04 4.318e-10
 11.10630    -12.2 1.052e+04 5.411e-10
 11.12073    -12.6 1.079e+04 7.082e-10
 11.13085    -13.0 1.112e+04 9.050e-10
 11.14663    -12.9 1.142e+04 1.087e-09
 11.16687    -13.1 1.169e+04 1.213e-09
 11.18710    -13.7 1.206e+04 1.316e-09
 11.20457    -15.3 1.266e+04 1.454e-09
 11.21469    -17.8 1.344e+04 1.821e-09
 11.22758    -20.3 1.378e+04 2.120e-09
 11.24015    -22.5 1.393e+04 2.514e-09
 11.25026    -26.7 1.504e+04 3.155e-09
 11.26805    -29.6 1.632e+04 3.725e-09
 11.28829    -32.7 1.755e+04 4.034e-09
 11.29852    -36.2 1.791e+04 3.969e-09
 11.30864    -39.1 1.715e+04 3.076e-09
 11.32876    -42.2 1.483e+04 2.535e-09
 11.34900    -43.7 1.274e+04 2.088e-09
 11.36924    -43.9 1.202e+04 1.733e-09
 11.38236    -43.7 1.178e+04 1.373e-09
 11.38712    -43.9 1.172e+04 1.298e-09
 11.39423    -45.9 1.194e+04 1.142e-09
 11.40971    -46.5 1.158e+04 8.067e-10
 11.42995    -47.3 1.103e+04 5.973e-10
 11.45019    -47.9 1.050e+04 4.878e-10
 11.46619    -48.1 1.025e+04 4.405e-10
 11.47631    -48.6 1.036e+04 4.621e-10
 11.49066    -48.5 1.040e+04 4.601e-10
 11.51090    -48.4 1.062e+04 4.921e-10
 11.52808    -48.2 1.083e+04 5.484e-10
 11.53820    -50.3 1.108e+04 6.807e-10
 11.55003    -49.8 1.118e+04 7.729e-10
 11.56015    -50.5 1.149e+04 9.893e-10
 11.57161    -49.8 1.160e+04 1.119e-09
 11.59185    -49.0 1.170e+04 1.235e-09
 11.61208    -48.0 1.180e+04 1.346e-09
 11.63232    -47.0 1.183e+04 1.419e-09
 11.64398    -46.0 1.181e+04 1.434e-09
 11.65410    -46.1 1.213e+04 1.659e-09
 11.67204    -45.0 1.187e+04 1.426e-09
 11.68216    -46.1 1.119e+04 9.689e-10
 11.69303    -45.3 1.096e+04 8.139e-10
 11.71327    -44.7 1.070e+04 6.615e-10
 11.72782    -44.0 1.041e+04 5.261e-10
 11.73794    -45.1 1.023e+04 4.903e-10
 11.75374    -44.7 9.962e+03 4.077e-10
 11.77398    -44.4 9.715e+03 3.588e-10
 11.79422    -43.9 9.531e+03 3.278e-10
 11.81166    -43.3 9.377e+03 3.108e-10
 11.82177    -43.8 9.296e+03 3.162e-10
 11.82623    -42.1 9.327e+03 3.089e-10
 11.84656    -43.3 9.126e+03 2.970e-10
 11.88548    -41.5 9.021e+03 2.907e-10
 11.92596    -41.0 9.272e+03 3.694e-10
 11.96643    -38.9 9.012e+03 3.193e-10
 12.00690    -36.9 8.732e+03 2.646e-10
 12.04738    -34.8 8.421e+03 2.094e-10
 12.07348    -32.8 8.143e+03 1.639e-10
 12.09371    -34.4 7.961e+03 1.471e-10
 12.11426    -32.3 7.767e+03 1.194e-10
 12.13449    -32.1 7.946e+03 1.294e-10
 12.16880    -29.9 7.816e+03 1.089e-10
 12.20928    -27.7 7.743e+03 9.789e-11
 12.24115    -25.2 7.719e+03 9.535e-11
 12.26139    -26.9 7.955e+03 1.304e-10
 12.29023    -24.2 8.008e+03 1.377e-10
 12.33070    -21.4 8.061e+03 1.429e-10
 12.37117    -18.7 8.108e+03 1.463e-10
 12.40219    -16.8 8.400e+03 1.677e-10
 12.41960    -15.7 8.665e+03 2.368e-10
 12.42896    -20.1 1.037e+04 4.829e-10
 12.45203    -19.1 1.155e+04 8.195e-10
 12.48238    -17.9 1.195e+04 1.024e-09
 12.50252    -18.6 1.243e+04 1.572e-09
 12.52276    -18.1 1.368e+04 3.240e-09
 12.54300    -16.9 1.406e+04 3.593e-09
 12.55608    -15.9 1.432e+04 3.639e-09
 12.56620    -16.3 1.487e+04 4.609e-09
 12.58347    -15.9 1.523e+04 5.001e-09
 12.59653    -15.9 1.524e+04 4.820e-09
 12.60665    -16.2 1.457e+04 3.676e-09
 12.62394    -16.4 1.464e+04 2.868e-09
 12.64418    -17.1 1.501e+04 2.032e-09
 12.66442    -18.1 1.529e+04 1.310e-09
 12.68037    -18.2 1.460e+04 1.039e-09
 12.69049    -18.4 1.567e+04 9.237e-10
 12.70004    -18.4 1.400e+04 8.246e-10
 12.71016    -18.3 1.734e+04 2.489e-09
 12.72513    -18.5 1.540e+04 1.483e-09
 12.74537    -18.7 1.337e+04 1.069e-09
 12.76420    -17.9 1.244e+04 9.587e-10
 12.77432    -18.1 1.283e+04 1.070e-09
 12.78584    -17.2 1.256e+04 9.913e-10
 12.80608    -15.9 1.261e+04 9.412e-10
 12.82632    -15.1 1.270e+04 8.718e-10
 12.84401    -14.4 1.281e+04 7.822e-10
 12.85413    -15.7 1.502e+04 1.329e-09
 12.85816    -15.4 1.481e+04 1.106e-09
 12.86828    -15.4 1.667e+04 2.101e-09
 12.88703    -15.8 1.612e+04 1.672e-09
 12.90727    -16.5 1.508e+04 1.309e-09
 12.92750    -17.7 1.376e+04 1.120e-09
 12.94199    -18.0 1.328e+04 1.080e-09
 12.95211    -20.5 1.593e+04 1.957e-09
 12.96798    -20.6 1.537e+04 2.023e-09
 12.98798    -20.0 1.508e+04 2.172e-09
 12.99810    -19.6 1.426e+04 2.422e-09
 13.00845    -19.1 1.380e+04 2.360e-09
 13.02583    -18.1 1.335e+04 2.382e-09
 13.03595    -19.2 1.367e+04 2.907e-09
 13.04893    -17.7 1.336e+04 2.725e-09
 13.06916    -16.0 1.316e+04 2.478e-09
 13.08940    -14.5 1.305e+04 2.146e-09
 13.10964    -13.3 1.309e+04 1.833e-09
 13.12987    -15.9 1.565e+04 2.026e-09
 13.14206    -15.2 1.518e+04 1.765e-09
 13.15218    -16.5 1.591e+04 1.692e-09
 13.17035    -15.9 1.524e+04 1.624e-09
 13.19059    -14.9 1.503e+04 1.634e-09
 13.20362    -13.9 1.488e+04 1.650e-09
 13.21374    -15.7 1.515e+04 4.016e-09
 13.23106    -14.7 1.507e+04 3.983e-09
 13.25130    -13.7 1.495e+04 3.719e-09
 13.27153    -12.9 1.479e+04 3.642e-09
 13.28603    -12.0 1.448e+04 3.973e-09
 13.29183    -11.6 1.508e+04 5.941e-09
 13.29757    -11.9 1.557e+04 7.482e-09
 13.31201    -11.0 1.554e+04 7.568e-09
 13.33225    -10.0 1.540e+04 7.303e-09
 13.35248     -8.8 1.534e+04 7.163e-09
 13.37129     -7.7 1.533e+04 7.030e-09
 13.38141     -7.8 1.518e+04 5.313e-09
 13.39296     -6.8 1.487e+04 4.692e-09
 13.41320     -5.6 1.446e+04 3.854e-09
 13.42999     -4.3 1.409e+04 3.221e-09
 13.44011     -4.1 1.418e+04 2.917e-09
 13.45367     -3.2 1.365e+04 2.219e-09
 13.46525     -2.8 1.319e+04 1.681e-09
 13.47536     -5.8 1.071e+04 5.622e-10
 13.49414     -5.2 1.027e+04 4.657e-10
 13.51438     -5.0 9.899e+03 4.206e-10
 13.53462     -3.8 9.686e+03 4.046e-10
 13.54908     -3.3 9.713e+03 4.170e-10
 13.55920     -3.8 9.332e+03 3.089e-10
 13.57396     -1.6 9.182e+03 3.012e-10
 13.59429     -0.8 9.615e+03 4.618e-10
 13.62299      1.6 9.538e+03 4.687e-10
 13.64323      0.8 8.515e+03 2.201e-10
 13.66636      3.1 8.536e+03 2.282e-10
 13.70683      5.6 8.529e+03 2.312e-10
 13.74730      8.2 8.461e+03 2.217e-10
 13.78778     10.8 8.365e+03 2.046e-10
 13.81090     13.1 8.271e+03 1.890e-10
 13.83114     12.3 8.111e+03 1.724e-10
 13.86209     14.7 8.138e+03 1.950e-10
 13.88232     15.4 8.308e+03 2.416e-10
 13.90920     18.0 8.437e+03 2.788e-10
 13.94968     20.6 8.783e+03 3.464e-10
 13.97857     22.6 9.170e+03 4.328e-10
 13.98860     20.9 9.284e+03 4.901e-10
 14.00007     21.6 9.495e+03 5.766e-10
 14.01598     22.4 9.681e+03 6.761e-10
 14.02610     22.6 9.530e+03 6.457e-10
 14.04055     23.4 9.866e+03 7.870e-10
 14.06079     24.0 1.027e+04 9.631e-10
 14.07233     24.4 1.067e+04 1.178e-09
 14.08245     23.8 1.070e+04 1.215e-09
 14.10126     24.2 1.114e+04 1.464e-09
 14.12150     24.3 1.165e+04 1.781e-09
 14.14173     24.3 1.222e+04 2.074e-09
 14.15617     24.1 1.277e+04 2.352e-09
 14.16426     23.5 1.223e+04 1.647e-09
 14.17006     23.7 1.271e+04 2.260e-09
 14.18221     23.6 1.279e+04 2.218e-09
 14.20245     23.5 1.268e+04 2.034e-09
 14.22268     23.4 1.223e+04 1.716e-09
 14.24001     22.9 1.166e+04 1.381e-09
 14.25012     21.3 1.044e+04 8.494e-10
 14.27337     22.3 1.093e+04 9.903e-10
 14.31392     22.8 1.038e+04 8.042e-10
 14.35439     22.8 9.342e+03 4.249e-10
 14.39490     24.4 9.567e+03 4.514e-10
 14.41789     24.7 1.012e+04 5.677e-10
 14.42791     23.2 1.004e+04 5.196e-10
 14.44529     22.1 1.042e+04 6.451e-10
 14.45799     21.5 1.063e+04 8.325e-10
 14.46811     20.2 1.044e+04 8.894e-10
 14.48577     20.7 1.053e+04 1.061e-09
 14.50163     21.7 1.072e+04 1.201e-09
 14.51175     21.5 1.039e+04 9.640e-10
 14.52624     22.5 1.041e+04 9.088e-10
 14.54648     23.3 1.038e+04 7.675e-10
 14.56672     23.4 1.015e+04 5.810e-10
 14.58547     22.9 9.675e+03 3.878e-10
 14.59559     21.3 9.088e+03 2.733e-10
 14.60196     20.9 8.850e+03 2.396e-10
 14.61208     20.5 8.693e+03 2.204e-10
 14.63764     21.6 8.508e+03 1.851e-10
 14.66950     22.9 8.322e+03 1.655e-10
 14.68973     23.2 8.225e+03 1.586e-10
 14.71869     25.2 8.237e+03 1.610e-10
 14.74612     27.3 8.319e+03 1.792e-10
 14.76636     27.3 8.016e+03 1.334e-10
 14.79964     29.7 8.279e+03 1.699e-10
 14.83717     32.2 8.584e+03 2.135e-10
 14.85741     31.7 9.333e+03 3.547e-10
 14.88059     34.2 9.601e+03 4.105e-10
 14.92106     36.5 9.845e+03 4.578e-10
 14.96154     38.8 1.006e+04 5.046e-10
 15.00201     41.0 1.025e+04 5.601e-10
 15.02508     43.4 1.036e+04 6.057e-10
 15.03688     42.2 1.052e+04 7.003e-10
 15.05429     43.3 1.029e+04 6.112e-10
 15.08296     46.7 1.060e+04 6.867e-10
 15.10882     48.4 1.080e+04 7.733e-10
 15.11884     47.8 1.078e+04 7.146e-10
 15.13336     48.9 1.083e+04 7.372e-10
 15.15360     50.3 1.088e+04 7.557e-10
 15.17383     51.7 1.096e+04 7.781e-10
 15.18794     53.0 1.104e+04 8.090e-10
 15.19655     53.4 1.092e+04 7.582e-10
 15.20267     52.7 1.053e+04 5.595e-10
 15.21431     54.0 1.059e+04 5.843e-10
 15.23454     55.3 1.066e+04 6.135e-10
 15.25478     56.7 1.074e+04 6.493e-10
 15.27502     57.9 1.083e+04 6.913e-10
 15.28651     59.2 1.093e+04 7.360e-10
 15.29663     58.4 1.061e+04 6.203e-10
 15.31549     59.8 1.075e+04 6.793e-10
 15.33191     61.0 1.091e+04 7.397e-10
 15.34203     61.5 1.070e+04 6.485e-10
 15.35597     62.8 1.084e+04 6.929e-10
 15.37034     63.9 1.095e+04 7.297e-10
 15.38046     63.6 1.075e+04 6.677e-10
 15.39644     64.9 1.084e+04 6.978e-10
 15.41668     66.0 1.094e+04 7.307e-10
 15.43692     67.0 1.102e+04 7.631e-10
 15.45418     68.0 1.110e+04 7.953e-10
 15.46430     67.9 1.085e+04 6.826e-10
 15.47587     68.9 1.095e+04 7.144e-10
 15.48599     69.6 1.083e+04 6.672e-10
 15.49763     70.5 1.096e+04 7.104e-10
 15.51786     71.3 1.108e+04 7.502e-10
 15.53802     72.1 1.117e+04 7.807e-10
 15.55825     73.1 1.116e+04 7.738e-10
 15.57858     73.9 1.129e+04 8.168e-10
 15.59881     74.7 1.141e+04 8.504e-10
 15.61905     75.4 1.150e+04 8.690e-10
 15.62996     76.0 1.155e+04 8.675e-10
 15.63276     76.8 1.171e+04 9.519e-10
 15.64209     77.0 1.188e+04 1.070e-09
 15.65953     77.3 1.203e+04 1.108e-09
 15.67976     77.0 1.245e+04 1.218e-09
 15.70000     75.3 1.369e+04 1.679e-09
 15.71581     72.0 1.599e+04 3.080e-09
 15.72592     70.3 1.734e+04 5.505e-09
 15.74047     66.5 1.945e+04 1.207e-08
 15.75560     64.6 2.017e+04 1.767e-08
 15.76268     63.4 2.072e+04 2.764e-08
 15.76774     63.3 2.126e+04 4.373e-08
 15.77383     62.9 2.165e+04 5.298e-08
 15.77889     63.7 2.195e+04 5.894e-08
 15.78591     62.8 2.196e+04 5.648e-08
 15.79603     61.8 2.184e+04 4.521e-08
 15.80460     60.5 2.151e+04 3.060e-08
 15.80966     60.5 2.172e+04 3.183e-08
 15.82137     57.5 2.063e+04 1.537e-08
 15.84166     53.1 1.797e+04 6.599e-09
 15.86190     49.6 1.490e+04 3.550e-09
 15.88213     48.5 1.328e+04 2.481e-09
 15.89360     48.6 1.277e+04 1.924e-09
 15.90371     47.6 1.232e+04 1.565e-09
 15.91789     48.3 1.197e+04 1.247e-09
 15.92801     48.4 1.188e+04 1.204e-09
 15.94285     49.1 1.145e+04 9.733e-10
 15.96308     49.7 1.100e+04 7.849e-10
 15.97743     50.3 1.065e+04 6.556e-10
 15.98755     49.9 1.053e+04 6.223e-10
 16.00356     50.9 1.023e+04 5.211e-10
 16.02380     51.2 1.019e+04 4.936e-10
 16.05125     52.9 9.951e+03 4.357e-10
 16.07158     52.7 9.766e+03 3.866e-10
 16.09482     54.3 9.505e+03 3.319e-10
 16.13530     55.7 9.339e+03 3.125e-10
 16.17577     57.3 9.247e+03 3.062e-10
 16.20602     58.9 9.183e+03 3.022e-10
 16.22626     58.3 9.223e+03 3.036e-10
 16.23925     59.9 9.095e+03 2.833e-10
 16.25949     59.5 9.084e+03 2.810e-10
 16.29719     61.1 9.102e+03 2.842e-10
 16.33767     62.8 9.163e+03 2.960e-10
 16.37814     64.6 9.292e+03 3.198e-10
 16.40692     66.3 9.538e+03 3.766e-10
 16.42716     65.6 9.570e+03 3.800e-10
 16.45909     67.1 1.003e+04 4.917e-10
 16.48935     67.6 1.037e+04 6.141e-10
 16.50068     67.9 1.071e+04 7.596e-10
 16.50519     67.4 1.072e+04 7.693e-10
 16.51399     66.7 1.124e+04 1.046e-09
 16.52973     67.3 1.149e+04 1.177e-09
 16.54996     67.9 1.162e+04 1.222e-09
 16.57020     68.3 1.162e+04 1.214e-09
 16.58452     68.7 1.158e+04 1.181e-09
 16.59464     68.2 1.129e+04 1.004e-09
 16.61067     68.5 1.117e+04 9.346e-10
 16.63091     68.8 1.102e+04 8.522e-10
 16.64784     69.1 1.087e+04 7.762e-10
 16.65796     68.5 1.106e+04 8.575e-10
 16.66835     68.6 1.092e+04 7.884e-10
 16.67847     68.2 1.069e+04 6.685e-10
 16.69162     68.3 1.064e+04 6.470e-10
 16.71186     68.6 1.064e+04 6.473e-10
 16.73210     68.9 1.066e+04 6.529e-10
 16.75219     69.3 1.070e+04 6.666e-10
 16.76231     68.6 1.052e+04 5.690e-10
 16.77257     69.0 1.055e+04 5.932e-10
 16.79181     68.7 1.069e+04 6.592e-10
 16.80193     66.9 1.134e+04 8.960e-10
 16.81305     64.8 1.279e+04 1.375e-09
 16.83328     62.3 1.426e+04 2.404e-09
 16.84614     60.5 1.531e+04 4.059e-09
 16.85626     59.1 1.528e+04 4.269e-09
 16.86865     59.3 1.552e+04 4.949e-09
 16.87381     59.1 1.583e+04 5.648e-09
 16.87887     58.1 1.621e+04 6.626e-09
 16.88796     57.9 1.660e+04 8.093e-09
 16.89302     57.7 1.631e+04 7.547e-09
 16.89896     57.6 1.641e+04 7.830e-09
 16.91418     57.6 1.706e+04 9.176e-09
 16.92998     56.5 1.738e+04 9.094e-09
 16.94010     55.8 1.632e+04 6.534e-09
 16.94589     53.8 1.623e+04 5.974e-09
 16.95601     51.4 1.610e+04 5.698e-09
 16.97494     49.3 1.555e+04 5.228e-09
 16.99518     47.8 1.514e+04 5.002e-09
 17.01382     47.2 1.487e+04 4.844e-09
 17.02393     47.6 1.382e+04 3.248e-09
 17.03566     47.6 1.365e+04 3.198e-09
 17.05589     47.7 1.335e+04 3.076e-09
 17.07613     47.3 1.356e+04 3.122e-09
 17.08986     45.1 1.535e+04 3.594e-09
 17.09998     38.8 1.859e+04 5.536e-09
 17.10777     33.8 2.005e+04 8.715e-09
 17.11789     36.0 1.930e+04 6.997e-09
 17.13173     33.2 2.009e+04 9.482e-09
 17.14180     31.7 1.993e+04 1.128e-08
 17.14959     30.1 2.023e+04 1.273e-08
 17.15465     31.2 2.011e+04 1.151e-08
 17.16174     29.8 2.017e+04 1.265e-08
 17.16680     27.7 1.969e+04 1.275e-08
 17.17216     26.0 1.998e+04 1.149e-08
 17.18228     24.9 1.975e+04 1.052e-08
 17.19156     24.2 2.010e+04 8.979e-09
 17.20172     26.3 1.988e+04 8.666e-09
 17.21779     20.7 1.945e+04 4.248e-09
 17.23382     13.1 1.623e+04 1.533e-09
 17.24394      4.6 1.109e+04 8.753e-10
 17.25826      3.0 1.006e+04 7.000e-10
 17.27544      3.1 9.809e+03 6.366e-10
 17.28556      3.5 9.760e+03 6.059e-10
 17.29874      3.4 9.721e+03 5.926e-10
 17.31898      3.1 9.592e+03 5.520e-10
 17.33921      2.9 9.361e+03 4.486e-10
 17.35928      2.6 9.256e+03 4.184e-10
 17.36940      2.8 9.231e+03 4.160e-10
 17.37789      4.3 9.020e+03 3.707e-10
 17.39822      1.9 8.771e+03 3.231e-10
 17.43048      2.7 8.429e+03 2.683e-10
 17.45343      3.6 8.227e+03 2.351e-10
 17.47366      3.9 7.775e+03 1.691e-10
 17.51143      5.0 7.635e+03 1.540e-10
 17.55190      6.4 7.623e+03 1.542e-10
 17.59237      8.0 7.636e+03 1.580e-10
 17.62110      9.6 7.659e+03 1.630e-10
 17.64133     10.2 7.455e+03 1.377e-10
 17.66592     12.0 7.528e+03 1.469e-10
 17.68615     11.2 7.577e+03 1.499e-10
 17.71380     13.1 7.655e+03 1.568e-10
 17.75427     15.1 7.673e+03 1.560e-10
 17.78877     17.1 7.664e+03 1.510e-10
 17.80901     18.0 7.664e+03 1.509e-10
 17.83522     20.0 7.631e+03 1.416e-10
 17.87570     22.0 7.610e+03 1.305e-10
 17.91617     24.0 7.569e+03 1.272e-10
 17.95385     26.0 7.573e+03 1.331e-10
 17.97388     25.8 7.575e+03 1.245e-10
 17.97668     26.5 7.718e+03 1.534e-10
 17.99712     28.6 7.978e+03 1.797e-10
 18.03759     30.8 8.236e+03 2.132e-10
 18.07807     33.0 8.442e+03 2.434e-10
 18.11854     35.0 8.609e+03 2.530e-10
 18.14435     37.0 8.623e+03 2.505e-10
 18.16459     37.6 9.284e+03 3.966e-10
 18.19949     39.5 9.276e+03 3.881e-10
 18.23996     41.4 9.231e+03 3.680e-10
 18.26202     43.3 9.185e+03 3.524e-10
 18.28226     43.5 9.056e+03 3.230e-10
 18.31202     45.5 9.080e+03 3.279e-10
 18.33226     46.1 9.321e+03 3.905e-10
 18.36139     48.1 9.276e+03 3.785e-10
 18.40186     50.3 9.300e+03 3.876e-10
 18.44234     52.4 9.348e+03 4.001e-10
 18.47969     54.4 9.425e+03 4.168e-10
 18.49993     55.2 9.026e+03 3.174e-10
 18.52329     57.2 9.092e+03 3.211e-10
 18.54995     59.1 9.152e+03 3.247e-10
 18.57019     59.7 9.239e+03 3.517e-10
 18.60423     61.6 9.254e+03 3.373e-10
 18.64471     63.6 9.272e+03 3.255e-10
 18.66760     65.4 9.301e+03 3.261e-10
 18.68784     66.5 8.840e+03 2.467e-10
 18.72566     68.4 8.900e+03 2.515e-10
 18.76613     70.3 9.017e+03 2.709e-10
 18.80661     72.2 9.143e+03 3.040e-10
 18.83527     74.0 9.292e+03 3.462e-10
 18.84631     75.1 8.856e+03 2.414e-10
 18.85812     76.0 8.811e+03 2.313e-10
 18.88756     77.8 8.955e+03 2.541e-10
 18.92803     79.5 9.092e+03 2.748e-10
 18.96850     81.0 9.191e+03 2.901e-10
 19.00294     82.4 9.252e+03 3.016e-10
 19.02318     83.7 8.804e+03 2.072e-10
 19.04945     85.2 8.908e+03 2.267e-10
 19.08993     86.7 9.026e+03 2.509e-10
 19.12582     88.2 9.219e+03 2.882e-10
 19.14605     89.1 9.228e+03 2.650e-10
 19.17061     90.3 9.485e+03 3.135e-10
 19.19085     91.6 9.154e+03 2.441e-10
 19.21135     92.7 9.382e+03 2.931e-10
 19.24161     93.1 9.646e+03 3.618e-10
 19.26175     93.3 1.003e+04 4.598e-10
 19.27449     93.5 1.065e+04 6.352e-10
 19.28233     94.6 1.002e+04 4.646e-10
 19.28982     94.7 9.971e+03 4.433e-10
 19.30222     94.9 1.055e+04 5.994e-10
 19.32246     95.1 1.131e+04 8.894e-10
 19.34270     95.3 1.202e+04 1.229e-09
 19.35833     95.7 1.254e+04 1.644e-09
 19.37866     96.9 1.152e+04 1.022e-09
 19.41372     97.6 1.187e+04 1.265e-09
 19.45420     98.7 1.195e+04 1.345e-09
 19.49467     99.1 1.181e+04 1.190e-09
 19.52620     99.5 1.151e+04 9.626e-10
 19.54643    102.3 1.162e+04 1.098e-09
 19.57562    102.7 1.181e+04 1.142e-09
 19.61609    103.6 1.206e+04 1.198e-09
 19.65657    103.9 1.240e+04 1.292e-09
 19.68683    103.4 1.283e+04 1.503e-09
 19.70379    103.0 1.318e+04 1.697e-09
 19.71391    104.0 1.366e+04 2.565e-09
 19.72172    103.8 1.380e+04 2.574e-09
 19.73184    103.0 1.341e+04 2.170e-09
 19.74744    102.5 1.338e+04 2.081e-09
 19.76768    101.9 1.327e+04 1.976e-09
 19.78763    101.2 1.300e+04 1.820e-09
 19.79774    102.5 1.290e+04 1.669e-09
 19.80815    101.9 1.244e+04 1.409e-09
 19.82839    101.5 1.200e+04 1.228e-09
 19.85884    101.5 1.152e+04 1.026e-09
 19.88178    102.6 1.083e+04 7.156e-10
 19.90201    104.2 1.068e+04 6.203e-10
 19.93989    105.1 1.003e+04 4.252e-10
 19.98036    106.0 9.575e+03 3.045e-10
 20.00985    107.1 9.503e+03 2.682e-10
 20.03009    106.5 9.506e+03 2.632e-10
 20.04945    107.9 9.528e+03 2.765e-10
 20.06968    108.9 9.455e+03 2.770e-10
 20.10179    110.0 9.615e+03 3.087e-10
 20.14226    111.1 9.990e+03 4.009e-10
 20.18274    112.3 1.038e+04 5.227e-10
 20.21299    112.5 1.063e+04 6.354e-10
 20.22704    112.6 1.082e+04 7.305e-10
 20.23726    112.8 1.097e+04 7.949e-10
 20.26369    113.4 1.144e+04 9.955e-10
 20.29778    113.6 1.183e+04 1.194e-09
 20.31802    112.0 1.220e+04 1.336e-09
 20.34463    111.7 1.221e+04 1.309e-09
 20.38479    111.2 1.214e+04 1.234e-09
 20.40503    110.9 1.264e+04 1.471e-09
 20.42558    110.6 1.246e+04 1.286e-09
 20.45177    110.8 1.220e+04 1.158e-09
 20.46179    110.0 1.227e+04 1.161e-09
 20.47598    109.2 1.218e+04 1.077e-09
 20.48867    108.5 1.207e+04 9.915e-10
 20.49879    108.5 1.227e+04 1.198e-09
 20.51646    108.0 1.201e+04 1.068e-09
 20.53669    107.6 1.177e+04 9.568e-10
 20.55693    107.3 1.161e+04 8.736e-10
 20.57250    107.0 1.151e+04 8.130e-10
 20.58262    107.4 1.154e+04 7.963e-10
 20.59564    107.1 1.142e+04 6.995e-10
 20.60576    106.1 1.139e+04 6.465e-10
 20.61764    105.8 1.127e+04 5.831e-10
 20.63788    105.5 1.117e+04 5.443e-10
 20.65634    104.9 1.111e+04 5.059e-10
 20.66646    105.0 1.094e+04 4.601e-10
 20.67835    104.4 1.092e+04 4.508e-10
 20.70881    104.1 1.088e+04 4.176e-10
 20.74037    104.4 1.064e+04 3.590e-10
 20.76061    104.6 1.080e+04 4.165e-10
 20.78985    104.9 1.070e+04 3.822e-10
 20.83033    105.3 1.058e+04 3.426e-10
 20.87080    105.7 1.049e+04 3.105e-10
 20.89388    106.2 1.040e+04 2.879e-10
 20.91089    104.5 1.038e+04 2.810e-10
 20.92828    104.6 1.031e+04 2.868e-10
 20.95175    105.3 1.021e+04 2.611e-10
 20.99223    106.1 1.012e+04 2.303e-10
 21.03270    107.1 1.003e+04 2.005e-10
 21.07317    108.3 1.004e+04 1.881e-10
 21.09595    109.6 1.007e+04 1.905e-10
 21.11619    109.9 9.933e+03 1.860e-10
 21.15412    111.5 1.013e+04 2.037e-10
 21.18182    113.1 1.039e+04 2.365e-10
 21.19184    110.7 1.031e+04 2.195e-10
 21.20452    110.6 1.069e+04 2.462e-10
 21.22476    109.7 1.148e+04 3.500e-10
 21.24499    108.4 1.233e+04 5.929e-10
 21.26343    107.3 1.311e+04 1.068e-09
 21.27354    106.8 1.363e+04 1.417e-09
 21.28547    106.5 1.428e+04 2.449e-09
 21.30571    106.6 1.478e+04 3.715e-09
 21.32559    107.0 1.510e+04 4.807e-09
 21.33571    106.1 1.506e+04 4.992e-09
 21.34618    106.8 1.494e+04 4.858e-09
 21.35738    107.5 1.475e+04 4.151e-09
 21.36750    108.0 1.454e+04 3.666e-09
 21.38666    108.0 1.406e+04 2.452e-09
 21.40689    107.3 1.342e+04 1.436e-09
 21.42713    105.4 1.254e+04 7.911e-10
 21.44122    103.1 1.143e+04 4.816e-10
 21.45133    102.5 1.099e+04 3.644e-10
 21.46760    100.9 1.033e+04 3.111e-10
 21.47967    100.9 1.028e+04 3.120e-10
 21.48979    100.3 1.020e+04 2.987e-10
 21.51829    101.8 1.019e+04 2.973e-10
 21.55887    103.8 1.023e+04 3.271e-10
 21.59896    105.7 1.035e+04 3.799e-10
 21.61920    106.9 1.028e+04 3.424e-10
 21.63982    108.0 1.043e+04 3.994e-10
 21.67007    108.8 1.056e+04 5.002e-10
 21.69021    109.8 1.073e+04 5.953e-10
 21.70284    110.8 1.091e+04 6.605e-10
 21.71296    110.9 1.080e+04 6.634e-10
 21.73069    111.8 1.104e+04 7.012e-10
 21.75093    112.0 1.125e+04 7.096e-10
 21.76760    112.0 1.135e+04 7.126e-10
 21.77772    111.4 1.130e+04 7.093e-10
 21.78668    111.1 1.138e+04 7.134e-10
 21.79680    111.7 1.153e+04 8.180e-10
 21.81164    111.3 1.159e+04 8.188e-10
 21.83187    110.8 1.159e+04 8.354e-10
 21.85211    110.3 1.150e+04 8.815e-10
 21.87051    109.9 1.142e+04 9.498e-10
 21.88063    110.7 1.163e+04 9.694e-10
 21.89259    110.3 1.159e+04 9.953e-10
 21.91157    109.9 1.160e+04 1.057e-09
 21.92169    109.1 1.151e+04 9.983e-10
 21.93306    108.5 1.167e+04 1.084e-09
 21.95330    107.7 1.195e+04 1.248e-09
 21.96447    106.8 1.235e+04 1.549e-09
 21.97459    107.3 1.200e+04 1.213e-09
 21.99377    106.6 1.240e+04 1.523e-09
 22.01401    106.1 1.284e+04 1.935e-09
 22.03425    105.8 1.326e+04 2.280e-09
 22.04830    105.2 1.338e+04 2.327e-09
 22.05842    105.5 1.285e+04 1.798e-09
 22.06565    104.8 1.282e+04 1.781e-09
 22.07577    104.0 1.241e+04 1.536e-09
 22.09496    103.5 1.219e+04 1.427e-09
 22.11519    103.2 1.178e+04 1.200e-09
 22.13214    103.2 1.133e+04 9.294e-10
 22.14226    103.8 1.124e+04 8.778e-10
 22.15567    103.8 1.088e+04 6.559e-10
 22.17591    103.6 1.062e+04 4.970e-10
 22.20636    103.8 1.034e+04 3.611e-10
 22.24693    104.7 1.015e+04 3.219e-10
 22.28741    106.1 1.016e+04 3.268e-10
 22.31012    107.2 1.022e+04 3.508e-10
 22.33036    108.8 1.026e+04 3.282e-10
 22.35378    109.6 1.036e+04 3.631e-10
 22.37402    109.4 1.041e+04 3.691e-10
 22.39386    109.9 1.056e+04 4.318e-10
 22.40388    110.1 1.057e+04 4.174e-10
 22.41875    110.7 1.081e+04 4.947e-10
 22.43899    111.3 1.108e+04 5.826e-10
 22.45923    111.9 1.127e+04 6.167e-10
 22.47760    112.3 1.129e+04 6.173e-10
 22.48772    112.5 1.123e+04 6.720e-10
 22.49755    112.7 1.123e+04 6.705e-10
 22.50767    112.6 1.130e+04 7.188e-10
 22.51994    112.9 1.130e+04 7.107e-10
 22.54018    113.1 1.127e+04 6.867e-10
 22.56041    113.4 1.131e+04 6.470e-10
 22.57155    113.4 1.133e+04 6.384e-10
 22.58167    113.5 1.136e+04 6.476e-10
 22.61110    114.6 1.130e+04 5.716e-10
 22.64171    115.8 1.122e+04 5.044e-10
 22.65574    115.9 1.120e+04 5.433e-10
 22.66570    116.4 1.112e+04 5.600e-10
 22.69215    118.0 1.102e+04 4.689e-10
 22.73262    119.6 1.098e+04 3.921e-10
 22.77310    121.2 1.096e+04 3.347e-10
 22.81314    122.9 1.101e+04 2.982e-10
 22.83338    123.3 1.074e+04 2.085e-10
 22.85405    125.2 1.075e+04 2.087e-10
 22.89452    127.1 1.081e+04 2.107e-10
 22.92965    129.0 1.091e+04 2.133e-10
 22.94988    129.1 1.092e+04 2.346e-10
 22.97547    130.9 1.102e+04 2.433e-10
 23.00105    132.5 1.109e+04 2.546e-10
 23.02128    133.4 1.098e+04 1.965e-10
 23.05642    135.0 1.110e+04 2.067e-10
 23.09689    136.5 1.119e+04 2.288e-10
 23.13737    138.1 1.126e+04 2.614e-10
 23.16872    139.7 1.133e+04 2.968e-10
 23.18896    140.8 1.126e+04 2.645e-10
 23.21758    142.6 1.128e+04 2.977e-10
 23.23782    142.5 1.151e+04 3.805e-10
 23.25879    144.4 1.156e+04 3.936e-10
 23.29927    146.3 1.163e+04 3.976e-10
 23.33639    148.3 1.173e+04 3.941e-10
 23.35663    149.4 1.145e+04 3.388e-10
 23.38022    151.5 1.149e+04 3.508e-10
 23.42069    153.5 1.170e+04 3.735e-10
 23.46116    155.4 1.192e+04 3.844e-10
 23.50164    157.2 1.193e+04 3.782e-10
 23.52430    159.2 1.193e+04 3.571e-10
 23.52817    160.3 1.162e+04 2.969e-10
 23.54598    160.0 1.160e+04 2.632e-10
 23.58259    161.9 1.159e+04 2.516e-10
 23.62306    163.8 1.158e+04 2.455e-10
 23.66354    165.7 1.160e+04 2.502e-10
 23.69197    167.4 1.169e+04 2.717e-10
 23.71221    168.2 1.153e+04 2.176e-10
 23.74449    169.8 1.173e+04 2.596e-10
 23.78496    171.0 1.192e+04 3.197e-10
 23.81358    171.4 1.202e+04 3.748e-10
 23.82360    171.1 1.209e+04 3.973e-10
 23.83536    171.5 1.219e+04 4.827e-10
 23.85954    172.5 1.219e+04 6.148e-10
 23.87978    172.6 1.247e+04 7.343e-10
 23.89607    173.1 1.269e+04 8.759e-10
 23.91631    173.4 1.290e+04 1.019e-09
 23.93654    173.6 1.316e+04 1.181e-09
 23.95340    173.7 1.323e+04 1.288e-09
 23.96352    174.2 1.320e+04 1.502e-09
 23.96757    174.3 1.335e+04 1.514e-09
 23.97769    174.2 1.323e+04 1.424e-09
 23.99726    174.2 1.326e+04 1.422e-09
 24.02721    174.3 1.308e+04 1.322e-09
 24.04745    174.9 1.307e+04 1.347e-09
 24.05797    175.2 1.305e+04 1.328e-09
 24.07820    175.4 1.301e+04 1.323e-09
 24.09844    175.7 1.301e+04 1.334e-09
 24.11154    175.9 1.298e+04 1.344e-09
 24.12165    176.0 1.303e+04 1.423e-09
 24.13119    176.3 1.308e+04 1.445e-09
 24.14131    176.5 1.305e+04 1.497e-09
 24.15915    176.7 1.311e+04 1.526e-09
 24.17939    176.8 1.311e+04 1.523e-09
 24.19963    176.8 1.304e+04 1.481e-09
 24.21512    177.0 1.267e+04 1.276e-09
 24.22524    177.6 1.256e+04 1.279e-09
 24.24010    177.7 1.228e+04 1.118e-09
 24.27056    178.5 1.183e+04 8.916e-10
 24.31113    179.7 1.136e+04 6.694e-10
 24.35160    181.0 1.103e+04 5.625e-10
 24.38289    181.8 1.071e+04 5.033e-10
 24.40060    183.9 1.065e+04 4.793e-10
 24.40968    182.7 1.072e+04 5.085e-10
 24.42224    182.9 1.058e+04 5.030e-10
 24.44247    183.4 1.043e+04 4.968e-10
 24.46271    184.1 1.033e+04 4.920e-10
 24.47665    184.5 1.027e+04 4.883e-10
 24.48677    185.0 1.037e+04 5.017e-10
 24.51340    185.6 1.022e+04 4.765e-10
 24.55056    187.2 9.998e+03 4.431e-10
 24.57080    188.6 1.017e+04 4.874e-10
 24.59445    190.1 9.849e+03 4.317e-10
 24.63492    191.7 9.605e+03 3.946e-10
 24.67540    193.8 9.629e+03 3.964e-10
 24.69771    195.7 9.767e+03 4.223e-10
 24.70773    194.9 9.773e+03 4.223e-10
 24.72579    195.9 9.879e+03 4.444e-10
 24.73828    196.0 1.007e+04 5.080e-10
 24.75861    198.7 9.883e+03 4.243e-10
 24.78660    198.7 1.011e+04 4.870e-10
 24.80674    198.3 1.052e+04 6.846e-10
 24.83720    198.9 1.068e+04 8.035e-10
 24.87777    200.1 1.080e+04 9.372e-10
 24.90614    201.7 1.075e+04 9.258e-10
 24.91617    201.6 1.067e+04 9.438e-10
 24.92817    202.0 1.072e+04 9.871e-10
 24.94840    202.4 1.071e+04 9.707e-10
 24.96864    202.7 1.066e+04 9.201e-10
 24.98545    202.9 1.053e+04 8.359e-10
 24.99557    202.8 1.029e+04 7.396e-10
 24.99990    202.9 1.012e+04 6.627e-10
 25.01002    203.7 1.051e+04 8.367e-10
 25.02935    203.8 1.040e+04 7.706e-10
 25.04959    203.7 1.031e+04 7.072e-10
 25.06983    203.1 1.015e+04 6.278e-10
 25.08374    202.4 9.959e+03 5.655e-10
 25.09386    203.5 1.050e+04 7.375e-10
 25.12052    204.5 1.031e+04 6.830e-10
 25.16109    204.8 9.799e+03 5.549e-10
 25.20156    205.1 9.253e+03 4.399e-10
 25.24149    205.5 8.748e+03 3.435e-10
 25.26172    206.9 9.021e+03 3.886e-10
 25.27358    207.2 8.420e+03 2.779e-10
 25.29382    207.1 8.398e+03 2.757e-10
 25.32299    207.7 7.898e+03 1.968e-10
 25.36346    208.4 7.454e+03 1.424e-10
 25.40394    209.2 7.161e+03 1.128e-10
 25.42940    210.2 7.120e+03 1.079e-10
 25.44963    211.1 7.163e+03 1.114e-10
 25.48489    212.3 7.162e+03 1.112e-10
 25.52536    213.6 7.165e+03 1.117e-10
 25.56151    214.9 7.195e+03 1.141e-10
 25.58175    214.7 7.190e+03 1.143e-10
 25.59707    215.8 7.250e+03 1.217e-10
 25.61730    216.7 7.246e+03 1.205e-10
 25.64678    217.8 7.338e+03 1.307e-10
 25.68726    218.7 7.514e+03 1.512e-10
 25.72773    219.5 7.867e+03 1.888e-10
 25.76474    219.9 8.354e+03 2.500e-10
 25.78498    220.7 8.361e+03 2.495e-10
 25.80868    220.7 8.876e+03 3.279e-10
 25.83894    220.4 9.149e+03 3.759e-10
 25.85850    219.9 9.493e+03 4.458e-10
 25.86862    220.0 9.588e+03 4.664e-10
 25.86948    219.1 1.006e+04 6.170e-10
 25.87960    219.0 1.004e+04 6.301e-10
 25.89955    218.3 1.027e+04 7.822e-10
 25.91979    217.7 1.041e+04 9.322e-10
 25.94003    216.0 1.115e+04 1.259e-09
 25.95245    210.9 1.384e+04 1.990e-09
 25.96257    213.0 1.328e+04 1.872e-09
 25.98050    206.8 1.571e+04 2.902e-09
 26.00074    203.0 1.675e+04 3.931e-09
 26.01340    199.1 1.825e+04 5.961e-09
 26.01841    198.5 1.839e+04 6.126e-09
 26.02594    194.7 1.965e+04 9.331e-09
 26.03606    190.9 2.045e+04 1.197e-08
 26.04125    187.3 2.055e+04 1.203e-08
 26.04631    188.8 2.093e+04 1.411e-08
 26.05629    185.4 2.093e+04 1.370e-08
 26.06641    182.2 2.085e+04 1.171e-08
 26.07653    177.9 2.085e+04 8.114e-09
 26.08317    174.9 2.040e+04 5.944e-09
 26.08691    176.2 2.156e+04 7.864e-09
 26.09040    175.1 2.136e+04 7.006e-09
 26.09677    168.6 2.061e+04 4.195e-09
 26.10689    165.5 1.955e+04 3.507e-09
 26.12007    158.8 1.742e+04 2.533e-09
 26.13019    157.0 1.698e+04 2.912e-09
 26.14235    151.1 1.489e+04 2.761e-09
 26.15742    143.9 1.468e+04 2.829e-09
 26.16754    143.1 1.436e+04 2.681e-09
 26.18287    136.8 1.527e+04 3.097e-09
 26.20311    131.1 1.585e+04 3.812e-09
 26.21408    126.3 1.571e+04 3.899e-09
 26.22420    127.8 1.536e+04 3.190e-09
 26.24359    123.7 1.493e+04 3.147e-09
 26.26382    121.3 1.409e+04 2.809e-09
 26.28406    120.1 1.334e+04 2.185e-09
 26.29791    119.4 1.274e+04 1.451e-09
 26.30512    120.2 1.291e+04 1.785e-09
 26.31150    120.9 1.287e+04 1.737e-09
 26.32453    120.2 1.240e+04 1.088e-09
 26.34477    118.6 1.180e+04 6.328e-10
 26.36501    116.4 1.098e+04 4.139e-10
 26.38175    114.7 1.030e+04 3.784e-10
 26.39187    116.6 1.084e+04 4.995e-10
 26.40548    115.5 1.072e+04 5.008e-10
 26.42572    114.9 1.071e+04 5.230e-10
 26.44535    114.4 1.081e+04 6.179e-10
 26.45547    115.0 1.060e+04 5.314e-10
 26.46558    114.8 1.084e+04 6.804e-10
 26.47570    115.4 1.146e+04 9.401e-10
 26.48643    115.2 1.177e+04 1.210e-09
 26.50667    115.4 1.205e+04 1.434e-09
 26.52691    115.5 1.234e+04 1.488e-09
 26.54714    115.3 1.236e+04 1.452e-09
 26.55954    114.7 1.239e+04 1.363e-09
 26.56966    114.7 1.358e+04 2.244e-09
 26.58762    113.7 1.375e+04 2.170e-09
 26.59943    112.3 1.382e+04 2.173e-09
 26.60955    113.3 1.399e+04 2.357e-09
 26.62809    111.7 1.410e+04 2.408e-09
 26.64337    110.3 1.420e+04 2.625e-09
 26.65349    111.2 1.552e+04 4.315e-09
 26.66857    110.5 1.557e+04 4.627e-09
 26.68880    110.1 1.557e+04 4.895e-09
 26.70904    109.8 1.555e+04 4.909e-09
 26.72721    109.8 1.556e+04 4.835e-09
 26.73733    109.9 1.648e+04 6.063e-09
 26.74335    110.0 1.644e+04 5.899e-09
 26.74836    110.1 1.661e+04 6.253e-09
 26.75448    110.1 1.661e+04 6.134e-09
 26.76460    110.2 1.668e+04 6.168e-09
 26.77409    110.1 1.693e+04 6.394e-09
 26.77915    109.9 1.753e+04 7.446e-09
 26.78483    109.7 1.813e+04 8.363e-09
 26.79495    108.6 1.945e+04 1.016e-08
 26.80507    106.4 2.159e+04 1.373e-08
 26.81519    103.5 2.352e+04 2.154e-08
 26.82034    101.0 2.406e+04 3.927e-08
 26.82116    100.1 2.374e+04 4.299e-08
 26.82613     99.8 2.383e+04 5.624e-08
 26.83543     99.9 2.301e+04 1.237e-07
 26.84554    100.4 2.264e+04 2.282e-07
 26.85311    100.4 2.243e+04 3.281e-07
 26.85629    100.2 2.208e+04 4.852e-07
 26.85882    100.0 2.238e+04 4.618e-07
 26.86294     98.8 2.241e+04 5.483e-07
 26.86547     98.2 2.239e+04 5.502e-07
 26.86826     96.8 2.235e+04 5.457e-07
 26.87588     94.8 2.220e+04 5.316e-07
 26.88602     92.9 2.257e+04 3.744e-07
 26.89233     91.4 2.424e+04 1.832e-07
 26.89739     92.0 2.433e+04 1.381e-07
 26.90490     89.2 2.721e+04 5.956e-08
 26.90996     86.6 2.813e+04 5.106e-08
 26.91637     81.2 2.860e+04 3.292e-08
 26.92649     75.9 2.604e+04 3.174e-08
 26.93661     72.5 2.456e+04 3.268e-08
 26.94673     70.6 2.419e+04 3.402e-08
 26.95188     69.6 2.374e+04 3.834e-08
 26.95694     68.1 2.348e+04 4.512e-08
 26.96431     68.0 2.356e+04 4.950e-08
 26.96937     68.8 2.255e+04 4.251e-08
 26.97709     68.8 2.274e+04 4.559e-08
 26.98720     68.8 2.284e+04 4.493e-08
 26.99380     68.9 2.289e+04 3.996e-08
 26.99886     68.7 2.253e+04 3.751e-08
 27.00744     68.9 2.247e+04 2.774e-08
 27.01756     68.6 2.242e+04 1.984e-08
 27.03128     66.4 2.194e+04 9.823e-09
 27.04145     68.6 2.116e+04 1.114e-08
 27.05307     65.3 1.988e+04 4.920e-09
 27.07267     59.9 1.636e+04 2.480e-09
 27.08279     57.0 1.382e+04 2.185e-09
 27.09355     55.6 1.302e+04 2.157e-09
 27.11379     56.1 1.303e+04 2.207e-09
 27.13402     56.9 1.314e+04 2.335e-09
 27.15426     57.7 1.331e+04 2.487e-09
 27.16663     58.3 1.350e+04 2.624e-09
 27.17674     58.5 1.362e+04 2.807e-09
 27.18542     58.9 1.376e+04 2.933e-09
 27.19554     59.5 1.372e+04 2.943e-09
 27.21497     59.7 1.395e+04 3.091e-09
 27.23521     59.8 1.418e+04 3.266e-09
 27.25046     59.7 1.449e+04 3.500e-09
 27.26058     60.1 1.436e+04 3.441e-09
 27.27568     59.7 1.462e+04 3.638e-09
 27.29592     59.1 1.496e+04 3.847e-09
 27.31616     58.1 1.518e+04 3.949e-09
 27.32938     57.0 1.519e+04 3.843e-09
 27.33740     57.4 1.573e+04 4.577e-09
 27.34442     58.2 1.543e+04 4.439e-09
 27.35663     57.0 1.547e+04 4.405e-09
 27.37687     55.7 1.528e+04 4.114e-09
 27.39711     54.4 1.481e+04 3.627e-09
 27.41734     53.2 1.428e+04 3.152e-09
 27.42825     52.1 1.409e+04 2.934e-09
 27.43837     53.6 1.435e+04 3.335e-09
 27.45782     52.4 1.447e+04 3.416e-09
 27.47335     51.2 1.484e+04 3.773e-09
 27.48347     51.0 1.504e+04 4.083e-09
 27.49829     50.0 1.517e+04 4.436e-09
 27.51209     49.4 1.509e+04 4.391e-09
 27.52221     50.7 1.560e+04 5.300e-09
 27.53877     50.4 1.535e+04 5.012e-09
 27.55900     50.7 1.461e+04 4.043e-09
 27.57924     50.9 1.369e+04 2.784e-09
 27.59592     50.6 1.283e+04 1.798e-09
 27.60604     52.2 1.342e+04 2.211e-09
 27.61731     50.9 1.250e+04 1.354e-09
 27.62743     51.0 1.243e+04 1.218e-09
 27.63995     48.8 1.158e+04 8.531e-10
 27.66019     47.4 1.123e+04 8.641e-10
 27.67976     47.4 1.122e+04 8.871e-10
 27.68988     48.3 1.100e+04 7.796e-10
 27.70066     48.4 1.112e+04 8.611e-10
 27.72090     48.5 1.117e+04 8.864e-10
 27.75135     50.0 1.109e+04 8.540e-10
 27.79193     50.3 1.104e+04 8.306e-10
 27.83240     51.0 1.085e+04 7.103e-10
 27.85765     51.9 1.066e+04 5.997e-10
 27.86767     53.3 1.080e+04 6.564e-10
 27.88280     53.3 1.054e+04 5.427e-10
 27.90304     53.0 1.033e+04 4.462e-10
 27.91537     52.8 1.015e+04 3.846e-10
 27.92548     52.6 1.010e+04 3.660e-10
 27.94138     52.5 1.014e+04 3.601e-10
 27.95150     53.9 1.020e+04 3.763e-10
 27.96375     53.7 1.014e+04 3.622e-10
 27.99420     53.7 1.016e+04 3.765e-10
 28.02542     54.5 1.009e+04 4.070e-10
 28.04556     55.8 1.016e+04 4.232e-10
 28.05933     56.6 1.010e+04 4.500e-10
 28.06945     56.6 1.008e+04 4.441e-10
 28.08517     57.2 1.006e+04 4.602e-10
 28.10541     58.0 1.008e+04 4.561e-10
 28.11917     58.6 1.009e+04 4.455e-10
 28.12929     59.9 1.019e+04 5.228e-10
 28.14588     60.5 1.025e+04 5.087e-10
 28.16612     60.9 1.041e+04 4.850e-10
 28.18636     61.1 1.050e+04 4.792e-10
 28.20301     61.1 1.065e+04 4.864e-10
 28.20983     62.2 1.082e+04 5.617e-10
 28.21342     62.5 1.080e+04 5.636e-10
 28.22683     62.6 1.086e+04 5.686e-10
 28.24707     62.9 1.085e+04 5.677e-10
 28.26731     63.3 1.076e+04 5.484e-10
 28.28685     63.8 1.064e+04 5.059e-10
 28.29696     64.6 1.083e+04 6.034e-10
 28.30778     65.1 1.068e+04 4.986e-10
 28.32802     65.3 1.052e+04 4.243e-10
 28.35847     66.1 1.015e+04 3.275e-10
 28.38100     67.6 9.869e+03 2.975e-10
 28.39102     68.1 1.009e+04 3.370e-10
 28.40897     68.3 1.002e+04 3.293e-10
 28.43942     69.7 1.006e+04 3.623e-10
 28.47999     71.0 9.783e+03 3.405e-10
 28.50154     72.5 9.669e+03 3.201e-10
 28.52178     74.4 9.820e+03 3.633e-10
 28.54867     76.1 9.740e+03 3.416e-10
 28.56890     76.2 9.850e+03 3.653e-10
 28.60142     77.7 9.588e+03 2.905e-10
 28.64189     79.3 9.357e+03 2.213e-10
 28.68236     80.9 9.136e+03 1.569e-10
 28.71634     82.2 8.858e+03 1.063e-10
 28.73658     81.5 8.676e+03 1.027e-10
 28.76331     82.7 8.619e+03 9.265e-11
 28.78948     84.1 8.643e+03 9.678e-11
 28.80971     84.6 8.816e+03 1.274e-10
 28.84426     85.1 9.191e+03 1.697e-10
 28.88401     85.0 9.783e+03 2.594e-10
 28.90425     83.6 1.002e+04 3.189e-10
 28.91499     82.9 1.045e+04 4.562e-10
 28.93325     82.0 1.102e+04 7.608e-10
 28.94337     82.1 1.104e+04 8.247e-10
 28.95537     81.6 1.157e+04 1.177e-09
 28.97561     81.0 1.205e+04 1.435e-09
 28.98789     80.0 1.216e+04 1.423e-09
 28.99801     79.4 1.182e+04 1.200e-09
 29.01608     78.0 1.165e+04 1.008e-09
 29.03632     76.2 1.132e+04 7.512e-10
 29.05656     73.8 1.086e+04 5.235e-10
 29.07172     71.3 1.029e+04 3.594e-10
 29.08236     70.7 1.003e+04 3.319e-10
 29.09765     70.2 9.830e+03 3.145e-10
 29.12758     68.9 9.511e+03 2.630e-10
 29.16806     68.7 9.279e+03 2.248e-10
 29.20853     68.8 9.061e+03 1.848e-10
 29.23959     69.4 8.882e+03 1.416e-10
 29.25983     69.7 8.937e+03 1.520e-10
 29.28948     70.5 8.777e+03 1.085e-10
 29.32995     71.3 8.662e+03 8.101e-11
 29.36534     72.4 8.592e+03 7.455e-11
 29.38558     72.5 8.533e+03 6.745e-11
 29.40726     73.9 8.538e+03 6.809e-11
 29.42750     74.4 8.553e+03 7.184e-11
 29.45138     75.8 8.621e+03 7.789e-11
 29.49185     77.1 8.765e+03 9.269e-11
 29.53233     78.3 8.922e+03 1.124e-10
 29.57280     79.4 9.088e+03 1.376e-10
 29.59517     80.2 9.274e+03 1.661e-10
 29.61541     80.2 9.390e+03 1.954e-10
 29.65327     80.7 9.606e+03 2.299e-10
 29.67351     81.1 9.770e+03 2.720e-10
 29.69422     81.2 1.002e+04 3.139e-10
 29.73470     81.0 1.025e+04 3.612e-10
 29.76284     80.6 1.051e+04 4.148e-10
 29.78308     80.3 1.023e+04 3.239e-10
 29.81565     79.4 1.044e+04 3.604e-10
 29.85612     78.5 1.065e+04 4.155e-10
 29.89660     77.6 1.072e+04 4.455e-10
 29.93051     76.9 1.066e+04 4.354e-10
 29.95075     77.2 1.033e+04 3.817e-10
 29.96144     77.2 1.028e+04 3.377e-10
 29.98168     77.9 1.012e+04 2.839e-10
 30.01802     78.0 1.009e+04 2.395e-10
 30.05849     78.2 1.013e+04 2.206e-10
 30.09818     78.6 1.019e+04 2.216e-10
 30.11842     79.0 1.019e+04 2.225e-10
 30.13944     79.6 1.032e+04 2.456e-10
 30.17992     80.2 1.052e+04 2.889e-10
 30.22039     80.6 1.077e+04 3.581e-10
 30.24937     80.4 1.120e+04 5.140e-10
 30.26961     80.6 1.156e+04 6.701e-10
 30.28609     79.5 1.249e+04 1.091e-09
 30.30633     79.5 1.230e+04 9.716e-10
 30.34182     77.9 1.298e+04 1.311e-09
 30.38229     76.2 1.292e+04 1.260e-09
 30.42276     75.4 1.232e+04 8.946e-10
 30.45376     74.9 1.137e+04 4.181e-10
 30.47400     74.9 1.096e+04 3.466e-10
 30.50371     74.3 1.028e+04 1.859e-10
 30.53731     73.8 9.960e+03 1.154e-10
 30.55754     73.7 9.817e+03 9.677e-11
 30.58466     74.1 9.813e+03 9.583e-11
 30.62144     74.6 9.886e+03 1.025e-10
 30.64167     75.6 9.875e+03 1.163e-10
 30.66561     75.9 1.010e+04 1.438e-10
 30.70608     76.1 1.036e+04 2.018e-10
 30.74656     76.1 1.061e+04 2.803e-10
 30.77682     74.4 1.170e+04 3.983e-10
 30.79696     74.0 1.193e+04 4.339e-10
 30.80915     69.1 1.435e+04 9.342e-10
 30.81927     70.9 1.350e+04 6.774e-10
 30.83516     65.1 1.623e+04 2.365e-09
 30.84528     64.3 1.663e+04 2.948e-09
 30.85767     61.6 1.810e+04 9.390e-09
 30.87791     60.3 1.870e+04 1.410e-08
 30.89298     59.1 1.869e+04 1.331e-08
 30.90310     59.3 1.862e+04 1.321e-08
 30.91838     58.0 1.855e+04 1.008e-08
 30.93862     54.1 1.819e+04 4.885e-09
 30.95885     47.7 1.638e+04 2.360e-09
 30.97682     42.8 1.405e+04 1.752e-09
 30.98694     44.4 1.486e+04 1.932e-09
 30.99933     41.4 1.381e+04 1.803e-09
 31.01957     40.3 1.364e+04 1.676e-09
 31.03980     39.5 1.351e+04 1.538e-09
 31.06004     38.7 1.325e+04 1.333e-09
 31.07077     37.9 1.301e+04 1.133e-09
 31.08089     38.1 1.324e+04 1.375e-09
 31.10052     37.3 1.305e+04 1.195e-09
 31.12075     36.3 1.292e+04 1.102e-09
 31.13321     35.1 1.295e+04 1.114e-09
 31.14333     34.6 1.300e+04 1.130e-09
 31.15461     33.0 1.318e+04 1.272e-09
 31.16473     32.7 1.341e+04 1.368e-09
 31.18146     30.4 1.378e+04 1.660e-09
 31.20170     28.6 1.390e+04 2.004e-09
 31.22194     27.6 1.369e+04 2.135e-09
 31.23845     27.2 1.354e+04 1.977e-09
 31.24857     26.8 1.374e+04 1.966e-09
 31.26241     24.2 1.442e+04 1.711e-09
 31.27718     19.2 1.539e+04 1.708e-09
 31.28730     17.0 1.510e+04 1.660e-09
 31.30289     10.6 1.587e+04 2.739e-09
 31.32228      5.6 1.731e+04 5.163e-09
 31.33240      4.4 1.736e+04 5.540e-09
 31.34336      1.1 1.781e+04 7.032e-09
 31.36360     -1.2 1.682e+04 6.382e-09
 31.38384     -2.3 1.598e+04 3.523e-09
 31.40407     -5.8 1.653e+04 1.094e-09
 31.41624    -16.1 1.286e+04 3.989e-10
 31.42319    -18.4 1.151e+04 3.935e-10
 31.43126    -17.4 1.175e+04 4.318e-10
 31.44455    -19.7 1.090e+04 3.125e-10
 31.47500    -20.2 1.076e+04 2.664e-10
 31.50027    -20.4 1.045e+04 2.167e-10
 31.52050    -21.1 1.019e+04 1.692e-10
 31.55605    -21.7 9.822e+03 1.395e-10
 31.59652    -22.0 9.646e+03 1.315e-10
 31.63700    -21.7 9.578e+03 1.282e-10
 31.66794    -21.6 9.515e+03 1.232e-10
 31.68818    -21.5 9.440e+03 1.075e-10
 31.70927    -21.5 9.376e+03 1.094e-10
 31.72951    -20.6 9.361e+03 9.597e-11
 31.75842    -20.4 9.342e+03 1.068e-10
 31.79889    -20.1 9.315e+03 1.100e-10
 31.83561    -19.8 9.290e+03 1.053e-10
 31.85585    -19.8 9.255e+03 1.012e-10
 31.87984    -19.7 9.176e+03 9.173e-11
 31.92032    -19.9 9.129e+03 8.368e-11
 31.96079    -21.0 9.194e+03 8.931e-11
 31.99721    -22.6 9.498e+03 1.466e-10
 32.01744    -21.9 9.530e+03 1.417e-10
 32.02352    -22.6 9.951e+03 2.671e-10
 32.04376    -22.3 9.897e+03 2.537e-10
 32.08221    -22.5 1.030e+04 3.546e-10
 32.12269    -23.1 1.041e+04 3.722e-10
 32.16316    -24.2 1.008e+04 2.726e-10
 32.19119    -25.4 9.453e+03 1.655e-10
 32.21143    -25.6 9.458e+03 1.726e-10
 32.24411    -26.8 9.209e+03 1.524e-10
 32.28459    -27.4 9.128e+03 1.551e-10
 32.30537    -28.3 9.355e+03 1.900e-10
 32.32561    -27.1 9.234e+03 1.701e-10
 32.35886    -28.4 9.706e+03 2.380e-10
 32.37910    -29.2 1.013e+04 3.326e-10
 32.40601    -31.1 1.044e+04 4.287e-10
 32.44648    -33.5 1.051e+04 5.258e-10
 32.48696    -35.5 1.036e+04 4.885e-10
 32.52653    -37.7 9.924e+03 3.718e-10
 32.54677    -39.6 9.642e+03 3.170e-10
 32.56791    -41.6 9.269e+03 2.543e-10
 32.59331    -42.9 9.132e+03 2.337e-10
 32.61354    -42.4 9.220e+03 2.538e-10
 32.64886    -43.1 9.186e+03 2.457e-10
 32.68933    -43.6 9.135e+03 2.263e-10
 32.71444    -44.2 9.033e+03 1.951e-10
 32.73468    -46.3 8.950e+03 1.838e-10
 32.77028    -47.3 8.935e+03 1.643e-10
 32.81075    -48.9 8.939e+03 1.596e-10
 32.85123    -51.4 9.163e+03 1.737e-10
 32.88124    -54.0 9.763e+03 2.677e-10
 32.89189    -54.0 9.827e+03 2.784e-10
 32.90235    -56.4 9.832e+03 2.908e-10
 32.92196    -56.9 1.017e+04 3.870e-10
 32.94210    -57.8 1.039e+04 4.595e-10
 32.96234    -59.5 1.082e+04 6.474e-10
 32.97587    -61.1 1.127e+04 8.188e-10
 32.98599    -62.3 1.122e+04 7.972e-10
 33.00281    -63.6 1.161e+04 9.870e-10
 33.02305    -64.7 1.187e+04 1.150e-09
 33.03513    -65.7 1.195e+04 1.211e-09
 33.04525    -65.7 1.214e+04 1.338e-09
 33.05971    -66.7 1.218e+04 1.360e-09
 33.06983    -67.8 1.195e+04 1.139e-09
 33.09398    -69.8 1.137e+04 7.815e-10
 33.13455    -71.3 1.055e+04 4.977e-10
 33.16917    -72.2 9.752e+03 3.138e-10
 33.18941    -72.4 1.010e+04 4.038e-10
 33.21550    -73.0 9.449e+03 2.709e-10
 33.23769    -72.9 9.265e+03 2.308e-10
 33.25793    -73.7 9.367e+03 2.580e-10
 33.29645    -73.1 9.339e+03 2.542e-10
 33.33692    -72.8 9.425e+03 2.726e-10
 33.37740    -72.5 9.653e+03 3.220e-10
 33.40536    -72.3 9.847e+03 3.623e-10
 33.42560    -72.8 1.007e+04 4.026e-10
 33.45710    -72.5 1.012e+04 4.156e-10
 33.47734    -72.8 1.003e+04 3.703e-10
 33.49882    -72.7 9.984e+03 3.424e-10
 33.53929    -72.8 9.914e+03 2.980e-10
 33.57304    -72.9 9.902e+03 2.578e-10
 33.59318    -72.9 9.947e+03 2.689e-10
 33.60993    -73.3 9.963e+03 2.578e-10
 33.62111    -73.9 1.007e+04 2.594e-10
 33.63123    -73.9 1.021e+04 2.574e-10
 33.65040    -75.7 1.073e+04 3.078e-10
 33.66680    -77.7 1.141e+04 4.776e-10
 33.67691    -79.8 1.221e+04 7.981e-10
 33.69088    -80.4 1.265e+04 1.262e-09
 33.71111    -80.4 1.297e+04 1.727e-09
 33.73135    -80.1 1.315e+04 2.001e-09
 33.75063    -79.9 1.320e+04 2.079e-09
 33.76075    -80.3 1.346e+04 2.126e-09
 33.76508    -80.7 1.308e+04 1.677e-09
 33.77520    -80.0 1.344e+04 1.987e-09
 33.79206    -81.3 1.303e+04 1.456e-09
 33.81230    -83.1 1.255e+04 1.084e-09
 33.83254    -85.0 1.216e+04 9.018e-10
 33.84459    -86.8 1.200e+04 8.480e-10
 33.85470    -88.1 1.239e+04 1.079e-09
 33.87301    -89.5 1.260e+04 1.212e-09
 33.89325    -91.0 1.281e+04 1.351e-09
 33.90904    -92.7 1.291e+04 1.478e-09
 33.91916    -92.1 1.309e+04 1.713e-09
 33.92842    -93.7 1.305e+04 1.774e-09
 33.93854    -94.1 1.342e+04 2.121e-09
 33.95396    -95.6 1.313e+04 1.969e-09
 33.97420    -96.9 1.289e+04 1.790e-09
 33.99444    -98.1 1.263e+04 1.592e-09
 34.01226    -99.3 1.237e+04 1.322e-09
 34.02238   -100.3 1.228e+04 1.200e-09
 34.03491   -101.5 1.191e+04 9.520e-10
 34.05301   -102.7 1.149e+04 7.666e-10
 34.06313   -102.2 1.136e+04 7.134e-10
 34.07538   -103.2 1.099e+04 6.051e-10
 34.09562   -103.8 1.071e+04 5.404e-10
 34.10621   -104.2 1.052e+04 5.039e-10
 34.11633   -104.6 1.059e+04 5.538e-10
 34.13610   -104.8 1.051e+04 5.343e-10
 34.15633   -105.0 1.048e+04 5.186e-10
 34.17657   -105.2 1.047e+04 5.097e-10
 34.19005   -105.6 1.047e+04 5.081e-10
 34.20017   -106.1 1.048e+04 5.295e-10
 34.20709   -106.6 1.049e+04 5.334e-10
 34.21721   -105.6 1.039e+04 5.048e-10
 34.23728   -106.1 1.042e+04 5.251e-10
 34.25752   -106.7 1.044e+04 5.440e-10
 34.27388   -107.4 1.045e+04 5.552e-10
 34.28400   -107.9 1.049e+04 5.833e-10
 34.29799   -108.7 1.049e+04 5.877e-10
 34.31823   -109.6 1.047e+04 5.874e-10
 34.33847   -110.5 1.034e+04 5.725e-10
 34.35106   -111.2 1.022e+04 5.569e-10
 34.36019   -110.3 1.016e+04 5.213e-10
 34.36784   -110.9 1.026e+04 5.682e-10
 34.37894   -111.5 1.022e+04 5.643e-10
 34.39918   -112.9 1.029e+04 5.730e-10
 34.41942   -117.8 1.206e+04 6.976e-10
 34.43965   -124.8 1.599e+04 1.842e-09
 34.45167   -130.2 1.805e+04 5.000e-09
 34.46179   -131.2 1.848e+04 5.767e-09
 34.48013   -135.6 1.930e+04 9.283e-09
 34.49503   -140.0 1.948e+04 1.023e-08
 34.50515   -136.0 1.908e+04 8.964e-09
 34.52060   -140.6 1.917e+04 9.196e-09
 34.53551   -145.0 1.883e+04 6.614e-09
 34.54052   -145.3 1.895e+04 7.120e-09
 34.54580   -147.2 1.915e+04 5.912e-09
 34.55592   -150.9 1.853e+04 4.053e-09
 34.56604   -153.0 1.814e+04 3.531e-09
 34.58127   -155.9 1.733e+04 3.006e-09
 34.60155   -161.8 1.480e+04 2.129e-09
 34.61934   -165.2 1.344e+04 1.811e-09
 34.62946   -166.0 1.383e+04 2.192e-09
 34.63899   -167.6 1.354e+04 1.997e-09
 34.64911   -165.4 1.360e+04 2.017e-09
 34.66226   -167.1 1.345e+04 1.877e-09
 34.68250   -168.5 1.349e+04 1.834e-09
 34.70274   -170.0 1.355e+04 1.788e-09
 34.71330   -171.7 1.352e+04 1.759e-09
 34.72342   -173.3 1.370e+04 1.925e-09
 34.74321   -174.9 1.372e+04 1.892e-09
 34.76345   -176.6 1.377e+04 1.874e-09
 34.78296   -178.6 1.412e+04 1.834e-09
 34.79308   -176.2 1.383e+04 2.003e-09
 34.79713   -178.1 1.415e+04 1.963e-09
 34.80725   -183.3 1.669e+04 3.271e-09
 34.82416   -185.7 1.691e+04 3.576e-09
 34.84440   -187.2 1.682e+04 3.705e-09
 34.86464   -187.8 1.608e+04 3.827e-09
 34.88097   -187.9 1.544e+04 3.702e-09
 34.89104   -189.4 1.680e+04 5.163e-09
 34.90506   -189.3 1.673e+04 5.220e-09
 34.92535   -188.3 1.631e+04 4.607e-09
 34.93704   -187.1 1.581e+04 3.695e-09
 34.94716   -186.5 1.647e+04 4.345e-09
 34.96481   -185.4 1.592e+04 3.378e-09
 34.97492   -187.3 1.542e+04 4.318e-09
 34.98606   -186.4 1.534e+04 3.678e-09
 35.00630   -186.3 1.548e+04 3.402e-09
 35.02653   -186.6 1.562e+04 3.330e-09
 35.04677   -187.4 1.646e+04 3.461e-09
 35.05876   -188.7 1.696e+04 3.927e-09
 35.06888   -191.2 1.803e+04 9.427e-09
 35.08101   -191.9 1.797e+04 9.725e-09
 35.09113   -190.4 1.791e+04 1.171e-08
 35.10748   -190.7 1.756e+04 1.150e-08
 35.12772   -190.3 1.660e+04 9.103e-09
 35.14260   -189.5 1.545e+04 6.300e-09
 35.14761   -189.7 1.550e+04 6.037e-09
 35.15289   -189.5 1.515e+04 5.069e-09
 35.16812   -189.4 1.470e+04 4.114e-09
 35.18843   -188.9 1.383e+04 2.795e-09
 35.20867   -188.4 1.302e+04 1.882e-09
 35.22498   -188.0 1.252e+04 1.383e-09
 35.23262   -187.2 1.261e+04 1.289e-09
 35.23655   -189.2 1.213e+04 8.626e-10
 35.24914   -189.1 1.169e+04 6.891e-10
 35.26938   -188.9 1.134e+04 6.050e-10
 35.28962   -188.9 1.119e+04 5.828e-10
 35.30985   -189.1 1.117e+04 5.809e-10
 35.32039   -190.3 1.133e+04 5.932e-10
 35.33050   -194.7 1.191e+04 1.012e-09
 35.35033   -197.7 1.358e+04 1.992e-09
 35.36894   -199.6 1.519e+04 3.809e-09
 35.37906   -199.9 1.531e+04 3.582e-09
 35.39080   -201.2 1.656e+04 6.209e-09
 35.40422   -202.2 1.744e+04 8.470e-09
 35.41434   -204.9 1.797e+04 8.155e-09
 35.43128   -206.2 1.795e+04 7.811e-09
 35.45151   -207.4 1.731e+04 5.887e-09
 35.47175   -208.7 1.613e+04 3.855e-09
 35.48806   -210.1 1.482e+04 2.507e-09
 35.49818   -213.6 1.415e+04 2.008e-09
 35.51223   -213.9 1.364e+04 1.655e-09
 35.52303   -213.9 1.329e+04 1.454e-09
 35.53315   -214.2 1.345e+04 1.375e-09
 35.55270   -213.7 1.315e+04 1.230e-09
 35.57189   -213.0 1.276e+04 1.122e-09
 35.58201   -213.9 1.359e+04 2.090e-09
 35.59318   -212.7 1.314e+04 1.762e-09
 35.61341   -211.5 1.262e+04 1.424e-09
 35.63365   -210.3 1.211e+04 1.126e-09
 35.65389   -209.0 1.163e+04 8.797e-10
 35.66585   -207.7 1.117e+04 6.871e-10
 35.66883   -207.9 1.181e+04 9.421e-10
 35.67711   -208.3 1.204e+04 9.411e-10
 35.69436   -207.1 1.163e+04 7.156e-10
 35.71460   -205.8 1.121e+04 5.518e-10
 35.73484   -204.3 1.081e+04 4.354e-10
 35.74968   -202.7 1.045e+04 3.562e-10
 35.75980   -203.5 1.103e+04 5.133e-10
 35.77531   -201.9 1.076e+04 4.193e-10
 35.79555   -200.3 1.051e+04 3.519e-10
 35.81096   -199.0 1.030e+04 3.088e-10
 35.82108   -199.0 1.047e+04 3.377e-10
 35.83362   -197.8 1.028e+04 3.084e-10
 35.84373   -198.0 1.042e+04 4.385e-10
 35.85626   -196.5 1.030e+04 3.855e-10
 35.87650   -195.2 1.022e+04 3.659e-10
 35.89673   -194.1 1.017e+04 3.626e-10
 35.92719   -192.9 1.013e+04 3.622e-10
 35.96776   -190.0 9.855e+03 3.051e-10
 36.00138   -187.2 9.636e+03 2.642e-10
 36.02162   -187.7 1.014e+04 4.239e-10
 36.04871   -185.0 9.921e+03 3.698e-10
 36.08897   -182.5 9.741e+03 3.309e-10
 36.10920   -182.1 9.628e+03 3.125e-10
 36.12966   -179.8 9.481e+03 2.798e-10
 36.16906   -177.5 9.330e+03 2.544e-10
 36.18929   -177.6 9.670e+03 3.322e-10
 36.21061   -175.5 9.516e+03 2.968e-10
 36.25108   -173.3 9.395e+03 2.754e-10
 36.29155   -171.2 9.351e+03 2.699e-10
 36.33203   -169.1 9.347e+03 2.709e-10
 36.35697   -167.2 9.391e+03 2.893e-10
 36.37720   -167.5 9.445e+03 2.955e-10
 36.39714   -165.7 9.434e+03 3.054e-10
 36.41737   -165.4 9.496e+03 3.244e-10
 36.45345   -163.6 9.472e+03 3.336e-10
 36.49393   -161.9 9.471e+03 3.351e-10
 36.52464   -160.2 9.433e+03 3.346e-10
 36.54487   -160.1 9.455e+03 3.468e-10
 36.57488   -158.4 9.406e+03 3.412e-10
 36.61535   -156.6 9.341e+03 3.316e-10
 36.65582   -154.9 9.257e+03 3.153e-10
 36.68507   -153.1 9.158e+03 2.924e-10
 36.70132   -152.5 9.206e+03 3.031e-10
 36.71255   -152.2 9.262e+03 3.226e-10
 36.73677   -150.3 9.122e+03 2.873e-10
 36.77725   -148.5 8.980e+03 2.478e-10
 36.81772   -146.6 8.852e+03 2.101e-10
 36.85820   -144.8 8.758e+03 1.801e-10
 36.88022   -143.0 8.708e+03 1.603e-10
 36.90045   -142.3 8.721e+03 1.617e-10
 36.93914   -140.5 8.719e+03 1.549e-10
 36.97300   -138.7 8.722e+03 1.539e-10
 36.99324   -138.6 8.790e+03 1.590e-10
 37.02009   -137.2 8.917e+03 1.691e-10
 37.04789   -135.9 9.166e+03 2.127e-10
 37.06813   -135.1 9.322e+03 2.300e-10
 37.10104   -133.9 9.686e+03 3.341e-10
 37.14152   -132.7 9.985e+03 4.424e-10
 37.18199   -131.7 1.019e+04 4.958e-10
 37.21556   -131.1 1.025e+04 5.060e-10
 37.23580   -130.3 1.103e+04 8.903e-10
 37.26093   -130.0 1.116e+04 9.265e-10
 37.28117   -129.7 1.091e+04 8.095e-10
 37.30341   -129.4 1.083e+04 7.264e-10
 37.34389   -129.3 1.080e+04 6.645e-10
 37.38323   -129.9 1.083e+04 6.420e-10
 37.40347   -129.0 1.200e+04 1.151e-09
 37.42484   -130.1 1.185e+04 1.046e-09
 37.46531   -131.4 1.175e+04 9.374e-10
 37.50579   -132.8 1.175e+04 8.888e-10
 37.53604   -133.3 1.173e+04 8.655e-10
 37.55618   -133.9 1.184e+04 8.774e-10
 37.56891   -134.5 1.194e+04 8.975e-10
 37.57365   -134.3 1.187e+04 8.732e-10
 37.58116   -134.2 1.202e+04 1.009e-09
 37.59666   -134.5 1.209e+04 1.085e-09
 37.61690   -134.6 1.222e+04 1.188e-09
 37.63713   -134.6 1.240e+04 1.316e-09
 37.65478   -134.5 1.260e+04 1.492e-09
 37.66490   -134.3 1.242e+04 1.382e-09
 37.67761   -134.1 1.253e+04 1.432e-09
 37.69784   -133.8 1.262e+04 1.464e-09
 37.71287   -133.6 1.267e+04 1.481e-09
 37.72299   -133.0 1.268e+04 1.519e-09
 37.73832   -132.7 1.269e+04 1.529e-09
 37.74873   -132.3 1.267e+04 1.529e-09
 37.75885   -132.1 1.248e+04 1.186e-09
 37.77879   -131.7 1.247e+04 1.192e-09
 37.79903   -131.2 1.227e+04 1.170e-09
 37.81927   -130.6 1.208e+04 1.061e-09
 37.83257   -130.1 1.184e+04 9.268e-10
 37.84269   -130.1 1.183e+04 9.414e-10
 37.85684   -129.6 1.167e+04 8.428e-10
 37.86696   -128.8 1.189e+04 9.251e-10
 37.87998   -128.5 1.170e+04 8.067e-10
 37.90022   -128.2 1.154e+04 6.914e-10
 37.91641   -127.9 1.139e+04 5.928e-10
 37.92652   -127.7 1.147e+04 6.421e-10
 37.94069   -127.5 1.133e+04 5.505e-10
 37.96093   -127.2 1.119e+04 4.812e-10
 37.98117   -127.0 1.107e+04 4.379e-10
 38.00024   -126.8 1.098e+04 4.197e-10
 38.00976   -126.8 1.126e+04 4.800e-10
 38.01092   -126.3 1.143e+04 5.088e-10
 38.02164   -126.2 1.141e+04 5.017e-10
 38.04188   -126.1 1.141e+04 5.007e-10
 38.06211   -126.5 1.153e+04 5.322e-10
 38.08235   -127.5 1.187e+04 7.084e-10
 38.09420   -128.3 1.229e+04 1.015e-09
 38.10431   -127.9 1.242e+04 1.081e-09
 38.12283   -128.5 1.283e+04 1.492e-09
 38.14306   -129.0 1.318e+04 1.947e-09
 38.15489   -129.4 1.336e+04 2.272e-09
 38.16501   -129.5 1.390e+04 3.112e-09
 38.17803   -129.9 1.393e+04 3.211e-09
 38.18815   -129.1 1.390e+04 3.142e-09
 38.20378   -129.3 1.377e+04 3.099e-09
 38.22401   -129.3 1.330e+04 2.585e-09
 38.24425   -129.4 1.277e+04 1.968e-09
 38.26187   -129.7 1.228e+04 1.520e-09
 38.27199   -129.5 1.235e+04 1.528e-09
 38.28472   -129.9 1.197e+04 1.259e-09
 38.29886   -130.1 1.170e+04 1.087e-09
 38.30898   -130.6 1.167e+04 1.071e-09
 38.32520   -130.7 1.140e+04 9.402e-10
 38.34544   -130.6 1.116e+04 8.243e-10
 38.35582   -130.2 1.096e+04 7.256e-10
 38.36594   -130.4 1.109e+04 8.044e-10
 38.38591   -129.9 1.092e+04 7.095e-10
 38.40615   -129.4 1.078e+04 6.228e-10
 38.42964   -128.8 1.059e+04 5.264e-10
 38.44607   -128.4 1.105e+04 7.358e-10
 38.45294   -128.4 1.071e+04 6.329e-10
 38.46686   -127.6 1.056e+04 5.576e-10
 38.48710   -126.7 1.044e+04 4.998e-10
 38.50733   -125.9 1.035e+04 4.545e-10
 38.52349   -125.0 1.030e+04 4.252e-10
 38.53361   -125.1 1.057e+04 5.059e-10
 38.54781   -124.2 1.050e+04 4.636e-10
 38.56804   -123.4 1.040e+04 4.244e-10
 38.59731   -122.5 1.023e+04 3.785e-10
 38.61754   -122.0 1.085e+04 6.530e-10
 38.63897   -121.2 1.088e+04 6.728e-10
 38.67954   -119.4 1.063e+04 6.078e-10
 38.72002   -117.8 1.047e+04 5.686e-10
 38.74107   -116.2 1.035e+04 5.469e-10
 38.76131   -116.0 1.008e+04 4.071e-10
 38.78531   -114.9 1.010e+04 4.094e-10
 38.80555   -114.8 1.047e+04 7.155e-10
 38.84144   -113.4 1.045e+04 6.811e-10
 38.88192   -112.4 1.055e+04 6.977e-10
 38.92239   -111.9 1.124e+04 9.218e-10
 38.95265   -111.6 1.202e+04 1.241e-09
 38.96291   -112.3 1.288e+04 1.770e-09
 38.97312   -110.5 1.140e+04 8.237e-10
 38.99312   -112.7 1.348e+04 2.056e-09
 39.01326   -114.6 1.531e+04 4.125e-09
 39.02881   -115.8 1.689e+04 7.830e-09
 39.03892   -115.8 1.755e+04 9.669e-09
 39.04674   -117.2 1.869e+04 1.504e-08
 39.05686   -117.9 1.953e+04 1.869e-08
 39.07397   -120.3 1.999e+04 2.452e-08
 39.09421   -122.9 1.984e+04 2.445e-08
 39.11445   -124.3 1.854e+04 1.595e-08
 39.13058   -125.5 1.664e+04 8.301e-09
 39.14070   -125.5 1.748e+04 9.277e-09
 39.15492   -126.8 1.541e+04 4.725e-09
 39.17277   -128.0 1.343e+04 2.538e-09
 39.18289   -129.3 1.345e+04 2.833e-09
 39.19540   -129.5 1.167e+04 1.517e-09
 39.21442   -129.7 1.135e+04 1.098e-09
 39.22453   -131.0 1.176e+04 1.065e-09
 39.23587   -131.5 1.146e+04 9.410e-10
 39.25611   -131.9 1.134e+04 9.096e-10
 39.27635   -132.1 1.131e+04 9.068e-10
 39.29658   -132.5 1.127e+04 9.450e-10
 39.30837   -132.9 1.128e+04 1.012e-09
 39.31841   -133.7 1.173e+04 1.260e-09
 39.33698   -134.1 1.161e+04 1.220e-09
 39.35730   -134.2 1.153e+04 1.183e-09
 39.37753   -134.4 1.147e+04 1.136e-09
 39.39221   -134.6 1.139e+04 1.082e-09
 39.40232   -134.8 1.128e+04 9.483e-10
 39.41801   -134.9 1.106e+04 8.408e-10
 39.43824   -135.0 1.085e+04 7.510e-10
 39.45848   -135.1 1.064e+04 6.725e-10
 39.47082   -135.0 1.043e+04 6.016e-10
 39.47826   -135.0 1.056e+04 6.474e-10
 39.48616   -135.1 1.002e+04 4.840e-10
 39.49896   -134.7 9.833e+03 4.266e-10
 39.51919   -134.3 9.711e+03 3.835e-10
 39.53943   -133.8 9.647e+03 3.571e-10
 39.56988   -133.6 9.610e+03 3.363e-10
 39.60487   -132.8 9.504e+03 3.066e-10
 39.62510   -132.8 9.651e+03 3.308e-10
 39.64391   -131.7 9.577e+03 3.118e-10
 39.66415   -130.7 9.291e+03 2.537e-10
 39.69141   -129.7 9.320e+03 2.549e-10
 39.73188   -128.9 9.442e+03 2.726e-10
 39.77235   -128.1 9.587e+03 3.114e-10
 39.81158   -127.3 9.746e+03 3.625e-10
 39.83182   -126.8 9.815e+03 3.757e-10
 39.85330   -126.3 9.964e+03 4.208e-10
 39.89280   -125.9 1.000e+04 4.335e-10
 39.91304   -125.8 1.031e+04 5.430e-10
 39.93425   -125.3 1.026e+04 5.307e-10
 39.97473   -124.5 1.001e+04 4.189e-10
 39.99949   -123.5 9.725e+03 2.895e-10
 40.01973   -123.3 9.486e+03 1.526e-10
 40.05567   -122.8 9.319e+03 1.109e-10
 40.09615   -122.3 9.280e+03 9.912e-11
 40.13662   -122.0 9.283e+03 9.800e-11
 40.16716   -122.3 9.412e+03 9.990e-11
 40.18740   -123.5 9.409e+03 8.226e-11
 40.20097   -129.5 1.161e+04 2.805e-10
 40.22120   -128.0 1.115e+04 1.890e-10
 40.24783   -132.9 1.296e+04 8.047e-10
 40.26092   -135.3 1.454e+04 2.385e-09
 40.27104   -135.9 1.486e+04 3.019e-09
 40.28821   -137.4 1.593e+04 5.945e-09
 40.30844   -138.9 1.651e+04 7.853e-09
 40.32868   -140.9 1.659e+04 8.231e-09
 40.34474   -142.7 1.604e+04 6.768e-09
 40.35486   -144.5 1.575e+04 6.057e-09
 40.36916   -146.5 1.434e+04 3.302e-09
 40.38939   -148.9 1.257e+04 1.576e-09
 40.40963   -150.8 1.102e+04 8.181e-10
 40.42859   -151.6 1.025e+04 5.175e-10
 40.43871   -151.8 1.018e+04 4.838e-10
 40.45011   -151.9 9.956e+03 3.662e-10
 40.47034   -151.7 9.901e+03 3.226e-10
 40.48880   -151.5 9.919e+03 3.099e-10
 40.50914   -152.0 9.896e+03 2.841e-10
 40.52274   -152.0 9.881e+03 2.692e-10
 40.54298   -153.0 9.832e+03 2.416e-10
 40.58184   -153.1 1.001e+04 2.556e-10
 40.62232   -153.2 1.044e+04 3.504e-10
 40.66279   -153.2 1.071e+04 4.869e-10
 40.69041   -153.1 1.068e+04 5.660e-10
 40.71065   -154.5 1.069e+04 6.046e-10
 40.73352   -153.6 1.040e+04 5.248e-10
 40.75366   -153.0 1.031e+04 5.242e-10
 40.77390   -152.2 1.013e+04 4.936e-10
 40.78417   -151.6 1.006e+04 4.556e-10
 40.78691   -151.7 1.001e+04 4.500e-10
 40.79697   -152.2 9.951e+03 4.090e-10
 40.82469   -150.9 9.817e+03 3.812e-10
 40.85808   -149.5 9.620e+03 3.354e-10
 40.87832   -149.8 9.485e+03 3.186e-10
 40.90564   -148.0 9.274e+03 2.696e-10
 40.94611   -146.0 9.064e+03 2.180e-10
 40.98659   -143.9 8.886e+03 1.771e-10
 41.02575   -141.7 8.777e+03 1.495e-10
 41.04599   -141.9 8.882e+03 1.860e-10
 41.06476   -139.8 8.856e+03 1.688e-10
 41.08500   -138.9 8.850e+03 1.723e-10
 41.10801   -136.8 8.883e+03 1.749e-10
 41.14848   -134.8 8.963e+03 1.734e-10
 41.18896   -133.0 9.085e+03 1.692e-10
 41.21366   -131.3 9.155e+03 1.550e-10
 41.23390   -131.0 9.309e+03 2.212e-10
 41.26991   -129.4 9.381e+03 1.955e-10
 41.31038   -128.1 9.404e+03 1.713e-10
 41.35086   -126.9 9.400e+03 1.515e-10
 41.37293   -125.7 9.363e+03 1.406e-10
 41.38317   -124.4 9.615e+03 2.183e-10
 41.40157   -123.9 9.932e+03 2.860e-10
 41.43180   -122.9 9.888e+03 2.574e-10
 41.47228   -121.7 9.822e+03 2.413e-10
 41.51275   -120.5 9.789e+03 2.306e-10
 41.54901   -119.1 9.816e+03 2.244e-10
 41.56924   -119.2 1.022e+04 3.454e-10
 41.59370   -117.9 1.036e+04 3.941e-10
 41.63418   -116.7 1.051e+04 4.528e-10
 41.66087   -115.6 1.080e+04 5.559e-10
 41.68110   -115.3 1.095e+04 5.956e-10
 41.71513   -114.5 1.135e+04 7.578e-10
 41.73691   -114.1 1.187e+04 9.805e-10
 41.74694   -114.5 1.227e+04 1.176e-09
 41.76552   -114.6 1.250e+04 1.286e-09
 41.78576   -114.6 1.270e+04 1.381e-09
 41.80464   -114.8 1.299e+04 1.481e-09
 41.81476   -114.8 1.252e+04 1.264e-09
 41.82055   -115.3 1.270e+04 1.320e-09
 41.83067   -117.3 1.382e+04 1.761e-09
 41.84647   -119.3 1.472e+04 2.178e-09
 41.86671   -121.6 1.560e+04 2.930e-09
 41.88695   -123.9 1.616e+04 4.046e-09
 41.90439   -125.8 1.646e+04 5.334e-09
 41.91451   -126.8 1.654e+04 6.551e-09
 41.92742   -128.1 1.652e+04 6.648e-09
 41.94766   -129.7 1.646e+04 6.294e-09
 41.95872   -132.3 1.658e+04 5.818e-09
 41.96884   -133.7 1.662e+04 6.068e-09
 41.98813   -137.3 1.665e+04 5.990e-09
 42.00837   -143.0 1.553e+04 4.668e-09
 42.02861   -144.6 1.575e+04 5.880e-09
 42.04884   -145.7 1.581e+04 6.261e-09
 42.06908   -146.4 1.566e+04 6.115e-09
 42.08218   -146.9 1.491e+04 4.503e-09
 42.09230   -148.7 1.405e+04 3.078e-09
 42.10269   -150.1 1.279e+04 1.768e-09
 42.11281   -151.2 1.235e+04 1.479e-09
 42.12979   -152.8 1.113e+04 8.586e-10
 42.15003   -154.1 1.026e+04 5.435e-10
 42.16602   -154.9 9.774e+03 3.888e-10
 42.17613   -156.4 9.655e+03 3.616e-10
 42.19050   -156.7 9.461e+03 3.114e-10
 42.21074   -156.2 9.405e+03 2.945e-10
 42.23663   -155.3 9.434e+03 2.918e-10
 42.25560   -156.2 9.388e+03 2.820e-10
 42.26017   -158.5 9.332e+03 2.908e-10
 42.28177   -158.1 9.172e+03 2.859e-10
 42.32224   -157.3 9.042e+03 2.835e-10
 42.36272   -156.4 8.968e+03 2.814e-10
 42.40319   -155.5 8.876e+03 2.704e-10
 42.42784   -154.6 8.701e+03 2.426e-10
 42.44807   -155.7 8.064e+03 1.522e-10
 42.48414   -154.4 7.827e+03 1.258e-10
 42.52461   -152.9 7.617e+03 1.052e-10
 42.56509   -150.8 7.475e+03 9.109e-11
 42.59551   -148.9 7.449e+03 8.543e-11
 42.61575   -149.0 7.253e+03 6.051e-11
 42.64604   -147.1 7.260e+03 5.971e-11
 42.68651   -146.2 7.305e+03 6.022e-11
 42.72699   -146.3 7.388e+03 6.806e-11
 42.76318   -147.7 8.629e+03 2.313e-10
 42.78342   -147.3 8.116e+03 1.720e-10
 42.80794   -147.8 1.018e+04 5.478e-10
 42.83283   -148.0 1.156e+04 1.233e-09
 42.85307   -147.4 1.149e+04 1.238e-09
 42.87867   -147.0 1.193e+04 1.657e-09
 42.89881   -147.4 1.213e+04 1.820e-09
 42.91904   -147.9 1.227e+04 1.965e-09
 42.93928   -148.2 1.220e+04 1.934e-09
 42.95089   -148.5 1.188e+04 1.593e-09
 42.96101   -148.5 1.214e+04 1.817e-09
 42.97660   -148.9 1.184e+04 1.510e-09
 42.98672   -147.7 1.151e+04 1.341e-09
 42.99999   -148.2 1.113e+04 1.023e-09
 43.02023   -148.7 1.073e+04 7.892e-10
 43.03473   -148.9 1.038e+04 6.408e-10
 43.04485   -148.6 1.085e+04 8.894e-10
 43.06070   -148.6 1.054e+04 7.504e-10
 43.08094   -148.5 1.030e+04 6.561e-10
 43.10118   -148.2 1.011e+04 5.921e-10
 43.11856   -147.7 9.986e+03 5.537e-10
 43.12784   -147.5 1.032e+04 6.920e-10
 43.13069   -147.0 1.004e+04 5.633e-10
 43.14165   -146.5 9.937e+03 5.263e-10
 43.16189   -146.0 9.879e+03 5.025e-10
 43.18213   -145.5 9.856e+03 4.905e-10
 43.20237   -145.0 9.849e+03 4.825e-10
 43.22260   -144.3 1.002e+04 5.414e-10
 43.24284   -143.7 1.004e+04 5.332e-10
 43.26308   -143.1 1.005e+04 5.236e-10
 43.27465   -142.5 1.005e+04 5.112e-10
 43.28477   -142.2 9.729e+03 4.183e-10
 43.29635   -141.7 9.722e+03 4.098e-10
 43.30647   -141.5 9.938e+03 4.645e-10
 43.32379   -140.9 9.918e+03 4.529e-10
 43.34403   -140.5 9.896e+03 4.468e-10
 43.36426   -139.9 9.887e+03 4.448e-10
 43.38019   -139.5 9.901e+03 4.457e-10
 43.39031   -139.6 1.008e+04 5.070e-10
 43.40474   -139.4 1.022e+04 5.335e-10
 43.41862   -139.4 1.044e+04 5.994e-10
 43.42884   -139.6 1.003e+04 4.402e-10
 43.44531   -139.5 1.062e+04 6.480e-10
 43.46403   -139.7 1.101e+04 7.925e-10
 43.47414   -139.8 1.120e+04 8.980e-10
 43.48569   -139.9 1.153e+04 1.067e-09
 43.50592   -140.2 1.182e+04 1.238e-09
 43.52616   -140.6 1.205e+04 1.385e-09
 43.54640   -141.0 1.214e+04 1.451e-09
 43.57685   -141.7 1.213e+04 1.442e-09
 43.61742   -142.2 1.180e+04 1.268e-09
 43.64191   -142.4 1.087e+04 7.749e-10
 43.66215   -143.0 1.048e+04 6.023e-10
 43.69663   -142.5 9.618e+03 3.470e-10
 43.71687   -143.2 9.380e+03 2.944e-10
 43.73885   -142.2 8.726e+03 1.814e-10
 43.77932   -140.7 8.412e+03 1.327e-10
 43.80968   -139.0 8.204e+03 1.069e-10
 43.82992   -139.4 8.122e+03 9.660e-11
 43.86027   -137.6 7.983e+03 8.323e-11
 43.90074   -135.7 7.873e+03 7.474e-11
 43.94122   -133.7 7.795e+03 7.043e-11
 43.97735   -131.6 7.767e+03 6.918e-11
 43.99759   -132.0 7.770e+03 6.499e-11
 44.00480   -129.9 7.767e+03 6.466e-11
 44.02503   -129.9 7.906e+03 7.710e-11
 44.06264   -127.8 7.903e+03 8.133e-11
 44.10312   -125.8 7.922e+03 8.878e-11
 44.14359   -123.7 7.962e+03 9.773e-11
 44.16526   -121.6 8.020e+03 1.086e-10
 44.18550   -122.3 8.152e+03 1.159e-10
 44.22454   -120.4 8.264e+03 1.375e-10
 44.26501   -118.6 8.427e+03 1.680e-10
 44.29273   -116.9 8.654e+03 2.112e-10
 44.31297   -117.0 8.910e+03 2.607e-10
 44.33293   -115.4 9.090e+03 3.018e-10
 44.35317   -116.9 9.574e+03 4.252e-10
 44.38644   -115.7 9.837e+03 5.122e-10
 44.42691   -114.5 1.003e+04 5.895e-10
 44.46739   -113.4 1.013e+04 6.432e-10
 44.50061   -112.3 1.013e+04 6.666e-10
 44.52084   -113.9 1.022e+04 7.308e-10
 44.54834   -112.6 1.004e+04 6.690e-10
 44.58066   -111.0 9.767e+03 6.056e-10
 44.60090   -111.2 1.001e+04 6.619e-10
 44.62928   -109.5 9.813e+03 6.066e-10
 44.66828   -107.7 9.587e+03 5.339e-10
 44.68851   -108.5 9.200e+03 4.302e-10
 44.71023   -106.7 8.982e+03 3.679e-10
 44.75071   -104.9 8.806e+03 3.171e-10
 44.79118   -103.6 8.714e+03 2.848e-10
 44.83166   -102.9 8.673e+03 2.642e-10
 44.85619   -102.9 8.690e+03 2.585e-10
 44.87289   -106.5 9.210e+03 3.718e-10
 44.88883   -106.1 9.399e+03 3.423e-10
 44.90239   -108.9 8.822e+03 3.080e-10
 44.92253   -115.5 1.159e+04 5.315e-10
 44.93983   -121.8 1.556e+04 1.274e-09
 44.94994   -125.8 1.785e+04 3.568e-09
 44.96300   -129.4 1.914e+04 8.212e-09
 44.98324   -132.1 1.966e+04 1.314e-08
 45.00348   -134.7 1.967e+04 1.461e-08
 45.02248   -137.0 1.876e+04 1.274e-08
 45.03255   -137.0 1.693e+04 6.703e-09
 45.04390   -140.7 1.578e+04 5.283e-09
 45.06419   -142.1 1.458e+04 3.595e-09
 45.08443   -142.9 1.368e+04 2.638e-09
 45.10466   -143.2 1.317e+04 2.115e-09
 45.11762   -143.1 1.280e+04 1.790e-09
 45.12773   -143.9 1.278e+04 1.872e-09
 45.14514   -143.3 1.242e+04 1.632e-09
 45.16537   -142.6 1.213e+04 1.462e-09
 45.17657   -141.7 1.191e+04 1.333e-09
 45.18669   -141.1 1.164e+04 9.709e-10
 45.20145   -140.1 1.141e+04 8.834e-10
 45.21157   -140.7 1.144e+04 9.746e-10
 45.22609   -139.6 1.123e+04 8.951e-10
 45.24632   -138.3 1.103e+04 8.279e-10
 45.26656   -136.9 1.086e+04 7.759e-10
 45.28529   -135.6 1.072e+04 7.334e-10
 45.29541   -135.9 1.077e+04 7.891e-10
 45.30703   -134.6 1.063e+04 7.422e-10
 45.32053   -133.1 1.051e+04 7.066e-10
 45.33065   -133.0 1.052e+04 5.896e-10
 45.34751   -131.4 1.050e+04 5.888e-10
 45.36775   -129.9 1.055e+04 6.184e-10
 45.37924   -128.4 1.064e+04 6.780e-10
 45.38936   -128.6 1.080e+04 7.704e-10
 45.40822   -127.1 1.085e+04 8.156e-10
 45.42846   -125.6 1.080e+04 8.739e-10
 45.44870   -123.9 1.054e+04 1.052e-09
 45.46308   -122.9 1.121e+04 1.466e-09
 45.46876   -125.4 1.437e+04 2.349e-09
 45.47462   -123.8 1.280e+04 2.078e-09
 45.48917   -124.2 1.624e+04 3.684e-09
 45.50941   -125.5 1.967e+04 7.913e-09
 45.52454   -127.7 2.198e+04 1.916e-08
 45.53461   -128.3 2.292e+04 2.989e-08
 45.54145   -129.1 2.368e+04 4.670e-08
 45.54650   -128.9 2.331e+04 6.057e-08
 45.55187   -129.9 2.319e+04 9.655e-08
 45.55693   -130.9 2.267e+04 1.296e-07
 45.56496   -131.6 2.224e+04 1.538e-07
 45.57508   -131.9 2.189e+04 1.677e-07
 45.58520   -131.7 2.150e+04 1.775e-07
 45.59379   -131.4 2.135e+04 1.670e-07
 45.59885   -131.3 2.129e+04 9.499e-08
 45.60544   -131.2 2.156e+04 6.250e-08
 45.61343   -131.3 2.210e+04 3.705e-08
 45.61849   -131.5 2.157e+04 5.738e-08
 45.62567   -131.7 2.230e+04 3.165e-08
 45.63571   -132.2 2.314e+04 1.618e-08
 45.64077   -136.2 2.315e+04 5.348e-09
 45.64591   -139.9 2.086e+04 2.805e-09
 45.65603   -143.1 1.682e+04 1.736e-09
 45.67126   -145.7 1.327e+04 1.317e-09
 45.69154   -146.5 1.212e+04 1.247e-09
 45.71178   -146.8 1.156e+04 1.158e-09
 45.72470   -147.0 1.110e+04 1.013e-09
 45.73482   -147.6 1.010e+04 6.482e-10
 45.75225   -147.8 1.007e+04 6.251e-10
 45.76255   -148.5 1.018e+04 6.354e-10
 45.77267   -148.3 1.038e+04 7.599e-10
 45.79273   -149.2 1.045e+04 7.715e-10
 45.80854   -150.3 1.046e+04 8.005e-10
 45.81866   -150.7 1.026e+04 7.198e-10
 45.83320   -151.7 1.023e+04 7.453e-10
 45.85344   -152.7 1.020e+04 7.478e-10
 45.87368   -153.9 1.013e+04 7.211e-10
 45.89237   -155.4 1.016e+04 6.837e-10
 45.90249   -155.6 1.000e+04 6.313e-10
 45.90652   -158.2 1.011e+04 6.275e-10
 45.91664   -158.7 1.022e+04 6.235e-10
 45.93439   -162.6 1.071e+04 6.490e-10
 45.95463   -166.9 1.156e+04 8.999e-10
 45.97486   -170.5 1.228e+04 1.417e-09
 45.98633   -173.3 1.279e+04 2.012e-09
 45.99645   -173.5 1.304e+04 2.286e-09
 46.01534   -175.9 1.317e+04 2.556e-09
 46.03557   -178.2 1.313e+04 2.593e-09
 46.05048   -180.1 1.271e+04 2.356e-09
 46.06060   -179.0 1.263e+04 2.222e-09
 46.07016   -180.6 1.212e+04 1.846e-09
 46.08028   -180.5 1.199e+04 1.767e-09
 46.09629   -181.8 1.141e+04 1.391e-09
 46.11652   -182.7 1.099e+04 1.134e-09
 46.13676   -183.2 1.075e+04 9.588e-10
 46.15400   -183.6 1.067e+04 8.426e-10
 46.16412   -183.1 1.040e+04 7.473e-10
 46.17723   -183.3 1.044e+04 6.714e-10
 46.19445   -183.6 1.048e+04 6.510e-10
 46.20457   -182.6 1.036e+04 7.390e-10
 46.21771   -183.0 1.037e+04 7.265e-10
 46.23784   -183.4 1.047e+04 7.256e-10
 46.24795   -183.0 1.017e+04 6.205e-10
 46.25818   -183.5 1.042e+04 6.463e-10
 46.27842   -184.0 1.076e+04 7.690e-10
 46.29866   -184.4 1.111e+04 9.614e-10
 46.31890   -184.6 1.140e+04 1.201e-09
 46.33179   -184.7 1.163e+04 1.464e-09
 46.34119   -184.5 1.123e+04 1.199e-09
 46.34853   -183.2 1.071e+04 1.002e-09
 46.35937   -183.4 1.101e+04 1.214e-09
 46.37961   -183.6 1.134e+04 1.502e-09
 46.39984   -183.6 1.174e+04 1.883e-09
 46.41563   -183.5 1.223e+04 2.329e-09
 46.42574   -183.4 1.196e+04 2.076e-09
 46.44032   -183.2 1.247e+04 2.524e-09
 46.46056   -182.9 1.291e+04 2.827e-09
 46.48079   -182.8 1.311e+04 2.892e-09
 46.49250   -182.8 1.322e+04 2.832e-09
 46.50105   -181.8 1.354e+04 3.637e-09
 46.50958   -181.7 1.312e+04 3.168e-09
 46.52127   -181.7 1.318e+04 3.120e-09
 46.54150   -182.0 1.309e+04 2.560e-09
 46.56174   -182.7 1.261e+04 1.923e-09
 46.58198   -183.8 1.209e+04 1.547e-09
 46.59342   -184.9 1.185e+04 1.425e-09
 46.60353   -185.0 1.166e+04 1.322e-09
 46.62245   -186.2 1.166e+04 1.312e-09
 46.63647   -187.4 1.189e+04 1.424e-09
 46.64659   -185.8 1.182e+04 1.448e-09
 46.66293   -187.1 1.208e+04 1.593e-09
 46.67725   -188.1 1.232e+04 1.763e-09
 46.68737   -188.4 1.208e+04 1.593e-09
 46.70340   -189.5 1.214e+04 1.653e-09
 46.72364   -190.5 1.212e+04 1.658e-09
 46.74388   -191.3 1.179e+04 1.518e-09
 46.76109   -191.8 1.128e+04 1.190e-09
 46.77121   -192.0 1.110e+04 1.084e-09
 46.78043   -192.2 1.057e+04 7.945e-10
 46.79055   -191.3 1.055e+04 7.835e-10
 46.80459   -191.4 1.010e+04 5.641e-10
 46.82483   -191.4 9.833e+03 4.242e-10
 46.85528   -191.5 9.712e+03 3.446e-10
 46.89585   -191.6 9.579e+03 2.906e-10
 46.92459   -190.9 9.517e+03 2.596e-10
 46.93746   -189.9 9.518e+03 2.688e-10
 46.94919   -190.0 9.456e+03 2.527e-10
 46.97680   -189.0 9.475e+03 2.441e-10
 47.01727   -188.1 9.510e+03 2.428e-10
 47.05775   -187.2 9.745e+03 2.470e-10
 47.09663   -186.4 1.004e+04 2.647e-10
 47.11686   -186.5 9.927e+03 2.438e-10
 47.13870   -185.7 1.023e+04 2.824e-10
 47.17917   -185.1 1.052e+04 3.490e-10
 47.21253   -184.2 1.083e+04 4.422e-10
 47.23276   -183.1 1.045e+04 3.312e-10
 47.26012   -182.4 1.081e+04 4.227e-10
 47.28444   -181.7 1.099e+04 4.808e-10
 47.30467   -181.6 1.094e+04 4.461e-10
 47.33085   -181.4 1.110e+04 5.377e-10
 47.35099   -181.3 1.111e+04 5.442e-10
 47.36642   -181.1 1.116e+04 5.335e-10
 47.37348   -180.7 1.099e+04 4.841e-10
 47.37829   -180.5 1.097e+04 4.618e-10
 47.39147   -180.4 1.099e+04 4.578e-10
 47.41170   -180.3 1.107e+04 4.394e-10
 47.43194   -180.3 1.118e+04 4.272e-10
 47.45201   -180.5 1.147e+04 4.225e-10
 47.46213   -180.6 1.158e+04 4.468e-10
 47.47242   -180.9 1.183e+04 4.782e-10
 47.49265   -181.0 1.195e+04 5.346e-10
 47.51038   -181.0 1.199e+04 6.074e-10
 47.52050   -179.9 1.187e+04 4.911e-10
 47.53313   -179.9 1.193e+04 5.645e-10
 47.54596   -179.8 1.196e+04 6.422e-10
 47.55608   -179.7 1.198e+04 6.582e-10
 47.57360   -179.5 1.197e+04 6.980e-10
 47.59384   -179.2 1.196e+04 7.126e-10
 47.61408   -179.0 1.190e+04 7.097e-10
 47.62980   -178.9 1.187e+04 6.898e-10
 47.63992   -179.0 1.177e+04 6.107e-10
 47.65435   -179.0 1.176e+04 5.887e-10
 47.66447   -178.1 1.197e+04 6.813e-10
 47.67479   -178.1 1.197e+04 6.779e-10
 47.69503   -178.3 1.202e+04 6.852e-10
 47.71364   -178.5 1.212e+04 7.475e-10
 47.72375   -178.5 1.199e+04 6.573e-10
 47.73550   -178.6 1.210e+04 7.693e-10
 47.75574   -178.7 1.222e+04 8.919e-10
 47.77597   -178.7 1.228e+04 9.908e-10
 47.79621   -178.8 1.227e+04 1.054e-09
 47.80759   -178.8 1.225e+04 1.073e-09
 47.80969   -178.6 1.219e+04 1.029e-09
 47.81855   -178.1 1.218e+04 9.775e-10
 47.83669   -178.1 1.213e+04 9.845e-10
 47.85692   -178.0 1.207e+04 9.673e-10
 47.87716   -177.9 1.200e+04 9.275e-10
 47.89143   -177.8 1.191e+04 8.624e-10
 47.90154   -177.6 1.195e+04 9.004e-10
 47.91763   -177.3 1.186e+04 8.170e-10
 47.93787   -177.0 1.175e+04 7.083e-10
 47.95240   -176.8 1.164e+04 5.836e-10
 47.96252   -176.8 1.152e+04 4.962e-10
 47.97526   -176.8 1.140e+04 4.141e-10
 47.98538   -176.6 1.147e+04 4.245e-10
 47.99858   -176.7 1.135e+04 3.707e-10
 48.02904   -176.8 1.125e+04 3.348e-10
 48.06961   -176.3 1.094e+04 2.610e-10
 48.09656   -175.6 1.075e+04 2.237e-10
 48.11680   -175.0 1.054e+04 2.190e-10
 48.14313   -174.1 1.052e+04 2.147e-10
 48.16337   -174.1 1.053e+04 2.168e-10
 48.19103   -173.3 1.072e+04 2.359e-10
 48.23151   -172.8 1.103e+04 2.890e-10
 48.27198   -172.6 1.126e+04 3.375e-10
 48.31080   -172.7 1.137e+04 3.528e-10
 48.33104   -172.9 1.144e+04 3.693e-10
 48.35293   -173.1 1.145e+04 3.657e-10
 48.38449   -173.4 1.148e+04 3.422e-10
 48.40473   -173.1 1.171e+04 4.695e-10
 48.43388   -173.9 1.188e+04 5.057e-10
 48.47435   -175.3 1.220e+04 6.148e-10
 48.49871   -177.2 1.263e+04 8.492e-10
 48.51895   -177.5 1.257e+04 7.716e-10
 48.55530   -179.8 1.297e+04 1.056e-09
 48.59578   -182.7 1.329e+04 1.315e-09
 48.63625   -185.6 1.339e+04 1.403e-09
 48.66638   -188.3 1.310e+04 1.318e-09
 48.68232   -188.2 1.318e+04 1.273e-09
 48.69256   -188.8 1.320e+04 1.286e-09
 48.70689   -190.1 1.276e+04 1.009e-09
 48.72712   -190.7 1.254e+04 8.389e-10
 48.75758   -191.7 1.216e+04 6.348e-10
 48.79815   -192.2 1.174e+04 4.449e-10
 48.83405   -192.4 1.163e+04 3.540e-10
 48.85429   -192.1 1.174e+04 3.873e-10
 48.87910   -191.9 1.173e+04 3.689e-10
 48.91957   -191.4 1.185e+04 3.754e-10
 48.96005   -190.9 1.207e+04 4.019e-10
 48.98050   -190.9 1.255e+04 5.435e-10
 48.99052   -191.9 1.286e+04 8.328e-10
 49.01044   -191.9 1.294e+04 9.886e-10
 49.02177   -191.8 1.301e+04 1.172e-09
 49.03188   -191.9 1.318e+04 1.365e-09
 49.05092   -191.7 1.319e+04 1.523e-09
 49.07116   -191.4 1.319e+04 1.601e-09
 49.09139   -191.1 1.312e+04 1.592e-09
 49.10560   -190.9 1.311e+04 1.501e-09
 49.11572   -191.0 1.306e+04 1.481e-09
 49.12436   -190.8 1.298e+04 1.356e-09
 49.13448   -191.0 1.283e+04 1.151e-09
 49.15210   -191.1 1.272e+04 9.827e-10
 49.17234   -191.2 1.261e+04 8.470e-10
 49.18944   -191.4 1.252e+04 7.563e-10
 49.19956   -191.5 1.245e+04 7.203e-10
 49.21282   -191.8 1.239e+04 6.899e-10
 49.23305   -192.1 1.237e+04 6.856e-10
 49.25329   -192.4 1.240e+04 7.120e-10
 49.26833   -192.9 1.255e+04 7.963e-10
 49.27819   -193.2 1.248e+04 7.755e-10
 49.28339   -193.2 1.245e+04 7.436e-10
 49.29376   -193.8 1.268e+04 8.394e-10
 49.31400   -194.8 1.293e+04 9.096e-10
 49.33424   -196.2 1.314e+04 9.482e-10
 49.35448   -197.9 1.328e+04 9.735e-10
 49.36723   -199.9 1.336e+04 1.007e-09
 49.37735   -200.0 1.333e+04 1.004e-09
 49.39495   -201.9 1.332e+04 1.071e-09
 49.41230   -203.5 1.319e+04 1.161e-09
 49.42242   -204.7 1.334e+04 1.545e-09
 49.43543   -205.7 1.327e+04 1.569e-09
 49.45106   -206.3 1.283e+04 1.569e-09
 49.46118   -206.0 1.274e+04 1.499e-09
 49.47590   -206.6 1.260e+04 1.235e-09
 49.49614   -207.3 1.242e+04 9.581e-10
 49.51637   -208.1 1.220e+04 7.024e-10
 49.53490   -208.8 1.194e+04 5.163e-10
 49.54502   -208.5 1.193e+04 4.962e-10
 49.55636   -209.0 1.170e+04 4.026e-10
 49.57670   -209.9 1.150e+04 3.937e-10
 49.60764   -210.5 1.125e+04 3.291e-10
 49.64811   -210.7 1.100e+04 2.764e-10
 49.68859   -210.8 1.086e+04 2.493e-10
 49.71288   -210.7 1.084e+04 2.428e-10
 49.73312   -210.5 1.082e+04 2.294e-10
 49.76953   -210.6 1.081e+04 2.311e-10
 49.81001   -211.5 1.108e+04 3.062e-10
 49.84439   -212.8 1.175e+04 5.071e-10
 49.86463   -212.8 1.176e+04 5.586e-10
 49.88055   -214.3 1.224e+04 7.638e-10
 49.90079   -213.7 1.191e+04 6.334e-10
 49.93143   -215.5 1.211e+04 6.758e-10
 49.96169   -216.9 1.226e+04 7.102e-10
 49.97431   -218.6 1.228e+04 7.410e-10
 49.98443   -217.2 1.211e+04 6.410e-10
 49.99828   -219.1 1.202e+04 6.628e-10
 50.00840   -219.0 1.186e+04 6.262e-10
 50.02230   -220.1 1.186e+04 6.505e-10
 50.04254   -220.8 1.204e+04 7.626e-10
 50.05815   -221.4 1.224e+04 9.220e-10
 50.06827   -220.4 1.196e+04 7.387e-10
 50.08302   -220.8 1.212e+04 8.845e-10
 50.10325   -221.1 1.221e+04 1.016e-09
 50.12349   -221.3 1.225e+04 1.106e-09
 50.14199   -221.2 1.224e+04 1.144e-09
 50.15062   -220.4 1.200e+04 1.001e-09
 50.15236   -220.4 1.191e+04 1.023e-09
 50.16396   -220.3 1.192e+04 1.085e-09
 50.18420   -220.1 1.196e+04 1.120e-09
 50.20444   -219.9 1.203e+04 1.143e-09
 50.22468   -219.8 1.217e+04 1.173e-09
 50.23594   -219.7 1.239e+04 1.234e-09
 50.24606   -218.9 1.217e+04 1.149e-09
 50.26515   -218.9 1.247e+04 1.294e-09
 50.28539   -219.0 1.280e+04 1.524e-09
 50.29633   -218.9 1.313e+04 1.828e-09
 50.30645   -219.5 1.355e+04 2.583e-09
 50.31978   -219.3 1.376e+04 3.028e-09
 50.32989   -218.4 1.374e+04 3.058e-09
 50.34610   -218.1 1.389e+04 3.390e-09
 50.36634   -217.8 1.389e+04 3.526e-09
 50.38657   -217.5 1.382e+04 3.542e-09
 50.40361   -217.0 1.357e+04 3.244e-09
 50.41373   -216.2 1.349e+04 3.173e-09
 50.42705   -215.7 1.322e+04 2.755e-09
 50.44030   -215.2 1.285e+04 2.302e-09
 50.45042   -215.3 1.243e+04 1.867e-09
 50.46752   -214.7 1.207e+04 1.502e-09
 50.48745   -214.0 1.175e+04 1.197e-09
 50.49757   -213.2 1.160e+04 1.018e-09
 50.50800   -212.4 1.136e+04 7.990e-10
 50.52823   -211.5 1.119e+04 6.378e-10
 50.54847   -210.9 1.112e+04 5.678e-10
 50.57138   -210.6 1.109e+04 5.272e-10
 50.59171   -209.8 1.093e+04 4.620e-10
 50.61950   -208.1 1.069e+04 3.962e-10
 50.65997   -206.4 1.053e+04 3.550e-10
 50.70045   -204.7 1.044e+04 3.272e-10
 50.72842   -202.9 1.040e+04 3.086e-10
 50.74689   -203.1 1.026e+04 2.394e-10
 50.75939   -202.0 1.013e+04 1.915e-10
 50.78140   -200.2 1.013e+04 1.903e-10
 50.82187   -198.5 1.015e+04 1.950e-10
 50.86234   -196.6 1.017e+04 2.066e-10
 50.90282   -194.8 1.023e+04 2.203e-10
 50.92706   -193.1 1.032e+04 2.438e-10
 50.94729   -192.0 1.019e+04 1.850e-10
 50.98377   -190.4 1.030e+04 2.160e-10
 51.01636   -188.9 1.044e+04 2.697e-10
 51.03659   -189.1 1.044e+04 2.601e-10
 51.06472   -187.8 1.070e+04 3.514e-10
 51.09473   -186.6 1.105e+04 4.900e-10
 51.11497   -185.5 1.088e+04 4.106e-10
 51.14566   -184.6 1.131e+04 6.051e-10
 51.18614   -183.8 1.172e+04 8.310e-10
 51.21640   -182.9 1.198e+04 1.010e-09
 51.23654   -183.0 1.210e+04 1.098e-09
 51.25677   -183.0 1.228e+04 1.259e-09
 51.27232   -182.9 1.237e+04 1.333e-09
 51.28244   -182.6 1.237e+04 1.308e-09
 51.29725   -182.5 1.245e+04 1.376e-09
 51.31421   -182.3 1.251e+04 1.406e-09
 51.32433   -182.5 1.270e+04 1.590e-09
 51.33772   -182.3 1.278e+04 1.620e-09
 51.35616   -182.2 1.283e+04 1.646e-09
 51.36628   -182.0 1.268e+04 1.583e-09
 51.37820   -181.8 1.271e+04 1.604e-09
 51.39843   -181.5 1.272e+04 1.616e-09
 51.41867   -181.1 1.270e+04 1.618e-09
 51.43891   -180.6 1.268e+04 1.611e-09
 51.45011   -180.1 1.269e+04 1.629e-09
 51.45926   -180.0 1.270e+04 1.644e-09
 51.46830   -180.2 1.264e+04 1.594e-09
 51.47938   -179.8 1.275e+04 1.629e-09
 51.49962   -179.5 1.293e+04 1.751e-09
 51.51986   -179.4 1.317e+04 1.959e-09
 51.53395   -179.4 1.349e+04 2.312e-09
 51.54407   -179.1 1.315e+04 1.737e-09
 51.56033   -179.1 1.345e+04 1.949e-09
 51.58057   -179.4 1.387e+04 2.334e-09
 51.60081   -179.8 1.435e+04 2.982e-09
 51.61226   -180.1 1.482e+04 3.946e-09
 51.61912   -180.2 1.461e+04 3.200e-09
 51.62790   -180.2 1.351e+04 1.629e-09
 51.64128   -181.1 1.428e+04 2.134e-09
 51.66152   -182.3 1.508e+04 3.049e-09
 51.68176   -183.6 1.568e+04 4.368e-09
 51.70162   -184.7 1.615e+04 5.887e-09
 51.71174   -185.5 1.569e+04 4.135e-09
 51.72223   -186.2 1.589e+04 5.708e-09
 51.74247   -186.5 1.584e+04 7.115e-09
 51.75623   -186.7 1.573e+04 7.927e-09
 51.76635   -187.1 1.597e+04 1.047e-08
 51.78294   -186.6 1.541e+04 9.426e-09
 51.79558   -186.2 1.495e+04 7.754e-09
 51.80569   -185.9 1.437e+04 5.726e-09
 51.82342   -185.6 1.408e+04 4.914e-09
 51.84365   -185.5 1.383e+04 4.196e-09
 51.86389   -185.4 1.363e+04 3.676e-09
 51.87941   -185.3 1.345e+04 3.327e-09
 51.88953   -185.3 1.319e+04 2.579e-09
 51.90020   -185.0 1.307e+04 2.448e-09
 51.91031   -186.0 1.287e+04 1.879e-09
 51.92460   -185.7 1.276e+04 1.804e-09
 51.94484   -185.3 1.262e+04 1.677e-09
 51.96325   -184.9 1.245e+04 1.509e-09
 51.97337   -184.9 1.227e+04 1.310e-09
 51.98531   -184.6 1.208e+04 1.170e-09
 52.00555   -184.2 1.186e+04 1.042e-09
 52.02579   -183.7 1.162e+04 9.294e-10
 52.04416   -183.1 1.138e+04 8.296e-10
 52.05428   -183.7 1.127e+04 8.815e-10
 52.05720   -182.6 1.112e+04 7.893e-10
 52.06732   -182.1 1.111e+04 7.306e-10
 52.08650   -181.6 1.109e+04 7.145e-10
 52.11695   -181.2 1.107e+04 6.954e-10
 52.14123   -180.5 1.091e+04 6.275e-10
 52.16147   -180.3 1.081e+04 5.726e-10
 52.18832   -179.1 1.057e+04 4.986e-10
 52.20856   -179.7 1.034e+04 4.448e-10
 52.23847   -178.2 1.012e+04 3.609e-10
 52.27895   -176.6 9.960e+03 2.874e-10
 52.30890   -175.1 9.847e+03 2.299e-10
 52.32914   -174.5 9.893e+03 2.516e-10
 52.35990   -172.9 9.822e+03 2.075e-10
 52.40037   -171.3 9.768e+03 1.707e-10
 52.44085   -169.6 9.733e+03 1.403e-10
 52.47626   -168.0 9.717e+03 1.162e-10
 52.49175   -168.0 9.714e+03 9.434e-11
 52.49681   -167.4 9.752e+03 1.008e-10
 52.52179   -165.8 9.741e+03 9.501e-11
 52.56227   -164.2 9.754e+03 9.306e-11
 52.60274   -162.6 9.771e+03 9.321e-11
 52.64322   -161.2 9.828e+03 9.644e-11
 52.66448   -159.8 9.879e+03 1.008e-10
 52.68472   -159.5 9.965e+03 1.315e-10
 52.72417   -158.2 1.003e+04 1.440e-10
 52.76419   -157.1 1.009e+04 1.514e-10
 52.78442   -157.2 1.013e+04 1.689e-10
 52.80512   -156.4 1.021e+04 1.723e-10
 52.83215   -155.8 1.033e+04 1.783e-10
 52.85239   -155.7 1.039e+04 2.491e-10
 52.88606   -155.1 1.047e+04 2.596e-10
 52.92654   -154.5 1.060e+04 2.864e-10
 52.96701   -154.0 1.070e+04 3.247e-10
 52.99983   -153.4 1.076e+04 3.511e-10
 53.02006   -153.2 1.078e+04 3.562e-10
 53.04796   -152.5 1.078e+04 3.585e-10
 53.07236   -151.5 1.074e+04 3.339e-10
 53.09259   -151.6 1.070e+04 3.161e-10
 53.12891   -150.2 1.067e+04 2.455e-10
 53.16750   -148.7 1.067e+04 1.836e-10
 53.18774   -148.4 1.069e+04 1.742e-10
 53.20986   -146.7 1.071e+04 1.349e-10
 53.25033   -144.9 1.073e+04 1.101e-10
 53.29081   -143.0 1.073e+04 9.747e-11
 53.33128   -140.9 1.072e+04 9.365e-11
 53.35541   -138.8 1.071e+04 9.326e-11
 53.36417   -138.4 1.070e+04 8.429e-11
 53.38053   -138.7 1.067e+04 9.179e-11
 53.41223   -136.6 1.065e+04 9.212e-11
 53.45271   -134.5 1.063e+04 9.407e-11
 53.49318   -132.4 1.060e+04 9.673e-11
 53.52308   -130.2 1.061e+04 9.952e-11
 53.54332   -129.9 1.060e+04 9.306e-11
 53.57413   -127.6 1.060e+04 9.500e-11
 53.61460   -125.3 1.063e+04 9.634e-11
 53.64822   -123.1 1.066e+04 9.773e-11
 53.66846   -123.4 1.061e+04 9.163e-11
 53.69075   -121.3 1.060e+04 9.343e-11
 53.71099   -120.9 1.056e+04 8.617e-11
 53.73603   -118.8 1.056e+04 8.631e-11
 53.77650   -116.7 1.058e+04 8.896e-11
 53.81698   -114.6 1.059e+04 9.643e-11
 53.85745   -112.6 1.059e+04 1.084e-10
 53.87866   -110.5 1.060e+04 1.233e-10
 53.89890   -110.1 1.060e+04 1.130e-10
 53.93615   -108.1 1.063e+04 1.312e-10
 53.95639   -108.5 1.053e+04 1.681e-10
 53.97887   -106.6 1.052e+04 1.941e-10
 54.01935   -104.6 1.050e+04 2.184e-10
 54.04633   -102.6 1.050e+04 2.356e-10
 54.06657   -102.4 1.051e+04 2.936e-10
 54.10030   -100.4 1.057e+04 3.062e-10
 54.14077    -98.3 1.060e+04 3.073e-10
 54.18125    -96.3 1.065e+04 2.925e-10
 54.21400    -94.1 1.069e+04 2.706e-10
 54.23424    -94.0 1.077e+04 3.639e-10
 54.24432    -91.8 1.082e+04 3.297e-10
 54.26456    -92.2 1.081e+04 2.649e-10
 54.30267    -90.1 1.075e+04 2.575e-10
 54.34314    -88.0 1.068e+04 2.519e-10
 54.38167    -85.8 1.061e+04 2.455e-10
 54.40191    -85.6 1.076e+04 2.804e-10
 54.42409    -83.3 1.069e+04 2.612e-10
 54.46457    -81.0 1.063e+04 2.373e-10
 54.50504    -78.6 1.059e+04 2.120e-10
 54.53225    -76.1 1.056e+04 1.882e-10
 54.55249    -76.3 1.061e+04 1.643e-10
 54.56958    -73.9 1.059e+04 1.497e-10
 54.58982    -73.6 1.067e+04 1.521e-10
 54.62646    -71.2 1.065e+04 1.464e-10
 54.66694    -68.8 1.065e+04 1.421e-10
 54.70741    -66.5 1.065e+04 1.383e-10
 54.73725    -64.3 1.064e+04 1.338e-10
 54.75749    -64.2 1.067e+04 1.692e-10
 54.78836    -61.9 1.065e+04 1.744e-10
 54.82019    -59.5 1.064e+04 1.758e-10
 54.84042    -59.8 1.061e+04 1.807e-10
 54.86931    -57.4 1.061e+04 1.634e-10
 54.90492    -55.1 1.066e+04 1.498e-10
 54.92516    -54.9 1.068e+04 1.832e-10
 54.95026    -52.7 1.073e+04 1.732e-10
 54.99073    -50.5 1.081e+04 1.714e-10
 55.03121    -48.5 1.093e+04 1.835e-10
 55.07168    -46.8 1.098e+04 2.217e-10
 55.09283    -45.4 1.107e+04 3.058e-10
 55.10903    -45.6 1.104e+04 3.062e-10
 55.12836    -46.2 1.101e+04 2.507e-10
 55.15263    -44.7 1.109e+04 4.157e-10
 55.19311    -42.8 1.126e+04 6.819e-10
 55.23358    -40.6 1.146e+04 9.414e-10
 55.26050    -38.7 1.147e+04 9.960e-10
 55.28074    -38.7 1.118e+04 6.752e-10
 55.31453    -36.4 1.099e+04 5.458e-10
 55.35500    -34.3 1.096e+04 3.511e-10
 55.39548    -32.8 1.094e+04 2.432e-10
 55.41629    -31.3 1.078e+04 2.065e-10
 55.42875    -31.5 1.072e+04 2.189e-10
 55.44841    -31.3 1.074e+04 2.004e-10
 55.47643    -29.2 1.062e+04 1.939e-10
 55.51690    -27.0 1.063e+04 1.848e-10
 55.55738    -25.3 1.085e+04 1.793e-10
 55.59585    -23.8 1.091e+04 1.994e-10
 55.61608    -23.6 1.090e+04 2.402e-10
 55.63832    -21.4 1.083e+04 2.861e-10
 55.67880    -19.2 1.090e+04 2.830e-10
 55.70422    -17.3 1.105e+04 2.516e-10
 55.72446    -17.8 1.073e+04 3.104e-10
 55.75975    -15.9 1.085e+04 2.831e-10
 55.78376    -14.4 1.094e+04 2.686e-10
 55.80399    -14.4 1.097e+04 2.726e-10
 55.84070    -12.7 1.105e+04 2.577e-10
 55.88117    -10.9 1.107e+04 2.560e-10
 55.92165     -9.5 1.109e+04 2.657e-10
 55.95143     -8.1 1.106e+04 2.962e-10
 55.97166     -8.6 1.100e+04 2.916e-10
 55.99215     -6.8 1.086e+04 3.411e-10
 56.01239     -6.9 1.077e+04 3.234e-10
 56.04307     -4.6 1.069e+04 3.092e-10
 56.08354     -2.6 1.066e+04 2.768e-10
 56.11910     -0.7 1.062e+04 2.466e-10
 56.13934     -0.7 1.052e+04 1.791e-10
 56.16449      1.1 1.044e+04 1.700e-10
 56.20497      3.1 1.041e+04 1.722e-10
 56.24544      5.2 1.040e+04 1.787e-10
 56.28009      7.4 1.046e+04 1.863e-10
 56.30032      7.3 1.043e+04 1.453e-10
 56.30701      9.4 1.048e+04 1.516e-10
 56.32724      9.7 1.040e+04 1.300e-10
 56.36686     11.8 1.043e+04 1.319e-10
 56.40734     14.0 1.045e+04 1.338e-10
 56.44781     16.0 1.046e+04 1.369e-10
 56.47468     17.9 1.046e+04 1.429e-10
 56.49492     18.3 1.046e+04 1.263e-10
 56.52876     20.3 1.047e+04 1.341e-10
 56.56802     22.2 1.044e+04 1.495e-10
 56.58825     22.2 1.034e+04 1.191e-10
 56.60971     24.3 1.030e+04 1.306e-10
 56.64235     26.2 1.028e+04 1.347e-10
 56.66259     26.6 1.032e+04 1.366e-10
 56.69066     28.5 1.033e+04 1.468e-10
 56.73113     30.3 1.035e+04 1.477e-10
 56.77161     32.1 1.036e+04 1.439e-10
 56.81002     33.8 1.037e+04 1.346e-10
 56.83026     34.1 1.045e+04 1.769e-10
 56.85256     35.8 1.045e+04 1.603e-10
 56.87619     37.5 1.044e+04 1.427e-10
 56.89642     37.4 1.048e+04 1.374e-10
 56.93351     39.0 1.047e+04 1.268e-10
 56.97398     40.7 1.047e+04 1.203e-10
 56.99793     42.4 1.046e+04 1.198e-10
 57.01817     42.4 1.050e+04 1.297e-10
 57.05493     44.1 1.048e+04 1.293e-10
 57.09540     46.1 1.047e+04 1.306e-10
 57.13588     48.0 1.046e+04 1.319e-10
 57.16412     50.0 1.044e+04 1.318e-10
 57.17360     50.0 1.037e+04 1.667e-10
 57.18584     50.0 1.038e+04 1.663e-10
 57.21683     52.0 1.035e+04 1.531e-10
 57.25730     54.0 1.032e+04 1.329e-10
 57.29778     55.8 1.031e+04 1.128e-10
 57.33327     57.7 1.027e+04 1.002e-10
 57.35351     57.8 1.027e+04 1.006e-10
 57.37872     59.7 1.025e+04 9.823e-11
 57.41920     61.6 1.024e+04 9.964e-11
 57.45205     63.5 1.022e+04 1.055e-10
 57.47229     63.4 1.014e+04 1.257e-10
 57.50015     65.4 1.011e+04 1.452e-10
 57.52118     67.5 1.010e+04 1.670e-10
 57.54142     67.5 1.013e+04 1.462e-10
 57.58110     69.6 1.013e+04 1.578e-10
 57.62157     71.6 1.016e+04 1.642e-10
 57.66205     73.5 1.025e+04 1.644e-10
 57.68885     75.4 1.029e+04 1.639e-10
 57.70909     75.3 1.026e+04 1.412e-10
 57.73998     77.0 1.031e+04 1.432e-10
 57.76022     77.1 1.036e+04 1.705e-10
 57.78347     78.8 1.040e+04 1.712e-10
 57.82394     80.4 1.046e+04 1.745e-10
 57.85652     82.0 1.051e+04 1.822e-10
 57.87676     82.1 1.045e+04 1.693e-10
 57.90489     83.7 1.049e+04 1.798e-10
 57.94537     85.4 1.052e+04 1.865e-10
 57.98584     87.0 1.052e+04 1.858e-10
 58.02420     88.5 1.051e+04 1.820e-10
 58.04443     88.6 1.042e+04 1.572e-10
 58.04815     90.1 1.042e+04 1.487e-10
 58.06839     90.0 1.039e+04 1.732e-10
 58.10726     91.4 1.041e+04 1.688e-10
 58.14774     92.7 1.047e+04 1.673e-10
 58.18821     93.9 1.051e+04 1.672e-10
 58.21210     95.2 1.054e+04 1.683e-10
 58.23234     95.5 1.054e+04 1.734e-10
 58.26916     96.9 1.054e+04 1.727e-10
 58.30964     98.3 1.053e+04 1.714e-10
 58.33609     99.9 1.052e+04 1.698e-10
 58.35632     99.6 1.055e+04 2.169e-10
 58.37978    101.2 1.058e+04 2.053e-10
 58.40001    101.6 1.058e+04 2.012e-10
 58.43106    103.1 1.067e+04 2.041e-10
 58.47153    104.6 1.076e+04 2.151e-10
 58.51201    106.1 1.085e+04 2.289e-10
 58.54745    107.6 1.092e+04 2.405e-10
 58.56768    107.8 1.098e+04 2.599e-10
 58.59296    109.4 1.099e+04 2.596e-10
 58.62402    110.9 1.101e+04 2.631e-10
 58.64425    110.3 1.104e+04 2.595e-10
 58.67391    111.9 1.103e+04 2.560e-10
 58.71438    113.5 1.103e+04 2.471e-10
 58.73536    115.1 1.101e+04 2.286e-10
 58.75559    115.3 1.092e+04 1.818e-10
 58.79533    116.9 1.089e+04 1.562e-10
 58.83580    118.5 1.084e+04 1.346e-10
 58.87628    120.2 1.077e+04 1.215e-10
 58.90303    122.0 1.072e+04 1.195e-10
 58.91846    122.3 1.067e+04 1.127e-10
 58.93219    122.1 1.066e+04 9.933e-11
 58.95723    124.2 1.066e+04 1.019e-10
 58.99770    126.4 1.069e+04 1.065e-10
 59.03818    128.6 1.075e+04 1.113e-10
 59.07070    130.8 1.083e+04 1.153e-10
 59.09094    131.2 1.082e+04 1.132e-10
 59.11912    133.3 1.089e+04 1.150e-10
 59.15960    135.5 1.094e+04 1.174e-10
 59.19988    137.6 1.098e+04 1.221e-10
 59.23818    139.4 1.098e+04 1.152e-10
 59.25861    139.7 1.095e+04 1.128e-10
 59.28102    141.8 1.097e+04 1.287e-10
 59.32150    143.9 1.098e+04 1.511e-10
 59.36197    146.0 1.101e+04 1.833e-10
 59.40245    148.0 1.105e+04 2.294e-10
 59.42628    150.0 1.114e+04 2.910e-10
 59.44652    150.3 1.111e+04 2.764e-10
 59.48339    152.1 1.124e+04 3.503e-10
 59.50805    153.8 1.141e+04 4.324e-10
 59.52829    153.9 1.140e+04 4.168e-10
 59.56434    155.3 1.152e+04 4.258e-10
 59.59395    156.5 1.153e+04 4.210e-10
 59.61419    156.6 1.149e+04 4.168e-10
 59.64529    157.7 1.151e+04 4.071e-10
 59.68577    158.9 1.151e+04 4.022e-10
 59.72624    160.0 1.152e+04 4.098e-10
 59.76162    161.3 1.157e+04 4.418e-10
 59.78186    161.2 1.157e+04 4.923e-10
 59.79598    162.4 1.170e+04 5.841e-10
 59.81622    162.2 1.164e+04 4.645e-10
 59.84766    163.4 1.177e+04 5.044e-10
 59.88814    164.3 1.181e+04 5.046e-10
 59.92861    165.0 1.184e+04 4.816e-10
 59.94953    165.7 1.181e+04 4.202e-10
 59.96977    165.4 1.173e+04 3.443e-10
 60.00956    166.1 1.162e+04 2.795e-10
 60.05004    166.7 1.148e+04 2.437e-10
 60.08392    167.5 1.126e+04 2.416e-10
 60.10415    168.2 1.123e+04 2.313e-10
 60.11720    169.6 1.119e+04 2.381e-10
 60.13744    169.8 1.114e+04 2.285e-10
 60.17146    171.3 1.111e+04 2.487e-10
 60.21193    172.8 1.110e+04 2.703e-10
 60.25241    174.4 1.108e+04 2.880e-10
 60.28487    175.9 1.106e+04 3.025e-10
 60.30511    176.3 1.102e+04 2.977e-10
 60.33336    177.8 1.102e+04 3.160e-10
 60.37185    179.3 1.105e+04 3.481e-10
 60.39209    180.1 1.110e+04 3.537e-10
 60.41431    181.5 1.123e+04 4.233e-10
 60.45254    182.8 1.142e+04 5.332e-10
 60.47278    183.5 1.138e+04 5.326e-10
 60.49525    184.5 1.157e+04 6.589e-10
 60.52551    184.6 1.162e+04 6.967e-10
 60.53586    184.8 1.163e+04 6.963e-10
 60.54597    185.1 1.149e+04 8.218e-10
 60.55642    185.9 1.144e+04 9.122e-10
 60.56654    186.3 1.151e+04 8.825e-10
 60.58613    187.1 1.151e+04 8.857e-10
 60.60636    187.6 1.152e+04 8.506e-10
 60.62660    187.8 1.150e+04 7.326e-10
 60.64026    187.7 1.154e+04 5.722e-10
 60.65038    188.0 1.168e+04 5.375e-10
 60.66708    187.3 1.219e+04 4.724e-10
 60.67982    186.0 1.261e+04 4.815e-10
 60.68994    183.6 1.550e+04 1.942e-09
 60.70755    181.1 1.574e+04 2.647e-09
 60.72409    179.1 1.541e+04 3.489e-09
 60.73421    178.6 1.559e+04 4.106e-09
 60.74802    178.1 1.517e+04 5.245e-09
 60.76826    178.1 1.483e+04 6.362e-09
 60.78850    178.3 1.475e+04 6.988e-09
 60.80793    178.6 1.485e+04 6.879e-09
 60.81805    178.3 1.523e+04 8.252e-09
 60.82379    178.4 1.531e+04 7.915e-09
 60.83391    177.6 1.573e+04 5.519e-09
 60.84921    176.6 1.554e+04 4.043e-09
 60.86945    175.3 1.497e+04 3.303e-09
 60.88969    174.2 1.439e+04 2.939e-09
 60.90188    173.5 1.400e+04 2.760e-09
 60.91200    172.4 1.371e+04 2.315e-09
 60.93016    171.7 1.347e+04 2.199e-09
 60.95040    171.3 1.332e+04 2.104e-09
 60.96775    170.6 1.327e+04 2.038e-09
 60.98294    170.6 1.296e+04 1.817e-09
 60.99603    170.8 1.244e+04 1.417e-09
 61.02142    170.2 1.231e+04 1.211e-09
 61.06190    169.1 1.214e+04 9.820e-10
 61.10237    167.9 1.193e+04 7.730e-10
 61.14285    166.9 1.167e+04 6.261e-10
 61.16370    166.5 1.142e+04 5.681e-10
 61.18394    166.9 1.162e+04 6.452e-10
 61.22379    166.6 1.159e+04 6.945e-10
 61.25588    166.7 1.164e+04 7.850e-10
 61.27612    168.2 1.148e+04 6.907e-10
 61.30474    168.3 1.158e+04 8.525e-10
 61.33138    168.6 1.166e+04 9.821e-10
 61.35161    168.3 1.195e+04 1.202e-09
 61.38569    168.5 1.190e+04 1.140e-09
 61.42617    169.0 1.178e+04 9.760e-10
 61.46664    169.7 1.164e+04 7.790e-10
 61.49905    170.7 1.148e+04 6.220e-10
 61.51928    169.6 1.148e+04 4.816e-10
 61.54381    170.9 1.133e+04 4.624e-10
 61.56405    171.6 1.168e+04 7.184e-10
 61.58806    173.1 1.157e+04 6.382e-10
 61.62854    174.8 1.149e+04 5.908e-10
 61.66672    176.7 1.144e+04 5.487e-10
 61.68696    175.8 1.156e+04 5.955e-10
 61.70949    177.9 1.154e+04 6.041e-10
 61.74996    180.1 1.156e+04 6.248e-10
 61.79044    182.3 1.161e+04 6.526e-10
 61.83091    184.5 1.166e+04 6.842e-10
 61.85198    186.6 1.173e+04 7.118e-10
 61.85546    187.1 1.165e+04 5.556e-10
 61.87486    187.0 1.203e+04 8.673e-10
 61.91186    189.3 1.211e+04 9.240e-10
 61.95233    191.6 1.221e+04 9.746e-10
 61.99281    193.8 1.227e+04 9.799e-10
 62.02230    195.8 1.227e+04 9.645e-10
 62.04254    195.6 1.266e+04 1.290e-09
 62.07376    197.5 1.265e+04 1.203e-09
 62.11423    199.4 1.258e+04 1.060e-09
 62.13992    201.3 1.249e+04 9.119e-10
 62.16015    202.1 1.264e+04 1.168e-09
 62.18997    203.9 1.252e+04 9.987e-10
 62.21021    203.6 1.282e+04 1.250e-09
 62.23565    205.3 1.279e+04 1.111e-09
 62.27613    206.8 1.282e+04 1.035e-09
 62.31660    208.0 1.285e+04 9.896e-10
 62.35708    208.9 1.281e+04 9.088e-10
 62.37788    209.7 1.265e+04 7.597e-10
 62.39812    208.8 1.282e+04 8.993e-10
 62.42785    209.8 1.264e+04 7.251e-10
 62.44809    210.2 1.307e+04 9.764e-10
 62.46162    210.7 1.279e+04 7.622e-10
 62.47164    210.2 1.293e+04 7.825e-10
 62.48842    210.1 1.276e+04 6.850e-10
 62.50866    210.2 1.236e+04 6.725e-10
 62.52890    210.4 1.227e+04 6.725e-10
 62.54535    210.7 1.217e+04 6.874e-10
 62.55547    210.0 1.212e+04 8.587e-10
 62.56937    210.5 1.208e+04 8.647e-10
 62.58174    211.0 1.209e+04 8.725e-10
 62.59186    210.9 1.213e+04 9.496e-10
 62.60985    211.5 1.213e+04 9.436e-10
 62.62919    212.0 1.214e+04 9.511e-10
 62.63931    210.9 1.209e+04 8.877e-10
 62.65032    211.3 1.202e+04 8.527e-10
 62.67056    211.5 1.196e+04 8.212e-10
 62.69080    211.8 1.190e+04 7.954e-10
 62.71103    211.9 1.186e+04 7.731e-10
 62.72314    212.0 1.182e+04 7.489e-10
 62.72770    210.6 1.181e+04 6.722e-10
 62.73582    209.9 1.169e+04 5.903e-10
 62.75151    209.9 1.164e+04 5.381e-10
 62.77175    209.9 1.156e+04 4.879e-10
 62.80220    209.8 1.126e+04 4.000e-10
 62.84277    210.7 1.105e+04 3.493e-10
 62.88089    211.6 1.084e+04 3.082e-10
 62.90113    209.8 1.053e+04 2.729e-10
 62.92372    211.0 1.054e+04 2.742e-10
 62.96419    212.2 1.063e+04 2.902e-10
 63.00371    213.5 1.081e+04 3.312e-10
 63.02395    213.0 1.094e+04 3.707e-10
 63.04514    213.9 1.109e+04 4.341e-10
 63.06870    213.9 1.112e+04 4.826e-10
 63.08894    213.1 1.097e+04 4.694e-10
 63.12609    213.8 1.103e+04 4.676e-10
 63.16657    214.6 1.105e+04 4.267e-10
 63.20704    215.1 1.096e+04 3.467e-10
 63.23647    215.2 1.066e+04 2.744e-10
 63.25671    214.6 1.021e+04 2.259e-10
 63.28799    214.8 1.018e+04 2.280e-10
 63.31188    214.4 1.023e+04 2.509e-10
 63.33212    213.3 1.030e+04 2.813e-10
 63.36894    212.9 1.052e+04 3.501e-10
 63.40414    212.3 1.073e+04 4.215e-10
 63.42438    211.9 1.076e+04 4.242e-10
 63.43967    211.5 1.090e+04 4.679e-10
 63.45565    210.9 1.101e+04 5.162e-10
 63.46577    210.4 1.093e+04 5.227e-10
 63.49026    209.7 1.092e+04 5.276e-10
 63.53084    208.7 1.080e+04 5.104e-10
 63.57131    207.8 1.051e+04 4.506e-10
 63.59205    207.1 1.014e+04 3.759e-10
 63.60032    207.5 9.981e+03 3.572e-10
 63.62005    206.8 9.909e+03 3.225e-10
 63.65226    206.5 9.498e+03 2.364e-10
 63.69273    206.2 9.157e+03 2.001e-10
 63.73321    206.1 9.103e+03 1.975e-10
 63.75972    206.0 9.110e+03 1.978e-10
 63.77996    206.8 8.950e+03 1.718e-10
 63.81416    207.0 8.968e+03 1.773e-10
 63.85463    207.4 8.998e+03 1.917e-10
 63.88775    207.9 9.071e+03 2.178e-10
 63.90798    207.1 9.319e+03 2.622e-10
 63.92740    207.2 9.460e+03 3.101e-10
 63.94763    208.3 9.313e+03 2.930e-10
 63.96584    208.1 9.415e+03 3.231e-10
 63.98598    208.2 9.566e+03 3.675e-10
 64.00622    208.4 9.920e+03 4.847e-10
 64.02115    208.5 1.044e+04 7.120e-10
 64.03127    208.8 1.027e+04 6.413e-10
 64.04164    208.8 1.084e+04 9.548e-10
 64.05175    208.2 1.120e+04 1.152e-09
 64.06693    208.2 1.176e+04 1.621e-09
 64.08716    208.2 1.224e+04 2.013e-09
 64.10499    208.0 1.250e+04 2.091e-09
 64.11511    208.1 1.224e+04 1.893e-09
 64.12764    207.3 1.224e+04 1.876e-09
 64.14788    206.5 1.214e+04 1.738e-09
 64.16811    205.7 1.180e+04 1.415e-09
 64.18560    204.9 1.128e+04 1.058e-09
 64.19572    203.6 1.117e+04 9.790e-10
 64.19894    202.4 1.059e+04 7.533e-10
 64.20906    202.5 1.039e+04 6.711e-10
 64.22882    201.3 9.980e+03 5.682e-10
 64.24906    200.3 9.848e+03 5.502e-10
 64.26930    199.6 9.810e+03 5.495e-10
 64.28278    199.1 9.780e+03 5.520e-10
 64.29290    198.7 9.492e+03 4.540e-10
 64.30977    198.3 9.458e+03 4.550e-10
 64.32957    198.0 9.411e+03 4.557e-10
 64.33969    197.4 9.432e+03 4.660e-10
 64.35025    197.2 9.381e+03 4.663e-10
 64.36662    197.1 9.360e+03 4.666e-10
 64.37673    197.1 9.158e+03 3.946e-10
 64.39072    197.0 9.151e+03 3.954e-10
 64.41096    196.8 9.149e+03 4.022e-10
 64.43120    196.4 9.224e+03 4.362e-10
 64.45045    195.4 9.552e+03 5.223e-10
 64.46057    196.4 9.206e+03 4.174e-10
 64.47167    195.3 9.665e+03 5.300e-10
 64.48365    193.8 1.035e+04 7.310e-10
 64.49377    192.6 1.059e+04 8.256e-10
 64.51215    190.8 1.131e+04 1.146e-09
 64.53238    188.8 1.190e+04 1.474e-09
 64.54441    186.8 1.228e+04 1.675e-09
 64.55452    188.7 1.213e+04 1.643e-09
 64.57286    186.8 1.249e+04 1.883e-09
 64.59309    184.9 1.266e+04 1.955e-09
 64.61333    183.0 1.267e+04 1.943e-09
 64.62762    181.3 1.261e+04 1.914e-09
 64.63241    180.7 1.257e+04 1.900e-09
 64.63836    182.4 1.305e+04 2.346e-09
 64.65381    180.7 1.300e+04 2.321e-09
 64.67404    179.2 1.292e+04 2.298e-09
 64.69428    177.8 1.287e+04 2.299e-09
 64.71208    176.8 1.284e+04 2.351e-09
 64.72220    177.7 1.284e+04 2.228e-09
 64.73475    176.8 1.273e+04 2.063e-09
 64.75499    176.0 1.265e+04 1.891e-09
 64.77158    175.2 1.260e+04 1.740e-09
 64.78170    175.1 1.285e+04 2.001e-09
 64.79547    174.3 1.288e+04 1.936e-09
 64.80603    173.5 1.289e+04 1.889e-09
 64.81615    173.8 1.221e+04 1.337e-09
 64.83594    172.9 1.222e+04 1.370e-09
 64.86639    172.4 1.235e+04 1.522e-09
 64.88997    171.4 1.243e+04 1.621e-09
 64.89999    171.5 1.233e+04 1.573e-09
 64.91555    171.2 1.232e+04 1.575e-09
 64.92567    171.4 1.235e+04 1.625e-09
 64.93713    170.8 1.232e+04 1.607e-09
 64.95736    170.3 1.226e+04 1.561e-09
 64.97370    169.7 1.209e+04 1.421e-09
 64.99404    170.5 1.207e+04 1.404e-09
 65.02839    170.4 1.168e+04 1.139e-09
 65.05971    170.6 1.122e+04 8.531e-10
 65.07995    170.5 1.110e+04 7.288e-10
 65.10934    170.5 1.059e+04 5.225e-10
 65.14157    170.9 1.040e+04 4.482e-10
 65.16181    171.7 1.055e+04 5.125e-10
 65.19029    172.6 1.055e+04 5.157e-10
 65.23076    173.8 1.058e+04 5.407e-10
 65.27124    175.0 1.076e+04 6.008e-10
 65.30924    176.0 1.098e+04 6.568e-10
 65.32948    176.8 1.128e+04 8.632e-10
 65.34764    177.6 1.163e+04 1.016e-09
 65.36788    176.7 1.154e+04 9.280e-10
 65.39266    176.9 1.154e+04 9.040e-10
 65.43313    177.1 1.146e+04 7.964e-10
 65.47361    177.5 1.127e+04 6.487e-10
 65.49715    178.0 1.105e+04 5.280e-10
 65.51739    179.0 1.145e+04 7.102e-10
 65.55456    179.7 1.123e+04 5.663e-10
 65.59503    180.4 1.111e+04 4.903e-10
 65.63551    181.4 1.105e+04 4.584e-10
 65.66482    182.1 1.096e+04 4.322e-10
 65.68506    182.8 1.100e+04 4.324e-10
 65.71645    184.3 1.103e+04 4.308e-10
 65.75693    185.7 1.107e+04 4.192e-10
 65.79740    187.2 1.106e+04 3.984e-10
 65.83249    188.6 1.103e+04 3.773e-10
 65.85273    189.2 1.135e+04 4.912e-10
 65.87835    190.5 1.133e+04 4.847e-10
 65.91883    191.8 1.131e+04 4.845e-10
 65.94375    193.0 1.132e+04 4.930e-10
 65.96398    192.4 1.127e+04 4.895e-10
 65.99978    193.8 1.134e+04 5.266e-10
 66.02040    195.3 1.148e+04 5.804e-10
 66.04064    195.1 1.168e+04 6.138e-10
 66.08072    196.5 1.170e+04 6.400e-10
 66.12120    197.9 1.177e+04 6.519e-10
 66.16167    199.4 1.178e+04 6.427e-10
 66.18807    200.9 1.177e+04 6.160e-10
 66.20831    200.7 1.167e+04 5.526e-10
 66.23168    202.4 1.169e+04 5.613e-10
 66.25192    202.1 1.142e+04 4.352e-10
 66.28310    203.9 1.145e+04 4.563e-10
 66.32357    205.7 1.158e+04 5.110e-10
 66.35574    207.4 1.175e+04 5.967e-10
 66.37598    207.5 1.207e+04 8.423e-10
 66.40452    209.2 1.235e+04 9.925e-10
 66.44499    210.6 1.259e+04 1.103e-09
 66.48547    211.8 1.272e+04 1.128e-09
 66.51961    212.8 1.272e+04 1.107e-09
 66.53732    213.0 1.226e+04 8.334e-10
 66.54365    212.3 1.231e+04 8.265e-10
 66.56642    213.3 1.231e+04 7.957e-10
 66.60689    214.4 1.224e+04 7.053e-10
 66.64737    215.6 1.210e+04 6.006e-10
 66.68784    217.0 1.191e+04 5.136e-10
 66.71132    218.6 1.169e+04 4.581e-10
 66.73156    218.2 1.143e+04 3.320e-10
 66.76879    220.0 1.133e+04 3.470e-10
 66.80754    221.9 1.126e+04 3.825e-10
 66.82778    221.6 1.123e+04 4.343e-10
 66.84974    223.4 1.118e+04 4.736e-10
 66.87900    225.1 1.115e+04 5.283e-10
 66.89923    224.7 1.085e+04 4.129e-10
 66.93069    226.3 1.082e+04 4.044e-10
 66.97116    227.8 1.076e+04 3.792e-10
 67.01164    229.3 1.065e+04 3.363e-10
 67.04667    230.8 1.048e+04 2.840e-10
 67.06690    230.7 1.026e+04 2.031e-10
 67.09258    232.3 1.011e+04 1.750e-10
 67.11571    234.1 9.944e+03 1.563e-10
 67.13595    233.9 9.729e+03 1.205e-10
 67.17353    235.9 9.666e+03 1.205e-10
 67.21401    238.1 9.622e+03 1.226e-10
 67.23458    240.4 9.569e+03 1.293e-10
 67.25481    240.9 9.634e+03 1.305e-10
 67.29496    243.3 9.652e+03 1.442e-10
 67.33543    245.7 9.686e+03 1.618e-10
 67.37591    248.0 9.739e+03 1.832e-10
 67.40225    250.3 9.814e+03 2.077e-10
 67.40975    250.9 9.868e+03 2.120e-10
 67.42388    250.8 9.851e+03 2.076e-10
 67.45685    253.1 9.939e+03 2.303e-10
 67.49733    255.3 1.002e+04 2.500e-10
 67.53780    257.4 1.009e+04 2.643e-10
 67.56992    259.5 1.013e+04 2.753e-10
 67.59016    260.1 1.020e+04 2.707e-10
 67.61875    262.2 1.028e+04 2.753e-10
 67.65923    264.1 1.035e+04 2.809e-10
 67.69158    265.8 1.043e+04 2.909e-10
 67.71181    265.7 1.040e+04 2.824e-10
 67.73759    267.2 1.051e+04 3.131e-10
 67.75783    267.5 1.047e+04 2.801e-10
 67.78065    268.7 1.051e+04 3.006e-10
 67.82112    269.8 1.048e+04 3.195e-10
 67.86160    271.0 1.040e+04 3.303e-10
 67.90207    272.1 1.035e+04 3.352e-10
 67.92550    273.5 1.031e+04 3.406e-10
 67.94574    272.9 1.037e+04 3.854e-10
 67.97281    273.6 1.032e+04 3.819e-10
 67.98943    274.3 1.032e+04 3.948e-10
 67.99955    274.4 1.032e+04 3.725e-10
 68.00914    274.9 1.041e+04 4.140e-10
 68.01926    274.2 1.066e+04 4.684e-10
 68.03342    274.2 1.083e+04 5.328e-10
 68.05366    273.9 1.096e+04 5.784e-10
 68.07389    273.6 1.105e+04 5.853e-10
 68.09298    273.1 1.105e+04 5.853e-10
 68.10309    271.6 1.116e+04 6.702e-10
 68.11437    271.0 1.106e+04 6.692e-10
 68.13340    270.4 1.094e+04 6.709e-10
 68.14352    270.6 1.095e+04 6.734e-10
 68.15484    270.1 1.090e+04 6.744e-10
 68.17508    269.7 1.088e+04 6.822e-10
 68.18693    269.3 1.086e+04 7.102e-10
 68.19705    268.2 1.087e+04 7.587e-10
 68.21555    267.9 1.085e+04 8.026e-10
 68.23579    267.7 1.089e+04 8.764e-10
 68.25603    267.7 1.096e+04 9.837e-10
 68.27077    267.8 1.108e+04 1.099e-09
 68.28088    266.8 1.102e+04 1.014e-09
 68.28748    266.7 1.120e+04 1.063e-09
 68.29760    266.5 1.126e+04 1.146e-09
 68.31674    266.1 1.150e+04 1.184e-09
 68.33698    265.6 1.157e+04 1.180e-09
 68.35460    264.8 1.160e+04 1.160e-09
 68.36472    262.9 1.144e+04 9.752e-10
 68.37745    260.9 1.148e+04 8.461e-10
 68.39769    259.2 1.128e+04 7.225e-10
 68.41793    257.7 1.091e+04 5.897e-10
 68.43145    256.6 1.052e+04 4.949e-10
 68.44157    256.9 1.061e+04 5.212e-10
 68.44865    257.6 1.025e+04 4.396e-10
 68.46899    255.2 9.875e+03 3.654e-10
 68.50919    255.6 9.402e+03 2.996e-10
 68.53249    256.4 9.287e+03 2.878e-10
 68.54251    256.1 9.280e+03 2.858e-10
 68.55959    256.7 9.277e+03 2.866e-10
 68.57542    256.4 9.330e+03 2.985e-10
 68.58553    256.6 9.320e+03 2.926e-10
 68.60006    255.6 9.712e+03 3.703e-10
 68.61623    252.7 1.128e+04 7.338e-10
 68.62635    249.5 1.228e+04 1.133e-09
 68.64054    245.9 1.456e+04 2.514e-09
 68.66077    243.0 1.612e+04 4.320e-09
 68.68101    240.4 1.766e+04 6.578e-09
 68.70006    236.7 1.920e+04 8.995e-09
 68.71018    231.9 1.925e+04 6.922e-09
 68.71938    224.8 1.936e+04 6.579e-09
 68.72950    226.6 2.074e+04 8.473e-09
 68.74172    218.1 2.081e+04 7.705e-09
 68.76196    209.4 1.959e+04 6.488e-09
 68.78220    201.9 1.734e+04 5.440e-09
 68.79402    196.6 1.554e+04 4.632e-09
 68.80414    195.3 1.488e+04 4.351e-09
 68.82267    192.9 1.455e+04 3.800e-09
 68.84291    190.8 1.419e+04 2.804e-09
 68.86314    189.0 1.365e+04 1.850e-09
 68.87347    187.3 1.305e+04 1.294e-09
 68.88368    187.2 1.280e+04 1.064e-09
 68.91393    183.1 1.118e+04 4.811e-10
 68.95176    178.7 9.480e+03 2.547e-10
 68.97200    178.0 9.601e+03 2.910e-10
 68.99488    175.1 9.323e+03 2.209e-10
 69.03536    173.6 9.343e+03 2.203e-10
 69.07583    172.7 9.474e+03 2.303e-10
 69.11631    172.1 9.860e+03 2.698e-10
 69.13958    171.4 1.017e+04 3.208e-10
 69.14960    170.7 1.035e+04 3.636e-10
 69.16140    169.3 1.062e+04 4.662e-10
 69.17152    167.3 1.073e+04 5.540e-10
 69.18694    165.9 1.099e+04 6.866e-10
 69.20718    164.3 1.143e+04 8.327e-10
 69.22331    162.4 1.201e+04 1.006e-09
 69.23343    160.6 1.263e+04 1.276e-09
 69.24765    158.4 1.304e+04 1.483e-09
 69.26789    156.1 1.317e+04 1.587e-09
 69.28813    154.0 1.310e+04 1.556e-09
 69.30536    151.9 1.289e+04 1.440e-09
 69.31427    150.0 1.274e+04 1.285e-09
 69.31727    148.3 1.261e+04 1.098e-09
 69.32860    145.9 1.224e+04 8.139e-10
 69.34884    143.2 1.183e+04 6.151e-10
 69.36908    140.5 1.142e+04 5.145e-10
 69.38931    138.1 1.108e+04 4.968e-10
 69.40110    136.2 1.102e+04 5.062e-10
 69.41122    134.6 1.097e+04 4.952e-10
 69.42979    133.4 1.094e+04 5.294e-10
 69.44933    132.5 1.093e+04 5.593e-10
 69.45945    130.7 1.094e+04 5.604e-10
 69.47026    129.9 1.092e+04 5.594e-10
 69.48494    129.1 1.085e+04 5.468e-10
 69.49506    128.0 1.086e+04 5.489e-10
 69.51074    127.1 1.081e+04 5.233e-10
 69.53097    125.9 1.085e+04 5.080e-10
 69.55121    124.5 1.097e+04 5.303e-10
 69.56878    123.0 1.122e+04 5.952e-10
 69.57889    121.3 1.155e+04 7.498e-10
 69.59168    120.0 1.175e+04 8.953e-10
 69.60341    118.9 1.192e+04 1.057e-09
 69.61353    117.3 1.197e+04 1.157e-09
 69.63216    116.6 1.202e+04 1.256e-09
 69.65240    115.9 1.207e+04 1.318e-09
 69.66273    115.4 1.195e+04 1.261e-09
 69.67285    114.4 1.162e+04 1.077e-09
 69.69287    113.7 1.136e+04 8.840e-10
 69.71311    112.5 1.104e+04 6.882e-10
 69.73334    111.0 1.067e+04 5.564e-10
 69.74657    109.5 1.054e+04 5.368e-10
 69.75048    108.4 1.017e+04 4.440e-10
 69.75750    107.7 9.842e+03 3.735e-10
 69.77382    107.0 9.939e+03 4.036e-10
 69.79406    105.4 1.068e+04 5.780e-10
 69.81429    102.3 1.281e+04 9.367e-10
 69.82942     98.5 1.552e+04 1.487e-09
 69.83536     91.9 1.958e+04 3.897e-09
 69.84042     92.6 1.910e+04 3.466e-09
 69.84961     85.3 2.156e+04 1.143e-08
 69.85973     80.5 2.189e+04 2.739e-08
 69.86985     78.2 2.140e+04 3.990e-08
 69.87728     76.9 2.133e+04 4.015e-08
 69.88234     76.4 2.142e+04 3.876e-08
 69.89009     75.2 2.139e+04 3.497e-08
 69.89631     73.8 2.150e+04 2.589e-08
 69.90137     73.9 2.170e+04 2.579e-08
 69.91419     71.0 2.264e+04 1.046e-08
 69.92436     70.7 2.194e+04 1.065e-08
 69.93572     63.3 2.136e+04 2.043e-09
 69.95595     51.8 1.352e+04 6.325e-10
 69.97619     47.0 1.045e+04 5.517e-10
 69.99643     46.9 1.028e+04 5.020e-10
 70.00819     46.9 1.029e+04 4.573e-10
 70.01831     47.3 1.027e+04 4.416e-10
 70.03531     47.0 1.028e+04 4.019e-10
 70.04543     47.2 1.049e+04 4.775e-10
 70.05714     46.8 1.046e+04 4.596e-10
 70.07738     46.4 1.046e+04 4.599e-10
 70.09203     46.1 1.047e+04 4.643e-10
 70.10215     46.4 1.048e+04 4.619e-10
 70.11785     46.0 1.054e+04 4.749e-10
 70.13809     45.3 1.080e+04 5.233e-10
 70.15833     43.8 1.135e+04 6.508e-10
 70.17586     42.0 1.210e+04 9.052e-10
 70.18598     40.8 1.258e+04 1.166e-09
 70.18940     39.0 1.306e+04 1.597e-09
 70.19952     39.3 1.360e+04 2.004e-09
 70.21904     37.7 1.363e+04 2.221e-09
 70.23928     36.3 1.344e+04 2.120e-09
 70.25951     35.3 1.288e+04 1.673e-09
 70.26982     34.1 1.221e+04 1.053e-09
 70.27994     33.0 1.184e+04 6.780e-10
 70.29999     29.8 1.102e+04 3.164e-10
 70.32022     27.0 1.017e+04 1.913e-10
 70.33336     26.0 9.854e+03 1.687e-10
 70.34348     25.1 9.806e+03 1.725e-10
 70.35375     25.2 9.748e+03 1.790e-10
 70.37409     24.8 9.567e+03 1.727e-10
 70.41149     25.2 9.512e+03 1.834e-10
 70.45196     25.3 9.525e+03 2.171e-10
 70.49244     25.1 9.637e+03 2.585e-10
 70.52152     24.8 9.640e+03 2.805e-10
 70.54176     24.3 1.015e+04 3.877e-10
 70.57338     24.0 1.007e+04 3.848e-10
 70.61137     23.9 1.005e+04 3.933e-10
 70.63161     23.3 1.003e+04 3.890e-10
 70.65433     23.7 1.010e+04 4.291e-10
 70.68919     24.0 1.039e+04 5.251e-10
 70.70933     22.9 1.075e+04 6.718e-10
 70.73518     22.1 1.070e+04 6.745e-10
 70.77576     22.2 1.050e+04 6.302e-10
 70.81623     22.4 1.018e+04 5.513e-10
 70.85671     22.7 9.862e+03 4.674e-10
 70.89718     22.8 9.414e+03 3.543e-10
 70.91954     23.3 9.186e+03 3.120e-10
 70.93978     23.5 9.295e+03 3.535e-10
 70.97813     24.0 9.161e+03 3.324e-10
 71.01860     24.6 9.023e+03 3.071e-10
 71.04477     25.2 8.890e+03 2.837e-10
 71.06501     25.4 8.934e+03 2.907e-10
 71.09955     26.0 8.846e+03 2.802e-10
 71.14003     26.7 8.754e+03 2.677e-10
 71.18050     27.5 8.654e+03 2.502e-10
 71.20747     28.2 8.548e+03 2.286e-10
 71.21918     28.0 8.274e+03 1.848e-10
 71.23268     28.5 8.257e+03 1.794e-10
 71.26145     29.3 8.083e+03 1.507e-10
 71.30192     30.1 8.013e+03 1.390e-10
 71.34240     31.1 8.025e+03 1.400e-10
 71.38011     31.9 8.089e+03 1.469e-10
 71.40035     32.6 8.073e+03 1.422e-10
 71.42335     33.4 8.221e+03 1.627e-10
 71.46382     34.1 8.385e+03 1.877e-10
 71.49541     34.6 8.529e+03 2.108e-10
 71.51564     34.7 8.501e+03 2.054e-10
 71.54477     35.2 8.657e+03 2.307e-10
 71.56802     35.7 8.855e+03 2.627e-10
 71.58826     36.2 8.936e+03 2.740e-10
 71.62572     36.7 9.196e+03 3.215e-10
 71.64939     36.8 9.330e+03 3.506e-10
 71.65520     36.8 9.309e+03 3.462e-10
 71.66178     37.0 9.339e+03 3.511e-10
 71.67612     36.8 9.523e+03 3.941e-10
 71.69635     36.1 9.796e+03 4.764e-10
 71.71659     34.9 1.034e+04 6.392e-10
 71.73550     32.8 1.138e+04 9.917e-10
 71.74562     33.2 1.145e+04 1.020e-09
 71.75707     30.4 1.280e+04 1.748e-09
 71.77730     27.4 1.399e+04 2.813e-09
 71.79326     24.4 1.456e+04 3.326e-09
 71.80338     24.1 1.427e+04 3.025e-09
 71.81778     21.1 1.418e+04 2.894e-09
 71.82945     18.6 1.367e+04 2.268e-09
 71.83957     18.3 1.385e+04 2.361e-09
 71.85825     16.1 1.277e+04 1.474e-09
 71.87849     13.9 1.155e+04 8.360e-10
 71.89873     11.6 1.046e+04 4.904e-10
 71.91329      9.3 9.815e+03 3.249e-10
 71.92341      9.3 9.816e+03 3.320e-10
 71.94942      8.7 9.622e+03 2.699e-10
 71.98999      8.7 9.339e+03 2.231e-10
 72.03046      8.6 9.102e+03 1.988e-10
 72.07094      8.7 8.901e+03 1.838e-10
 72.09151      9.3 8.716e+03 1.697e-10
 72.11175     10.0 8.699e+03 1.624e-10
 72.15189     10.9 8.693e+03 1.601e-10
 72.19236     11.9 8.707e+03 1.619e-10
 72.23284     12.9 8.774e+03 1.716e-10
 72.25895     14.0 8.959e+03 1.997e-10
 72.27918     14.4 8.943e+03 2.002e-10
 72.31378     15.7 9.294e+03 2.580e-10
 72.35426     16.9 9.764e+03 3.469e-10
 72.37934     17.6 1.000e+04 4.115e-10
 72.39958     18.0 1.010e+04 4.308e-10
 72.42499     18.1 1.046e+04 5.880e-10
 72.43654     18.6 1.069e+04 6.868e-10
 72.44666     19.0 1.069e+04 6.913e-10
 72.46537     19.5 1.090e+04 7.383e-10
 72.48561     19.8 1.099e+04 7.334e-10
 72.50584     20.0 1.103e+04 7.072e-10
 72.52038     20.1 1.104e+04 6.572e-10
 72.52763     20.7 1.115e+04 7.211e-10
 72.53333     20.8 1.097e+04 6.290e-10
 72.54632     20.9 1.102e+04 5.923e-10
 72.56655     21.0 1.106e+04 5.622e-10
 72.58679     21.1 1.110e+04 5.542e-10
 72.60421     21.1 1.122e+04 5.856e-10
 72.61433     22.5 1.121e+04 5.905e-10
 72.62727     22.7 1.139e+04 6.295e-10
 72.64750     21.4 1.264e+04 8.329e-10
 72.66718     15.2 1.738e+04 2.555e-09
 72.67730     13.2 1.831e+04 3.539e-09
 72.68798      6.6 2.074e+04 1.104e-08
 72.70311      4.4 2.218e+04 1.541e-08
 72.71318      1.3 2.201e+04 2.707e-08
 72.72329     -0.3 2.167e+04 3.845e-08
 72.73341     -1.0 2.166e+04 3.780e-08
 72.73999     -1.2 2.203e+04 2.991e-08
 72.74505     -0.5 2.142e+04 7.083e-08
 72.74918     -0.4 2.192e+04 5.037e-08
 72.75424      0.5 2.213e+04 4.673e-08
 72.76377     -0.8 2.457e+04 1.834e-08
 72.77389     -2.4 2.635e+04 8.742e-09
 72.78195    -13.0 2.831e+04 1.569e-09
 72.79212     -5.1 2.971e+04 4.830e-09
 72.80940    -21.4 2.309e+04 7.046e-10
 72.82126    -30.3 1.144e+04 8.936e-10
 72.83138    -29.8 1.100e+04 7.682e-10
 72.84987    -30.8 1.114e+04 8.790e-10
 72.86584    -31.3 1.152e+04 1.055e-09
 72.87596    -31.3 1.152e+04 1.056e-09
 72.89035    -31.8 1.178e+04 1.168e-09
 72.91059    -32.5 1.198e+04 1.227e-09
 72.93082    -33.6 1.215e+04 1.296e-09
 72.94967    -34.8 1.235e+04 1.436e-09
 72.95979    -34.7 1.241e+04 1.423e-09
 72.96523    -35.5 1.262e+04 1.670e-09
 72.97535    -34.8 1.234e+04 1.511e-09
 72.99154    -35.5 1.249e+04 1.746e-09
 73.01177    -35.7 1.273e+04 2.043e-09
 73.03201    -35.6 1.273e+04 2.099e-09
 73.04363    -35.8 1.250e+04 2.108e-09
 73.05375    -35.0 1.307e+04 2.534e-09
 73.07248    -35.4 1.361e+04 2.802e-09
 73.09272    -38.2 1.516e+04 3.263e-09
 73.10919    -45.0 1.781e+04 4.586e-09
 73.11931    -43.5 1.573e+04 3.093e-09
 73.12746    -48.8 1.448e+04 3.315e-09
 73.13758    -46.5 1.542e+04 4.308e-09
 73.15343    -50.8 1.396e+04 3.899e-09
 73.17367    -54.6 1.337e+04 3.212e-09
 73.19391    -58.7 1.543e+04 2.537e-09
 73.21130    -61.9 1.590e+04 2.199e-09
 73.22142    -64.3 3.189e+04 2.112e-09
 73.23438    -66.4 2.259e+04 2.115e-09
 73.25316    -69.5 1.536e+04 2.216e-09
 73.26328    -67.8 1.354e+04 2.222e-09
 73.27486    -69.7 1.318e+04 2.225e-09
 73.29509    -70.2 1.282e+04 2.159e-09
 73.31533    -71.5 1.411e+04 2.025e-09
 73.33557    -70.9 1.354e+04 1.669e-09
 73.35581    -72.0 1.278e+04 1.446e-09
 73.37604    -73.4 1.246e+04 1.346e-09
 73.38909    -74.3 1.205e+04 1.437e-09
 73.39921    -74.0 1.269e+04 1.534e-09
 73.40725    -73.3 1.186e+04 1.645e-09
 73.41736    -73.2 1.163e+04 1.445e-09
 73.43675    -71.7 1.151e+04 1.463e-09
 73.45699    -70.5 1.137e+04 1.264e-09
 73.47292    -70.1 1.096e+04 9.394e-10
 73.48304    -70.0 1.107e+04 9.524e-10
 73.49747    -69.9 1.058e+04 6.633e-10
 73.51770    -70.2 1.017e+04 4.413e-10
 73.53794    -70.9 9.477e+03 3.218e-10
 73.55131    -69.3 9.812e+03 2.447e-10
 73.57164    -69.4 9.714e+03 2.415e-10
 73.60897    -68.9 9.314e+03 2.090e-10
 73.64079    -69.2 9.360e+03 2.525e-10
 73.66103    -69.6 9.403e+03 3.039e-10
 73.68991    -70.2 9.609e+03 5.540e-10
 73.73039    -68.8 1.060e+04 7.239e-10
 73.77086    -67.6 1.072e+04 6.601e-10
 73.80846    -67.5 1.108e+04 6.166e-10
 73.82860    -69.6 1.188e+04 8.406e-10
 73.83914    -72.6 1.275e+04 1.272e-09
 73.84926    -73.1 1.266e+04 1.256e-09
 73.86174    -74.3 1.306e+04 2.096e-09
 73.88197    -74.3 1.339e+04 3.171e-09
 73.90221    -73.6 1.415e+04 3.992e-09
 73.92245    -74.3 1.532e+04 4.219e-09
 73.94268    -78.8 1.650e+04 4.004e-09
 73.96292    -86.4 1.577e+04 3.527e-09
 73.98311    -92.2 1.592e+04 4.064e-09
 73.99613    -96.6 1.597e+04 5.700e-09
 74.00629    -95.7 1.597e+04 4.797e-09
 74.02363    -99.3 1.568e+04 4.990e-09
 74.04387   -101.4 1.475e+04 4.452e-09
 74.06411   -102.8 1.373e+04 2.789e-09
 74.08001   -104.9 1.259e+04 1.293e-09
 74.09013   -103.9 1.281e+04 1.642e-09
 74.10458   -106.6 1.153e+04 6.334e-10
 74.12482   -110.5 9.718e+03 2.469e-10
 74.13719   -112.2 8.816e+03 1.705e-10
 74.14731   -111.8 8.656e+03 1.548e-10
 74.16394   -111.8 8.405e+03 1.324e-10
 74.18428   -111.2 8.322e+03 1.183e-10
 74.21608   -110.6 8.035e+03 9.341e-11
 74.25656   -109.8 7.999e+03 8.896e-11
 74.29703   -109.2 8.111e+03 9.694e-11
 74.33171   -108.7 8.281e+03 1.243e-10
 74.35195   -108.0 8.116e+03 1.010e-10
 74.37798   -107.4 8.295e+03 1.308e-10
 74.41520   -106.9 8.547e+03 1.658e-10
 74.43544   -106.0 8.520e+03 1.641e-10
 74.45893   -105.7 8.817e+03 2.027e-10
 74.49939   -105.6 9.129e+03 2.522e-10
 74.53986   -105.8 9.605e+03 3.471e-10
 74.58035   -106.2 1.006e+04 4.856e-10
 74.62083   -106.4 1.031e+04 6.021e-10
 74.66130   -106.7 1.036e+04 6.359e-10
 74.68729   -106.8 1.023e+04 6.096e-10
 74.70753   -107.1 1.022e+04 6.065e-10
 74.72337   -107.2 9.930e+03 5.321e-10
 74.74361   -105.8 1.002e+04 5.542e-10
 74.78272   -105.5 9.843e+03 5.037e-10
 74.82320   -105.0 9.736e+03 4.622e-10
 74.85497   -104.7 9.627e+03 4.293e-10
 74.87520   -104.4 9.287e+03 3.693e-10
 74.90415   -103.7 9.240e+03 3.550e-10
 74.94462   -103.0 9.222e+03 3.465e-10
 74.98510   -102.4 9.223e+03 3.456e-10
 75.01131   -101.7 9.335e+03 3.687e-10
 75.02861   -100.8 9.323e+03 3.594e-10
 75.04287   -100.3 9.106e+03 3.155e-10
 75.06604    -99.5 9.217e+03 3.369e-10
 75.10652    -98.8 9.325e+03 3.505e-10
 75.14699    -98.3 9.416e+03 3.458e-10
 75.18747    -98.3 9.542e+03 3.496e-10
 75.21055    -98.8 9.914e+03 4.084e-10
 75.23078    -99.1 1.034e+04 5.489e-10
 75.26842    -99.3 1.082e+04 7.351e-10
 75.29924    -99.5 1.110e+04 8.489e-10
 75.31947    -98.2 1.075e+04 7.052e-10
 75.34937    -98.4 1.114e+04 8.528e-10
 75.37822    -98.3 1.138e+04 9.494e-10
 75.39845    -98.0 1.127e+04 8.798e-10
 75.43031    -97.8 1.129e+04 8.417e-10
 75.47079    -97.0 1.112e+04 7.577e-10
 75.51126    -96.1 1.085e+04 6.367e-10
 75.54589    -95.3 1.059e+04 5.421e-10
 75.56613    -95.0 1.035e+04 4.195e-10
 75.58717    -93.9 1.027e+04 4.087e-10
 75.60741    -93.1 1.084e+04 6.461e-10
 75.63269    -91.8 1.077e+04 6.310e-10
 75.67316    -90.2 1.077e+04 6.329e-10
 75.71356    -88.5 1.075e+04 6.206e-10
 75.75403    -86.2 1.059e+04 5.015e-10
 75.79458    -84.5 1.056e+04 4.459e-10
 75.83506    -83.1 1.059e+04 4.335e-10
 75.87510    -82.1 1.095e+04 4.929e-10
 75.89534    -82.5 1.145e+04 7.620e-10
 75.90147    -81.4 1.176e+04 9.977e-10
 75.92171    -80.8 1.184e+04 9.819e-10
 75.95648    -79.3 1.204e+04 1.204e-09
 75.99696    -77.7 1.206e+04 1.248e-09
 76.03743    -75.8 1.173e+04 9.698e-10
 76.06914    -73.9 1.115e+04 5.534e-10
 76.08938    -73.1 1.132e+04 7.245e-10
 76.11838    -71.4 1.089e+04 4.504e-10
 76.15885    -69.6 1.062e+04 3.199e-10
 76.18327    -67.7 1.048e+04 2.773e-10
 76.20351    -67.7 1.010e+04 1.911e-10
 76.23681    -65.5 1.010e+04 1.928e-10
 76.25705    -64.6 1.036e+04 2.519e-10
 76.28028    -62.8 1.046e+04 3.032e-10
 76.32075    -60.6 1.057e+04 4.018e-10
 76.36123    -57.9 1.084e+04 4.924e-10
 76.40170    -55.4 1.095e+04 4.911e-10
 76.42472    -53.5 1.098e+04 4.153e-10
 76.44496    -52.2 1.103e+04 4.383e-10
 76.47120    -50.8 1.090e+04 3.915e-10
 76.49144    -50.6 1.066e+04 3.370e-10
 76.52312    -49.0 1.054e+04 3.856e-10
 76.56360    -46.7 1.042e+04 4.544e-10
 76.59239    -44.1 1.029e+04 4.248e-10
 76.61263    -43.1 1.050e+04 4.823e-10
 76.64455    -40.2 1.026e+04 3.975e-10
 76.68502    -37.7 9.941e+03 2.716e-10
 76.72550    -35.6 9.734e+03 1.732e-10
 76.75914    -33.9 9.572e+03 1.221e-10
 76.77347    -33.8 9.320e+03 8.251e-11
 76.78030    -32.3 9.530e+03 1.036e-10
 76.80644    -30.5 9.238e+03 8.902e-11
 76.84692    -28.1 9.137e+03 8.789e-11
 76.88739    -25.7 9.108e+03 9.272e-11
 76.92773    -23.3 9.110e+03 1.036e-10
 76.96821    -19.9 9.636e+03 1.802e-10
 77.00882    -17.6 9.751e+03 2.207e-10
 77.04707    -15.3 9.864e+03 2.656e-10
 77.06730    -15.1 9.458e+03 1.818e-10
 77.08977    -12.8 9.521e+03 2.145e-10
 77.11564    -10.5 9.576e+03 2.460e-10
 77.13588     -9.7 1.011e+04 3.770e-10
 77.17071     -7.5 1.017e+04 4.099e-10
 77.21119     -5.1 1.025e+04 4.495e-10
 77.25166     -2.7 1.053e+04 5.257e-10
 77.28331     -0.4 1.075e+04 6.068e-10
 77.30345      0.2 1.069e+04 5.811e-10
 77.32230      1.8 1.092e+04 6.543e-10
 77.34254      2.6 1.107e+04 7.016e-10
 77.35504      3.6 1.124e+04 7.675e-10
 77.36516      3.8 1.106e+04 7.015e-10
 77.37707      4.8 1.122e+04 7.700e-10
 77.38719      4.8 1.131e+04 7.830e-10
 77.40325      6.0 1.154e+04 8.769e-10
 77.42348      6.6 1.195e+04 1.036e-09
 77.44372      5.5 1.304e+04 1.343e-09
 77.46091      2.7 1.510e+04 2.433e-09
 77.47103      1.7 1.513e+04 2.442e-09
 77.48420     -0.8 1.658e+04 4.941e-09
 77.49901     -0.9 1.762e+04 9.393e-09
 77.50913     -1.1 1.804e+04 1.217e-08
 77.52467     -0.8 1.841e+04 1.415e-08
 77.53980     -0.6 1.817e+04 1.291e-08
 77.54971     -0.8 1.802e+04 1.204e-08
 77.55477     -1.0 1.736e+04 9.427e-09
 77.56510     -1.5 1.663e+04 6.763e-09
 77.58538     -2.7 1.594e+04 4.614e-09
 77.60562     -5.4 1.474e+04 2.918e-09
 77.62586     -8.4 1.333e+04 2.058e-09
 77.63870     -9.7 1.262e+04 1.830e-09
 77.64570     -9.2 1.227e+04 1.602e-09
 77.65309     -9.8 1.197e+04 1.428e-09
 77.66633     -9.5 1.193e+04 1.438e-09
 77.68657     -8.8 1.194e+04 1.466e-09
 77.70680     -8.5 1.214e+04 1.543e-09
 77.72253     -9.9 1.378e+04 2.094e-09
 77.73265     -7.2 1.310e+04 1.872e-09
 77.74217    -13.5 1.728e+04 3.595e-09
 77.75224    -14.3 1.741e+04 3.972e-09
 77.76747    -18.1 1.866e+04 9.410e-09
 77.78694    -19.3 1.758e+04 1.122e-08
 77.79706    -20.8 1.687e+04 9.371e-09
 77.80637    -24.1 1.844e+04 9.132e-09
 77.81649    -19.3 1.840e+04 1.142e-08
 77.82823    -29.7 2.452e+04 9.705e-09
 77.84847    -47.8 3.567e+04 3.717e-09
 77.86870    -62.4 3.364e+04 1.446e-09
 77.88894    -65.3 2.853e+04 1.491e-09
 77.90032    -68.3 3.061e+04 1.108e-09
 77.90534    -69.4 5.110e+04 8.765e-10
 77.91414    -69.8 5.340e+04 7.855e-10
 77.92426    -71.9 5.711e+04 5.868e-10
 77.93438    -72.5 5.898e+04 6.044e-10
 77.94093    -74.4 6.100e+04 6.118e-10
 77.95109    -76.8 4.197e+04 8.211e-10
 77.96478    -82.2 3.625e+04 3.412e-09
 77.97485    -86.2 3.188e+04 4.364e-09
 77.98406    -94.6 2.213e+04 7.417e-09
 77.98912    -93.1 2.854e+04 7.419e-09
 77.99509    -97.8 2.193e+04 1.161e-08
 78.00521   -100.6 2.080e+04 1.842e-08
 78.01291   -101.8 2.150e+04 2.638e-08
 78.01797   -102.6 2.165e+04 2.827e-08
 78.02544   -103.9 2.226e+04 3.497e-08
 78.03104   -105.9 2.236e+04 3.654e-08
 78.03610   -106.1 2.235e+04 3.384e-08
 78.04568   -107.7 2.148e+04 2.997e-08
 78.05580   -108.8 2.038e+04 2.056e-08
 78.06592   -110.4 1.930e+04 1.292e-08
 78.07296   -112.8 1.802e+04 7.808e-09
 78.07802   -113.0 1.808e+04 8.243e-09
 78.08489   -115.6 1.666e+04 5.234e-09
 78.08995   -116.6 1.611e+04 4.378e-09
 78.09627   -118.5 1.491e+04 3.155e-09
 78.11150   -120.6 1.378e+04 2.146e-09
 78.13179   -124.3 1.093e+04 9.501e-10
 78.15183   -126.5 9.854e+03 5.485e-10
 78.16195   -126.7 1.057e+04 6.544e-10
 78.17226   -127.8 1.002e+04 4.752e-10
 78.19250   -128.6 9.413e+03 3.659e-10
 78.21274   -128.8 9.227e+03 3.149e-10
 78.22896   -128.7 9.149e+03 2.899e-10
 78.23908   -127.6 9.157e+03 2.872e-10
 78.26343   -126.7 8.979e+03 2.619e-10
 78.30400   -125.0 8.573e+03 2.288e-10
 78.32982   -122.3 8.374e+03 2.146e-10
 78.35005   -122.8 8.250e+03 1.773e-10
 78.38495   -120.0 8.061e+03 1.646e-10
 78.42542   -117.4 7.964e+03 1.638e-10
 78.46590   -115.1 8.038e+03 1.650e-10
 78.49749   -112.9 8.201e+03 1.784e-10
 78.51773   -112.4 7.863e+03 1.365e-10
 78.52720   -110.4 8.103e+03 1.652e-10
 78.54744   -107.8 8.085e+03 1.571e-10
 78.58732   -105.8 8.567e+03 2.106e-10
 78.62779   -103.8 9.170e+03 3.067e-10
 78.65805   -102.3 9.426e+03 3.771e-10
 78.67097   -102.1 9.543e+03 4.155e-10
 78.67798   -101.6 9.649e+03 4.351e-10
 78.68530   -101.3 9.335e+03 3.645e-10
 78.69853    -99.7 9.738e+03 4.844e-10
 78.71867    -99.4 9.945e+03 5.537e-10
 78.73890    -98.5 1.015e+04 6.341e-10
 78.75892    -97.8 1.021e+04 6.548e-10
 78.76904    -97.2 9.816e+03 5.017e-10
 78.77938    -96.2 9.863e+03 5.000e-10
 78.79961    -95.7 9.783e+03 4.735e-10
 78.81494    -94.9 9.605e+03 4.172e-10
 78.82506    -93.5 9.975e+03 5.670e-10
 78.84009    -92.9 9.672e+03 4.503e-10
 78.85287    -92.5 9.414e+03 3.751e-10
 78.87321    -91.4 9.358e+03 3.506e-10
 78.91111    -90.8 9.098e+03 3.008e-10
 78.95159    -90.0 9.081e+03 2.911e-10
 78.99206    -89.4 9.246e+03 3.173e-10
 79.02064    -88.2 9.410e+03 3.519e-10
 79.03066    -87.5 9.413e+03 3.513e-10
 79.04246    -87.8 9.531e+03 3.913e-10
 79.06270    -88.2 9.673e+03 4.757e-10
 79.08293    -88.4 9.774e+03 5.296e-10
 79.10287    -88.5 9.896e+03 5.556e-10
 79.11299    -88.1 1.007e+04 6.421e-10
 79.11450    -88.1 1.030e+04 6.779e-10
 79.12462    -88.1 1.029e+04 6.829e-10
 79.14365    -89.0 1.061e+04 7.181e-10
 79.16388    -90.2 1.087e+04 7.402e-10
 79.18412    -91.4 1.097e+04 7.352e-10
 79.19833    -92.4 1.098e+04 7.647e-10
 79.20845    -93.2 1.153e+04 1.033e-09
 79.22460    -93.9 1.159e+04 1.099e-09
 79.24483    -94.5 1.183e+04 1.246e-09
 79.25696    -95.1 1.215e+04 1.467e-09
 79.26708    -93.6 1.200e+04 1.369e-09
 79.28217    -94.1 1.235e+04 1.634e-09
 79.29229    -95.0 1.233e+04 1.650e-09
 79.30554    -95.1 1.237e+04 1.767e-09
 79.32578    -95.1 1.232e+04 1.772e-09
 79.34602    -94.8 1.213e+04 1.659e-09
 79.36601    -94.3 1.185e+04 1.427e-09
 79.37612    -95.1 1.117e+04 1.007e-09
 79.38649    -94.7 1.078e+04 7.857e-10
 79.40092    -94.6 1.036e+04 5.877e-10
 79.41104    -93.3 1.085e+04 7.537e-10
 79.42697    -93.2 1.047e+04 5.674e-10
 79.44720    -93.1 1.007e+04 4.358e-10
 79.45996    -93.0 9.715e+03 3.653e-10
 79.47008    -92.8 9.367e+03 3.110e-10
 79.48768    -92.4 9.292e+03 3.029e-10
 79.50792    -91.4 9.263e+03 2.986e-10
 79.52815    -91.0 9.258e+03 3.016e-10
 79.54380    -89.8 9.388e+03 3.238e-10
 79.56413    -89.0 9.298e+03 2.996e-10
 79.59918    -87.3 9.542e+03 3.552e-10
 79.62773    -86.1 9.867e+03 4.693e-10
 79.63775    -85.1 9.663e+03 4.111e-10
 79.64958    -84.8 9.746e+03 4.509e-10
 79.66981    -83.4 9.950e+03 5.651e-10
 79.68886    -82.4 1.006e+04 6.414e-10
 79.69897    -82.0 1.037e+04 7.343e-10
 79.71029    -80.9 1.049e+04 7.957e-10
 79.72159    -79.7 1.054e+04 8.288e-10
 79.73170    -78.8 1.034e+04 7.743e-10
 79.75076    -77.5 1.036e+04 7.861e-10
 79.77100    -76.3 1.037e+04 7.891e-10
 79.79124    -75.0 1.028e+04 7.704e-10
 79.80542    -73.7 1.020e+04 7.445e-10
 79.81554    -72.8 1.005e+04 6.938e-10
 79.83171    -71.4 9.995e+03 6.704e-10
 79.84294    -70.1 9.941e+03 6.510e-10
 79.85306    -70.0 1.027e+04 7.770e-10
 79.87219    -68.5 1.027e+04 7.736e-10
 79.88926    -67.2 1.033e+04 7.927e-10
 79.89938    -66.2 1.011e+04 7.029e-10
 79.91266    -64.8 1.017e+04 7.269e-10
 79.93290    -63.4 1.020e+04 7.549e-10
 79.95313    -61.9 1.026e+04 7.955e-10
 79.97309    -60.2 1.037e+04 8.527e-10
 79.98321    -59.1 1.005e+04 6.807e-10
 79.98691    -57.4 1.013e+04 7.093e-10
 79.99702    -57.3 1.056e+04 9.601e-10
 80.01385    -55.5 1.063e+04 1.001e-09
 80.03408    -53.6 1.064e+04 1.011e-09
 80.05432    -51.7 1.057e+04 9.959e-10
 80.06705    -49.6 1.040e+04 9.209e-10
 80.07717    -48.6 1.016e+04 7.682e-10
 80.09480    -46.5 1.002e+04 7.106e-10
 80.11503    -44.5 9.926e+03 6.550e-10
 80.13087    -42.3 9.863e+03 6.099e-10
 80.14099    -41.9 1.028e+04 7.894e-10
 80.15088    -39.9 1.011e+04 7.095e-10
 80.16100    -39.0 9.954e+03 6.275e-10
 80.17574    -36.9 9.858e+03 5.844e-10
 80.19598    -34.7 9.846e+03 5.661e-10
 80.21622    -32.6 9.877e+03 5.658e-10
 80.23472    -30.2 1.002e+04 5.963e-10
 80.24484    -29.3 9.872e+03 5.384e-10
 80.25669    -27.3 9.919e+03 5.468e-10
 80.27484    -24.7 9.991e+03 5.778e-10
 80.28496    -24.3 1.034e+04 6.783e-10
 80.29717    -21.9 1.046e+04 7.055e-10
 80.31740    -19.4 1.076e+04 7.954e-10
 80.32867    -16.8 1.100e+04 8.519e-10
 80.33879    -15.7 1.076e+04 7.660e-10
 80.35788    -13.0 1.082e+04 7.985e-10
 80.37812     -9.9 1.095e+04 8.314e-10
 80.39835     -6.3 1.122e+04 8.599e-10
 80.41251     -3.8 1.151e+04 9.139e-10
 80.42263     -2.8 1.135e+04 8.525e-10
 80.44904      4.3 1.123e+04 8.011e-10
 80.48962     12.3 1.128e+04 7.298e-10
 80.53009     20.4 1.172e+04 6.602e-10
 80.56035     28.3 1.190e+04 5.274e-10
 80.57289     33.7 1.206e+04 5.516e-10
 80.58270     36.0 1.246e+04 7.297e-10
 80.59040     38.2 1.256e+04 6.877e-10
 80.60082     42.8 1.247e+04 6.094e-10
 80.62096     48.0 1.473e+04 4.873e-10
 80.64120     36.9 8.614e+04 2.248e-10
 80.65633      0.6 1.487e+05 3.437e-10
 80.66640    -22.7 7.771e+04 6.159e-09
 80.67404    -31.1 3.314e+04 3.734e-07
 80.67910    -22.6 5.371e+04 3.962e-08
 80.68664    -34.6 2.612e+04 1.145e-06
 80.69675    -48.9 2.788e+04 1.349e-06
 80.70687    -68.5 5.781e+04 6.062e-08
 80.71596    -93.7 1.011e+05 2.801e-09
 80.72078    -77.7 8.932e+04 7.592e-09
 80.72182    -35.9 4.011e+04 2.720e-07
 80.72711    -74.0 8.880e+04 7.616e-09
 80.73723   -131.9 9.250e+04 1.060e-09
 80.74735   -163.4 2.411e+04 1.633e-09
 80.75747   -169.0 1.913e+04 1.655e-09
 80.76293   -174.3 1.881e+04 1.540e-09
 80.76799   -173.7 1.969e+04 1.571e-09
 80.77770   -180.0 1.946e+04 1.461e-09
 80.78782   -185.5 1.888e+04 1.405e-09
 80.80305   -194.2 1.694e+04 1.312e-09
 80.82333   -205.0 1.602e+04 1.111e-09
 80.84181   -212.2 1.535e+04 8.919e-10
 80.85192   -221.1 1.650e+04 9.063e-10
 80.86082   -226.7 1.546e+04 7.333e-10
 80.87094   -225.8 1.550e+04 7.809e-10
 80.88405   -228.8 1.496e+04 6.320e-10
 80.90428   -229.2 1.420e+04 5.258e-10
 80.92452   -228.1 1.354e+04 4.714e-10
 80.93576   -226.4 1.317e+04 4.528e-10
 80.94588   -235.1 1.450e+04 6.183e-10
 80.96500   -231.8 1.435e+04 6.369e-10
 80.98523   -228.5 1.385e+04 7.265e-10
 81.00479   -225.5 1.403e+04 8.553e-10
 81.01491   -223.9 1.419e+04 8.203e-10
 81.01960   -221.1 1.411e+04 9.782e-10
 81.02971   -226.1 1.510e+04 1.572e-09
 81.04594   -222.6 1.536e+04 1.789e-09
 81.06618   -219.5 1.587e+04 1.992e-09
 81.08642   -216.6 1.667e+04 2.186e-09
 81.10343   -214.2 1.763e+04 2.408e-09
 81.11355   -219.4 2.266e+04 3.581e-09
 81.12689   -217.6 2.252e+04 3.987e-09
 81.14713   -216.1 2.180e+04 4.491e-09
 81.15887   -214.6 2.084e+04 5.033e-09
 81.16899   -211.4 1.831e+04 2.505e-09
 81.18727   -210.5 1.839e+04 2.761e-09
 81.19739   -214.4 1.793e+04 4.519e-09
 81.20784   -212.1 1.734e+04 5.097e-09
 81.22808   -209.8 1.686e+04 5.537e-09
 81.24832   -207.4 1.659e+04 5.755e-09
 81.26855   -205.1 1.634e+04 5.838e-09
 81.28122   -202.7 1.608e+04 5.806e-09
 81.29134   -203.0 1.613e+04 6.176e-09
 81.30284   -200.6 1.591e+04 5.864e-09
 81.31296   -200.6 1.541e+04 5.156e-09
 81.32927   -198.5 1.511e+04 4.790e-09
 81.34950   -196.3 1.479e+04 4.372e-09
 81.36506   -193.8 1.449e+04 3.985e-09
 81.37518   -193.9 1.463e+04 3.964e-09
 81.38998   -191.7 1.436e+04 3.601e-09
 81.41021   -189.6 1.412e+04 3.280e-09
 81.43045   -187.6 1.396e+04 3.014e-09
 81.44680   -185.5 1.394e+04 2.871e-09
 81.45513   -185.0 1.291e+04 2.321e-09
 81.45901   -184.9 1.305e+04 2.312e-09
 81.47093   -182.6 1.301e+04 2.235e-09
 81.49116   -180.6 1.303e+04 2.225e-09
 81.51140   -179.0 1.333e+04 2.237e-09
 81.53164   -177.6 1.393e+04 2.486e-09
 81.54285   -176.2 1.449e+04 3.050e-09
 81.55297   -176.3 1.450e+04 2.602e-09
 81.57211   -174.7 1.473e+04 3.553e-09
 81.59077   -172.9 1.507e+04 4.881e-09
 81.60089   -172.5 1.546e+04 4.124e-09
 81.61259   -171.1 1.608e+04 5.850e-09
 81.62668   -169.6 1.654e+04 7.819e-09
 81.63680   -168.9 1.675e+04 9.274e-09
 81.65306   -167.9 1.722e+04 1.137e-08
 81.67330   -167.7 1.730e+04 1.189e-08
 81.69353   -167.4 1.711e+04 1.167e-08
 81.71052   -166.4 1.651e+04 9.714e-09
 81.72064   -166.7 1.691e+04 1.119e-08
 81.73401   -165.4 1.616e+04 8.133e-09
 81.74486   -164.5 1.555e+04 5.681e-09
 81.75497   -163.9 1.649e+04 7.912e-09
 81.77448   -162.9 1.583e+04 5.680e-09
 81.79435   -162.2 1.514e+04 3.937e-09
 81.80447   -163.0 1.527e+04 4.214e-09
 81.81496   -162.3 1.438e+04 2.664e-09
 81.83520   -161.7 1.327e+04 1.656e-09
 81.85543   -161.2 1.217e+04 1.072e-09
 81.87567   -160.8 1.133e+04 7.749e-10
 81.88831   -160.3 1.087e+04 6.560e-10
 81.89134   -160.7 1.132e+04 8.238e-10
 81.89894   -160.1 1.167e+04 9.826e-10
 81.91614   -159.7 1.138e+04 8.790e-10
 81.93638   -159.0 1.131e+04 8.590e-10
 81.95662   -158.4 1.131e+04 8.643e-10
 81.97214   -157.9 1.143e+04 9.491e-10
 81.98226   -158.5 1.198e+04 1.246e-09
 81.99709   -158.0 1.217e+04 1.410e-09
 82.01733   -157.4 1.228e+04 1.537e-09
 82.03279   -156.9 1.229e+04 1.577e-09
 82.04291   -156.4 1.253e+04 1.845e-09
 82.05598   -156.0 1.251e+04 1.846e-09
 82.06610   -156.3 1.283e+04 2.235e-09
 82.07804   -155.5 1.253e+04 2.027e-09
 82.09828   -154.5 1.216e+04 1.747e-09
 82.11852   -153.5 1.180e+04 1.494e-09
 82.13875   -152.5 1.151e+04 1.296e-09
 82.14993   -151.5 1.129e+04 1.156e-09
 82.16005   -151.5 1.137e+04 1.246e-09
 82.17675   -150.4 1.124e+04 1.158e-09
 82.18687   -150.1 1.137e+04 1.263e-09
 82.19946   -149.1 1.128e+04 1.190e-09
 82.21970   -147.9 1.121e+04 1.137e-09
 82.23377   -146.7 1.117e+04 1.099e-09
 82.24389   -146.6 1.128e+04 1.181e-09
 82.26018   -145.5 1.125e+04 1.157e-09
 82.28041   -144.3 1.121e+04 1.126e-09
 82.30065   -143.1 1.114e+04 1.085e-09
 82.31761   -141.9 1.107e+04 1.034e-09
 82.32756   -141.7 1.108e+04 1.071e-09
 82.33084   -141.6 1.099e+04 1.070e-09
 82.34113   -140.3 1.084e+04 9.692e-10
 82.36136   -139.2 1.069e+04 8.718e-10
 82.38160   -138.1 1.052e+04 7.863e-10
 82.40144   -136.9 1.037e+04 7.170e-10
 82.41156   -136.4 1.037e+04 7.154e-10
 82.42207   -135.3 1.025e+04 6.586e-10
 82.44231   -134.1 1.017e+04 6.180e-10
 82.46255   -132.9 1.016e+04 5.941e-10
 82.47480   -131.6 1.017e+04 5.855e-10
 82.48492   -131.4 9.870e+03 4.792e-10
 82.49540   -130.0 9.878e+03 4.775e-10
 82.50552   -129.5 9.905e+03 4.741e-10
 82.52326   -128.0 9.951e+03 4.734e-10
 82.54350   -126.6 1.010e+04 4.893e-10
 82.56373   -125.0 1.027e+04 5.195e-10
 82.57923   -123.3 1.049e+04 5.610e-10
 82.58935   -123.8 1.110e+04 5.966e-10
 82.60421   -122.5 1.139e+04 6.577e-10
 82.61877   -121.1 1.182e+04 7.390e-10
 82.62889   -122.2 1.221e+04 7.908e-10
 82.64468   -121.4 1.361e+04 1.068e-09
 82.66307   -120.2 1.497e+04 1.496e-09
 82.67319   -124.3 1.799e+04 4.872e-09
 82.68516   -123.0 1.859e+04 6.212e-09
 82.70540   -121.5 1.915e+04 7.593e-09
 82.72563   -120.6 2.003e+04 9.050e-09
 82.74587   -121.3 2.118e+04 1.120e-08
 82.75697   -125.4 2.151e+04 1.746e-08
 82.76198   -127.4 2.152e+04 1.946e-08
 82.76770   -129.7 2.187e+04 2.109e-08
 82.77276   -133.2 2.201e+04 2.508e-08
 82.78119   -145.0 2.931e+04 4.995e-08
 82.79131   -164.5 3.969e+04 1.104e-07
 82.79884   -191.7 4.247e+04 1.558e-07
 82.80390   -191.7 4.054e+04 1.736e-07
 82.81154   -224.5 3.841e+04 1.830e-07
 82.82166   -257.1 2.862e+04 8.363e-08
 82.83178   -275.2 2.223e+04 2.312e-08
 82.83968   -279.0 2.075e+04 1.347e-08
 82.84360   -275.1 2.114e+04 1.528e-08
 82.84582   -273.1 2.068e+04 1.383e-08
 82.85202   -276.5 2.003e+04 9.900e-09
 82.86214   -280.3 1.857e+04 6.853e-09
 82.87225   -283.0 1.721e+04 5.141e-09
 82.88237   -284.1 1.660e+04 4.352e-09
 82.88774   -284.4 1.632e+04 3.970e-09
 82.89280   -284.0 1.630e+04 3.916e-09
 82.90665   -284.6 1.592e+04 3.490e-09
 82.91682   -282.3 1.491e+04 2.504e-09
 82.92469   -283.5 1.336e+04 1.705e-09
 82.93481   -282.7 1.289e+04 1.440e-09
 82.94824   -283.2 1.204e+04 1.081e-09
 82.96848   -283.2 1.172e+04 9.010e-10
 82.98872   -283.0 1.139e+04 7.804e-10
 83.00853   -282.6 1.102e+04 6.901e-10
 83.01865   -282.7 1.091e+04 6.370e-10
 83.02919   -282.0 1.065e+04 5.811e-10
 83.04943   -281.2 1.048e+04 5.432e-10
 83.06079   -280.5 1.037e+04 5.152e-10
 83.07091   -280.2 1.041e+04 5.176e-10
 83.08990   -279.6 1.037e+04 5.015e-10
 83.10248   -279.1 1.032e+04 4.796e-10
 83.11260   -279.6 1.031e+04 4.451e-10
 83.13038   -279.2 1.028e+04 4.268e-10
 83.15061   -278.9 1.023e+04 4.105e-10
 83.17085   -278.7 1.019e+04 3.962e-10
 83.18632   -278.5 1.018e+04 3.895e-10
 83.19644   -279.2 1.031e+04 4.165e-10
 83.20475   -279.0 1.033e+04 4.351e-10
 83.21487   -279.1 1.041e+04 4.576e-10
 83.23156   -278.8 1.039e+04 4.720e-10
 83.25180   -278.5 1.039e+04 4.859e-10
 83.27016   -278.2 1.039e+04 4.953e-10
 83.28027   -278.6 1.063e+04 5.822e-10
 83.29227   -278.3 1.063e+04 5.846e-10
 83.31251   -278.0 1.063e+04 5.838e-10
 83.33275   -277.7 1.059e+04 5.682e-10
 83.34872   -277.4 1.053e+04 5.393e-10
 83.35884   -277.4 1.044e+04 5.099e-10
 83.36411   -277.2 1.040e+04 4.909e-10
 83.37423   -277.7 1.056e+04 5.548e-10
 83.39346   -277.6 1.052e+04 5.422e-10
 83.41370   -277.5 1.051e+04 5.393e-10
 83.43393   -277.4 1.052e+04 5.392e-10
 83.44795   -277.3 1.056e+04 5.572e-10
 83.45806   -277.8 1.065e+04 6.214e-10
 83.47441   -277.6 1.070e+04 6.509e-10
 83.49269   -277.5 1.076e+04 6.819e-10
 83.50280   -277.7 1.076e+04 6.752e-10
 83.51488   -277.7 1.076e+04 6.815e-10
 83.53178   -277.7 1.075e+04 6.819e-10
 83.54190   -277.8 1.075e+04 7.430e-10
 83.55536   -277.5 1.059e+04 7.066e-10
 83.57560   -277.1 1.043e+04 6.273e-10
 83.59583   -276.7 1.029e+04 5.324e-10
 83.61562   -276.0 1.010e+04 4.412e-10
 83.62574   -275.9 1.009e+04 4.527e-10
 83.64652   -275.6 9.847e+03 3.635e-10
 83.68710   -275.1 9.705e+03 3.216e-10
 83.70977   -274.4 9.482e+03 2.690e-10
 83.73000   -274.0 9.516e+03 2.775e-10
 83.76804   -273.2 9.362e+03 2.426e-10
 83.79093   -272.5 9.279e+03 2.184e-10
 83.81117   -273.1 9.195e+03 2.004e-10
 83.84899   -272.3 9.185e+03 1.871e-10
 83.87744   -271.6 9.206e+03 1.812e-10
 83.89767   -271.6 9.491e+03 2.468e-10
 83.92994   -271.0 9.584e+03 2.556e-10
 83.97042   -270.5 9.740e+03 2.765e-10
 84.01089   -270.0 9.932e+03 3.115e-10
 84.04511   -269.5 1.012e+04 3.531e-10
 84.06535   -269.5 1.037e+04 4.681e-10
 84.07886   -269.0 1.038e+04 4.640e-10
 84.09910   -269.0 1.032e+04 4.193e-10
 84.13231   -268.4 1.034e+04 4.181e-10
 84.17279   -267.8 1.035e+04 4.137e-10
 84.21278   -267.1 1.033e+04 4.073e-10
 84.23302   -266.7 1.016e+04 3.590e-10
 84.25374   -265.9 1.016e+04 3.547e-10
 84.29421   -265.1 1.016e+04 3.532e-10
 84.33469   -264.3 1.017e+04 3.478e-10
 84.36680   -263.6 1.014e+04 3.327e-10
 84.38703   -263.4 1.024e+04 3.679e-10
 84.40069   -262.7 1.015e+04 3.365e-10
 84.42093   -262.6 1.022e+04 3.483e-10
 84.45611   -261.9 1.013e+04 3.173e-10
 84.49658   -261.1 9.992e+03 2.782e-10
 84.53706   -260.1 9.813e+03 2.342e-10
 84.56836   -259.0 9.656e+03 1.961e-10
 84.58860   -258.9 9.782e+03 2.209e-10
 84.61801   -257.8 9.625e+03 1.910e-10
 84.65473   -256.6 9.538e+03 1.721e-10
 84.67497   -256.3 9.527e+03 1.514e-10
 84.69896   -255.2 9.530e+03 1.496e-10
 84.73603   -254.2 9.544e+03 1.502e-10
 84.75627   -253.4 9.511e+03 1.503e-10
 84.77990   -252.7 9.619e+03 1.525e-10
 84.82038   -252.4 9.931e+03 1.792e-10
 84.86085   -252.4 1.029e+04 2.534e-10
 84.90133   -252.5 1.064e+04 3.856e-10
 84.92394   -252.6 1.099e+04 5.637e-10
 84.94418   -252.4 1.130e+04 6.782e-10
 84.96290   -252.6 1.171e+04 9.414e-10
 84.98314   -252.7 1.166e+04 9.447e-10
 85.02275   -253.0 1.175e+04 1.028e-09
 85.06323   -253.3 1.175e+04 1.039e-09
 85.09161   -253.4 1.155e+04 9.663e-10
 85.11185   -253.7 1.163e+04 1.013e-09
 85.14417   -252.9 1.118e+04 7.890e-10
 85.18465   -251.4 1.076e+04 6.009e-10
 85.22512   -249.7 1.047e+04 4.802e-10
 85.25083   -248.0 1.032e+04 4.115e-10
 85.26475   -247.5 1.022e+04 3.593e-10
 85.27952   -247.5 9.941e+03 3.077e-10
 85.30607   -245.8 9.901e+03 3.004e-10
 85.34655   -244.3 9.894e+03 2.999e-10
 85.38702   -242.9 9.899e+03 3.038e-10
 85.42695   -241.7 9.918e+03 3.104e-10
 85.44719   -241.7 9.731e+03 2.723e-10
 85.46797   -240.7 9.743e+03 2.811e-10
 85.50844   -239.8 9.742e+03 2.826e-10
 85.53876   -238.8 9.670e+03 2.766e-10
 85.55900   -238.7 9.639e+03 2.539e-10
 85.58939   -237.6 9.422e+03 2.187e-10
 85.61486   -236.3 9.190e+03 1.750e-10
 85.63510   -236.1 9.030e+03 1.632e-10
 85.67034   -234.5 8.837e+03 1.301e-10
 85.71082   -232.9 8.702e+03 1.076e-10
 85.75129   -231.2 8.664e+03 9.526e-11
 85.78253   -229.4 8.692e+03 9.074e-11
 85.80277   -228.9 8.600e+03 9.463e-11
 85.82669   -227.1 8.607e+03 9.429e-11
 85.84693   -227.1 8.672e+03 9.691e-11
 85.87271   -225.4 8.733e+03 9.735e-11
 85.91319   -223.7 8.796e+03 9.757e-11
 85.95021   -222.2 8.838e+03 9.733e-11
 85.97044   -221.9 8.893e+03 1.139e-10
 85.99414   -220.5 8.983e+03 1.160e-10
 86.03461   -219.3 9.178e+03 1.223e-10
 86.07509   -218.2 9.466e+03 1.413e-10
 86.11463   -217.1 9.726e+03 1.802e-10
 86.13486   -216.8 9.743e+03 2.079e-10
 86.13811   -215.7 1.002e+04 2.489e-10
 86.15835   -214.8 1.023e+04 3.705e-10
 86.19651   -213.8 1.040e+04 4.115e-10
 86.23698   -212.7 1.045e+04 4.358e-10
 86.27746   -211.5 1.042e+04 4.626e-10
 86.30579   -210.1 1.041e+04 5.125e-10
 86.32602   -209.3 1.045e+04 6.158e-10
 86.35841   -208.0 1.051e+04 6.892e-10
 86.39888   -206.9 1.082e+04 7.983e-10
 86.42280   -206.2 1.106e+04 9.034e-10
 86.44303   -206.0 1.198e+04 1.250e-09
 86.47346   -205.9 1.212e+04 1.292e-09
 86.49369   -205.3 1.202e+04 1.469e-09
 86.52030   -205.4 1.192e+04 1.396e-09
 86.56078   -205.3 1.162e+04 1.113e-09
 86.60125   -205.3 1.125e+04 8.284e-10
 86.64113   -205.1 1.092e+04 6.396e-10
 86.66137   -204.7 1.016e+04 4.930e-10
 86.68220   -203.8 9.873e+03 3.904e-10
 86.71073   -202.6 9.815e+03 3.602e-10
 86.72075   -203.5 1.145e+04 6.471e-10
 86.73260   -202.6 1.146e+04 6.626e-10
 86.74501   -201.7 1.144e+04 6.843e-10
 86.75513   -201.5 1.055e+04 5.318e-10
 86.77307   -200.6 1.058e+04 5.559e-10
 86.79331   -199.8 1.059e+04 5.837e-10
 86.81355   -198.9 1.063e+04 6.217e-10
 86.82884   -198.2 1.072e+04 6.757e-10
 86.83896   -198.2 1.053e+04 5.878e-10
 86.85402   -197.7 1.081e+04 6.774e-10
 86.86462   -197.3 1.103e+04 7.734e-10
 86.87474   -197.2 1.136e+04 8.361e-10
 86.89450   -197.0 1.180e+04 1.019e-09
 86.91268   -196.9 1.226e+04 1.267e-09
 86.92280   -197.7 1.192e+04 9.977e-10
 86.93497   -197.8 1.222e+04 1.192e-09
 86.95521   -197.9 1.230e+04 1.383e-09
 86.97545   -198.0 1.229e+04 1.595e-09
 86.99568   -198.2 1.236e+04 1.813e-09
 87.00663   -198.5 1.250e+04 1.981e-09
 87.00941   -199.4 1.201e+04 1.694e-09
 87.01870   -200.4 1.530e+04 2.777e-09
 87.03616   -200.8 1.511e+04 2.894e-09
 87.05639   -201.2 1.476e+04 2.936e-09
 87.07663   -201.5 1.442e+04 2.920e-09
 87.09047   -201.8 1.416e+04 2.859e-09
 87.10059   -201.8 1.355e+04 2.625e-09
 87.11711   -202.1 1.351e+04 2.617e-09
 87.13734   -202.3 1.335e+04 2.502e-09
 87.15255   -202.5 1.312e+04 2.202e-09
 87.16267   -203.7 1.330e+04 2.117e-09
 87.17430   -203.7 1.291e+04 1.805e-09
 87.18442   -203.6 1.263e+04 1.654e-09
 87.19806   -203.4 1.222e+04 1.387e-09
 87.21829   -203.1 1.193e+04 1.199e-09
 87.23853   -202.6 1.180e+04 1.097e-09
 87.25814   -202.0 1.177e+04 1.070e-09
 87.26826   -202.1 1.155e+04 1.027e-09
 87.27900   -202.0 1.163e+04 1.031e-09
 87.29652   -202.1 1.212e+04 1.100e-09
 87.30663   -200.7 1.205e+04 1.226e-09
 87.31948   -200.8 1.279e+04 1.402e-09
 87.33972   -201.5 1.378e+04 1.843e-09
 87.35209   -202.1 1.465e+04 2.666e-09
 87.36221   -203.1 1.508e+04 3.252e-09
 87.38019   -203.2 1.578e+04 4.607e-09
 87.40043   -203.3 1.632e+04 5.858e-09
 87.42066   -203.4 1.658e+04 6.388e-09
 87.43593   -204.0 1.663e+04 6.420e-09
 87.44563   -204.8 1.668e+04 6.211e-09
 87.45060   -203.6 1.758e+04 9.670e-09
 87.46114   -204.0 1.737e+04 8.975e-09
 87.48138   -204.5 1.698e+04 6.649e-09
 87.50161   -205.3 1.645e+04 4.551e-09
 87.51977   -206.6 1.588e+04 3.298e-09
 87.52988   -207.4 1.506e+04 2.590e-09
 87.54209   -208.6 1.463e+04 2.354e-09
 87.56233   -210.0 1.454e+04 2.322e-09
 87.58256   -212.0 1.465e+04 2.649e-09
 87.59457   -214.1 1.570e+04 4.271e-09
 87.60469   -213.8 1.729e+04 7.049e-09
 87.61372   -215.2 1.747e+04 9.308e-09
 87.62384   -215.7 1.754e+04 9.710e-09
 87.64327   -216.6 1.798e+04 1.241e-08
 87.66351   -217.6 1.827e+04 1.383e-08
 87.68375   -218.8 1.833e+04 1.409e-08
 87.69756   -220.1 1.832e+04 1.381e-08
 87.70767   -221.2 1.867e+04 1.608e-08
 87.72422   -222.5 1.818e+04 1.398e-08
 87.73853   -223.8 1.762e+04 1.167e-08
 87.74865   -224.0 1.681e+04 5.530e-09
 87.76470   -225.9 1.673e+04 5.136e-09
 87.78139   -227.6 1.675e+04 5.046e-09
 87.79151   -227.0 1.571e+04 5.712e-09
 87.80517   -227.8 1.561e+04 5.357e-09
 87.82541   -228.3 1.548e+04 5.232e-09
 87.84565   -228.6 1.546e+04 5.156e-09
 87.86523   -228.9 1.541e+04 5.104e-09
 87.87535   -227.5 1.407e+04 3.843e-09
 87.88250   -227.6 1.407e+04 3.617e-09
 87.89262   -228.3 1.391e+04 3.260e-09
 87.90636   -228.2 1.368e+04 3.195e-09
 87.92659   -228.0 1.341e+04 3.099e-09
 87.94683   -227.4 1.307e+04 2.907e-09
 87.95918   -226.5 1.273e+04 2.633e-09
 87.96930   -225.9 1.263e+04 2.445e-09
 87.98731   -225.0 1.247e+04 2.399e-09
 88.00754   -224.0 1.232e+04 2.318e-09
 88.02647   -223.0 1.220e+04 2.239e-09
 88.03658   -223.0 1.171e+04 1.681e-09
 88.04302   -221.8 1.155e+04 1.524e-09
 88.05314   -221.3 1.186e+04 1.891e-09
 88.06826   -220.1 1.175e+04 1.784e-09
 88.08849   -218.9 1.160e+04 1.622e-09
 88.10873   -217.7 1.141e+04 1.410e-09
 88.12685   -216.6 1.116e+04 1.173e-09
 88.13697   -216.2 1.153e+04 1.634e-09
 88.14920   -215.1 1.127e+04 1.366e-09
 88.16944   -213.9 1.098e+04 1.100e-09
 88.18055   -212.8 1.070e+04 8.610e-10
 88.19067   -212.7 1.017e+04 4.870e-10
 88.20992   -211.6 9.875e+03 3.680e-10
 88.22081   -210.7 9.585e+03 2.985e-10
 88.23093   -210.0 1.003e+04 4.545e-10
 88.25039   -208.7 9.788e+03 3.621e-10
 88.27063   -207.7 9.641e+03 3.314e-10
 88.30108   -206.7 9.563e+03 3.193e-10
 88.34165   -204.1 9.249e+03 2.614e-10
 88.37856   -201.4 8.970e+03 2.152e-10
 88.39879   -200.7 9.493e+03 3.768e-10
 88.42260   -197.9 9.300e+03 3.288e-10
 88.45856   -195.1 9.224e+03 3.047e-10
 88.47880   -194.7 8.793e+03 1.858e-10
 88.50355   -191.9 8.790e+03 1.845e-10
 88.54402   -189.1 8.857e+03 1.873e-10
 88.56646   -186.6 8.985e+03 1.981e-10
 88.58670   -186.0 9.634e+03 4.044e-10
 88.62497   -183.6 9.738e+03 4.330e-10
 88.66545   -181.3 9.790e+03 4.519e-10
 88.70592   -179.1 9.823e+03 4.663e-10
 88.73414   -177.0 9.881e+03 4.851e-10
 88.75437   -176.3 1.024e+04 6.878e-10
 88.78687   -173.9 9.871e+03 4.947e-10
 88.82735   -172.0 1.007e+04 5.240e-10
 88.86782   -170.3 1.039e+04 5.859e-10
 88.90181   -168.9 1.076e+04 6.828e-10
 88.92204   -168.3 1.151e+04 1.286e-09
 88.94877   -167.2 1.186e+04 1.485e-09
 88.97903   -166.7 1.171e+04 1.259e-09
 88.99557   -166.1 1.182e+04 1.310e-09
 89.00568   -165.5 1.210e+04 1.642e-09
 89.01940   -164.6 1.218e+04 1.706e-09
 89.03964   -164.3 1.255e+04 1.916e-09
 89.05447   -164.3 1.321e+04 2.326e-09
 89.06458   -164.2 1.238e+04 1.701e-09
 89.07940   -164.3 1.304e+04 2.077e-09
 89.08952   -164.5 1.462e+04 3.726e-09
 89.10035   -165.1 1.581e+04 5.577e-09
 89.12059   -165.9 1.683e+04 8.047e-09
 89.14083   -166.7 1.753e+04 1.042e-08
 89.16106   -167.4 1.782e+04 1.169e-08
 89.17336   -168.1 1.785e+04 1.192e-08
 89.18347   -168.0 1.826e+04 1.434e-08
 89.19843   -168.6 1.745e+04 1.083e-08
 89.20855   -167.3 1.721e+04 1.100e-08
 89.22178   -167.6 1.661e+04 8.158e-09
 89.24201   -168.2 1.573e+04 5.866e-09
 89.25719   -169.1 1.469e+04 4.398e-09
 89.26731   -169.6 1.377e+04 3.059e-09
 89.28249   -170.0 1.314e+04 2.710e-09
 89.30272   -170.0 1.277e+04 2.538e-09
 89.32296   -169.8 1.251e+04 2.376e-09
 89.34103   -169.1 1.230e+04 2.175e-09
 89.35034   -168.8 1.205e+04 1.912e-09
 89.35252   -168.2 1.194e+04 1.413e-09
 89.36344   -167.6 1.178e+04 1.364e-09
 89.38367   -166.8 1.166e+04 1.278e-09
 89.40391   -166.1 1.158e+04 1.169e-09
 89.42415   -165.3 1.149e+04 1.052e-09
 89.43498   -164.4 1.138e+04 9.221e-10
 89.44510   -164.1 1.138e+04 9.033e-10
 89.46462   -162.9 1.128e+04 7.815e-10
 89.48486   -161.4 1.115e+04 6.552e-10
 89.49648   -159.8 1.109e+04 5.552e-10
 89.50660   -159.4 1.088e+04 5.126e-10
 89.51882   -158.5 1.101e+04 4.904e-10
 89.52894   -158.4 1.099e+04 4.920e-10
 89.55579   -157.8 1.109e+04 4.599e-10
 89.59273   -155.9 1.094e+04 3.903e-10
 89.61297   -155.1 1.098e+04 4.239e-10
 89.63052   -152.9 1.077e+04 3.591e-10
 89.65076   -151.9 1.063e+04 3.229e-10
 89.67731   -149.7 1.055e+04 3.026e-10
 89.71778   -147.5 1.048e+04 2.878e-10
 89.75826   -145.3 1.044e+04 2.781e-10
 89.78064   -143.1 1.041e+04 2.711e-10
 89.80088   -142.5 1.043e+04 3.051e-10
 89.83921   -140.3 1.038e+04 2.941e-10
 89.87968   -138.0 1.030e+04 2.747e-10
 89.91846   -135.7 1.020e+04 2.458e-10
 89.93869   -135.1 1.027e+04 2.612e-10
 89.94831   -132.7 1.016e+04 2.349e-10
 89.96855   -131.9 1.019e+04 2.496e-10
 90.00110   -129.4 1.008e+04 2.156e-10
 90.04158   -126.8 9.983e+03 1.824e-10
 90.08205   -124.3 9.919e+03 1.548e-10
 90.11598   -121.9 9.890e+03 1.351e-10
 90.13622   -121.2 9.953e+03 1.313e-10
 90.16300   -118.9 9.957e+03 1.215e-10
 90.20348   -116.5 9.961e+03 1.185e-10
 90.22663   -114.2 9.964e+03 1.190e-10
 90.24686   -113.9 9.999e+03 1.539e-10
 90.28365   -111.5 9.977e+03 1.526e-10
 90.30389   -111.0 1.013e+04 1.855e-10
 90.32490   -108.6 1.009e+04 1.888e-10
 90.36537   -106.1 1.005e+04 1.878e-10
 90.40585   -103.5 1.001e+04 1.836e-10
 90.44632   -100.9 9.985e+03 1.765e-10
 90.47156    -98.3 9.961e+03 1.663e-10
 90.49180    -97.8 1.013e+04 2.161e-10
 90.51456    -95.2 1.009e+04 2.067e-10
 90.53480    -94.7 1.011e+04 2.215e-10
 90.56775    -92.1 1.008e+04 2.026e-10
 90.60822    -89.5 1.004e+04 1.836e-10
 90.63923    -86.9 9.991e+03 1.660e-10
 90.65947    -86.2 1.012e+04 1.998e-10
 90.68917    -83.4 1.007e+04 1.751e-10
 90.72964    -80.7 1.004e+04 1.564e-10
 90.77012    -77.9 1.004e+04 1.443e-10
 90.80249    -75.2 1.006e+04 1.380e-10
 90.81904    -74.8 1.008e+04 1.373e-10
 90.82714    -74.1 1.015e+04 1.398e-10
 90.85107    -71.2 1.016e+04 1.401e-10
 90.89154    -68.7 1.020e+04 1.419e-10
 90.93202    -66.4 1.051e+04 1.503e-10
 90.97249    -64.3 1.060e+04 2.001e-10
 90.99481    -62.1 1.066e+04 3.039e-10
 91.01505    -61.7 1.085e+04 4.477e-10
 91.05344    -59.1 1.109e+04 7.084e-10
 91.09042    -56.6 1.139e+04 9.584e-10
 91.11066    -56.5 1.123e+04 6.082e-10
 91.13439    -54.3 1.133e+04 6.694e-10
 91.16248    -52.2 1.134e+04 6.760e-10
 91.18272    -51.6 1.154e+04 8.932e-10
 91.21534    -49.1 1.140e+04 7.439e-10
 91.25581    -46.6 1.125e+04 5.398e-10
 91.29629    -44.2 1.114e+04 3.776e-10
 91.33016    -41.8 1.104e+04 2.715e-10
 91.35039    -41.3 1.117e+04 3.503e-10
 91.37723    -38.9 1.109e+04 2.718e-10
 91.39859    -36.3 1.107e+04 2.285e-10
 91.41883    -36.0 1.091e+04 2.234e-10
 91.45818    -33.5 1.089e+04 2.000e-10
 91.49783    -31.0 1.089e+04 1.932e-10
 91.51806    -30.3 1.099e+04 3.139e-10
 91.53913    -27.9 1.102e+04 3.409e-10
 91.57961    -25.5 1.103e+04 3.909e-10
 91.62008    -23.0 1.105e+04 4.413e-10
 91.66055    -20.6 1.111e+04 4.751e-10
 91.68574    -18.3 1.118e+04 4.900e-10
 91.69147    -17.4 1.126e+04 7.905e-10
 91.70676    -17.0 1.087e+04 3.960e-10
 91.74150    -14.8 1.084e+04 3.988e-10
 91.78198    -12.7 1.088e+04 4.069e-10
 91.82245    -10.7 1.097e+04 4.321e-10
 91.85341     -8.8 1.101e+04 5.003e-10
 91.87364     -8.0 1.138e+04 4.582e-10
 91.90340     -6.7 1.141e+04 5.837e-10
 91.94388     -5.1 1.124e+04 8.622e-10
 91.97446     -2.9 1.123e+04 1.150e-09
 91.99469     -1.8 1.107e+04 8.638e-10
 92.02108      0.2 1.107e+04 8.775e-10
 92.04132      0.9 1.128e+04 1.163e-09
 92.06530      3.1 1.110e+04 1.051e-09
 92.10577      5.5 1.120e+04 5.927e-10
 92.14625      7.1 1.087e+04 3.328e-10
 92.18672      9.0 1.057e+04 2.073e-10
 92.20899     11.1 1.054e+04 1.503e-10
 92.22922     12.0 1.060e+04 1.722e-10
 92.26239     14.0 1.057e+04 1.380e-10
 92.28263     14.6 1.052e+04 1.521e-10
 92.30815     17.0 1.046e+04 1.533e-10
 92.34862     19.5 1.045e+04 1.595e-10
 92.37666     22.1 1.044e+04 1.652e-10
 92.39690     22.8 1.043e+04 1.808e-10
 92.42957     25.3 1.042e+04 1.769e-10
 92.47004     27.8 1.040e+04 1.664e-10
 92.51052     30.1 1.042e+04 1.611e-10
 92.54433     32.3 1.045e+04 1.649e-10
 92.56390     33.0 1.044e+04 1.503e-10
 92.57056     33.3 1.044e+04 1.540e-10
 92.59147     35.4 1.047e+04 1.593e-10
 92.63194     37.5 1.050e+04 1.824e-10
 92.67242     39.7 1.051e+04 2.202e-10
 92.71200     42.0 1.055e+04 2.582e-10
 92.73224     42.6 1.054e+04 2.266e-10
 92.75336     44.9 1.061e+04 2.511e-10
 92.79384     47.1 1.065e+04 2.539e-10
 92.83431     49.3 1.066e+04 2.454e-10
 92.85849     51.4 1.066e+04 2.360e-10
 92.87873     51.8 1.062e+04 2.218e-10
 92.89991     53.9 1.063e+04 2.411e-10
 92.92015     54.7 1.064e+04 2.320e-10
 92.95574     57.0 1.065e+04 2.502e-10
 92.99621     59.3 1.069e+04 2.861e-10
 93.03669     61.7 1.074e+04 3.113e-10
 93.06758     63.9 1.084e+04 3.121e-10
 93.08782     64.7 1.080e+04 2.867e-10
 93.11763     66.9 1.085e+04 2.847e-10
 93.14642     69.1 1.092e+04 2.846e-10
 93.16666     69.5 1.090e+04 3.364e-10
 93.19858     71.6 1.100e+04 3.464e-10
 93.23525     73.7 1.112e+04 3.822e-10
 93.25549     74.4 1.104e+04 3.390e-10
 93.27953     76.4 1.118e+04 3.999e-10
 93.32001     78.3 1.135e+04 5.071e-10
 93.36048     80.2 1.155e+04 6.737e-10
 93.40095     81.9 1.179e+04 8.949e-10
 93.42316     83.6 1.205e+04 1.106e-09
 93.43632     84.3 1.210e+04 1.164e-09
 93.45459     84.3 1.198e+04 1.080e-09
 93.48190     85.8 1.228e+04 1.294e-09
 93.52238     86.9 1.233e+04 1.281e-09
 93.56285     87.9 1.222e+04 1.154e-09
 93.59083     89.0 1.194e+04 8.716e-10
 93.61107     89.7 1.219e+04 1.109e-09
 93.64380     91.0 1.189e+04 7.990e-10
 93.68428     92.2 1.167e+04 5.661e-10
 93.72229     93.4 1.158e+04 4.263e-10
 93.74252     93.6 1.150e+04 3.709e-10
 93.75850     94.8 1.116e+04 3.159e-10
 93.77874     95.7 1.144e+04 4.603e-10
 93.80570     96.9 1.119e+04 4.235e-10
 93.84617     98.2 1.116e+04 4.224e-10
 93.88665     99.3 1.108e+04 4.636e-10
 93.92618    100.1 1.111e+04 5.863e-10
 93.94641    100.8 1.130e+04 6.664e-10
 93.96760    101.2 1.136e+04 8.393e-10
 94.00807    101.4 1.139e+04 9.893e-10
 94.03046    101.4 1.140e+04 9.880e-10
 94.05069    102.1 1.137e+04 1.009e-09
 94.08902    102.0 1.123e+04 9.160e-10
 94.11408    101.9 1.091e+04 6.782e-10
 94.13432    102.8 1.101e+04 7.556e-10
 94.16997    102.8 1.067e+04 5.269e-10
 94.21044    103.0 1.052e+04 4.687e-10
 94.25092    103.7 1.053e+04 4.779e-10
 94.28118    104.3 1.048e+04 4.665e-10
 94.29168    104.9 1.049e+04 4.755e-10
 94.30180    105.6 1.054e+04 4.988e-10
 94.31819    106.1 1.058e+04 5.198e-10
 94.33853    107.8 1.038e+04 4.303e-10
 94.36212    107.8 1.059e+04 5.249e-10
 94.37551    108.1 1.079e+04 6.501e-10
 94.38563    108.9 1.081e+04 6.418e-10
 94.40250    109.5 1.104e+04 8.021e-10
 94.42274    110.1 1.127e+04 9.961e-10
 94.44298    110.7 1.150e+04 1.218e-09
 94.45935    111.2 1.172e+04 1.459e-09
 94.46842    112.1 1.170e+04 1.397e-09
 94.47228    112.6 1.150e+04 1.233e-09
 94.48345    113.2 1.175e+04 1.500e-09
 94.50369    113.7 1.199e+04 1.800e-09
 94.52392    114.2 1.225e+04 2.135e-09
 94.54319    114.6 1.246e+04 2.446e-09
 94.55330    115.6 1.257e+04 2.534e-09
 94.56440    115.9 1.282e+04 2.959e-09
 94.58464    116.1 1.299e+04 3.119e-09
 94.60487    116.1 1.298e+04 3.040e-09
 94.61624    116.0 1.278e+04 2.723e-09
 94.62636    116.1 1.311e+04 3.119e-09
 94.63714    115.9 1.266e+04 2.358e-09
 94.64726    116.9 1.351e+04 3.624e-09
 94.66559    116.9 1.282e+04 2.459e-09
 94.68582    116.6 1.192e+04 1.327e-09
 94.70606    116.1 1.108e+04 7.882e-10
 94.72098    115.1 1.029e+04 4.856e-10
 94.73109    116.8 1.063e+04 5.957e-10
 94.74653    115.5 9.923e+03 4.400e-10
 94.76021    115.0 9.862e+03 4.398e-10
 94.77033    115.1 9.618e+03 3.213e-10
 94.78701    115.1 9.601e+03 3.252e-10
 94.80481    115.1 9.604e+03 3.483e-10
 94.81493    116.0 9.649e+03 3.581e-10
 94.82748    116.0 9.709e+03 4.278e-10
 94.84772    116.1 9.887e+03 5.538e-10
 94.86796    116.3 1.012e+04 7.220e-10
 94.88819    116.7 1.038e+04 9.200e-10
 94.89877    117.1 1.067e+04 1.120e-09
 94.90463    117.7 1.073e+04 1.148e-09
 94.91430    118.0 1.037e+04 9.154e-10
 94.92867    118.5 1.074e+04 1.176e-09
 94.94891    119.1 1.112e+04 1.420e-09
 94.96914    119.6 1.143e+04 1.571e-09
 94.98260    119.9 1.155e+04 1.562e-09
 94.99272    120.5 1.167e+04 1.714e-09
 95.00962    120.8 1.168e+04 1.655e-09
 95.02985    121.0 1.157e+04 1.531e-09
 95.04814    121.1 1.139e+04 1.417e-09
 95.05826    121.9 1.147e+04 1.521e-09
 95.06644    121.9 1.131e+04 1.425e-09
 95.07656    122.5 1.147e+04 1.527e-09
 95.09057    122.4 1.145e+04 1.528e-09
 95.11080    122.2 1.149e+04 1.594e-09
 95.13104    122.0 1.170e+04 1.801e-09
 95.15027    121.9 1.202e+04 2.117e-09
 95.16039    122.1 1.229e+04 2.417e-09
 95.17152    122.1 1.267e+04 2.870e-09
 95.19175    121.9 1.295e+04 3.131e-09
 95.20223    121.6 1.298e+04 3.122e-09
 95.21235    121.9 1.245e+04 2.516e-09
 95.23223    121.5 1.246e+04 2.490e-09
 95.24423    121.1 1.242e+04 2.400e-09
 95.25435    121.1 1.250e+04 2.507e-09
 95.27270    120.6 1.239e+04 2.337e-09
 95.29294    120.1 1.228e+04 2.177e-09
 95.31318    119.6 1.217e+04 2.038e-09
 95.32806    119.1 1.206e+04 1.913e-09
 95.33818    119.2 1.204e+04 1.932e-09
 95.34619    118.7 1.188e+04 1.794e-09
 95.35631    118.8 1.174e+04 1.733e-09
 95.37389    118.4 1.170e+04 1.682e-09
 95.39412    118.0 1.162e+04 1.597e-09
 95.41190    117.8 1.152e+04 1.492e-09
 95.42202    117.7 1.160e+04 1.580e-09
 95.43460    117.4 1.152e+04 1.502e-09
 95.45484    117.1 1.143e+04 1.426e-09
 95.47507    116.9 1.137e+04 1.369e-09
 95.49016    116.6 1.138e+04 1.363e-09
 95.50028    116.5 1.124e+04 1.293e-09
 95.50585    116.1 1.119e+04 1.251e-09
 95.51597    115.5 1.152e+04 1.468e-09
 95.53578    115.0 1.159e+04 1.484e-09
 95.55602    114.5 1.172e+04 1.508e-09
 95.57626    113.8 1.184e+04 1.537e-09
 95.58969    112.9 1.195e+04 1.571e-09
 95.59981    111.7 1.249e+04 2.065e-09
 95.61673    110.6 1.247e+04 2.092e-09
 95.63413    109.5 1.239e+04 2.120e-09
 95.64424    109.5 1.174e+04 1.606e-09
 95.65721    108.7 1.184e+04 1.758e-09
 95.67352    107.9 1.201e+04 1.930e-09
 95.68364    107.4 1.208e+04 1.946e-09
 95.69768    106.6 1.220e+04 2.018e-09
 95.71792    105.5 1.239e+04 2.013e-09
 95.73816    103.9 1.249e+04 2.000e-09
 95.75736    101.8 1.260e+04 2.027e-09
 95.76748    101.5 1.232e+04 1.694e-09
 95.77809     98.9 1.261e+04 1.893e-09
 95.78821     98.6 1.272e+04 2.034e-09
 95.79887     96.0 1.317e+04 2.557e-09
 95.81911     93.9 1.347e+04 2.958e-09
 95.83934     92.0 1.346e+04 2.928e-09
 95.85131     90.4 1.324e+04 2.561e-09
 95.86143     90.8 1.319e+04 2.563e-09
 95.87982     89.1 1.285e+04 1.949e-09
 95.90005     86.8 1.243e+04 1.376e-09
 95.92029     84.2 1.189e+04 1.140e-09
 95.93218     82.3 1.176e+04 1.149e-09
 95.93692     82.2 1.152e+04 1.005e-09
 95.94527     83.0 1.153e+04 9.790e-10
 95.96077     82.2 1.149e+04 1.009e-09
 95.98100     81.7 1.167e+04 1.105e-09
 96.00124     81.8 1.174e+04 1.125e-09
 96.01908     80.6 1.228e+04 1.338e-09
 96.03942     81.9 1.196e+04 1.162e-09
 96.06622     80.8 1.207e+04 1.133e-09
 96.08646     82.0 1.150e+04 7.500e-10
 96.11274     80.9 1.151e+04 6.093e-10
 96.15322     79.0 1.214e+04 5.429e-10
 96.18347     76.0 1.328e+04 6.575e-10
 96.19678     74.5 1.454e+04 1.054e-09
 96.20699     79.0 1.293e+04 5.118e-10
 96.22021     75.6 1.514e+04 1.235e-09
 96.23023     78.1 1.347e+04 5.788e-10
 96.24409     77.1 1.462e+04 1.066e-09
 96.26432     76.9 1.545e+04 2.437e-09
 96.28061     76.9 1.612e+04 5.069e-09
 96.29073     78.2 1.601e+04 3.210e-09
 96.30480     78.0 1.668e+04 6.730e-09
 96.32504     78.4 1.728e+04 1.092e-08
 96.34527     79.3 1.756e+04 1.454e-08
 96.36040     80.1 1.772e+04 1.616e-08
 96.36904     81.1 1.758e+04 1.510e-08
 96.37303     81.0 1.770e+04 1.981e-08
 96.37452     81.4 1.855e+04 2.157e-08
 96.38064     82.2 1.795e+04 2.050e-08
 96.39071     83.4 1.795e+04 1.835e-08
 96.40083     84.4 1.857e+04 1.420e-08
 96.41095     84.0 1.936e+04 1.014e-08
 96.41639     82.8 1.933e+04 5.929e-09
 96.42145     84.3 1.996e+04 8.872e-09
 96.43118     83.0 1.950e+04 5.406e-09
 96.44102     81.2 1.736e+04 3.111e-09
 96.44608     83.9 2.049e+04 5.133e-09
 96.45142     81.9 1.795e+04 3.106e-09
 96.45835     79.3 1.415e+04 1.907e-09
 96.46341     81.2 1.670e+04 2.491e-09
 96.47166     80.0 1.485e+04 2.143e-09
 96.48688     78.8 1.297e+04 1.665e-09
 96.50717     77.9 1.188e+04 1.384e-09
 96.51816     78.3 1.191e+04 1.404e-09
 96.52828     79.0 1.197e+04 1.364e-09
 96.54224     79.4 1.194e+04 1.432e-09
 96.55236     80.0 1.218e+04 1.552e-09
 96.56788     80.4 1.220e+04 1.688e-09
 96.58812     81.1 1.226e+04 1.848e-09
 96.60836     81.9 1.234e+04 1.867e-09
 96.62607     82.5 1.237e+04 1.832e-09
 96.63619     83.2 1.257e+04 2.016e-09
 96.64883     83.5 1.256e+04 1.879e-09
 96.66213     83.6 1.250e+04 1.695e-09
 96.67224     84.0 1.265e+04 1.871e-09
 96.68931     83.8 1.254e+04 1.791e-09
 96.70954     83.7 1.232e+04 1.706e-09
 96.72003     83.9 1.208e+04 1.586e-09
 96.73015     84.3 1.241e+04 1.831e-09
 96.75002     84.6 1.219e+04 1.673e-09
 96.77025     84.8 1.204e+04 1.423e-09
 96.79049     84.7 1.201e+04 1.164e-09
 96.80386     84.1 1.198e+04 9.730e-10
 96.80934     84.7 1.237e+04 1.281e-09
 96.81621     84.8 1.258e+04 1.466e-09
 96.83097     83.9 1.239e+04 1.307e-09
 96.85120     83.0 1.216e+04 1.223e-09
 96.87144     82.4 1.201e+04 1.171e-09
 96.88770     82.0 1.194e+04 1.098e-09
 96.89782     82.3 1.231e+04 1.310e-09
 96.91192     82.0 1.211e+04 1.136e-09
 96.93215     81.7 1.195e+04 9.445e-10
 96.95006     81.6 1.176e+04 7.487e-10
 96.96018     81.8 1.172e+04 7.315e-10
 96.97153     81.6 1.156e+04 5.870e-10
 96.98165     81.1 1.187e+04 6.285e-10
 96.99286     80.0 1.206e+04 5.345e-10
 97.01310     78.2 1.241e+04 5.368e-10
 97.03334     76.1 1.280e+04 6.567e-10
 97.05358     74.6 1.277e+04 9.598e-10
 97.06549     74.1 1.275e+04 1.400e-09
 97.07561     72.9 1.298e+04 2.232e-09
 97.09402     73.2 1.323e+04 2.525e-09
 97.11426     73.1 1.353e+04 2.585e-09
 97.13452     72.6 1.355e+04 2.510e-09
 97.14932     72.0 1.352e+04 2.449e-09
 97.15944     70.6 1.321e+04 1.950e-09
 97.17500     70.2 1.281e+04 1.634e-09
 97.19524     70.1 1.240e+04 1.354e-09
 97.21547     70.0 1.207e+04 1.105e-09
 97.23316     69.9 1.186e+04 8.775e-10
 97.24328     68.8 1.152e+04 5.436e-10
 97.24811     68.6 1.143e+04 4.868e-10
 97.25823     68.7 1.149e+04 5.884e-10
 97.27618     68.6 1.132e+04 5.176e-10
 97.29642     68.7 1.125e+04 5.028e-10
 97.31666     69.2 1.120e+04 5.152e-10
 97.32711     69.4 1.121e+04 5.204e-10
 97.33723     69.2 1.113e+04 4.908e-10
 97.35713     70.0 1.109e+04 5.348e-10
 97.37737     70.3 1.113e+04 5.575e-10
 97.39207     71.1 1.117e+04 5.807e-10
 97.40219     71.1 1.130e+04 6.929e-10
 97.41095     71.7 1.139e+04 7.192e-10
 97.42107     71.4 1.138e+04 7.609e-10
 97.43808     71.9 1.148e+04 7.962e-10
 97.45832     72.4 1.156e+04 8.206e-10
 97.47856     72.8 1.166e+04 8.466e-10
 97.49479     73.1 1.177e+04 8.704e-10
 97.50490     72.7 1.180e+04 9.029e-10
 97.51903     72.9 1.193e+04 9.304e-10
 97.53604     73.0 1.204e+04 9.632e-10
 97.54616     72.8 1.225e+04 1.096e-09
 97.55951     73.0 1.226e+04 1.103e-09
 97.57862     73.1 1.225e+04 1.095e-09
 97.58874     72.4 1.226e+04 1.138e-09
 97.59998     72.6 1.223e+04 1.099e-09
 97.62022     72.6 1.222e+04 1.044e-09
 97.64045     72.4 1.228e+04 9.971e-10
 97.66069     72.1 1.236e+04 9.900e-10
 97.67258     71.6 1.244e+04 1.022e-09
 97.68177     71.3 1.233e+04 9.148e-10
 97.69013     70.7 1.247e+04 9.898e-10
 97.70117     69.8 1.271e+04 1.086e-09
 97.72140     68.8 1.287e+04 1.283e-09
 97.74164     68.3 1.293e+04 1.589e-09
 97.75641     68.4 1.293e+04 1.773e-09
 97.76653     67.6 1.302e+04 2.133e-09
 97.78212     68.0 1.320e+04 2.239e-09
 97.80235     68.5 1.325e+04 2.108e-09
 97.82259     68.7 1.326e+04 1.680e-09
 97.83409     68.7 1.304e+04 1.137e-09
 97.84163     68.3 1.291e+04 9.057e-10
 97.85037     68.0 1.352e+04 1.314e-09
 97.86306     66.8 1.315e+04 8.835e-10
 97.88330     66.1 1.255e+04 6.476e-10
 97.90354     66.0 1.220e+04 5.488e-10
 97.92378     66.7 1.204e+04 4.900e-10
 97.93420     67.2 1.214e+04 4.654e-10
 97.94432     66.5 1.230e+04 7.217e-10
 97.96425     67.1 1.232e+04 6.673e-10
 97.97806     67.8 1.232e+04 6.677e-10
 97.98818     67.5 1.234e+04 6.910e-10
 98.00472     67.7 1.246e+04 8.185e-10
 98.01804     68.3 1.256e+04 9.276e-10
 98.02816     67.6 1.271e+04 1.162e-09
 98.05542     69.2 1.261e+04 1.135e-09
 98.09195     70.4 1.270e+04 1.348e-09
 98.11219     68.9 1.263e+04 1.306e-09
 98.12222     70.7 1.242e+04 1.103e-09
 98.14246     70.1 1.258e+04 1.232e-09
 98.17694     71.7 1.226e+04 8.106e-10
 98.21741     72.9 1.191e+04 5.086e-10
 98.25788     74.0 1.149e+04 3.588e-10
 98.27986     75.6 1.120e+04 3.287e-10
 98.30010     75.4 1.106e+04 2.502e-10
 98.33883     77.6 1.106e+04 2.855e-10
 98.37931     79.7 1.116e+04 3.382e-10
 98.41015     81.7 1.129e+04 4.062e-10
 98.43039     81.2 1.135e+04 4.076e-10
 98.44753     82.9 1.139e+04 4.834e-10
 98.46777     82.9 1.141e+04 4.281e-10
 98.50073     84.5 1.147e+04 5.032e-10
 98.54121     85.9 1.151e+04 5.589e-10
 98.58168     87.1 1.153e+04 5.652e-10
 98.61520     88.0 1.152e+04 5.520e-10
 98.63544     87.7 1.171e+04 6.135e-10
 98.66263     88.6 1.165e+04 5.565e-10
 98.69808     89.5 1.150e+04 4.688e-10
 98.71832     88.6 1.127e+04 3.025e-10
 98.74358     89.3 1.105e+04 2.904e-10
 98.78287     90.1 1.085e+04 3.097e-10
 98.80311     89.3 1.082e+04 2.971e-10
 98.82453     90.3 1.066e+04 3.409e-10
 98.86500     91.3 1.057e+04 3.466e-10
 98.90548     92.4 1.046e+04 3.348e-10
 98.94595     93.6 1.026e+04 2.902e-10
 98.97078     95.0 1.013e+04 2.241e-10
 98.99061     94.8 1.024e+04 2.467e-10
 99.00625     94.8 1.031e+04 2.564e-10
 99.02690     96.1 1.020e+04 1.813e-10
 99.06737     97.3 1.002e+04 1.483e-10
 99.10785     98.9 9.922e+03 1.464e-10
 99.13845    100.9 9.908e+03 1.477e-10
 99.15869    100.5 1.014e+04 1.821e-10
 99.18880    102.6 1.015e+04 2.024e-10
 99.22927    104.8 1.020e+04 2.338e-10
 99.26975    107.1 1.031e+04 2.715e-10
 99.29419    109.4 1.046e+04 3.163e-10
 99.31033    109.3 1.071e+04 3.744e-10
 99.32636    108.8 1.104e+04 5.433e-10
 99.35069    110.8 1.123e+04 6.311e-10
 99.39117    112.8 1.140e+04 7.044e-10
 99.43164    114.8 1.160e+04 7.568e-10
 99.47212    116.6 1.184e+04 7.971e-10
 99.49394    116.8 1.194e+04 8.156e-10
 99.51417    116.5 1.193e+04 8.128e-10
 99.54285    117.2 1.203e+04 8.381e-10
 99.56299    117.8 1.210e+04 8.597e-10
 99.57767    118.5 1.218e+04 9.011e-10
 99.58649    118.0 1.211e+04 9.263e-10
 99.59204    117.8 1.221e+04 9.849e-10
 99.60346    118.5 1.234e+04 1.091e-09
 99.62370    119.1 1.250e+04 1.240e-09
 99.64394    119.9 1.264e+04 1.445e-09
 99.66151    120.6 1.282e+04 1.680e-09
 99.68184    120.3 1.301e+04 1.947e-09
 99.71496    121.8 1.341e+04 2.377e-09
 99.75544    123.3 1.364e+04 2.581e-09
 99.78570    123.6 1.365e+04 2.569e-09
 99.80584    124.3 1.366e+04 2.550e-09
 99.82607    124.9 1.372e+04 2.571e-09
 99.83930    125.6 1.374e+04 2.563e-09
 99.84952    124.3 1.324e+04 2.006e-09
 99.87005    125.5 1.336e+04 2.206e-09
 99.89029    124.6 1.311e+04 1.840e-09
 99.91734    126.1 1.319e+04 1.952e-09
 99.95781    127.7 1.336e+04 2.122e-09
 99.99705    129.1 1.360e+04 2.388e-09
