# Columns:
#   distance along LOS (in CHIMPs)
#   peculiar velocity  (in km/s)
#   temperature (K)
#   HI number density
# pos=(217.699,225.442,87.5102), angles=(0.263558,1.9457)
  0.00938     72.1 1.486e+04 5.431e-09
  0.02831     73.1 1.483e+04 5.365e-09
  0.03843     74.0 1.440e+04 4.537e-09
  0.04911     74.9 1.430e+04 4.197e-09
  0.06934     75.9 1.412e+04 3.680e-09
  0.08957     76.9 1.382e+04 2.989e-09
  0.10905     77.5 1.340e+04 2.342e-09
  0.11917     78.0 1.303e+04 1.947e-09
  0.14024     78.3 1.244e+04 1.460e-09
  0.17988     80.1 1.176e+04 9.979e-10
  0.20011     81.3 1.167e+04 1.030e-09
  0.22126     83.4 1.135e+04 8.064e-10
  0.26172     85.4 1.111e+04 6.111e-10
  0.30218     87.6 1.095e+04 4.789e-10
  0.32458     89.8 1.083e+04 4.102e-10
  0.34353     90.4 1.096e+04 5.853e-10
  0.36159     91.5 1.141e+04 9.172e-10
  0.38310     93.8 1.152e+04 9.727e-10
  0.42356     96.1 1.165e+04 1.029e-09
  0.46402     98.4 1.172e+04 1.058e-09
  0.50285    100.5 1.172e+04 1.051e-09
  0.52308    101.0 1.212e+04 1.406e-09
  0.54494    103.1 1.202e+04 1.324e-09
  0.58540    105.2 1.184e+04 1.181e-09
  0.62586    107.4 1.159e+04 1.018e-09
  0.66433    109.6 1.133e+04 8.728e-10
  0.68456    110.2 1.136e+04 8.991e-10
  0.70678    112.8 1.121e+04 8.046e-10
  0.73152    113.9 1.114e+04 7.671e-10
  0.74153    113.9 1.094e+04 6.724e-10
  0.75500    115.1 1.094e+04 6.872e-10
  0.76511    115.4 1.072e+04 6.116e-10
  0.77739    116.7 1.069e+04 6.115e-10
  0.79762    118.0 1.068e+04 6.213e-10
  0.81785    119.2 1.068e+04 6.427e-10
  0.83574    120.5 1.070e+04 6.771e-10
  0.84586    120.9 1.041e+04 5.020e-10
  0.85830    122.1 1.044e+04 5.333e-10
  0.87853    123.4 1.051e+04 5.820e-10
  0.89876    124.6 1.060e+04 6.472e-10
  0.91648    126.0 1.070e+04 7.193e-10
  0.92660    126.0 1.036e+04 4.789e-10
  0.93494    127.4 1.046e+04 5.343e-10
  0.94505    127.1 1.017e+04 3.984e-10
  0.95945    128.3 1.023e+04 4.214e-10
  0.97968    129.5 1.029e+04 4.480e-10
  0.99723    130.6 1.037e+04 4.761e-10
  1.00734    130.5 1.006e+04 3.494e-10
  1.02014    131.6 1.010e+04 3.665e-10
  1.04037    132.5 1.016e+04 3.877e-10
  1.06060    133.4 1.023e+04 4.163e-10
  1.07797    134.2 1.034e+04 4.532e-10
  1.08808    134.3 1.003e+04 3.624e-10
  1.10106    135.0 1.014e+04 4.033e-10
  1.12129    135.6 1.031e+04 4.582e-10
  1.13845    136.2 1.049e+04 5.181e-10
  1.14857    136.3 1.018e+04 4.244e-10
  1.15871    136.8 1.036e+04 4.756e-10
  1.16883    137.2 1.035e+04 4.819e-10
  1.18198    137.5 1.057e+04 5.576e-10
  1.20221    137.6 1.074e+04 6.310e-10
  1.22244    137.7 1.088e+04 7.053e-10
  1.23946    137.7 1.100e+04 7.849e-10
  1.24957    138.2 1.128e+04 9.736e-10
  1.26290    138.2 1.141e+04 1.074e-09
  1.28313    138.2 1.144e+04 1.127e-09
  1.30336    138.2 1.142e+04 1.127e-09
  1.32020    138.3 1.136e+04 1.104e-09
  1.33031    138.8 1.160e+04 1.250e-09
  1.34197    138.9 1.145e+04 1.157e-09
  1.35209    139.3 1.137e+04 1.162e-09
  1.36405    139.5 1.123e+04 1.086e-09
  1.38428    139.7 1.108e+04 1.023e-09
  1.40094    140.1 1.101e+04 9.885e-10
  1.41106    140.2 1.103e+04 9.951e-10
  1.42474    140.6 1.103e+04 9.925e-10
  1.44497    141.1 1.109e+04 1.008e-09
  1.46520    141.2 1.127e+04 1.077e-09
  1.48168    141.2 1.169e+04 1.254e-09
  1.49180    141.0 1.178e+04 1.200e-09
  1.50566    140.5 1.250e+04 1.577e-09
  1.52589    139.9 1.339e+04 2.254e-09
  1.54549    139.2 1.440e+04 3.371e-09
  1.55561    140.2 1.279e+04 1.912e-09
  1.56243    139.3 1.383e+04 3.021e-09
  1.57254    139.0 1.367e+04 2.714e-09
  1.58658    138.6 1.450e+04 3.901e-09
  1.60681    138.3 1.506e+04 4.499e-09
  1.62704    137.7 1.512e+04 4.440e-09
  1.64317    136.9 1.503e+04 3.912e-09
  1.65329    136.5 1.464e+04 3.461e-09
  1.66750    135.1 1.469e+04 3.128e-09
  1.68773    132.8 1.495e+04 3.168e-09
  1.70796    130.0 1.546e+04 3.477e-09
  1.72308    129.2 1.558e+04 3.761e-09
  1.72887    128.6 1.584e+04 4.182e-09
  1.73393    128.7 1.559e+04 4.210e-09
  1.74326    127.8 1.618e+04 5.112e-09
  1.75338    126.4 1.708e+04 6.941e-09
  1.75903    124.8 1.830e+04 1.019e-08
  1.76408    125.5 1.784e+04 8.248e-09
  1.76924    123.7 1.930e+04 1.288e-08
  1.77430    124.1 1.890e+04 1.223e-08
  1.78372    122.2 2.044e+04 1.972e-08
  1.79384    120.3 2.169e+04 3.258e-08
  1.80395    118.4 2.235e+04 5.252e-08
  1.80962    116.8 2.261e+04 7.748e-08
  1.81467    117.3 2.239e+04 7.573e-08
  1.82418    116.0 2.286e+04 9.894e-08
  1.83430    113.9 2.319e+04 1.005e-07
  1.84441    111.7 2.317e+04 9.199e-08
  1.84999    110.4 2.265e+04 6.502e-08
  1.85505    111.0 2.235e+04 6.291e-08
  1.86079    110.2 2.162e+04 3.829e-08
  1.86584    110.5 2.205e+04 5.329e-08
  1.87475    109.7 2.105e+04 2.807e-08
  1.88535    106.9 1.897e+04 9.241e-09
  1.89551    108.1 1.893e+04 1.002e-08
  1.91025    104.4 1.576e+04 3.472e-09
  1.93048    100.2 1.311e+04 1.662e-09
  1.95071     98.4 1.251e+04 1.333e-09
  1.96264     98.4 1.235e+04 1.255e-09
  1.96796     98.5 1.258e+04 1.705e-09
  1.97626     98.6 1.236e+04 1.285e-09
  1.99117     98.6 1.229e+04 1.272e-09
  2.01140     98.5 1.229e+04 1.272e-09
  2.03163     98.2 1.233e+04 1.281e-09
  2.04689     97.8 1.232e+04 1.276e-09
  2.05700     98.0 1.190e+04 1.019e-09
  2.07209     97.6 1.178e+04 1.012e-09
  2.09232     97.3 1.169e+04 1.007e-09
  2.11255     97.0 1.162e+04 1.013e-09
  2.12763     96.9 1.160e+04 1.024e-09
  2.13774     97.3 1.143e+04 9.237e-10
  2.16322     97.1 1.147e+04 9.562e-10
  2.19357     96.8 1.155e+04 9.924e-10
  2.20837     96.6 1.158e+04 9.981e-10
  2.21849     97.2 1.157e+04 1.005e-09
  2.23393     96.9 1.168e+04 1.058e-09
  2.25416     96.5 1.174e+04 1.087e-09
  2.27439     96.2 1.172e+04 1.069e-09
  2.28911     96.0 1.164e+04 1.004e-09
  2.29923     96.6 1.184e+04 1.187e-09
  2.31485     96.4 1.177e+04 1.125e-09
  2.33508     96.3 1.166e+04 1.034e-09
  2.35531     96.1 1.157e+04 9.562e-10
  2.36968     95.9 1.155e+04 9.186e-10
  2.37411     94.7 1.146e+04 8.483e-10
  2.37997     95.5 1.177e+04 1.032e-09
  2.39577     95.3 1.165e+04 9.673e-10
  2.41600     95.2 1.162e+04 9.569e-10
  2.43623     94.9 1.165e+04 9.690e-10
  2.45060     94.1 1.184e+04 1.043e-09
  2.46072     94.4 1.195e+04 1.099e-09
  2.47669     92.7 1.236e+04 1.306e-09
  2.49692     90.5 1.302e+04 1.753e-09
  2.51715     87.9 1.365e+04 2.450e-09
  2.53134     85.1 1.411e+04 2.975e-09
  2.54146     85.4 1.401e+04 3.064e-09
  2.55761     82.9 1.400e+04 3.050e-09
  2.57320     80.6 1.388e+04 2.904e-09
  2.58331     77.6 1.432e+04 3.064e-09
  2.59807     75.1 1.400e+04 2.645e-09
  2.61209     73.1 1.356e+04 2.279e-09
  2.62220     74.3 1.323e+04 2.137e-09
  2.63853     73.5 1.302e+04 1.953e-09
  2.65876     73.1 1.294e+04 1.820e-09
  2.68920     74.4 1.268e+04 1.592e-09
  2.72976     74.2 1.217e+04 1.316e-09
  2.76365     74.4 1.168e+04 1.113e-09
  2.78046     76.2 1.184e+04 1.353e-09
  2.78703     73.2 1.153e+04 1.212e-09
  2.81068     74.2 1.119e+04 1.013e-09
  2.85114     75.3 1.090e+04 8.524e-10
  2.89160     76.1 1.064e+04 7.343e-10
  2.92514     76.7 1.036e+04 6.345e-10
  2.94537     78.5 1.089e+04 8.036e-10
  2.97251     78.7 1.039e+04 6.334e-10
  3.01297     79.2 9.991e+03 4.974e-10
  3.05343     80.0 9.631e+03 3.652e-10
  3.08662     81.0 9.305e+03 2.423e-10
  3.10685     81.8 9.506e+03 3.137e-10
  3.13435     83.0 9.230e+03 1.978e-10
  3.17383     84.1 9.042e+03 1.143e-10
  3.19406     83.6 8.686e+03 7.826e-11
  3.21527     84.7 8.654e+03 5.586e-11
  3.24811     86.1 8.665e+03 5.352e-11
  3.26834     86.5 8.906e+03 9.560e-11
  3.29619     87.7 8.931e+03 9.737e-11
  3.33665     88.8 9.071e+03 1.077e-10
  3.37711     90.1 9.264e+03 1.306e-10
  3.40960     91.3 9.365e+03 1.555e-10
  3.42983     91.3 1.013e+04 3.737e-10
  3.45803     92.4 1.009e+04 3.602e-10
  3.49849     93.5 9.958e+03 3.188e-10
  3.53895     94.7 9.777e+03 2.617e-10
  3.57108     95.9 9.575e+03 2.059e-10
  3.59131     95.7 9.898e+03 2.542e-10
  3.60110     96.7 9.579e+03 1.836e-10
  3.62133     96.7 9.439e+03 1.479e-10
  3.66033     97.9 9.354e+03 1.354e-10
  3.70079     99.3 9.355e+03 1.360e-10
  3.73257    100.8 9.379e+03 1.418e-10
  3.75280    100.3 9.527e+03 1.565e-10
  3.78171    101.6 9.610e+03 1.797e-10
  3.82217    102.7 9.799e+03 2.170e-10
  3.86263    103.7 1.002e+04 2.651e-10
  3.89405    104.4 1.022e+04 3.168e-10
  3.91428    103.7 1.031e+04 2.922e-10
  3.94355    104.2 1.039e+04 2.902e-10
  3.98400    104.5 1.044e+04 2.814e-10
  4.00813    104.5 1.047e+04 2.654e-10
  4.02836    104.3 1.075e+04 2.941e-10
  4.05554    104.1 1.075e+04 2.732e-10
  4.07577    103.7 1.062e+04 1.981e-10
  4.10538    103.7 1.069e+04 1.854e-10
  4.14584    103.9 1.071e+04 1.805e-10
  4.18630    104.1 1.070e+04 1.743e-10
  4.21703    104.7 1.064e+04 1.621e-10
  4.23726    105.5 1.067e+04 1.335e-10
  4.26722    106.1 1.061e+04 1.314e-10
  4.30768    106.9 1.054e+04 1.253e-10
  4.34814    107.6 1.043e+04 1.138e-10
  4.37851    108.2 1.033e+04 9.857e-11
  4.39874    109.1 1.042e+04 1.124e-10
  4.41517    109.8 1.030e+04 1.013e-10
  4.43540    110.0 1.027e+04 8.973e-11
  4.46952    110.8 1.017e+04 7.999e-11
  4.50998    111.5 1.007e+04 7.472e-11
  4.54000    112.4 9.969e+03 7.309e-11
  4.56023    113.4 1.008e+04 8.375e-11
  4.59090    114.3 1.001e+04 8.036e-11
  4.63136    115.1 9.927e+03 7.952e-11
  4.67182    115.9 9.914e+03 7.978e-11
  4.70148    116.6 9.901e+03 8.177e-11
  4.72171    117.5 9.958e+03 8.527e-11
  4.75274    118.2 9.949e+03 9.146e-11
  4.79320    118.6 9.980e+03 1.124e-10
  4.82221    118.9 1.005e+04 1.527e-10
  4.84244    119.5 1.003e+04 1.430e-10
  4.86297    119.8 1.014e+04 2.052e-10
  4.88320    120.8 1.015e+04 1.887e-10
  4.91458    121.0 1.024e+04 2.511e-10
  4.95504    121.2 1.027e+04 2.697e-10
  4.99549    121.3 1.026e+04 2.658e-10
  5.02446    121.6 1.017e+04 2.433e-10
  5.04469    122.5 1.018e+04 2.441e-10
  5.07641    123.0 1.003e+04 2.055e-10
  5.11687    123.6 9.858e+03 1.580e-10
  5.15733    124.3 9.730e+03 1.189e-10
  5.18594    125.0 9.641e+03 9.435e-11
  5.20617    126.0 9.648e+03 9.616e-11
  5.22924    126.7 9.606e+03 8.359e-11
  5.24947    127.1 9.598e+03 9.798e-11
  5.27871    127.8 9.589e+03 9.866e-11
  5.31917    128.6 9.563e+03 1.001e-10
  5.34743    129.4 9.549e+03 1.002e-10
  5.36766    130.3 9.531e+03 9.585e-11
  5.40009    131.0 9.494e+03 9.504e-11
  5.44055    131.8 9.383e+03 8.987e-11
  5.48101    132.8 9.266e+03 7.730e-11
  5.50891    133.8 9.163e+03 6.135e-11
  5.52914    134.6 9.155e+03 6.108e-11
  5.56193    135.7 9.046e+03 4.530e-11
  5.60239    136.8 8.911e+03 3.493e-11
  5.63628    138.0 8.729e+03 3.254e-11
  5.65651    138.0 8.726e+03 3.083e-11
  5.67040    139.5 8.713e+03 3.081e-11
  5.69063    140.3 8.688e+03 2.811e-11
  5.72377    141.9 8.680e+03 2.832e-11
  5.76423    143.4 8.655e+03 2.949e-11
  5.80469    144.9 8.627e+03 3.205e-11
  5.83189    146.4 8.593e+03 3.555e-11
  5.85212    147.4 8.580e+03 3.099e-11
  5.88561    148.9 8.541e+03 3.361e-11
  5.92607    150.6 8.508e+03 3.608e-11
  5.96653    152.2 8.487e+03 3.821e-11
  5.99337    153.9 8.481e+03 4.008e-11
  6.01360    154.7 8.549e+03 3.137e-11
  6.04332    156.3 8.561e+03 3.209e-11
  6.06355    156.2 8.579e+03 2.914e-11
  6.08790    157.7 8.587e+03 3.114e-11
  6.12836    159.2 8.600e+03 3.449e-11
  6.15486    160.7 8.627e+03 3.923e-11
  6.17509    161.3 8.571e+03 3.428e-11
  6.20928    162.7 8.585e+03 4.118e-11
  6.24974    164.2 8.611e+03 5.052e-11
  6.29020    165.6 8.657e+03 6.242e-11
  6.31634    167.1 8.732e+03 7.693e-11
  6.33657    167.9 8.688e+03 7.407e-11
  6.37112    169.4 8.788e+03 8.763e-11
  6.41158    170.8 8.924e+03 9.972e-11
  6.45035    172.0 9.079e+03 1.068e-10
  6.47058    171.5 9.128e+03 1.017e-10
  6.47783    172.5 9.143e+03 9.998e-11
  6.49806    173.2 8.974e+03 9.489e-11
  6.53296    174.4 8.987e+03 8.769e-11
  6.57342    175.5 8.979e+03 7.878e-11
  6.61388    176.6 8.952e+03 7.008e-11
  6.63932    177.7 8.909e+03 6.328e-11
  6.65955    178.6 8.730e+03 6.914e-11
  6.69480    179.9 8.708e+03 6.579e-11
  6.73526    181.3 8.711e+03 6.545e-11
  6.77572    182.7 8.724e+03 6.598e-11
  6.80080    184.1 8.770e+03 6.808e-11
  6.82103    185.2 8.761e+03 6.641e-11
  6.85664    186.6 8.829e+03 7.018e-11
  6.87762    187.9 8.926e+03 7.556e-11
  6.89785    187.4 8.993e+03 7.143e-11
  6.93756    188.5 9.113e+03 7.810e-11
  6.96229    189.5 9.244e+03 8.806e-11
  6.98252    190.6 9.257e+03 7.595e-11
  7.01848    191.6 9.382e+03 8.438e-11
  7.05893    192.4 9.476e+03 9.865e-11
  7.09939    193.1 9.552e+03 1.246e-10
  7.12377    193.9 9.664e+03 1.652e-10
  7.14400    195.2 9.595e+03 1.246e-10
  7.18031    196.1 9.808e+03 1.706e-10
  7.22077    196.7 1.016e+04 2.439e-10
  7.25102    196.6 1.037e+04 2.950e-10
  7.27115    196.4 1.063e+04 3.817e-10
  7.28446    196.1 1.099e+04 5.933e-10
  7.28826    195.3 1.111e+04 7.243e-10
  7.29518    196.2 1.112e+04 5.633e-10
  7.31161    196.1 1.155e+04 1.017e-09
  7.33184    196.2 1.205e+04 1.657e-09
  7.35207    196.3 1.262e+04 2.265e-09
  7.36581    196.3 1.332e+04 2.371e-09
  7.37592    197.1 1.339e+04 2.893e-09
  7.39253    196.9 1.379e+04 2.862e-09
  7.41276    195.7 1.395e+04 2.673e-09
  7.43299    193.5 1.416e+04 2.024e-09
  7.44655    190.5 1.378e+04 1.300e-09
  7.45667    192.0 1.449e+04 1.862e-09
  7.47345    188.2 1.368e+04 1.113e-09
  7.48798    184.0 1.222e+04 7.441e-10
  7.49809    182.5 1.160e+04 7.233e-10
  7.51391    180.1 1.114e+04 6.876e-10
  7.52729    178.7 1.103e+04 6.720e-10
  7.53741    178.2 1.115e+04 7.747e-10
  7.55437    177.4 1.106e+04 7.354e-10
  7.57460    176.9 1.098e+04 6.664e-10
  7.59483    176.6 1.085e+04 5.831e-10
  7.60804    176.3 1.079e+04 5.341e-10
  7.61815    176.1 1.106e+04 6.387e-10
  7.63529    175.6 1.117e+04 6.527e-10
  7.65552    174.2 1.171e+04 7.505e-10
  7.67575    170.7 1.344e+04 1.290e-09
  7.68878    167.7 1.504e+04 2.612e-09
  7.69441    167.0 1.565e+04 4.212e-09
  7.70156    166.3 1.630e+04 5.902e-09
  7.71105    165.3 1.706e+04 7.849e-09
  7.72117    164.0 1.807e+04 1.168e-08
  7.72905    162.8 1.900e+04 1.841e-08
  7.73411    163.6 1.901e+04 2.000e-08
  7.74140    162.6 1.982e+04 2.908e-08
  7.75151    161.7 2.036e+04 3.805e-08
  7.76163    160.6 2.077e+04 4.279e-08
  7.76943    159.1 2.086e+04 4.222e-08
  7.77448    159.5 2.049e+04 3.109e-08
  7.78186    157.7 2.052e+04 2.859e-08
  7.79197    155.6 2.041e+04 2.364e-08
  7.79822    153.5 2.018e+04 1.985e-08
  7.80327    153.1 2.005e+04 1.696e-08
  7.81731    149.6 1.915e+04 1.189e-08
  7.83759    144.5 1.744e+04 8.172e-09
  7.85027    140.8 1.564e+04 6.160e-09
  7.86038    141.0 1.521e+04 5.082e-09
  7.87805    139.3 1.450e+04 4.786e-09
  7.89502    139.0 1.423e+04 4.454e-09
  7.90513    139.0 1.412e+04 4.191e-09
  7.91851    139.0 1.396e+04 3.667e-09
  7.93101    138.6 1.372e+04 2.833e-09
  7.94112    138.8 1.398e+04 3.482e-09
  7.95897    138.2 1.373e+04 2.717e-09
  7.97920    137.1 1.335e+04 1.987e-09
  7.99943    135.7 1.287e+04 1.583e-09
  8.01175    134.3 1.262e+04 1.540e-09
  8.02187    135.0 1.297e+04 1.795e-09
  8.03988    133.7 1.295e+04 1.805e-09
  8.06011    132.5 1.293e+04 1.898e-09
  8.08034    131.3 1.307e+04 2.104e-09
  8.09250    129.9 1.334e+04 2.317e-09
  8.10057    130.1 1.401e+04 3.086e-09
  8.10865    130.1 1.404e+04 3.094e-09
  8.12080    127.9 1.456e+04 3.551e-09
  8.14103    125.5 1.481e+04 3.893e-09
  8.16126    123.1 1.478e+04 3.923e-09
  8.17324    120.8 1.461e+04 3.851e-09
  8.18335    121.4 1.544e+04 5.530e-09
  8.20172    119.8 1.484e+04 4.646e-09
  8.22195    118.5 1.388e+04 3.292e-09
  8.24218    116.8 1.299e+04 2.225e-09
  8.25398    114.0 1.309e+04 2.136e-09
  8.26410    114.4 1.302e+04 1.978e-09
  8.28264    109.9 1.351e+04 2.227e-09
  8.30205    105.1 1.515e+04 3.763e-09
  8.31217    104.8 1.503e+04 3.685e-09
  8.31800    103.2 1.592e+04 5.213e-09
  8.32806    101.9 1.676e+04 7.505e-09
  8.33463    100.9 1.755e+04 1.105e-08
  8.33968    101.2 1.744e+04 1.049e-08
  8.34829    100.6 1.819e+04 1.547e-08
  8.35841    100.4 1.903e+04 2.104e-08
  8.36852    100.0 1.989e+04 2.292e-08
  8.37500     99.0 1.998e+04 2.210e-08
  8.38006     99.3 2.029e+04 2.767e-08
  8.38875     98.2 2.030e+04 2.635e-08
  8.40397     97.0 1.974e+04 1.788e-08
  8.41547     95.9 1.878e+04 9.765e-09
  8.42558     95.3 1.945e+04 1.753e-08
  8.44448     94.0 1.830e+04 9.014e-09
  8.46471     92.2 1.659e+04 3.506e-09
  8.48494     88.6 1.382e+04 1.168e-09
  8.49621     85.1 1.072e+04 5.704e-10
  8.50633     89.1 1.427e+04 1.316e-09
  8.51569     85.6 1.173e+04 6.445e-10
  8.52580     84.2 1.084e+04 5.801e-10
  8.54563     81.3 1.090e+04 6.262e-10
  8.56586     77.6 1.181e+04 1.000e-09
  8.57695     75.1 1.312e+04 2.182e-09
  8.58707     75.0 1.312e+04 2.056e-09
  8.60632     74.5 1.427e+04 4.076e-09
  8.62655     74.3 1.515e+04 5.911e-09
  8.64678     73.6 1.556e+04 6.003e-09
  8.65770     72.5 1.556e+04 5.045e-09
  8.66781     71.1 1.595e+04 5.478e-09
  8.68724     68.5 1.564e+04 3.474e-09
  8.70747     64.6 1.437e+04 1.693e-09
  8.71920     61.3 1.258e+04 1.031e-09
  8.72932     61.3 1.197e+04 7.866e-10
  8.73854     60.5 1.078e+04 5.727e-10
  8.75886     60.1 1.142e+04 7.095e-10
  8.79870     59.0 9.778e+03 3.331e-10
  8.83916     58.7 9.749e+03 2.362e-10
  8.87962     59.3 9.706e+03 2.336e-10
  8.90012     60.2 9.745e+03 2.466e-10
  8.91308     59.6 9.829e+03 2.591e-10
  8.93303     59.8 1.003e+04 3.235e-10
  8.96054     60.7 1.036e+04 4.433e-10
  9.00100     61.8 1.080e+04 6.372e-10
  9.04138     63.0 1.112e+04 8.103e-10
  9.08184     63.9 1.137e+04 9.075e-10
  9.12237     65.0 1.129e+04 8.493e-10
  9.16283     66.1 1.109e+04 7.524e-10
  9.20286     67.3 1.091e+04 6.658e-10
  9.22309     67.5 1.077e+04 5.898e-10
  9.24375     68.9 1.065e+04 5.259e-10
  9.27400     69.7 1.051e+04 4.894e-10
  9.29353     69.9 1.048e+04 4.829e-10
  9.30364     69.9 1.051e+04 4.676e-10
  9.31974     71.1 1.037e+04 4.612e-10
  9.34007     71.1 1.015e+04 3.621e-10
  9.36435     72.7 9.970e+03 3.132e-10
  9.38458     72.8 1.005e+04 3.188e-10
  9.40559     74.1 1.003e+04 3.017e-10
  9.44605     75.0 1.004e+04 2.907e-10
  9.47630     75.3 1.021e+04 3.306e-10
  9.49643     75.4 1.034e+04 3.691e-10
  9.51666     75.1 1.056e+04 4.334e-10
  9.53328     74.6 1.098e+04 5.494e-10
  9.54226     75.4 1.063e+04 4.456e-10
  9.54587     74.8 1.124e+04 6.589e-10
  9.55712     73.9 1.191e+04 9.156e-10
  9.57735     72.6 1.264e+04 1.368e-09
  9.59758     71.6 1.322e+04 2.056e-09
  9.61650     71.1 1.360e+04 2.814e-09
  9.62661     71.0 1.393e+04 3.385e-09
  9.63804     70.6 1.391e+04 3.325e-09
  9.65827     70.2 1.375e+04 3.043e-09
  9.67850     69.6 1.334e+04 2.105e-09
  9.69724     69.0 1.292e+04 1.398e-09
  9.70736     67.9 1.257e+04 1.138e-09
  9.71896     66.5 1.192e+04 7.284e-10
  9.73680     65.0 1.136e+04 4.906e-10
  9.74691     66.8 1.185e+04 7.010e-10
  9.76963     64.7 1.127e+04 4.620e-10
  9.81019     60.9 1.032e+04 3.707e-10
  9.84881     56.7 1.048e+04 4.954e-10
  9.86904     56.6 1.048e+04 5.618e-10
  9.89111     53.2 1.111e+04 9.225e-10
  9.93157     50.4 1.160e+04 1.267e-09
  9.97203     47.5 1.165e+04 1.264e-09
 10.01029     44.3 1.143e+04 1.093e-09
 10.03052     44.8 1.102e+04 9.345e-10
 10.05295     42.3 1.084e+04 8.613e-10
 10.09341     39.9 1.064e+04 7.666e-10
 10.12365     39.4 1.048e+04 6.942e-10
 10.14378     38.5 1.032e+04 6.139e-10
 10.16401     37.7 1.007e+04 5.147e-10
 10.18170     36.6 9.838e+03 4.314e-10
 10.19191     38.3 9.777e+03 4.135e-10
 10.21478     36.8 9.516e+03 3.519e-10
 10.24503     35.9 9.463e+03 3.586e-10
 10.26244     35.6 9.470e+03 3.674e-10
 10.27256     36.6 9.467e+03 3.892e-10
 10.28539     36.3 9.685e+03 4.346e-10
 10.30562     34.4 1.102e+04 6.409e-10
 10.32585     29.5 1.385e+04 1.507e-09
 10.34318     21.7 1.715e+04 5.758e-09
 10.35330     21.8 1.810e+04 6.966e-09
 10.35746     20.0 1.829e+04 1.621e-08
 10.36758     19.1 1.825e+04 1.481e-08
 10.38654     20.3 1.804e+04 1.776e-08
 10.40677     21.3 1.778e+04 1.259e-08
 10.42393     18.8 1.866e+04 5.252e-09
 10.43404     19.8 1.966e+04 5.324e-09
 10.44723     10.1 1.667e+04 1.531e-09
 10.46746      2.7 1.177e+04 9.561e-10
 10.48769      2.0 1.172e+04 9.508e-10
 10.50467      0.6 1.219e+04 1.073e-09
 10.51479     -0.1 1.193e+04 1.025e-09
 10.52815     -1.9 1.242e+04 1.285e-09
 10.54838     -3.5 1.281e+04 1.737e-09
 10.56098     -4.0 1.305e+04 2.324e-09
 10.57110     -4.1 1.304e+04 2.339e-09
 10.58541     -3.9 1.328e+04 2.811e-09
 10.59553     -3.7 1.314e+04 2.686e-09
 10.60907     -3.3 1.329e+04 2.799e-09
 10.62930     -3.3 1.335e+04 2.355e-09
 10.64953     -4.3 1.320e+04 1.886e-09
 10.66616     -5.9 1.265e+04 1.504e-09
 10.67627     -5.6 1.263e+04 1.506e-09
 10.68999     -6.6 1.214e+04 1.232e-09
 10.71022     -6.5 1.207e+04 1.188e-09
 10.74066     -6.8 1.177e+04 9.259e-10
 10.78122     -7.4 1.152e+04 7.499e-10
 10.81147     -7.3 1.127e+04 6.008e-10
 10.82764     -7.3 1.121e+04 5.787e-10
 10.83776     -7.1 1.108e+04 5.435e-10
 10.85183     -6.7 1.090e+04 4.591e-10
 10.87206     -6.4 1.079e+04 3.931e-10
 10.89229     -6.5 1.071e+04 3.231e-10
 10.90839     -6.6 1.069e+04 3.116e-10
 10.91850     -6.5 1.068e+04 3.126e-10
 10.94296     -6.9 1.066e+04 2.779e-10
 10.96821     -6.7 1.061e+04 2.753e-10
 10.98414     -5.8 1.034e+04 2.239e-10
 10.99944     -5.2 1.031e+04 2.255e-10
 11.02398     -4.3 1.022e+04 2.110e-10
 11.06444     -2.9 1.013e+04 2.017e-10
 11.10490     -1.2 1.009e+04 1.945e-10
 11.14069      0.5 1.014e+04 2.068e-10
 11.16092      1.1 1.013e+04 2.037e-10
 11.18581      2.9 1.025e+04 2.203e-10
 11.22627      4.4 1.054e+04 2.618e-10
 11.26673      5.5 1.094e+04 3.353e-10
 11.29698      6.6 1.085e+04 4.304e-10
 11.31210      7.0 1.113e+04 4.802e-10
 11.32222      7.0 1.123e+04 5.022e-10
 11.33734      7.8 1.113e+04 6.767e-10
 11.35757      8.7 1.140e+04 7.637e-10
 11.37506      9.0 1.179e+04 8.325e-10
 11.38517      9.3 1.153e+04 6.845e-10
 11.39284      9.2 1.174e+04 7.791e-10
 11.40296      8.7 1.191e+04 8.255e-10
 11.41826      8.7 1.197e+04 9.412e-10
 11.43849      9.1 1.180e+04 1.013e-09
 11.45872      9.6 1.185e+04 9.863e-10
 11.47359      9.8 1.193e+04 8.950e-10
 11.48370      8.9 1.242e+04 9.914e-10
 11.49918      7.9 1.270e+04 8.742e-10
 11.51941      6.6 1.244e+04 8.530e-10
 11.53964      5.7 1.221e+04 9.040e-10
 11.55433      5.4 1.255e+04 1.073e-09
 11.56444      4.8 1.302e+04 1.302e-09
 11.57857      4.9 1.339e+04 1.458e-09
 11.58869      7.0 1.191e+04 7.984e-10
 11.60033      7.3 1.219e+04 8.496e-10
 11.62056      7.6 1.252e+04 9.084e-10
 11.63507      7.4 1.313e+04 1.057e-09
 11.64519      5.9 1.392e+04 1.380e-09
 11.66102      4.7 1.489e+04 2.037e-09
 11.68125      3.2 1.541e+04 3.370e-09
 11.70148      1.8 1.538e+04 5.065e-09
 11.71582      1.4 1.616e+04 8.022e-09
 11.72593      1.2 1.673e+04 1.059e-08
 11.74194      1.6 1.768e+04 1.548e-08
 11.76217      2.1 1.852e+04 1.857e-08
 11.78209      2.4 1.921e+04 1.533e-08
 11.79216      3.9 1.917e+04 2.743e-08
 11.79651      4.4 1.924e+04 1.944e-08
 11.80667      4.1 2.004e+04 1.694e-08
 11.82286      1.6 1.830e+04 6.593e-09
 11.84309     -2.7 1.415e+04 2.353e-09
 11.86332     -5.2 1.129e+04 1.216e-09
 11.87730     -5.5 1.053e+04 8.730e-10
 11.88742     -5.5 1.057e+04 8.656e-10
 11.91399     -4.8 1.027e+04 6.903e-10
 11.94812     -4.5 9.595e+03 4.758e-10
 11.96835     -4.4 9.872e+03 5.429e-10
 11.99501     -3.5 9.707e+03 5.064e-10
 12.03547     -2.6 9.837e+03 5.843e-10
 12.06571     -2.8 9.932e+03 7.405e-10
 12.08585     -6.3 1.169e+04 1.107e-09
 12.10608     -8.7 1.441e+04 1.934e-09
 12.11953    -14.8 1.648e+04 5.114e-09
 12.12965    -15.1 1.708e+04 7.449e-09
 12.14653    -16.9 1.790e+04 1.302e-08
 12.15985    -18.3 1.848e+04 1.477e-08
 12.16486    -17.3 1.875e+04 1.640e-08
 12.17172    -18.4 1.925e+04 1.698e-08
 12.18184    -20.5 2.017e+04 1.742e-08
 12.19195    -25.6 2.212e+04 1.361e-08
 12.19915    -32.9 2.065e+04 1.056e-08
 12.20231    -32.1 2.038e+04 9.827e-09
 12.20523    -33.2 2.154e+04 9.652e-09
 12.21218    -41.2 1.919e+04 7.596e-09
 12.22741    -46.8 1.819e+04 7.116e-09
 12.24768    -53.9 1.689e+04 7.285e-09
 12.26791    -56.7 1.603e+04 6.177e-09
 12.28102    -60.1 1.519e+04 3.897e-09
 12.29113    -59.5 1.538e+04 4.007e-09
 12.30837    -64.6 1.470e+04 1.877e-09
 12.32860    -73.5 1.561e+04 1.305e-09
 12.34883    -83.2 1.826e+04 1.320e-09
 12.36176    -87.8 1.743e+04 2.960e-09
 12.37187    -86.3 1.627e+04 1.336e-09
 12.38929    -87.6 1.575e+04 3.466e-09
 12.40276    -87.6 1.578e+04 6.183e-09
 12.41288    -88.4 1.531e+04 3.817e-09
 12.42975    -88.0 1.548e+04 5.100e-09
 12.44250    -87.5 1.549e+04 5.313e-09
 12.45262    -86.3 1.549e+04 4.939e-09
 12.47021    -85.8 1.552e+04 5.038e-09
 12.49044    -85.6 1.519e+04 4.220e-09
 12.51067    -85.5 1.447e+04 2.730e-09
 12.52325    -86.3 1.348e+04 1.637e-09
 12.53336    -84.8 1.435e+04 2.588e-09
 12.55113    -85.4 1.333e+04 1.608e-09
 12.57136    -85.7 1.230e+04 1.044e-09
 12.59159    -85.6 1.149e+04 7.505e-10
 12.60399    -85.3 1.096e+04 5.954e-10
 12.60856    -84.1 1.150e+04 7.104e-10
 12.61640    -84.6 1.230e+04 9.764e-10
 12.63205    -84.3 1.167e+04 7.236e-10
 12.65228    -83.6 1.116e+04 5.668e-10
 12.67251    -82.6 1.077e+04 4.604e-10
 12.68473    -81.7 1.048e+04 3.831e-10
 12.69485    -81.3 1.076e+04 4.087e-10
 12.71297    -80.3 1.046e+04 3.414e-10
 12.73320    -79.4 1.033e+04 3.174e-10
 12.75546    -78.7 1.032e+04 3.140e-10
 12.77569    -77.2 1.043e+04 3.243e-10
 12.80410    -76.2 1.048e+04 3.352e-10
 12.84466    -74.3 1.038e+04 3.299e-10
 12.88512    -72.4 1.031e+04 3.727e-10
 12.91704    -71.0 1.044e+04 4.539e-10
 12.93727    -69.8 1.029e+04 3.795e-10
 12.96604    -68.6 1.032e+04 4.277e-10
 13.00340    -67.6 1.035e+04 4.670e-10
 13.02363    -67.4 9.955e+03 3.654e-10
 13.04696    -66.3 9.981e+03 3.758e-10
 13.07853    -65.1 1.002e+04 4.000e-10
 13.09876    -63.8 9.818e+03 3.132e-10
 13.12788    -62.7 9.763e+03 3.000e-10
 13.16834    -61.5 9.596e+03 2.647e-10
 13.20879    -60.2 9.363e+03 2.023e-10
 13.24001    -59.0 9.134e+03 1.439e-10
 13.26024    -58.3 9.165e+03 1.418e-10
 13.28971    -57.4 9.068e+03 1.190e-10
 13.33017    -56.6 9.044e+03 1.150e-10
 13.37063    -55.8 9.166e+03 1.225e-10
 13.40150    -55.0 9.324e+03 1.486e-10
 13.42107    -54.9 9.573e+03 2.007e-10
 13.43066    -54.3 9.706e+03 2.349e-10
 13.45155    -53.5 9.806e+03 2.511e-10
 13.49201    -52.7 9.839e+03 2.561e-10
 13.53247    -51.9 9.936e+03 2.470e-10
 13.56298    -51.1 9.916e+03 2.218e-10
 13.58321    -51.0 1.007e+04 2.289e-10
 13.61339    -50.2 9.998e+03 1.808e-10
 13.65385    -49.2 9.984e+03 1.405e-10
 13.69431    -48.3 1.001e+04 1.124e-10
 13.72447    -47.3 1.004e+04 9.545e-11
 13.74470    -47.1 1.008e+04 7.609e-11
 13.77523    -46.0 1.013e+04 6.533e-11
 13.81569    -44.8 1.021e+04 5.745e-11
 13.83770    -43.8 1.030e+04 5.125e-11
 13.85793    -43.7 1.037e+04 4.820e-11
 13.88596    -43.0 1.041e+04 4.760e-11
 13.90619    -42.4 1.027e+04 4.670e-11
 13.93707    -42.0 1.041e+04 4.826e-11
 13.97753    -41.9 1.045e+04 6.156e-11
 14.01799    -41.6 1.041e+04 8.865e-11
 14.04744    -41.0 1.048e+04 1.250e-10
 14.06767    -40.1 1.048e+04 1.252e-10
 14.09891    -39.4 1.064e+04 1.583e-10
 14.13937    -38.7 1.077e+04 1.728e-10
 14.17983    -38.1 1.080e+04 1.739e-10
 14.20893    -37.3 1.082e+04 1.522e-10
 14.22916    -36.4 1.078e+04 1.735e-10
 14.24474    -35.4 1.084e+04 1.374e-10
 14.26497    -35.6 1.089e+04 1.235e-10
 14.30120    -34.8 1.091e+04 9.206e-11
 14.34166    -34.0 1.091e+04 8.067e-11
 14.37041    -33.0 1.090e+04 7.878e-11
 14.39064    -32.0 1.091e+04 7.895e-11
 14.42258    -30.9 1.092e+04 8.348e-11
 14.46304    -29.7 1.091e+04 9.675e-11
 14.50350    -28.3 1.092e+04 1.070e-10
 14.53190    -26.9 1.096e+04 1.104e-10
 14.55213    -25.8 1.096e+04 1.055e-10
 14.58442    -24.5 1.101e+04 1.084e-10
 14.62488    -23.2 1.107e+04 1.115e-10
 14.65177    -21.8 1.111e+04 1.119e-10
 14.67200    -21.8 1.113e+04 8.242e-11
 14.69339    -20.4 1.112e+04 7.960e-11
 14.71362    -19.2 1.118e+04 9.292e-11
 14.74626    -17.6 1.117e+04 8.982e-11
 14.78672    -16.1 1.117e+04 8.825e-11
 14.82718    -15.2 1.132e+04 9.160e-11
 14.85487    -15.1 1.141e+04 1.371e-10
 14.87510    -13.5 1.161e+04 1.523e-10
 14.90810    -13.1 1.146e+04 3.097e-10
 14.94856    -11.5 1.164e+04 5.889e-10
 14.98902     -9.9 1.206e+04 8.716e-10
 15.01636     -9.1 1.227e+04 9.635e-10
 15.03659     -7.7 1.257e+04 1.170e-09
 15.05881     -7.5 1.262e+04 1.176e-09
 15.07904     -8.9 1.247e+04 9.205e-10
 15.11040     -9.0 1.233e+04 1.160e-09
 15.15086     -8.4 1.248e+04 1.538e-09
 15.17784     -7.7 1.267e+04 1.684e-09
 15.19807     -6.5 1.313e+04 1.890e-09
 15.23178     -6.2 1.315e+04 1.804e-09
 15.25849     -7.0 1.298e+04 1.363e-09
 15.26851     -6.4 1.318e+04 1.457e-09
 15.27225     -7.4 1.349e+04 1.363e-09
 15.28236     -8.7 1.352e+04 1.623e-09
 15.30238    -10.9 1.380e+04 1.828e-09
 15.32261    -12.8 1.417e+04 2.308e-09
 15.33914    -14.4 1.446e+04 2.805e-09
 15.34925    -14.5 1.464e+04 2.989e-09
 15.36307    -15.6 1.464e+04 3.135e-09
 15.38330    -16.4 1.425e+04 2.833e-09
 15.40353    -17.1 1.359e+04 1.983e-09
 15.41988    -18.0 1.296e+04 1.190e-09
 15.42999    -18.2 1.283e+04 1.058e-09
 15.44399    -19.3 1.249e+04 6.169e-10
 15.46422    -20.6 1.230e+04 4.057e-10
 15.47577    -21.7 1.209e+04 3.349e-10
 15.48588    -22.0 1.216e+04 3.453e-10
 15.50062    -22.5 1.213e+04 3.340e-10
 15.51074    -22.5 1.224e+04 3.427e-10
 15.52491    -22.9 1.242e+04 3.602e-10
 15.54514    -23.2 1.247e+04 4.418e-10
 15.56537    -23.4 1.243e+04 5.563e-10
 15.58136    -23.6 1.243e+04 6.939e-10
 15.59148    -23.4 1.249e+04 6.937e-10
 15.60583    -24.1 1.251e+04 8.544e-10
 15.62606    -25.5 1.269e+04 1.114e-09
 15.64629    -27.6 1.318e+04 1.554e-09
 15.66211    -29.9 1.378e+04 2.340e-09
 15.67222    -30.4 1.399e+04 2.637e-09
 15.67928    -31.8 1.434e+04 3.724e-09
 15.68940    -32.7 1.457e+04 3.880e-09
 15.70698    -33.2 1.455e+04 4.511e-09
 15.72721    -33.4 1.442e+04 4.556e-09
 15.74285    -33.1 1.366e+04 3.375e-09
 15.75297    -32.8 1.317e+04 2.421e-09
 15.76767    -33.2 1.224e+04 1.153e-09
 15.78790    -34.9 1.125e+04 4.984e-10
 15.80813    -36.5 1.047e+04 2.671e-10
 15.82369    -37.1 1.007e+04 2.006e-10
 15.84402    -37.8 9.726e+03 1.308e-10
 15.87288    -36.3 9.254e+03 8.535e-11
 15.89311    -36.8 9.359e+03 1.012e-10
 15.91959    -35.2 9.205e+03 7.575e-11
 15.96005    -34.0 9.212e+03 7.190e-11
 15.98527    -33.2 9.343e+03 8.082e-11
 16.00550    -32.4 9.044e+03 6.160e-11
 16.04097    -31.7 9.264e+03 7.531e-11
 16.08143    -30.9 9.327e+03 1.161e-10
 16.12189    -29.9 9.381e+03 1.688e-10
 16.14676    -29.0 9.437e+03 2.077e-10
 16.16699    -28.4 9.435e+03 1.934e-10
 16.20281    -27.6 9.514e+03 2.224e-10
 16.24327    -27.1 9.596e+03 2.298e-10
 16.27992    -26.9 9.751e+03 2.341e-10
 16.30015    -28.2 9.983e+03 2.790e-10
 16.30825    -28.1 1.023e+04 3.557e-10
 16.32848    -27.8 1.030e+04 3.497e-10
 16.36464    -27.6 1.046e+04 4.037e-10
 16.40510    -27.4 1.056e+04 4.477e-10
 16.44556    -27.3 1.056e+04 4.782e-10
 16.46973    -27.3 1.052e+04 4.854e-10
 16.48996    -27.2 1.052e+04 4.678e-10
 16.52648    -27.0 1.045e+04 4.668e-10
 16.56694    -26.7 1.036e+04 4.568e-10
 16.60740    -26.4 1.034e+04 4.557e-10
 16.63122    -26.3 1.040e+04 4.882e-10
 16.65145    -26.3 1.063e+04 5.975e-10
 16.68696    -26.0 1.077e+04 7.228e-10
 16.70709    -26.6 1.084e+04 7.981e-10
 16.71177    -26.5 1.086e+04 8.277e-10
 16.72188    -26.4 1.102e+04 9.119e-10
 16.73870    -26.3 1.101e+04 9.095e-10
 16.75893    -26.2 1.096e+04 8.884e-10
 16.77916    -26.1 1.091e+04 8.493e-10
 16.79261    -26.0 1.065e+04 7.145e-10
 16.80272    -26.0 1.080e+04 7.917e-10
 16.81962    -25.8 1.071e+04 7.505e-10
 16.83985    -25.5 1.044e+04 6.182e-10
 16.86008    -25.5 1.029e+04 5.362e-10
 16.89052    -26.1 1.002e+04 4.438e-10
 16.93108    -26.0 9.844e+03 4.134e-10
 16.95419    -25.3 9.634e+03 3.906e-10
 16.97442    -25.4 9.514e+03 3.596e-10
 17.01200    -24.3 9.307e+03 3.165e-10
 17.05246    -23.1 9.144e+03 2.726e-10
 17.09292    -22.0 8.950e+03 2.255e-10
 17.11422    -20.8 8.745e+03 1.809e-10
 17.11675    -21.3 8.534e+03 1.472e-10
 17.13591    -21.1 8.426e+03 1.224e-10
 17.17384    -19.8 8.317e+03 1.064e-10
 17.21430    -18.4 8.249e+03 9.686e-11
 17.25476    -17.0 8.210e+03 9.197e-11
 17.27716    -15.6 8.182e+03 8.952e-11
 17.29739    -15.3 8.129e+03 7.600e-11
 17.33567    -14.0 8.117e+03 7.499e-11
 17.37613    -12.7 8.117e+03 7.442e-11
 17.41659    -11.6 8.144e+03 7.472e-11
 17.43865    -10.8 8.231e+03 8.232e-11
 17.45888    -10.7 8.222e+03 8.276e-11
 17.49751    -10.0 8.333e+03 1.021e-10
 17.52126     -9.1 8.463e+03 1.272e-10
 17.54149     -9.2 8.472e+03 1.286e-10
 17.57843     -8.2 8.610e+03 1.500e-10
 17.60013     -7.4 8.672e+03 1.544e-10
 17.62036     -7.2 8.626e+03 1.364e-10
 17.65935     -7.1 8.662e+03 1.249e-10
 17.69981     -7.6 8.734e+03 1.256e-10
 17.74027     -8.6 8.942e+03 1.882e-10
 17.76162     -8.9 9.306e+03 3.195e-10
 17.78185     -8.5 9.287e+03 3.137e-10
 17.82119     -8.1 9.585e+03 3.776e-10
 17.86165     -8.3 9.731e+03 3.513e-10
 17.90211     -9.5 9.568e+03 2.256e-10
 17.92311    -11.0 9.195e+03 1.477e-10
 17.92906    -10.5 9.028e+03 1.202e-10
 17.94852     -9.9 9.010e+03 1.208e-10
 17.98303    -10.2 8.914e+03 1.174e-10
 18.02349     -9.9 8.886e+03 1.167e-10
 18.06395     -9.4 8.894e+03 1.099e-10
 18.08459     -9.0 8.935e+03 1.071e-10
 18.10482     -7.6 8.942e+03 1.105e-10
 18.14487     -7.2 9.103e+03 1.077e-10
 18.18533     -7.6 9.451e+03 1.094e-10
 18.22579     -8.4 9.831e+03 1.614e-10
 18.26625     -6.7 9.809e+03 1.897e-10
 18.30671     -6.2 1.008e+04 2.631e-10
 18.33533     -5.7 1.026e+04 2.766e-10
 18.35556     -4.3 1.030e+04 3.180e-10
 18.38733     -4.6 1.056e+04 2.962e-10
 18.40756     -2.4 1.049e+04 3.153e-10
 18.42808     -3.6 1.069e+04 2.887e-10
 18.46854     -5.9 1.120e+04 3.046e-10
 18.50900     -8.4 1.207e+04 6.082e-10
 18.54882     -9.5 1.255e+04 1.173e-09
 18.56905     -7.5 1.217e+04 8.536e-10
 18.58992     -8.6 1.232e+04 1.033e-09
 18.63038     -9.4 1.181e+04 9.556e-10
 18.67084     -9.4 1.085e+04 5.243e-10
 18.71031     -9.3 1.016e+04 2.751e-10
 18.73054     -8.1 1.015e+04 2.738e-10
 18.74237     -7.8 9.837e+03 1.929e-10
 18.76260     -7.2 9.860e+03 1.855e-10
 18.79222     -6.1 9.641e+03 1.436e-10
 18.83268     -4.8 9.586e+03 1.347e-10
 18.87179     -3.5 9.570e+03 1.427e-10
 18.89202     -2.6 9.595e+03 1.287e-10
 18.91360     -1.4 9.671e+03 1.511e-10
 18.95406     -0.3 9.777e+03 1.915e-10
 18.99452      0.8 9.902e+03 2.492e-10
 19.03328      1.9 1.003e+04 3.199e-10
 19.05351      2.2 9.995e+03 2.821e-10
 19.07544      3.1 1.015e+04 3.598e-10
 19.11590      3.9 1.033e+04 4.249e-10
 19.14614      3.9 1.050e+04 4.213e-10
 19.15932      3.7 1.053e+04 4.435e-10
 19.16954      3.5 1.045e+04 3.734e-10
 19.18660      3.2 1.064e+04 4.303e-10
 19.20468      2.6 1.080e+04 4.897e-10
 19.21480      2.7 1.071e+04 4.604e-10
 19.22697      2.2 1.093e+04 5.233e-10
 19.24720      1.5 1.116e+04 5.625e-10
 19.27764      0.3 1.144e+04 5.317e-10
 19.31820     -1.8 1.162e+04 5.446e-10
 19.35625     -4.4 1.136e+04 5.358e-10
 19.37648     -3.8 1.097e+04 3.422e-10
 19.39911     -5.0 1.072e+04 4.595e-10
 19.43957     -5.0 1.064e+04 5.481e-10
 19.48003     -4.8 1.047e+04 5.346e-10
 19.51774     -4.2 1.018e+04 4.273e-10
 19.53797     -2.9 1.039e+04 5.131e-10
 19.55644     -2.8 1.018e+04 4.197e-10
 19.57667     -2.7 1.051e+04 5.348e-10
 19.60141     -3.1 1.066e+04 5.731e-10
 19.63166     -3.1 1.099e+04 6.261e-10
 19.65179     -4.5 1.126e+04 7.359e-10
 19.67202     -5.6 1.137e+04 9.568e-10
 19.68914     -5.7 1.146e+04 1.214e-09
 19.69926     -5.7 1.176e+04 1.474e-09
 19.71248     -5.4 1.199e+04 1.610e-09
 19.73271     -5.1 1.221e+04 1.618e-09
 19.75294     -5.2 1.228e+04 1.324e-09
 19.76988     -6.6 1.220e+04 9.905e-10
 19.77999     -8.6 1.178e+04 7.348e-10
 19.80361     -9.5 1.144e+04 6.612e-10
 19.84071    -10.6 1.128e+04 6.099e-10
 19.86094    -12.9 1.099e+04 4.636e-10
 19.88463    -15.3 1.125e+04 4.466e-10
 19.92509    -19.1 1.148e+04 4.433e-10
 19.96348    -23.6 1.131e+04 4.572e-10
 19.98371    -21.6 1.120e+04 4.325e-10
 20.00219    -25.4 1.085e+04 4.338e-10
 20.02242    -25.4 1.048e+04 3.768e-10
 20.04647    -27.7 1.054e+04 3.254e-10
 20.08693    -31.3 1.097e+04 2.814e-10
 20.12739    -36.6 1.198e+04 3.108e-10
 20.16368    -40.4 1.294e+04 9.465e-10
 20.18391    -36.7 1.206e+04 5.573e-10
 20.19809    -38.2 1.274e+04 1.127e-09
 20.21823    -38.9 1.338e+04 1.868e-09
 20.23846    -39.2 1.398e+04 2.854e-09
 20.25434    -39.6 1.458e+04 3.396e-09
 20.26446    -38.7 1.398e+04 2.718e-09
 20.27892    -39.5 1.428e+04 2.890e-09
 20.29915    -40.8 1.438e+04 2.837e-09
 20.31938    -42.3 1.417e+04 2.516e-09
 20.33509    -43.5 1.382e+04 2.272e-09
 20.34520    -42.5 1.299e+04 1.578e-09
 20.37005    -43.3 1.240e+04 1.263e-09
 20.39074    -43.1 1.230e+04 1.321e-09
 20.40076    -43.5 1.323e+04 2.214e-09
 20.41583    -43.4 1.291e+04 1.979e-09
 20.42594    -42.9 1.237e+04 1.475e-09
 20.44075    -42.9 1.232e+04 1.447e-09
 20.46098    -43.3 1.225e+04 1.437e-09
 20.48121    -43.7 1.222e+04 1.430e-09
 20.49657    -44.7 1.254e+04 1.627e-09
 20.50669    -44.5 1.236e+04 1.468e-09
 20.52167    -45.7 1.296e+04 1.903e-09
 20.54190    -47.0 1.393e+04 2.950e-09
 20.56213    -47.8 1.471e+04 4.272e-09
 20.57732    -48.6 1.507e+04 5.101e-09
 20.58743    -47.9 1.451e+04 4.088e-09
 20.59407    -48.9 1.452e+04 4.164e-09
 20.60418    -48.6 1.454e+04 4.405e-09
 20.62282    -49.3 1.403e+04 3.291e-09
 20.64305    -50.8 1.308e+04 1.913e-09
 20.65806    -53.0 1.203e+04 1.169e-09
 20.66817    -52.7 1.174e+04 1.088e-09
 20.69372    -53.7 1.115e+04 8.622e-10
 20.73428    -54.3 1.056e+04 6.839e-10
 20.77474    -54.0 1.042e+04 6.272e-10
 20.79778    -53.5 1.041e+04 5.934e-10
 20.81243    -52.9 1.046e+04 6.335e-10
 20.82985    -51.6 1.081e+04 8.079e-10
 20.84545    -51.6 1.077e+04 7.681e-10
 20.86558    -51.7 1.082e+04 7.811e-10
 20.88581    -51.8 1.090e+04 7.935e-10
 20.90029    -51.8 1.091e+04 7.863e-10
 20.91040    -51.8 1.115e+04 9.596e-10
 20.92627    -51.8 1.113e+04 9.459e-10
 20.94650    -51.8 1.101e+04 8.927e-10
 20.96673    -51.7 1.084e+04 8.172e-10
 20.98103    -51.4 1.064e+04 7.310e-10
 20.99115    -51.4 1.079e+04 8.313e-10
 21.00110    -51.2 1.059e+04 6.947e-10
 21.01122    -51.1 1.058e+04 7.417e-10
 21.02742    -51.0 1.036e+04 5.962e-10
 21.04765    -50.9 1.015e+04 4.711e-10
 21.06177    -51.0 9.996e+03 4.022e-10
 21.07189    -51.4 9.947e+03 3.892e-10
 21.09832    -50.9 9.798e+03 3.314e-10
 21.13260    -49.8 9.353e+03 2.321e-10
 21.15283    -50.1 9.233e+03 2.177e-10
 21.17934    -49.0 9.018e+03 1.799e-10
 21.20482    -47.9 9.001e+03 1.711e-10
 21.22505    -48.1 8.988e+03 1.744e-10
 21.26026    -47.0 8.985e+03 1.736e-10
 21.29408    -46.0 9.083e+03 1.889e-10
 21.31431    -46.1 9.073e+03 1.929e-10
 21.34118    -45.3 9.169e+03 2.082e-10
 21.38164    -44.5 9.192e+03 2.129e-10
 21.42209    -43.8 9.184e+03 2.084e-10
 21.45557    -43.0 9.151e+03 1.952e-10
 21.47580    -43.3 9.073e+03 1.854e-10
 21.50301    -42.5 9.057e+03 1.815e-10
 21.54347    -41.6 9.080e+03 1.817e-10
 21.58393    -40.6 9.175e+03 1.894e-10
 21.61185    -39.4 9.299e+03 2.097e-10
 21.62474    -38.8 9.269e+03 1.926e-10
 21.63728    -39.1 9.162e+03 1.821e-10
 21.66485    -37.9 9.233e+03 1.881e-10
 21.70531    -36.6 9.335e+03 1.990e-10
 21.74577    -35.2 9.461e+03 2.160e-10
 21.77854    -33.9 9.613e+03 2.401e-10
 21.79877    -34.6 9.419e+03 1.899e-10
 21.82669    -33.2 9.605e+03 2.257e-10
 21.86715    -31.8 9.799e+03 2.666e-10
 21.90761    -30.1 9.977e+03 3.042e-10
 21.94003    -28.4 1.020e+04 3.400e-10
 21.96026    -29.4 1.024e+04 3.202e-10
 21.97832    -27.7 1.030e+04 3.409e-10
 21.99845    -27.6 1.046e+04 3.358e-10
 22.01868    -27.6 1.075e+04 3.815e-10
 22.03069    -26.2 1.080e+04 3.652e-10
 22.04080    -27.2 1.091e+04 3.860e-10
 22.05914    -27.5 1.107e+04 4.986e-10
 22.07937    -27.5 1.119e+04 6.716e-10
 22.09960    -27.0 1.132e+04 8.804e-10
 22.11143    -26.2 1.148e+04 1.060e-09
 22.12155    -26.6 1.149e+04 1.070e-09
 22.14006    -25.9 1.168e+04 1.170e-09
 22.16029    -25.5 1.190e+04 1.229e-09
 22.18052    -24.8 1.216e+04 1.279e-09
 22.19213    -24.1 1.209e+04 1.287e-09
 22.19714    -25.1 1.327e+04 1.465e-09
 22.20571    -28.7 1.892e+04 2.001e-09
 22.21582    -35.6 2.363e+04 6.733e-09
 22.22594    -44.9 2.707e+04 2.711e-08
 22.23223    -53.9 2.651e+04 9.109e-08
 22.23369    -49.4 2.625e+04 6.772e-08
 22.23751    -59.7 2.303e+04 3.711e-07
 22.24617    -62.8 2.199e+04 4.662e-07
 22.25628    -64.6 2.163e+04 3.764e-07
 22.26640    -66.0 2.182e+04 3.126e-07
 22.27282    -67.6 2.285e+04 2.372e-07
 22.27788    -71.1 2.625e+04 9.891e-08
 22.28663    -75.5 3.287e+04 3.600e-08
 22.29674    -83.1 4.255e+04 9.731e-09
 22.30686    -94.6 4.510e+04 3.053e-09
 22.32208   -108.0 2.562e+04 2.259e-09
 22.34236   -117.3 1.575e+04 1.441e-09
 22.35366   -122.9 1.178e+04 1.065e-09
 22.36378   -123.8 1.131e+04 8.570e-10
 22.38282   -125.8 1.077e+04 6.616e-10
 22.40304   -127.1 1.041e+04 5.334e-10
 22.42327   -127.9 1.018e+04 4.601e-10
 22.43440   -128.3 1.004e+04 4.149e-10
 22.43686   -127.6 9.902e+03 3.566e-10
 22.44596   -126.6 9.957e+03 3.705e-10
 22.47395   -126.5 9.861e+03 3.390e-10
 22.51450   -126.1 9.579e+03 2.828e-10
 22.55496   -124.9 9.419e+03 2.578e-10
 22.58597   -123.1 9.335e+03 2.450e-10
 22.60620   -122.8 9.125e+03 1.961e-10
 22.63588   -121.1 9.048e+03 1.839e-10
 22.67634   -119.4 8.947e+03 1.667e-10
 22.71680   -117.7 8.829e+03 1.500e-10
 22.74746   -116.1 8.761e+03 1.391e-10
 22.76769   -116.6 8.727e+03 1.375e-10
 22.79772   -115.1 8.726e+03 1.358e-10
 22.83296   -113.8 8.765e+03 1.367e-10
 22.85319   -112.6 8.793e+03 1.419e-10
 22.87864   -111.9 9.041e+03 1.687e-10
 22.90894   -112.0 9.454e+03 2.487e-10
 22.92917   -115.7 1.036e+04 3.741e-10
 22.94935   -114.8 9.389e+03 4.123e-10
 22.96948   -115.8 1.018e+04 4.879e-10
 22.98949   -118.8 1.115e+04 7.888e-10
 22.99961   -124.2 1.482e+04 1.884e-09
 23.00994   -131.6 2.018e+04 6.408e-09
 23.03017   -137.9 2.290e+04 1.423e-08
 23.04640   -144.0 2.354e+04 1.924e-08
 23.05647   -148.5 2.470e+04 2.567e-08
 23.06547   -151.2 2.357e+04 2.342e-08
 23.07519   -153.5 2.242e+04 1.724e-08
 23.08025   -156.4 2.054e+04 1.009e-08
 23.08570   -160.5 1.819e+04 5.314e-09
 23.09582   -164.2 1.581e+04 3.056e-09
 23.11104   -167.4 1.359e+04 1.958e-09
 23.13132   -170.7 1.114e+04 9.424e-10
 23.15098   -172.5 1.046e+04 4.887e-10
 23.16109   -173.5 1.064e+04 3.543e-10
 23.17178   -173.7 1.052e+04 3.222e-10
 23.19201   -173.4 1.041e+04 3.165e-10
 23.21224   -173.3 1.036e+04 3.171e-10
 23.23182   -173.4 1.032e+04 3.196e-10
 23.24937   -174.7 1.000e+04 2.731e-10
 23.26023   -176.0 9.574e+03 1.977e-10
 23.28324   -176.7 9.813e+03 2.631e-10
 23.32370   -178.0 1.026e+04 4.428e-10
 23.36416   -179.8 1.051e+04 6.451e-10
 23.39340   -182.1 1.052e+04 7.358e-10
 23.41363   -182.0 1.066e+04 6.911e-10
 23.44508   -184.2 1.060e+04 6.977e-10
 23.48553   -186.3 1.024e+04 6.214e-10
 23.52599   -188.4 9.891e+03 4.995e-10
 23.55489   -190.7 9.709e+03 4.191e-10
 23.57512   -190.6 1.004e+04 5.156e-10
 23.60691   -193.0 9.979e+03 4.987e-10
 23.64704   -195.4 9.902e+03 4.831e-10
 23.66727   -195.5 9.788e+03 4.079e-10
 23.68783   -197.6 9.678e+03 3.576e-10
 23.71637   -199.4 9.508e+03 2.913e-10
 23.73660   -199.1 9.611e+03 4.313e-10
 23.76875   -200.2 9.326e+03 3.224e-10
 23.80921   -200.7 9.064e+03 2.337e-10
 23.84967   -200.7 8.881e+03 1.727e-10
 23.87786   -200.7 8.766e+03 1.335e-10
 23.89809   -200.0 8.783e+03 1.579e-10
 23.93059   -199.6 8.695e+03 1.305e-10
 23.97105   -198.7 8.687e+03 1.143e-10
 24.01151   -197.8 8.750e+03 1.050e-10
 24.03934   -196.8 8.836e+03 9.833e-11
 24.05957   -196.7 8.884e+03 1.197e-10
 24.07430   -195.7 8.875e+03 1.140e-10
 24.09453   -195.2 8.941e+03 1.393e-10
 24.13289   -194.0 8.871e+03 1.333e-10
 24.17335   -192.8 8.795e+03 1.238e-10
 24.20083   -191.4 8.766e+03 1.144e-10
 24.22106   -191.0 8.834e+03 1.227e-10
 24.25427   -189.5 8.885e+03 1.131e-10
 24.29473   -188.0 8.939e+03 1.098e-10
 24.33519   -186.6 8.954e+03 1.098e-10
 24.36232   -185.5 9.090e+03 1.098e-10
 24.38255   -185.2 9.187e+03 1.079e-10
 24.41611   -184.5 9.792e+03 1.196e-10
 24.45657   -183.9 1.012e+04 1.717e-10
 24.48134   -183.2 1.033e+04 2.737e-10
 24.50157   -182.6 1.045e+04 3.451e-10
 24.52380   -181.7 1.083e+04 5.539e-10
 24.54403   -181.5 1.094e+04 7.207e-10
 24.57794   -180.7 1.137e+04 1.018e-09
 24.61840   -180.3 1.174e+04 1.272e-09
 24.65886   -180.2 1.202e+04 1.401e-09
 24.68529   -180.4 1.222e+04 1.435e-09
 24.70552   -181.6 1.249e+04 1.528e-09
 24.72957   -181.9 1.288e+04 1.761e-09
 24.74970   -182.2 1.305e+04 1.799e-09
 24.76584   -182.4 1.338e+04 1.836e-09
 24.77595   -183.3 1.333e+04 2.096e-09
 24.79016   -183.8 1.339e+04 2.131e-09
 24.81039   -184.4 1.339e+04 2.140e-09
 24.83062   -185.1 1.333e+04 2.138e-09
 24.84658   -185.6 1.331e+04 2.142e-09
 24.85669   -185.3 1.300e+04 2.031e-09
 24.87108   -185.6 1.302e+04 2.026e-09
 24.88818   -186.0 1.332e+04 2.093e-09
 24.89829   -186.7 1.397e+04 3.125e-09
 24.91154   -187.0 1.427e+04 3.731e-09
 24.92732   -187.0 1.457e+04 4.568e-09
 24.93744   -186.7 1.453e+04 3.208e-09
 24.95200   -186.8 1.476e+04 3.661e-09
 24.97223   -186.9 1.479e+04 3.984e-09
 24.99246   -187.0 1.475e+04 4.099e-09
 25.00807   -187.1 1.469e+04 4.127e-09
 25.01818   -187.1 1.407e+04 2.807e-09
 25.03292   -187.1 1.388e+04 2.773e-09
 25.05315   -187.1 1.369e+04 2.600e-09
 25.07338   -186.9 1.351e+04 2.390e-09
 25.08881   -186.6 1.333e+04 2.151e-09
 25.09701   -186.7 1.323e+04 1.953e-09
 25.10181   -186.9 1.316e+04 1.941e-09
 25.11384   -186.4 1.301e+04 1.732e-09
 25.13407   -185.9 1.285e+04 1.517e-09
 25.15430   -185.4 1.270e+04 1.307e-09
 25.16955   -184.8 1.255e+04 1.122e-09
 25.18988   -184.1 1.203e+04 7.908e-10
 25.22530   -182.9 1.196e+04 6.442e-10
 25.26576   -181.8 1.201e+04 5.958e-10
 25.29541   -180.8 1.205e+04 5.935e-10
 25.31564   -180.2 1.192e+04 7.013e-10
 25.33123   -179.7 1.221e+04 7.668e-10
 25.35146   -179.3 1.221e+04 7.938e-10
 25.38714   -179.1 1.242e+04 9.649e-10
 25.42760   -179.0 1.266e+04 1.190e-09
 25.46806   -178.9 1.292e+04 1.433e-09
 25.49272   -179.0 1.311e+04 1.602e-09
 25.51295   -178.7 1.325e+04 1.900e-09
 25.54897   -178.8 1.339e+04 2.068e-09
 25.58943   -178.9 1.341e+04 2.118e-09
 25.62989   -178.8 1.326e+04 2.033e-09
 25.65420   -178.5 1.299e+04 1.757e-09
 25.66422   -178.6 1.326e+04 2.182e-09
 25.68027   -178.3 1.303e+04 1.898e-09
 25.70050   -178.0 1.279e+04 1.633e-09
 25.71237   -177.8 1.262e+04 1.423e-09
 25.72258   -178.0 1.250e+04 1.444e-09
 25.75127   -177.8 1.216e+04 1.083e-09
 25.79173   -177.8 1.196e+04 8.840e-10
 25.81569   -177.8 1.184e+04 7.951e-10
 25.83592   -178.3 1.180e+04 8.521e-10
 25.87265   -178.0 1.164e+04 7.690e-10
 25.91311   -177.6 1.151e+04 7.195e-10
 25.95357   -176.9 1.138e+04 6.862e-10
 25.97718   -176.1 1.124e+04 6.521e-10
 25.99741   -175.2 1.104e+04 5.086e-10
 26.03449   -174.3 1.095e+04 4.717e-10
 26.07495   -173.2 1.086e+04 4.324e-10
 26.10948   -172.0 1.079e+04 3.928e-10
 26.12971   -172.0 1.089e+04 4.772e-10
 26.13866   -170.5 1.089e+04 4.538e-10
 26.15889   -169.6 1.086e+04 3.813e-10
 26.19633   -168.0 1.100e+04 4.014e-10
 26.23679   -166.5 1.114e+04 4.525e-10
 26.27725   -165.0 1.128e+04 5.112e-10
 26.30015   -163.6 1.135e+04 5.514e-10
 26.32038   -163.1 1.158e+04 6.892e-10
 26.35817   -162.0 1.161e+04 7.302e-10
 26.39863   -161.0 1.160e+04 7.390e-10
 26.43909   -159.8 1.148e+04 7.115e-10
 26.46163   -158.1 1.133e+04 6.628e-10
 26.48186   -158.1 1.178e+04 1.049e-09
 26.51652   -156.3 1.168e+04 1.004e-09
 26.53675   -156.1 1.181e+04 1.065e-09
 26.56046   -154.2 1.181e+04 1.062e-09
 26.60092   -152.5 1.198e+04 1.121e-09
 26.62312   -150.9 1.225e+04 1.345e-09
 26.64335   -151.2 1.275e+04 2.059e-09
 26.68184   -149.8 1.301e+04 2.440e-09
 26.72230   -148.6 1.322e+04 2.768e-09
 26.76276   -147.7 1.333e+04 2.939e-09
 26.78461   -146.9 1.333e+04 2.980e-09
 26.80484   -147.4 1.310e+04 2.729e-09
 26.84368   -146.4 1.276e+04 2.371e-09
 26.88414   -145.2 1.233e+04 1.839e-09
 26.92356   -143.8 1.196e+04 1.388e-09
 26.94379   -143.7 1.186e+04 1.305e-09
 26.94609   -142.3 1.156e+04 9.730e-10
 26.96632   -142.5 1.132e+04 7.635e-10
 27.00552   -141.1 1.114e+04 6.256e-10
 27.04598   -139.9 1.102e+04 5.422e-10
 27.08644   -138.6 1.094e+04 4.955e-10
 27.10758   -137.3 1.090e+04 4.715e-10
 27.12781   -137.2 1.089e+04 4.772e-10
 27.16736   -135.9 1.087e+04 4.689e-10
 27.20782   -134.5 1.087e+04 4.690e-10
 27.24828   -133.1 1.086e+04 4.803e-10
 27.26906   -131.8 1.085e+04 4.928e-10
 27.28929   -131.6 1.074e+04 4.200e-10
 27.32920   -130.2 1.072e+04 4.004e-10
 27.35082   -128.7 1.069e+04 3.763e-10
 27.37105   -128.5 1.068e+04 3.767e-10
 27.41012   -127.0 1.070e+04 3.553e-10
 27.43055   -125.5 1.072e+04 3.495e-10
 27.45078   -125.6 1.073e+04 3.072e-10
 27.49104   -124.9 1.110e+04 3.732e-10
 27.53150   -124.4 1.160e+04 6.809e-10
 27.57181   -123.6 1.210e+04 1.235e-09
 27.61227   -123.3 1.266e+04 1.934e-09
 27.65287   -123.0 1.276e+04 2.045e-09
 27.69333   -122.5 1.263e+04 1.931e-09
 27.73329   -121.2 1.214e+04 1.327e-09
 27.75352   -121.5 1.181e+04 8.339e-10
 27.75786   -120.3 1.150e+04 5.394e-10
 27.77809   -119.3 1.114e+04 2.933e-10
 27.81471   -118.2 1.116e+04 2.325e-10
 27.85517   -117.5 1.118e+04 2.250e-10
 27.89478   -117.8 1.146e+04 2.449e-10
 27.91501   -119.5 1.180e+04 5.156e-10
 27.93609   -119.6 1.216e+04 9.432e-10
 27.97655   -119.7 1.270e+04 1.546e-09
 28.01701   -120.2 1.335e+04 2.181e-09
 28.04726   -121.5 1.365e+04 2.453e-09
 28.06618   -122.4 1.376e+04 2.595e-09
 28.07640   -122.6 1.356e+04 2.352e-09
 28.09793   -124.4 1.361e+04 2.560e-09
 28.13839   -125.5 1.357e+04 2.618e-09
 28.16490   -125.8 1.335e+04 2.610e-09
 28.17491   -125.2 1.340e+04 2.551e-09
 28.18877   -125.2 1.324e+04 2.447e-09
 28.20900   -125.0 1.302e+04 2.273e-09
 28.22767   -124.8 1.282e+04 2.067e-09
 28.23788   -125.0 1.247e+04 1.540e-09
 28.25977   -124.5 1.211e+04 1.199e-09
 28.30023   -123.4 1.174e+04 9.608e-10
 28.34069   -122.0 1.141e+04 8.067e-10
 28.36832   -121.0 1.097e+04 6.171e-10
 28.37833   -120.9 1.104e+04 7.446e-10
 28.38916   -119.8 1.097e+04 7.230e-10
 28.39937   -120.7 1.054e+04 4.425e-10
 28.42161   -118.8 1.042e+04 3.949e-10
 28.46207   -116.8 1.031e+04 3.413e-10
 28.50253   -114.9 1.021e+04 2.895e-10
 28.54072   -112.9 1.014e+04 2.511e-10
 28.56095   -113.6 9.838e+03 2.276e-10
 28.57193   -111.6 9.768e+03 2.225e-10
 28.59216   -111.2 1.004e+04 3.264e-10
 28.62390   -109.3 1.001e+04 3.232e-10
 28.66436   -107.4 9.988e+03 3.219e-10
 28.70221   -105.5 9.993e+03 3.273e-10
 28.72244   -105.9 9.768e+03 3.539e-10
 28.74528   -103.8 9.780e+03 3.464e-10
 28.78574   -101.8 9.789e+03 3.439e-10
 28.82620    -99.9 9.961e+03 3.487e-10
 28.86369    -98.6 1.047e+04 4.008e-10
 28.88392    -98.3 9.720e+03 3.334e-10
 28.90712    -97.8 1.037e+04 4.617e-10
 28.94758    -97.8 1.132e+04 7.671e-10
 28.97897    -98.3 1.244e+04 1.430e-09
 28.99920    -98.4 1.257e+04 1.529e-09
 29.01829    -98.8 1.320e+04 2.309e-09
 29.03510    -98.9 1.381e+04 3.092e-09
 29.04522    -98.7 1.361e+04 3.147e-09
 29.05865    -99.0 1.415e+04 3.821e-09
 29.07888    -99.5 1.445e+04 4.225e-09
 29.09911   -100.5 1.451e+04 4.286e-09
 29.11584   -101.9 1.439e+04 4.100e-09
 29.12596   -101.9 1.437e+04 4.637e-09
 29.13957   -104.0 1.437e+04 4.291e-09
 29.15980   -106.6 1.429e+04 4.022e-09
 29.18003   -109.5 1.419e+04 3.937e-09
 29.19241   -112.4 1.412e+04 3.908e-09
 29.19885   -111.0 1.400e+04 3.758e-09
 29.20670   -111.5 1.484e+04 4.241e-09
 29.22049   -114.1 1.420e+04 3.827e-09
 29.24072   -116.3 1.354e+04 3.347e-09
 29.26095   -118.3 1.287e+04 2.786e-09
 29.27733   -120.3 1.218e+04 2.175e-09
 29.28744   -120.9 1.172e+04 1.868e-09
 29.30141   -122.6 1.119e+04 1.448e-09
 29.32164   -124.2 1.071e+04 1.138e-09
 29.34187   -125.6 1.029e+04 9.196e-10
 29.35807   -126.8 9.956e+03 7.693e-10
 29.36819   -126.5 9.969e+03 7.879e-10
 29.38233   -127.3 9.713e+03 6.711e-10
 29.39593   -127.9 9.505e+03 5.693e-10
 29.40604   -127.4 9.552e+03 5.935e-10
 29.42279   -127.8 9.352e+03 4.914e-10
 29.43882   -128.0 9.272e+03 4.315e-10
 29.44893   -127.9 9.284e+03 4.361e-10
 29.47346   -128.6 9.277e+03 3.999e-10
 29.50964   -129.9 9.337e+03 3.883e-10
 29.52987   -128.4 9.155e+03 3.326e-10
 29.55448   -129.7 9.360e+03 3.434e-10
 29.59494   -130.7 9.967e+03 5.194e-10
 29.63539   -131.4 1.034e+04 7.937e-10
 29.67112   -131.7 1.045e+04 9.402e-10
 29.69135   -131.0 1.064e+04 9.632e-10
 29.71631   -131.2 1.067e+04 1.060e-09
 29.75677   -131.3 1.053e+04 1.042e-09
 29.79304   -131.1 1.011e+04 8.321e-10
 29.81327   -130.0 1.087e+04 1.205e-09
 29.83261   -130.0 1.013e+04 8.122e-10
 29.85284   -129.8 1.042e+04 9.401e-10
 29.87815   -129.7 9.894e+03 6.649e-10
 29.90840   -129.4 9.490e+03 5.091e-10
 29.92327   -128.9 9.459e+03 4.910e-10
 29.93339   -128.9 9.475e+03 4.931e-10
 29.95897   -128.6 9.469e+03 4.771e-10
 29.99410   -127.9 9.464e+03 4.716e-10
 30.01433   -128.1 9.349e+03 3.741e-10
 30.03999   -127.6 9.353e+03 3.698e-10
 30.08045   -127.4 9.491e+03 3.875e-10
 30.12091   -127.6 1.013e+04 5.816e-10
 30.15558   -127.7 1.090e+04 1.031e-09
 30.17581   -127.7 1.063e+04 6.424e-10
 30.20008   -128.2 1.158e+04 1.229e-09
 30.22031   -127.5 1.132e+04 1.140e-09
 30.24229   -128.0 1.200e+04 1.746e-09
 30.28275   -128.8 1.229e+04 1.977e-09
 30.31300   -129.7 1.245e+04 2.094e-09
 30.32699   -129.9 1.239e+04 2.026e-09
 30.33710   -130.3 1.293e+04 2.819e-09
 30.35336   -130.2 1.254e+04 2.359e-09
 30.37359   -130.2 1.213e+04 1.944e-09
 30.39382   -130.1 1.170e+04 1.624e-09
 30.40773   -129.5 1.130e+04 1.360e-09
 30.41732   -129.6 1.143e+04 1.553e-09
 30.42363   -129.5 1.166e+04 1.683e-09
 30.43428   -128.9 1.132e+04 1.430e-09
 30.45451   -128.2 1.103e+04 1.216e-09
 30.47474   -127.2 1.074e+04 1.009e-09
 30.48847   -125.9 1.044e+04 8.086e-10
 30.49859   -125.7 1.053e+04 7.991e-10
 30.51520   -124.4 1.033e+04 6.360e-10
 30.53543   -123.4 1.029e+04 5.494e-10
 30.56587   -122.9 1.026e+04 4.915e-10
 30.60643   -121.1 1.013e+04 4.252e-10
 30.62735   -119.0 9.984e+03 3.674e-10
 30.64073   -118.8 1.001e+04 3.682e-10
 30.66027   -118.8 9.878e+03 3.096e-10
 30.68734   -116.4 9.756e+03 2.667e-10
 30.72780   -114.2 9.713e+03 2.357e-10
 30.76826   -112.1 9.712e+03 2.095e-10
 30.80153   -109.9 9.712e+03 1.861e-10
 30.82176   -109.9 9.700e+03 1.620e-10
 30.84918   -107.8 9.720e+03 1.548e-10
 30.88964   -105.8 9.740e+03 1.535e-10
 30.93010   -103.9 9.915e+03 1.589e-10
 30.96301   -102.1 1.006e+04 1.898e-10
 30.98324   -102.3 9.954e+03 2.581e-10
 31.01102   -100.4 1.006e+04 3.225e-10
 31.03438    -98.5 1.014e+04 3.659e-10
 31.05461    -97.9 1.010e+04 3.192e-10
 31.09194    -96.0 1.016e+04 3.478e-10
 31.12450    -94.1 1.016e+04 3.509e-10
 31.14473    -94.0 1.017e+04 2.807e-10
 31.17286    -92.0 1.016e+04 2.284e-10
 31.21332    -90.0 1.018e+04 1.782e-10
 31.25378    -88.1 1.022e+04 1.436e-10
 31.28598    -86.2 1.021e+04 1.238e-10
 31.30621    -86.3 1.003e+04 1.123e-10
 31.33470    -84.2 1.002e+04 1.081e-10
 31.37516    -82.0 1.003e+04 1.058e-10
 31.41562    -79.7 1.007e+04 1.030e-10
 31.44142    -77.5 1.013e+04 9.850e-11
 31.45304    -77.2 1.024e+04 1.170e-10
 31.46770    -77.0 1.013e+04 1.051e-10
 31.49654    -74.8 1.018e+04 9.464e-11
 31.53700    -72.5 1.024e+04 8.327e-11
 31.57746    -70.2 1.030e+04 7.193e-11
 31.60896    -67.9 1.036e+04 6.148e-11
 31.62919    -67.7 1.028e+04 5.773e-11
 31.65838    -65.4 1.032e+04 5.047e-11
 31.69883    -63.1 1.037e+04 4.503e-11
 31.73929    -60.9 1.043e+04 4.254e-11
 31.77044    -58.7 1.045e+04 4.217e-11
 31.79067    -58.4 1.029e+04 4.112e-11
 31.82021    -56.4 1.037e+04 4.192e-11
 31.84845    -54.7 1.039e+04 5.038e-11
 31.86868    -54.5 1.041e+04 5.663e-11
 31.90113    -52.5 1.030e+04 8.153e-11
 31.93193    -50.4 1.023e+04 1.137e-10
 31.95216    -49.5 1.012e+04 9.128e-11
 31.98205    -47.2 1.013e+04 1.112e-10
 32.02251    -45.1 1.019e+04 1.266e-10
 32.06297    -43.1 1.030e+04 1.384e-10
 32.09341    -41.4 1.046e+04 1.548e-10
 32.11364    -40.8 1.038e+04 1.146e-10
 32.14389    -39.3 1.048e+04 1.446e-10
 32.18435    -37.7 1.054e+04 2.054e-10
 32.22481    -36.0 1.061e+04 3.112e-10
 32.25490    -34.0 1.077e+04 4.584e-10
 32.26535    -33.2 1.048e+04 2.897e-10
 32.27572    -32.8 1.056e+04 3.629e-10
 32.30573    -30.9 1.071e+04 4.490e-10
 32.34619    -29.1 1.086e+04 4.958e-10
 32.38665    -27.5 1.094e+04 5.116e-10
 32.41639    -26.0 1.099e+04 5.145e-10
 32.43662    -25.2 1.078e+04 2.812e-10
 32.46757    -24.0 1.104e+04 3.230e-10
 32.50803    -23.2 1.132e+04 4.368e-10
 32.53827    -22.4 1.147e+04 5.547e-10
 32.55841    -22.0 1.148e+04 6.484e-10
 32.57768    -21.2 1.168e+04 9.231e-10
 32.58779    -21.5 1.149e+04 7.756e-10
 32.59887    -20.1 1.196e+04 1.092e-09
 32.61910    -19.8 1.256e+04 1.481e-09
 32.63933    -20.1 1.323e+04 2.102e-09
 32.65842    -21.1 1.396e+04 3.262e-09
 32.66854    -20.5 1.370e+04 2.804e-09
 32.67245    -21.1 1.435e+04 4.230e-09
 32.68256    -21.5 1.466e+04 5.151e-09
 32.70001    -21.6 1.544e+04 7.536e-09
 32.72024    -21.7 1.612e+04 9.458e-09
 32.73916    -22.4 1.635e+04 9.929e-09
 32.74928    -22.5 1.589e+04 8.025e-09
 32.76070    -23.6 1.570e+04 7.977e-09
 32.78093    -24.5 1.544e+04 8.021e-09
 32.80116    -24.7 1.528e+04 7.741e-09
 32.81991    -24.8 1.514e+04 6.833e-09
 32.83002    -24.9 1.483e+04 6.537e-09
 32.84162    -24.9 1.471e+04 5.537e-09
 32.86185    -25.4 1.434e+04 4.217e-09
 32.87597    -26.0 1.374e+04 3.010e-09
 32.88608    -26.5 1.296e+04 1.874e-09
 32.90065    -26.7 1.275e+04 1.750e-09
 32.91076    -26.6 1.272e+04 1.835e-09
 32.92254    -26.9 1.250e+04 1.683e-09
 32.95298    -27.0 1.248e+04 1.769e-09
 32.99354    -26.7 1.210e+04 1.432e-09
 33.03400    -26.1 1.163e+04 1.030e-09
 33.06233    -25.3 1.129e+04 7.756e-10
 33.07766    -24.9 1.170e+04 1.080e-09
 33.08979    -24.6 1.161e+04 9.736e-10
 33.11492    -23.7 1.143e+04 8.810e-10
 33.15538    -22.7 1.133e+04 8.810e-10
 33.18563    -22.0 1.126e+04 8.358e-10
 33.20576    -20.9 1.130e+04 8.392e-10
 33.22362    -20.5 1.126e+04 8.137e-10
 33.23374    -20.3 1.122e+04 7.217e-10
 33.24622    -19.7 1.118e+04 6.843e-10
 33.26645    -19.0 1.118e+04 6.194e-10
 33.28300    -18.7 1.114e+04 5.727e-10
 33.29312    -18.5 1.124e+04 6.624e-10
 33.31712    -17.7 1.119e+04 5.201e-10
 33.35768    -16.7 1.119e+04 4.312e-10
 33.38530    -15.5 1.112e+04 3.360e-10
 33.40553    -15.0 1.094e+04 2.615e-10
 33.43860    -13.9 1.093e+04 1.719e-10
 33.47660    -12.8 1.095e+04 1.285e-10
 33.49683    -13.1 1.103e+04 1.568e-10
 33.51952    -11.7 1.092e+04 1.430e-10
 33.54679    -10.1 1.085e+04 1.392e-10
 33.56702    -10.1 1.083e+04 1.353e-10
 33.60044     -8.1 1.084e+04 1.472e-10
 33.64090     -5.8 1.085e+04 1.502e-10
 33.68136     -3.6 1.082e+04 1.428e-10
 33.70827     -1.3 1.078e+04 1.243e-10
 33.72850     -0.9 1.076e+04 1.375e-10
 33.76227      1.1 1.073e+04 1.126e-10
 33.80273      3.0 1.060e+04 1.051e-10
 33.84319      5.2 1.054e+04 1.029e-10
 33.86976      7.6 1.053e+04 1.045e-10
 33.88997      7.7 1.046e+04 1.162e-10
 33.92410     10.3 1.047e+04 1.211e-10
 33.96457     12.6 1.043e+04 1.142e-10
 34.00503     14.7 1.035e+04 1.136e-10
 34.03125     16.9 1.036e+04 1.154e-10
 34.05148     17.2 1.032e+04 1.046e-10
 34.08595     19.0 1.028e+04 1.040e-10
 34.12641     20.3 1.047e+04 1.144e-10
 34.16687     21.3 1.050e+04 1.594e-10
 34.19273     22.6 1.055e+04 2.312e-10
 34.21296     23.0 1.053e+04 2.403e-10
 34.24779     24.5 1.060e+04 3.152e-10
 34.28825     25.8 1.057e+04 3.623e-10
 34.31090     27.0 1.050e+04 3.468e-10
 34.33113     27.8 1.051e+04 3.757e-10
 34.35422     29.3 1.039e+04 3.323e-10
 34.37445     29.7 1.038e+04 3.309e-10
 34.40963     30.8 1.028e+04 2.415e-10
 34.45009     31.5 1.016e+04 1.947e-10
 34.49055     32.4 1.015e+04 2.037e-10
 34.51570     32.9 1.022e+04 2.739e-10
 34.53593     33.0 1.032e+04 2.965e-10
 34.57147     34.4 1.040e+04 4.653e-10
 34.61193     36.1 1.054e+04 5.974e-10
 34.65239     37.4 1.054e+04 5.853e-10
 34.67719     38.6 1.043e+04 5.130e-10
 34.69742     38.3 1.030e+04 4.356e-10
 34.71794     39.2 1.008e+04 3.529e-10
 34.73817     39.5 1.004e+04 3.251e-10
 34.77376     40.6 9.850e+03 3.015e-10
 34.81422     41.9 9.769e+03 3.000e-10
 34.83868     43.4 9.726e+03 2.992e-10
 34.85891     43.2 9.442e+03 1.581e-10
 34.89514     44.5 9.390e+03 1.514e-10
 34.93560     45.8 9.292e+03 1.412e-10
 34.97606     47.0 9.216e+03 1.265e-10
 35.00016     48.2 9.120e+03 1.130e-10
 35.02039     48.5 8.893e+03 7.739e-11
 35.05698     50.0 8.901e+03 7.564e-11
 35.09744     51.3 8.950e+03 8.097e-11
 35.12498     52.4 9.094e+03 1.141e-10
 35.14521     52.9 9.103e+03 1.171e-10
 35.16165     54.5 9.610e+03 2.343e-10
 35.18188     54.7 9.328e+03 1.413e-10
 35.21882     55.7 9.800e+03 2.397e-10
 35.24229     55.2 1.001e+04 2.966e-10
 35.25231     55.4 9.968e+03 2.655e-10
 35.26920     55.6 1.006e+04 3.022e-10
 35.28943     55.6 1.037e+04 4.156e-10
 35.30966     55.3 1.091e+04 6.462e-10
 35.32294     55.0 1.146e+04 1.015e-09
 35.33147     55.5 1.101e+04 7.045e-10
 35.33841     55.9 1.118e+04 7.702e-10
 35.35012     55.8 1.162e+04 1.112e-09
 35.37035     55.9 1.191e+04 1.458e-09
 35.39058     56.1 1.208e+04 1.689e-09
 35.40368     56.2 1.218e+04 1.769e-09
 35.41380     56.3 1.190e+04 1.405e-09
 35.43104     56.1 1.205e+04 1.517e-09
 35.45127     55.9 1.221e+04 1.610e-09
 35.47150     55.5 1.237e+04 1.703e-09
 35.48443     55.2 1.245e+04 1.773e-09
 35.50475     55.4 1.218e+04 1.406e-09
 35.53192     55.0 1.212e+04 1.419e-09
 35.54193     54.9 1.245e+04 1.648e-09
 35.55242     55.0 1.221e+04 1.510e-09
 35.56517     55.0 1.197e+04 1.329e-09
 35.57528     55.4 1.168e+04 1.046e-09
 35.59288     55.4 1.144e+04 8.846e-10
 35.61311     55.4 1.139e+04 8.547e-10
 35.63334     55.9 1.138e+04 8.610e-10
 35.64601     55.6 1.192e+04 1.228e-09
 35.66634     56.2 1.134e+04 7.597e-10
 35.70434     56.5 1.171e+04 1.014e-09
 35.74480     57.0 1.232e+04 1.558e-09
 35.78525     57.7 1.262e+04 1.837e-09
 35.80759     58.5 1.247e+04 1.707e-09
 35.82782     59.6 1.215e+04 1.465e-09
 35.86617     60.8 1.189e+04 1.243e-09
 35.90663     62.2 1.148e+04 8.910e-10
 35.93905     63.4 1.105e+04 5.502e-10
 35.95928     62.8 1.081e+04 4.482e-10
 35.96908     64.1 1.044e+04 3.192e-10
 35.98931     65.6 1.079e+04 4.702e-10
 36.02801     67.2 1.058e+04 3.908e-10
 36.06847     68.9 1.047e+04 3.674e-10
 36.10893     70.7 1.044e+04 3.666e-10
 36.13056     72.6 1.043e+04 3.681e-10
 36.15079     73.5 1.047e+04 3.803e-10
 36.18985     75.2 1.041e+04 3.597e-10
 36.23031     76.9 1.032e+04 3.284e-10
 36.27077     78.6 1.027e+04 3.035e-10
 36.29205     80.1 1.029e+04 3.043e-10
 36.31228     81.2 1.030e+04 3.102e-10
 36.34609     82.6 1.039e+04 3.224e-10
 36.36632     82.5 1.028e+04 2.980e-10
 36.39215     83.6 1.041e+04 3.271e-10
 36.43261     84.8 1.047e+04 3.519e-10
 36.45344     85.8 1.048e+04 3.404e-10
 36.47367     87.0 1.054e+04 3.534e-10
 36.50332     87.7 1.049e+04 3.234e-10
 36.52345     88.2 1.047e+04 3.093e-10
 36.53408     88.9 1.045e+04 2.991e-10
 36.54420     89.0 1.046e+04 2.990e-10
 36.55952     89.9 1.044e+04 2.973e-10
 36.56964     89.9 1.040e+04 3.278e-10
 36.58414     89.8 1.056e+04 3.439e-10
 36.60437     88.3 1.232e+04 4.691e-10
 36.61483     84.9 1.501e+04 1.276e-09
 36.62494     88.2 1.320e+04 6.157e-10
 36.64483     84.7 1.663e+04 2.345e-09
 36.66506     83.0 1.840e+04 8.768e-09
 36.68529     82.2 1.973e+04 2.437e-08
 36.69552     81.7 2.010e+04 3.424e-08
 36.70564     83.0 1.931e+04 2.178e-08
 36.72575     82.8 1.966e+04 2.837e-08
 36.74598     82.0 1.949e+04 2.372e-08
 36.76304     80.8 1.888e+04 1.587e-08
 36.77315     79.2 1.855e+04 1.315e-08
 36.78643     78.6 1.724e+04 9.086e-09
 36.80666     77.3 1.636e+04 7.057e-09
 36.82689     76.4 1.561e+04 5.771e-09
 36.84694     76.0 1.511e+04 5.038e-09
 36.85706     77.3 1.487e+04 4.307e-09
 36.86735     77.0 1.463e+04 4.101e-09
 36.88758     76.7 1.464e+04 4.169e-09
 36.90781     76.2 1.477e+04 4.515e-09
 36.92768     75.7 1.506e+04 5.319e-09
 36.93780     76.7 1.492e+04 4.726e-09
 36.94827     76.3 1.527e+04 6.020e-09
 36.96656     76.4 1.530e+04 6.449e-09
 36.97668     75.7 1.517e+04 6.264e-09
 36.98873     76.2 1.489e+04 5.895e-09
 37.00843     77.1 1.416e+04 4.325e-09
 37.01854     77.5 1.433e+04 4.968e-09
 37.02919     78.1 1.360e+04 3.234e-09
 37.04942     78.0 1.287e+04 1.761e-09
 37.06965     76.8 1.208e+04 9.184e-10
 37.08917     75.4 1.111e+04 5.186e-10
 37.09929     77.0 1.149e+04 6.576e-10
 37.11011     75.9 1.061e+04 4.044e-10
 37.13034     75.6 1.014e+04 3.155e-10
 37.15057     75.6 1.019e+04 3.220e-10
 37.16991     75.7 1.019e+04 3.227e-10
 37.17931     76.4 1.016e+04 3.302e-10
 37.18019     75.9 1.015e+04 3.385e-10
 37.19103     76.3 1.014e+04 3.457e-10
 37.21126     76.6 1.016e+04 3.564e-10
 37.23149     77.1 1.022e+04 3.879e-10
 37.25066     77.5 1.034e+04 4.373e-10
 37.26077     78.5 1.035e+04 4.471e-10
 37.27195     78.9 1.052e+04 5.056e-10
 37.29218     79.0 1.071e+04 5.866e-10
 37.31241     79.1 1.091e+04 7.010e-10
 37.33140     79.1 1.116e+04 8.661e-10
 37.34151     79.9 1.119e+04 8.682e-10
 37.35287     79.6 1.160e+04 1.130e-09
 37.37310     78.9 1.213e+04 1.564e-09
 37.38371     78.1 1.273e+04 2.245e-09
 37.39383     77.5 1.290e+04 2.589e-09
 37.41214     77.2 1.352e+04 3.627e-09
 37.42226     77.9 1.344e+04 3.548e-09
 37.43379     77.7 1.374e+04 3.674e-09
 37.45402     77.1 1.380e+04 3.422e-09
 37.47425     75.4 1.382e+04 2.621e-09
 37.49289     72.4 1.412e+04 2.441e-09
 37.50300     72.0 1.342e+04 1.950e-09
 37.51471     67.7 1.412e+04 2.303e-09
 37.53494     62.6 1.593e+04 4.207e-09
 37.55517     60.2 1.657e+04 8.004e-09
 37.57363     59.8 1.633e+04 9.943e-09
 37.58374     60.6 1.612e+04 7.576e-09
 37.58723     60.0 1.585e+04 7.671e-09
 37.59735     59.3 1.617e+04 9.016e-09
 37.61586     58.4 1.578e+04 7.290e-09
 37.63609     57.0 1.540e+04 6.004e-09
 37.65437     55.8 1.513e+04 4.544e-09
 37.66449     56.0 1.515e+04 5.595e-09
 37.67655     55.5 1.504e+04 4.795e-09
 37.69678     55.1 1.448e+04 3.760e-09
 37.71701     54.9 1.390e+04 2.850e-09
 37.73511     54.6 1.348e+04 2.230e-09
 37.74523     55.2 1.374e+04 2.422e-09
 37.75747     54.4 1.336e+04 1.830e-09
 37.77770     53.8 1.302e+04 1.572e-09
 37.79075     53.7 1.277e+04 1.458e-09
 37.80086     53.2 1.280e+04 1.731e-09
 37.81586     53.4 1.269e+04 1.659e-09
 37.82597     53.3 1.255e+04 1.570e-09
 37.83838     53.5 1.264e+04 1.525e-09
 37.85861     53.7 1.272e+04 1.536e-09
 37.87884     53.3 1.298e+04 1.695e-09
 37.89660     53.2 1.307e+04 1.955e-09
 37.90672     53.4 1.299e+04 1.740e-09
 37.92952     53.8 1.315e+04 2.142e-09
 37.97007     54.5 1.290e+04 2.279e-09
 37.99446     56.2 1.224e+04 1.723e-09
 38.01469     55.1 1.196e+04 1.524e-09
 38.04817     55.6 1.122e+04 8.521e-10
 38.06840     55.3 1.116e+04 7.959e-10
 38.09145     55.7 1.065e+04 6.004e-10
 38.13191     57.1 1.049e+04 5.822e-10
 38.17237     59.1 1.042e+04 5.938e-10
 38.20965     61.4 1.037e+04 5.846e-10
 38.22988     61.5 1.030e+04 5.507e-10
 38.25329     63.8 1.024e+04 5.147e-10
 38.29375     65.7 1.020e+04 4.546e-10
 38.33421     67.4 1.021e+04 4.418e-10
 38.37114     69.0 1.025e+04 4.560e-10
 38.39137     69.5 1.015e+04 4.315e-10
 38.40150     70.9 1.030e+04 4.912e-10
 38.42173     69.7 1.015e+04 4.551e-10
 38.45559     71.3 1.028e+04 4.971e-10
 38.49605     72.8 1.026e+04 4.861e-10
 38.53262     74.3 1.016e+04 4.316e-10
 38.55285     74.8 1.007e+04 4.084e-10
 38.57697     76.3 9.947e+03 3.459e-10
 38.61743     77.8 9.825e+03 2.812e-10
 38.65789     79.4 9.720e+03 2.213e-10
 38.69411     81.1 9.614e+03 1.695e-10
 38.71434     81.9 9.642e+03 1.892e-10
 38.73881     83.7 9.579e+03 1.472e-10
 38.77927     85.5 9.538e+03 1.188e-10
 38.80853     87.4 9.540e+03 1.040e-10
 38.82876     86.9 9.568e+03 1.157e-10
 38.85560     89.0 9.677e+03 1.070e-10
 38.87583     89.7 9.658e+03 1.148e-10
 38.90064     91.9 9.756e+03 1.107e-10
 38.94110     94.1 9.815e+03 1.119e-10
 38.98156     96.1 9.999e+03 1.194e-10
 39.01708     98.1 1.023e+04 1.498e-10
 39.03731     99.0 1.014e+04 1.259e-10
 39.06248    100.9 1.032e+04 1.667e-10
 39.10294    102.8 1.053e+04 2.526e-10
 39.14340    104.6 1.092e+04 4.162e-10
 39.17857    106.4 1.152e+04 7.061e-10
 39.19880    107.2 1.114e+04 5.468e-10
 39.21557    109.0 1.192e+04 9.683e-10
 39.23580    107.9 1.199e+04 9.882e-10
 39.26478    109.2 1.275e+04 1.547e-09
 39.30524    110.0 1.349e+04 2.197e-09
 39.34005    110.9 1.389e+04 2.550e-09
 39.36028    111.3 1.328e+04 1.922e-09
 39.37595    111.6 1.342e+04 1.942e-09
 39.39608    111.8 1.348e+04 1.966e-09
 39.42652    112.7 1.302e+04 1.449e-09
 39.46708    113.5 1.257e+04 9.387e-10
 39.50154    114.0 1.205e+04 6.175e-10
 39.52177    114.6 1.178e+04 6.017e-10
 39.54800    115.3 1.175e+04 5.625e-10
 39.58846    116.0 1.185e+04 5.729e-10
 39.62261    116.6 1.199e+04 6.135e-10
 39.64284    116.3 1.187e+04 5.842e-10
 39.66303    117.0 1.190e+04 5.986e-10
 39.68326    117.7 1.200e+04 6.954e-10
 39.70984    118.3 1.206e+04 7.290e-10
 39.75030    119.1 1.214e+04 7.849e-10
 39.79076    120.0 1.223e+04 8.731e-10
 39.82451    121.0 1.231e+04 9.934e-10
 39.84474    121.1 1.252e+04 1.179e-09
 39.87168    121.8 1.256e+04 1.216e-09
 39.91213    122.4 1.252e+04 1.204e-09
 39.95259    123.1 1.242e+04 1.151e-09
 39.98600    123.6 1.230e+04 1.057e-09
 40.00623    123.3 1.195e+04 7.579e-10
 40.02964    123.7 1.176e+04 6.003e-10
 40.04987    122.4 1.164e+04 4.991e-10
 40.07397    123.1 1.154e+04 4.996e-10
 40.11443    124.1 1.150e+04 5.161e-10
 40.14748    125.4 1.150e+04 5.187e-10
 40.16771    125.4 1.103e+04 3.227e-10
 40.19535    126.8 1.111e+04 3.268e-10
 40.23581    128.4 1.112e+04 3.061e-10
 40.27627    129.9 1.114e+04 2.661e-10
 40.30897    131.5 1.116e+04 2.334e-10
 40.32920    131.6 1.071e+04 2.212e-10
 40.35719    133.3 1.074e+04 2.201e-10
 40.39765    134.9 1.083e+04 2.214e-10
 40.43668    136.5 1.086e+04 2.204e-10
 40.45691    136.0 1.067e+04 2.622e-10
 40.47046    137.9 1.060e+04 2.454e-10
 40.49069    138.7 1.065e+04 2.916e-10
 40.51903    140.6 1.063e+04 2.655e-10
 40.55949    142.5 1.058e+04 2.218e-10
 40.59995    144.3 1.049e+04 1.876e-10
 40.63194    146.2 1.048e+04 1.839e-10
 40.65217    146.7 1.083e+04 2.605e-10
 40.68087    148.6 1.084e+04 2.645e-10
 40.72133    150.5 1.089e+04 2.829e-10
 40.76179    152.3 1.097e+04 3.212e-10
 40.79343    154.2 1.102e+04 3.685e-10
 40.81356    154.2 1.118e+04 4.158e-10
 40.83240    155.5 1.118e+04 4.414e-10
 40.85263    156.1 1.119e+04 4.587e-10
 40.86375    157.3 1.118e+04 4.723e-10
 40.87387    156.9 1.124e+04 5.020e-10
 40.88409    157.9 1.126e+04 5.026e-10
 40.89421    158.2 1.161e+04 7.325e-10
 40.91331    159.2 1.165e+04 7.401e-10
 40.93354    160.0 1.170e+04 7.497e-10
 40.95377    160.8 1.175e+04 7.635e-10
 40.96483    161.7 1.179e+04 7.774e-10
 40.97495    161.4 1.241e+04 1.345e-09
 40.99423    162.1 1.247e+04 1.383e-09
 41.01446    162.9 1.249e+04 1.386e-09
 41.03469    163.7 1.249e+04 1.376e-09
 41.04558    164.5 1.247e+04 1.339e-09
 41.05569    164.2 1.328e+04 2.371e-09
 41.06727    164.8 1.333e+04 2.344e-09
 41.07739    164.3 1.382e+04 3.190e-09
 41.09538    164.8 1.395e+04 3.237e-09
 41.11561    165.2 1.413e+04 3.394e-09
 41.12632    165.5 1.437e+04 3.717e-09
 41.13644    164.5 1.522e+04 6.325e-09
 41.15607    164.8 1.554e+04 7.440e-09
 41.17630    165.3 1.588e+04 8.767e-09
 41.19653    165.8 1.612e+04 9.837e-09
 41.20706    166.1 1.614e+04 9.968e-09
 41.21718    165.1 1.650e+04 1.116e-08
 41.23699    165.4 1.628e+04 9.996e-09
 41.25722    165.9 1.582e+04 8.100e-09
 41.27079    166.5 1.534e+04 6.247e-09
 41.28090    165.7 1.499e+04 4.733e-09
 41.28781    165.5 1.453e+04 3.680e-09
 41.29792    163.8 1.421e+04 2.732e-09
 41.31791    163.4 1.365e+04 2.145e-09
 41.33814    163.1 1.314e+04 1.797e-09
 41.35837    162.7 1.279e+04 1.564e-09
 41.37860    160.9 1.217e+04 1.149e-09
 41.40904    161.4 1.222e+04 1.182e-09
 41.43937    161.3 1.209e+04 1.228e-09
 41.45960    158.6 1.150e+04 9.209e-10
 41.49006    159.2 1.146e+04 1.013e-09
 41.53052    160.3 1.150e+04 1.148e-09
 41.57098    161.6 1.156e+04 1.227e-09
 41.60086    163.1 1.151e+04 1.205e-09
 41.62109    162.4 1.146e+04 1.120e-09
 41.65190    163.8 1.137e+04 1.063e-09
 41.67802    165.3 1.113e+04 8.930e-10
 41.68740    164.5 1.098e+04 8.145e-10
 41.69152    164.2 1.096e+04 7.869e-10
 41.70228    165.0 1.089e+04 7.613e-10
 41.72251    165.8 1.082e+04 7.290e-10
 41.74274    166.6 1.075e+04 6.889e-10
 41.76215    167.3 1.069e+04 6.594e-10
 41.77226    167.0 1.080e+04 7.050e-10
 41.78320    167.7 1.082e+04 7.097e-10
 41.80343    168.3 1.085e+04 7.273e-10
 41.82366    169.0 1.092e+04 7.595e-10
 41.84289    169.6 1.102e+04 8.084e-10
 41.85301    169.3 1.122e+04 9.334e-10
 41.86412    169.9 1.135e+04 1.025e-09
 41.88134    170.4 1.148e+04 1.140e-09
 41.89146    169.5 1.174e+04 1.579e-09
 41.90457    170.0 1.191e+04 1.794e-09
 41.92364    170.7 1.213e+04 2.024e-09
 41.93375    170.3 1.243e+04 2.402e-09
 41.94503    170.7 1.260e+04 2.600e-09
 41.96526    171.3 1.279e+04 2.760e-09
 41.98549    171.7 1.295e+04 2.845e-09
 42.01594    173.0 1.314e+04 3.070e-09
 42.05649    173.6 1.323e+04 3.109e-09
 42.08506    174.0 1.317e+04 2.910e-09
 42.09365    171.8 1.225e+04 1.530e-09
 42.10555    170.4 1.191e+04 1.157e-09
 42.13741    170.6 1.148e+04 8.093e-10
 42.17787    170.9 1.105e+04 5.655e-10
 42.21833    171.5 1.071e+04 4.269e-10
 42.24680    172.3 1.052e+04 3.621e-10
 42.26703    171.6 1.040e+04 2.999e-10
 42.29925    172.7 1.033e+04 2.660e-10
 42.33971    173.9 1.033e+04 2.632e-10
 42.38017    175.2 1.034e+04 2.653e-10
 42.40829    176.5 1.037e+04 2.695e-10
 42.42852    176.3 1.029e+04 2.428e-10
 42.46109    177.5 1.039e+04 2.728e-10
 42.49209    178.6 1.050e+04 3.295e-10
 42.51232    178.3 1.067e+04 4.421e-10
 42.54201    179.5 1.088e+04 5.769e-10
 42.56977    180.6 1.112e+04 7.103e-10
 42.59000    180.6 1.112e+04 7.229e-10
 42.62293    181.6 1.137e+04 7.886e-10
 42.66339    182.3 1.142e+04 7.875e-10
 42.70385    182.9 1.145e+04 7.661e-10
 42.73126    183.6 1.147e+04 7.223e-10
 42.75149    183.8 1.142e+04 6.932e-10
 42.78477    184.7 1.144e+04 6.412e-10
 42.82523    185.7 1.147e+04 6.042e-10
 42.86569    186.9 1.150e+04 5.701e-10
 42.89275    188.2 1.152e+04 5.248e-10
 42.90596    188.6 1.149e+04 5.217e-10
 42.91936    189.1 1.158e+04 5.857e-10
 42.94661    190.5 1.164e+04 5.998e-10
 42.98706    192.0 1.166e+04 5.812e-10
 43.02752    193.6 1.163e+04 5.237e-10
 43.05423    195.3 1.160e+04 4.359e-10
 43.07446    195.9 1.156e+04 4.600e-10
 43.10844    197.7 1.155e+04 3.949e-10
 43.14890    199.5 1.150e+04 3.329e-10
 43.18936    201.3 1.142e+04 3.035e-10
 43.21572    203.2 1.141e+04 3.041e-10
 43.23595    203.7 1.148e+04 3.486e-10
 43.27028    205.4 1.150e+04 3.551e-10
 43.30617    206.9 1.157e+04 3.912e-10
 43.32640    207.8 1.167e+04 4.696e-10
 43.35120    209.3 1.179e+04 5.548e-10
 43.37720    210.8 1.197e+04 6.902e-10
 43.39743    210.7 1.191e+04 5.930e-10
 43.43212    212.1 1.197e+04 6.677e-10
 43.47258    213.5 1.197e+04 7.110e-10
 43.51304    214.9 1.193e+04 7.273e-10
 43.53869    216.4 1.189e+04 7.362e-10
 43.55892    217.0 1.168e+04 5.793e-10
 43.59396    218.7 1.172e+04 6.498e-10
 43.63442    220.4 1.179e+04 7.176e-10
 43.67488    222.0 1.187e+04 7.650e-10
 43.70018    223.5 1.189e+04 7.572e-10
 43.71827    224.3 1.185e+04 7.923e-10
 43.73343    225.0 1.175e+04 6.665e-10
 43.75580    226.6 1.173e+04 6.799e-10
 43.79626    228.1 1.171e+04 6.831e-10
 43.83672    229.8 1.169e+04 6.733e-10
 43.86166    231.4 1.170e+04 6.691e-10
 43.88189    232.1 1.173e+04 7.215e-10
 43.91764    233.5 1.184e+04 7.658e-10
 43.95810    234.7 1.200e+04 8.391e-10
 43.99855    235.6 1.220e+04 9.014e-10
 44.02315    236.3 1.228e+04 8.956e-10
 44.04338    236.5 1.237e+04 1.026e-09
 44.07947    236.8 1.245e+04 9.231e-10
 44.11993    236.9 1.242e+04 6.930e-10
 44.14047    236.6 1.230e+04 4.721e-10
 44.16070    238.5 1.270e+04 9.765e-10
 44.18463    238.0 1.251e+04 6.544e-10
 44.20486    237.6 1.261e+04 6.994e-10
 44.24131    236.1 1.217e+04 4.712e-10
 44.28177    234.3 1.196e+04 4.482e-10
 44.32223    232.6 1.194e+04 4.647e-10
 44.34612    231.1 1.199e+04 5.543e-10
 44.36635    229.4 1.203e+04 5.461e-10
 44.40315    227.8 1.216e+04 6.325e-10
 44.44361    225.9 1.226e+04 6.544e-10
 44.48407    223.9 1.225e+04 6.345e-10
 44.50761    221.9 1.216e+04 5.533e-10
 44.52784    220.5 1.203e+04 4.319e-10
 44.54751    218.9 1.183e+04 3.183e-10
 44.56774    219.6 1.172e+04 3.184e-10
 44.60545    218.3 1.154e+04 2.325e-10
 44.64591    217.3 1.128e+04 1.654e-10
 44.66909    217.0 1.097e+04 1.405e-10
 44.68932    216.7 1.097e+04 1.384e-10
 44.72683    216.8 1.094e+04 1.373e-10
 44.76729    217.0 1.093e+04 1.420e-10
 44.80775    216.9 1.095e+04 1.702e-10
 44.83058    216.7 1.108e+04 2.390e-10
 44.85081    216.6 1.121e+04 2.701e-10
 44.88867    215.8 1.169e+04 4.590e-10
 44.92913    213.8 1.247e+04 8.409e-10
 44.95454    210.5 1.333e+04 1.354e-09
 44.97477    212.8 1.338e+04 1.414e-09
 44.99206    208.5 1.391e+04 1.462e-09
 45.01229    206.7 1.393e+04 1.452e-09
 45.05050    201.6 1.382e+04 1.284e-09
 45.09096    197.7 1.327e+04 9.315e-10
 45.13142    194.7 1.260e+04 5.976e-10
 45.15355    192.5 1.208e+04 3.726e-10
 45.17378    191.0 1.197e+04 3.852e-10
 45.21234    189.6 1.189e+04 3.192e-10
 45.25280    188.4 1.189e+04 3.193e-10
 45.29326    187.4 1.192e+04 3.454e-10
 45.31504    186.6 1.196e+04 3.992e-10
 45.32505    186.0 1.203e+04 4.192e-10
 45.34364    186.1 1.207e+04 4.464e-10
 45.36138    186.2 1.214e+04 5.095e-10
 45.37150    186.9 1.205e+04 4.723e-10
 45.38410    186.8 1.214e+04 5.494e-10
 45.39558    186.6 1.230e+04 6.292e-10
 45.40570    186.0 1.236e+04 6.005e-10
 45.42456    185.3 1.273e+04 6.788e-10
 45.44479    183.4 1.352e+04 9.340e-10
 45.46502    180.7 1.456e+04 1.644e-09
 45.47633    178.3 1.537e+04 3.165e-09
 45.48644    177.3 1.526e+04 3.175e-09
 45.50548    175.8 1.560e+04 4.644e-09
 45.52571    174.3 1.561e+04 4.719e-09
 45.54594    173.0 1.541e+04 4.234e-09
 45.55707    172.2 1.472e+04 2.498e-09
 45.56592    171.9 1.438e+04 1.821e-09
 45.57502    171.6 1.418e+04 1.673e-09
 45.58640    170.6 1.358e+04 8.900e-10
 45.61684    169.5 1.269e+04 2.521e-10
 45.63801    165.5 1.084e+04 3.806e-11
 45.65824    164.2 1.053e+04 3.503e-11
 45.69786    163.5 1.020e+04 3.208e-11
 45.73832    164.2 1.013e+04 3.160e-11
 45.76862    165.9 1.012e+04 3.191e-11
 45.78884    166.2 1.020e+04 3.650e-11
 45.79949    168.0 1.018e+04 3.987e-11
 45.81972    168.1 1.017e+04 4.047e-11
 45.85970    169.6 1.021e+04 4.746e-11
 45.90016    171.0 1.026e+04 5.709e-11
 45.94062    172.2 1.031e+04 6.978e-11
 45.98108    173.1 1.035e+04 7.716e-11
 46.02154    173.9 1.038e+04 9.309e-11
 46.06199    174.6 1.042e+04 1.158e-10
 46.10224    175.2 1.048e+04 1.472e-10
 46.12247    174.9 1.044e+04 1.166e-10
 46.14291    175.5 1.049e+04 1.399e-10
 46.17565    175.9 1.052e+04 1.603e-10
 46.19588    175.8 1.061e+04 1.572e-10
 46.22383    176.2 1.057e+04 1.616e-10
 46.26372    176.6 1.054e+04 1.637e-10
 46.28395    176.3 1.040e+04 1.207e-10
 46.30475    176.8 1.036e+04 1.338e-10
 46.34521    177.3 1.037e+04 1.559e-10
 46.38567    177.8 1.042e+04 1.847e-10
 46.42521    178.2 1.048e+04 2.155e-10
 46.44544    177.8 1.041e+04 2.100e-10
 46.46659    178.2 1.048e+04 2.450e-10
 46.50705    178.4 1.057e+04 2.810e-10
 46.54751    178.5 1.069e+04 3.125e-10
 46.58269    178.3 1.079e+04 3.187e-10
 46.60164    177.7 1.084e+04 3.270e-10
 46.60692    177.3 1.078e+04 3.189e-10
 46.62843    177.0 1.075e+04 2.916e-10
 46.66889    176.8 1.067e+04 2.340e-10
 46.70935    176.4 1.055e+04 1.738e-10
 46.74818    175.9 1.044e+04 1.400e-10
 46.76841    175.9 1.036e+04 1.395e-10
 46.79027    175.6 1.036e+04 1.404e-10
 46.83073    175.1 1.040e+04 1.509e-10
 46.87119    174.7 1.052e+04 1.841e-10
 46.90967    174.1 1.067e+04 2.375e-10
 46.92990    174.5 1.078e+04 2.618e-10
 46.95211    173.9 1.095e+04 3.274e-10
 46.98972    173.2 1.106e+04 3.786e-10
 47.00995    171.8 1.110e+04 3.803e-10
 47.03303    170.6 1.109e+04 3.818e-10
 47.07115    169.3 1.102e+04 3.712e-10
 47.09138    170.1 1.107e+04 3.911e-10
 47.11394    169.3 1.079e+04 3.385e-10
 47.15440    169.0 1.047e+04 2.560e-10
 47.19486    168.9 1.019e+04 1.739e-10
 47.23264    168.9 9.974e+03 1.133e-10
 47.25287    169.7 1.000e+04 1.215e-10
 47.27578    169.8 9.753e+03 8.766e-11
 47.31624    170.3 9.609e+03 8.447e-11
 47.35670    171.2 9.590e+03 8.557e-11
 47.39412    172.3 9.536e+03 9.257e-11
 47.41395    172.8 9.541e+03 9.506e-11
 47.41699    172.3 9.580e+03 8.149e-11
 47.43762    173.5 9.576e+03 9.752e-11
 47.47808    174.6 9.615e+03 1.184e-10
 47.51854    175.7 9.738e+03 1.460e-10
 47.55561    176.5 9.985e+03 1.881e-10
 47.57584    176.8 9.910e+03 1.994e-10
 47.59946    177.5 1.025e+04 2.712e-10
 47.63992    177.6 1.055e+04 3.806e-10
 47.68038    177.4 1.074e+04 5.166e-10
 47.71710    177.0 1.084e+04 6.054e-10
 47.73733    177.7 1.097e+04 6.414e-10
 47.76130    176.9 1.097e+04 6.418e-10
 47.80176    175.4 1.090e+04 6.146e-10
 47.82403    173.5 1.071e+04 5.369e-10
 47.84426    171.7 1.064e+04 4.992e-10
 47.87858    169.9 1.034e+04 4.318e-10
 47.89881    169.9 1.061e+04 4.964e-10
 47.92314    168.1 1.024e+04 4.121e-10
 47.96360    166.6 9.871e+03 3.259e-10
 48.00406    165.5 9.516e+03 2.469e-10
 48.04007    164.4 9.194e+03 1.900e-10
 48.06030    163.7 9.443e+03 2.595e-10
 48.08498    162.5 9.491e+03 2.730e-10
 48.12543    161.0 9.776e+03 3.385e-10
 48.16589    159.1 1.025e+04 4.705e-10
 48.20155    157.0 1.063e+04 6.285e-10
 48.22178    155.1 1.122e+04 9.238e-10
 48.23106    152.9 1.111e+04 8.419e-10
 48.25129    152.3 1.110e+04 8.164e-10
 48.28727    149.9 1.074e+04 6.161e-10
 48.32773    147.6 1.022e+04 4.073e-10
 48.36304    145.5 9.594e+03 2.699e-10
 48.38327    144.6 9.153e+03 2.270e-10
 48.40865    144.2 8.971e+03 2.150e-10
 48.44911    144.1 8.920e+03 2.139e-10
 48.48957    144.2 8.905e+03 2.161e-10
 48.52453    144.2 8.892e+03 2.163e-10
 48.54476    145.0 8.995e+03 2.323e-10
 48.57049    145.0 8.991e+03 2.351e-10
 48.61095    144.9 8.978e+03 2.334e-10
 48.63810    144.8 8.939e+03 2.256e-10
 48.65833    144.9 9.007e+03 2.424e-10
 48.68601    144.8 8.933e+03 2.230e-10
 48.70624    145.5 9.240e+03 2.840e-10
 48.73233    145.4 9.139e+03 2.559e-10
 48.77279    145.3 8.993e+03 2.189e-10
 48.81325    144.9 8.826e+03 1.844e-10
 48.84750    144.5 8.709e+03 1.589e-10
 48.86773    145.2 8.974e+03 1.911e-10
 48.89417    144.5 8.829e+03 1.584e-10
 48.93463    143.8 8.846e+03 1.570e-10
 48.97509    142.7 8.950e+03 1.655e-10
 49.00898    141.2 9.335e+03 2.196e-10
 49.02921    141.8 9.239e+03 1.949e-10
 49.04504    139.9 9.895e+03 2.970e-10
 49.05506    139.2 1.022e+04 3.499e-10
 49.06593    137.5 1.087e+04 5.816e-10
 49.08615    135.6 1.163e+04 1.061e-09
 49.09965    135.0 1.191e+04 1.373e-09
 49.10976    135.3 1.195e+04 1.370e-09
 49.13683    134.0 1.232e+04 1.665e-09
 49.17047    132.7 1.210e+04 1.484e-09
 49.19070    132.9 1.262e+04 1.861e-09
 49.21784    131.8 1.202e+04 1.231e-09
 49.25830    131.0 1.084e+04 5.439e-10
 49.29876    129.9 9.452e+03 2.077e-10
 49.33196    129.3 9.097e+03 1.443e-10
 49.35219    129.2 9.244e+03 1.667e-10
 49.37968    129.4 9.128e+03 1.617e-10
 49.42014    130.6 9.113e+03 1.633e-10
 49.45217    132.1 9.128e+03 1.753e-10
 49.47240    131.5 9.186e+03 1.866e-10
 49.49344    133.0 9.319e+03 2.055e-10
 49.51367    133.0 9.404e+03 2.101e-10
 49.54152    134.4 9.478e+03 2.177e-10
 49.58198    135.7 9.492e+03 2.162e-10
 49.62244    137.0 9.509e+03 2.054e-10
 49.65493    138.0 9.515e+03 1.880e-10
 49.67516    138.2 9.654e+03 2.207e-10
 49.70336    139.1 9.704e+03 2.208e-10
 49.74382    139.7 9.770e+03 2.263e-10
 49.78428    140.1 9.888e+03 2.460e-10
 49.81641    140.2 1.007e+04 2.924e-10
 49.83664    140.4 1.030e+04 3.729e-10
 49.85921    140.4 1.048e+04 4.433e-10
 49.87944    139.4 1.048e+04 4.559e-10
 49.90566    139.4 1.062e+04 4.848e-10
 49.94612    139.3 1.064e+04 4.777e-10
 49.97790    139.3 1.064e+04 4.389e-10
 49.99813    139.5 1.065e+04 4.132e-10
 50.02704    139.5 1.056e+04 3.453e-10
 50.06750    139.5 1.049e+04 2.827e-10
 50.10796    139.7 1.049e+04 2.527e-10
 50.13939    140.1 1.056e+04 2.489e-10
 50.15962    140.3 1.035e+04 1.848e-10
 50.18887    140.9 1.042e+04 1.776e-10
 50.22933    141.7 1.048e+04 1.818e-10
 50.26625    142.6 1.068e+04 1.975e-10
 50.28648    142.7 1.043e+04 1.411e-10
 50.30087    143.9 1.075e+04 1.674e-10
 50.32110    144.1 1.037e+04 1.119e-10
 50.35071    144.9 1.079e+04 1.499e-10
 50.38096    144.8 1.112e+04 1.843e-10
 50.39154    144.2 1.159e+04 2.581e-10
 50.40165    144.7 1.131e+04 2.113e-10
 50.42132    143.5 1.199e+04 3.650e-10
 50.44155    141.9 1.282e+04 8.298e-10
 50.46178    141.7 1.368e+04 1.923e-09
 50.47228    141.9 1.448e+04 3.646e-09
 50.48007    142.1 1.396e+04 2.491e-09
 50.48980    142.0 1.373e+04 1.779e-09
 50.50224    141.8 1.419e+04 2.604e-09
 50.52247    141.2 1.424e+04 2.784e-09
 50.54270    140.7 1.405e+04 2.481e-09
 50.55302    140.1 1.370e+04 1.971e-09
 50.56314    140.0 1.345e+04 1.748e-09
 50.59337    139.1 1.283e+04 1.060e-09
 50.62384    137.6 1.151e+04 4.348e-10
 50.64407    138.0 1.178e+04 6.495e-10
 50.67328    137.7 1.100e+04 3.854e-10
 50.69351    138.2 1.131e+04 5.499e-10
 50.71485    138.4 1.098e+04 4.321e-10
 50.75531    138.9 1.079e+04 3.607e-10
 50.78533    139.8 1.065e+04 3.090e-10
 50.80556    139.8 1.067e+04 3.047e-10
 50.83623    140.6 1.051e+04 2.666e-10
 50.87669    141.6 1.035e+04 2.570e-10
 50.91715    142.7 1.034e+04 2.576e-10
 50.94682    143.7 1.032e+04 2.617e-10
 50.96705    143.5 1.033e+04 2.588e-10
 50.99807    144.5 1.033e+04 2.708e-10
 51.03853    145.3 1.033e+04 2.799e-10
 51.07899    146.2 1.036e+04 2.843e-10
 51.10055    147.0 1.042e+04 2.917e-10
 51.10964    146.6 1.027e+04 2.598e-10
 51.12853    146.0 1.052e+04 2.902e-10
 51.15991    146.5 1.054e+04 2.895e-10
 51.20036    146.9 1.059e+04 2.959e-10
 51.24082    147.2 1.062e+04 3.111e-10
 51.26969    147.3 1.074e+04 3.597e-10
 51.27971    146.7 1.106e+04 4.788e-10
 51.29120    146.6 1.128e+04 5.811e-10
 51.30387    146.6 1.150e+04 7.021e-10
 51.31399    146.3 1.141e+04 6.958e-10
 51.33166    146.4 1.161e+04 8.313e-10
 51.35034    146.5 1.178e+04 9.492e-10
 51.36045    145.9 1.196e+04 1.040e-09
 51.37212    145.9 1.196e+04 1.040e-09
 51.39235    145.7 1.194e+04 1.014e-09
 51.41258    145.4 1.188e+04 9.707e-10
 51.43108    145.1 1.178e+04 8.903e-10
 51.44119    143.9 1.151e+04 6.803e-10
 51.45304    143.6 1.136e+04 6.159e-10
 51.48348    143.0 1.109e+04 4.732e-10
 51.50759    142.3 1.066e+04 3.536e-10
 51.52782    142.7 1.035e+04 3.115e-10
 51.56450    142.5 9.918e+03 2.308e-10
 51.59276    142.6 9.570e+03 1.840e-10
 51.61299    141.6 9.475e+03 1.806e-10
 51.64542    142.1 9.380e+03 1.702e-10
 51.68588    142.7 9.366e+03 1.696e-10
 51.72634    143.3 9.412e+03 1.736e-10
 51.75425    144.1 9.486e+03 1.812e-10
 51.77448    142.9 9.832e+03 2.412e-10
 51.80726    143.8 9.844e+03 2.395e-10
 51.84772    144.9 9.828e+03 2.361e-10
 51.88818    146.2 9.836e+03 2.391e-10
 51.91462    147.7 9.870e+03 2.450e-10
 51.92195    148.6 9.862e+03 2.496e-10
 51.93596    147.2 9.870e+03 2.519e-10
 51.96910    149.0 9.969e+03 2.674e-10
 52.00956    150.7 1.016e+04 2.945e-10
 52.05002    152.0 1.031e+04 3.254e-10
 52.07712    152.1 1.041e+04 3.626e-10
 52.09735    152.4 1.088e+04 5.423e-10
 52.11804    153.1 1.115e+04 6.728e-10
 52.12806    153.4 1.108e+04 6.563e-10
 52.14086    154.4 1.129e+04 7.790e-10
 52.15777    155.4 1.157e+04 9.450e-10
 52.16788    154.5 1.179e+04 1.012e-09
 52.18131    155.3 1.206e+04 1.167e-09
 52.20154    156.0 1.231e+04 1.346e-09
 52.22177    156.6 1.261e+04 1.552e-09
 52.23851    156.9 1.300e+04 1.801e-09
 52.24862    155.4 1.283e+04 1.535e-09
 52.26223    155.5 1.313e+04 1.763e-09
 52.28246    155.5 1.343e+04 2.074e-09
 52.30269    155.6 1.369e+04 2.468e-09
 52.31925    155.7 1.390e+04 2.900e-09
 52.32791    154.7 1.315e+04 2.238e-09
 52.33158    154.8 1.304e+04 2.027e-09
 52.34315    155.2 1.320e+04 2.400e-09
 52.36338    155.8 1.339e+04 2.768e-09
 52.38361    156.6 1.363e+04 3.116e-09
 52.40000    157.2 1.387e+04 3.355e-09
 52.41011    156.7 1.315e+04 2.201e-09
 52.42407    156.7 1.332e+04 2.124e-09
 52.44430    156.5 1.364e+04 1.996e-09
 52.46453    155.8 1.377e+04 1.984e-09
 52.48074    154.0 1.397e+04 2.023e-09
 52.49085    152.8 1.279e+04 1.088e-09
 52.50499    150.0 1.307e+04 1.318e-09
 52.52498    146.8 1.374e+04 2.143e-09
 52.53510    148.2 1.446e+04 2.820e-09
 52.54545    145.4 1.510e+04 4.432e-09
 52.56148    143.3 1.569e+04 5.988e-09
 52.57160    143.0 1.563e+04 5.489e-09
 52.58591    141.1 1.610e+04 6.078e-09
 52.60614    139.0 1.608e+04 5.812e-09
 52.62637    136.6 1.583e+04 4.517e-09
 52.64222    133.1 1.520e+04 2.765e-09
 52.65234    132.3 1.597e+04 3.550e-09
 52.66683    127.2 1.507e+04 2.423e-09
 52.68706    121.9 1.396e+04 2.062e-09
 52.70729    117.7 1.356e+04 2.046e-09
 52.72297    114.5 1.346e+04 2.027e-09
 52.73308    114.2 1.410e+04 2.726e-09
 52.73861    111.0 1.401e+04 2.602e-09
 52.74873    111.6 1.459e+04 3.324e-09
 52.76798    108.2 1.420e+04 2.579e-09
 52.78821    104.1 1.350e+04 1.763e-09
 52.80371     99.2 1.246e+04 1.028e-09
 52.81383     98.8 1.292e+04 1.222e-09
 52.82867     94.2 1.164e+04 7.206e-10
 52.84890     90.1 1.047e+04 4.652e-10
 52.86913     86.6 9.687e+03 3.483e-10
 52.88455     83.8 9.281e+03 3.046e-10
 52.89467     82.8 9.351e+03 3.694e-10
 52.90959     81.8 9.358e+03 3.727e-10
 52.92982     80.8 9.371e+03 3.919e-10
 52.94213     80.1 9.503e+03 4.431e-10
 52.95225     80.3 9.497e+03 4.463e-10
 52.96520     79.7 9.743e+03 5.452e-10
 52.97531     79.8 9.956e+03 5.926e-10
 52.99051     79.5 1.019e+04 6.846e-10
 53.01074     79.2 1.059e+04 8.169e-10
 53.03097     78.7 1.119e+04 1.006e-09
 53.04594     77.8 1.193e+04 1.284e-09
 53.05605     78.7 1.135e+04 7.488e-10
 53.07143     76.7 1.224e+04 9.266e-10
 53.09166     72.4 1.335e+04 1.437e-09
 53.11189     67.9 1.395e+04 2.504e-09
 53.12668     66.6 1.454e+04 4.295e-09
 53.13680     65.6 1.435e+04 3.734e-09
 53.14565     66.3 1.529e+04 6.446e-09
 53.15577     65.8 1.505e+04 6.050e-09
 53.17258     65.7 1.536e+04 6.425e-09
 53.19280     65.7 1.523e+04 5.663e-09
 53.20743     65.0 1.479e+04 3.623e-09
 53.21754     64.5 1.496e+04 3.652e-09
 53.23326     61.4 1.439e+04 1.822e-09
 53.25349     55.8 1.286e+04 1.081e-09
 53.27372     51.7 1.154e+04 7.618e-10
 53.30417     48.7 1.085e+04 7.425e-10
 53.34472     48.2 1.057e+04 6.890e-10
 53.36911     48.3 1.031e+04 6.020e-10
 53.38934     47.5 1.004e+04 4.877e-10
 53.42564     48.6 9.664e+03 3.596e-10
 53.46610     49.6 9.365e+03 2.445e-10
 53.50656     50.2 9.146e+03 1.651e-10
 53.53059     50.6 8.908e+03 1.444e-10
 53.54657     50.7 8.832e+03 1.354e-10
 53.56300     49.5 8.817e+03 1.394e-10
 53.58748     50.5 8.770e+03 1.520e-10
 53.62794     51.7 8.807e+03 1.791e-10
 53.66840     53.0 8.908e+03 2.023e-10
 53.69208     54.0 9.026e+03 2.076e-10
 53.71231     54.0 9.174e+03 2.320e-10
 53.74932     54.4 9.267e+03 2.415e-10
 53.78978     54.6 9.314e+03 2.566e-10
 53.83024     55.0 9.310e+03 2.705e-10
 53.85356     55.7 9.294e+03 2.707e-10
 53.87379     55.2 9.628e+03 3.526e-10
 53.91116     55.9 9.465e+03 2.888e-10
 53.94980     56.6 9.316e+03 2.448e-10
 53.97003     56.4 9.263e+03 2.362e-10
 53.99208     57.3 9.191e+03 2.262e-10
 54.01505     58.4 9.122e+03 2.257e-10
 54.03528     58.1 9.263e+03 2.706e-10
 54.07300     59.5 9.257e+03 2.612e-10
 54.11346     60.8 9.216e+03 2.382e-10
 54.15392     61.9 9.156e+03 2.157e-10
 54.17654     63.1 9.157e+03 2.134e-10
 54.19677     63.3 9.076e+03 1.940e-10
 54.23484     64.5 9.097e+03 1.992e-10
 54.27529     65.8 9.196e+03 2.194e-10
 54.31575     67.2 9.308e+03 2.385e-10
 54.33802     68.5 9.319e+03 2.357e-10
 54.35825     69.0 9.038e+03 1.772e-10
 54.37707     70.3 8.977e+03 1.613e-10
 54.39730     70.7 8.847e+03 1.531e-10
 54.43713     71.9 8.715e+03 1.157e-10
 54.47759     72.9 8.568e+03 8.303e-11
 54.49951     73.7 8.506e+03 6.909e-11
 54.51974     74.4 8.321e+03 6.927e-11
 54.55851     75.4 8.301e+03 6.832e-11
 54.59897     76.4 8.328e+03 7.049e-11
 54.63943     77.2 8.442e+03 8.074e-11
 54.66099     78.0 8.607e+03 1.135e-10
 54.68122     79.1 8.523e+03 1.082e-10
 54.72035     79.8 8.757e+03 1.573e-10
 54.76081     80.5 9.017e+03 2.259e-10
 54.78411     81.0 9.260e+03 2.821e-10
 54.80434     81.5 9.064e+03 2.446e-10
 54.82248     81.8 9.313e+03 2.991e-10
 54.84271     82.5 9.173e+03 2.586e-10
 54.88219     82.5 9.337e+03 2.834e-10
 54.92265     82.1 9.517e+03 3.027e-10
 54.96311     80.6 9.883e+03 3.548e-10
 54.98397     78.2 1.069e+04 5.751e-10
 55.00420     78.7 1.045e+04 5.436e-10
 55.04403     76.8 1.104e+04 8.868e-10
 55.08449     74.9 1.125e+04 1.021e-09
 55.12495     73.2 1.110e+04 9.380e-10
 55.14545     71.4 1.066e+04 7.262e-10
 55.16568     71.6 1.027e+04 6.002e-10
 55.19114     69.6 1.020e+04 5.870e-10
 55.21137     70.7 9.893e+03 4.850e-10
 55.24633     69.2 1.000e+04 5.260e-10
 55.28671     67.8 1.038e+04 6.766e-10
 55.32717     66.4 1.078e+04 8.405e-10
 55.36770     64.9 1.104e+04 9.221e-10
 55.40816     63.4 1.099e+04 8.963e-10
 55.44820     62.8 1.070e+04 7.602e-10
 55.46842     63.3 1.062e+04 7.122e-10
 55.47887     63.2 1.037e+04 6.162e-10
 55.49900     63.2 1.024e+04 5.639e-10
 55.51923     63.4 1.004e+04 4.737e-10
 55.53886     63.4 9.947e+03 4.312e-10
 55.54897     63.5 9.991e+03 4.380e-10
 55.56990     63.8 9.858e+03 3.916e-10
 55.59818     64.7 9.682e+03 3.864e-10
 55.61763     65.1 9.707e+03 3.507e-10
 55.62981     65.3 9.932e+03 4.224e-10
 55.64061     66.1 9.827e+03 4.207e-10
 55.66084     66.6 9.823e+03 4.226e-10
 55.68107     67.7 9.798e+03 4.387e-10
 55.70034     68.5 9.816e+03 4.570e-10
 55.71046     68.5 1.003e+04 5.319e-10
 55.72153     69.3 1.005e+04 5.490e-10
 55.74176     70.1 1.009e+04 5.687e-10
 55.76199     70.8 1.012e+04 5.898e-10
 55.78109     71.4 1.012e+04 6.036e-10
 55.79120     71.1 1.024e+04 6.329e-10
 55.80150     71.6 1.020e+04 6.272e-10
 55.81162     71.6 1.013e+04 5.960e-10
 55.82268     72.0 1.015e+04 6.128e-10
 55.84291     72.2 1.021e+04 6.355e-10
 55.86183     72.0 1.023e+04 6.507e-10
 55.87194     71.1 1.042e+04 6.955e-10
 55.88337     70.6 1.039e+04 7.067e-10
 55.90360     69.9 1.043e+04 7.209e-10
 55.92383     68.6 1.077e+04 7.771e-10
 55.94257     62.4 1.565e+04 1.234e-09
 55.95269     66.2 1.141e+04 9.286e-10
 55.96429     58.0 1.670e+04 1.955e-09
 55.98452     49.3 1.972e+04 7.343e-09
 56.00475     45.8 1.995e+04 1.728e-08
 56.01509     45.2 2.000e+04 2.211e-08
 56.02010     45.1 1.985e+04 2.070e-08
 56.02828     44.4 2.018e+04 2.512e-08
 56.03338     45.8 1.918e+04 1.975e-08
 56.04521     44.3 2.023e+04 2.374e-08
 56.06544     40.7 2.118e+04 2.328e-08
 56.08567     36.5 2.069e+04 2.043e-08
 56.10406     33.1 1.875e+04 1.715e-08
 56.11417     35.5 1.964e+04 1.038e-08
 56.12613     32.9 1.774e+04 7.568e-09
 56.14636     31.0 1.838e+04 5.265e-09
 56.16659     29.0 2.144e+04 3.178e-09
 56.18480     26.2 2.279e+04 2.020e-09
 56.19492     24.6 1.418e+04 7.887e-10
 56.20705     21.8 1.231e+04 8.405e-10
 56.21865     20.2 1.142e+04 9.466e-10
 56.22877     22.4 1.532e+04 1.706e-09
 56.24751     20.9 1.324e+04 1.809e-09
 56.26554     20.7 1.246e+04 1.912e-09
 56.27566     22.2 1.202e+04 1.409e-09
 56.28796     22.7 1.240e+04 1.722e-09
 56.30819     22.9 1.244e+04 1.859e-09
 56.32842     22.9 1.245e+04 1.842e-09
 56.34629     22.7 1.236e+04 1.781e-09
 56.35640     23.5 1.242e+04 1.795e-09
 56.36888     22.9 1.236e+04 1.668e-09
 56.38911     22.1 1.208e+04 1.482e-09
 56.40934     20.9 1.199e+04 1.333e-09
 56.42217     19.5 1.185e+04 1.230e-09
 56.42975     19.6 1.235e+04 1.430e-09
 56.43715     20.4 1.238e+04 1.449e-09
 56.44980     18.7 1.201e+04 1.305e-09
 56.47003     17.2 1.179e+04 1.236e-09
 56.49026     15.6 1.184e+04 1.150e-09
 56.50777     14.1 1.171e+04 1.112e-09
 56.51789     14.4 1.151e+04 9.763e-10
 56.53072     12.6 1.129e+04 8.966e-10
 56.55095     10.9 1.099e+04 8.398e-10
 56.57118      9.3 1.081e+04 8.068e-10
 56.58852      7.8 1.087e+04 7.997e-10
 56.59873      9.0 1.046e+04 6.036e-10
 56.61174      6.1 1.064e+04 6.663e-10
 56.62569      3.9 1.081e+04 7.022e-10
 56.63581      3.1 1.090e+04 7.236e-10
 56.65210      0.6 1.093e+04 7.408e-10
 56.66926     -1.4 1.098e+04 7.614e-10
 56.67937     -2.6 1.069e+04 6.799e-10
 56.69256     -4.3 1.060e+04 7.017e-10
 56.71279     -5.4 1.067e+04 7.111e-10
 56.73302     -7.2 1.043e+04 5.991e-10
 56.75000     -8.9 1.025e+04 4.963e-10
 56.76012     -9.8 1.004e+04 4.163e-10
 56.78369    -12.6 9.188e+03 2.705e-10
 56.81929    -15.3 8.588e+03 1.948e-10
 56.83952    -17.0 8.619e+03 1.927e-10
 56.86471    -18.6 8.323e+03 1.520e-10
 56.90157    -19.3 8.230e+03 1.306e-10
 56.92180    -20.3 8.243e+03 1.381e-10
 56.94563    -20.3 8.237e+03 1.335e-10
 56.98609    -20.0 8.276e+03 1.403e-10
 57.02655    -19.5 8.362e+03 1.580e-10
 57.06305    -18.6 8.461e+03 1.814e-10
 57.08328    -19.3 8.512e+03 1.909e-10
 57.10747    -18.0 8.508e+03 2.009e-10
 57.14793    -16.5 8.569e+03 2.087e-10
 57.18839    -14.8 8.654e+03 2.102e-10
 57.22454    -13.4 8.770e+03 2.120e-10
 57.24225    -14.2 8.687e+03 1.895e-10
 57.24656    -15.4 8.835e+03 2.339e-10
 57.26931    -14.4 9.096e+03 3.023e-10
 57.30977    -13.1 9.498e+03 4.141e-10
 57.35022    -11.6 1.001e+04 5.677e-10
 57.38603    -10.1 1.050e+04 7.266e-10
 57.40626     -9.6 1.046e+04 7.176e-10
 57.43114     -9.3 1.144e+04 1.015e-09
 57.46139     -8.7 1.188e+04 1.222e-09
 57.47669     -9.9 1.277e+04 1.548e-09
 57.48680    -12.9 1.438e+04 3.005e-09
 57.50175    -13.6 1.543e+04 5.603e-09
 57.52198    -13.3 1.668e+04 8.779e-09
 57.53711    -12.1 1.822e+04 1.446e-08
 57.54648    -12.8 1.863e+04 1.607e-08
 57.55154    -14.1 1.855e+04 1.534e-08
 57.55729    -13.8 1.893e+04 1.746e-08
 57.56740    -12.1 2.001e+04 2.245e-08
 57.58262    -12.1 2.043e+04 2.307e-08
 57.60290    -15.5 1.978e+04 2.135e-08
 57.62313    -17.7 1.920e+04 1.985e-08
 57.63818    -20.1 1.881e+04 1.665e-08
 57.64821    -20.6 1.920e+04 1.547e-08
 57.66351    -23.1 1.782e+04 1.508e-08
 57.68382    -23.5 1.737e+04 1.468e-08
 57.70405    -23.7 1.727e+04 1.399e-08
 57.71892    -24.2 1.744e+04 1.188e-08
 57.72903    -25.2 1.738e+04 1.349e-08
 57.74451    -26.2 1.743e+04 1.275e-08
 57.76474    -26.9 1.746e+04 1.213e-08
 57.78497    -27.1 1.733e+04 1.100e-08
 57.79966    -26.7 1.700e+04 8.862e-09
 57.80978    -26.3 1.664e+04 8.913e-09
 57.82543    -25.6 1.604e+04 6.305e-09
 57.84566    -25.2 1.526e+04 4.043e-09
 57.85692    -25.3 1.420e+04 2.424e-09
 57.86703    -25.1 1.445e+04 2.698e-09
 57.88040    -25.1 1.351e+04 1.682e-09
 57.89052    -25.5 1.310e+04 1.468e-09
 57.91656    -26.0 1.201e+04 9.473e-10
 57.95712    -24.1 1.085e+04 5.533e-10
 57.99758    -22.0 1.028e+04 3.809e-10
 58.03197    -20.2 1.000e+04 2.950e-10
 58.05220    -20.0 9.871e+03 2.985e-10
 58.06063    -18.5 9.725e+03 2.789e-10
 58.08086    -17.9 9.770e+03 2.487e-10
 58.11896    -16.6 9.755e+03 2.419e-10
 58.15942    -16.0 9.840e+03 2.886e-10
 58.19346    -15.9 1.008e+04 4.208e-10
 58.21369    -15.3 1.017e+04 4.681e-10
 58.24034    -15.5 1.094e+04 6.838e-10
 58.28080    -19.7 1.272e+04 1.182e-09
 58.31104    -22.6 1.347e+04 1.700e-09
 58.33117    -25.1 1.378e+04 2.326e-09
 58.35140    -26.5 1.371e+04 2.607e-09
 58.36486    -27.3 1.340e+04 2.553e-09
 58.37498    -26.4 1.371e+04 2.791e-09
 58.39186    -27.3 1.342e+04 2.399e-09
 58.41209    -29.1 1.303e+04 1.650e-09
 58.43232    -31.6 1.225e+04 1.130e-09
 58.44561    -33.2 1.149e+04 9.136e-10
 58.45572    -31.9 1.209e+04 1.204e-09
 58.46747    -32.9 1.153e+04 1.041e-09
 58.47759    -32.4 1.163e+04 1.052e-09
 58.49301    -32.7 1.137e+04 9.484e-10
 58.51324    -32.6 1.116e+04 8.475e-10
 58.52635    -32.6 1.087e+04 7.197e-10
 58.53646    -32.0 1.103e+04 7.378e-10
 58.56392    -31.5 1.068e+04 5.854e-10
 58.60447    -30.5 9.873e+03 3.467e-10
 58.64493    -29.2 9.444e+03 2.210e-10
 58.67791    -27.8 9.144e+03 1.496e-10
 58.69814    -27.6 9.132e+03 1.510e-10
 58.72585    -26.0 8.971e+03 1.147e-10
 58.76631    -24.2 8.859e+03 9.656e-11
 58.80677    -22.2 8.810e+03 8.867e-11
 58.83940    -20.1 8.840e+03 8.703e-11
 58.85963    -19.7 8.798e+03 8.457e-11
 58.87470    -17.6 8.852e+03 8.447e-11
 58.89493    -16.8 8.908e+03 8.740e-11
 58.92815    -14.9 9.108e+03 9.899e-11
 58.96861    -12.8 9.297e+03 1.195e-10
 59.00089    -10.4 9.444e+03 1.491e-10
 59.02112    -10.4 9.278e+03 1.266e-10
 59.04953     -8.2 9.377e+03 1.461e-10
 59.08999     -6.1 9.572e+03 1.739e-10
 59.13045     -5.0 1.027e+04 2.435e-10
 59.16237     -7.0 1.261e+04 5.344e-10
 59.18260     -5.8 1.082e+04 2.773e-10
 59.20115     -9.0 1.278e+04 6.102e-10
 59.22129    -10.2 1.353e+04 9.969e-10
 59.24152    -10.5 1.470e+04 1.876e-09
 59.25304    -11.5 1.578e+04 2.658e-09
 59.26315    -11.8 1.276e+04 1.076e-09
 59.28154    -13.5 1.343e+04 1.226e-09
 59.29166    -12.5 1.272e+04 1.318e-09
 59.30221    -15.6 1.344e+04 1.217e-09
 59.32244    -18.4 1.315e+04 1.095e-09
 59.33378    -20.1 1.223e+04 1.074e-09
 59.34389    -19.3 1.120e+04 6.459e-10
 59.36289    -19.5 1.120e+04 6.949e-10
 59.38312    -19.2 1.130e+04 7.817e-10
 59.40335    -18.7 1.137e+04 8.302e-10
 59.41452    -18.3 1.147e+04 8.554e-10
 59.42464    -18.6 1.079e+04 5.603e-10
 59.44381    -19.1 1.079e+04 5.626e-10
 59.46404    -19.9 1.088e+04 5.712e-10
 59.48427    -20.9 1.100e+04 6.550e-10
 59.49518    -22.7 1.125e+04 9.873e-10
 59.50529    -23.0 1.142e+04 8.453e-10
 59.52473    -24.6 1.166e+04 1.365e-09
 59.54496    -30.9 1.555e+04 2.496e-09
 59.56519    -38.8 1.935e+04 5.430e-09
 59.57601    -45.1 1.958e+04 9.715e-09
 59.58612    -42.3 1.811e+04 5.804e-09
 59.60565    -46.7 1.773e+04 7.834e-09
 59.62588    -49.3 1.689e+04 8.048e-09
 59.64611    -51.0 1.586e+04 5.398e-09
 59.65675    -53.5 1.468e+04 2.703e-09
 59.66687    -51.8 1.484e+04 3.405e-09
 59.68657    -54.7 1.343e+04 1.804e-09
 59.69869    -57.0 1.185e+04 1.040e-09
 59.70881    -56.3 1.257e+04 1.494e-09
 59.72703    -57.4 1.132e+04 9.478e-10
 59.73749    -57.7 1.060e+04 6.871e-10
 59.74761    -56.8 1.107e+04 8.638e-10
 59.76749    -57.2 1.053e+04 6.556e-10
 59.78772    -57.4 1.017e+04 5.327e-10
 59.80795    -57.7 9.913e+03 4.624e-10
 59.81824    -57.9 9.789e+03 4.357e-10
 59.82835    -57.8 1.004e+04 5.188e-10
 59.84841    -58.1 1.000e+04 5.115e-10
 59.86864    -58.3 9.989e+03 5.145e-10
 59.88886    -58.6 1.007e+04 5.665e-10
 59.90221    -58.5 1.052e+04 7.508e-10
 59.91233    -58.5 1.072e+04 8.253e-10
 59.92933    -58.6 1.096e+04 9.578e-10
 59.94956    -58.6 1.119e+04 1.098e-09
 59.96961    -58.7 1.140e+04 1.220e-09
 59.97972    -58.6 1.142e+04 1.222e-09
 59.99002    -58.9 1.151e+04 1.271e-09
 60.01025    -59.3 1.152e+04 1.282e-09
 60.03048    -59.6 1.149e+04 1.278e-09
 60.05035    -59.7 1.142e+04 1.252e-09
 60.06047    -59.5 1.134e+04 1.194e-09
 60.07094    -59.6 1.130e+04 1.170e-09
 60.09117    -59.8 1.127e+04 1.147e-09
 60.10573    -60.0 1.124e+04 1.123e-09
 60.11585    -59.8 1.115e+04 1.080e-09
 60.13109    -60.0 1.107e+04 1.028e-09
 60.14121    -59.7 1.097e+04 9.653e-10
 60.15186    -59.9 1.097e+04 9.644e-10
 60.17209    -60.1 1.100e+04 9.878e-10
 60.19232    -60.5 1.108e+04 1.032e-09
 60.21184    -61.0 1.122e+04 1.097e-09
 60.22195    -60.6 1.143e+04 1.187e-09
 60.23278    -61.4 1.180e+04 1.372e-09
 60.25301    -62.4 1.223e+04 1.614e-09
 60.27324    -63.4 1.258e+04 1.861e-09
 60.29258    -64.4 1.272e+04 1.999e-09
 60.30269    -63.9 1.320e+04 2.468e-09
 60.30925    -64.8 1.318e+04 2.493e-09
 60.31936    -63.8 1.305e+04 2.300e-09
 60.33393    -64.6 1.287e+04 2.232e-09
 60.35416    -65.2 1.240e+04 1.800e-09
 60.37332    -66.3 1.186e+04 1.306e-09
 60.38344    -65.4 1.218e+04 1.517e-09
 60.39461    -67.2 1.151e+04 1.043e-09
 60.41484    -69.5 1.120e+04 8.532e-10
 60.43507    -71.9 1.114e+04 8.209e-10
 60.45407    -74.0 1.128e+04 8.668e-10
 60.46418    -73.6 1.119e+04 8.344e-10
 60.47553    -75.5 1.148e+04 9.813e-10
 60.49576    -77.0 1.170e+04 1.138e-09
 60.51277    -78.3 1.174e+04 1.181e-09
 60.52288    -77.6 1.220e+04 1.496e-09
 60.53481    -78.6 1.213e+04 1.443e-09
 60.54492    -79.0 1.192e+04 1.374e-09
 60.55645    -79.9 1.173e+04 1.183e-09
 60.57668    -81.0 1.156e+04 9.924e-10
 60.59691    -81.9 1.142e+04 8.605e-10
 60.61555    -82.6 1.139e+04 8.034e-10
 60.62567    -83.8 1.176e+04 9.645e-10
 60.63737    -84.2 1.200e+04 1.064e-09
 60.65760    -84.3 1.219e+04 1.201e-09
 60.67783    -84.1 1.227e+04 1.316e-09
 60.69629    -83.4 1.226e+04 1.396e-09
 60.70641    -84.1 1.273e+04 1.928e-09
 60.71629    -83.1 1.261e+04 1.915e-09
 60.72640    -82.6 1.280e+04 2.074e-09
 60.73852    -81.6 1.277e+04 2.035e-09
 60.75875    -81.1 1.280e+04 2.043e-09
 60.77704    -82.8 1.362e+04 2.116e-09
 60.78715    -85.6 1.475e+04 2.229e-09
 60.79921    -95.7 2.238e+04 4.471e-09
 60.81433   -100.5 2.372e+04 1.231e-08
 60.82237   -102.6 2.357e+04 2.895e-08
 60.82603   -103.0 2.325e+04 3.155e-08
 60.82806   -104.1 2.350e+04 3.183e-08
 60.83452   -105.1 2.341e+04 5.712e-08
 60.84463   -105.8 2.334e+04 7.888e-08
 60.85475   -106.8 2.330e+04 8.504e-08
 60.86274   -107.9 2.320e+04 8.300e-08
 60.86780   -108.7 2.335e+04 5.666e-08
 60.87497   -109.5 2.293e+04 3.597e-08
 60.88509   -111.0 2.221e+04 1.942e-08
 60.89520   -113.5 2.068e+04 1.023e-08
 60.90311   -116.2 1.844e+04 6.191e-09
 60.90817   -117.0 1.736e+04 5.792e-09
 60.91976   -118.1 1.642e+04 4.231e-09
 60.92992   -119.6 1.532e+04 2.865e-09
 60.93852   -120.8 1.276e+04 1.496e-09
 60.94864   -120.9 1.191e+04 1.201e-09
 60.96105   -121.3 1.125e+04 9.927e-10
 60.98128   -121.2 1.114e+04 9.628e-10
 61.00151   -121.1 1.116e+04 9.657e-10
 61.01927   -122.2 1.115e+04 1.232e-09
 61.02938   -122.8 1.179e+04 1.468e-09
 61.04197   -124.5 1.364e+04 2.904e-09
 61.06220   -125.5 1.587e+04 5.966e-09
 61.08243   -126.3 1.847e+04 1.218e-08
 61.09755   -126.5 1.868e+04 1.358e-08
 61.10497   -127.8 2.023e+04 1.652e-08
 61.11008   -127.0 1.792e+04 1.102e-08
 61.11778   -128.3 2.002e+04 1.418e-08
 61.12785   -129.2 2.152e+04 1.563e-08
 61.13334   -130.5 2.330e+04 1.758e-08
 61.13840   -130.8 2.442e+04 1.405e-08
 61.14534   -132.0 2.519e+04 1.548e-08
 61.15040   -131.0 2.340e+04 7.831e-09
 61.15819   -132.8 2.454e+04 8.182e-09
 61.16831   -134.6 2.470e+04 8.934e-09
 61.17842   -136.7 2.429e+04 9.754e-09
 61.18571   -138.6 2.347e+04 1.082e-08
 61.19082   -139.2 2.048e+04 2.700e-09
 61.20381   -142.6 1.993e+04 3.256e-09
 61.22404   -145.1 1.873e+04 4.356e-09
 61.24427   -146.6 1.813e+04 5.344e-09
 61.26150   -147.5 1.786e+04 5.671e-09
 61.27161   -148.5 1.389e+04 1.568e-09
 61.28473   -149.3 1.401e+04 1.624e-09
 61.30496   -150.0 1.388e+04 1.597e-09
 61.32519   -150.7 1.354e+04 1.438e-09
 61.33696   -151.8 1.320e+04 1.353e-09
 61.34389   -151.8 1.309e+04 1.455e-09
 61.35235   -152.4 1.088e+04 7.466e-10
 61.36565   -153.2 1.078e+04 7.519e-10
 61.38588   -153.8 1.074e+04 8.559e-10
 61.40610   -154.0 1.148e+04 1.097e-09
 61.42298   -153.9 1.231e+04 1.426e-09
 61.43310   -152.7 1.138e+04 9.196e-10
 61.44656   -152.7 1.209e+04 1.126e-09
 61.46679   -152.8 1.264e+04 1.310e-09
 61.48702   -153.1 1.297e+04 1.416e-09
 61.50372   -153.5 1.310e+04 1.465e-09
 61.51384   -153.4 1.212e+04 9.314e-10
 61.52748   -153.4 1.261e+04 1.141e-09
 61.54047   -153.2 1.283e+04 1.311e-09
 61.55059   -152.8 1.146e+04 8.209e-10
 61.56794   -153.2 1.187e+04 9.867e-10
 61.58447   -152.8 1.168e+04 9.316e-10
 61.60480   -152.1 1.161e+04 8.553e-10
 61.63894   -151.6 1.162e+04 9.093e-10
 61.67940   -150.9 1.142e+04 8.773e-10
 61.71986   -149.7 1.107e+04 7.449e-10
 61.74419   -148.2 1.067e+04 5.681e-10
 61.75024   -147.1 1.059e+04 5.337e-10
 61.76638   -146.1 1.050e+04 5.202e-10
 61.80078   -144.7 1.033e+04 4.398e-10
 61.84124   -143.1 1.020e+04 3.649e-10
 61.88170   -141.6 1.017e+04 3.118e-10
 61.90763   -140.0 1.019e+04 2.787e-10
 61.92786   -138.8 1.040e+04 3.423e-10
 61.96262   -137.4 1.046e+04 3.310e-10
 62.00308   -136.0 1.044e+04 3.188e-10
 62.04354   -134.4 1.038e+04 3.074e-10
 62.06912   -132.7 1.029e+04 3.055e-10
 62.08935   -132.4 1.058e+04 3.880e-10
 62.12446   -130.8 1.045e+04 3.731e-10
 62.15122   -129.1 1.031e+04 3.563e-10
 62.17145   -128.0 1.017e+04 3.342e-10
 62.20538   -126.1 1.009e+04 3.258e-10
 62.23061   -124.3 1.003e+04 3.188e-10
 62.25084   -124.1 9.993e+03 2.974e-10
 62.28630   -122.4 9.907e+03 2.752e-10
 62.32676   -120.9 9.802e+03 2.479e-10
 62.36722   -119.3 9.677e+03 2.195e-10
 62.39209   -117.8 9.542e+03 1.949e-10
 62.41232   -117.8 9.574e+03 1.955e-10
 62.44814   -116.3 9.476e+03 1.827e-10
 62.48859   -114.6 9.397e+03 1.744e-10
 62.52905   -112.8 9.365e+03 1.712e-10
 62.55358   -110.9 9.364e+03 1.708e-10
 62.56256   -111.2 9.548e+03 2.037e-10
 62.57849   -109.9 9.545e+03 2.026e-10
 62.60997   -108.0 9.557e+03 2.030e-10
 62.65043   -106.8 9.657e+03 2.093e-10
 62.69089   -106.7 1.007e+04 2.709e-10
 62.71506   -107.2 1.125e+04 5.250e-10
 62.73529   -108.9 1.171e+04 6.863e-10
 62.76160   -109.9 1.256e+04 1.149e-09
 62.78173   -109.4 1.310e+04 1.439e-09
 62.79561   -109.7 1.388e+04 2.125e-09
 62.80573   -111.3 1.410e+04 2.316e-09
 62.82219   -113.4 1.501e+04 3.240e-09
 62.84242   -116.0 1.560e+04 4.008e-09
 62.86265   -119.5 1.573e+04 4.325e-09
 62.87636   -123.5 1.569e+04 4.371e-09
 62.88647   -125.7 1.523e+04 4.007e-09
 62.90311   -130.0 1.504e+04 3.876e-09
 62.92334   -134.5 1.501e+04 3.828e-09
 62.94357   -138.8 1.502e+04 3.826e-09
 62.95710   -142.9 1.492e+04 3.823e-09
 62.96721   -145.1 1.504e+04 4.057e-09
 62.97522   -148.1 1.449e+04 3.953e-09
 62.98533   -148.8 1.444e+04 3.834e-09
 63.00426   -151.1 1.384e+04 3.105e-09
 63.02449   -153.3 1.325e+04 2.360e-09
 63.03784   -155.4 1.263e+04 1.713e-09
 63.04796   -157.0 1.234e+04 1.416e-09
 63.06495   -159.3 1.160e+04 1.027e-09
 63.08518   -161.1 1.093e+04 8.019e-10
 63.10541   -162.3 1.043e+04 6.746e-10
 63.11858   -163.0 1.013e+04 5.931e-10
 63.12870   -163.4 1.011e+04 5.914e-10
 63.14587   -163.7 9.965e+03 5.235e-10
 63.17631   -164.2 9.769e+03 4.405e-10
 63.19952   -164.2 9.639e+03 4.010e-10
 63.21975   -164.2 9.532e+03 3.686e-10
 63.25733   -163.7 9.379e+03 3.282e-10
 63.29779   -163.2 9.344e+03 3.156e-10
 63.33825   -162.8 9.348e+03 3.146e-10
 63.36101   -162.7 9.607e+03 3.624e-10
 63.37487   -161.8 9.041e+03 2.297e-10
 63.39256   -163.2 8.973e+03 2.193e-10
 63.41917   -163.4 9.591e+03 3.261e-10
 63.45963   -163.5 1.045e+04 5.499e-10
 63.50008   -163.6 1.121e+04 8.775e-10
 63.52249   -163.8 1.181e+04 1.232e-09
 63.54272   -162.6 1.138e+04 1.010e-09
 63.58100   -162.7 1.184e+04 1.276e-09
 63.60314   -163.7 1.211e+04 1.464e-09
 63.61316   -163.4 1.184e+04 1.302e-09
 63.63138   -164.1 1.184e+04 1.308e-09
 63.65161   -164.5 1.172e+04 1.281e-09
 63.67184   -164.9 1.156e+04 1.212e-09
 63.68379   -165.1 1.138e+04 1.125e-09
 63.69390   -164.6 1.105e+04 9.503e-10
 63.71230   -164.6 1.091e+04 8.723e-10
 63.73253   -164.6 1.079e+04 8.005e-10
 63.75276   -164.6 1.067e+04 7.380e-10
 63.76453   -164.5 1.058e+04 6.855e-10
 63.77464   -163.9 1.038e+04 5.821e-10
 63.78929   -163.8 1.031e+04 5.477e-10
 63.79940   -164.1 1.015e+04 5.097e-10
 63.82366   -164.2 1.014e+04 5.024e-10
 63.84547   -163.8 9.999e+03 4.537e-10
 63.86570   -162.4 1.002e+04 4.659e-10
 63.90468   -162.1 1.002e+04 4.645e-10
 63.94514   -161.8 9.969e+03 4.552e-10
 63.98560   -161.5 9.801e+03 4.089e-10
 64.00695   -160.7 9.528e+03 3.313e-10
 64.02718   -159.8 9.841e+03 4.287e-10
 64.06652   -158.7 9.455e+03 3.091e-10
 64.10698   -157.2 9.067e+03 2.108e-10
 64.14744   -155.6 8.818e+03 1.494e-10
 64.16844   -154.0 8.741e+03 1.164e-10
 64.18718   -153.6 8.797e+03 1.199e-10
 64.20664   -153.1 8.764e+03 1.181e-10
 64.22836   -151.5 8.770e+03 1.020e-10
 64.26882   -149.7 8.783e+03 9.828e-11
 64.30928   -147.8 8.789e+03 9.785e-11
 64.32992   -146.0 8.921e+03 9.839e-11
 64.35015   -146.1 9.112e+03 1.251e-10
 64.39020   -144.4 9.271e+03 1.445e-10
 64.43066   -142.6 9.425e+03 1.763e-10
 64.47112   -140.8 9.623e+03 2.228e-10
 64.51157   -138.9 9.943e+03 3.259e-10
 64.55203   -137.2 1.023e+04 3.814e-10
 64.59249   -135.8 1.064e+04 4.794e-10
 64.61367   -134.8 1.108e+04 6.277e-10
 64.62369   -134.6 1.101e+04 6.308e-10
 64.64259   -134.3 1.122e+04 7.200e-10
 64.65280   -134.4 1.102e+04 6.091e-10
 64.66320   -134.0 1.139e+04 7.693e-10
 64.68333   -133.9 1.169e+04 9.052e-10
 64.70356   -133.9 1.212e+04 1.131e-09
 64.72333   -134.1 1.256e+04 1.373e-09
 64.73344   -134.2 1.257e+04 1.354e-09
 64.74402   -134.7 1.315e+04 1.797e-09
 64.76425   -135.4 1.362e+04 2.291e-09
 64.78448   -136.1 1.395e+04 2.791e-09
 64.80407   -136.7 1.408e+04 3.059e-09
 64.81419   -136.6 1.394e+04 2.946e-09
 64.81700   -136.9 1.396e+04 3.042e-09
 64.82711   -137.0 1.386e+04 2.908e-09
 64.84517   -137.2 1.383e+04 2.906e-09
 64.86540   -137.3 1.369e+04 2.777e-09
 64.88482   -137.3 1.349e+04 2.544e-09
 64.89493   -137.0 1.309e+04 2.070e-09
 64.90586   -136.9 1.289e+04 1.889e-09
 64.92609   -136.7 1.264e+04 1.678e-09
 64.94632   -136.3 1.234e+04 1.453e-09
 64.96556   -135.8 1.203e+04 1.244e-09
 64.97567   -135.3 1.178e+04 1.068e-09
 64.98678   -134.7 1.160e+04 9.780e-10
 65.00701   -134.0 1.147e+04 9.135e-10
 65.02051   -133.3 1.139e+04 8.834e-10
 65.03063   -133.4 1.129e+04 7.442e-10
 65.04630   -132.8 1.132e+04 7.469e-10
 65.05642   -132.6 1.134e+04 7.250e-10
 65.07791   -132.3 1.152e+04 8.258e-10
 65.11713   -131.0 1.182e+04 1.113e-09
 65.13735   -129.6 1.210e+04 1.209e-09
 65.15893   -128.8 1.246e+04 1.584e-09
 65.19939   -128.4 1.256e+04 1.699e-09
 65.22413   -128.1 1.255e+04 1.754e-09
 65.23415   -128.3 1.262e+04 1.758e-09
 65.24977   -128.3 1.246e+04 1.713e-09
 65.27000   -128.3 1.226e+04 1.624e-09
 65.28853   -128.0 1.200e+04 1.487e-09
 65.29865   -127.8 1.233e+04 1.713e-09
 65.31046   -127.4 1.205e+04 1.511e-09
 65.33069   -126.8 1.176e+04 1.294e-09
 65.35092   -126.2 1.148e+04 1.095e-09
 65.36927   -125.6 1.123e+04 9.264e-10
 65.37939   -125.5 1.149e+04 1.100e-09
 65.39138   -124.8 1.122e+04 9.187e-10
 65.41161   -124.1 1.101e+04 7.784e-10
 65.42755   -123.4 1.087e+04 6.779e-10
 65.43767   -124.0 1.077e+04 5.785e-10
 65.45002   -123.4 1.075e+04 5.277e-10
 65.46013   -123.3 1.112e+04 6.419e-10
 65.47230   -123.2 1.115e+04 6.267e-10
 65.49253   -123.4 1.134e+04 6.241e-10
 65.51275   -124.4 1.206e+04 7.528e-10
 65.53076   -125.8 1.297e+04 1.109e-09
 65.54087   -127.5 1.447e+04 2.603e-09
 65.55321   -127.8 1.502e+04 3.914e-09
 65.57344   -127.7 1.544e+04 5.414e-09
 65.59367   -127.6 1.573e+04 6.680e-09
 65.61150   -127.5 1.584e+04 7.244e-09
 65.62162   -127.9 1.587e+04 7.246e-09
 65.63107   -128.2 1.570e+04 6.663e-09
 65.64118   -128.0 1.546e+04 6.054e-09
 65.65436   -128.1 1.522e+04 5.387e-09
 65.67459   -128.3 1.501e+04 4.888e-09
 65.69225   -128.4 1.483e+04 4.537e-09
 65.70236   -129.4 1.417e+04 3.133e-09
 65.71505   -129.5 1.398e+04 2.947e-09
 65.73528   -129.3 1.390e+04 2.901e-09
 65.75551   -129.0 1.388e+04 2.893e-09
 65.77299   -128.6 1.387e+04 2.914e-09
 65.78320   -130.0 1.259e+04 1.217e-09
 65.80628   -128.7 1.256e+04 1.225e-09
 65.83478   -127.6 1.251e+04 1.213e-09
 65.85501   -126.8 1.214e+04 1.020e-09
 65.88720   -125.7 1.208e+04 9.934e-10
 65.92456   -124.7 1.214e+04 1.056e-09
 65.94478   -124.9 1.101e+04 4.065e-10
 65.96812   -124.0 1.142e+04 6.319e-10
 66.00858   -123.0 1.182e+04 9.885e-10
 66.04904   -122.2 1.210e+04 1.346e-09
 66.08604   -121.5 1.217e+04 1.489e-09
 66.10627   -121.1 1.145e+04 9.937e-10
 66.12996   -120.1 1.147e+04 1.058e-09
 66.17042   -118.9 1.131e+04 1.022e-09
 66.21088   -117.4 1.086e+04 8.168e-10
 66.24182   -115.7 1.034e+04 5.861e-10
 66.25824   -114.7 1.075e+04 7.477e-10
 66.26776   -113.9 1.043e+04 5.683e-10
 66.29180   -112.1 1.011e+04 4.541e-10
 66.33226   -110.3 9.805e+03 3.469e-10
 66.37272   -108.4 9.565e+03 2.719e-10
 66.40901   -106.6 9.421e+03 2.324e-10
 66.42924   -106.1 9.415e+03 2.250e-10
 66.45364   -104.4 9.391e+03 2.231e-10
 66.49410   -102.7 9.391e+03 2.334e-10
 66.53456   -101.1 9.419e+03 2.505e-10
 66.57050    -99.6 9.462e+03 2.715e-10
 66.59073    -99.1 9.488e+03 2.915e-10
 66.61547    -97.6 9.476e+03 2.942e-10
 66.64886    -96.1 9.440e+03 2.855e-10
 66.66908    -94.9 9.781e+03 3.674e-10
 66.69639    -93.5 9.780e+03 3.672e-10
 66.73199    -92.3 9.776e+03 3.559e-10
 66.75221    -91.9 9.830e+03 3.802e-10
 66.77731    -90.7 9.829e+03 3.677e-10
 66.81777    -89.7 9.828e+03 3.565e-10
 66.85823    -88.7 9.838e+03 3.519e-10
 66.89347    -87.9 9.862e+03 3.546e-10
 66.91370    -86.8 9.984e+03 4.082e-10
 66.93915    -85.8 1.001e+04 4.072e-10
 66.97961    -85.0 1.016e+04 4.410e-10
 67.02007    -84.1 1.040e+04 5.131e-10
 67.05496    -83.2 1.066e+04 6.060e-10
 67.07055    -82.0 1.075e+04 7.363e-10
 67.07612    -81.3 1.108e+04 9.097e-10
 67.10099    -80.2 1.136e+04 1.041e-09
 67.13124    -79.5 1.146e+04 1.065e-09
 67.14562    -79.3 1.145e+04 1.070e-09
 67.15573    -78.8 1.148e+04 1.165e-09
 67.17160    -78.1 1.153e+04 1.199e-09
 67.19183    -77.7 1.154e+04 1.203e-09
 67.21206    -76.9 1.153e+04 1.202e-09
 67.22636    -76.3 1.147e+04 1.173e-09
 67.23658    -75.8 1.170e+04 1.360e-09
 67.26283    -74.2 1.145e+04 1.191e-09
 67.30329    -72.3 1.118e+04 9.868e-10
 67.34375    -70.3 1.099e+04 8.458e-10
 67.37793    -68.2 1.085e+04 7.676e-10
 67.39816    -67.2 1.053e+04 6.702e-10
 67.42467    -65.0 1.051e+04 6.393e-10
 67.46293    -62.7 1.054e+04 6.383e-10
 67.48316    -62.3 1.064e+04 6.743e-10
 67.50559    -60.1 1.078e+04 6.962e-10
 67.53941    -58.1 1.101e+04 7.802e-10
 67.55964    -56.9 1.059e+04 6.023e-10
 67.58650    -55.0 1.093e+04 7.368e-10
 67.62696    -53.3 1.130e+04 9.336e-10
 67.66742    -51.5 1.162e+04 1.132e-09
 67.70090    -49.8 1.183e+04 1.248e-09
 67.72113    -48.2 1.210e+04 1.411e-09
 67.73813    -47.2 1.231e+04 1.531e-09
 67.75826    -47.1 1.229e+04 1.542e-09
 67.77849    -46.2 1.222e+04 1.490e-09
 67.79156    -45.3 1.211e+04 1.292e-09
 67.80168    -44.8 1.277e+04 1.978e-09
 67.81895    -43.9 1.274e+04 1.767e-09
 67.83918    -43.2 1.265e+04 1.510e-09
 67.85941    -42.6 1.251e+04 1.286e-09
 67.87231    -42.2 1.236e+04 1.128e-09
 67.88242    -41.5 1.366e+04 2.235e-09
 67.89000    -41.2 1.371e+04 2.102e-09
 67.90011    -41.3 1.372e+04 2.278e-09
 67.92010    -41.2 1.372e+04 2.218e-09
 67.94033    -41.4 1.385e+04 2.247e-09
 67.95305    -41.8 1.413e+04 2.652e-09
 67.96316    -40.9 1.579e+04 5.093e-09
 67.98079    -41.2 1.619e+04 6.229e-09
 68.00102    -41.4 1.668e+04 7.582e-09
 68.02125    -41.9 1.721e+04 8.468e-09
 68.03379    -43.0 1.744e+04 8.637e-09
 68.04391    -42.4 1.904e+04 1.548e-08
 68.06171    -43.9 1.917e+04 1.493e-08
 68.08194    -45.4 1.877e+04 1.114e-08
 68.09347    -46.7 1.807e+04 8.433e-09
 68.09848    -46.8 1.805e+04 8.577e-09
 68.10713    -48.0 1.762e+04 7.174e-09
 68.11444    -50.1 1.657e+04 5.422e-09
 68.11950    -49.1 1.748e+04 6.700e-09
 68.12736    -50.8 1.646e+04 5.216e-09
 68.13747    -52.2 1.562e+04 4.405e-09
 68.14759    -53.0 1.538e+04 4.148e-09
 68.16281    -54.4 1.504e+04 3.661e-09
 68.18309    -56.0 1.430e+04 2.714e-09
 68.19528    -57.6 1.368e+04 2.148e-09
 68.20539    -59.0 1.421e+04 2.815e-09
 68.22355    -59.9 1.387e+04 2.608e-09
 68.24378    -60.3 1.379e+04 2.580e-09
 68.26401    -60.4 1.375e+04 2.620e-09
 68.27602    -60.3 1.375e+04 2.677e-09
 68.28614    -61.2 1.412e+04 3.074e-09
 68.29704    -60.9 1.402e+04 2.930e-09
 68.30715    -61.5 1.349e+04 2.307e-09
 68.32470    -61.2 1.331e+04 2.083e-09
 68.34493    -60.7 1.309e+04 1.842e-09
 68.35676    -60.3 1.287e+04 1.613e-09
 68.36688    -61.3 1.273e+04 1.407e-09
 68.38539    -60.9 1.245e+04 1.198e-09
 68.40562    -60.5 1.216e+04 1.040e-09
 68.42585    -59.9 1.189e+04 9.306e-10
 68.43751    -59.1 1.168e+04 8.593e-10
 68.44762    -59.7 1.153e+04 8.088e-10
 68.46631    -58.7 1.142e+04 7.682e-10
 68.48654    -57.6 1.134e+04 7.297e-10
 68.50055    -56.4 1.129e+04 7.028e-10
 68.51067    -56.2 1.091e+04 5.214e-10
 68.51825    -55.1 1.093e+04 5.104e-10
 68.52837    -55.4 1.104e+04 5.518e-10
 68.54723    -54.4 1.112e+04 5.662e-10
 68.56746    -53.4 1.119e+04 5.991e-10
 68.58768    -52.5 1.126e+04 6.443e-10
 68.59899    -51.6 1.133e+04 6.996e-10
 68.60911    -51.9 1.160e+04 8.753e-10
 68.62814    -50.9 1.173e+04 9.827e-10
 68.64837    -50.0 1.185e+04 1.084e-09
 68.66860    -49.1 1.197e+04 1.167e-09
 68.67974    -48.2 1.205e+04 1.229e-09
 68.68985    -48.3 1.249e+04 1.533e-09
 68.70407    -47.4 1.253e+04 1.576e-09
 68.71419    -47.1 1.257e+04 1.649e-09
 68.72929    -46.3 1.260e+04 1.673e-09
 68.74952    -45.4 1.257e+04 1.662e-09
 68.76048    -44.4 1.241e+04 1.556e-09
 68.77059    -44.5 1.266e+04 1.739e-09
 68.78998    -43.4 1.242e+04 1.561e-09
 68.81021    -42.4 1.218e+04 1.369e-09
 68.83044    -41.6 1.191e+04 1.181e-09
 68.84122    -40.7 1.166e+04 1.018e-09
 68.85134    -41.0 1.169e+04 1.016e-09
 68.87090    -40.1 1.150e+04 9.094e-10
 68.89113    -39.5 1.139e+04 8.585e-10
 68.92157    -38.0 1.127e+04 8.026e-10
 68.96213    -35.8 1.122e+04 7.911e-10
 68.99279    -34.0 1.133e+04 8.804e-10
 69.01302    -34.2 1.147e+04 9.984e-10
 69.04305    -32.5 1.158e+04 1.110e-09
 69.08351    -30.7 1.156e+04 1.130e-09
 69.11130    -28.6 1.126e+04 1.039e-09
 69.13153    -27.7 1.087e+04 8.043e-10
 69.15427    -25.3 1.054e+04 6.570e-10
 69.17450    -25.4 1.032e+04 5.799e-10
 69.20489    -22.9 9.923e+03 4.240e-10
 69.24535    -20.5 9.557e+03 3.035e-10
 69.28581    -18.0 9.224e+03 2.184e-10
 69.31576    -15.6 8.948e+03 1.607e-10
 69.33599    -15.4 8.741e+03 1.223e-10
 69.36673    -12.8 8.591e+03 1.015e-10
 69.40719    -10.1 8.454e+03 8.959e-11
 69.44765     -7.3 8.346e+03 8.169e-11
 69.47725     -4.4 8.273e+03 7.725e-11
 69.49748     -3.9 8.188e+03 7.755e-11
 69.51834     -1.0 8.188e+03 7.595e-11
 69.53857     -0.7 8.270e+03 8.454e-11
 69.56903      2.1 8.272e+03 8.404e-11
 69.60949      4.6 8.388e+03 8.839e-11
 69.63873      7.0 8.530e+03 1.064e-10
 69.65896      7.6 8.445e+03 1.067e-10
 69.69040     10.1 8.584e+03 1.329e-10
 69.73086     12.7 8.805e+03 1.704e-10
 69.77132     15.2 9.064e+03 2.135e-10
 69.80022     17.5 9.325e+03 2.587e-10
 69.82045     18.0 9.071e+03 2.072e-10
 69.85224     19.9 9.260e+03 2.377e-10
 69.89270     21.6 9.449e+03 2.816e-10
 69.92538     23.4 9.660e+03 3.435e-10
 69.94561     23.3 9.703e+03 3.541e-10
 69.96170     24.9 9.975e+03 4.393e-10
 69.98193     25.6 9.647e+03 3.489e-10
 70.01408     27.1 9.977e+03 4.389e-10
 70.04235     28.0 1.021e+04 5.288e-10
 70.05237     28.6 1.009e+04 4.741e-10
 70.06446     28.7 1.009e+04 5.220e-10
 70.08469     29.8 1.036e+04 6.322e-10
 70.10492     30.2 1.039e+04 6.667e-10
 70.12300     31.5 1.055e+04 7.279e-10
 70.13311     32.0 1.053e+04 7.211e-10
 70.13881     32.7 1.058e+04 7.295e-10
 70.14893     32.6 1.063e+04 7.701e-10
 70.16561     33.5 1.058e+04 7.243e-10
 70.18584     34.3 1.056e+04 6.516e-10
 70.20374     34.7 1.058e+04 5.533e-10
 70.21385     35.4 1.059e+04 5.887e-10
 70.22630     35.8 1.053e+04 5.392e-10
 70.24653     36.1 1.067e+04 4.689e-10
 70.26676     36.2 1.075e+04 4.529e-10
 70.28448     36.0 1.085e+04 4.487e-10
 70.29460     37.0 1.089e+04 4.614e-10
 70.30722     36.5 1.086e+04 5.033e-10
 70.32745     36.4 1.092e+04 6.227e-10
 70.34233     36.4 1.118e+04 7.422e-10
 70.35245     36.2 1.100e+04 6.882e-10
 70.36522     36.7 1.122e+04 8.251e-10
 70.37534     37.1 1.140e+04 8.899e-10
 70.38814     37.3 1.178e+04 1.061e-09
 70.40837     37.9 1.202e+04 1.201e-09
 70.42860     38.7 1.263e+04 1.240e-09
 70.44597     37.4 1.421e+04 1.226e-09
 70.45608     39.0 1.413e+04 1.877e-09
 70.46906     36.3 1.602e+04 2.222e-09
 70.48929     32.1 1.652e+04 3.363e-09
 70.50952     30.4 1.563e+04 5.344e-09
 70.52671     31.3 1.564e+04 7.538e-09
 70.53683     32.1 1.611e+04 7.712e-09
 70.54585     33.6 1.618e+04 8.913e-09
 70.55597     33.3 1.609e+04 9.432e-09
 70.57021     34.9 1.599e+04 9.150e-09
 70.59044     36.5 1.609e+04 5.500e-09
 70.60745     34.7 1.575e+04 2.348e-09
 70.61757     36.9 1.619e+04 3.905e-09
 70.63089     33.2 1.476e+04 1.671e-09
 70.65112     29.5 1.241e+04 9.296e-10
 70.67135     28.2 1.172e+04 7.987e-10
 70.68820     27.9 1.164e+04 7.992e-10
 70.69831     28.8 1.190e+04 9.211e-10
 70.71181     28.5 1.168e+04 9.750e-10
 70.73204     28.5 1.155e+04 1.064e-09
 70.74937     28.1 1.184e+04 1.185e-09
 70.75948     28.0 1.225e+04 1.464e-09
 70.76894     26.3 1.365e+04 1.890e-09
 70.77905     28.3 1.354e+04 1.982e-09
 70.79273     24.1 1.536e+04 2.836e-09
 70.81296     19.5 1.597e+04 4.348e-09
 70.82809     17.4 1.577e+04 5.571e-09
 70.83815     17.0 1.585e+04 6.010e-09
 70.84827     16.4 1.594e+04 7.106e-09
 70.85464     16.1 1.601e+04 7.247e-09
 70.85741     16.3 1.605e+04 7.597e-09
 70.86115     16.3 1.649e+04 8.580e-09
 70.86850     15.9 1.629e+04 8.027e-09
 70.87861     15.8 1.566e+04 6.393e-09
 70.89383     15.8 1.516e+04 4.768e-09
 70.91411     13.6 1.383e+04 2.303e-09
 70.93043     10.0 1.188e+04 9.983e-10
 70.94054      9.8 1.206e+04 1.014e-09
 70.95289      7.2 1.088e+04 6.271e-10
 70.96300      7.9 1.131e+04 8.419e-10
 70.97480      7.0 1.083e+04 6.523e-10
 70.99503      6.5 1.057e+04 5.424e-10
 71.01117      5.9 1.041e+04 4.952e-10
 71.02128      5.4 1.066e+04 5.433e-10
 71.03549      5.0 1.064e+04 5.384e-10
 71.05572      4.5 1.075e+04 5.821e-10
 71.07595      4.3 1.091e+04 6.655e-10
 71.09191      4.3 1.106e+04 7.445e-10
 71.10203      4.1 1.121e+04 7.829e-10
 71.11641      4.3 1.124e+04 8.023e-10
 71.13664      4.6 1.117e+04 7.935e-10
 71.15641      5.2 1.100e+04 7.090e-10
 71.16652      5.4 1.105e+04 7.573e-10
 71.17265      6.1 1.086e+04 6.300e-10
 71.18277      6.1 1.092e+04 6.351e-10
 71.19733      6.6 1.071e+04 4.932e-10
 71.21756      6.6 1.044e+04 3.791e-10
 71.23779      6.6 1.029e+04 3.491e-10
 71.25350      7.1 1.009e+04 3.254e-10
 71.27382      7.6 1.012e+04 3.503e-10
 71.30879      8.9 9.885e+03 3.293e-10
 71.34925     10.6 9.681e+03 3.134e-10
 71.38971     12.5 9.496e+03 2.892e-10
 71.41508     14.4 9.280e+03 2.522e-10
 71.43531     15.0 9.418e+03 2.800e-10
 71.47063     17.0 9.157e+03 2.360e-10
 71.51109     19.2 8.951e+03 2.049e-10
 71.55155     21.5 8.817e+03 1.883e-10
 71.57375     23.8 8.757e+03 1.839e-10
 71.57854     24.2 8.732e+03 1.896e-10
 71.59679     25.1 8.788e+03 2.047e-10
 71.63247     27.5 8.735e+03 2.003e-10
 71.67293     29.8 8.722e+03 2.021e-10
 71.71338     32.1 8.700e+03 2.106e-10
 71.73805     34.3 8.659e+03 2.155e-10
 71.75828     35.7 8.670e+03 2.172e-10
 71.79430     38.0 8.643e+03 2.226e-10
 71.83476     40.2 8.578e+03 2.254e-10
 71.87522     42.3 8.486e+03 2.135e-10
 71.89954     44.0 8.395e+03 1.969e-10
 71.91977     45.6 8.625e+03 2.312e-10
 71.95614     47.0 8.591e+03 2.272e-10
 71.98079     48.3 8.559e+03 2.545e-10
 72.00102     48.7 8.539e+03 2.550e-10
 72.03706     50.7 8.707e+03 3.012e-10
 72.06102     52.5 8.846e+03 3.254e-10
 72.08125     53.4 9.070e+03 3.953e-10
 72.10777     53.8 9.012e+03 3.719e-10
 72.12790     53.9 9.019e+03 3.743e-10
 72.14157     54.6 9.029e+03 4.087e-10
 72.15169     55.0 9.297e+03 5.099e-10
 72.16836     55.4 9.516e+03 5.490e-10
 72.18411     55.7 9.774e+03 6.689e-10
 72.19423     55.9 9.778e+03 6.645e-10
 72.20882     55.9 1.010e+04 7.367e-10
 72.22231     55.4 1.049e+04 8.566e-10
 72.23243     55.5 1.078e+04 9.991e-10
 72.24928     54.5 1.112e+04 1.151e-09
 72.26951     53.4 1.161e+04 1.392e-09
 72.28974     52.5 1.205e+04 1.682e-09
 72.30306     51.9 1.219e+04 1.902e-09
 72.31317     51.6 1.224e+04 1.896e-09
 72.33020     51.2 1.199e+04 1.882e-09
 72.35043     51.4 1.169e+04 1.721e-09
 72.37066     51.6 1.137e+04 1.430e-09
 72.38380     51.5 1.098e+04 1.106e-09
 72.39066     50.9 1.083e+04 1.016e-09
 72.39775     51.3 1.064e+04 9.506e-10
 72.41112     50.7 1.031e+04 7.488e-10
 72.43135     49.8 1.001e+04 6.360e-10
 72.45158     49.1 1.002e+04 6.307e-10
 72.46454     47.8 1.043e+04 7.779e-10
 72.47466     47.6 1.028e+04 7.375e-10
 72.49204     46.8 1.086e+04 1.003e-09
 72.51227     46.2 1.147e+04 1.415e-09
 72.53250     46.2 1.202e+04 1.905e-09
 72.54529     46.7 1.245e+04 2.309e-09
 72.55540     46.5 1.191e+04 1.812e-09
 72.57296     46.7 1.204e+04 1.884e-09
 72.59115     46.9 1.180e+04 1.627e-09
 72.60126     46.9 1.196e+04 1.822e-09
 72.61342     46.8 1.147e+04 1.379e-09
 72.62603     45.8 1.087e+04 9.969e-10
 72.63614     45.1 1.051e+04 8.546e-10
 72.65388     44.3 1.000e+04 6.649e-10
 72.67411     43.7 9.662e+03 5.510e-10
 72.69433     43.2 9.573e+03 5.074e-10
 72.70677     42.6 9.538e+03 4.955e-10
 72.71689     42.5 9.573e+03 5.004e-10
 72.73479     42.1 9.644e+03 5.352e-10
 72.75502     41.9 9.658e+03 5.882e-10
 72.77525     42.3 9.653e+03 6.234e-10
 72.78751     43.0 9.682e+03 6.358e-10
 72.79681     42.9 9.861e+03 7.029e-10
 72.80478     42.7 9.994e+03 7.633e-10
 72.81571     43.5 9.963e+03 6.936e-10
 72.83594     43.8 9.767e+03 5.663e-10
 72.85617     43.9 9.517e+03 4.579e-10
 72.86836     44.1 9.218e+03 3.368e-10
 72.87847     43.9 9.395e+03 3.776e-10
 72.89663     44.0 9.349e+03 3.570e-10
 72.92708     44.2 9.250e+03 2.713e-10
 72.96763     44.6 9.070e+03 2.293e-10
 73.00809     45.2 9.227e+03 2.499e-10
 73.02984     44.9 9.878e+03 4.199e-10
 73.03986     43.3 1.043e+04 6.147e-10
 73.05847     43.5 1.080e+04 8.210e-10
 73.07870     44.4 1.118e+04 1.096e-09
 73.09893     45.3 1.162e+04 1.331e-09
 73.11049     46.0 1.198e+04 1.484e-09
 73.12060     44.7 1.238e+04 1.619e-09
 73.13939     44.5 1.244e+04 1.567e-09
 73.15962     44.0 1.239e+04 1.532e-09
 73.17985     43.2 1.231e+04 1.510e-09
 73.19123     42.6 1.227e+04 1.548e-09
 73.20134     40.7 1.202e+04 1.449e-09
 73.21182     40.4 1.196e+04 1.466e-09
 73.22193     39.7 1.160e+04 1.191e-09
 73.25075     37.8 1.109e+04 9.551e-10
 73.29131     37.6 1.079e+04 8.835e-10
 73.33177     37.3 1.025e+04 6.884e-10
 73.35291     37.6 9.850e+03 5.356e-10
 73.37314     37.2 9.939e+03 5.628e-10
 73.41269     38.3 9.646e+03 4.885e-10
 73.45315     40.0 9.545e+03 4.744e-10
 73.49361     42.0 9.696e+03 5.121e-10
 73.51440     44.0 1.011e+04 6.126e-10
 73.53463     43.4 1.031e+04 6.829e-10
 73.56431     44.8 1.055e+04 8.639e-10
 73.58445     45.3 1.093e+04 1.030e-09
 73.59494     45.9 1.124e+04 1.243e-09
 73.60506     45.0 1.167e+04 1.472e-09
 73.61885     45.5 1.210e+04 1.753e-09
 73.62897     45.6 1.232e+04 1.919e-09
 73.64514     46.3 1.261e+04 2.219e-09
 73.66537     47.0 1.276e+04 2.339e-09
 73.67569     47.7 1.287e+04 2.411e-09
 73.68580     45.7 1.347e+04 3.039e-09
 73.70583     44.7 1.420e+04 3.358e-09
 73.71601     43.9 1.484e+04 3.575e-09
 73.72064     42.7 1.505e+04 3.987e-09
 73.72557     42.5 1.522e+04 4.029e-09
 73.73101     41.0 1.627e+04 4.533e-09
 73.74113     36.7 1.820e+04 6.368e-09
 73.75124     34.7 1.930e+04 7.847e-09
 73.76647     28.6 1.950e+04 1.356e-08
 73.78674     25.8 1.976e+04 1.479e-08
 73.80697     22.7 2.032e+04 1.156e-08
 73.82237     17.1 2.101e+04 5.510e-09
 73.83234     19.9 2.101e+04 7.658e-09
 73.83717     12.5 1.893e+04 2.907e-09
 73.84743      2.9 1.368e+04 1.390e-09
 73.86766     -2.3 1.190e+04 1.236e-09
 73.88789     -4.5 1.228e+04 1.382e-09
 73.90780     -6.9 1.247e+04 1.563e-09
 73.91792     -7.2 1.237e+04 1.543e-09
 73.92835     -9.4 1.228e+04 1.715e-09
 73.94858    -11.1 1.231e+04 1.840e-09
 73.96881    -12.7 1.267e+04 1.946e-09
 73.98854    -14.5 1.311e+04 2.027e-09
 73.99866    -14.0 1.335e+04 2.033e-09
 74.00927    -16.9 1.326e+04 1.808e-09
 74.02589    -20.5 1.267e+04 1.569e-09
 74.03601    -18.5 1.369e+04 2.104e-09
 74.04973    -21.9 1.303e+04 1.773e-09
 74.06929    -24.5 1.235e+04 1.519e-09
 74.07940    -25.1 1.245e+04 1.648e-09
 74.09019    -26.8 1.226e+04 1.525e-09
 74.11042    -28.3 1.216e+04 1.422e-09
 74.13065    -29.7 1.200e+04 1.320e-09
 74.15003    -30.7 1.181e+04 1.256e-09
 74.16015    -31.5 1.217e+04 1.522e-09
 74.17111    -32.0 1.199e+04 1.451e-09
 74.19134    -32.1 1.181e+04 1.344e-09
 74.21157    -31.9 1.160e+04 1.185e-09
 74.22941    -31.8 1.140e+04 1.009e-09
 74.23850    -32.2 1.159e+04 1.138e-09
 74.24089    -32.8 1.169e+04 1.178e-09
 74.25203    -32.8 1.141e+04 9.467e-10
 74.27226    -32.8 1.111e+04 7.584e-10
 74.29249    -32.8 1.083e+04 6.231e-10
 74.31152    -32.8 1.059e+04 5.295e-10
 74.32163    -33.4 1.047e+04 5.275e-10
 74.33295    -33.0 1.027e+04 4.645e-10
 74.35318    -32.3 1.012e+04 4.123e-10
 74.37341    -31.6 1.004e+04 3.769e-10
 74.39226    -30.9 9.999e+03 3.591e-10
 74.40237    -30.9 1.000e+04 3.610e-10
 74.42291    -30.1 9.950e+03 3.400e-10
 74.44314    -30.1 9.894e+03 3.416e-10
 74.45433    -29.2 9.781e+03 3.215e-10
 74.47300    -28.7 9.722e+03 3.107e-10
 74.48312    -28.3 9.705e+03 3.124e-10
 74.50500    -26.8 9.546e+03 2.852e-10
 74.54556    -25.2 9.347e+03 2.465e-10
 74.58602    -23.3 9.143e+03 2.175e-10
 74.62457    -21.3 9.018e+03 2.063e-10
 74.64480    -20.3 9.069e+03 2.120e-10
 74.66694    -18.2 9.022e+03 2.099e-10
 74.70740    -16.1 9.006e+03 2.160e-10
 74.74786    -14.0 9.050e+03 2.265e-10
 74.78606    -11.9 9.110e+03 2.396e-10
 74.80628    -11.1 9.147e+03 2.424e-10
 74.82877     -9.0 9.208e+03 2.512e-10
 74.85027     -6.8 9.299e+03 2.610e-10
 74.86029     -7.6 9.582e+03 3.158e-10
 74.87672     -7.1 9.606e+03 3.195e-10
 74.88683     -6.8 9.579e+03 3.135e-10
 74.89938     -5.1 9.690e+03 3.272e-10
 74.91961     -4.7 9.708e+03 3.300e-10
 74.93984     -3.0 9.862e+03 3.511e-10
 74.95746     -2.7 9.928e+03 3.607e-10
 74.96758     -2.0 9.840e+03 3.401e-10
 74.98030     -1.1 1.015e+04 3.785e-10
 75.00053     -0.9 1.039e+04 4.255e-10
 75.02076     -0.6 1.066e+04 5.275e-10
 75.03820     -0.3 1.087e+04 6.710e-10
 75.04832     -0.0 1.091e+04 6.718e-10
 75.05360      0.6 1.114e+04 8.686e-10
 75.06371      0.7 1.137e+04 9.961e-10
 75.08145      1.8 1.159e+04 1.173e-09
 75.10168      3.2 1.182e+04 1.285e-09
 75.11895      4.3 1.192e+04 1.310e-09
 75.12906      4.7 1.206e+04 1.417e-09
 75.14214      5.8 1.201e+04 1.210e-09
 75.16237      6.4 1.168e+04 9.505e-10
 75.18260      6.7 1.124e+04 7.483e-10
 75.19969      7.2 1.085e+04 6.132e-10
 75.20980      7.6 1.080e+04 5.640e-10
 75.22306      8.6 1.066e+04 4.863e-10
 75.24329      9.3 1.063e+04 4.443e-10
 75.25712     10.0 1.059e+04 4.229e-10
 75.26723      9.9 1.071e+04 4.596e-10
 75.28043     10.9 1.067e+04 4.527e-10
 75.29055     11.1 1.057e+04 3.805e-10
 75.30398     12.8 1.059e+04 3.859e-10
 75.32421     13.3 1.058e+04 3.875e-10
 75.35465     15.2 1.072e+04 4.117e-10
 75.39521     17.5 1.074e+04 4.206e-10
 75.43200     20.1 1.059e+04 3.853e-10
 75.45223     21.5 1.034e+04 3.235e-10
 75.47613     23.8 1.024e+04 3.015e-10
 75.51659     25.9 1.019e+04 2.907e-10
 75.55705     28.1 1.025e+04 3.071e-10
 75.59349     29.8 1.039e+04 3.686e-10
 75.61371     31.2 1.028e+04 3.362e-10
 75.62775     32.3 1.045e+04 4.753e-10
 75.64789     32.9 1.056e+04 5.341e-10
 75.66415     34.1 1.068e+04 6.810e-10
 75.67427     34.3 1.095e+04 7.857e-10
 75.68415     35.4 1.118e+04 9.015e-10
 75.69426     36.1 1.111e+04 9.101e-10
 75.70858     36.8 1.161e+04 1.052e-09
 75.72881     36.2 1.255e+04 1.322e-09
 75.74904     34.3 1.376e+04 1.934e-09
 75.76489     32.5 1.408e+04 2.898e-09
 75.77501     32.7 1.420e+04 3.152e-09
 75.78949     33.4 1.446e+04 4.932e-09
 75.80972     34.9 1.489e+04 6.084e-09
 75.82995     36.0 1.561e+04 6.463e-09
 75.84563     36.3 1.587e+04 5.051e-09
 75.85575     37.4 1.555e+04 4.619e-09
 75.86767     36.2 1.492e+04 3.146e-09
 75.87779     34.5 1.506e+04 2.796e-09
 75.89064     31.8 1.336e+04 1.547e-09
 75.91087     30.6 1.220e+04 1.024e-09
 75.92638     30.8 1.193e+04 8.657e-10
 75.93659     32.3 1.190e+04 8.813e-10
 75.96164     32.5 1.099e+04 5.747e-10
 76.00210     33.0 1.043e+04 4.096e-10
 76.04256     33.7 1.029e+04 3.524e-10
 76.07138     34.4 1.033e+04 3.666e-10
 76.08653     33.5 1.028e+04 3.698e-10
 76.09817     36.1 1.030e+04 3.657e-10
 76.11327     36.1 1.039e+04 4.410e-10
 76.13340     36.3 1.037e+04 4.829e-10
 76.15363     37.0 1.034e+04 5.149e-10
 76.16861     37.5 1.045e+04 5.160e-10
 76.17872     39.3 1.051e+04 6.074e-10
 76.19409     39.5 1.061e+04 5.570e-10
 76.21432     39.7 1.065e+04 4.998e-10
 76.23933     38.6 1.037e+04 3.758e-10
 76.25956     40.8 1.060e+04 4.490e-10
 76.27471     40.1 1.027e+04 3.851e-10
 76.28482     39.9 1.019e+04 3.671e-10
 76.29524     39.8 1.011e+04 3.595e-10
 76.31547     39.5 9.908e+03 3.532e-10
 76.33009     39.5 9.869e+03 3.514e-10
 76.34021     40.6 9.841e+03 3.709e-10
 76.35593     40.8 9.796e+03 3.956e-10
 76.37616     40.8 9.820e+03 4.000e-10
 76.39639     40.9 9.884e+03 4.136e-10
 76.41083     40.6 1.000e+04 4.153e-10
 76.42095     41.8 1.003e+04 4.322e-10
 76.43685     41.1 1.009e+04 4.290e-10
 76.45708     40.4 1.008e+04 4.370e-10
 76.47731     39.7 1.013e+04 4.737e-10
 76.48834     38.7 1.040e+04 5.597e-10
 76.49249     38.5 1.071e+04 6.556e-10
 76.50169     39.9 1.046e+04 5.871e-10
 76.51777     38.6 1.106e+04 7.468e-10
 76.53800     36.7 1.188e+04 1.036e-09
 76.55823     34.9 1.244e+04 1.455e-09
 76.57232     33.7 1.266e+04 1.873e-09
 76.58244     35.1 1.272e+04 1.827e-09
 76.59869     34.2 1.307e+04 2.282e-09
 76.61892     33.3 1.350e+04 2.588e-09
 76.63915     31.4 1.405e+04 2.690e-09
 76.65306     28.2 1.441e+04 2.714e-09
 76.66318     29.8 1.553e+04 3.958e-09
 76.67961     26.5 1.585e+04 4.316e-09
 76.69186     23.6 1.577e+04 4.494e-09
 76.70197     22.5 1.565e+04 4.428e-09
 76.72007     20.6 1.508e+04 4.230e-09
 76.73381     19.5 1.449e+04 3.733e-09
 76.74392     19.7 1.512e+04 4.784e-09
 76.76053     19.2 1.481e+04 4.097e-09
 76.78076     17.5 1.393e+04 2.693e-09
 76.80098     15.0 1.275e+04 1.796e-09
 76.81455     13.2 1.196e+04 1.436e-09
 76.82466     12.8 1.228e+04 1.564e-09
 76.84144     12.0 1.192e+04 1.441e-09
 76.86167     11.8 1.185e+04 1.444e-09
 76.88190     11.7 1.191e+04 1.538e-09
 76.89529     11.6 1.216e+04 1.699e-09
 76.90541     10.2 1.299e+04 2.318e-09
 76.92236      8.5 1.429e+04 3.102e-09
 76.94259      6.2 1.571e+04 4.621e-09
 76.96282      4.6 1.667e+04 6.850e-09
 76.97604      4.0 1.706e+04 8.918e-09
 76.98615      4.2 1.760e+04 1.029e-08
 77.00328      3.7 1.762e+04 1.075e-08
 77.02351      3.4 1.710e+04 9.422e-09
 77.04374      3.3 1.595e+04 6.101e-09
 77.05678      2.0 1.455e+04 3.428e-09
 77.06689      1.1 1.422e+04 3.056e-09
 77.08420     -1.3 1.242e+04 1.665e-09
 77.09889     -3.0 1.099e+04 1.037e-09
 77.10901     -5.1 1.021e+04 7.003e-10
 77.12466     -5.6 9.825e+03 5.460e-10
 77.13752     -5.8 9.614e+03 4.510e-10
 77.14764     -6.1 9.464e+03 4.160e-10
 77.16512     -6.4 9.169e+03 3.532e-10
 77.18535     -6.6 8.913e+03 3.216e-10
 77.20825     -5.7 8.930e+03 3.185e-10
 77.22857     -5.9 8.764e+03 3.075e-10
 77.25635     -5.5 8.608e+03 2.939e-10
 77.29249     -5.1 8.408e+03 2.778e-10
 77.31272     -7.1 8.398e+03 2.717e-10
 77.33727     -6.5 8.315e+03 2.578e-10
 77.36983     -5.9 8.240e+03 2.447e-10
 77.39006     -5.8 8.553e+03 2.937e-10
 77.41819     -5.4 8.582e+03 2.998e-10
 77.45865     -5.0 8.736e+03 3.246e-10
 77.49911     -4.5 8.946e+03 3.655e-10
 77.52936     -4.6 9.332e+03 4.580e-10
 77.54124     -4.6 9.502e+03 4.955e-10
 77.55135     -5.5 9.957e+03 6.498e-10
 77.56972     -5.4 1.022e+04 7.437e-10
 77.58995     -5.5 1.059e+04 8.655e-10
 77.62039     -5.2 1.101e+04 1.059e-09
 77.66095     -4.8 1.118e+04 1.216e-09
 77.69280     -4.3 1.129e+04 1.187e-09
 77.71116     -6.0 1.133e+04 1.134e-09
 77.71976     -8.9 1.003e+04 5.526e-10
 77.74187     -9.4 9.687e+03 3.643e-10
 77.77211     -9.0 9.401e+03 2.877e-10
 77.78347    -10.5 9.154e+03 2.639e-10
 77.79358    -12.4 9.125e+03 2.665e-10
 77.81247    -14.1 9.012e+03 2.742e-10
 77.83270    -15.5 9.231e+03 3.756e-10
 77.85293    -16.2 9.594e+03 5.277e-10
 77.86421    -16.5 1.004e+04 6.920e-10
 77.87432    -16.9 1.032e+04 7.902e-10
 77.89339    -17.2 1.061e+04 8.705e-10
 77.91297    -17.8 1.074e+04 8.928e-10
 77.92308    -17.5 1.055e+04 7.806e-10
 77.93385    -18.3 1.071e+04 8.307e-10
 77.94495    -19.3 1.095e+04 9.157e-10
 77.95507    -20.0 1.105e+04 9.486e-10
 77.97431    -21.2 1.155e+04 1.164e-09
 77.99454    -22.3 1.215e+04 1.491e-09
 78.01477    -23.3 1.262e+04 1.845e-09
 78.02569    -24.0 1.280e+04 2.042e-09
 78.03581    -24.5 1.291e+04 2.102e-09
 78.05523    -25.0 1.286e+04 2.102e-09
 78.07546    -25.2 1.242e+04 1.758e-09
 78.09569    -25.5 1.183e+04 1.231e-09
 78.10644    -26.0 1.121e+04 8.041e-10
 78.11655    -26.5 1.123e+04 8.124e-10
 78.12660    -26.9 1.070e+04 5.471e-10
 78.13672    -26.8 1.062e+04 5.172e-10
 78.15638    -27.3 1.017e+04 3.807e-10
 78.17716    -27.5 9.850e+03 3.032e-10
 78.19749    -27.7 9.857e+03 3.467e-10
 78.22738    -27.2 9.516e+03 2.915e-10
 78.26784    -26.1 9.109e+03 2.441e-10
 78.30830    -24.9 8.778e+03 2.088e-10
 78.33875    -23.8 8.535e+03 1.806e-10
 78.35898    -23.7 8.389e+03 1.804e-10
 78.38922    -22.5 8.203e+03 1.617e-10
 78.42968    -21.3 8.188e+03 1.537e-10
 78.47014    -20.1 8.192e+03 1.523e-10
 78.50023    -18.9 8.277e+03 1.604e-10
 78.52046    -19.0 8.311e+03 1.828e-10
 78.53383    -18.0 8.613e+03 2.272e-10
 78.55406    -18.0 8.268e+03 1.844e-10
 78.59152    -16.7 8.508e+03 2.175e-10
 78.63198    -15.3 8.783e+03 2.497e-10
 78.66172    -14.0 9.051e+03 2.745e-10
 78.68195    -14.5 9.381e+03 3.393e-10
 78.70268    -13.3 9.463e+03 3.346e-10
 78.72282    -13.1 9.512e+03 3.435e-10
 78.73716    -12.2 9.668e+03 3.668e-10
 78.74649    -12.1 9.567e+03 3.357e-10
 78.75238    -12.7 9.743e+03 3.753e-10
 78.76328    -12.4 9.801e+03 3.910e-10
 78.78351    -11.7 9.908e+03 4.151e-10
 78.80374    -11.3 9.974e+03 4.318e-10
 78.82301    -10.9 1.008e+04 4.575e-10
 78.83312    -11.6 1.035e+04 5.639e-10
 78.84419    -11.3 1.040e+04 5.789e-10
 78.86442    -11.1 1.045e+04 5.994e-10
 78.88465    -10.8 1.051e+04 6.263e-10
 78.90375    -10.5 1.059e+04 6.555e-10
 78.91387    -10.8 1.077e+04 7.253e-10
 78.92511    -10.4 1.082e+04 7.195e-10
 78.94067    -10.2 1.083e+04 6.954e-10
 78.95079    -10.1 1.066e+04 6.636e-10
 78.96557     -9.8 1.057e+04 6.260e-10
 78.98450     -9.7 1.042e+04 5.845e-10
 78.99461    -10.1 1.044e+04 5.858e-10
 79.00603    -10.0 1.031e+04 5.481e-10
 79.02626     -9.8 1.023e+04 5.167e-10
 79.04649     -9.5 1.016e+04 4.889e-10
 79.06524     -9.2 1.007e+04 4.617e-10
 79.07535     -9.6 1.021e+04 4.984e-10
 79.08695     -9.4 1.017e+04 4.906e-10
 79.10718     -9.1 1.019e+04 4.977e-10
 79.12741     -9.0 1.027e+04 5.200e-10
 79.14419     -8.9 1.039e+04 5.606e-10
 79.15265     -8.2 1.012e+04 4.846e-10
 79.15610     -8.6 1.045e+04 6.041e-10
 79.16787     -8.4 1.058e+04 6.618e-10
 79.18810     -8.1 1.065e+04 7.121e-10
 79.20833     -7.7 1.066e+04 7.367e-10
 79.22672     -7.1 1.062e+04 7.419e-10
 79.23684     -7.2 1.080e+04 8.760e-10
 79.24879     -6.5 1.068e+04 8.159e-10
 79.26902     -5.8 1.057e+04 7.333e-10
 79.28925     -5.2 1.045e+04 6.433e-10
 79.30747     -4.6 1.031e+04 5.551e-10
 79.31758     -4.7 1.041e+04 6.026e-10
 79.32971     -4.1 1.028e+04 5.099e-10
 79.34781     -3.6 1.019e+04 4.236e-10
 79.36814     -2.4 1.016e+04 4.421e-10
 79.40071     -1.1 1.012e+04 4.052e-10
 79.44117      0.8 1.003e+04 3.792e-10
 79.46915      2.7 1.002e+04 3.600e-10
 79.48938      2.8 9.907e+03 3.064e-10
 79.52209      4.9 9.877e+03 2.879e-10
 79.56255      6.9 9.872e+03 2.814e-10
 79.60301      9.0 9.930e+03 2.826e-10
 79.63063     11.0 1.002e+04 3.048e-10
 79.65086     11.1 9.976e+03 2.664e-10
 79.68393     13.2 1.018e+04 3.169e-10
 79.72439     15.5 1.037e+04 3.706e-10
 79.75494     17.6 1.050e+04 4.023e-10
 79.77517     17.9 1.024e+04 3.228e-10
 79.79212     19.8 1.027e+04 3.561e-10
 79.81235     20.0 1.033e+04 3.386e-10
 79.84577     22.1 1.034e+04 3.445e-10
 79.88623     24.2 1.041e+04 3.396e-10
 79.92668     25.9 1.052e+04 3.361e-10
 79.95351     27.0 1.075e+04 3.136e-10
 79.96353     27.2 1.073e+04 2.669e-10
 79.96838     27.1 1.074e+04 2.785e-10
 79.97849     27.1 1.079e+04 3.252e-10
 79.99729     27.4 1.090e+04 4.411e-10
 80.01752     27.6 1.110e+04 5.972e-10
 80.03415     28.1 1.137e+04 8.142e-10
 80.04427     27.8 1.147e+04 8.346e-10
 80.05798     28.5 1.182e+04 1.154e-09
 80.07821     29.5 1.219e+04 1.482e-09
 80.09844     30.4 1.253e+04 1.687e-09
 80.11490     31.1 1.268e+04 1.728e-09
 80.12501     31.0 1.278e+04 1.759e-09
 80.13890     31.5 1.277e+04 1.544e-09
 80.15913     31.8 1.264e+04 1.298e-09
 80.17190     32.0 1.250e+04 1.111e-09
 80.18201     31.7 1.256e+04 1.136e-09
 80.19564     31.6 1.252e+04 1.011e-09
 80.20576     31.2 1.243e+04 9.045e-10
 80.21982     31.3 1.241e+04 8.644e-10
 80.24005     31.1 1.300e+04 9.583e-10
 80.26028     30.4 1.384e+04 1.228e-09
 80.27638     29.8 1.418e+04 1.917e-09
 80.28650     29.8 1.427e+04 1.638e-09
 80.30074     29.8 1.465e+04 2.739e-09
 80.32097     30.5 1.507e+04 4.153e-09
 80.34120     31.5 1.593e+04 6.182e-09
 80.35713     32.5 1.678e+04 8.749e-09
 80.36724     31.3 1.725e+04 9.013e-09
 80.37542     31.4 1.822e+04 1.257e-08
 80.38553     30.4 1.927e+04 1.750e-08
 80.39678     30.9 1.893e+04 1.739e-08
 80.40246     31.0 1.887e+04 1.814e-08
 80.40752     30.4 1.941e+04 2.344e-08
 80.41696     31.0 1.898e+04 2.644e-08
 80.42708     31.6 1.882e+04 2.654e-08
 80.43719     32.5 1.842e+04 2.429e-08
 80.44283     33.0 1.836e+04 2.177e-08
 80.44789     33.2 1.887e+04 2.547e-08
 80.46253     33.9 1.873e+04 1.881e-08
 80.48281     35.2 1.729e+04 1.023e-08
 80.50304     35.7 1.622e+04 6.187e-09
 80.51861     35.5 1.504e+04 4.145e-09
 80.52873     34.9 1.497e+04 4.051e-09
 80.54350     35.3 1.378e+04 2.947e-09
 80.56373     36.2 1.323e+04 2.262e-09
 80.57893     37.4 1.291e+04 2.000e-09
 80.58905     37.4 1.284e+04 2.000e-09
 80.59945     38.9 1.255e+04 1.836e-09
 80.61978     38.7 1.239e+04 1.727e-09
 80.65496     41.4 1.198e+04 1.535e-09
 80.69542     44.3 1.157e+04 1.288e-09
 80.73588     46.8 1.125e+04 1.061e-09
 80.76104     49.0 1.102e+04 8.685e-10
 80.78127     49.6 1.112e+04 9.433e-10
 80.81680     51.8 1.098e+04 8.424e-10
 80.85726     54.1 1.080e+04 7.843e-10
 80.89772     56.6 1.062e+04 7.330e-10
 80.92252     59.2 1.048e+04 6.916e-10
 80.94275     60.0 1.084e+04 8.229e-10
 80.96842     61.9 1.057e+04 7.470e-10
 80.98597     62.8 1.065e+04 7.668e-10
 80.99609     62.8 1.064e+04 7.680e-10
 81.00307     64.1 1.060e+04 7.833e-10
 81.01319     64.5 1.079e+04 8.654e-10
 81.02901     65.8 1.081e+04 9.147e-10
 81.04924     67.2 1.090e+04 9.984e-10
 81.06947     68.5 1.109e+04 1.122e-09
 81.08381     69.7 1.139e+04 1.303e-09
 81.09393     70.1 1.152e+04 1.354e-09
 81.10993     71.2 1.196e+04 1.631e-09
 81.13016     72.2 1.229e+04 1.951e-09
 81.15039     73.4 1.251e+04 2.281e-09
 81.16456     74.8 1.263e+04 2.598e-09
 81.17467     75.0 1.292e+04 2.693e-09
 81.18949     76.5 1.324e+04 3.183e-09
 81.19960     76.5 1.325e+04 3.131e-09
 81.21108     77.9 1.352e+04 3.626e-09
 81.23131     79.3 1.365e+04 4.000e-09
 81.24530     80.8 1.375e+04 4.251e-09
 81.25541     81.0 1.413e+04 4.584e-09
 81.27177     82.3 1.440e+04 5.085e-09
 81.29200     83.4 1.445e+04 5.179e-09
 81.31223     84.5 1.436e+04 5.013e-09
 81.32604     85.5 1.430e+04 4.814e-09
 81.33616     85.6 1.470e+04 5.285e-09
 81.35269     86.0 1.494e+04 5.536e-09
 81.37292     86.1 1.523e+04 6.060e-09
 81.39301     86.5 1.557e+04 6.903e-09
 81.40312     86.7 1.524e+04 6.440e-09
 81.40679     87.6 1.555e+04 7.232e-09
 81.41690     87.5 1.614e+04 8.528e-09
 81.43361     88.2 1.637e+04 9.338e-09
 81.45384     89.0 1.620e+04 8.937e-09
 81.47407     90.3 1.559e+04 7.476e-09
 81.48753     91.6 1.483e+04 5.576e-09
 81.49764     91.1 1.520e+04 6.257e-09
 81.51453     92.1 1.432e+04 4.464e-09
 81.53476     92.7 1.332e+04 2.933e-09
 81.55499     93.0 1.226e+04 1.893e-09
 81.56827     93.3 1.126e+04 1.252e-09
 81.57839     93.0 1.143e+04 1.370e-09
 81.59545     93.3 1.059e+04 9.420e-10
 81.60664     93.7 9.920e+03 6.825e-10
 81.61676     93.6 9.703e+03 6.307e-10
 81.63591     94.2 9.257e+03 5.068e-10
 81.64901     95.0 8.987e+03 4.371e-10
 81.65913     95.0 9.108e+03 4.677e-10
 81.67637     95.6 8.888e+03 4.124e-10
 81.69660     96.2 8.732e+03 3.848e-10
 81.71683     97.0 8.676e+03 3.805e-10
 81.72976     97.8 8.684e+03 3.825e-10
 81.73987     97.6 8.732e+03 3.921e-10
 81.75729     98.2 8.753e+03 3.974e-10
 81.77752     98.7 8.821e+03 4.110e-10
 81.79775     99.1 8.928e+03 4.336e-10
 81.81016     99.3 9.070e+03 4.673e-10
 81.81280     99.0 9.270e+03 5.369e-10
 81.82062     98.9 9.395e+03 5.812e-10
 81.83821     98.7 9.578e+03 6.483e-10
 81.85844     98.2 9.905e+03 7.592e-10
 81.87867     97.1 1.048e+04 9.633e-10
 81.89124     95.3 1.124e+04 1.303e-09
 81.90136     94.8 1.149e+04 1.388e-09
 81.91912     92.9 1.215e+04 1.841e-09
 81.93935     91.3 1.257e+04 2.254e-09
 81.95958     90.0 1.270e+04 2.299e-09
 81.97199     88.6 1.257e+04 2.214e-09
 81.98210     87.7 1.264e+04 2.093e-09
 82.00004     86.2 1.235e+04 1.788e-09
 82.01368     84.3 1.213e+04 1.529e-09
 82.02379     82.5 1.245e+04 1.583e-09
 82.04050     80.3 1.250e+04 1.541e-09
 82.05273     78.6 1.255e+04 1.575e-09
 82.06284     79.2 1.257e+04 1.626e-09
 82.08096     78.6 1.274e+04 1.781e-09
 82.10119     78.6 1.295e+04 2.032e-09
 82.12142     78.9 1.319e+04 2.269e-09
 82.13347     79.5 1.332e+04 2.288e-09
 82.14359     80.2 1.358e+04 2.482e-09
 82.16188     80.9 1.360e+04 2.400e-09
 82.18211     81.7 1.354e+04 2.089e-09
 82.20234     82.1 1.336e+04 1.800e-09
 82.21431     83.2 1.292e+04 1.375e-09
 82.21915     85.4 1.339e+04 1.586e-09
 82.22741     83.2 1.288e+04 1.193e-09
 82.24280     83.9 1.273e+04 1.033e-09
 82.26303     85.0 1.229e+04 8.115e-10
 82.28326     85.9 1.200e+04 6.838e-10
 82.29496     87.0 1.156e+04 5.609e-10
 82.30507     87.8 1.166e+04 5.529e-10
 82.32372     88.6 1.142e+04 4.917e-10
 82.34395     90.2 1.109e+04 4.285e-10
 82.36418     90.8 1.103e+04 4.129e-10
 82.37580     92.9 1.077e+04 3.634e-10
 82.39613     94.4 1.092e+04 3.813e-10
 82.43518     97.4 1.069e+04 3.409e-10
 82.47564    100.3 1.048e+04 2.939e-10
 82.51610    103.1 1.025e+04 2.437e-10
 82.53738    105.9 1.002e+04 1.957e-10
 82.55761    107.4 1.024e+04 2.301e-10
 82.59702    110.1 9.983e+03 1.815e-10
 82.62443    112.8 9.755e+03 1.424e-10
 82.64466    113.0 9.786e+03 1.783e-10
 82.67794    115.8 9.577e+03 1.376e-10
 82.69887    118.5 9.432e+03 1.065e-10
 82.71910    119.7 9.621e+03 1.406e-10
 82.75886    122.4 9.482e+03 1.179e-10
 82.79932    125.0 9.375e+03 1.040e-10
 82.83978    127.6 9.297e+03 9.930e-11
 82.86035    130.2 9.294e+03 1.005e-10
 82.88058    131.3 9.495e+03 1.378e-10
 82.92070    133.8 9.489e+03 1.413e-10
 82.96116    136.3 9.492e+03 1.495e-10
 83.00161    138.6 9.496e+03 1.595e-10
 83.03146    141.9 9.736e+03 2.160e-10
 83.05169    142.3 9.529e+03 1.655e-10
 83.08253    144.6 9.514e+03 1.747e-10
 83.12299    146.8 9.544e+03 1.930e-10
 83.16310    149.0 9.640e+03 2.242e-10
 83.18333    149.8 9.883e+03 2.659e-10
 83.20391    151.7 1.002e+04 3.138e-10
 83.24437    153.7 1.016e+04 3.699e-10
 83.28483    155.6 1.021e+04 3.966e-10
 83.32458    157.6 1.020e+04 3.915e-10
 83.34472    158.2 1.028e+04 4.203e-10
 83.35544    159.7 1.023e+04 3.921e-10
 83.37567    160.1 1.020e+04 3.770e-10
 83.40611    161.9 1.010e+04 3.397e-10
 83.43850    163.5 9.930e+03 2.970e-10
 83.45873    163.6 1.004e+04 3.156e-10
 83.48607    164.8 9.898e+03 2.909e-10
 83.50620    165.3 9.929e+03 3.100e-10
 83.51728    166.0 9.920e+03 3.122e-10
 83.53751    166.5 9.939e+03 3.214e-10
 83.55774    167.2 1.004e+04 3.622e-10
 83.57673    167.8 1.027e+04 4.493e-10
 83.58685    168.0 1.042e+04 4.954e-10
 83.59820    168.5 1.068e+04 6.242e-10
 83.61843    169.2 1.096e+04 7.860e-10
 83.63866    169.8 1.124e+04 9.517e-10
 83.65194    170.4 1.147e+04 1.053e-09
 83.66064    169.8 1.146e+04 9.967e-10
 83.66759    169.8 1.154e+04 1.025e-09
 83.67912    170.1 1.154e+04 1.022e-09
 83.69935    170.3 1.149e+04 9.963e-10
 83.71958    170.2 1.133e+04 9.243e-10
 83.73822    170.2 1.111e+04 8.284e-10
 83.74833    170.3 1.120e+04 8.517e-10
 83.76004    170.2 1.094e+04 7.306e-10
 83.78027    169.8 1.067e+04 6.088e-10
 83.80050    169.3 1.036e+04 4.841e-10
 83.81896    168.8 1.010e+04 4.100e-10
 83.82908    169.0 1.015e+04 4.021e-10
 83.84096    168.8 9.839e+03 3.444e-10
 83.85546    168.7 9.739e+03 3.318e-10
 83.86557    167.7 9.839e+03 3.456e-10
 83.89163    168.2 9.723e+03 3.311e-10
 83.93219    169.1 9.516e+03 3.195e-10
 83.97053    170.2 9.451e+03 3.205e-10
 83.99066    170.2 9.606e+03 3.650e-10
 84.00279    170.9 9.598e+03 3.740e-10
 84.02302    171.2 9.634e+03 3.859e-10
 84.04325    171.8 9.666e+03 4.006e-10
 84.05897    172.2 9.735e+03 4.184e-10
 84.06680    172.1 9.849e+03 4.414e-10
 84.07130    172.3 1.041e+04 6.379e-10
 84.08371    172.7 1.050e+04 6.850e-10
 84.10394    173.0 1.053e+04 7.016e-10
 84.12417    173.3 1.050e+04 6.961e-10
 84.14193    173.5 1.041e+04 6.755e-10
 84.15205    173.3 1.123e+04 1.063e-09
 84.16463    173.3 1.120e+04 1.027e-09
 84.18486    173.3 1.115e+04 9.830e-10
 84.20509    173.1 1.113e+04 9.441e-10
 84.22268    172.7 1.115e+04 9.227e-10
 84.23279    170.9 1.319e+04 1.904e-09
 84.24555    170.5 1.325e+04 1.972e-09
 84.26249    170.2 1.330e+04 2.070e-09
 84.27261    169.7 1.349e+04 2.055e-09
 84.28601    169.4 1.362e+04 2.246e-09
 84.30342    169.3 1.375e+04 2.480e-09
 84.31353    167.7 1.517e+04 4.619e-09
 84.32647    167.8 1.523e+04 4.954e-09
 84.34670    168.1 1.539e+04 5.435e-09
 84.36693    168.5 1.573e+04 6.134e-09
 84.38416    168.7 1.629e+04 7.242e-09
 84.39428    166.3 1.783e+04 8.442e-09
 84.40739    165.8 1.866e+04 1.021e-08
 84.42762    165.1 1.944e+04 1.228e-08
 84.44785    164.4 2.015e+04 1.499e-08
 84.46490    163.3 2.111e+04 1.903e-08
 84.47295    159.9 2.059e+04 1.380e-08
 84.47613    159.1 2.041e+04 1.252e-08
 84.48831    158.2 2.066e+04 9.774e-09
 84.50854    156.1 2.069e+04 4.823e-09
 84.52877    152.5 1.890e+04 2.005e-09
 84.54565    148.6 1.539e+04 1.279e-09
 84.55576    145.4 1.067e+04 7.818e-10
 84.56923    145.2 1.077e+04 8.475e-10
 84.58946    145.3 1.075e+04 8.771e-10
 84.60969    145.9 1.053e+04 9.297e-10
 84.62639    146.4 1.035e+04 8.926e-10
 84.63660    146.6 9.832e+03 6.062e-10
 84.65961    148.2 9.870e+03 5.654e-10
 84.67984    146.0 9.375e+03 4.359e-10
 84.70092    148.2 9.409e+03 4.465e-10
 84.74138    150.3 9.475e+03 4.666e-10
 84.77796    152.4 9.657e+03 5.081e-10
 84.79819    151.4 9.105e+03 3.684e-10
 84.82230    153.3 9.400e+03 4.448e-10
 84.86276    155.3 9.756e+03 5.376e-10
 84.90322    157.1 1.009e+04 6.403e-10
 84.93944    158.8 1.044e+04 7.392e-10
 84.95967    157.0 9.705e+03 5.061e-10
 84.98414    158.1 9.953e+03 5.077e-10
 85.02460    158.9 9.993e+03 5.008e-10
 85.06505    159.1 9.858e+03 4.433e-10
 85.08678    158.1 9.675e+03 4.020e-10
 85.09680    155.9 9.461e+03 3.894e-10
 85.11085    155.8 9.452e+03 3.978e-10
 85.12096    154.1 9.535e+03 4.128e-10
 85.13566    154.2 9.612e+03 4.560e-10
 85.15589    154.4 9.768e+03 5.158e-10
 85.17612    154.3 9.989e+03 5.902e-10
 85.19159    153.6 1.052e+04 7.054e-10
 85.20171    151.3 1.085e+04 7.363e-10
 85.21658    148.9 1.214e+04 1.013e-09
 85.23681    145.3 1.360e+04 1.679e-09
 85.25704    141.3 1.481e+04 3.061e-09
 85.27233    138.0 1.590e+04 5.618e-09
 85.28245    135.9 1.548e+04 5.296e-09
 85.29020    133.5 1.687e+04 8.639e-09
 85.30031    131.3 1.716e+04 6.756e-09
 85.31773    127.4 1.786e+04 6.351e-09
 85.33796    122.0 1.832e+04 4.827e-09
 85.35308    113.8 1.748e+04 2.959e-09
 85.36319    109.3 1.468e+04 2.056e-09
 85.37842     98.8 1.421e+04 2.122e-09
 85.39865     88.3 1.475e+04 2.876e-09
 85.41888     81.1 1.469e+04 3.813e-09
 85.43382     76.6 1.442e+04 3.740e-09
 85.44394     75.8 1.451e+04 3.837e-09
 85.45934     70.2 1.488e+04 3.884e-09
 85.47957     60.2 1.670e+04 4.312e-09
 85.49372     49.9 1.701e+04 5.587e-09
 85.50383     46.5 1.733e+04 6.628e-09
 85.51456     39.1 1.774e+04 8.706e-09
 85.52468     38.3 1.816e+04 8.643e-09
 85.54026     29.3 2.026e+04 1.187e-08
 85.56049     21.6 1.960e+04 1.187e-08
 85.58072     17.3 1.704e+04 8.900e-09
 85.59531     15.2 1.540e+04 5.981e-09
 85.60542     16.2 1.620e+04 8.430e-09
 85.62118     15.9 1.563e+04 4.722e-09
 85.64141     12.1 1.525e+04 2.457e-09
 85.66164      7.1 1.264e+04 1.105e-09
 85.67605      4.0 1.025e+04 6.764e-10
 85.68616      3.8 1.025e+04 7.113e-10
 85.69724      4.0 1.003e+04 5.570e-10
 85.70735      3.9 9.931e+03 4.926e-10
 85.72233      4.1 9.787e+03 4.180e-10
 85.74678      3.1 9.722e+03 3.300e-10
 85.76701      3.3 9.693e+03 3.350e-10
 85.79323      2.9 9.489e+03 3.174e-10
 85.83379      3.1 9.381e+03 3.210e-10
 85.87425      3.7 9.371e+03 2.993e-10
 85.90095      4.4 9.226e+03 2.431e-10
 85.91483      4.4 9.251e+03 2.432e-10
 85.92859      4.3 9.308e+03 2.486e-10
 85.95517      4.5 9.093e+03 1.945e-10
 85.99563      4.4 8.937e+03 1.637e-10
 86.03609      4.8 8.793e+03 1.631e-10
 86.06985      5.3 8.842e+03 1.715e-10
 86.09007      5.3 8.999e+03 1.867e-10
 86.11700      5.3 9.442e+03 2.408e-10
 86.15746      4.6 9.839e+03 3.360e-10
 86.18771      4.0 1.017e+04 5.234e-10
 86.20784      4.2 1.064e+04 6.853e-10
 86.22807      4.1 1.109e+04 8.916e-10
 86.24125      4.1 1.150e+04 1.079e-09
 86.25137      3.9 1.176e+04 1.197e-09
 86.26853      3.7 1.198e+04 1.365e-09
 86.28876      3.3 1.215e+04 1.422e-09
 86.30779      2.7 1.220e+04 1.440e-09
 86.31791      3.1 1.222e+04 1.483e-09
 86.32199      2.6 1.234e+04 1.461e-09
 86.33211      2.0 1.260e+04 1.613e-09
 86.34945      1.5 1.229e+04 1.464e-09
 86.36968      1.3 1.197e+04 1.291e-09
 86.38991      1.1 1.172e+04 9.816e-10
 86.40274      1.5 1.116e+04 8.377e-10
 86.41295      0.9 1.163e+04 9.398e-10
 86.44068      1.4 1.058e+04 4.759e-10
 86.48114      2.1 9.812e+03 2.166e-10
 86.52160      2.5 9.394e+03 1.176e-10
 86.55430      3.1 9.165e+03 8.938e-11
 86.57453      2.8 9.161e+03 8.714e-11
 86.60252      4.4 9.006e+03 8.306e-11
 86.64298      6.3 9.029e+03 8.433e-11
 86.68344      7.9 9.125e+03 8.762e-11
 86.71502      9.3 9.271e+03 9.485e-11
 86.72714     10.2 9.205e+03 9.544e-11
 86.73602      9.9 9.209e+03 9.460e-11
 86.76436     11.1 9.303e+03 1.107e-10
 86.80482     12.4 9.361e+03 1.314e-10
 86.84528     13.6 9.439e+03 1.501e-10
 86.87728     14.6 9.531e+03 1.633e-10
 86.89750     14.2 9.482e+03 1.417e-10
 86.92620     15.0 9.582e+03 1.408e-10
 86.96666     15.5 9.732e+03 1.391e-10
 87.00712     15.3 9.857e+03 1.427e-10
 87.03876     14.5 1.010e+04 1.728e-10
 87.05899     13.3 1.015e+04 1.773e-10
 87.08803     11.7 1.057e+04 3.023e-10
 87.12206      7.9 1.205e+04 8.863e-10
 87.14229     10.6 1.186e+04 7.263e-10
 87.16895      7.5 1.302e+04 1.753e-09
 87.20025      4.9 1.352e+04 2.028e-09
 87.22048      2.7 1.310e+04 1.279e-09
 87.24987     -4.0 1.212e+04 5.795e-10
 87.29033     -9.5 1.018e+04 4.031e-10
 87.33079    -10.9 1.010e+04 3.613e-10
 87.36173    -13.3 1.020e+04 3.113e-10
 87.38196    -14.8 1.023e+04 3.339e-10
 87.41171    -17.2 1.039e+04 4.459e-10
 87.45217    -18.1 1.076e+04 6.269e-10
 87.49263    -18.7 1.092e+04 7.144e-10
 87.52322    -19.2 1.090e+04 7.384e-10
 87.53945    -19.9 1.074e+04 6.748e-10
 87.54933    -21.5 1.052e+04 5.795e-10
 87.57355    -21.0 1.028e+04 5.651e-10
 87.61401    -20.2 9.977e+03 4.458e-10
 87.65447    -19.5 9.551e+03 3.214e-10
 87.68471    -18.4 9.166e+03 2.472e-10
 87.70493    -18.0 9.256e+03 2.793e-10
 87.73539    -16.2 8.917e+03 2.146e-10
 87.77585    -14.2 8.575e+03 1.542e-10
 87.81631    -12.3 8.303e+03 1.076e-10
 87.84619    -10.5 8.107e+03 8.045e-11
 87.86642    -10.2 8.158e+03 8.950e-11
 87.89723     -8.3 7.973e+03 7.579e-11
 87.93613     -6.0 7.830e+03 6.833e-11
 87.95636     -5.9 7.726e+03 5.831e-11
 87.97815     -3.6 7.687e+03 5.216e-11
 88.00768     -1.6 7.624e+03 4.771e-11
 88.02791     -1.0 7.604e+03 4.794e-11
 88.05907      1.0 7.599e+03 4.673e-11
 88.09953      2.5 7.660e+03 5.309e-11
 88.13998      4.5 7.683e+03 6.852e-11
 88.16916      6.7 7.757e+03 8.771e-11
 88.18939      7.4 7.713e+03 8.023e-11
 88.22090      9.7 7.822e+03 9.436e-11
 88.26136     11.9 7.908e+03 1.029e-10
 88.30182     13.9 7.931e+03 1.067e-10
 88.33065     15.9 7.911e+03 1.057e-10
 88.35088     16.5 8.009e+03 1.203e-10
 88.36340     18.6 8.036e+03 1.303e-10
 88.38363     19.1 8.026e+03 1.291e-10
 88.42320     21.3 8.083e+03 1.388e-10
 88.46366     23.4 8.175e+03 1.487e-10
 88.49213     25.4 8.341e+03 1.640e-10
 88.51236     25.8 8.755e+03 2.275e-10
 88.54458     27.4 9.109e+03 2.826e-10
 88.58504     28.2 9.423e+03 3.773e-10
 88.61529     28.9 9.692e+03 5.395e-10
 88.63542     29.9 9.962e+03 6.837e-10
 88.65343     31.1 1.029e+04 8.178e-10
 88.66354     31.2 1.064e+04 8.997e-10
 88.67588     32.0 1.076e+04 9.062e-10
 88.69611     32.8 1.068e+04 8.627e-10
 88.71634     33.5 1.052e+04 7.735e-10
 88.73417     34.0 1.035e+04 6.660e-10
 88.74428     33.3 1.029e+04 6.344e-10
 88.75680     33.6 1.012e+04 5.457e-10
 88.77024     33.9 9.995e+03 4.948e-10
 88.78035     34.2 9.814e+03 4.607e-10
 88.79726     34.7 9.807e+03 4.615e-10
 88.81491     35.3 9.847e+03 4.754e-10
 88.83524     35.0 9.760e+03 4.451e-10
 88.86826     36.6 9.759e+03 4.557e-10
 88.90872     38.1 9.829e+03 4.470e-10
 88.94918     39.5 9.932e+03 4.405e-10
 88.97659     40.5 1.006e+04 4.529e-10
 88.99682     39.3 9.520e+03 2.803e-10
 89.03010     39.9 9.664e+03 3.018e-10
 89.07056     40.7 1.020e+04 4.226e-10
 89.11102     41.7 1.079e+04 6.130e-10
 89.13798     42.0 1.093e+04 6.914e-10
 89.14800     41.8 1.051e+04 5.511e-10
 89.16139     42.4 1.066e+04 6.053e-10
 89.17728     43.1 1.078e+04 6.607e-10
 89.18739     43.2 1.069e+04 6.324e-10
 89.20185     44.0 1.075e+04 6.532e-10
 89.21863     44.8 1.080e+04 6.611e-10
 89.22874     44.4 1.033e+04 4.333e-10
 89.24231     45.0 1.031e+04 4.222e-10
 89.26254     45.5 1.026e+04 4.131e-10
 89.28277     46.0 1.019e+04 4.067e-10
 89.29937     46.5 1.013e+04 4.037e-10
 89.31970     46.5 9.795e+03 2.909e-10
 89.35377     47.9 9.836e+03 3.152e-10
 89.38021     48.8 9.981e+03 3.723e-10
 89.38710     48.8 9.861e+03 3.373e-10
 89.39091     49.2 9.826e+03 3.104e-10
 89.40415     49.7 9.896e+03 3.190e-10
 89.42438     50.5 9.969e+03 3.345e-10
 89.44461     51.0 1.007e+04 3.593e-10
 89.46086     51.6 1.035e+04 4.199e-10
 89.47097     51.2 1.019e+04 3.653e-10
 89.48507     51.1 1.068e+04 4.834e-10
 89.50530     50.8 1.141e+04 7.161e-10
 89.52553     50.3 1.232e+04 1.174e-09
 89.54160     49.6 1.337e+04 2.049e-09
 89.55171     49.1 1.355e+04 2.091e-09
 89.56599     48.2 1.484e+04 3.755e-09
 89.58431     48.0 1.586e+04 6.346e-09
 89.59443     48.3 1.502e+04 4.253e-09
 89.60645     48.3 1.580e+04 6.633e-09
 89.62234     48.6 1.610e+04 8.251e-09
 89.63246     48.2 1.536e+04 5.345e-09
 89.64691     48.3 1.522e+04 5.115e-09
 89.66714     48.4 1.472e+04 4.101e-09
 89.68737     48.1 1.402e+04 2.753e-09
 89.70308     47.3 1.325e+04 1.721e-09
 89.71320     45.1 1.257e+04 8.600e-10
 89.72783     44.0 1.150e+04 5.720e-10
 89.74806     43.4 1.070e+04 4.231e-10
 89.76829     43.3 1.029e+04 3.416e-10
 89.78383     43.7 9.982e+03 2.830e-10
 89.80416     42.0 9.450e+03 2.631e-10
 89.83929     43.1 9.155e+03 2.538e-10
 89.87975     44.5 9.074e+03 2.600e-10
 89.92021     46.0 8.987e+03 2.939e-10
 89.94551     47.6 9.130e+03 3.639e-10
 89.96574     47.7 9.755e+03 5.136e-10
 89.99091     49.0 9.669e+03 5.114e-10
 90.00146     50.0 9.645e+03 5.096e-10
 90.01158     50.4 9.699e+03 5.052e-10
 90.02606     51.5 9.696e+03 4.894e-10
 90.03617     51.1 9.918e+03 5.257e-10
 90.05151     52.1 9.893e+03 4.917e-10
 90.07174     53.1 9.818e+03 4.493e-10
 90.09197     53.8 9.837e+03 4.232e-10
 90.10690     55.2 9.688e+03 3.651e-10
 90.12722     54.4 1.011e+04 4.573e-10
 90.16296     56.6 9.721e+03 3.462e-10
 90.20342     59.1 9.374e+03 2.633e-10
 90.24388     61.5 9.550e+03 2.260e-10
 90.26838     63.1 9.698e+03 2.123e-10
 90.27840     58.1 2.674e+04 2.296e-10
 90.29426     51.4 4.889e+04 2.752e-10
 90.30669     45.1 6.473e+04 9.773e-11
 90.31092     40.5 6.334e+04 2.021e-10
 90.31362     36.4 5.051e+04 2.831e-09
 90.31945     36.3 5.046e+04 3.920e-09
 90.32957     37.9 3.624e+04 1.399e-08
 90.33968     39.2 2.772e+04 5.271e-08
 90.34893     41.7 2.431e+04 1.132e-07
 90.35399     42.5 2.021e+04 8.108e-07
 90.35991     45.7 2.027e+04 1.006e-06
 90.36747     46.9 2.040e+04 9.861e-07
 90.37160     47.6 2.035e+04 1.069e-06
 90.37413     47.4 1.968e+04 1.700e-06
 90.37756     48.1 1.944e+04 2.171e-06
 90.38262     48.2 1.922e+04 2.855e-06
 90.38768     47.5 1.866e+04 5.894e-06
 90.39178     44.1 1.728e+04 2.174e-05
 90.39431     45.1 1.792e+04 1.361e-05
 90.39779     38.4 1.836e+04 1.484e-05
 90.40285     29.3 1.969e+04 7.288e-06
 90.40791     21.3 2.227e+04 2.071e-06
 90.41088     16.5 2.573e+04 6.349e-07
 90.41241     23.1 2.370e+04 1.132e-06
 90.41450     24.1 2.475e+04 7.772e-07
 90.42058     24.4 2.706e+04 6.138e-07
 90.42967     16.4 5.075e+04 2.013e-08
 90.43473     16.9 5.158e+04 1.493e-08
 90.44083     -3.3 2.563e+04 7.859e-09
 90.45095     -7.5 1.607e+04 6.827e-09
 90.46106     -6.1 1.603e+04 6.339e-09
 90.47005     -3.1 1.565e+04 5.406e-09
 90.47510     -2.2 1.563e+04 5.262e-09
 90.48129     -1.9 1.554e+04 5.120e-09
 90.49141      0.1 1.500e+04 4.203e-09
 90.50152      0.4 1.503e+04 4.064e-09
 90.51047      2.1 1.458e+04 3.315e-09
 90.52063      3.0 1.430e+04 2.876e-09
 90.53702      4.7 1.387e+04 2.266e-09
 90.55725      6.4 1.331e+04 1.801e-09
 90.57748      8.2 1.281e+04 1.453e-09
 90.59126     10.0 1.235e+04 1.172e-09
 90.60137     10.0 1.192e+04 8.829e-10
 90.61202     11.8 1.162e+04 7.319e-10
 90.62213     12.1 1.193e+04 9.494e-10
 90.63817     13.7 1.171e+04 8.222e-10
 90.65840     15.3 1.160e+04 7.598e-10
 90.67200     16.7 1.153e+04 7.410e-10
 90.68212     15.7 1.158e+04 7.317e-10
 90.69886     16.3 1.175e+04 7.378e-10
 90.71909     16.8 1.230e+04 7.822e-10
 90.73932     17.2 1.306e+04 9.347e-10
 90.75274     17.6 1.362e+04 1.220e-09
 90.76286     15.2 1.480e+04 2.506e-09
 90.77978     15.9 1.503e+04 3.222e-09
 90.80001     16.8 1.527e+04 4.032e-09
 90.81554     17.6 1.550e+04 4.874e-09
 90.82565     17.8 1.576e+04 5.602e-09
 90.83349     18.7 1.575e+04 5.925e-09
 90.84360     17.8 1.589e+04 6.454e-09
 90.86070     19.0 1.574e+04 6.318e-09
 90.88093     20.3 1.538e+04 5.699e-09
 90.90116     21.9 1.484e+04 4.539e-09
 90.91423     23.3 1.428e+04 3.208e-09
 90.92434     22.0 1.347e+04 1.769e-09
 90.94162     22.3 1.277e+04 1.128e-09
 90.96185     22.3 1.200e+04 7.377e-10
 90.98208     22.4 1.127e+04 5.243e-10
 90.99497     22.9 1.072e+04 4.118e-10
 91.00509     21.8 1.045e+04 3.396e-10
 91.01905     22.4 1.044e+04 3.266e-10
 91.02917     22.7 1.042e+04 3.152e-10
 91.05298     24.9 1.033e+04 3.170e-10
 91.07591     27.5 1.017e+04 2.962e-10
 91.09614     26.7 1.018e+04 2.937e-10
 91.13400     29.1 1.014e+04 2.888e-10
 91.17446     31.4 1.014e+04 2.878e-10
 91.21265     33.5 1.012e+04 2.827e-10
 91.23288     34.3 1.005e+04 2.481e-10
 91.23740     36.3 1.001e+04 2.386e-10
 91.25763     35.5 1.020e+04 2.623e-10
 91.29583     37.4 1.014e+04 2.416e-10
 91.33629     39.3 1.016e+04 2.354e-10
 91.37675     41.1 1.020e+04 2.389e-10
 91.39888     42.7 1.033e+04 2.599e-10
 91.41911     41.5 1.040e+04 2.780e-10
 91.45767     43.0 1.057e+04 3.330e-10
 91.49813     44.4 1.071e+04 3.995e-10
 91.53859     45.9 1.084e+04 4.506e-10
 91.56037     47.3 1.076e+04 4.641e-10
 91.58060     46.7 1.052e+04 3.829e-10
 91.61951     48.3 1.029e+04 3.105e-10
 91.65997     50.6 9.986e+03 2.359e-10
 91.70043     52.4 9.720e+03 1.660e-10
 91.72185     54.1 9.510e+03 1.125e-10
 91.74208     53.8 9.329e+03 7.607e-11
 91.78135     55.3 9.212e+03 5.632e-11
 91.82181     56.9 9.037e+03 5.070e-11
 91.86227     58.8 9.002e+03 5.073e-11
 91.88334     60.8 8.989e+03 5.128e-11
 91.90357     60.9 8.937e+03 4.421e-11
 91.94319     63.0 8.929e+03 4.581e-11
 91.98365     65.1 8.939e+03 4.761e-11
 92.02411     67.1 8.960e+03 4.899e-11
 92.04483     69.1 8.994e+03 5.016e-11
 92.04745     69.2 8.955e+03 4.336e-11
 92.06719     69.9 8.942e+03 4.305e-11
 92.10503     71.7 8.985e+03 4.603e-11
 92.14549     73.4 9.045e+03 5.306e-11
 92.18595     75.0 9.149e+03 6.771e-11
 92.22640     76.8 9.306e+03 9.672e-11
 92.26686     78.4 9.550e+03 1.430e-10
 92.30732     79.7 9.829e+03 1.988e-10
 92.34757     80.8 1.009e+04 2.487e-10
 92.36780     80.8 1.010e+04 2.616e-10
 92.38824     81.1 1.028e+04 3.117e-10
 92.42870     81.2 1.039e+04 3.579e-10
 92.45399     81.2 1.046e+04 4.082e-10
 92.47422     82.1 1.068e+04 4.963e-10
 92.50906     81.9 1.077e+04 5.620e-10
 92.52919     81.2 1.079e+04 6.028e-10
 92.54998     81.1 1.080e+04 6.111e-10
 92.59054     80.7 1.063e+04 5.587e-10
 92.63100     80.2 1.024e+04 4.388e-10
 92.67054     79.7 9.780e+03 3.394e-10
 92.69077     79.9 9.748e+03 3.359e-10
 92.71192     79.1 9.700e+03 3.249e-10
 92.75238     78.1 9.850e+03 3.491e-10
 92.78263     76.5 1.024e+04 4.481e-10
 92.80276     75.8 1.039e+04 5.112e-10
 92.82299     74.1 1.084e+04 7.059e-10
 92.84195     73.3 1.104e+04 8.320e-10
 92.85216     74.3 1.091e+04 7.508e-10
 92.86103     71.6 1.095e+04 8.088e-10
 92.88126     72.3 1.147e+04 1.015e-09
 92.91422     69.6 1.120e+04 8.824e-10
 92.95468     67.3 1.039e+04 5.234e-10
 92.99351     65.4 9.245e+03 2.287e-10
 93.01374     66.0 9.099e+03 1.902e-10
 93.03560     64.0 7.916e+03 7.000e-11
 93.07606     63.1 7.742e+03 5.050e-11
 93.11652     63.2 7.681e+03 4.952e-11
 93.15500     64.0 7.674e+03 4.977e-11
 93.17523     64.5 7.661e+03 4.830e-11
 93.19744     65.5 7.679e+03 5.154e-11
 93.23789     66.5 7.778e+03 6.437e-11
 93.26807     67.4 8.008e+03 9.295e-11
 93.28830     67.3 8.172e+03 1.113e-10
 93.31649     68.1 8.527e+03 1.704e-10
 93.33671     68.6 8.527e+03 1.720e-10
 93.35927     69.4 8.876e+03 2.418e-10
 93.39973     69.9 9.110e+03 2.759e-10
 93.44019     70.1 9.121e+03 2.714e-10
 93.47797     70.4 9.055e+03 2.421e-10
 93.49820     71.0 9.056e+03 2.417e-10
 93.52111     71.3 8.881e+03 1.810e-10
 93.56157     71.6 8.655e+03 1.221e-10
 93.60203     71.8 8.450e+03 9.181e-11
 93.63946     72.3 8.414e+03 9.010e-11
 93.65969     72.8 8.411e+03 8.941e-11
 93.67510     73.7 8.423e+03 9.263e-11
 93.69533     73.8 8.419e+03 8.993e-11
 93.72341     74.8 8.541e+03 1.049e-10
 93.76387     75.9 8.711e+03 1.292e-10
 93.80094     76.9 8.853e+03 1.535e-10
 93.82117     77.3 9.015e+03 1.796e-10
 93.84479     78.1 9.108e+03 1.779e-10
 93.88525     78.8 9.087e+03 1.705e-10
 93.92571     79.4 8.995e+03 1.564e-10
 93.96243     79.9 8.909e+03 1.430e-10
 93.98266     80.3 8.868e+03 1.244e-10
 94.00663     80.7 8.773e+03 1.081e-10
 94.04709     81.3 8.801e+03 1.032e-10
 94.08214     81.9 8.800e+03 1.036e-10
 94.10237     82.2 9.000e+03 1.093e-10
 94.12392     82.9 9.026e+03 1.121e-10
 94.14414     83.5 8.972e+03 9.940e-11
 94.16847     84.4 9.002e+03 1.084e-10
 94.20893     85.3 9.016e+03 1.225e-10
 94.24939     86.3 9.031e+03 1.396e-10
 94.28540     87.2 9.064e+03 1.594e-10
 94.30563     88.2 8.954e+03 1.437e-10
 94.33030     89.2 8.994e+03 1.608e-10
 94.37076     90.1 9.060e+03 1.809e-10
 94.41122     91.1 9.148e+03 2.048e-10
 94.44689     91.9 9.271e+03 2.387e-10
 94.46712     92.9 9.067e+03 1.935e-10
 94.48918     93.7 9.193e+03 2.282e-10
 94.50941     94.0 9.126e+03 2.085e-10
 94.53260     94.8 9.228e+03 2.343e-10
 94.57306     95.5 9.395e+03 2.707e-10
 94.60837     96.1 9.625e+03 3.150e-10
 94.62860     97.4 9.534e+03 3.043e-10
 94.65398     97.8 9.829e+03 3.694e-10
 94.69444     97.9 1.009e+04 4.237e-10
 94.73490     97.9 1.026e+04 4.555e-10
 94.76986     97.9 1.036e+04 4.756e-10
 94.79009     99.1 1.044e+04 5.224e-10
 94.81582     99.1 1.054e+04 5.495e-10
 94.85628     99.1 1.064e+04 5.595e-10
 94.89621     99.2 1.065e+04 5.524e-10
 94.91644     99.5 1.078e+04 6.119e-10
 94.93135     99.8 1.073e+04 5.641e-10
 94.95157    100.8 1.087e+04 6.459e-10
 94.97766    101.3 1.076e+04 5.673e-10
 95.01812    102.1 1.050e+04 4.303e-10
 95.05858    103.0 1.014e+04 2.898e-10
 95.09283    103.9 9.712e+03 1.929e-10
 95.11306    105.2 1.011e+04 2.798e-10
 95.13950    106.4 9.679e+03 1.902e-10
 95.17996    107.8 9.277e+03 1.650e-10
 95.22042    109.6 9.209e+03 1.641e-10
 95.25432    111.5 9.199e+03 1.644e-10
 95.27455    112.5 9.279e+03 1.663e-10
 95.30133    114.4 9.248e+03 1.641e-10
 95.32348    116.4 9.238e+03 1.592e-10
 95.34371    117.1 9.382e+03 1.895e-10
 95.38225    119.1 9.464e+03 2.149e-10
 95.41580    121.1 9.600e+03 2.466e-10
 95.43603    121.8 9.920e+03 3.174e-10
 95.46317    123.8 1.006e+04 3.626e-10
 95.50363    126.0 1.030e+04 4.276e-10
 95.52690    126.8 1.039e+04 4.468e-10
 95.53692    127.0 1.046e+04 4.988e-10
 95.55401    127.8 1.059e+04 5.624e-10
 95.57424    128.6 1.071e+04 6.245e-10
 95.58721    129.5 1.083e+04 6.809e-10
 95.59732    129.6 1.090e+04 7.228e-10
 95.61470    130.6 1.097e+04 7.653e-10
 95.63493    131.5 1.107e+04 8.153e-10
 95.65516    132.4 1.115e+04 8.663e-10
 95.66795    133.3 1.124e+04 9.237e-10
 95.67807    133.4 1.110e+04 8.693e-10
 95.69562    134.3 1.114e+04 9.011e-10
 95.71585    135.1 1.117e+04 9.205e-10
 95.73032    135.9 1.117e+04 9.204e-10
 95.74043    135.8 1.105e+04 8.316e-10
 95.74869    136.4 1.100e+04 8.077e-10
 95.75881    136.7 1.083e+04 7.296e-10
 95.78675    137.5 1.063e+04 6.369e-10
 95.82731    139.0 1.033e+04 5.193e-10
 95.86777    140.3 9.834e+03 3.454e-10
 95.90026    141.3 9.291e+03 2.140e-10
 95.92049    142.0 1.049e+04 5.046e-10
 95.94869    142.8 1.049e+04 3.943e-10
 95.97894    143.3 1.018e+04 2.992e-10
 95.99092    143.8 9.824e+03 2.451e-10
 96.00104    143.0 1.049e+04 3.639e-10
 96.01930    143.4 1.045e+04 3.779e-10
 96.03953    143.9 1.042e+04 3.946e-10
 96.05976    144.5 1.033e+04 4.222e-10
 96.07167    145.2 1.027e+04 4.614e-10
 96.08178    145.2 1.158e+04 9.341e-10
 96.10022    146.1 1.133e+04 9.032e-10
 96.12045    147.1 1.114e+04 8.932e-10
 96.13736    148.1 1.102e+04 8.980e-10
 96.14747    148.0 1.152e+04 1.140e-09
 96.15241    149.1 1.136e+04 1.112e-09
 96.16252    149.1 1.186e+04 1.431e-09
 96.18114    150.2 1.165e+04 1.321e-09
 96.20137    151.2 1.152e+04 1.276e-09
 96.22160    152.2 1.151e+04 1.276e-09
 96.23315    153.3 1.150e+04 1.290e-09
 96.24327    153.3 1.171e+04 1.459e-09
 96.26206    154.2 1.169e+04 1.467e-09
 96.28228    155.2 1.169e+04 1.501e-09
 96.30251    156.2 1.173e+04 1.548e-09
 96.31390    157.0 1.182e+04 1.621e-09
 96.32401    157.3 1.171e+04 1.590e-09
 96.34087    158.1 1.177e+04 1.641e-09
 96.35099    157.7 1.176e+04 1.650e-09
 96.36320    158.5 1.181e+04 1.690e-09
 96.38343    159.4 1.190e+04 1.756e-09
 96.39464    160.1 1.204e+04 1.862e-09
 96.40475    160.7 1.170e+04 1.632e-09
 96.42389    161.5 1.190e+04 1.764e-09
 96.44412    162.2 1.215e+04 1.956e-09
 96.46435    162.9 1.246e+04 2.210e-09
 96.47538    163.6 1.278e+04 2.499e-09
 96.48550    164.3 1.232e+04 2.106e-09
 96.50481    165.0 1.264e+04 2.410e-09
 96.52504    165.8 1.294e+04 2.671e-09
 96.54439    166.5 1.309e+04 2.735e-09
 96.55451    166.1 1.282e+04 2.494e-09
 96.55612    166.8 1.287e+04 2.498e-09
 96.56624    167.9 1.249e+04 2.186e-09
 96.58573    168.5 1.254e+04 2.194e-09
 96.60596    169.1 1.253e+04 2.142e-09
 96.62619    169.5 1.247e+04 2.012e-09
 96.63687    169.8 1.251e+04 1.895e-09
 96.64698    171.0 1.219e+04 1.788e-09
 96.66665    171.1 1.219e+04 1.688e-09
 96.68688    171.1 1.224e+04 1.686e-09
 96.70711    170.7 1.242e+04 1.736e-09
 96.71761    170.2 1.276e+04 1.898e-09
 96.72773    171.7 1.223e+04 1.631e-09
 96.74757    171.2 1.258e+04 1.805e-09
 96.75803    170.7 1.296e+04 2.063e-09
 96.76814    170.6 1.345e+04 2.422e-09
 96.78803    170.1 1.376e+04 2.676e-09
 96.79835    169.6 1.375e+04 2.661e-09
 96.80847    170.8 1.432e+04 2.786e-09
 96.82849    170.0 1.448e+04 2.747e-09
 96.84872    169.0 1.438e+04 2.485e-09
 96.86895    167.9 1.385e+04 2.005e-09
 96.88918    165.4 1.825e+04 2.955e-09
 96.90941    163.1 1.851e+04 2.561e-09
 96.92964    160.8 1.857e+04 2.614e-09
 96.94972    158.9 1.904e+04 2.791e-09
 96.95984    157.6 2.246e+04 1.115e-08
 96.96154    156.8 2.282e+04 1.353e-08
 96.97166    155.4 2.131e+04 1.117e-08
 96.99033    154.6 2.071e+04 1.201e-08
 97.01056    153.6 2.012e+04 1.261e-08
 97.03047    152.4 1.939e+04 1.269e-08
 97.04053    151.7 2.127e+04 1.908e-08
 97.04586    151.6 2.077e+04 1.801e-08
 97.05598    151.7 2.036e+04 1.694e-08
 97.07120    152.2 1.946e+04 1.380e-08
 97.09148    153.1 1.808e+04 1.004e-08
 97.11121    154.0 1.655e+04 6.988e-09
 97.12133    154.3 1.713e+04 6.826e-09
 97.13194    154.5 1.546e+04 4.373e-09
 97.15217    154.5 1.413e+04 3.070e-09
 97.16506    154.4 1.332e+04 2.415e-09
 97.17518    154.0 1.293e+04 2.143e-09
 97.19195    154.6 1.257e+04 1.945e-09
 97.20207    154.1 1.229e+04 1.861e-09
 97.21286    155.2 1.229e+04 1.806e-09
 97.23309    156.6 1.229e+04 1.808e-09
 97.25332    158.1 1.230e+04 1.837e-09
 97.27270    159.2 1.243e+04 1.926e-09
 97.28281    159.2 1.256e+04 2.006e-09
 97.29378    160.1 1.296e+04 2.284e-09
 97.31400    161.3 1.373e+04 2.834e-09
 97.33423    163.0 1.473e+04 3.759e-09
 97.35344    164.3 1.541e+04 4.562e-09
 97.36351    164.5 1.555e+04 4.757e-09
 97.36848    164.9 1.595e+04 5.194e-09
 97.37354    166.1 1.538e+04 4.193e-09
 97.37965    166.4 1.590e+04 4.678e-09
 97.38977    166.6 1.676e+04 5.646e-09
 97.39877    166.8 1.774e+04 7.335e-09
 97.40383    166.4 1.789e+04 9.014e-09
 97.41000    166.4 1.873e+04 1.260e-08
 97.42011    166.3 1.998e+04 1.837e-08
 97.43023    165.7 2.165e+04 3.014e-08
 97.43914    164.6 2.306e+04 6.155e-08
 97.44420    164.3 2.302e+04 1.094e-07
 97.45046    162.7 2.310e+04 2.421e-07
 97.46057    160.3 2.271e+04 4.732e-07
 97.47024    157.7 2.213e+04 7.498e-07
 97.47527    158.4 2.130e+04 8.850e-07
 97.47823    157.1 2.095e+04 1.195e-06
 97.48199    155.5 2.073e+04 1.496e-06
 97.48452    155.3 2.105e+04 1.288e-06
 97.48834    153.2 2.113e+04 1.296e-06
 97.49340    151.0 2.135e+04 1.191e-06
 97.50101    148.0 2.146e+04 9.915e-07
 97.51115    145.7 2.274e+04 4.203e-07
 97.51989    144.6 2.682e+04 8.686e-08
 97.52494    142.3 3.183e+04 3.125e-08
 97.53648    134.6 3.622e+04 3.631e-09
 97.55676    127.3 2.197e+04 1.335e-09
 97.57210    124.4 1.276e+04 1.489e-09
 97.58221    125.6 1.985e+04 1.365e-09
 97.59567    124.8 1.279e+04 1.386e-09
 97.60578    123.8 1.254e+04 1.515e-09
 97.61745    125.5 1.250e+04 1.518e-09
 97.63768    127.6 1.256e+04 1.562e-09
 97.65791    129.3 1.269e+04 1.625e-09
 97.67641    130.8 1.281e+04 1.685e-09
 97.68653    130.1 1.297e+04 1.962e-09
 97.69837    131.6 1.308e+04 2.091e-09
 97.71860    133.3 1.324e+04 2.259e-09
 97.73883    135.0 1.348e+04 2.491e-09
 97.75715    136.6 1.375e+04 2.775e-09
 97.76727    136.5 1.381e+04 2.959e-09
 97.77562    138.1 1.410e+04 3.306e-09
 97.78573    137.5 1.390e+04 3.136e-09
 97.79952    139.3 1.423e+04 3.498e-09
 97.81975    141.0 1.463e+04 3.936e-09
 97.83790    142.4 1.504e+04 4.429e-09
 97.84801    142.0 1.488e+04 3.885e-09
 97.86021    143.3 1.545e+04 4.393e-09
 97.88044    144.4 1.612e+04 4.981e-09
 97.90067    145.4 1.705e+04 5.820e-09
 97.91579    145.6 1.756e+04 5.657e-09
 97.92360    145.6 1.775e+04 5.450e-09
 97.92871    143.9 1.655e+04 3.455e-09
 97.94113    143.8 1.720e+04 3.430e-09
 97.96136    143.0 1.739e+04 3.244e-09
 97.97648    141.1 1.674e+04 2.644e-09
 97.98409    140.1 1.613e+04 2.423e-09
 97.98920    139.5 1.599e+04 2.539e-09
 97.99938    138.4 1.550e+04 2.326e-09
 98.00950    135.2 1.307e+04 1.363e-09
 98.02205    134.3 1.281e+04 1.312e-09
 98.04228    133.5 1.258e+04 1.257e-09
 98.06251    132.7 1.237e+04 1.180e-09
 98.08013    132.2 1.208e+04 1.070e-09
 98.09024    131.0 1.127e+04 7.763e-10
 98.10297    131.1 1.117e+04 7.056e-10
 98.12320    131.3 1.105e+04 6.352e-10
 98.14343    131.7 1.092e+04 5.736e-10
 98.16087    132.4 1.080e+04 5.289e-10
 98.17098    132.5 1.039e+04 4.422e-10
 98.18265    133.6 1.032e+04 4.169e-10
 98.19277    135.2 1.038e+04 4.136e-10
 98.20412    136.4 1.032e+04 3.985e-10
 98.22435    137.8 1.029e+04 3.970e-10
 98.24161    139.3 1.029e+04 3.971e-10
 98.25173    139.2 1.004e+04 3.339e-10
 98.26481    140.7 1.006e+04 3.345e-10
 98.28504    142.3 1.010e+04 3.397e-10
 98.30527    144.0 1.014e+04 3.499e-10
 98.32236    145.7 1.019e+04 3.614e-10
 98.33247    145.3 1.004e+04 3.265e-10
 98.34572    147.1 1.010e+04 3.386e-10
 98.36595    148.8 1.015e+04 3.493e-10
 98.38617    150.5 1.021e+04 3.589e-10
 98.40309    152.9 1.012e+04 3.217e-10
 98.41321    152.4 1.011e+04 3.192e-10
 98.42664    154.2 1.015e+04 3.277e-10
 98.44687    155.9 1.021e+04 3.372e-10
 98.46710    157.5 1.029e+04 3.486e-10
 98.48384    159.2 1.041e+04 3.661e-10
 98.49396    158.4 1.064e+04 4.039e-10
 98.50756    159.9 1.088e+04 4.487e-10
 98.52779    161.3 1.126e+04 5.164e-10
 98.54802    162.5 1.180e+04 6.207e-10
 98.56458    163.5 1.259e+04 7.834e-10
 98.57470    162.0 1.352e+04 1.089e-09
 98.58848    162.7 1.452e+04 1.486e-09
 98.59980    163.3 1.567e+04 2.110e-09
 98.60992    164.8 1.343e+04 1.113e-09
 98.62894    165.6 1.439e+04 1.465e-09
 98.64533    166.5 1.546e+04 1.979e-09
 98.65544    165.3 1.657e+04 2.914e-09
 98.66940    166.2 1.743e+04 3.743e-09
 98.68963    167.4 1.821e+04 4.549e-09
 98.70986    168.7 1.862e+04 4.950e-09
 98.72607    170.0 1.876e+04 4.926e-09
 98.73619    168.7 1.891e+04 5.161e-09
 98.75032    169.9 1.905e+04 4.689e-09
 98.76544    170.6 1.895e+04 4.248e-09
 98.77140    171.2 1.892e+04 3.859e-09
 98.77646    170.5 1.895e+04 3.714e-09
 98.78563    170.7 1.879e+04 3.356e-09
 98.79574    171.0 1.867e+04 3.032e-09
 98.80323    171.2 1.848e+04 2.737e-09
 98.80919    173.6 1.863e+04 2.998e-09
 98.81693    171.9 1.793e+04 2.942e-09
 98.83124    172.4 1.738e+04 2.427e-09
 98.85147    172.7 1.740e+04 2.008e-09
 98.87170    173.2 1.798e+04 1.819e-09
 98.88756    174.2 1.853e+04 1.844e-09
 98.89767    173.4 1.775e+04 1.967e-09
 98.91216    175.1 1.983e+04 2.011e-09
 98.92728    176.0 2.013e+04 1.961e-09
 98.93289    177.0 2.050e+04 1.957e-09
 98.93795    176.4 2.030e+04 1.975e-09
 98.94746    177.2 2.085e+04 1.970e-09
 98.95758    177.4 2.286e+04 2.043e-09
 98.96769    177.2 2.680e+04 2.454e-09
 98.97326    176.4 3.054e+04 3.581e-09
 98.97832    176.3 2.937e+04 3.018e-09
 98.98792    175.4 3.180e+04 4.893e-09
 98.99804    174.5 3.175e+04 8.529e-09
 99.00674    173.9 3.001e+04 1.459e-08
 99.01180    176.7 3.519e+04 4.193e-09
 99.01363    175.6 3.477e+04 7.547e-09
 99.01869    175.6 3.419e+04 5.814e-09
 99.02838    174.5 3.270e+04 1.015e-08
 99.03850    174.0 3.009e+04 1.670e-08
 99.04861    173.9 2.746e+04 2.504e-08
 99.05400    174.1 2.535e+04 3.407e-08
 99.05906    173.3 2.575e+04 2.927e-08
 99.06884    173.6 2.425e+04 3.790e-08
 99.07896    174.0 2.356e+04 4.570e-08
 99.08907    174.2 2.352e+04 5.254e-08
 99.09437    174.3 2.376e+04 5.879e-08
 99.09943    173.6 2.389e+04 5.594e-08
 99.10850    173.8 2.519e+04 5.901e-08
 99.11356    175.1 2.348e+04 5.201e-08
 99.11942    175.6 2.372e+04 6.146e-08
 99.12953    175.9 2.512e+04 6.781e-08
 99.13475    176.0 2.672e+04 7.468e-08
 99.13980    175.5 2.649e+04 7.433e-08
 99.14976    175.5 2.792e+04 7.529e-08
 99.15988    174.9 3.093e+04 6.573e-08
 99.16999    173.1 3.520e+04 5.064e-08
 99.17512    169.7 3.891e+04 3.728e-08
 99.18017    168.5 3.844e+04 3.214e-08
 99.19022    163.1 3.694e+04 3.320e-08
 99.20034    157.3 3.259e+04 3.991e-08
 99.21026    153.0 2.840e+04 5.066e-08
 99.21530    160.2 3.551e+04 4.354e-08
 99.22055    153.9 2.884e+04 4.277e-08
 99.23068    151.2 2.552e+04 4.669e-08
 99.24080    149.8 2.425e+04 4.663e-08
 99.25080    149.0 2.382e+04 4.344e-08
 99.25586    146.0 2.432e+04 3.041e-08
 99.26103    144.5 2.433e+04 2.544e-08
 99.27114    142.6 2.419e+04 1.989e-08
 99.28126    140.6 2.367e+04 1.523e-08
 99.29117    138.7 2.349e+04 1.199e-08
 99.29623    134.1 2.431e+04 1.162e-08
 99.30149    126.5 3.194e+04 1.348e-08
 99.31160    114.9 3.964e+04 2.804e-08
 99.31708    103.3 3.646e+04 9.012e-08
 99.32214     94.8 3.117e+04 2.400e-07
 99.33155     86.7 2.783e+04 3.501e-07
 99.33660     79.2 2.830e+04 2.522e-07
 99.34195     73.0 3.004e+04 1.065e-07
 99.35206     64.7 3.521e+04 2.131e-08
 99.36217     51.2 4.257e+04 2.174e-09
 99.37192     33.1 3.121e+04 4.565e-10
 99.37697     23.5 1.277e+04 5.841e-10
 99.38240     20.8 1.160e+04 5.394e-10
 99.39252     18.2 1.101e+04 4.552e-10
 99.40263     16.4 1.039e+04 4.031e-10
 99.41383     13.3 1.066e+04 3.703e-10
 99.42399     12.7 1.047e+04 2.726e-10
 99.43813      9.6 1.046e+04 2.717e-10
 99.45276      7.1 1.063e+04 2.814e-10
 99.46287      8.4 1.057e+04 2.727e-10
 99.47859      7.4 1.062e+04 2.788e-10
 99.49882      5.8 1.073e+04 3.090e-10
 99.51905      5.1 1.070e+04 3.275e-10
 99.53350      4.5 1.074e+04 3.663e-10
 99.54362      6.1 1.066e+04 3.520e-10
 99.55951      5.9 1.066e+04 3.703e-10
 99.57974      5.5 1.071e+04 4.351e-10
 99.59997      5.2 1.089e+04 5.277e-10
 99.61424      5.1 1.118e+04 6.338e-10
 99.62155      7.0 1.093e+04 5.618e-10
 99.62751      7.0 1.087e+04 5.337e-10
 99.64043      7.1 1.121e+04 6.440e-10
 99.66066      7.1 1.160e+04 7.617e-10
 99.68089      6.9 1.206e+04 9.131e-10
 99.69499      6.5 1.262e+04 1.136e-09
 99.70510      8.7 1.236e+04 1.041e-09
 99.72135      8.4 1.300e+04 1.338e-09
 99.74158      8.4 1.365e+04 1.728e-09
 99.76181      8.5 1.411e+04 2.081e-09
 99.77573      8.8 1.444e+04 2.364e-09
 99.78584     10.9 1.459e+04 2.456e-09
 99.80227     11.5 1.482e+04 2.811e-09
 99.82091     12.2 1.513e+04 2.756e-09
 99.83103     12.0 1.452e+04 2.424e-09
 99.84273     12.8 1.469e+04 2.152e-09
 99.85647     10.5 2.849e+04 1.471e-09
 99.86659     14.0 2.292e+04 2.454e-09
 99.87808     -2.0 5.645e+04 1.768e-09
 99.88815    -12.5 6.509e+04 2.527e-09
 99.89675    -17.6 6.520e+04 5.408e-09
 99.90180    -24.1 5.046e+04 2.353e-08
 99.90838    -28.7 2.651e+04 4.869e-07
 99.91594    -30.1 2.294e+04 1.036e-06
 99.91941    -30.5 2.033e+04 2.297e-06
 99.92194    -32.0 1.959e+04 3.438e-06
 99.92603    -31.6 1.933e+04 4.124e-06
 99.93011    -31.6 1.999e+04 3.091e-06
 99.93264    -31.1 1.882e+04 5.994e-06
 99.93615    -32.1 2.008e+04 3.955e-06
 99.93960    -37.0 2.342e+04 1.679e-06
 99.94213    -39.7 2.399e+04 1.662e-06
 99.94626    -49.2 3.000e+04 3.939e-07
 99.95132    -58.9 3.163e+04 1.336e-07
 99.95638    -68.0 2.915e+04 5.045e-08
 99.95978    -73.5 2.966e+04 1.630e-08
 99.96231    -71.5 3.267e+04 2.088e-08
 99.96649    -79.4 2.678e+04 7.331e-09
 99.97155    -82.8 2.136e+04 5.978e-09
 99.97747    -86.6 2.077e+04 5.746e-09
 99.98255    -85.9 2.236e+04 5.327e-09
 99.98930    -87.5 2.058e+04 4.758e-09
 99.99941    -89.1 1.720e+04 4.122e-09
