# Columns:
#   distance along LOS (in CHIMPs)
#   peculiar velocity  (in km/s)
#   temperature (K)
#   HI number density
# pos=(99.9518,27.1912,183.196), angles=(0.491997,6.17065)
  0.00494     76.2 1.100e+04 4.389e-10
  0.01315     77.0 1.096e+04 4.153e-10
  0.03531     77.8 1.086e+04 3.571e-10
  0.07636     78.8 1.079e+04 3.130e-10
  0.09908     79.8 1.068e+04 2.559e-10
  0.12124     80.6 1.063e+04 2.285e-10
  0.16285     81.6 1.056e+04 1.922e-10
  0.18501     82.5 1.053e+04 1.885e-10
  0.20932     83.4 1.050e+04 1.758e-10
  0.24878     84.3 1.053e+04 1.754e-10
  0.27094     85.1 1.063e+04 1.967e-10
  0.29795     85.9 1.082e+04 2.185e-10
  0.33471     86.7 1.108e+04 2.524e-10
  0.35677     86.3 1.127e+04 2.825e-10
  0.37532     85.1 1.171e+04 3.533e-10
  0.38856     83.2 1.240e+04 5.516e-10
  0.39964     81.7 1.296e+04 8.361e-10
  0.41964     80.1 1.375e+04 1.528e-09
  0.43152     78.9 1.444e+04 2.592e-09
  0.44260     78.4 1.475e+04 3.387e-09
  0.46340     77.3 1.492e+04 3.922e-09
  0.47448     76.7 1.489e+04 3.956e-09
  0.48612     75.6 1.468e+04 3.635e-09
  0.50637     74.6 1.418e+04 2.752e-09
  0.51745     74.0 1.364e+04 1.952e-09
  0.53043     72.2 1.270e+04 1.172e-09
  0.54933     69.8 1.175e+04 7.642e-10
  0.56021     68.1 1.107e+04 5.609e-10
  0.56347     68.2 1.095e+04 5.370e-10
  0.57475     66.4 1.089e+04 5.386e-10
  0.59230     65.6 1.083e+04 5.608e-10
  0.60338     65.3 1.067e+04 5.199e-10
  0.61907     64.9 1.072e+04 5.693e-10
  0.63526     64.4 1.083e+04 5.840e-10
  0.64634     63.8 1.074e+04 5.328e-10
  0.66339     62.6 1.074e+04 5.206e-10
  0.67832     61.6 1.076e+04 4.898e-10
  0.70058     61.2 1.038e+04 4.165e-10
  0.74115     59.9 1.004e+04 3.565e-10
  0.76435     58.6 9.672e+03 3.051e-10
  0.78651     58.0 9.472e+03 2.807e-10
  0.82812     56.4 9.413e+03 2.774e-10
  0.85028     55.4 9.408e+03 2.744e-10
  0.87410     53.5 9.423e+03 2.806e-10
  0.91404     51.9 9.382e+03 2.880e-10
  0.93620     50.5 9.370e+03 2.909e-10
  0.96274     49.5 9.341e+03 2.914e-10
  0.99997     48.8 9.178e+03 2.792e-10
  1.02213     47.6 9.069e+03 2.668e-10
  1.05138     47.4 8.761e+03 2.157e-10
  1.08590     47.4 8.442e+03 1.660e-10
  1.10806     46.3 8.259e+03 1.402e-10
  1.14002     46.6 8.016e+03 1.144e-10
  1.17183     47.3 7.841e+03 1.044e-10
  1.19399     46.6 7.815e+03 1.026e-10
  1.22866     47.6 7.815e+03 1.032e-10
  1.25776     48.6 7.821e+03 1.055e-10
  1.27992     48.0 7.843e+03 1.090e-10
  1.29749     48.9 7.922e+03 1.201e-10
  1.31965     50.2 7.847e+03 1.130e-10
  1.34369     51.0 7.949e+03 1.264e-10
  1.36585     50.3 8.013e+03 1.347e-10
  1.40593     51.0 8.128e+03 1.504e-10
  1.42961     51.6 8.230e+03 1.642e-10
  1.45177     50.6 8.227e+03 1.608e-10
  1.49338     50.9 8.299e+03 1.665e-10
  1.51554     49.5 8.318e+03 1.630e-10
  1.53889     49.1 8.445e+03 1.748e-10
  1.57931     48.0 8.562e+03 1.931e-10
  1.60147     45.1 8.852e+03 2.263e-10
  1.62753     42.9 9.799e+03 3.284e-10
  1.66524     40.9 1.110e+04 4.990e-10
  1.68730     37.3 1.244e+04 8.141e-10
  1.70489     34.0 1.370e+04 1.248e-09
  1.71909     29.5 1.466e+04 1.947e-09
  1.73017     24.0 1.510e+04 2.591e-09
  1.74921     19.0 1.522e+04 2.802e-09
  1.76205     13.8 1.513e+04 2.753e-09
  1.77313      8.3 1.470e+04 2.416e-09
  1.79353      2.8 1.403e+04 1.956e-09
  1.80502     -2.8 1.334e+04 1.631e-09
  1.81610     -7.8 1.273e+04 1.396e-09
  1.83690    -12.6 1.274e+04 1.429e-09
  1.84798    -16.6 1.266e+04 1.403e-09
  1.86001    -21.0 1.296e+04 1.589e-09
  1.87986    -25.2 1.342e+04 1.892e-09
  1.89094    -28.8 1.368e+04 2.060e-09
  1.90433    -32.9 1.412e+04 2.318e-09
  1.92283    -37.2 1.442e+04 2.322e-09
  1.93391    -41.2 1.483e+04 2.463e-09
  1.94865    -46.4 1.507e+04 2.424e-09
  1.96579    -52.0 1.529e+04 2.421e-09
  1.97687    -56.7 1.562e+04 2.823e-09
  1.99297    -61.8 1.542e+04 2.911e-09
  2.00876    -66.0 1.507e+04 2.849e-09
  2.01984    -68.9 1.494e+04 2.884e-09
  2.03113    -71.4 1.419e+04 2.505e-09
  2.04221    -72.5 1.431e+04 2.650e-09
  2.05172    -74.3 1.344e+04 1.965e-09
  2.06280    -75.9 1.264e+04 1.418e-09
  2.08160    -77.7 1.172e+04 9.420e-10
  2.09468    -79.7 1.093e+04 6.252e-10
  2.10576    -81.6 1.034e+04 4.430e-10
  2.12592    -83.1 9.955e+03 3.406e-10
  2.15855    -84.5 9.764e+03 2.879e-10
  2.18081    -85.0 9.558e+03 2.533e-10
  2.20368    -85.4 9.413e+03 2.399e-10
  2.24458    -85.8 9.420e+03 2.441e-10
  2.26674    -86.2 9.292e+03 2.286e-10
  2.29232    -86.4 9.414e+03 2.457e-10
  2.33050    -86.4 9.526e+03 2.545e-10
  2.35266    -86.6 9.371e+03 2.271e-10
  2.38095    -86.6 9.370e+03 2.205e-10
  2.41643    -86.6 9.332e+03 2.064e-10
  2.43859    -86.8 9.249e+03 1.889e-10
  2.46959    -86.8 9.312e+03 1.914e-10
  2.50236    -87.1 9.486e+03 2.063e-10
  2.52452    -87.4 9.643e+03 2.215e-10
  2.55823    -88.0 1.015e+04 2.862e-10
  2.58829    -89.0 1.071e+04 3.734e-10
  2.61045    -89.7 1.097e+04 4.259e-10
  2.63116    -90.3 1.130e+04 5.251e-10
  2.64214    -90.7 1.139e+04 5.399e-10
  2.65775    -91.8 1.167e+04 6.378e-10
  2.67402    -92.8 1.188e+04 7.119e-10
  2.68510    -93.3 1.185e+04 6.845e-10
  2.70207    -94.3 1.195e+04 7.323e-10
  2.71699    -95.3 1.207e+04 7.703e-10
  2.72807    -95.8 1.203e+04 7.552e-10
  2.74639    -96.9 1.227e+04 8.251e-10
  2.75995    -98.2 1.262e+04 9.490e-10
  2.76743    -98.7 1.264e+04 9.584e-10
  2.77604    -99.3 1.302e+04 1.168e-09
  2.79071   -100.7 1.342e+04 1.400e-09
  2.80291   -102.1 1.381e+04 1.671e-09
  2.81399   -102.6 1.379e+04 1.671e-09
  2.83480   -103.8 1.408e+04 1.915e-09
  2.84588   -104.3 1.388e+04 1.817e-09
  2.85719   -105.5 1.401e+04 1.908e-09
  2.87776   -106.9 1.402e+04 1.933e-09
  2.88884   -107.2 1.387e+04 1.857e-09
  2.90151   -108.5 1.391e+04 1.861e-09
  2.92073   -109.8 1.385e+04 1.837e-09
  2.93181   -110.1 1.374e+04 1.782e-09
  2.94583   -111.3 1.347e+04 1.622e-09
  2.96369   -112.4 1.308e+04 1.351e-09
  2.97477   -112.7 1.285e+04 1.230e-09
  2.99015   -113.9 1.237e+04 9.917e-10
  3.00666   -115.0 1.188e+04 8.147e-10
  3.01774   -115.2 1.160e+04 7.183e-10
  3.03447   -115.8 1.119e+04 5.674e-10
  3.04962   -116.4 1.089e+04 4.685e-10
  3.06070   -116.6 1.078e+04 4.077e-10
  3.08160   -116.9 1.074e+04 3.783e-10
  3.10386   -116.7 1.044e+04 3.108e-10
  3.13438   -116.2 9.961e+03 2.334e-10
  3.16763   -115.7 9.522e+03 1.667e-10
  3.18979   -115.4 9.209e+03 1.251e-10
  3.22302   -115.1 8.999e+03 9.210e-11
  3.25356   -114.8 8.893e+03 7.706e-11
  3.27571   -114.4 8.823e+03 6.795e-11
  3.31166   -113.8 8.836e+03 6.903e-11
  3.33948   -113.2 8.890e+03 7.511e-11
  3.36164   -112.6 8.876e+03 7.434e-11
  3.40029   -112.0 8.988e+03 8.950e-11
  3.42541   -111.6 9.154e+03 1.129e-10
  3.44757   -111.4 9.238e+03 1.201e-10
  3.48790   -112.1 9.886e+03 2.020e-10
  3.51006   -111.8 9.708e+03 1.761e-10
  3.51134   -113.0 1.078e+04 3.516e-10
  3.53350   -113.2 1.139e+04 5.281e-10
  3.57511   -114.8 1.240e+04 9.761e-10
  3.59727   -115.2 1.270e+04 1.195e-09
  3.62189   -117.6 1.314e+04 1.473e-09
  3.66104   -120.2 1.334e+04 1.493e-09
  3.68320   -120.7 1.320e+04 1.430e-09
  3.69935   -122.3 1.329e+04 1.458e-09
  3.71489   -124.6 1.322e+04 1.416e-09
  3.72597   -125.2 1.313e+04 1.364e-09
  3.74357   -127.6 1.302e+04 1.345e-09
  3.75785   -129.7 1.296e+04 1.330e-09
  3.76893   -130.0 1.287e+04 1.325e-09
  3.78789   -131.4 1.268e+04 1.295e-09
  3.80081   -132.8 1.245e+04 1.201e-09
  3.81189   -132.5 1.228e+04 1.108e-09
  3.83221   -134.4 1.237e+04 1.045e-09
  3.84378   -137.4 1.270e+04 1.105e-09
  3.85486   -137.3 1.253e+04 9.710e-10
  3.87124   -141.2 1.326e+04 1.205e-09
  3.88145   -140.7 1.372e+04 1.638e-09
  3.88674   -140.5 1.348e+04 1.452e-09
  3.89869   -144.3 1.438e+04 2.169e-09
  3.91863   -147.5 1.465e+04 2.860e-09
  3.92971   -147.6 1.460e+04 2.850e-09
  3.94301   -149.8 1.436e+04 2.830e-09
  3.96159   -151.8 1.388e+04 2.384e-09
  3.97267   -151.4 1.392e+04 2.483e-09
  3.98733   -154.2 1.368e+04 1.699e-09
  4.00455   -158.5 1.313e+04 1.055e-09
  4.01563   -158.5 1.334e+04 1.122e-09
  4.03165   -163.1 1.213e+04 7.749e-10
  4.06498   -166.4 1.127e+04 6.129e-10
  4.09068   -169.0 1.068e+04 4.469e-10
  4.10166   -168.0 1.072e+04 4.401e-10
  4.12028   -168.5 1.055e+04 4.157e-10
  4.15362   -170.0 1.018e+04 3.328e-10
  4.17661   -171.6 9.933e+03 2.843e-10
  4.19877   -170.6 9.864e+03 2.762e-10
  4.23281   -171.0 9.683e+03 2.680e-10
  4.25298   -170.5 9.746e+03 2.890e-10
  4.26253   -169.2 9.739e+03 2.884e-10
  4.28668   -169.0 9.631e+03 3.021e-10
  4.32630   -168.8 9.600e+03 2.747e-10
  4.34846   -167.5 9.681e+03 2.826e-10
  4.37531   -167.8 9.479e+03 2.359e-10
  4.41223   -168.3 9.270e+03 1.985e-10
  4.43439   -166.6 9.271e+03 1.985e-10
  4.46395   -167.2 9.145e+03 1.892e-10
  4.49816   -167.9 9.370e+03 1.984e-10
  4.52032   -166.7 9.560e+03 2.055e-10
  4.55259   -168.8 1.005e+04 3.259e-10
  4.58399   -169.5 1.036e+04 5.358e-10
  4.60615   -168.7 1.035e+04 5.366e-10
  4.62695   -168.6 1.051e+04 5.533e-10
  4.63794   -167.8 1.042e+04 5.054e-10
  4.65211   -168.6 1.036e+04 4.841e-10
  4.66982   -169.3 1.015e+04 4.088e-10
  4.69208   -168.9 1.010e+04 3.747e-10
  4.72987   -170.4 9.730e+03 3.299e-10
  4.75594   -171.3 9.629e+03 2.852e-10
  4.77810   -169.8 9.624e+03 2.901e-10
  4.81851   -171.4 9.572e+03 2.693e-10
  4.84187   -172.5 9.443e+03 2.736e-10
  4.86403   -170.8 9.507e+03 2.861e-10
  4.90564   -172.0 9.542e+03 2.825e-10
  4.92780   -170.3 9.599e+03 2.827e-10
  4.95146   -172.0 9.639e+03 2.803e-10
  4.97771   -173.6 9.668e+03 2.851e-10
  4.99566   -172.9 9.794e+03 2.989e-10
  5.01373   -171.2 9.709e+03 2.848e-10
  5.04010   -172.3 9.607e+03 2.439e-10
  5.07750   -173.7 9.477e+03 1.887e-10
  5.09966   -171.9 9.439e+03 1.670e-10
  5.12874   -173.6 9.343e+03 1.444e-10
  5.16342   -174.8 9.334e+03 1.449e-10
  5.18558   -172.9 9.331e+03 1.374e-10
  5.21738   -173.6 9.502e+03 1.595e-10
  5.24935   -174.2 9.669e+03 1.678e-10
  5.27151   -172.3 9.680e+03 1.725e-10
  5.30602   -173.2 9.903e+03 1.798e-10
  5.33528   -174.5 1.014e+04 1.924e-10
  5.35744   -172.9 1.032e+04 2.332e-10
  5.39465   -174.3 1.055e+04 2.797e-10
  5.42121   -175.3 1.064e+04 3.174e-10
  5.44337   -173.7 1.079e+04 3.655e-10
  5.48329   -174.5 1.068e+04 2.996e-10
  5.50714   -175.5 1.081e+04 2.463e-10
  5.52930   -174.3 1.070e+04 2.049e-10
  5.57091   -176.3 1.088e+04 1.879e-10
  5.59307   -175.2 1.052e+04 1.512e-10
  5.61625   -177.4 1.087e+04 2.346e-10
  5.64939   -176.9 1.097e+04 3.506e-10
  5.66772   -177.1 1.106e+04 3.896e-10
  5.67890   -176.7 1.097e+04 3.435e-10
  5.69371   -176.7 1.112e+04 4.527e-10
  5.71068   -177.6 1.143e+04 4.805e-10
  5.71734   -176.3 1.125e+04 4.374e-10
  5.72243   -175.0 1.123e+04 4.274e-10
  5.73793   -177.1 1.142e+04 4.598e-10
  5.75365   -178.7 1.161e+04 4.332e-10
  5.76473   -177.3 1.147e+04 4.267e-10
  5.78225   -179.6 1.144e+04 4.052e-10
  5.79661   -181.1 1.134e+04 4.007e-10
  5.80769   -179.7 1.132e+04 3.963e-10
  5.82657   -181.2 1.120e+04 3.980e-10
  5.83958   -182.2 1.121e+04 4.103e-10
  5.85066   -180.6 1.118e+04 3.902e-10
  5.87089   -182.3 1.111e+04 3.783e-10
  5.88254   -183.5 1.116e+04 3.739e-10
  5.89362   -182.1 1.113e+04 3.500e-10
  5.91442   -184.5 1.112e+04 3.410e-10
  5.92550   -183.3 1.106e+04 3.222e-10
  5.93737   -185.3 1.131e+04 3.300e-10
  5.95739   -187.6 1.131e+04 3.849e-10
  5.96847   -186.3 1.110e+04 3.324e-10
  5.98169   -187.8 1.134e+04 4.735e-10
  6.00035   -190.3 1.254e+04 8.256e-10
  6.01143   -188.3 1.170e+04 5.814e-10
  6.02601   -192.0 1.379e+04 1.198e-09
  6.04332   -196.2 1.580e+04 3.035e-09
  6.05440   -194.4 1.508e+04 2.046e-09
  6.07033   -197.7 1.683e+04 5.314e-09
  6.08380   -199.8 1.854e+04 9.878e-09
  6.08867   -200.6 1.853e+04 8.679e-09
  6.09736   -198.9 1.806e+04 7.566e-09
  6.11465   -201.8 1.947e+04 1.006e-08
  6.12924   -206.5 1.978e+04 1.027e-08
  6.14032   -203.9 1.982e+04 1.063e-08
  6.15896   -209.9 1.958e+04 7.979e-09
  6.17221   -216.9 1.667e+04 3.761e-09
  6.18329   -214.1 1.795e+04 4.864e-09
  6.20328   -220.4 1.443e+04 2.478e-09
  6.21517   -223.4 1.311e+04 1.755e-09
  6.22625   -222.2 1.332e+04 1.884e-09
  6.24706   -223.8 1.280e+04 1.494e-09
  6.25814   -222.8 1.283e+04 1.558e-09
  6.26976   -224.2 1.257e+04 1.245e-09
  6.29002   -226.1 1.233e+04 1.032e-09
  6.30110   -225.1 1.245e+04 1.105e-09
  6.31408   -227.7 1.244e+04 1.054e-09
  6.33298   -230.9 1.279e+04 1.109e-09
  6.34406   -230.3 1.295e+04 1.178e-09
  6.35840   -233.9 1.378e+04 1.723e-09
  6.37595   -236.8 1.432e+04 2.611e-09
  6.38703   -236.8 1.448e+04 2.777e-09
  6.40272   -239.4 1.461e+04 3.351e-09
  6.41891   -242.0 1.456e+04 3.436e-09
  6.42999   -241.9 1.477e+04 3.728e-09
  6.44517   -244.0 1.412e+04 3.054e-09
  6.45625   -244.4 1.421e+04 3.160e-09
  6.46188   -246.6 1.319e+04 1.771e-09
  6.47296   -246.4 1.332e+04 1.874e-09
  6.49136   -249.2 1.199e+04 8.947e-10
  6.50484   -251.8 1.080e+04 4.729e-10
  6.51592   -251.8 1.078e+04 4.697e-10
  6.53568   -253.5 1.027e+04 3.286e-10
  6.54781   -254.1 1.010e+04 2.919e-10
  6.55889   -254.1 1.009e+04 2.898e-10
  6.57979   -255.0 1.000e+04 2.712e-10
  6.60204   -254.9 9.997e+03 2.688e-10
  6.63559   -256.0 9.822e+03 2.368e-10
  6.66581   -256.7 9.702e+03 2.179e-10
  6.68797   -256.6 9.710e+03 2.170e-10
  6.72423   -257.0 9.705e+03 2.151e-10
  6.75174   -257.6 1.003e+04 2.513e-10
  6.77390   -258.2 1.028e+04 3.039e-10
  6.81287   -258.9 1.105e+04 5.315e-10
  6.83767   -259.7 1.171e+04 8.535e-10
  6.85983   -260.6 1.207e+04 1.082e-09
  6.90144   -261.7 1.244e+04 1.354e-09
  6.94576   -264.2 1.259e+04 1.518e-09
  6.98737   -264.9 1.227e+04 1.314e-09
  7.00953   -265.7 1.208e+04 1.222e-09
  7.03446   -265.3 1.140e+04 8.236e-10
  7.07329   -264.6 1.077e+04 5.585e-10
  7.09545   -265.0 1.067e+04 5.266e-10
  7.12310   -263.9 1.039e+04 4.209e-10
  7.15922   -262.6 1.030e+04 3.818e-10
  7.18138   -262.8 1.026e+04 3.744e-10
  7.19028   -261.3 1.023e+04 3.596e-10
  7.21244   -260.6 1.030e+04 3.602e-10
  7.24515   -259.1 1.030e+04 3.586e-10
  7.26731   -259.3 1.024e+04 3.392e-10
  7.30038   -257.8 1.025e+04 3.390e-10
  7.33108   -256.6 1.036e+04 3.495e-10
  7.35324   -256.7 1.024e+04 3.111e-10
  7.38902   -255.6 1.036e+04 3.368e-10
  7.41701   -254.6 1.048e+04 3.766e-10
  7.43917   -254.6 1.029e+04 3.335e-10
  7.47765   -253.5 1.040e+04 3.837e-10
  7.50294   -252.4 1.053e+04 4.102e-10
  7.52509   -252.4 1.033e+04 3.621e-10
  7.56629   -251.3 1.042e+04 3.698e-10
  7.58886   -249.8 1.051e+04 3.739e-10
  7.61102   -249.5 1.029e+04 3.282e-10
  7.65263   -248.0 1.038e+04 3.327e-10
  7.67479   -247.8 1.013e+04 2.889e-10
  7.69925   -246.3 1.020e+04 2.907e-10
  7.73856   -244.7 1.035e+04 3.006e-10
  7.76072   -244.2 1.009e+04 2.472e-10
  7.78789   -242.7 1.023e+04 2.601e-10
  7.82449   -241.2 1.040e+04 2.926e-10
  7.84665   -240.5 1.006e+04 2.167e-10
  7.87653   -239.2 1.025e+04 2.474e-10
  7.91042   -238.0 1.046e+04 3.036e-10
  7.92476   -237.2 1.023e+04 2.245e-10
  7.93519   -236.8 1.059e+04 3.499e-10
  7.95328   -235.8 1.081e+04 4.318e-10
  7.96427   -235.3 1.071e+04 3.929e-10
  7.97605   -235.1 1.083e+04 4.437e-10
  7.99625   -234.4 1.119e+04 6.043e-10
  8.01850   -234.0 1.091e+04 4.695e-10
  8.05380   -233.0 1.132e+04 6.331e-10
  8.08227   -232.1 1.172e+04 7.768e-10
  8.10443   -232.1 1.130e+04 6.119e-10
  8.14244   -231.3 1.163e+04 7.371e-10
  8.16820   -230.6 1.192e+04 7.980e-10
  8.19036   -230.4 1.150e+04 6.481e-10
  8.23108   -229.8 1.172e+04 6.801e-10
  8.25413   -229.1 1.178e+04 6.873e-10
  8.27629   -228.2 1.138e+04 5.081e-10
  8.30854   -226.0 1.134e+04 4.473e-10
  8.32878   -225.7 1.137e+04 4.312e-10
  8.33996   -225.7 1.122e+04 3.765e-10
  8.36404   -224.8 1.133e+04 3.486e-10
  8.40383   -224.0 1.129e+04 3.134e-10
  8.42599   -223.1 1.113e+04 2.657e-10
  8.45268   -222.1 1.114e+04 2.572e-10
  8.48975   -221.3 1.117e+04 2.568e-10
  8.51191   -220.8 1.112e+04 2.272e-10
  8.54131   -220.1 1.124e+04 2.576e-10
  8.57568   -219.6 1.145e+04 3.279e-10
  8.59784   -219.2 1.131e+04 3.006e-10
  8.61855   -218.5 1.145e+04 3.637e-10
  8.62953   -218.3 1.139e+04 3.487e-10
  8.64084   -218.1 1.144e+04 3.745e-10
  8.65774   -217.5 1.163e+04 4.490e-10
  8.66724   -217.4 1.172e+04 5.003e-10
  8.67250   -217.4 1.157e+04 4.431e-10
  8.68516   -217.0 1.163e+04 4.901e-10
  8.70438   -216.6 1.183e+04 5.340e-10
  8.71546   -216.9 1.159e+04 4.713e-10
  8.72947   -217.0 1.193e+04 5.078e-10
  8.74734   -218.9 1.267e+04 6.873e-10
  8.75842   -219.5 1.262e+04 5.861e-10
  8.77379   -223.5 1.488e+04 1.866e-09
  8.79031   -225.2 1.767e+04 7.105e-09
  8.80139   -225.4 1.700e+04 5.554e-09
  8.81811   -225.7 1.892e+04 1.459e-08
  8.83322   -225.7 1.968e+04 2.078e-08
  8.83871   -225.8 1.917e+04 1.720e-08
  8.84387   -226.5 2.019e+04 2.209e-08
  8.84941   -226.6 2.055e+04 2.379e-08
  8.85466   -227.5 2.188e+04 3.592e-08
  8.86020   -227.3 2.097e+04 2.641e-08
  8.86787   -228.7 2.177e+04 3.260e-08
  8.87614   -230.4 2.222e+04 3.465e-08
  8.88168   -229.8 2.121e+04 2.727e-08
  8.89003   -231.4 2.130e+04 2.748e-08
  8.89762   -233.0 2.164e+04 2.341e-08
  8.90316   -232.1 2.058e+04 2.071e-08
  8.91219   -233.8 2.037e+04 1.534e-08
  8.91910   -236.1 1.952e+04 1.056e-08
  8.92464   -234.6 1.913e+04 1.025e-08
  8.93435   -236.9 1.814e+04 7.223e-09
  8.94058   -239.0 1.701e+04 5.489e-09
  8.94612   -237.3 1.704e+04 5.249e-09
  8.95651   -238.8 1.636e+04 4.566e-09
  8.97318   -237.9 1.583e+04 3.776e-09
  8.99405   -239.9 1.453e+04 3.144e-09
  9.00513   -237.3 1.419e+04 2.487e-09
  9.01755   -238.9 1.316e+04 2.212e-09
  9.03019   -239.4 1.292e+04 2.172e-09
  9.03858   -239.6 1.314e+04 2.356e-09
  9.04809   -237.9 1.283e+04 1.832e-09
  9.06187   -237.9 1.270e+04 1.854e-09
  9.07998   -237.7 1.255e+04 2.048e-09
  9.09106   -236.2 1.229e+04 1.650e-09
  9.10619   -235.9 1.231e+04 1.810e-09
  9.12294   -235.4 1.231e+04 1.854e-09
  9.13402   -234.0 1.210e+04 1.606e-09
  9.15051   -233.6 1.209e+04 1.619e-09
  9.16590   -233.1 1.200e+04 1.512e-09
  9.17698   -231.6 1.188e+04 1.422e-09
  9.19483   -231.0 1.176e+04 1.276e-09
  9.20887   -230.5 1.162e+04 1.094e-09
  9.21995   -228.9 1.156e+04 1.081e-09
  9.23914   -228.4 1.139e+04 9.153e-10
  9.25183   -228.0 1.122e+04 7.984e-10
  9.26291   -226.2 1.120e+04 7.816e-10
  9.28346   -225.8 1.104e+04 6.984e-10
  9.29480   -225.4 1.091e+04 6.646e-10
  9.30588   -223.7 1.086e+04 6.189e-10
  9.32668   -223.1 1.078e+04 6.004e-10
  9.33776   -221.3 1.074e+04 5.616e-10
  9.34994   -220.6 1.072e+04 5.552e-10
  9.36965   -220.6 1.083e+04 5.616e-10
  9.38073   -218.9 1.078e+04 5.330e-10
  9.39157   -220.4 1.176e+04 6.369e-10
  9.40265   -219.7 1.132e+04 6.200e-10
  9.41261   -221.5 1.319e+04 1.266e-09
  9.42369   -219.9 1.313e+04 1.077e-09
  9.43858   -221.6 1.482e+04 2.569e-09
  9.45557   -222.6 1.590e+04 4.858e-09
  9.46665   -221.1 1.598e+04 4.931e-09
  9.48290   -222.0 1.663e+04 7.146e-09
  9.49854   -223.5 1.676e+04 7.716e-09
  9.50962   -221.9 1.694e+04 8.268e-09
  9.52722   -223.8 1.657e+04 7.861e-09
  9.54150   -224.9 1.525e+04 5.207e-09
  9.55258   -223.9 1.561e+04 5.424e-09
  9.57154   -225.4 1.372e+04 2.881e-09
  9.58447   -226.8 1.189e+04 1.607e-09
  9.59555   -227.0 1.192e+04 1.558e-09
  9.61586   -228.2 1.094e+04 1.033e-09
  9.62743   -228.7 1.059e+04 8.715e-10
  9.63851   -229.2 1.062e+04 8.722e-10
  9.65931   -229.2 1.047e+04 8.184e-10
  9.67039   -229.6 1.056e+04 8.388e-10
  9.68234   -229.1 1.051e+04 8.229e-10
  9.70228   -228.5 1.050e+04 8.208e-10
  9.71336   -229.1 1.065e+04 8.663e-10
  9.72666   -228.8 1.065e+04 8.888e-10
  9.74524   -228.5 1.081e+04 9.710e-10
  9.75632   -229.1 1.127e+04 1.153e-09
  9.76402   -228.6 1.135e+04 1.254e-09
  9.77510   -228.9 1.159e+04 1.374e-09
  9.78821   -228.4 1.168e+04 1.536e-09
  9.79929   -228.8 1.209e+04 1.701e-09
  9.81529   -228.0 1.222e+04 1.891e-09
  9.83117   -227.1 1.254e+04 2.197e-09
  9.84225   -227.8 1.293e+04 2.339e-09
  9.85961   -227.2 1.336e+04 2.751e-09
  9.87413   -226.7 1.399e+04 3.345e-09
  9.88521   -227.9 1.436e+04 3.523e-09
  9.90393   -227.8 1.523e+04 4.467e-09
  9.91710   -228.0 1.638e+04 5.820e-09
  9.92818   -229.5 1.651e+04 6.180e-09
  9.94825   -230.0 1.792e+04 8.299e-09
  9.96006   -231.4 1.942e+04 1.134e-08
  9.97114   -233.7 1.928e+04 1.147e-08
  9.99195   -236.6 2.026e+04 1.521e-08
 10.00303   -238.1 1.903e+04 1.296e-08
 10.01473   -241.1 1.975e+04 1.622e-08
 10.03491   -243.9 2.033e+04 1.844e-08
 10.04599   -245.5 1.937e+04 1.605e-08
 10.05905   -248.0 1.975e+04 1.731e-08
 10.07562   -250.0 1.930e+04 1.588e-08
 10.08332   -250.7 1.916e+04 1.465e-08
 10.08891   -250.9 1.874e+04 1.422e-08
 10.09778   -252.1 1.839e+04 1.248e-08
 10.10480   -253.1 1.780e+04 1.030e-08
 10.11034   -252.7 1.775e+04 1.042e-08
 10.11989   -253.9 1.699e+04 8.127e-09
 10.12628   -254.9 1.643e+04 6.562e-09
 10.13169   -254.3 1.630e+04 6.679e-09
 10.13642   -254.3 1.618e+04 6.063e-09
 10.14769   -256.1 1.490e+04 4.044e-09
 10.16380   -257.8 1.375e+04 2.758e-09
 10.17488   -256.9 1.373e+04 2.782e-09
 10.19201   -258.3 1.273e+04 1.976e-09
 10.20677   -259.3 1.198e+04 1.486e-09
 10.21785   -258.3 1.187e+04 1.440e-09
 10.23633   -258.8 1.136e+04 1.128e-09
 10.24973   -258.9 1.105e+04 9.284e-10
 10.26081   -257.9 1.092e+04 8.878e-10
 10.28064   -257.8 1.070e+04 7.553e-10
 10.29270   -257.7 1.052e+04 6.528e-10
 10.30378   -256.8 1.043e+04 6.373e-10
 10.32458   -256.4 1.024e+04 5.578e-10
 10.33566   -255.4 1.018e+04 5.496e-10
 10.34712   -254.8 1.001e+04 4.869e-10
 10.36754   -254.1 9.889e+03 4.399e-10
 10.37862   -252.7 9.803e+03 4.139e-10
 10.39144   -251.5 9.722e+03 3.698e-10
 10.41051   -250.6 9.704e+03 3.577e-10
 10.42169   -249.1 9.662e+03 3.342e-10
 10.44704   -247.5 9.686e+03 3.231e-10
 10.48018   -245.6 9.696e+03 3.186e-10
 10.49644   -245.3 9.775e+03 3.322e-10
 10.50761   -244.7 9.649e+03 3.074e-10
 10.52450   -243.7 9.822e+03 3.188e-10
 10.53940   -243.1 1.001e+04 3.476e-10
 10.55048   -242.2 9.840e+03 3.160e-10
 10.56872   -241.5 1.008e+04 3.516e-10
 10.58236   -241.0 1.035e+04 4.161e-10
 10.59344   -240.1 1.012e+04 3.686e-10
 10.61304   -239.7 1.042e+04 4.601e-10
 10.62533   -239.4 1.084e+04 6.167e-10
 10.63641   -238.5 1.060e+04 5.489e-10
 10.65721   -238.2 1.113e+04 7.812e-10
 10.66829   -237.2 1.093e+04 7.068e-10
 10.67952   -236.9 1.157e+04 1.031e-09
 10.70018   -236.3 1.222e+04 1.454e-09
 10.71126   -235.4 1.202e+04 1.333e-09
 10.72384   -234.9 1.258e+04 1.743e-09
 10.74314   -234.5 1.294e+04 2.019e-09
 10.75422   -233.6 1.277e+04 1.886e-09
 10.76815   -233.5 1.291e+04 1.969e-09
 10.78611   -233.9 1.290e+04 1.959e-09
 10.79719   -233.1 1.280e+04 1.871e-09
 10.81247   -233.5 1.253e+04 1.622e-09
 10.82907   -234.1 1.197e+04 1.183e-09
 10.84015   -233.5 1.205e+04 1.230e-09
 10.85679   -234.2 1.149e+04 8.799e-10
 10.87030   -235.0 1.101e+04 6.461e-10
 10.87446   -235.3 1.097e+04 6.397e-10
 10.88311   -234.9 1.112e+04 6.982e-10
 10.90111   -235.5 1.086e+04 5.606e-10
 10.91500   -236.0 1.069e+04 4.729e-10
 10.92608   -235.8 1.090e+04 5.353e-10
 10.94543   -236.4 1.080e+04 4.717e-10
 10.95796   -236.8 1.078e+04 4.303e-10
 10.96904   -236.8 1.093e+04 4.781e-10
 10.98975   -237.2 1.090e+04 4.453e-10
 11.01191   -237.7 1.096e+04 4.591e-10
 11.03281   -237.9 1.089e+04 4.351e-10
 11.04389   -238.0 1.093e+04 4.710e-10
 11.05623   -237.6 1.082e+04 4.396e-10
 11.07577   -236.9 1.075e+04 4.083e-10
 11.08685   -236.9 1.075e+04 4.387e-10
 11.11173   -235.7 1.071e+04 3.994e-10
 11.15082   -234.9 1.065e+04 3.513e-10
 11.17298   -234.4 1.071e+04 3.614e-10
 11.20046   -233.1 1.055e+04 2.923e-10
 11.23675   -231.4 1.032e+04 2.272e-10
 11.25891   -231.0 1.039e+04 2.305e-10
 11.28910   -229.1 1.014e+04 1.775e-10
 11.32267   -227.1 1.002e+04 1.449e-10
 11.34483   -226.5 1.003e+04 1.446e-10
 11.37774   -224.3 9.960e+03 1.243e-10
 11.40860   -222.1 9.961e+03 1.143e-10
 11.43076   -221.3 1.000e+04 1.140e-10
 11.46638   -219.1 9.975e+03 1.107e-10
 11.49453   -216.9 9.973e+03 1.098e-10
 11.51669   -216.4 1.010e+04 1.121e-10
 11.55501   -214.3 1.011e+04 1.123e-10
 11.58046   -212.4 1.014e+04 1.118e-10
 11.59653   -212.4 1.056e+04 1.421e-10
 11.61540   -213.1 1.021e+04 9.728e-11
 11.64365   -211.3 1.027e+04 1.021e-10
 11.66639   -209.8 1.046e+04 1.215e-10
 11.68855   -210.5 1.148e+04 3.519e-10
 11.73016   -209.0 1.151e+04 4.216e-10
 11.75232   -209.4 1.236e+04 9.133e-10
 11.77661   -207.8 1.209e+04 8.752e-10
 11.81608   -206.2 1.177e+04 8.011e-10
 11.83824   -206.7 1.212e+04 1.036e-09
 11.86525   -204.8 1.165e+04 8.306e-10
 11.90201   -202.9 1.113e+04 6.509e-10
 11.92417   -203.0 1.111e+04 6.549e-10
 11.95389   -200.8 1.064e+04 5.248e-10
 11.98794   -198.6 1.031e+04 4.330e-10
 12.01010   -198.1 1.014e+04 3.761e-10
 12.04253   -195.6 9.925e+03 3.196e-10
 12.07387   -193.1 9.777e+03 2.855e-10
 12.09603   -192.5 9.652e+03 2.325e-10
 12.13116   -190.0 9.551e+03 2.199e-10
 12.15980   -187.6 9.483e+03 2.151e-10
 12.18196   -186.9 9.431e+03 1.912e-10
 12.21980   -184.5 9.418e+03 1.923e-10
 12.24572   -182.1 9.389e+03 2.018e-10
 12.26788   -181.4 9.402e+03 1.978e-10
 12.30844   -179.1 9.372e+03 2.173e-10
 12.33165   -177.1 9.366e+03 2.398e-10
 12.33921   -177.6 1.010e+04 2.800e-10
 12.36031   -178.1 1.003e+04 2.712e-10
 12.39542   -176.6 1.043e+04 3.511e-10
 12.41758   -178.0 1.146e+04 6.160e-10
 12.44140   -176.4 1.187e+04 8.534e-10
 12.48135   -174.9 1.223e+04 1.124e-09
 12.50351   -176.7 1.291e+04 1.658e-09
 12.53004   -175.5 1.306e+04 1.849e-09
 12.56318   -174.9 1.328e+04 2.085e-09
 12.57816   -174.3 1.329e+04 2.101e-09
 12.58924   -175.3 1.348e+04 2.236e-09
 12.60740   -174.7 1.350e+04 2.245e-09
 12.62113   -174.0 1.350e+04 2.231e-09
 12.63221   -175.3 1.358e+04 2.307e-09
 12.65172   -174.6 1.363e+04 2.338e-09
 12.66409   -173.8 1.365e+04 2.368e-09
 12.67517   -174.9 1.367e+04 2.412e-09
 12.69597   -174.0 1.369e+04 2.464e-09
 12.71035   -173.8 1.366e+04 2.501e-09
 12.72149   -172.5 1.306e+04 1.842e-09
 12.73894   -171.3 1.302e+04 1.853e-09
 12.75002   -172.2 1.275e+04 1.609e-09
 12.76252   -170.9 1.280e+04 1.661e-09
 12.78190   -169.7 1.291e+04 1.748e-09
 12.79298   -170.9 1.298e+04 1.487e-09
 12.80683   -169.9 1.326e+04 1.698e-09
 12.82487   -169.0 1.360e+04 1.977e-09
 12.83595   -170.4 1.361e+04 1.820e-09
 12.85115   -169.2 1.389e+04 2.175e-09
 12.86783   -167.8 1.397e+04 2.534e-09
 12.87891   -169.0 1.333e+04 2.203e-09
 12.89547   -167.7 1.339e+04 2.414e-09
 12.91080   -167.8 1.385e+04 2.715e-09
 12.92188   -171.6 1.410e+04 2.487e-09
 12.93979   -177.7 1.892e+04 4.532e-09
 12.95371   -184.6 2.067e+04 8.796e-09
 12.96479   -188.8 2.077e+04 1.174e-08
 12.97519   -190.6 2.142e+04 1.618e-08
 12.98068   -192.1 2.091e+04 1.554e-08
 12.98955   -194.5 2.256e+04 2.041e-08
 12.99663   -198.0 2.409e+04 2.816e-08
 13.00217   -198.5 2.313e+04 2.244e-08
 13.01171   -201.9 2.396e+04 2.593e-08
 13.01811   -206.0 2.400e+04 2.673e-08
 13.02365   -206.1 2.289e+04 2.084e-08
 13.03387   -209.8 2.191e+04 1.956e-08
 13.03959   -213.3 2.006e+04 1.667e-08
 13.04513   -213.0 1.937e+04 1.356e-08
 13.05553   -215.6 1.814e+04 1.192e-08
 13.06107   -215.0 1.761e+04 9.882e-09
 13.06711   -216.6 1.700e+04 8.769e-09
 13.07701   -217.6 1.676e+04 7.676e-09
 13.08159   -216.9 1.646e+04 6.824e-09
 13.08277   -215.6 1.664e+04 6.790e-09
 13.08927   -216.5 1.642e+04 6.431e-09
 13.09850   -217.4 1.624e+04 6.135e-09
 13.10404   -216.7 1.620e+04 5.916e-09
 13.11449   -218.7 1.572e+04 5.427e-09
 13.12562   -217.9 1.498e+04 4.575e-09
 13.13923   -219.4 1.441e+04 3.624e-09
 13.15750   -220.8 1.368e+04 2.721e-09
 13.16858   -219.5 1.352e+04 2.623e-09
 13.18355   -220.7 1.287e+04 2.073e-09
 13.20046   -221.7 1.219e+04 1.630e-09
 13.21154   -220.4 1.239e+04 1.753e-09
 13.22787   -221.0 1.190e+04 1.448e-09
 13.24343   -221.5 1.149e+04 1.167e-09
 13.25451   -220.3 1.183e+04 1.363e-09
 13.27219   -220.7 1.152e+04 1.123e-09
 13.28639   -221.1 1.117e+04 8.872e-10
 13.29747   -220.0 1.163e+04 1.119e-09
 13.31651   -220.4 1.126e+04 8.912e-10
 13.32936   -220.9 1.085e+04 7.015e-10
 13.34044   -219.9 1.135e+04 9.145e-10
 13.36082   -220.2 1.094e+04 7.376e-10
 13.37232   -220.5 1.057e+04 6.207e-10
 13.38340   -219.7 1.107e+04 7.916e-10
 13.40420   -219.9 1.075e+04 6.842e-10
 13.41528   -219.2 1.123e+04 8.635e-10
 13.42730   -219.4 1.095e+04 7.608e-10
 13.44424   -219.5 1.072e+04 6.976e-10
 13.45303   -219.5 1.116e+04 8.069e-10
 13.45825   -219.0 1.160e+04 1.001e-09
 13.47162   -219.2 1.128e+04 8.690e-10
 13.49013   -219.2 1.103e+04 7.795e-10
 13.50121   -218.7 1.139e+04 9.398e-10
 13.51594   -218.7 1.120e+04 8.580e-10
 13.53310   -218.6 1.103e+04 8.060e-10
 13.54418   -218.2 1.134e+04 9.332e-10
 13.56026   -218.1 1.117e+04 8.726e-10
 13.57616   -218.1 1.103e+04 8.321e-10
 13.58724   -217.4 1.146e+04 1.005e-09
 13.60458   -217.2 1.140e+04 9.933e-10
 13.63792   -217.3 1.149e+04 1.037e-09
 13.66218   -217.4 1.151e+04 1.041e-09
 13.67317   -216.4 1.175e+04 1.125e-09
 13.69322   -216.5 1.176e+04 1.104e-09
 13.70495   -216.7 1.181e+04 1.092e-09
 13.71603   -217.3 1.221e+04 1.224e-09
 13.73684   -220.6 1.387e+04 1.548e-09
 13.74792   -223.1 1.582e+04 2.402e-09
 13.75970   -227.1 1.687e+04 3.587e-09
 13.77980   -230.8 1.717e+04 4.944e-09
 13.79088   -232.3 1.778e+04 7.308e-09
 13.80402   -234.8 1.760e+04 7.722e-09
 13.81669   -236.2 1.671e+04 7.631e-09
 13.82436   -237.4 1.868e+04 1.217e-08
 13.83385   -237.4 1.854e+04 1.216e-08
 13.84833   -238.0 1.657e+04 7.076e-09
 13.86573   -238.0 1.551e+04 4.328e-09
 13.87681   -238.0 1.525e+04 4.016e-09
 13.89265   -237.5 1.441e+04 2.499e-09
 13.90869   -237.3 1.349e+04 1.557e-09
 13.91977   -237.0 1.333e+04 1.506e-09
 13.93697   -237.0 1.252e+04 1.001e-09
 13.95166   -237.0 1.179e+04 7.063e-10
 13.96274   -236.7 1.185e+04 7.088e-10
 13.98129   -236.2 1.128e+04 5.271e-10
 13.99462   -235.4 1.092e+04 4.165e-10
 14.00570   -235.3 1.107e+04 4.486e-10
 14.02561   -234.6 1.087e+04 3.790e-10
 14.03759   -234.1 1.079e+04 3.470e-10
 14.04867   -233.9 1.085e+04 3.638e-10
 14.06957   -233.8 1.073e+04 3.282e-10
 14.09183   -233.2 1.088e+04 3.632e-10
 14.12552   -232.5 1.066e+04 3.081e-10
 14.15559   -231.8 1.051e+04 2.803e-10
 14.17775   -231.5 1.062e+04 2.921e-10
 14.21416   -230.9 1.051e+04 2.777e-10
 14.24152   -230.2 1.047e+04 2.734e-10
 14.26368   -230.0 1.050e+04 2.748e-10
 14.30280   -229.3 1.049e+04 2.682e-10
 14.32745   -228.7 1.049e+04 2.556e-10
 14.34961   -228.8 1.069e+04 2.699e-10
 14.39122   -228.1 1.069e+04 2.502e-10
 14.41338   -228.4 1.091e+04 3.157e-10
 14.43576   -227.4 1.073e+04 2.567e-10
 14.47715   -226.2 1.059e+04 2.011e-10
 14.49931   -226.5 1.059e+04 2.277e-10
 14.52440   -225.2 1.045e+04 1.773e-10
 14.55072   -223.7 1.033e+04 1.483e-10
 14.56724   -223.5 1.024e+04 1.368e-10
 14.58524   -223.7 1.021e+04 1.446e-10
 14.61304   -222.0 1.011e+04 1.254e-10
 14.64900   -220.3 1.003e+04 1.124e-10
 14.67116   -220.4 1.001e+04 1.141e-10
 14.70167   -218.7 9.968e+03 1.040e-10
 14.73493   -217.1 9.930e+03 9.787e-11
 14.75709   -217.2 9.928e+03 9.778e-11
 14.79031   -215.6 9.881e+03 9.429e-11
 14.82086   -213.9 9.824e+03 9.269e-11
 14.84302   -214.1 9.794e+03 9.465e-11
 14.87895   -212.4 9.771e+03 9.451e-11
 14.90679   -210.7 9.754e+03 9.457e-11
 14.92895   -210.9 9.771e+03 9.907e-11
 14.96759   -209.3 9.744e+03 9.948e-11
 14.99272   -207.6 9.717e+03 9.953e-11
 15.01488   -207.9 9.719e+03 1.101e-10
 15.05623   -206.1 9.622e+03 1.073e-10
 15.07864   -204.4 9.568e+03 1.010e-10
 15.10080   -204.6 9.598e+03 1.129e-10
 15.14241   -202.8 9.556e+03 1.061e-10
 15.16457   -203.0 9.606e+03 1.208e-10
 15.18918   -201.2 9.588e+03 1.178e-10
 15.22834   -199.3 9.586e+03 1.172e-10
 15.25050   -199.6 9.639e+03 1.298e-10
 15.27346   -197.9 9.652e+03 1.312e-10
 15.29562   -197.7 9.591e+03 1.442e-10
 15.31427   -196.0 9.601e+03 1.475e-10
 15.33643   -196.4 9.634e+03 1.598e-10
 15.36646   -194.8 9.629e+03 1.684e-10
 15.40020   -193.2 9.627e+03 1.790e-10
 15.42236   -193.7 9.641e+03 1.889e-10
 15.45510   -192.1 9.648e+03 1.998e-10
 15.48613   -190.5 9.663e+03 2.092e-10
 15.50829   -191.1 9.667e+03 2.173e-10
 15.54374   -189.7 9.679e+03 2.262e-10
 15.57205   -188.3 9.706e+03 2.362e-10
 15.59421   -189.1 9.686e+03 2.385e-10
 15.63238   -187.8 9.750e+03 2.513e-10
 15.65798   -186.5 9.822e+03 2.705e-10
 15.68014   -187.3 9.674e+03 2.616e-10
 15.72101   -186.0 9.683e+03 2.670e-10
 15.74391   -184.8 9.682e+03 2.662e-10
 15.76607   -185.3 9.528e+03 2.227e-10
 15.80768   -184.0 9.493e+03 2.148e-10
 15.82984   -184.3 9.350e+03 1.752e-10
 15.85397   -182.9 9.316e+03 1.709e-10
 15.89361   -181.6 9.305e+03 1.694e-10
 15.91577   -181.7 9.207e+03 1.397e-10
 15.94261   -180.5 9.237e+03 1.460e-10
 15.97954   -179.4 9.309e+03 1.639e-10
 16.00170   -179.4 9.252e+03 1.489e-10
 16.01837   -178.3 9.376e+03 1.822e-10
 16.04053   -177.7 9.278e+03 1.308e-10
 16.06546   -176.6 9.395e+03 1.653e-10
 16.08762   -176.6 9.352e+03 1.590e-10
 16.11989   -175.6 9.490e+03 2.001e-10
 16.15139   -174.5 9.602e+03 2.320e-10
 16.17355   -174.5 9.510e+03 2.302e-10
 16.20852   -173.4 9.582e+03 2.443e-10
 16.23732   -172.3 9.582e+03 2.451e-10
 16.25948   -172.2 9.345e+03 2.325e-10
 16.29716   -171.0 9.302e+03 2.193e-10
 16.32325   -169.7 9.232e+03 1.873e-10
 16.34541   -169.3 8.923e+03 1.648e-10
 16.38580   -167.9 8.866e+03 1.462e-10
 16.40918   -166.6 8.850e+03 1.375e-10
 16.43134   -165.9 8.644e+03 1.153e-10
 16.47295   -164.6 8.697e+03 1.152e-10
 16.49510   -163.9 8.578e+03 9.266e-11
 16.51876   -162.9 8.787e+03 1.132e-10
 16.55887   -161.9 9.015e+03 1.540e-10
 16.58103   -161.2 8.886e+03 1.339e-10
 16.60740   -160.3 9.173e+03 1.933e-10
 16.64480   -159.5 9.450e+03 2.513e-10
 16.66696   -158.9 9.404e+03 2.465e-10
 16.69603   -158.3 9.627e+03 2.880e-10
 16.73073   -157.9 9.685e+03 2.939e-10
 16.75289   -157.3 9.699e+03 3.113e-10
 16.76328   -157.0 9.744e+03 2.866e-10
 16.78544   -157.1 9.693e+03 2.835e-10
 16.81666   -156.9 9.638e+03 2.208e-10
 16.83882   -156.4 9.639e+03 2.330e-10
 16.87331   -156.3 9.626e+03 1.941e-10
 16.90259   -156.3 9.648e+03 1.863e-10
 16.92475   -155.8 9.634e+03 1.893e-10
 16.96195   -155.8 9.743e+03 1.910e-10
 16.98851   -155.9 1.001e+04 2.322e-10
 17.01067   -155.3 9.982e+03 2.299e-10
 17.05059   -155.5 1.031e+04 3.239e-10
 17.07444   -156.3 1.091e+04 5.024e-10
 17.09660   -155.7 1.093e+04 5.064e-10
 17.13821   -157.1 1.176e+04 8.528e-10
 17.16037   -156.6 1.182e+04 8.728e-10
 17.18354   -158.7 1.265e+04 1.406e-09
 17.22414   -161.4 1.298e+04 1.708e-09
 17.24620   -161.5 1.342e+04 2.274e-09
 17.26091   -162.4 1.346e+04 2.280e-09
 17.27799   -163.1 1.330e+04 1.866e-09
 17.28907   -162.9 1.386e+04 2.590e-09
 17.30523   -163.4 1.348e+04 1.920e-09
 17.32095   -163.8 1.319e+04 1.467e-09
 17.33203   -163.6 1.338e+04 1.786e-09
 17.34955   -163.7 1.263e+04 1.065e-09
 17.36392   -164.1 1.189e+04 6.088e-10
 17.37500   -163.8 1.219e+04 8.357e-10
 17.39387   -164.1 1.155e+04 5.230e-10
 17.40688   -164.1 1.116e+04 3.782e-10
 17.41796   -163.7 1.133e+04 4.893e-10
 17.44936   -163.2 1.105e+04 4.124e-10
 17.48192   -161.9 1.065e+04 2.780e-10
 17.49633   -160.8 1.091e+04 4.161e-10
 17.50819   -161.3 1.065e+04 3.371e-10
 17.53810   -159.4 1.027e+04 2.131e-10
 17.56785   -157.7 1.005e+04 1.364e-10
 17.59001   -156.3 1.011e+04 1.781e-10
 17.62674   -154.7 1.002e+04 1.267e-10
 17.65378   -153.4 1.002e+04 1.126e-10
 17.67594   -151.7 1.003e+04 1.294e-10
 17.71537   -150.6 1.004e+04 1.266e-10
 17.73971   -149.8 1.018e+04 1.295e-10
 17.76187   -148.3 1.024e+04 1.551e-10
 17.80348   -147.9 1.053e+04 2.044e-10
 17.82564   -146.8 1.084e+04 3.110e-10
 17.84833   -146.5 1.123e+04 4.515e-10
 17.88941   -146.7 1.154e+04 5.103e-10
 17.91156   -145.6 1.217e+04 8.889e-10
 17.93697   -146.9 1.227e+04 8.799e-10
 17.97533   -148.7 1.202e+04 6.735e-10
 17.99749   -148.3 1.289e+04 1.172e-09
 18.02561   -150.3 1.233e+04 8.268e-10
 18.06126   -152.5 1.172e+04 6.768e-10
 18.08342   -152.0 1.244e+04 9.063e-10
 18.11425   -153.7 1.157e+04 6.831e-10
 18.14719   -154.5 1.107e+04 5.692e-10
 18.16935   -154.3 1.116e+04 5.634e-10
 18.20289   -154.5 1.083e+04 4.796e-10
 18.23094   -154.6 1.069e+04 4.307e-10
 18.23901   -154.1 1.046e+04 3.699e-10
 18.25528   -153.9 1.074e+04 4.665e-10
 18.29152   -154.0 1.060e+04 4.163e-10
 18.31905   -154.5 1.066e+04 3.996e-10
 18.34121   -154.0 1.082e+04 4.681e-10
 18.38016   -154.8 1.090e+04 4.198e-10
 18.40497   -155.7 1.079e+04 3.555e-10
 18.42713   -155.8 1.097e+04 3.887e-10
 18.46874   -157.0 1.088e+04 3.131e-10
 18.50188   -160.5 1.066e+04 3.838e-10
 18.52259   -164.0 1.142e+04 4.141e-10
 18.53367   -167.9 1.590e+04 1.716e-09
 18.54616   -173.0 1.847e+04 3.349e-09
 18.56556   -178.2 2.031e+04 7.826e-09
 18.57659   -180.1 2.159e+04 2.641e-08
 18.58484   -181.6 2.172e+04 3.378e-08
 18.59248   -182.8 2.182e+04 4.088e-08
 18.59802   -182.9 2.212e+04 4.994e-08
 18.60310   -184.2 2.202e+04 4.995e-08
 18.60864   -185.4 2.193e+04 5.205e-08
 18.61396   -186.6 2.185e+04 5.054e-08
 18.61950   -187.0 2.156e+04 4.738e-08
 18.62916   -188.1 2.129e+04 4.183e-08
 18.63544   -189.2 2.098e+04 3.582e-08
 18.64098   -189.7 2.062e+04 2.629e-08
 18.65132   -191.1 2.005e+04 2.173e-08
 18.65693   -192.3 1.935e+04 1.791e-08
 18.66247   -193.5 1.852e+04 1.239e-08
 18.67287   -194.7 1.777e+04 1.072e-08
 18.67841   -195.8 1.670e+04 7.445e-09
 18.68456   -196.5 1.624e+04 7.033e-09
 18.69435   -197.0 1.593e+04 6.941e-09
 18.70548   -197.9 1.507e+04 5.165e-09
 18.72344   -198.4 1.468e+04 5.144e-09
 18.73741   -198.4 1.440e+04 5.547e-09
 18.74849   -198.6 1.374e+04 3.831e-09
 18.76776   -198.1 1.374e+04 4.135e-09
 18.78038   -197.6 1.354e+04 4.082e-09
 18.79146   -197.7 1.300e+04 2.932e-09
 18.81208   -197.2 1.278e+04 2.887e-09
 18.82334   -196.8 1.249e+04 2.563e-09
 18.83442   -196.9 1.219e+04 2.116e-09
 18.85522   -196.6 1.194e+04 1.907e-09
 18.86630   -196.6 1.180e+04 1.712e-09
 18.87856   -196.3 1.161e+04 1.552e-09
 18.89819   -196.2 1.141e+04 1.356e-09
 18.90927   -196.2 1.136e+04 1.282e-09
 18.92288   -196.2 1.113e+04 1.098e-09
 18.94115   -196.1 1.089e+04 9.456e-10
 18.95223   -196.0 1.075e+04 8.326e-10
 18.96457   -195.9 1.046e+04 6.902e-10
 18.97565   -196.1 1.035e+04 7.030e-10
 18.98412   -195.6 1.015e+04 5.836e-10
 18.99520   -195.4 1.000e+04 5.048e-10
 19.01151   -195.1 9.940e+03 4.616e-10
 19.04485   -195.2 9.880e+03 4.115e-10
 19.07024   -195.3 9.753e+03 3.482e-10
 19.09240   -195.6 9.554e+03 2.906e-10
 19.13359   -195.3 9.457e+03 2.563e-10
 19.15617   -195.0 9.426e+03 2.372e-10
 19.17833   -195.0 9.340e+03 2.157e-10
 19.21994   -194.6 9.309e+03 1.977e-10
 19.24210   -194.5 9.243e+03 1.839e-10
 19.26654   -194.1 9.174e+03 1.625e-10
 19.30587   -193.5 9.142e+03 1.486e-10
 19.32802   -193.3 9.002e+03 1.337e-10
 19.35518   -192.5 9.000e+03 1.252e-10
 19.39179   -191.5 9.011e+03 1.231e-10
 19.41395   -191.1 8.906e+03 1.120e-10
 19.44382   -190.1 8.931e+03 1.096e-10
 19.47772   -189.1 8.954e+03 1.087e-10
 19.49988   -188.6 8.895e+03 9.721e-11
 19.53246   -187.7 8.912e+03 9.692e-11
 19.56365   -187.0 9.001e+03 9.776e-11
 19.58581   -186.5 8.921e+03 8.759e-11
 19.62110   -186.1 9.153e+03 1.014e-10
 19.64958   -185.7 9.263e+03 1.421e-10
 19.67174   -185.0 9.119e+03 1.122e-10
 19.69859   -184.5 9.183e+03 1.459e-10
 19.72075   -184.4 9.260e+03 1.665e-10
 19.73551   -184.0 9.407e+03 1.941e-10
 19.75767   -183.2 9.218e+03 1.453e-10
 19.79837   -182.7 9.311e+03 1.609e-10
 19.82143   -182.2 9.422e+03 1.827e-10
 19.84359   -181.3 9.273e+03 1.343e-10
 19.88520   -180.6 9.359e+03 1.512e-10
 19.90736   -179.7 9.292e+03 1.121e-10
 19.93133   -178.9 9.347e+03 1.229e-10
 19.97113   -178.1 9.404e+03 1.359e-10
 19.99329   -177.2 9.330e+03 9.643e-11
 20.01997   -176.2 9.341e+03 1.048e-10
 20.05706   -175.1 9.352e+03 1.184e-10
 20.07922   -174.2 9.279e+03 8.729e-11
 20.10861   -172.9 9.299e+03 1.061e-10
 20.14299   -171.6 9.372e+03 1.320e-10
 20.16515   -170.7 9.308e+03 1.049e-10
 20.19725   -169.3 9.399e+03 1.328e-10
 20.22892   -168.0 9.519e+03 1.590e-10
 20.25108   -167.2 9.430e+03 1.322e-10
 20.28588   -165.9 9.531e+03 1.540e-10
 20.31484   -164.6 9.649e+03 1.678e-10
 20.33700   -163.8 9.552e+03 1.447e-10
 20.37452   -162.4 9.676e+03 1.524e-10
 20.40077   -161.1 9.761e+03 1.541e-10
 20.42293   -160.1 9.634e+03 1.318e-10
 20.44350   -158.6 9.682e+03 1.299e-10
 20.46566   -159.1 9.712e+03 1.443e-10
 20.48670   -157.4 9.754e+03 1.296e-10
 20.50886   -156.3 9.644e+03 1.086e-10
 20.55047   -154.5 9.671e+03 9.421e-11
 20.57263   -153.3 9.592e+03 8.209e-11
 20.59612   -151.5 9.632e+03 7.154e-11
 20.63640   -149.8 9.661e+03 6.559e-11
 20.65856   -148.5 9.637e+03 5.734e-11
 20.68476   -146.8 9.662e+03 5.454e-11
 20.72233   -145.1 9.671e+03 5.428e-11
 20.74448   -144.0 9.654e+03 4.870e-11
 20.77339   -142.5 9.695e+03 4.988e-11
 20.80825   -141.1 9.703e+03 6.151e-11
 20.83041   -139.9 9.678e+03 5.413e-11
 20.86203   -138.5 9.639e+03 7.157e-11
 20.89418   -136.8 9.664e+03 9.238e-11
 20.91634   -135.6 9.620e+03 8.185e-11
 20.95067   -133.9 9.696e+03 9.532e-11
 20.98011   -132.1 9.792e+03 9.974e-11
 21.00227   -130.9 9.728e+03 8.884e-11
 21.03931   -129.2 9.765e+03 8.747e-11
 21.06604   -127.5 9.813e+03 8.353e-11
 21.08820   -126.3 9.773e+03 7.772e-11
 21.12795   -124.7 9.834e+03 7.550e-11
 21.15197   -123.9 1.009e+04 7.861e-11
 21.16811   -122.4 9.916e+03 7.292e-11
 21.18841   -123.0 1.002e+04 6.325e-11
 21.21573   -124.0 1.106e+04 1.015e-10
 21.23789   -121.8 1.056e+04 7.140e-11
 21.26091   -125.0 1.217e+04 3.056e-10
 21.29405   -126.2 1.281e+04 8.938e-10
 21.31255   -126.8 1.351e+04 2.355e-09
 21.32363   -126.6 1.343e+04 1.813e-09
 21.33827   -126.6 1.432e+04 4.766e-09
 21.35551   -126.0 1.508e+04 7.029e-09
 21.36659   -125.9 1.514e+04 7.268e-09
 21.38259   -125.6 1.553e+04 8.192e-09
 21.39848   -125.7 1.561e+04 7.181e-09
 21.40956   -125.6 1.570e+04 8.091e-09
 21.42691   -126.2 1.526e+04 4.472e-09
 21.44144   -127.9 1.412e+04 1.667e-09
 21.45252   -127.4 1.432e+04 2.368e-09
 21.47123   -129.5 1.315e+04 1.073e-09
 21.48440   -130.8 1.232e+04 6.895e-10
 21.49548   -130.1 1.267e+04 9.696e-10
 21.51555   -130.4 1.219e+04 7.462e-10
 21.52737   -130.3 1.196e+04 6.775e-10
 21.53845   -129.8 1.217e+04 8.123e-10
 21.55935   -130.1 1.186e+04 6.989e-10
 21.57043   -129.1 1.220e+04 9.904e-10
 21.58202   -129.0 1.200e+04 8.776e-10
 21.61536   -128.9 1.192e+04 8.315e-10
 21.64538   -128.0 1.167e+04 7.164e-10
 21.66754   -127.2 1.197e+04 9.742e-10
 21.70410   -126.5 1.184e+04 9.361e-10
 21.73130   -125.7 1.167e+04 8.722e-10
 21.75346   -124.9 1.200e+04 1.147e-09
 21.79274   -124.0 1.174e+04 1.021e-09
 21.81723   -123.0 1.147e+04 8.422e-10
 21.83939   -121.9 1.171e+04 1.054e-09
 21.88100   -121.0 1.143e+04 8.306e-10
 21.90316   -119.7 1.166e+04 1.000e-09
 21.91116   -118.7 1.131e+04 7.295e-10
 21.93331   -119.5 1.136e+04 7.576e-10
 21.96693   -118.3 1.091e+04 4.762e-10
 21.98909   -117.0 1.098e+04 5.338e-10
 22.01433   -115.8 1.059e+04 3.139e-10
 22.05286   -114.6 1.031e+04 1.963e-10
 22.07502   -113.2 1.036e+04 2.131e-10
 22.10297   -111.9 1.016e+04 1.553e-10
 22.13879   -110.6 1.002e+04 1.409e-10
 22.16094   -109.1 1.010e+04 1.435e-10
 22.19161   -107.7 1.002e+04 1.369e-10
 22.22471   -106.3 9.961e+03 1.337e-10
 22.24687   -105.0 1.012e+04 1.504e-10
 22.28025   -103.6 1.002e+04 1.462e-10
 22.31064   -102.2 9.868e+03 1.367e-10
 22.33280   -100.9 1.001e+04 1.633e-10
 22.36888    -99.3 9.848e+03 1.369e-10
 22.39657    -97.7 9.709e+03 1.080e-10
 22.41873    -96.5 9.817e+03 1.259e-10
 22.45752    -94.9 9.678e+03 9.488e-11
 22.48250    -93.3 9.572e+03 7.096e-11
 22.50466    -92.2 9.659e+03 8.642e-11
 22.54616    -90.6 9.592e+03 6.715e-11
 22.59048    -88.0 9.632e+03 7.168e-11
 22.63219    -86.5 9.593e+03 6.250e-11
 22.65346    -85.4 9.676e+03 8.637e-11
 22.65606    -86.1 9.704e+03 8.627e-11
 22.67912    -84.7 9.693e+03 8.348e-11
 22.71812    -83.2 9.689e+03 8.497e-11
 22.74028    -82.1 9.765e+03 1.126e-10
 22.76776    -80.6 9.726e+03 1.197e-10
 22.80405    -78.9 9.713e+03 1.300e-10
 22.82621    -78.1 9.872e+03 1.663e-10
 22.85639    -76.5 9.934e+03 1.750e-10
 22.88998    -75.5 1.018e+04 2.014e-10
 22.91214    -75.3 1.038e+04 2.767e-10
 22.94503    -75.2 1.087e+04 4.329e-10
 22.97591    -75.5 1.170e+04 9.233e-10
 22.99807    -75.4 1.175e+04 1.022e-09
 23.01734    -75.7 1.253e+04 1.690e-09
 23.02460    -76.4 1.267e+04 1.899e-09
 23.02976    -76.2 1.258e+04 1.801e-09
 23.04456    -76.5 1.307e+04 2.381e-09
 23.06164    -77.2 1.361e+04 3.532e-09
 23.07272    -77.2 1.325e+04 2.624e-09
 23.08887    -77.8 1.373e+04 3.516e-09
 23.10460    -78.2 1.399e+04 4.486e-09
 23.11568    -78.9 1.342e+04 3.263e-09
 23.13319    -79.2 1.364e+04 3.974e-09
 23.14757    -79.3 1.376e+04 4.177e-09
 23.15865    -80.0 1.341e+04 3.627e-09
 23.17751    -80.0 1.349e+04 3.659e-09
 23.19053    -80.2 1.338e+04 3.043e-09
 23.20161    -80.4 1.325e+04 3.071e-09
 23.22183    -80.8 1.291e+04 2.152e-09
 23.23350    -82.0 1.253e+04 1.632e-09
 23.24458    -81.9 1.224e+04 1.424e-09
 23.26538    -83.2 1.185e+04 1.179e-09
 23.27646    -83.1 1.150e+04 8.959e-10
 23.28831    -83.6 1.128e+04 8.381e-10
 23.30834    -83.7 1.133e+04 8.508e-10
 23.31942    -83.5 1.090e+04 6.084e-10
 23.34381    -83.6 1.089e+04 5.650e-10
 23.37881    -84.3 1.098e+04 5.963e-10
 23.39614    -86.2 1.106e+04 6.710e-10
 23.40555    -86.0 1.055e+04 4.586e-10
 23.43254    -86.7 1.079e+04 5.957e-10
 23.46932    -87.1 1.092e+04 6.912e-10
 23.49148    -86.5 1.085e+04 6.684e-10
 23.52118    -87.0 1.084e+04 6.797e-10
 23.55525    -87.3 1.056e+04 6.014e-10
 23.57740    -86.7 1.050e+04 5.899e-10
 23.60982    -86.8 1.023e+04 4.819e-10
 23.64117    -86.5 1.005e+04 4.081e-10
 23.66333    -85.8 9.920e+03 3.776e-10
 23.69846    -84.9 9.776e+03 3.323e-10
 23.72710    -83.9 9.683e+03 2.898e-10
 23.74926    -83.1 9.639e+03 2.919e-10
 23.78710    -82.1 9.597e+03 2.617e-10
 23.81303    -81.2 9.589e+03 2.511e-10
 23.83519    -80.3 9.551e+03 2.555e-10
 23.87573    -79.5 9.663e+03 2.615e-10
 23.89896    -78.7 9.774e+03 2.857e-10
 23.92112    -77.9 9.748e+03 2.969e-10
 23.96273    -77.1 9.894e+03 3.228e-10
 23.98489    -76.3 9.880e+03 3.253e-10
 24.00869    -75.7 9.969e+03 3.404e-10
 24.04865    -75.0 1.003e+04 3.535e-10
 24.07081    -74.3 9.943e+03 3.314e-10
 24.09733    -73.5 1.009e+04 3.612e-10
 24.12372    -72.5 1.028e+04 3.977e-10
 24.13881    -72.9 1.036e+04 4.268e-10
 24.15674    -72.3 1.019e+04 3.991e-10
 24.18597    -71.1 1.048e+04 4.755e-10
 24.22051    -70.0 1.068e+04 5.242e-10
 24.24267    -69.8 1.064e+04 5.197e-10
 24.27461    -69.4 1.104e+04 6.137e-10
 24.30644    -69.8 1.174e+04 8.221e-10
 24.32860    -69.4 1.155e+04 8.126e-10
 24.34931    -71.1 1.217e+04 9.137e-10
 24.36029    -70.5 1.195e+04 8.764e-10
 24.37413    -72.1 1.263e+04 1.239e-09
 24.39217    -73.2 1.289e+04 1.513e-09
 24.40325    -72.6 1.272e+04 1.456e-09
 24.41845    -73.7 1.321e+04 1.898e-09
 24.43514    -75.0 1.362e+04 2.445e-09
 24.44622    -74.5 1.331e+04 2.167e-09
 24.46277    -75.2 1.354e+04 2.479e-09
 24.47810    -76.0 1.356e+04 2.512e-09
 24.48915    -75.4 1.348e+04 2.429e-09
 24.50706    -76.4 1.328e+04 2.182e-09
 24.54042    -77.3 1.284e+04 1.466e-09
 24.56422    -78.5 1.182e+04 7.529e-10
 24.58638    -77.2 1.198e+04 8.969e-10
 24.62799    -77.5 1.108e+04 4.736e-10
 24.65015    -76.3 1.123e+04 5.477e-10
 24.67348    -76.2 1.080e+04 3.709e-10
 24.71392    -75.5 1.053e+04 2.723e-10
 24.73608    -74.4 1.072e+04 3.651e-10
 24.76212    -73.4 1.050e+04 2.946e-10
 24.79985    -72.4 1.041e+04 2.436e-10
 24.82201    -71.3 1.063e+04 3.625e-10
 24.84647    -70.3 1.056e+04 3.193e-10
 24.86863    -71.0 1.068e+04 3.523e-10
 24.88578    -70.0 1.059e+04 3.241e-10
 24.90794    -68.9 1.074e+04 4.099e-10
 24.93939    -67.7 1.056e+04 3.395e-10
 24.97170    -66.4 1.035e+04 2.753e-10
 24.99386    -65.3 1.041e+04 2.927e-10
 25.02803    -63.8 1.019e+04 2.235e-10
 25.05763    -62.1 9.998e+03 1.692e-10
 25.07979    -61.0 1.003e+04 1.700e-10
 25.11667    -59.2 9.894e+03 1.323e-10
 25.14356    -57.5 9.822e+03 1.098e-10
 25.16572    -56.4 9.857e+03 1.105e-10
 25.20531    -54.8 9.822e+03 1.005e-10
 25.22949    -53.1 9.833e+03 9.791e-11
 25.25165    -52.2 9.876e+03 9.727e-11
 25.29326    -50.5 9.898e+03 9.802e-11
 25.31542    -49.6 9.914e+03 9.799e-11
 25.33827    -48.1 1.003e+04 9.942e-11
 25.37919    -47.1 1.024e+04 1.171e-10
 25.40135    -46.3 1.024e+04 1.102e-10
 25.42690    -45.9 1.041e+04 1.640e-10
 25.46511    -45.5 1.060e+04 3.204e-10
 25.48727    -44.5 1.049e+04 2.665e-10
 25.51554    -43.7 1.079e+04 4.683e-10
 25.55104    -42.8 1.114e+04 7.007e-10
 25.57320    -41.7 1.078e+04 4.108e-10
 25.59137    -41.1 1.087e+04 4.291e-10
 25.61353    -41.3 1.072e+04 3.157e-10
 25.63697    -40.8 1.076e+04 3.039e-10
 25.65913    -39.7 1.053e+04 1.683e-10
 25.69282    -39.0 1.056e+04 1.610e-10
 25.72290    -37.9 1.068e+04 1.724e-10
 25.74506    -37.0 1.052e+04 1.166e-10
 25.78146    -36.0 1.069e+04 1.268e-10
 25.80883    -34.8 1.067e+04 1.572e-10
 25.83099    -33.8 1.063e+04 1.314e-10
 25.87010    -32.1 1.059e+04 1.522e-10
 25.89476    -30.3 1.054e+04 1.578e-10
 25.91691    -29.3 1.057e+04 1.489e-10
 25.95852    -27.3 1.054e+04 1.347e-10
 25.98068    -26.2 1.060e+04 1.342e-10
 26.00305    -24.5 1.051e+04 1.176e-10
 26.04445    -22.8 1.042e+04 1.008e-10
 26.06661    -21.7 1.044e+04 1.054e-10
 26.09169    -19.7 1.040e+04 9.441e-11
 26.13038    -17.6 1.033e+04 8.289e-11
 26.15254    -16.6 1.038e+04 8.683e-11
 26.18033    -14.2 1.033e+04 7.832e-11
 26.21631    -11.9 1.034e+04 6.635e-11
 26.23847    -10.9 1.041e+04 7.265e-11
 26.26897     -8.9 1.046e+04 6.492e-11
 26.30224     -6.9 1.048e+04 6.508e-11
 26.32440     -5.8 1.049e+04 7.652e-11
 26.33628     -3.5 1.045e+04 8.428e-11
 26.35844     -3.5 1.051e+04 8.009e-11
 26.38816     -0.9 1.052e+04 8.488e-11
 26.41032      0.4 1.057e+04 8.601e-11
 26.44624      2.9 1.059e+04 8.493e-11
 26.47409      5.3 1.061e+04 7.953e-11
 26.49625      6.4 1.067e+04 8.230e-11
 26.53488      8.6 1.067e+04 7.652e-11
 26.56002     10.7 1.073e+04 7.060e-11
 26.58218     11.6 1.071e+04 9.215e-11
 26.62352     13.8 1.066e+04 9.378e-11
 26.64595     16.1 1.066e+04 9.104e-11
 26.66811     17.0 1.066e+04 1.416e-10
 26.70972     19.3 1.064e+04 1.416e-10
 26.73188     20.6 1.078e+04 2.144e-10
 26.75648     22.9 1.076e+04 2.143e-10
 26.79565     25.2 1.075e+04 2.013e-10
 26.81781     26.5 1.095e+04 2.823e-10
 26.84512     28.8 1.087e+04 2.630e-10
 26.88157     31.2 1.080e+04 2.110e-10
 26.90373     32.3 1.090e+04 3.035e-10
 26.93375     34.7 1.077e+04 2.421e-10
 26.96750     37.1 1.077e+04 1.671e-10
 26.98966     38.3 1.077e+04 2.648e-10
 27.02239     40.6 1.073e+04 1.899e-10
 27.05343     42.7 1.079e+04 1.304e-10
 27.06791     44.0 1.085e+04 2.079e-10
 27.08119     43.9 1.091e+04 2.570e-10
 27.11103     46.0 1.083e+04 2.141e-10
 27.13936     48.2 1.076e+04 1.821e-10
 27.16152     49.5 1.102e+04 2.509e-10
 27.19967     51.7 1.091e+04 2.200e-10
 27.22529     53.8 1.081e+04 1.996e-10
 27.24745     55.1 1.105e+04 2.532e-10
 27.28831     57.3 1.096e+04 2.178e-10
 27.31122     59.5 1.089e+04 1.966e-10
 27.33337     60.7 1.099e+04 2.182e-10
 27.37498     62.9 1.086e+04 1.795e-10
 27.39714     64.0 1.095e+04 1.931e-10
 27.42127     65.9 1.078e+04 1.442e-10
 27.46091     67.9 1.054e+04 1.374e-10
 27.48307     68.8 1.065e+04 1.282e-10
 27.50990     70.9 1.051e+04 1.265e-10
 27.54684     73.1 1.051e+04 1.275e-10
 27.56900     74.1 1.049e+04 1.289e-10
 27.59854     76.4 1.049e+04 1.291e-10
 27.63277     78.6 1.052e+04 1.316e-10
 27.65493     79.5 1.059e+04 1.392e-10
 27.68718     81.7 1.059e+04 1.426e-10
 27.71870     83.9 1.061e+04 1.522e-10
 27.74086     84.7 1.074e+04 1.737e-10
 27.77582     86.7 1.075e+04 1.820e-10
 27.80394     88.7 1.077e+04 1.936e-10
 27.81059     89.1 1.079e+04 2.159e-10
 27.82678     89.9 1.080e+04 2.641e-10
 27.86446     91.7 1.083e+04 2.738e-10
 27.89055     93.6 1.083e+04 2.808e-10
 27.91271     94.3 1.091e+04 3.665e-10
 27.95309     96.2 1.088e+04 3.627e-10
 27.97648     98.1 1.081e+04 3.580e-10
 27.99864     98.5 1.106e+04 3.902e-10
 28.04025    100.4 1.094e+04 3.571e-10
 28.06241    100.1 1.145e+04 4.172e-10
 28.08605    101.9 1.126e+04 3.908e-10
 28.12618    103.8 1.124e+04 3.962e-10
 28.14824    102.0 1.254e+04 7.312e-10
 28.16342    103.2 1.251e+04 7.456e-10
 28.17620    104.3 1.252e+04 7.889e-10
 28.18173    104.0 1.291e+04 1.021e-09
 28.19111    104.1 1.292e+04 1.087e-09
 28.21201    105.7 1.267e+04 9.735e-10
 28.23417    104.2 1.404e+04 2.497e-09
 28.25205    105.1 1.413e+04 2.643e-09
 28.26595    106.0 1.424e+04 2.800e-09
 28.27703    105.8 1.436e+04 4.394e-09
 28.29637    106.8 1.447e+04 4.781e-09
 28.30892    107.8 1.457e+04 5.137e-09
 28.32000    107.7 1.452e+04 5.603e-09
 28.34069    108.8 1.453e+04 5.631e-09
 28.35188    109.7 1.453e+04 5.613e-09
 28.36296    109.8 1.424e+04 4.560e-09
 28.38377    110.9 1.423e+04 4.479e-09
 28.40602    110.1 1.408e+04 1.848e-09
 28.44061    112.2 1.388e+04 1.646e-09
 28.46989    114.6 1.358e+04 1.575e-09
 28.49205    113.3 1.258e+04 5.048e-10
 28.52669    115.8 1.257e+04 5.047e-10
 28.54885    116.1 1.274e+04 5.980e-10
 28.55582    118.8 1.265e+04 6.149e-10
 28.57798    118.6 1.178e+04 3.661e-10
 28.61788    121.2 1.177e+04 3.711e-10
 28.64175    123.8 1.175e+04 3.990e-10
 28.66391    124.3 1.183e+04 3.103e-10
 28.70552    126.7 1.163e+04 3.446e-10
 28.72768    127.3 1.197e+04 3.617e-10
 28.75084    129.8 1.187e+04 3.833e-10
 28.79144    132.2 1.179e+04 4.535e-10
 28.81360    132.7 1.211e+04 4.868e-10
 28.83948    135.0 1.207e+04 5.104e-10
 28.87737    137.0 1.206e+04 5.620e-10
 28.89953    137.5 1.205e+04 5.774e-10
 28.92812    139.5 1.207e+04 5.850e-10
 28.96330    141.5 1.210e+04 6.263e-10
 28.98546    142.0 1.192e+04 6.255e-10
 29.01675    144.0 1.203e+04 6.787e-10
 29.04913    144.9 1.201e+04 7.171e-10
 29.07129    145.8 1.193e+04 6.826e-10
 29.10539    147.8 1.203e+04 7.272e-10
 29.13506    148.6 1.205e+04 7.506e-10
 29.15722    149.9 1.162e+04 5.758e-10
 29.19403    151.4 1.164e+04 5.710e-10
 29.22108    153.0 1.165e+04 5.687e-10
 29.24324    154.0 1.113e+04 3.966e-10
 29.27159    155.6 1.121e+04 4.128e-10
 29.29375    155.2 1.118e+04 4.089e-10
 29.30701    156.7 1.131e+04 4.259e-10
 29.32917    157.7 1.089e+04 2.878e-10
 29.37078    159.2 1.108e+04 3.212e-10
 29.39294    160.3 1.079e+04 2.303e-10
 29.41563    161.7 1.099e+04 2.770e-10
 29.45671    162.9 1.127e+04 3.421e-10
 29.47887    164.2 1.111e+04 3.337e-10
 29.50426    165.0 1.140e+04 4.081e-10
 29.54264    165.6 1.161e+04 4.718e-10
 29.56480    166.5 1.181e+04 5.786e-10
 29.59290    166.9 1.189e+04 5.781e-10
 29.62857    167.2 1.189e+04 5.625e-10
 29.65073    167.9 1.211e+04 8.181e-10
 29.68154    168.1 1.189e+04 6.409e-10
 29.71449    168.5 1.155e+04 4.821e-10
 29.73665    169.2 1.159e+04 5.392e-10
 29.77018    169.4 1.130e+04 4.312e-10
 29.80042    169.6 1.130e+04 4.327e-10
 29.82258    169.8 1.138e+04 4.895e-10
 29.85882    169.7 1.143e+04 5.155e-10
 29.88635    169.5 1.166e+04 6.312e-10
 29.90851    169.6 1.177e+04 7.783e-10
 29.94746    169.2 1.203e+04 9.156e-10
 29.97228    168.4 1.217e+04 9.497e-10
 29.99444    168.5 1.222e+04 1.157e-09
 30.01650    167.5 1.216e+04 1.078e-09
 30.03861    168.5 1.234e+04 1.315e-09
 30.08037    167.9 1.222e+04 1.357e-09
 30.12198    167.3 1.196e+04 1.080e-09
 30.14414    168.2 1.193e+04 1.209e-09
 30.16905    168.0 1.163e+04 9.415e-10
 30.20790    167.8 1.124e+04 6.660e-10
 30.23006    169.3 1.135e+04 7.736e-10
 30.25769    169.5 1.103e+04 5.894e-10
 30.29383    170.0 1.075e+04 4.602e-10
 30.31599    171.4 1.080e+04 4.662e-10
 30.34633    172.0 1.059e+04 3.903e-10
 30.37976    172.7 1.039e+04 3.403e-10
 30.40192    174.1 1.036e+04 3.181e-10
 30.43497    175.2 1.018e+04 2.890e-10
 30.46569    176.7 1.004e+04 2.664e-10
 30.48785    178.0 9.994e+03 2.523e-10
 30.52360    179.7 9.986e+03 2.537e-10
 30.55162    181.3 1.001e+04 2.656e-10
 30.57378    182.5 1.003e+04 2.752e-10
 30.61224    183.9 1.015e+04 3.079e-10
 30.63754    185.3 1.029e+04 3.427e-10
 30.65970    186.2 1.033e+04 3.742e-10
 30.70088    187.3 1.041e+04 3.843e-10
 30.72347    188.4 1.041e+04 3.814e-10
 30.73968    189.2 1.037e+04 3.985e-10
 30.76141    189.2 1.056e+04 5.071e-10
 30.78724    190.3 1.052e+04 4.775e-10
 30.80940    191.1 1.042e+04 4.559e-10
 30.83384    192.2 1.038e+04 4.277e-10
 30.87317    193.4 1.036e+04 4.113e-10
 30.89533    194.3 1.024e+04 3.913e-10
 30.92248    195.3 1.035e+04 4.057e-10
 30.95910    196.2 1.043e+04 4.110e-10
 30.98126    197.1 1.042e+04 4.058e-10
 31.01112    197.6 1.044e+04 4.017e-10
 31.04503    198.0 1.044e+04 3.822e-10
 31.06719    198.8 1.039e+04 3.686e-10
 31.09975    199.0 1.038e+04 3.271e-10
 31.13095    199.3 1.033e+04 2.677e-10
 31.15311    200.1 1.024e+04 2.412e-10
 31.18839    200.3 1.018e+04 1.855e-10
 31.21688    200.5 1.010e+04 1.397e-10
 31.23904    201.3 1.003e+04 1.196e-10
 31.27703    201.7 9.928e+03 9.497e-11
 31.30281    202.3 9.815e+03 8.042e-11
 31.32497    203.3 9.738e+03 7.627e-11
 31.36567    204.2 9.726e+03 7.638e-11
 31.38874    205.4 9.725e+03 8.010e-11
 31.41090    206.4 9.735e+03 8.414e-11
 31.45251    207.4 9.836e+03 1.015e-10
 31.47467    208.3 9.905e+03 1.106e-10
 31.48416    209.2 1.009e+04 1.455e-10
 31.50632    209.0 1.012e+04 1.387e-10
 31.53844    209.8 1.029e+04 1.659e-10
 31.56060    210.3 1.040e+04 1.803e-10
 31.58726    210.9 1.046e+04 1.938e-10
 31.62436    211.3 1.045e+04 1.939e-10
 31.64652    211.3 1.047e+04 1.946e-10
 31.67590    211.7 1.038e+04 1.882e-10
 31.71029    212.3 1.035e+04 1.871e-10
 31.73245    211.8 1.039e+04 1.961e-10
 31.76454    212.3 1.039e+04 2.028e-10
 31.79622    212.7 1.044e+04 2.351e-10
 31.81838    211.8 1.050e+04 2.825e-10
 31.85318    212.1 1.068e+04 3.731e-10
 31.88215    212.2 1.091e+04 5.056e-10
 31.90431    211.7 1.090e+04 5.463e-10
 31.94182    211.6 1.111e+04 6.662e-10
 31.96808    211.2 1.124e+04 7.109e-10
 31.99024    211.1 1.113e+04 6.624e-10
 32.03046    210.7 1.112e+04 6.507e-10
 32.05400    210.3 1.103e+04 5.906e-10
 32.07616    210.6 1.076e+04 4.540e-10
 32.11777    210.5 1.053e+04 3.437e-10
 32.13993    211.1 1.025e+04 2.422e-10
 32.16341    211.1 9.985e+03 1.701e-10
 32.20370    211.1 9.626e+03 1.253e-10
 32.22504    211.9 9.500e+03 1.191e-10
 32.22907    212.1 9.689e+03 1.604e-10
 32.25205    212.3 9.595e+03 1.575e-10
 32.28963    212.7 9.589e+03 1.610e-10
 32.31179    213.4 9.630e+03 1.789e-10
 32.34069    213.6 9.743e+03 2.146e-10
 32.37556    213.8 9.994e+03 2.816e-10
 32.39772    214.3 1.033e+04 3.746e-10
 32.42933    214.5 1.055e+04 4.662e-10
 32.46149    214.8 1.070e+04 5.165e-10
 32.48365    215.5 1.109e+04 6.539e-10
 32.51797    215.8 1.102e+04 6.240e-10
 32.54732    216.2 1.096e+04 6.088e-10
 32.55830    216.6 1.111e+04 6.789e-10
 32.57317    216.9 1.102e+04 6.431e-10
 32.59018    217.2 1.095e+04 6.021e-10
 32.60126    216.6 1.096e+04 5.494e-10
 32.61749    216.7 1.078e+04 4.750e-10
 32.63315    217.2 1.056e+04 4.284e-10
 32.64423    217.5 1.054e+04 4.236e-10
 32.66181    217.9 1.038e+04 3.963e-10
 32.67611    218.7 1.027e+04 3.917e-10
 32.68719    218.9 1.026e+04 3.872e-10
 32.70613    219.5 1.026e+04 3.878e-10
 32.71908    220.3 1.025e+04 3.927e-10
 32.73016    220.6 1.021e+04 3.762e-10
 32.75045    221.2 1.021e+04 3.856e-10
 32.76204    221.9 1.023e+04 4.061e-10
 32.77312    222.0 1.019e+04 3.975e-10
 32.79392    222.6 1.027e+04 4.352e-10
 32.80500    222.8 1.024e+04 4.363e-10
 32.81692    223.5 1.039e+04 5.012e-10
 32.83689    223.9 1.058e+04 5.872e-10
 32.84797    223.8 1.050e+04 5.794e-10
 32.86124    224.1 1.068e+04 6.662e-10
 32.87985    224.3 1.087e+04 7.688e-10
 32.89093    224.0 1.065e+04 6.991e-10
 32.91674    224.2 1.110e+04 9.041e-10
 32.95181    223.9 1.138e+04 1.076e-09
 32.96771    224.5 1.059e+04 7.409e-10
 32.97706    224.5 1.009e+04 5.138e-10
 33.00548    224.3 1.014e+04 5.261e-10
 33.04082    224.0 1.023e+04 5.537e-10
 33.06298    223.9 9.736e+03 3.719e-10
 33.09411    223.5 9.856e+03 4.160e-10
 33.12675    223.2 9.980e+03 4.766e-10
 33.14891    223.3 9.589e+03 3.985e-10
 33.18275    223.2 9.668e+03 4.311e-10
 33.21268    223.1 9.678e+03 4.339e-10
 33.23484    223.5 9.573e+03 4.178e-10
 33.27139    223.6 9.520e+03 4.058e-10
 33.29861    223.8 9.409e+03 3.791e-10
 33.32077    224.5 9.403e+03 3.944e-10
 33.36003    224.9 9.277e+03 3.717e-10
 33.38454    225.4 9.171e+03 3.502e-10
 33.40670    226.2 9.276e+03 3.834e-10
 33.44831    226.8 9.136e+03 3.464e-10
 33.47046    227.5 9.181e+03 3.583e-10
 33.49299    228.3 8.972e+03 3.107e-10
 33.53423    229.1 8.788e+03 2.767e-10
 33.55639    229.9 8.765e+03 2.742e-10
 33.58163    230.8 8.709e+03 2.694e-10
 33.62016    231.8 8.715e+03 2.733e-10
 33.64232    232.6 8.712e+03 2.830e-10
 33.67026    233.6 8.744e+03 3.033e-10
 33.69672    234.5 8.846e+03 3.368e-10
 33.71039    235.4 8.717e+03 2.981e-10
 33.72825    236.4 8.937e+03 3.461e-10
 33.75890    237.3 9.127e+03 4.119e-10
 33.79202    237.5 9.469e+03 5.129e-10
 33.81418    238.7 9.801e+03 6.104e-10
 33.84754    238.5 1.027e+04 7.992e-10
 33.87795    237.7 1.091e+04 1.066e-09
 33.88893    237.7 1.104e+04 1.163e-09
 33.90274    237.1 1.134e+04 1.313e-09
 33.92071    235.9 1.167e+04 1.446e-09
 33.93179    235.7 1.206e+04 1.697e-09
 33.94706    234.2 1.226e+04 1.715e-09
 33.96368    232.5 1.227e+04 1.705e-09
 33.97476    231.7 1.272e+04 2.019e-09
 33.99138    229.6 1.262e+04 1.829e-09
 34.00664    227.5 1.235e+04 1.477e-09
 34.01772    226.6 1.257e+04 1.576e-09
 34.03570    224.5 1.203e+04 1.144e-09
 34.04970    223.0 1.151e+04 7.732e-10
 34.06078    221.3 1.131e+04 7.166e-10
 34.08002    219.9 1.079e+04 5.179e-10
 34.11336    217.7 9.988e+03 3.311e-10
 34.15777    214.3 9.733e+03 2.884e-10
 34.19950    214.2 9.717e+03 2.854e-10
 34.22166    213.0 9.851e+03 3.010e-10
 34.24641    213.2 9.861e+03 3.008e-10
 34.28543    213.4 9.901e+03 3.049e-10
 34.30759    212.5 9.901e+03 3.177e-10
 34.32387    212.8 9.837e+03 3.103e-10
 34.33928    213.0 9.831e+03 3.198e-10
 34.35036    212.9 9.876e+03 3.428e-10
 34.36809    213.2 1.003e+04 3.945e-10
 34.38224    213.3 1.028e+04 4.823e-10
 34.39332    212.9 1.055e+04 5.965e-10
 34.41241    212.6 1.086e+04 7.356e-10
 34.42520    212.2 1.122e+04 9.085e-10
 34.43206    211.7 1.152e+04 1.097e-09
 34.44143    211.8 1.111e+04 9.144e-10
 34.45719    211.8 1.127e+04 1.014e-09
 34.47944    210.1 1.175e+04 1.265e-09
 34.51233    209.4 1.198e+04 1.381e-09
 34.54321    208.7 1.197e+04 1.357e-09
 34.56537    207.4 1.204e+04 1.370e-09
 34.60097    207.4 1.176e+04 1.138e-09
 34.62914    207.6 1.122e+04 8.229e-10
 34.65130    207.1 1.112e+04 8.050e-10
 34.68960    207.6 1.054e+04 5.599e-10
 34.71507    208.2 1.005e+04 3.791e-10
 34.73723    208.4 1.007e+04 3.990e-10
 34.77824    209.3 9.651e+03 2.806e-10
 34.80100    210.1 9.418e+03 2.207e-10
 34.82316    210.0 9.959e+03 3.495e-10
 34.86477    211.0 1.007e+04 3.578e-10
 34.88692    210.6 1.079e+04 5.920e-10
 34.90002    210.5 1.077e+04 5.845e-10
 34.91861    210.4 1.080e+04 5.972e-10
 34.92969    210.1 1.111e+04 7.371e-10
 34.94424    209.8 1.125e+04 8.124e-10
 34.96158    209.4 1.139e+04 8.969e-10
 34.97266    208.6 1.183e+04 1.146e-09
 34.98856    208.1 1.193e+04 1.229e-09
 35.00454    207.4 1.207e+04 1.322e-09
 35.01562    206.4 1.238e+04 1.556e-09
 35.03288    205.5 1.250e+04 1.651e-09
 35.04751    204.3 1.267e+04 1.777e-09
 35.05859    203.1 1.291e+04 2.008e-09
 35.07720    201.6 1.311e+04 2.177e-09
 35.09047    200.0 1.325e+04 2.276e-09
 35.10155    198.8 1.342e+04 2.460e-09
 35.12152    197.1 1.336e+04 2.407e-09
 35.13343    195.5 1.314e+04 2.219e-09
 35.14451    194.8 1.311e+04 2.197e-09
 35.16428    191.6 1.230e+04 1.369e-09
 35.17484    194.4 1.299e+04 2.004e-09
 35.17640    193.8 1.286e+04 1.819e-09
 35.18800    192.1 1.237e+04 1.400e-09
 35.20838    190.7 1.171e+04 9.528e-10
 35.23064    189.4 1.114e+04 6.787e-10
 35.26575    185.8 9.653e+03 3.409e-10
 35.29441    182.1 9.381e+03 2.882e-10
 35.31657    181.5 9.404e+03 2.797e-10
 35.33727    179.5 9.349e+03 2.760e-10
 35.34825    179.7 9.368e+03 2.792e-10
 35.36528    178.6 9.329e+03 2.777e-10
 35.38014    177.6 9.287e+03 2.777e-10
 35.39122    177.6 9.246e+03 2.754e-10
 35.40959    176.0 9.325e+03 2.913e-10
 35.42310    172.4 9.776e+03 3.713e-10
 35.43418    170.9 9.973e+03 4.543e-10
 35.45391    163.6 1.184e+04 1.161e-09
 35.46607    155.6 1.453e+04 2.971e-09
 35.47715    152.6 1.614e+04 4.028e-09
 35.49795    145.1 1.786e+04 5.567e-09
 35.50903    140.0 1.921e+04 6.599e-09
 35.52039    133.6 1.862e+04 5.903e-09
 35.53664    128.3 1.694e+04 4.003e-09
 35.54608    124.5 1.616e+04 3.642e-09
 35.55200    120.1 1.467e+04 3.176e-09
 35.56471    116.5 1.260e+04 1.970e-09
 35.58388    115.4 1.256e+04 1.584e-09
 35.59496    114.1 1.254e+04 1.776e-09
 35.60903    114.4 1.248e+04 1.716e-09
 35.62684    114.4 1.244e+04 1.678e-09
 35.63792    114.1 1.261e+04 1.875e-09
 35.65335    113.9 1.261e+04 1.828e-09
 35.66981    113.5 1.260e+04 1.764e-09
 35.68089    113.1 1.280e+04 1.951e-09
 35.69767    112.5 1.273e+04 1.841e-09
 35.71277    111.8 1.258e+04 1.649e-09
 35.72385    111.5 1.273e+04 1.771e-09
 35.74199    110.3 1.258e+04 1.504e-09
 35.75574    108.3 1.281e+04 1.273e-09
 35.76682    107.1 1.333e+04 1.543e-09
 35.78631    104.7 1.337e+04 1.601e-09
 35.79870    102.7 1.321e+04 1.642e-09
 35.80978    102.2 1.343e+04 1.918e-09
 35.83058    101.7 1.302e+04 1.828e-09
 35.85274    101.2 1.262e+04 1.671e-09
 35.87365    102.0 1.207e+04 1.255e-09
 35.89590    100.8 1.195e+04 1.137e-09
 35.90928    101.2 1.140e+04 8.387e-10
 35.93144     98.5 1.138e+04 8.498e-10
 35.95967     99.5 1.083e+04 6.481e-10
 35.98183     99.0 1.066e+04 6.553e-10
 36.01918    100.6 1.027e+04 5.212e-10
 36.04560    102.3 9.915e+03 4.222e-10
 36.06776    102.5 9.974e+03 4.584e-10
 36.10782    104.4 9.618e+03 3.626e-10
 36.13153    106.3 9.328e+03 2.863e-10
 36.15369    106.8 9.281e+03 2.864e-10
 36.19530    108.8 9.050e+03 2.268e-10
 36.21746    109.3 9.042e+03 2.151e-10
 36.24077    111.2 8.917e+03 1.785e-10
 36.28123    113.0 8.820e+03 1.537e-10
 36.30338    113.3 8.971e+03 1.688e-10
 36.32941    115.0 8.913e+03 1.561e-10
 36.36715    116.7 8.912e+03 1.557e-10
 36.38931    117.0 9.172e+03 2.051e-10
 36.41805    118.6 9.227e+03 2.138e-10
 36.45308    120.3 9.416e+03 2.479e-10
 36.47524    120.5 9.956e+03 3.434e-10
 36.49551    121.4 9.903e+03 3.452e-10
 36.50693    122.1 9.891e+03 3.540e-10
 36.51801    121.5 1.037e+04 4.066e-10
 36.53881    122.0 1.068e+04 4.493e-10
 36.54989    120.7 1.135e+04 5.902e-10
 36.56189    120.9 1.158e+04 6.503e-10
 36.58178    121.2 1.173e+04 7.316e-10
 36.59286    120.1 1.157e+04 9.870e-10
 36.60621    120.5 1.166e+04 1.104e-09
 36.62474    120.7 1.189e+04 1.265e-09
 36.63582    118.8 1.297e+04 1.728e-09
 36.64292    118.5 1.366e+04 2.028e-09
 36.65400    119.0 1.343e+04 1.940e-09
 36.66771    119.0 1.375e+04 2.000e-09
 36.67879    117.0 1.330e+04 2.370e-09
 36.69485    117.1 1.307e+04 2.398e-09
 36.71067    117.3 1.295e+04 2.420e-09
 36.72175    117.0 1.298e+04 2.323e-09
 36.73917    116.8 1.320e+04 2.330e-09
 36.75363    116.2 1.351e+04 2.421e-09
 36.76471    115.1 1.362e+04 2.139e-09
 36.78349    114.6 1.383e+04 2.518e-09
 36.79660    114.2 1.414e+04 2.988e-09
 36.80768    113.5 1.370e+04 2.655e-09
 36.82781    113.6 1.400e+04 3.182e-09
 36.83956    113.6 1.426e+04 3.612e-09
 36.85064    113.6 1.388e+04 2.847e-09
 36.87145    113.6 1.385e+04 2.816e-09
 36.88253    114.0 1.350e+04 1.995e-09
 36.89429    114.0 1.345e+04 1.907e-09
 36.91441    114.0 1.344e+04 1.902e-09
 36.92549    114.2 1.282e+04 1.304e-09
 36.93860    114.2 1.290e+04 1.358e-09
 36.95738    114.0 1.320e+04 1.602e-09
 36.96846    114.4 1.265e+04 1.153e-09
 36.98292    113.6 1.329e+04 1.749e-09
 37.00034    112.8 1.423e+04 3.139e-09
 37.01063    113.4 1.410e+04 2.586e-09
 37.01537    113.5 1.419e+04 2.997e-09
 37.02724    113.1 1.567e+04 5.694e-09
 37.04330    112.8 1.710e+04 1.032e-08
 37.05438    112.9 1.736e+04 9.222e-09
 37.07156    111.9 1.820e+04 1.190e-08
 37.08627    110.5 1.824e+04 1.171e-08
 37.09735    109.8 1.860e+04 1.141e-08
 37.11588    108.5 1.825e+04 9.445e-09
 37.12923    107.3 1.720e+04 5.625e-09
 37.14031    107.2 1.697e+04 5.472e-09
 37.16020    105.9 1.547e+04 2.439e-09
 37.17220    103.8 1.353e+04 9.791e-10
 37.18328    103.7 1.337e+04 1.031e-09
 37.20418    100.7 1.164e+04 4.687e-10
 37.22644    101.4 1.204e+04 7.375e-10
 37.26011    101.0 1.109e+04 4.627e-10
 37.29020    102.0 1.072e+04 4.243e-10
 37.31236    103.9 1.111e+04 5.990e-10
 37.34875    105.3 1.093e+04 4.935e-10
 37.37613    106.9 1.078e+04 4.398e-10
 37.38216    108.4 1.068e+04 3.896e-10
 37.39910    108.8 1.054e+04 2.737e-10
 37.43739    110.0 1.044e+04 2.289e-10
 37.46206    111.3 1.021e+04 2.222e-10
 37.48422    112.2 1.006e+04 1.478e-10
 37.52583    113.5 1.004e+04 1.472e-10
 37.54799    114.4 9.686e+03 1.124e-10
 37.57035    115.8 9.697e+03 1.133e-10
 37.61176    117.2 9.754e+03 1.191e-10
 37.63392    118.4 9.478e+03 9.350e-11
 37.65899    119.7 9.560e+03 1.052e-10
 37.69769    120.9 9.711e+03 1.264e-10
 37.71984    121.9 9.464e+03 1.036e-10
 37.74762    122.9 9.576e+03 1.271e-10
 37.78361    123.8 9.739e+03 1.574e-10
 37.80577    124.9 9.478e+03 1.523e-10
 37.83626    125.4 9.614e+03 1.851e-10
 37.86954    125.6 9.754e+03 2.150e-10
 37.89170    126.6 9.657e+03 2.156e-10
 37.92490    126.5 9.739e+03 2.320e-10
 37.95547    126.2 9.792e+03 2.324e-10
 37.97763    126.8 9.745e+03 2.364e-10
 38.01354    126.1 9.703e+03 2.218e-10
 38.04140    125.4 9.603e+03 1.959e-10
 38.06356    126.0 9.590e+03 2.064e-10
 38.09969    125.4 9.469e+03 1.861e-10
 38.12185    125.4 9.615e+03 2.210e-10
 38.12733    124.9 9.537e+03 2.074e-10
 38.14949    125.9 9.533e+03 2.376e-10
 38.19082    125.7 9.475e+03 2.259e-10
 38.21325    125.6 9.394e+03 2.049e-10
 38.23541    126.9 9.350e+03 2.004e-10
 38.27702    127.1 9.230e+03 1.679e-10
 38.29918    128.5 9.121e+03 1.464e-10
 38.32377    128.8 9.004e+03 1.154e-10
 38.36295    129.1 8.895e+03 8.964e-11
 38.38511    130.5 8.805e+03 7.961e-11
 38.41241    130.8 8.752e+03 6.630e-11
 38.44888    131.1 8.704e+03 5.796e-11
 38.47104    132.8 8.633e+03 5.638e-11
 38.50105    133.4 8.548e+03 5.346e-11
 38.53481    134.0 8.442e+03 5.361e-11
 38.55697    135.9 8.425e+03 5.354e-11
 38.58969    136.7 8.398e+03 5.376e-11
 38.62074    137.5 8.367e+03 5.461e-11
 38.64290    139.6 8.356e+03 5.541e-11
 38.67833    140.5 8.301e+03 5.774e-11
 38.70666    141.4 8.250e+03 6.237e-11
 38.72882    143.5 8.247e+03 6.191e-11
 38.76696    144.4 8.231e+03 6.654e-11
 38.79259    145.4 8.197e+03 7.250e-11
 38.81475    147.4 8.179e+03 6.689e-11
 38.84460    148.4 8.147e+03 6.944e-11
 38.86676    147.9 8.105e+03 6.550e-11
 38.87852    148.8 8.071e+03 6.610e-11
 38.90068    150.7 8.035e+03 6.116e-11
 38.94229    151.7 8.025e+03 6.130e-11
 38.96445    153.6 8.066e+03 5.970e-11
 38.98856    154.6 8.014e+03 6.211e-11
 39.02822    155.6 7.993e+03 6.666e-11
 39.05038    157.6 8.008e+03 6.895e-11
 39.07720    158.5 8.019e+03 7.621e-11
 39.11415    159.3 8.059e+03 8.862e-11
 39.13630    161.4 8.085e+03 9.168e-11
 39.16584    162.3 8.144e+03 1.084e-10
 39.20007    163.3 8.330e+03 1.421e-10
 39.22223    165.3 8.264e+03 1.334e-10
 39.25447    166.3 8.561e+03 1.822e-10
 39.28600    167.0 8.934e+03 2.476e-10
 39.30816    169.0 8.813e+03 2.249e-10
 39.32887    168.7 9.109e+03 2.868e-10
 39.33985    169.1 9.025e+03 2.725e-10
 39.35400    168.9 9.530e+03 3.922e-10
 39.37173    168.1 1.062e+04 7.320e-10
 39.38281    169.2 1.037e+04 6.420e-10
 39.39832    168.3 1.179e+04 1.321e-09
 39.41470    167.3 1.368e+04 2.777e-09
 39.42578    168.6 1.322e+04 2.428e-09
 39.44264    167.4 1.510e+04 4.745e-09
 39.45766    165.9 1.670e+04 7.823e-09
 39.46874    167.6 1.644e+04 7.519e-09
 39.48695    165.9 1.794e+04 1.117e-08
 39.50063    163.3 1.928e+04 1.503e-08
 39.51171    165.0 1.922e+04 1.498e-08
 39.53127    161.2 2.025e+04 1.842e-08
 39.54359    157.1 2.025e+04 1.844e-08
 39.55467    158.4 2.028e+04 1.823e-08
 39.57548    153.6 2.004e+04 1.724e-08
 39.58655    154.1 2.018e+04 1.696e-08
 39.58926    151.3 1.976e+04 1.588e-08
 39.59475    151.7 1.948e+04 1.363e-08
 39.60240    149.9 1.970e+04 1.326e-08
 39.60794    150.3 1.961e+04 1.418e-08
 39.61427    147.6 2.102e+04 1.448e-08
 39.62388    132.4 3.814e+04 1.986e-08
 39.62942    135.8 3.492e+04 2.079e-08
 39.63643    113.5 3.690e+04 9.634e-08
 39.64536     97.5 2.831e+04 2.339e-07
 39.65090     99.6 2.879e+04 2.753e-07
 39.65859     90.6 2.597e+04 2.436e-07
 39.66685     86.7 2.408e+04 1.333e-07
 39.67239     86.5 2.418e+04 1.598e-07
 39.68075     83.1 2.487e+04 4.283e-08
 39.68833     77.5 2.433e+04 1.162e-08
 39.69387     77.5 2.402e+04 1.310e-08
 39.70432     69.9 1.933e+04 2.516e-09
 39.71545     71.9 1.959e+04 4.066e-09
 39.73071     62.8 1.255e+04 7.800e-10
 39.74733     60.9 1.051e+04 5.005e-10
 39.75841     61.3 1.075e+04 5.179e-10
 39.77503     61.7 1.033e+04 4.749e-10
 39.79030     62.2 1.044e+04 5.000e-10
 39.80138     62.5 1.034e+04 4.579e-10
 39.81935     63.0 1.053e+04 5.001e-10
 39.83326     63.4 1.075e+04 5.568e-10
 39.84434     63.7 1.066e+04 4.909e-10
 39.86367     64.1 1.069e+04 5.430e-10
 39.87622     64.6 1.057e+04 5.488e-10
 39.88730     64.9 1.047e+04 5.359e-10
 39.90799     65.9 1.030e+04 5.235e-10
 39.91919     66.3 1.025e+04 4.979e-10
 39.93027     66.7 1.027e+04 5.010e-10
 39.95117     67.6 1.005e+04 3.880e-10
 39.96225     67.8 1.018e+04 4.023e-10
 39.97447     67.7 1.013e+04 3.837e-10
 40.00780     68.7 9.859e+03 3.011e-10
 40.03720     69.3 9.655e+03 2.555e-10
 40.05936     69.9 9.736e+03 2.639e-10
 40.09654     70.6 9.792e+03 2.768e-10
 40.12312     71.2 1.006e+04 3.223e-10
 40.14528     72.1 1.025e+04 3.570e-10
 40.18518     72.4 1.041e+04 4.039e-10
 40.20895     71.8 1.056e+04 4.965e-10
 40.21994     72.3 1.062e+04 5.294e-10
 40.24038     72.4 1.070e+04 6.023e-10
 40.25182     72.6 1.070e+04 6.532e-10
 40.26290     73.1 1.078e+04 6.784e-10
 40.28371     73.4 1.079e+04 6.702e-10
 40.29478     73.9 1.087e+04 6.955e-10
 40.30686     74.1 1.084e+04 6.742e-10
 40.32314     74.2 1.077e+04 6.403e-10
 40.33187     73.5 1.051e+04 5.208e-10
 40.33775     74.0 1.054e+04 5.506e-10
 40.35118     74.2 1.038e+04 4.873e-10
 40.36963     74.1 1.027e+04 4.450e-10
 40.38071     74.7 1.026e+04 4.609e-10
 40.40667     75.1 1.009e+04 3.705e-10
 40.44468     75.5 9.825e+03 2.989e-10
 40.46674     75.8 9.857e+03 3.149e-10
 40.49531     75.9 9.807e+03 3.244e-10
 40.52855     75.8 9.914e+03 3.752e-10
 40.54149     75.9 9.980e+03 4.001e-10
 40.55257     75.7 1.017e+04 4.971e-10
 40.57277     75.8 1.022e+04 5.227e-10
 40.58445     76.1 1.022e+04 5.307e-10
 40.59553     76.0 1.035e+04 6.086e-10
 40.61634     76.3 1.029e+04 5.679e-10
 40.62742     76.2 1.040e+04 6.243e-10
 40.63925     76.1 1.035e+04 5.613e-10
 40.65930     75.8 1.027e+04 5.311e-10
 40.67038     75.5 1.032e+04 5.525e-10
 40.68357     75.4 1.026e+04 5.531e-10
 40.69559     75.4 1.024e+04 5.655e-10
 40.70321     74.9 1.018e+04 5.482e-10
 40.71335     74.6 1.015e+04 5.611e-10
 40.72789     75.0 1.014e+04 5.731e-10
 40.74523     75.5 1.015e+04 5.850e-10
 40.75631     75.2 1.009e+04 5.597e-10
 40.77221     75.6 1.014e+04 5.508e-10
 40.78819     75.7 1.024e+04 5.527e-10
 40.79927     75.0 1.012e+04 5.060e-10
 40.81653     74.4 1.023e+04 5.219e-10
 40.83116     73.5 1.053e+04 6.037e-10
 40.84224     72.5 1.054e+04 6.095e-10
 40.86085     70.6 1.121e+04 8.437e-10
 40.87412     68.7 1.175e+04 1.237e-09
 40.88520     68.0 1.175e+04 1.335e-09
 40.90517     66.5 1.217e+04 1.766e-09
 40.91709     64.0 1.274e+04 2.183e-09
 40.92817     64.1 1.267e+04 2.137e-09
 40.94897     62.2 1.230e+04 1.897e-09
 40.96005     62.6 1.227e+04 1.794e-09
 40.97165     60.7 1.105e+04 1.266e-09
 40.99194     57.0 1.178e+04 1.142e-09
 41.00301     56.4 1.180e+04 1.116e-09
 41.01596     48.0 1.426e+04 1.783e-09
 41.03490     43.2 1.382e+04 3.045e-09
 41.04598     43.6 1.372e+04 3.102e-09
 41.05696     43.2 1.388e+04 4.667e-09
 41.06804     43.2 1.301e+04 3.304e-09
 41.07786     43.5 1.330e+04 3.769e-09
 41.08894     43.5 1.323e+04 3.603e-09
 41.10460     43.1 1.313e+04 2.716e-09
 41.12083     39.5 1.315e+04 1.688e-09
 41.13191     39.4 1.286e+04 1.573e-09
 41.14892     34.1 1.154e+04 1.045e-09
 41.16379     31.2 1.108e+04 9.506e-10
 41.17487     31.9 1.104e+04 9.330e-10
 41.19324     30.3 1.121e+04 1.068e-09
 41.20676     29.3 1.148e+04 1.258e-09
 41.21784     29.7 1.133e+04 1.168e-09
 41.23756     28.7 1.139e+04 1.247e-09
 41.24972     27.7 1.141e+04 1.277e-09
 41.26080     28.1 1.125e+04 1.188e-09
 41.28160     27.5 1.128e+04 1.213e-09
 41.29268     28.0 1.107e+04 1.101e-09
 41.30404     27.6 1.095e+04 1.024e-09
 41.32457     27.2 1.065e+04 8.821e-10
 41.33565     27.7 1.044e+04 7.764e-10
 41.34836     27.4 1.029e+04 6.569e-10
 41.36753     26.8 9.969e+03 5.269e-10
 41.37861     27.1 9.793e+03 4.641e-10
 41.39268     27.1 9.727e+03 4.223e-10
 41.42601     26.6 9.444e+03 3.195e-10
 41.45366     26.4 9.258e+03 2.865e-10
 41.47582     27.1 9.109e+03 2.642e-10
 41.51475     27.5 9.068e+03 2.566e-10
 41.53958     27.7 9.210e+03 2.733e-10
 41.56174     28.2 9.216e+03 2.565e-10
 41.60335     28.0 9.533e+03 2.961e-10
 41.64767     26.9 9.845e+03 3.589e-10
 41.68085     25.4 1.003e+04 4.554e-10
 41.70017     24.9 1.008e+04 5.255e-10
 41.71124     24.8 1.006e+04 5.097e-10
 41.72507     25.1 1.031e+04 6.432e-10
 41.74313     25.0 1.040e+04 6.859e-10
 41.75421     24.9 1.024e+04 5.931e-10
 41.76939     24.9 1.028e+04 5.743e-10
 41.78609     24.8 1.024e+04 5.380e-10
 41.79642     24.6 9.912e+03 4.151e-10
 41.80197     24.2 9.742e+03 3.613e-10
 41.82498     24.0 9.543e+03 3.145e-10
 41.86114     24.3 9.261e+03 2.791e-10
 41.88330     25.0 8.894e+03 2.124e-10
 41.91362     25.7 8.884e+03 2.103e-10
 41.94707     26.3 8.861e+03 2.003e-10
 41.96922     27.0 8.755e+03 1.826e-10
 42.00226     27.7 8.731e+03 1.767e-10
 42.03299     28.6 8.731e+03 1.688e-10
 42.05515     29.4 8.678e+03 1.624e-10
 42.09090     30.2 8.702e+03 1.555e-10
 42.11892     30.9 8.737e+03 1.537e-10
 42.14108     31.4 8.748e+03 1.569e-10
 42.17954     31.7 8.928e+03 1.743e-10
 42.20485     31.9 9.164e+03 2.165e-10
 42.22701     32.6 9.193e+03 2.415e-10
 42.26818     32.7 9.512e+03 3.004e-10
 42.29078     32.5 9.759e+03 3.500e-10
 42.31294     33.1 9.779e+03 3.549e-10
 42.35455     32.8 9.921e+03 3.738e-10
 42.37671     33.4 9.917e+03 3.716e-10
 42.40113     33.2 9.979e+03 3.757e-10
 42.44047     33.2 1.006e+04 3.836e-10
 42.46263     33.8 1.014e+04 4.087e-10
 42.48977     33.6 1.032e+04 4.742e-10
 42.52482     33.5 1.050e+04 5.514e-10
 42.53929     33.2 1.036e+04 5.211e-10
 42.54856     33.8 1.064e+04 6.463e-10
 42.57841     33.9 1.079e+04 7.078e-10
 42.61233     33.9 1.078e+04 6.632e-10
 42.63449     34.0 1.077e+04 6.506e-10
 42.66705     34.2 1.055e+04 5.268e-10
 42.69826     34.6 1.019e+04 3.576e-10
 42.72042     34.8 1.009e+04 2.918e-10
 42.75569     35.2 9.783e+03 1.832e-10
 42.78419     35.7 9.583e+03 1.249e-10
 42.80635     36.0 9.616e+03 1.275e-10
 42.84432     36.7 9.512e+03 1.027e-10
 42.87012     37.4 9.476e+03 8.894e-11
 42.89228     37.7 9.625e+03 1.171e-10
 42.93296     38.3 9.603e+03 1.150e-10
 42.95604     38.9 9.615e+03 1.228e-10
 42.97820     39.6 9.741e+03 1.600e-10
 43.01981     40.2 9.796e+03 1.593e-10
 43.04197     40.9 9.882e+03 1.612e-10
 43.06592     41.0 9.921e+03 1.511e-10
 43.10574     40.8 9.998e+03 1.489e-10
 43.12790     41.2 1.005e+04 1.369e-10
 43.15456     40.7 1.010e+04 1.532e-10
 43.19167     40.5 1.010e+04 1.826e-10
 43.21383     41.0 1.012e+04 1.775e-10
 43.24320     41.1 1.018e+04 1.958e-10
 43.26972     41.1 1.020e+04 1.941e-10
 43.28196     40.9 1.016e+04 1.917e-10
 43.29976     41.5 1.023e+04 2.063e-10
 43.33183     41.1 1.024e+04 1.942e-10
 43.36353     40.4 1.025e+04 1.906e-10
 43.38568     41.0 1.051e+04 2.418e-10
 43.42047     40.1 1.061e+04 2.599e-10
 43.44945     39.2 1.065e+04 2.870e-10
 43.47161     39.5 1.085e+04 3.249e-10
 43.50911     38.8 1.074e+04 3.448e-10
 43.53538     38.2 1.051e+04 3.517e-10
 43.55754     38.4 1.059e+04 3.515e-10
 43.59775     38.3 1.043e+04 3.259e-10
 43.62131     38.0 1.037e+04 2.555e-10
 43.64347     38.2 1.039e+04 2.344e-10
 43.68508     37.6 1.029e+04 2.052e-10
 43.70724     37.9 1.032e+04 2.062e-10
 43.73071     37.8 1.030e+04 2.123e-10
 43.77101     37.8 1.041e+04 2.410e-10
 43.79317     38.3 1.057e+04 2.354e-10
 43.81935     38.2 1.067e+04 2.536e-10
 43.85693     37.8 1.078e+04 2.705e-10
 43.87909     38.2 1.087e+04 2.550e-10
 43.90798     37.7 1.087e+04 2.847e-10
 43.94286     37.4 1.086e+04 3.133e-10
 43.96502     38.1 1.095e+04 3.089e-10
 43.99247     37.9 1.096e+04 3.124e-10
 44.01463     37.6 1.074e+04 2.695e-10
 44.02879     37.6 1.074e+04 2.437e-10
 44.05095     38.3 1.087e+04 2.492e-10
 44.08526     38.4 1.090e+04 1.869e-10
 44.11472     38.2 1.091e+04 1.404e-10
 44.13688     39.0 1.105e+04 1.516e-10
 44.17390     39.0 1.107e+04 1.330e-10
 44.20065     39.3 1.114e+04 1.214e-10
 44.22281     40.3 1.123e+04 1.417e-10
 44.26254     40.8 1.127e+04 1.199e-10
 44.28658     41.2 1.127e+04 1.022e-10
 44.30874     42.2 1.130e+04 1.110e-10
 44.35034     42.5 1.123e+04 1.034e-10
 44.37250     43.5 1.124e+04 1.135e-10
 44.39549     44.1 1.118e+04 1.169e-10
 44.43627     44.8 1.116e+04 1.375e-10
 44.45843     45.9 1.118e+04 1.479e-10
 44.48413     46.8 1.125e+04 1.618e-10
 44.52220     47.6 1.130e+04 1.653e-10
 44.54436     48.6 1.139e+04 1.923e-10
 44.57277     49.5 1.136e+04 1.886e-10
 44.60813     50.7 1.141e+04 1.592e-10
 44.63029     51.7 1.148e+04 1.854e-10
 44.66141     52.4 1.147e+04 1.362e-10
 44.69406     53.2 1.140e+04 1.180e-10
 44.71622     54.1 1.143e+04 1.288e-10
 44.73738     55.1 1.138e+04 1.217e-10
 44.75954     54.7 1.130e+04 1.097e-10
 44.77999     56.0 1.136e+04 1.095e-10
 44.80214     56.9 1.135e+04 1.108e-10
 44.83869     57.8 1.141e+04 1.272e-10
 44.86591     57.9 1.166e+04 1.827e-10
 44.88807     58.6 1.186e+04 1.983e-10
 44.92732     58.1 1.212e+04 3.681e-10
 44.95174     58.4 1.188e+04 6.452e-10
 44.96273     58.5 1.189e+04 7.322e-10
 44.98253     59.5 1.225e+04 8.063e-10
 44.99461     59.5 1.258e+04 7.527e-10
 45.00569     59.8 1.269e+04 8.151e-10
 45.02649     58.2 1.348e+04 6.997e-10
 45.03757     58.3 1.355e+04 7.535e-10
 45.04901     55.5 1.364e+04 7.173e-10
 45.06946     53.6 1.296e+04 8.458e-10
 45.08054     54.0 1.291e+04 8.522e-10
 45.09333     53.6 1.246e+04 1.020e-09
 45.10964     54.2 1.245e+04 1.094e-09
 45.11766     54.5 1.235e+04 9.124e-10
 45.12350     55.0 1.242e+04 8.602e-10
 45.13764     55.2 1.259e+04 8.413e-10
 45.15539     54.8 1.279e+04 7.178e-10
 45.16647     54.6 1.274e+04 6.975e-10
 45.18196     54.0 1.266e+04 6.460e-10
 45.19835     53.6 1.260e+04 6.097e-10
 45.20943     54.0 1.260e+04 6.549e-10
 45.22628     53.9 1.263e+04 6.457e-10
 45.24131     53.5 1.269e+04 6.486e-10
 45.25239     53.1 1.317e+04 7.621e-10
 45.27060     50.4 1.423e+04 1.121e-09
 45.28428     47.0 1.536e+04 2.136e-09
 45.29536     44.8 1.614e+04 3.949e-09
 45.31492     43.6 1.672e+04 7.092e-09
 45.32724     43.4 1.702e+04 9.314e-09
 45.33832     42.6 1.755e+04 1.059e-08
 45.35913     42.1 1.718e+04 8.385e-09
 45.37021     40.6 1.715e+04 7.060e-09
 45.38140     38.8 1.607e+04 3.511e-09
 45.40209     36.1 1.435e+04 1.729e-09
 45.41317     35.0 1.349e+04 1.344e-09
 45.42572     33.7 1.271e+04 9.958e-10
 45.44515     33.9 1.275e+04 9.565e-10
 45.46741     32.7 1.221e+04 6.931e-10
 45.48229     34.0 1.208e+04 6.362e-10
 45.50445     34.4 1.215e+04 6.665e-10
 45.53118     35.7 1.242e+04 7.349e-10
 45.55334     34.6 1.238e+04 6.550e-10
 45.59211     35.6 1.276e+04 9.608e-10
 45.61711     36.9 1.326e+04 1.384e-09
 45.63927     35.4 1.302e+04 1.227e-09
 45.68075     36.7 1.354e+04 1.568e-09
 45.72507     36.1 1.309e+04 9.977e-10
 45.76680     36.3 1.301e+04 8.913e-10
 45.78896     34.3 1.196e+04 4.798e-10
 45.81371     34.2 1.184e+04 4.878e-10
 45.85273     34.3 1.180e+04 4.898e-10
 45.87489     33.6 1.124e+04 3.562e-10
 45.90234     33.7 1.123e+04 3.103e-10
 45.93866     33.4 1.130e+04 2.547e-10
 45.96082     33.2 1.105e+04 1.312e-10
 45.99098     32.4 1.106e+04 1.057e-10
 46.02459     31.9 1.101e+04 1.007e-10
 46.04675     32.2 1.062e+04 7.705e-11
 46.07962     32.2 1.074e+04 9.781e-11
 46.11052     32.8 1.078e+04 1.400e-10
 46.13268     33.9 1.069e+04 1.253e-10
 46.16826     34.9 1.080e+04 1.724e-10
 46.19645     35.7 1.087e+04 1.952e-10
 46.21106     36.8 1.087e+04 1.951e-10
 46.22719     37.4 1.091e+04 2.003e-10
 46.25690     37.9 1.107e+04 2.255e-10
 46.28237     37.2 1.105e+04 2.193e-10
 46.30453     37.9 1.125e+04 2.548e-10
 46.34554     35.8 1.118e+04 2.740e-10
 46.36830     34.1 1.110e+04 3.744e-10
 46.39046     35.3 1.153e+04 4.897e-10
 46.43207     33.9 1.154e+04 5.295e-10
 46.45423     34.6 1.190e+04 6.248e-10
 46.47849     32.0 1.169e+04 5.077e-10
 46.51164     29.6 1.146e+04 4.360e-10
 46.52888     28.4 1.167e+04 4.730e-10
 46.53996     27.8 1.189e+04 5.746e-10
 46.55586     25.0 1.218e+04 7.046e-10
 46.57185     22.5 1.267e+04 9.535e-10
 46.58220     21.5 1.321e+04 1.300e-09
 46.58837     20.3 1.359e+04 1.589e-09
 46.60018     18.3 1.368e+04 1.979e-09
 46.61481     16.9 1.368e+04 2.198e-09
 46.62589     16.0 1.380e+04 2.495e-09
 46.64450     14.8 1.348e+04 2.187e-09
 46.65777     13.9 1.298e+04 1.763e-09
 46.66885     12.8 1.271e+04 1.472e-09
 46.68881     11.8 1.210e+04 1.030e-09
 46.70074     11.0 1.152e+04 7.753e-10
 46.71182     10.0 1.109e+04 6.227e-10
 46.73262     10.1 1.094e+04 5.293e-10
 46.74370      9.2 1.076e+04 4.421e-10
 46.75529      9.0 1.046e+04 3.464e-10
 46.77569      8.8 1.020e+04 2.964e-10
 46.79794      8.6 1.010e+04 2.741e-10
 46.83305      8.2 9.914e+03 2.481e-10
 46.86171      7.9 1.004e+04 2.878e-10
 46.88387      7.9 1.031e+04 3.641e-10
 46.92168      7.7 1.077e+04 5.130e-10
 46.94764      7.5 1.114e+04 6.727e-10
 46.95374      7.2 1.143e+04 8.084e-10
 46.97210      5.6 1.166e+04 9.271e-10
 46.99051      5.7 1.149e+04 8.988e-10
 47.00149      5.5 1.152e+04 8.952e-10
 47.02121      5.4 1.140e+04 8.414e-10
 47.03337      5.3 1.124e+04 7.705e-10
 47.04445      5.1 1.125e+04 7.531e-10
 47.06526      5.3 1.107e+04 6.927e-10
 47.07634      5.1 1.106e+04 6.751e-10
 47.08769      5.3 1.086e+04 6.033e-10
 47.10822      5.3 1.074e+04 5.446e-10
 47.11930      5.2 1.077e+04 5.326e-10
 47.13201      5.3 1.074e+04 5.066e-10
 47.15118      5.5 1.072e+04 4.883e-10
 47.16226      5.3 1.074e+04 4.783e-10
 47.18317      5.9 1.072e+04 4.686e-10
 47.20542      6.4 1.060e+04 4.167e-10
 47.23192      7.4 1.050e+04 4.003e-10
 47.26919      8.5 1.036e+04 3.725e-10
 47.29135      9.3 1.007e+04 2.842e-10
 47.32056     10.5 9.971e+03 2.616e-10
 47.35512     11.5 9.870e+03 2.462e-10
 47.37728     12.5 9.707e+03 1.998e-10
 47.40920     13.4 9.755e+03 2.210e-10
 47.44105     14.2 9.860e+03 2.630e-10
 47.46321     16.0 9.891e+03 2.657e-10
 47.49783     16.7 1.008e+04 3.346e-10
 47.52698     17.3 1.027e+04 4.101e-10
 47.54914     18.8 1.048e+04 4.580e-10
 47.56984     18.2 1.055e+04 5.043e-10
 47.58083     18.7 1.075e+04 5.816e-10
 47.59736     18.5 1.081e+04 6.076e-10
 47.61271     18.2 1.084e+04 6.297e-10
 47.62379     18.6 1.116e+04 7.845e-10
 47.64168     18.3 1.101e+04 7.582e-10
 47.65567     18.1 1.083e+04 6.881e-10
 47.66675     18.5 1.101e+04 7.880e-10
 47.68358     18.1 1.074e+04 6.643e-10
 47.69466     17.6 1.072e+04 6.561e-10
 47.69864     17.1 1.050e+04 5.637e-10
 47.70972     17.6 1.050e+04 5.723e-10
 47.73031     17.1 1.031e+04 4.940e-10
 47.74160     16.6 1.020e+04 4.434e-10
 47.75268     16.9 1.019e+04 4.362e-10
 47.77349     16.4 1.007e+04 3.979e-10
 47.78457     16.5 1.009e+04 3.982e-10
 47.79679     16.0 1.000e+04 3.801e-10
 47.81645     15.8 9.950e+03 3.766e-10
 47.82753     15.9 9.975e+03 3.889e-10
 47.84111     16.0 9.963e+03 3.883e-10
 47.85941     16.1 9.980e+03 3.925e-10
 47.87049     15.6 1.013e+04 4.463e-10
 47.88543     13.6 1.087e+04 5.741e-10
 47.90238      9.3 1.272e+04 1.060e-09
 47.91346      6.3 1.435e+04 2.292e-09
 47.92975      3.2 1.586e+04 4.843e-09
 47.94534      1.4 1.745e+04 9.026e-09
 47.95642     -0.3 1.854e+04 1.171e-08
 47.97407     -3.5 1.979e+04 1.392e-08
 47.98831     -8.3 2.067e+04 1.550e-08
 47.99939    -12.9 2.013e+04 1.177e-08
 48.01839    -19.5 1.970e+04 1.081e-08
 48.03127    -25.8 1.884e+04 1.017e-08
 48.04235    -28.1 1.699e+04 6.919e-09
 48.05603    -31.5 1.670e+04 7.014e-09
 48.06711    -30.7 1.593e+04 5.711e-09
 48.07423    -33.4 1.566e+04 5.267e-09
 48.08531    -33.5 1.500e+04 4.002e-09
 48.10612    -35.9 1.457e+04 3.618e-09
 48.11720    -36.2 1.396e+04 2.819e-09
 48.12919    -38.1 1.362e+04 2.678e-09
 48.14908    -39.4 1.315e+04 2.338e-09
 48.16016    -39.2 1.294e+04 2.185e-09
 48.17351    -39.7 1.247e+04 1.801e-09
 48.19205    -40.1 1.183e+04 1.278e-09
 48.20313    -39.5 1.178e+04 1.256e-09
 48.21782    -40.0 1.109e+04 8.013e-10
 48.23501    -41.0 1.047e+04 5.454e-10
 48.24609    -40.6 1.035e+04 4.814e-10
 48.26214    -41.5 9.943e+03 3.731e-10
 48.27798    -42.1 9.839e+03 3.396e-10
 48.28906    -42.0 9.776e+03 3.140e-10
 48.30646    -42.7 9.789e+03 3.118e-10
 48.32094    -44.3 1.025e+04 3.828e-10
 48.33202    -44.8 1.043e+04 4.281e-10
 48.35078    -46.4 1.140e+04 8.140e-10
 48.36390    -47.2 1.230e+04 1.448e-09
 48.37498    -47.2 1.295e+04 1.929e-09
 48.39510    -47.6 1.381e+04 2.862e-09
 48.40687    -48.6 1.428e+04 3.282e-09
 48.41795    -48.7 1.499e+04 4.138e-09
 48.42848    -50.7 1.488e+04 3.961e-09
 48.43890    -50.0 1.479e+04 3.925e-09
 48.44983    -50.3 1.515e+04 4.383e-09
 48.46158    -51.9 1.443e+04 3.308e-09
 48.48172    -53.7 1.364e+04 2.345e-09
 48.49280    -53.7 1.352e+04 2.241e-09
 48.50590    -55.2 1.273e+04 1.565e-09
 48.52468    -56.3 1.210e+04 1.136e-09
 48.53576    -56.0 1.191e+04 1.003e-09
 48.55022    -56.6 1.137e+04 7.224e-10
 48.56764    -57.2 1.089e+04 5.330e-10
 48.57872    -56.9 1.075e+04 4.630e-10
 48.59454    -57.6 1.037e+04 3.697e-10
 48.61061    -58.0 1.019e+04 3.391e-10
 48.62169    -57.5 1.016e+04 3.146e-10
 48.65003    -56.9 1.012e+04 3.013e-10
 48.68565    -56.4 1.008e+04 2.984e-10
 48.70781    -55.3 1.013e+04 2.806e-10
 48.73877    -55.1 1.026e+04 3.206e-10
 48.77158    -55.0 1.062e+04 4.183e-10
 48.79374    -54.2 1.056e+04 3.813e-10
 48.82741    -54.1 1.082e+04 4.600e-10
 48.85751    -54.0 1.096e+04 4.885e-10
 48.87967    -53.1 1.071e+04 4.117e-10
 48.91605    -53.2 1.075e+04 4.147e-10
 48.94344    -53.3 1.069e+04 3.895e-10
 48.96560    -51.9 1.041e+04 3.243e-10
 49.00468    -51.7 1.032e+04 3.030e-10
 49.02937    -51.4 1.021e+04 2.815e-10
 49.05152    -49.9 1.005e+04 2.488e-10
 49.09313    -49.5 9.975e+03 2.385e-10
 49.13745    -47.4 9.833e+03 2.162e-10
 49.16251    -46.7 9.816e+03 2.208e-10
 49.18177    -46.0 9.777e+03 2.000e-10
 49.20122    -44.6 9.738e+03 1.951e-10
 49.22628    -43.7 9.789e+03 2.090e-10
 49.26499    -42.7 9.829e+03 2.180e-10
 49.28715    -41.4 9.841e+03 2.223e-10
 49.31492    -40.3 9.894e+03 2.326e-10
 49.35092    -39.1 9.944e+03 2.414e-10
 49.37308    -38.0 9.985e+03 2.560e-10
 49.40356    -36.8 1.007e+04 2.729e-10
 49.43685    -35.5 1.018e+04 2.978e-10
 49.45901    -34.7 1.019e+04 2.977e-10
 49.49219    -33.5 1.033e+04 3.362e-10
 49.52277    -32.3 1.048e+04 3.774e-10
 49.54493    -31.8 1.045e+04 3.657e-10
 49.58083    -30.7 1.055e+04 3.974e-10
 49.60870    -29.6 1.058e+04 4.078e-10
 49.63086    -29.0 1.040e+04 3.401e-10
 49.66947    -27.8 1.037e+04 3.398e-10
 49.69463    -26.4 1.020e+04 2.985e-10
 49.71679    -25.6 1.003e+04 2.338e-10
 49.75811    -24.1 9.916e+03 2.019e-10
 49.78056    -22.6 9.814e+03 1.690e-10
 49.80272    -21.6 9.786e+03 1.583e-10
 49.84433    -20.1 9.758e+03 1.442e-10
 49.86649    -19.0 9.774e+03 1.451e-10
 49.88525    -17.3 9.774e+03 1.360e-10
 49.90741    -17.1 9.745e+03 1.239e-10
 49.93026    -15.3 9.765e+03 1.213e-10
 49.95242    -14.2 9.814e+03 1.247e-10
 49.97971    -12.5 9.837e+03 1.234e-10
 50.01618    -10.9 9.945e+03 1.242e-10
 50.03834     -9.8 9.950e+03 1.270e-10
 50.06834     -8.2 1.006e+04 1.332e-10
 50.10211     -6.7 1.015e+04 1.435e-10
 50.12427     -5.6 1.015e+04 1.433e-10
 50.15698     -4.0 1.023e+04 1.524e-10
 50.18804     -2.4 1.031e+04 1.617e-10
 50.21020     -1.3 1.032e+04 1.617e-10
 50.24562      0.2 1.040e+04 1.720e-10
 50.27397      1.7 1.051e+04 1.827e-10
 50.29613      2.7 1.054e+04 1.851e-10
 50.33426      4.2 1.067e+04 1.947e-10
 50.35990      5.5 1.073e+04 1.977e-10
 50.38206      6.2 1.072e+04 1.948e-10
 50.42290      7.2 1.065e+04 1.899e-10
 50.44582      8.1 1.054e+04 1.861e-10
 50.46798      8.6 1.042e+04 1.759e-10
 50.50959      9.3 1.035e+04 1.797e-10
 50.53175      9.8 1.024e+04 1.761e-10
 50.55585     10.5 1.028e+04 2.088e-10
 50.59552     11.3 1.031e+04 2.571e-10
 50.61768     11.5 1.032e+04 2.676e-10
 50.63016     12.5 1.042e+04 3.333e-10
 50.65232     12.3 1.049e+04 3.410e-10
 50.68145     13.3 1.059e+04 4.043e-10
 50.70361     13.2 1.066e+04 4.097e-10
 50.73313     14.1 1.065e+04 4.189e-10
 50.76738     14.8 1.053e+04 4.169e-10
 50.78954     14.6 1.042e+04 3.575e-10
 50.82177     15.5 1.024e+04 3.447e-10
 50.85331     16.4 1.011e+04 3.415e-10
 50.87547     16.5 9.949e+03 3.134e-10
 50.91041     17.5 9.843e+03 3.089e-10
 50.93923     18.7 9.799e+03 3.118e-10
 50.96139     19.0 9.570e+03 2.798e-10
 50.99905     20.3 9.534e+03 2.564e-10
 51.02516     21.6 9.451e+03 2.181e-10
 51.04732     22.1 9.277e+03 2.123e-10
 51.08768     23.3 9.186e+03 1.843e-10
 51.11109     24.4 9.133e+03 1.746e-10
 51.13325     25.3 9.101e+03 1.746e-10
 51.17486     26.7 9.086e+03 1.739e-10
 51.19702     27.7 9.080e+03 1.744e-10
 51.22064     29.3 9.065e+03 1.810e-10
 51.26079     30.9 9.063e+03 1.854e-10
 51.28295     31.9 9.045e+03 1.863e-10
 51.30928     33.7 9.024e+03 1.837e-10
 51.34672     35.4 8.969e+03 1.674e-10
 51.36819     36.3 8.978e+03 1.723e-10
 51.37507     37.4 8.935e+03 1.701e-10
 51.39792     39.1 8.935e+03 1.608e-10
 51.43264     40.6 8.954e+03 1.577e-10
 51.45480     41.4 8.937e+03 1.583e-10
 51.48656     42.6 9.031e+03 1.804e-10
 51.51857     44.0 9.144e+03 2.328e-10
 51.54073     44.7 9.139e+03 2.323e-10
 51.57519     46.3 9.281e+03 2.880e-10
 51.60450     48.0 9.368e+03 3.101e-10
 51.62666     48.6 9.367e+03 3.101e-10
 51.66383     49.9 9.320e+03 2.819e-10
 51.69043     50.7 9.180e+03 2.304e-10
 51.71259     51.3 9.195e+03 2.511e-10
 51.75247     51.9 9.026e+03 2.135e-10
 51.77636     52.4 8.934e+03 1.936e-10
 51.79852     53.3 9.055e+03 2.298e-10
 51.84013     53.4 9.019e+03 2.128e-10
 51.86228     54.2 9.265e+03 2.644e-10
 51.88543     53.4 9.448e+03 2.950e-10
 51.92605     52.0 9.650e+03 3.850e-10
 51.94812     52.2 9.716e+03 4.154e-10
 51.96279     51.6 9.869e+03 5.526e-10
 51.97990     51.4 1.020e+04 6.766e-10
 51.99098     51.2 1.034e+04 7.320e-10
 52.00711     50.8 1.064e+04 8.339e-10
 52.02287     50.4 1.075e+04 8.533e-10
 52.03404     49.8 1.090e+04 9.348e-10
 52.06270     47.9 1.102e+04 9.440e-10
 52.09782     45.9 1.063e+04 8.193e-10
 52.11998     46.9 1.087e+04 9.318e-10
 52.15134     45.2 1.039e+04 7.945e-10
 52.18384     44.6 9.968e+03 6.543e-10
 52.20600     44.0 9.876e+03 6.160e-10
 52.23998     43.7 9.476e+03 4.736e-10
 52.26977     43.7 9.089e+03 3.610e-10
 52.29193     43.0 9.111e+03 3.622e-10
 52.32862     43.2 8.923e+03 3.199e-10
 52.35569     43.7 8.869e+03 3.064e-10
 52.37785     42.4 9.144e+03 3.641e-10
 52.41726     43.1 9.217e+03 3.729e-10
 52.44162     43.6 9.299e+03 3.760e-10
 52.46378     41.7 9.760e+03 4.914e-10
 52.50539     41.5 9.916e+03 4.935e-10
 52.52755     39.1 1.024e+04 5.912e-10
 52.55022     38.2 1.055e+04 6.425e-10
 52.59132     37.4 1.095e+04 7.993e-10
 52.61348     35.4 1.082e+04 7.577e-10
 52.63885     35.0 1.094e+04 8.132e-10
 52.67725     34.9 1.083e+04 7.548e-10
 52.69941     33.7 1.019e+04 5.312e-10
 52.72749     33.8 9.848e+03 3.986e-10
 52.76318     33.7 9.500e+03 2.882e-10
 52.78534     32.8 9.353e+03 2.408e-10
 52.81613     32.8 9.339e+03 2.253e-10
 52.84273     33.0 9.434e+03 2.446e-10
 52.85354     33.1 9.511e+03 2.629e-10
 52.87126     32.9 9.573e+03 2.717e-10
 52.90477     33.2 9.710e+03 3.024e-10
 52.93503     33.2 9.882e+03 3.172e-10
 52.95719     32.9 9.896e+03 3.254e-10
 52.99341     32.6 1.005e+04 3.309e-10
 53.02096     32.2 1.022e+04 3.527e-10
 53.04312     32.3 1.019e+04 3.575e-10
 53.08204     32.2 1.035e+04 3.914e-10
 53.10689     32.2 1.061e+04 4.325e-10
 53.12905     32.6 1.043e+04 3.971e-10
 53.17066     32.6 1.062e+04 4.096e-10
 53.21498     33.1 1.057e+04 3.521e-10
 53.24814     33.3 1.070e+04 3.443e-10
 53.26747     33.1 1.087e+04 3.558e-10
 53.27855     33.3 1.065e+04 3.059e-10
 53.29237     29.2 1.308e+04 5.675e-10
 53.31043     23.6 1.568e+04 2.239e-09
 53.32151     23.2 1.565e+04 2.241e-09
 53.33668     21.6 1.693e+04 6.783e-09
 53.35340     21.4 1.805e+04 1.195e-08
 53.36448     21.6 1.782e+04 1.109e-08
 53.38100     21.1 1.824e+04 1.217e-08
 53.39636     19.4 1.849e+04 7.653e-09
 53.40744     19.4 1.819e+04 6.310e-09
 53.42532     14.6 1.640e+04 1.663e-09
 53.43933      8.1 1.260e+04 5.371e-10
 53.45041      8.2 1.229e+04 5.747e-10
 53.48082      6.1 1.124e+04 4.627e-10
 53.51437      4.8 1.127e+04 4.359e-10
 53.53653      6.4 1.187e+04 6.715e-10
 53.56547      3.6 1.216e+04 7.050e-10
 53.58763      6.3 1.216e+04 6.779e-10
 53.60030      3.4 1.287e+04 9.831e-10
 53.61128      4.0 1.285e+04 1.047e-09
 53.62476      3.1 1.311e+04 1.193e-09
 53.64307      0.8 1.339e+04 1.546e-09
 53.65415      1.0 1.350e+04 1.681e-09
 53.66908     -0.4 1.361e+04 1.798e-09
 53.68603     -2.2 1.357e+04 1.834e-09
 53.69711     -2.0 1.364e+04 1.941e-09
 53.71340     -3.5 1.313e+04 1.517e-09
 53.74673     -4.9 1.242e+04 1.144e-09
 53.77215     -7.0 1.136e+04 6.911e-10
 53.79431     -6.3 1.134e+04 6.975e-10
 53.83547     -7.5 1.067e+04 4.758e-10
 53.85798     -8.0 1.044e+04 4.341e-10
 53.86897     -7.7 1.042e+04 4.186e-10
 53.88977     -8.0 1.028e+04 3.927e-10
 53.90085     -7.8 1.023e+04 3.761e-10
 53.92175     -8.4 1.014e+04 3.651e-10
 53.94401     -7.6 9.994e+03 3.277e-10
 53.96843     -7.6 9.863e+03 3.186e-10
 54.00778     -7.7 9.807e+03 3.228e-10
 54.02994     -6.6 9.661e+03 2.842e-10
 54.04589     -6.9 9.613e+03 2.767e-10
 54.06163     -7.3 9.754e+03 3.266e-10
 54.07271     -6.9 9.808e+03 3.198e-10
 54.09011     -7.8 1.015e+04 4.620e-10
 54.10459     -8.5 1.063e+04 7.109e-10
 54.11567     -8.2 1.074e+04 7.537e-10
 54.13443     -8.7 1.125e+04 1.102e-09
 54.14756     -9.2 1.176e+04 1.449e-09
 54.15864     -8.8 1.186e+04 1.498e-09
 54.17875     -9.6 1.228e+04 1.718e-09
 54.19052    -11.0 1.254e+04 1.812e-09
 54.20160    -11.1 1.253e+04 1.762e-09
 54.22240    -13.0 1.257e+04 1.769e-09
 54.23348    -13.1 1.255e+04 1.757e-09
 54.24523    -15.0 1.239e+04 1.685e-09
 54.26537    -16.6 1.210e+04 1.559e-09
 54.27645    -16.6 1.203e+04 1.540e-09
 54.28955    -17.7 1.167e+04 1.334e-09
 54.30833    -18.5 1.128e+04 1.082e-09
 54.31789    -18.5 1.123e+04 1.049e-09
 54.32127    -17.6 1.129e+04 1.107e-09
 54.33387    -18.3 1.094e+04 8.794e-10
 54.35130    -19.1 1.058e+04 6.912e-10
 54.36238    -19.1 1.056e+04 6.925e-10
 54.37818    -19.9 1.024e+04 5.714e-10
 54.39426    -20.4 1.004e+04 5.067e-10
 54.40534    -20.3 1.009e+04 5.278e-10
 54.42250    -20.5 1.003e+04 4.988e-10
 54.43723    -20.7 1.002e+04 4.865e-10
 54.45948    -20.2 1.017e+04 5.254e-10
 54.50026    -19.5 1.016e+04 5.177e-10
 54.52335    -19.0 1.034e+04 5.532e-10
 54.54551    -19.0 1.018e+04 5.162e-10
 54.58712    -18.6 1.055e+04 6.337e-10
 54.60928    -18.6 1.046e+04 6.088e-10
 54.62204    -18.9 1.076e+04 7.477e-10
 54.64097    -19.1 1.107e+04 9.121e-10
 54.65205    -19.2 1.112e+04 9.579e-10
 54.66626    -19.1 1.150e+04 1.201e-09
 54.68264    -19.0 1.185e+04 1.439e-09
 54.68923    -18.5 1.214e+04 1.607e-09
 54.69501    -18.4 1.219e+04 1.622e-09
 54.71058    -18.4 1.246e+04 1.853e-09
 54.72689    -18.4 1.255e+04 1.933e-09
 54.73797    -18.4 1.254e+04 1.924e-09
 54.75888    -18.6 1.252e+04 1.915e-09
 54.78113    -18.6 1.238e+04 1.783e-09
 54.81049    -18.5 1.229e+04 1.727e-09
 54.84490    -18.5 1.174e+04 1.339e-09
 54.86706    -18.0 1.120e+04 9.840e-10
 54.89913    -17.5 1.059e+04 7.214e-10
 54.93083    -16.8 1.027e+04 5.942e-10
 54.95299    -16.0 9.820e+03 4.380e-10
 54.98777    -14.8 9.830e+03 4.382e-10
 55.01676    -13.4 1.019e+04 5.372e-10
 55.03892    -12.8 9.864e+03 4.304e-10
 55.05529    -11.5 1.036e+04 5.934e-10
 55.07745    -10.5 9.786e+03 4.415e-10
 55.10269    -10.1 1.011e+04 5.472e-10
 55.12485     -9.7 1.000e+04 4.719e-10
 55.16504    -11.5 1.090e+04 6.990e-10
 55.18852    -15.4 1.188e+04 1.123e-09
 55.19950    -14.7 1.122e+04 1.116e-09
 55.22025    -20.2 1.667e+04 4.037e-09
 55.23573    -23.9 2.026e+04 1.213e-08
 55.24122    -23.1 1.992e+04 9.176e-09
 55.24723    -25.0 2.179e+04 1.789e-08
 55.25277    -24.1 2.162e+04 1.682e-08
 55.25893    -26.2 2.330e+04 3.651e-08
 55.26871    -28.4 2.428e+04 7.540e-08
 55.27425    -27.5 2.417e+04 7.376e-08
 55.28109    -30.3 2.455e+04 1.227e-07
 55.29019    -34.0 2.456e+04 1.436e-07
 55.29573    -32.9 2.438e+04 1.635e-07
 55.30325    -36.6 2.430e+04 1.658e-07
 55.31167    -39.8 2.395e+04 1.183e-07
 55.31721    -39.0 2.387e+04 1.542e-07
 55.32541    -41.8 2.369e+04 7.949e-08
 55.33316    -44.3 2.288e+04 3.813e-08
 55.33870    -43.5 2.323e+04 4.703e-08
 55.34757    -45.5 2.192e+04 2.346e-08
 55.35464    -47.0 2.010e+04 1.409e-08
 55.36018    -46.4 2.074e+04 1.497e-08
 55.36973    -47.7 1.894e+04 9.588e-09
 55.37612    -48.4 1.749e+04 6.485e-09
 55.38166    -48.4 1.764e+04 6.304e-09
 55.39189    -49.2 1.633e+04 4.303e-09
 55.39760    -49.9 1.582e+04 3.252e-09
 55.40314    -50.0 1.534e+04 3.098e-09
 55.41642    -50.6 1.521e+04 2.466e-09
 55.42750    -50.4 1.676e+04 3.484e-09
 55.43508    -51.9 2.066e+04 4.174e-09
 55.44620    -50.6 1.727e+04 3.278e-09
 55.46400    -55.0 2.758e+04 3.444e-09
 55.47804    -60.9 3.767e+04 1.485e-09
 55.48912    -64.8 3.477e+04 2.297e-09
 55.49952    -73.3 3.654e+04 3.304e-09
 55.50501    -73.2 3.227e+04 3.145e-09
 55.51376    -78.2 2.921e+04 6.981e-09
 55.52095    -81.5 2.610e+04 1.383e-08
 55.52649    -80.4 2.536e+04 1.139e-08
 55.53592    -82.7 2.408e+04 1.930e-08
 55.54244    -84.8 2.316e+04 2.611e-08
 55.54798    -83.3 2.304e+04 2.028e-08
 55.55808    -85.5 2.265e+04 2.284e-08
 55.56392    -87.6 2.210e+04 2.290e-08
 55.56946    -86.1 2.191e+04 1.898e-08
 55.57986    -87.7 2.110e+04 1.786e-08
 55.58540    -86.4 2.100e+04 1.520e-08
 55.59585    -89.3 1.994e+04 1.379e-08
 55.60698    -86.9 1.989e+04 1.208e-08
 55.61912    -91.2 1.795e+04 6.279e-09
 55.63886    -96.5 1.500e+04 2.073e-09
 55.64994    -96.0 1.492e+04 2.112e-09
 55.66344   -101.0 1.203e+04 7.340e-10
 55.68183   -103.1 1.085e+04 4.470e-10
 55.69291   -102.4 1.108e+04 5.485e-10
 55.70776   -102.7 1.077e+04 4.700e-10
 55.72479   -102.7 1.069e+04 4.407e-10
 55.73587   -102.1 1.105e+04 5.537e-10
 55.75208   -102.1 1.095e+04 5.043e-10
 55.76776   -102.1 1.085e+04 4.682e-10
 55.77884   -101.8 1.111e+04 5.725e-10
 55.78892   -101.8 1.097e+04 5.307e-10
 55.80000   -101.8 1.086e+04 4.843e-10
 55.81072   -101.8 1.083e+04 4.788e-10
 55.82180   -101.5 1.095e+04 5.573e-10
 55.84072   -101.5 1.092e+04 5.525e-10
 55.85369   -101.4 1.091e+04 5.565e-10
 55.86476   -101.2 1.105e+04 6.518e-10
 55.88503   -101.2 1.105e+04 6.569e-10
 55.89665   -101.2 1.118e+04 6.852e-10
 55.90773   -101.4 1.141e+04 8.098e-10
 55.92853   -101.8 1.180e+04 9.025e-10
 55.93961   -102.6 1.232e+04 1.156e-09
 55.95151   -103.5 1.278e+04 1.341e-09
 55.97150   -104.7 1.321e+04 1.572e-09
 55.98258   -106.1 1.369e+04 1.995e-09
 55.99583   -107.6 1.397e+04 2.208e-09
 56.01446   -109.3 1.425e+04 2.436e-09
 56.02554   -110.8 1.430e+04 2.632e-09
 56.04015   -112.5 1.453e+04 2.726e-09
 56.05743   -114.1 1.487e+04 3.056e-09
 56.06851   -115.5 1.466e+04 2.908e-09
 56.08447   -116.9 1.497e+04 3.214e-09
 56.10039   -118.1 1.519e+04 3.482e-09
 56.11147   -119.4 1.468e+04 2.916e-09
 56.12879   -120.2 1.466e+04 2.874e-09
 56.14335   -120.7 1.459e+04 2.781e-09
 56.15378   -121.6 1.377e+04 2.091e-09
 56.16138   -119.6 1.394e+04 2.239e-09
 56.17311   -119.8 1.392e+04 2.199e-09
 56.18632   -119.9 1.393e+04 2.192e-09
 56.19740   -120.6 1.317e+04 1.679e-09
 56.21743   -121.1 1.320e+04 1.682e-09
 56.22928   -122.1 1.357e+04 1.761e-09
 56.24036   -122.4 1.276e+04 1.383e-09
 56.26117   -123.4 1.363e+04 1.805e-09
 56.27225   -123.1 1.284e+04 1.453e-09
 56.28391   -123.8 1.360e+04 1.921e-09
 56.30413   -124.6 1.429e+04 2.438e-09
 56.31521   -124.6 1.335e+04 1.668e-09
 56.32823   -125.8 1.368e+04 1.770e-09
 56.34709   -127.2 1.379e+04 1.790e-09
 56.36935   -128.2 1.254e+04 9.174e-10
 56.40598   -130.2 1.227e+04 8.251e-10
 56.43322   -132.1 1.193e+04 7.330e-10
 56.45538   -129.5 1.089e+04 4.255e-10
 56.49462   -130.1 1.080e+04 4.047e-10
 56.51915   -130.5 1.091e+04 4.168e-10
 56.52531   -128.4 9.979e+03 2.445e-10
 56.54510   -127.3 1.032e+04 3.129e-10
 56.58291   -127.5 1.090e+04 4.157e-10
 56.60507   -125.6 1.007e+04 2.701e-10
 56.62758   -126.0 1.080e+04 4.092e-10
 56.66884   -126.6 1.141e+04 6.276e-10
 56.69100   -124.9 1.085e+04 4.375e-10
 56.71621   -125.8 1.136e+04 6.351e-10
 56.75477   -126.8 1.156e+04 7.787e-10
 56.77693   -125.4 1.152e+04 7.145e-10
 56.80485   -126.4 1.167e+04 8.432e-10
 56.84070   -127.1 1.165e+04 8.669e-10
 56.86286   -125.8 1.185e+04 9.609e-10
 56.89349   -126.2 1.180e+04 9.692e-10
 56.92663   -126.1 1.153e+04 8.836e-10
 56.94879   -125.4 1.172e+04 9.653e-10
 56.98213   -125.2 1.140e+04 8.307e-10
 57.01256   -125.0 1.117e+04 7.158e-10
 57.03472   -124.8 1.115e+04 7.111e-10
 57.07077   -124.6 1.104e+04 6.650e-10
 57.09848   -124.6 1.102e+04 6.607e-10
 57.12064   -123.8 1.078e+04 5.943e-10
 57.15941   -123.1 1.096e+04 6.295e-10
 57.18441   -123.1 1.161e+04 7.940e-10
 57.20657   -123.5 1.123e+04 5.981e-10
 57.24569   -124.7 1.162e+04 7.450e-10
 57.26785   -125.0 1.171e+04 7.946e-10
 57.29236   -124.9 1.116e+04 6.313e-10
 57.33411   -125.4 1.148e+04 7.578e-10
 57.35627   -124.7 1.112e+04 6.058e-10
 57.38100   -125.2 1.163e+04 7.697e-10
 57.42004   -125.8 1.211e+04 9.354e-10
 57.44210   -126.6 1.212e+04 9.544e-10
 57.45836   -128.0 1.237e+04 1.098e-09
 57.47389   -128.5 1.243e+04 1.124e-09
 57.48497   -128.6 1.222e+04 1.030e-09
 57.50268   -129.1 1.226e+04 1.045e-09
 57.51685   -129.5 1.224e+04 1.042e-09
 57.52793   -129.7 1.201e+04 9.324e-10
 57.54700   -130.1 1.195e+04 9.149e-10
 57.55981   -130.4 1.180e+04 8.664e-10
 57.57089   -130.9 1.164e+04 8.172e-10
 57.59132   -131.1 1.159e+04 8.029e-10
 57.60278   -131.2 1.159e+04 8.002e-10
 57.61386   -131.6 1.164e+04 8.060e-10
 57.62903   -131.7 1.178e+04 8.216e-10
 57.63913   -131.5 1.151e+04 8.139e-10
 57.64574   -131.9 1.157e+04 8.595e-10
 57.65780   -132.0 1.168e+04 9.043e-10
 57.67763   -132.0 1.177e+04 9.229e-10
 57.68871   -132.5 1.174e+04 9.137e-10
 57.70212   -132.5 1.177e+04 9.056e-10
 57.72059   -132.6 1.179e+04 8.801e-10
 57.73167   -133.2 1.171e+04 7.671e-10
 57.74644   -133.6 1.174e+04 6.866e-10
 57.76355   -134.2 1.172e+04 5.920e-10
 57.78581   -136.6 1.136e+04 4.188e-10
 57.82419   -136.0 1.112e+04 3.843e-10
 57.84968   -134.9 1.103e+04 3.856e-10
 57.87184   -135.5 1.096e+04 4.267e-10
 57.91283   -134.9 1.128e+04 5.794e-10
 57.93561   -134.3 1.178e+04 7.617e-10
 57.95777   -134.4 1.229e+04 9.880e-10
 57.99029   -134.8 1.280e+04 1.239e-09
 58.00149   -135.8 1.291e+04 1.363e-09
 58.01047   -134.9 1.292e+04 1.371e-09
 58.02134   -136.4 1.310e+04 1.523e-09
 58.03451   -137.1 1.295e+04 1.509e-09
 58.05322   -137.5 1.276e+04 1.342e-09
 58.06430   -138.1 1.255e+04 1.212e-09
 58.07883   -137.9 1.234e+04 9.752e-10
 58.09619   -137.8 1.226e+04 7.734e-10
 58.10727   -138.8 1.220e+04 6.376e-10
 58.12315   -139.3 1.209e+04 5.006e-10
 58.13915   -139.8 1.191e+04 4.164e-10
 58.15023   -140.6 1.177e+04 3.824e-10
 58.17113   -139.9 1.173e+04 3.676e-10
 58.19339   -140.0 1.137e+04 3.209e-10
 58.22306   -138.9 1.124e+04 3.055e-10
 58.25716   -137.6 1.122e+04 3.059e-10
 58.27932   -138.1 1.108e+04 2.881e-10
 58.31170   -137.0 1.118e+04 2.975e-10
 58.34309   -136.0 1.130e+04 3.184e-10
 58.36525   -136.5 1.117e+04 2.750e-10
 58.40034   -135.5 1.121e+04 2.711e-10
 58.42902   -134.6 1.120e+04 2.574e-10
 58.45118   -134.8 1.103e+04 1.855e-10
 58.48898   -133.9 1.102e+04 1.621e-10
 58.51494   -132.9 1.102e+04 1.438e-10
 58.53710   -133.1 1.090e+04 1.241e-10
 58.57762   -132.0 1.090e+04 1.240e-10
 58.60087   -131.0 1.100e+04 1.238e-10
 58.62303   -131.1 1.099e+04 1.238e-10
 58.66464   -130.1 1.108e+04 1.266e-10
 58.68680   -130.2 1.105e+04 1.258e-10
 58.71058   -129.1 1.110e+04 1.253e-10
 58.73551   -128.0 1.107e+04 1.229e-10
 58.75334   -127.8 1.098e+04 1.456e-10
 58.77273   -127.7 1.095e+04 1.376e-10
 58.79921   -126.4 1.089e+04 1.250e-10
 58.83650   -125.0 1.083e+04 1.106e-10
 58.85866   -124.8 1.078e+04 1.024e-10
 58.88785   -123.3 1.073e+04 8.836e-11
 58.92243   -121.6 1.069e+04 7.594e-11
 58.94458   -121.3 1.063e+04 7.331e-11
 58.97649   -119.6 1.060e+04 6.418e-11
 59.00835   -117.7 1.060e+04 5.660e-11
 59.03051   -117.3 1.059e+04 5.616e-11
 59.06513   -115.4 1.062e+04 5.000e-11
 59.09428   -113.4 1.067e+04 4.463e-11
 59.11644   -112.9 1.068e+04 4.586e-11
 59.15377   -110.9 1.074e+04 4.277e-11
 59.18021   -108.8 1.080e+04 4.098e-11
 59.20237   -108.4 1.081e+04 4.729e-11
 59.24240   -106.4 1.086e+04 4.832e-11
 59.26614   -104.5 1.096e+04 4.967e-11
 59.28830   -104.2 1.096e+04 6.170e-11
 59.32991   -102.5 1.108e+04 6.563e-11
 59.35207   -102.4 1.110e+04 7.839e-11
 59.37536   -100.8 1.122e+04 8.858e-11
 59.41583    -99.4 1.130e+04 1.113e-10
 59.43799    -99.5 1.132e+04 1.294e-10
 59.45826    -98.2 1.138e+04 1.787e-10
 59.48042    -97.5 1.133e+04 1.057e-10
 59.50176    -96.2 1.138e+04 1.468e-10
 59.52392    -96.4 1.136e+04 1.635e-10
 59.55264    -95.1 1.142e+04 2.160e-10
 59.58769    -93.9 1.147e+04 2.635e-10
 59.60985    -94.1 1.140e+04 2.401e-10
 59.64128    -92.9 1.138e+04 2.443e-10
 59.67362    -91.6 1.131e+04 2.268e-10
 59.69578    -91.4 1.119e+04 1.812e-10
 59.72992    -89.9 1.110e+04 1.496e-10
 59.75955    -88.5 1.103e+04 1.220e-10
 59.78171    -88.2 1.093e+04 1.029e-10
 59.81855    -86.7 1.082e+04 9.096e-11
 59.84548    -85.2 1.062e+04 8.528e-11
 59.86764    -84.6 1.060e+04 8.527e-11
 59.90719    -83.0 1.057e+04 8.012e-11
 59.93140    -81.3 1.054e+04 7.521e-11
 59.95356    -80.6 1.049e+04 7.726e-11
 59.99517    -78.9 1.048e+04 7.440e-11
 60.01733    -78.3 1.045e+04 7.922e-11
 60.04015    -76.8 1.046e+04 7.878e-11
 60.08110    -75.4 1.045e+04 8.098e-11
 60.10326    -74.9 1.042e+04 9.387e-11
 60.12879    -73.6 1.045e+04 1.097e-10
 60.16703    -72.4 1.049e+04 1.307e-10
 60.18919    -71.9 1.047e+04 1.538e-10
 60.20316    -70.7 1.049e+04 1.728e-10
 60.22532    -70.5 1.040e+04 1.643e-10
 60.25296    -69.3 1.040e+04 1.735e-10
 60.27512    -68.9 1.039e+04 1.928e-10
 60.30606    -67.7 1.039e+04 1.939e-10
 60.33889    -66.5 1.034e+04 1.893e-10
 60.36104    -66.1 1.031e+04 2.018e-10
 60.39470    -64.9 1.029e+04 1.831e-10
 60.42481    -63.9 1.027e+04 1.679e-10
 60.44697    -63.6 1.027e+04 1.786e-10
 60.48334    -62.7 1.025e+04 1.690e-10
 60.51074    -61.7 1.023e+04 1.630e-10
 60.53290    -61.6 1.021e+04 1.750e-10
 60.57198    -60.7 1.017e+04 1.683e-10
 60.59667    -59.6 1.012e+04 1.584e-10
 60.61883    -59.4 1.009e+04 1.615e-10
 60.66044    -58.2 1.003e+04 1.381e-10
 60.70476    -56.7 9.972e+03 1.011e-10
 60.74637    -55.4 9.960e+03 7.684e-11
 60.76853    -55.4 9.956e+03 6.694e-11
 60.79357    -54.2 9.961e+03 5.430e-11
 60.83229    -52.9 9.959e+03 5.029e-11
 60.85445    -52.9 9.932e+03 5.000e-11
 60.88221    -51.6 9.942e+03 4.967e-11
 60.91822    -50.5 1.003e+04 5.161e-11
 60.93976    -50.4 1.003e+04 5.521e-11
 60.94807    -49.8 9.949e+03 5.271e-11
 60.97085    -48.7 1.005e+04 6.897e-11
 61.00415    -47.5 1.010e+04 9.341e-11
 61.02631    -47.3 1.011e+04 1.054e-10
 61.05949    -46.0 1.016e+04 1.283e-10
 61.09008    -44.8 1.021e+04 1.404e-10
 61.11224    -44.7 1.019e+04 1.497e-10
 61.14813    -43.6 1.019e+04 1.516e-10
 61.17601    -42.5 1.016e+04 1.513e-10
 61.19817    -42.3 1.011e+04 1.634e-10
 61.23677    -41.2 1.010e+04 1.624e-10
 61.26194    -40.1 1.008e+04 1.643e-10
 61.28410    -40.0 1.010e+04 1.914e-10
 61.32540    -39.2 1.021e+04 2.175e-10
 61.34786    -38.4 1.032e+04 2.527e-10
 61.37002    -38.4 1.039e+04 2.961e-10
 61.41163    -37.9 1.047e+04 3.187e-10
 61.43379    -37.9 1.053e+04 3.480e-10
 61.45836    -37.7 1.056e+04 3.483e-10
 61.49756    -37.5 1.058e+04 3.473e-10
 61.51972    -37.6 1.070e+04 3.747e-10
 61.54700    -37.3 1.086e+04 4.157e-10
 61.58349    -37.0 1.091e+04 4.639e-10
 61.60555    -38.0 1.107e+04 6.123e-10
 61.62436    -38.0 1.105e+04 6.590e-10
 61.63734    -37.7 1.104e+04 6.644e-10
 61.64842    -38.5 1.123e+04 8.270e-10
 61.66868    -38.2 1.118e+04 8.107e-10
 61.68030    -37.7 1.110e+04 7.425e-10
 61.68224    -38.4 1.133e+04 8.755e-10
 61.69278    -38.1 1.131e+04 8.829e-10
 61.71219    -37.6 1.115e+04 7.480e-10
 61.72327    -38.2 1.136e+04 8.220e-10
 61.73516    -37.8 1.119e+04 6.787e-10
 61.75515    -37.4 1.108e+04 5.568e-10
 61.76623    -38.4 1.127e+04 5.822e-10
 61.77948    -38.3 1.118e+04 5.088e-10
 61.81282    -37.9 1.111e+04 4.705e-10
 61.84127    -35.9 1.093e+04 4.345e-10
 61.86343    -37.1 1.101e+04 4.820e-10
 61.90155    -35.2 1.099e+04 4.733e-10
 61.92720    -33.4 1.097e+04 4.678e-10
 61.94936    -34.4 1.098e+04 4.886e-10
 61.99019    -32.5 1.091e+04 4.671e-10
 62.01313    -30.4 1.082e+04 4.399e-10
 62.03529    -31.1 1.082e+04 4.487e-10
 62.07690    -29.1 1.079e+04 4.208e-10
 62.09906    -29.6 1.085e+04 4.325e-10
 62.12315    -27.5 1.086e+04 4.087e-10
 62.16283    -25.6 1.090e+04 3.969e-10
 62.18499    -25.8 1.096e+04 4.223e-10
 62.21179    -23.9 1.108e+04 4.285e-10
 62.24875    -22.0 1.118e+04 4.743e-10
 62.27091    -21.9 1.131e+04 5.318e-10
 62.30043    -19.7 1.150e+04 6.116e-10
 62.33468    -17.6 1.185e+04 7.025e-10
 62.35674    -18.2 1.221e+04 7.982e-10
 62.37745    -19.1 1.313e+04 1.084e-09
 62.38853    -20.7 1.383e+04 1.436e-09
 62.39995    -22.0 1.474e+04 2.379e-09
 62.41553    -23.1 1.548e+04 3.947e-09
 62.42492    -24.1 1.559e+04 4.989e-09
 62.43150    -25.2 1.585e+04 6.217e-09
 62.44427    -25.4 1.611e+04 7.282e-09
 62.46338    -25.7 1.617e+04 7.495e-09
 62.47446    -26.6 1.615e+04 7.003e-09
 62.48859    -27.2 1.597e+04 5.258e-09
 62.50634    -28.8 1.556e+04 3.442e-09
 62.51742    -31.3 1.507e+04 2.265e-09
 62.53291    -33.8 1.401e+04 1.465e-09
 62.54931    -35.2 1.308e+04 1.197e-09
 62.56039    -36.2 1.280e+04 1.145e-09
 62.57722    -36.6 1.250e+04 1.093e-09
 62.59237    -36.5 1.235e+04 1.075e-09
 62.61463    -37.0 1.236e+04 1.098e-09
 62.65498    -36.7 1.223e+04 1.101e-09
 62.67840    -36.0 1.206e+04 1.039e-09
 62.68938    -36.3 1.226e+04 1.150e-09
 62.71008    -36.4 1.236e+04 1.167e-09
 62.73224    -37.5 1.296e+04 1.442e-09
 62.75305    -38.1 1.299e+04 1.489e-09
 62.76413    -39.3 1.353e+04 2.033e-09
 62.77666    -39.9 1.349e+04 2.150e-09
 62.78799    -40.3 1.345e+04 2.307e-09
 62.79626    -40.0 1.352e+04 2.217e-09
 62.80709    -41.2 1.412e+04 3.275e-09
 62.82098    -41.5 1.414e+04 3.691e-09
 62.83898    -41.5 1.416e+04 4.061e-09
 62.85006    -42.1 1.468e+04 5.239e-09
 62.86530    -41.9 1.467e+04 4.952e-09
 62.88194    -41.7 1.452e+04 4.571e-09
 62.89302    -42.8 1.454e+04 4.493e-09
 62.90962    -42.5 1.430e+04 4.068e-09
 62.92491    -42.1 1.409e+04 3.616e-09
 62.93598    -43.6 1.406e+04 3.007e-09
 62.95394    -43.3 1.387e+04 2.610e-09
 62.96787    -43.1 1.370e+04 2.272e-09
 62.97895    -45.0 1.349e+04 1.712e-09
 62.99826    -44.8 1.330e+04 1.595e-09
 63.01083    -44.3 1.313e+04 1.541e-09
 63.02191    -46.0 1.287e+04 1.317e-09
 63.04258    -45.1 1.293e+04 1.393e-09
 63.05380    -44.3 1.308e+04 1.485e-09
 63.06488    -46.0 1.295e+04 1.356e-09
 63.08568    -45.3 1.309e+04 1.453e-09
 63.09676    -47.0 1.285e+04 1.313e-09
 63.10905    -46.2 1.299e+04 1.392e-09
 63.12865    -45.5 1.312e+04 1.456e-09
 63.13973    -47.1 1.281e+04 1.258e-09
 63.14936    -46.6 1.286e+04 1.263e-09
 63.16044    -46.8 1.305e+04 1.463e-09
 63.17161    -46.6 1.316e+04 1.439e-09
 63.18269    -48.7 1.278e+04 1.215e-09
 63.19769    -48.7 1.273e+04 1.176e-09
 63.21457    -48.8 1.272e+04 1.159e-09
 63.22565    -50.4 1.239e+04 1.026e-09
 63.24201    -50.1 1.243e+04 1.062e-09
 63.25764    -49.1 1.291e+04 1.318e-09
 63.27989    -50.5 1.194e+04 8.246e-10
 63.31977    -49.2 1.256e+04 1.080e-09
 63.34366    -48.3 1.330e+04 1.577e-09
 63.36582    -49.0 1.155e+04 4.888e-10
 63.40743    -48.4 1.196e+04 6.329e-10
 63.42959    -49.6 1.111e+04 3.584e-10
 63.45272    -48.7 1.133e+04 5.569e-10
 63.49336    -47.6 1.163e+04 7.787e-10
 63.51552    -47.6 1.151e+04 7.268e-10
 63.54136    -46.2 1.182e+04 8.711e-10
 63.57929    -45.4 1.203e+04 9.596e-10
 63.60145    -45.7 1.222e+04 9.777e-10
 63.63000    -45.1 1.250e+04 1.146e-09
 63.66521    -44.5 1.281e+04 1.426e-09
 63.68737    -45.4 1.287e+04 1.410e-09
 63.71864    -45.0 1.320e+04 1.715e-09
 63.75114    -44.9 1.340e+04 1.866e-09
 63.77330    -46.5 1.331e+04 1.589e-09
 63.80728    -46.5 1.330e+04 1.560e-09
 63.83707    -46.0 1.308e+04 1.280e-09
 63.85923    -47.6 1.273e+04 9.592e-10
 63.88338    -47.0 1.244e+04 7.142e-10
 63.90554    -48.5 1.215e+04 6.179e-10
 63.92300    -47.7 1.203e+04 5.240e-10
 63.94516    -49.1 1.203e+04 4.838e-10
 63.98455    -48.2 1.200e+04 4.547e-10
 64.00893    -47.4 1.199e+04 4.301e-10
 64.03109    -48.7 1.197e+04 4.272e-10
 64.07270    -47.7 1.195e+04 4.078e-10
 64.09486    -48.9 1.186e+04 4.018e-10
 64.11751    -47.7 1.176e+04 3.829e-10
 64.15862    -46.4 1.160e+04 3.513e-10
 64.18078    -47.1 1.143e+04 3.132e-10
 64.20615    -45.4 1.130e+04 2.586e-10
 64.24455    -43.6 1.120e+04 2.054e-10
 64.26671    -44.1 1.108e+04 1.774e-10
 64.29479    -42.2 1.102e+04 1.549e-10
 64.33048    -40.2 1.101e+04 1.486e-10
 64.35264    -40.4 1.101e+04 1.497e-10
 64.38342    -38.5 1.102e+04 1.486e-10
 64.41641    -36.9 1.117e+04 1.667e-10
 64.43857    -37.1 1.123e+04 1.751e-10
 64.47206    -35.7 1.132e+04 2.419e-10
 64.50234    -34.2 1.147e+04 3.434e-10
 64.52450    -34.6 1.150e+04 3.266e-10
 64.56070    -33.5 1.166e+04 4.264e-10
 64.58827    -32.5 1.178e+04 4.993e-10
 64.61042    -33.3 1.165e+04 4.677e-10
 64.62829    -32.5 1.165e+04 4.840e-10
 64.65045    -32.2 1.153e+04 3.441e-10
 64.67419    -31.3 1.150e+04 3.538e-10
 64.69635    -31.8 1.137e+04 3.357e-10
 64.73796    -30.8 1.122e+04 3.229e-10
 64.78228    -29.8 1.083e+04 2.281e-10
 64.82389    -28.8 1.071e+04 1.714e-10
 64.84605    -29.1 1.056e+04 1.687e-10
 64.87093    -28.2 1.058e+04 1.455e-10
 64.90982    -27.4 1.058e+04 1.370e-10
 64.93198    -27.7 1.049e+04 1.739e-10
 64.95957    -26.8 1.049e+04 1.929e-10
 64.99575    -25.8 1.045e+04 2.066e-10
 65.01791    -25.8 1.053e+04 2.877e-10
 65.04821    -24.7 1.048e+04 2.769e-10
 65.08167    -23.4 1.045e+04 2.179e-10
 65.10383    -23.7 1.057e+04 2.333e-10
 65.13685    -22.7 1.057e+04 1.626e-10
 65.16760    -21.9 1.057e+04 1.168e-10
 65.18976    -22.8 1.065e+04 1.280e-10
 65.22549    -22.2 1.060e+04 1.162e-10
 65.25353    -21.6 1.051e+04 1.169e-10
 65.27569    -23.0 1.070e+04 1.919e-10
 65.31413    -22.1 1.082e+04 2.436e-10
 65.33946    -21.1 1.091e+04 2.854e-10
 65.35044    -21.9 1.106e+04 3.630e-10
 65.36192    -21.8 1.113e+04 3.857e-10
 65.37300    -20.5 1.090e+04 3.452e-10
 65.38223    -19.9 1.096e+04 3.796e-10
 65.39331    -21.2 1.124e+04 5.239e-10
 65.41365    -21.2 1.140e+04 5.624e-10
 65.42519    -21.1 1.158e+04 6.135e-10
 65.43627    -22.8 1.197e+04 8.303e-10
 65.45708    -22.9 1.210e+04 8.675e-10
 65.46816    -24.7 1.228e+04 1.057e-09
 65.48013    -25.1 1.226e+04 1.101e-09
 65.50004    -25.4 1.224e+04 1.155e-09
 65.51112    -27.3 1.228e+04 1.344e-09
 65.52445    -27.3 1.212e+04 1.309e-09
 65.54300    -27.2 1.196e+04 1.199e-09
 65.55408    -28.5 1.179e+04 1.166e-09
 65.56877    -28.2 1.151e+04 9.936e-10
 65.58597    -27.9 1.123e+04 8.258e-10
 65.59705    -29.0 1.091e+04 6.694e-10
 65.61309    -28.9 1.064e+04 5.288e-10
 65.62893    -29.1 1.046e+04 4.386e-10
 65.64001    -29.9 1.024e+04 3.730e-10
 65.66091    -29.0 1.029e+04 3.743e-10
 65.68317    -30.4 9.771e+03 2.392e-10
 65.71300    -29.1 9.582e+03 1.914e-10
 65.74694    -27.9 9.509e+03 1.604e-10
 65.76910    -29.1 9.314e+03 1.360e-10
 65.80164    -27.7 9.283e+03 1.347e-10
 65.83287    -26.1 9.313e+03 1.354e-10
 65.85503    -26.7 9.290e+03 1.322e-10
 65.89027    -25.0 9.418e+03 1.341e-10
 65.91880    -23.5 9.588e+03 1.421e-10
 65.94096    -24.3 9.599e+03 1.287e-10
 65.97891    -23.2 9.736e+03 1.513e-10
 66.00473    -22.0 9.841e+03 1.975e-10
 66.02688    -23.2 9.723e+03 1.589e-10
 66.06755    -21.9 9.835e+03 2.017e-10
 66.09065    -20.3 9.916e+03 2.352e-10
 66.09689    -21.5 9.574e+03 1.685e-10
 66.11811    -21.7 9.755e+03 2.785e-10
 66.15442    -20.0 9.653e+03 2.279e-10
 66.17658    -21.5 9.477e+03 1.939e-10
 66.20051    -20.2 9.479e+03 1.690e-10
 66.24035    -18.9 9.512e+03 1.603e-10
 66.26251    -20.3 9.498e+03 1.738e-10
 66.28915    -19.1 9.606e+03 1.834e-10
 66.32628    -18.0 9.804e+03 2.501e-10
 66.34844    -19.1 9.754e+03 2.596e-10
 66.37779    -17.6 9.962e+03 3.556e-10
 66.41221    -15.9 1.024e+04 4.858e-10
 66.43437    -17.2 9.950e+03 3.074e-10
 66.46642    -15.9 1.018e+04 3.416e-10
 66.49813    -14.7 1.043e+04 3.796e-10
 66.52029    -16.9 9.789e+03 1.555e-10
 66.55506    -16.1 1.002e+04 1.776e-10
 66.58406    -15.2 1.010e+04 2.216e-10
 66.60622    -17.3 9.273e+03 1.431e-10
 66.64370    -16.2 9.347e+03 1.743e-10
 66.66999    -15.0 9.436e+03 2.084e-10
 66.69215    -16.3 9.260e+03 2.010e-10
 66.73234    -15.0 9.383e+03 2.225e-10
 66.75592    -14.0 9.508e+03 2.319e-10
 66.77808    -15.3 9.468e+03 2.158e-10
 66.81870    -14.9 9.633e+03 2.215e-10
 66.83957    -14.5 9.627e+03 2.208e-10
 66.84185    -16.2 9.674e+03 2.247e-10
 66.86530    -16.6 9.857e+03 2.475e-10
 66.90562    -17.4 1.004e+04 2.960e-10
 66.92778    -19.4 1.026e+04 4.050e-10
 66.95393    -19.7 1.042e+04 5.046e-10
 66.99154    -20.2 1.058e+04 5.800e-10
 67.01370    -21.7 1.057e+04 5.947e-10
 67.04257    -22.1 1.060e+04 6.015e-10
 67.07747    -22.5 1.054e+04 5.873e-10
 67.09963    -23.4 1.022e+04 4.876e-10
 67.13121    -23.3 1.001e+04 4.341e-10
 67.16340    -23.1 9.758e+03 3.777e-10
 67.18556    -23.8 9.238e+03 2.383e-10
 67.21985    -23.3 8.963e+03 2.024e-10
 67.24933    -22.5 8.752e+03 1.812e-10
 67.27149    -23.1 8.410e+03 9.998e-11
 67.30849    -22.0 8.346e+03 9.736e-11
 67.33526    -20.6 8.304e+03 9.722e-11
 67.35742    -21.3 8.023e+03 7.391e-11
 67.39713    -19.7 8.033e+03 7.677e-11
 67.42119    -17.9 8.037e+03 7.901e-11
 67.44334    -18.0 7.894e+03 6.623e-11
 67.48495    -16.5 7.976e+03 6.391e-11
 67.50711    -16.7 7.826e+03 5.620e-11
 67.53008    -16.4 8.293e+03 5.803e-11
 67.56360    -17.1 9.165e+03 9.261e-11
 67.58224    -16.2 8.474e+03 6.358e-11
 67.59304    -16.8 8.584e+03 7.341e-11
 67.61872    -17.1 8.993e+03 1.460e-10
 67.65681    -16.5 9.371e+03 2.728e-10
 67.67897    -16.0 9.608e+03 3.932e-10
 67.70736    -14.9 9.807e+03 4.605e-10
 67.74274    -14.0 9.797e+03 4.582e-10
 67.76490    -13.6 9.768e+03 4.467e-10
 67.79600    -13.0 9.360e+03 3.380e-10
 67.82867    -12.3 8.983e+03 2.708e-10
 67.85083    -12.1 9.114e+03 3.306e-10
 67.88464    -10.7 8.936e+03 3.178e-10
 67.91459     -8.9 8.830e+03 2.985e-10
 67.93675     -8.3 9.039e+03 3.535e-10
 67.97327     -6.5 8.945e+03 3.044e-10
 68.00052     -4.8 8.894e+03 2.710e-10
 68.02268     -4.3 8.896e+03 2.628e-10
 68.06191     -2.7 8.892e+03 2.525e-10
 68.08645     -1.1 9.029e+03 2.755e-10
 68.10861     -0.6 9.027e+03 2.333e-10
 68.15022      0.8 9.363e+03 3.161e-10
 68.17238      0.7 9.671e+03 2.820e-10
 68.19487      1.4 1.024e+04 5.031e-10
 68.23615      2.0 1.134e+04 9.927e-10
 68.25831      1.3 1.178e+04 1.215e-09
 68.27233      2.2 1.266e+04 1.952e-09
 68.29000      2.2 1.328e+04 2.735e-09
 68.30108      2.4 1.327e+04 2.718e-09
 68.30832      3.1 1.376e+04 3.385e-09
 68.31940      3.3 1.363e+04 3.245e-09
 68.33296      3.9 1.401e+04 3.622e-09
 68.34404      3.4 1.407e+04 3.347e-09
 68.36087      3.4 1.439e+04 3.464e-09
 68.37592      2.5 1.453e+04 3.130e-09
 68.38700      1.3 1.419e+04 2.995e-09
 68.40519      0.5 1.392e+04 2.700e-09
 68.41889      0.2 1.364e+04 2.295e-09
 68.42997      0.4 1.342e+04 2.247e-09
 68.44951      0.5 1.313e+04 1.701e-09
 68.46185      0.4 1.264e+04 1.174e-09
 68.47293      0.4 1.266e+04 1.160e-09
 68.49374     -0.2 1.212e+04 7.812e-10
 68.51590     -0.9 1.177e+04 5.855e-10
 68.53670     -1.1 1.139e+04 4.508e-10
 68.54778     -1.4 1.181e+04 5.446e-10
 68.56031     -1.3 1.133e+04 4.268e-10
 68.57967     -1.0 1.087e+04 3.554e-10
 68.59075     -0.9 1.119e+04 4.794e-10
 68.60463     -0.3 1.071e+04 3.983e-10
 68.62263      0.4 1.049e+04 3.540e-10
 68.63371      0.9 1.077e+04 4.561e-10
 68.64895      1.5 1.063e+04 4.039e-10
 68.66559      2.2 1.054e+04 3.691e-10
 68.67526      2.8 1.082e+04 4.516e-10
 68.68077      2.6 1.080e+04 4.853e-10
 68.69327      3.4 1.075e+04 4.371e-10
 68.70856      3.9 1.068e+04 4.010e-10
 68.71964      4.4 1.087e+04 4.649e-10
 68.73758      5.1 1.083e+04 4.448e-10
 68.75152      5.5 1.068e+04 4.348e-10
 68.76260      6.3 1.096e+04 5.046e-10
 68.78190      7.0 1.080e+04 5.142e-10
 68.79449      7.6 1.072e+04 5.441e-10
 68.80557      8.3 1.099e+04 6.226e-10
 68.82622      6.6 1.226e+04 8.121e-10
 68.83745      2.8 1.415e+04 1.454e-09
 68.84853      2.4 1.464e+04 2.226e-09
 68.86933      1.1 1.469e+04 4.061e-09
 68.88041      2.6 1.515e+04 5.036e-09
 68.88711      2.3 1.501e+04 6.182e-09
 68.89626      2.4 1.491e+04 6.264e-09
 68.90180      3.3 1.512e+04 6.314e-09
 68.90922      4.6 1.535e+04 6.370e-09
 68.91774      5.0 1.528e+04 5.630e-09
 68.92333      5.4 1.554e+04 5.484e-09
 68.93702      5.7 1.552e+04 3.611e-09
 68.95526      3.7 1.562e+04 1.564e-09
 68.96634      0.2 1.495e+04 9.587e-10
 68.98134     -3.8 1.227e+04 5.862e-10
 68.99823     -4.6 1.181e+04 5.276e-10
 69.00931     -5.4 1.196e+04 5.750e-10
 69.02566     -5.6 1.224e+04 6.259e-10
 69.04119     -5.9 1.251e+04 7.731e-10
 69.04660     -6.2 1.224e+04 9.488e-10
 69.05322     -7.1 1.239e+04 1.278e-09
 69.07317     -6.8 1.286e+04 1.633e-09
 69.09543     -6.0 1.259e+04 1.421e-09
 69.11439     -5.4 1.317e+04 2.156e-09
 69.12712     -4.8 1.337e+04 2.361e-09
 69.13820     -4.7 1.322e+04 2.054e-09
 69.15862     -4.5 1.328e+04 2.116e-09
 69.17008     -4.7 1.307e+04 1.927e-09
 69.18116     -5.0 1.283e+04 1.800e-09
 69.20197     -5.2 1.251e+04 1.583e-09
 69.21305     -5.1 1.256e+04 1.672e-09
 69.22509     -5.5 1.241e+04 1.475e-09
 69.24493     -6.0 1.223e+04 1.233e-09
 69.25601     -5.8 1.250e+04 1.559e-09
 69.26941     -6.4 1.219e+04 1.332e-09
 69.28790     -6.9 1.179e+04 1.103e-09
 69.29898     -6.3 1.205e+04 1.440e-09
 69.31373     -6.5 1.161e+04 1.094e-09
 69.33086     -6.9 1.117e+04 7.763e-10
 69.34194     -6.6 1.166e+04 9.721e-10
 69.35805     -8.0 1.125e+04 6.711e-10
 69.37382     -9.4 1.090e+04 4.986e-10
 69.38490     -9.9 1.125e+04 6.487e-10
 69.40237    -11.0 1.094e+04 5.504e-10
 69.41460    -11.8 1.085e+04 5.256e-10
 69.41793    -12.1 1.079e+04 5.400e-10
 69.42787    -12.3 1.119e+04 7.214e-10
 69.44669    -13.1 1.132e+04 7.295e-10
 69.45975    -14.4 1.171e+04 8.595e-10
 69.47083    -15.7 1.230e+04 1.133e-09
 69.49101    -17.6 1.327e+04 1.588e-09
 69.50272    -19.6 1.461e+04 2.309e-09
 69.51380    -22.2 1.594e+04 3.289e-09
 69.53460    -23.4 1.634e+04 4.021e-09
 69.54568    -24.5 1.585e+04 3.948e-09
 69.55749    -25.3 1.557e+04 3.722e-09
 69.57756    -26.0 1.506e+04 3.463e-09
 69.58864    -27.1 1.373e+04 1.972e-09
 69.60181    -27.5 1.330e+04 1.676e-09
 69.62053    -27.7 1.288e+04 1.418e-09
 69.63161    -29.4 1.145e+04 6.771e-10
 69.64613    -29.3 1.107e+04 6.005e-10
 69.66349    -29.0 1.078e+04 5.579e-10
 69.67457    -29.6 1.024e+04 3.145e-10
 69.69045    -28.7 1.005e+04 3.075e-10
 69.70646    -28.0 9.943e+03 3.034e-10
 69.71754    -28.3 9.843e+03 2.791e-10
 69.73844    -26.7 9.862e+03 3.238e-10
 69.76070    -26.5 9.366e+03 1.706e-10
 69.77617    -24.5 9.050e+03 1.870e-10
 69.79833    -24.7 8.973e+03 1.250e-10
 69.82446    -22.6 8.816e+03 1.541e-10
 69.84662    -22.4 8.755e+03 1.162e-10
 69.87900    -20.2 8.695e+03 1.587e-10
 69.91039    -17.8 8.784e+03 1.983e-10
 69.93255    -17.5 8.958e+03 2.126e-10
 69.96764    -15.2 9.171e+03 2.738e-10
 69.99632    -13.0 9.435e+03 3.272e-10
 70.01848    -13.0 9.880e+03 4.072e-10
 70.03919    -11.6 9.900e+03 4.407e-10
 70.05017    -12.0 1.022e+04 5.223e-10
 70.06716    -11.4 1.043e+04 5.770e-10
 70.08205    -10.8 1.074e+04 6.588e-10
 70.09313    -11.7 1.140e+04 8.307e-10
 70.11148    -11.5 1.159e+04 9.352e-10
 70.12502    -11.0 1.166e+04 1.026e-09
 70.13610    -11.4 1.186e+04 1.137e-09
 70.14843    -10.7 1.171e+04 1.105e-09
 70.15951    -10.8 1.159e+04 1.014e-09
 70.16808     -9.6 1.158e+04 1.026e-09
 70.17916    -10.4 1.163e+04 1.015e-09
 70.19987     -9.7 1.154e+04 9.385e-10
 70.21095    -10.3 1.152e+04 8.476e-10
 70.22228     -9.9 1.137e+04 7.225e-10
 70.24283     -9.4 1.134e+04 6.306e-10
 70.25391    -10.9 1.120e+04 5.518e-10
 70.26659    -10.9 1.108e+04 5.127e-10
 70.28579    -10.8 1.109e+04 5.080e-10
 70.29687    -12.3 1.106e+04 5.236e-10
 70.31091    -12.0 1.091e+04 5.373e-10
 70.32876    -11.4 1.097e+04 5.821e-10
 70.33984    -11.9 1.096e+04 6.680e-10
 70.35523    -11.1 1.090e+04 6.799e-10
 70.37172    -10.1 1.078e+04 6.617e-10
 70.38280    -10.3 1.092e+04 6.770e-10
 70.39955     -9.4 1.091e+04 6.340e-10
 70.41469     -8.6 1.093e+04 5.880e-10
 70.42577    -10.4 1.135e+04 6.682e-10
 70.45505    -10.4 1.140e+04 6.711e-10
 70.48973     -9.6 1.125e+04 7.594e-10
 70.51134    -10.2 1.169e+04 1.174e-09
 70.52107     -9.2 1.139e+04 1.045e-09
 70.54378     -7.1 1.146e+04 1.134e-09
 70.57566     -4.8 1.121e+04 1.053e-09
 70.59782     -4.9 1.118e+04 8.747e-10
 70.63242     -2.9 1.088e+04 5.915e-10
 70.66159     -1.6 1.053e+04 3.966e-10
 70.68375     -3.1 9.990e+03 3.371e-10
 70.72106     -1.6 9.722e+03 3.127e-10
 70.74751      0.1 9.641e+03 3.505e-10
 70.76967     -1.1 1.039e+04 4.703e-10
 70.80970      0.6 1.080e+04 6.846e-10
 70.83344      2.6 1.117e+04 9.536e-10
 70.85560      2.4 1.211e+04 1.591e-09
 70.87631      4.1 1.190e+04 1.473e-09
 70.88248      2.6 1.250e+04 1.817e-09
 70.89333      2.7 1.288e+04 1.848e-09
 70.90810      2.8 1.343e+04 2.087e-09
 70.91918      1.8 1.378e+04 2.171e-09
 70.93138      2.4 1.355e+04 2.541e-09
 70.95106      2.7 1.339e+04 2.904e-09
 70.96214      2.3 1.286e+04 2.914e-09
 70.97570      2.7 1.320e+04 3.249e-09
 70.99402      2.9 1.341e+04 3.504e-09
 71.00510      3.4 1.329e+04 3.074e-09
 71.02002      3.7 1.343e+04 3.063e-09
 71.03699      4.5 1.326e+04 2.961e-09
 71.04807      4.9 1.325e+04 2.242e-09
 71.06434      5.5 1.333e+04 2.071e-09
 71.07995      5.5 1.350e+04 1.868e-09
 71.09103      5.0 1.354e+04 1.447e-09
 71.10866      4.5 1.351e+04 1.482e-09
 71.12292      3.8 1.344e+04 1.672e-09
 71.13400      4.3 1.317e+04 1.396e-09
 71.15298      4.5 1.330e+04 1.755e-09
 71.16588      4.6 1.339e+04 2.459e-09
 71.17696      5.5 1.388e+04 2.002e-09
 71.19730      4.6 1.422e+04 2.981e-09
 71.20884      4.4 1.410e+04 4.600e-09
 71.21992      5.6 1.462e+04 3.670e-09
 71.24073      6.2 1.412e+04 5.363e-09
 71.25181      6.5 1.474e+04 4.427e-09
 71.25471      7.5 1.420e+04 5.607e-09
 71.26579      7.3 1.525e+04 9.169e-09
 71.28369      9.7 1.486e+04 8.468e-09
 71.29477      9.2 1.517e+04 7.944e-09
 71.30809     12.0 1.455e+04 6.459e-09
 71.32666     14.2 1.424e+04 4.327e-09
 71.33774     14.2 1.435e+04 4.716e-09
 71.35241     14.6 1.395e+04 2.600e-09
 71.36962     13.4 1.369e+04 1.237e-09
 71.38070     14.3 1.362e+04 1.542e-09
 71.39673     12.8 1.327e+04 8.195e-10
 71.41268     11.2 1.198e+04 4.975e-10
 71.43494     13.4 1.237e+04 7.071e-10
 71.47449     14.4 1.130e+04 5.891e-10
 71.49871     16.7 1.110e+04 5.998e-10
 71.50969     17.7 1.140e+04 6.805e-10
 71.52969     18.3 1.133e+04 7.040e-10
 71.54148     19.2 1.127e+04 7.656e-10
 71.55256     19.9 1.145e+04 8.419e-10
 71.57336     20.9 1.133e+04 8.936e-10
 71.58444     21.7 1.144e+04 9.720e-10
 71.59617     22.7 1.141e+04 1.059e-09
 71.61608     23.7 1.138e+04 1.105e-09
 71.62516     23.3 1.094e+04 9.160e-10
 71.62741     24.2 1.112e+04 1.042e-09
 71.64049     25.3 1.097e+04 9.444e-10
 71.65929     26.3 1.091e+04 8.273e-10
 71.67037     27.0 1.108e+04 8.959e-10
 71.68481     27.7 1.103e+04 7.457e-10
 71.70225     28.0 1.109e+04 6.115e-10
 71.71333     28.4 1.124e+04 6.445e-10
 71.72913     28.2 1.117e+04 5.264e-10
 71.74522     28.0 1.074e+04 4.454e-10
 71.75630     28.0 1.082e+04 4.552e-10
 71.77344     27.8 1.029e+04 3.985e-10
 71.78818     27.9 9.864e+03 3.661e-10
 71.79926     27.9 9.824e+03 3.424e-10
 71.81776     28.1 9.774e+03 3.185e-10
 71.83115     28.3 9.950e+03 2.919e-10
 71.84223     27.8 9.872e+03 2.553e-10
 71.86208     27.5 1.003e+04 2.609e-10
 71.87411     27.3 1.015e+04 2.791e-10
 71.88519     26.6 9.990e+03 2.752e-10
 71.90599     26.6 9.985e+03 3.082e-10
 71.91707     26.1 9.897e+03 3.332e-10
 71.92856     26.7 9.841e+03 3.820e-10
 71.94896     27.6 9.753e+03 4.189e-10
 71.96004     27.9 9.816e+03 4.701e-10
 71.97288     28.7 9.933e+03 4.688e-10
 71.98854     29.8 9.893e+03 4.404e-10
 71.99659     29.3 9.554e+03 3.759e-10
 72.01428     29.5 9.588e+03 3.641e-10
 72.05063     30.8 9.268e+03 2.776e-10
 72.07805     32.0 9.085e+03 2.085e-10
 72.10021     31.9 9.138e+03 2.186e-10
 72.13927     32.9 8.972e+03 1.885e-10
 72.16397     34.2 8.898e+03 1.884e-10
 72.18613     34.6 9.012e+03 2.420e-10
 72.22774     36.1 9.063e+03 2.708e-10
 72.27206     38.5 9.429e+03 3.613e-10
 72.31367     40.0 9.442e+03 3.472e-10
 72.33583     40.4 9.551e+03 3.657e-10
 72.36087     41.7 9.422e+03 3.206e-10
 72.39960     42.7 9.308e+03 2.923e-10
 72.42176     43.2 9.276e+03 2.953e-10
 72.44951     44.4 9.165e+03 2.781e-10
 72.48553     45.5 9.196e+03 2.895e-10
 72.50769     46.7 8.852e+03 2.283e-10
 72.53815     47.7 8.988e+03 2.513e-10
 72.57146     48.6 9.227e+03 2.951e-10
 72.59362     49.6 9.045e+03 2.350e-10
 72.62678     50.4 9.273e+03 2.897e-10
 72.65738     51.1 9.480e+03 3.340e-10
 72.67954     52.5 9.372e+03 3.048e-10
 72.71148     53.3 9.563e+03 3.405e-10
 72.73364     53.4 9.980e+03 5.014e-10
 72.74331     54.1 1.012e+04 5.048e-10
 72.76547     55.6 9.964e+03 4.405e-10
 72.80406     56.3 9.983e+03 4.383e-10
 72.82924     57.2 9.990e+03 4.334e-10
 72.85140     58.4 9.833e+03 3.632e-10
 72.89270     59.4 9.879e+03 3.802e-10
 72.91517     60.8 9.923e+03 3.975e-10
 72.93733     61.9 9.782e+03 3.355e-10
 72.97894     63.5 9.831e+03 3.518e-10
 73.00110     64.5 9.677e+03 2.694e-10
 73.02566     66.1 9.738e+03 2.715e-10
 73.06487     67.7 9.808e+03 2.784e-10
 73.08703     68.3 9.643e+03 1.957e-10
 73.11429     69.7 9.735e+03 2.118e-10
 73.15079     71.1 9.989e+03 2.777e-10
 73.17295     71.4 9.617e+03 2.063e-10
 73.20293     72.7 9.926e+03 3.045e-10
 73.23672     74.0 1.036e+04 4.712e-10
 73.25888     74.3 1.026e+04 4.715e-10
 73.29157     75.8 1.088e+04 7.251e-10
 73.32255     76.5 1.113e+04 8.561e-10
 73.34471     77.1 1.145e+04 1.013e-09
 73.36552     77.6 1.156e+04 1.039e-09
 73.37650     77.6 1.162e+04 1.115e-09
 73.39109     78.0 1.166e+04 1.129e-09
 73.40838     78.5 1.166e+04 1.118e-09
 73.41946     78.4 1.182e+04 1.255e-09
 73.43541     78.9 1.177e+04 1.228e-09
 73.45135     79.5 1.174e+04 1.211e-09
 73.46105     79.5 1.189e+04 1.321e-09
 73.46727     79.7 1.203e+04 1.468e-09
 73.47973     80.3 1.194e+04 1.428e-09
 73.49431     81.0 1.194e+04 1.398e-09
 73.50539     81.2 1.190e+04 1.359e-09
 73.52405     81.9 1.189e+04 1.312e-09
 73.53728     82.6 1.192e+04 1.320e-09
 73.54835     82.6 1.166e+04 1.060e-09
 73.56837     83.4 1.171e+04 1.067e-09
 73.58024     84.2 1.189e+04 1.117e-09
 73.59132     84.0 1.142e+04 8.314e-10
 73.61212     84.7 1.165e+04 8.775e-10
 73.62320     84.4 1.104e+04 6.746e-10
 73.63485     85.3 1.129e+04 7.131e-10
 73.65509     86.1 1.178e+04 7.953e-10
 73.66617     85.9 1.103e+04 6.348e-10
 73.67917     86.5 1.138e+04 6.861e-10
 73.69805     87.2 1.182e+04 7.515e-10
 73.70913     87.1 1.106e+04 6.320e-10
 73.72349     87.7 1.123e+04 6.557e-10
 73.74102     88.2 1.137e+04 6.674e-10
 73.75210     88.2 1.087e+04 6.011e-10
 73.76781     88.7 1.091e+04 6.038e-10
 73.78398     89.3 1.095e+04 6.065e-10
 73.79506     89.3 1.085e+04 5.990e-10
 73.81213     89.7 1.089e+04 6.069e-10
 73.82694     89.8 1.104e+04 6.359e-10
 73.83238     89.7 1.103e+04 6.465e-10
 73.83972     89.2 1.106e+04 7.104e-10
 73.85644     89.2 1.122e+04 7.555e-10
 73.86991     88.9 1.151e+04 8.604e-10
 73.88099     88.6 1.148e+04 8.647e-10
 73.90076     88.4 1.181e+04 1.018e-09
 73.91287     88.0 1.220e+04 1.218e-09
 73.92395     87.7 1.227e+04 1.257e-09
 73.94476     87.4 1.251e+04 1.425e-09
 73.95584     87.3 1.257e+04 1.452e-09
 73.96724     87.1 1.263e+04 1.507e-09
 73.98772     87.0 1.257e+04 1.523e-09
 73.99880     86.4 1.263e+04 1.575e-09
 74.01156     86.3 1.258e+04 1.565e-09
 74.04490     85.8 1.248e+04 1.506e-09
 74.07384     86.0 1.221e+04 1.363e-09
 74.09600     84.9 1.238e+04 1.453e-09
 74.13363     85.7 1.205e+04 1.283e-09
 74.15977     86.7 1.150e+04 9.873e-10
 74.18193     86.4 1.177e+04 1.195e-09
 74.20129     87.7 1.100e+04 7.947e-10
 74.22345     88.9 1.144e+04 8.800e-10
 74.24570     90.0 1.066e+04 5.595e-10
 74.26786     90.2 1.072e+04 6.057e-10
 74.30947     91.5 1.015e+04 4.067e-10
 74.33163     91.9 1.046e+04 5.188e-10
 74.35523     93.3 1.008e+04 3.910e-10
 74.39540     94.7 9.769e+03 3.047e-10
 74.41756     95.6 1.013e+04 4.151e-10
 74.44387     97.2 9.809e+03 3.082e-10
 74.48133     98.7 9.533e+03 2.461e-10
 74.50349     99.7 9.706e+03 2.682e-10
 74.53251    101.3 9.413e+03 2.241e-10
 74.56725    103.2 9.390e+03 2.229e-10
 74.58941    104.0 9.478e+03 2.291e-10
 74.62114    106.1 9.472e+03 2.334e-10
 74.65318    108.1 9.495e+03 2.540e-10
 74.67534    108.7 9.798e+03 2.907e-10
 74.70978    110.5 9.966e+03 3.479e-10
 74.73911    112.3 1.016e+04 4.346e-10
 74.76127    112.3 1.095e+04 6.717e-10
 74.79842    114.5 1.125e+04 8.170e-10
 74.82494    115.6 1.140e+04 9.002e-10
 74.83592    115.5 1.182e+04 1.144e-09
 74.85362    116.2 1.179e+04 1.112e-09
 74.88696    117.5 1.169e+04 1.049e-09
 74.91097    119.2 1.149e+04 9.283e-10
 74.92579    119.0 1.127e+04 8.308e-10
 74.94620    119.2 1.125e+04 8.875e-10
 74.97473    121.0 1.101e+04 7.746e-10
 74.99689    121.2 1.048e+04 5.318e-10
 75.02002    123.1 1.032e+04 4.771e-10
 75.06066    125.2 1.020e+04 4.363e-10
 75.08282    125.0 9.831e+03 2.841e-10
 75.10866    127.1 9.823e+03 2.859e-10
 75.14659    129.0 9.780e+03 2.886e-10
 75.16875    128.7 9.596e+03 2.592e-10
 75.19729    130.6 9.666e+03 2.940e-10
 75.23252    132.4 9.746e+03 3.324e-10
 75.25468    132.0 9.763e+03 3.543e-10
 75.28593    133.6 9.839e+03 3.994e-10
 75.31845    134.9 9.854e+03 4.298e-10
 75.34061    134.7 9.765e+03 4.090e-10
 75.37457    136.4 9.742e+03 3.949e-10
 75.40438    137.9 9.681e+03 3.538e-10
 75.42654    136.5 9.281e+03 2.641e-10
 75.46321    137.6 9.253e+03 2.598e-10
 75.49030    138.7 9.289e+03 2.748e-10
 75.51246    137.5 9.156e+03 2.805e-10
 75.55185    138.9 9.371e+03 3.367e-10
 75.57623    139.8 9.452e+03 3.900e-10
 75.59839    139.8 9.666e+03 4.217e-10
 75.61910    140.6 9.650e+03 4.356e-10
 75.63008    140.4 9.700e+03 4.253e-10
 75.65089    141.0 9.726e+03 4.214e-10
 75.66206    140.3 9.639e+03 3.725e-10
 75.66895    141.2 9.670e+03 3.211e-10
 75.67993    140.4 1.013e+04 4.593e-10
 75.69385    140.6 1.009e+04 4.101e-10
 75.70493    139.8 9.799e+03 3.917e-10
 75.71785    139.9 9.763e+03 3.908e-10
 75.73681    139.6 9.773e+03 3.991e-10
 75.74789    138.9 9.566e+03 4.017e-10
 75.76217    138.2 9.818e+03 4.840e-10
 75.77978    137.1 1.041e+04 6.760e-10
 75.79086    136.1 1.081e+04 8.581e-10
 75.80649    134.8 1.193e+04 1.433e-09
 75.82274    133.4 1.311e+04 2.388e-09
 75.83382    133.0 1.358e+04 3.061e-09
 75.85081    131.9 1.456e+04 4.372e-09
 75.86571    130.4 1.547e+04 5.418e-09
 75.87679    130.1 1.537e+04 4.833e-09
 75.89512    127.3 1.548e+04 4.634e-09
 75.90867    123.6 1.547e+04 3.993e-09
 75.91975    122.5 1.464e+04 2.945e-09
 75.93944    118.2 1.386e+04 2.377e-09
 75.95163    114.6 1.303e+04 2.036e-09
 75.96271    114.1 1.251e+04 1.779e-09
 75.98352    112.7 1.211e+04 1.604e-09
 76.00578    112.8 1.179e+04 1.369e-09
 76.03936    111.6 1.110e+04 9.454e-10
 76.06964    111.2 1.012e+04 5.085e-10
 76.09180    112.1 1.003e+04 4.722e-10
 76.12800    111.7 8.956e+03 2.415e-10
 76.15557    111.7 8.641e+03 1.975e-10
 76.17773    112.4 8.862e+03 2.312e-10
 76.21663    113.0 8.856e+03 2.348e-10
 76.24150    114.2 8.922e+03 2.623e-10
 76.26366    114.7 9.244e+03 3.332e-10
 76.30527    116.0 9.448e+03 3.910e-10
 76.34959    117.5 9.746e+03 4.270e-10
 76.39119    118.7 9.792e+03 4.216e-10
 76.41114    118.4 9.813e+03 3.819e-10
 76.41386    117.1 9.747e+03 3.495e-10
 76.43823    118.1 9.698e+03 3.211e-10
 76.47712    119.2 9.676e+03 2.946e-10
 76.49928    118.8 9.859e+03 3.459e-10
 76.52687    120.2 9.939e+03 3.399e-10
 76.56305    121.5 9.993e+03 3.383e-10
 76.58511    121.5 1.051e+04 5.048e-10
 76.60423    122.3 1.048e+04 4.796e-10
 76.61690    123.0 1.047e+04 4.574e-10
 76.62798    122.7 1.072e+04 5.589e-10
 76.64855    123.3 1.072e+04 5.388e-10
 76.65986    123.9 1.071e+04 5.154e-10
 76.67094    123.4 1.124e+04 7.883e-10
 76.69175    124.1 1.118e+04 7.438e-10
 76.70283    124.1 1.149e+04 1.001e-09
 76.71503    124.7 1.147e+04 9.741e-10
 76.73471    125.3 1.147e+04 9.430e-10
 76.74579    125.0 1.195e+04 1.270e-09
 76.75935    125.7 1.194e+04 1.232e-09
 76.77504    126.3 1.189e+04 1.163e-09
 76.78229    125.7 1.190e+04 1.178e-09
 76.78876    125.5 1.220e+04 1.489e-09
 76.80367    126.2 1.204e+04 1.347e-09
 76.82064    126.9 1.187e+04 1.196e-09
 76.83172    126.7 1.203e+04 1.410e-09
 76.84799    127.5 1.190e+04 1.258e-09
 76.86360    128.1 1.181e+04 1.136e-09
 76.87468    127.7 1.196e+04 1.305e-09
 76.89231    128.2 1.189e+04 1.224e-09
 76.90657    128.8 1.189e+04 1.223e-09
 76.91765    128.5 1.202e+04 1.400e-09
 76.93662    129.2 1.208e+04 1.464e-09
 76.94953    129.7 1.220e+04 1.583e-09
 76.96061    129.6 1.233e+04 1.744e-09
 76.98094    130.2 1.245e+04 1.897e-09
 76.99250    131.0 1.257e+04 2.040e-09
 77.00358    130.9 1.256e+04 2.021e-09
 77.02438    131.7 1.265e+04 2.162e-09
 77.03546    131.6 1.251e+04 2.030e-09
 77.04742    132.5 1.248e+04 1.981e-09
 77.06735    133.3 1.239e+04 1.849e-09
 77.07843    133.2 1.204e+04 1.506e-09
 77.09174    133.9 1.192e+04 1.361e-09
 77.11031    134.3 1.178e+04 1.218e-09
 77.12139    133.7 1.159e+04 1.009e-09
 77.13606    134.0 1.143e+04 9.204e-10
 77.14749    134.3 1.129e+04 8.642e-10
 77.15362    133.1 1.061e+04 6.195e-10
 77.16435    133.3 1.029e+04 5.393e-10
 77.18038    133.7 1.028e+04 5.460e-10
 77.19624    134.2 1.030e+04 5.570e-10
 77.20732    134.3 1.034e+04 5.586e-10
 77.22470    134.7 1.037e+04 5.749e-10
 77.23920    135.1 1.041e+04 5.926e-10
 77.25028    135.6 1.019e+04 5.330e-10
 77.26902    136.0 1.024e+04 5.523e-10
 77.28217    136.4 1.029e+04 5.760e-10
 77.29325    136.4 1.035e+04 5.741e-10
 77.31415    137.0 1.033e+04 5.737e-10
 77.33640    137.9 1.024e+04 5.445e-10
 77.36893    138.8 1.028e+04 5.490e-10
 77.40017    139.9 1.028e+04 5.466e-10
 77.42233    140.5 1.028e+04 5.500e-10
 77.45757    141.7 1.029e+04 5.480e-10
 77.48610    142.9 1.031e+04 5.387e-10
 77.50826    143.4 1.049e+04 6.270e-10
 77.54621    144.6 1.051e+04 6.241e-10
 77.57203    146.0 1.052e+04 6.132e-10
 77.59419    146.5 1.083e+04 7.505e-10
 77.63485    148.1 1.086e+04 7.384e-10
 77.65786    148.8 1.087e+04 7.452e-10
 77.66884    148.6 1.106e+04 8.321e-10
 77.68965    149.3 1.101e+04 8.233e-10
 77.70073    149.1 1.104e+04 8.276e-10
 77.71221    150.0 1.097e+04 8.176e-10
 77.73261    150.9 1.098e+04 8.193e-10
 77.74369    150.6 1.093e+04 7.881e-10
 77.75653    151.1 1.097e+04 8.046e-10
 77.77558    151.5 1.100e+04 8.729e-10
 77.78666    150.9 1.096e+04 8.386e-10
 77.80085    151.0 1.140e+04 1.041e-09
 77.81854    150.9 1.218e+04 1.400e-09
 77.82962    149.9 1.263e+04 1.407e-09
 77.84517    149.7 1.356e+04 2.000e-09
 77.86150    149.6 1.436e+04 2.789e-09
 77.87258    148.3 1.473e+04 3.110e-09
 77.88132    148.4 1.527e+04 4.256e-09
 77.89240    146.5 1.563e+04 6.204e-09
 77.90447    147.1 1.578e+04 6.904e-09
 77.91555    147.0 1.585e+04 8.523e-09
 77.93380    147.6 1.621e+04 9.573e-09
 77.94743    148.2 1.646e+04 9.585e-09
 77.95851    148.5 1.683e+04 1.231e-08
 77.97812    149.1 1.728e+04 1.425e-08
 77.99040    149.7 1.767e+04 1.488e-08
 78.00148    150.0 1.842e+04 1.846e-08
 78.02228    150.4 1.887e+04 2.050e-08
 78.03336    150.1 1.888e+04 1.944e-08
 78.04460    150.5 1.913e+04 2.002e-08
 78.06524    151.0 1.918e+04 1.991e-08
 78.07632    150.3 1.923e+04 1.697e-08
 78.08892    150.5 1.933e+04 1.717e-08
 78.10821    150.7 1.933e+04 1.718e-08
 78.11929    149.2 1.867e+04 1.301e-08
 78.13324    149.3 1.861e+04 1.325e-08
 78.15117    149.3 1.855e+04 1.345e-08
 78.16225    147.9 1.714e+04 8.915e-09
 78.17756    148.2 1.719e+04 9.064e-09
 78.19414    148.6 1.733e+04 9.446e-09
 78.20522    147.7 1.579e+04 5.620e-09
 78.22188    148.3 1.610e+04 6.077e-09
 78.23705    148.6 1.614e+04 6.125e-09
 78.24678    147.4 1.490e+04 3.754e-09
 78.25377    145.8 1.431e+04 2.846e-09
 78.26620    144.9 1.532e+04 3.600e-09
 78.28002    144.2 1.570e+04 4.019e-09
 78.29110    140.2 1.424e+04 2.649e-09
 78.31052    138.8 1.477e+04 3.647e-09
 78.32303    137.8 1.457e+04 4.233e-09
 78.33411    136.3 1.415e+04 4.478e-09
 78.35484    136.4 1.430e+04 4.633e-09
 78.37700    136.5 1.398e+04 4.304e-09
 78.39788    136.8 1.353e+04 3.212e-09
 78.40896    136.5 1.315e+04 2.670e-09
 78.42132    136.0 1.228e+04 1.518e-09
 78.44084    134.7 1.124e+04 7.682e-10
 78.45192    133.5 1.063e+04 6.214e-10
 78.46563    131.4 9.665e+03 3.750e-10
 78.48381    130.0 9.138e+03 2.849e-10
 78.49489    130.4 9.360e+03 3.324e-10
 78.52113    131.0 9.414e+03 3.479e-10
 78.55885    131.5 9.326e+03 3.445e-10
 78.58101    132.8 9.518e+03 3.924e-10
 78.60426    133.4 9.539e+03 4.256e-10
 78.62642    133.4 9.494e+03 4.123e-10
 78.64478    133.8 9.565e+03 4.605e-10
 78.66684    135.4 9.816e+03 5.813e-10
 78.68723    136.1 9.994e+03 6.770e-10
 78.69863    136.6 1.017e+04 7.504e-10
 78.70971    137.4 1.033e+04 7.000e-10
 78.73051    137.7 1.038e+04 7.001e-10
 78.74159    138.1 1.018e+04 5.822e-10
 78.75371    138.1 1.019e+04 5.677e-10
 78.77347    138.0 1.017e+04 5.189e-10
 78.78455    137.9 9.897e+03 4.291e-10
 78.79803    137.5 9.879e+03 4.075e-10
 78.81654    137.5 9.924e+03 3.897e-10
 78.83879    137.8 9.678e+03 2.953e-10
 78.87578    137.9 9.494e+03 2.543e-10
 78.90256    138.0 9.310e+03 2.159e-10
 78.92472    138.9 9.294e+03 2.380e-10
 78.96442    139.2 9.124e+03 2.142e-10
 78.98849    139.7 9.049e+03 2.007e-10
 79.01065    141.0 9.276e+03 2.159e-10
 79.05226    141.4 9.282e+03 2.156e-10
 79.07442    142.4 9.426e+03 2.095e-10
 79.09738    142.9 9.410e+03 2.098e-10
 79.13819    143.7 9.388e+03 2.132e-10
 79.16035    144.3 9.324e+03 1.847e-10
 79.18602    145.3 9.274e+03 1.853e-10
 79.22411    146.3 9.246e+03 1.895e-10
 79.24627    147.0 9.144e+03 1.502e-10
 79.27465    148.1 9.132e+03 1.538e-10
 79.31004    149.3 9.133e+03 1.651e-10
 79.33220    150.0 8.947e+03 1.346e-10
 79.34917    151.1 8.956e+03 1.393e-10
 79.37133    150.9 8.874e+03 1.237e-10
 79.39597    151.9 8.909e+03 1.249e-10
 79.41813    152.6 8.787e+03 1.003e-10
 79.45193    153.4 8.823e+03 1.006e-10
 79.48190    154.1 8.860e+03 1.014e-10
 79.50406    154.8 8.772e+03 9.059e-11
 79.54057    155.5 8.843e+03 9.715e-11
 79.56783    155.9 8.964e+03 1.149e-10
 79.58999    156.4 9.031e+03 1.282e-10
 79.62921    156.3 9.293e+03 1.861e-10
 79.65376    156.3 9.746e+03 3.047e-10
 79.67592    157.1 9.847e+03 3.818e-10
 79.71752    156.5 1.063e+04 6.437e-10
 79.73968    157.7 1.080e+04 6.645e-10
 79.76216    156.8 1.160e+04 9.596e-10
 79.79531    155.2 1.228e+04 1.226e-09
 79.81434    153.6 1.278e+04 1.453e-09
 79.82542    151.5 1.415e+04 2.410e-09
 79.83953    150.1 1.409e+04 2.386e-09
 79.85730    149.3 1.375e+04 2.190e-09
 79.86838    148.3 1.443e+04 3.272e-09
 79.88385    148.2 1.363e+04 2.354e-09
 79.90027    148.0 1.274e+04 1.537e-09
 79.91135    147.5 1.329e+04 1.763e-09
 79.92817    145.9 1.263e+04 1.127e-09
 79.94323    143.8 1.225e+04 8.458e-10
 79.95431    141.4 1.317e+04 1.315e-09
 79.97249    140.3 1.274e+04 1.215e-09
 79.98619    139.9 1.244e+04 1.141e-09
 79.99727    139.0 1.312e+04 1.987e-09
 80.01680    138.8 1.276e+04 1.706e-09
 80.02916    138.6 1.240e+04 1.428e-09
 80.04024    138.4 1.310e+04 1.761e-09
 80.06104    137.7 1.259e+04 1.388e-09
 80.08272    136.6 1.171e+04 1.184e-09
 80.09388    137.4 1.197e+04 1.243e-09
 80.10401    136.8 1.161e+04 1.088e-09
 80.11509    136.6 1.120e+04 8.776e-10
 80.12760    136.5 1.111e+04 8.028e-10
 80.14697    136.3 1.110e+04 7.496e-10
 80.15805    135.4 1.112e+04 4.088e-10
 80.17192    135.0 1.104e+04 3.751e-10
 80.20526    134.4 1.075e+04 3.252e-10
 80.23309    134.3 1.051e+04 3.053e-10
 80.25525    134.4 9.556e+03 1.860e-10
 80.29399    134.7 9.550e+03 1.890e-10
 80.31902    135.2 9.542e+03 1.892e-10
 80.34118    136.3 9.221e+03 1.671e-10
 80.38263    137.2 9.226e+03 1.664e-10
 80.42695    139.6 9.074e+03 1.615e-10
 80.46872    140.8 9.017e+03 1.624e-10
 80.49088    142.2 8.946e+03 1.570e-10
 80.51559    143.5 8.933e+03 1.588e-10
 80.55465    144.8 8.914e+03 1.641e-10
 80.57681    146.2 8.823e+03 1.392e-10
 80.60423    147.5 8.801e+03 1.342e-10
 80.64057    148.7 8.780e+03 1.298e-10
 80.66273    150.0 8.742e+03 8.903e-11
 80.69287    151.0 8.676e+03 8.367e-11
 80.72650    151.9 8.601e+03 8.351e-11
 80.74866    152.8 8.480e+03 6.644e-11
 80.78150    153.8 8.460e+03 6.760e-11
 80.81243    154.9 8.414e+03 7.296e-11
 80.82559    156.2 8.303e+03 7.092e-11
 80.83898    157.1 8.342e+03 7.128e-11
 80.87014    158.2 8.365e+03 8.291e-11
 80.89836    159.3 8.402e+03 9.878e-11
 80.92052    160.7 8.399e+03 1.010e-10
 80.95878    161.9 8.444e+03 1.187e-10
 80.98429    163.2 8.482e+03 1.334e-10
 81.00645    164.5 8.516e+03 1.388e-10
 81.04742    165.7 8.560e+03 1.526e-10
 81.07022    166.9 8.613e+03 1.651e-10
 81.09238    168.2 8.679e+03 1.748e-10
 81.13398    169.2 8.815e+03 1.998e-10
 81.15614    170.4 8.925e+03 2.123e-10
 81.18038    171.3 9.155e+03 2.540e-10
 81.21991    172.1 9.395e+03 3.075e-10
 81.24207    173.2 9.453e+03 3.078e-10
 81.26902    173.9 9.686e+03 3.699e-10
 81.30584    174.2 9.844e+03 4.259e-10
 81.32800    175.4 9.863e+03 4.098e-10
 81.34648    175.5 1.001e+04 4.952e-10
 81.35969    175.9 1.016e+04 5.781e-10
 81.37077    176.3 1.021e+04 5.724e-10
 81.39070    176.4 1.035e+04 6.325e-10
 81.40265    176.5 1.047e+04 6.736e-10
 81.41383    176.9 1.034e+04 5.943e-10
 81.44629    177.1 1.053e+04 6.714e-10
 81.47770    176.7 1.062e+04 6.864e-10
 81.49986    178.1 1.056e+04 6.845e-10
 81.53493    177.4 1.056e+04 6.733e-10
 81.56173    176.3 1.045e+04 6.081e-10
 81.56827    176.8 1.016e+04 5.000e-10
 81.58578    178.5 1.045e+04 6.246e-10
 81.62357    177.4 1.021e+04 5.209e-10
 81.64955    176.1 9.877e+03 4.056e-10
 81.67171    178.2 1.053e+04 6.112e-10
 81.71221    176.8 1.013e+04 4.767e-10
 81.73548    175.3 9.696e+03 3.628e-10
 81.75764    176.9 1.029e+04 5.130e-10
 81.79925    175.1 1.004e+04 4.251e-10
 81.82141    176.0 1.063e+04 5.735e-10
 81.84516    174.0 1.076e+04 5.827e-10
 81.87831    172.0 1.108e+04 6.555e-10
 81.89606    170.4 1.136e+04 7.367e-10
 81.90714    169.6 1.176e+04 8.975e-10
 81.92253    168.0 1.198e+04 1.005e-09
 81.93399    166.3 1.214e+04 1.107e-09
 81.93941    167.8 1.197e+04 1.018e-09
 81.95011    166.4 1.272e+04 1.369e-09
 81.96685    164.7 1.270e+04 1.443e-09
 81.98199    163.1 1.267e+04 1.451e-09
 81.99307    161.5 1.323e+04 1.894e-09
 82.01117    160.0 1.295e+04 1.781e-09
 82.02496    158.5 1.263e+04 1.661e-09
 82.03604    157.0 1.283e+04 1.877e-09
 82.05548    155.8 1.259e+04 1.835e-09
 82.06792    155.0 1.258e+04 1.840e-09
 82.07900    154.1 1.288e+04 2.087e-09
 82.09980    153.3 1.301e+04 2.202e-09
 82.12196    151.3 1.394e+04 2.951e-09
 82.14277    150.0 1.452e+04 3.576e-09
 82.15385    148.1 1.544e+04 4.337e-09
 82.16628    146.3 1.619e+04 5.368e-09
 82.18573    144.4 1.665e+04 6.145e-09
 82.19681    141.0 1.800e+04 8.222e-09
 82.21060    139.2 1.793e+04 8.163e-09
 82.22870    137.3 1.791e+04 7.970e-09
 82.23978    133.3 1.902e+04 1.073e-08
 82.25492    130.6 1.908e+04 1.073e-08
 82.27166    127.2 1.922e+04 1.112e-08
 82.28274    122.9 1.958e+04 1.527e-08
 82.29537    119.1 1.989e+04 1.706e-08
 82.30645    116.9 1.991e+04 1.752e-08
 82.31462    113.5 1.984e+04 1.751e-08
 82.32570    110.0 2.017e+04 1.761e-08
 82.34356    108.4 1.923e+04 1.235e-08
 82.35759    106.6 1.789e+04 7.095e-09
 82.36867    101.9 1.583e+04 3.356e-09
 82.38788     97.2 1.283e+04 1.462e-09
 82.40055     92.4 1.002e+04 7.369e-10
 82.41163     88.7 8.953e+03 4.719e-10
 82.43220     88.2 8.960e+03 4.067e-10
 82.46442     88.8 8.790e+03 3.550e-10
 82.48668     87.5 8.626e+03 3.146e-10
 82.50995     88.5 8.477e+03 2.818e-10
 82.55044     89.2 8.369e+03 2.654e-10
 82.57260     87.3 8.527e+03 2.912e-10
 82.59859     88.1 8.678e+03 3.317e-10
 82.63637     89.0 9.121e+03 4.340e-10
 82.65853     87.5 9.888e+03 6.565e-10
 82.68723     88.5 1.042e+04 8.545e-10
 82.72230     89.2 1.095e+04 1.082e-09
 82.74446     87.9 1.113e+04 1.181e-09
 82.76469     88.2 1.112e+04 1.187e-09
 82.77615     88.5 1.115e+04 1.205e-09
 82.78723     88.2 1.108e+04 1.179e-09
 82.80803     88.4 1.106e+04 1.182e-09
 82.81911     87.3 1.092e+04 1.048e-09
 82.83107     86.9 1.110e+04 1.103e-09
 82.85100     86.1 1.158e+04 1.205e-09
 82.86208     82.9 1.234e+04 1.326e-09
 82.87539     80.9 1.308e+04 1.764e-09
 82.89396     79.0 1.375e+04 2.517e-09
 82.90504     77.2 1.364e+04 3.044e-09
 82.91971     77.0 1.430e+04 4.147e-09
 82.93693     77.0 1.499e+04 5.505e-09
 82.94801     76.8 1.468e+04 4.285e-09
 82.96403     76.3 1.474e+04 4.136e-09
 82.97989     75.1 1.481e+04 3.595e-09
 82.99097     72.8 1.374e+04 2.081e-09
 83.00835     70.0 1.330e+04 1.725e-09
 83.02285     66.8 1.272e+04 1.631e-09
 83.03262     65.3 1.233e+04 1.439e-09
 83.04027     66.0 1.238e+04 1.501e-09
 83.05266     63.2 1.284e+04 1.769e-09
 83.06582     60.2 1.371e+04 2.302e-09
 83.07690     57.6 1.495e+04 3.276e-09
 83.09698     55.3 1.503e+04 3.681e-09
 83.10878     53.5 1.485e+04 3.559e-09
 83.11986     51.9 1.533e+04 4.411e-09
 83.14067     50.7 1.459e+04 3.335e-09
 83.15175     49.1 1.470e+04 3.356e-09
 83.16346     47.4 1.374e+04 2.301e-09
 83.18363     46.2 1.300e+04 1.718e-09
 83.19471     43.9 1.256e+04 1.460e-09
 83.21561     44.3 1.213e+04 1.163e-09
 83.23787     41.4 1.142e+04 8.999e-10
 83.26338     41.8 1.088e+04 6.631e-10
 83.30164     42.6 1.051e+04 4.991e-10
 83.32380     41.3 1.032e+04 4.549e-10
 83.35201     42.4 1.016e+04 4.067e-10
 83.38757     43.6 9.996e+03 3.702e-10
 83.40973     42.7 9.939e+03 3.668e-10
 83.44065     44.0 9.836e+03 3.424e-10
 83.47349     45.3 9.770e+03 3.311e-10
 83.49565     44.3 9.781e+03 3.305e-10
 83.52929     45.4 9.829e+03 3.493e-10
 83.55942     46.5 9.945e+03 3.838e-10
 83.58158     45.4 9.963e+03 3.844e-10
 83.61793     46.2 1.008e+04 4.198e-10
 83.64535     46.6 1.013e+04 4.350e-10
 83.66751     45.7 9.981e+03 4.025e-10
 83.70657     46.2 9.958e+03 3.998e-10
 83.73128     46.1 9.897e+03 3.876e-10
 83.75344     45.3 9.786e+03 3.655e-10
 83.77430     45.3 9.759e+03 3.621e-10
 83.79630     46.4 9.703e+03 3.233e-10
 83.83937     45.7 9.873e+03 3.671e-10
 83.88098     45.7 9.955e+03 4.051e-10
 83.90314     45.3 1.019e+04 4.696e-10
 83.92816     45.3 1.017e+04 4.619e-10
 83.96690     45.3 1.010e+04 4.346e-10
 83.98906     44.8 1.035e+04 4.993e-10
 84.01680     44.8 1.019e+04 4.326e-10
 84.05283     44.8 9.992e+03 3.721e-10
 84.07499     44.3 1.021e+04 4.472e-10
 84.10544     44.5 9.974e+03 3.862e-10
 84.13876     44.8 9.760e+03 3.414e-10
 84.16092     44.6 9.764e+03 3.418e-10
 84.19408     45.2 9.522e+03 2.921e-10
 84.22469     45.9 9.441e+03 2.735e-10
 84.24685     45.8 9.472e+03 2.644e-10
 84.28272     45.7 9.556e+03 2.733e-10
 84.31062     45.5 1.001e+04 3.274e-10
 84.32160     44.2 1.008e+04 3.201e-10
 84.33792     43.7 1.041e+04 3.996e-10
 84.35339     43.1 1.082e+04 5.486e-10
 84.36447     41.8 1.136e+04 7.949e-10
 84.38224     41.7 1.167e+04 1.037e-09
 84.39635     41.6 1.188e+04 1.244e-09
 84.40743     40.7 1.227e+04 1.529e-09
 84.42656     40.5 1.219e+04 1.480e-09
 84.43931     40.4 1.196e+04 1.356e-09
 84.45039     39.5 1.195e+04 1.273e-09
 84.47088     39.4 1.166e+04 1.022e-09
 84.48228     39.0 1.142e+04 8.119e-10
 84.49336     37.0 1.141e+04 6.996e-10
 84.50793     35.9 1.141e+04 6.699e-10
 84.51797     36.6 1.124e+04 5.746e-10
 84.52524     34.1 1.126e+04 5.673e-10
 84.53736     32.7 1.127e+04 6.132e-10
 84.55713     31.7 1.132e+04 7.319e-10
 84.56821     30.1 1.143e+04 9.018e-10
 84.58168     30.2 1.160e+04 1.097e-09
 84.60009     30.4 1.176e+04 1.239e-09
 84.61117     29.7 1.195e+04 1.342e-09
 84.62599     29.7 1.196e+04 1.328e-09
 84.64305     29.6 1.190e+04 1.253e-09
 84.65413     28.8 1.193e+04 1.251e-09
 84.67031     28.7 1.174e+04 1.100e-09
 84.68602     28.5 1.149e+04 9.676e-10
 84.69710     27.6 1.153e+04 9.648e-10
 84.71463     27.5 1.153e+04 9.673e-10
 84.72898     27.4 1.157e+04 9.927e-10
 84.74006     26.7 1.181e+04 1.125e-09
 84.75895     26.7 1.204e+04 1.264e-09
 84.77195     26.8 1.234e+04 1.486e-09
 84.78303     26.4 1.253e+04 1.709e-09
 84.80327     26.8 1.275e+04 2.031e-09
 84.81491     26.7 1.332e+04 2.581e-09
 84.82599     25.6 1.408e+04 3.050e-09
 84.84680     24.3 1.615e+04 4.831e-09
 84.85788     22.8 1.739e+04 6.209e-09
 84.86930     21.4 1.913e+04 9.745e-09
 84.88038     24.3 1.606e+04 3.690e-09
 84.88632     22.3 1.823e+04 5.715e-09
 84.89520     20.3 1.975e+04 8.395e-09
 84.90074     19.0 2.014e+04 9.347e-09
 84.90843     17.5 2.030e+04 1.318e-08
 84.91668     16.9 2.008e+04 1.780e-08
 84.92222     16.4 1.985e+04 1.732e-08
 84.93059     16.2 1.959e+04 2.103e-08
 84.93817     16.1 1.952e+04 2.383e-08
 84.94371     15.4 1.945e+04 2.186e-08
 84.95275     15.2 1.968e+04 2.360e-08
 84.95965     14.9 2.000e+04 2.379e-08
 84.96519     14.0 1.994e+04 2.149e-08
 84.97491     13.2 2.017e+04 2.084e-08
 84.98113     12.7 2.017e+04 2.018e-08
 84.98672     12.1 2.011e+04 1.964e-08
 85.00271     10.3 2.039e+04 2.036e-08
 85.01865      8.4 2.023e+04 1.953e-08
 85.02973      6.8 1.974e+04 1.769e-08
 85.04703      6.1 1.889e+04 1.358e-08
 85.06162      5.9 1.776e+04 8.879e-09
 85.07270      5.4 1.710e+04 7.188e-09
 85.09135      5.7 1.585e+04 4.005e-09
 85.10458      5.8 1.448e+04 1.953e-09
 85.11566      5.1 1.402e+04 1.638e-09
 85.13566      4.8 1.285e+04 9.495e-10
 85.14764      4.8 1.151e+04 5.337e-10
 85.16990      4.8 1.152e+04 5.135e-10
 85.21151      6.4 1.017e+04 2.649e-10
 85.23367      6.6 1.061e+04 2.786e-10
 85.24195      8.4 9.743e+03 1.663e-10
 85.26411      9.0 1.075e+04 2.604e-10
 85.29744     11.0 1.012e+04 1.762e-10
 85.31960     11.3 1.058e+04 2.466e-10
 85.34638     13.6 1.037e+04 2.289e-10
 85.38336     16.0 1.031e+04 2.322e-10
 85.40552     16.4 1.076e+04 3.335e-10
 85.43501     18.9 1.071e+04 3.294e-10
 85.46929     21.3 1.064e+04 3.148e-10
 85.49145     21.6 1.103e+04 3.962e-10
 85.52365     24.0 1.085e+04 3.283e-10
 85.55522     26.2 1.056e+04 2.638e-10
 85.57738     26.6 1.081e+04 3.025e-10
 85.61229     28.8 1.047e+04 2.393e-10
 85.64115     30.9 1.021e+04 2.119e-10
 85.66331     31.2 1.061e+04 2.760e-10
 85.70093     33.5 1.050e+04 2.651e-10
 85.72708     35.8 1.051e+04 2.701e-10
 85.74924     35.8 1.135e+04 4.808e-10
 85.78957     38.0 1.148e+04 5.134e-10
 85.81291     38.6 1.196e+04 6.745e-10
 85.82389     38.2 1.273e+04 1.189e-09
 85.84469     39.0 1.294e+04 1.278e-09
 85.86685     39.3 1.367e+04 1.966e-09
 85.88766     39.9 1.370e+04 1.967e-09
 85.89874     39.0 1.413e+04 2.761e-09
 85.91125     39.5 1.403e+04 2.714e-09
 85.93062     39.9 1.389e+04 2.661e-09
 85.94170     39.2 1.413e+04 3.224e-09
 85.95557     39.7 1.392e+04 3.077e-09
 85.97359     40.0 1.384e+04 3.046e-09
 85.98252     39.3 1.403e+04 3.128e-09
 85.98666     39.6 1.456e+04 3.570e-09
 85.99989     39.8 1.442e+04 3.405e-09
 86.01655     39.8 1.449e+04 3.421e-09
 86.02763     37.7 1.456e+04 3.253e-09
 86.04421     37.0 1.515e+04 3.613e-09
 86.05951     35.9 1.604e+04 4.455e-09
 86.07059     32.9 1.635e+04 5.319e-09
 86.08853     32.3 1.722e+04 7.725e-09
 86.10248     31.9 1.836e+04 1.129e-08
 86.11356     29.9 1.835e+04 1.180e-08
 86.12391     30.2 1.885e+04 1.341e-08
 86.12940     29.5 1.877e+04 1.315e-08
 86.13829     29.1 1.913e+04 1.421e-08
 86.14535     28.7 1.956e+04 1.525e-08
 86.15089     27.7 1.903e+04 1.256e-08
 86.16045     26.9 1.931e+04 1.309e-08
 86.16683     26.1 1.954e+04 1.363e-08
 86.16809     25.0 1.869e+04 1.032e-08
 86.17279     25.4 1.897e+04 1.060e-08
 86.18261     24.6 1.906e+04 1.087e-08
 86.18831     23.3 1.914e+04 1.105e-08
 86.19944     22.0 1.803e+04 7.813e-09
 86.22029     20.7 1.838e+04 8.779e-09
 86.23137     18.5 1.593e+04 4.493e-09
 86.24364     17.3 1.609e+04 5.092e-09
 86.26326     16.7 1.631e+04 6.036e-09
 86.27434     16.0 1.515e+04 4.463e-09
 86.28796     16.3 1.559e+04 5.524e-09
 86.30622     16.8 1.592e+04 6.421e-09
 86.31730     16.4 1.527e+04 5.098e-09
 86.33228     16.7 1.557e+04 5.406e-09
 86.34804     16.9 1.567e+04 5.376e-09
 86.35386     17.1 1.667e+04 7.374e-09
 86.36026     16.1 1.636e+04 6.115e-09
 86.37660     16.0 1.677e+04 6.353e-09
 86.39215     15.8 1.694e+04 6.262e-09
 86.40323     14.3 1.630e+04 4.898e-09
 86.42092     13.9 1.629e+04 4.534e-09
 86.43511     13.4 1.614e+04 4.083e-09
 86.44619     12.3 1.494e+04 3.180e-09
 86.46524     12.0 1.460e+04 2.867e-09
 86.47808     11.9 1.420e+04 2.581e-09
 86.48916     11.3 1.363e+04 2.305e-09
 86.50956     11.3 1.351e+04 2.245e-09
 86.52104     11.5 1.344e+04 2.223e-09
 86.53212     11.3 1.351e+04 2.298e-09
 86.55292     11.5 1.361e+04 2.359e-09
 86.56400     11.3 1.378e+04 2.461e-09
 86.57604     11.5 1.379e+04 2.461e-09
 86.59589     11.7 1.375e+04 2.413e-09
 86.60697     11.3 1.385e+04 2.455e-09
 86.62036     11.5 1.368e+04 2.255e-09
 86.63885     11.9 1.337e+04 1.953e-09
 86.64993     11.3 1.338e+04 1.951e-09
 86.66467     11.6 1.294e+04 1.614e-09
 86.68182     11.9 1.246e+04 1.297e-09
 86.69290     11.5 1.236e+04 1.266e-09
 86.70899     11.9 1.189e+04 1.003e-09
 86.72049     12.4 1.153e+04 8.098e-10
 86.72520     12.4 1.182e+04 9.064e-10
 86.73586     12.2 1.178e+04 8.663e-10
 86.75331     12.8 1.155e+04 7.421e-10
 86.76774     13.4 1.143e+04 6.658e-10
 86.77882     13.2 1.146e+04 6.589e-10
 86.79763     13.8 1.148e+04 6.241e-10
 86.81071     14.3 1.154e+04 6.320e-10
 86.82179     13.9 1.173e+04 6.866e-10
 86.84195     14.4 1.189e+04 7.484e-10
 86.85367     14.9 1.212e+04 8.317e-10
 86.86475     14.6 1.234e+04 1.004e-09
 86.88556     15.2 1.258e+04 1.093e-09
 86.89664     15.1 1.274e+04 1.284e-09
 86.90843     15.5 1.278e+04 1.278e-09
 86.92852     15.7 1.274e+04 1.228e-09
 86.93960     15.7 1.283e+04 1.335e-09
 86.95275     15.6 1.259e+04 1.182e-09
 86.97149     15.2 1.218e+04 1.025e-09
 86.98257     15.2 1.221e+04 1.054e-09
 86.99707     14.1 1.173e+04 9.307e-10
 87.01445     12.9 1.151e+04 8.873e-10
 87.02553     12.5 1.159e+04 9.128e-10
 87.04139     11.2 1.159e+04 9.183e-10
 87.05741      9.6 1.173e+04 9.617e-10
 87.06849      8.4 1.195e+04 1.001e-09
 87.08187      5.5 1.243e+04 1.203e-09
 87.09295      5.3 1.278e+04 1.443e-09
 87.10038      2.1 1.330e+04 1.821e-09
 87.11146     -0.1 1.392e+04 2.049e-09
 87.13003     -3.2 1.410e+04 2.617e-09
 87.14334     -5.1 1.412e+04 2.594e-09
 87.15442     -7.2 1.497e+04 2.725e-09
 87.17434     -9.1 1.346e+04 1.919e-09
 87.18631    -11.3 1.248e+04 1.303e-09
 87.19739    -14.5 1.156e+04 9.445e-10
 87.21819    -16.0 1.115e+04 7.116e-10
 87.22927    -18.3 1.081e+04 5.885e-10
 87.24082    -18.6 1.087e+04 5.371e-10
 87.26115    -18.6 1.097e+04 5.230e-10
 87.27223    -19.8 1.099e+04 5.155e-10
 87.28514    -19.9 1.109e+04 5.192e-10
 87.30412    -19.9 1.119e+04 5.297e-10
 87.31520    -20.9 1.133e+04 5.631e-10
 87.32946    -20.7 1.136e+04 5.977e-10
 87.34708    -20.3 1.135e+04 6.350e-10
 87.35816    -21.0 1.148e+04 7.062e-10
 87.37378    -20.4 1.146e+04 7.506e-10
 87.39005    -19.9 1.145e+04 7.963e-10
 87.40113    -20.1 1.151e+04 8.626e-10
 87.41810    -19.4 1.147e+04 8.888e-10
 87.43301    -18.5 1.144e+04 9.072e-10
 87.44409    -18.4 1.148e+04 9.265e-10
 87.45432    -17.5 1.143e+04 9.074e-10
 87.46540    -17.7 1.151e+04 9.589e-10
 87.47597    -16.8 1.138e+04 8.893e-10
 87.48705    -16.8 1.128e+04 8.171e-10
 87.50674    -15.9 1.109e+04 7.179e-10
 87.51894    -15.0 1.092e+04 6.314e-10
 87.53002    -15.1 1.081e+04 5.499e-10
 87.55082    -14.3 1.065e+04 4.782e-10
 87.57308    -14.4 1.044e+04 3.563e-10
 87.60665    -12.9 1.032e+04 3.283e-10
 87.63695    -11.1 1.024e+04 3.189e-10
 87.65911    -10.6 1.023e+04 2.911e-10
 87.69529     -8.9 1.024e+04 2.970e-10
 87.72287     -7.5 1.027e+04 3.168e-10
 87.74503     -7.2 1.034e+04 3.041e-10
 87.76574     -6.7 1.037e+04 3.423e-10
 87.77672     -6.7 1.040e+04 3.448e-10
 87.79481     -6.3 1.046e+04 3.818e-10
 87.80861     -6.1 1.062e+04 4.268e-10
 87.81841     -6.6 1.077e+04 4.432e-10
 87.82677     -6.7 1.067e+04 3.883e-10
 87.83913     -7.1 1.096e+04 4.937e-10
 87.87247     -7.0 1.147e+04 7.062e-10
 87.91689     -6.4 1.230e+04 1.190e-09
 87.95850     -5.3 1.235e+04 1.210e-09
 87.98066     -6.6 1.273e+04 1.489e-09
 88.00552     -5.8 1.267e+04 1.445e-09
 88.04443     -5.0 1.264e+04 1.437e-09
 88.06659     -6.4 1.270e+04 1.496e-09
 88.09416     -5.5 1.278e+04 1.587e-09
 88.13036     -4.6 1.308e+04 1.770e-09
 88.15242     -5.1 1.323e+04 1.903e-09
 88.17153     -5.3 1.354e+04 2.163e-09
 88.18420     -5.4 1.372e+04 2.346e-09
 88.18975     -6.0 1.373e+04 2.382e-09
 88.19923     -5.8 1.382e+04 2.500e-09
 88.21584     -5.9 1.389e+04 2.603e-09
 88.22717     -5.8 1.386e+04 2.570e-09
 88.23825     -6.1 1.374e+04 2.524e-09
 88.25905     -5.8 1.355e+04 2.319e-09
 88.27013     -5.9 1.336e+04 2.082e-09
 88.28232     -5.9 1.302e+04 1.736e-09
 88.30211     -5.4 1.268e+04 1.378e-09
 88.32437     -5.3 1.231e+04 1.105e-09
 88.36008     -4.3 1.170e+04 7.283e-10
 88.38804     -4.1 1.130e+04 5.543e-10
 88.39903     -4.2 1.125e+04 5.465e-10
 88.41528     -4.2 1.098e+04 4.505e-10
 88.44862     -4.0 1.090e+04 4.340e-10
 88.47407     -2.5 1.067e+04 3.774e-10
 88.49623     -2.0 1.089e+04 5.082e-10
 88.53735     -0.7 1.087e+04 5.115e-10
 88.56000      0.4 1.087e+04 5.251e-10
 88.56118      0.2 1.102e+04 6.082e-10
 88.57168      0.2 1.105e+04 6.363e-10
 88.59169      0.2 1.112e+04 6.924e-10
 88.60277      0.2 1.120e+04 7.667e-10
 88.61472      0.5 1.128e+04 8.730e-10
 88.63465      0.9 1.128e+04 9.295e-10
 88.64573      1.1 1.128e+04 9.383e-10
 88.65904      1.6 1.125e+04 9.316e-10
 88.67761      2.2 1.112e+04 8.911e-10
 88.68869      2.6 1.101e+04 8.190e-10
 88.70335      3.1 1.079e+04 6.713e-10
 88.72058      3.1 1.053e+04 5.162e-10
 88.73166      3.0 1.043e+04 4.271e-10
 88.74767      2.4 1.016e+04 3.393e-10
 88.76354      2.0 9.992e+03 3.202e-10
 88.77462      2.0 9.979e+03 2.965e-10
 88.79552      2.1 9.958e+03 3.163e-10
 88.81778      3.1 9.779e+03 2.765e-10
 88.84759      4.2 9.717e+03 2.878e-10
 88.88155      5.1 9.720e+03 3.417e-10
 88.90371      6.0 9.713e+03 3.291e-10
 88.92217      6.5 9.966e+03 4.272e-10
 88.94433      5.7 1.040e+04 5.451e-10
 88.96748      5.8 1.066e+04 6.486e-10
 88.98964      6.7 1.070e+04 6.503e-10
 89.02486      7.0 1.085e+04 7.418e-10
 89.05331      7.5 1.087e+04 7.582e-10
 89.06429      8.0 1.087e+04 7.402e-10
 89.08007      8.1 1.088e+04 7.444e-10
 89.09618      8.2 1.088e+04 7.437e-10
 89.10726      8.5 1.084e+04 7.033e-10
 89.12439      8.6 1.081e+04 6.905e-10
 89.13914      8.7 1.077e+04 6.762e-10
 89.15022      9.0 1.068e+04 6.143e-10
 89.16871      9.2 1.064e+04 5.857e-10
 89.18210      9.3 1.064e+04 5.497e-10
 89.19318      9.7 1.055e+04 4.688e-10
 89.21302      9.8 1.056e+04 4.324e-10
 89.22507      9.8 1.059e+04 4.008e-10
 89.24732      9.9 1.058e+04 3.538e-10
 89.28903     10.5 1.064e+04 3.468e-10
 89.31119     11.7 1.058e+04 3.094e-10
 89.33510     12.9 1.063e+04 3.112e-10
 89.37496     14.0 1.075e+04 3.202e-10
 89.39712     15.4 1.073e+04 2.983e-10
 89.42374     16.6 1.092e+04 3.281e-10
 89.46089     17.9 1.114e+04 3.687e-10
 89.48305     19.2 1.116e+04 3.650e-10
 89.51237     20.6 1.144e+04 4.325e-10
 89.54682     22.0 1.174e+04 5.165e-10
 89.56898     23.3 1.175e+04 5.230e-10
 89.60101     25.2 1.217e+04 6.511e-10
 89.63274     27.2 1.261e+04 7.895e-10
 89.65449     28.2 1.269e+04 8.182e-10
 89.66698     27.4 1.278e+04 8.627e-10
 89.67551     27.5 1.310e+04 1.010e-09
 89.68659     27.7 1.319e+04 1.083e-09
 89.70054     27.8 1.353e+04 1.322e-09
 89.71848     27.9 1.380e+04 1.560e-09
 89.72956     28.1 1.388e+04 1.713e-09
 89.74485     28.2 1.416e+04 2.003e-09
 89.76144     27.9 1.448e+04 2.310e-09
 89.77252     28.2 1.446e+04 2.412e-09
 89.78917     27.6 1.487e+04 2.795e-09
 89.80441     26.8 1.523e+04 3.392e-09
 89.81549     27.5 1.499e+04 3.222e-09
 89.83349     26.6 1.535e+04 3.729e-09
 89.84737     25.3 1.585e+04 4.238e-09
 89.85845     26.0 1.545e+04 3.661e-09
 89.87781     24.2 1.604e+04 3.977e-09
 89.89033     21.7 1.654e+04 3.960e-09
 89.90141     22.5 1.627e+04 3.757e-09
 89.92213     19.4 1.669e+04 3.769e-09
 89.94429     16.9 1.677e+04 4.027e-09
 89.96518     13.7 1.657e+04 3.762e-09
 89.97626     15.0 1.677e+04 4.627e-09
 89.98861     12.7 1.629e+04 4.139e-09
 90.00815     11.2 1.524e+04 3.105e-09
 90.01923     12.6 1.587e+04 4.276e-09
 90.02826     11.9 1.472e+04 2.895e-09
 90.03934     11.6 1.559e+04 4.100e-09
 90.05111     11.4 1.395e+04 2.144e-09
 90.06219     12.5 1.453e+04 2.876e-09
 90.07725     12.6 1.349e+04 1.502e-09
 90.09407     11.9 1.207e+04 6.950e-10
 90.10515     13.3 1.267e+04 1.043e-09
 90.12606     11.7 1.038e+04 2.660e-10
 90.14831     14.1 1.184e+04 6.308e-10
 90.17716     13.5 9.656e+03 1.730e-10
 90.21208     13.8 9.290e+03 1.313e-10
 90.23424     15.5 9.616e+03 1.727e-10
 90.26580     16.3 9.428e+03 1.465e-10
 90.29801     17.3 9.362e+03 1.513e-10
 90.32017     18.3 1.011e+04 2.720e-10
 90.35444     19.4 1.001e+04 2.762e-10
 90.38394     20.7 1.008e+04 3.363e-10
 90.39717     21.5 1.051e+04 4.755e-10
 90.41199     20.5 1.031e+04 4.535e-10
 90.44308     21.9 1.034e+04 4.828e-10
 90.46987     23.6 1.075e+04 6.330e-10
 90.49203     24.5 1.071e+04 6.112e-10
 90.51273     25.4 1.103e+04 7.155e-10
 90.52372     25.4 1.101e+04 6.983e-10
 90.54260     25.9 1.133e+04 8.238e-10
 90.55560     25.9 1.205e+04 1.127e-09
 90.56668     25.8 1.203e+04 1.113e-09
 90.58692     25.4 1.339e+04 1.921e-09
 90.59856     25.2 1.563e+04 4.109e-09
 90.60964     25.8 1.567e+04 4.071e-09
 90.63045     26.6 1.843e+04 8.483e-09
 90.64153     27.0 1.754e+04 6.115e-09
 90.64781     25.1 2.161e+04 1.250e-08
 90.65737     18.7 2.583e+04 5.581e-08
 90.66291     15.7 2.664e+04 6.830e-08
 90.66992      8.0 2.390e+04 4.230e-07
 90.67716      2.0 1.982e+04 3.179e-06
 90.67991      1.0 1.954e+04 3.673e-06
 90.68158     -3.2 1.757e+04 1.484e-05
 90.68435     -4.2 1.733e+04 1.769e-05
 90.68926     -7.2 1.661e+04 3.189e-05
 90.69232     -8.7 1.667e+04 2.918e-05
 90.69509     -8.7 1.676e+04 2.604e-05
 90.70029     -8.5 1.725e+04 1.614e-05
 90.70306     -8.3 1.773e+04 1.056e-05
 90.70588     -7.8 1.843e+04 5.289e-06
 90.71103     -7.8 1.949e+04 2.087e-06
 90.71380     -8.4 2.000e+04 1.463e-06
 90.71696     -8.4 2.073e+04 8.550e-07
 90.72179     -6.4 2.514e+04 1.332e-07
 90.72736     -8.0 2.356e+04 1.521e-07
 90.73640     -9.1 2.807e+04 2.036e-08
 90.74330    -10.0 3.147e+04 3.275e-09
 90.74884    -10.6 2.815e+04 5.723e-09
 90.75929    -17.7 2.052e+04 1.208e-09
 90.76831    -17.6 2.395e+04 1.626e-09
 90.77317    -16.7 2.226e+04 1.777e-09
 90.78635    -22.8 1.478e+04 8.885e-10
 90.80230    -28.2 9.859e+03 6.858e-10
 90.81338    -29.0 1.041e+04 7.248e-10
 90.84185    -33.9 1.053e+04 6.642e-10
 90.87735    -34.4 1.040e+04 5.754e-10
 90.89951    -35.2 1.014e+04 5.021e-10
 90.93059    -35.4 1.000e+04 4.256e-10
 90.96328    -35.8 9.888e+03 3.760e-10
 90.98544    -36.4 9.724e+03 3.428e-10
 91.01922    -37.1 9.826e+03 3.418e-10
 91.04920    -38.3 9.896e+03 3.484e-10
 91.07136    -38.9 1.008e+04 4.094e-10
 91.10786    -40.5 1.006e+04 4.092e-10
 91.13474    -41.8 9.872e+03 3.788e-10
 91.13984    -41.6 1.017e+04 4.594e-10
 91.15729    -42.6 1.031e+04 5.095e-10
 91.19650    -43.8 9.795e+03 3.711e-10
 91.22106    -44.8 9.328e+03 2.746e-10
 91.24322    -46.1 9.314e+03 2.764e-10
 91.28483    -46.8 8.899e+03 2.147e-10
 91.30699    -48.1 8.702e+03 1.930e-10
 91.32946    -48.5 8.613e+03 1.758e-10
 91.37076    -48.6 8.627e+03 1.782e-10
 91.39292    -49.6 8.421e+03 1.576e-10
 91.41810    -49.7 8.561e+03 1.775e-10
 91.45669    -50.0 8.799e+03 2.112e-10
 91.47885    -50.4 8.655e+03 1.952e-10
 91.50674    -51.0 8.939e+03 2.280e-10
 91.54261    -52.0 9.375e+03 2.755e-10
 91.56477    -52.8 9.231e+03 2.522e-10
 91.59537    -53.8 9.597e+03 3.077e-10
 91.62854    -54.5 9.760e+03 3.319e-10
 91.65070    -54.6 9.600e+03 3.008e-10
 91.68401    -54.6 9.563e+03 2.804e-10
 91.71447    -54.4 9.579e+03 2.466e-10
 91.73663    -53.9 9.524e+03 2.285e-10
 91.77265    -53.2 9.571e+03 2.240e-10
 91.80040    -52.1 9.689e+03 2.328e-10
 91.82256    -51.4 9.712e+03 2.345e-10
 91.85748    -50.3 9.968e+03 2.687e-10
 91.87964    -50.1 9.645e+03 2.205e-10
 91.88633    -49.0 9.800e+03 2.373e-10
 91.90849    -48.1 1.006e+04 2.811e-10
 91.94993    -46.9 1.025e+04 3.166e-10
 91.99425    -44.9 1.078e+04 4.794e-10
 92.02739    -44.5 1.096e+04 5.707e-10
 92.04691    -44.0 1.104e+04 6.231e-10
 92.05799    -43.6 1.112e+04 6.602e-10
 92.07161    -43.1 1.117e+04 6.652e-10
 92.08987    -42.7 1.118e+04 6.627e-10
 92.10095    -42.3 1.118e+04 6.540e-10
 92.11593    -41.9 1.116e+04 6.344e-10
 92.13284    -41.6 1.112e+04 6.177e-10
 92.14392    -41.2 1.098e+04 5.569e-10
 92.16025    -40.7 1.094e+04 5.462e-10
 92.17580    -40.3 1.092e+04 5.425e-10
 92.18688    -39.8 1.077e+04 4.856e-10
 92.20457    -39.3 1.078e+04 4.828e-10
 92.21876    -38.7 1.080e+04 4.818e-10
 92.22984    -38.1 1.067e+04 4.352e-10
 92.24082    -37.6 1.072e+04 4.382e-10
 92.25190    -37.2 1.071e+04 4.615e-10
 92.26173    -36.6 1.077e+04 4.607e-10
 92.27281    -36.0 1.065e+04 4.129e-10
 92.29320    -35.4 1.075e+04 4.260e-10
 92.30469    -34.8 1.085e+04 4.450e-10
 92.31577    -34.3 1.078e+04 4.221e-10
 92.33658    -33.7 1.094e+04 4.656e-10
 92.34766    -33.2 1.094e+04 4.638e-10
 92.35968    -32.6 1.111e+04 5.419e-10
 92.37954    -31.9 1.131e+04 6.469e-10
 92.39062    -31.3 1.137e+04 7.096e-10
 92.40400    -30.4 1.167e+04 8.798e-10
 92.42250    -29.6 1.200e+04 1.061e-09
 92.43358    -29.0 1.229e+04 1.252e-09
 92.44832    -28.4 1.275e+04 1.520e-09
 92.46547    -28.0 1.315e+04 1.784e-09
 92.47655    -27.8 1.365e+04 2.252e-09
 92.49264    -27.6 1.403e+04 2.650e-09
 92.50843    -27.3 1.432e+04 3.013e-09
 92.51951    -27.3 1.474e+04 3.752e-09
 92.53696    -27.0 1.496e+04 4.168e-09
 92.55140    -26.7 1.513e+04 4.505e-09
 92.56248    -26.5 1.539e+04 5.167e-09
 92.58128    -26.2 1.548e+04 5.377e-09
 92.59436    -26.0 1.550e+04 5.524e-09
 92.60420    -25.7 1.550e+04 5.564e-09
 92.61328    -25.4 1.568e+04 5.935e-09
 92.62560    -25.0 1.566e+04 5.959e-09
 92.63733    -24.5 1.547e+04 5.614e-09
 92.64841    -24.0 1.511e+04 4.905e-09
 92.66921    -23.3 1.481e+04 4.163e-09
 92.68029    -22.8 1.439e+04 3.353e-09
 92.69208    -22.3 1.410e+04 2.700e-09
 92.71217    -21.9 1.388e+04 2.148e-09
 92.72325    -21.7 1.348e+04 1.759e-09
 92.73640    -21.5 1.326e+04 1.452e-09
 92.75514    -21.3 1.303e+04 1.274e-09
 92.76622    -20.9 1.275e+04 1.211e-09
 92.78072    -20.4 1.263e+04 1.190e-09
 92.79810    -19.6 1.265e+04 1.199e-09
 92.80918    -18.8 1.261e+04 1.202e-09
 92.82503    -17.9 1.272e+04 1.279e-09
 92.84107    -17.5 1.304e+04 1.429e-09
 92.85215    -16.9 1.311e+04 1.508e-09
 92.86935    -16.7 1.354e+04 1.763e-09
 92.88403    -16.7 1.412e+04 2.246e-09
 92.89511    -16.4 1.428e+04 2.408e-09
 92.91367    -17.0 1.506e+04 3.427e-09
 92.92699    -17.3 1.592e+04 5.174e-09
 92.93807    -17.1 1.606e+04 5.411e-09
 92.95799    -16.6 1.700e+04 8.261e-09
 92.96996    -16.2 1.766e+04 1.048e-08
 92.97554    -16.1 1.763e+04 1.052e-08
 92.98573    -16.2 1.729e+04 9.971e-09
 93.00184    -16.0 1.718e+04 9.672e-09
 93.01292    -15.5 1.678e+04 8.735e-09
 93.02447    -14.8 1.630e+04 7.543e-09
 93.04481    -13.7 1.549e+04 5.271e-09
 93.05589    -13.1 1.497e+04 4.442e-09
 93.06879    -12.5 1.422e+04 3.082e-09
 93.08777    -12.3 1.358e+04 2.015e-09
 93.09885    -11.8 1.324e+04 1.766e-09
 93.11311    -11.5 1.275e+04 1.329e-09
 93.13073    -11.1 1.240e+04 1.062e-09
 93.14181    -10.5 1.226e+04 9.981e-10
 93.15743     -9.7 1.201e+04 9.001e-10
 93.17370     -8.5 1.187e+04 8.618e-10
 93.18478     -7.8 1.185e+04 8.341e-10
 93.20175     -6.6 1.183e+04 8.336e-10
 93.21666     -5.1 1.183e+04 8.141e-10
 93.22774     -4.4 1.184e+04 8.194e-10
 93.24607     -3.6 1.186e+04 8.378e-10
 93.27940     -1.7 1.190e+04 8.775e-10
 93.30279      0.6 1.199e+04 9.081e-10
 93.32495      1.4 1.207e+04 1.025e-09
 93.34730      3.4 1.218e+04 1.075e-09
 93.36787      3.4 1.192e+04 8.038e-10
 93.38871      3.8 1.210e+04 1.012e-09
 93.41246      5.4 1.224e+04 1.032e-09
 93.45248      6.7 1.248e+04 1.078e-09
 93.47455      6.3 1.248e+04 1.225e-09
 93.48982      6.0 1.266e+04 1.326e-09
 93.50633      5.4 1.301e+04 1.584e-09
 93.51741      5.3 1.297e+04 1.604e-09
 93.53414      4.9 1.328e+04 2.006e-09
 93.54930      4.4 1.367e+04 2.547e-09
 93.56038      4.6 1.331e+04 2.107e-09
 93.57846      4.0 1.364e+04 2.580e-09
 93.59226      3.5 1.392e+04 3.063e-09
 93.60334      3.7 1.342e+04 2.406e-09
 93.62278      3.3 1.331e+04 2.533e-09
 93.63522      2.9 1.323e+04 2.397e-09
 93.64630      3.4 1.295e+04 2.132e-09
 93.66710      3.2 1.279e+04 1.842e-09
 93.68926      3.7 1.259e+04 1.394e-09
 93.70848      2.8 1.245e+04 9.848e-10
 93.71821      1.8 1.214e+04 6.330e-10
 93.72115      3.1 1.219e+04 7.105e-10
 93.73358      1.7 1.191e+04 5.087e-10
 93.75304      0.4 1.138e+04 4.359e-10
 93.76412      1.8 1.161e+04 4.514e-10
 93.77790      0.7 1.125e+04 4.387e-10
 93.79600      0.1 1.124e+04 4.457e-10
 93.80708      1.3 1.126e+04 4.449e-10
 93.82221      0.7 1.126e+04 4.682e-10
 93.83896      0.1 1.142e+04 5.496e-10
 93.85004      1.1 1.136e+04 5.185e-10
 93.86653      0.6 1.165e+04 6.474e-10
 93.88193      0.3 1.202e+04 8.390e-10
 93.89301      1.3 1.192e+04 7.918e-10
 93.91085      1.1 1.230e+04 1.016e-09
 93.92489      1.0 1.270e+04 1.267e-09
 93.93597      2.2 1.266e+04 1.220e-09
 93.95517      2.2 1.301e+04 1.444e-09
 93.96786      2.4 1.331e+04 1.620e-09
 93.97894      3.5 1.332e+04 1.608e-09
 93.99949      3.3 1.362e+04 1.763e-09
 94.01082      1.5 1.497e+04 2.103e-09
 94.02190      0.1 1.618e+04 2.578e-09
 94.04271     -5.1 1.900e+04 6.062e-09
 94.05379     -6.7 1.970e+04 9.509e-09
 94.06038     -7.8 2.051e+04 1.485e-08
 94.06963     -8.9 2.106e+04 2.030e-08
 94.07517     -9.3 2.118e+04 2.240e-08
 94.08083    -10.1 2.176e+04 3.098e-08
 94.08637     -9.7 2.215e+04 3.647e-08
 94.09111    -10.5 2.279e+04 4.592e-08
 94.09665    -11.6 2.271e+04 4.563e-08
 94.10465    -12.9 2.272e+04 4.495e-08
 94.11259    -14.3 2.276e+04 3.922e-08
 94.11813    -15.2 2.214e+04 3.163e-08
 94.12681    -18.4 2.249e+04 2.539e-08
 94.13408    -21.5 2.239e+04 1.986e-08
 94.13962    -23.0 2.142e+04 1.723e-08
 94.14897    -26.5 2.168e+04 1.805e-08
 94.15556    -29.1 2.140e+04 1.852e-08
 94.16110    -29.7 2.083e+04 1.601e-08
 94.17155    -33.3 2.065e+04 1.986e-08
 94.18268    -34.5 1.940e+04 1.487e-08
 94.19893    -35.6 1.873e+04 1.695e-08
 94.21456    -35.3 1.822e+04 1.577e-08
 94.22564    -35.3 1.725e+04 1.112e-08
 94.24325    -34.6 1.669e+04 9.152e-09
 94.25753    -34.3 1.596e+04 5.385e-09
 94.26861    -35.0 1.563e+04 5.309e-09
 94.28757    -35.2 1.494e+04 3.167e-09
 94.30049    -35.7 1.410e+04 1.571e-09
 94.31157    -35.6 1.437e+04 2.359e-09
 94.33188    -36.0 1.371e+04 1.474e-09
 94.34345    -36.5 1.287e+04 9.100e-10
 94.35453    -35.9 1.353e+04 1.487e-09
 94.37534    -36.2 1.313e+04 1.145e-09
 94.38642    -35.7 1.356e+04 1.637e-09
 94.39836    -35.9 1.294e+04 1.206e-09
 94.43170    -35.9 1.286e+04 1.266e-09
 94.46146    -35.6 1.182e+04 8.056e-10
 94.48362    -34.4 1.254e+04 1.262e-09
 94.52044    -33.9 1.133e+04 7.288e-10
 94.54739    -32.9 1.045e+04 4.638e-10
 94.56955    -32.1 1.047e+04 4.723e-10
 94.60907    -31.0 9.768e+03 3.081e-10
 94.63332    -29.4 9.443e+03 2.364e-10
 94.65548    -28.8 9.131e+03 1.948e-10
 94.69709    -26.8 8.991e+03 1.727e-10
 94.71925    -26.4 8.925e+03 1.565e-10
 94.74203    -24.3 8.938e+03 1.572e-10
 94.78302    -22.2 8.996e+03 1.559e-10
 94.80517    -22.4 9.041e+03 1.626e-10
 94.81495    -21.5 9.546e+03 2.187e-10
 94.83711    -21.5 9.910e+03 2.940e-10
 94.86894    -21.1 1.105e+04 5.207e-10
 94.89110    -23.4 1.255e+04 1.218e-09
 94.90813    -23.3 1.296e+04 1.493e-09
 94.92279    -23.3 1.363e+04 2.216e-09
 94.93387    -24.2 1.439e+04 3.495e-09
 94.95235    -23.5 1.466e+04 4.324e-09
 94.96576    -22.7 1.463e+04 4.527e-09
 94.97684    -23.4 1.461e+04 4.601e-09
 94.99667    -22.8 1.473e+04 4.159e-09
 95.00872    -22.9 1.481e+04 3.985e-09
 95.01980    -30.9 2.009e+04 3.396e-09
 95.04060    -39.4 2.357e+04 4.136e-09
 95.05168    -54.0 2.467e+04 6.910e-09
 95.06315    -59.7 2.214e+04 1.052e-08
 95.08357    -63.9 2.147e+04 1.300e-08
 95.09465    -70.6 1.999e+04 1.332e-08
 95.10747    -74.9 1.874e+04 9.117e-09
 95.12653    -81.9 1.719e+04 3.786e-09
 95.13761    -94.3 1.325e+04 9.618e-10
 95.15179   -100.1 1.135e+04 4.424e-10
 95.16950   -104.2 9.358e+03 3.222e-10
 95.18058   -106.1 8.438e+03 2.780e-10
 95.18721   -106.2 8.364e+03 2.745e-10
 95.19829   -106.2 8.466e+03 2.985e-10
 95.21246   -106.1 8.477e+03 2.869e-10
 95.23472   -106.7 8.421e+03 2.726e-10
 95.27386   -107.6 8.376e+03 2.568e-10
 95.29858   -108.7 8.382e+03 2.562e-10
 95.32074   -109.3 8.223e+03 2.367e-10
 95.36235   -109.8 8.304e+03 2.417e-10
 95.40667   -111.2 8.526e+03 2.623e-10
 95.44828   -111.9 8.941e+03 3.218e-10
 95.47044   -113.1 9.148e+03 3.690e-10
 95.49546   -113.3 9.392e+03 4.410e-10
 95.52860   -113.1 9.400e+03 4.464e-10
 95.54509   -113.2 9.381e+03 4.382e-10
 95.55410   -113.6 9.338e+03 4.238e-10
 95.55967   -113.2 9.521e+03 4.680e-10
 95.57282   -113.2 9.557e+03 4.420e-10
 95.58806   -113.9 9.645e+03 4.502e-10
 95.59914   -115.8 1.006e+04 4.624e-10
 95.61714   -122.1 1.251e+04 8.044e-10
 95.63102   -127.3 1.386e+04 1.957e-09
 95.64210   -129.8 1.446e+04 3.121e-09
 95.66146   -131.5 1.558e+04 5.635e-09
 95.67399   -133.5 1.722e+04 8.049e-09
 95.68507   -135.6 1.760e+04 8.449e-09
 95.70578   -139.9 1.834e+04 8.573e-09
 95.72794   -149.6 1.512e+04 3.448e-09
 95.74883   -153.3 1.367e+04 2.225e-09
 95.75991   -155.4 1.297e+04 1.606e-09
 95.77226   -157.7 1.215e+04 1.038e-09
 95.79180   -159.9 1.131e+04 6.632e-10
 95.80288   -161.3 1.079e+04 4.940e-10
 95.81658   -162.8 1.022e+04 3.510e-10
 95.84991   -164.1 9.740e+03 2.738e-10
 95.87792   -164.8 9.651e+03 2.690e-10
 95.90008   -166.1 9.487e+03 2.454e-10
 95.93865   -166.3 9.455e+03 2.555e-10
 95.96385   -166.1 9.520e+03 2.903e-10
 95.98601   -167.1 9.357e+03 2.645e-10
 96.02729   -166.6 9.362e+03 2.730e-10
 96.04978   -166.1 9.199e+03 2.578e-10
 96.07194   -166.7 8.995e+03 2.174e-10
 96.11355   -165.8 8.845e+03 1.972e-10
 96.13571   -165.9 8.641e+03 1.646e-10
 96.16024   -164.8 8.578e+03 1.586e-10
 96.19948   -163.8 8.600e+03 1.648e-10
 96.22163   -163.8 8.520e+03 1.464e-10
 96.24888   -163.2 8.860e+03 2.066e-10
 96.28261   -162.6 9.398e+03 3.173e-10
 96.29697   -162.4 9.610e+03 3.619e-10
 96.30756   -162.4 9.500e+03 3.313e-10
 96.32634   -161.5 9.868e+03 4.299e-10
 96.33925   -161.9 9.961e+03 5.214e-10
 96.35033   -161.5 9.868e+03 4.762e-10
 96.37057   -161.3 1.011e+04 5.961e-10
 96.38222   -161.4 1.032e+04 6.935e-10
 96.39330   -161.2 1.030e+04 6.681e-10
 96.41410   -161.2 1.056e+04 8.042e-10
 96.42518   -161.0 1.057e+04 8.012e-10
 96.43704   -161.3 1.078e+04 9.443e-10
 96.45706   -161.4 1.096e+04 1.074e-09
 96.46814   -161.4 1.115e+04 1.158e-09
 96.48136   -161.4 1.131e+04 1.296e-09
 96.50003   -161.3 1.137e+04 1.339e-09
 96.51111   -161.3 1.175e+04 1.565e-09
 96.52568   -161.5 1.177e+04 1.544e-09
 96.54299   -161.7 1.159e+04 1.375e-09
 96.55407   -161.9 1.205e+04 1.616e-09
 96.57000   -162.4 1.188e+04 1.430e-09
 96.58596   -163.2 1.179e+04 1.326e-09
 96.59704   -164.0 1.207e+04 1.453e-09
 96.61432   -164.8 1.204e+04 1.428e-09
 96.62892   -165.4 1.207e+04 1.453e-09
 96.64000   -166.3 1.215e+04 1.502e-09
 96.65487   -166.5 1.217e+04 1.584e-09
 96.66595   -165.8 1.173e+04 1.252e-09
 96.67188   -165.7 1.175e+04 1.315e-09
 96.68296   -166.4 1.174e+04 1.330e-09
 96.70296   -166.1 1.171e+04 1.374e-09
 96.71485   -165.7 1.167e+04 1.394e-09
 96.72593   -166.2 1.166e+04 1.391e-09
 96.74673   -165.7 1.160e+04 1.402e-09
 96.75781   -166.2 1.163e+04 1.429e-09
 96.76944   -165.6 1.159e+04 1.437e-09
 96.78970   -164.9 1.157e+04 1.447e-09
 96.80078   -165.4 1.186e+04 1.649e-09
 96.81376   -164.6 1.183e+04 1.655e-09
 96.83266   -164.0 1.205e+04 1.710e-09
 96.84374   -165.6 1.354e+04 2.493e-09
 96.85808   -166.5 1.478e+04 3.103e-09
 96.87563   -168.1 1.629e+04 4.686e-09
 96.88671   -170.4 1.732e+04 7.301e-09
 96.90239   -171.4 1.804e+04 1.109e-08
 96.91859   -171.8 1.883e+04 1.611e-08
 96.92967   -173.9 1.883e+04 1.671e-08
 96.94671   -173.6 1.940e+04 2.042e-08
 96.96155   -173.0 1.932e+04 1.957e-08
 96.97263   -173.7 1.797e+04 1.269e-08
 96.98299   -172.1 1.770e+04 1.126e-08
 96.98848   -172.6 1.703e+04 8.660e-09
 96.99648   -172.6 1.686e+04 7.189e-09
 97.00442   -172.9 1.651e+04 4.742e-09
 97.01555   -174.0 1.587e+04 3.550e-09
 97.02732   -174.9 1.507e+04 2.188e-09
 97.03840   -174.1 1.462e+04 2.757e-09
 97.04748   -175.3 1.368e+04 1.608e-09
 97.05856   -177.0 1.289e+04 1.174e-09
 97.07937   -178.1 1.194e+04 7.588e-10
 97.09045   -179.1 1.180e+04 6.959e-10
 97.10183   -180.0 1.137e+04 5.888e-10
 97.12233   -181.3 1.240e+04 6.019e-10
 97.13341   -181.7 1.159e+04 5.499e-10
 97.14615   -183.9 1.389e+04 7.265e-10
 97.16529   -186.6 1.556e+04 1.281e-09
 97.17637   -186.6 1.480e+04 1.087e-09
 97.19047   -188.4 1.523e+04 2.100e-09
 97.20826   -189.0 1.515e+04 3.769e-09
 97.21934   -188.9 1.472e+04 3.254e-09
 97.23479   -188.7 1.504e+04 5.152e-09
 97.25117   -187.6 1.536e+04 6.193e-09
 97.26225   -187.6 1.522e+04 5.958e-09
 97.27911   -187.0 1.565e+04 6.229e-09
 97.29419   -187.3 1.632e+04 5.706e-09
 97.30527   -187.0 1.590e+04 5.463e-09
 97.32343   -188.5 1.688e+04 3.501e-09
 97.33715   -192.5 1.622e+04 1.770e-09
 97.34823   -191.6 1.595e+04 1.693e-09
 97.36775   -196.1 1.273e+04 7.327e-10
 97.38011   -198.9 1.030e+04 4.651e-10
 97.38999   -198.0 1.019e+04 4.283e-10
 97.39978   -193.5 1.440e+04 9.781e-10
 97.41200   -197.5 1.074e+04 4.663e-10
 97.43416   -197.8 9.661e+03 3.283e-10
 97.45496   -198.3 9.478e+03 2.921e-10
 97.46604   -197.4 9.355e+03 2.740e-10
 97.47854   -197.7 9.326e+03 2.644e-10
 97.49793   -197.5 9.342e+03 2.672e-10
 97.50901   -196.8 9.328e+03 2.657e-10
 97.52991   -197.1 9.460e+03 2.894e-10
 97.55217   -196.1 9.368e+03 2.738e-10
 97.57846   -196.1 9.415e+03 3.071e-10
 97.61594   -195.2 9.464e+03 3.343e-10
 97.63809   -193.6 9.176e+03 2.815e-10
 97.66710   -192.9 9.343e+03 3.154e-10
 97.70186   -192.1 9.545e+03 3.581e-10
 97.72402   -190.6 9.273e+03 3.012e-10
 97.75027   -189.7 9.483e+03 3.380e-10
 97.77243   -188.4 9.622e+03 3.750e-10
 97.78779   -187.3 9.801e+03 4.020e-10
 97.80995   -185.9 9.641e+03 3.599e-10
 97.84437   -185.0 9.715e+03 3.625e-10
 97.87372   -184.6 9.493e+03 2.928e-10
 97.89588   -183.0 9.494e+03 2.955e-10
 97.93301   -182.7 9.137e+03 2.145e-10
 97.95965   -182.4 8.769e+03 1.569e-10
 97.98181   -181.0 8.967e+03 1.761e-10
 98.02165   -180.7 8.681e+03 1.386e-10
 98.04558   -180.1 8.585e+03 1.299e-10
 98.06774   -179.1 8.723e+03 1.388e-10
 98.10934   -178.2 8.646e+03 1.326e-10
 98.13150   -177.4 8.726e+03 1.367e-10
 98.15461   -176.4 8.690e+03 1.343e-10
 98.19527   -175.2 8.785e+03 1.397e-10
 98.21743   -174.4 8.782e+03 1.383e-10
 98.24324   -173.2 8.951e+03 1.605e-10
 98.28120   -172.0 9.136e+03 1.960e-10
 98.30336   -171.3 9.136e+03 1.956e-10
 98.33188   -170.1 9.350e+03 2.312e-10
 98.36713   -169.0 9.614e+03 2.727e-10
 98.38929   -168.2 9.488e+03 2.436e-10
 98.42052   -167.7 9.755e+03 2.731e-10
 98.45296   -167.4 1.013e+04 3.167e-10
 98.47512   -167.3 1.014e+04 3.020e-10
 98.49508   -168.3 1.091e+04 4.932e-10
 98.50400   -167.0 1.060e+04 4.324e-10
 98.50691   -166.8 1.061e+04 4.319e-10
 98.52004   -167.1 1.076e+04 4.648e-10
 98.53889   -168.3 1.187e+04 8.901e-10
 98.56115   -167.7 1.180e+04 8.851e-10
 98.59780   -169.0 1.276e+04 1.465e-09
 98.62491   -170.4 1.300e+04 1.637e-09
 98.64707   -169.4 1.267e+04 1.428e-09
 98.68644   -170.3 1.217e+04 9.814e-10
 98.71084   -171.1 1.114e+04 4.530e-10
 98.73300   -169.9 1.084e+04 3.633e-10
 98.77461   -170.3 1.039e+04 2.325e-10
 98.79677   -168.8 1.027e+04 2.063e-10
 98.81939   -168.8 1.004e+04 1.799e-10
 98.86054   -168.2 9.968e+03 1.759e-10
 98.88270   -166.4 9.964e+03 1.735e-10
 98.90803   -165.6 9.916e+03 1.831e-10
 98.94647   -164.7 9.913e+03 1.925e-10
 98.96863   -163.1 9.900e+03 1.976e-10
 98.99667   -162.2 9.886e+03 1.985e-10
 99.03240   -161.2 9.768e+03 1.785e-10
 99.05455   -159.7 9.785e+03 1.820e-10
 99.08531   -158.8 9.696e+03 1.531e-10
 99.11832   -157.9 9.678e+03 1.440e-10
 99.14048   -156.7 9.682e+03 1.431e-10
 99.17395   -155.8 9.713e+03 1.430e-10
 99.20425   -155.1 9.983e+03 1.863e-10
 99.22607   -154.2 9.933e+03 1.703e-10
 99.24008   -154.4 9.842e+03 1.800e-10
 99.26258   -153.8 1.017e+04 2.318e-10
 99.29008   -152.6 1.039e+04 2.745e-10
 99.30106   -152.1 1.030e+04 2.475e-10
 99.31779   -152.0 1.032e+04 2.622e-10
 99.33295   -151.4 1.060e+04 3.230e-10
 99.34403   -150.9 1.046e+04 2.677e-10
 99.36211   -151.2 1.052e+04 3.066e-10
 99.37591   -154.8 1.390e+04 6.413e-10
 99.38699   -151.8 1.205e+04 3.647e-10
 99.40643   -157.0 1.530e+04 1.063e-09
 99.41883   -159.3 1.638e+04 2.530e-09
 99.42991   -158.8 1.621e+04 2.118e-09
 99.44031   -161.2 1.730e+04 4.210e-09
 99.44580   -160.1 1.690e+04 3.371e-09
 99.45619   -161.8 1.779e+04 5.755e-09
 99.46727   -162.4 1.847e+04 9.535e-09
 99.47769   -163.4 1.967e+04 1.668e-08
 99.48323   -162.8 1.929e+04 1.350e-08
 99.48943   -163.7 2.065e+04 2.123e-08
 99.49917   -165.0 2.260e+04 2.410e-08
 99.50471   -164.0 2.176e+04 2.322e-08
 99.51159   -166.2 2.290e+04 2.402e-08
 99.52065   -170.0 2.455e+04 1.901e-08
 99.52619   -168.1 2.383e+04 2.110e-08
 99.53375   -172.8 2.437e+04 1.357e-08
 99.54213   -177.4 2.238e+04 9.826e-09
 99.54767   -175.3 2.281e+04 1.042e-08
 99.56149   -178.7 2.087e+04 8.439e-09
 99.57965   -183.6 1.769e+04 5.150e-09
 99.59073   -180.4 1.892e+04 5.062e-09
 99.60126   -185.4 1.486e+04 2.882e-09
 99.61234   -186.2 1.391e+04 1.542e-09
 99.62262   -186.9 1.302e+04 1.467e-09
 99.63370   -185.8 1.282e+04 1.142e-09
 99.65018   -185.8 1.240e+04 1.234e-09
 99.66558   -185.4 1.228e+04 1.363e-09
 99.67666   -184.5 1.206e+04 1.086e-09
 99.69450   -183.9 1.206e+04 1.156e-09
 99.70855   -183.2 1.197e+04 1.161e-09
 99.71963   -182.3 1.185e+04 1.002e-09
 99.73882   -181.8 1.179e+04 9.847e-10
 99.75151   -181.4 1.171e+04 9.282e-10
 99.76259   -180.4 1.163e+04 8.603e-10
 99.78314   -180.1 1.160e+04 8.366e-10
 99.79447   -180.5 1.176e+04 8.369e-10
 99.80555   -179.2 1.157e+04 7.807e-10
 99.82636   -181.0 1.236e+04 8.898e-10
 99.83744   -179.5 1.200e+04 8.230e-10
 99.84962   -181.6 1.283e+04 1.110e-09
 99.86932   -183.5 1.359e+04 1.609e-09
 99.88040   -181.8 1.315e+04 1.401e-09
 99.89394   -183.7 1.361e+04 1.801e-09
 99.91229   -185.6 1.372e+04 1.936e-09
 99.92337   -183.8 1.347e+04 1.786e-09
 99.93826   -185.7 1.336e+04 1.766e-09
 99.95525   -187.1 1.279e+04 1.318e-09
 99.96633   -185.3 1.273e+04 1.330e-09
 99.97371   -186.8 1.195e+04 8.173e-10
 99.98479   -186.2 1.187e+04 7.929e-10
 99.99821   -187.7 1.119e+04 4.553e-10
