# Columns:
#   distance along LOS (in CHIMPs)
#   peculiar velocity  (in km/s)
#   temperature (K)
#   HI number density
# pos=(8.88413,29.4479,108.272), angles=(2.87228,3.27362)
  0.00185   -208.0 1.137e+04 5.189e-10
  0.02406   -206.6 1.141e+04 4.663e-10
  0.06214   -204.8 1.132e+04 4.269e-10
  0.08240   -204.4 1.159e+04 3.885e-10
  0.10520   -202.0 1.146e+04 3.512e-10
  0.14573   -199.5 1.131e+04 3.201e-10
  0.18625   -196.9 1.118e+04 2.969e-10
  0.21723   -194.4 1.112e+04 2.799e-10
  0.23749   -194.3 1.098e+04 2.117e-10
  0.26730   -191.9 1.094e+04 1.844e-10
  0.30782   -189.5 1.095e+04 1.659e-10
  0.34834   -187.3 1.099e+04 1.583e-10
  0.37233   -185.3 1.101e+04 1.578e-10
  0.39259   -185.1 1.092e+04 1.208e-10
  0.42939   -183.2 1.095e+04 1.188e-10
  0.46991   -181.4 1.106e+04 1.231e-10
  0.50717   -179.7 1.113e+04 1.397e-10
  0.52743   -179.2 1.103e+04 1.059e-10
  0.55096   -177.5 1.110e+04 1.161e-10
  0.59148   -175.7 1.113e+04 1.293e-10
  0.63201   -173.7 1.112e+04 1.408e-10
  0.66226   -171.6 1.110e+04 1.474e-10
  0.68252   -170.9 1.124e+04 1.243e-10
  0.71305   -168.7 1.123e+04 1.316e-10
  0.75357   -166.3 1.119e+04 1.387e-10
  0.79410   -164.0 1.114e+04 1.440e-10
  0.81736   -161.6 1.110e+04 1.470e-10
  0.83762   -161.0 1.126e+04 1.666e-10
  0.86907   -158.7 1.122e+04 1.811e-10
  0.88933   -157.5 1.091e+04 1.451e-10
  0.91567   -155.2 1.087e+04 1.538e-10
  0.95220   -152.8 1.085e+04 1.587e-10
  0.97246   -152.2 1.102e+04 2.195e-10
  0.99671   -149.9 1.104e+04 2.454e-10
  1.03724   -147.6 1.110e+04 2.754e-10
  1.07776   -145.4 1.124e+04 3.222e-10
  1.10729   -143.4 1.142e+04 4.092e-10
  1.12755   -142.5 1.189e+04 8.633e-10
  1.15881   -140.4 1.221e+04 1.065e-09
  1.19933   -138.5 1.240e+04 1.239e-09
  1.23985   -136.7 1.248e+04 1.354e-09
  1.26239   -135.0 1.251e+04 1.394e-09
  1.28265   -134.6 1.325e+04 1.935e-09
  1.32090   -133.2 1.297e+04 1.240e-09
  1.36142   -132.6 1.257e+04 6.779e-10
  1.39723   -132.6 1.175e+04 3.793e-10
  1.41749   -132.9 1.181e+04 7.771e-10
  1.44247   -133.9 1.124e+04 6.072e-10
  1.48299   -135.1 1.118e+04 5.919e-10
  1.52352   -136.7 1.123e+04 6.305e-10
  1.55232   -138.4 1.126e+04 6.916e-10
  1.57259   -139.8 1.177e+04 1.114e-09
  1.60456   -142.3 1.178e+04 1.108e-09
  1.64509   -145.5 1.229e+04 1.240e-09
  1.67538   -148.4 1.290e+04 2.057e-09
  1.69554   -149.3 1.307e+04 2.610e-09
  1.70723   -149.9 1.311e+04 3.030e-09
  1.71736   -150.4 1.317e+04 3.136e-09
  1.73607   -150.7 1.309e+04 3.135e-09
  1.75633   -150.6 1.269e+04 2.767e-09
  1.77464   -150.5 1.225e+04 2.155e-09
  1.78477   -151.1 1.178e+04 1.596e-09
  1.79685   -151.6 1.133e+04 1.207e-09
  1.81711   -152.2 1.090e+04 9.571e-10
  1.83738   -152.6 1.053e+04 8.074e-10
  1.85219   -152.7 1.025e+04 7.211e-10
  1.86232   -153.3 9.917e+03 6.431e-10
  1.87790   -152.8 9.777e+03 6.125e-10
  1.89816   -152.3 9.663e+03 5.910e-10
  1.91842   -151.7 9.544e+03 5.692e-10
  1.92974   -151.0 9.415e+03 5.442e-10
  1.93987   -151.2 9.291e+03 5.057e-10
  1.95894   -150.6 9.211e+03 4.884e-10
  1.97921   -149.8 9.143e+03 4.739e-10
  1.99383   -148.9 9.119e+03 4.662e-10
  2.00175   -148.2 9.025e+03 4.363e-10
  2.01762   -148.8 8.868e+03 3.728e-10
  2.05032   -147.1 8.844e+03 3.695e-10
  2.09084   -145.4 8.847e+03 3.807e-10
  2.13136   -143.6 8.860e+03 3.982e-10
  2.15245   -141.8 8.863e+03 4.110e-10
  2.17271   -142.3 9.083e+03 4.749e-10
  2.21241   -140.4 9.147e+03 5.020e-10
  2.25293   -138.7 9.271e+03 5.357e-10
  2.28729   -137.2 9.536e+03 6.008e-10
  2.30755   -138.3 1.040e+04 8.819e-10
  2.33398   -137.2 1.099e+04 1.154e-09
  2.37450   -136.2 1.163e+04 1.568e-09
  2.40480   -136.1 1.226e+04 2.127e-09
  2.42496   -135.7 1.236e+04 2.217e-09
  2.44219   -135.4 1.239e+04 2.234e-09
  2.45232   -136.1 1.290e+04 2.859e-09
  2.46548   -135.6 1.261e+04 2.587e-09
  2.48575   -134.8 1.212e+04 2.067e-09
  2.50601   -134.1 1.159e+04 1.584e-09
  2.51974   -133.4 1.109e+04 1.202e-09
  2.52987   -133.5 1.110e+04 1.197e-09
  2.54618   -132.8 1.065e+04 9.089e-10
  2.55631   -132.7 1.069e+04 9.250e-10
  2.57702   -132.0 1.015e+04 6.541e-10
  2.61764   -130.3 9.408e+03 3.656e-10
  2.65817   -129.0 9.097e+03 2.759e-10
  2.69869   -126.6 8.665e+03 1.910e-10
  2.73232   -124.2 8.355e+03 1.396e-10
  2.75258   -124.1 8.476e+03 1.562e-10
  2.77974   -121.7 8.323e+03 1.216e-10
  2.82026   -119.4 8.295e+03 1.020e-10
  2.86078   -117.1 8.325e+03 9.496e-11
  2.88742   -114.9 8.337e+03 9.420e-11
  2.90768   -115.3 8.580e+03 1.002e-10
  2.94183   -113.7 8.849e+03 1.065e-10
  2.98235   -112.3 9.154e+03 1.622e-10
  3.02225   -110.6 9.461e+03 2.814e-10
  3.04251   -110.7 9.339e+03 2.911e-10
  3.06340   -108.6 9.544e+03 3.722e-10
  3.09872   -106.6 9.657e+03 4.038e-10
  3.11898   -106.0 9.737e+03 4.239e-10
  3.14444   -104.0 9.832e+03 4.590e-10
  3.17735   -102.0 9.834e+03 4.573e-10
  3.19761   -102.1 9.437e+03 2.764e-10
  3.22549   -100.1 9.434e+03 2.416e-10
  3.26601    -98.5 9.487e+03 2.208e-10
  3.30654    -97.4 9.656e+03 2.208e-10
  3.33245    -96.9 1.009e+04 2.663e-10
  3.35271    -98.5 1.037e+04 3.687e-10
  3.38758    -98.2 1.085e+04 6.249e-10
  3.42811    -98.1 1.131e+04 9.142e-10
  3.46728    -98.2 1.162e+04 1.112e-09
  3.48754    -99.5 1.143e+04 1.029e-09
  3.50915    -99.6 1.135e+04 9.386e-10
  3.54968    -99.4 1.104e+04 6.803e-10
  3.59020    -98.9 1.062e+04 4.404e-10
  3.62238    -98.0 1.024e+04 2.969e-10
  3.64264    -98.5 9.961e+03 2.314e-10
  3.67125    -97.1 9.789e+03 1.764e-10
  3.71177    -95.6 9.696e+03 1.380e-10
  3.75229    -94.1 9.735e+03 1.132e-10
  3.77748    -92.6 9.829e+03 9.750e-11
  3.79774    -92.8 9.920e+03 1.026e-10
  3.83334    -91.7 1.015e+04 1.056e-10
  3.87386    -90.6 1.025e+04 1.260e-10
  3.91231    -89.5 1.026e+04 1.575e-10
  3.93257    -89.7 1.032e+04 2.910e-10
  3.95491    -88.5 1.048e+04 3.451e-10
  3.99543    -87.5 1.064e+04 3.631e-10
  4.03595    -86.8 1.075e+04 3.594e-10
  4.06741    -86.3 1.087e+04 3.358e-10
  4.08767    -87.0 1.099e+04 3.610e-10
  4.11700    -86.9 1.096e+04 3.377e-10
  4.15752    -86.6 1.090e+04 3.249e-10
  4.19805    -86.2 1.079e+04 2.900e-10
  4.22251    -85.6 1.063e+04 2.292e-10
  4.22788    -86.6 1.047e+04 2.014e-10
  4.24394    -87.4 1.014e+04 1.548e-10
  4.27909    -86.8 1.004e+04 1.344e-10
  4.31962    -86.1 1.001e+04 1.310e-10
  4.35734    -85.5 9.869e+03 1.461e-10
  4.37760    -85.8 9.717e+03 1.730e-10
  4.40066    -86.0 1.040e+04 2.661e-10
  4.43096    -82.2 1.034e+04 2.309e-10
  4.44483    -87.1 1.284e+04 3.999e-10
  4.45496    -90.1 1.443e+04 6.344e-10
  4.47138    -95.2 1.846e+04 9.040e-10
  4.49165   -101.6 1.996e+04 2.615e-09
  4.51191   -104.9 1.890e+04 7.522e-09
  4.52238   -105.5 1.814e+04 1.723e-08
  4.53251   -105.3 1.798e+04 2.020e-08
  4.55243   -104.0 1.766e+04 2.637e-08
  4.57269   -101.5 1.739e+04 2.717e-08
  4.58784    -98.5 1.704e+04 1.537e-08
  4.59476    -98.2 1.758e+04 9.995e-09
  4.59983    -98.8 1.726e+04 5.317e-09
  4.61317    -99.9 1.662e+04 3.146e-09
  4.63348   -102.3 1.555e+04 1.420e-09
  4.65374   -105.3 1.321e+04 5.564e-10
  4.66734   -107.8 1.055e+04 2.599e-10
  4.67747   -109.3 9.721e+03 2.156e-10
  4.69426   -108.7 9.590e+03 2.013e-10
  4.72475   -108.1 9.651e+03 2.001e-10
  4.76537   -107.7 9.729e+03 2.119e-10
  4.80237   -107.4 9.674e+03 2.347e-10
  4.82263   -109.7 9.918e+03 3.236e-10
  4.84642   -109.8 1.028e+04 4.156e-10
  4.88694   -110.2 1.081e+04 5.376e-10
  4.92747   -111.1 1.131e+04 6.864e-10
  4.95747   -112.6 1.161e+04 8.442e-10
  4.97773   -117.7 1.165e+04 8.924e-10
  5.00851   -119.6 1.159e+04 9.281e-10
  5.04903   -120.8 1.141e+04 9.199e-10
  5.08956   -121.1 1.130e+04 9.054e-10
  5.11257   -120.5 1.134e+04 8.828e-10
  5.13283   -124.9 1.067e+04 7.483e-10
  5.16038   -123.0 1.057e+04 6.796e-10
  5.17979   -122.7 1.056e+04 6.723e-10
  5.18992   -123.9 1.053e+04 6.720e-10
  5.20080   -123.4 1.057e+04 6.907e-10
  5.22106   -122.8 1.057e+04 7.022e-10
  5.24132   -122.2 1.065e+04 7.436e-10
  5.25734   -121.5 1.073e+04 7.844e-10
  5.26747   -122.7 1.081e+04 8.462e-10
  5.28185   -122.0 1.089e+04 8.786e-10
  5.30211   -121.3 1.094e+04 8.916e-10
  5.32237   -120.6 1.101e+04 8.993e-10
  5.33489   -120.2 1.110e+04 9.129e-10
  5.34070   -121.1 1.100e+04 9.011e-10
  5.34844   -120.9 1.086e+04 8.171e-10
  5.36289   -120.2 1.083e+04 7.925e-10
  5.38316   -119.5 1.076e+04 7.541e-10
  5.40240   -118.6 1.065e+04 7.096e-10
  5.42276   -120.6 1.040e+04 6.352e-10
  5.45427   -119.4 1.016e+04 5.853e-10
  5.49479   -117.7 9.951e+03 5.534e-10
  5.53531   -115.8 9.877e+03 5.378e-10
  5.55750   -114.6 9.772e+03 5.003e-10
  5.57776   -115.2 9.551e+03 4.349e-10
  5.61636   -113.6 9.426e+03 4.105e-10
  5.64665   -112.4 9.382e+03 4.001e-10
  5.66682   -112.0 9.362e+03 3.986e-10
  5.68708   -111.1 9.510e+03 4.465e-10
  5.70237   -110.8 9.855e+03 5.471e-10
  5.71250   -111.7 9.779e+03 5.346e-10
  5.73783   -112.2 1.064e+04 8.519e-10
  5.76822   -112.1 1.136e+04 1.234e-09
  5.77992   -112.5 1.206e+04 1.705e-09
  5.79005   -113.8 1.200e+04 1.651e-09
  5.80865   -114.6 1.295e+04 2.468e-09
  5.82891   -115.4 1.398e+04 3.754e-09
  5.84734   -115.9 1.469e+04 5.102e-09
  5.85747   -117.1 1.417e+04 4.473e-09
  5.86943   -117.6 1.430e+04 4.832e-09
  5.88970   -118.0 1.413e+04 4.762e-09
  5.90079   -118.0 1.335e+04 3.680e-09
  5.91092   -118.2 1.303e+04 3.307e-09
  5.92488   -118.7 1.221e+04 2.258e-09
  5.93502   -119.3 1.181e+04 1.876e-09
  5.95048   -120.2 1.105e+04 1.315e-09
  5.97074   -121.0 1.038e+04 9.644e-10
  5.99100   -121.3 9.931e+03 7.679e-10
  6.00243   -121.4 9.658e+03 6.514e-10
  6.01256   -121.5 9.782e+03 7.080e-10
  6.03153   -121.3 9.588e+03 6.183e-10
  6.05179   -121.3 9.374e+03 5.219e-10
  6.06985   -121.4 9.142e+03 4.350e-10
  6.07998   -121.2 9.298e+03 4.801e-10
  6.10254   -121.9 8.957e+03 3.742e-10
  6.13746   -122.5 8.721e+03 3.234e-10
  6.15773   -123.5 9.173e+03 3.800e-10
  6.18368   -128.7 9.665e+03 4.174e-10
  6.21398   -133.8 1.008e+04 6.524e-10
  6.22495   -136.9 1.215e+04 1.489e-09
  6.23508   -137.2 1.288e+04 2.163e-09
  6.25440   -139.4 1.440e+04 4.070e-09
  6.27467   -141.8 1.563e+04 6.473e-09
  6.29237   -144.3 1.633e+04 8.490e-09
  6.30250   -145.4 1.612e+04 7.826e-09
  6.31519   -147.9 1.623e+04 8.381e-09
  6.33545   -150.0 1.619e+04 8.476e-09
  6.35571   -151.2 1.569e+04 8.111e-09
  6.36991   -151.6 1.507e+04 6.747e-09
  6.38005   -152.2 1.502e+04 6.688e-09
  6.39624   -152.0 1.426e+04 4.961e-09
  6.41650   -151.6 1.343e+04 3.407e-09
  6.43676   -151.4 1.263e+04 2.283e-09
  6.44746   -151.3 1.187e+04 1.480e-09
  6.45371   -151.7 1.188e+04 1.478e-09
  6.46327   -151.3 1.201e+04 1.869e-09
  6.47728   -150.9 1.155e+04 1.356e-09
  6.49754   -150.4 1.124e+04 1.004e-09
  6.51488   -149.9 1.102e+04 7.784e-10
  6.52501   -150.3 1.126e+04 8.805e-10
  6.53807   -149.7 1.109e+04 7.369e-10
  6.55833   -148.9 1.095e+04 6.444e-10
  6.57859   -147.9 1.089e+04 5.847e-10
  6.59243   -146.9 1.089e+04 5.509e-10
  6.60256   -147.2 1.126e+04 6.429e-10
  6.61911   -146.3 1.125e+04 6.134e-10
  6.63938   -145.3 1.125e+04 6.050e-10
  6.65964   -144.6 1.126e+04 6.050e-10
  6.66998   -144.2 1.136e+04 6.341e-10
  6.68011   -144.6 1.145e+04 7.137e-10
  6.70016   -144.2 1.159e+04 8.585e-10
  6.72042   -143.8 1.181e+04 1.129e-09
  6.73740   -143.3 1.222e+04 1.550e-09
  6.74753   -143.6 1.229e+04 1.628e-09
  6.76094   -143.1 1.283e+04 2.173e-09
  6.78121   -142.7 1.346e+04 2.881e-09
  6.80147   -142.3 1.400e+04 3.700e-09
  6.81495   -142.0 1.438e+04 4.411e-09
  6.82508   -142.5 1.398e+04 3.741e-09
  6.84199   -142.4 1.407e+04 3.963e-09
  6.86225   -142.4 1.406e+04 3.999e-09
  6.88236   -142.2 1.378e+04 3.834e-09
  6.89249   -142.4 1.333e+04 3.233e-09
  6.90278   -141.8 1.295e+04 2.803e-09
  6.92304   -141.2 1.255e+04 2.278e-09
  6.94330   -140.6 1.219e+04 1.848e-09
  6.95991   -140.0 1.188e+04 1.522e-09
  6.97004   -140.0 1.168e+04 1.348e-09
  6.98382   -139.5 1.145e+04 1.146e-09
  7.00408   -138.9 1.124e+04 1.005e-09
  7.01562   -138.2 1.108e+04 9.081e-10
  7.02575   -138.1 1.109e+04 8.711e-10
  7.03746   -137.4 1.096e+04 8.158e-10
  7.04759   -137.4 1.087e+04 7.491e-10
  7.06487   -136.7 1.077e+04 6.994e-10
  7.08513   -135.9 1.067e+04 6.524e-10
  7.10488   -135.2 1.059e+04 6.109e-10
  7.11501   -135.2 1.056e+04 5.748e-10
  7.12565   -134.4 1.050e+04 5.434e-10
  7.14592   -133.5 1.047e+04 5.178e-10
  7.16618   -132.7 1.042e+04 4.916e-10
  7.18243   -131.7 1.038e+04 4.634e-10
  7.20279   -131.3 1.040e+04 4.365e-10
  7.23729   -130.0 1.039e+04 4.291e-10
  7.27781   -128.5 1.033e+04 4.055e-10
  7.31746   -127.0 1.031e+04 3.784e-10
  7.33772   -126.9 1.035e+04 3.875e-10
  7.35886   -125.4 1.027e+04 3.430e-10
  7.39938   -124.0 1.019e+04 2.969e-10
  7.43990   -122.5 1.012e+04 2.602e-10
  7.47256   -121.0 1.009e+04 2.449e-10
  7.49282   -120.7 1.004e+04 2.286e-10
  7.52095   -119.1 1.003e+04 2.242e-10
  7.55803   -117.5 1.013e+04 2.321e-10
  7.57829   -117.9 1.016e+04 2.443e-10
  7.60200   -116.5 1.037e+04 2.752e-10
  7.62765   -115.1 1.063e+04 3.324e-10
  7.64791   -114.3 1.051e+04 3.024e-10
  7.68304   -112.9 1.077e+04 3.682e-10
  7.72357   -111.7 1.099e+04 4.356e-10
  7.76249   -110.8 1.109e+04 4.650e-10
  7.78275   -109.8 1.109e+04 4.669e-10
  7.80461   -109.0 1.118e+04 4.818e-10
  7.84514   -107.9 1.125e+04 4.819e-10
  7.88566   -106.6 1.119e+04 3.891e-10
  7.91759   -105.1 1.104e+04 2.710e-10
  7.93785   -104.4 1.128e+04 3.470e-10
  7.96671   -103.0 1.112e+04 2.353e-10
  8.00723   -101.6 1.102e+04 1.429e-10
  8.04775   -100.4 1.102e+04 8.722e-11
  8.07268    -99.3 1.098e+04 6.727e-11
  8.09294    -98.8 1.112e+04 1.066e-10
  8.12880    -97.5 1.106e+04 9.904e-11
  8.16932    -95.7 1.100e+04 1.031e-10
  8.20752    -94.0 1.098e+04 1.166e-10
  8.22778    -93.6 1.111e+04 1.674e-10
  8.25037    -91.8 1.111e+04 1.815e-10
  8.29089    -89.9 1.111e+04 1.896e-10
  8.33141    -88.1 1.113e+04 1.898e-10
  8.36262    -86.5 1.118e+04 1.885e-10
  8.38288    -86.4 1.133e+04 2.798e-10
  8.41246    -85.0 1.141e+04 2.941e-10
  8.45298    -83.9 1.153e+04 3.300e-10
  8.49351    -82.9 1.165e+04 4.036e-10
  8.51771    -81.9 1.177e+04 5.009e-10
  8.53798    -81.8 1.192e+04 6.322e-10
  8.57455    -80.8 1.194e+04 6.972e-10
  8.61508    -79.8 1.189e+04 7.194e-10
  8.65255    -78.7 1.172e+04 6.797e-10
  8.67281    -78.5 1.171e+04 6.943e-10
  8.68299    -77.3 1.145e+04 5.544e-10
  8.70325    -77.0 1.173e+04 6.819e-10
  8.73665    -75.9 1.154e+04 5.482e-10
  8.77717    -74.6 1.132e+04 4.246e-10
  8.80765    -73.2 1.111e+04 3.453e-10
  8.82791    -72.9 1.109e+04 3.132e-10
  8.85822    -71.4 1.096e+04 2.702e-10
  8.89874    -69.8 1.091e+04 2.454e-10
  8.93926    -68.3 1.091e+04 2.326e-10
  8.96274    -66.9 1.092e+04 2.353e-10
  8.98301    -66.8 1.092e+04 2.356e-10
  9.02031    -65.3 1.091e+04 2.517e-10
  9.06083    -63.6 1.086e+04 2.696e-10
  9.09758    -61.8 1.084e+04 2.796e-10
  9.11784    -61.6 1.085e+04 2.814e-10
  9.14188    -59.9 1.093e+04 2.476e-10
  9.18240    -58.6 1.097e+04 2.393e-10
  9.22293    -57.2 1.098e+04 2.530e-10
  9.25268    -55.6 1.100e+04 2.692e-10
  9.27294    -55.4 1.102e+04 2.769e-10
  9.30397    -53.8 1.098e+04 2.819e-10
  9.34449    -51.9 1.094e+04 2.466e-10
  9.38502    -50.2 1.092e+04 2.050e-10
  9.40777    -48.8 1.092e+04 1.753e-10
  9.42804    -48.5 1.086e+04 1.800e-10
  9.46606    -47.0 1.086e+04 1.665e-10
  9.50659    -45.4 1.077e+04 1.794e-10
  9.54261    -43.5 1.077e+04 2.047e-10
  9.56287    -43.2 1.077e+04 2.047e-10
  9.58763    -41.3 1.079e+04 2.238e-10
  9.62816    -39.6 1.086e+04 2.346e-10
  9.66868    -38.0 1.089e+04 2.416e-10
  9.69771    -36.2 1.084e+04 2.354e-10
  9.71797    -35.8 1.084e+04 2.379e-10
  9.74973    -34.0 1.082e+04 2.110e-10
  9.78768    -32.4 1.085e+04 1.867e-10
  9.80795    -32.6 1.089e+04 2.047e-10
  9.83077    -31.1 1.088e+04 1.854e-10
  9.85280    -29.6 1.086e+04 1.813e-10
  9.87307    -29.3 1.081e+04 1.742e-10
  9.91182    -27.8 1.078e+04 1.819e-10
  9.95234    -26.3 1.075e+04 1.844e-10
  9.98764    -24.6 1.071e+04 1.811e-10
 10.00790    -24.2 1.067e+04 1.755e-10
 10.03339    -22.6 1.064e+04 1.577e-10
 10.07391    -21.0 1.065e+04 1.352e-10
 10.11444    -19.4 1.066e+04 1.137e-10
 10.14274    -17.8 1.062e+04 9.548e-11
 10.16300    -17.5 1.055e+04 8.652e-11
 10.19548    -15.8 1.051e+04 7.333e-11
 10.23601    -14.1 1.047e+04 6.473e-11
 10.27653    -12.2 1.043e+04 6.071e-11
 10.29784    -10.3 1.041e+04 5.909e-11
 10.31810     -9.9 1.037e+04 5.708e-11
 10.35757     -7.8 1.037e+04 5.688e-11
 10.39810     -5.7 1.038e+04 5.624e-11
 10.43267     -3.7 1.041e+04 5.509e-11
 10.45293     -3.3 1.041e+04 5.553e-11
 10.47914     -1.4 1.043e+04 5.594e-11
 10.51967      0.4 1.046e+04 5.764e-11
 10.56019      2.1 1.049e+04 6.341e-11
 10.58777      3.7 1.047e+04 7.566e-11
 10.60803      4.0 1.045e+04 8.323e-11
 10.64124      5.7 1.044e+04 1.080e-10
 10.68176      7.4 1.046e+04 1.353e-10
 10.72228      9.0 1.051e+04 1.598e-10
 10.74287     10.3 1.062e+04 1.833e-10
 10.76313     10.5 1.065e+04 1.952e-10
 10.80333     11.6 1.078e+04 2.292e-10
 10.84385     12.6 1.086e+04 2.834e-10
 10.87770     13.5 1.089e+04 3.551e-10
 10.89796     13.9 1.087e+04 3.758e-10
 10.91264     14.7 1.090e+04 4.339e-10
 10.93290     14.7 1.083e+04 4.056e-10
 10.96542     15.2 1.093e+04 4.553e-10
 11.00595     15.3 1.109e+04 4.685e-10
 11.03280     15.1 1.130e+04 5.030e-10
 11.05306     14.7 1.150e+04 5.809e-10
 11.07676     14.0 1.170e+04 6.325e-10
 11.09693     12.7 1.218e+04 8.285e-10
 11.11015     10.8 1.286e+04 1.371e-09
 11.12028      9.9 1.322e+04 1.902e-09
 11.13745      8.8 1.357e+04 3.047e-09
 11.15771      8.6 1.375e+04 4.146e-09
 11.17757      8.6 1.378e+04 4.595e-09
 11.18770      8.3 1.369e+04 4.328e-09
 11.19824      8.2 1.354e+04 3.747e-09
 11.21850      7.8 1.326e+04 3.003e-09
 11.24899      7.2 1.293e+04 2.457e-09
 11.28961      6.8 1.252e+04 1.969e-09
 11.32273      6.9 1.209e+04 1.348e-09
 11.34299      6.6 1.199e+04 1.262e-09
 11.37066      7.5 1.167e+04 7.812e-10
 11.41118      8.2 1.137e+04 4.773e-10
 11.45170      9.0 1.101e+04 3.601e-10
 11.47783     10.3 1.076e+04 3.319e-10
 11.49809     10.5 1.085e+04 3.680e-10
 11.53275     12.3 1.076e+04 3.500e-10
 11.57327     14.2 1.074e+04 3.443e-10
 11.61267     16.3 1.075e+04 3.467e-10
 11.63293     16.5 1.077e+04 3.541e-10
 11.65432     18.6 1.083e+04 3.674e-10
 11.69484     20.6 1.094e+04 4.113e-10
 11.73536     22.5 1.107e+04 5.036e-10
 11.76776     24.4 1.133e+04 7.138e-10
 11.78802     24.7 1.133e+04 7.545e-10
 11.81641     26.5 1.196e+04 1.251e-09
 11.84521     27.1 1.224e+04 1.557e-09
 11.85525     27.3 1.227e+04 1.585e-09
 11.86687     27.8 1.263e+04 1.970e-09
 11.88713     28.1 1.297e+04 2.463e-09
 11.90739     28.4 1.326e+04 3.040e-09
 11.92266     28.7 1.354e+04 3.669e-09
 11.93280     28.7 1.355e+04 3.717e-09
 11.94792     28.9 1.387e+04 4.344e-09
 11.96818     29.0 1.408e+04 4.624e-09
 11.98844     29.0 1.408e+04 4.610e-09
 12.00021     29.0 1.390e+04 4.320e-09
 12.01034     29.1 1.377e+04 4.154e-09
 12.02727     29.4 1.340e+04 3.566e-09
 12.03740     29.9 1.334e+04 3.432e-09
 12.04922     30.3 1.303e+04 2.875e-09
 12.06763     30.8 1.274e+04 2.367e-09
 12.07776     31.1 1.272e+04 2.325e-09
 12.09998     31.8 1.234e+04 1.593e-09
 12.14060     32.5 1.173e+04 9.621e-10
 12.18112     33.3 1.153e+04 8.491e-10
 12.21279     34.4 1.156e+04 8.685e-10
 12.23305     34.5 1.168e+04 8.668e-10
 12.25194     34.5 1.161e+04 8.452e-10
 12.27210     34.6 1.160e+04 8.591e-10
 12.29015     34.8 1.158e+04 9.477e-10
 12.30028     35.0 1.170e+04 1.059e-09
 12.31262     35.6 1.191e+04 1.281e-09
 12.34311     36.0 1.205e+04 1.369e-09
 12.36789     36.4 1.195e+04 1.311e-09
 12.38815     36.6 1.202e+04 1.421e-09
 12.42426     37.0 1.163e+04 1.091e-09
 12.46478     37.2 1.124e+04 7.286e-10
 12.50273     37.3 1.095e+04 4.940e-10
 12.52299     37.4 1.092e+04 4.361e-10
 12.54583     37.6 1.078e+04 3.798e-10
 12.58635     38.2 1.076e+04 3.788e-10
 12.62687     39.1 1.079e+04 3.907e-10
 12.65782     40.0 1.086e+04 4.115e-10
 12.67808     40.3 1.087e+04 4.085e-10
 12.70792     41.1 1.093e+04 4.238e-10
 12.74844     41.8 1.095e+04 4.264e-10
 12.78897     42.5 1.095e+04 4.292e-10
 12.81292     43.2 1.093e+04 4.359e-10
 12.83318     43.8 1.092e+04 4.180e-10
 12.87001     44.8 1.088e+04 4.044e-10
 12.91054     46.0 1.087e+04 4.094e-10
 12.94776     47.3 1.088e+04 4.317e-10
 12.96802     48.1 1.083e+04 3.533e-10
 12.99158     49.6 1.082e+04 3.639e-10
 13.03211     51.3 1.079e+04 3.680e-10
 13.07263     53.0 1.074e+04 3.645e-10
 13.10285     54.9 1.064e+04 3.452e-10
 13.12312     56.0 1.059e+04 2.844e-10
 13.14230     57.8 1.050e+04 2.577e-10
 13.16256     57.7 1.051e+04 2.868e-10
 13.19420     59.7 1.048e+04 2.947e-10
 13.23472     61.7 1.048e+04 3.146e-10
 13.25795     63.9 1.052e+04 3.514e-10
 13.27821     64.8 1.044e+04 3.413e-10
 13.31577     67.0 1.051e+04 4.029e-10
 13.35629     69.2 1.062e+04 4.791e-10
 13.39279     71.4 1.076e+04 5.595e-10
 13.41305     72.3 1.067e+04 4.874e-10
 13.43734     74.3 1.078e+04 5.367e-10
 13.47786     76.2 1.088e+04 5.759e-10
 13.51839     78.0 1.097e+04 6.084e-10
 13.54788     79.7 1.105e+04 6.419e-10
 13.56815     80.4 1.093e+04 5.625e-10
 13.59943     82.0 1.105e+04 6.190e-10
 13.63995     83.6 1.116e+04 6.784e-10
 13.68048     85.2 1.124e+04 7.296e-10
 13.70298     86.8 1.129e+04 7.683e-10
 13.72324     87.2 1.128e+04 7.517e-10
 13.76152     88.6 1.131e+04 7.809e-10
 13.80205     90.0 1.130e+04 7.865e-10
 13.83782     91.4 1.126e+04 7.733e-10
 13.85808     91.6 1.121e+04 7.455e-10
 13.88309     92.9 1.116e+04 7.269e-10
 13.92362     94.0 1.110e+04 7.074e-10
 13.96414     95.2 1.107e+04 7.180e-10
 13.99291     96.4 1.104e+04 7.344e-10
 14.01318     96.4 1.109e+04 7.666e-10
 14.04519     97.7 1.108e+04 7.825e-10
 14.08571     99.0 1.114e+04 8.153e-10
 14.12623    100.3 1.121e+04 8.629e-10
 14.14801    101.7 1.127e+04 9.136e-10
 14.16827    101.6 1.121e+04 8.705e-10
 14.20728    102.9 1.124e+04 8.820e-10
 14.24699    104.3 1.124e+04 8.814e-10
 14.26725    103.8 1.132e+04 8.951e-10
 14.28285    105.1 1.129e+04 8.904e-10
 14.30311    105.0 1.117e+04 8.499e-10
 14.32885    106.4 1.116e+04 8.576e-10
 14.36937    107.8 1.114e+04 8.830e-10
 14.40990    109.3 1.115e+04 9.497e-10
 14.43795    110.7 1.124e+04 1.046e-09
 14.45821    110.8 1.114e+04 9.908e-10
 14.49094    112.1 1.120e+04 1.006e-09
 14.53147    113.3 1.121e+04 9.988e-10
 14.57199    114.2 1.122e+04 9.422e-10
 14.59304    114.9 1.119e+04 8.521e-10
 14.61330    114.7 1.116e+04 8.054e-10
 14.65304    115.1 1.116e+04 8.081e-10
 14.69356    115.3 1.119e+04 8.319e-10
 14.72788    115.3 1.141e+04 9.698e-10
 14.74814    114.5 1.164e+04 1.107e-09
 14.76438    114.4 1.187e+04 1.329e-09
 14.78454    114.2 1.209e+04 1.625e-09
 14.80480    114.0 1.240e+04 2.080e-09
 14.81536    114.0 1.264e+04 2.555e-09
 14.81984    113.6 1.266e+04 2.596e-09
 14.82954    113.6 1.266e+04 2.631e-09
 14.85555    113.8 1.297e+04 3.153e-09
 14.88298    113.3 1.297e+04 3.226e-09
 14.90324    112.4 1.267e+04 2.731e-09
 14.93670    112.1 1.236e+04 2.275e-09
 14.97722    112.1 1.191e+04 1.564e-09
 15.01774    112.3 1.146e+04 9.685e-10
 15.05827    112.5 1.083e+04 4.964e-10
 15.09879    113.7 1.080e+04 4.873e-10
 15.13931    115.3 1.079e+04 4.927e-10
 15.17291    117.1 1.081e+04 5.249e-10
 15.19317    117.9 1.076e+04 5.122e-10
 15.22036    119.8 1.085e+04 5.656e-10
 15.26088    121.7 1.099e+04 6.374e-10
 15.30141    123.6 1.115e+04 7.259e-10
 15.32801    125.5 1.133e+04 8.243e-10
 15.34827    126.2 1.131e+04 7.593e-10
 15.37195    128.0 1.153e+04 9.263e-10
 15.39221    128.2 1.121e+04 6.092e-10
 15.42298    130.0 1.147e+04 8.249e-10
 15.46284    131.8 1.181e+04 1.184e-09
 15.48310    132.4 1.188e+04 1.269e-09
 15.50402    134.2 1.244e+04 2.008e-09
 15.54455    135.8 1.300e+04 2.830e-09
 15.58507    137.0 1.337e+04 3.075e-09
 15.61794    137.7 1.336e+04 2.988e-09
 15.63820    138.5 1.398e+04 4.256e-09
 15.66612    139.1 1.391e+04 3.898e-09
 15.70664    139.5 1.356e+04 2.917e-09
 15.74716    140.0 1.303e+04 1.882e-09
 15.77304    140.9 1.238e+04 1.088e-09
 15.79330    141.2 1.306e+04 1.621e-09
 15.82821    142.1 1.234e+04 8.640e-10
 15.86873    143.4 1.162e+04 4.888e-10
 15.90787    145.0 1.104e+04 3.392e-10
 15.92813    145.2 1.148e+04 5.098e-10
 15.94978    147.4 1.101e+04 3.910e-10
 15.99030    149.9 1.080e+04 3.473e-10
 16.03082    152.5 1.072e+04 3.249e-10
 16.06297    155.1 1.071e+04 3.034e-10
 16.08323    155.6 1.078e+04 3.507e-10
 16.11187    158.2 1.077e+04 3.151e-10
 16.15239    160.7 1.078e+04 2.759e-10
 16.19292    163.0 1.079e+04 2.343e-10
 16.21807    165.2 1.079e+04 1.933e-10
 16.23833    165.9 1.081e+04 2.172e-10
 16.27396    168.1 1.080e+04 1.772e-10
 16.31449    170.3 1.080e+04 1.435e-10
 16.35290    172.5 1.078e+04 1.184e-10
 16.37316    173.2 1.078e+04 1.387e-10
 16.39553    175.4 1.078e+04 1.190e-10
 16.43606    177.5 1.076e+04 1.074e-10
 16.47658    179.7 1.073e+04 1.030e-10
 16.50800    182.1 1.072e+04 1.022e-10
 16.52826    182.9 1.073e+04 1.251e-10
 16.55763    185.0 1.073e+04 1.235e-10
 16.59815    187.1 1.073e+04 1.229e-10
 16.63867    189.1 1.075e+04 1.255e-10
 16.66310    191.2 1.076e+04 1.340e-10
 16.68336    191.6 1.085e+04 1.720e-10
 16.71972    193.6 1.089e+04 1.926e-10
 16.76024    195.7 1.092e+04 2.237e-10
 16.79793    197.7 1.096e+04 2.653e-10
 16.81819    197.9 1.111e+04 3.214e-10
 16.84129    199.9 1.117e+04 3.670e-10
 16.88181    202.0 1.125e+04 4.081e-10
 16.92233    204.0 1.134e+04 4.354e-10
 16.95303    206.0 1.139e+04 4.488e-10
 16.97329    205.6 1.144e+04 4.381e-10
 17.00338    207.6 1.144e+04 4.184e-10
 17.04390    209.8 1.141e+04 3.909e-10
 17.08443    211.9 1.139e+04 3.654e-10
 17.10813    214.2 1.141e+04 3.499e-10
 17.12839    213.9 1.140e+04 3.162e-10
 17.16547    216.3 1.141e+04 3.124e-10
 17.20600    218.7 1.143e+04 3.118e-10
 17.24296    221.2 1.148e+04 3.210e-10
 17.26323    220.9 1.147e+04 3.163e-10
 17.28704    223.4 1.152e+04 3.322e-10
 17.32757    225.8 1.156e+04 3.494e-10
 17.36809    228.2 1.160e+04 3.623e-10
 17.39806    230.5 1.164e+04 3.686e-10
 17.41832    230.3 1.163e+04 3.675e-10
 17.44914    232.8 1.167e+04 3.751e-10
 17.48966    235.2 1.172e+04 3.871e-10
 17.53018    237.6 1.179e+04 4.015e-10
 17.55316    240.0 1.184e+04 4.158e-10
 17.57342    240.5 1.202e+04 5.167e-10
 17.60160    242.9 1.214e+04 5.361e-10
 17.62187    243.4 1.230e+04 6.478e-10
 17.64152    244.4 1.236e+04 6.590e-10
 17.66169    245.2 1.245e+04 6.788e-10
 17.68195    245.9 1.254e+04 7.117e-10
 17.69793    246.6 1.261e+04 7.680e-10
 17.70806    246.4 1.285e+04 1.087e-09
 17.72247    247.0 1.300e+04 1.240e-09
 17.74273    247.5 1.319e+04 1.450e-09
 17.76300    247.9 1.344e+04 1.725e-09
 17.77548    248.2 1.373e+04 2.067e-09
 17.78561    247.9 1.482e+04 3.626e-09
 17.80352    248.2 1.532e+04 4.330e-09
 17.82378    248.3 1.574e+04 4.966e-09
 17.84290    248.4 1.611e+04 5.377e-09
 17.85303    247.9 1.741e+04 8.088e-09
 17.86430    247.8 1.746e+04 7.934e-09
 17.88457    247.7 1.741e+04 7.478e-09
 17.90483    247.5 1.714e+04 6.636e-09
 17.92044    247.2 1.669e+04 5.581e-09
 17.93058    246.0 1.669e+04 5.687e-09
 17.94535    245.7 1.601e+04 4.465e-09
 17.96561    245.4 1.540e+04 3.529e-09
 17.98587    245.2 1.494e+04 2.871e-09
 17.99799    245.0 1.461e+04 2.429e-09
 18.00812    244.4 1.446e+04 2.353e-09
 18.02640    244.6 1.426e+04 2.110e-09
 18.04666    245.0 1.405e+04 1.948e-09
 18.06541    245.5 1.384e+04 1.855e-09
 18.07554    245.6 1.386e+04 1.948e-09
 18.09741    246.7 1.358e+04 1.688e-09
 18.13302    247.9 1.335e+04 1.567e-09
 18.15329    247.8 1.345e+04 1.680e-09
 18.17855    248.7 1.310e+04 1.409e-09
 18.21908    249.7 1.275e+04 1.192e-09
 18.25960    250.8 1.244e+04 1.049e-09
 18.28812    252.0 1.220e+04 9.639e-10
 18.30838    252.2 1.188e+04 8.484e-10
 18.34065    253.7 1.179e+04 8.339e-10
 18.38117    255.3 1.176e+04 8.194e-10
 18.42169    256.9 1.174e+04 7.902e-10
 18.44322    258.4 1.167e+04 7.541e-10
 18.46348    259.2 1.146e+04 6.428e-10
 18.50274    260.9 1.141e+04 6.096e-10
 18.54326    262.6 1.137e+04 5.455e-10
 18.57356    263.2 1.131e+04 4.986e-10
 18.58799    263.5 1.126e+04 4.604e-10
 18.59822    263.2 1.104e+04 3.837e-10
 18.62431    264.7 1.094e+04 3.539e-10
 18.66483    266.5 1.084e+04 3.273e-10
 18.70536    268.5 1.074e+04 3.086e-10
 18.72656    270.6 1.072e+04 3.051e-10
 18.73410    270.9 1.079e+04 3.082e-10
 18.75341    271.4 1.076e+04 3.081e-10
 18.78640    273.4 1.075e+04 3.209e-10
 18.82693    275.5 1.081e+04 3.518e-10
 18.85722    276.1 1.083e+04 3.768e-10
 18.87738    276.5 1.083e+04 4.045e-10
 18.88805    276.9 1.078e+04 4.382e-10
 18.89819    276.2 1.072e+04 4.590e-10
 18.91791    276.9 1.065e+04 4.722e-10
 18.93817    277.6 1.064e+04 4.695e-10
 18.95547    278.3 1.060e+04 4.607e-10
 18.96560    277.2 1.061e+04 4.407e-10
 18.97869    277.9 1.055e+04 4.214e-10
 18.99895    278.6 1.050e+04 3.990e-10
 19.01922    279.1 1.046e+04 3.749e-10
 19.03302    279.6 1.043e+04 3.509e-10
 19.04315    277.4 1.055e+04 3.507e-10
 19.05974    277.6 1.064e+04 3.442e-10
 19.08000    277.9 1.071e+04 3.530e-10
 19.10026    278.2 1.084e+04 3.771e-10
 19.11057    278.6 1.100e+04 4.094e-10
 19.12070    276.2 1.184e+04 6.592e-10
 19.14078    276.7 1.199e+04 7.202e-10
 19.16105    277.1 1.214e+04 7.822e-10
 19.17799    277.4 1.229e+04 8.488e-10
 19.18812    275.0 1.270e+04 1.163e-09
 19.20157    275.1 1.277e+04 1.228e-09
 19.22183    275.2 1.285e+04 1.315e-09
 19.24209    275.2 1.299e+04 1.445e-09
 19.25554    275.1 1.319e+04 1.646e-09
 19.26567    272.3 1.314e+04 1.743e-09
 19.27871    272.1 1.341e+04 2.005e-09
 19.28884    272.2 1.369e+04 2.216e-09
 19.30288    271.8 1.411e+04 2.607e-09
 19.32295    271.2 1.448e+04 3.076e-09
 19.33308    268.1 1.400e+04 2.736e-09
 19.34340    267.0 1.405e+04 2.725e-09
 19.36366    265.5 1.404e+04 2.650e-09
 19.38392    263.7 1.389e+04 2.485e-09
 19.40050    261.9 1.359e+04 2.264e-09
 19.41063    258.7 1.241e+04 1.716e-09
 19.42445    257.3 1.196e+04 1.540e-09
 19.44471    255.9 1.160e+04 1.340e-09
 19.46497    254.5 1.134e+04 1.129e-09
 19.47805    252.9 1.116e+04 9.112e-10
 19.48818    251.3 1.121e+04 7.326e-10
 19.50549    248.9 1.110e+04 5.337e-10
 19.52576    246.1 1.083e+04 3.874e-10
 19.54547    243.3 1.037e+04 2.973e-10
 19.55560    242.1 9.899e+03 2.505e-10
 19.56628    241.0 9.459e+03 2.434e-10
 19.59677    240.4 9.452e+03 2.541e-10
 19.62321    239.6 9.410e+03 2.590e-10
 19.64347    241.0 9.116e+03 2.400e-10
 19.67791    240.5 9.230e+03 2.696e-10
 19.71844    239.7 9.478e+03 3.103e-10
 19.74873    239.4 9.575e+03 3.285e-10
 19.76798    239.1 9.698e+03 3.514e-10
 19.77812    239.9 9.718e+03 3.564e-10
 19.78916    238.9 9.946e+03 4.047e-10
 19.80942    237.7 1.021e+04 4.832e-10
 19.82968    236.6 1.046e+04 5.761e-10
 19.84119    235.6 1.067e+04 6.635e-10
 19.84692    235.2 1.072e+04 7.063e-10
 19.85566    235.9 1.060e+04 6.486e-10
 19.87020    235.0 1.081e+04 7.272e-10
 19.89046    234.1 1.103e+04 7.969e-10
 19.91073    233.2 1.124e+04 8.690e-10
 19.92308    232.2 1.148e+04 9.693e-10
 19.93321    233.0 1.137e+04 8.682e-10
 19.95125    232.1 1.173e+04 1.042e-09
 19.97151    231.3 1.214e+04 1.322e-09
 19.99050    230.7 1.255e+04 1.719e-09
 20.00063    231.3 1.263e+04 1.675e-09
 20.01203    231.3 1.306e+04 2.245e-09
 20.03230    231.4 1.347e+04 2.820e-09
 20.05256    231.5 1.365e+04 3.072e-09
 20.06805    231.6 1.364e+04 3.063e-09
 20.07818    232.3 1.390e+04 3.376e-09
 20.09308    232.4 1.388e+04 3.309e-09
 20.11334    232.4 1.372e+04 2.908e-09
 20.13360    232.4 1.336e+04 2.143e-09
 20.14560    232.1 1.282e+04 1.362e-09
 20.15573    232.7 1.318e+04 1.676e-09
 20.17413    232.0 1.249e+04 1.002e-09
 20.19439    230.6 1.163e+04 6.901e-10
 20.21301    229.1 1.130e+04 6.654e-10
 20.22315    229.9 1.146e+04 7.072e-10
 20.23491    228.5 1.144e+04 7.115e-10
 20.25517    227.3 1.145e+04 7.546e-10
 20.27543    226.1 1.166e+04 9.520e-10
 20.29056    225.0 1.222e+04 1.362e-09
 20.30069    225.7 1.209e+04 1.252e-09
 20.31596    224.7 1.262e+04 1.737e-09
 20.33622    223.6 1.306e+04 2.248e-09
 20.35648    222.4 1.330e+04 2.500e-09
 20.36811    221.1 1.332e+04 2.499e-09
 20.37824    221.9 1.303e+04 2.162e-09
 20.39354    220.4 1.305e+04 2.149e-09
 20.40367    218.6 1.341e+04 2.131e-09
 20.41727    215.8 1.420e+04 2.232e-09
 20.43553    212.5 1.505e+04 2.563e-09
 20.44566    211.3 1.559e+04 3.177e-09
 20.45779    208.5 1.589e+04 3.997e-09
 20.47805    206.8 1.598e+04 4.751e-09
 20.49320    206.1 1.612e+04 5.055e-09
 20.50328    205.1 1.644e+04 5.818e-09
 20.51298    203.7 1.679e+04 7.183e-09
 20.51805    203.2 1.700e+04 9.118e-09
 20.52354    202.1 1.725e+04 1.087e-08
 20.53367    201.2 1.761e+04 1.262e-08
 20.54380    200.3 1.811e+04 1.439e-08
 20.55176    199.4 1.884e+04 1.612e-08
 20.55682    199.3 1.933e+04 1.644e-08
 20.56407    198.1 2.046e+04 1.600e-08
 20.57420    196.2 2.073e+04 1.538e-08
 20.58433    193.9 2.105e+04 1.367e-08
 20.59053    191.0 2.074e+04 1.160e-08
 20.59560    189.6 1.997e+04 1.020e-08
 20.60459    186.8 1.900e+04 9.130e-09
 20.61983    183.6 1.809e+04 8.376e-09
 20.64014    179.6 1.754e+04 7.875e-09
 20.65805    175.2 1.703e+04 6.953e-09
 20.66818    174.7 1.714e+04 7.518e-09
 20.68067    170.9 1.681e+04 6.636e-09
 20.70093    167.5 1.653e+04 5.647e-09
 20.72119    164.6 1.601e+04 4.555e-09
 20.73559    162.2 1.513e+04 3.515e-09
 20.74572    162.6 1.557e+04 4.050e-09
 20.76171    161.0 1.435e+04 2.952e-09
 20.78197    160.0 1.318e+04 2.180e-09
 20.80224    159.5 1.234e+04 1.674e-09
 20.81314    159.0 1.187e+04 1.372e-09
 20.82327    159.3 1.185e+04 1.313e-09
 20.84276    158.8 1.171e+04 1.119e-09
 20.86302    158.4 1.169e+04 9.906e-10
 20.88056    157.9 1.181e+04 9.694e-10
 20.89069    157.8 1.175e+04 8.814e-10
 20.90354    156.9 1.187e+04 9.223e-10
 20.92381    155.5 1.233e+04 1.085e-09
 20.94407    153.6 1.318e+04 1.533e-09
 20.95602    151.5 1.420e+04 2.437e-09
 20.95993    151.3 1.507e+04 4.177e-09
 20.96824    151.6 1.472e+04 3.689e-09
 20.98459    150.2 1.555e+04 5.253e-09
 21.00485    148.6 1.601e+04 5.843e-09
 21.02511    146.8 1.601e+04 5.716e-09
 21.03566    145.0 1.575e+04 4.762e-09
 21.04579    145.8 1.539e+04 4.288e-09
 21.06564    144.4 1.470e+04 2.921e-09
 21.09304    142.1 1.352e+04 1.242e-09
 21.11340    143.8 1.322e+04 1.170e-09
 21.13675    141.3 1.099e+04 3.575e-10
 21.17727    140.0 1.004e+04 2.192e-10
 21.21779    140.3 9.924e+03 2.131e-10
 21.24824    141.3 9.911e+03 2.132e-10
 21.26850    142.4 9.934e+03 2.055e-10
 21.29884    143.7 9.950e+03 2.077e-10
 21.33936    145.1 1.005e+04 2.195e-10
 21.37989    146.4 1.028e+04 2.479e-10
 21.40333    147.3 1.058e+04 2.932e-10
 21.42360    147.9 1.055e+04 2.732e-10
 21.46093    148.3 1.085e+04 3.329e-10
 21.50146    148.2 1.105e+04 3.938e-10
 21.53175    148.6 1.116e+04 4.330e-10
 21.54811    149.0 1.135e+04 5.034e-10
 21.55824    149.3 1.134e+04 4.994e-10
 21.57218    149.6 1.156e+04 5.981e-10
 21.59244    149.6 1.176e+04 6.990e-10
 21.61270    149.5 1.189e+04 7.801e-10
 21.62565    149.4 1.199e+04 8.446e-10
 21.63579    149.7 1.188e+04 8.378e-10
 21.65322    149.3 1.189e+04 8.747e-10
 21.67349    149.0 1.186e+04 8.785e-10
 21.69317    148.9 1.193e+04 9.273e-10
 21.71353    149.5 1.156e+04 7.268e-10
 21.74460    149.3 1.155e+04 7.552e-10
 21.78512    149.0 1.163e+04 7.740e-10
 21.82564    148.4 1.177e+04 7.779e-10
 21.84837    147.6 1.183e+04 7.653e-10
 21.86863    148.7 1.137e+04 5.293e-10
 21.89646    148.2 1.146e+04 5.645e-10
 21.91559    147.8 1.151e+04 5.720e-10
 21.92572    147.8 1.131e+04 4.775e-10
 21.93689    147.4 1.120e+04 4.540e-10
 21.95715    147.1 1.111e+04 4.391e-10
 21.97741    147.1 1.107e+04 4.408e-10
 21.99314    147.1 1.106e+04 4.404e-10
 22.00337    147.9 1.094e+04 3.884e-10
 22.02826    148.2 1.089e+04 3.933e-10
 22.06091    149.0 1.085e+04 3.884e-10
 22.08117    149.0 1.112e+04 4.383e-10
 22.10931    149.9 1.104e+04 4.188e-10
 22.13830    150.9 1.087e+04 3.744e-10
 22.15856    152.3 1.064e+04 3.294e-10
 22.19035    153.4 1.050e+04 3.051e-10
 22.23087    154.8 1.049e+04 3.016e-10
 22.27140    156.3 1.052e+04 3.076e-10
 22.29340    157.7 1.065e+04 3.419e-10
 22.31366    158.8 1.045e+04 2.978e-10
 22.35244    159.7 1.061e+04 3.504e-10
 22.39297    160.3 1.071e+04 4.067e-10
 22.42326    161.2 1.067e+04 4.273e-10
 22.43817    161.7 1.068e+04 4.387e-10
 22.44840    162.6 1.053e+04 3.812e-10
 22.47401    164.0 1.045e+04 3.893e-10
 22.51454    165.3 1.043e+04 3.918e-10
 22.55506    166.8 1.043e+04 3.924e-10
 22.58333    168.3 1.046e+04 3.954e-10
 22.60359    168.8 1.025e+04 3.305e-10
 22.63611    170.0 1.032e+04 3.476e-10
 22.66078    170.5 1.041e+04 3.769e-10
 22.67081    170.8 1.034e+04 3.647e-10
 22.68657    171.3 1.036e+04 3.767e-10
 22.70683    171.7 1.052e+04 4.358e-10
 22.72709    171.9 1.069e+04 4.971e-10
 22.73823    172.1 1.108e+04 6.382e-10
 22.75859    173.7 1.093e+04 5.920e-10
 22.79820    174.7 1.163e+04 8.646e-10
 22.82849    175.1 1.193e+04 1.005e-09
 22.84866    175.1 1.224e+04 1.163e-09
 22.86892    174.6 1.264e+04 1.402e-09
 22.88320    173.9 1.304e+04 1.653e-09
 22.89333    175.9 1.279e+04 1.534e-09
 22.90944    175.2 1.323e+04 1.746e-09
 22.92970    174.2 1.340e+04 1.763e-09
 22.94997    172.9 1.339e+04 1.728e-09
 22.96075    171.7 1.325e+04 1.580e-09
 22.97088    174.1 1.341e+04 1.683e-09
 22.99049    172.9 1.313e+04 1.453e-09
 23.01075    171.7 1.263e+04 1.204e-09
 23.02816    170.7 1.209e+04 1.018e-09
 23.03829    172.8 1.235e+04 1.064e-09
 23.05127    171.8 1.179e+04 9.161e-10
 23.07154    171.1 1.142e+04 8.276e-10
 23.09180    171.0 1.120e+04 7.676e-10
 23.10571    171.2 1.106e+04 7.125e-10
 23.11584    172.3 1.102e+04 6.612e-10
 23.13232    172.4 1.089e+04 5.916e-10
 23.15258    172.5 1.080e+04 5.207e-10
 23.17284    172.4 1.078e+04 4.771e-10
 23.18326    172.2 1.079e+04 4.757e-10
 23.18596    173.4 1.065e+04 4.209e-10
 23.19580    172.3 1.089e+04 5.018e-10
 23.21337    172.0 1.097e+04 5.204e-10
 23.23363    171.6 1.114e+04 5.784e-10
 23.25068    171.2 1.134e+04 6.822e-10
 23.26081    172.5 1.126e+04 6.249e-10
 23.27415    172.2 1.150e+04 7.610e-10
 23.29441    172.1 1.167e+04 8.991e-10
 23.31468    172.2 1.174e+04 9.601e-10
 23.32823    172.4 1.172e+04 9.357e-10
 23.33836    173.6 1.194e+04 1.038e-09
 23.35520    173.7 1.190e+04 9.807e-10
 23.37546    173.7 1.184e+04 8.155e-10
 23.39565    173.3 1.180e+04 6.095e-10
 23.41591    174.2 1.195e+04 5.574e-10
 23.43625    173.2 1.175e+04 4.201e-10
 23.45651    172.2 1.116e+04 4.029e-10
 23.47319    171.5 1.103e+04 4.063e-10
 23.48333    172.9 1.101e+04 4.049e-10
 23.49703    172.4 1.089e+04 4.049e-10
 23.51729    172.4 1.085e+04 4.099e-10
 23.53755    172.3 1.087e+04 4.337e-10
 23.55074    171.9 1.109e+04 5.203e-10
 23.56087    173.0 1.104e+04 4.433e-10
 23.57808    171.0 1.204e+04 6.845e-10
 23.59834    167.2 1.424e+04 1.628e-09
 23.61816    164.4 1.556e+04 3.262e-09
 23.62829    165.4 1.576e+04 2.678e-09
 23.63375    163.0 1.683e+04 4.589e-09
 23.64383    161.0 1.795e+04 7.651e-09
 23.65396    158.8 1.961e+04 1.309e-08
 23.66190    157.9 2.022e+04 1.633e-08
 23.66697    158.0 2.030e+04 1.909e-08
 23.67422    156.4 2.098e+04 2.174e-08
 23.68435    155.4 2.115e+04 2.193e-08
 23.69448    154.2 2.146e+04 2.380e-08
 23.70068    152.6 2.168e+04 2.136e-08
 23.70574    153.5 2.178e+04 2.960e-08
 23.71474    151.7 2.247e+04 1.836e-08
 23.72488    149.1 2.298e+04 9.892e-09
 23.73797    143.1 2.339e+04 3.690e-09
 23.74815    140.8 2.365e+04 2.195e-09
 23.76043    127.3 1.504e+04 1.113e-09
 23.77326    121.0 1.202e+04 1.069e-09
 23.78339    121.8 1.197e+04 1.031e-09
 23.80095    121.1 1.187e+04 9.905e-10
 23.82122    121.1 1.184e+04 9.764e-10
 23.85171    121.0 1.199e+04 9.788e-10
 23.89233    120.0 1.170e+04 6.502e-10
 23.91842    117.9 1.100e+04 3.465e-10
 23.93868    121.8 1.141e+04 5.385e-10
 23.97337    119.9 1.053e+04 3.131e-10
 24.01390    118.4 9.607e+03 2.597e-10
 24.05326    118.2 9.467e+03 2.596e-10
 24.07352    121.0 9.604e+03 2.865e-10
 24.09494    120.8 9.523e+03 2.856e-10
 24.13547    121.0 9.519e+03 2.908e-10
 24.17599    121.2 9.554e+03 2.964e-10
 24.20835    121.3 9.566e+03 2.961e-10
 24.22861    123.5 9.532e+03 2.956e-10
 24.25704    123.5 9.526e+03 2.883e-10
 24.29057    123.6 9.472e+03 2.741e-10
 24.31083    122.9 9.470e+03 2.704e-10
 24.33808    122.9 9.376e+03 2.573e-10
 24.36345    122.9 9.274e+03 2.468e-10
 24.38371    124.7 9.384e+03 2.592e-10
 24.41913    124.6 9.373e+03 2.651e-10
 24.45965    124.5 9.429e+03 2.763e-10
 24.49829    124.2 9.558e+03 2.948e-10
 24.51855    125.8 9.767e+03 3.239e-10
 24.54070    125.0 9.906e+03 3.447e-10
 24.58122    124.1 9.912e+03 3.445e-10
 24.62174    123.0 9.870e+03 3.346e-10
 24.65338    122.0 9.680e+03 2.957e-10
 24.67365    123.0 9.796e+03 2.908e-10
 24.70279    121.8 9.389e+03 2.312e-10
 24.74331    120.7 9.138e+03 2.122e-10
 24.78384    119.7 9.134e+03 2.153e-10
 24.80848    118.6 9.175e+03 2.311e-10
 24.82874    119.3 9.457e+03 3.178e-10
 24.86488    118.3 9.520e+03 3.543e-10
 24.90541    117.2 9.512e+03 3.553e-10
 24.94332    116.2 9.425e+03 3.397e-10
 24.96358    117.1 9.653e+03 4.159e-10
 24.98645    116.2 9.386e+03 3.350e-10
 25.02698    115.3 9.145e+03 2.858e-10
 25.06750    114.6 9.087e+03 2.837e-10
 25.09841    114.2 9.113e+03 2.969e-10
 25.11868    115.0 9.238e+03 3.136e-10
 25.14855    114.6 9.392e+03 3.606e-10
 25.18907    114.1 9.590e+03 4.050e-10
 25.22959    113.3 9.700e+03 4.218e-10
 25.25351    112.6 9.692e+03 4.114e-10
 25.27377    113.3 9.761e+03 4.133e-10
 25.31064    112.6 9.637e+03 3.703e-10
 25.35116    111.4 9.506e+03 3.360e-10
 25.38835    110.3 9.480e+03 3.357e-10
 25.40861    110.8 9.604e+03 3.556e-10
 25.41552    110.1 9.641e+03 3.708e-10
 25.43578    108.7 9.598e+03 3.638e-10
 25.47273    108.1 9.706e+03 3.950e-10
 25.51325    107.5 9.846e+03 4.225e-10
 25.54344    106.8 1.001e+04 4.418e-10
 25.56371    107.8 1.007e+04 4.593e-10
 25.59430    106.9 1.025e+04 4.841e-10
 25.63482    105.6 1.051e+04 5.332e-10
 25.67535    104.0 1.074e+04 5.985e-10
 25.69854    102.9 1.089e+04 6.540e-10
 25.71880    103.6 1.109e+04 7.294e-10
 25.75639    102.4 1.124e+04 7.473e-10
 25.79692    101.6 1.142e+04 7.710e-10
 25.82721    100.8 1.144e+04 7.652e-10
 25.84331    100.0 1.153e+04 7.947e-10
 25.85344     99.5 1.160e+04 8.142e-10
 25.86764     98.6 1.174e+04 8.762e-10
 25.88790     97.5 1.199e+04 9.858e-10
 25.90816     96.0 1.245e+04 1.197e-09
 25.92086     94.5 1.312e+04 1.582e-09
 25.93099     93.5 1.319e+04 1.732e-09
 25.94868     92.1 1.370e+04 2.144e-09
 25.96768     90.8 1.381e+04 2.211e-09
 25.97781     90.1 1.466e+04 3.188e-09
 25.98828     89.1 1.450e+04 2.988e-09
 25.99841     88.1 1.395e+04 2.340e-09
 26.00947     86.9 1.339e+04 1.706e-09
 26.02973     85.4 1.269e+04 1.159e-09
 26.04999     83.8 1.196e+04 8.241e-10
 26.06583     82.6 1.137e+04 6.267e-10
 26.07596     81.3 1.120e+04 5.557e-10
 26.09052     80.9 1.088e+04 4.903e-10
 26.12101     81.5 1.074e+04 4.638e-10
 26.14357     81.4 1.043e+04 4.022e-10
 26.16383     80.0 1.033e+04 3.896e-10
 26.20215     80.6 1.009e+04 3.459e-10
 26.24267     81.2 9.984e+03 3.213e-10
 26.27841     81.5 1.006e+04 3.217e-10
 26.29867     80.8 9.768e+03 2.878e-10
 26.32372     80.6 9.951e+03 3.027e-10
 26.36424     80.1 1.025e+04 3.365e-10
 26.40477     78.7 1.073e+04 4.543e-10
 26.43351     77.7 1.116e+04 6.670e-10
 26.45377     77.5 1.098e+04 5.979e-10
 26.47558     76.3 1.144e+04 7.867e-10
 26.49575     74.6 1.222e+04 1.123e-09
 26.51086     71.8 1.355e+04 1.854e-09
 26.52099     71.6 1.354e+04 1.838e-09
 26.53015     67.8 1.535e+04 3.395e-09
 26.54029     65.7 1.597e+04 4.095e-09
 26.55653     62.3 1.675e+04 6.239e-09
 26.57679     59.3 1.666e+04 6.377e-09
 26.58841     56.8 1.625e+04 5.621e-09
 26.59854     56.4 1.650e+04 6.308e-09
 26.61732     54.7 1.526e+04 4.070e-09
 26.63758     52.2 1.377e+04 2.129e-09
 26.65583     48.8 1.218e+04 1.103e-09
 26.66596     48.5 1.197e+04 9.210e-10
 26.67810     45.1 1.066e+04 5.733e-10
 26.69836     43.8 1.035e+04 4.901e-10
 26.71862     43.5 1.023e+04 4.740e-10
 26.73337     43.4 1.017e+04 4.738e-10
 26.74350     43.0 1.010e+04 4.541e-10
 26.76938     43.0 1.009e+04 4.676e-10
 26.81000     43.6 1.041e+04 5.918e-10
 26.85052     44.4 1.082e+04 7.804e-10
 26.87854     44.7 1.138e+04 1.020e-09
 26.89880     44.8 1.153e+04 1.052e-09
 26.92134     45.4 1.160e+04 1.176e-09
 26.94150     44.7 1.245e+04 1.603e-09
 26.95589     43.4 1.419e+04 2.687e-09
 26.96602     43.2 1.457e+04 2.806e-09
 26.98203     41.6 1.684e+04 5.837e-09
 27.00229     40.2 1.860e+04 1.174e-08
 27.01743     39.1 1.969e+04 1.866e-08
 27.02752     38.6 2.038e+04 2.652e-08
 27.03334     38.1 2.084e+04 3.559e-08
 27.04352     38.0 1.999e+04 2.086e-08
 27.06307     37.3 2.001e+04 2.314e-08
 27.08250     37.5 1.937e+04 1.930e-08
 27.09263     36.2 1.871e+04 1.260e-08
 27.10086     33.5 1.996e+04 8.287e-09
 27.11099     29.1 1.999e+04 6.301e-09
 27.12386     20.3 2.066e+04 7.142e-09
 27.14412     14.6 1.885e+04 9.449e-09
 27.16438     12.5 1.766e+04 1.010e-08
 27.17840     11.3 1.718e+04 9.154e-09
 27.18854      9.9 1.688e+04 6.752e-09
 27.20490      5.9 1.637e+04 4.036e-09
 27.22516     -0.6 1.472e+04 2.501e-09
 27.24543     -6.5 1.408e+04 2.516e-09
 27.25595     -9.8 1.441e+04 3.251e-09
 27.26608    -10.5 1.383e+04 2.760e-09
 27.28595    -11.2 1.400e+04 3.353e-09
 27.30621    -11.1 1.376e+04 3.192e-09
 27.32337    -11.0 1.324e+04 2.505e-09
 27.33350    -11.8 1.294e+04 2.210e-09
 27.34673    -12.4 1.245e+04 1.556e-09
 27.36700    -13.5 1.169e+04 1.001e-09
 27.38726    -14.8 1.092e+04 6.605e-10
 27.40092    -15.5 1.032e+04 4.811e-10
 27.41105    -15.6 1.047e+04 5.375e-10
 27.42778    -15.9 1.016e+04 4.598e-10
 27.44804    -16.0 9.946e+03 4.161e-10
 27.46830    -15.8 9.926e+03 4.161e-10
 27.48857    -15.6 1.011e+04 4.760e-10
 27.50883    -15.6 1.024e+04 5.151e-10
 27.52909    -15.7 1.042e+04 5.937e-10
 27.54589    -15.8 1.062e+04 7.116e-10
 27.55602    -15.8 1.058e+04 6.738e-10
 27.56961    -15.8 1.076e+04 7.870e-10
 27.58987    -15.7 1.089e+04 9.020e-10
 27.61014    -15.6 1.099e+04 9.967e-10
 27.62344    -15.8 1.112e+04 1.060e-09
 27.63357    -16.2 1.114e+04 1.046e-09
 27.64498    -16.8 1.137e+04 1.176e-09
 27.65511    -16.9 1.146e+04 1.220e-09
 27.67092    -17.6 1.148e+04 1.307e-09
 27.69085    -18.1 1.130e+04 1.266e-09
 27.70098    -18.1 1.136e+04 1.324e-09
 27.71144    -18.1 1.107e+04 1.227e-09
 27.73171    -18.2 1.070e+04 1.060e-09
 27.75197    -18.4 1.036e+04 8.936e-10
 27.76840    -19.1 1.021e+04 7.541e-10
 27.77853    -19.6 1.041e+04 8.621e-10
 27.79249    -20.4 1.019e+04 7.496e-10
 27.81275    -21.1 9.916e+03 6.740e-10
 27.83301    -21.7 9.715e+03 6.320e-10
 27.84595    -22.1 9.643e+03 6.331e-10
 27.85608    -22.5 9.709e+03 6.550e-10
 27.87354    -22.8 9.692e+03 6.774e-10
 27.89380    -22.9 9.798e+03 7.346e-10
 27.91337    -22.9 1.004e+04 8.169e-10
 27.92350    -23.5 9.762e+03 6.709e-10
 27.93432    -23.9 1.001e+04 7.371e-10
 27.95458    -25.3 1.060e+04 9.169e-10
 27.97484    -27.8 1.161e+04 1.294e-09
 27.99092    -30.3 1.236e+04 1.839e-09
 28.00105    -30.6 1.175e+04 1.475e-09
 28.01537    -31.5 1.186e+04 1.831e-09
 28.03563    -31.2 1.187e+04 2.014e-09
 28.05589    -30.2 1.152e+04 1.794e-09
 28.06847    -29.2 1.103e+04 1.339e-09
 28.07860    -30.2 1.066e+04 1.142e-09
 28.09641    -30.5 1.012e+04 7.251e-10
 28.11668    -32.8 9.535e+03 4.108e-10
 28.14717    -34.5 8.414e+03 2.132e-10
 28.18779    -34.8 7.782e+03 1.442e-10
 28.21363    -34.4 7.678e+03 1.269e-10
 28.23389    -33.9 7.637e+03 1.211e-10
 28.26883    -33.2 7.651e+03 1.172e-10
 28.30936    -32.4 7.792e+03 1.301e-10
 28.34846    -31.3 8.005e+03 1.497e-10
 28.36872    -30.5 7.888e+03 1.314e-10
 28.39040    -29.3 8.031e+03 1.376e-10
 28.43093    -28.0 8.153e+03 1.365e-10
 28.47145    -26.8 8.326e+03 1.345e-10
 28.50356    -26.4 8.583e+03 1.554e-10
 28.52382    -25.4 8.418e+03 1.258e-10
 28.55250    -24.9 8.779e+03 1.717e-10
 28.59302    -23.8 9.092e+03 2.400e-10
 28.63354    -22.5 9.399e+03 2.754e-10
 28.65866    -21.8 9.650e+03 2.613e-10
 28.67892    -21.3 9.682e+03 2.654e-10
 28.71459    -20.9 9.908e+03 2.737e-10
 28.74987    -20.4 1.009e+04 2.619e-10
 28.77013    -19.7 9.908e+03 2.322e-10
 28.79349    -19.3 1.019e+04 2.332e-10
 28.81376    -19.0 1.033e+04 2.371e-10
 28.83616    -18.8 1.057e+04 2.510e-10
 28.87668    -18.3 1.067e+04 2.685e-10
 28.91720    -17.5 1.069e+04 2.668e-10
 28.94859    -17.1 1.082e+04 2.544e-10
 28.96885    -17.1 1.042e+04 1.955e-10
 28.99825    -17.3 1.052e+04 1.992e-10
 29.03877    -19.2 1.113e+04 2.882e-10
 29.07930    -20.9 1.196e+04 6.649e-10
 29.10359    -21.6 1.206e+04 8.941e-10
 29.12385    -21.7 1.214e+04 9.611e-10
 29.15012    -22.1 1.207e+04 1.037e-09
 29.17028    -22.4 1.203e+04 8.992e-10
 29.18104    -23.4 1.198e+04 7.103e-10
 29.19117    -23.5 1.201e+04 7.364e-10
 29.21080    -25.4 1.194e+04 6.624e-10
 29.23106    -27.4 1.204e+04 6.520e-10
 29.24846    -29.1 1.206e+04 6.798e-10
 29.25859    -29.8 1.219e+04 9.640e-10
 29.27159    -30.3 1.194e+04 1.047e-09
 29.29185    -30.8 1.200e+04 1.016e-09
 29.31211    -31.7 1.210e+04 9.533e-10
 29.32601    -33.2 1.192e+04 8.218e-10
 29.33614    -34.4 1.194e+04 9.283e-10
 29.35263    -35.5 1.132e+04 7.947e-10
 29.37289    -35.6 1.072e+04 6.792e-10
 29.39316    -35.3 1.031e+04 5.263e-10
 29.40356    -35.3 1.023e+04 4.086e-10
 29.41369    -35.6 1.030e+04 3.873e-10
 29.43368    -36.6 1.016e+04 2.847e-10
 29.45394    -36.8 1.011e+04 2.757e-10
 29.48443    -38.3 9.965e+03 2.454e-10
 29.52505    -39.2 9.908e+03 2.783e-10
 29.54872    -38.8 9.913e+03 3.635e-10
 29.55875    -39.1 1.004e+04 4.511e-10
 29.57551    -38.9 1.005e+04 4.582e-10
 29.59577    -38.3 9.970e+03 4.738e-10
 29.61594    -38.2 9.937e+03 4.611e-10
 29.64643    -38.5 9.904e+03 4.319e-10
 29.68355    -39.0 9.844e+03 4.042e-10
 29.70382    -39.1 9.515e+03 3.198e-10
 29.72767    -38.8 9.266e+03 2.875e-10
 29.76819    -38.1 9.119e+03 2.784e-10
 29.80871    -37.4 9.084e+03 2.782e-10
 29.83865    -36.8 9.040e+03 2.682e-10
 29.85891    -36.7 9.025e+03 2.672e-10
 29.87483    -36.4 9.159e+03 2.919e-10
 29.89509    -35.4 9.141e+03 2.819e-10
 29.93028    -35.3 9.255e+03 3.071e-10
 29.97081    -35.7 9.446e+03 3.386e-10
 29.99375    -36.2 9.682e+03 3.873e-10
 30.00378    -36.4 9.790e+03 4.139e-10
 30.02127    -36.8 9.809e+03 4.172e-10
 30.05176    -37.3 9.831e+03 4.647e-10
 30.09238    -37.0 9.842e+03 5.056e-10
 30.12858    -36.4 9.915e+03 5.449e-10
 30.14885    -36.7 1.019e+04 6.385e-10
 30.17342    -35.9 1.019e+04 6.359e-10
 30.21395    -34.5 9.924e+03 4.827e-10
 30.25447    -33.7 9.607e+03 3.338e-10
 30.28368    -33.0 9.282e+03 2.691e-10
 30.30394    -32.8 9.762e+03 3.665e-10
 30.33552    -31.6 9.641e+03 3.339e-10
 30.37604    -30.2 9.736e+03 3.564e-10
 30.41656    -28.8 9.881e+03 4.063e-10
 30.43878    -27.2 1.009e+04 4.582e-10
 30.45904    -28.3 1.059e+04 6.637e-10
 30.49761    -26.7 1.063e+04 6.561e-10
 30.53813    -25.5 1.063e+04 6.325e-10
 30.57362    -24.4 1.070e+04 6.611e-10
 30.59388    -26.6 1.074e+04 6.575e-10
 30.61918    -25.7 1.086e+04 6.963e-10
 30.65970    -24.2 1.137e+04 7.931e-10
 30.69000    -23.2 1.139e+04 8.280e-10
 30.71016    -24.2 1.167e+04 9.343e-10
 30.72852    -24.2 1.170e+04 1.004e-09
 30.73865    -27.1 1.163e+04 1.043e-09
 30.75068    -35.1 1.668e+04 2.146e-09
 30.77095    -45.2 2.093e+04 8.012e-09
 30.78609    -49.8 2.107e+04 1.938e-08
 30.79618    -52.4 2.138e+04 3.003e-08
 30.80597    -53.9 2.219e+04 5.349e-08
 30.81103    -55.5 2.262e+04 4.514e-08
 30.81644    -58.2 2.480e+04 5.166e-08
 30.82657    -63.6 2.694e+04 4.303e-08
 30.83670    -72.4 2.622e+04 1.981e-08
 30.84474    -84.0 1.857e+04 9.747e-09
 30.84981    -84.6 1.763e+04 8.964e-09
 30.85696    -86.7 1.647e+04 7.526e-09
 30.86709    -87.9 1.591e+04 6.421e-09
 30.87722    -88.4 1.567e+04 5.765e-09
 30.88357    -89.5 1.521e+04 4.578e-09
 30.89375    -88.1 1.490e+04 3.945e-09
 30.91278    -90.1 1.392e+04 2.152e-09
 30.93304    -92.8 1.262e+04 1.205e-09
 30.95103    -94.8 1.162e+04 8.459e-10
 30.96116    -94.6 1.080e+04 6.022e-10
 30.97356    -95.1 1.044e+04 5.382e-10
 30.98946    -95.2 1.037e+04 5.271e-10
 30.99959    -94.3 1.090e+04 6.572e-10
 31.01408    -94.4 1.084e+04 6.650e-10
 31.02858    -94.4 1.092e+04 7.564e-10
 31.03871    -93.4 1.047e+04 6.015e-10
 31.05461    -93.0 1.069e+04 7.232e-10
 31.07487    -92.3 1.097e+04 8.616e-10
 31.09513    -91.4 1.125e+04 9.911e-10
 31.10613    -90.6 1.146e+04 1.075e-09
 31.11626    -89.7 1.113e+04 9.010e-10
 31.13565    -89.1 1.119e+04 9.201e-10
 31.15592    -88.4 1.118e+04 9.113e-10
 31.17355    -87.7 1.107e+04 8.233e-10
 31.18368    -87.0 1.081e+04 7.264e-10
 31.19644    -86.3 1.066e+04 6.337e-10
 31.21670    -85.8 1.054e+04 5.478e-10
 31.23696    -85.2 1.042e+04 4.774e-10
 31.25110    -84.7 1.033e+04 4.236e-10
 31.26123    -84.0 1.024e+04 4.029e-10
 31.27749    -83.5 1.018e+04 3.737e-10
 31.29775    -83.1 1.016e+04 3.586e-10
 31.31801    -82.8 1.015e+04 3.547e-10
 31.32874    -81.8 1.020e+04 3.567e-10
 31.34910    -80.7 1.021e+04 3.555e-10
 31.38912    -79.1 1.019e+04 3.564e-10
 31.42964    -77.3 1.010e+04 3.396e-10
 31.46368    -75.4 1.004e+04 3.003e-10
 31.48394    -74.3 1.013e+04 3.311e-10
 31.51069    -72.6 9.990e+03 2.784e-10
 31.55121    -70.8 9.854e+03 2.351e-10
 31.59174    -68.9 9.757e+03 2.050e-10
 31.61877    -67.1 9.704e+03 1.817e-10
 31.63904    -65.7 9.727e+03 1.798e-10
 31.67278    -63.9 9.682e+03 1.654e-10
 31.71331    -62.2 9.667e+03 1.594e-10
 31.75361    -60.3 9.675e+03 1.539e-10
 31.77387    -59.5 9.801e+03 1.685e-10
 31.79435    -57.5 9.801e+03 1.751e-10
 31.83488    -55.4 9.786e+03 1.689e-10
 31.87540    -53.1 9.803e+03 1.398e-10
 31.90871    -51.1 9.839e+03 1.037e-10
 31.92897    -50.3 9.950e+03 1.562e-10
 31.95644    -48.7 9.913e+03 1.238e-10
 31.99697    -47.1 9.850e+03 1.130e-10
 32.03749    -45.2 9.757e+03 1.170e-10
 32.06380    -43.0 9.720e+03 1.351e-10
 32.08407    -42.0 9.845e+03 1.659e-10
 32.10448    -39.5 9.871e+03 1.670e-10
 32.12475    -38.6 1.001e+04 1.948e-10
 32.15906    -36.5 1.014e+04 1.704e-10
 32.19864    -35.0 1.014e+04 1.651e-10
 32.21890    -34.0 1.032e+04 1.715e-10
 32.24011    -32.8 1.039e+04 2.045e-10
 32.28063    -31.2 1.046e+04 2.698e-10
 32.32115    -29.5 1.052e+04 3.391e-10
 32.35374    -28.1 1.086e+04 4.101e-10
 32.37400    -26.5 1.089e+04 4.314e-10
 32.40220    -25.9 1.130e+04 5.334e-10
 32.43119    -26.3 1.180e+04 7.900e-10
 32.44122    -25.7 1.174e+04 7.468e-10
 32.45266    -25.7 1.182e+04 7.599e-10
 32.47292    -26.1 1.235e+04 1.224e-09
 32.49318    -26.8 1.305e+04 1.609e-09
 32.50864    -26.9 1.315e+04 1.942e-09
 32.51877    -26.2 1.329e+04 2.007e-09
 32.53371    -26.1 1.303e+04 2.260e-09
 32.55397    -25.6 1.287e+04 1.964e-09
 32.57423    -26.2 1.312e+04 1.593e-09
 32.58619    -28.5 1.350e+04 1.177e-09
 32.59632    -26.9 1.376e+04 1.304e-09
 32.61475    -30.3 1.296e+04 1.109e-09
 32.63501    -32.1 1.244e+04 1.051e-09
 32.65361    -34.2 1.227e+04 9.997e-10
 32.66374    -33.7 1.218e+04 1.149e-09
 32.66677    -34.9 1.247e+04 1.065e-09
 32.67690    -34.9 1.286e+04 1.622e-09
 32.69580    -35.8 1.312e+04 1.392e-09
 32.71606    -37.5 1.309e+04 9.560e-10
 32.73115    -39.5 1.279e+04 8.212e-10
 32.74129    -38.3 1.325e+04 8.744e-10
 32.76681    -43.2 1.144e+04 8.019e-10
 32.79877    -44.3 1.114e+04 7.869e-10
 32.81903    -43.5 1.116e+04 7.748e-10
 32.83773    -43.4 1.120e+04 7.408e-10
 32.85789    -43.5 1.120e+04 7.412e-10
 32.87612    -43.3 1.127e+04 7.722e-10
 32.88625    -42.9 1.119e+04 7.524e-10
 32.89841    -43.1 1.127e+04 7.941e-10
 32.91868    -43.2 1.154e+04 9.069e-10
 32.93894    -43.4 1.176e+04 1.059e-09
 32.95367    -43.8 1.210e+04 1.309e-09
 32.96380    -42.6 1.191e+04 1.214e-09
 32.97946    -43.6 1.277e+04 1.756e-09
 32.99972    -45.7 1.407e+04 2.834e-09
 33.01998    -48.3 1.556e+04 4.758e-09
 33.03122    -50.1 1.657e+04 7.286e-09
 33.04135    -51.0 1.742e+04 1.092e-08
 33.06051    -51.4 1.795e+04 1.436e-08
 33.08077    -51.8 1.803e+04 1.489e-08
 33.09864    -52.2 1.721e+04 1.067e-08
 33.10877    -51.5 1.822e+04 1.489e-08
 33.12129    -52.4 1.649e+04 6.412e-09
 33.14155    -55.8 1.407e+04 2.550e-09
 33.16181    -58.9 1.230e+04 1.443e-09
 33.17618    -60.0 1.153e+04 1.145e-09
 33.18632    -60.1 1.124e+04 9.873e-10
 33.20234    -60.4 1.095e+04 9.001e-10
 33.21912    -60.5 1.087e+04 8.814e-10
 33.22925    -60.7 1.059e+04 7.706e-10
 33.24286    -60.7 1.057e+04 7.696e-10
 33.25373    -61.1 1.061e+04 8.271e-10
 33.26386    -60.6 1.020e+04 6.191e-10
 33.28338    -60.9 1.030e+04 6.826e-10
 33.30365    -61.0 1.045e+04 7.743e-10
 33.32115    -61.1 1.064e+04 8.796e-10
 33.33128    -60.8 1.019e+04 6.101e-10
 33.34417    -61.1 1.039e+04 7.066e-10
 33.36443    -61.4 1.055e+04 7.962e-10
 33.38469    -61.6 1.060e+04 8.292e-10
 33.39870    -61.9 1.054e+04 8.204e-10
 33.40883    -61.6 1.030e+04 7.131e-10
 33.42522    -61.6 1.021e+04 7.008e-10
 33.44548    -61.6 1.006e+04 6.100e-10
 33.46574    -61.9 9.904e+03 4.807e-10
 33.47625    -62.5 9.745e+03 3.767e-10
 33.48638    -62.1 9.798e+03 3.997e-10
 33.50626    -62.9 9.685e+03 3.472e-10
 33.53363    -64.1 9.533e+03 3.096e-10
 33.55390    -64.3 9.686e+03 3.639e-10
 33.56705    -64.8 9.597e+03 3.789e-10
 33.58731    -64.9 9.634e+03 3.989e-10
 33.60757    -64.9 9.647e+03 4.077e-10
 33.62122    -64.9 9.642e+03 3.947e-10
 33.63135    -64.9 9.656e+03 4.244e-10
 33.65832    -64.9 9.559e+03 3.586e-10
 33.68883    -65.4 9.499e+03 3.254e-10
 33.70899    -65.3 9.535e+03 3.442e-10
 33.72914    -65.5 9.527e+03 3.394e-10
 33.74940    -65.8 9.667e+03 3.739e-10
 33.76618    -66.6 9.875e+03 4.511e-10
 33.77631    -66.0 9.809e+03 4.424e-10
 33.78159    -66.5 1.018e+04 5.352e-10
 33.79173    -65.5 1.002e+04 4.961e-10
 33.81019    -66.2 1.054e+04 6.404e-10
 33.83045    -67.4 1.117e+04 8.590e-10
 33.84373    -68.8 1.170e+04 1.136e-09
 33.85386    -68.4 1.206e+04 1.219e-09
 33.87097    -70.0 1.248e+04 1.582e-09
 33.89123    -71.3 1.260e+04 1.751e-09
 33.91115    -72.9 1.259e+04 1.737e-09
 33.92128    -72.5 1.320e+04 2.272e-09
 33.93176    -75.4 1.339e+04 1.958e-09
 33.95202    -80.8 1.381e+04 1.606e-09
 33.97228    -87.5 1.348e+04 1.507e-09
 33.98870    -93.0 1.294e+04 1.570e-09
 33.99883    -95.6 1.346e+04 2.375e-09
 34.01280    -97.3 1.276e+04 2.171e-09
 34.03306    -98.0 1.248e+04 1.957e-09
 34.05333    -98.6 1.216e+04 1.636e-09
 34.06625    -99.2 1.178e+04 1.254e-09
 34.07638   -101.1 1.148e+04 9.621e-10
 34.09385   -102.1 1.090e+04 6.822e-10
 34.11411   -102.7 1.033e+04 5.182e-10
 34.13366   -103.1 9.891e+03 4.214e-10
 34.15402   -104.4 9.512e+03 3.623e-10
 34.18522   -103.4 9.408e+03 3.319e-10
 34.22574   -101.8 9.133e+03 2.819e-10
 34.26627   -100.0 8.877e+03 2.359e-10
 34.28896    -98.3 8.659e+03 1.944e-10
 34.30922    -97.9 8.545e+03 1.675e-10
 34.33414    -96.1 8.395e+03 1.392e-10
 34.35440    -95.3 8.487e+03 1.567e-10
 34.38784    -93.3 8.397e+03 1.369e-10
 34.42379    -91.3 8.351e+03 1.249e-10
 34.44405    -90.9 8.312e+03 1.122e-10
 34.46888    -88.9 8.296e+03 1.093e-10
 34.50941    -87.0 8.345e+03 1.160e-10
 34.54993    -85.1 8.471e+03 1.350e-10
 34.57889    -83.2 8.695e+03 1.696e-10
 34.59915    -83.2 8.688e+03 1.696e-10
 34.63098    -81.3 9.043e+03 2.269e-10
 34.67150    -79.6 9.535e+03 3.169e-10
 34.70179    -78.9 9.970e+03 4.090e-10
 34.72196    -79.1 1.026e+04 4.835e-10
 34.73379    -78.7 1.066e+04 6.233e-10
 34.75415    -78.6 1.053e+04 5.619e-10
 34.79307    -77.9 1.093e+04 7.227e-10
 34.83359    -77.4 1.145e+04 9.196e-10
 34.86882    -77.3 1.183e+04 1.057e-09
 34.88908    -77.5 1.161e+04 9.811e-10
 34.91464    -77.7 1.212e+04 1.172e-09
 34.95516    -77.8 1.251e+04 1.356e-09
 34.98546    -77.5 1.317e+04 1.788e-09
 35.00562    -77.2 1.314e+04 1.733e-09
 35.02372    -76.4 1.257e+04 1.334e-09
 35.03386    -76.4 1.438e+04 2.960e-09
 35.04614    -75.8 1.425e+04 2.580e-09
 35.06641    -75.2 1.403e+04 2.130e-09
 35.08667    -74.9 1.388e+04 1.924e-09
 35.10127    -75.4 1.430e+04 1.940e-09
 35.11140    -78.4 1.777e+04 4.727e-09
 35.12719    -81.4 1.995e+04 7.270e-09
 35.14000    -83.0 2.135e+04 9.630e-09
 35.14502    -84.3 2.147e+04 1.458e-08
 35.15242    -85.0 2.171e+04 2.084e-08
 35.16255    -85.6 2.179e+04 3.333e-08
 35.17250    -86.0 2.200e+04 5.431e-08
 35.17756    -85.2 2.185e+04 2.733e-08
 35.17872    -86.3 2.230e+04 3.864e-08
 35.18379    -87.7 2.190e+04 6.005e-08
 35.19294    -88.9 2.201e+04 7.642e-08
 35.20307    -90.5 2.227e+04 9.087e-08
 35.21243    -92.6 2.267e+04 1.003e-07
 35.21750    -92.9 2.212e+04 1.018e-07
 35.22334    -95.1 2.266e+04 8.542e-08
 35.23347    -97.7 2.289e+04 6.153e-08
 35.24360   -100.2 2.272e+04 4.231e-08
 35.25121   -102.4 2.212e+04 2.867e-08
 35.25627   -103.3 2.155e+04 1.750e-08
 35.26386   -105.3 2.017e+04 1.204e-08
 35.27399   -106.7 1.884e+04 8.727e-09
 35.28923   -107.6 1.748e+04 5.961e-09
 35.30954   -107.1 1.650e+04 3.849e-09
 35.32379   -106.8 1.537e+04 2.079e-09
 35.33392   -106.9 1.431e+04 1.134e-09
 35.35007   -107.2 1.307e+04 5.973e-10
 35.37033   -107.7 1.157e+04 3.401e-10
 35.39059   -108.0 1.002e+04 2.470e-10
 35.40134   -107.9 9.297e+03 2.175e-10
 35.41147   -107.6 9.229e+03 2.272e-10
 35.43111   -106.5 9.100e+03 2.161e-10
 35.44877   -105.2 9.055e+03 2.132e-10
 35.45890   -103.5 8.976e+03 2.074e-10
 35.46875   -101.9 9.015e+03 2.092e-10
 35.48911   -100.4 9.124e+03 2.272e-10
 35.52249    -97.1 9.209e+03 2.531e-10
 35.56301    -93.7 9.569e+03 3.055e-10
 35.59331    -91.4 9.701e+03 3.483e-10
 35.61347    -90.6 9.795e+03 3.746e-10
 35.62385    -88.5 1.001e+04 4.444e-10
 35.64421    -87.4 1.000e+04 4.262e-10
 35.67435    -85.7 1.017e+04 4.888e-10
 35.69127    -84.5 1.029e+04 5.186e-10
 35.70140    -84.8 1.020e+04 4.798e-10
 35.71478    -83.0 1.038e+04 5.289e-10
 35.73504    -82.2 1.036e+04 5.384e-10
 35.75530    -80.7 1.052e+04 5.808e-10
 35.76882    -80.4 1.157e+04 6.092e-10
 35.77895    -81.0 1.032e+04 5.718e-10
 35.79582    -81.1 1.134e+04 6.431e-10
 35.81609    -87.3 3.383e+04 6.383e-10
 35.83624    -91.1 5.183e+04 2.432e-09
 35.84637    -85.9 2.935e+04 6.446e-10
 35.85661    -88.5 5.498e+04 1.167e-09
 35.87687    -89.4 6.913e+04 1.292e-09
 35.89202    -88.4 7.391e+04 1.381e-09
 35.90210    -88.8 7.657e+04 1.323e-09
 35.91223    -90.5 8.332e+04 1.022e-09
 35.91875    -92.5 7.218e+04 1.876e-09
 35.92387    -87.7 7.999e+04 4.679e-10
 35.93254    -89.4 6.734e+04 1.946e-09
 35.94262    -89.5 6.195e+04 2.985e-09
 35.95246    -90.0 4.744e+04 8.675e-09
 35.95753    -87.9 7.070e+04 1.159e-09
 35.96288    -90.8 7.134e+04 1.704e-09
 35.97301    -99.4 6.717e+04 3.636e-09
 35.98315   -109.4 4.850e+04 1.929e-08
 35.99124   -114.4 2.982e+04 1.436e-07
 35.99630   -127.3 2.230e+04 4.448e-07
 36.00085   -123.4 2.057e+04 7.814e-07
 36.00589   -123.0 2.012e+04 1.036e-06
 36.01057   -121.5 1.988e+04 1.251e-06
 36.01311   -126.0 1.899e+04 2.507e-06
 36.01363   -123.2 1.885e+04 2.355e-06
 36.01617   -119.6 1.956e+04 1.681e-06
 36.02109   -115.9 1.939e+04 1.481e-06
 36.02615   -111.9 1.924e+04 1.178e-06
 36.02996   -108.5 1.914e+04 9.652e-07
 36.03249   -110.5 1.935e+04 8.932e-07
 36.03628   -107.2 1.969e+04 6.791e-07
 36.04135   -105.3 2.129e+04 4.641e-07
 36.04641   -104.4 2.612e+04 2.450e-07
 36.04935   -108.8 3.881e+04 8.989e-08
 36.05188   -114.8 4.339e+04 9.304e-08
 36.05655   -122.1 5.626e+04 3.587e-08
 36.06370   -132.3 6.183e+04 1.984e-08
 36.06876   -147.0 3.947e+04 1.433e-07
 36.07174   -150.9 3.709e+04 1.598e-07
 36.07681   -154.2 3.443e+04 1.980e-07
 36.08187   -156.8 3.133e+04 2.604e-07
 36.08559   -159.5 2.932e+04 3.498e-07
 36.08812   -156.9 2.482e+04 7.389e-07
 36.09200   -159.8 2.363e+04 1.064e-06
 36.09707   -164.4 2.174e+04 1.850e-06
 36.10213   -170.4 1.980e+04 3.920e-06
 36.10498   -176.0 1.856e+04 7.690e-06
 36.10751   -172.6 1.871e+04 7.775e-06
 36.11226   -178.7 1.796e+04 1.239e-05
 36.11733   -183.8 1.759e+04 1.526e-05
 36.12183   -187.5 1.751e+04 1.524e-05
 36.12437   -184.8 1.829e+04 9.315e-06
 36.12746   -186.7 1.876e+04 6.137e-06
 36.13253   -187.6 2.031e+04 2.732e-06
 36.13759   -188.9 2.337e+04 9.086e-07
 36.14122   -191.0 2.845e+04 2.634e-07
 36.14375   -187.7 3.217e+04 1.556e-07
 36.14772   -190.7 3.542e+04 7.349e-08
 36.15534   -193.8 3.619e+04 4.999e-08
 36.16550   -196.9 3.650e+04 3.080e-08
 36.17498   -199.3 3.536e+04 2.178e-08
 36.18004   -193.4 4.299e+04 2.731e-09
 36.18576   -196.8 3.797e+04 2.224e-09
 36.19589   -198.9 3.408e+04 2.222e-09
 36.20602   -199.9 3.226e+04 2.344e-09
 36.21375   -200.3 2.978e+04 2.892e-09
 36.21882   -199.8 1.956e+04 8.072e-10
 36.22628   -199.7 2.021e+04 9.594e-10
 36.23642   -199.5 2.068e+04 1.146e-09
 36.24655   -199.2 2.100e+04 1.393e-09
 36.25253   -198.8 2.109e+04 1.675e-09
 36.25759   -198.2 1.546e+04 8.957e-10
 36.26681   -197.9 1.608e+04 1.021e-09
 36.27694   -197.5 1.661e+04 1.199e-09
 36.28623   -197.2 1.711e+04 1.418e-09
 36.29135   -196.4 1.536e+04 9.476e-10
 36.30236   -195.6 1.653e+04 1.293e-09
 36.32263   -194.9 1.751e+04 1.836e-09
 36.34289   -194.3 1.821e+04 2.600e-09
 36.35882   -193.9 1.849e+04 3.398e-09
 36.36895   -192.3 1.439e+04 9.536e-10
 36.38341   -192.7 1.550e+04 1.514e-09
 36.40367   -193.2 1.631e+04 2.364e-09
 36.42393   -193.6 1.676e+04 3.415e-09
 36.43636   -193.9 1.687e+04 4.388e-09
 36.44650   -192.6 1.512e+04 2.541e-09
 36.46446   -192.9 1.566e+04 3.497e-09
 36.48472   -193.0 1.580e+04 4.163e-09
 36.50378   -193.2 1.575e+04 4.359e-09
 36.51391   -191.9 1.532e+04 3.812e-09
 36.52524   -192.0 1.536e+04 4.019e-09
 36.54550   -192.0 1.510e+04 4.002e-09
 36.56360   -191.7 1.459e+04 3.479e-09
 36.57373   -191.9 1.441e+04 3.316e-09
 36.58133   -191.5 1.369e+04 2.622e-09
 36.59146   -190.4 1.428e+04 3.116e-09
 36.60629   -190.1 1.371e+04 2.580e-09
 36.62655   -189.6 1.307e+04 2.034e-09
 36.64681   -189.1 1.244e+04 1.582e-09
 36.65888   -188.4 1.182e+04 1.218e-09
 36.66901   -187.5 1.260e+04 1.680e-09
 36.68733   -186.9 1.203e+04 1.325e-09
 36.70760   -186.2 1.148e+04 1.032e-09
 36.72630   -185.3 1.100e+04 7.992e-10
 36.73643   -184.6 1.179e+04 1.190e-09
 36.74812   -183.8 1.131e+04 9.351e-10
 36.76838   -182.8 1.088e+04 7.261e-10
 36.78864   -181.7 1.052e+04 5.546e-10
 36.80385   -180.5 1.020e+04 4.206e-10
 36.81398   -179.9 1.080e+04 6.955e-10
 36.82917   -178.6 1.049e+04 5.474e-10
 36.84943   -177.3 1.022e+04 4.396e-10
 36.86969   -176.0 1.003e+04 3.790e-10
 36.88139   -174.8 9.933e+03 3.533e-10
 36.89153   -174.5 1.024e+04 4.288e-10
 36.91021   -173.3 1.005e+04 3.702e-10
 36.93878   -171.9 9.875e+03 3.324e-10
 36.95904   -169.5 1.030e+04 4.655e-10
 36.97100   -168.1 1.023e+04 4.359e-10
 36.99126   -166.6 1.021e+04 4.218e-10
 37.01152   -165.2 1.022e+04 4.189e-10
 37.02636   -163.8 1.025e+04 4.214e-10
 37.03649   -163.5 1.056e+04 5.068e-10
 37.05204   -162.3 1.059e+04 5.063e-10
 37.07230   -161.3 1.065e+04 5.273e-10
 37.09388   -160.5 1.072e+04 6.302e-10
 37.11414   -159.2 1.148e+04 7.804e-10
 37.12608   -159.1 1.207e+04 1.031e-09
 37.13621   -158.8 1.236e+04 1.154e-09
 37.15335   -159.2 1.352e+04 1.850e-09
 37.17133   -159.3 1.476e+04 3.115e-09
 37.18146   -159.6 1.535e+04 3.522e-09
 37.19387   -159.5 1.643e+04 5.517e-09
 37.21414   -159.3 1.728e+04 7.694e-09
 37.23440   -159.3 1.772e+04 9.167e-09
 37.24888   -160.0 1.782e+04 9.541e-09
 37.25901   -160.9 1.733e+04 7.700e-09
 37.27492   -162.0 1.716e+04 7.030e-09
 37.29518   -163.7 1.673e+04 6.072e-09
 37.31544   -166.1 1.632e+04 5.499e-09
 37.32643   -168.8 1.596e+04 5.299e-09
 37.33656   -170.1 1.499e+04 4.267e-09
 37.35597   -172.1 1.483e+04 4.516e-09
 37.37623   -173.5 1.467e+04 4.573e-09
 37.39384   -174.5 1.411e+04 4.187e-09
 37.40397   -174.4 1.376e+04 3.754e-09
 37.41675   -174.9 1.311e+04 3.008e-09
 37.43701   -175.4 1.239e+04 2.179e-09
 37.45727   -176.0 1.169e+04 1.537e-09
 37.47139   -176.8 1.107e+04 1.088e-09
 37.48152   -175.9 1.101e+04 1.121e-09
 37.49780   -176.5 1.055e+04 8.367e-10
 37.51806   -177.0 1.022e+04 6.584e-10
 37.53832   -177.6 1.010e+04 5.623e-10
 37.54894   -178.2 1.011e+04 5.305e-10
 37.55907   -176.8 1.014e+04 5.620e-10
 37.57884   -177.6 1.028e+04 5.596e-10
 37.59911   -178.8 1.074e+04 6.035e-10
 37.62960   -180.8 1.148e+04 7.149e-10
 37.65999   -183.0 1.135e+04 8.332e-10
 37.67842   -184.8 1.217e+04 1.382e-09
 37.68855   -183.9 1.118e+04 8.930e-10
 37.69391   -185.2 1.183e+04 1.320e-09
 37.70404   -185.1 1.211e+04 1.400e-09
 37.72068   -186.0 1.279e+04 2.100e-09
 37.74094   -186.6 1.324e+04 2.713e-09
 37.76120   -187.1 1.336e+04 2.999e-09
 37.77146   -187.4 1.336e+04 3.050e-09
 37.78159   -187.4 1.387e+04 3.792e-09
 37.80172   -187.5 1.362e+04 3.699e-09
 37.82198   -187.4 1.304e+04 2.959e-09
 37.83887   -187.2 1.237e+04 2.103e-09
 37.84900   -187.0 1.268e+04 2.384e-09
 37.86251   -186.9 1.202e+04 1.616e-09
 37.88277   -186.9 1.140e+04 1.070e-09
 37.90303   -186.8 1.085e+04 7.186e-10
 37.91642   -186.3 1.041e+04 5.069e-10
 37.92655   -186.6 1.047e+04 5.124e-10
 37.94355   -185.8 1.015e+04 3.988e-10
 37.96382   -185.1 1.002e+04 3.487e-10
 37.98394   -184.6 9.965e+03 3.198e-10
 38.00430   -184.8 9.935e+03 3.303e-10
 38.03493   -183.7 9.722e+03 2.866e-10
 38.07545   -182.3 9.480e+03 2.565e-10
 38.11597   -181.1 9.402e+03 2.496e-10
 38.13913   -180.2 9.401e+03 2.526e-10
 38.15939   -180.0 9.151e+03 2.094e-10
 38.19702   -179.6 9.205e+03 2.128e-10
 38.23754   -179.6 9.354e+03 2.324e-10
 38.27397   -179.6 9.491e+03 2.554e-10
 38.29423   -179.8 9.124e+03 1.957e-10
 38.31859   -180.1 9.188e+03 2.076e-10
 38.35911   -181.3 9.284e+03 2.184e-10
 38.39963   -183.5 9.490e+03 2.492e-10
 38.42907   -186.8 1.076e+04 4.739e-10
 38.44933   -186.8 1.038e+04 3.141e-10
 38.47045   -190.8 1.251e+04 8.653e-10
 38.49062   -192.2 1.302e+04 1.244e-09
 38.50642   -194.1 1.374e+04 2.255e-09
 38.51655   -194.7 1.395e+04 2.137e-09
 38.53114   -196.0 1.445e+04 3.132e-09
 38.55140   -197.0 1.457e+04 3.740e-09
 38.57166   -197.8 1.455e+04 3.862e-09
 38.58397   -198.4 1.435e+04 3.791e-09
 38.59410   -198.5 1.407e+04 3.584e-09
 38.61219   -198.9 1.365e+04 3.032e-09
 38.63245   -199.6 1.327e+04 2.454e-09
 38.65139   -200.3 1.296e+04 2.021e-09
 38.66152   -200.0 1.263e+04 1.867e-09
 38.67297   -200.7 1.247e+04 1.636e-09
 38.69323   -201.4 1.239e+04 1.528e-09
 38.71349   -202.1 1.236e+04 1.494e-09
 38.72893   -202.8 1.235e+04 1.486e-09
 38.73907   -202.3 1.234e+04 1.465e-09
 38.75402   -203.0 1.235e+04 1.470e-09
 38.77428   -203.7 1.235e+04 1.471e-09
 38.79325   -204.4 1.232e+04 1.423e-09
 38.80338   -205.3 1.257e+04 1.725e-09
 38.80648   -206.1 1.239e+04 1.470e-09
 38.81661   -205.8 1.248e+04 1.578e-09
 38.83506   -206.6 1.221e+04 1.307e-09
 38.85533   -207.4 1.192e+04 1.075e-09
 38.87390   -208.1 1.162e+04 8.767e-10
 38.88403   -207.9 1.174e+04 9.805e-10
 38.89585   -208.5 1.148e+04 8.056e-10
 38.91611   -209.1 1.124e+04 6.606e-10
 38.93637   -209.6 1.101e+04 5.427e-10
 38.95145   -210.0 1.079e+04 4.550e-10
 38.96158   -210.0 1.075e+04 4.604e-10
 38.97690   -210.4 1.057e+04 3.946e-10
 39.00739   -211.1 1.039e+04 3.312e-10
 39.02919   -212.2 1.011e+04 2.589e-10
 39.04946   -211.8 1.004e+04 2.468e-10
 39.08853   -213.0 9.814e+03 1.930e-10
 39.12905   -214.0 9.689e+03 1.596e-10
 39.16403   -214.8 9.610e+03 1.384e-10
 39.18429   -214.8 9.549e+03 1.275e-10
 39.21010   -215.3 9.482e+03 1.170e-10
 39.25062   -215.6 9.414e+03 1.102e-10
 39.29115   -215.7 9.333e+03 1.052e-10
 39.31913   -215.5 9.246e+03 1.016e-10
 39.33939   -215.4 9.286e+03 1.035e-10
 39.37219   -215.0 9.261e+03 1.029e-10
 39.41272   -214.6 9.259e+03 1.029e-10
 39.45324   -214.6 9.265e+03 1.032e-10
 39.47422   -215.0 9.302e+03 1.053e-10
 39.49449   -215.5 9.400e+03 1.190e-10
 39.53428   -218.1 1.068e+04 2.029e-10
 39.57481   -221.7 1.238e+04 5.811e-10
 39.60510   -226.1 1.341e+04 1.513e-09
 39.61900   -227.2 1.358e+04 1.881e-09
 39.62913   -229.1 1.427e+04 2.852e-09
 39.64553   -230.7 1.428e+04 3.141e-09
 39.66579   -232.1 1.422e+04 3.171e-09
 39.68605   -233.3 1.382e+04 2.896e-09
 39.69654   -234.4 1.328e+04 2.391e-09
 39.70668   -235.4 1.294e+04 2.131e-09
 39.72657   -236.1 1.216e+04 1.553e-09
 39.74684   -236.5 1.146e+04 1.121e-09
 39.76396   -236.8 1.089e+04 8.026e-10
 39.77409   -237.3 1.049e+04 5.832e-10
 39.78736   -237.0 1.009e+04 4.234e-10
 39.80762   -236.7 9.863e+03 3.438e-10
 39.82788   -236.6 9.806e+03 3.166e-10
 39.85837   -236.9 9.739e+03 2.842e-10
 39.89814   -236.9 9.495e+03 2.291e-10
 39.91840   -237.1 9.319e+03 2.135e-10
 39.93952   -237.1 8.916e+03 1.407e-10
 39.98004   -236.5 8.871e+03 1.278e-10
 40.02056   -236.0 8.881e+03 1.245e-10
 40.05409   -235.7 8.889e+03 1.246e-10
 40.07435   -236.9 9.158e+03 1.318e-10
 40.10161   -237.2 9.439e+03 1.654e-10
 40.14213   -237.3 9.602e+03 2.118e-10
 40.18266   -237.3 9.661e+03 2.544e-10
 40.20919   -237.0 9.633e+03 2.817e-10
 40.22945   -238.1 9.914e+03 3.917e-10
 40.26370   -237.2 9.734e+03 3.568e-10
 40.30423   -236.1 9.550e+03 3.016e-10
 40.34402   -235.1 9.403e+03 2.544e-10
 40.36429   -235.9 9.378e+03 2.362e-10
 40.38527   -235.1 9.240e+03 1.953e-10
 40.42580   -234.4 9.170e+03 1.723e-10
 40.46632   -233.9 9.174e+03 1.627e-10
 40.49912   -233.5 9.184e+03 1.595e-10
 40.51938   -234.3 9.194e+03 1.521e-10
 40.54736   -234.0 9.201e+03 1.494e-10
 40.58789   -233.9 9.189e+03 1.457e-10
 40.62841   -233.7 9.154e+03 1.397e-10
 40.65422   -233.5 9.120e+03 1.327e-10
 40.67448   -233.8 9.095e+03 1.268e-10
 40.70946   -233.4 9.080e+03 1.215e-10
 40.74998   -232.9 9.095e+03 1.185e-10
 40.78905   -232.3 9.109e+03 1.176e-10
 40.80932   -232.2 9.125e+03 1.176e-10
 40.83103   -231.6 9.207e+03 1.171e-10
 40.87155   -231.0 9.330e+03 1.192e-10
 40.91207   -230.5 9.440e+03 1.245e-10
 40.94415   -229.9 9.488e+03 1.326e-10
 40.96441   -230.1 9.663e+03 1.717e-10
 40.99312   -229.5 9.667e+03 1.814e-10
 41.02310   -228.9 9.659e+03 1.871e-10
 41.04336   -229.2 9.575e+03 1.732e-10
 41.07417   -228.4 9.567e+03 1.739e-10
 41.09925   -227.7 9.569e+03 1.734e-10
 41.11951   -227.9 9.750e+03 2.207e-10
 41.15521   -227.2 9.751e+03 2.198e-10
 41.19574   -226.6 9.839e+03 2.274e-10
 41.23408   -226.1 1.001e+04 2.638e-10
 41.25435   -226.8 1.031e+04 3.474e-10
 41.27678   -226.4 1.047e+04 3.960e-10
 41.31731   -225.9 1.054e+04 4.218e-10
 41.35783   -225.5 1.055e+04 4.244e-10
 41.38918   -224.9 1.046e+04 4.028e-10
 41.40944   -225.9 1.035e+04 3.302e-10
 41.43888   -225.1 1.016e+04 2.461e-10
 41.47940   -224.2 1.001e+04 1.845e-10
 41.51992   -223.2 1.000e+04 1.546e-10
 41.54428   -222.2 1.003e+04 1.478e-10
 41.56454   -223.3 9.944e+03 1.285e-10
 41.60097   -222.6 9.964e+03 1.289e-10
 41.64149   -222.5 1.031e+04 1.431e-10
 41.67911   -222.7 1.063e+04 2.150e-10
 41.69938   -223.0 1.063e+04 2.222e-10
 41.72254   -223.1 1.093e+04 3.535e-10
 41.76306   -223.1 1.125e+04 5.305e-10
 41.80358   -223.2 1.159e+04 7.250e-10
 41.83421   -223.2 1.192e+04 8.898e-10
 41.85447   -223.0 1.181e+04 8.137e-10
 41.88463   -222.9 1.203e+04 8.900e-10
 41.92515   -222.7 1.223e+04 9.247e-10
 41.96568   -222.5 1.236e+04 9.361e-10
 41.98921   -222.4 1.220e+04 8.137e-10
 41.99925   -222.3 1.220e+04 8.322e-10
 42.01614   -222.4 1.232e+04 8.592e-10
 42.03640   -222.6 1.245e+04 9.137e-10
 42.05653   -223.0 1.251e+04 9.766e-10
 42.06666   -222.8 1.254e+04 9.843e-10
 42.07692   -223.3 1.264e+04 1.078e-09
 42.09718   -223.9 1.264e+04 1.129e-09
 42.11744   -224.6 1.263e+04 1.145e-09
 42.13408   -225.1 1.254e+04 1.140e-09
 42.14421   -224.8 1.275e+04 1.231e-09
 42.15797   -224.2 1.239e+04 9.976e-10
 42.17823   -224.4 1.220e+04 9.385e-10
 42.19849   -224.5 1.201e+04 8.625e-10
 42.21163   -224.4 1.180e+04 7.793e-10
 42.22176   -224.1 1.202e+04 8.960e-10
 42.23901   -224.0 1.177e+04 7.851e-10
 42.25928   -223.5 1.146e+04 6.620e-10
 42.27905   -222.6 1.118e+04 5.454e-10
 42.28918   -222.6 1.139e+04 6.209e-10
 42.29980   -221.5 1.113e+04 5.082e-10
 42.32006   -220.5 1.102e+04 4.352e-10
 42.34032   -219.7 1.100e+04 3.998e-10
 42.37081   -219.3 1.095e+04 3.667e-10
 42.41143   -218.4 1.075e+04 3.037e-10
 42.43434   -217.2 1.051e+04 2.455e-10
 42.45460   -216.4 1.065e+04 2.568e-10
 42.49248   -215.1 1.041e+04 2.088e-10
 42.53300   -213.7 1.024e+04 1.757e-10
 42.56918   -212.2 1.013e+04 1.537e-10
 42.58944   -211.2 1.029e+04 1.711e-10
 42.61405   -209.7 1.018e+04 1.475e-10
 42.65457   -208.1 1.007e+04 1.300e-10
 42.69509   -206.4 1.002e+04 1.192e-10
 42.72427   -204.7 1.002e+04 1.134e-10
 42.74453   -203.7 1.005e+04 1.138e-10
 42.77614   -202.0 1.004e+04 1.099e-10
 42.81666   -200.3 1.004e+04 1.100e-10
 42.85719   -198.9 1.010e+04 1.153e-10
 42.87937   -197.7 1.028e+04 1.516e-10
 42.89963   -196.9 1.028e+04 1.498e-10
 42.93823   -195.8 1.045e+04 2.054e-10
 42.97876   -194.7 1.067e+04 2.822e-10
 43.01421   -193.7 1.096e+04 3.855e-10
 43.03447   -192.9 1.069e+04 3.030e-10
 43.05980   -191.9 1.091e+04 3.690e-10
 43.10033   -191.0 1.120e+04 4.704e-10
 43.13062   -190.2 1.132e+04 5.442e-10
 43.15079   -190.0 1.146e+04 6.192e-10
 43.16921   -189.7 1.166e+04 7.538e-10
 43.18957   -188.2 1.140e+04 4.974e-10
 43.22190   -187.5 1.172e+04 7.038e-10
 43.25275   -186.9 1.198e+04 9.151e-10
 43.27302   -187.2 1.172e+04 7.996e-10
 43.30294   -186.8 1.173e+04 8.303e-10
 43.32440   -186.4 1.171e+04 8.111e-10
 43.34466   -184.9 1.186e+04 8.080e-10
 43.38399   -184.4 1.182e+04 8.012e-10
 43.42451   -183.7 1.184e+04 7.673e-10
 43.45924   -183.0 1.188e+04 7.646e-10
 43.47950   -182.0 1.185e+04 7.649e-10
 43.50556   -182.2 1.239e+04 9.547e-10
 43.54608   -183.1 1.315e+04 1.468e-09
 43.57638   -183.7 1.387e+04 2.298e-09
 43.59654   -184.9 1.401e+04 2.658e-09
 43.61414   -186.1 1.402e+04 2.796e-09
 43.62427   -186.0 1.424e+04 3.000e-09
 43.63706   -187.0 1.405e+04 2.949e-09
 43.65733   -187.7 1.356e+04 2.331e-09
 43.67759   -188.5 1.312e+04 1.559e-09
 43.69169   -189.4 1.274e+04 1.031e-09
 43.70182   -189.6 1.259e+04 8.135e-10
 43.71811   -190.7 1.228e+04 5.416e-10
 43.73837   -191.4 1.206e+04 4.394e-10
 43.75863   -191.5 1.197e+04 4.237e-10
 43.76933   -191.7 1.195e+04 4.290e-10
 43.78969   -192.1 1.173e+04 3.356e-10
 43.82974   -192.2 1.151e+04 2.967e-10
 43.87027   -192.0 1.133e+04 2.651e-10
 43.90427   -191.5 1.120e+04 2.418e-10
 43.92453   -191.2 1.106e+04 2.030e-10
 43.95131   -190.5 1.101e+04 1.925e-10
 43.99184   -189.7 1.097e+04 1.828e-10
 44.03236   -188.7 1.092e+04 1.726e-10
 44.05936   -187.5 1.088e+04 1.628e-10
 44.07963   -186.9 1.080e+04 1.365e-10
 44.11341   -185.6 1.075e+04 1.229e-10
 44.15393   -184.1 1.072e+04 1.145e-10
 44.19420   -182.6 1.070e+04 1.122e-10
 44.21446   -181.7 1.062e+04 8.719e-11
 44.23498   -180.0 1.062e+04 8.637e-11
 44.27550   -178.1 1.063e+04 8.752e-11
 44.31602   -176.1 1.070e+04 9.199e-11
 44.34930   -174.1 1.074e+04 9.644e-11
 44.36956   -172.9 1.067e+04 7.411e-11
 44.37771   -170.8 1.071e+04 7.834e-11
 44.39797   -170.7 1.066e+04 8.230e-11
 44.43759   -168.6 1.069e+04 8.704e-11
 44.47812   -166.4 1.073e+04 8.858e-11
 44.50439   -164.1 1.075e+04 8.868e-11
 44.52466   -162.8 1.071e+04 8.005e-11
 44.55916   -160.6 1.076e+04 8.402e-11
 44.59969   -158.3 1.087e+04 8.604e-11
 44.63923   -156.1 1.102e+04 8.744e-11
 44.65949   -154.9 1.090e+04 9.690e-11
 44.68073   -152.8 1.101e+04 1.060e-10
 44.72126   -150.7 1.110e+04 1.171e-10
 44.76178   -148.7 1.116e+04 1.318e-10
 44.79433   -146.6 1.118e+04 1.496e-10
 44.81459   -145.3 1.115e+04 1.725e-10
 44.84282   -143.3 1.118e+04 1.885e-10
 44.88335   -141.3 1.117e+04 1.996e-10
 44.92387   -139.2 1.114e+04 2.035e-10
 44.94943   -137.1 1.113e+04 2.042e-10
 44.96969   -135.8 1.108e+04 2.184e-10
 45.00492   -133.6 1.101e+04 2.188e-10
 45.04544   -131.2 1.098e+04 2.176e-10
 45.08426   -128.8 1.098e+04 2.158e-10
 45.10452   -127.5 1.090e+04 2.048e-10
 45.12649   -125.2 1.090e+04 2.093e-10
 45.16701   -123.0 1.106e+04 2.251e-10
 45.20753   -120.9 1.128e+04 2.592e-10
 45.23936   -118.9 1.145e+04 3.221e-10
 45.25962   -117.9 1.143e+04 3.318e-10
 45.28858   -115.8 1.162e+04 4.551e-10
 45.32910   -113.7 1.182e+04 5.926e-10
 45.36963   -111.7 1.195e+04 7.298e-10
 45.39446   -109.9 1.199e+04 8.198e-10
 45.41472   -108.8 1.193e+04 7.839e-10
 45.45067   -107.1 1.193e+04 7.980e-10
 45.48241   -105.3 1.177e+04 7.653e-10
 45.50267   -104.9 1.163e+04 6.544e-10
 45.52929   -102.9 1.151e+04 5.923e-10
 45.54955   -101.7 1.149e+04 5.487e-10
 45.57224    -99.6 1.144e+04 4.997e-10
 45.61277    -97.6 1.142e+04 4.753e-10
 45.65329    -95.5 1.141e+04 4.661e-10
 45.68439    -93.4 1.143e+04 4.697e-10
 45.70465    -92.6 1.145e+04 4.381e-10
 45.73434    -90.6 1.144e+04 4.171e-10
 45.77486    -88.5 1.144e+04 3.913e-10
 45.81538    -86.3 1.146e+04 3.638e-10
 45.83949    -84.0 1.151e+04 3.420e-10
 45.85975    -83.4 1.141e+04 3.298e-10
 45.89643    -81.1 1.144e+04 3.027e-10
 45.93695    -78.9 1.147e+04 2.935e-10
 45.97432    -76.7 1.145e+04 2.960e-10
 45.99458    -75.9 1.139e+04 3.059e-10
 46.01800    -73.8 1.137e+04 3.373e-10
 46.05852    -71.8 1.140e+04 4.060e-10
 46.09904    -69.8 1.148e+04 5.020e-10
 46.12942    -68.0 1.161e+04 6.306e-10
 46.14968    -67.6 1.200e+04 9.361e-10
 46.18009    -65.7 1.238e+04 1.395e-09
 46.22061    -64.1 1.275e+04 1.793e-09
 46.25091    -63.2 1.310e+04 2.268e-09
 46.27107    -62.1 1.317e+04 2.320e-09
 46.28432    -61.4 1.315e+04 2.292e-09
 46.29445    -61.5 1.369e+04 3.450e-09
 46.31160    -60.7 1.357e+04 3.206e-09
 46.33186    -59.9 1.338e+04 2.790e-09
 46.35174    -59.2 1.315e+04 2.369e-09
 46.36187    -59.2 1.352e+04 3.534e-09
 46.37238    -58.3 1.321e+04 2.895e-09
 46.39264    -57.5 1.291e+04 2.374e-09
 46.41290    -56.7 1.260e+04 1.963e-09
 46.42929    -55.8 1.231e+04 1.646e-09
 46.43942    -55.7 1.248e+04 1.890e-09
 46.45343    -54.8 1.223e+04 1.559e-09
 46.47369    -53.9 1.195e+04 1.280e-09
 46.49395    -52.9 1.168e+04 1.053e-09
 46.50684    -51.8 1.147e+04 8.804e-10
 46.51697    -51.8 1.151e+04 9.103e-10
 46.53447    -50.7 1.137e+04 7.715e-10
 46.55474    -49.6 1.128e+04 6.727e-10
 46.57425    -48.5 1.132e+04 6.078e-10
 46.58439    -48.6 1.150e+04 6.659e-10
 46.59526    -47.7 1.146e+04 6.203e-10
 46.60717    -46.3 1.148e+04 5.775e-10
 46.62753    -45.7 1.149e+04 5.126e-10
 46.66637    -43.6 1.151e+04 4.600e-10
 46.70689    -41.4 1.156e+04 4.416e-10
 46.72955    -39.4 1.169e+04 4.617e-10
 46.74981    -38.3 1.150e+04 5.212e-10
 46.78794    -35.7 1.158e+04 5.031e-10
 46.82846    -33.1 1.174e+04 4.948e-10
 46.86438    -30.6 1.211e+04 5.421e-10
 46.88464    -29.0 1.159e+04 4.487e-10
 46.90951    -26.3 1.181e+04 4.712e-10
 46.95003    -23.5 1.207e+04 5.886e-10
 46.99055    -20.8 1.247e+04 7.994e-10
 47.01948    -18.4 1.286e+04 1.139e-09
 47.03974    -16.9 1.237e+04 5.899e-10
 47.07160    -15.0 1.304e+04 1.047e-09
 47.11212    -12.8 1.374e+04 1.926e-09
 47.15265    -10.4 1.435e+04 3.139e-09
 47.17448     -8.6 1.457e+04 4.298e-09
 47.18451     -7.6 1.435e+04 4.078e-09
 47.20311     -5.7 1.494e+04 4.909e-09
 47.22337     -4.7 1.549e+04 5.849e-09
 47.24180     -3.8 1.580e+04 6.773e-09
 47.25193     -2.7 1.571e+04 6.246e-09
 47.26389     -2.2 1.592e+04 7.271e-09
 47.28415     -1.2 1.603e+04 8.635e-09
 47.30441     -0.1 1.634e+04 9.953e-09
 47.31935      0.9 1.646e+04 1.074e-08
 47.32948      1.3 1.637e+04 9.975e-09
 47.34494      1.9 1.661e+04 1.085e-08
 47.36520      2.5 1.684e+04 1.187e-08
 47.38546      3.1 1.716e+04 1.289e-08
 47.39690      4.1 1.723e+04 1.294e-08
 47.40703      4.4 1.693e+04 1.280e-08
 47.42598      5.6 1.699e+04 1.303e-08
 47.44625      6.9 1.703e+04 1.245e-08
 47.46432      8.0 1.717e+04 1.143e-08
 47.47445      8.3 1.685e+04 1.085e-08
 47.48677      9.0 1.702e+04 9.376e-09
 47.50703      9.4 1.661e+04 8.874e-09
 47.52729     10.1 1.616e+04 8.200e-09
 47.54186     10.7 1.605e+04 7.613e-09
 47.55199     10.9 1.595e+04 7.805e-09
 47.56782     11.1 1.628e+04 7.796e-09
 47.58808     11.3 1.639e+04 8.761e-09
 47.60834     11.8 1.620e+04 9.089e-09
 47.61941     12.8 1.615e+04 8.790e-09
 47.62954     13.0 1.586e+04 8.374e-09
 47.64886     14.1 1.581e+04 7.240e-09
 47.66912     14.9 1.571e+04 5.924e-09
 47.68683     15.3 1.562e+04 4.342e-09
 47.69696     15.5 1.514e+04 3.173e-09
 47.70965     15.2 1.502e+04 2.412e-09
 47.72200     14.6 1.468e+04 1.883e-09
 47.73213     15.1 1.506e+04 2.575e-09
 47.75017     14.9 1.438e+04 2.265e-09
 47.76438     15.1 1.395e+04 2.055e-09
 47.77451     14.9 1.376e+04 1.958e-09
 47.79069     15.5 1.369e+04 1.957e-09
 47.81095     16.6 1.347e+04 1.832e-09
 47.83122     17.4 1.337e+04 1.524e-09
 47.84193     17.9 1.312e+04 1.399e-09
 47.85206     18.4 1.301e+04 1.498e-09
 47.87174     19.2 1.271e+04 1.062e-09
 47.89200     19.6 1.253e+04 9.087e-10
 47.90944     19.9 1.246e+04 6.718e-10
 47.92980     20.8 1.253e+04 8.464e-10
 47.96311     21.4 1.213e+04 5.223e-10
 48.00364     22.1 1.180e+04 3.625e-10
 48.04416     23.1 1.155e+04 2.752e-10
 48.06464     24.4 1.122e+04 2.335e-10
 48.08490     23.1 1.137e+04 2.888e-10
 48.12520     24.2 1.117e+04 2.943e-10
 48.16573     25.1 1.116e+04 4.190e-10
 48.19947     26.8 1.124e+04 6.002e-10
 48.21974     26.2 1.173e+04 1.066e-09
 48.24677     28.2 1.174e+04 1.074e-09
 48.28730     30.1 1.158e+04 9.325e-10
 48.32782     32.0 1.140e+04 7.671e-10
 48.35457     33.8 1.121e+04 6.390e-10
 48.37483     32.8 1.106e+04 5.616e-10
 48.40887     35.0 1.088e+04 4.951e-10
 48.44939     37.4 1.077e+04 4.708e-10
 48.48941     39.9 1.079e+04 4.792e-10
 48.50967     39.6 1.038e+04 2.547e-10
 48.53044     42.1 1.043e+04 2.594e-10
 48.57096     44.5 1.058e+04 2.886e-10
 48.61148     46.7 1.081e+04 3.648e-10
 48.64450     48.8 1.118e+04 5.266e-10
 48.66477     48.5 1.023e+04 1.511e-10
 48.69253     50.3 1.056e+04 2.522e-10
 48.73305     51.7 1.107e+04 4.447e-10
 48.77358     52.3 1.174e+04 7.463e-10
 48.79960     52.7 1.238e+04 1.117e-09
 48.81986     53.7 1.105e+04 4.200e-10
 48.83702     53.9 1.151e+04 5.349e-10
 48.85728     54.9 1.204e+04 7.605e-10
 48.89515     55.2 1.193e+04 7.731e-10
 48.93444     55.5 1.171e+04 6.245e-10
 48.95470     56.8 1.157e+04 6.203e-10
 48.96596     56.2 1.153e+04 5.292e-10
 48.98613     56.0 1.136e+04 4.797e-10
 49.00639     55.9 1.116e+04 4.016e-10
 49.02192     55.9 1.101e+04 3.680e-10
 49.03205     56.8 1.092e+04 4.159e-10
 49.04691     56.7 1.079e+04 3.730e-10
 49.06717     56.5 1.066e+04 3.349e-10
 49.08744     56.3 1.065e+04 3.276e-10
 49.09947     56.0 1.066e+04 3.361e-10
 49.10960     56.9 1.059e+04 3.577e-10
 49.12796     56.5 1.065e+04 3.722e-10
 49.14822     55.9 1.076e+04 4.142e-10
 49.16689     54.8 1.120e+04 5.076e-10
 49.17702     55.6 1.106e+04 4.921e-10
 49.18874     52.0 1.245e+04 8.613e-10
 49.20901     47.7 1.405e+04 2.261e-09
 49.22927     45.5 1.519e+04 5.296e-09
 49.24444     44.8 1.578e+04 7.894e-09
 49.25457     45.0 1.623e+04 9.244e-09
 49.26979     44.3 1.612e+04 8.817e-09
 49.29005     43.7 1.537e+04 6.156e-09
 49.31031     41.8 1.424e+04 3.156e-09
 49.32199     38.5 1.278e+04 1.486e-09
 49.33212     38.6 1.294e+04 1.517e-09
 49.35084     35.5 1.150e+04 7.785e-10
 49.37110     33.9 1.083e+04 5.164e-10
 49.38917     33.4 1.068e+04 4.351e-10
 49.39735     34.3 1.093e+04 4.980e-10
 49.39953     34.5 1.094e+04 5.279e-10
 49.41162     34.0 1.085e+04 4.465e-10
 49.43188     33.7 1.063e+04 4.391e-10
 49.45214     33.4 1.066e+04 4.599e-10
 49.46695     33.1 1.076e+04 5.121e-10
 49.47708     33.1 1.113e+04 6.040e-10
 49.49267     32.6 1.138e+04 7.996e-10
 49.51293     32.7 1.166e+04 1.103e-09
 49.53319     33.1 1.189e+04 1.400e-09
 49.54450     33.8 1.219e+04 1.560e-09
 49.55463     34.5 1.282e+04 2.462e-09
 49.57371     35.1 1.313e+04 2.456e-09
 49.59398     34.5 1.389e+04 2.517e-09
 49.61192     32.6 1.440e+04 2.817e-09
 49.62205     34.0 1.487e+04 3.437e-09
 49.63450     31.3 1.548e+04 4.121e-09
 49.65476     29.7 1.543e+04 5.007e-09
 49.67502     28.7 1.574e+04 5.931e-09
 49.68947     27.8 1.638e+04 6.446e-09
 49.69960     27.7 1.768e+04 1.169e-08
 49.71555     26.8 1.778e+04 1.125e-08
 49.73581     26.4 1.722e+04 8.620e-09
 49.75607     26.4 1.584e+04 5.220e-09
 49.76702     26.1 1.444e+04 2.788e-09
 49.77715     26.0 1.612e+04 6.144e-09
 49.79659     25.6 1.529e+04 2.987e-09
 49.81685     23.8 1.398e+04 1.473e-09
 49.83443     22.4 1.196e+04 8.581e-10
 49.84457     23.1 1.372e+04 1.546e-09
 49.85738     21.4 1.181e+04 9.108e-10
 49.87764     20.8 1.060e+04 7.227e-10
 49.89790     21.3 1.023e+04 6.537e-10
 49.91198     22.2 1.006e+04 6.084e-10
 49.92211     22.4 1.038e+04 7.255e-10
 49.93842     23.3 1.014e+04 5.712e-10
 49.95165     24.1 9.991e+03 4.924e-10
 49.96178     24.7 1.002e+04 5.319e-10
 49.97895     25.1 9.915e+03 4.247e-10
 49.98953     25.7 9.801e+03 3.901e-10
 49.99966     25.6 9.818e+03 3.975e-10
 50.01947     26.0 9.795e+03 3.768e-10
 50.03973     26.3 9.782e+03 3.718e-10
 50.07022     27.7 9.783e+03 3.763e-10
 50.11084     29.1 9.756e+03 3.662e-10
 50.13469     30.5 9.727e+03 3.704e-10
 50.15496     30.3 9.876e+03 3.729e-10
 50.19189     30.8 1.011e+04 4.578e-10
 50.23241     31.0 1.054e+04 6.784e-10
 50.26953     31.9 1.106e+04 1.027e-09
 50.28979     31.6 1.166e+04 1.446e-09
 50.31346     32.6 1.198e+04 1.583e-09
 50.35398     33.1 1.183e+04 1.316e-09
 50.39450     32.5 1.141e+04 9.596e-10
 50.42463     31.7 1.088e+04 7.411e-10
 50.44489     30.6 1.091e+04 7.959e-10
 50.47555     31.6 1.057e+04 6.730e-10
 50.51607     32.9 1.034e+04 5.199e-10
 50.55660     33.9 1.015e+04 4.041e-10
 50.57972     34.9 1.004e+04 3.669e-10
 50.59999     35.0 1.006e+04 3.659e-10
 50.63764     36.1 1.006e+04 3.795e-10
 50.67817     37.4 1.012e+04 4.377e-10
 50.71456     39.1 1.023e+04 5.002e-10
 50.73482     39.6 1.009e+04 4.257e-10
 50.75921     41.3 1.015e+04 4.394e-10
 50.79974     43.1 1.010e+04 4.127e-10
 50.84026     44.9 1.003e+04 3.459e-10
 50.86966     46.6 9.967e+03 2.648e-10
 50.88992     47.2 9.899e+03 2.242e-10
 50.92131     48.5 9.878e+03 1.702e-10
 50.96183     49.7 9.770e+03 1.404e-10
 51.00235     51.0 9.673e+03 1.322e-10
 51.02475     52.4 9.691e+03 1.322e-10
 51.04502     53.5 9.677e+03 1.349e-10
 51.06667     54.9 9.737e+03 1.448e-10
 51.08693     56.1 9.773e+03 1.236e-10
 51.12392     57.2 9.831e+03 1.321e-10
 51.15959     58.2 1.000e+04 1.740e-10
 51.17985     59.8 9.912e+03 1.521e-10
 51.20497     61.0 1.009e+04 2.079e-10
 51.24549     62.2 1.036e+04 2.616e-10
 51.28601     63.4 1.056e+04 2.626e-10
 51.31469     64.6 1.076e+04 2.210e-10
 51.33495     66.4 1.061e+04 2.212e-10
 51.36706     67.5 1.078e+04 1.825e-10
 51.40758     68.3 1.062e+04 1.638e-10
 51.44811     69.2 1.045e+04 1.674e-10
 51.46978     70.3 1.032e+04 1.839e-10
 51.49005     72.6 1.047e+04 1.917e-10
 51.52915     73.8 1.038e+04 2.270e-10
 51.56968     74.9 1.041e+04 2.574e-10
 51.60462     75.9 1.041e+04 2.779e-10
 51.62488     78.2 1.051e+04 3.177e-10
 51.65072     79.2 1.049e+04 3.213e-10
 51.69125     80.2 1.043e+04 3.098e-10
 51.73177     80.9 1.035e+04 2.784e-10
 51.75972     81.5 1.028e+04 2.510e-10
 51.77998     84.0 1.054e+04 3.226e-10
 51.81282     84.6 1.047e+04 3.090e-10
 51.85334     85.1 1.045e+04 3.249e-10
 51.89386     85.7 1.039e+04 3.807e-10
 51.91482     86.7 1.035e+04 4.410e-10
 51.93508     88.6 1.058e+04 4.987e-10
 51.97491     89.7 1.052e+04 5.306e-10
 52.01543     91.1 1.049e+04 5.175e-10
 52.04965     92.6 1.045e+04 4.719e-10
 52.06991     94.0 1.053e+04 5.433e-10
 52.09648     95.4 1.044e+04 4.653e-10
 52.12677     95.7 1.044e+04 4.612e-10
 52.13714     96.5 1.051e+04 4.872e-10
 52.14727     97.4 1.051e+04 4.893e-10
 52.16720     98.3 1.076e+04 5.802e-10
 52.18130     98.9 1.119e+04 7.535e-10
 52.19144     99.0 1.105e+04 8.611e-10
 52.20455     99.5 1.155e+04 1.249e-09
 52.21468    100.2 1.143e+04 1.163e-09
 52.22798    100.8 1.193e+04 1.723e-09
 52.24825    101.7 1.259e+04 2.644e-09
 52.26851    103.0 1.336e+04 3.991e-09
 52.28210    104.5 1.431e+04 5.695e-09
 52.29223    104.5 1.434e+04 5.509e-09
 52.30903    105.4 1.543e+04 7.475e-09
 52.32083    105.6 1.602e+04 8.677e-09
 52.32584    105.3 1.635e+04 9.097e-09
 52.33426    105.0 1.746e+04 1.112e-08
 52.34439    104.2 1.913e+04 1.431e-08
 52.35449    102.7 2.117e+04 1.956e-08
 52.36462     99.6 2.319e+04 4.225e-08
 52.37478     98.0 2.348e+04 6.617e-08
 52.38491     96.5 2.334e+04 9.151e-08
 52.39326     95.1 2.297e+04 1.081e-07
 52.39833     95.3 2.201e+04 1.348e-07
 52.40518     94.4 2.193e+04 1.263e-07
 52.41531     94.0 2.205e+04 1.187e-07
 52.42544     93.5 2.230e+04 1.135e-07
 52.43204     92.6 2.270e+04 1.069e-07
 52.43710     93.0 2.215e+04 8.554e-08
 52.44570     92.0 2.258e+04 7.336e-08
 52.45583     91.0 2.289e+04 6.070e-08
 52.46245     90.1 2.287e+04 4.909e-08
 52.46730     91.2 2.254e+04 5.110e-08
 52.47081     91.6 2.179e+04 3.738e-08
 52.47609     90.7 2.178e+04 3.136e-08
 52.48622     89.9 2.148e+04 2.712e-08
 52.49635     89.2 2.104e+04 2.523e-08
 52.50452     88.6 2.057e+04 2.451e-08
 52.51470     88.4 1.894e+04 1.391e-08
 52.53191     88.4 1.888e+04 1.533e-08
 52.55217     88.3 1.924e+04 1.940e-08
 52.57203     88.2 1.984e+04 2.641e-08
 52.58217     89.1 1.791e+04 7.201e-09
 52.59269     88.5 1.855e+04 1.047e-08
 52.61295     87.9 1.886e+04 1.574e-08
 52.63322     87.5 1.894e+04 2.226e-08
 52.64958     87.3 1.895e+04 2.800e-08
 52.65971     87.7 1.773e+04 1.464e-08
 52.67374     87.9 1.789e+04 1.969e-08
 52.69400     88.3 1.794e+04 2.102e-08
 52.71426     88.7 1.779e+04 1.839e-08
 52.72713     88.8 1.753e+04 1.395e-08
 52.73639     89.6 1.734e+04 1.424e-08
 52.74378     89.3 1.738e+04 1.237e-08
 52.75479     88.7 1.688e+04 8.707e-09
 52.77505     87.5 1.590e+04 6.151e-09
 52.79455     86.7 1.479e+04 4.841e-09
 52.80468     88.0 1.572e+04 5.683e-09
 52.81557     87.1 1.473e+04 4.522e-09
 52.83583     87.0 1.424e+04 4.051e-09
 52.85609     87.3 1.418e+04 3.895e-09
 52.87210     87.8 1.415e+04 3.816e-09
 52.88223     88.0 1.433e+04 3.961e-09
 52.89662     88.5 1.424e+04 3.818e-09
 52.91688     88.9 1.409e+04 3.645e-09
 52.93714     89.3 1.389e+04 3.381e-09
 52.94965     89.8 1.364e+04 3.038e-09
 52.95978     90.0 1.364e+04 2.994e-09
 52.97766     90.7 1.339e+04 2.597e-09
 52.99793     91.0 1.325e+04 2.389e-09
 53.02842     92.2 1.287e+04 1.802e-09
 53.06904     93.3 1.233e+04 1.190e-09
 53.09481     94.5 1.193e+04 8.345e-10
 53.11507     95.5 1.196e+04 8.301e-10
 53.15008     97.0 1.177e+04 6.878e-10
 53.19061     98.7 1.164e+04 5.925e-10
 53.22964    100.5 1.152e+04 5.151e-10
 53.24991    101.7 1.170e+04 6.080e-10
 53.27165    103.4 1.158e+04 5.292e-10
 53.29633    105.1 1.144e+04 4.495e-10
 53.31659    105.1 1.155e+04 4.623e-10
 53.35270    106.6 1.144e+04 3.865e-10
 53.38474    108.3 1.134e+04 3.686e-10
 53.40500    109.5 1.146e+04 4.123e-10
 53.43375    111.3 1.145e+04 4.164e-10
 53.47427    113.3 1.153e+04 4.600e-10
 53.51479    114.9 1.176e+04 5.711e-10
 53.53984    115.5 1.186e+04 6.794e-10
 53.54987    116.0 1.196e+04 6.621e-10
 53.56525    116.4 1.197e+04 7.240e-10
 53.58551    117.3 1.204e+04 8.641e-10
 53.60577    118.0 1.219e+04 1.050e-09
 53.61719    118.6 1.236e+04 1.266e-09
 53.62732    119.0 1.254e+04 1.263e-09
 53.64630    119.5 1.270e+04 1.508e-09
 53.66656    119.8 1.285e+04 1.775e-09
 53.68461    120.2 1.300e+04 2.040e-09
 53.69474    120.4 1.302e+04 2.033e-09
 53.70708    120.7 1.317e+04 2.242e-09
 53.72734    120.8 1.334e+04 2.302e-09
 53.74760    120.8 1.336e+04 2.271e-09
 53.76216    120.6 1.328e+04 2.139e-09
 53.77229    120.7 1.330e+04 2.136e-09
 53.78813    120.5 1.303e+04 1.776e-09
 53.80839    120.4 1.276e+04 1.553e-09
 53.82968    120.9 1.228e+04 1.149e-09
 53.85003    120.9 1.232e+04 1.121e-09
 53.87950    121.5 1.192e+04 7.787e-10
 53.92002    122.2 1.156e+04 5.132e-10
 53.96055    123.0 1.133e+04 3.748e-10
 53.98487    124.2 1.122e+04 3.165e-10
 54.00513    124.3 1.134e+04 4.004e-10
 54.04159    125.8 1.129e+04 3.692e-10
 54.08212    127.5 1.126e+04 3.380e-10
 54.11971    129.3 1.121e+04 3.052e-10
 54.13997    129.4 1.133e+04 3.823e-10
 54.16316    131.2 1.128e+04 3.557e-10
 54.20369    133.1 1.128e+04 3.567e-10
 54.24421    134.8 1.137e+04 3.892e-10
 54.27480    136.3 1.149e+04 4.873e-10
 54.29506    136.0 1.157e+04 5.468e-10
 54.31503    136.9 1.157e+04 6.306e-10
 54.33519    137.9 1.168e+04 7.519e-10
 54.35216    138.9 1.195e+04 9.768e-10
 54.36229    139.0 1.206e+04 1.059e-09
 54.37571    139.5 1.225e+04 1.188e-09
 54.40093    140.5 1.234e+04 1.295e-09
 54.42119    140.7 1.250e+04 1.389e-09
 54.42980    141.1 1.242e+04 1.328e-09
 54.43993    140.9 1.269e+04 1.590e-09
 54.45676    140.9 1.266e+04 1.574e-09
 54.48725    141.5 1.265e+04 1.599e-09
 54.52787    142.1 1.252e+04 1.480e-09
 54.55817    142.2 1.259e+04 1.566e-09
 54.57467    142.5 1.261e+04 1.595e-09
 54.58480    142.6 1.277e+04 1.776e-09
 54.59859    142.9 1.276e+04 1.785e-09
 54.61885    143.2 1.275e+04 1.788e-09
 54.63912    143.3 1.275e+04 1.776e-09
 54.65222    143.4 1.273e+04 1.750e-09
 54.66235    143.7 1.284e+04 1.870e-09
 54.67964    143.9 1.278e+04 1.809e-09
 54.69990    144.3 1.269e+04 1.700e-09
 54.71964    144.7 1.257e+04 1.546e-09
 54.72977    144.8 1.278e+04 1.725e-09
 54.74042    145.3 1.266e+04 1.571e-09
 54.76068    145.7 1.250e+04 1.386e-09
 54.78095    146.1 1.233e+04 1.187e-09
 54.79719    146.5 1.216e+04 9.950e-10
 54.80732    146.5 1.244e+04 1.262e-09
 54.82147    146.8 1.227e+04 1.075e-09
 54.84173    147.2 1.213e+04 9.055e-10
 54.86199    147.4 1.201e+04 7.669e-10
 54.87474    147.6 1.190e+04 6.416e-10
 54.88487    147.8 1.212e+04 8.350e-10
 54.90252    148.0 1.200e+04 6.912e-10
 54.93301    148.4 1.204e+04 6.545e-10
 54.97363    149.1 1.190e+04 5.209e-10
 55.00977    150.0 1.177e+04 4.200e-10
 55.03003    149.6 1.198e+04 4.495e-10
 55.05467    150.4 1.174e+04 3.459e-10
 55.09520    151.1 1.149e+04 3.011e-10
 55.13572    152.0 1.133e+04 2.954e-10
 55.16486    152.9 1.130e+04 2.985e-10
 55.18513    152.9 1.141e+04 2.997e-10
 55.21677    153.8 1.144e+04 3.383e-10
 55.25729    154.6 1.149e+04 3.955e-10
 55.29781    155.1 1.152e+04 4.564e-10
 55.31996    155.5 1.148e+04 4.965e-10
 55.32999    155.4 1.154e+04 5.358e-10
 55.34827    156.0 1.156e+04 5.747e-10
 55.36853    156.5 1.161e+04 5.882e-10
 55.38718    156.9 1.162e+04 5.831e-10
 55.39731    157.3 1.175e+04 6.274e-10
 55.40906    157.5 1.173e+04 5.983e-10
 55.42932    157.7 1.170e+04 5.553e-10
 55.44958    157.7 1.171e+04 5.092e-10
 55.46473    157.7 1.176e+04 4.909e-10
 55.47486    157.7 1.183e+04 5.097e-10
 55.49010    157.6 1.186e+04 5.116e-10
 55.51036    157.1 1.206e+04 5.402e-10
 55.52579    155.9 1.260e+04 6.716e-10
 55.53592    155.3 1.248e+04 6.413e-10
 55.54228    153.6 1.322e+04 1.048e-09
 55.55241    153.5 1.320e+04 1.114e-09
 55.57115    151.9 1.400e+04 1.831e-09
 55.59141    150.2 1.507e+04 3.158e-09
 55.60970    148.5 1.599e+04 5.029e-09
 55.61983    148.3 1.554e+04 3.703e-09
 55.63193    145.9 1.621e+04 4.755e-09
 55.65220    143.1 1.652e+04 5.521e-09
 55.67246    140.3 1.632e+04 5.773e-09
 55.68725    137.7 1.602e+04 5.457e-09
 55.69738    136.4 1.595e+04 5.362e-09
 55.71298    134.5 1.557e+04 5.158e-09
 55.73324    133.2 1.499e+04 4.388e-09
 55.75350    132.3 1.437e+04 3.308e-09
 55.76480    131.4 1.383e+04 2.444e-09
 55.77493    130.6 1.382e+04 2.331e-09
 55.79403    129.7 1.327e+04 1.664e-09
 55.82452    127.9 1.251e+04 9.449e-10
 55.86514    126.9 1.165e+04 6.161e-10
 55.89983    126.8 1.125e+04 5.643e-10
 55.92009    125.8 1.043e+04 2.828e-10
 55.94618    126.5 1.035e+04 2.860e-10
 55.98671    127.8 1.035e+04 2.899e-10
 56.02723    129.3 1.036e+04 2.985e-10
 56.05492    130.9 1.037e+04 3.097e-10
 56.07519    130.7 9.821e+03 2.015e-10
 56.10828    132.5 9.875e+03 2.140e-10
 56.14880    134.2 9.947e+03 2.296e-10
 56.18932    136.1 1.002e+04 2.484e-10
 56.21002    138.1 1.010e+04 2.703e-10
 56.23028    138.5 9.845e+03 2.346e-10
 56.27037    140.6 9.980e+03 2.657e-10
 56.31089    142.9 1.017e+04 3.182e-10
 56.34486    145.1 1.040e+04 4.000e-10
 56.36512    145.2 1.029e+04 3.835e-10
 56.39194    147.3 1.058e+04 5.065e-10
 56.43246    149.3 1.099e+04 7.007e-10
 56.47299    151.4 1.155e+04 1.001e-09
 56.49996    153.2 1.222e+04 1.415e-09
 56.52022    152.6 1.170e+04 1.138e-09
 56.55403    153.8 1.215e+04 1.420e-09
 56.57741    154.2 1.282e+04 1.930e-09
 56.58744    154.3 1.239e+04 1.628e-09
 56.60449    154.5 1.257e+04 1.798e-09
 56.62475    154.5 1.265e+04 1.883e-09
 56.64061    154.7 1.286e+04 2.114e-09
 56.65046    155.3 1.301e+04 2.305e-09
 56.65496    155.6 1.283e+04 2.018e-09
 56.67560    155.7 1.297e+04 2.062e-09
 56.71612    155.4 1.289e+04 1.955e-09
 56.75665    155.4 1.261e+04 1.679e-09
 56.78989    155.8 1.221e+04 1.371e-09
 56.81015    155.4 1.181e+04 1.165e-09
 56.83769    156.3 1.158e+04 1.035e-09
 56.87822    157.4 1.148e+04 9.680e-10
 56.91874    158.7 1.140e+04 9.317e-10
 56.94499    160.3 1.132e+04 9.077e-10
 56.96525    160.3 1.123e+04 9.088e-10
 56.99979    161.8 1.118e+04 9.002e-10
 57.04031    163.1 1.108e+04 8.127e-10
 57.07982    164.4 1.099e+04 6.935e-10
 57.10008    164.1 1.117e+04 8.552e-10
 57.12136    164.8 1.117e+04 7.900e-10
 57.16188    165.3 1.118e+04 7.592e-10
 57.20240    165.6 1.124e+04 7.636e-10
 57.23492    165.7 1.138e+04 7.821e-10
 57.25518    164.8 1.126e+04 7.348e-10
 57.28345    164.9 1.125e+04 6.718e-10
 57.32397    164.7 1.118e+04 5.673e-10
 57.36450    164.4 1.110e+04 4.916e-10
 57.39002    164.2 1.117e+04 4.937e-10
 57.41028    164.7 1.102e+04 4.896e-10
 57.43531    164.5 1.114e+04 5.088e-10
 57.45548    164.4 1.129e+04 5.328e-10
 57.46737    164.3 1.152e+04 5.843e-10
 57.47750    164.8 1.142e+04 5.696e-10
 57.49600    164.8 1.162e+04 6.303e-10
 57.51626    164.9 1.179e+04 7.143e-10
 57.53479    165.0 1.192e+04 8.189e-10
 57.54492    165.5 1.182e+04 7.625e-10
 57.55679    165.6 1.193e+04 8.548e-10
 57.57705    165.7 1.200e+04 9.535e-10
 57.59731    165.7 1.206e+04 1.055e-09
 57.61234    165.8 1.211e+04 1.155e-09
 57.62247    166.3 1.199e+04 1.004e-09
 57.63783    166.3 1.202e+04 1.075e-09
 57.65809    166.3 1.206e+04 1.137e-09
 57.67836    166.3 1.208e+04 1.180e-09
 57.68988    166.2 1.207e+04 1.195e-09
 57.70002    166.7 1.193e+04 1.044e-09
 57.71888    166.6 1.191e+04 1.062e-09
 57.73914    166.5 1.189e+04 1.081e-09
 57.75544    166.2 1.185e+04 1.060e-09
 57.76347    167.3 1.186e+04 1.147e-09
 57.76743    167.7 1.176e+04 1.101e-09
 57.77966    167.8 1.175e+04 1.114e-09
 57.81015    168.2 1.177e+04 1.113e-09
 57.83505    168.6 1.163e+04 1.066e-09
 57.85531    169.3 1.167e+04 1.057e-09
 57.89130    169.7 1.141e+04 9.000e-10
 57.93182    169.8 1.098e+04 6.138e-10
 57.96988    169.9 1.045e+04 3.378e-10
 57.99014    170.5 1.044e+04 2.969e-10
 58.01287    170.4 9.867e+03 1.375e-10
 58.05339    170.2 9.328e+03 7.031e-11
 58.09391    170.2 8.914e+03 5.770e-11
 58.12498    171.0 8.853e+03 5.659e-11
 58.14524    171.6 8.833e+03 5.819e-11
 58.17496    173.0 8.829e+03 5.834e-11
 58.21548    174.4 8.834e+03 6.158e-11
 58.25601    175.8 8.877e+03 7.627e-11
 58.28008    177.0 9.073e+03 1.129e-10
 58.30034    177.9 9.053e+03 1.148e-10
 58.33705    179.0 9.438e+03 1.828e-10
 58.37758    179.4 9.964e+03 3.164e-10
 58.41491    179.6 1.057e+04 5.533e-10
 58.43517    180.2 1.048e+04 5.183e-10
 58.45862    180.2 1.105e+04 8.208e-10
 58.49915    179.8 1.138e+04 9.970e-10
 58.53967    179.0 1.139e+04 9.865e-10
 58.57001    178.6 1.127e+04 9.082e-10
 58.59027    179.1 1.093e+04 7.225e-10
 58.62072    179.1 1.066e+04 5.734e-10
 58.66124    178.9 1.067e+04 4.991e-10
 58.70176    178.9 1.080e+04 5.072e-10
 58.72501    178.7 1.081e+04 4.889e-10
 58.74527    179.8 1.048e+04 3.766e-10
 58.77258    179.1 1.072e+04 4.542e-10
 58.79233    178.8 1.079e+04 5.191e-10
 58.80246    179.6 1.069e+04 4.386e-10
 58.81301    179.3 1.075e+04 4.982e-10
 58.83327    179.3 1.076e+04 5.364e-10
 58.85353    179.4 1.080e+04 5.571e-10
 58.86988    179.4 1.085e+04 5.720e-10
 58.87649    179.7 1.090e+04 6.084e-10
 58.88040    179.3 1.091e+04 6.596e-10
 58.89405    179.2 1.101e+04 7.051e-10
 58.91431    179.0 1.117e+04 7.705e-10
 58.93458    178.3 1.138e+04 8.802e-10
 58.94743    177.4 1.166e+04 1.062e-09
 58.95756    177.8 1.189e+04 1.289e-09
 58.97510    176.7 1.224e+04 1.580e-09
 58.99536    175.3 1.266e+04 1.967e-09
 59.01485    173.4 1.334e+04 2.523e-09
 59.02498    172.9 1.375e+04 2.932e-09
 59.03588    169.7 1.461e+04 3.696e-09
 59.05614    166.0 1.554e+04 4.851e-09
 59.07641    162.7 1.618e+04 6.220e-09
 59.09239    159.8 1.622e+04 6.472e-09
 59.10252    159.7 1.503e+04 4.030e-09
 59.11693    157.4 1.445e+04 3.248e-09
 59.13719    155.8 1.356e+04 2.342e-09
 59.15745    154.6 1.261e+04 1.574e-09
 59.16994    153.8 1.218e+04 1.155e-09
 59.19030    151.2 1.012e+04 4.265e-10
 59.22856    150.9 9.205e+03 2.790e-10
 59.26909    151.7 8.620e+03 1.905e-10
 59.30497    153.3 8.273e+03 1.380e-10
 59.32524    153.9 8.328e+03 1.488e-10
 59.35013    155.9 8.091e+03 1.225e-10
 59.39066    158.0 7.959e+03 1.136e-10
 59.43118    160.2 7.955e+03 1.140e-10
 59.46007    162.4 7.969e+03 1.176e-10
 59.48033    162.5 7.955e+03 1.162e-10
 59.51223    164.4 8.008e+03 1.282e-10
 59.55275    166.3 8.128e+03 1.520e-10
 59.59327    168.0 8.303e+03 1.890e-10
 59.61517    169.6 8.521e+03 2.361e-10
 59.63543    169.4 8.417e+03 2.177e-10
 59.67432    170.6 8.576e+03 2.444e-10
 59.71484    171.5 8.601e+03 2.452e-10
 59.75000    172.2 8.572e+03 2.372e-10
 59.77027    172.1 8.339e+03 1.904e-10
 59.79589    173.0 8.227e+03 1.671e-10
 59.83641    173.9 8.083e+03 1.397e-10
 59.87694    174.8 7.945e+03 1.152e-10
 59.90510    175.7 7.844e+03 9.775e-11
 59.92536    175.9 7.697e+03 9.428e-11
 59.95798    177.0 7.665e+03 9.125e-11
 59.98529    178.1 7.670e+03 9.133e-11
 60.00555    178.3 7.635e+03 8.602e-11
 60.03903    179.6 7.646e+03 8.668e-11
 60.06020    180.8 7.702e+03 9.090e-11
 60.08046    181.2 7.695e+03 9.118e-11
 60.12007    182.3 7.855e+03 1.040e-10
 60.16060    183.0 8.077e+03 1.259e-10
 60.19503    183.1 8.286e+03 1.523e-10
 60.21530    183.5 8.291e+03 1.539e-10
 60.24164    183.3 8.515e+03 1.837e-10
 60.28217    182.8 8.822e+03 2.247e-10
 60.32269    181.6 9.208e+03 2.885e-10
 60.35003    180.9 9.423e+03 3.391e-10
 60.36007    181.1 9.406e+03 3.470e-10
 60.37315    180.5 9.700e+03 4.271e-10
 60.39341    179.7 1.010e+04 5.764e-10
 60.41367    178.8 1.049e+04 7.643e-10
 60.42749    177.8 1.087e+04 9.386e-10
 60.43762    177.9 1.093e+04 9.748e-10
 60.45420    176.6 1.128e+04 1.115e-09
 60.47446    175.0 1.155e+04 1.200e-09
 60.49472    172.7 1.179e+04 1.256e-09
 60.50503    169.4 1.214e+04 1.366e-09
 60.51516    168.6 1.248e+04 1.579e-09
 60.53524    164.0 1.312e+04 2.065e-09
 60.54757    160.1 1.367e+04 3.031e-09
 60.55770    160.1 1.365e+04 3.068e-09
 60.57245    158.0 1.410e+04 4.336e-09
 60.58258    157.6 1.450e+04 5.169e-09
 60.59603    156.1 1.457e+04 5.333e-09
 60.61629    154.9 1.436e+04 4.917e-09
 60.63655    154.2 1.369e+04 3.525e-09
 60.65000    153.2 1.275e+04 2.103e-09
 60.66013    152.7 1.271e+04 1.985e-09
 60.68730    149.7 1.100e+04 7.229e-10
 60.72792    145.1 9.251e+03 3.412e-10
 60.76845    144.1 9.091e+03 3.337e-10
 60.79516    144.1 9.059e+03 3.355e-10
 60.81542    144.3 9.059e+03 3.402e-10
 60.84949    145.1 9.053e+03 3.317e-10
 60.89002    146.3 9.017e+03 3.043e-10
 60.93000    147.7 8.890e+03 2.610e-10
 60.95026    147.9 8.929e+03 2.643e-10
 60.97106    149.3 8.781e+03 2.111e-10
 61.01158    150.7 8.592e+03 1.623e-10
 61.05211    152.1 8.390e+03 1.321e-10
 61.08510    153.3 8.208e+03 1.178e-10
 61.10271    153.5 8.353e+03 1.506e-10
 61.11025    152.6 8.472e+03 1.701e-10
 61.13315    153.9 8.492e+03 1.752e-10
 61.17368    155.0 8.583e+03 1.940e-10
 61.21420    155.8 8.773e+03 2.321e-10
 61.24019    156.3 9.009e+03 2.896e-10
 61.26045    156.0 9.367e+03 3.661e-10
 61.29525    156.3 9.549e+03 4.477e-10
 61.33577    156.7 9.629e+03 4.972e-10
 61.37503    157.3 9.562e+03 4.945e-10
 61.39529    157.1 9.820e+03 5.873e-10
 61.41682    157.6 9.510e+03 4.815e-10
 61.45734    158.0 8.933e+03 3.139e-10
 61.49786    157.9 8.186e+03 1.843e-10
 61.53013    157.7 7.835e+03 1.493e-10
 61.55039    158.0 7.917e+03 1.582e-10
 61.57891    158.0 7.935e+03 1.623e-10
 61.61943    157.8 8.120e+03 1.938e-10
 61.65996    157.3 8.587e+03 2.732e-10
 61.68513    156.8 8.922e+03 3.441e-10
 61.69516    157.4 9.018e+03 3.622e-10
 61.71041    156.5 9.375e+03 4.685e-10
 61.73068    155.1 9.988e+03 6.677e-10
 61.75094    153.1 1.093e+04 1.027e-09
 61.76258    150.0 1.200e+04 1.430e-09
 61.77271    150.9 1.198e+04 1.424e-09
 61.79146    147.9 1.219e+04 1.487e-09
 61.81996    145.6 1.217e+04 1.452e-09
 61.84022    145.1 1.209e+04 1.368e-09
 61.86247    142.5 1.160e+04 1.064e-09
 61.90310    137.8 1.055e+04 6.584e-10
 61.93339    135.3 1.002e+04 5.606e-10
 61.95355    133.6 9.798e+03 5.207e-10
 61.97382    132.2 9.678e+03 4.952e-10
 61.98509    131.3 9.610e+03 4.797e-10
 61.99522    131.7 9.694e+03 5.251e-10
 62.01434    131.0 9.679e+03 5.213e-10
 62.03460    130.4 9.682e+03 5.217e-10
 62.05251    130.0 9.695e+03 5.258e-10
 62.06264    130.2 9.820e+03 5.755e-10
 62.07512    129.7 9.877e+03 5.939e-10
 62.10561    129.7 1.015e+04 6.507e-10
 62.13016    128.7 1.056e+04 7.987e-10
 62.14019    128.9 1.070e+04 8.861e-10
 62.15617    128.1 1.100e+04 1.003e-09
 62.17643    127.2 1.130e+04 1.127e-09
 62.19669    126.0 1.176e+04 1.297e-09
 62.20761    123.8 1.248e+04 1.624e-09
 62.21553    124.5 1.261e+04 1.809e-09
 62.22488    123.7 1.262e+04 1.815e-09
 62.23722    121.5 1.342e+04 2.396e-09
 62.25748    119.5 1.398e+04 3.133e-09
 62.27503    117.7 1.402e+04 3.358e-09
 62.28516    118.1 1.444e+04 3.750e-09
 62.29800    116.5 1.428e+04 3.631e-09
 62.31826    115.4 1.371e+04 3.093e-09
 62.33852    114.5 1.299e+04 2.263e-09
 62.35257    113.3 1.224e+04 1.533e-09
 62.36270    113.0 1.253e+04 1.679e-09
 62.37905    111.4 1.185e+04 1.261e-09
 62.39931    110.2 1.146e+04 1.137e-09
 62.42009    110.2 1.140e+04 1.111e-09
 62.44045    110.1 1.165e+04 1.195e-09
 62.47042    109.9 1.173e+04 1.309e-09
 62.51094    109.7 1.188e+04 1.404e-09
 62.54124    109.5 1.190e+04 1.417e-09
 62.56140    109.5 1.174e+04 1.351e-09
 62.57509    109.6 1.142e+04 1.174e-09
 62.58522    109.8 1.151e+04 1.218e-09
 62.60193    109.9 1.121e+04 1.039e-09
 62.62219    110.0 1.094e+04 8.710e-10
 62.64245    109.9 1.071e+04 7.391e-10
 62.66271    110.2 1.072e+04 6.791e-10
 62.68297    110.1 1.062e+04 6.257e-10
 62.70323    110.2 1.048e+04 5.312e-10
 62.72006    110.2 1.039e+04 4.791e-10
 62.73019    110.6 1.056e+04 5.541e-10
 62.74376    110.6 1.035e+04 4.457e-10
 62.76402    110.5 1.025e+04 4.112e-10
 62.79451    111.2 1.014e+04 3.756e-10
 62.83513    111.6 1.002e+04 3.633e-10
 62.86522    112.4 1.001e+04 3.681e-10
 62.87525    112.6 1.007e+04 4.049e-10
 62.88559    112.7 1.008e+04 4.084e-10
 62.90585    113.4 1.013e+04 4.101e-10
 62.92611    113.6 1.015e+04 4.108e-10
 62.94257    114.2 1.017e+04 4.054e-10
 62.95270    114.7 1.028e+04 4.529e-10
 62.96663    114.9 1.029e+04 4.420e-10
 62.98690    115.3 1.028e+04 4.257e-10
 63.00716    115.5 1.028e+04 4.225e-10
 63.02012    116.0 1.029e+04 4.254e-10
 63.03025    116.7 1.051e+04 5.035e-10
 63.04768    117.0 1.061e+04 5.332e-10
 63.06794    117.2 1.080e+04 6.040e-10
 63.08754    117.4 1.104e+04 7.120e-10
 63.09767    117.8 1.138e+04 8.621e-10
 63.10847    117.9 1.162e+04 1.040e-09
 63.12873    118.1 1.185e+04 1.229e-09
 63.14899    118.2 1.208e+04 1.355e-09
 63.16509    118.3 1.220e+04 1.362e-09
 63.17522    118.4 1.257e+04 1.659e-09
 63.18951    118.3 1.256e+04 1.632e-09
 63.20977    118.0 1.246e+04 1.492e-09
 63.23004    117.6 1.228e+04 1.259e-09
 63.24263    117.0 1.208e+04 1.019e-09
 63.25277    117.3 1.222e+04 1.084e-09
 63.27056    116.3 1.194e+04 8.215e-10
 63.29082    115.1 1.164e+04 7.145e-10
 63.31005    114.2 1.172e+04 7.340e-10
 63.32018    114.5 1.175e+04 7.230e-10
 63.32957    112.1 1.257e+04 9.246e-10
 63.33970    113.3 1.192e+04 8.437e-10
 63.35160    109.4 1.345e+04 1.351e-09
 63.37187    103.9 1.585e+04 3.192e-09
 63.38701    100.4 1.713e+04 6.554e-09
 63.39257    100.4 1.756e+04 1.069e-08
 63.39768    100.7 1.740e+04 8.754e-09
 63.41239    100.9 1.772e+04 1.342e-08
 63.43265    100.8 1.763e+04 1.284e-08
 63.45291    100.1 1.749e+04 8.886e-09
 63.46515     96.8 1.694e+04 4.626e-09
 63.47528     95.5 1.671e+04 3.508e-09
 63.49344     89.8 1.446e+04 1.899e-09
 63.51370     86.9 1.255e+04 1.430e-09
 63.53257     86.2 1.271e+04 1.222e-09
 63.54270     86.3 1.267e+04 1.309e-09
 63.55422     85.1 1.312e+04 1.338e-09
 63.57448     83.0 1.372e+04 1.483e-09
 63.59474     81.2 1.340e+04 1.587e-09
 63.61012     80.6 1.308e+04 1.527e-09
 63.62025     81.1 1.319e+04 1.791e-09
 63.63527     81.0 1.292e+04 1.347e-09
 63.65553     79.9 1.309e+04 8.648e-10
 63.67579     76.8 1.291e+04 6.115e-10
 63.68767     74.5 1.204e+04 5.581e-10
 63.69780     74.2 1.208e+04 5.653e-10
 63.71631     72.2 1.206e+04 6.703e-10
 63.73658     72.1 1.196e+04 8.583e-10
 63.75508     71.6 1.242e+04 1.179e-09
 63.76521     71.4 1.249e+04 1.230e-09
 63.77710     71.0 1.278e+04 1.549e-09
 63.79736     70.6 1.272e+04 1.588e-09
 63.81762     70.6 1.247e+04 1.465e-09
 63.83263     70.5 1.210e+04 1.152e-09
 63.84276     70.3 1.202e+04 1.021e-09
 63.85814     69.3 1.176e+04 7.807e-10
 63.87841     68.4 1.129e+04 6.180e-10
 63.89205     67.7 1.092e+04 5.400e-10
 63.90218     67.5 1.089e+04 5.218e-10
 63.91018     67.6 1.056e+04 4.761e-10
 63.92031     67.4 1.050e+04 4.623e-10
 63.93919     67.3 1.042e+04 4.486e-10
 63.96968     68.0 1.023e+04 3.930e-10
 64.01030     68.7 9.940e+03 3.258e-10
 64.04521     69.4 9.709e+03 2.703e-10
 64.06547     69.0 9.721e+03 2.695e-10
 64.09135     69.9 9.471e+03 2.293e-10
 64.13187     70.9 9.259e+03 1.904e-10
 64.17240     71.9 9.168e+03 1.655e-10
 64.20031     72.9 9.092e+03 1.594e-10
 64.22057     72.4 8.974e+03 1.390e-10
 64.25344     73.6 8.961e+03 1.413e-10
 64.29396     74.9 8.990e+03 1.546e-10
 64.33449     76.2 9.018e+03 1.720e-10
 64.35541     77.5 8.978e+03 1.826e-10
 64.37567     76.8 8.961e+03 1.822e-10
 64.41553     78.0 8.971e+03 1.901e-10
 64.44460     79.2 9.058e+03 2.092e-10
 64.46486     79.8 9.158e+03 2.410e-10
 64.49024     81.2 9.198e+03 2.551e-10
 64.51050     80.1 9.188e+03 2.557e-10
 64.53710     81.4 9.293e+03 2.774e-10
 64.56740     82.2 9.311e+03 2.903e-10
 64.57773     82.7 9.375e+03 3.071e-10
 64.58786     82.1 9.302e+03 2.912e-10
 64.60782     82.8 9.418e+03 3.122e-10
 64.62809     82.4 9.887e+03 3.766e-10
 64.64514     79.7 1.200e+04 6.992e-10
 64.65527     77.7 1.247e+04 8.568e-10
 64.66861     74.1 1.407e+04 2.120e-09
 64.68887     74.0 1.466e+04 4.301e-09
 64.70913     74.7 1.481e+04 6.034e-09
 64.72269     75.3 1.511e+04 6.626e-09
 64.73282     75.1 1.489e+04 5.845e-09
 64.74966     74.8 1.491e+04 5.155e-09
 64.76992     73.5 1.482e+04 3.634e-09
 64.79011     70.4 1.401e+04 2.090e-09
 64.81037     67.1 1.187e+04 1.291e-09
 64.83070     65.6 1.086e+04 9.456e-10
 64.86119     65.0 1.057e+04 7.029e-10
 64.89158     63.5 1.001e+04 4.676e-10
 64.91175     61.8 9.678e+03 3.418e-10
 64.93201     59.9 9.482e+03 3.270e-10
 64.94521     58.8 9.292e+03 3.243e-10
 64.95534     59.4 9.318e+03 3.157e-10
 64.97253     57.5 9.602e+03 3.728e-10
 64.99279     56.2 9.870e+03 4.501e-10
 65.00688     55.5 1.005e+04 5.428e-10
 65.01658     55.1 1.011e+04 6.899e-10
 65.02276     55.7 1.012e+04 6.902e-10
 65.03332     55.3 1.023e+04 7.387e-10
 65.05358     54.6 1.040e+04 7.136e-10
 65.07384     53.2 1.056e+04 6.553e-10
 65.09017     51.7 1.046e+04 6.279e-10
 65.10031     52.0 1.062e+04 6.849e-10
 65.11436     51.4 1.041e+04 6.687e-10
 65.14485     52.1 1.037e+04 7.816e-10
 65.18548     53.4 1.036e+04 8.679e-10
 65.22521     55.2 1.034e+04 8.020e-10
 65.24547     56.1 1.060e+04 8.795e-10
 65.26652     58.0 1.021e+04 5.925e-10
 65.30704     58.9 9.866e+03 3.820e-10
 65.34757     59.5 9.599e+03 3.021e-10
 65.38030     60.5 9.612e+03 3.174e-10
 65.40056     61.1 9.583e+03 3.057e-10
 65.42861     62.3 9.769e+03 3.738e-10
 65.46914     63.9 1.008e+04 5.189e-10
 65.50966     65.7 1.040e+04 6.138e-10
 65.53540     67.1 1.050e+04 6.086e-10
 65.55477     67.9 1.034e+04 5.197e-10
 65.56955     67.2 1.009e+04 3.743e-10
 65.59071     68.4 1.023e+04 3.917e-10
 65.61285     69.0 1.036e+04 4.560e-10
 65.62288     69.3 1.035e+04 4.484e-10
 65.64117     69.8 1.042e+04 5.023e-10
 65.66143     70.4 1.050e+04 5.682e-10
 65.68017     71.1 1.063e+04 6.447e-10
 65.69030     71.3 1.068e+04 6.704e-10
 65.70195     72.1 1.080e+04 7.373e-10
 65.72221     72.8 1.103e+04 7.951e-10
 65.74247     73.8 1.107e+04 7.838e-10
 65.75772     74.0 1.117e+04 7.580e-10
 65.76785     74.2 1.123e+04 7.930e-10
 65.79323     74.9 1.106e+04 6.446e-10
 65.82533     75.2 1.100e+04 5.347e-10
 65.84559     75.4 1.098e+04 4.994e-10
 65.87437     75.7 1.097e+04 4.811e-10
 65.91489     76.2 1.107e+04 4.953e-10
 65.95542     76.7 1.123e+04 5.412e-10
 65.98043     77.0 1.143e+04 6.213e-10
 66.00069     77.1 1.135e+04 6.184e-10
 66.03646     77.5 1.152e+04 7.540e-10
 66.07699     77.8 1.146e+04 8.090e-10
 66.11527     78.6 1.118e+04 7.367e-10
 66.13553     79.0 1.109e+04 7.065e-10
 66.15803     80.4 1.057e+04 5.119e-10
 66.19856     81.9 1.008e+04 3.122e-10
 66.23908     83.0 9.799e+03 1.900e-10
 66.27036     84.1 9.570e+03 1.399e-10
 66.29063     84.6 9.572e+03 1.545e-10
 66.32013     86.1 9.322e+03 1.416e-10
 66.36065     87.9 9.284e+03 1.424e-10
 66.40117     89.6 9.283e+03 1.470e-10
 66.42546     91.3 9.316e+03 1.608e-10
 66.44572     91.7 9.286e+03 1.623e-10
 66.48222     93.2 9.381e+03 1.836e-10
 66.52274     94.8 9.502e+03 2.150e-10
 66.56030     96.3 9.650e+03 2.551e-10
 66.58056     96.4 9.601e+03 2.527e-10
 66.60379     98.0 9.768e+03 2.978e-10
 66.64431     99.4 9.987e+03 3.570e-10
 66.67415    100.3 1.022e+04 4.392e-10
 66.69441    100.1 1.035e+04 4.853e-10
 66.71539    100.7 1.085e+04 6.874e-10
 66.73556    100.7 1.080e+04 6.691e-10
 66.76578    101.1 1.124e+04 9.115e-10
 66.80640    101.2 1.185e+04 1.271e-09
 66.84693    100.9 1.223e+04 1.408e-09
 66.87049    100.2 1.212e+04 1.251e-09
 66.89075     99.6 1.199e+04 1.187e-09
 66.92797     99.3 1.141e+04 7.888e-10
 66.96850     99.2 1.069e+04 4.434e-10
 67.00533     99.0 1.013e+04 2.474e-10
 67.02559     98.7 9.991e+03 2.172e-10
 67.04954     98.7 9.783e+03 1.473e-10
 67.09007     99.2 9.780e+03 1.446e-10
 67.13059     99.6 9.853e+03 1.603e-10
 67.16042     99.7 1.012e+04 2.290e-10
 67.18069     99.9 9.900e+03 1.659e-10
 67.21164     99.9 1.028e+04 2.697e-10
 67.25216    100.0 1.064e+04 4.034e-10
 67.29268    100.1 1.093e+04 4.657e-10
 67.31552    100.2 1.093e+04 4.298e-10
 67.33578    100.7 1.066e+04 3.471e-10
 67.37373    100.8 1.061e+04 2.913e-10
 67.41425    101.1 1.046e+04 2.116e-10
 67.45036    101.3 1.026e+04 1.532e-10
 67.47062    102.0 1.027e+04 1.707e-10
 67.49530    102.7 1.023e+04 1.639e-10
 67.53582    103.5 1.031e+04 1.736e-10
 67.57634    104.3 1.061e+04 2.261e-10
 67.60545    104.9 1.098e+04 3.247e-10
 67.61549    105.1 1.092e+04 3.145e-10
 67.62680    105.4 1.110e+04 3.725e-10
 67.64706    105.5 1.141e+04 4.905e-10
 67.66733    105.5 1.180e+04 6.761e-10
 67.68281    105.2 1.230e+04 9.909e-10
 67.69294    105.3 1.255e+04 1.182e-09
 67.70785    104.8 1.317e+04 1.813e-09
 67.72811    104.8 1.383e+04 2.618e-09
 67.74837    104.9 1.445e+04 3.153e-09
 67.76036    104.8 1.457e+04 3.098e-09
 67.77049    104.9 1.472e+04 3.397e-09
 67.78888    104.5 1.482e+04 2.808e-09
 67.80914    102.5 1.448e+04 1.577e-09
 67.82777     99.4 1.391e+04 1.181e-09
 67.83791     99.5 1.394e+04 1.197e-09
 67.84968     97.0 1.343e+04 1.193e-09
 67.86994     94.7 1.343e+04 1.326e-09
 67.89020     92.6 1.374e+04 1.854e-09
 67.90532     90.9 1.442e+04 2.815e-09
 67.91545     91.5 1.496e+04 3.618e-09
 67.93073     90.3 1.552e+04 4.654e-09
 67.95099     88.3 1.569e+04 4.747e-09
 67.97125     86.0 1.560e+04 4.444e-09
 67.98287     83.3 1.535e+04 3.745e-09
 67.99300     82.6 1.574e+04 4.403e-09
 68.01177     79.8 1.541e+04 3.977e-09
 68.03204     78.3 1.487e+04 3.556e-09
 68.05029     78.2 1.394e+04 2.628e-09
 68.06042     77.9 1.516e+04 4.399e-09
 68.07256     77.5 1.459e+04 3.027e-09
 68.09282     76.2 1.419e+04 2.010e-09
 68.11308     74.4 1.361e+04 1.425e-09
 68.12784     73.2 1.301e+04 1.188e-09
 68.13797     71.8 1.299e+04 1.162e-09
 68.15360     71.7 1.290e+04 1.135e-09
 68.17387     71.7 1.290e+04 1.152e-09
 68.19413     71.8 1.291e+04 1.200e-09
 68.20539     72.1 1.291e+04 1.212e-09
 68.21552     71.4 1.268e+04 9.263e-10
 68.23465     71.6 1.264e+04 8.840e-10
 68.25491     71.9 1.257e+04 8.132e-10
 68.27281     72.0 1.245e+04 7.386e-10
 68.28294     71.1 1.217e+04 6.174e-10
 68.29544     71.3 1.206e+04 6.176e-10
 68.31570     71.5 1.199e+04 6.301e-10
 68.33596     71.8 1.201e+04 6.553e-10
 68.35035     71.9 1.210e+04 7.147e-10
 68.35562     71.6 1.214e+04 7.312e-10
 68.36149     70.5 1.232e+04 7.951e-10
 68.37648     69.8 1.276e+04 1.029e-09
 68.39674     68.9 1.316e+04 1.434e-09
 68.41701     68.6 1.337e+04 1.929e-09
 68.42790     69.0 1.321e+04 2.130e-09
 68.43803     69.1 1.311e+04 1.985e-09
 68.45753     69.7 1.300e+04 1.890e-09
 68.47779     70.3 1.289e+04 1.633e-09
 68.49532     70.3 1.290e+04 1.251e-09
 68.50545     70.3 1.274e+04 1.477e-09
 68.51831     70.4 1.261e+04 1.162e-09
 68.53858     70.0 1.235e+04 8.850e-10
 68.55884     68.9 1.209e+04 7.029e-10
 68.57287     66.5 1.229e+04 7.364e-10
 68.58300     69.2 1.362e+04 1.158e-09
 68.59936     66.8 1.433e+04 1.343e-09
 68.61962     62.3 1.429e+04 1.732e-09
 68.63988     57.6 1.492e+04 2.507e-09
 68.65037     51.9 1.722e+04 4.490e-09
 68.65539     51.0 1.794e+04 6.481e-09
 68.66511     48.6 1.928e+04 8.773e-09
 68.67524     45.8 1.975e+04 1.291e-08
 68.68403     44.2 2.018e+04 1.483e-08
 68.68909     44.9 2.071e+04 1.752e-08
 68.70062     42.4 2.018e+04 1.569e-08
 68.71784     38.9 1.816e+04 1.245e-08
 68.72797     37.1 1.832e+04 1.054e-08
 68.74119     34.4 1.740e+04 5.800e-09
 68.76145     29.3 1.590e+04 2.819e-09
 68.78171     24.2 1.306e+04 1.745e-09
 68.79538     23.6 1.259e+04 1.658e-09
 68.80552     23.2 1.272e+04 1.659e-09
 68.82224     23.3 1.272e+04 1.777e-09
 68.84250     23.4 1.273e+04 1.855e-09
 68.86276     23.1 1.286e+04 1.817e-09
 68.88302     20.7 1.384e+04 2.580e-09
 68.90328     19.2 1.447e+04 3.081e-09
 68.91384     18.5 1.476e+04 3.318e-09
 68.92397     19.2 1.467e+04 3.384e-09
 68.94035     18.9 1.463e+04 3.419e-09
 68.95048     18.7 1.543e+04 4.704e-09
 68.96407     18.8 1.490e+04 4.075e-09
 68.98433     18.4 1.352e+04 2.648e-09
 69.00459     17.8 1.222e+04 1.580e-09
 69.01790     17.3 1.168e+04 1.036e-09
 69.02803     15.8 1.192e+04 1.074e-09
 69.04512     15.2 1.130e+04 7.524e-10
 69.06538     15.1 1.073e+04 5.757e-10
 69.08532     15.5 1.033e+04 4.829e-10
 69.09545     15.0 1.036e+04 5.271e-10
 69.10590     16.3 1.008e+04 4.417e-10
 69.12616     16.5 9.985e+03 4.171e-10
 69.15665     18.2 9.542e+03 3.251e-10
 69.19727     20.8 9.159e+03 2.572e-10
 69.23048     23.0 8.978e+03 2.169e-10
 69.25074     22.6 8.756e+03 1.708e-10
 69.27832     24.5 8.623e+03 1.547e-10
 69.31884     26.3 8.574e+03 1.517e-10
 69.35937     28.0 8.561e+03 1.795e-10
 69.38558     30.0 8.621e+03 2.257e-10
 69.40584     30.2 8.529e+03 2.184e-10
 69.44041     32.6 8.637e+03 2.535e-10
 69.48094     34.6 8.676e+03 2.579e-10
 69.52041     36.4 8.672e+03 2.284e-10
 69.54067     36.7 8.693e+03 2.290e-10
 69.56198     37.7 8.691e+03 2.227e-10
 69.60250     38.6 8.808e+03 2.661e-10
 69.64303     40.1 9.103e+03 3.320e-10
 69.67551     41.6 9.312e+03 3.673e-10
 69.69577     42.0 9.353e+03 3.681e-10
 69.72407     42.7 9.680e+03 3.930e-10
 69.76460     42.6 1.001e+04 5.129e-10
 69.80512     43.0 1.027e+04 7.310e-10
 69.83061     44.2 1.044e+04 8.519e-10
 69.85087     44.6 1.104e+04 1.133e-09
 69.87594     45.1 1.097e+04 1.046e-09
 69.89610     45.0 1.096e+04 1.035e-09
 69.90796     44.8 1.081e+04 9.222e-10
 69.91809     45.0 1.115e+04 1.085e-09
 69.93663     44.6 1.101e+04 1.035e-09
 69.96535     44.4 1.068e+04 8.795e-10
 69.98561     44.3 1.094e+04 1.017e-09
 70.00764     44.1 1.064e+04 8.737e-10
 70.02886     42.9 1.072e+04 7.505e-10
 70.04912     43.1 1.071e+04 7.271e-10
 70.07856     40.4 1.181e+04 9.439e-10
 70.09872     37.0 1.270e+04 1.512e-09
 70.11898     35.4 1.300e+04 2.271e-09
 70.13048     35.2 1.338e+04 3.015e-09
 70.14061     34.3 1.340e+04 2.731e-09
 70.15950     34.0 1.362e+04 3.334e-09
 70.17977     33.3 1.418e+04 3.406e-09
 70.19789     30.6 1.515e+04 3.219e-09
 70.20802     29.9 1.559e+04 4.120e-09
 70.22029     25.7 1.507e+04 3.556e-09
 70.24055     22.8 1.400e+04 3.139e-09
 70.26081     22.5 1.374e+04 3.145e-09
 70.27544     22.6 1.349e+04 2.463e-09
 70.28557     22.2 1.400e+04 2.415e-09
 70.30134     20.3 1.330e+04 1.532e-09
 70.32160     17.9 1.244e+04 9.797e-10
 70.34186     16.5 1.192e+04 8.116e-10
 70.37235     15.4 1.174e+04 7.617e-10
 70.41047     14.6 1.190e+04 7.999e-10
 70.43074     13.4 1.208e+04 8.305e-10
 70.45349     13.1 1.211e+04 9.399e-10
 70.49402     13.1 1.221e+04 9.907e-10
 70.53454     12.7 1.236e+04 1.002e-09
 70.56557     11.0 1.258e+04 1.035e-09
 70.58583     10.5 1.183e+04 6.072e-10
 70.61559      8.5 1.191e+04 7.168e-10
 70.64302      6.5 1.223e+04 9.789e-10
 70.65305      6.8 1.193e+04 8.149e-10
 70.66604      6.0 1.208e+04 9.612e-10
 70.68631      4.9 1.221e+04 1.267e-09
 70.70657      4.3 1.225e+04 1.355e-09
 70.72047      3.7 1.207e+04 1.336e-09
 70.73060      4.4 1.186e+04 1.170e-09
 70.74709      3.9 1.151e+04 1.007e-09
 70.76735      3.2 1.110e+04 7.536e-10
 70.78761      2.2 1.073e+04 5.646e-10
 70.79802      1.1 1.037e+04 4.393e-10
 70.80815      1.8 1.042e+04 4.594e-10
 70.82814      1.0 1.009e+04 3.892e-10
 70.85541      0.6 9.823e+03 3.412e-10
 70.87567      1.2 9.866e+03 3.720e-10
 70.89915      1.7 9.800e+03 3.730e-10
 70.93977      1.7 9.684e+03 3.399e-10
 70.98029      1.3 9.690e+03 3.279e-10
 71.01050      0.3 9.807e+03 3.736e-10
 71.03067      0.0 1.024e+04 5.608e-10
 71.05101     -0.1 1.050e+04 6.949e-10
 71.07128     -0.1 1.073e+04 7.990e-10
 71.08795     -0.4 1.089e+04 8.634e-10
 71.09809     -0.0 1.107e+04 9.611e-10
 71.11180     -0.7 1.111e+04 9.761e-10
 71.13206     -1.6 1.121e+04 1.001e-09
 71.14349     -2.9 1.145e+04 1.099e-09
 71.15362     -3.9 1.183e+04 1.279e-09
 71.16550     -5.4 1.215e+04 1.528e-09
 71.17563     -5.5 1.252e+04 1.827e-09
 71.19285     -6.3 1.279e+04 2.184e-09
 71.21311     -6.8 1.290e+04 2.317e-09
 71.23292     -7.1 1.285e+04 2.297e-09
 71.24305     -6.8 1.337e+04 2.872e-09
 71.25363     -6.9 1.291e+04 2.237e-09
 71.27389     -7.5 1.218e+04 1.508e-09
 71.29415     -8.6 1.144e+04 1.040e-09
 71.31047     -9.6 1.087e+04 8.024e-10
 71.32060    -10.0 1.122e+04 9.782e-10
 71.33468    -10.5 1.099e+04 8.961e-10
 71.35494    -10.8 1.093e+04 8.806e-10
 71.37520    -11.0 1.096e+04 9.068e-10
 71.38802    -10.9 1.110e+04 9.657e-10
 71.39815    -11.1 1.159e+04 1.291e-09
 71.41572    -10.9 1.164e+04 1.329e-09
 71.43598    -10.6 1.162e+04 1.329e-09
 71.45544    -10.1 1.144e+04 1.205e-09
 71.46557    -10.1 1.166e+04 1.390e-09
 71.47651     -9.8 1.136e+04 1.118e-09
 71.49677     -9.8 1.107e+04 8.854e-10
 71.51703    -10.0 1.081e+04 7.253e-10
 71.53299    -10.3 1.063e+04 6.414e-10
 71.54312    -10.7 1.066e+04 6.455e-10
 71.55755    -10.9 1.057e+04 6.128e-10
 71.57782    -10.6 1.052e+04 6.037e-10
 71.59808    -10.3 1.045e+04 5.926e-10
 71.61053     -9.9 1.032e+04 5.729e-10
 71.62066    -10.2 1.031e+04 5.727e-10
 71.63860     -9.8 1.025e+04 5.520e-10
 71.65886     -9.5 1.024e+04 5.308e-10
 71.67795     -9.3 1.029e+04 5.232e-10
 71.68808     -9.7 1.036e+04 5.380e-10
 71.69584    -10.0 1.052e+04 5.519e-10
 71.70597    -11.6 1.083e+04 7.051e-10
 71.71965    -12.0 1.090e+04 7.521e-10
 71.73991    -12.2 1.088e+04 8.010e-10
 71.75550    -12.2 1.082e+04 8.370e-10
 71.76563    -12.3 1.094e+04 9.570e-10
 71.78043    -11.8 1.085e+04 9.672e-10
 71.80069    -11.1 1.067e+04 9.131e-10
 71.82096    -10.4 1.053e+04 8.020e-10
 71.83305    -10.0 1.039e+04 6.673e-10
 71.84318    -10.0 1.047e+04 6.921e-10
 71.86148    -10.0 1.028e+04 5.145e-10
 71.88174    -10.4 1.009e+04 4.008e-10
 71.90047    -10.6 9.940e+03 3.509e-10
 71.91060    -10.8 9.935e+03 3.524e-10
 71.92226    -10.7 9.884e+03 3.419e-10
 71.94252     -9.9 9.881e+03 3.418e-10
 71.96279     -9.8 9.877e+03 3.418e-10
 71.97802     -9.2 9.995e+03 3.585e-10
 71.98815     -9.4 1.003e+04 3.633e-10
 72.00331     -9.3 1.005e+04 3.729e-10
 72.02357     -9.0 1.020e+04 4.131e-10
 72.04383     -8.9 1.029e+04 4.399e-10
 72.05556     -8.7 1.048e+04 5.014e-10
 72.06569     -9.0 1.068e+04 5.689e-10
 72.08436     -8.8 1.083e+04 6.104e-10
 72.10462     -8.7 1.093e+04 6.430e-10
 72.12298     -8.4 1.098e+04 6.565e-10
 72.13311     -8.7 1.107e+04 7.063e-10
 72.14514     -8.4 1.106e+04 6.800e-10
 72.16540     -8.1 1.101e+04 6.272e-10
 72.19050     -7.7 1.100e+04 5.717e-10
 72.21086     -8.5 1.086e+04 4.755e-10
 72.23651     -8.0 1.055e+04 3.280e-10
 72.25851     -7.3 1.019e+04 2.141e-10
 72.27878     -7.3 1.032e+04 2.445e-10
 72.31756     -6.5 1.014e+04 1.814e-10
 72.34569     -5.6 1.005e+04 1.470e-10
 72.36595     -6.2 9.905e+03 1.133e-10
 72.39861     -5.0 9.916e+03 1.053e-10
 72.43913     -3.5 9.929e+03 1.037e-10
 72.47965     -2.1 1.000e+04 1.047e-10
 72.50079     -0.7 1.013e+04 1.118e-10
 72.52105     -1.4 1.009e+04 8.263e-11
 72.56070     -0.7 1.024e+04 8.989e-11
 72.60122     -0.9 1.054e+04 1.050e-10
 72.63563     -1.4 1.096e+04 1.471e-10
 72.65589     -2.7 1.085e+04 1.390e-10
 72.68227     -2.4 1.107e+04 2.070e-10
 72.72279     -2.1 1.121e+04 2.478e-10
 72.76332     -2.3 1.134e+04 2.454e-10
 72.79072     -3.3 1.147e+04 2.390e-10
 72.81098     -4.4 1.128e+04 2.098e-10
 72.84436     -5.4 1.159e+04 3.368e-10
 72.86817     -5.7 1.193e+04 5.201e-10
 72.87821     -5.9 1.192e+04 4.989e-10
 72.89482     -6.7 1.219e+04 6.663e-10
 72.91508     -7.0 1.252e+04 9.108e-10
 72.93534     -7.6 1.277e+04 1.056e-09
 72.94563     -8.4 1.287e+04 1.123e-09
 72.95576     -8.6 1.298e+04 1.184e-09
 72.97587     -9.7 1.300e+04 1.202e-09
 72.99613    -10.7 1.286e+04 1.139e-09
 73.01304    -11.7 1.261e+04 9.535e-10
 73.02317    -12.0 1.262e+04 9.688e-10
 73.03665    -12.9 1.229e+04 7.649e-10
 73.05691    -13.4 1.222e+04 6.983e-10
 73.08056    -14.6 1.198e+04 5.497e-10
 73.10082    -14.6 1.198e+04 5.495e-10
 73.12793    -15.8 1.160e+04 4.127e-10
 73.16855    -15.9 1.128e+04 3.132e-10
 73.20907    -15.9 1.101e+04 2.269e-10
 73.23575    -16.2 1.098e+04 2.023e-10
 73.25602    -16.3 1.083e+04 1.536e-10
 73.29012    -16.6 1.088e+04 1.532e-10
 73.33064    -17.3 1.106e+04 2.264e-10
 73.36321    -17.5 1.119e+04 3.556e-10
 73.38290    -17.6 1.137e+04 4.020e-10
 73.39085    -17.1 1.106e+04 2.602e-10
 73.41169    -17.0 1.113e+04 3.265e-10
 73.45221    -16.7 1.115e+04 3.413e-10
 73.49273    -16.3 1.102e+04 3.015e-10
 73.52569    -15.6 1.088e+04 2.463e-10
 73.54595    -14.5 1.074e+04 2.119e-10
 73.57378    -13.6 1.069e+04 1.985e-10
 73.61430    -12.6 1.068e+04 2.003e-10
 73.65483    -11.8 1.078e+04 2.269e-10
 73.68078    -10.9 1.100e+04 2.717e-10
 73.70105     -9.5 1.093e+04 2.686e-10
 73.73587     -8.4 1.125e+04 3.266e-10
 73.77640     -7.7 1.160e+04 4.000e-10
 73.80669     -6.8 1.167e+04 4.639e-10
 73.82556     -6.7 1.169e+04 5.069e-10
 73.83578     -5.9 1.172e+04 4.814e-10
 73.85744     -5.5 1.185e+04 6.079e-10
 73.89797     -5.2 1.202e+04 7.443e-10
 73.93849     -4.9 1.227e+04 8.256e-10
 73.96878     -4.8 1.251e+04 9.619e-10
 73.98065     -5.5 1.278e+04 1.088e-09
 73.99078     -5.7 1.311e+04 1.567e-09
 74.00921     -6.0 1.327e+04 1.742e-09
 74.02947     -6.3 1.331e+04 1.797e-09
 74.04807     -6.6 1.335e+04 1.757e-09
 74.05820     -6.4 1.367e+04 2.150e-09
 74.06999     -7.1 1.349e+04 1.667e-09
 74.09025     -8.2 1.314e+04 1.272e-09
 74.11052     -9.2 1.268e+04 1.057e-09
 74.12572     -9.4 1.248e+04 9.938e-10
 74.14608    -10.7 1.236e+04 9.788e-10
 74.18163    -10.6 1.220e+04 8.910e-10
 74.20327     -9.7 1.211e+04 8.291e-10
 74.21330    -10.1 1.208e+04 8.213e-10
 74.23209    -10.1 1.207e+04 8.148e-10
 74.25235    -10.1 1.202e+04 8.034e-10
 74.27059    -10.2 1.201e+04 7.978e-10
 74.28081    -11.8 1.200e+04 8.296e-10
 74.30320    -11.7 1.189e+04 7.900e-10
 74.34372    -11.6 1.173e+04 7.168e-10
 74.38424    -11.1 1.146e+04 5.976e-10
 74.41575    -10.5 1.109e+04 4.413e-10
 74.43601    -11.6 1.125e+04 6.087e-10
 74.46529    -10.8 1.112e+04 5.364e-10
 74.48817     -9.9 1.115e+04 5.290e-10
 74.50843     -9.3 1.119e+04 5.263e-10
 74.54634     -8.7 1.151e+04 6.493e-10
 74.57084     -8.2 1.213e+04 1.018e-09
 74.59111     -9.6 1.256e+04 1.468e-09
 74.62738     -9.0 1.300e+04 1.869e-09
 74.64830     -8.6 1.355e+04 2.610e-09
 74.65833     -9.1 1.326e+04 2.207e-09
 74.67784     -8.8 1.330e+04 2.251e-09
 74.69810     -8.5 1.324e+04 2.143e-09
 74.71562     -8.4 1.305e+04 1.888e-09
 74.72584     -9.1 1.239e+04 1.282e-09
 74.74895     -9.2 1.185e+04 9.621e-10
 74.78948     -9.1 1.135e+04 7.562e-10
 74.83000     -8.6 1.092e+04 5.847e-10
 74.86078     -7.8 1.043e+04 4.264e-10
 74.88104     -7.8 9.947e+03 2.735e-10
 74.91105     -6.7 9.860e+03 2.805e-10
 74.95157     -5.3 9.905e+03 3.115e-10
 74.99209     -3.7 1.004e+04 3.464e-10
 75.01588     -2.1 1.020e+04 3.818e-10
 75.03614     -2.0 1.004e+04 3.407e-10
 75.07314     -1.1 1.025e+04 3.876e-10
 75.11366     -0.5 1.055e+04 4.790e-10
 75.15071     -0.1 1.094e+04 6.350e-10
 75.17097     -0.6 1.091e+04 6.814e-10
 75.19471      0.0 1.139e+04 9.661e-10
 75.23523      0.5 1.186e+04 1.275e-09
 75.27575      0.8 1.211e+04 1.429e-09
 75.30581      0.9 1.217e+04 1.438e-09
 75.32607      0.6 1.165e+04 1.151e-09
 75.35680      0.8 1.138e+04 1.017e-09
 75.39732      1.3 1.100e+04 8.135e-10
 75.43785      2.3 1.042e+04 5.437e-10
 75.46091      3.1 9.890e+03 3.545e-10
 75.48117      3.6 9.810e+03 3.385e-10
 75.51889      4.4 9.696e+03 3.035e-10
 75.55942      5.2 9.840e+03 3.514e-10
 75.59286      5.9 1.039e+04 5.652e-10
 75.60893      6.0 1.029e+04 5.394e-10
 75.61600      6.7 1.049e+04 6.158e-10
 75.64046      8.2 1.096e+04 8.802e-10
 75.68099      9.4 1.123e+04 9.780e-10
 75.72151      9.7 1.128e+04 9.209e-10
 75.75084      9.7 1.111e+04 8.151e-10
 75.77110     10.6 1.132e+04 9.654e-10
 75.80256     10.7 1.131e+04 9.687e-10
 75.84308     11.6 1.147e+04 1.106e-09
 75.88360     12.8 1.153e+04 1.163e-09
 75.90594     14.1 1.141e+04 1.052e-09
 75.92620     14.9 1.162e+04 1.186e-09
 75.96465     16.0 1.133e+04 9.256e-10
 76.00517     16.7 1.108e+04 7.887e-10
 76.04077     17.8 1.101e+04 7.760e-10
 76.06103     18.4 1.123e+04 9.034e-10
 76.08622     19.4 1.137e+04 1.043e-09
 76.11651     19.8 1.145e+04 1.100e-09
 76.12826     19.6 1.166e+04 1.133e-09
 76.13839     19.8 1.164e+04 1.160e-09
 76.15515     17.7 1.310e+04 1.513e-09
 76.16528     19.6 1.232e+04 1.372e-09
 76.17720     15.9 1.426e+04 2.217e-09
 76.19567     13.0 1.555e+04 4.191e-09
 76.20580     14.0 1.535e+04 3.482e-09
 76.21772     12.4 1.592e+04 6.097e-09
 76.23798     12.2 1.616e+04 8.993e-09
 76.25825     13.2 1.619e+04 1.006e-08
 76.27322     13.9 1.587e+04 9.164e-09
 76.28335     13.5 1.584e+04 8.987e-09
 76.29877     13.6 1.509e+04 6.210e-09
 76.31903     12.6 1.410e+04 4.332e-09
 76.33929     12.2 1.329e+04 2.927e-09
 76.35077     12.4 1.248e+04 1.890e-09
 76.36090     12.7 1.292e+04 2.472e-09
 76.37982     12.9 1.211e+04 1.587e-09
 76.40008     12.9 1.117e+04 1.001e-09
 76.41819     13.0 1.039e+04 6.840e-10
 76.42832     13.3 1.080e+04 8.603e-10
 76.44060     13.2 1.051e+04 6.884e-10
 76.46086     13.0 1.036e+04 6.280e-10
 76.48112     12.9 1.037e+04 6.165e-10
 76.49574     12.6 1.052e+04 6.814e-10
 76.50587     12.4 1.093e+04 8.535e-10
 76.52165     12.2 1.096e+04 9.951e-10
 76.54191     12.8 1.107e+04 1.163e-09
 76.56217     13.3 1.125e+04 1.320e-09
 76.57329     13.8 1.138e+04 1.407e-09
 76.58342     13.8 1.176e+04 1.638e-09
 76.61292     14.2 1.173e+04 1.507e-09
 76.64090     14.1 1.133e+04 1.201e-09
 76.66116     12.1 1.172e+04 1.325e-09
 76.68384     12.0 1.128e+04 1.144e-09
 76.70400     11.7 1.131e+04 1.168e-09
 76.71763     11.0 1.123e+04 1.177e-09
 76.72175     11.2 1.131e+04 1.199e-09
 76.72838     10.0 1.174e+04 1.495e-09
 76.74453      9.0 1.213e+04 1.704e-09
 76.76479      7.2 1.294e+04 2.130e-09
 76.78505      4.7 1.379e+04 2.804e-09
 76.79580      2.7 1.427e+04 3.691e-09
 76.80593      2.1 1.454e+04 4.210e-09
 76.82557      1.2 1.455e+04 4.599e-09
 76.84583      0.8 1.448e+04 4.686e-09
 76.86322      0.9 1.411e+04 4.306e-09
 76.87335      0.5 1.392e+04 3.839e-09
 76.88636      0.3 1.320e+04 2.545e-09
 76.90662     -1.5 1.217e+04 1.531e-09
 76.93074     -3.2 1.091e+04 9.356e-10
 76.95109     -4.4 1.057e+04 8.287e-10
 76.97773     -5.4 9.845e+03 5.971e-10
 77.01825     -5.8 9.667e+03 5.539e-10
 77.05878     -6.0 9.764e+03 5.923e-10
 77.08583     -6.0 1.016e+04 6.726e-10
 77.09587     -5.9 1.022e+04 7.059e-10
 77.10923     -6.1 1.030e+04 7.398e-10
 77.12950     -6.3 1.046e+04 7.969e-10
 77.14976     -7.4 1.082e+04 8.609e-10
 77.16328     -9.7 1.160e+04 1.029e-09
 77.17341     -9.8 1.167e+04 1.047e-09
 77.19028    -13.2 1.239e+04 1.372e-09
 77.21054    -16.0 1.284e+04 1.909e-09
 77.23070    -17.6 1.318e+04 2.491e-09
 77.24083    -17.7 1.313e+04 2.464e-09
 77.25107    -18.6 1.343e+04 2.689e-09
 77.26998    -19.9 1.354e+04 2.657e-09
 77.28011    -19.0 1.377e+04 3.198e-09
 77.29159    -20.6 1.373e+04 2.392e-09
 77.30825    -24.0 1.279e+04 1.462e-09
 77.31838    -24.2 1.254e+04 1.360e-09
 77.33211    -27.7 1.147e+04 1.002e-09
 77.35237    -29.3 1.115e+04 9.260e-10
 77.37577    -30.3 1.116e+04 9.353e-10
 77.39612    -29.9 1.096e+04 8.091e-10
 77.42348    -35.0 1.162e+04 8.269e-10
 77.45331    -43.1 1.306e+04 8.604e-10
 77.46335    -42.9 1.310e+04 7.152e-10
 77.47394    -48.8 1.395e+04 1.103e-09
 77.49420    -53.6 1.462e+04 1.979e-09
 77.51447    -56.5 1.529e+04 3.643e-09
 77.53077    -58.9 1.567e+04 4.398e-09
 77.54090    -58.4 1.514e+04 3.606e-09
 77.55499    -61.5 1.514e+04 3.472e-09
 77.57525    -65.1 1.427e+04 1.915e-09
 77.59551    -69.4 1.248e+04 8.185e-10
 77.62600    -73.1 1.106e+04 4.607e-10
 77.66580    -76.5 1.012e+04 3.283e-10
 77.68606    -74.3 1.010e+04 2.989e-10
 77.70715    -76.4 9.867e+03 2.657e-10
 77.74767    -77.8 9.872e+03 2.623e-10
 77.78819    -79.4 9.883e+03 2.648e-10
 77.82089    -81.2 9.940e+03 2.697e-10
 77.83496    -78.9 9.881e+03 2.584e-10
 77.84278    -78.4 1.005e+04 2.961e-10
 77.86924    -81.0 1.036e+04 3.428e-10
 77.90976    -86.1 1.154e+04 5.381e-10
 77.94006    -91.0 1.327e+04 1.122e-09
 77.96022    -93.9 1.431e+04 1.945e-09
 77.97580    -96.1 1.534e+04 3.433e-09
 77.98593    -94.9 1.510e+04 3.086e-09
 78.00074    -97.2 1.609e+04 4.829e-09
 78.02101   -100.2 1.651e+04 5.956e-09
 78.04127   -103.7 1.653e+04 6.161e-09
 78.05334   -107.3 1.604e+04 5.596e-09
 78.06348   -106.3 1.610e+04 5.517e-09
 78.08179   -110.3 1.525e+04 4.066e-09
 78.10205   -114.6 1.427e+04 2.823e-09
 78.12076   -118.6 1.340e+04 2.093e-09
 78.13089   -118.1 1.343e+04 2.085e-09
 78.14258   -121.4 1.281e+04 1.672e-09
 78.16284   -123.9 1.234e+04 1.400e-09
 78.18310   -125.9 1.192e+04 1.174e-09
 78.19831   -127.6 1.152e+04 9.657e-10
 78.20844   -127.2 1.169e+04 9.899e-10
 78.22362   -128.8 1.126e+04 7.999e-10
 78.24388   -130.0 1.081e+04 6.476e-10
 78.26583   -131.2 1.033e+04 5.037e-10
 78.28619   -129.8 1.037e+04 5.382e-10
 78.31499   -131.7 9.636e+03 3.418e-10
 78.35552   -133.0 9.352e+03 2.507e-10
 78.39604   -133.9 9.305e+03 2.263e-10
 78.42102   -134.5 9.304e+03 2.227e-10
 78.44128   -134.0 9.527e+03 2.419e-10
 78.47709   -134.7 9.567e+03 2.486e-10
 78.51761   -135.2 9.727e+03 2.772e-10
 78.55586   -135.8 9.921e+03 3.122e-10
 78.57612   -135.8 1.001e+04 3.229e-10
 78.59866   -136.6 1.013e+04 3.351e-10
 78.63918   -137.7 1.019e+04 3.375e-10
 78.67970   -139.1 1.019e+04 3.160e-10
 78.71095   -140.6 1.015e+04 2.846e-10
 78.73122   -140.3 9.904e+03 2.309e-10
 78.76075   -141.6 9.870e+03 2.138e-10
 78.80127   -143.0 9.872e+03 2.104e-10
 78.84180   -144.6 9.901e+03 2.191e-10
 78.86605   -146.1 1.011e+04 2.874e-10
 78.88631   -144.8 1.011e+04 2.877e-10
 78.92284   -146.0 1.054e+04 3.833e-10
 78.94748   -147.4 1.095e+04 5.094e-10
 78.96774   -148.2 1.088e+04 4.835e-10
 79.00089   -149.8 1.120e+04 5.956e-10
 79.02115   -149.0 1.115e+04 5.914e-10
 79.04441   -150.5 1.140e+04 6.973e-10
 79.08494   -151.8 1.161e+04 7.608e-10
 79.12546   -153.1 1.167e+04 7.741e-10
 79.15598   -154.2 1.170e+04 7.582e-10
 79.17625   -153.2 1.172e+04 7.342e-10
 79.20651   -153.9 1.174e+04 6.653e-10
 79.24703   -154.6 1.176e+04 6.044e-10
 79.28755   -155.5 1.180e+04 5.865e-10
 79.31108   -156.7 1.182e+04 5.894e-10
 79.33134   -156.2 1.199e+04 6.497e-10
 79.36860   -157.0 1.203e+04 7.275e-10
 79.39889   -157.3 1.209e+04 8.334e-10
 79.41906   -157.9 1.211e+04 9.192e-10
 79.43932   -158.4 1.216e+04 9.777e-10
 79.45585   -158.9 1.218e+04 1.005e-09
 79.46598   -158.7 1.218e+04 1.001e-09
 79.47984   -159.2 1.218e+04 1.008e-09
 79.49963   -159.7 1.211e+04 1.001e-09
 79.50976   -160.3 1.180e+04 8.183e-10
 79.52036   -160.6 1.169e+04 7.767e-10
 79.53340   -160.8 1.160e+04 7.367e-10
 79.54353   -160.8 1.158e+04 6.954e-10
 79.56089   -161.1 1.154e+04 6.864e-10
 79.58115   -161.2 1.152e+04 6.999e-10
 79.60092   -161.2 1.152e+04 7.149e-10
 79.62128   -159.9 1.139e+04 6.364e-10
 79.65226   -159.3 1.123e+04 5.658e-10
 79.69278   -158.9 1.106e+04 4.864e-10
 79.73331   -158.2 1.088e+04 4.081e-10
 79.75611   -157.4 1.068e+04 3.356e-10
 79.77637   -156.8 1.065e+04 3.138e-10
 79.81435   -155.7 1.050e+04 2.680e-10
 79.85488   -154.6 1.037e+04 2.303e-10
 79.89095   -153.4 1.027e+04 2.023e-10
 79.91121   -152.4 1.031e+04 2.057e-10
 79.93592   -151.2 1.026e+04 1.892e-10
 79.97645   -150.0 1.025e+04 1.801e-10
 80.01697   -148.8 1.025e+04 1.781e-10
 80.04605   -147.8 1.028e+04 1.792e-10
 80.06099   -146.9 1.037e+04 1.943e-10
 80.07243   -146.9 1.034e+04 1.886e-10
 80.09802   -146.3 1.049e+04 2.213e-10
 80.13854   -145.7 1.064e+04 2.670e-10
 80.17906   -145.3 1.078e+04 3.134e-10
 80.20114   -144.9 1.086e+04 3.422e-10
 80.22140   -144.1 1.097e+04 3.776e-10
 80.26011   -143.8 1.097e+04 3.818e-10
 80.30063   -143.3 1.090e+04 3.667e-10
 80.33598   -142.5 1.077e+04 3.262e-10
 80.35624   -141.8 1.077e+04 3.276e-10
 80.38168   -140.8 1.070e+04 2.826e-10
 80.42220   -139.9 1.073e+04 2.636e-10
 80.46272   -139.3 1.075e+04 2.616e-10
 80.49108   -139.1 1.094e+04 2.699e-10
 80.51134   -138.4 1.095e+04 2.661e-10
 80.54377   -138.3 1.125e+04 3.208e-10
 80.58429   -138.4 1.148e+04 3.835e-10
 80.62482   -138.7 1.162e+04 4.088e-10
 80.64617   -138.8 1.167e+04 4.102e-10
 80.65621   -138.0 1.176e+04 4.392e-10
 80.67528   -138.7 1.178e+04 4.410e-10
 80.70577   -139.1 1.174e+04 4.355e-10
 80.74639   -138.7 1.164e+04 3.619e-10
 80.78101   -138.2 1.153e+04 2.776e-10
 80.80127   -137.4 1.182e+04 3.155e-10
 80.82743   -137.0 1.156e+04 2.339e-10
 80.86796   -135.9 1.124e+04 1.754e-10
 80.90848   -134.4 1.101e+04 1.374e-10
 80.93611   -132.7 1.092e+04 1.138e-10
 80.95637   -132.4 1.093e+04 1.198e-10
 80.98953   -130.7 1.087e+04 1.038e-10
 81.03005   -129.1 1.083e+04 9.365e-11
 81.07057   -127.3 1.078e+04 8.732e-11
 81.09120   -125.5 1.072e+04 8.447e-11
 81.11147   -125.2 1.064e+04 9.470e-11
 81.15162   -123.4 1.062e+04 9.503e-11
 81.17713   -121.5 1.051e+04 1.030e-10
 81.19739   -120.9 1.054e+04 9.573e-11
 81.22604   -119.1 1.050e+04 1.030e-10
 81.24630   -118.9 1.040e+04 1.214e-10
 81.27319   -117.1 1.047e+04 1.383e-10
 81.31371   -115.3 1.065e+04 1.639e-10
 81.35424   -113.5 1.097e+04 1.992e-10
 81.38114   -111.7 1.136e+04 2.414e-10
 81.40140   -111.3 1.163e+04 3.004e-10
 81.42505   -110.2 1.186e+04 3.260e-10
 81.44522   -110.1 1.196e+04 3.546e-10
 81.45849   -109.6 1.208e+04 4.026e-10
 81.46862   -110.9 1.218e+04 5.234e-10
 81.48574   -110.7 1.208e+04 5.588e-10
 81.50600   -110.4 1.195e+04 5.884e-10
 81.52591   -109.9 1.173e+04 5.856e-10
 81.53604   -110.2 1.164e+04 6.346e-10
 81.54653   -109.6 1.152e+04 5.518e-10
 81.56679   -109.2 1.143e+04 4.808e-10
 81.59728   -108.8 1.132e+04 4.227e-10
 81.63790   -108.1 1.103e+04 3.565e-10
 81.67107   -107.1 1.064e+04 2.911e-10
 81.69133   -107.6 1.039e+04 2.520e-10
 81.71894   -106.5 1.013e+04 2.229e-10
 81.75947   -105.5 1.006e+04 2.182e-10
 81.79999   -104.7 1.002e+04 2.222e-10
 81.82617   -104.0 1.003e+04 2.461e-10
 81.84643   -103.3 1.004e+04 2.483e-10
 81.88104   -102.5 1.024e+04 2.961e-10
 81.92156   -101.7 1.051e+04 3.459e-10
 81.96100   -101.4 1.063e+04 3.742e-10
 81.98117   -101.5 1.073e+04 4.654e-10
 81.99228   -101.7 1.072e+04 4.905e-10
 82.01254   -101.8 1.072e+04 4.946e-10
 82.03280   -101.7 1.060e+04 4.854e-10
 82.04849   -101.6 1.053e+04 4.302e-10
 82.05862   -102.0 1.057e+04 5.037e-10
 82.07333   -102.0 1.068e+04 4.148e-10
 82.09359   -102.5 1.091e+04 3.752e-10
 82.11385   -103.5 1.099e+04 3.700e-10
 82.12604   -104.7 1.152e+04 3.735e-10
 82.13617   -106.3 1.191e+04 4.914e-10
 82.15437   -107.0 1.210e+04 6.256e-10
 82.17463   -107.3 1.218e+04 8.011e-10
 82.19345   -107.1 1.222e+04 9.573e-10
 82.20358   -107.3 1.233e+04 1.176e-09
 82.21516   -106.6 1.235e+04 1.212e-09
 82.23542   -106.1 1.236e+04 1.107e-09
 82.25568   -105.8 1.232e+04 9.829e-10
 82.27100   -105.6 1.226e+04 8.698e-10
 82.28113   -106.1 1.209e+04 8.100e-10
 82.29176   -105.8 1.202e+04 7.191e-10
 82.30189   -104.0 1.211e+04 8.349e-10
 82.31647   -103.7 1.218e+04 7.926e-10
 82.33673   -103.4 1.226e+04 7.762e-10
 82.34855   -103.1 1.235e+04 7.675e-10
 82.35868   -103.7 1.208e+04 6.700e-10
 82.37725   -103.5 1.207e+04 6.551e-10
 82.39751   -103.6 1.207e+04 6.443e-10
 82.41597   -103.7 1.204e+04 6.374e-10
 82.42610   -104.0 1.170e+04 5.566e-10
 82.43804   -104.1 1.170e+04 5.571e-10
 82.45830   -104.5 1.175e+04 5.858e-10
 82.48879   -104.9 1.212e+04 7.542e-10
 82.52941   -104.8 1.266e+04 1.087e-09
 82.56113   -104.6 1.313e+04 1.530e-09
 82.58139   -103.1 1.257e+04 9.955e-10
 82.61045   -102.5 1.292e+04 1.328e-09
 82.65098   -102.0 1.305e+04 1.489e-09
 82.69150   -101.5 1.304e+04 1.471e-09
 82.71623   -100.7 1.265e+04 1.104e-09
 82.73649    -99.5 1.227e+04 9.929e-10
 82.77255    -98.5 1.180e+04 7.106e-10
 82.81307    -97.6 1.127e+04 4.929e-10
 82.85106    -96.7 1.085e+04 3.812e-10
 82.87133    -95.8 1.085e+04 4.371e-10
 82.89412    -95.5 1.059e+04 3.945e-10
 82.93464    -95.1 1.049e+04 3.840e-10
 82.97516    -94.1 1.055e+04 3.936e-10
 83.00616    -93.4 1.118e+04 5.039e-10
 83.02642    -92.5 1.132e+04 5.602e-10
 83.04598    -93.1 1.166e+04 6.225e-10
 83.06615    -94.1 1.190e+04 6.941e-10
 83.08352    -95.0 1.211e+04 7.892e-10
 83.09365    -95.6 1.210e+04 8.038e-10
 83.10667    -96.7 1.230e+04 9.205e-10
 83.12693    -98.1 1.292e+04 1.157e-09
 83.14719   -100.1 1.424e+04 1.621e-09
 83.16106   -102.3 1.588e+04 2.533e-09
 83.17119   -103.6 1.608e+04 2.991e-09
 83.18772   -105.5 1.675e+04 4.476e-09
 83.20798   -106.6 1.701e+04 5.787e-09
 83.22824   -107.1 1.677e+04 6.583e-09
 83.23861   -107.2 1.658e+04 6.709e-09
 83.24874   -107.5 1.563e+04 5.553e-09
 83.26876   -107.1 1.502e+04 4.831e-09
 83.28902   -106.5 1.443e+04 3.730e-09
 83.30603   -105.9 1.397e+04 2.622e-09
 83.31616   -106.3 1.343e+04 1.850e-09
 83.32955   -106.0 1.309e+04 1.265e-09
 83.34981   -105.7 1.276e+04 8.905e-10
 83.37007   -105.2 1.244e+04 6.613e-10
 83.38358   -104.5 1.216e+04 5.173e-10
 83.39371   -104.5 1.192e+04 4.527e-10
 83.40659   -104.0 1.162e+04 3.554e-10
 83.41672   -102.4 1.219e+04 5.945e-10
 83.43085   -101.6 1.213e+04 5.006e-10
 83.45100   -100.8 1.201e+04 4.316e-10
 83.46113   -100.7 1.172e+04 3.769e-10
 83.47138    -99.7 1.153e+04 3.269e-10
 83.50187    -98.3 1.121e+04 2.615e-10
 83.54249    -95.6 1.055e+04 1.913e-10
 83.58301    -93.7 1.033e+04 1.793e-10
 83.60629    -91.9 1.033e+04 1.715e-10
 83.62655    -91.4 1.030e+04 1.736e-10
 83.66406    -89.4 1.026e+04 1.677e-10
 83.70458    -87.3 1.022e+04 1.614e-10
 83.74113    -85.3 1.020e+04 1.554e-10
 83.76139    -84.7 1.020e+04 1.718e-10
 83.78563    -82.7 1.020e+04 1.647e-10
 83.82615    -80.8 1.022e+04 1.591e-10
 83.86667    -79.1 1.024e+04 1.561e-10
 83.89622    -77.6 1.026e+04 1.553e-10
 83.91648    -77.5 1.038e+04 1.758e-10
 83.94772    -76.4 1.050e+04 2.004e-10
 83.98824    -75.6 1.067e+04 2.493e-10
 84.02877    -75.0 1.089e+04 3.210e-10
 84.05132    -74.7 1.111e+04 4.037e-10
 84.07158    -75.1 1.125e+04 4.742e-10
 84.10981    -75.2 1.137e+04 5.260e-10
 84.15034    -75.5 1.142e+04 5.429e-10
 84.18616    -75.5 1.137e+04 5.300e-10
 84.20642    -76.2 1.134e+04 5.065e-10
 84.23138    -75.6 1.115e+04 4.346e-10
 84.27191    -74.5 1.101e+04 3.706e-10
 84.31243    -73.5 1.092e+04 3.326e-10
 84.34125    -72.7 1.092e+04 3.237e-10
 84.36151    -72.7 1.105e+04 3.633e-10
 84.38325    -72.0 1.108e+04 3.794e-10
 84.40341    -72.1 1.114e+04 4.155e-10
 84.41861    -72.2 1.126e+04 5.061e-10
 84.42874    -72.7 1.145e+04 6.400e-10
 84.44393    -72.5 1.157e+04 7.535e-10
 84.46420    -72.3 1.166e+04 8.474e-10
 84.48446    -72.2 1.169e+04 8.919e-10
 84.49616    -72.2 1.169e+04 9.006e-10
 84.50629    -72.5 1.190e+04 1.017e-09
 84.52142    -72.5 1.169e+04 9.740e-10
 84.53155    -72.3 1.176e+04 9.809e-10
 84.54524    -72.2 1.159e+04 9.192e-10
 84.56357    -72.1 1.142e+04 8.359e-10
 84.57370    -72.6 1.152e+04 8.857e-10
 84.58577    -72.5 1.134e+04 7.907e-10
 84.60603    -72.5 1.115e+04 7.131e-10
 84.62629    -72.3 1.096e+04 6.528e-10
 84.64112    -72.1 1.077e+04 6.065e-10
 84.65125    -72.6 1.075e+04 6.150e-10
 84.66681    -72.3 1.059e+04 5.708e-10
 84.68707    -71.9 1.049e+04 5.321e-10
 84.70734    -71.5 1.041e+04 4.952e-10
 84.71867    -71.2 1.035e+04 4.551e-10
 84.72880    -71.6 1.036e+04 4.424e-10
 84.75809    -70.8 1.025e+04 4.012e-10
 84.78628    -69.2 9.982e+03 3.169e-10
 84.80655    -69.9 1.000e+04 2.900e-10
 84.83923    -68.7 9.676e+03 2.147e-10
 84.87975    -67.6 9.421e+03 1.820e-10
 84.92028    -66.2 9.343e+03 1.732e-10
 84.94138    -64.9 9.339e+03 1.734e-10
 84.96164    -65.0 9.385e+03 1.836e-10
 85.00132    -63.8 9.520e+03 2.063e-10
 85.04185    -62.6 9.712e+03 2.430e-10
 85.07622    -61.6 9.881e+03 2.753e-10
 85.09648    -61.5 9.925e+03 2.800e-10
 85.12289    -60.8 1.004e+04 3.067e-10
 85.16342    -60.4 1.019e+04 3.549e-10
 85.20394    -60.2 1.042e+04 4.438e-10
 85.23131    -59.8 1.065e+04 5.584e-10
 85.25158    -60.3 1.099e+04 6.498e-10
 85.28499    -59.9 1.118e+04 7.978e-10
 85.30876    -59.6 1.108e+04 8.127e-10
 85.31880    -60.1 1.133e+04 9.292e-10
 85.33545    -59.9 1.103e+04 8.883e-10
 85.35571    -59.0 1.068e+04 7.218e-10
 85.37597    -58.5 1.041e+04 5.442e-10
 85.38631    -58.0 1.018e+04 3.924e-10
 85.39644    -58.8 1.030e+04 4.389e-10
 85.41649    -58.8 1.013e+04 3.632e-10
 85.44698    -58.5 9.897e+03 2.946e-10
 85.48760    -56.6 9.387e+03 2.030e-10
 85.52125    -54.5 9.004e+03 1.506e-10
 85.54151    -55.2 8.919e+03 1.378e-10
 85.56865    -53.1 8.823e+03 1.227e-10
 85.60917    -50.9 8.808e+03 1.200e-10
 85.63644    -48.9 8.828e+03 1.214e-10
 85.65670    -49.0 8.938e+03 1.338e-10
 85.67634    -47.2 9.011e+03 1.503e-10
 85.69661    -47.8 8.978e+03 1.449e-10
 85.73074    -45.9 9.019e+03 1.601e-10
 85.77126    -44.1 9.024e+03 1.662e-10
 85.81118    -42.1 8.974e+03 1.649e-10
 85.83144    -42.5 8.785e+03 1.307e-10
 85.85231    -40.3 8.655e+03 1.104e-10
 85.89283    -38.0 8.511e+03 8.865e-11
 85.93336    -35.7 8.381e+03 7.090e-11
 85.96628    -33.4 8.280e+03 5.884e-11
 85.98654    -33.6 8.038e+03 4.589e-11
 86.01440    -31.0 7.977e+03 3.982e-11
 86.05493    -28.5 7.946e+03 3.684e-11
 86.09545    -25.8 7.942e+03 3.608e-11
 86.12137    -23.2 7.946e+03 3.603e-11
 86.14164    -23.0 7.827e+03 3.442e-11
 86.17650    -20.5 7.869e+03 3.486e-11
 86.21702    -18.5 8.034e+03 4.279e-11
 86.25621    -16.6 8.246e+03 7.124e-11
 86.27647    -16.3 8.243e+03 7.184e-11
 86.29807    -14.2 8.643e+03 1.311e-10
 86.33859    -12.1 9.181e+03 2.374e-10
 86.37911     -9.8 9.644e+03 3.743e-10
 86.41131     -7.7 9.875e+03 4.635e-10
 86.43157     -7.7 9.926e+03 4.792e-10
 86.46016     -6.0 9.922e+03 4.836e-10
 86.50068     -4.5 9.702e+03 3.965e-10
 86.54121     -3.0 9.432e+03 3.105e-10
 86.56641     -1.7 9.181e+03 2.524e-10
 86.58667     -2.0 9.086e+03 2.419e-10
 86.62225     -0.9 9.042e+03 2.371e-10
 86.66278      0.1 9.350e+03 3.026e-10
 86.69307      1.1 9.830e+03 4.456e-10
 86.71118      0.9 9.918e+03 4.958e-10
 86.72131      0.7 1.001e+04 5.360e-10
 86.73350      1.5 1.031e+04 6.870e-10
 86.75107      2.0 1.050e+04 7.526e-10
 86.76120      2.0 1.023e+04 6.632e-10
 86.77402      2.5 1.033e+04 6.850e-10
 86.78873      2.9 1.033e+04 6.859e-10
 86.79886      2.8 1.030e+04 6.834e-10
 86.81454      3.5 1.014e+04 6.043e-10
 86.83480      3.9 9.917e+03 4.966e-10
 86.85624      4.3 9.731e+03 4.090e-10
 86.87660      4.1 9.671e+03 4.055e-10
 86.90591      5.2 9.432e+03 3.291e-10
 86.94644      6.3 9.304e+03 2.929e-10
 86.98696      7.3 9.308e+03 2.903e-10
 87.01144      8.0 9.636e+03 3.453e-10
 87.02147      7.8 9.640e+03 3.525e-10
 87.03742      7.7 9.692e+03 3.641e-10
 87.05768      7.7 9.924e+03 4.268e-10
 87.07794      7.1 1.018e+04 5.192e-10
 87.08879      6.8 1.052e+04 6.566e-10
 87.09892      6.0 1.070e+04 7.268e-10
 87.11847      5.6 1.107e+04 8.662e-10
 87.13873      5.0 1.144e+04 1.018e-09
 87.15621      4.2 1.172e+04 1.140e-09
 87.16634      2.8 1.183e+04 1.185e-09
 87.17925      1.7 1.189e+04 1.208e-09
 87.19951      0.7 1.176e+04 1.167e-09
 87.21977     -0.2 1.142e+04 1.012e-09
 87.23376     -1.0 1.097e+04 8.357e-10
 87.24389     -2.5 1.082e+04 7.965e-10
 87.26030     -2.9 1.040e+04 6.492e-10
 87.28056     -3.2 1.004e+04 5.213e-10
 87.30127     -2.7 9.717e+03 4.102e-10
 87.32163     -4.5 9.585e+03 3.782e-10
 87.35167     -3.2 9.041e+03 2.649e-10
 87.39219     -1.3 8.476e+03 1.774e-10
 87.43272      0.5 8.139e+03 1.323e-10
 87.45647      2.3 8.036e+03 1.131e-10
 87.47673      1.5 7.964e+03 1.118e-10
 87.51376      3.5 7.929e+03 1.067e-10
 87.55429      5.6 7.927e+03 1.066e-10
 87.59130      7.7 7.988e+03 1.125e-10
 87.61156      7.3 7.965e+03 1.125e-10
 87.63533      9.5 8.022e+03 1.219e-10
 87.67586     11.7 8.084e+03 1.330e-10
 87.71638     14.0 8.151e+03 1.460e-10
 87.74640     16.4 8.200e+03 1.585e-10
 87.76666     15.9 8.194e+03 1.584e-10
 87.79743     18.4 8.208e+03 1.630e-10
 87.83795     21.0 8.161e+03 1.612e-10
 87.86609     23.5 8.078e+03 1.505e-10
 87.88635     24.1 8.108e+03 1.602e-10
 87.90150     26.6 8.037e+03 1.516e-10
 87.92176     26.2 8.056e+03 1.519e-10
 87.95952     28.5 8.019e+03 1.439e-10
 88.00004     30.4 8.071e+03 1.455e-10
 88.03633     32.0 8.185e+03 1.818e-10
 88.05659     31.4 8.428e+03 2.215e-10
 88.08109     33.9 8.729e+03 3.151e-10
 88.12161     37.0 9.063e+03 4.010e-10
 88.16213     39.5 9.177e+03 4.236e-10
 88.19133     40.7 9.384e+03 4.438e-10
 88.20137     39.7 9.743e+03 5.526e-10
 88.21259     40.1 9.865e+03 5.860e-10
 88.23285     40.6 9.919e+03 6.340e-10
 88.25312     41.1 1.007e+04 6.808e-10
 88.28361     41.8 1.035e+04 8.168e-10
 88.32423     44.1 1.015e+04 7.385e-10
 88.34653     45.9 9.837e+03 5.959e-10
 88.36679     43.1 9.869e+03 5.544e-10
 88.40527     44.7 9.408e+03 4.131e-10
 88.44580     46.7 8.970e+03 2.949e-10
 88.48136     48.5 8.624e+03 2.208e-10
 88.50162     46.4 8.594e+03 2.199e-10
 88.51661     48.9 8.358e+03 1.965e-10
 88.53678     49.0 8.391e+03 1.990e-10
 88.55704     51.3 8.260e+03 1.983e-10
 88.56885     51.6 8.323e+03 2.074e-10
 88.57898     50.9 8.476e+03 2.500e-10
 88.59756     51.8 8.651e+03 3.246e-10
 88.61782     52.1 9.363e+03 4.809e-10
 88.63626     52.0 1.052e+04 7.427e-10
 88.64640     48.9 1.296e+04 1.727e-09
 88.65835     48.9 1.402e+04 2.732e-09
 88.67861     49.1 1.477e+04 4.059e-09
 88.69887     49.6 1.526e+04 5.475e-09
 88.71381     50.3 1.560e+04 6.604e-09
 88.72394     48.8 1.630e+04 8.584e-09
 88.73939     49.2 1.640e+04 8.079e-09
 88.75966     49.2 1.628e+04 7.499e-09
 88.77992     48.6 1.634e+04 6.885e-09
 88.79136     47.7 1.634e+04 6.254e-09
 88.80149     45.1 1.578e+04 4.624e-09
 88.82044     44.4 1.515e+04 3.992e-09
 88.84070     44.2 1.453e+04 3.473e-09
 88.85878     44.3 1.396e+04 2.983e-09
 88.86891     42.3 1.290e+04 1.971e-09
 88.88123     42.1 1.246e+04 1.680e-09
 88.90149     41.5 1.213e+04 1.515e-09
 88.92175     41.0 1.173e+04 1.409e-09
 88.93633     40.7 1.146e+04 1.394e-09
 88.94646     39.5 1.129e+04 1.394e-09
 88.96227     40.3 1.115e+04 1.345e-09
 88.98072     41.1 1.100e+04 1.261e-09
 88.99085     41.4 1.121e+04 1.378e-09
 89.00280     42.5 1.095e+04 1.238e-09
 89.01388     43.4 1.070e+04 1.059e-09
 89.02401     42.9 1.051e+04 9.142e-10
 89.04332     43.3 1.022e+04 6.949e-10
 89.06358     42.9 1.003e+04 5.664e-10
 89.08130     42.6 9.740e+03 5.035e-10
 89.09143     41.0 9.875e+03 5.310e-10
 89.10410     40.4 9.988e+03 5.693e-10
 89.12437     40.1 1.024e+04 6.670e-10
 89.14463     40.1 1.057e+04 8.261e-10
 89.15884     40.5 1.076e+04 9.982e-10
 89.16897     39.7 1.134e+04 1.399e-09
 89.18515     40.8 1.133e+04 1.465e-09
 89.20541     42.0 1.127e+04 1.424e-09
 89.22567     43.1 1.115e+04 1.286e-09
 89.23639     44.1 1.104e+04 1.089e-09
 89.24652     42.3 1.116e+04 1.078e-09
 89.26620     42.3 1.098e+04 8.784e-10
 89.28646     42.1 1.065e+04 7.416e-10
 89.30381     42.1 1.043e+04 7.112e-10
 89.31394     40.2 1.037e+04 7.837e-10
 89.32698     41.4 1.015e+04 7.618e-10
 89.34724     42.6 1.016e+04 7.740e-10
 89.36750     44.1 1.022e+04 8.024e-10
 89.38136     45.4 1.043e+04 8.640e-10
 89.39149     44.2 1.043e+04 8.573e-10
 89.40803     45.5 1.052e+04 8.931e-10
 89.42829     46.7 1.058e+04 9.226e-10
 89.44855     47.9 1.066e+04 9.567e-10
 89.45891     49.2 1.080e+04 1.005e-09
 89.46904     47.5 1.041e+04 7.228e-10
 89.48907     48.5 1.059e+04 7.327e-10
 89.50934     49.2 1.089e+04 7.646e-10
 89.52633     49.6 1.135e+04 8.467e-10
 89.53646     45.5 1.095e+04 8.013e-10
 89.54320     45.2 1.142e+04 1.014e-09
 89.55333     44.9 1.154e+04 9.975e-10
 89.57012     43.8 1.207e+04 1.295e-09
 89.59038     42.0 1.291e+04 1.843e-09
 89.60387     38.5 1.470e+04 3.440e-09
 89.61401     36.0 1.475e+04 4.334e-09
 89.63091     34.4 1.550e+04 6.090e-09
 89.65117     34.2 1.529e+04 6.254e-09
 89.67129     33.9 1.491e+04 5.139e-09
 89.68142     32.4 1.416e+04 3.046e-09
 89.69169     29.5 1.369e+04 1.653e-09
 89.71195     23.8 1.221e+04 7.446e-10
 89.73221     17.6 9.583e+03 3.924e-10
 89.74884     15.4 8.870e+03 3.455e-10
 89.75897     16.5 8.975e+03 3.085e-10
 89.77274     16.1 9.010e+03 3.189e-10
 89.79300     16.0 9.002e+03 3.194e-10
 89.81326     16.4 9.054e+03 3.430e-10
 89.82639     16.6 9.035e+03 3.439e-10
 89.83662     17.6 8.990e+03 3.064e-10
 89.86411     18.7 8.966e+03 3.272e-10
 89.89391     20.3 9.019e+03 3.162e-10
 89.90394     20.7 9.023e+03 3.164e-10
 89.91457     21.0 9.043e+03 3.148e-10
 89.93483     21.7 9.363e+03 2.852e-10
 89.95509     21.7 9.588e+03 2.791e-10
 89.97136     21.8 1.079e+04 3.353e-10
 89.99172     24.2 9.702e+03 2.501e-10
 90.02620     24.8 1.041e+04 3.407e-10
 90.06672     26.4 1.075e+04 6.055e-10
 90.09575     28.8 1.110e+04 9.682e-10
 90.11515     29.7 1.107e+04 8.874e-10
 90.12665     31.7 1.025e+04 4.311e-10
 90.14777     33.9 1.081e+04 7.609e-10
 90.18829     36.7 1.103e+04 1.046e-09
 90.22882     39.6 1.083e+04 9.807e-10
 90.26148     42.6 1.044e+04 7.541e-10
 90.28175     43.6 1.014e+04 6.541e-10
 90.30986     46.4 9.833e+03 5.479e-10
 90.35039     49.2 9.514e+03 4.459e-10
 90.39091     52.0 9.173e+03 3.300e-10
 90.41658     54.9 8.859e+03 2.349e-10
 90.43684     56.1 9.150e+03 3.539e-10
 90.47196     59.1 8.931e+03 2.826e-10
 90.51248     62.0 8.706e+03 2.194e-10
 90.55142     65.0 8.501e+03 1.732e-10
 90.57168     66.2 8.871e+03 2.767e-10
 90.59353     69.2 8.674e+03 2.232e-10
 90.63405     72.1 8.477e+03 1.786e-10
 90.67457     75.1 8.290e+03 1.446e-10
 90.70651     78.1 8.142e+03 1.209e-10
 90.72678     79.0 8.314e+03 1.597e-10
 90.75562     81.9 8.113e+03 1.226e-10
 90.79614     84.7 7.996e+03 9.876e-11
 90.83667     87.4 7.939e+03 8.803e-11
 90.86161     90.3 7.964e+03 8.712e-11
 90.88187     91.0 7.997e+03 1.013e-10
 90.91771     93.7 8.022e+03 9.848e-11
 90.95824     96.5 8.080e+03 1.034e-10
 90.99645     99.2 8.189e+03 1.152e-10
 91.01671     99.9 8.224e+03 1.298e-10
 91.03928    102.5 8.291e+03 1.382e-10
 91.07981    105.1 8.404e+03 1.555e-10
 91.12033    107.7 8.544e+03 1.803e-10
 91.15155    110.2 8.773e+03 2.146e-10
 91.17181    110.8 8.716e+03 2.115e-10
 91.20044    113.3 8.992e+03 2.506e-10
 91.22070    113.9 8.885e+03 2.310e-10
 91.24190    116.4 9.194e+03 2.795e-10
 91.28242    118.7 9.535e+03 3.328e-10
 91.30664    121.0 9.728e+03 3.894e-10
 91.32690    121.7 9.737e+03 3.721e-10
 91.36347    123.7 9.971e+03 4.128e-10
 91.40399    125.6 1.015e+04 4.308e-10
 91.43429    127.0 1.032e+04 4.738e-10
 91.45141    128.1 1.050e+04 4.682e-10
 91.46154    128.1 1.058e+04 6.214e-10
 91.47471    129.1 1.076e+04 6.282e-10
 91.49497    130.1 1.087e+04 6.241e-10
 91.51523    131.0 1.090e+04 6.232e-10
 91.52896    131.8 1.090e+04 6.267e-10
 91.53909    132.0 1.115e+04 8.554e-10
 91.55576    132.9 1.115e+04 8.462e-10
 91.57602    133.7 1.113e+04 8.345e-10
 91.59628    134.4 1.111e+04 8.238e-10
 91.60651    135.2 1.107e+04 8.083e-10
 91.61664    135.3 1.124e+04 8.987e-10
 91.63680    136.0 1.116e+04 8.530e-10
 91.65707    136.6 1.107e+04 8.079e-10
 91.67393    137.2 1.098e+04 7.590e-10
 91.68406    137.1 1.101e+04 7.665e-10
 91.69759    137.7 1.093e+04 7.348e-10
 91.71785    138.4 1.087e+04 7.052e-10
 91.73811    139.0 1.081e+04 6.708e-10
 91.75148    139.5 1.073e+04 6.353e-10
 91.76161    139.4 1.086e+04 7.128e-10
 91.77286    139.9 1.084e+04 6.962e-10
 91.78299    139.9 1.090e+04 7.310e-10
 91.79890    140.3 1.083e+04 6.898e-10
 91.81890    140.6 1.076e+04 6.453e-10
 91.82903    140.6 1.101e+04 7.904e-10
 91.83942    140.9 1.096e+04 7.375e-10
 91.85968    141.0 1.087e+04 6.751e-10
 91.87994    141.1 1.074e+04 6.037e-10
 91.89644    141.1 1.061e+04 5.410e-10
 91.90658    141.0 1.091e+04 6.639e-10
 91.92047    141.0 1.072e+04 5.786e-10
 91.94073    141.0 1.057e+04 5.152e-10
 91.96099    141.2 1.041e+04 4.541e-10
 91.97399    141.4 1.030e+04 4.182e-10
 91.98412    141.1 1.037e+04 4.510e-10
 92.00151    141.7 1.022e+04 4.034e-10
 92.02177    142.0 1.013e+04 3.767e-10
 92.04151    143.5 1.021e+04 3.971e-10
 92.06187    142.9 9.992e+03 3.533e-10
 92.08266    143.6 9.968e+03 3.549e-10
 92.10282    144.4 9.984e+03 3.645e-10
 92.13331    145.6 9.970e+03 3.645e-10
 92.17393    147.0 1.001e+04 3.859e-10
 92.19670    148.3 9.963e+03 3.960e-10
 92.21697    148.0 9.573e+03 3.242e-10
 92.25498    149.5 9.580e+03 3.377e-10
 92.29550    151.1 9.577e+03 3.497e-10
 92.32540    152.9 9.568e+03 3.575e-10
 92.34118    152.1 9.636e+03 3.854e-10
 92.35180    152.0 9.664e+03 3.909e-10
 92.37655    153.5 9.670e+03 3.947e-10
 92.41707    155.4 9.611e+03 3.858e-10
 92.45759    157.5 9.536e+03 3.634e-10
 92.48664    159.6 9.450e+03 3.338e-10
 92.50690    159.4 9.523e+03 3.663e-10
 92.53864    161.6 9.487e+03 3.571e-10
 92.57916    163.8 9.476e+03 3.497e-10
 92.61969    166.1 9.475e+03 3.407e-10
 92.64173    168.5 9.460e+03 3.294e-10
 92.65177    168.1 9.746e+03 4.278e-10
 92.67015    169.1 9.763e+03 4.319e-10
 92.69041    170.6 9.771e+03 4.305e-10
 92.70896    171.6 9.785e+03 4.321e-10
 92.71909    171.9 1.008e+04 6.086e-10
 92.73093    173.2 1.011e+04 6.178e-10
 92.75119    174.6 1.015e+04 6.258e-10
 92.77145    175.8 1.019e+04 6.341e-10
 92.78651    177.1 1.021e+04 6.417e-10
 92.79664    177.1 1.044e+04 8.295e-10
 92.81198    178.3 1.045e+04 8.323e-10
 92.83224    179.7 1.048e+04 8.403e-10
 92.85250    181.0 1.054e+04 8.540e-10
 92.86405    182.1 1.058e+04 8.651e-10
 92.87418    181.9 1.059e+04 8.654e-10
 92.88768    183.1 1.061e+04 8.657e-10
 92.89781    182.9 1.072e+04 9.296e-10
 92.91329    184.1 1.072e+04 9.274e-10
 92.93147    185.3 1.072e+04 9.205e-10
 92.94160    185.1 1.060e+04 8.444e-10
 92.95381    186.4 1.059e+04 8.385e-10
 92.97407    187.7 1.059e+04 8.401e-10
 92.99433    188.9 1.061e+04 8.504e-10
 93.00902    190.1 1.067e+04 8.781e-10
 93.01915    189.9 1.039e+04 7.136e-10
 93.03485    191.2 1.048e+04 7.510e-10
 93.05512    192.5 1.064e+04 8.185e-10
 93.07538    193.6 1.088e+04 9.251e-10
 93.08657    194.5 1.118e+04 1.079e-09
 93.09670    194.2 1.079e+04 8.304e-10
 93.11590    195.1 1.115e+04 9.968e-10
 93.13616    195.8 1.158e+04 1.238e-09
 93.15399    196.3 1.203e+04 1.563e-09
 93.16412    196.2 1.165e+04 1.294e-09
 93.17669    196.6 1.212e+04 1.643e-09
 93.19695    197.0 1.255e+04 2.036e-09
 93.21721    197.2 1.289e+04 2.400e-09
 93.23154    197.3 1.316e+04 2.627e-09
 93.24167    197.5 1.317e+04 2.698e-09
 93.25773    197.2 1.367e+04 3.084e-09
 93.27799    196.5 1.419e+04 3.553e-09
 93.29826    195.5 1.490e+04 4.241e-09
 93.30908    194.4 1.564e+04 5.130e-09
 93.31922    193.8 1.656e+04 8.328e-09
 93.33878    193.1 1.727e+04 1.030e-08
 93.35904    192.1 1.748e+04 1.048e-08
 93.37650    190.8 1.740e+04 9.946e-09
 93.38663    189.9 1.767e+04 1.109e-08
 93.39956    188.3 1.709e+04 8.437e-09
 93.41983    186.3 1.631e+04 6.043e-09
 93.44003    183.9 1.549e+04 4.476e-09
 93.45400    181.5 1.445e+04 3.261e-09
 93.46418    179.8 1.439e+04 3.274e-09
 93.48061    178.6 1.399e+04 2.970e-09
 93.50087    177.8 1.372e+04 2.730e-09
 93.52113    177.2 1.351e+04 2.530e-09
 93.53160    176.6 1.334e+04 2.398e-09
 93.54173    175.8 1.298e+04 2.062e-09
 93.56166    175.3 1.286e+04 2.015e-09
 93.58192    174.8 1.281e+04 1.896e-09
 93.59902    174.6 1.276e+04 1.827e-09
 93.60915    174.2 1.235e+04 1.493e-09
 93.62244    174.1 1.233e+04 1.467e-09
 93.64270    174.0 1.232e+04 1.446e-09
 93.66296    174.1 1.225e+04 1.377e-09
 93.67657    174.0 1.211e+04 1.265e-09
 93.68679    173.7 1.173e+04 1.102e-09
 93.71381    173.8 1.157e+04 1.021e-09
 93.75434    174.0 1.112e+04 8.206e-10
 93.79486    174.8 1.070e+04 6.606e-10
 93.82173    175.7 1.040e+04 5.598e-10
 93.84199    175.8 1.033e+04 5.530e-10
 93.87591    177.2 1.034e+04 5.502e-10
 93.91643    178.6 1.041e+04 5.666e-10
 93.95656    179.9 1.063e+04 6.402e-10
 93.97683    180.2 1.069e+04 6.644e-10
 93.99748    181.3 1.109e+04 8.387e-10
 94.03800    182.0 1.163e+04 1.130e-09
 94.07852    182.4 1.222e+04 1.517e-09
 94.11166    182.5 1.265e+04 1.833e-09
 94.13183    182.2 1.283e+04 1.957e-09
 94.14924    182.1 1.290e+04 1.971e-09
 94.16950    182.1 1.286e+04 1.926e-09
 94.18901    182.2 1.273e+04 1.735e-09
 94.19915    182.6 1.296e+04 1.912e-09
 94.21003    182.7 1.272e+04 1.575e-09
 94.24052    183.1 1.240e+04 1.189e-09
 94.26676    182.4 1.149e+04 5.904e-10
 94.28702    183.3 1.172e+04 5.994e-10
 94.32166    181.8 1.036e+04 2.687e-10
 94.36219    180.4 1.002e+04 2.429e-10
 94.40159    179.9 1.001e+04 2.634e-10
 94.42186    180.2 1.008e+04 2.412e-10
 94.44323    179.1 1.026e+04 3.100e-10
 94.47353    177.7 1.052e+04 4.023e-10
 94.48908    176.8 1.077e+04 5.015e-10
 94.49921    177.1 1.075e+04 4.683e-10
 94.52418    175.8 1.119e+04 6.269e-10
 94.55505    173.8 1.154e+04 6.803e-10
 94.56721    174.5 1.099e+04 5.323e-10
 94.57686    174.5 1.098e+04 5.469e-10
 94.60523    174.5 1.095e+04 5.294e-10
 94.64585    173.7 1.096e+04 5.290e-10
 94.68637    172.9 1.090e+04 5.354e-10
 94.71179    172.3 1.075e+04 5.289e-10
 94.73205    174.5 1.100e+04 5.642e-10
 94.76742    174.3 1.082e+04 5.471e-10
 94.80794    174.4 1.036e+04 4.687e-10
 94.84662    174.7 9.857e+03 3.268e-10
 94.86689    176.0 1.040e+04 4.382e-10
 94.88899    176.2 9.781e+03 2.741e-10
 94.92951    176.4 9.237e+03 1.515e-10
 94.97003    176.9 8.787e+03 8.975e-11
 95.00172    177.9 8.670e+03 7.909e-11
 95.02198    178.0 8.748e+03 9.037e-11
 95.05108    179.5 8.747e+03 9.025e-11
 95.09160    181.3 8.736e+03 9.720e-11
 95.13213    183.3 8.811e+03 1.197e-10
 95.15682    185.4 8.970e+03 1.551e-10
 95.17708    185.1 9.323e+03 1.978e-10
 95.21317    187.2 9.528e+03 2.486e-10
 95.25370    189.3 9.690e+03 2.901e-10
 95.29166    191.2 9.784e+03 3.067e-10
 95.31192    190.5 1.009e+04 3.660e-10
 95.33474    192.4 1.006e+04 3.632e-10
 95.37527    194.4 9.990e+03 3.527e-10
 95.41579    196.4 9.910e+03 3.386e-10
 95.44675    198.4 9.820e+03 3.229e-10
 95.46701    197.9 1.002e+04 3.913e-10
 95.49683    200.0 9.961e+03 3.829e-10
 95.53736    202.1 9.854e+03 3.650e-10
 95.57788    204.2 9.700e+03 3.277e-10
 95.60185    206.3 9.504e+03 2.784e-10
 95.62211    205.9 9.598e+03 3.126e-10
 95.65893    208.1 9.361e+03 2.545e-10
 95.68001    210.4 9.133e+03 2.030e-10
 95.70027    211.3 9.363e+03 2.437e-10
 95.73669    213.5 9.144e+03 1.969e-10
 95.75695    213.6 9.209e+03 2.185e-10
 95.78050    215.9 9.025e+03 1.764e-10
 95.82102    218.3 8.887e+03 1.466e-10
 95.86154    220.7 8.794e+03 1.313e-10
 95.89178    223.1 8.759e+03 1.287e-10
 95.91204    223.5 8.712e+03 1.196e-10
 95.94259    226.0 8.709e+03 1.196e-10
 95.98311    228.4 8.707e+03 1.220e-10
 96.02364    230.6 8.728e+03 1.301e-10
 96.04688    232.8 8.883e+03 1.568e-10
 96.06714    233.7 8.765e+03 1.394e-10
 96.10468    235.9 8.987e+03 1.742e-10
 96.14521    238.0 9.255e+03 2.268e-10
 96.18172    240.1 9.509e+03 2.918e-10
 96.20198    241.2 9.337e+03 2.517e-10
 96.22625    243.4 9.572e+03 3.148e-10
 96.26678    245.5 9.676e+03 3.686e-10
 96.30730    247.6 9.711e+03 4.003e-10
 96.33681    249.8 9.708e+03 4.038e-10
 96.35708    251.1 9.599e+03 3.736e-10
 96.38835    253.3 9.567e+03 3.707e-10
 96.42887    255.4 9.584e+03 3.713e-10
 96.46939    257.1 9.641e+03 3.793e-10
 96.49181    258.1 9.630e+03 3.854e-10
 96.51207    259.6 9.550e+03 3.721e-10
 96.54021    260.5 9.601e+03 3.974e-10
 96.55913    261.6 9.741e+03 4.408e-10
 96.56926    261.8 9.565e+03 4.103e-10
 96.58064    263.0 9.730e+03 4.648e-10
 96.60090    263.7 1.002e+04 5.518e-10
 96.62116    264.0 1.041e+04 6.763e-10
 96.63668    264.2 1.088e+04 8.577e-10
 96.64681    264.8 1.037e+04 6.888e-10
 96.66168    265.0 1.079e+04 8.577e-10
 96.68194    265.1 1.128e+04 1.090e-09
 96.70220    265.2 1.179e+04 1.397e-09
 96.71423    265.3 1.229e+04 1.770e-09
 96.72436    265.5 1.151e+04 1.264e-09
 96.74273    265.4 1.197e+04 1.569e-09
 96.76299    265.2 1.240e+04 1.897e-09
 96.78165    264.9 1.277e+04 2.195e-09
 96.79178    264.7 1.203e+04 1.618e-09
 96.79464    264.1 1.232e+04 1.802e-09
 96.80477    264.6 1.266e+04 2.058e-09
 96.82377    263.9 1.293e+04 2.204e-09
 96.84404    263.0 1.296e+04 2.204e-09
 96.85920    261.9 1.293e+04 2.157e-09
 96.86933    261.8 1.238e+04 1.775e-09
 96.88456    260.8 1.228e+04 1.704e-09
 96.90482    260.0 1.204e+04 1.547e-09
 96.92508    259.3 1.169e+04 1.345e-09
 96.93675    258.7 1.133e+04 1.140e-09
 96.94688    259.3 1.130e+04 1.147e-09
 96.96561    259.1 1.097e+04 9.697e-10
 96.98587    259.1 1.065e+04 8.179e-10
 97.00416    259.1 1.038e+04 7.005e-10
 97.01429    260.0 1.047e+04 7.671e-10
 97.02639    260.0 1.030e+04 6.772e-10
 97.04665    260.1 1.019e+04 6.120e-10
 97.06691    260.2 1.009e+04 5.636e-10
 97.08171    260.3 9.992e+03 5.227e-10
 97.09184    261.3 1.038e+04 6.705e-10
 97.10744    261.5 1.031e+04 6.163e-10
 97.12770    261.6 1.020e+04 5.740e-10
 97.14796    262.0 9.994e+03 5.116e-10
 97.15926    262.3 9.779e+03 4.593e-10
 97.16939    263.1 1.041e+04 6.428e-10
 97.18848    263.4 1.010e+04 5.424e-10
 97.20875    263.7 9.721e+03 4.441e-10
 97.22678    264.6 9.077e+03 3.215e-10
 97.23691    264.8 9.821e+03 4.734e-10
 97.24927    265.0 9.430e+03 3.867e-10
 97.26953    265.5 9.105e+03 3.347e-10
 97.28979    265.7 8.908e+03 3.086e-10
 97.32028    266.6 8.990e+03 3.203e-10
 97.36090    267.7 9.011e+03 3.244e-10
 97.38187    268.6 9.113e+03 3.474e-10
 97.39191    268.1 9.256e+03 3.900e-10
 97.41136    268.9 9.245e+03 3.953e-10
 97.43162    269.7 9.259e+03 4.077e-10
 97.44919    270.7 9.331e+03 4.289e-10
 97.45933    269.9 9.777e+03 4.981e-10
 97.47215    270.7 9.983e+03 5.362e-10
 97.49241    271.5 1.024e+04 5.831e-10
 97.51267    272.2 1.057e+04 6.460e-10
 97.52674    272.8 1.105e+04 7.390e-10
 97.53687    266.7 1.606e+04 2.397e-09
 97.55319    266.8 1.675e+04 3.172e-09
 97.57345    267.1 1.744e+04 4.281e-09
 97.59372    267.6 1.815e+04 5.737e-09
 97.60429    268.1 1.911e+04 7.834e-09
 97.61442    263.7 2.067e+04 1.396e-08
 97.63424    264.6 2.113e+04 1.452e-08
 97.65450    265.4 2.161e+04 1.505e-08
 97.67171    266.1 2.189e+04 1.622e-08
 97.68184    261.1 2.315e+04 9.986e-09
 97.69502    261.3 2.388e+04 8.623e-09
 97.71529    261.0 2.449e+04 6.930e-09
 97.73555    260.2 2.505e+04 5.013e-09
 97.74926    258.7 2.583e+04 3.086e-09
 97.75939    248.0 1.708e+04 7.869e-10
 97.77607    245.3 1.331e+04 6.458e-10
 97.79633    243.1 1.155e+04 5.492e-10
 97.81659    241.4 1.130e+04 4.730e-10
 97.83685    238.3 1.157e+04 5.042e-10
 97.85712    237.5 1.153e+04 4.953e-10
 97.87738    236.8 1.142e+04 4.873e-10
 97.89422    236.2 1.136e+04 4.877e-10
 97.90436    235.7 1.140e+04 5.112e-10
 97.90947    235.4 1.141e+04 5.159e-10
 97.91960    234.4 1.136e+04 4.945e-10
 97.93816    234.3 1.135e+04 4.980e-10
 97.95842    234.4 1.134e+04 5.115e-10
 97.97177    234.7 1.135e+04 5.402e-10
 97.98190    234.9 1.151e+04 5.977e-10
 97.99895    235.3 1.147e+04 6.129e-10
 98.01921    235.8 1.146e+04 6.497e-10
 98.03919    236.4 1.150e+04 7.020e-10
 98.04932    236.5 1.156e+04 7.314e-10
 98.05973    237.1 1.161e+04 7.777e-10
 98.07999    237.8 1.167e+04 8.295e-10
 98.10026    238.6 1.173e+04 8.814e-10
 98.11674    239.4 1.178e+04 9.237e-10
 98.13710    241.6 1.141e+04 7.412e-10
 98.17137    243.3 1.147e+04 7.910e-10
 98.21189    245.3 1.153e+04 8.345e-10
 98.24218    245.9 1.147e+04 8.315e-10
 98.26171    246.6 1.141e+04 8.122e-10
 98.27193    246.3 1.130e+04 7.833e-10
 98.29294    248.4 1.122e+04 7.676e-10
 98.33346    250.8 1.109e+04 7.272e-10
 98.37398    253.6 1.094e+04 6.838e-10
 98.40687    256.8 1.085e+04 6.434e-10
 98.42713    255.8 1.052e+04 5.345e-10
 98.45503    259.1 1.033e+04 4.704e-10
 98.49555    262.6 1.023e+04 4.311e-10
 98.53608    266.4 1.028e+04 4.126e-10
 98.56197    270.3 1.027e+04 4.028e-10
 98.58223    268.0 9.660e+03 1.954e-10
 98.61712    272.0 9.669e+03 1.959e-10
 98.65765    275.9 9.713e+03 2.005e-10
 98.69680    279.9 9.813e+03 2.134e-10
 98.71706    277.2 9.164e+03 1.852e-10
 98.73869    281.2 9.332e+03 2.066e-10
 98.77921    285.2 9.605e+03 2.343e-10
 98.81974    289.3 9.923e+03 2.648e-10
 98.85190    293.4 1.028e+04 2.973e-10
 98.87216    290.8 9.916e+03 2.885e-10
 98.90078    294.5 1.034e+04 3.206e-10
 98.94131    298.4 1.090e+04 3.608e-10
 98.98183    300.9 1.125e+04 3.951e-10
 99.00690    301.7 1.152e+04 4.193e-10
 99.01917    300.1 1.106e+04 3.539e-10
 99.03462    299.2 1.106e+04 3.678e-10
 99.05265    300.3 1.112e+04 3.819e-10
 99.07281    302.4 1.116e+04 4.077e-10
 99.08435    305.2 1.126e+04 4.706e-10
 99.09448    302.3 1.120e+04 4.254e-10
 99.11334    304.5 1.120e+04 4.738e-10
 99.13360    307.0 1.138e+04 5.492e-10
 99.15177    309.2 1.171e+04 6.421e-10
 99.16190    305.8 1.168e+04 4.940e-10
 99.17412    307.7 1.196e+04 5.554e-10
 99.19438    309.0 1.231e+04 6.108e-10
 99.21464    309.9 1.270e+04 6.591e-10
 99.22932    310.5 1.308e+04 7.028e-10
 99.23945    305.7 1.208e+04 5.508e-10
 99.25517    305.7 1.233e+04 6.289e-10
 99.27543    305.6 1.259e+04 7.032e-10
 99.29569    305.5 1.283e+04 7.660e-10
 99.30686    305.2 1.306e+04 8.169e-10
 99.31700    300.5 1.294e+04 8.188e-10
 99.33621    299.4 1.308e+04 8.799e-10
 99.35648    297.5 1.324e+04 1.080e-09
 99.37428    292.4 1.532e+04 1.630e-09
 99.38441    283.4 1.712e+04 2.351e-09
 99.39188    280.0 1.858e+04 2.920e-09
 99.40197    277.2 2.002e+04 3.510e-09
 99.41210    273.3 2.212e+04 4.443e-09
 99.41802    268.6 2.403e+04 5.672e-09
 99.42309    262.3 2.524e+04 6.918e-09
 99.43236    256.2 2.683e+04 7.885e-09
 99.44249    251.8 2.667e+04 8.040e-09
 99.45173    245.5 2.704e+04 7.933e-09
 99.46191    237.4 2.604e+04 8.163e-09
 99.47804    228.4 2.411e+04 6.094e-09
 99.49831    220.0 1.965e+04 3.536e-09
 99.51857    207.1 2.007e+04 1.664e-09
 99.52938    185.8 2.440e+04 1.301e-09
 99.53951    177.4 2.335e+04 1.130e-09
 99.55398    166.2 2.521e+04 1.333e-09
 99.56299    155.2 2.563e+04 2.070e-09
 99.56806    150.9 2.667e+04 2.543e-09
 99.57419    135.7 2.928e+04 5.906e-09
 99.58161    121.5 3.259e+04 1.185e-08
 99.58668    111.6 3.612e+04 1.690e-08
 99.59445    100.5 3.644e+04 1.709e-08
 99.60177     91.0 3.590e+04 1.502e-08
 99.60683     91.3 3.572e+04 1.339e-08
 99.61471     82.2 3.448e+04 9.597e-09
 99.62484     74.8 3.163e+04 6.751e-09
 99.64009     62.3 2.686e+04 4.111e-09
 99.66040     49.2 2.047e+04 3.160e-09
 99.67435     41.7 1.754e+04 3.068e-09
 99.68448     48.3 1.676e+04 2.945e-09
 99.70092     44.1 1.614e+04 3.068e-09
 99.72118     40.8 1.600e+04 3.325e-09
 99.74145     38.7 1.652e+04 3.530e-09
 99.75190     37.1 1.780e+04 3.696e-09
 99.76203     44.3 1.548e+04 3.324e-09
 99.78197     44.0 1.544e+04 3.097e-09
 99.80223     43.4 1.546e+04 2.720e-09
 99.81931     42.4 1.566e+04 2.457e-09
 99.82944     47.1 1.451e+04 2.010e-09
 99.84275     46.8 1.419e+04 1.681e-09
 99.86302     46.6 1.410e+04 1.576e-09
 99.88328     46.7 1.434e+04 1.721e-09
 99.89686     47.4 1.512e+04 2.115e-09
 99.90699     51.7 1.305e+04 1.224e-09
 99.92380     52.6 1.338e+04 1.395e-09
 99.94406     53.9 1.409e+04 1.692e-09
 99.96428     55.3 1.496e+04 2.113e-09
 99.98454     59.8 1.330e+04 1.418e-09
100.00485     61.1 1.416e+04 1.745e-09
