# Columns:
#   distance along LOS (in CHIMPs)
#   peculiar velocity  (in km/s)
#   temperature (K)
#   HI number density
# pos=(97.3225,156.78,0.0675835), angles=(1.56214,2.85934)
  0.00086    158.6 1.516e+04 4.278e-09
  0.00680    159.1 1.527e+04 4.316e-09
  0.01517    159.8 1.538e+04 4.365e-09
  0.02025    159.7 1.583e+04 4.821e-09
  0.02714    160.3 1.606e+04 5.061e-09
  0.03731    160.2 1.654e+04 5.386e-09
  0.04748    159.1 1.831e+04 6.363e-09
  0.05304    155.4 2.321e+04 1.059e-08
  0.05812    151.4 2.557e+04 2.665e-08
  0.06781    146.4 2.617e+04 7.533e-08
  0.07542    143.3 2.550e+04 1.547e-07
  0.08048    141.3 2.470e+04 2.523e-07
  0.08580    138.4 2.322e+04 3.751e-07
  0.09088    137.3 2.264e+04 5.267e-07
  0.09829    136.0 2.225e+04 5.023e-07
  0.10849    136.1 2.200e+04 4.625e-07
  0.11861    136.8 2.200e+04 3.227e-07
  0.12878    138.1 2.238e+04 1.746e-07
  0.13899    138.1 2.327e+04 8.233e-08
  0.14916    137.7 2.533e+04 3.363e-08
  0.15648    135.1 3.030e+04 7.819e-09
  0.16156    134.7 3.078e+04 6.766e-09
  0.16950    132.7 3.245e+04 3.618e-09
  0.18422    123.0 3.364e+04 6.595e-10
  0.19444    117.1 2.411e+04 5.059e-10
  0.20518    108.6 1.162e+04 6.962e-10
  0.22552    105.2 1.081e+04 7.543e-10
  0.24586    104.0 1.100e+04 8.513e-10
  0.26001    102.9 1.132e+04 9.233e-10
  0.27018    103.0 1.146e+04 1.030e-09
  0.28653    102.0 1.151e+04 1.032e-09
  0.30687    101.1 1.149e+04 1.015e-09
  0.32558    100.3 1.140e+04 9.509e-10
  0.33575    100.9 1.144e+04 1.001e-09
  0.34754    100.4 1.122e+04 8.689e-10
  0.36788     99.7 1.097e+04 7.507e-10
  0.38821     99.1 1.077e+04 6.908e-10
  0.40132     98.6 1.072e+04 6.900e-10
  0.41149     99.3 1.056e+04 6.501e-10
  0.42889     99.3 1.058e+04 6.607e-10
  0.44923     99.3 1.066e+04 7.000e-10
  0.46689     99.5 1.081e+04 7.672e-10
  0.47705    100.5 1.059e+04 7.025e-10
  0.48990    100.9 1.079e+04 7.933e-10
  0.51024    101.1 1.106e+04 9.160e-10
  0.53057    101.3 1.140e+04 1.088e-09
  0.54262    101.4 1.193e+04 1.362e-09
  0.55279    102.6 1.171e+04 1.276e-09
  0.57125    102.5 1.239e+04 1.671e-09
  0.59158    102.1 1.329e+04 2.331e-09
  0.60819    101.7 1.432e+04 3.383e-09
  0.61836    103.0 1.396e+04 2.950e-09
  0.63226    102.4 1.487e+04 4.162e-09
  0.65259    102.0 1.564e+04 5.626e-09
  0.67293    101.9 1.629e+04 7.133e-09
  0.68393    101.8 1.675e+04 8.016e-09
  0.69410    102.7 1.583e+04 6.243e-09
  0.71360    102.4 1.586e+04 6.238e-09
  0.73394    102.2 1.577e+04 5.978e-09
  0.74950    102.2 1.548e+04 5.261e-09
  0.75967    103.1 1.491e+04 4.613e-09
  0.77461    103.1 1.472e+04 4.120e-09
  0.79495    102.8 1.468e+04 3.720e-09
  0.81507    102.5 1.477e+04 3.615e-09
  0.82524    104.3 1.443e+04 3.788e-09
  0.83562    104.2 1.500e+04 3.933e-09
  0.85596    103.9 1.572e+04 4.173e-09
  0.87116    103.2 1.581e+04 4.128e-09
  0.88128    102.9 1.575e+04 4.059e-09
  0.89071    101.9 1.600e+04 4.162e-09
  0.89579    104.2 1.589e+04 4.353e-09
  0.90162    103.0 1.636e+04 4.648e-09
  0.91179    101.2 1.722e+04 5.203e-09
  0.92196     99.1 1.819e+04 5.902e-09
  0.92858     96.6 1.922e+04 6.843e-09
  0.93366     96.8 1.939e+04 7.303e-09
  0.94229     94.3 2.042e+04 8.689e-09
  0.95246     91.7 2.113e+04 1.030e-08
  0.96136     90.8 2.119e+04 1.095e-08
  0.96644     88.6 2.236e+04 1.539e-08
  0.97280     87.1 2.240e+04 1.839e-08
  0.98297     86.6 2.235e+04 2.133e-08
  0.99313     86.3 2.187e+04 2.271e-08
  0.99923     86.1 2.153e+04 2.277e-08
  1.00431     85.4 2.170e+04 2.832e-08
  1.01347     85.7 2.140e+04 2.650e-08
  1.02364     85.9 2.109e+04 2.487e-08
  1.03206     86.1 2.003e+04 1.917e-08
  1.03601     85.8 2.072e+04 2.775e-08
  1.03776     86.6 2.139e+04 3.046e-08
  1.04398     87.0 2.111e+04 2.807e-08
  1.05414     87.3 2.075e+04 2.522e-08
  1.06431     87.8 2.033e+04 2.217e-08
  1.06988     88.0 1.998e+04 1.901e-08
  1.07497     87.9 2.038e+04 2.058e-08
  1.08465     88.2 2.002e+04 1.728e-08
  1.09763     89.1 1.961e+04 1.422e-08
  1.10780     87.8 1.940e+04 1.106e-08
  1.12029     87.6 1.991e+04 1.095e-08
  1.14067     86.0 1.901e+04 8.564e-09
  1.16101     84.9 1.830e+04 8.314e-09
  1.17342     84.6 1.813e+04 8.800e-09
  1.18358     83.1 1.859e+04 8.056e-09
  1.20168     83.5 1.889e+04 9.462e-09
  1.22202     83.8 1.966e+04 1.180e-08
  1.23899     84.0 2.049e+04 1.488e-08
  1.24915     82.7 1.982e+04 8.173e-09
  1.26269     82.7 1.931e+04 9.332e-09
  1.28303     82.3 1.875e+04 9.624e-09
  1.30337     82.0 1.787e+04 8.966e-09
  1.31472     82.1 1.689e+04 7.393e-09
  1.32489     81.5 1.495e+04 4.366e-09
  1.34404     81.6 1.462e+04 3.547e-09
  1.36438     81.5 1.414e+04 2.684e-09
  1.38029     81.3 1.341e+04 1.958e-09
  1.39046     80.5 1.277e+04 1.459e-09
  1.40505     80.3 1.216e+04 1.133e-09
  1.42539     80.3 1.172e+04 9.202e-10
  1.44572     80.5 1.149e+04 7.852e-10
  1.45603     80.6 1.140e+04 6.993e-10
  1.46620     80.2 1.130e+04 6.621e-10
  1.48640     80.0 1.130e+04 6.300e-10
  1.50673     79.8 1.131e+04 6.309e-10
  1.52160     79.4 1.135e+04 6.460e-10
  1.53177     79.2 1.165e+04 7.749e-10
  1.54741     78.7 1.187e+04 8.377e-10
  1.57801     77.8 1.247e+04 1.049e-09
  1.60851     75.6 1.332e+04 1.488e-09
  1.62875     74.3 1.358e+04 1.830e-09
  1.64909     73.4 1.364e+04 2.082e-09
  1.66290     72.7 1.365e+04 2.217e-09
  1.67307     72.3 1.398e+04 2.817e-09
  1.68976     71.7 1.405e+04 2.781e-09
  1.71010     71.0 1.412e+04 2.674e-09
  1.72847     70.3 1.404e+04 2.515e-09
  1.73864     69.8 1.441e+04 2.767e-09
  1.75077     69.1 1.431e+04 2.443e-09
  1.77111     68.5 1.403e+04 2.115e-09
  1.79145     68.1 1.367e+04 1.830e-09
  1.80421     67.9 1.331e+04 1.605e-09
  1.81438     67.3 1.335e+04 1.664e-09
  1.83212     67.2 1.301e+04 1.455e-09
  1.85246     67.4 1.272e+04 1.278e-09
  1.86978     67.6 1.247e+04 1.120e-09
  1.87995     67.3 1.233e+04 1.039e-09
  1.89313     67.5 1.207e+04 8.827e-10
  1.91347     67.6 1.181e+04 7.538e-10
  1.93380     67.7 1.158e+04 6.584e-10
  1.94552     67.9 1.140e+04 5.942e-10
  1.95568     67.7 1.121e+04 5.302e-10
  1.97448     68.0 1.106e+04 4.977e-10
  1.99481     68.5 1.095e+04 4.790e-10
  2.01108     69.0 1.089e+04 4.681e-10
  2.02125     68.9 1.080e+04 4.486e-10
  2.03549     69.4 1.081e+04 4.542e-10
  2.05582     70.0 1.087e+04 4.603e-10
  2.07616     70.5 1.094e+04 4.744e-10
  2.08682     71.0 1.099e+04 4.903e-10
  2.09699     71.2 1.103e+04 5.363e-10
  2.11683     71.8 1.114e+04 5.713e-10
  2.13717     71.9 1.145e+04 6.315e-10
  2.15239     71.2 1.219e+04 7.675e-10
  2.16256     69.7 1.314e+04 1.141e-09
  2.17784     68.0 1.407e+04 1.740e-09
  2.19818     66.9 1.462e+04 2.688e-09
  2.21796     66.9 1.499e+04 3.873e-09
  2.22813     66.9 1.526e+04 5.114e-09
  2.23885     67.4 1.531e+04 5.512e-09
  2.25919     68.0 1.525e+04 5.366e-09
  2.27953     68.8 1.506e+04 4.871e-09
  2.29370     69.2 1.482e+04 4.021e-09
  2.30386     68.9 1.465e+04 2.994e-09
  2.32020     68.0 1.427e+04 2.041e-09
  2.34054     66.3 1.367e+04 1.451e-09
  2.35927     64.5 1.291e+04 1.214e-09
  2.36943     62.6 1.182e+04 8.586e-10
  2.38121     62.2 1.170e+04 8.765e-10
  2.40155     62.2 1.158e+04 9.539e-10
  2.42188     62.5 1.169e+04 1.099e-09
  2.43500     62.9 1.190e+04 1.253e-09
  2.44517     61.9 1.167e+04 1.072e-09
  2.46256     62.1 1.214e+04 1.210e-09
  2.48289     61.8 1.249e+04 1.344e-09
  2.50057     61.3 1.299e+04 1.494e-09
  2.51074     60.3 1.272e+04 1.348e-09
  2.52357     59.3 1.325e+04 1.604e-09
  2.54391     57.8 1.430e+04 2.166e-09
  2.56424     56.4 1.563e+04 3.191e-09
  2.57631     54.4 1.710e+04 5.313e-09
  2.58648     54.4 1.617e+04 4.088e-09
  2.60492     50.9 1.834e+04 6.784e-09
  2.62012     48.5 1.926e+04 8.129e-09
  2.63024     45.6 2.046e+04 1.020e-08
  2.64041     39.2 2.420e+04 1.655e-08
  2.64686     30.6 2.720e+04 3.840e-08
  2.65195     29.8 2.721e+04 3.523e-08
  2.66074     23.3 2.604e+04 8.349e-08
  2.67091     18.3 2.475e+04 1.504e-07
  2.67965     12.3 2.509e+04 1.577e-07
  2.68473     12.3 2.500e+04 1.520e-07
  2.69125      5.9 2.547e+04 1.232e-07
  2.70142     -1.0 2.577e+04 7.651e-08
  2.71159     -8.0 2.427e+04 4.851e-08
  2.71752    -13.1 2.221e+04 3.095e-08
  2.72260    -12.5 2.236e+04 2.846e-08
  2.73192    -15.6 2.053e+04 2.040e-08
  2.74209    -17.7 1.950e+04 1.418e-08
  2.75030    -19.4 1.874e+04 1.139e-08
  2.75539    -18.5 1.865e+04 1.088e-08
  2.76243    -21.7 1.720e+04 6.452e-09
  2.77260    -23.0 1.690e+04 5.695e-09
  2.78276    -26.9 1.621e+04 3.885e-09
  2.78817    -27.4 1.638e+04 3.898e-09
  2.79330    -25.1 1.569e+04 3.196e-09
  2.80828    -29.6 1.437e+04 1.907e-09
  2.82862    -34.1 1.227e+04 1.317e-09
  2.84875    -35.4 1.169e+04 1.242e-09
  2.85892    -34.1 1.091e+04 7.814e-10
  2.86929    -34.8 1.097e+04 9.667e-10
  2.88963    -35.0 1.106e+04 1.138e-09
  2.90997    -35.8 1.201e+04 1.482e-09
  2.92449    -38.3 1.509e+04 2.488e-09
  2.93466    -34.9 1.270e+04 1.728e-09
  2.95064    -37.8 1.579e+04 3.248e-09
  2.97098    -40.9 1.755e+04 6.134e-09
  2.99006    -42.5 1.779e+04 9.215e-09
  3.00023    -39.9 1.807e+04 8.156e-09
  3.01165    -41.5 1.826e+04 1.072e-08
  3.03199    -42.1 1.788e+04 1.055e-08
  3.04719    -41.7 1.733e+04 7.971e-09
  3.05731    -41.7 1.760e+04 7.095e-09
  3.06575    -43.8 1.761e+04 4.208e-09
  3.07083    -40.8 1.748e+04 6.154e-09
  3.07765    -41.2 1.784e+04 4.855e-09
  3.09295    -44.6 1.713e+04 3.048e-09
  3.11333    -49.4 1.419e+04 1.578e-09
  3.13136    -51.1 1.247e+04 1.248e-09
  3.14153    -49.6 1.337e+04 1.591e-09
  3.15401    -50.1 1.281e+04 1.481e-09
  3.17434    -50.1 1.275e+04 1.500e-09
  3.19468    -50.1 1.305e+04 1.657e-09
  3.20710    -51.3 1.412e+04 2.034e-09
  3.21727    -51.2 1.515e+04 2.792e-09
  3.23535    -53.6 1.694e+04 4.248e-09
  3.25569    -55.6 1.823e+04 6.924e-09
  3.27267    -56.3 1.878e+04 1.062e-08
  3.28284    -55.8 1.989e+04 1.379e-08
  3.28975    -56.1 1.963e+04 1.582e-08
  3.29479    -55.8 2.065e+04 2.314e-08
  3.30135    -55.8 2.049e+04 2.324e-08
  3.31665    -55.7 2.030e+04 2.202e-08
  3.33704    -55.6 1.933e+04 1.581e-08
  3.34841    -55.2 1.782e+04 9.870e-09
  3.35858    -55.4 1.790e+04 8.462e-09
  3.37771    -55.9 1.627e+04 5.023e-09
  3.39805    -55.8 1.473e+04 3.055e-09
  3.41398    -55.5 1.357e+04 1.976e-09
  3.42414    -55.5 1.328e+04 1.848e-09
  3.43872    -54.7 1.254e+04 1.287e-09
  3.45906    -53.8 1.191e+04 9.361e-10
  3.47939    -52.8 1.153e+04 7.488e-10
  3.48971    -51.7 1.132e+04 6.666e-10
  3.49988    -51.1 1.087e+04 6.254e-10
  3.52007    -50.1 1.087e+04 5.876e-10
  3.54040    -49.1 1.087e+04 5.812e-10
  3.55528    -47.8 1.092e+04 5.931e-10
  3.56545    -47.2 1.064e+04 5.063e-10
  3.58108    -46.1 1.077e+04 5.345e-10
  3.60141    -45.1 1.087e+04 5.923e-10
  3.62085    -44.2 1.087e+04 6.416e-10
  3.63102    -43.5 1.062e+04 5.402e-10
  3.64209    -42.3 1.077e+04 6.113e-10
  3.66242    -41.3 1.097e+04 6.735e-10
  3.68276    -40.3 1.120e+04 7.325e-10
  3.69659    -39.4 1.136e+04 7.682e-10
  3.70676    -38.8 1.135e+04 6.952e-10
  3.72343    -37.9 1.157e+04 7.305e-10
  3.74377    -37.1 1.164e+04 7.448e-10
  3.76216    -36.2 1.163e+04 7.454e-10
  3.77233    -35.7 1.172e+04 7.616e-10
  3.78444    -34.8 1.167e+04 7.568e-10
  3.80478    -33.8 1.154e+04 7.253e-10
  3.82512    -32.8 1.144e+04 6.945e-10
  3.83789    -32.0 1.140e+04 6.748e-10
  3.84806    -31.1 1.146e+04 6.799e-10
  3.86579    -30.2 1.151e+04 6.491e-10
  3.88613    -29.3 1.157e+04 6.390e-10
  3.90346    -28.4 1.159e+04 6.462e-10
  3.91363    -27.6 1.158e+04 6.342e-10
  3.92680    -26.7 1.160e+04 6.375e-10
  3.94714    -25.7 1.149e+04 6.592e-10
  3.96747    -24.7 1.142e+04 6.904e-10
  3.97920    -23.7 1.142e+04 7.130e-10
  3.98937    -22.9 1.168e+04 7.422e-10
  4.00815    -21.8 1.165e+04 7.629e-10
  4.02848    -20.8 1.174e+04 7.875e-10
  4.04477    -20.0 1.188e+04 8.156e-10
  4.05494    -19.0 1.219e+04 9.596e-10
  4.06916    -18.2 1.227e+04 9.759e-10
  4.08949    -17.7 1.245e+04 1.019e-09
  4.10983    -17.3 1.265e+04 1.098e-09
  4.12051    -17.2 1.286e+04 1.235e-09
  4.13067    -15.5 1.290e+04 1.265e-09
  4.15050    -15.3 1.315e+04 1.426e-09
  4.17084    -15.2 1.340e+04 1.646e-09
  4.18608    -15.1 1.351e+04 1.909e-09
  4.19624    -13.7 1.359e+04 1.761e-09
  4.21151    -13.4 1.363e+04 2.007e-09
  4.23185    -12.6 1.367e+04 2.168e-09
  4.25164    -11.7 1.366e+04 2.191e-09
  4.26181    -10.5 1.377e+04 2.170e-09
  4.27252     -9.8 1.366e+04 2.080e-09
  4.29286     -9.2 1.336e+04 1.844e-09
  4.31320     -8.8 1.322e+04 1.681e-09
  4.32738     -8.4 1.309e+04 1.603e-09
  4.33755     -7.2 1.333e+04 1.738e-09
  4.35387     -6.6 1.322e+04 1.704e-09
  4.37421     -5.7 1.316e+04 1.722e-09
  4.39295     -4.6 1.321e+04 1.791e-09
  4.40312     -3.5 1.339e+04 1.931e-09
  4.41488     -2.3 1.346e+04 2.024e-09
  4.43522     -1.2 1.376e+04 2.226e-09
  4.45555     -0.7 1.490e+04 2.713e-09
  4.46869     -1.6 1.710e+04 4.032e-09
  4.47886      0.6 1.664e+04 3.654e-09
  4.49623     -1.6 1.953e+04 7.181e-09
  4.51656     -3.0 2.047e+04 1.606e-08
  4.53177     -3.2 2.070e+04 2.236e-08
  4.53924     -3.6 2.006e+04 3.174e-08
  4.54433     -3.7 2.010e+04 3.693e-08
  4.55206     -2.7 1.967e+04 5.549e-08
  4.56222     -1.3 1.974e+04 6.719e-08
  4.57203      0.3 2.007e+04 7.517e-08
  4.57711      1.2 2.026e+04 1.031e-07
  4.58256      1.9 2.014e+04 8.964e-08
  4.59273      2.4 2.076e+04 6.278e-08
  4.60290      1.6 2.174e+04 4.236e-08
  4.60990      0.4 2.278e+04 2.779e-08
  4.61498      1.1 2.294e+04 2.829e-08
  4.62323     -0.4 2.399e+04 1.854e-08
  4.63854     -5.0 2.322e+04 8.779e-09
  4.65892     -9.4 1.975e+04 4.385e-09
  4.67556    -11.4 1.545e+04 2.536e-09
  4.68573    -10.6 1.636e+04 2.623e-09
  4.69960    -11.1 1.360e+04 2.001e-09
  4.71993    -10.1 1.247e+04 1.536e-09
  4.74027     -9.2 1.187e+04 1.147e-09
  4.75130     -8.2 1.133e+04 8.579e-10
  4.76147     -7.3 1.150e+04 9.745e-10
  4.78094     -6.1 1.104e+04 7.191e-10
  4.80128     -5.1 1.055e+04 5.192e-10
  4.81687     -4.1 1.006e+04 3.770e-10
  4.82704     -3.2 1.024e+04 4.145e-10
  4.84195     -2.3 9.859e+03 3.102e-10
  4.86229     -1.6 9.690e+03 2.613e-10
  4.88244     -0.6 9.584e+03 2.373e-10
  4.89261      0.8 9.614e+03 2.392e-10
  4.91323      2.6 9.631e+03 2.193e-10
  4.95400      4.6 9.016e+03 1.610e-10
  4.99467      6.7 8.950e+03 1.523e-10
  5.02394      8.4 9.153e+03 1.833e-10
  5.04428     10.3 9.328e+03 1.927e-10
  5.07602     11.8 9.426e+03 2.639e-10
  5.11669     14.2 9.576e+03 3.582e-10
  5.15508     16.9 9.786e+03 4.011e-10
  5.17541     17.6 9.798e+03 4.140e-10
  5.18777     18.6 9.887e+03 3.772e-10
  5.20801     19.6 1.029e+04 3.694e-10
  5.22835     19.7 1.076e+04 3.846e-10
  5.24079     19.0 1.062e+04 3.837e-10
  5.25096     19.7 1.058e+04 3.868e-10
  5.26902     18.7 1.049e+04 4.390e-10
  5.28936     17.7 1.072e+04 5.423e-10
  5.30636     17.1 1.117e+04 7.559e-10
  5.31652     18.2 1.105e+04 6.944e-10
  5.33003     17.7 1.142e+04 8.681e-10
  5.35037     17.4 1.156e+04 1.023e-09
  5.37071     17.1 1.164e+04 1.080e-09
  5.38209     16.3 1.158e+04 1.029e-09
  5.39226     16.6 1.144e+04 9.182e-10
  5.41138     15.1 1.151e+04 8.487e-10
  5.43172     12.4 1.148e+04 7.889e-10
  5.44766      9.1 1.161e+04 8.053e-10
  5.45783     10.1 1.125e+04 7.559e-10
  5.47239      7.0 1.171e+04 9.109e-10
  5.49273      4.3 1.229e+04 1.172e-09
  5.51306      1.9 1.242e+04 1.362e-09
  5.52340     -0.1 1.234e+04 1.409e-09
  5.53357      0.6 1.202e+04 1.155e-09
  5.54674     -1.2 1.169e+04 1.110e-09
  5.55691     -0.2 1.169e+04 1.100e-09
  5.57407     -2.1 1.136e+04 8.823e-10
  5.58897     -4.7 1.112e+04 6.818e-10
  5.59914     -4.3 1.097e+04 6.444e-10
  5.61475     -7.4 1.087e+04 5.831e-10
  5.63508    -10.2 1.077e+04 5.674e-10
  5.65454    -12.0 1.043e+04 6.127e-10
  5.66470    -11.8 1.048e+04 6.370e-10
  5.67576    -12.7 1.056e+04 8.454e-10
  5.69609    -13.8 1.167e+04 1.208e-09
  5.71643    -16.7 1.423e+04 1.998e-09
  5.73027    -20.5 1.666e+04 3.520e-09
  5.74044    -20.3 1.626e+04 3.273e-09
  5.75710    -23.9 1.744e+04 5.054e-09
  5.77744    -26.7 1.746e+04 6.682e-09
  5.79584    -28.7 1.720e+04 7.372e-09
  5.80601    -28.7 1.667e+04 5.793e-09
  5.81811    -30.5 1.627e+04 5.872e-09
  5.83845    -32.0 1.589e+04 5.599e-09
  5.85879    -33.5 1.541e+04 4.843e-09
  5.87158    -34.8 1.469e+04 3.782e-09
  5.88175    -35.0 1.430e+04 3.318e-09
  5.89946    -36.0 1.367e+04 2.631e-09
  5.91980    -37.0 1.300e+04 2.039e-09
  5.93715    -38.2 1.237e+04 1.623e-09
  5.94732    -38.3 1.217e+04 1.528e-09
  5.96047    -39.4 1.181e+04 1.343e-09
  5.98081    -40.4 1.169e+04 1.264e-09
  6.00114    -41.3 1.169e+04 1.239e-09
  6.01289    -42.1 1.168e+04 1.222e-09
  6.02305    -42.4 1.166e+04 1.198e-09
  6.04182    -43.1 1.149e+04 1.125e-09
  6.06215    -43.5 1.119e+04 1.014e-09
  6.07845    -43.7 1.082e+04 8.808e-10
  6.08862    -43.9 1.061e+04 7.992e-10
  6.10283    -43.9 1.020e+04 6.573e-10
  6.12316    -43.6 9.815e+03 5.248e-10
  6.14350    -43.6 9.544e+03 4.302e-10
  6.15429    -44.0 9.347e+03 3.679e-10
  6.17472    -44.5 9.285e+03 3.493e-10
  6.21487    -44.5 8.990e+03 2.896e-10
  6.25555    -43.8 8.666e+03 2.421e-10
  6.28552    -43.0 8.594e+03 2.323e-10
  6.30586    -43.0 8.854e+03 2.736e-10
  6.33689    -42.4 8.935e+03 2.876e-10
  6.37757    -41.9 9.356e+03 3.766e-10
  6.41666    -41.3 9.799e+03 5.015e-10
  6.43700    -40.9 9.737e+03 4.733e-10
  6.45892    -40.2 1.002e+04 5.583e-10
  6.48932    -39.6 1.034e+04 7.092e-10
  6.50237    -39.1 1.035e+04 7.056e-10
  6.51254    -38.9 1.013e+04 5.925e-10
  6.52990    -38.6 1.018e+04 5.620e-10
  6.55023    -38.4 1.014e+04 5.120e-10
  6.56804    -38.4 1.003e+04 4.578e-10
  6.58847    -38.3 9.688e+03 3.527e-10
  6.62161    -37.7 9.270e+03 2.738e-10
  6.66228    -37.5 9.161e+03 2.546e-10
  6.69927    -37.6 9.233e+03 2.664e-10
  6.71961    -37.7 9.254e+03 2.732e-10
  6.74363    -38.6 9.770e+03 4.077e-10
  6.78430    -38.9 1.035e+04 6.466e-10
  6.82498    -38.8 1.082e+04 8.900e-10
  6.85075    -38.7 1.101e+04 9.822e-10
  6.87109    -38.3 1.067e+04 8.358e-10
  6.90632    -38.3 1.014e+04 6.040e-10
  6.94700    -39.0 9.516e+03 4.236e-10
  6.98189    -40.1 9.276e+03 3.786e-10
  7.00222    -39.8 8.830e+03 2.948e-10
  7.02834    -40.4 9.103e+03 3.496e-10
  7.06902    -40.5 9.685e+03 5.109e-10
  7.10969    -40.3 1.007e+04 6.434e-10
  7.13336    -40.2 1.015e+04 6.726e-10
  7.15370    -39.3 9.886e+03 5.871e-10
  7.19104    -39.3 9.654e+03 4.760e-10
  7.23171    -40.0 9.169e+03 3.251e-10
  7.26450    -41.3 9.061e+03 2.920e-10
  7.28484    -41.3 9.025e+03 2.781e-10
  7.30279    -42.8 9.379e+03 3.333e-10
  7.32303    -43.3 9.563e+03 3.910e-10
  7.34004    -44.3 1.005e+04 5.811e-10
  7.35021    -44.5 1.015e+04 6.149e-10
  7.36370    -45.1 1.094e+04 9.288e-10
  7.38404    -46.2 1.196e+04 1.418e-09
  7.40438    -47.4 1.305e+04 2.131e-09
  7.41578    -48.5 1.406e+04 3.074e-09
  7.42595    -48.7 1.433e+04 3.478e-09
  7.44505    -49.9 1.515e+04 4.465e-09
  7.46539    -51.4 1.563e+04 5.094e-09
  7.48135    -53.2 1.574e+04 5.228e-09
  7.49152    -54.0 1.601e+04 5.607e-09
  7.50606    -55.7 1.570e+04 5.357e-09
  7.52640    -56.8 1.492e+04 4.344e-09
  7.54673    -57.4 1.405e+04 3.235e-09
  7.55708    -57.8 1.324e+04 2.293e-09
  7.56725    -58.5 1.338e+04 2.524e-09
  7.58741    -58.9 1.258e+04 1.729e-09
  7.60774    -59.8 1.175e+04 1.176e-09
  7.62265    -60.9 1.090e+04 8.315e-10
  7.63282    -61.7 1.117e+04 9.723e-10
  7.64842    -62.4 1.053e+04 7.738e-10
  7.66875    -62.8 1.020e+04 6.851e-10
  7.68822    -62.6 1.007e+04 6.527e-10
  7.69839    -63.0 1.032e+04 7.560e-10
  7.70943    -62.5 1.023e+04 7.199e-10
  7.72976    -62.1 1.013e+04 6.752e-10
  7.75010    -61.7 1.000e+04 6.179e-10
  7.76396    -61.4 9.840e+03 5.603e-10
  7.77413    -62.2 9.816e+03 5.540e-10
  7.79077    -62.1 9.667e+03 5.072e-10
  7.80372    -62.0 9.587e+03 4.781e-10
  7.81389    -63.1 9.756e+03 5.164e-10
  7.82953    -63.0 9.767e+03 5.118e-10
  7.83970    -64.1 9.987e+03 5.730e-10
  7.85178    -64.1 1.008e+04 5.877e-10
  7.87212    -64.1 1.016e+04 6.002e-10
  7.89246    -64.1 1.020e+04 6.077e-10
  7.90526    -64.1 1.022e+04 6.112e-10
  7.91543    -65.1 1.048e+04 7.044e-10
  7.93313    -65.3 1.053e+04 7.120e-10
  7.95347    -66.0 1.076e+04 8.019e-10
  7.97083    -70.2 1.359e+04 1.244e-09
  7.98100    -77.5 1.758e+04 3.574e-09
  7.99414    -82.8 1.964e+04 7.750e-09
  8.01448    -86.8 2.043e+04 1.329e-08
  8.03481    -90.5 2.060e+04 1.589e-08
  8.04657    -94.6 2.078e+04 1.606e-08
  8.05674    -99.6 1.999e+04 1.021e-08
  8.07549   -107.8 1.953e+04 5.098e-09
  8.09582   -118.8 1.678e+04 2.281e-09
  8.11214   -128.2 1.337e+04 1.548e-09
  8.12231   -131.9 1.271e+04 1.433e-09
  8.13650   -134.5 1.262e+04 1.423e-09
  8.15683   -136.7 1.240e+04 1.380e-09
  8.17717   -138.5 1.192e+04 1.217e-09
  8.18788   -139.9 1.139e+04 1.029e-09
  8.19805   -140.6 1.103e+04 9.223e-10
  8.21784   -141.2 1.054e+04 7.381e-10
  8.23818   -141.7 1.014e+04 5.868e-10
  8.25345   -142.1 9.838e+03 4.721e-10
  8.26361   -143.0 9.627e+03 3.341e-10
  8.28912   -144.0 9.541e+03 2.909e-10
  8.32989   -144.9 9.543e+03 2.772e-10
  8.37056   -146.2 9.809e+03 2.922e-10
  8.39485   -147.9 1.029e+04 3.863e-10
  8.40492   -150.1 1.056e+04 5.493e-10
  8.42121   -150.8 1.089e+04 7.207e-10
  8.44155   -151.4 1.123e+04 9.378e-10
  8.46032   -151.8 1.160e+04 1.185e-09
  8.47049   -152.8 1.204e+04 1.441e-09
  8.48222   -153.3 1.239e+04 1.602e-09
  8.50256   -153.8 1.254e+04 1.637e-09
  8.52289   -154.2 1.258e+04 1.633e-09
  8.53606   -154.5 1.251e+04 1.489e-09
  8.54623   -156.5 1.225e+04 1.336e-09
  8.56357   -156.9 1.173e+04 1.162e-09
  8.58390   -157.2 1.126e+04 1.028e-09
  8.60163   -156.9 1.091e+04 9.377e-10
  8.61180   -157.7 1.072e+04 9.060e-10
  8.62458   -157.1 1.060e+04 8.617e-10
  8.64491   -156.5 1.052e+04 8.325e-10
  8.66525   -155.8 1.046e+04 8.126e-10
  8.67736   -155.1 1.044e+04 7.983e-10
  8.68753   -155.5 1.057e+04 7.376e-10
  8.70593   -154.9 1.062e+04 7.440e-10
  8.72626   -154.4 1.070e+04 7.727e-10
  8.74293   -153.8 1.082e+04 8.157e-10
  8.75310   -154.6 1.089e+04 8.213e-10
  8.76694   -154.1 1.112e+04 9.203e-10
  8.78727   -153.6 1.137e+04 1.032e-09
  8.80761   -153.1 1.160e+04 1.142e-09
  8.81867   -152.6 1.178e+04 1.230e-09
  8.82884   -153.4 1.206e+04 1.424e-09
  8.84828   -153.1 1.221e+04 1.509e-09
  8.86862   -152.9 1.223e+04 1.526e-09
  8.88424   -152.6 1.220e+04 1.520e-09
  8.89441   -153.3 1.241e+04 1.706e-09
  8.90929   -152.9 1.227e+04 1.653e-09
  8.92963   -152.3 1.208e+04 1.541e-09
  8.94981   -151.6 1.190e+04 1.432e-09
  8.95998   -152.3 1.208e+04 1.614e-09
  8.97030   -151.7 1.196e+04 1.544e-09
  8.99064   -151.1 1.188e+04 1.491e-09
  9.01098   -150.5 1.184e+04 1.468e-09
  9.02555   -149.8 1.183e+04 1.464e-09
  9.03571   -150.2 1.201e+04 1.531e-09
  9.05165   -149.6 1.202e+04 1.533e-09
  9.07199   -148.8 1.211e+04 1.575e-09
  9.09111   -148.1 1.224e+04 1.656e-09
  9.10128   -148.7 1.242e+04 1.502e-09
  9.11266   -147.9 1.257e+04 1.593e-09
  9.13300   -147.0 1.272e+04 1.703e-09
  9.15333   -146.1 1.287e+04 1.833e-09
  9.16685   -145.2 1.302e+04 1.967e-09
  9.17702   -145.9 1.250e+04 1.506e-09
  9.19401   -144.9 1.267e+04 1.617e-09
  9.21434   -143.9 1.282e+04 1.724e-09
  9.23242   -143.0 1.294e+04 1.813e-09
  9.24259   -143.7 1.219e+04 1.362e-09
  9.25502   -142.7 1.232e+04 1.430e-09
  9.27535   -141.8 1.241e+04 1.472e-09
  9.30596   -141.0 1.247e+04 1.485e-09
  9.34673   -138.9 1.248e+04 1.504e-09
  9.37382   -137.9 1.239e+04 1.426e-09
  9.39416   -138.2 1.189e+04 1.112e-09
  9.42807   -136.1 1.195e+04 1.144e-09
  9.46875   -134.0 1.195e+04 1.147e-09
  9.50506   -131.5 1.181e+04 1.057e-09
  9.52540   -133.2 1.093e+04 6.053e-10
  9.55009   -130.4 1.068e+04 5.037e-10
  9.59077   -127.6 1.047e+04 4.137e-10
  9.63144   -124.7 1.037e+04 3.568e-10
  9.65653   -121.9 1.032e+04 3.281e-10
  9.67687   -123.7 1.028e+04 3.383e-10
  9.71279   -120.9 1.046e+04 3.802e-10
  9.75346   -118.2 1.065e+04 4.567e-10
  9.78387   -116.5 1.082e+04 6.011e-10
  9.79764   -115.2 1.087e+04 6.491e-10
  9.80791   -116.5 1.105e+04 6.748e-10
  9.82454   -114.5 1.116e+04 7.933e-10
  9.84478   -112.9 1.143e+04 9.395e-10
  9.86321   -111.7 1.179e+04 1.135e-09
  9.87338   -112.5 1.172e+04 1.095e-09
  9.88545   -111.3 1.206e+04 1.298e-09
  9.90579   -110.1 1.241e+04 1.546e-09
  9.92613   -108.9 1.272e+04 1.798e-09
  9.93895   -107.7 1.294e+04 1.998e-09
  9.94912   -108.5 1.253e+04 1.697e-09
  9.96680   -107.4 1.258e+04 1.759e-09
  9.98714   -106.4 1.259e+04 1.768e-09
 10.00452   -105.2 1.248e+04 1.743e-09
 10.01469   -106.0 1.192e+04 1.334e-09
 10.02781   -104.8 1.171e+04 1.245e-09
 10.04815   -103.5 1.147e+04 1.123e-09
 10.06071   -102.4 1.122e+04 9.915e-10
 10.07087   -102.4 1.124e+04 1.026e-09
 10.08026   -101.3 1.100e+04 8.956e-10
 10.09042   -102.3 1.074e+04 7.749e-10
 10.10916   -101.3 1.061e+04 7.074e-10
 10.12949   -100.5 1.053e+04 6.592e-10
 10.14583    -99.8 1.049e+04 6.337e-10
 10.15599   -100.8 1.038e+04 5.906e-10
 10.17017   -100.2 1.045e+04 6.008e-10
 10.19050    -99.7 1.062e+04 6.399e-10
 10.21084    -99.5 1.081e+04 7.019e-10
 10.22156    -99.3 1.102e+04 7.752e-10
 10.23173   -100.4 1.102e+04 7.809e-10
 10.25151   -100.3 1.122e+04 8.548e-10
 10.27185   -100.1 1.133e+04 9.150e-10
 10.28713   -100.1 1.137e+04 9.409e-10
 10.29730   -100.9 1.136e+04 9.421e-10
 10.31252   -101.7 1.164e+04 9.791e-10
 10.33286   -104.5 1.404e+04 9.603e-10
 10.35270   -108.6 1.821e+04 9.458e-10
 10.36287   -117.9 2.488e+04 3.610e-09
 10.37353   -120.1 2.300e+04 5.899e-09
 10.39387   -121.4 2.121e+04 7.145e-09
 10.41421   -122.2 1.937e+04 7.298e-09
 10.42844   -122.7 1.801e+04 6.795e-09
 10.43861   -124.3 1.891e+04 9.470e-09
 10.45488   -124.8 1.770e+04 6.557e-09
 10.47522   -125.0 1.671e+04 4.837e-09
 10.49401   -125.3 1.565e+04 3.272e-09
 10.50417   -127.7 1.507e+04 2.522e-09
 10.51589   -128.4 1.360e+04 1.582e-09
 10.53623   -129.1 1.240e+04 1.105e-09
 10.55656   -129.4 1.153e+04 8.643e-10
 10.56974   -128.6 1.102e+04 7.467e-10
 10.57991   -129.5 1.087e+04 7.314e-10
 10.59724   -128.4 1.068e+04 6.782e-10
 10.61757   -127.4 1.053e+04 6.359e-10
 10.63531   -126.4 1.039e+04 6.034e-10
 10.64548   -126.8 1.039e+04 6.233e-10
 10.65825   -125.7 1.031e+04 6.047e-10
 10.67858   -124.6 1.024e+04 5.917e-10
 10.69892   -123.6 1.020e+04 5.828e-10
 10.71105   -122.5 1.019e+04 5.806e-10
 10.72122   -122.7 1.022e+04 5.851e-10
 10.73959   -122.4 1.027e+04 5.948e-10
 10.75993   -123.1 1.058e+04 6.671e-10
 10.77662   -125.1 1.191e+04 1.015e-09
 10.78679   -128.3 1.341e+04 1.643e-09
 10.80061   -129.7 1.496e+04 3.067e-09
 10.82094   -130.8 1.665e+04 5.435e-09
 10.84128   -132.8 1.867e+04 8.960e-09
 10.85236   -136.2 2.076e+04 1.404e-08
 10.86252   -140.2 2.170e+04 1.685e-08
 10.87682   -143.8 2.236e+04 2.084e-08
 10.88504   -145.9 2.266e+04 2.296e-08
 10.89013   -148.4 2.286e+04 2.254e-08
 10.89711   -150.8 2.306e+04 2.329e-08
 10.90728   -153.1 2.321e+04 2.366e-08
 10.91744   -155.6 2.334e+04 2.366e-08
 10.92291   -158.1 2.344e+04 2.322e-08
 10.92799   -161.2 2.308e+04 2.101e-08
 10.93778   -163.7 2.294e+04 1.898e-08
 10.94795   -166.4 2.261e+04 1.659e-08
 10.95570   -169.2 2.195e+04 1.416e-08
 10.96078   -171.4 2.117e+04 1.269e-08
 10.96829   -173.8 2.023e+04 1.066e-08
 10.97845   -176.1 1.918e+04 8.956e-09
 10.98848   -177.8 1.839e+04 7.688e-09
 10.99356   -178.8 1.785e+04 6.792e-09
 10.99879   -180.0 1.709e+04 5.661e-09
 11.00896   -180.7 1.652e+04 4.835e-09
 11.02426   -181.4 1.601e+04 4.105e-09
 11.04465   -182.3 1.559e+04 3.386e-09
 11.05923   -183.2 1.484e+04 2.539e-09
 11.06940   -184.3 1.350e+04 1.614e-09
 11.08532   -184.8 1.268e+04 1.280e-09
 11.10566   -185.0 1.215e+04 1.109e-09
 11.12480   -184.7 1.187e+04 1.024e-09
 11.13497   -184.6 1.159e+04 8.735e-10
 11.14633   -184.0 1.150e+04 8.549e-10
 11.16667   -183.4 1.143e+04 8.396e-10
 11.18700   -182.7 1.138e+04 8.230e-10
 11.20054   -182.2 1.134e+04 8.043e-10
 11.21070   -182.5 1.127e+04 7.602e-10
 11.22768   -182.1 1.126e+04 7.554e-10
 11.24801   -181.7 1.124e+04 7.433e-10
 11.26611   -181.4 1.124e+04 7.237e-10
 11.27627   -181.9 1.122e+04 7.181e-10
 11.28869   -181.8 1.123e+04 6.945e-10
 11.30902   -181.8 1.127e+04 6.824e-10
 11.32936   -181.9 1.128e+04 6.803e-10
 11.34184   -182.2 1.136e+04 6.818e-10
 11.35201   -183.1 1.133e+04 6.771e-10
 11.37003   -183.7 1.153e+04 7.167e-10
 11.39037   -184.5 1.177e+04 8.259e-10
 11.40741   -185.3 1.209e+04 9.963e-10
 11.41758   -186.5 1.229e+04 1.082e-09
 11.43104   -187.6 1.274e+04 1.315e-09
 11.45138   -189.3 1.320e+04 1.541e-09
 11.47172   -191.8 1.364e+04 1.727e-09
 11.48315   -195.3 1.398e+04 1.872e-09
 11.49332   -198.0 1.421e+04 2.053e-09
 11.51239   -202.3 1.425e+04 2.110e-09
 11.53273   -206.7 1.419e+04 2.108e-09
 11.54872   -210.8 1.385e+04 2.059e-09
 11.55889   -212.7 1.343e+04 1.879e-09
 11.57340   -216.0 1.284e+04 1.605e-09
 11.59374   -218.8 1.230e+04 1.343e-09
 11.61407   -221.3 1.188e+04 1.124e-09
 11.62445   -223.5 1.156e+04 9.454e-10
 11.63462   -223.9 1.113e+04 7.729e-10
 11.65475   -225.2 1.082e+04 6.457e-10
 11.67508   -226.2 1.049e+04 5.460e-10
 11.69002   -226.8 1.018e+04 4.747e-10
 11.70019   -225.3 9.992e+03 3.883e-10
 11.71576   -225.3 9.972e+03 3.716e-10
 11.73609   -225.6 9.965e+03 3.675e-10
 11.75559   -225.8 9.977e+03 3.666e-10
 11.76586   -225.3 9.984e+03 3.433e-10
 11.78713   -225.9 9.967e+03 3.413e-10
 11.82780   -226.3 1.008e+04 3.497e-10
 11.85821   -225.8 1.014e+04 3.620e-10
 11.87845   -226.3 1.020e+04 4.038e-10
 11.89690   -226.8 1.025e+04 4.897e-10
 11.90707   -225.2 1.015e+04 4.318e-10
 11.91912   -225.5 1.021e+04 5.150e-10
 11.93946   -225.7 1.028e+04 6.082e-10
 11.95980   -225.7 1.045e+04 6.809e-10
 11.97264   -225.9 1.068e+04 7.423e-10
 11.98280   -224.4 1.053e+04 7.090e-10
 12.00047   -224.9 1.087e+04 7.729e-10
 12.02081   -225.8 1.128e+04 8.407e-10
 12.03820   -227.0 1.166e+04 9.159e-10
 12.04837   -225.5 1.175e+04 9.294e-10
 12.06148   -226.8 1.206e+04 1.034e-09
 12.08182   -228.1 1.209e+04 1.105e-09
 12.10215   -229.1 1.206e+04 1.120e-09
 12.11394   -229.6 1.175e+04 1.120e-09
 12.12411   -228.4 1.215e+04 1.269e-09
 12.14283   -228.5 1.165e+04 1.212e-09
 12.16316   -228.3 1.122e+04 1.041e-09
 12.17951   -228.0 1.082e+04 8.302e-10
 12.18968   -226.9 1.108e+04 9.926e-10
 12.20384   -226.4 1.066e+04 7.423e-10
 12.22417   -225.9 1.029e+04 5.336e-10
 12.24451   -225.5 1.001e+04 4.080e-10
 12.27511   -225.1 9.794e+03 3.433e-10
 12.30772   -224.1 9.409e+03 2.625e-10
 12.32301   -224.8 9.851e+03 3.544e-10
 12.33108   -222.4 9.768e+03 3.478e-10
 12.35646   -221.5 9.768e+03 3.436e-10
 12.39723   -219.4 9.483e+03 2.865e-10
 12.43790   -217.3 9.351e+03 2.547e-10
 12.46232   -215.4 9.341e+03 2.477e-10
 12.48265   -213.9 9.580e+03 3.060e-10
 12.51925   -212.6 9.742e+03 3.111e-10
 12.55992   -212.1 1.003e+04 3.308e-10
 12.59346   -212.0 1.030e+04 4.010e-10
 12.61379   -211.1 1.051e+04 4.959e-10
 12.64127   -211.2 1.071e+04 6.266e-10
 12.68195   -211.2 1.094e+04 7.901e-10
 12.72262   -211.1 1.112e+04 9.194e-10
 12.74493   -210.7 1.115e+04 9.574e-10
 12.76527   -209.9 1.096e+04 8.885e-10
 12.80397   -209.0 1.072e+04 8.219e-10
 12.84464   -207.6 1.036e+04 6.762e-10
 12.87607   -205.9 9.985e+03 5.331e-10
 12.89640   -204.9 9.652e+03 4.531e-10
 12.92599   -203.1 9.519e+03 3.927e-10
 12.96666   -201.6 9.483e+03 3.800e-10
 13.00721   -200.4 9.531e+03 3.831e-10
 13.04788   -198.7 9.487e+03 3.611e-10
 13.08868   -197.9 9.740e+03 4.240e-10
 13.11909   -197.0 9.813e+03 4.547e-10
 13.13933   -197.2 9.894e+03 4.839e-10
 13.15848   -197.4 1.000e+04 5.259e-10
 13.16865   -196.6 9.970e+03 5.053e-10
 13.18000   -196.9 1.012e+04 5.496e-10
 13.20034   -197.4 1.027e+04 5.971e-10
 13.22067   -198.0 1.040e+04 6.509e-10
 13.23422   -199.0 1.054e+04 7.384e-10
 13.24439   -198.6 1.087e+04 8.476e-10
 13.26135   -200.2 1.138e+04 1.061e-09
 13.28168   -202.5 1.235e+04 1.433e-09
 13.29979   -205.7 1.384e+04 2.105e-09
 13.30996   -204.5 1.382e+04 2.251e-09
 13.32236   -208.4 1.520e+04 3.142e-09
 13.34269   -213.0 1.635e+04 4.263e-09
 13.36303   -217.8 1.709e+04 5.424e-09
 13.37553   -222.4 1.723e+04 6.230e-09
 13.38570   -221.2 1.694e+04 5.516e-09
 13.40370   -225.5 1.690e+04 5.760e-09
 13.42404   -229.1 1.678e+04 5.795e-09
 13.44110   -231.9 1.626e+04 5.670e-09
 13.45126   -231.1 1.617e+04 5.005e-09
 13.46471   -233.3 1.571e+04 4.591e-09
 13.48505   -235.2 1.511e+04 3.860e-09
 13.50539   -236.4 1.431e+04 2.978e-09
 13.51683   -237.1 1.343e+04 2.173e-09
 13.52700   -237.0 1.320e+04 1.815e-09
 13.54606   -237.4 1.232e+04 1.298e-09
 13.56640   -237.7 1.151e+04 9.360e-10
 13.58240   -237.8 1.085e+04 7.004e-10
 13.59257   -237.8 1.048e+04 5.753e-10
 13.60707   -237.7 9.997e+03 4.559e-10
 13.62741   -236.7 9.652e+03 3.796e-10
 13.65801   -234.2 9.388e+03 3.113e-10
 13.69878   -232.7 9.429e+03 3.074e-10
 13.72390   -230.5 9.417e+03 3.036e-10
 13.74424   -230.3 9.165e+03 2.642e-10
 13.78013   -228.1 9.169e+03 2.646e-10
 13.82080   -226.5 9.599e+03 3.195e-10
 13.85504   -225.8 1.046e+04 4.866e-10
 13.87538   -226.7 1.047e+04 4.918e-10
 13.90215   -226.8 1.122e+04 7.553e-10
 13.93068   -226.3 1.166e+04 9.880e-10
 13.94075   -227.3 1.159e+04 9.747e-10
 13.95279   -227.5 1.173e+04 1.047e-09
 13.97313   -228.2 1.183e+04 1.113e-09
 13.99347   -229.0 1.183e+04 1.115e-09
 14.00632   -229.5 1.176e+04 1.090e-09
 14.01649   -230.2 1.157e+04 1.023e-09
 14.03414   -230.5 1.144e+04 9.365e-10
 14.05448   -230.6 1.134e+04 8.518e-10
 14.07189   -230.7 1.127e+04 7.907e-10
 14.08206   -231.0 1.100e+04 7.082e-10
 14.09515   -230.9 1.098e+04 6.759e-10
 14.11549   -230.7 1.098e+04 6.698e-10
 14.13582   -230.6 1.106e+04 6.695e-10
 14.14763   -230.6 1.124e+04 6.892e-10
 14.15780   -230.6 1.106e+04 6.517e-10
 14.17650   -230.7 1.122e+04 6.965e-10
 14.19683   -230.8 1.139e+04 7.423e-10
 14.21320   -232.2 1.207e+04 8.614e-10
 14.22336   -231.1 1.162e+04 8.200e-10
 14.23751   -234.6 1.382e+04 1.204e-09
 14.25784   -240.1 1.789e+04 2.836e-09
 14.27818   -244.9 1.971e+04 6.497e-09
 14.28888   -246.7 2.001e+04 9.199e-09
 14.29905   -246.5 1.983e+04 8.284e-09
 14.31372   -249.0 2.011e+04 1.328e-08
 14.32162   -249.7 1.995e+04 1.513e-08
 14.32670   -248.7 1.999e+04 1.271e-08
 14.33401   -250.0 1.991e+04 1.526e-08
 14.34418   -250.9 1.997e+04 1.695e-08
 14.35435   -252.5 2.081e+04 1.925e-08
 14.35949   -254.5 2.344e+04 2.321e-08
 14.36457   -252.3 2.038e+04 1.761e-08
 14.37468   -254.1 2.210e+04 1.991e-08
 14.38485   -256.4 2.553e+04 2.412e-08
 14.39227   -259.1 2.914e+04 3.080e-08
 14.39736   -256.3 2.338e+04 1.992e-08
 14.40519   -258.7 2.704e+04 2.350e-08
 14.41536   -261.3 2.981e+04 2.923e-08
 14.42506   -263.7 3.026e+04 3.818e-08
 14.43014   -260.9 2.834e+04 2.250e-08
 14.43569   -263.4 2.975e+04 2.903e-08
 14.44586   -265.8 2.882e+04 4.115e-08
 14.45603   -267.6 2.650e+04 6.358e-08
 14.46293   -268.3 2.441e+04 1.031e-07
 14.46801   -267.2 2.608e+04 5.779e-08
 14.47637   -267.3 2.411e+04 1.137e-07
 14.48653   -266.7 2.320e+04 2.159e-07
 14.49571   -266.0 2.291e+04 3.561e-07
 14.50079   -265.6 2.378e+04 2.819e-07
 14.50687   -265.7 2.349e+04 4.413e-07
 14.51704   -268.3 2.339e+04 4.986e-07
 14.52721   -270.9 2.302e+04 4.827e-07
 14.53358   -271.5 2.257e+04 3.454e-07
 14.53866   -270.1 2.299e+04 3.257e-07
 14.54754   -270.3 2.284e+04 2.337e-07
 14.55771   -270.5 2.285e+04 1.615e-07
 14.56636   -270.6 2.268e+04 1.210e-07
 14.57145   -269.6 2.307e+04 1.245e-07
 14.57458   -269.6 2.268e+04 1.003e-07
 14.57966   -269.6 2.413e+04 8.417e-08
 14.58822   -269.7 2.366e+04 7.272e-08
 14.59839   -270.0 2.330e+04 6.238e-08
 14.60423   -270.3 2.297e+04 5.347e-08
 14.60932   -269.1 2.347e+04 5.044e-08
 14.61872   -269.3 2.300e+04 4.303e-08
 14.62889   -269.5 2.278e+04 3.666e-08
 14.63702   -269.8 2.273e+04 3.159e-08
 14.64210   -268.6 2.288e+04 3.037e-08
 14.64923   -269.0 2.264e+04 2.582e-08
 14.65940   -269.6 2.256e+04 2.202e-08
 14.66956   -270.3 2.247e+04 1.896e-08
 14.67488   -271.1 2.239e+04 1.651e-08
 14.67997   -269.6 2.196e+04 1.552e-08
 14.68990   -270.6 2.150e+04 1.309e-08
 14.70007   -271.9 2.091e+04 1.100e-08
 14.70767   -273.3 2.012e+04 9.302e-09
 14.71275   -271.9 1.960e+04 8.809e-09
 14.72041   -273.5 1.860e+04 7.407e-09
 14.73057   -275.2 1.768e+04 6.401e-09
 14.74045   -276.8 1.696e+04 5.789e-09
 14.74554   -276.1 1.685e+04 5.848e-09
 14.75091   -277.9 1.655e+04 5.482e-09
 14.76108   -279.3 1.651e+04 5.398e-09
 14.77125   -280.3 1.659e+04 5.387e-09
 14.77832   -281.0 1.681e+04 5.399e-09
 14.78341   -281.8 1.878e+04 5.637e-09
 14.79158   -282.3 1.920e+04 5.758e-09
 14.80175   -282.5 1.948e+04 5.904e-09
 14.81111   -282.5 1.965e+04 6.020e-09
 14.81619   -283.4 2.155e+04 7.294e-09
 14.82209   -283.3 2.154e+04 7.434e-09
 14.83226   -283.1 2.150e+04 7.572e-09
 14.84243   -282.5 2.145e+04 7.695e-09
 14.84898   -281.9 2.142e+04 7.779e-09
 14.85406   -282.5 2.165e+04 9.480e-09
 14.86276   -281.8 2.159e+04 9.505e-09
 14.87293   -281.0 2.155e+04 9.511e-09
 14.88176   -280.3 2.149e+04 9.488e-09
 14.88684   -280.7 2.075e+04 1.114e-08
 14.89327   -279.9 2.076e+04 1.097e-08
 14.90344   -279.0 2.075e+04 1.070e-08
 14.91360   -278.1 2.073e+04 1.036e-08
 14.91963   -277.1 2.068e+04 9.998e-09
 14.92471   -277.4 1.985e+04 1.162e-08
 14.93394   -276.5 1.989e+04 1.132e-08
 14.94411   -275.5 1.989e+04 1.106e-08
 14.95241   -274.6 1.985e+04 1.083e-08
 14.95750   -274.8 1.943e+04 1.172e-08
 14.96445   -273.7 1.947e+04 1.150e-08
 14.97462   -272.7 1.954e+04 1.132e-08
 14.98478   -271.7 1.964e+04 1.113e-08
 14.99028   -270.8 1.969e+04 1.091e-08
 14.99537   -270.9 1.952e+04 1.156e-08
 15.00512   -270.0 1.958e+04 1.153e-08
 15.01529   -269.0 1.967e+04 1.139e-08
 15.02307   -268.0 1.956e+04 1.128e-08
 15.02815   -268.1 1.945e+04 1.147e-08
 15.03563   -267.0 1.942e+04 1.141e-08
 15.04579   -266.0 1.939e+04 1.137e-08
 15.05585   -265.0 1.934e+04 1.137e-08
 15.06093   -265.0 1.911e+04 1.150e-08
 15.06613   -264.1 1.913e+04 1.158e-08
 15.07630   -263.2 1.912e+04 1.190e-08
 15.08647   -262.2 1.920e+04 1.232e-08
 15.09372   -261.3 1.929e+04 1.284e-08
 15.09880   -261.3 1.931e+04 1.269e-08
 15.11194   -260.3 1.949e+04 1.365e-08
 15.12660   -258.3 1.984e+04 1.535e-08
 15.13677   -258.4 1.934e+04 1.396e-08
 15.15266   -256.7 2.001e+04 1.691e-08
 15.17300   -255.2 2.070e+04 1.980e-08
 15.19217   -254.0 2.131e+04 2.271e-08
 15.20234   -254.5 2.080e+04 1.794e-08
 15.21367   -253.3 2.134e+04 2.133e-08
 15.22887   -252.5 2.185e+04 2.865e-08
 15.23502   -251.6 2.187e+04 3.081e-08
 15.24011   -251.7 2.175e+04 2.437e-08
 15.24916   -250.7 2.205e+04 2.925e-08
 15.25933   -249.8 2.238e+04 3.451e-08
 15.26781   -249.2 2.259e+04 4.026e-08
 15.27289   -249.4 2.287e+04 2.899e-08
 15.27967   -249.1 2.321e+04 3.629e-08
 15.28983   -248.8 2.325e+04 4.432e-08
 15.30000   -248.6 2.296e+04 5.128e-08
 15.30568   -248.0 2.280e+04 5.640e-08
 15.31076   -248.6 2.386e+04 4.519e-08
 15.32034   -247.7 2.342e+04 5.500e-08
 15.33051   -246.9 2.323e+04 6.287e-08
 15.33846   -246.5 2.288e+04 6.902e-08
 15.34355   -246.8 2.371e+04 5.056e-08
 15.35084   -246.5 2.339e+04 5.702e-08
 15.36101   -246.3 2.306e+04 6.080e-08
 15.37118   -245.7 2.248e+04 6.371e-08
 15.37633   -245.1 2.189e+04 6.519e-08
 15.38141   -245.5 2.293e+04 4.636e-08
 15.39152   -244.7 2.259e+04 4.855e-08
 15.40169   -244.2 2.179e+04 5.032e-08
 15.40912   -243.9 2.146e+04 4.688e-08
 15.41420   -243.6 2.218e+04 3.261e-08
 15.42202   -243.1 2.139e+04 3.298e-08
 15.43219   -242.4 2.085e+04 3.105e-08
 15.44190   -241.6 2.030e+04 2.834e-08
 15.44698   -241.5 2.084e+04 2.175e-08
 15.45253   -240.7 2.044e+04 2.131e-08
 15.46270   -239.9 1.998e+04 2.039e-08
 15.47286   -239.3 1.955e+04 1.863e-08
 15.47977   -238.6 1.913e+04 1.639e-08
 15.48485   -238.4 1.945e+04 1.517e-08
 15.49320   -237.8 1.892e+04 1.436e-08
 15.50337   -237.1 1.848e+04 1.288e-08
 15.51255   -236.4 1.806e+04 1.145e-08
 15.51764   -236.0 1.828e+04 1.140e-08
 15.52371   -235.2 1.796e+04 1.052e-08
 15.53387   -234.6 1.764e+04 9.768e-09
 15.54404   -233.9 1.732e+04 9.160e-09
 15.55047   -233.0 1.704e+04 8.613e-09
 15.55555   -232.5 1.721e+04 8.581e-09
 15.56438   -231.7 1.693e+04 8.069e-09
 15.57455   -230.9 1.669e+04 7.696e-09
 15.58321   -229.9 1.657e+04 7.475e-09
 15.58829   -229.9 1.668e+04 7.494e-09
 15.60002   -228.9 1.647e+04 7.313e-09
 15.61609   -226.8 1.592e+04 6.675e-09
 15.62621   -225.8 1.617e+04 6.882e-09
 15.63556   -225.0 1.604e+04 6.806e-09
 15.64573   -224.0 1.598e+04 6.791e-09
 15.66103   -223.0 1.599e+04 6.855e-09
 15.68141   -220.8 1.568e+04 6.629e-09
 15.69182   -218.9 1.553e+04 6.352e-09
 15.70199   -218.7 1.620e+04 7.542e-09
 15.72209   -217.2 1.622e+04 7.756e-09
 15.74242   -215.6 1.606e+04 7.722e-09
 15.75739   -214.0 1.595e+04 7.317e-09
 15.76756   -213.6 1.648e+04 8.679e-09
 15.78310   -212.0 1.651e+04 8.828e-09
 15.80343   -210.5 1.650e+04 8.673e-09
 15.82296   -209.2 1.641e+04 8.167e-09
 15.83313   -208.7 1.677e+04 9.549e-09
 15.84411   -207.4 1.676e+04 9.229e-09
 15.86444   -206.1 1.659e+04 8.770e-09
 15.88478   -204.8 1.631e+04 7.829e-09
 15.89870   -203.4 1.591e+04 6.692e-09
 15.90887   -202.8 1.634e+04 8.092e-09
 15.92545   -201.4 1.602e+04 7.247e-09
 15.94579   -200.0 1.563e+04 6.257e-09
 15.96427   -198.5 1.519e+04 5.227e-09
 15.97444   -197.9 1.546e+04 5.803e-09
 15.98646   -196.1 1.504e+04 4.977e-09
 16.00680   -194.6 1.464e+04 4.262e-09
 16.02714   -193.1 1.424e+04 3.592e-09
 16.04001   -191.4 1.381e+04 3.022e-09
 16.05017   -190.7 1.389e+04 3.131e-09
 16.06781   -189.0 1.353e+04 2.696e-09
 16.08815   -187.4 1.321e+04 2.357e-09
 16.10557   -185.9 1.289e+04 2.087e-09
 16.11574   -185.2 1.270e+04 1.876e-09
 16.12882   -183.6 1.241e+04 1.686e-09
 16.14916   -181.9 1.214e+04 1.546e-09
 16.16949   -179.9 1.199e+04 1.474e-09
 16.18131   -178.0 1.196e+04 1.456e-09
 16.19148   -177.8 1.104e+04 9.046e-10
 16.21017   -176.0 1.099e+04 8.869e-10
 16.23050   -174.8 1.108e+04 9.205e-10
 16.24688   -174.1 1.199e+04 1.163e-09
 16.25705   -173.7 1.026e+04 5.890e-10
 16.27118   -172.9 1.168e+04 7.641e-10
 16.29151   -173.0 1.426e+04 1.288e-09
 16.31185   -173.2 1.637e+04 2.812e-09
 16.32262   -173.2 1.762e+04 6.049e-09
 16.33279   -173.2 1.762e+04 2.065e-09
 16.35252   -173.7 1.853e+04 4.467e-09
 16.37286   -174.0 1.900e+04 8.612e-09
 16.38819   -174.6 1.965e+04 1.371e-08
 16.39836   -176.8 2.276e+04 7.813e-09
 16.40840   -176.7 2.241e+04 1.369e-08
 16.41852   -177.3 2.228e+04 1.757e-08
 16.42596   -178.0 2.213e+04 2.226e-08
 16.43104   -179.9 2.394e+04 2.247e-08
 16.43886   -181.2 2.421e+04 3.067e-08
 16.44903   -182.8 2.478e+04 4.036e-08
 16.45874   -184.9 2.547e+04 5.075e-08
 16.46383   -186.8 2.582e+04 7.886e-08
 16.46936   -188.9 2.578e+04 1.029e-07
 16.47953   -191.0 2.571e+04 1.235e-07
 16.48970   -192.7 2.559e+04 1.374e-07
 16.49661   -194.0 2.540e+04 1.450e-07
 16.50170   -195.4 2.580e+04 1.636e-07
 16.51004   -195.9 2.619e+04 1.511e-07
 16.52020   -195.9 2.672e+04 1.375e-07
 16.52940   -195.8 2.723e+04 1.287e-07
 16.53448   -198.1 2.921e+04 1.320e-07
 16.54054   -198.8 3.084e+04 1.257e-07
 16.55071   -200.0 3.260e+04 1.279e-07
 16.56088   -201.6 3.293e+04 1.564e-07
 16.56726   -203.5 3.154e+04 2.272e-07
 16.57235   -208.0 2.845e+04 2.983e-07
 16.58121   -210.5 2.655e+04 4.582e-07
 16.59138   -213.8 2.484e+04 6.339e-07
 16.60005   -217.2 2.400e+04 7.106e-07
 16.60513   -220.5 2.391e+04 3.966e-07
 16.61172   -222.4 2.402e+04 3.102e-07
 16.62189   -223.3 2.466e+04 1.996e-07
 16.63206   -223.4 2.547e+04 1.189e-07
 16.63792   -223.1 2.606e+04 7.109e-08
 16.64300   -224.8 2.390e+04 3.161e-08
 16.65239   -224.8 2.316e+04 2.118e-08
 16.66256   -224.9 2.200e+04 1.454e-08
 16.67070   -225.2 2.056e+04 1.026e-08
 16.67579   -226.4 1.758e+04 7.249e-09
 16.68290   -226.4 1.688e+04 5.646e-09
 16.69307   -226.3 1.642e+04 4.642e-09
 16.70323   -225.8 1.618e+04 4.024e-09
 16.71854   -224.5 1.585e+04 3.426e-09
 16.73637   -223.7 1.540e+04 2.724e-09
 16.74654   -224.1 1.379e+04 1.874e-09
 16.75926   -223.2 1.301e+04 1.372e-09
 16.77959   -222.4 1.260e+04 1.120e-09
 16.79993   -221.4 1.245e+04 9.977e-10
 16.81211   -220.3 1.239e+04 9.340e-10
 16.82227   -219.6 1.203e+04 8.465e-10
 16.83166   -218.5 1.201e+04 8.031e-10
 16.84183   -218.4 1.202e+04 8.019e-10
 16.86094   -217.2 1.205e+04 7.813e-10
 16.87767   -216.0 1.207e+04 7.775e-10
 16.88784   -215.2 1.170e+04 6.706e-10
 16.90161   -214.0 1.172e+04 6.700e-10
 16.92195   -212.9 1.191e+04 6.705e-10
 16.94229   -211.9 1.214e+04 7.061e-10
 16.95341   -211.0 1.238e+04 7.760e-10
 16.96358   -209.9 1.196e+04 6.355e-10
 16.98296   -209.2 1.227e+04 7.210e-10
 17.00330   -208.5 1.262e+04 8.735e-10
 17.01898   -207.7 1.292e+04 1.101e-09
 17.02915   -206.6 1.263e+04 8.896e-10
 17.04397   -205.9 1.299e+04 1.177e-09
 17.06431   -205.1 1.328e+04 1.521e-09
 17.08455   -204.1 1.347e+04 1.829e-09
 17.10489   -202.5 1.364e+04 2.063e-09
 17.12532   -201.6 1.376e+04 2.274e-09
 17.14566   -200.7 1.380e+04 2.368e-09
 17.16029   -199.8 1.366e+04 2.200e-09
 17.17045   -199.3 1.407e+04 2.727e-09
 17.18633   -198.5 1.400e+04 2.634e-09
 17.20667   -197.9 1.390e+04 2.334e-09
 17.22585   -197.5 1.375e+04 1.913e-09
 17.23602   -197.2 1.443e+04 2.994e-09
 17.24734   -197.0 1.428e+04 2.587e-09
 17.26768   -196.8 1.409e+04 2.133e-09
 17.28801   -196.9 1.387e+04 1.740e-09
 17.30159   -197.4 1.368e+04 1.477e-09
 17.31176   -196.8 1.436e+04 2.503e-09
 17.32869   -197.8 1.433e+04 2.315e-09
 17.34902   -199.4 1.435e+04 2.285e-09
 17.36716   -201.5 1.496e+04 2.492e-09
 17.37733   -202.6 1.668e+04 4.082e-09
 17.38970   -205.2 1.759e+04 5.501e-09
 17.41003   -207.3 1.805e+04 7.093e-09
 17.43037   -209.3 1.808e+04 7.812e-09
 17.44290   -211.0 1.788e+04 7.878e-09
 17.45307   -212.5 1.810e+04 9.754e-09
 17.47104   -213.4 1.709e+04 7.398e-09
 17.49138   -213.7 1.598e+04 5.134e-09
 17.50847   -214.0 1.494e+04 3.524e-09
 17.51864   -214.8 1.476e+04 3.513e-09
 17.53205   -214.9 1.396e+04 2.525e-09
 17.55239   -214.6 1.333e+04 1.910e-09
 17.57273   -213.8 1.286e+04 1.512e-09
 17.58420   -212.8 1.249e+04 1.247e-09
 17.59437   -213.1 1.233e+04 1.235e-09
 17.61340   -212.0 1.212e+04 1.058e-09
 17.63374   -210.9 1.191e+04 9.078e-10
 17.64977   -209.7 1.170e+04 7.829e-10
 17.65994   -209.9 1.154e+04 7.398e-10
 17.67441   -208.7 1.142e+04 6.637e-10
 17.69475   -207.5 1.129e+04 5.980e-10
 17.71508   -206.4 1.116e+04 5.421e-10
 17.72551   -205.2 1.103e+04 4.984e-10
 17.73568   -204.9 1.113e+04 4.562e-10
 17.75576   -203.6 1.107e+04 4.412e-10
 17.77609   -202.8 1.100e+04 4.309e-10
 17.79108   -201.5 1.093e+04 4.262e-10
 17.81151   -200.5 1.107e+04 3.995e-10
 17.84747   -198.3 1.102e+04 4.069e-10
 17.88814   -196.2 1.099e+04 4.138e-10
 17.92241   -194.0 1.097e+04 4.263e-10
 17.94275   -193.5 1.104e+04 3.903e-10
 17.96949   -191.3 1.099e+04 3.868e-10
 18.01016   -189.0 1.092e+04 3.808e-10
 18.05083   -186.8 1.088e+04 3.792e-10
 18.07389   -184.7 1.086e+04 3.849e-10
 18.09422   -184.3 1.070e+04 2.794e-10
 18.13218   -182.0 1.068e+04 2.786e-10
 18.17285   -179.9 1.069e+04 2.923e-10
 18.20502   -177.8 1.077e+04 3.262e-10
 18.22536   -176.7 1.061e+04 2.239e-10
 18.25420   -174.6 1.072e+04 2.566e-10
 18.29487   -172.4 1.082e+04 3.022e-10
 18.33555   -170.2 1.089e+04 3.503e-10
 18.35650   -168.0 1.091e+04 3.910e-10
 18.37684   -166.9 1.079e+04 2.798e-10
 18.41689   -164.6 1.080e+04 3.096e-10
 18.45757   -162.4 1.081e+04 3.233e-10
 18.48764   -160.1 1.071e+04 3.162e-10
 18.50797   -158.9 1.072e+04 2.594e-10
 18.53891   -156.6 1.067e+04 2.537e-10
 18.57959   -154.4 1.062e+04 2.396e-10
 18.61877   -152.3 1.067e+04 2.257e-10
 18.63911   -151.1 1.075e+04 2.142e-10
 18.66093   -149.2 1.084e+04 2.219e-10
 18.70161   -147.5 1.111e+04 2.487e-10
 18.74228   -145.9 1.132e+04 2.878e-10
 18.77025   -144.7 1.145e+04 3.224e-10
 18.79059   -143.6 1.165e+04 4.029e-10
 18.82363   -142.6 1.174e+04 4.257e-10
 18.86430   -141.8 1.174e+04 4.222e-10
 18.90139   -140.8 1.163e+04 3.608e-10
 18.92172   -140.0 1.192e+04 4.802e-10
 18.94565   -138.9 1.173e+04 3.830e-10
 18.98632   -137.7 1.159e+04 3.268e-10
 19.02700   -136.4 1.153e+04 3.127e-10
 19.05286   -134.8 1.147e+04 3.080e-10
 19.07320   -134.4 1.169e+04 4.121e-10
 19.10834   -132.6 1.154e+04 3.933e-10
 19.14902   -130.8 1.134e+04 3.490e-10
 19.18400   -128.8 1.110e+04 2.768e-10
 19.20433   -128.2 1.115e+04 3.006e-10
 19.23036   -126.0 1.089e+04 2.218e-10
 19.27104   -123.8 1.066e+04 1.621e-10
 19.31171   -121.5 1.049e+04 1.201e-10
 19.33547   -119.2 1.036e+04 9.360e-11
 19.35581   -118.5 1.036e+04 9.805e-11
 19.39306   -116.2 1.026e+04 8.326e-11
 19.43373   -113.8 1.017e+04 7.629e-11
 19.46661   -111.4 1.012e+04 7.406e-11
 19.48695   -110.7 1.016e+04 7.966e-11
 19.51508   -108.3 1.016e+04 7.925e-11
 19.55575   -106.0 1.016e+04 8.305e-11
 19.59642   -103.8 1.019e+04 9.554e-11
 19.61808   -101.7 1.023e+04 1.136e-10
 19.63842   -101.0 1.028e+04 1.318e-10
 19.67777    -99.0 1.031e+04 1.555e-10
 19.71844    -97.0 1.035e+04 1.776e-10
 19.74922    -95.1 1.036e+04 1.973e-10
 19.76956    -94.3 1.037e+04 2.134e-10
 19.79979    -92.5 1.033e+04 2.195e-10
 19.84046    -90.7 1.031e+04 2.208e-10
 19.88036    -88.9 1.020e+04 2.175e-10
 19.90070    -88.1 1.020e+04 2.121e-10
 19.92181    -86.3 1.012e+04 1.917e-10
 19.96248    -84.5 1.001e+04 1.650e-10
 20.00316    -82.6 9.903e+03 1.376e-10
 20.03183    -80.7 9.790e+03 1.172e-10
 20.05217    -80.0 9.795e+03 1.169e-10
 20.08450    -78.1 9.728e+03 1.102e-10
 20.12518    -76.2 9.712e+03 1.097e-10
 20.16297    -74.2 9.686e+03 1.186e-10
 20.18331    -73.6 9.696e+03 1.202e-10
 20.20652    -71.7 9.669e+03 1.315e-10
 20.24720    -69.7 9.648e+03 1.340e-10
 20.28787    -67.6 9.550e+03 1.300e-10
 20.31445    -65.4 9.473e+03 1.143e-10
 20.33478    -65.2 9.566e+03 1.315e-10
 20.36922    -63.2 9.503e+03 1.218e-10
 20.40989    -61.1 9.426e+03 1.139e-10
 20.44558    -58.9 9.348e+03 1.084e-10
 20.46592    -58.5 9.377e+03 1.398e-10
 20.49124    -56.3 9.321e+03 1.288e-10
 20.53191    -54.1 9.292e+03 1.209e-10
 20.57258    -52.1 9.282e+03 1.192e-10
 20.59706    -50.1 9.322e+03 1.231e-10
 20.61740    -49.5 9.299e+03 1.215e-10
 20.65393    -47.5 9.260e+03 1.287e-10
 20.69460    -45.5 9.230e+03 1.334e-10
 20.72820    -43.5 9.162e+03 1.331e-10
 20.74853    -43.1 9.153e+03 1.206e-10
 20.77595    -41.0 9.053e+03 1.152e-10
 20.81662    -39.0 8.968e+03 1.002e-10
 20.85730    -37.2 8.874e+03 8.490e-11
 20.87967    -35.4 8.767e+03 7.500e-11
 20.90001    -34.8 8.810e+03 9.809e-11
 20.93865    -32.9 8.720e+03 9.022e-11
 20.97932    -30.9 8.638e+03 8.274e-11
 21.01081    -28.8 8.593e+03 7.574e-11
 21.03115    -28.3 8.625e+03 9.001e-11
 21.06067    -26.3 8.593e+03 7.971e-11
 21.10134    -24.4 8.584e+03 7.146e-11
 21.14195    -22.7 8.587e+03 6.812e-11
 21.18262    -20.8 8.562e+03 7.340e-11
 21.22336    -18.7 8.533e+03 8.112e-11
 21.26403    -16.7 8.513e+03 8.163e-11
 21.29342    -14.9 8.609e+03 7.871e-11
 21.31376    -14.4 8.570e+03 6.581e-11
 21.33565    -13.3 8.600e+03 6.972e-11
 21.35599    -12.7 8.863e+03 7.166e-11
 21.38605    -11.7 8.645e+03 8.031e-11
 21.42456     -9.8 8.479e+03 9.036e-11
 21.44490     -9.3 8.464e+03 8.203e-11
 21.46740     -7.4 8.553e+03 8.350e-11
 21.50807     -5.9 8.603e+03 8.507e-11
 21.54875     -4.2 8.558e+03 8.576e-11
 21.57603     -2.2 8.473e+03 7.820e-11
 21.59637     -1.8 8.618e+03 9.753e-11
 21.63009     -0.2 8.682e+03 8.578e-11
 21.67077      0.9 8.782e+03 8.300e-11
 21.70717      1.3 8.887e+03 9.400e-11
 21.72751      1.2 9.086e+03 1.560e-10
 21.75211      1.9 9.179e+03 2.224e-10
 21.79279      3.3 9.296e+03 3.053e-10
 21.83346      5.2 9.318e+03 3.271e-10
 21.85864      7.1 9.241e+03 2.987e-10
 21.87898      7.6 9.091e+03 2.245e-10
 21.91481      8.4 9.015e+03 1.578e-10
 21.95548      8.9 8.890e+03 1.370e-10
 21.98978      9.7 8.809e+03 1.471e-10
 22.01012      9.7 8.657e+03 1.211e-10
 22.03683     11.2 8.678e+03 1.473e-10
 22.07750     13.0 8.720e+03 1.536e-10
 22.11817     14.9 8.710e+03 1.457e-10
 22.14126     16.5 8.682e+03 1.200e-10
 22.16159     15.9 8.851e+03 1.357e-10
 22.19952     16.9 8.911e+03 1.417e-10
 22.24019     17.9 8.974e+03 1.583e-10
 22.27239     19.3 9.038e+03 1.893e-10
 22.29273     19.4 9.343e+03 2.860e-10
 22.32154     21.1 9.414e+03 3.014e-10
 22.36221     23.1 9.390e+03 2.859e-10
 22.40289     25.1 9.303e+03 2.485e-10
 22.42387     27.0 9.191e+03 2.061e-10
 22.44421     27.3 9.182e+03 1.962e-10
 22.48423     29.1 9.075e+03 1.558e-10
 22.52491     31.1 9.033e+03 1.437e-10
 22.55501     33.2 9.036e+03 1.444e-10
 22.57534     33.7 8.973e+03 1.311e-10
 22.60625     36.0 9.035e+03 1.416e-10
 22.64693     38.3 9.143e+03 1.637e-10
 22.68614     40.6 9.302e+03 1.955e-10
 22.70648     41.3 9.285e+03 1.949e-10
 22.72827     43.7 9.478e+03 2.343e-10
 22.76895     45.7 9.699e+03 2.814e-10
 22.80962     47.8 9.950e+03 3.424e-10
 22.83762     49.8 1.027e+04 4.377e-10
 22.85796     50.7 1.017e+04 4.122e-10
 22.89097     52.5 1.048e+04 5.156e-10
 22.93164     54.2 1.082e+04 6.469e-10
 22.96876     55.7 1.115e+04 7.807e-10
 22.98909     56.4 1.102e+04 7.302e-10
 23.01299     57.8 1.132e+04 8.700e-10
 23.05366     59.1 1.164e+04 1.055e-09
 23.09434     60.5 1.201e+04 1.297e-09
 23.12023     62.1 1.229e+04 1.500e-09
 23.14057     63.1 1.251e+04 1.669e-09
 23.17568     64.7 1.264e+04 1.742e-09
 23.21636     66.3 1.258e+04 1.672e-09
 23.25137     68.1 1.231e+04 1.420e-09
 23.27171     69.1 1.240e+04 1.463e-09
 23.29770     71.1 1.198e+04 1.159e-09
 23.33838     73.2 1.144e+04 7.919e-10
 23.37905     75.3 1.096e+04 4.578e-10
 23.40284     77.3 1.067e+04 2.388e-10
 23.42318     78.6 1.084e+04 3.086e-10
 23.46040     80.5 1.069e+04 1.593e-10
 23.50107     82.3 1.044e+04 9.877e-11
 23.53398     84.1 1.003e+04 8.869e-11
 23.55432     85.4 1.021e+04 9.532e-11
 23.58242     87.4 1.003e+04 8.921e-11
 23.62309     89.7 1.003e+04 8.621e-11
 23.66376     92.1 1.008e+04 8.455e-11
 23.68546     94.4 1.010e+04 8.447e-11
 23.70579     95.2 1.020e+04 1.045e-10
 23.74511     97.5 1.033e+04 1.004e-10
 23.78578     99.7 1.035e+04 1.003e-10
 23.81659    101.8 1.034e+04 1.040e-10
 23.83693    102.7 1.054e+04 1.701e-10
 23.86713    104.8 1.067e+04 1.717e-10
 23.90780    106.8 1.063e+04 1.751e-10
 23.94773    108.8 1.060e+04 1.735e-10
 23.96807    109.5 1.101e+04 2.428e-10
 23.98915    111.5 1.090e+04 1.896e-10
 24.02982    113.6 1.072e+04 1.416e-10
 24.07050    115.7 1.056e+04 1.016e-10
 24.09920    117.7 1.048e+04 7.308e-11
 24.11954    118.2 1.085e+04 6.532e-11
 24.15184    119.9 1.048e+04 5.018e-11
 24.19252    121.9 1.019e+04 4.869e-11
 24.23034    124.3 1.017e+04 4.875e-11
 24.25068    125.0 1.025e+04 5.321e-11
 24.27386    127.6 1.021e+04 5.325e-11
 24.31454    130.3 1.020e+04 5.364e-11
 24.35521    133.0 1.021e+04 5.479e-11
 24.38182    135.7 1.022e+04 5.618e-11
 24.40215    136.4 1.027e+04 6.176e-11
 24.43656    139.2 1.024e+04 6.269e-11
 24.47723    141.9 1.020e+04 6.409e-11
 24.51295    144.5 1.016e+04 6.638e-11
 24.53329    145.4 1.030e+04 7.675e-11
 24.55858    148.0 1.020e+04 8.382e-11
 24.59925    150.6 1.010e+04 9.608e-11
 24.63992    153.3 1.006e+04 1.157e-10
 24.66443    155.9 1.015e+04 1.470e-10
 24.68477    157.0 1.036e+04 1.887e-10
 24.72127    159.7 1.068e+04 2.459e-10
 24.76194    161.9 1.100e+04 3.185e-10
 24.79235    162.6 1.111e+04 3.637e-10
 24.80554    163.3 1.120e+04 4.305e-10
 24.81571    164.0 1.131e+04 5.098e-10
 24.83293    165.1 1.158e+04 6.560e-10
 24.85326    166.0 1.191e+04 8.410e-10
 24.87111    166.8 1.226e+04 1.051e-09
 24.88128    167.2 1.248e+04 1.169e-09
 24.89394    167.5 1.279e+04 1.411e-09
 24.91427    167.7 1.308e+04 1.698e-09
 24.93461    167.8 1.332e+04 2.039e-09
 24.94685    167.9 1.347e+04 2.421e-09
 24.95701    168.3 1.403e+04 2.996e-09
 24.97528    168.5 1.431e+04 3.056e-09
 24.99562    168.5 1.432e+04 2.990e-09
 25.01241    168.3 1.435e+04 2.751e-09
 25.02258    168.6 1.501e+04 3.367e-09
 25.03629    168.2 1.466e+04 2.639e-09
 25.05663    167.6 1.403e+04 1.886e-09
 25.07697    166.9 1.316e+04 1.295e-09
 25.08815    166.1 1.215e+04 9.153e-10
 25.09832    166.5 1.220e+04 9.283e-10
 25.11764    166.0 1.139e+04 7.904e-10
 25.13798    166.1 1.133e+04 7.827e-10
 25.15372    166.6 1.134e+04 7.838e-10
 25.16389    167.4 1.155e+04 8.825e-10
 25.17865    167.8 1.169e+04 9.307e-10
 25.19899    168.1 1.195e+04 1.036e-09
 25.21929    168.2 1.224e+04 1.175e-09
 25.23963    168.7 1.314e+04 1.852e-09
 25.26000    168.8 1.333e+04 2.059e-09
 25.28034    168.9 1.343e+04 2.199e-09
 25.29503    168.9 1.342e+04 2.245e-09
 25.30520    169.2 1.420e+04 3.110e-09
 25.32101    169.3 1.406e+04 2.943e-09
 25.34135    169.5 1.392e+04 2.774e-09
 25.36060    170.0 1.393e+04 2.757e-09
 25.37076    169.3 1.498e+04 3.981e-09
 25.38202    168.9 1.532e+04 4.297e-09
 25.39722    168.4 1.568e+04 4.630e-09
 25.40345    168.1 1.595e+04 4.924e-09
 25.40854    167.9 1.600e+04 5.137e-09
 25.42264    168.3 1.663e+04 6.401e-09
 25.43633    168.3 1.752e+04 8.896e-09
 25.44137    168.2 1.783e+04 1.220e-08
 25.44802    168.5 1.819e+04 1.384e-08
 25.46332    169.0 1.868e+04 1.605e-08
 25.48370    168.7 1.925e+04 1.779e-08
 25.50190    167.1 1.995e+04 1.832e-08
 25.51207    166.6 1.903e+04 1.385e-08
 25.52438    162.3 1.999e+04 1.360e-08
 25.54471    156.9 2.021e+04 1.333e-08
 25.56505    151.8 1.996e+04 1.233e-08
 25.57764    148.7 1.860e+04 1.010e-08
 25.58781    147.0 1.724e+04 9.849e-09
 25.60572    146.9 1.631e+04 8.423e-09
 25.62606    147.1 1.535e+04 6.334e-09
 25.64321    147.7 1.431e+04 4.239e-09
 25.65338    148.3 1.416e+04 4.088e-09
 25.66673    148.3 1.317e+04 2.816e-09
 25.68707    148.0 1.239e+04 2.085e-09
 25.70741    147.8 1.191e+04 1.725e-09
 25.71895    147.9 1.176e+04 1.604e-09
 25.72911    148.4 1.173e+04 1.603e-09
 25.74808    149.0 1.166e+04 1.588e-09
 25.76842    149.9 1.169e+04 1.597e-09
 25.78451    150.7 1.186e+04 1.679e-09
 25.79468    151.5 1.174e+04 1.508e-09
 25.80909    152.0 1.199e+04 1.700e-09
 25.82943    152.5 1.242e+04 2.058e-09
 25.84942    152.8 1.300e+04 2.649e-09
 25.85959    153.6 1.278e+04 2.730e-09
 25.86025    153.9 1.346e+04 3.527e-09
 25.87042    154.9 1.314e+04 2.956e-09
 25.89044    155.5 1.395e+04 4.045e-09
 25.91077    156.4 1.488e+04 5.660e-09
 25.92582    157.2 1.567e+04 7.353e-09
 25.93599    157.7 1.504e+04 5.587e-09
 25.95145    158.0 1.535e+04 6.181e-09
 25.97178    158.1 1.533e+04 6.109e-09
 25.99139    158.3 1.509e+04 5.579e-09
 26.00156    159.0 1.455e+04 4.373e-09
 26.01246    159.3 1.418e+04 3.732e-09
 26.03279    159.7 1.352e+04 2.778e-09
 26.05706    159.7 1.229e+04 1.493e-09
 26.07749    160.7 1.221e+04 1.478e-09
 26.10417    161.0 1.131e+04 9.632e-10
 26.14484    161.1 1.040e+04 5.910e-10
 26.18551    161.4 9.715e+03 3.838e-10
 26.20863    161.9 9.293e+03 2.786e-10
 26.22896    163.3 9.627e+03 3.239e-10
 26.26686    163.8 9.179e+03 2.347e-10
 26.30753    164.7 8.883e+03 1.930e-10
 26.33977    166.0 8.826e+03 1.892e-10
 26.36010    166.5 8.856e+03 1.842e-10
 26.38888    168.0 8.857e+03 1.856e-10
 26.42955    169.6 8.884e+03 1.955e-10
 26.47023    171.1 9.019e+03 2.231e-10
 26.49124    172.5 9.309e+03 2.726e-10
 26.51158    172.6 9.392e+03 3.041e-10
 26.55157    174.1 9.991e+03 4.375e-10
 26.58198    174.7 1.032e+04 5.362e-10
 26.60222    175.2 1.058e+04 6.164e-10
 26.62218    175.7 1.082e+04 6.953e-10
 26.63235    175.9 1.106e+04 8.336e-10
 26.64289    176.3 1.129e+04 9.082e-10
 26.66323    176.4 1.147e+04 9.447e-10
 26.68357    176.4 1.150e+04 9.444e-10
 26.69792    176.4 1.150e+04 9.343e-10
 26.70809    176.5 1.174e+04 1.101e-09
 26.72424    176.5 1.170e+04 1.061e-09
 26.74458    176.5 1.160e+04 9.883e-10
 26.76349    176.5 1.144e+04 8.933e-10
 26.77366    176.7 1.170e+04 1.050e-09
 26.78525    176.7 1.150e+04 9.418e-10
 26.80559    176.6 1.130e+04 8.409e-10
 26.82592    176.5 1.112e+04 7.574e-10
 26.83923    176.2 1.098e+04 6.936e-10
 26.84939    176.6 1.126e+04 8.332e-10
 26.87686    176.0 1.123e+04 7.864e-10
 26.90499    175.3 1.116e+04 7.561e-10
 26.92533    176.0 1.174e+04 9.914e-10
 26.95831    175.3 1.155e+04 8.805e-10
 26.99898    174.2 1.115e+04 6.933e-10
 27.03613    173.0 1.060e+04 4.849e-10
 27.05646    174.1 1.094e+04 5.410e-10
 27.08033    172.6 1.012e+04 3.431e-10
 27.12100    170.7 9.584e+03 2.773e-10
 27.16168    168.4 9.585e+03 2.780e-10
 27.18760    165.7 9.694e+03 2.891e-10
 27.20794    167.2 9.814e+03 3.025e-10
 27.24302    164.1 9.923e+03 3.080e-10
 27.27343    162.0 1.008e+04 3.255e-10
 27.29367    159.9 1.023e+04 3.563e-10
 27.31401    156.9 1.047e+04 4.208e-10
 27.32871    153.0 1.096e+04 5.567e-10
 27.33888    153.2 1.077e+04 4.783e-10
 27.35468    147.5 1.190e+04 7.783e-10
 27.37502    141.4 1.336e+04 1.476e-09
 27.39428    136.4 1.456e+04 2.646e-09
 27.40445    134.8 1.472e+04 2.677e-09
 27.41569    130.7 1.549e+04 3.396e-09
 27.43603    126.6 1.558e+04 3.311e-09
 27.45636    122.6 1.553e+04 2.653e-09
 27.47002    117.6 1.492e+04 1.575e-09
 27.48019    114.0 1.472e+04 1.466e-09
 27.49704    107.8 1.279e+04 9.307e-10
 27.51737    104.5 1.141e+04 9.026e-10
 27.53559    104.0 1.133e+04 9.538e-10
 27.54576    101.9 1.166e+04 1.165e-09
 27.55805    102.5 1.202e+04 1.341e-09
 27.57838    103.9 1.226e+04 1.575e-09
 27.59872    105.3 1.343e+04 2.125e-09
 27.61128    105.8 1.400e+04 2.529e-09
 27.61631     99.2 2.833e+04 4.860e-09
 27.62404     97.1 3.329e+04 7.153e-09
 27.63421     94.1 3.962e+04 1.019e-08
 27.64401     89.8 3.990e+04 2.553e-08
 27.64910     89.4 2.921e+04 1.252e-07
 27.65198     89.4 2.759e+04 1.691e-07
 27.65704     89.3 2.637e+04 2.270e-07
 27.66212     88.7 2.473e+04 3.452e-07
 27.66544     87.4 2.301e+04 6.074e-07
 27.66798     89.4 2.299e+04 6.297e-07
 27.67229     89.1 2.134e+04 1.077e-06
 27.67738     89.3 2.008e+04 1.677e-06
 27.68183     90.2 1.922e+04 2.360e-06
 27.68437     93.5 2.009e+04 2.060e-06
 27.68755     94.3 1.944e+04 2.710e-06
 27.69263     95.2 1.910e+04 3.277e-06
 27.69771     95.4 1.886e+04 3.492e-06
 27.70077     95.1 1.882e+04 3.548e-06
 27.70331     95.9 2.009e+04 2.247e-06
 27.70788     93.2 2.067e+04 1.992e-06
 27.71297     86.4 2.260e+04 1.425e-06
 27.71716     78.9 2.513e+04 8.227e-07
 27.71972     82.2 2.949e+04 2.674e-07
 27.72573     72.6 4.038e+04 4.910e-08
 27.73589     65.7 5.649e+04 5.532e-09
 27.74606     59.7 6.007e+04 1.296e-09
 27.75253     55.8 4.339e+04 9.078e-10
 27.75762     48.9 1.353e+04 4.248e-10
 27.76640     49.1 1.141e+04 4.441e-10
 27.78170     51.4 9.855e+03 4.357e-10
 27.80209     53.7 9.899e+03 4.696e-10
 27.81820     55.9 1.006e+04 5.129e-10
 27.82837     57.1 9.456e+03 4.106e-10
 27.84276     59.0 9.501e+03 4.301e-10
 27.86310     61.0 9.572e+03 4.575e-10
 27.88343     62.8 9.747e+03 5.015e-10
 27.89394     64.6 1.004e+04 5.677e-10
 27.90410     65.6 9.361e+03 4.079e-10
 27.92411     67.4 9.464e+03 4.404e-10
 27.94444     69.3 9.627e+03 4.881e-10
 27.95951     71.1 9.861e+03 5.600e-10
 27.96967     71.6 9.472e+03 4.457e-10
 27.98512     73.3 9.646e+03 5.057e-10
 28.00545     74.9 9.870e+03 5.908e-10
 28.02507     76.7 1.012e+04 7.060e-10
 28.03524     77.2 9.788e+03 5.389e-10
 28.04613     78.9 1.001e+04 6.413e-10
 28.06646     80.6 1.027e+04 7.822e-10
 28.08680     82.1 1.068e+04 9.973e-10
 28.10081     83.4 1.155e+04 1.370e-09
 28.11025     84.1 1.035e+04 8.556e-10
 28.11658     83.3 1.130e+04 1.188e-09
 28.12747     84.5 1.228e+04 1.628e-09
 28.14781     85.6 1.329e+04 2.220e-09
 28.16638     86.5 1.419e+04 2.918e-09
 28.17655     87.0 1.202e+04 1.611e-09
 28.18848     87.9 1.275e+04 2.044e-09
 28.20882     88.8 1.329e+04 2.381e-09
 28.22916     89.6 1.347e+04 2.440e-09
 28.24212     90.4 1.339e+04 2.344e-09
 28.25229     91.2 1.270e+04 1.821e-09
 28.26983     91.8 1.267e+04 1.760e-09
 28.29017     92.2 1.245e+04 1.573e-09
 28.30769     92.7 1.214e+04 1.318e-09
 28.31795     93.7 1.210e+04 1.403e-09
 28.34120     95.0 1.155e+04 1.000e-09
 28.38188     96.2 1.064e+04 5.579e-10
 28.42255     97.3 9.544e+03 2.872e-10
 28.44919     98.5 8.729e+03 1.876e-10
 28.46952     99.8 8.837e+03 1.793e-10
 28.50390    101.3 8.360e+03 1.414e-10
 28.54457    103.5 8.300e+03 1.403e-10
 28.58033    106.0 8.296e+03 1.418e-10
 28.60066    106.7 8.165e+03 1.209e-10
 28.62592    109.2 8.167e+03 1.254e-10
 28.66659    111.6 8.256e+03 1.421e-10
 28.70726    113.7 8.514e+03 1.768e-10
 28.73180    115.6 8.878e+03 2.356e-10
 28.75214    116.4 8.904e+03 2.383e-10
 28.78861    118.3 9.506e+03 3.609e-10
 28.82928    120.1 1.016e+04 5.514e-10
 28.86294    121.5 1.082e+04 7.993e-10
 28.88327    122.6 1.166e+04 1.237e-09
 28.91063    123.5 1.213e+04 1.541e-09
 28.93858    123.8 1.206e+04 1.515e-09
 28.94865    124.1 1.240e+04 1.750e-09
 28.96128    124.4 1.255e+04 1.864e-09
 28.98161    124.3 1.259e+04 1.881e-09
 29.00195    124.2 1.265e+04 1.892e-09
 29.01422    123.9 1.266e+04 1.871e-09
 29.02438    124.1 1.284e+04 2.059e-09
 29.04262    123.5 1.276e+04 1.951e-09
 29.06296    122.8 1.267e+04 1.854e-09
 29.07979    122.2 1.257e+04 1.777e-09
 29.08995    122.0 1.258e+04 1.782e-09
 29.10363    121.3 1.247e+04 1.706e-09
 29.12397    120.7 1.244e+04 1.672e-09
 29.14545    119.7 1.232e+04 1.557e-09
 29.16579    118.5 1.242e+04 1.757e-09
 29.18498    118.2 1.239e+04 1.794e-09
 29.20532    118.0 1.236e+04 1.800e-09
 29.22109    117.9 1.232e+04 1.792e-09
 29.23126    117.0 1.258e+04 2.165e-09
 29.24599    117.2 1.254e+04 2.125e-09
 29.26633    117.4 1.249e+04 2.026e-09
 29.28666    117.6 1.242e+04 1.882e-09
 29.30700    117.3 1.251e+04 1.909e-09
 29.32734    117.6 1.234e+04 1.686e-09
 29.34768    117.7 1.221e+04 1.552e-09
 29.36240    118.0 1.200e+04 1.384e-09
 29.37257    117.4 1.217e+04 1.503e-09
 29.39861    118.0 1.204e+04 1.363e-09
 29.42806    118.2 1.165e+04 1.110e-09
 29.43813    117.1 1.197e+04 1.394e-09
 29.44936    117.2 1.174e+04 1.265e-09
 29.46970    117.4 1.146e+04 1.134e-09
 29.49003    117.5 1.116e+04 1.010e-09
 29.50370    117.8 1.088e+04 9.012e-10
 29.51387    117.1 1.098e+04 1.027e-09
 29.53071    117.4 1.064e+04 8.761e-10
 29.55104    117.6 1.037e+04 7.587e-10
 29.56927    117.8 1.009e+04 6.797e-10
 29.57944    117.2 9.905e+03 6.135e-10
 29.59172    117.3 9.682e+03 5.308e-10
 29.61205    117.2 9.530e+03 4.806e-10
 29.63239    117.3 9.436e+03 4.619e-10
 29.64501    117.6 9.404e+03 4.604e-10
 29.65518    116.5 9.013e+03 3.574e-10
 29.67306    116.9 9.015e+03 3.598e-10
 29.69340    117.3 9.009e+03 3.629e-10
 29.71058    117.7 9.015e+03 3.734e-10
 29.73101    117.2 8.673e+03 3.143e-10
 29.76477    118.0 8.722e+03 3.344e-10
 29.80545    118.9 8.732e+03 3.392e-10
 29.84191    119.9 8.704e+03 3.336e-10
 29.86225    119.2 8.527e+03 2.954e-10
 29.88679    120.2 8.450e+03 2.783e-10
 29.92747    121.2 8.393e+03 2.682e-10
 29.96814    122.3 8.406e+03 2.705e-10
 29.99339    123.6 8.557e+03 2.906e-10
 30.01372    123.3 8.796e+03 3.333e-10
 30.03922    123.7 8.902e+03 3.617e-10
 30.05876    124.1 9.066e+03 4.050e-10
 30.06893    123.9 9.261e+03 4.590e-10
 30.07980    124.5 9.562e+03 5.613e-10
 30.10013    125.2 9.854e+03 6.676e-10
 30.12047    125.8 1.014e+04 7.653e-10
 30.13450    126.0 1.040e+04 8.533e-10
 30.14466    125.5 1.066e+04 9.611e-10
 30.16114    125.4 1.089e+04 1.063e-09
 30.18148    125.1 1.108e+04 1.162e-09
 30.20007    124.9 1.126e+04 1.257e-09
 30.21023    124.8 1.147e+04 1.371e-09
 30.22215    124.5 1.160e+04 1.437e-09
 30.24249    124.1 1.171e+04 1.476e-09
 30.26283    123.8 1.171e+04 1.476e-09
 30.27580    123.0 1.170e+04 1.449e-09
 30.29624    123.0 1.177e+04 1.439e-09
 30.33420    121.0 1.141e+04 1.179e-09
 30.36349    119.6 1.110e+04 1.045e-09
 30.37356    118.8 1.075e+04 9.408e-10
 30.38485    118.1 1.063e+04 8.870e-10
 30.40518    117.4 1.057e+04 8.631e-10
 30.41711    116.9 1.057e+04 8.643e-10
 30.42728    117.0 1.057e+04 8.657e-10
 30.44586    116.7 1.061e+04 8.813e-10
 30.46619    116.5 1.075e+04 9.329e-10
 30.48268    116.3 1.098e+04 1.025e-09
 30.49285    116.6 1.097e+04 1.023e-09
 30.50687    116.7 1.126e+04 1.156e-09
 30.52720    116.8 1.160e+04 1.328e-09
 30.54754    117.0 1.198e+04 1.526e-09
 30.55841    117.1 1.234e+04 1.711e-09
 30.56858    117.4 1.208e+04 1.582e-09
 30.58821    117.5 1.233e+04 1.677e-09
 30.60855    117.4 1.244e+04 1.692e-09
 30.62398    117.3 1.242e+04 1.679e-09
 30.63415    117.9 1.213e+04 1.497e-09
 30.64922    118.1 1.204e+04 1.414e-09
 30.66956    118.3 1.192e+04 1.314e-09
 30.68965    118.2 1.170e+04 1.154e-09
 30.71008    119.4 1.145e+04 1.013e-09
 30.74093    120.0 1.105e+04 8.426e-10
 30.78161    120.6 1.058e+04 6.884e-10
 30.82089    121.4 1.018e+04 5.871e-10
 30.84122    122.8 1.016e+04 5.792e-10
 30.86295    123.6 1.003e+04 5.612e-10
 30.90363    124.7 9.946e+03 5.487e-10
 30.94430    125.8 9.827e+03 5.221e-10
 30.97236    127.0 9.651e+03 4.744e-10
 30.99270    128.3 9.980e+03 5.712e-10
 31.02565    129.5 9.733e+03 4.909e-10
 31.06632    130.7 9.352e+03 3.777e-10
 31.10350    131.8 8.846e+03 2.656e-10
 31.12383    133.1 9.205e+03 3.175e-10
 31.14767    134.0 8.652e+03 2.210e-10
 31.18834    134.8 8.461e+03 1.986e-10
 31.22902    135.6 8.491e+03 2.030e-10
 31.25497    136.5 8.673e+03 2.285e-10
 31.27531    136.8 9.121e+03 2.874e-10
 31.30010    136.9 9.133e+03 2.969e-10
 31.32033    137.0 9.151e+03 3.023e-10
 31.34067    136.6 9.547e+03 3.862e-10
 31.36101    136.2 9.938e+03 4.951e-10
 31.38135    135.7 1.049e+04 6.736e-10
 31.39608    134.8 1.122e+04 9.532e-10
 31.40625    133.7 1.192e+04 1.336e-09
 31.42202    132.6 1.267e+04 1.890e-09
 31.44236    132.1 1.331e+04 2.601e-09
 31.46165    131.9 1.381e+04 3.307e-09
 31.47182    131.3 1.401e+04 3.541e-09
 31.48303    130.8 1.401e+04 3.518e-09
 31.50337    130.1 1.385e+04 3.238e-09
 31.52370    129.3 1.345e+04 2.525e-09
 31.53739    127.8 1.285e+04 1.724e-09
 31.54756    125.8 1.232e+04 1.244e-09
 31.56438    122.6 1.151e+04 8.829e-10
 31.58471    119.5 1.073e+04 7.654e-10
 31.60296    117.7 1.040e+04 7.519e-10
 31.61313    116.4 1.037e+04 7.424e-10
 31.62539    116.0 1.036e+04 7.412e-10
 31.64572    115.7 1.036e+04 7.345e-10
 31.66606    115.4 1.037e+04 6.990e-10
 31.67869    115.1 1.029e+04 6.144e-10
 31.68886    113.4 1.033e+04 5.600e-10
 31.70673    113.0 1.010e+04 4.586e-10
 31.72707    112.8 9.857e+03 3.825e-10
 31.75767    112.5 9.564e+03 3.078e-10
 31.79844    113.4 9.272e+03 2.578e-10
 31.82020    114.8 9.237e+03 2.517e-10
 31.84053    113.6 9.220e+03 2.439e-10
 31.87979    115.4 9.222e+03 2.433e-10
 31.92046    117.5 9.281e+03 2.480e-10
 31.95087    118.5 9.266e+03 2.486e-10
 31.96131    119.3 9.263e+03 2.497e-10
 31.97148    119.1 9.196e+03 2.372e-10
 31.99145    120.3 9.273e+03 2.442e-10
 32.01178    121.3 9.368e+03 2.522e-10
 32.02688    122.3 9.450e+03 2.592e-10
 32.03704    122.2 9.412e+03 2.457e-10
 32.05246    123.0 9.465e+03 2.496e-10
 32.07279    123.8 9.529e+03 2.558e-10
 32.09244    124.4 9.649e+03 2.697e-10
 32.10261    124.6 9.677e+03 2.634e-10
 32.11347    124.7 9.896e+03 2.961e-10
 32.13380    124.4 1.023e+04 3.483e-10
 32.15414    123.8 1.066e+04 4.392e-10
 32.16818    122.8 1.141e+04 6.132e-10
 32.17835    121.6 1.327e+04 7.585e-10
 32.19481    120.6 1.440e+04 1.213e-09
 32.21515    120.0 1.506e+04 1.765e-09
 32.23375    119.4 1.529e+04 2.057e-09
 32.24392    118.6 1.644e+04 2.899e-09
 32.25582    118.3 1.618e+04 2.816e-09
 32.27616    118.2 1.544e+04 2.433e-09
 32.29650    118.2 1.450e+04 1.870e-09
 32.30949    118.0 1.350e+04 1.385e-09
 32.31966    117.4 1.386e+04 1.791e-09
 32.33717    117.4 1.293e+04 1.359e-09
 32.35751    117.6 1.216e+04 1.097e-09
 32.37506    118.2 1.163e+04 9.388e-10
 32.38523    118.0 1.205e+04 1.201e-09
 32.39818    119.0 1.164e+04 1.025e-09
 32.41852    120.1 1.124e+04 8.356e-10
 32.44912    122.1 1.116e+04 7.747e-10
 32.48989    124.9 1.051e+04 5.840e-10
 32.51656    128.0 1.007e+04 5.122e-10
 32.53689    128.5 1.088e+04 7.074e-10
 32.57124    132.4 1.086e+04 6.901e-10
 32.59220    134.2 1.065e+04 6.446e-10
 32.60227    134.2 1.077e+04 6.888e-10
 32.62038    135.7 1.080e+04 7.092e-10
 32.63054    135.7 1.075e+04 7.129e-10
 32.64222    137.3 1.075e+04 7.421e-10
 32.65767    138.9 1.079e+04 7.809e-10
 32.66784    139.0 1.140e+04 1.035e-09
 32.68289    140.6 1.149e+04 1.107e-09
 32.70323    142.1 1.157e+04 1.176e-09
 32.72324    143.7 1.162e+04 1.226e-09
 32.73341    144.0 1.252e+04 1.685e-09
 32.74390    145.5 1.256e+04 1.706e-09
 32.76424    146.9 1.256e+04 1.702e-09
 32.78458    148.3 1.252e+04 1.672e-09
 32.79897    149.8 1.244e+04 1.609e-09
 32.80914    150.1 1.328e+04 2.066e-09
 32.82525    151.5 1.314e+04 1.924e-09
 32.84559    152.8 1.295e+04 1.762e-09
 32.86454    154.2 1.272e+04 1.605e-09
 32.87471    154.4 1.321e+04 1.761e-09
 32.88626    155.9 1.292e+04 1.592e-09
 32.90660    157.3 1.265e+04 1.483e-09
 32.92693    158.5 1.241e+04 1.428e-09
 32.94028    159.8 1.229e+04 1.426e-09
 32.95045    159.7 1.235e+04 1.409e-09
 32.96761    161.2 1.236e+04 1.414e-09
 32.98794    162.8 1.244e+04 1.451e-09
 33.00585    164.1 1.260e+04 1.564e-09
 33.01602    164.0 1.234e+04 1.335e-09
 33.02862    165.3 1.248e+04 1.428e-09
 33.04895    166.8 1.270e+04 1.563e-09
 33.06929    168.3 1.298e+04 1.749e-09
 33.08159    169.7 1.332e+04 1.990e-09
 33.09176    169.9 1.242e+04 1.428e-09
 33.10996    171.3 1.267e+04 1.575e-09
 33.13030    172.8 1.297e+04 1.769e-09
 33.14716    174.3 1.332e+04 2.010e-09
 33.15732    174.7 1.231e+04 1.383e-09
 33.17097    176.2 1.261e+04 1.544e-09
 33.19131    177.7 1.289e+04 1.742e-09
 33.21165    179.2 1.327e+04 2.040e-09
 33.22289    180.6 1.391e+04 2.553e-09
 33.23306    181.5 1.266e+04 1.592e-09
 33.25232    183.0 1.326e+04 1.980e-09
 33.27266    184.4 1.403e+04 2.599e-09
 33.28846    185.7 1.472e+04 3.373e-09
 33.29863    186.9 1.351e+04 2.105e-09
 33.31333    188.3 1.426e+04 2.821e-09
 33.33367    189.7 1.490e+04 3.660e-09
 33.35400    191.0 1.532e+04 4.293e-09
 33.37434    193.9 1.509e+04 4.047e-09
 33.38955    194.4 1.545e+04 4.668e-09
 33.39689    195.1 1.587e+04 5.359e-09
 33.40197    195.8 1.538e+04 4.646e-09
 33.40983    196.6 1.568e+04 5.115e-09
 33.42000    197.2 1.614e+04 5.862e-09
 33.42967    198.0 1.671e+04 7.061e-09
 33.43475    198.6 1.592e+04 5.474e-09
 33.44034    199.4 1.650e+04 6.589e-09
 33.45051    200.1 1.706e+04 7.934e-09
 33.46067    200.9 1.754e+04 9.413e-09
 33.46754    201.6 1.796e+04 1.092e-08
 33.47262    202.4 1.723e+04 8.691e-09
 33.48101    203.3 1.762e+04 9.986e-09
 33.49118    204.1 1.799e+04 1.125e-08
 33.50032    204.9 1.839e+04 1.256e-08
 33.50541    205.8 1.771e+04 1.033e-08
 33.51152    206.5 1.810e+04 1.153e-08
 33.52169    207.2 1.854e+04 1.285e-08
 33.53185    207.8 1.907e+04 1.445e-08
 33.53819    208.2 1.968e+04 1.643e-08
 33.54328    209.2 1.876e+04 1.335e-08
 33.55219    209.6 1.935e+04 1.508e-08
 33.56236    210.1 2.004e+04 1.729e-08
 33.57098    210.6 2.085e+04 2.014e-08
 33.57606    211.6 1.977e+04 1.596e-08
 33.58270    212.0 2.045e+04 1.828e-08
 33.59286    212.3 2.123e+04 2.117e-08
 33.60303    212.6 2.208e+04 2.471e-08
 33.60884    212.7 2.289e+04 2.870e-08
 33.61393    214.1 2.153e+04 2.157e-08
 33.62337    214.2 2.240e+04 2.525e-08
 33.63354    214.4 2.326e+04 2.925e-08
 33.64163    214.6 2.416e+04 3.286e-08
 33.64671    215.9 2.320e+04 2.757e-08
 33.65387    216.0 2.417e+04 3.224e-08
 33.66404    215.8 2.517e+04 3.540e-08
 33.67421    215.5 2.575e+04 3.563e-08
 33.67950    215.2 2.585e+04 3.496e-08
 33.68458    217.1 2.559e+04 3.755e-08
 33.69455    216.7 2.575e+04 3.731e-08
 33.70472    216.0 2.599e+04 3.447e-08
 33.71228    214.7 2.634e+04 2.675e-08
 33.71737    217.4 2.595e+04 3.894e-08
 33.72505    216.2 2.610e+04 3.189e-08
 33.73522    214.6 2.623e+04 2.215e-08
 33.74507    212.6 2.644e+04 1.323e-08
 33.75015    215.6 2.611e+04 2.642e-08
 33.75385    212.9 2.665e+04 1.475e-08
 33.75894    212.0 2.554e+04 1.036e-08
 33.76573    210.6 2.575e+04 6.087e-09
 33.77790    207.6 2.688e+04 1.974e-09
 33.78807    209.4 2.656e+04 3.588e-09
 33.80136    209.1 2.901e+04 2.660e-09
 33.82175    204.8 2.676e+04 7.850e-10
 33.84209    201.5 1.424e+04 8.091e-10
 33.85369    201.4 1.157e+04 8.951e-10
 33.86385    203.5 2.464e+04 6.223e-10
 33.88276    203.1 1.335e+04 8.101e-10
 33.90310    203.8 1.169e+04 8.888e-10
 33.91925    204.6 1.162e+04 9.886e-10
 33.92942    205.9 1.500e+04 8.448e-10
 33.94377    207.0 1.209e+04 9.828e-10
 33.96411    208.0 1.189e+04 1.099e-09
 33.98444    209.3 1.219e+04 1.259e-09
 33.99499    210.6 1.259e+04 1.416e-09
 34.00516    211.5 1.236e+04 1.254e-09
 34.02512    212.8 1.251e+04 1.418e-09
 34.04545    214.1 1.302e+04 1.607e-09
 34.06056    215.3 1.357e+04 1.855e-09
 34.07073    216.5 1.315e+04 1.710e-09
 34.08613    217.7 1.383e+04 2.031e-09
 34.10646    218.9 1.452e+04 2.443e-09
 34.12613    220.1 1.522e+04 2.972e-09
 34.13630    221.8 1.508e+04 2.840e-09
 34.14714    223.1 1.600e+04 3.561e-09
 34.16747    224.2 1.685e+04 4.435e-09
 34.18781    224.9 1.753e+04 5.339e-09
 34.20187    225.4 1.807e+04 6.223e-09
 34.21204    227.7 1.855e+04 6.855e-09
 34.22848    228.0 1.928e+04 8.317e-09
 34.24882    227.8 1.993e+04 1.014e-08
 34.26744    226.5 2.072e+04 1.272e-08
 34.27756    227.7 2.142e+04 1.595e-08
 34.28431    226.8 2.166e+04 1.759e-08
 34.29448    225.8 2.197e+04 1.934e-08
 34.30465    224.8 2.237e+04 2.117e-08
 34.31029    223.6 2.285e+04 2.288e-08
 34.31538    225.0 2.297e+04 2.804e-08
 34.32498    223.5 2.346e+04 2.883e-08
 34.33515    221.6 2.353e+04 2.861e-08
 34.34308    219.7 2.352e+04 2.719e-08
 34.34816    220.6 2.383e+04 3.517e-08
 34.35549    218.8 2.367e+04 3.099e-08
 34.36566    217.3 2.336e+04 2.512e-08
 34.37583    215.7 2.297e+04 1.945e-08
 34.38599    215.3 2.288e+04 1.713e-08
 34.39616    214.0 2.258e+04 1.340e-08
 34.40869    211.8 2.134e+04 7.281e-09
 34.41891    213.7 2.270e+04 9.097e-09
 34.43185    210.2 2.152e+04 4.604e-09
 34.45219    206.2 1.869e+04 3.373e-09
 34.47252    202.8 1.776e+04 3.428e-09
 34.48448    200.1 1.765e+04 3.587e-09
 34.49465    202.5 1.937e+04 4.631e-09
 34.51320    198.9 1.942e+04 5.816e-09
 34.53353    194.5 1.942e+04 8.076e-09
 34.55005    190.6 1.919e+04 1.098e-08
 34.56022    190.3 2.092e+04 1.591e-08
 34.57421    186.6 2.061e+04 1.696e-08
 34.59454    183.7 2.023e+04 1.626e-08
 34.61488    181.3 1.943e+04 1.310e-08
 34.62579    178.5 1.877e+04 8.976e-09
 34.63595    178.2 2.016e+04 1.034e-08
 34.65555    174.2 1.911e+04 6.566e-09
 34.67589    169.8 1.783e+04 4.807e-09
 34.69135    166.3 1.666e+04 4.105e-09
 34.70152    165.8 1.772e+04 5.954e-09
 34.71656    163.3 1.719e+04 5.556e-09
 34.73690    161.0 1.672e+04 5.058e-09
 34.75692    158.5 1.618e+04 4.592e-09
 34.76709    158.2 1.705e+04 5.909e-09
 34.77757    155.1 1.633e+04 5.149e-09
 34.79791    152.1 1.588e+04 4.768e-09
 34.81825    149.4 1.566e+04 4.739e-09
 34.83266    147.3 1.557e+04 4.657e-09
 34.84283    144.7 1.513e+04 3.708e-09
 34.85892    142.9 1.478e+04 3.273e-09
 34.87736    141.6 1.424e+04 2.691e-09
 34.88753    140.9 1.336e+04 1.969e-09
 34.89823    139.8 1.272e+04 1.567e-09
 34.90840    137.2 1.202e+04 1.198e-09
 34.91993    136.2 1.144e+04 9.333e-10
 34.94027    135.2 1.102e+04 7.491e-10
 34.96060    134.1 1.076e+04 6.311e-10
 34.97397    133.1 1.071e+04 5.772e-10
 34.98413    130.1 1.054e+04 4.829e-10
 35.00128    129.3 1.054e+04 4.852e-10
 35.02161    128.6 1.057e+04 5.050e-10
 35.03953    127.8 1.072e+04 5.763e-10
 35.04970    125.1 1.078e+04 6.641e-10
 35.06229    124.5 1.118e+04 8.631e-10
 35.08262    124.1 1.175e+04 1.181e-09
 35.10296    123.8 1.240e+04 1.649e-09
 35.11527    123.9 1.312e+04 2.263e-09
 35.12544    122.5 1.335e+04 2.466e-09
 35.14363    122.2 1.370e+04 2.644e-09
 35.16397    121.7 1.368e+04 2.597e-09
 35.18084    121.3 1.346e+04 2.323e-09
 35.19101    119.5 1.277e+04 1.800e-09
 35.20464    119.1 1.209e+04 1.286e-09
 35.22498    118.5 1.132e+04 8.779e-10
 35.24532    117.6 1.062e+04 6.221e-10
 35.25658    117.1 1.014e+04 4.874e-10
 35.26675    115.6 9.827e+03 3.927e-10
 35.28599    115.5 9.623e+03 3.498e-10
 35.30633    116.0 9.489e+03 3.259e-10
 35.32215    116.7 9.430e+03 3.203e-10
 35.33232    115.2 9.588e+03 3.175e-10
 35.34700    115.3 1.011e+04 3.499e-10
 35.36734    115.1 1.085e+04 4.238e-10
 35.38767    114.8 1.160e+04 5.554e-10
 35.40801    111.1 1.320e+04 1.767e-09
 35.42835    111.6 1.355e+04 2.363e-09
 35.44868    112.2 1.395e+04 3.017e-09
 35.46345    112.9 1.437e+04 3.683e-09
 35.47362    111.7 1.542e+04 5.403e-09
 35.48936    112.4 1.589e+04 5.844e-09
 35.50970    113.0 1.622e+04 6.053e-09
 35.52902    113.5 1.634e+04 6.240e-09
 35.53919    111.0 1.664e+04 5.681e-09
 35.55037    111.3 1.644e+04 4.961e-09
 35.57071    111.6 1.604e+04 4.166e-09
 35.59104    111.9 1.553e+04 3.447e-09
 35.60476    112.3 1.501e+04 2.856e-09
 35.61493    109.5 1.391e+04 2.175e-09
 35.63172    110.2 1.367e+04 1.970e-09
 35.65205    111.0 1.377e+04 1.874e-09
 35.67033    111.7 1.393e+04 1.889e-09
 35.68050    110.2 1.376e+04 1.992e-09
 35.69273    109.9 1.430e+04 2.377e-09
 35.71306    109.5 1.499e+04 3.124e-09
 35.73340    109.1 1.590e+04 4.527e-09
 35.74607    108.7 1.698e+04 7.001e-09
 35.75623    108.8 1.693e+04 7.364e-09
 35.77407    109.2 1.808e+04 1.115e-08
 35.79441    109.5 1.884e+04 1.471e-08
 35.81163    109.4 1.897e+04 1.483e-08
 35.82180    109.2 1.750e+04 8.366e-09
 35.83508    108.9 1.713e+04 7.042e-09
 35.85542    108.7 1.628e+04 5.028e-09
 35.87576    108.3 1.509e+04 3.152e-09
 35.88737    107.3 1.364e+04 1.855e-09
 35.89754    106.0 1.181e+04 1.015e-09
 35.91643    105.0 1.096e+04 7.378e-10
 35.93677    104.9 1.083e+04 7.090e-10
 35.95294    105.2 1.085e+04 7.167e-10
 35.96311    105.5 1.033e+04 5.852e-10
 35.97744    105.8 1.039e+04 6.156e-10
 35.99778    106.0 1.064e+04 7.202e-10
 36.01811    106.1 1.110e+04 9.250e-10
 36.02868    106.1 1.169e+04 1.260e-09
 36.03885    106.7 1.134e+04 1.081e-09
 36.05879    106.9 1.193e+04 1.485e-09
 36.07912    107.0 1.263e+04 2.019e-09
 36.09425    106.8 1.345e+04 2.672e-09
 36.10441    107.8 1.303e+04 2.388e-09
 36.11980    107.6 1.375e+04 3.040e-09
 36.14013    107.1 1.447e+04 3.722e-09
 36.15982    106.4 1.507e+04 4.409e-09
 36.16998    107.7 1.459e+04 3.962e-09
 36.18081    107.0 1.502e+04 4.491e-09
 36.20114    106.3 1.512e+04 4.684e-09
 36.22148    105.6 1.506e+04 4.640e-09
 36.23555    105.0 1.473e+04 4.308e-09
 36.24572    105.9 1.472e+04 4.177e-09
 36.26215    105.4 1.420e+04 3.618e-09
 36.28249    105.1 1.343e+04 2.783e-09
 36.30112    104.8 1.263e+04 1.938e-09
 36.31129    105.4 1.268e+04 2.035e-09
 36.32316    105.1 1.193e+04 1.474e-09
 36.35377    105.5 1.093e+04 9.211e-10
 36.39454    105.6 9.568e+03 4.754e-10
 36.43245    106.0 8.619e+03 2.714e-10
 36.45279    106.8 8.943e+03 3.102e-10
 36.47588    107.7 8.268e+03 1.899e-10
 36.51656    109.0 7.991e+03 1.422e-10
 36.55723    110.9 7.911e+03 1.345e-10
 36.58393    112.9 7.905e+03 1.354e-10
 36.60427    113.4 7.988e+03 1.439e-10
 36.63858    115.5 8.007e+03 1.513e-10
 36.67925    117.6 8.073e+03 1.658e-10
 36.71507    119.5 8.157e+03 1.864e-10
 36.73540    120.0 8.345e+03 2.165e-10
 36.76060    121.7 8.433e+03 2.464e-10
 36.80127    123.5 8.517e+03 2.785e-10
 36.84194    125.2 8.617e+03 3.116e-10
 36.86654    127.0 8.715e+03 3.423e-10
 36.88688    127.2 8.602e+03 3.004e-10
 36.92329    128.8 8.514e+03 2.756e-10
 36.96396    130.4 8.417e+03 2.491e-10
 36.99768    132.0 8.390e+03 2.379e-10
 37.01802    131.5 8.115e+03 1.845e-10
 37.04531    133.0 8.142e+03 1.894e-10
 37.08598    134.5 8.276e+03 2.137e-10
 37.12666    135.9 8.566e+03 2.655e-10
 37.14915    137.0 8.856e+03 3.309e-10
 37.16949    136.6 8.819e+03 3.316e-10
 37.20800    138.0 9.116e+03 4.067e-10
 37.24868    139.2 9.302e+03 4.418e-10
 37.28029    140.3 9.297e+03 4.272e-10
 37.30063    139.2 9.008e+03 3.370e-10
 37.33002    139.8 8.837e+03 2.953e-10
 37.37070    140.4 8.815e+03 2.883e-10
 37.41137    141.1 8.881e+03 2.986e-10
 37.45205    141.7 8.892e+03 3.078e-10
 37.49272    142.1 9.044e+03 3.600e-10
 37.52313    142.6 9.195e+03 4.334e-10
 37.54336    143.5 9.455e+03 5.413e-10
 37.56271    144.4 9.793e+03 6.751e-10
 37.57288    144.9 9.748e+03 6.500e-10
 37.58404    145.8 1.007e+04 7.608e-10
 37.60438    146.6 1.036e+04 8.736e-10
 37.62471    147.3 1.064e+04 9.904e-10
 37.63844    148.0 1.089e+04 1.107e-09
 37.64861    148.2 1.070e+04 9.544e-10
 37.66539    148.8 1.088e+04 1.032e-09
 37.68572    149.4 1.101e+04 1.095e-09
 37.70401    149.9 1.110e+04 1.135e-09
 37.71418    149.8 1.084e+04 9.819e-10
 37.72640    150.4 1.089e+04 1.012e-09
 37.74673    150.9 1.092e+04 1.033e-09
 37.76707    151.4 1.095e+04 1.052e-09
 37.77975    151.9 1.100e+04 1.074e-09
 37.78992    151.9 1.088e+04 9.983e-10
 37.80774    152.4 1.094e+04 1.018e-09
 37.82808    152.9 1.099e+04 1.037e-09
 37.84532    153.4 1.105e+04 1.058e-09
 37.85549    153.6 1.091e+04 9.583e-10
 37.86875    154.2 1.094e+04 9.691e-10
 37.88909    154.8 1.097e+04 9.852e-10
 37.90943    155.5 1.102e+04 1.011e-09
 37.92106    156.2 1.108e+04 1.051e-09
 37.93122    156.6 1.088e+04 9.225e-10
 37.95010    157.4 1.096e+04 9.590e-10
 37.97044    158.2 1.106e+04 9.962e-10
 37.98663    159.0 1.118e+04 1.049e-09
 37.99679    159.0 1.093e+04 9.094e-10
 38.01111    159.8 1.106e+04 9.773e-10
 38.03145    160.7 1.118e+04 1.048e-09
 38.05178    161.6 1.130e+04 1.120e-09
 38.06236    162.6 1.140e+04 1.190e-09
 38.07253    162.8 1.106e+04 1.004e-09
 38.09246    163.7 1.116e+04 1.068e-09
 38.11279    164.6 1.124e+04 1.123e-09
 38.12793    165.4 1.131e+04 1.165e-09
 38.13810    165.6 1.103e+04 1.012e-09
 38.15347    166.5 1.113e+04 1.067e-09
 38.17380    167.3 1.123e+04 1.119e-09
 38.19350    168.1 1.131e+04 1.167e-09
 38.20367    168.3 1.112e+04 1.061e-09
 38.21448    169.1 1.122e+04 1.117e-09
 38.23481    169.9 1.138e+04 1.186e-09
 38.25917    170.8 1.136e+04 1.125e-09
 38.27960    171.3 1.099e+04 9.200e-10
 38.30619    172.5 1.120e+04 9.988e-10
 38.34686    173.2 1.125e+04 1.008e-09
 38.38753    173.8 1.119e+04 9.487e-10
 38.41074    174.4 1.098e+04 8.163e-10
 38.43108    174.5 1.076e+04 7.455e-10
 38.46888    175.2 1.062e+04 6.890e-10
 38.50955    176.2 1.045e+04 6.205e-10
 38.54188    177.2 1.032e+04 5.692e-10
 38.56221    177.4 1.022e+04 5.610e-10
 38.59090    178.5 1.023e+04 5.499e-10
 38.63157    179.2 1.020e+04 5.110e-10
 38.67225    179.7 1.007e+04 4.568e-10
 38.69335    180.1 9.889e+03 4.018e-10
 38.71369    180.5 9.956e+03 4.093e-10
 38.75359    180.6 9.803e+03 3.662e-10
 38.79427    180.5 9.739e+03 3.577e-10
 38.82439    180.3 9.725e+03 3.581e-10
 38.83446    180.1 9.826e+03 3.719e-10
 38.84491    180.1 9.839e+03 3.777e-10
 38.86525    180.0 9.929e+03 4.147e-10
 38.88559    179.5 1.018e+04 5.034e-10
 38.90003    178.6 1.069e+04 6.792e-10
 38.91020    178.6 1.081e+04 7.017e-10
 38.92626    177.5 1.158e+04 1.005e-09
 38.94660    176.2 1.252e+04 1.496e-09
 38.96560    174.6 1.340e+04 2.109e-09
 38.97577    174.3 1.327e+04 1.958e-09
 38.98727    172.3 1.366e+04 2.173e-09
 39.00761    169.7 1.365e+04 2.146e-09
 39.02794    167.3 1.343e+04 1.952e-09
 39.04134    165.1 1.287e+04 1.541e-09
 39.05150    165.1 1.242e+04 1.324e-09
 39.06862    163.4 1.170e+04 9.351e-10
 39.08895    161.7 1.102e+04 6.487e-10
 39.10691    160.1 1.053e+04 4.880e-10
 39.11707    160.3 1.046e+04 4.057e-10
 39.12963    158.8 1.016e+04 3.623e-10
 39.14996    157.9 1.010e+04 3.612e-10
 39.17030    157.4 1.009e+04 3.618e-10
 39.18264    157.1 1.009e+04 3.679e-10
 39.19281    156.9 1.004e+04 3.240e-10
 39.21097    156.6 1.003e+04 3.363e-10
 39.23131    156.4 1.010e+04 3.666e-10
 39.24821    156.2 1.026e+04 4.178e-10
 39.25838    156.4 1.016e+04 3.713e-10
 39.27198    156.3 1.033e+04 4.312e-10
 39.29232    156.2 1.053e+04 4.950e-10
 39.31266    156.1 1.076e+04 5.747e-10
 39.32395    156.0 1.099e+04 6.807e-10
 39.33412    156.3 1.073e+04 5.623e-10
 39.36360    156.2 1.121e+04 7.152e-10
 39.38971    156.1 1.144e+04 8.356e-10
 39.39720    157.4 1.061e+04 5.291e-10
 39.41186    157.2 1.064e+04 5.756e-10
 39.44504    157.4 1.060e+04 5.610e-10
 39.48572    157.7 1.051e+04 5.217e-10
 39.52085    158.3 1.037e+04 4.632e-10
 39.54119    159.4 9.912e+03 3.279e-10
 39.56706    160.1 9.848e+03 3.111e-10
 39.60774    160.8 9.845e+03 3.114e-10
 39.64841    161.5 9.862e+03 3.175e-10
 39.67232    161.9 9.902e+03 3.325e-10
 39.69266    163.6 9.818e+03 3.129e-10
 39.72976    163.9 9.890e+03 3.335e-10
 39.77043    163.8 9.958e+03 3.397e-10
 39.80346    163.4 9.955e+03 3.356e-10
 39.82380    164.9 9.948e+03 3.329e-10
 39.85178    164.2 9.891e+03 3.100e-10
 39.89245    163.5 9.693e+03 2.572e-10
 39.93312    162.7 9.392e+03 1.953e-10
 39.95494    161.8 9.054e+03 1.476e-10
 39.97527    162.5 9.095e+03 1.600e-10
 40.01447    161.5 8.849e+03 1.468e-10
 40.05514    160.8 8.848e+03 1.481e-10
 40.08607    160.2 8.896e+03 1.586e-10
 40.10641    160.7 8.896e+03 1.636e-10
 40.13649    160.2 9.053e+03 2.005e-10
 40.17716    159.9 9.358e+03 2.740e-10
 40.21721    159.8 9.681e+03 3.651e-10
 40.23755    160.3 9.403e+03 2.818e-10
 40.25851    160.0 9.638e+03 3.232e-10
 40.29918    159.6 9.708e+03 3.265e-10
 40.33986    159.1 9.709e+03 3.198e-10
 40.36869    158.6 9.711e+03 3.088e-10
 40.38902    158.7 9.654e+03 2.774e-10
 40.42120    158.0 9.731e+03 2.919e-10
 40.46188    157.2 9.815e+03 3.145e-10
 40.49228    156.5 1.005e+04 3.745e-10
 40.50980    156.0 1.052e+04 4.973e-10
 40.51997    155.8 1.080e+04 5.915e-10
 40.53286    155.1 1.148e+04 8.583e-10
 40.55320    154.5 1.219e+04 1.246e-09
 40.57353    154.0 1.279e+04 1.711e-09
 40.58553    153.6 1.321e+04 2.048e-09
 40.59570    153.5 1.324e+04 2.093e-09
 40.61421    152.8 1.325e+04 2.085e-09
 40.63454    152.1 1.319e+04 1.982e-09
 40.65110    151.3 1.302e+04 1.726e-09
 40.66127    151.0 1.280e+04 1.481e-09
 40.67522    149.7 1.255e+04 1.197e-09
 40.69555    148.2 1.222e+04 9.942e-10
 40.71589    146.8 1.185e+04 8.866e-10
 40.72684    145.5 1.150e+04 8.597e-10
 40.73701    145.2 1.118e+04 7.941e-10
 40.75656    144.6 1.112e+04 7.960e-10
 40.77690    144.1 1.109e+04 8.045e-10
 40.79241    143.6 1.101e+04 8.297e-10
 40.80258    143.9 1.074e+04 7.557e-10
 40.81757    143.5 1.074e+04 7.800e-10
 40.83791    142.9 1.083e+04 8.183e-10
 40.85798    141.8 1.111e+04 8.966e-10
 40.86815    141.6 1.117e+04 8.345e-10
 40.87858    139.6 1.190e+04 1.063e-09
 40.89892    137.3 1.274e+04 1.453e-09
 40.91926    135.1 1.338e+04 1.912e-09
 40.93372    133.0 1.355e+04 2.062e-09
 40.94388    132.2 1.385e+04 2.407e-09
 40.95993    130.3 1.376e+04 2.329e-09
 40.98027    128.4 1.341e+04 1.945e-09
 40.99928    126.0 1.288e+04 1.326e-09
 41.00945    125.7 1.308e+04 1.322e-09
 41.02094    121.7 1.228e+04 7.701e-10
 41.04128    116.7 1.108e+04 5.879e-10
 41.06161    112.6 1.063e+04 5.885e-10
 41.07502    110.2 1.056e+04 6.049e-10
 41.08519    109.5 1.048e+04 5.868e-10
 41.10229    108.4 1.054e+04 6.490e-10
 41.12262    107.6 1.077e+04 6.955e-10
 41.14059    106.9 1.088e+04 6.938e-10
 41.15076    106.4 1.120e+04 7.225e-10
 41.16330    105.7 1.125e+04 6.750e-10
 41.18363    104.8 1.119e+04 5.784e-10
 41.20397    103.6 1.127e+04 5.014e-10
 41.21633    102.1 1.143e+04 5.054e-10
 41.22650    102.1 1.198e+04 5.907e-10
 41.24464    100.0 1.246e+04 6.547e-10
 41.26498     97.6 1.328e+04 8.961e-10
 41.28190     95.4 1.425e+04 1.341e-09
 41.29207     95.7 1.440e+04 1.495e-09
 41.30565     94.1 1.506e+04 2.327e-09
 41.32599     93.2 1.571e+04 3.572e-09
 41.34119     92.3 1.621e+04 4.465e-09
 41.35131     91.8 1.643e+04 5.102e-09
 41.35754     91.2 1.679e+04 5.760e-09
 41.36262     91.1 1.697e+04 5.806e-09
 41.37165     90.7 1.710e+04 6.085e-09
 41.38182     90.0 1.767e+04 6.093e-09
 41.39032     89.6 1.772e+04 6.002e-09
 41.39540     89.6 1.766e+04 5.726e-09
 41.40216     88.4 1.823e+04 5.442e-09
 41.41232     87.6 1.850e+04 5.048e-09
 41.42249     85.8 1.909e+04 4.562e-09
 41.42819     84.6 1.917e+04 4.109e-09
 41.43327     83.9 1.925e+04 3.895e-09
 41.44283     81.2 1.942e+04 3.585e-09
 41.45300     79.5 1.876e+04 3.304e-09
 41.46097     76.7 1.824e+04 3.228e-09
 41.46606     76.0 1.786e+04 3.166e-09
 41.47333     74.4 1.700e+04 3.112e-09
 41.48350     72.4 1.686e+04 3.212e-09
 41.49367     71.5 1.655e+04 3.199e-09
 41.49884     70.0 1.683e+04 3.302e-09
 41.50393     68.8 1.727e+04 3.499e-09
 41.51401     68.3 1.718e+04 3.498e-09
 41.52418     66.2 1.904e+04 3.677e-09
 41.53163     65.3 1.921e+04 3.652e-09
 41.53671     64.8 1.946e+04 3.706e-09
 41.54451     63.0 2.073e+04 3.941e-09
 41.55468     61.1 2.191e+04 4.332e-09
 41.56441     58.5 2.295e+04 5.102e-09
 41.56950     57.4 2.299e+04 5.635e-09
 41.57502     55.2 2.207e+04 6.285e-09
 41.58519     53.1 2.155e+04 6.746e-09
 41.59535     51.4 2.109e+04 6.904e-09
 41.60228     50.0 2.051e+04 7.097e-09
 41.60736     49.3 2.027e+04 7.049e-09
 41.61569     48.9 1.951e+04 7.106e-09
 41.62586     48.5 1.925e+04 7.265e-09
 41.63506     48.3 1.896e+04 7.448e-09
 41.64015     47.9 1.879e+04 7.434e-09
 41.64620     47.5 1.840e+04 7.202e-09
 41.65330     47.4 1.822e+04 7.091e-09
 41.65843     44.8 1.753e+04 5.143e-09
 41.67172     43.0 1.755e+04 3.696e-09
 41.69205     40.1 1.740e+04 2.394e-09
 41.70581     36.2 1.675e+04 1.601e-09
 41.71598     34.3 1.597e+04 1.412e-09
 41.73273     29.6 1.392e+04 1.182e-09
 41.75306     26.1 1.279e+04 1.113e-09
 41.77138     24.1 1.235e+04 1.052e-09
 41.78155     24.0 1.239e+04 1.079e-09
 41.79374     22.5 1.220e+04 9.672e-10
 41.81407     19.8 1.250e+04 9.368e-10
 41.83441     14.9 1.310e+04 1.021e-09
 41.84712     10.0 1.330e+04 1.189e-09
 41.85729      9.4 1.307e+04 1.117e-09
 41.87508      5.3 1.316e+04 1.225e-09
 41.89542      1.7 1.308e+04 1.191e-09
 41.91269     -1.9 1.274e+04 9.792e-10
 41.92286     -2.4 1.279e+04 9.880e-10
 41.93609     -7.2 1.235e+04 7.509e-10
 41.95643    -14.1 1.253e+04 6.189e-10
 41.97677    -21.2 1.241e+04 6.701e-10
 41.98843    -26.1 1.201e+04 8.031e-10
 41.99860    -25.8 1.187e+04 7.536e-10
 42.01744    -28.7 1.182e+04 8.460e-10
 42.03778    -31.2 1.217e+04 9.073e-10
 42.05400    -35.5 1.285e+04 9.523e-10
 42.06416    -35.9 1.266e+04 8.744e-10
 42.07845    -44.0 1.372e+04 9.047e-10
 42.09879    -54.4 1.437e+04 1.205e-09
 42.11912    -62.2 1.501e+04 1.937e-09
 42.12973    -67.9 1.550e+04 2.399e-09
 42.13990    -68.6 1.537e+04 2.328e-09
 42.15980    -74.5 1.507e+04 2.209e-09
 42.18013    -80.3 1.369e+04 1.369e-09
 42.19530    -85.9 1.216e+04 7.534e-10
 42.20547    -86.8 1.216e+04 7.457e-10
 42.22081    -91.4 1.140e+04 4.891e-10
 42.24114    -94.9 1.105e+04 3.757e-10
 42.26087    -97.4 1.085e+04 3.396e-10
 42.27104    -98.1 1.089e+04 3.582e-10
 42.29208   -100.0 1.074e+04 3.343e-10
 42.32663   -101.7 1.052e+04 3.337e-10
 42.34697   -102.8 1.083e+04 4.302e-10
 42.37353   -103.5 1.045e+04 3.784e-10
 42.41420   -102.8 1.017e+04 3.268e-10
 42.45487   -101.9 1.001e+04 2.998e-10
 42.47811   -100.9 9.938e+03 2.917e-10
 42.49845   -101.9 1.002e+04 3.128e-10
 42.53622   -100.7 1.006e+04 3.259e-10
 42.57689    -99.1 1.014e+04 3.555e-10
 42.60925    -97.3 1.021e+04 3.839e-10
 42.62958    -97.6 1.020e+04 4.067e-10
 42.65824    -95.9 1.022e+04 4.206e-10
 42.69891    -94.8 1.011e+04 4.017e-10
 42.73959    -92.9 9.820e+03 3.350e-10
 42.76072    -90.6 9.590e+03 2.802e-10
 42.78106    -90.7 9.569e+03 2.759e-10
 42.82093    -88.8 9.516e+03 2.557e-10
 42.86161    -86.7 9.509e+03 2.531e-10
 42.89186    -84.4 9.529e+03 2.570e-10
 42.91220    -84.4 9.640e+03 2.824e-10
 42.94295    -81.8 9.658e+03 2.866e-10
 42.98363    -79.2 9.663e+03 2.841e-10
 43.02300    -76.7 9.690e+03 2.825e-10
 43.04333    -76.8 9.893e+03 3.178e-10
 43.06497    -74.7 1.001e+04 3.309e-10
 43.10565    -72.9 1.021e+04 3.825e-10
 43.14632    -71.1 1.046e+04 4.694e-10
 43.17447    -69.2 1.078e+04 5.950e-10
 43.19481    -69.4 1.078e+04 6.032e-10
 43.21740    -68.2 1.102e+04 6.940e-10
 43.23764    -67.4 1.109e+04 7.270e-10
 43.25001    -66.6 1.115e+04 7.669e-10
 43.26018    -66.4 1.094e+04 6.785e-10
 43.27831    -65.4 1.085e+04 6.510e-10
 43.29865    -64.4 1.087e+04 6.237e-10
 43.31558    -63.7 1.088e+04 5.960e-10
 43.32575    -63.2 1.059e+04 4.812e-10
 43.33932    -62.8 1.076e+04 4.858e-10
 43.35966    -62.7 1.110e+04 5.213e-10
 43.38000    -62.9 1.153e+04 6.220e-10
 43.39132    -63.4 1.204e+04 8.142e-10
 43.40149    -62.6 1.162e+04 6.688e-10
 43.42067    -63.0 1.208e+04 9.147e-10
 43.44101    -63.0 1.248e+04 1.224e-09
 43.45689    -62.7 1.283e+04 1.527e-09
 43.46706    -61.9 1.242e+04 1.269e-09
 43.48168    -61.5 1.269e+04 1.484e-09
 43.50202    -61.2 1.283e+04 1.551e-09
 43.52235    -61.0 1.276e+04 1.427e-09
 43.53263    -61.2 1.253e+04 1.119e-09
 43.54279    -60.1 1.256e+04 1.214e-09
 43.56303    -60.5 1.228e+04 9.462e-10
 43.58336    -61.2 1.177e+04 7.278e-10
 43.59819    -62.2 1.154e+04 6.466e-10
 43.60836    -60.7 1.167e+04 7.244e-10
 43.62404    -63.2 1.242e+04 7.152e-10
 43.64437    -72.6 1.959e+04 1.323e-09
 43.66376    -81.7 2.043e+04 7.106e-09
 43.67393    -81.7 2.187e+04 6.701e-09
 43.67992    -85.4 2.030e+04 1.973e-08
 43.69003    -87.1 2.118e+04 3.778e-08
 43.70020    -88.7 2.258e+04 6.236e-08
 43.70662    -91.4 2.442e+04 7.760e-08
 43.71170    -92.1 2.457e+04 1.002e-07
 43.72054    -97.5 2.562e+04 9.910e-08
 43.73071   -106.6 2.770e+04 4.212e-08
 43.73940   -119.2 2.345e+04 8.861e-09
 43.74449   -121.8 2.266e+04 8.462e-09
 43.75104   -129.2 1.636e+04 4.268e-09
 43.76121   -130.7 1.497e+04 3.506e-09
 43.77138   -131.3 1.464e+04 3.171e-09
 43.78668   -132.1 1.421e+04 2.681e-09
 43.80507   -132.7 1.290e+04 1.748e-09
 43.81524   -134.3 1.281e+04 1.736e-09
 43.82741   -134.3 1.190e+04 1.252e-09
 43.84774   -133.7 1.163e+04 1.052e-09
 43.86808   -132.9 1.148e+04 9.444e-10
 43.88081   -132.1 1.140e+04 8.916e-10
 43.89097   -133.2 1.165e+04 1.024e-09
 43.90529   -132.4 1.164e+04 1.020e-09
 43.91546   -132.4 1.154e+04 9.944e-10
 43.92909   -131.6 1.156e+04 1.021e-09
 43.94638   -130.8 1.176e+04 1.158e-09
 43.95654   -131.3 1.188e+04 1.279e-09
 43.96976   -130.3 1.212e+04 1.475e-09
 43.99010   -129.0 1.236e+04 1.687e-09
 44.01044   -127.7 1.260e+04 1.903e-09
 44.02211   -126.3 1.279e+04 2.088e-09
 44.03228   -126.4 1.254e+04 1.935e-09
 44.05111   -125.1 1.255e+04 1.955e-09
 44.07145   -123.9 1.251e+04 1.935e-09
 44.08768   -122.6 1.227e+04 1.727e-09
 44.09785   -122.6 1.172e+04 1.309e-09
 44.11212   -121.4 1.150e+04 1.176e-09
 44.13246   -120.3 1.128e+04 1.058e-09
 44.15279   -119.2 1.105e+04 9.491e-10
 44.16342   -117.9 1.085e+04 8.489e-10
 44.17359   -117.8 1.048e+04 6.868e-10
 44.19347   -116.4 1.039e+04 6.569e-10
 44.21380   -115.1 1.038e+04 6.347e-10
 44.22899   -113.9 1.043e+04 6.124e-10
 44.23916   -113.7 1.015e+04 5.284e-10
 44.25448   -112.6 1.025e+04 5.495e-10
 44.28449   -111.4 1.039e+04 5.693e-10
 44.30482   -109.7 1.025e+04 5.356e-10
 44.31549   -108.4 1.040e+04 5.727e-10
 44.33582   -107.3 1.046e+04 5.855e-10
 44.36643   -106.4 1.051e+04 5.969e-10
 44.40720   -104.6 1.062e+04 6.692e-10
 44.43606   -102.9 1.100e+04 7.913e-10
 44.45639   -102.0 1.117e+04 8.636e-10
 44.48854   -100.5 1.168e+04 1.044e-09
 44.52922    -99.5 1.208e+04 1.193e-09
 44.55962    -98.4 1.217e+04 1.215e-09
 44.57717    -98.3 1.221e+04 1.227e-09
 44.58734    -97.9 1.269e+04 1.541e-09
 44.60020    -98.0 1.302e+04 1.766e-09
 44.62054    -98.4 1.330e+04 2.063e-09
 44.64087    -98.5 1.349e+04 2.384e-09
 44.65291    -98.4 1.359e+04 2.660e-09
 44.66307    -97.8 1.409e+04 3.236e-09
 44.68155    -97.6 1.409e+04 3.360e-09
 44.70188    -97.2 1.402e+04 3.374e-09
 44.71847    -96.7 1.371e+04 3.130e-09
 44.72864    -96.3 1.386e+04 3.271e-09
 44.74256    -95.8 1.340e+04 2.750e-09
 44.76289    -95.2 1.291e+04 2.204e-09
 44.78323    -94.9 1.242e+04 1.733e-09
 44.79421    -94.4 1.194e+04 1.360e-09
 44.80438    -93.9 1.205e+04 1.436e-09
 44.82390    -93.3 1.167e+04 1.158e-09
 44.84424    -92.6 1.128e+04 9.268e-10
 44.85978    -91.8 1.092e+04 7.361e-10
 44.86995    -91.1 1.100e+04 7.635e-10
 44.88491    -90.2 1.063e+04 5.856e-10
 44.90525    -89.2 1.034e+04 4.504e-10
 44.93585    -88.3 1.017e+04 3.649e-10
 44.97662    -87.2 9.926e+03 2.985e-10
 45.00128    -85.5 9.607e+03 2.467e-10
 45.02162    -84.2 9.593e+03 2.364e-10
 45.05797    -82.4 9.367e+03 2.059e-10
 45.09864    -80.4 9.273e+03 1.922e-10
 45.13242    -78.4 9.241e+03 1.869e-10
 45.15276    -77.0 9.209e+03 1.794e-10
 45.17999    -74.9 9.187e+03 1.753e-10
 45.22066    -72.6 9.160e+03 1.676e-10
 45.26134    -70.3 9.122e+03 1.558e-10
 45.28389    -68.0 9.075e+03 1.427e-10
 45.30423    -66.6 9.068e+03 1.401e-10
 45.34268    -64.2 9.014e+03 1.277e-10
 45.38336    -61.8 8.951e+03 1.166e-10
 45.41503    -59.2 8.881e+03 1.062e-10
 45.43537    -58.0 8.931e+03 1.068e-10
 45.46470    -55.5 8.833e+03 9.649e-11
 45.50538    -52.9 8.756e+03 8.759e-11
 45.54605    -50.2 8.692e+03 8.182e-11
 45.58672    -46.6 8.672e+03 7.910e-11
 45.62740    -43.9 8.633e+03 7.977e-11
 45.66807    -41.1 8.671e+03 8.630e-11
 45.69764    -38.3 8.750e+03 9.983e-11
 45.71798    -37.5 8.774e+03 9.728e-11
 45.74942    -34.9 8.907e+03 1.217e-10
 45.79009    -32.3 9.149e+03 1.665e-10
 45.82050    -30.1 9.542e+03 2.374e-10
 45.83875    -30.0 9.574e+03 2.446e-10
 45.84892    -29.9 9.763e+03 2.859e-10
 45.86108    -29.7 1.028e+04 4.359e-10
 45.88141    -29.8 1.073e+04 6.673e-10
 45.90175    -29.5 1.159e+04 1.126e-09
 45.91449    -29.1 1.254e+04 1.814e-09
 45.92466    -27.8 1.227e+04 1.643e-09
 45.94242    -26.7 1.299e+04 2.303e-09
 45.96276    -25.3 1.350e+04 2.889e-09
 45.98006    -24.1 1.390e+04 3.262e-09
 45.99023    -23.7 1.357e+04 2.829e-09
 46.00343    -23.1 1.388e+04 3.068e-09
 46.02377    -22.8 1.417e+04 3.145e-09
 46.04411    -22.6 1.415e+04 3.175e-09
 46.05580    -22.1 1.405e+04 3.047e-09
 46.06597    -21.3 1.418e+04 3.471e-09
 46.08478    -20.3 1.433e+04 3.415e-09
 46.10512    -19.3 1.439e+04 3.048e-09
 46.12137    -18.4 1.403e+04 2.392e-09
 46.13153    -17.0 1.477e+04 3.209e-09
 46.14579    -16.3 1.422e+04 2.344e-09
 46.16228    -16.0 1.323e+04 1.588e-09
 46.17245    -14.9 1.347e+04 1.724e-09
 46.18646    -14.3 1.272e+04 1.365e-09
 46.19710    -13.8 1.228e+04 1.063e-09
 46.20727    -12.2 1.262e+04 1.190e-09
 46.23740    -13.1 1.170e+04 7.054e-10
 46.26287    -12.3 1.096e+04 5.054e-10
 46.28320     -9.6 1.218e+04 6.356e-10
 46.31885     -8.8 1.184e+04 6.333e-10
 46.35952     -8.3 1.174e+04 9.015e-10
 46.38993     -6.5 1.180e+04 1.054e-09
 46.40398     -5.8 1.192e+04 1.110e-09
 46.41415     -5.6 1.197e+04 1.126e-09
 46.43050     -5.6 1.260e+04 1.288e-09
 46.45084     -5.9 1.290e+04 1.485e-09
 46.46955     -6.0 1.308e+04 1.721e-09
 46.47972     -6.2 1.462e+04 2.419e-09
 46.49151     -6.2 1.444e+04 2.715e-09
 46.51185     -6.5 1.446e+04 3.031e-09
 46.53219     -6.9 1.458e+04 3.375e-09
 46.54528     -7.3 1.468e+04 3.710e-09
 46.55545     -9.0 1.747e+04 4.818e-09
 46.57286     -9.8 1.820e+04 5.109e-09
 46.59320    -11.2 1.917e+04 4.987e-09
 46.61085    -15.3 2.011e+04 5.549e-09
 46.62097    -20.7 2.214e+04 8.332e-09
 46.62869    -23.3 2.150e+04 9.598e-09
 46.63886    -27.0 2.107e+04 1.137e-08
 46.64862    -29.6 2.095e+04 1.382e-08
 46.65371    -31.4 2.154e+04 1.655e-08
 46.65919    -33.8 2.197e+04 2.065e-08
 46.66936    -36.2 2.286e+04 2.559e-08
 46.67953    -39.0 2.433e+04 3.262e-08
 46.68649    -42.4 2.536e+04 3.899e-08
 46.69158    -44.9 2.610e+04 4.149e-08
 46.69987    -48.1 2.574e+04 4.906e-08
 46.71003    -50.6 2.517e+04 5.551e-08
 46.71928    -53.0 2.443e+04 5.838e-08
 46.72436    -54.7 2.363e+04 6.430e-08
 46.73037    -55.8 2.335e+04 6.194e-08
 46.74054    -56.8 2.350e+04 5.517e-08
 46.75071    -57.6 2.348e+04 4.671e-08
 46.75715    -58.2 2.342e+04 3.849e-08
 46.76223    -58.4 2.353e+04 3.811e-08
 46.77104    -59.1 2.369e+04 3.234e-08
 46.78121    -60.0 2.373e+04 2.848e-08
 46.78993    -60.8 2.364e+04 2.608e-08
 46.79501    -61.6 2.338e+04 2.456e-08
 46.80155    -62.5 2.307e+04 2.271e-08
 46.81172    -63.1 2.270e+04 2.141e-08
 46.82189    -63.8 2.233e+04 1.986e-08
 46.82780    -64.2 2.204e+04 1.904e-08
 46.83288    -64.6 2.155e+04 1.769e-08
 46.84222    -64.9 2.116e+04 1.585e-08
 46.85239    -64.9 2.082e+04 1.483e-08
 46.86058    -64.9 2.044e+04 1.325e-08
 46.86567    -65.1 1.983e+04 1.143e-08
 46.87786    -64.9 2.015e+04 1.227e-08
 46.89347    -65.0 1.949e+04 1.030e-08
 46.90363    -65.0 1.780e+04 5.270e-09
 46.91858    -65.5 1.709e+04 4.176e-09
 46.93892    -65.7 1.690e+04 3.904e-09
 46.95903    -65.6 1.693e+04 3.987e-09
 46.96920    -65.8 1.317e+04 1.234e-09
 46.97959    -65.1 1.361e+04 1.314e-09
 46.99993    -64.3 1.416e+04 1.501e-09
 47.02027    -63.8 1.434e+04 1.767e-09
 47.03477    -63.5 1.420e+04 2.094e-09
 47.04494    -64.1 1.158e+04 8.566e-10
 47.06094    -64.2 1.206e+04 1.187e-09
 47.08128    -63.9 1.275e+04 1.832e-09
 47.10034    -63.5 1.363e+04 2.783e-09
 47.11051    -64.3 1.327e+04 2.356e-09
 47.12195    -64.0 1.471e+04 3.942e-09
 47.14229    -63.5 1.607e+04 5.779e-09
 47.16262    -63.3 1.716e+04 6.926e-09
 47.17608    -64.2 1.752e+04 7.094e-09
 47.18625    -64.4 1.811e+04 8.794e-09
 47.20330    -65.2 1.748e+04 6.188e-09
 47.22363    -66.8 1.569e+04 3.028e-09
 47.24165    -70.1 1.319e+04 1.514e-09
 47.25181    -69.9 1.356e+04 1.591e-09
 47.26431    -72.5 1.170e+04 9.435e-10
 47.28464    -73.0 1.117e+04 7.818e-10
 47.30498    -73.0 1.088e+04 6.585e-10
 47.33558    -72.7 1.033e+04 5.152e-10
 47.37298    -72.1 9.857e+03 3.533e-10
 47.39332    -71.0 1.039e+04 5.012e-10
 47.41703    -69.9 1.014e+04 4.053e-10
 47.45770    -68.4 9.993e+03 3.581e-10
 47.49837    -66.6 9.871e+03 3.167e-10
 47.52445    -64.7 9.768e+03 2.819e-10
 47.54479    -63.1 1.009e+04 3.395e-10
 47.57972    -61.1 1.006e+04 3.025e-10
 47.62039    -59.1 1.024e+04 2.960e-10
 47.65559    -57.2 1.086e+04 3.414e-10
 47.67593    -55.8 1.105e+04 4.554e-10
 47.70174    -53.8 1.177e+04 6.448e-10
 47.73123    -52.7 1.237e+04 8.090e-10
 47.74130    -52.0 1.241e+04 9.494e-10
 47.75239    -51.1 1.258e+04 9.961e-10
 47.77272    -50.0 1.283e+04 1.093e-09
 47.79306    -48.6 1.314e+04 1.202e-09
 47.80687    -47.3 1.322e+04 1.245e-09
 47.81704    -46.1 1.330e+04 1.401e-09
 47.83373    -44.6 1.331e+04 1.365e-09
 47.85407    -43.0 1.328e+04 1.294e-09
 47.87244    -41.5 1.322e+04 1.263e-09
 47.88261    -40.1 1.319e+04 1.195e-09
 47.89475    -38.4 1.318e+04 1.163e-09
 47.91508    -36.5 1.341e+04 1.236e-09
 47.93542    -34.6 1.376e+04 1.428e-09
 47.94818    -33.0 1.467e+04 1.807e-09
 47.95835    -31.1 1.419e+04 1.363e-09
 47.97609    -29.3 1.547e+04 1.806e-09
 47.99643    -28.9 1.882e+04 3.050e-09
 48.01375    -30.1 2.491e+04 6.153e-09
 48.02391    -26.3 2.043e+04 3.591e-09
 48.03197    -28.4 2.592e+04 8.068e-09
 48.04209    -30.1 2.701e+04 1.150e-08
 48.05152    -30.5 3.085e+04 1.723e-08
 48.05660    -28.0 2.350e+04 1.558e-08
 48.06243    -31.1 2.493e+04 2.146e-08
 48.07259    -37.5 3.194e+04 2.916e-08
 48.08276    -49.5 4.430e+04 4.146e-08
 48.08939    -64.6 4.316e+04 9.013e-08
 48.09447    -53.0 3.514e+04 7.512e-08
 48.10310    -66.9 3.782e+04 1.135e-07
 48.11327    -79.4 3.435e+04 1.564e-07
 48.12217    -86.5 2.979e+04 1.730e-07
 48.12725    -80.8 3.140e+04 1.475e-07
 48.13360    -86.5 2.948e+04 1.192e-07
 48.14377    -88.5 2.781e+04 1.017e-07
 48.15394    -88.8 2.704e+04 9.273e-08
 48.16004    -88.5 2.672e+04 8.815e-08
 48.16512    -87.5 2.681e+04 7.375e-08
 48.17428    -87.1 2.635e+04 7.184e-08
 48.18445    -86.3 2.599e+04 7.110e-08
 48.19282    -85.4 2.589e+04 6.743e-08
 48.19791    -85.2 2.582e+04 5.616e-08
 48.20478    -84.2 2.571e+04 5.136e-08
 48.21495    -83.3 2.534e+04 4.640e-08
 48.22512    -82.4 2.487e+04 4.156e-08
 48.23069    -81.4 2.431e+04 3.719e-08
 48.23578    -80.6 2.479e+04 3.487e-08
 48.24546    -79.8 2.420e+04 3.235e-08
 48.25562    -79.0 2.358e+04 2.979e-08
 48.26348    -78.5 2.284e+04 2.677e-08
 48.26856    -77.7 2.318e+04 2.660e-08
 48.27596    -77.0 2.230e+04 2.422e-08
 48.28613    -76.0 2.144e+04 2.177e-08
 48.29626    -75.0 2.068e+04 1.932e-08
 48.30643    -73.1 2.140e+04 2.206e-08
 48.31663    -72.3 2.076e+04 1.963e-08
 48.32680    -71.3 2.005e+04 1.642e-08
 48.33413    -70.3 1.953e+04 1.329e-08
 48.33921    -69.6 1.994e+04 1.700e-08
 48.34714    -68.5 1.936e+04 1.353e-08
 48.35731    -67.8 1.916e+04 1.072e-08
 48.36691    -67.3 1.915e+04 8.301e-09
 48.37200    -66.4 1.984e+04 1.199e-08
 48.37764    -66.1 1.999e+04 9.375e-09
 48.38781    -66.5 1.999e+04 7.219e-09
 48.39798    -67.2 1.952e+04 5.638e-09
 48.40478    -67.6 1.904e+04 4.789e-09
 48.40987    -66.3 1.949e+04 5.297e-09
 48.41921    -68.4 1.874e+04 4.234e-09
 48.42943    -67.9 1.909e+04 4.074e-09
 48.43766    -70.2 1.807e+04 3.315e-09
 48.44783    -65.4 2.010e+04 4.471e-09
 48.46417    -67.7 1.929e+04 3.575e-09
 48.48451    -70.1 1.594e+04 3.365e-09
 48.50323    -70.1 1.478e+04 3.629e-09
 48.51340    -67.6 1.747e+04 4.130e-09
 48.52518    -68.2 1.557e+04 4.337e-09
 48.54552    -68.3 1.541e+04 4.616e-09
 48.56586    -68.7 1.571e+04 4.429e-09
 48.57897    -69.7 1.555e+04 3.310e-09
 48.58914    -68.0 1.612e+04 4.932e-09
 48.60653    -69.4 1.572e+04 3.406e-09
 48.62687    -71.8 1.455e+04 2.115e-09
 48.64454    -74.5 1.304e+04 1.400e-09
 48.65471    -72.4 1.423e+04 2.097e-09
 48.66754    -75.2 1.287e+04 1.491e-09
 48.68788    -77.2 1.224e+04 1.304e-09
 48.70821    -78.2 1.209e+04 1.273e-09
 48.72028    -78.9 1.206e+04 1.288e-09
 48.73044    -78.6 1.245e+04 1.537e-09
 48.74889    -79.4 1.250e+04 1.580e-09
 48.76922    -80.5 1.272e+04 1.604e-09
 48.78584    -82.2 1.292e+04 1.682e-09
 48.79601    -82.3 1.327e+04 1.863e-09
 48.80990    -84.7 1.386e+04 2.160e-09
 48.83023    -87.6 1.479e+04 2.759e-09
 48.85057    -90.4 1.571e+04 3.593e-09
 48.86158    -93.1 1.639e+04 4.423e-09
 48.87175    -94.1 1.638e+04 4.504e-09
 48.89124    -96.5 1.654e+04 4.781e-09
 48.91158    -98.8 1.643e+04 4.571e-09
 48.92715   -100.7 1.568e+04 3.296e-09
 48.93732   -101.3 1.533e+04 2.956e-09
 48.95225   -103.0 1.390e+04 1.627e-09
 48.97259   -104.9 1.214e+04 8.575e-10
 48.99272   -106.4 1.096e+04 5.460e-10
 49.00289   -107.8 1.006e+04 4.321e-10
 49.01326   -108.4 9.844e+03 3.634e-10
 49.04387   -108.1 9.755e+03 3.402e-10
 49.06865   -107.7 9.170e+03 2.626e-10
 49.08899   -108.4 9.081e+03 2.552e-10
 49.12531   -107.1 8.844e+03 2.160e-10
 49.16598   -106.1 8.727e+03 1.934e-10
 49.19979   -105.3 8.699e+03 1.865e-10
 49.22013   -105.5 8.660e+03 1.851e-10
 49.24733   -105.0 8.658e+03 1.841e-10
 49.28800   -105.2 8.746e+03 1.920e-10
 49.32868   -107.9 9.606e+03 2.405e-10
 49.35117   -115.0 1.140e+04 5.377e-10
 49.36124   -116.2 1.216e+04 6.981e-10
 49.37932   -118.9 1.373e+04 1.488e-09
 49.39966   -120.5 1.525e+04 3.241e-09
 49.41664   -121.1 1.659e+04 6.046e-09
 49.42681   -121.8 1.632e+04 5.480e-09
 49.44033   -122.9 1.670e+04 6.168e-09
 49.46067   -124.6 1.669e+04 6.141e-09
 49.48101   -128.0 1.673e+04 4.448e-09
 49.49237   -136.4 1.804e+04 2.813e-09
 49.50254   -140.1 1.520e+04 1.614e-09
 49.52168   -151.9 1.639e+04 1.484e-09
 49.54202   -163.4 1.918e+04 2.737e-09
 49.55794   -171.2 1.945e+04 6.091e-09
 49.56811   -169.4 1.891e+04 5.099e-09
 49.58269   -175.7 1.869e+04 7.437e-09
 49.60303   -181.7 1.849e+04 7.878e-09
 49.62336   -187.6 1.706e+04 6.169e-09
 49.63368   -194.3 1.458e+04 2.627e-09
 49.64385   -191.7 1.485e+04 2.984e-09
 49.66404   -198.2 1.175e+04 1.066e-09
 49.68437   -202.7 9.959e+03 4.964e-10
 49.69925   -204.1 9.462e+03 3.842e-10
 49.70942   -202.5 9.507e+03 3.942e-10
 49.72505   -203.1 9.424e+03 3.631e-10
 49.74538   -203.4 9.464e+03 3.590e-10
 49.76492   -204.0 9.584e+03 3.633e-10
 49.78535   -201.2 9.551e+03 3.513e-10
 49.81676   -202.1 9.571e+03 3.851e-10
 49.85743   -202.4 9.547e+03 4.028e-10
 49.89615   -202.3 9.545e+03 4.049e-10
 49.91649   -200.1 9.586e+03 4.125e-10
 49.93878   -199.9 9.580e+03 4.121e-10
 49.97945   -199.7 9.459e+03 3.835e-10
 50.02013   -199.2 9.237e+03 3.339e-10
 50.04763   -198.3 8.962e+03 2.815e-10
 50.06796   -196.7 8.977e+03 2.811e-10
 50.10147   -195.5 8.715e+03 2.395e-10
 50.14215   -193.9 8.584e+03 2.200e-10
 50.17876   -192.2 8.561e+03 2.162e-10
 50.19910   -190.7 8.509e+03 2.053e-10
 50.22349   -189.0 8.509e+03 2.052e-10
 50.26417   -187.4 8.676e+03 2.242e-10
 50.30484   -185.9 9.050e+03 2.766e-10
 50.33024   -184.6 9.472e+03 3.518e-10
 50.35057   -182.9 9.266e+03 3.169e-10
 50.38619   -181.5 9.680e+03 3.925e-10
 50.42686   -180.3 1.007e+04 4.823e-10
 50.46138   -179.3 1.036e+04 5.484e-10
 50.48171   -177.4 1.023e+04 5.167e-10
 50.50821   -176.5 1.052e+04 5.943e-10
 50.54888   -175.7 1.072e+04 6.445e-10
 50.58955   -175.0 1.076e+04 6.525e-10
 50.61285   -174.7 1.073e+04 6.382e-10
 50.63319   -172.4 1.113e+04 7.971e-10
 50.67090   -172.1 1.119e+04 8.049e-10
 50.71157   -171.9 1.120e+04 7.889e-10
 50.74399   -171.6 1.127e+04 7.301e-10
 50.76423   -169.0 1.201e+04 9.922e-10
 50.78256   -169.9 1.148e+04 8.379e-10
 50.80289   -170.0 1.127e+04 7.827e-10
 50.81953   -170.2 1.093e+04 6.743e-10
 50.82970   -168.9 1.133e+04 8.476e-10
 50.84357   -169.0 1.111e+04 7.136e-10
 50.86390   -169.2 1.086e+04 6.096e-10
 50.88424   -169.4 1.063e+04 5.309e-10
 50.89527   -169.7 1.044e+04 4.787e-10
 50.90544   -168.5 1.060e+04 5.425e-10
 50.92491   -168.8 1.044e+04 4.962e-10
 50.94525   -168.9 1.039e+04 4.770e-10
 50.96084   -169.0 1.039e+04 4.725e-10
 50.97100   -168.3 1.091e+04 5.440e-10
 50.98592   -168.4 1.082e+04 5.369e-10
 51.00626   -168.7 1.081e+04 5.370e-10
 51.02640   -169.3 1.106e+04 5.860e-10
 51.03657   -169.0 1.224e+04 7.646e-10
 51.04693   -170.0 1.189e+04 7.503e-10
 51.06727   -171.1 1.179e+04 8.198e-10
 51.08761   -172.1 1.207e+04 9.289e-10
 51.10214   -173.0 1.234e+04 1.076e-09
 51.11231   -172.4 1.263e+04 1.120e-09
 51.12828   -173.3 1.275e+04 1.234e-09
 51.14862   -174.2 1.286e+04 1.361e-09
 51.16771   -175.2 1.292e+04 1.490e-09
 51.17788   -174.4 1.345e+04 1.487e-09
 51.18929   -175.8 1.336e+04 1.563e-09
 51.20963   -176.9 1.325e+04 1.594e-09
 51.22996   -177.5 1.311e+04 1.622e-09
 51.24345   -177.8 1.308e+04 1.637e-09
 51.25362   -178.1 1.343e+04 1.624e-09
 51.27064   -178.1 1.335e+04 1.636e-09
 51.29097   -178.0 1.312e+04 1.597e-09
 51.30902   -177.5 1.293e+04 1.468e-09
 51.31919   -178.2 1.393e+04 1.724e-09
 51.33165   -177.5 1.376e+04 1.608e-09
 51.35198   -176.8 1.345e+04 1.504e-09
 51.37232   -176.1 1.318e+04 1.394e-09
 51.38475   -175.4 1.296e+04 1.303e-09
 51.39492   -175.5 1.472e+04 2.154e-09
 51.41299   -174.6 1.453e+04 2.077e-09
 51.43333   -173.7 1.435e+04 2.005e-09
 51.45032   -172.7 1.418e+04 1.933e-09
 51.46049   -173.0 1.548e+04 3.216e-09
 51.47400   -172.1 1.547e+04 3.215e-09
 51.49434   -171.1 1.551e+04 3.228e-09
 51.51468   -170.0 1.557e+04 3.204e-09
 51.52606   -169.5 1.596e+04 3.158e-09
 51.53110   -170.0 1.598e+04 3.676e-09
 51.54000   -170.4 1.716e+04 3.490e-09
 51.55017   -173.6 2.703e+04 2.834e-09
 51.55875   -179.8 4.283e+04 2.610e-09
 51.56383   -197.8 5.684e+04 1.586e-08
 51.57051   -202.2 4.219e+04 7.414e-08
 51.58067   -207.3 2.947e+04 4.003e-07
 51.59084   -210.5 2.403e+04 1.191e-06
 51.59662   -212.6 2.195e+04 2.029e-06
 51.60170   -222.8 2.367e+04 8.280e-07
 51.61118   -224.0 2.675e+04 4.150e-07
 51.62135   -226.2 3.207e+04 1.495e-07
 51.62940   -231.4 3.855e+04 4.081e-08
 51.63448   -249.2 2.675e+04 4.305e-09
 51.64168   -255.0 1.820e+04 2.667e-09
 51.65185   -256.4 1.511e+04 2.338e-09
 51.66202   -256.2 1.450e+04 2.238e-09
 51.66727   -255.5 1.444e+04 2.176e-09
 51.67749   -257.3 1.363e+04 1.465e-09
 51.69771   -257.8 1.252e+04 1.025e-09
 51.71804   -257.9 1.131e+04 6.620e-10
 51.73294   -257.1 1.099e+04 4.995e-10
 51.74310   -257.3 1.054e+04 3.655e-10
 51.75872   -256.3 1.040e+04 3.223e-10
 51.77905   -255.2 1.030e+04 2.906e-10
 51.79850   -253.9 1.030e+04 2.714e-10
 51.80867   -253.9 1.024e+04 2.592e-10
 51.81973   -252.9 1.032e+04 2.588e-10
 51.85033   -251.1 1.040e+04 2.679e-10
 51.87444   -249.3 1.052e+04 2.736e-10
 51.89477   -251.3 1.009e+04 2.301e-10
 51.93178   -249.9 1.028e+04 2.328e-10
 51.97245   -248.7 1.052e+04 2.661e-10
 52.00557   -247.7 1.074e+04 3.296e-10
 52.02591   -248.9 1.062e+04 3.045e-10
 52.05380   -247.8 1.095e+04 4.102e-10
 52.08121   -246.6 1.099e+04 4.561e-10
 52.09128   -246.8 1.104e+04 4.576e-10
 52.10444   -246.9 1.114e+04 4.940e-10
 52.12478   -246.9 1.128e+04 5.669e-10
 52.14512   -247.1 1.130e+04 5.936e-10
 52.15685   -247.1 1.130e+04 6.021e-10
 52.17729   -247.7 1.112e+04 5.277e-10
 52.21649   -247.0 1.093e+04 4.887e-10
 52.25716   -246.0 1.076e+04 4.424e-10
 52.28819   -245.4 1.066e+04 4.121e-10
 52.30852   -245.0 1.056e+04 3.882e-10
 52.33851   -244.5 1.063e+04 3.961e-10
 52.37918   -244.0 1.074e+04 4.152e-10
 52.41932   -243.5 1.080e+04 4.275e-10
 52.43966   -243.2 1.080e+04 4.187e-10
 52.46053   -242.5 1.080e+04 4.139e-10
 52.50120   -241.6 1.068e+04 3.710e-10
 52.54188   -240.6 1.041e+04 2.992e-10
 52.57080   -239.4 1.011e+04 2.354e-10
 52.59114   -239.5 1.014e+04 2.274e-10
 52.62322   -238.5 1.001e+04 1.981e-10
 52.66390   -237.5 1.001e+04 1.942e-10
 52.70194   -236.3 1.022e+04 2.188e-10
 52.72227   -237.2 1.098e+04 3.892e-10
 52.74524   -235.7 1.118e+04 4.504e-10
 52.78592   -233.9 1.136e+04 4.996e-10
 52.82659   -231.9 1.152e+04 5.328e-10
 52.85341   -229.9 1.172e+04 5.536e-10
 52.87375   -231.5 1.213e+04 6.840e-10
 52.90794   -230.4 1.261e+04 7.317e-10
 52.93342   -230.0 1.321e+04 9.216e-10
 52.95376   -230.6 1.337e+04 1.025e-09
 52.98455   -230.7 1.398e+04 1.469e-09
 53.00488   -234.1 1.410e+04 1.874e-09
 53.02996   -234.7 1.415e+04 2.031e-09
 53.07063   -235.4 1.383e+04 1.878e-09
 53.11130   -235.5 1.323e+04 1.335e-09
 53.13602   -235.5 1.267e+04 9.695e-10
 53.15636   -236.8 1.189e+04 6.089e-10
 53.19265   -236.1 1.168e+04 5.090e-10
 53.22306   -235.5 1.141e+04 4.210e-10
 53.24330   -234.9 1.139e+04 4.174e-10
 53.26363   -234.2 1.140e+04 4.171e-10
 53.27713   -233.6 1.145e+04 4.237e-10
 53.28740   -233.7 1.128e+04 3.428e-10
 53.31467   -232.5 1.142e+04 3.487e-10
 53.34280   -232.0 1.158e+04 3.922e-10
 53.35287   -232.0 1.150e+04 3.440e-10
 53.36532   -231.9 1.160e+04 3.626e-10
 53.38565   -231.9 1.169e+04 3.997e-10
 53.40599   -232.1 1.171e+04 4.529e-10
 53.41844   -232.2 1.174e+04 5.217e-10
 53.42861   -232.4 1.175e+04 5.017e-10
 53.44666   -232.6 1.176e+04 5.750e-10
 53.46700   -232.7 1.179e+04 6.551e-10
 53.48401   -232.8 1.185e+04 7.197e-10
 53.49418   -233.1 1.184e+04 7.454e-10
 53.50767   -233.1 1.189e+04 8.039e-10
 53.52801   -233.1 1.192e+04 8.442e-10
 53.54835   -233.1 1.194e+04 8.713e-10
 53.55975   -232.9 1.193e+04 8.906e-10
 53.56991   -233.1 1.188e+04 8.731e-10
 53.58902   -232.8 1.180e+04 8.552e-10
 53.60936   -232.5 1.175e+04 8.402e-10
 53.62531   -232.2 1.173e+04 8.359e-10
 53.63548   -232.2 1.161e+04 7.589e-10
 53.65003   -231.8 1.161e+04 7.552e-10
 53.67037   -231.4 1.163e+04 7.607e-10
 53.69070   -231.2 1.171e+04 7.967e-10
 53.70105   -230.9 1.179e+04 8.590e-10
 53.71122   -231.0 1.170e+04 7.790e-10
 53.73138   -230.8 1.181e+04 8.583e-10
 53.75171   -230.7 1.193e+04 9.458e-10
 53.76662   -230.6 1.206e+04 1.034e-09
 53.77679   -230.9 1.203e+04 9.520e-10
 53.79239   -231.0 1.215e+04 1.027e-09
 53.81272   -231.2 1.228e+04 1.096e-09
 53.83219   -231.5 1.239e+04 1.153e-09
 53.84236   -232.3 1.235e+04 1.085e-09
 53.85340   -233.0 1.244e+04 1.143e-09
 53.87373   -233.7 1.247e+04 1.167e-09
 53.89407   -234.6 1.248e+04 1.169e-09
 53.90793   -235.5 1.242e+04 1.145e-09
 53.91809   -236.4 1.238e+04 1.159e-09
 53.93474   -237.2 1.219e+04 1.071e-09
 53.95508   -237.9 1.199e+04 9.579e-10
 53.97350   -238.7 1.179e+04 8.616e-10
 53.98366   -238.9 1.157e+04 7.997e-10
 53.99575   -239.5 1.137e+04 6.993e-10
 54.01609   -240.1 1.124e+04 6.451e-10
 54.03643   -240.5 1.119e+04 6.285e-10
 54.04923   -240.9 1.119e+04 6.272e-10
 54.05940   -240.7 1.094e+04 5.088e-10
 54.07710   -241.1 1.096e+04 5.122e-10
 54.09744   -241.3 1.101e+04 5.579e-10
 54.11480   -241.4 1.106e+04 6.301e-10
 54.12497   -241.1 1.080e+04 4.924e-10
 54.13811   -241.2 1.086e+04 5.690e-10
 54.15845   -241.1 1.093e+04 6.518e-10
 54.17879   -241.0 1.100e+04 7.320e-10
 54.19054   -240.8 1.109e+04 8.068e-10
 54.20071   -240.3 1.087e+04 6.814e-10
 54.21946   -240.1 1.097e+04 7.561e-10
 54.23980   -239.9 1.108e+04 8.259e-10
 54.25611   -239.6 1.119e+04 8.868e-10
 54.26628   -239.1 1.103e+04 7.791e-10
 54.28047   -239.0 1.116e+04 8.446e-10
 54.30081   -238.7 1.128e+04 8.989e-10
 54.32114   -238.6 1.140e+04 9.217e-10
 54.33184   -238.7 1.158e+04 8.931e-10
 54.34201   -238.3 1.139e+04 8.578e-10
 54.36182   -238.7 1.140e+04 7.902e-10
 54.38215   -238.9 1.120e+04 7.004e-10
 54.39751   -238.7 1.101e+04 6.192e-10
 54.41795   -237.7 1.103e+04 6.235e-10
 54.45353   -237.1 1.076e+04 5.482e-10
 54.49420   -236.7 1.049e+04 4.880e-10
 54.52875   -236.5 1.029e+04 4.500e-10
 54.54908   -236.0 1.043e+04 4.969e-10
 54.57555   -236.0 1.036e+04 4.889e-10
 54.61622   -236.1 1.035e+04 4.873e-10
 54.65689   -236.3 1.035e+04 4.769e-10
 54.68022   -236.4 1.033e+04 4.538e-10
 54.70056   -235.9 1.031e+04 4.451e-10
 54.73824   -235.9 1.022e+04 3.842e-10
 54.77891   -235.9 1.018e+04 3.523e-10
 54.81136   -235.6 1.019e+04 3.460e-10
 54.83170   -235.1 1.014e+04 3.016e-10
 54.86026   -234.7 1.015e+04 3.004e-10
 54.90093   -234.4 1.019e+04 3.060e-10
 54.94161   -234.1 1.017e+04 3.094e-10
 54.96283   -233.8 1.002e+04 2.996e-10
 54.98317   -233.3 9.905e+03 2.739e-10
 55.02295   -232.7 9.742e+03 2.613e-10
 55.06363   -231.9 9.601e+03 2.458e-10
 55.09397   -230.8 9.533e+03 2.360e-10
 55.11431   -230.5 9.657e+03 2.411e-10
 55.14497   -229.4 9.679e+03 2.397e-10
 55.18565   -228.5 9.727e+03 2.604e-10
 55.22511   -228.3 1.019e+04 3.451e-10
 55.24544   -228.0 1.055e+04 3.959e-10
 55.26699   -228.0 1.123e+04 5.705e-10
 55.30767   -228.9 1.227e+04 9.496e-10
 55.34834   -229.9 1.333e+04 1.615e-09
 55.37649   -229.2 1.409e+04 2.419e-09
 55.38656   -228.7 1.425e+04 2.523e-09
 55.39899   -228.7 1.505e+04 3.653e-09
 55.41932   -228.7 1.569e+04 4.718e-09
 55.43966   -229.0 1.598e+04 5.059e-09
 55.45212   -229.7 1.592e+04 4.382e-09
 55.46229   -229.4 1.616e+04 4.677e-09
 55.48033   -230.7 1.575e+04 3.405e-09
 55.50067   -232.4 1.482e+04 2.076e-09
 55.51769   -234.5 1.330e+04 1.166e-09
 55.52786   -233.9 1.383e+04 1.579e-09
 55.54134   -235.1 1.278e+04 1.250e-09
 55.56168   -236.4 1.216e+04 1.085e-09
 55.58202   -237.5 1.196e+04 1.040e-09
 55.59343   -238.4 1.212e+04 1.060e-09
 55.60360   -238.1 1.272e+04 1.417e-09
 55.62269   -239.1 1.285e+04 1.474e-09
 55.64303   -240.5 1.295e+04 1.556e-09
 55.65900   -241.7 1.306e+04 1.788e-09
 55.66917   -241.1 1.338e+04 2.168e-09
 55.68370   -242.1 1.353e+04 2.371e-09
 55.70404   -243.2 1.384e+04 2.648e-09
 55.72437   -244.6 1.425e+04 2.961e-09
 55.73474   -246.4 1.463e+04 3.248e-09
 55.74491   -246.4 1.465e+04 3.246e-09
 55.76505   -248.9 1.482e+04 3.381e-09
 55.78538   -251.6 1.483e+04 3.402e-09
 55.80031   -254.3 1.478e+04 3.391e-09
 55.81047   -254.4 1.454e+04 3.203e-09
 55.82606   -257.0 1.451e+04 3.222e-09
 55.84639   -259.0 1.423e+04 3.202e-09
 55.86587   -260.5 1.385e+04 2.881e-09
 55.87604   -260.4 1.384e+04 2.946e-09
 55.88707   -261.3 1.347e+04 2.364e-09
 55.90740   -262.3 1.296e+04 1.687e-09
 55.92774   -263.4 1.246e+04 1.178e-09
 55.94161   -264.6 1.209e+04 8.909e-10
 55.95178   -264.1 1.209e+04 8.551e-10
 55.96841   -265.2 1.190e+04 7.380e-10
 55.98875   -266.0 1.184e+04 7.145e-10
 56.00718   -266.5 1.182e+04 7.165e-10
 56.01735   -266.1 1.182e+04 6.893e-10
 56.02942   -266.5 1.184e+04 7.575e-10
 56.04976   -266.6 1.192e+04 8.782e-10
 56.07010   -266.6 1.200e+04 1.006e-09
 56.08292   -266.4 1.207e+04 1.102e-09
 56.09309   -265.9 1.204e+04 1.080e-09
 56.11077   -265.6 1.209e+04 1.134e-09
 56.13111   -265.3 1.213e+04 1.140e-09
 56.14849   -265.1 1.213e+04 1.048e-09
 56.15865   -264.5 1.216e+04 1.053e-09
 56.17178   -264.4 1.215e+04 9.998e-10
 56.19212   -264.3 1.214e+04 9.314e-10
 56.21246   -264.3 1.209e+04 8.474e-10
 56.22422   -264.3 1.196e+04 7.551e-10
 56.23439   -263.6 1.198e+04 7.853e-10
 56.25313   -263.6 1.177e+04 6.868e-10
 56.27347   -263.5 1.150e+04 5.915e-10
 56.28979   -263.3 1.122e+04 5.101e-10
 56.29996   -262.5 1.136e+04 5.374e-10
 56.31414   -262.3 1.109e+04 4.609e-10
 56.33448   -261.9 1.086e+04 4.080e-10
 56.35546   -261.4 1.071e+04 3.734e-10
 56.37589   -260.2 1.089e+04 3.988e-10
 56.40585   -257.8 1.071e+04 3.632e-10
 56.44652   -255.9 1.065e+04 3.535e-10
 56.48669   -254.0 1.072e+04 3.575e-10
 56.50703   -252.9 1.079e+04 3.893e-10
 56.52787   -250.9 1.083e+04 4.034e-10
 56.56854   -248.8 1.089e+04 4.211e-10
 56.60922   -246.7 1.095e+04 4.388e-10
 56.63817   -244.5 1.099e+04 4.552e-10
 56.65851   -243.4 1.095e+04 4.558e-10
 56.69056   -241.1 1.098e+04 4.612e-10
 56.73124   -238.7 1.105e+04 4.764e-10
 56.76931   -236.3 1.119e+04 5.225e-10
 56.78964   -235.2 1.111e+04 4.870e-10
 56.81258   -232.8 1.138e+04 5.733e-10
 56.85326   -230.4 1.177e+04 7.237e-10
 56.89393   -228.2 1.223e+04 9.312e-10
 56.92078   -226.2 1.278e+04 1.197e-09
 56.94112   -225.3 1.265e+04 1.138e-09
 56.97528   -223.8 1.316e+04 1.434e-09
 57.01595   -222.7 1.351e+04 1.743e-09
 57.04636   -221.0 1.336e+04 1.758e-09
 57.06189   -220.5 1.353e+04 1.966e-09
 57.07206   -220.3 1.344e+04 1.851e-09
 57.08693   -219.4 1.373e+04 2.259e-09
 57.10727   -218.7 1.396e+04 2.675e-09
 57.12746   -217.9 1.414e+04 2.990e-09
 57.13763   -218.2 1.419e+04 3.040e-09
 57.14794   -217.6 1.436e+04 3.297e-09
 57.16828   -217.0 1.455e+04 3.498e-09
 57.18862   -216.5 1.478e+04 3.703e-09
 57.20320   -216.2 1.498e+04 3.861e-09
 57.21337   -217.1 1.498e+04 3.891e-09
 57.22929   -217.2 1.511e+04 3.981e-09
 57.24963   -217.5 1.517e+04 4.026e-09
 57.26877   -218.0 1.524e+04 4.103e-09
 57.27893   -218.9 1.495e+04 3.979e-09
 57.29030   -219.8 1.512e+04 4.267e-09
 57.31064   -220.8 1.548e+04 4.921e-09
 57.33097   -221.8 1.617e+04 5.893e-09
 57.34450   -222.9 1.706e+04 7.164e-09
 57.35467   -222.2 1.549e+04 4.652e-09
 57.37165   -223.1 1.581e+04 4.772e-09
 57.39198   -223.8 1.610e+04 4.756e-09
 57.41007   -224.4 1.639e+04 4.700e-09
 57.42024   -223.5 1.434e+04 2.711e-09
 57.43266   -223.5 1.425e+04 2.440e-09
 57.44720   -223.2 1.423e+04 2.363e-09
 57.45737   -223.5 1.299e+04 1.526e-09
 57.47333   -222.9 1.300e+04 1.525e-09
 57.48581   -222.2 1.352e+04 1.622e-09
 57.49598   -221.8 1.255e+04 1.292e-09
 57.51400   -221.4 1.300e+04 1.379e-09
 57.53434   -223.7 1.499e+04 1.643e-09
 57.55138   -229.0 2.254e+04 4.137e-09
 57.56155   -228.5 1.897e+04 3.146e-09
 57.56988   -231.4 2.286e+04 1.057e-08
 57.58000   -233.0 2.348e+04 3.019e-08
 57.58915   -234.8 2.375e+04 8.640e-08
 57.59423   -234.7 2.323e+04 4.537e-08
 57.60034   -236.7 2.374e+04 9.036e-08
 57.61051   -239.3 2.378e+04 1.363e-07
 57.62067   -241.9 2.366e+04 1.534e-07
 57.62702   -243.8 2.358e+04 1.532e-07
 57.63210   -242.3 2.313e+04 9.628e-08
 57.64101   -243.7 2.320e+04 8.758e-08
 57.65118   -244.7 2.313e+04 5.532e-08
 57.65980   -246.2 2.267e+04 2.868e-08
 57.66489   -245.0 2.202e+04 2.746e-08
 57.67152   -246.9 2.094e+04 1.478e-08
 57.68168   -248.8 1.918e+04 8.554e-09
 57.69185   -250.1 1.737e+04 5.937e-09
 57.69767   -250.4 1.637e+04 4.930e-09
 57.70276   -248.8 1.666e+04 4.547e-09
 57.71732   -248.4 1.625e+04 3.784e-09
 57.73771   -248.3 1.527e+04 2.892e-09
 57.75804   -247.9 1.384e+04 2.088e-09
 57.76842   -247.3 1.297e+04 1.709e-09
 57.77859   -246.3 1.279e+04 1.293e-09
 57.79872   -245.7 1.257e+04 1.228e-09
 57.81905   -244.4 1.251e+04 1.214e-09
 57.83399   -243.2 1.250e+04 1.222e-09
 57.84416   -242.1 1.231e+04 9.319e-10
 57.85973   -241.2 1.230e+04 9.891e-10
 57.88006   -240.4 1.238e+04 1.054e-09
 57.89956   -239.5 1.246e+04 1.111e-09
 57.90973   -238.5 1.216e+04 8.874e-10
 57.92074   -237.7 1.218e+04 9.705e-10
 57.94107   -236.8 1.234e+04 1.001e-09
 57.96141   -236.0 1.270e+04 9.495e-10
 57.97530   -235.1 1.267e+04 8.700e-10
 57.98547   -234.1 1.246e+04 8.896e-10
 58.00208   -233.4 1.247e+04 8.086e-10
 58.02242   -233.1 1.261e+04 6.441e-10
 58.04087   -232.8 1.254e+04 5.024e-10
 58.05103   -230.4 1.242e+04 7.156e-10
 58.06309   -229.7 1.252e+04 5.837e-10
 58.08343   -229.2 1.247e+04 4.491e-10
 58.10377   -229.0 1.224e+04 3.495e-10
 58.11660   -228.3 1.194e+04 3.100e-10
 58.12677   -228.0 1.201e+04 3.353e-10
 58.15471   -227.2 1.178e+04 3.053e-10
 58.18237   -224.7 1.123e+04 2.291e-10
 58.20270   -223.1 1.176e+04 3.704e-10
 58.23615   -221.0 1.133e+04 2.678e-10
 58.27683   -218.7 1.088e+04 1.897e-10
 58.31350   -216.4 1.054e+04 1.418e-10
 58.33384   -215.1 1.103e+04 2.092e-10
 58.35817   -213.0 1.069e+04 1.489e-10
 58.39885   -210.9 1.049e+04 1.192e-10
 58.43952   -208.9 1.045e+04 1.066e-10
 58.46498   -207.0 1.050e+04 1.011e-10
 58.48532   -205.7 1.065e+04 1.192e-10
 58.52087   -203.6 1.067e+04 1.176e-10
 58.56154   -201.6 1.072e+04 1.171e-10
 58.59612   -199.6 1.075e+04 1.176e-10
 58.61645   -198.3 1.085e+04 1.364e-10
 58.64289   -196.3 1.093e+04 1.399e-10
 58.68356   -194.5 1.102e+04 1.500e-10
 58.72423   -192.6 1.108e+04 1.623e-10
 58.74759   -190.9 1.115e+04 1.748e-10
 58.76793   -189.4 1.109e+04 2.144e-10
 58.80558   -187.7 1.109e+04 2.322e-10
 58.84625   -186.0 1.112e+04 2.466e-10
 58.87873   -184.5 1.117e+04 2.645e-10
 58.89907   -183.0 1.115e+04 2.549e-10
 58.92760   -181.6 1.120e+04 2.833e-10
 58.96827   -180.3 1.127e+04 3.189e-10
 59.00895   -179.1 1.134e+04 3.548e-10
 59.03020   -178.0 1.141e+04 3.818e-10
 59.05054   -176.9 1.136e+04 3.748e-10
 59.09029   -175.7 1.137e+04 3.875e-10
 59.13097   -174.4 1.133e+04 3.654e-10
 59.16134   -172.9 1.120e+04 3.089e-10
 59.18168   -172.0 1.115e+04 3.152e-10
 59.21231   -170.4 1.105e+04 2.566e-10
 59.25299   -168.9 1.095e+04 2.109e-10
 59.29248   -167.3 1.087e+04 1.843e-10
 59.31282   -166.3 1.095e+04 1.988e-10
 59.33433   -164.7 1.091e+04 1.834e-10
 59.37501   -163.1 1.086e+04 1.805e-10
 59.41568   -161.4 1.086e+04 1.820e-10
 59.44395   -159.7 1.088e+04 1.854e-10
 59.46429   -159.1 1.092e+04 1.860e-10
 59.49703   -157.5 1.093e+04 1.880e-10
 59.53770   -155.9 1.100e+04 1.909e-10
 59.57509   -154.4 1.109e+04 1.954e-10
 59.59543   -154.0 1.120e+04 2.199e-10
 59.61905   -152.7 1.132e+04 2.533e-10
 59.65972   -151.5 1.140e+04 2.901e-10
 59.70039   -150.2 1.142e+04 3.216e-10
 59.72657   -148.9 1.140e+04 3.444e-10
 59.74690   -148.6 1.164e+04 5.095e-10
 59.78174   -147.3 1.164e+04 5.185e-10
 59.82241   -146.0 1.165e+04 5.231e-10
 59.85770   -144.8 1.169e+04 5.358e-10
 59.87804   -145.3 1.218e+04 7.267e-10
 59.90376   -144.6 1.228e+04 7.869e-10
 59.94443   -144.0 1.238e+04 8.567e-10
 59.98511   -143.5 1.238e+04 8.970e-10
 60.00918   -143.0 1.232e+04 9.015e-10
 60.02951   -143.3 1.249e+04 1.237e-09
 60.06646   -142.3 1.228e+04 1.098e-09
 60.09686   -141.7 1.199e+04 9.852e-10
 60.11710   -141.2 1.188e+04 8.998e-10
 60.13744   -140.8 1.179e+04 8.480e-10
 60.15029   -140.4 1.173e+04 8.045e-10
 60.16046   -140.4 1.179e+04 8.489e-10
 60.17811   -140.1 1.177e+04 8.436e-10
 60.19845   -139.7 1.173e+04 8.507e-10
 60.21586   -139.5 1.170e+04 8.693e-10
 60.22603   -139.3 1.183e+04 8.823e-10
 60.23912   -139.0 1.181e+04 9.032e-10
 60.25946   -138.7 1.179e+04 9.100e-10
 60.27980   -138.3 1.169e+04 9.125e-10
 60.29159   -138.0 1.159e+04 8.697e-10
 60.30176   -137.7 1.169e+04 8.648e-10
 60.32047   -137.4 1.160e+04 8.211e-10
 60.34081   -137.2 1.150e+04 7.704e-10
 60.35716   -137.0 1.144e+04 7.183e-10
 60.36733   -136.8 1.155e+04 7.501e-10
 60.38148   -136.7 1.150e+04 7.213e-10
 60.40182   -136.8 1.148e+04 6.925e-10
 60.42215   -136.8 1.146e+04 6.567e-10
 60.43290   -137.0 1.140e+04 6.063e-10
 60.44307   -136.8 1.160e+04 7.177e-10
 60.46283   -137.0 1.154e+04 6.798e-10
 60.48316   -137.2 1.146e+04 6.447e-10
 60.49847   -137.4 1.137e+04 6.141e-10
 60.50864   -137.2 1.157e+04 7.589e-10
 60.52384   -137.4 1.146e+04 7.183e-10
 60.54417   -137.5 1.137e+04 6.899e-10
 60.56404   -137.6 1.132e+04 6.782e-10
 60.57421   -137.4 1.147e+04 7.954e-10
 60.58485   -137.4 1.141e+04 7.985e-10
 60.60518   -137.4 1.141e+04 8.368e-10
 60.62552   -137.3 1.141e+04 8.873e-10
 60.63978   -137.2 1.141e+04 9.445e-10
 60.64994   -137.1 1.166e+04 1.070e-09
 60.66619   -137.0 1.170e+04 1.148e-09
 60.68653   -136.8 1.174e+04 1.233e-09
 60.70534   -136.5 1.179e+04 1.325e-09
 60.71551   -136.5 1.211e+04 1.600e-09
 60.72720   -136.2 1.226e+04 1.799e-09
 60.74754   -135.9 1.248e+04 2.051e-09
 60.76788   -135.6 1.277e+04 2.364e-09
 60.78108   -135.4 1.310e+04 2.729e-09
 60.79125   -135.5 1.390e+04 3.982e-09
 60.80855   -135.3 1.438e+04 4.763e-09
 60.82889   -135.3 1.474e+04 5.355e-09
 60.84665   -135.4 1.489e+04 5.570e-09
 60.85682   -135.6 1.582e+04 8.049e-09
 60.86956   -135.9 1.581e+04 7.964e-09
 60.88990   -136.1 1.545e+04 6.730e-09
 60.91023   -136.3 1.481e+04 4.881e-09
 60.92239   -136.5 1.399e+04 3.265e-09
 60.93256   -136.7 1.435e+04 3.954e-09
 60.95091   -137.0 1.335e+04 2.430e-09
 60.97124   -137.2 1.245e+04 1.544e-09
 60.98796   -137.3 1.175e+04 1.056e-09
 60.99812   -137.5 1.192e+04 1.261e-09
 61.01192   -137.3 1.143e+04 9.537e-10
 61.03225   -136.7 1.107e+04 7.635e-10
 61.05259   -135.7 1.083e+04 6.389e-10
 61.06369   -134.8 1.069e+04 5.545e-10
 61.07386   -135.1 1.090e+04 6.949e-10
 61.09326   -134.4 1.078e+04 6.170e-10
 61.11360   -133.8 1.072e+04 5.670e-10
 61.12926   -133.0 1.067e+04 5.284e-10
 61.13943   -133.5 1.106e+04 6.664e-10
 61.15427   -132.9 1.102e+04 6.265e-10
 61.17461   -132.4 1.100e+04 6.034e-10
 61.19483   -131.8 1.100e+04 5.893e-10
 61.20500   -132.4 1.128e+04 7.093e-10
 61.21528   -131.9 1.124e+04 6.851e-10
 61.23562   -131.4 1.118e+04 6.628e-10
 61.25596   -130.9 1.109e+04 6.412e-10
 61.27057   -130.3 1.099e+04 6.119e-10
 61.28074   -130.7 1.119e+04 7.308e-10
 61.29663   -130.0 1.101e+04 6.868e-10
 61.31697   -129.1 1.085e+04 6.442e-10
 61.33614   -128.1 1.071e+04 6.074e-10
 61.34631   -128.5 1.083e+04 7.077e-10
 61.35764   -127.5 1.072e+04 6.657e-10
 61.37798   -126.3 1.062e+04 6.179e-10
 61.40180   -124.9 1.054e+04 5.778e-10
 61.42214   -124.4 1.063e+04 5.810e-10
 61.44925   -123.4 1.063e+04 5.792e-10
 61.49002   -121.8 1.061e+04 5.707e-10
 61.53070   -120.2 1.059e+04 5.667e-10
 61.55338   -118.6 1.058e+04 5.638e-10
 61.57371   -118.9 1.064e+04 5.522e-10
 61.61204   -117.3 1.063e+04 5.703e-10
 61.65272   -115.9 1.069e+04 6.194e-10
 61.68313   -114.5 1.073e+04 6.484e-10
 61.69449   -114.3 1.077e+04 6.790e-10
 61.70475   -115.1 1.068e+04 4.548e-10
 61.73406   -113.9 1.095e+04 4.513e-10
 61.76015   -112.9 1.109e+04 4.539e-10
 61.77022   -112.9 1.103e+04 4.357e-10
 61.78471   -112.8 1.106e+04 4.326e-10
 61.80505   -112.3 1.114e+04 4.250e-10
 61.82538   -112.2 1.114e+04 4.234e-10
 61.83579   -111.7 1.115e+04 4.206e-10
 61.85623   -112.7 1.117e+04 4.323e-10
 61.89676   -111.8 1.122e+04 4.545e-10
 61.93743   -110.7 1.123e+04 4.613e-10
 61.96136   -109.4 1.121e+04 4.622e-10
 61.97072   -108.4 1.111e+04 4.350e-10
 61.98746   -108.6 1.118e+04 4.573e-10
 62.01878   -107.1 1.116e+04 4.383e-10
 62.05945   -105.6 1.115e+04 4.354e-10
 62.09826   -103.9 1.114e+04 4.534e-10
 62.11860   -103.9 1.104e+04 3.622e-10
 62.14080   -102.2 1.105e+04 3.660e-10
 62.18147   -100.4 1.113e+04 3.761e-10
 62.22215    -98.6 1.117e+04 3.813e-10
 62.24974    -96.8 1.118e+04 3.587e-10
 62.27007    -97.2 1.112e+04 1.868e-10
 62.30349    -95.6 1.110e+04 1.615e-10
 62.34417    -94.0 1.099e+04 1.412e-10
 62.38088    -92.5 1.083e+04 1.318e-10
 62.40121    -92.4 1.074e+04 9.451e-11
 62.42551    -90.6 1.075e+04 9.276e-11
 62.46619    -88.7 1.079e+04 9.284e-11
 62.50686    -86.9 1.091e+04 9.803e-11
 62.53235    -85.1 1.090e+04 1.103e-10
 62.55269    -84.4 1.089e+04 8.291e-11
 62.58821    -82.6 1.084e+04 9.653e-11
 62.62888    -80.7 1.083e+04 1.082e-10
 62.66349    -78.8 1.085e+04 1.152e-10
 62.68382    -78.0 1.083e+04 1.138e-10
 62.71023    -76.0 1.088e+04 1.209e-10
 62.75090    -74.1 1.092e+04 1.256e-10
 62.79157    -72.3 1.098e+04 1.356e-10
 62.81496    -70.8 1.106e+04 1.674e-10
 62.83530    -70.1 1.110e+04 1.979e-10
 62.87292    -69.0 1.127e+04 2.937e-10
 62.91359    -68.1 1.164e+04 5.140e-10
 62.94610    -67.4 1.220e+04 9.467e-10
 62.96644    -67.3 1.236e+04 1.040e-09
 62.99494    -67.0 1.284e+04 1.513e-09
 63.03561    -67.1 1.306e+04 1.694e-09
 63.07629    -67.7 1.301e+04 1.599e-09
 63.09757    -68.0 1.247e+04 1.107e-09
 63.11791    -68.7 1.233e+04 6.821e-10
 63.15763    -68.8 1.157e+04 3.973e-10
 63.19831    -68.3 1.131e+04 2.552e-10
 63.22871    -67.2 1.112e+04 1.772e-10
 63.24905    -67.2 1.077e+04 1.534e-10
 63.27965    -65.4 1.068e+04 1.359e-10
 63.32033    -63.4 1.067e+04 1.231e-10
 63.35985    -61.3 1.068e+04 1.140e-10
 63.38019    -60.8 1.065e+04 1.154e-10
 63.40167    -58.7 1.068e+04 1.116e-10
 63.44235    -56.7 1.071e+04 1.113e-10
 63.48302    -54.9 1.076e+04 1.201e-10
 63.51132    -53.0 1.077e+04 1.384e-10
 63.53166    -52.3 1.076e+04 1.501e-10
 63.56437    -50.3 1.077e+04 1.659e-10
 63.60504    -48.4 1.079e+04 1.712e-10
 63.64246    -46.7 1.081e+04 1.659e-10
 63.66280    -46.2 1.083e+04 1.532e-10
 63.68639    -44.9 1.077e+04 1.395e-10
 63.72706    -43.6 1.073e+04 1.391e-10
 63.76773    -42.2 1.069e+04 1.412e-10
 63.79394    -40.7 1.075e+04 1.500e-10
 63.81427    -40.7 1.069e+04 1.245e-10
 63.84908    -39.5 1.081e+04 1.409e-10
 63.88975    -38.4 1.092e+04 1.708e-10
 63.92507    -37.5 1.101e+04 2.195e-10
 63.94541    -37.5 1.089e+04 2.062e-10
 63.97110    -36.8 1.099e+04 2.552e-10
 64.01177    -36.2 1.106e+04 3.116e-10
 64.05245    -35.4 1.107e+04 3.493e-10
 64.07655    -34.5 1.104e+04 3.566e-10
 64.09688    -35.0 1.098e+04 3.839e-10
 64.13379    -33.6 1.065e+04 3.313e-10
 64.17447    -32.0 1.049e+04 2.335e-10
 64.20769    -30.6 1.033e+04 1.768e-10
 64.22802    -30.8 1.018e+04 1.586e-10
 64.25582    -29.2 1.008e+04 1.440e-10
 64.29649    -27.3 1.006e+04 1.416e-10
 64.33716    -25.6 1.015e+04 1.440e-10
 64.35916    -24.3 1.035e+04 1.685e-10
 64.37950    -24.6 1.015e+04 1.685e-10
 64.41851    -23.2 1.018e+04 2.197e-10
 64.45918    -21.8 1.023e+04 2.767e-10
 64.49030    -20.5 1.022e+04 3.342e-10
 64.51063    -19.9 1.002e+04 2.720e-10
 64.54053    -18.5 9.997e+03 2.727e-10
 64.58120    -17.2 9.956e+03 2.676e-10
 64.62144    -16.0 9.881e+03 2.692e-10
 64.64177    -15.8 9.780e+03 2.159e-10
 64.66255    -14.6 9.733e+03 2.387e-10
 64.70322    -13.4 9.689e+03 2.711e-10
 64.74390    -12.1 9.661e+03 2.993e-10
 64.77291    -10.8 9.656e+03 3.100e-10
 64.79325    -10.2 9.598e+03 3.070e-10
 64.82524     -8.7 9.452e+03 2.922e-10
 64.86592     -7.1 9.362e+03 2.455e-10
 64.90405     -5.6 9.322e+03 2.001e-10
 64.92438     -5.0 9.332e+03 1.833e-10
 64.94726     -4.0 9.313e+03 1.636e-10
 64.98794     -2.7 9.307e+03 1.635e-10
 65.02861     -1.2 9.303e+03 1.830e-10
 65.05552      0.6 9.342e+03 1.949e-10
 65.07586      1.2 9.333e+03 1.974e-10
 65.10996      2.7 9.383e+03 1.888e-10
 65.15063      4.0 9.388e+03 1.890e-10
 65.18666      5.0 9.392e+03 2.020e-10
 65.20700      4.5 9.592e+03 2.564e-10
 65.23198      5.7 9.622e+03 3.160e-10
 65.27265      7.6 9.622e+03 3.741e-10
 65.31332      9.5 9.666e+03 3.817e-10
 65.33813     10.8 9.831e+03 3.945e-10
 65.35847     10.8 9.971e+03 4.526e-10
 65.39467     12.1 9.989e+03 4.396e-10
 65.43534     13.6 1.007e+04 4.531e-10
 65.46927     15.0 1.018e+04 4.620e-10
 65.48961     14.2 1.001e+04 3.777e-10
 65.51669     15.3 1.003e+04 4.169e-10
 65.55736     16.7 1.004e+04 4.752e-10
 65.59804     18.2 1.007e+04 5.143e-10
 65.62075     19.6 1.018e+04 5.308e-10
 65.64108     19.0 1.010e+04 5.031e-10
 65.67938     20.3 1.017e+04 5.344e-10
 65.72006     21.5 1.026e+04 5.484e-10
 65.75188     22.7 1.034e+04 5.689e-10
 65.77222     22.6 1.016e+04 5.442e-10
 65.80140     23.9 1.012e+04 4.314e-10
 65.84208     24.8 1.012e+04 3.298e-10
 65.88275     25.6 1.006e+04 2.767e-10
 65.90336     26.8 9.850e+03 2.696e-10
 65.92369     27.0 9.587e+03 2.358e-10
 65.96410     28.9 9.455e+03 2.243e-10
 66.00477     31.0 9.409e+03 2.122e-10
 66.03450     33.0 9.426e+03 2.153e-10
 66.05483     33.7 9.224e+03 1.464e-10
 66.08612     35.7 9.212e+03 1.517e-10
 66.12679     37.9 9.222e+03 1.728e-10
 66.16563     40.3 9.281e+03 2.089e-10
 66.18597     41.1 9.051e+03 1.119e-10
 66.20814     43.5 9.104e+03 1.296e-10
 66.24881     45.9 9.182e+03 1.469e-10
 66.28949     48.3 9.248e+03 1.584e-10
 66.31711     50.6 9.304e+03 1.632e-10
 66.33744     51.2 9.139e+03 1.019e-10
 66.37083     53.5 9.165e+03 1.137e-10
 66.41151     56.0 9.207e+03 1.244e-10
 66.44825     58.4 9.256e+03 1.356e-10
 66.46858     59.2 9.129e+03 1.055e-10
 66.47533     61.7 9.192e+03 1.159e-10
 66.49566     61.8 9.077e+03 1.022e-10
 66.53353     64.1 9.144e+03 1.093e-10
 66.57420     66.4 9.215e+03 1.178e-10
 66.59972     68.6 9.282e+03 1.302e-10
 66.62006     69.7 9.173e+03 1.108e-10
 66.65555     71.9 9.240e+03 1.235e-10
 66.69622     74.1 9.304e+03 1.413e-10
 66.73086     76.3 9.370e+03 1.635e-10
 66.75119     77.3 9.302e+03 1.336e-10
 66.77757     79.5 9.387e+03 1.475e-10
 66.81824     81.6 9.478e+03 1.590e-10
 66.85891     83.7 9.563e+03 1.652e-10
 66.88233     85.6 9.616e+03 1.684e-10
 66.90267     86.7 9.556e+03 1.521e-10
 66.94026     88.6 9.616e+03 1.589e-10
 66.98093     90.6 9.669e+03 1.656e-10
 67.01347     92.4 9.724e+03 1.760e-10
 67.03381     93.6 9.718e+03 1.710e-10
 67.06228     95.4 9.798e+03 1.914e-10
 67.10295     97.2 9.912e+03 2.274e-10
 67.14363     98.9 1.008e+04 2.749e-10
 67.16494    100.6 1.031e+04 3.194e-10
 67.18528    101.6 1.030e+04 3.132e-10
 67.22497    103.2 1.052e+04 3.372e-10
 67.26565    104.7 1.063e+04 3.335e-10
 67.29608    106.1 1.076e+04 3.122e-10
 67.31642    107.2 1.074e+04 3.319e-10
 67.34699    108.7 1.088e+04 3.167e-10
 67.38767    110.2 1.097e+04 3.177e-10
 67.42722    111.6 1.112e+04 3.306e-10
 67.44756    112.9 1.117e+04 3.673e-10
 67.46901    114.3 1.138e+04 4.272e-10
 67.50969    115.6 1.156e+04 5.167e-10
 67.55036    116.9 1.166e+04 6.057e-10
 67.57869    118.5 1.169e+04 6.552e-10
 67.58876    118.5 1.178e+04 7.828e-10
 67.60101    119.3 1.186e+04 8.071e-10
 67.62134    120.2 1.186e+04 7.981e-10
 67.64168    120.8 1.185e+04 7.860e-10
 67.65424    121.8 1.180e+04 7.332e-10
 67.66440    122.2 1.198e+04 9.181e-10
 67.68235    123.0 1.191e+04 8.410e-10
 67.70973    124.1 1.174e+04 6.487e-10
 67.73007    124.9 1.181e+04 7.616e-10
 67.75363    126.5 1.177e+04 6.559e-10
 67.79440    128.3 1.168e+04 5.690e-10
 67.83507    130.3 1.149e+04 4.848e-10
 67.86131    132.3 1.129e+04 4.069e-10
 67.88164    132.8 1.152e+04 5.328e-10
 67.91642    134.8 1.130e+04 4.317e-10
 67.95709    136.7 1.108e+04 3.357e-10
 67.99244    138.4 1.090e+04 2.650e-10
 68.01278    139.2 1.094e+04 2.845e-10
 68.03844    140.9 1.079e+04 2.252e-10
 68.07911    142.6 1.069e+04 2.058e-10
 68.11979    144.3 1.069e+04 2.070e-10
 68.14392    145.9 1.070e+04 2.191e-10
 68.16426    146.5 1.061e+04 1.852e-10
 68.20113    148.1 1.064e+04 1.949e-10
 68.24181    149.6 1.067e+04 2.161e-10
 68.27506    151.1 1.069e+04 2.479e-10
 68.29539    151.8 1.059e+04 1.943e-10
 68.32316    153.5 1.062e+04 2.261e-10
 68.36383    155.3 1.064e+04 2.664e-10
 68.40450    157.2 1.069e+04 3.066e-10
 68.42653    159.1 1.079e+04 3.425e-10
 68.44687    160.2 1.065e+04 2.996e-10
 68.48585    162.3 1.084e+04 3.634e-10
 68.52652    164.3 1.109e+04 4.419e-10
 68.55767    166.1 1.129e+04 5.198e-10
 68.57800    167.2 1.131e+04 5.157e-10
 68.60787    169.0 1.144e+04 5.875e-10
 68.64854    170.6 1.144e+04 5.834e-10
 68.68881    172.3 1.134e+04 5.178e-10
 68.70914    173.4 1.147e+04 5.933e-10
 68.72989    175.2 1.140e+04 5.189e-10
 68.77056    176.5 1.124e+04 4.094e-10
 68.81124    177.7 1.103e+04 3.351e-10
 68.84028    178.7 1.082e+04 2.981e-10
 68.86062    180.2 1.129e+04 4.005e-10
 68.89258    181.1 1.109e+04 3.662e-10
 68.93326    181.7 1.093e+04 3.537e-10
 68.97142    181.9 1.087e+04 3.526e-10
 68.99166    182.3 1.095e+04 4.012e-10
 69.00424    182.1 1.088e+04 4.018e-10
 69.02458    182.0 1.085e+04 4.007e-10
 69.04491    182.0 1.082e+04 4.038e-10
 69.05713    182.0 1.078e+04 4.231e-10
 69.06730    183.0 1.082e+04 4.735e-10
 69.08559    182.9 1.084e+04 5.001e-10
 69.10592    182.6 1.090e+04 5.315e-10
 69.12270    182.1 1.099e+04 5.778e-10
 69.13287    182.9 1.094e+04 5.272e-10
 69.14660    182.1 1.107e+04 5.796e-10
 69.16693    180.6 1.134e+04 7.406e-10
 69.18727    178.4 1.211e+04 1.170e-09
 69.19843    175.1 1.357e+04 2.140e-09
 69.20860    175.1 1.400e+04 2.345e-09
 69.22794    171.1 1.543e+04 4.199e-09
 69.24315    169.7 1.592e+04 5.282e-09
 69.25327    168.1 1.652e+04 6.371e-09
 69.26343    165.5 1.739e+04 7.834e-09
 69.26899    162.2 1.819e+04 9.338e-09
 69.27407    162.7 1.838e+04 1.027e-08
 69.28377    159.1 1.892e+04 1.153e-08
 69.29394    155.5 1.869e+04 1.231e-08
 69.30177    151.8 1.853e+04 1.219e-08
 69.30686    152.3 1.885e+04 1.287e-08
 69.31428    149.1 1.831e+04 1.225e-08
 69.32952    146.3 1.776e+04 1.092e-08
 69.34991    142.1 1.733e+04 9.531e-09
 69.37030    139.3 1.660e+04 7.059e-09
 69.39064    136.4 1.558e+04 4.194e-09
 69.40531    133.0 1.429e+04 2.261e-09
 69.41548    130.8 1.504e+04 2.918e-09
 69.43131    127.5 1.351e+04 1.929e-09
 69.45165    125.9 1.258e+04 1.640e-09
 69.47088    125.5 1.229e+04 1.561e-09
 69.48105    124.1 1.279e+04 2.023e-09
 69.49232    124.2 1.256e+04 1.848e-09
 69.51266    124.5 1.236e+04 1.630e-09
 69.53299    125.0 1.211e+04 1.391e-09
 69.54662    125.4 1.191e+04 1.179e-09
 69.55678    123.8 1.207e+04 1.272e-09
 69.57367    124.2 1.191e+04 1.131e-09
 69.59400    124.6 1.181e+04 1.025e-09
 69.61218    125.0 1.176e+04 9.548e-10
 69.62235    122.9 1.215e+04 1.100e-09
 69.63468    123.1 1.226e+04 1.102e-09
 69.65501    123.4 1.241e+04 1.136e-09
 69.67535    123.7 1.257e+04 1.192e-09
 69.68792    124.1 1.275e+04 1.274e-09
 69.69809    121.0 1.347e+04 1.949e-09
 69.71602    121.4 1.363e+04 2.154e-09
 69.73636    121.8 1.379e+04 2.409e-09
 69.75349    122.2 1.395e+04 2.717e-09
 69.76366    119.9 1.413e+04 3.222e-09
 69.77703    120.5 1.420e+04 3.336e-09
 69.79737    121.0 1.431e+04 3.454e-09
 69.81771    121.3 1.443e+04 3.551e-09
 69.82923    121.5 1.453e+04 3.549e-09
 69.83940    119.1 1.435e+04 2.967e-09
 69.85838    118.8 1.438e+04 2.789e-09
 69.87872    118.1 1.430e+04 2.620e-09
 69.89480    117.4 1.405e+04 2.478e-09
 69.90496    115.0 1.390e+04 2.538e-09
 69.91939    114.7 1.366e+04 2.412e-09
 69.93973    114.5 1.330e+04 2.154e-09
 69.96006    114.4 1.292e+04 1.775e-09
 69.97063    114.1 1.238e+04 1.220e-09
 69.99107    112.4 1.235e+04 1.160e-09
 70.03144    112.5 1.147e+04 5.991e-10
 70.07211    112.6 1.056e+04 3.147e-10
 70.10187    113.0 9.956e+03 2.571e-10
 70.12220    112.9 9.871e+03 2.198e-10
 70.15346    114.3 9.848e+03 2.192e-10
 70.19413    115.9 9.857e+03 2.235e-10
 70.23300    117.3 9.906e+03 2.435e-10
 70.25334    117.7 9.913e+03 2.271e-10
 70.27548    118.8 1.010e+04 2.861e-10
 70.31615    119.7 1.031e+04 3.563e-10
 70.35683    120.5 1.047e+04 4.221e-10
 70.38448    121.3 1.056e+04 4.501e-10
 70.40482    121.2 1.080e+04 5.045e-10
 70.43817    121.7 1.075e+04 4.889e-10
 70.47885    122.2 1.058e+04 4.111e-10
 70.51562    122.6 1.032e+04 2.884e-10
 70.53595    121.9 1.040e+04 2.993e-10
 70.56019    122.1 1.002e+04 1.944e-10
 70.60087    122.3 9.764e+03 1.569e-10
 70.64154    123.0 9.749e+03 1.577e-10
 70.66709    124.1 9.759e+03 1.644e-10
 70.68743    123.8 9.819e+03 1.829e-10
 70.72289    125.2 9.833e+03 1.848e-10
 70.76356    126.8 9.852e+03 1.829e-10
 70.79823    128.6 9.863e+03 1.806e-10
 70.81856    128.0 9.869e+03 1.700e-10
 70.84491    129.6 9.856e+03 1.520e-10
 70.88558    131.3 9.861e+03 1.413e-10
 70.92625    132.9 9.870e+03 1.375e-10
 70.94970    134.6 9.845e+03 1.386e-10
 70.97004    133.6 9.800e+03 1.376e-10
 70.98930    135.4 9.787e+03 1.411e-10
 71.00963    135.6 9.613e+03 1.166e-10
 71.04827    137.5 9.616e+03 1.236e-10
 71.08084    139.4 9.633e+03 1.301e-10
 71.10118    138.4 9.727e+03 1.423e-10
 71.12962    140.3 9.747e+03 1.493e-10
 71.17029    142.1 9.786e+03 1.582e-10
 71.21097    143.8 9.857e+03 1.727e-10
 71.23231    145.5 9.955e+03 1.960e-10
 71.25265    144.9 1.035e+04 3.353e-10
 71.29231    146.5 1.049e+04 3.837e-10
 71.33299    148.2 1.057e+04 4.201e-10
 71.36345    149.9 1.058e+04 4.482e-10
 71.38379    150.1 1.094e+04 6.820e-10
 71.41433    152.1 1.104e+04 6.982e-10
 71.45501    153.7 1.115e+04 7.094e-10
 71.49459    155.2 1.129e+04 7.101e-10
 71.51493    154.5 1.132e+04 7.007e-10
 71.52609    155.0 1.133e+04 6.670e-10
 71.54633    155.5 1.129e+04 6.224e-10
 71.56666    156.0 1.123e+04 5.678e-10
 71.58030    156.6 1.114e+04 5.057e-10
 71.59047    156.2 1.107e+04 5.005e-10
 71.60734    156.8 1.099e+04 4.481e-10
 71.62767    157.3 1.095e+04 4.040e-10
 71.64587    157.8 1.099e+04 3.827e-10
 71.66630    158.4 1.096e+04 3.882e-10
 71.69905    159.7 1.109e+04 4.033e-10
 71.72170    159.9 1.122e+04 4.157e-10
 71.73177    159.9 1.119e+04 4.047e-10
 71.74969    160.1 1.133e+04 4.167e-10
 71.77003    160.2 1.151e+04 4.474e-10
 71.78718    160.2 1.166e+04 4.885e-10
 71.79744    160.0 1.132e+04 4.438e-10
 71.81080    159.6 1.145e+04 4.558e-10
 71.83104    159.4 1.153e+04 4.732e-10
 71.85138    158.9 1.162e+04 5.061e-10
 71.86291    158.4 1.167e+04 5.426e-10
 71.87308    158.3 1.170e+04 5.431e-10
 71.89205    157.6 1.184e+04 5.928e-10
 71.91239    157.0 1.198e+04 6.459e-10
 71.92848    156.3 1.217e+04 6.994e-10
 71.94892    156.6 1.182e+04 5.584e-10
 71.98376    155.4 1.192e+04 5.674e-10
 72.02443    154.5 1.188e+04 5.591e-10
 72.05981    154.4 1.186e+04 5.444e-10
 72.08015    154.7 1.168e+04 4.795e-10
 72.10578    154.8 1.177e+04 5.492e-10
 72.14645    155.4 1.187e+04 6.205e-10
 72.18713    156.3 1.199e+04 6.837e-10
 72.21129    157.7 1.199e+04 6.720e-10
 72.23163    157.9 1.213e+04 7.382e-10
 72.25821    158.6 1.216e+04 7.420e-10
 72.27666    159.2 1.214e+04 7.275e-10
 72.28683    159.1 1.220e+04 7.496e-10
 72.29878    159.7 1.217e+04 7.304e-10
 72.31912    160.2 1.212e+04 7.048e-10
 72.33946    160.7 1.207e+04 6.743e-10
 72.35240    161.2 1.203e+04 6.454e-10
 72.36257    161.1 1.197e+04 6.217e-10
 72.38013    161.3 1.196e+04 5.975e-10
 72.40047    161.5 1.195e+04 5.749e-10
 72.41797    161.6 1.194e+04 5.502e-10
 72.42814    161.4 1.199e+04 5.361e-10
 72.44114    161.4 1.197e+04 5.103e-10
 72.47174    161.4 1.194e+04 4.579e-10
 72.49390    161.2 1.192e+04 4.148e-10
 72.51424    161.2 1.186e+04 3.869e-10
 72.55319    161.0 1.186e+04 3.873e-10
 72.58360    160.9 1.186e+04 4.085e-10
 72.60384    160.9 1.186e+04 4.614e-10
 72.62417    160.8 1.195e+04 5.601e-10
 72.63501    160.6 1.213e+04 6.731e-10
 72.64518    161.1 1.199e+04 5.839e-10
 72.66485    161.0 1.217e+04 6.749e-10
 72.68518    160.7 1.237e+04 7.194e-10
 72.70058    160.2 1.247e+04 7.210e-10
 72.71075    161.1 1.235e+04 6.674e-10
 72.72586    160.6 1.237e+04 6.550e-10
 72.74619    160.0 1.238e+04 6.265e-10
 72.76615    159.5 1.231e+04 6.393e-10
 72.77632    160.7 1.227e+04 5.929e-10
 72.78687    160.3 1.225e+04 6.250e-10
 72.80720    160.3 1.216e+04 6.831e-10
 72.82754    160.5 1.210e+04 7.675e-10
 72.84189    160.8 1.197e+04 8.643e-10
 72.85205    161.6 1.221e+04 8.577e-10
 72.86821    161.9 1.217e+04 1.027e-09
 72.88855    162.4 1.217e+04 1.209e-09
 72.90746    162.9 1.226e+04 1.392e-09
 72.91762    163.5 1.264e+04 1.583e-09
 72.92922    163.9 1.286e+04 1.973e-09
 72.94956    164.4 1.317e+04 2.439e-09
 72.96990    164.7 1.345e+04 2.968e-09
 72.98319    165.1 1.368e+04 3.559e-09
 72.99336    165.6 1.408e+04 4.189e-09
 73.01057    166.1 1.443e+04 4.868e-09
 73.03091    166.4 1.465e+04 4.949e-09
 73.04876    166.4 1.468e+04 4.872e-09
 73.05893    166.7 1.463e+04 4.760e-09
 73.07158    166.6 1.464e+04 4.402e-09
 73.09192    166.4 1.449e+04 3.663e-09
 73.11225    166.1 1.412e+04 2.767e-09
 73.12450    165.8 1.356e+04 1.963e-09
 73.13467    166.0 1.332e+04 1.753e-09
 73.15293    165.6 1.274e+04 1.205e-09
 73.17326    165.2 1.219e+04 8.553e-10
 73.19017    165.5 1.177e+04 6.223e-10
 73.21060    165.8 1.158e+04 5.637e-10
 73.24464    166.6 1.118e+04 3.939e-10
 73.28531    167.7 1.081e+04 2.575e-10
 73.32140    168.7 1.050e+04 1.831e-10
 73.34174    169.3 1.052e+04 2.026e-10
 73.36666    170.4 1.023e+04 1.639e-10
 73.40733    171.5 1.016e+04 1.630e-10
 73.44800    172.7 1.027e+04 1.790e-10
 73.47287    173.9 1.059e+04 2.691e-10
 73.49321    174.0 1.034e+04 2.250e-10
 73.52935    175.4 1.075e+04 3.484e-10
 73.55976    175.7 1.091e+04 4.288e-10
 73.58000    176.1 1.108e+04 5.260e-10
 73.60033    176.5 1.126e+04 6.488e-10
 73.61399    176.9 1.141e+04 7.729e-10
 73.62415    177.1 1.103e+04 5.440e-10
 73.64101    177.4 1.118e+04 6.506e-10
 73.66134    177.8 1.134e+04 7.716e-10
 73.67955    178.2 1.152e+04 9.123e-10
 73.68972    178.2 1.126e+04 7.153e-10
 73.70202    178.7 1.149e+04 8.767e-10
 73.72235    179.1 1.176e+04 1.072e-09
 73.74269    179.5 1.203e+04 1.269e-09
 73.75529    179.8 1.230e+04 1.460e-09
 73.77573    180.5 1.169e+04 1.006e-09
 73.81406    181.0 1.184e+04 1.099e-09
 73.85474    181.1 1.181e+04 1.066e-09
 73.88662    181.2 1.165e+04 9.613e-10
 73.90696    181.4 1.106e+04 6.491e-10
 73.93608    181.8 1.085e+04 5.414e-10
 73.97676    182.4 1.067e+04 4.646e-10
 74.01743    183.4 1.065e+04 4.543e-10
 74.03810    184.4 1.069e+04 4.667e-10
 74.05844    184.7 1.046e+04 3.799e-10
 74.09878    185.9 1.053e+04 4.163e-10
 74.13945    187.0 1.063e+04 4.663e-10
 74.16924    188.2 1.073e+04 5.236e-10
 74.18957    188.6 1.035e+04 3.794e-10
 74.22080    189.8 1.042e+04 4.237e-10
 74.26147    191.2 1.050e+04 4.734e-10
 74.30037    192.4 1.063e+04 5.359e-10
 74.32071    192.9 1.032e+04 4.132e-10
 74.33255    193.4 1.045e+04 4.585e-10
 74.35279    193.6 1.055e+04 4.998e-10
 74.37313    194.1 1.061e+04 5.282e-10
 74.38608    194.3 1.060e+04 5.300e-10
 74.39625    194.3 1.057e+04 5.021e-10
 74.42407    195.4 1.061e+04 5.490e-10
 74.45185    196.1 1.058e+04 5.554e-10
 74.47219    196.5 1.040e+04 4.776e-10
 74.50551    197.1 1.040e+04 4.984e-10
 74.54619    197.6 1.039e+04 5.156e-10
 74.58299    197.6 1.041e+04 5.402e-10
 74.60332    197.6 1.055e+04 6.029e-10
 74.62753    197.7 1.077e+04 6.781e-10
 74.65794    197.2 1.095e+04 7.427e-10
 74.66870    196.8 1.131e+04 8.260e-10
 74.67887    197.0 1.142e+04 8.982e-10
 74.69852    196.1 1.206e+04 1.160e-09
 74.71885    194.9 1.284e+04 1.660e-09
 74.73427    193.7 1.376e+04 2.548e-09
 74.74443    194.2 1.357e+04 2.429e-09
 74.75953    193.0 1.447e+04 3.643e-09
 74.77986    191.8 1.525e+04 5.206e-09
 74.79983    190.5 1.576e+04 6.280e-09
 74.81000    190.6 1.554e+04 5.913e-09
 74.82054    188.9 1.567e+04 6.051e-09
 74.84087    187.1 1.560e+04 5.886e-09
 74.86121    185.5 1.521e+04 5.136e-09
 74.87557    184.3 1.452e+04 4.047e-09
 74.88574    184.4 1.440e+04 3.811e-09
 74.90188    183.7 1.366e+04 2.794e-09
 74.92222    183.0 1.309e+04 2.055e-09
 74.95282    181.6 1.211e+04 9.295e-10
 74.99359    180.3 1.095e+04 4.501e-10
 75.01707    179.8 1.012e+04 2.657e-10
 75.03741    179.7 9.751e+03 1.843e-10
 75.07494    179.9 9.660e+03 1.638e-10
 75.11561    180.8 9.628e+03 1.635e-10
 75.14821    182.0 9.625e+03 1.659e-10
 75.16855    183.0 9.530e+03 1.618e-10
 75.19696    184.2 9.616e+03 1.721e-10
 75.23763    185.1 9.729e+03 1.894e-10
 75.27831    185.6 9.900e+03 2.175e-10
 75.29969    185.6 1.012e+04 2.558e-10
 75.32002    186.4 9.993e+03 2.279e-10
 75.35965    186.2 1.031e+04 2.796e-10
 75.40033    185.7 1.069e+04 3.764e-10
 75.43082    184.9 1.103e+04 5.256e-10
 75.45116    185.6 1.095e+04 4.776e-10
 75.48167    184.7 1.126e+04 5.981e-10
 75.50326    183.6 1.136e+04 6.136e-10
 75.52360    183.5 1.130e+04 5.728e-10
 75.56196    182.4 1.131e+04 5.339e-10
 75.58230    183.0 1.111e+04 4.267e-10
 75.60369    182.2 1.106e+04 3.396e-10
 75.64437    182.1 1.105e+04 2.714e-10
 75.68504    182.0 1.105e+04 2.374e-10
 75.71344    182.3 1.101e+04 2.261e-10
 75.73377    182.8 1.097e+04 2.149e-10
 75.76639    183.6 1.097e+04 2.278e-10
 75.80706    184.5 1.108e+04 2.342e-10
 75.84457    185.6 1.116e+04 2.472e-10
 75.86491    186.2 1.116e+04 2.688e-10
 75.88841    187.3 1.122e+04 2.973e-10
 75.92908    188.3 1.134e+04 3.451e-10
 75.96975    189.2 1.154e+04 4.340e-10
 75.99605    190.2 1.180e+04 5.706e-10
 76.00612    190.4 1.168e+04 5.284e-10
 76.02040    190.5 1.178e+04 5.840e-10
 76.04074    190.7 1.195e+04 6.729e-10
 76.06107    190.9 1.207e+04 7.438e-10
 76.07159    191.0 1.221e+04 8.217e-10
 76.08176    191.3 1.223e+04 8.420e-10
 76.10175    191.3 1.240e+04 9.476e-10
 76.12208    191.3 1.257e+04 1.080e-09
 76.13716    191.2 1.276e+04 1.236e-09
 76.14733    191.5 1.271e+04 1.217e-09
 76.16276    191.3 1.290e+04 1.375e-09
 76.18309    191.1 1.308e+04 1.544e-09
 76.20273    190.8 1.324e+04 1.714e-09
 76.21290    191.0 1.324e+04 1.704e-09
 76.22377    190.6 1.340e+04 1.863e-09
 76.24410    190.2 1.355e+04 1.944e-09
 76.26444    189.6 1.359e+04 1.946e-09
 76.27846    188.9 1.359e+04 1.920e-09
 76.28863    189.0 1.363e+04 1.980e-09
 76.30511    188.3 1.359e+04 1.905e-09
 76.32545    187.7 1.349e+04 1.777e-09
 76.34403    187.2 1.335e+04 1.646e-09
 76.35420    187.3 1.347e+04 1.802e-09
 76.36612    186.9 1.334e+04 1.705e-09
 76.38646    186.6 1.324e+04 1.643e-09
 76.40680    186.5 1.318e+04 1.619e-09
 76.41977    186.5 1.318e+04 1.631e-09
 76.42994    186.4 1.328e+04 1.752e-09
 76.44747    186.4 1.331e+04 1.786e-09
 76.46781    186.4 1.339e+04 1.866e-09
 76.48534    186.4 1.354e+04 2.012e-09
 76.49551    186.3 1.356e+04 2.070e-09
 76.50848    186.3 1.371e+04 2.237e-09
 76.52882    186.3 1.391e+04 2.494e-09
 76.54915    186.3 1.417e+04 2.865e-09
 76.56108    186.1 1.448e+04 3.346e-09
 76.57124    186.1 1.415e+04 2.762e-09
 76.58983    185.9 1.439e+04 3.084e-09
 76.61016    185.6 1.464e+04 3.569e-09
 76.62664    185.3 1.485e+04 4.152e-09
 76.63681    185.3 1.439e+04 3.143e-09
 76.65084    185.0 1.459e+04 3.560e-09
 76.67117    184.7 1.475e+04 3.869e-09
 76.69151    184.4 1.489e+04 3.976e-09
 76.70238    184.0 1.490e+04 3.924e-09
 76.71255    183.9 1.470e+04 3.453e-09
 76.73219    183.2 1.478e+04 3.467e-09
 76.75252    182.2 1.484e+04 3.460e-09
 76.76795    180.9 1.492e+04 3.547e-09
 76.77812    180.6 1.494e+04 3.576e-09
 76.79320    179.1 1.511e+04 3.941e-09
 76.81353    176.9 1.567e+04 5.097e-09
 76.83352    172.9 1.752e+04 8.418e-09
 76.84369    170.9 1.814e+04 9.386e-09
 76.85421    165.8 2.010e+04 1.666e-08
 76.86941    162.0 2.133e+04 2.471e-08
 76.87637    158.7 2.210e+04 3.314e-08
 76.88146    157.8 2.214e+04 3.617e-08
 76.88970    154.4 2.230e+04 3.851e-08
 76.89987    150.9 2.223e+04 3.747e-08
 76.90921    146.3 2.164e+04 2.838e-08
 76.91943    145.7 2.117e+04 2.492e-08
 76.93555    140.8 1.943e+04 1.182e-08
 76.95589    135.9 1.685e+04 4.208e-09
 76.97483    130.2 1.406e+04 1.783e-09
 76.98499    130.3 1.372e+04 1.562e-09
 76.99656    127.3 1.311e+04 1.401e-09
 77.02716    125.3 1.277e+04 1.232e-09
 77.06794    123.4 1.235e+04 9.707e-10
 77.10616    122.4 1.191e+04 6.380e-10
 77.12650    123.4 1.200e+04 7.219e-10
 77.14928    122.7 1.156e+04 4.213e-10
 77.18996    122.2 1.113e+04 2.394e-10
 77.23063    122.1 1.087e+04 1.762e-10
 77.25763    122.4 1.077e+04 1.603e-10
 77.27797    123.2 1.081e+04 2.065e-10
 77.31198    124.2 1.083e+04 2.126e-10
 77.35265    125.3 1.085e+04 2.149e-10
 77.38877    126.5 1.084e+04 2.072e-10
 77.40911    127.4 1.083e+04 2.329e-10
 77.43400    128.9 1.075e+04 1.911e-10
 77.47467    130.5 1.066e+04 1.463e-10
 77.51534    132.1 1.063e+04 1.079e-10
 77.54025    133.5 1.063e+04 8.365e-11
 77.56058    134.4 1.066e+04 8.449e-11
 77.59669    135.8 1.065e+04 8.046e-11
 77.63736    137.4 1.065e+04 8.076e-11
 77.67138    139.0 1.064e+04 8.331e-11
 77.69172    139.8 1.067e+04 8.714e-11
 77.71871    141.3 1.071e+04 9.142e-11
 77.75938    142.9 1.077e+04 9.904e-11
 77.80006    144.3 1.082e+04 1.099e-10
 77.82286    145.7 1.090e+04 1.227e-10
 77.84319    146.3 1.085e+04 1.141e-10
 77.88140    147.5 1.090e+04 1.273e-10
 77.92208    148.5 1.095e+04 1.467e-10
 77.95400    149.6 1.099e+04 1.717e-10
 77.97433    149.9 1.095e+04 1.709e-10
 78.00342    150.9 1.112e+04 2.092e-10
 78.04410    151.9 1.134e+04 2.442e-10
 78.08477    152.8 1.140e+04 2.513e-10
 78.10547    153.8 1.138e+04 2.423e-10
 78.12581    154.3 1.143e+04 2.651e-10
 78.16612    155.5 1.137e+04 2.247e-10
 78.20679    156.8 1.131e+04 1.766e-10
 78.23661    158.1 1.125e+04 1.376e-10
 78.25694    158.4 1.136e+04 1.434e-10
 78.28814    159.7 1.124e+04 1.252e-10
 78.32881    161.2 1.098e+04 1.227e-10
 78.36775    162.7 1.082e+04 1.227e-10
 78.38808    163.2 1.092e+04 1.444e-10
 78.41016    164.8 1.084e+04 1.455e-10
 78.45083    166.4 1.074e+04 1.471e-10
 78.49150    167.8 1.064e+04 1.494e-10
 78.51922    169.2 1.054e+04 1.555e-10
 78.53956    169.7 1.060e+04 1.844e-10
 78.57285    171.0 1.049e+04 1.950e-10
 78.61353    172.1 1.040e+04 2.020e-10
 78.65036    173.2 1.034e+04 2.003e-10
 78.67069    173.7 1.042e+04 2.288e-10
 78.69487    174.8 1.025e+04 2.130e-10
 78.73555    176.0 1.007e+04 1.820e-10
 78.77622    177.3 9.933e+03 1.449e-10
 78.80183    178.6 9.835e+03 1.118e-10
 78.82217    179.0 9.865e+03 1.187e-10
 78.85757    180.3 9.766e+03 9.120e-11
 78.89824    181.6 9.490e+03 8.309e-11
 78.93297    183.1 9.433e+03 8.265e-11
 78.95331    183.6 9.453e+03 8.796e-11
 78.97959    185.4 9.445e+03 8.790e-11
 79.02026    187.3 9.418e+03 9.099e-11
 79.06093    189.2 9.413e+03 1.003e-10
 79.08444    191.2 9.447e+03 1.160e-10
 79.10478    191.6 9.501e+03 1.230e-10
 79.14228    193.5 9.546e+03 1.515e-10
 79.18295    195.4 9.634e+03 1.939e-10
 79.21558    197.2 9.766e+03 2.503e-10
 79.23592    197.6 9.883e+03 2.775e-10
 79.26430    199.3 1.013e+04 3.572e-10
 79.30497    200.8 1.036e+04 4.415e-10
 79.34565    202.1 1.056e+04 5.191e-10
 79.36706    203.2 1.061e+04 5.836e-10
 79.38739    203.1 1.077e+04 5.975e-10
 79.42699    204.0 1.073e+04 6.631e-10
 79.46767    204.8 1.070e+04 6.700e-10
 79.49819    205.5 1.067e+04 6.614e-10
 79.51853    205.3 1.078e+04 7.137e-10
 79.54901    206.1 1.071e+04 6.985e-10
 79.58969    207.3 1.055e+04 6.485e-10
 79.62933    208.2 1.039e+04 5.779e-10
 79.64967    207.8 1.029e+04 5.445e-10
 79.67103    208.6 9.998e+03 4.146e-10
 79.71171    209.2 9.701e+03 3.021e-10
 79.75238    209.7 9.399e+03 2.214e-10
 79.78081    210.2 9.140e+03 1.802e-10
 79.80114    209.8 8.948e+03 1.485e-10
 79.83373    210.5 8.924e+03 1.492e-10
 79.87440    211.4 8.915e+03 1.562e-10
 79.91194    212.1 8.945e+03 1.854e-10
 79.93228    212.0 8.889e+03 1.817e-10
 79.95575    212.7 8.992e+03 2.322e-10
 79.99642    213.3 9.049e+03 2.778e-10
 80.01723    213.8 9.038e+03 2.883e-10
 80.03757    212.9 9.064e+03 2.897e-10
 80.06342    213.3 8.947e+03 2.672e-10
 80.08375    213.2 8.921e+03 2.629e-10
 80.11844    213.6 8.780e+03 2.374e-10
 80.15911    214.1 8.645e+03 2.134e-10
 80.19456    214.5 8.542e+03 1.942e-10
 80.21489    214.2 8.472e+03 1.850e-10
 80.24046    214.6 8.366e+03 1.668e-10
 80.28113    215.0 8.264e+03 1.495e-10
 80.32181    215.5 8.155e+03 1.318e-10
 80.34603    216.1 8.036e+03 1.143e-10
 80.36637    215.8 7.900e+03 1.012e-10
 80.40315    216.6 7.813e+03 9.161e-11
 80.44383    217.6 7.759e+03 8.534e-11
 80.47717    218.7 7.741e+03 8.254e-11
 80.49750    218.8 7.735e+03 8.315e-11
 80.52517    220.1 7.745e+03 8.348e-11
 80.56585    221.5 7.781e+03 8.382e-11
 80.60652    222.9 7.819e+03 8.405e-11
 80.62864    224.3 7.853e+03 8.417e-11
 80.64898    224.4 7.859e+03 8.468e-11
 80.68787    225.9 7.880e+03 8.457e-11
 80.72854    227.5 7.910e+03 8.468e-11
 80.75978    229.0 7.978e+03 8.563e-11
 80.78012    229.4 7.983e+03 8.711e-11
 80.80989    231.0 8.093e+03 9.213e-11
 80.85056    232.6 8.211e+03 1.045e-10
 80.89092    234.3 8.409e+03 1.300e-10
 80.91125    234.7 8.535e+03 1.452e-10
 80.93191    236.4 8.903e+03 1.906e-10
 80.97258    238.1 9.357e+03 2.510e-10
 81.01326    239.8 9.825e+03 3.193e-10
 81.04239    240.8 1.009e+04 3.701e-10
 81.05246    240.9 1.014e+04 3.710e-10
 81.06390    241.7 1.026e+04 4.131e-10
 81.08424    242.6 1.045e+04 5.071e-10
 81.10458    243.6 1.070e+04 6.429e-10
 81.11793    244.4 1.107e+04 8.119e-10
 81.12810    244.4 1.128e+04 9.447e-10
 81.14525    244.6 1.179e+04 1.186e-09
 81.16559    244.5 1.237e+04 1.496e-09
 81.18350    244.2 1.300e+04 1.905e-09
 81.19367    244.2 1.328e+04 2.148e-09
 81.20626    243.6 1.385e+04 2.665e-09
 81.22660    242.8 1.429e+04 3.160e-09
 81.24693    242.1 1.459e+04 3.466e-09
 81.25924    241.4 1.483e+04 3.614e-09
 81.26941    240.8 1.539e+04 3.989e-09
 81.28761    237.6 1.644e+04 4.152e-09
 81.30794    233.1 1.719e+04 4.236e-09
 81.32315    230.4 1.715e+04 4.228e-09
 81.32979    228.8 1.713e+04 4.304e-09
 81.33488    227.8 1.721e+04 4.472e-09
 81.34343    225.3 1.757e+04 5.095e-09
 81.35360    222.3 1.833e+04 6.407e-09
 81.36258    219.1 1.921e+04 8.666e-09
 81.36766    216.5 2.016e+04 1.135e-08
 81.37394    213.7 2.078e+04 1.587e-08
 81.38411    211.2 2.117e+04 2.119e-08
 81.39428    209.0 2.139e+04 2.671e-08
 81.40045    207.1 2.149e+04 3.197e-08
 81.40553    205.9 2.151e+04 3.923e-08
 81.41461    204.4 2.152e+04 4.421e-08
 81.42478    203.1 2.171e+04 4.667e-08
 81.43323    201.7 2.178e+04 4.658e-08
 81.43832    200.9 2.190e+04 4.679e-08
 81.44512    199.2 2.187e+04 4.485e-08
 81.45529    197.8 2.156e+04 3.828e-08
 81.46545    196.7 2.091e+04 2.966e-08
 81.47110    195.9 2.014e+04 2.288e-08
 81.47619    195.4 1.968e+04 1.837e-08
 81.49092    194.6 1.884e+04 1.313e-08
 81.51131    193.3 1.744e+04 7.638e-09
 81.53165    192.1 1.587e+04 4.248e-09
 81.55198    189.5 1.342e+04 1.646e-09
 81.57232    189.2 1.255e+04 1.191e-09
 81.59266    189.1 1.218e+04 1.003e-09
 81.60742    189.3 1.205e+04 9.320e-10
 81.61759    189.2 1.187e+04 8.247e-10
 81.63333    189.7 1.175e+04 7.676e-10
 81.65367    190.3 1.160e+04 7.057e-10
 81.67299    191.0 1.147e+04 6.560e-10
 81.68316    190.8 1.132e+04 5.630e-10
 81.69434    191.4 1.124e+04 5.472e-10
 81.71468    192.1 1.124e+04 5.479e-10
 81.73501    192.8 1.125e+04 5.535e-10
 81.74873    193.4 1.128e+04 5.743e-10
 81.75889    193.3 1.122e+04 5.247e-10
 81.77569    193.8 1.127e+04 5.646e-10
 81.79602    194.4 1.136e+04 6.208e-10
 81.81430    194.9 1.143e+04 6.921e-10
 81.82446    194.9 1.123e+04 6.467e-10
 81.83670    195.4 1.120e+04 7.057e-10
 81.85703    196.0 1.120e+04 7.458e-10
 81.87737    196.6 1.119e+04 7.650e-10
 81.89003    197.1 1.118e+04 7.593e-10
 81.90020    196.9 1.100e+04 6.556e-10
 81.91804    197.3 1.098e+04 6.317e-10
 81.93838    197.7 1.095e+04 5.893e-10
 81.95560    198.0 1.091e+04 5.506e-10
 81.96577    197.7 1.076e+04 4.894e-10
 81.97905    198.1 1.068e+04 4.484e-10
 81.99939    198.4 1.059e+04 4.123e-10
 82.01973    199.0 1.047e+04 3.717e-10
 82.03134    199.4 1.037e+04 3.413e-10
 82.04151    199.4 1.036e+04 3.510e-10
 82.07067    200.1 1.016e+04 2.988e-10
 82.11144    201.7 1.012e+04 2.773e-10
 82.15211    203.2 1.016e+04 2.759e-10
 82.17284    204.5 1.022e+04 2.839e-10
 82.19318    204.1 1.031e+04 3.360e-10
 82.22319    205.4 1.029e+04 3.167e-10
 82.23821    206.1 1.041e+04 3.514e-10
 82.24838    206.2 1.068e+04 4.904e-10
 82.26377    206.8 1.086e+04 5.853e-10
 82.28410    206.9 1.106e+04 7.776e-10
 82.30378    207.3 1.123e+04 9.038e-10
 82.31395    207.4 1.131e+04 1.032e-09
 82.32478    207.8 1.146e+04 1.118e-09
 82.34511    208.2 1.155e+04 1.193e-09
 82.36545    208.6 1.160e+04 1.226e-09
 82.37952    208.9 1.160e+04 1.207e-09
 82.38969    208.6 1.147e+04 1.094e-09
 82.40612    208.5 1.138e+04 9.944e-10
 82.42646    208.3 1.125e+04 8.683e-10
 82.44509    207.7 1.109e+04 7.502e-10
 82.45526    206.6 1.087e+04 6.680e-10
 82.46713    205.5 1.067e+04 6.036e-10
 82.48747    204.6 1.046e+04 5.835e-10
 82.50781    203.9 1.035e+04 5.827e-10
 82.52083    203.3 1.032e+04 5.823e-10
 82.53099    202.7 1.022e+04 5.453e-10
 82.54848    202.4 1.021e+04 5.325e-10
 82.56882    202.0 1.019e+04 5.062e-10
 82.58639    201.6 1.014e+04 4.504e-10
 82.60683    200.4 1.002e+04 3.557e-10
 82.64019    199.0 9.864e+03 2.800e-10
 82.68086    197.1 9.659e+03 2.466e-10
 82.71127    196.3 9.542e+03 2.432e-10
 82.72770    196.1 9.539e+03 2.468e-10
 82.73787    194.8 9.665e+03 2.792e-10
 82.75185    193.5 1.025e+04 4.066e-10
 82.77218    191.4 1.126e+04 7.279e-10
 82.79252    189.6 1.220e+04 1.331e-09
 82.80344    188.4 1.293e+04 2.196e-09
 82.81361    187.4 1.325e+04 2.694e-09
 82.83319    186.6 1.354e+04 2.886e-09
 82.85353    185.6 1.351e+04 2.787e-09
 82.86901    184.5 1.328e+04 2.316e-09
 82.87918    181.8 1.332e+04 1.575e-09
 82.89420    179.9 1.284e+04 9.787e-10
 82.92481    174.0 1.142e+04 6.189e-10
 82.96558    171.4 1.092e+04 6.174e-10
 82.99599    168.9 1.109e+04 7.218e-10
 83.01031    167.2 1.159e+04 1.009e-09
 83.02048    165.6 1.189e+04 1.315e-09
 83.03656    165.2 1.244e+04 1.798e-09
 83.05690    165.1 1.300e+04 2.359e-09
 83.07588    165.1 1.350e+04 2.977e-09
 83.08605    164.6 1.327e+04 2.447e-09
 83.09757    164.6 1.366e+04 2.635e-09
 83.11791    164.2 1.406e+04 2.765e-09
 83.13825    163.8 1.449e+04 2.885e-09
 83.15162    163.2 1.490e+04 2.944e-09
 83.16179    160.8 1.325e+04 1.700e-09
 83.17892    160.1 1.316e+04 1.673e-09
 83.19926    159.3 1.303e+04 1.612e-09
 83.21719    158.6 1.285e+04 1.520e-09
 83.22736    156.4 1.167e+04 1.083e-09
 83.23993    155.7 1.149e+04 1.073e-09
 83.26027    155.2 1.143e+04 1.082e-09
 83.28060    154.8 1.137e+04 1.110e-09
 83.29292    154.6 1.134e+04 1.154e-09
 83.30309    153.7 1.119e+04 1.086e-09
 83.32128    153.4 1.138e+04 1.166e-09
 83.34161    152.8 1.176e+04 1.290e-09
 83.35849    151.7 1.236e+04 1.501e-09
 83.36866    148.9 1.288e+04 1.453e-09
 83.38229    147.5 1.328e+04 1.721e-09
 83.40262    146.4 1.310e+04 1.796e-09
 83.42296    145.6 1.293e+04 1.755e-09
 83.43423    144.9 1.258e+04 1.550e-09
 83.44440    142.1 1.201e+04 1.128e-09
 83.46363    140.4 1.229e+04 8.722e-10
 83.48397    136.6 1.284e+04 7.983e-10
 83.49980    132.0 1.286e+04 7.991e-10
 83.50997    127.0 1.266e+04 8.514e-10
 83.52464    125.5 1.237e+04 8.846e-10
 83.54498    125.3 1.229e+04 8.938e-10
 83.56547    124.1 1.247e+04 1.037e-09
 83.58580    120.1 1.278e+04 1.305e-09
 83.60599    117.1 1.378e+04 1.758e-09
 83.62633    113.4 1.495e+04 2.693e-09
 83.64111    110.0 1.585e+04 4.144e-09
 83.65127    107.3 1.633e+04 5.235e-09
 83.66700    104.6 1.669e+04 6.035e-09
 83.68734    102.0 1.667e+04 5.949e-09
 83.70667     99.5 1.640e+04 5.363e-09
 83.71684     97.3 1.632e+04 5.355e-09
 83.72801     95.1 1.560e+04 4.224e-09
 83.74835     93.0 1.477e+04 3.297e-09
 83.76868     91.1 1.403e+04 2.652e-09
 83.78241     89.8 1.349e+04 2.226e-09
 83.79258     88.4 1.308e+04 1.845e-09
 83.80936     87.5 1.289e+04 1.639e-09
 83.82969     86.8 1.276e+04 1.508e-09
 83.84808     87.0 1.287e+04 1.455e-09
 83.86851     84.7 1.220e+04 1.102e-09
 83.90107     83.2 1.189e+04 9.113e-10
 83.94174     82.2 1.155e+04 7.399e-10
 83.97931     81.4 1.125e+04 6.122e-10
 83.99965     79.8 1.100e+04 5.314e-10
 84.02309     79.2 1.104e+04 4.911e-10
 84.05349     78.9 1.110e+04 4.759e-10
 84.06502     78.3 1.113e+04 4.592e-10
 84.07519     76.7 1.106e+04 4.274e-10
 84.09407     76.0 1.097e+04 3.986e-10
 84.11441     75.7 1.090e+04 3.880e-10
 84.13059     75.5 1.088e+04 3.784e-10
 84.15103     74.6 1.080e+04 3.801e-10
 84.18578     74.7 1.079e+04 3.683e-10
 84.22645     74.6 1.074e+04 3.547e-10
 84.26193     74.3 1.066e+04 3.379e-10
 84.28226     73.1 1.047e+04 3.293e-10
 84.30780     72.2 1.053e+04 3.232e-10
 84.34847     71.2 1.069e+04 3.389e-10
 84.37888     69.8 1.093e+04 3.924e-10
 84.39912     68.5 1.117e+04 4.941e-10
 84.41320     67.4 1.136e+04 6.337e-10
 84.42337     66.3 1.135e+04 7.268e-10
 84.43979     65.7 1.151e+04 8.365e-10
 84.46013     65.2 1.178e+04 9.877e-10
 84.47877     64.8 1.192e+04 1.148e-09
 84.48894     64.2 1.174e+04 1.020e-09
 84.50080     63.3 1.202e+04 1.078e-09
 84.52083     62.7 1.202e+04 1.076e-09
 84.53100     63.0 1.180e+04 9.625e-10
 84.54148     61.7 1.185e+04 9.613e-10
 84.55451     61.0 1.180e+04 9.460e-10
 84.56478     61.1 1.136e+04 7.595e-10
 84.59251     59.6 1.136e+04 7.631e-10
 84.63319     58.1 1.112e+04 6.839e-10
 84.67386     56.4 1.068e+04 5.054e-10
 84.69601     54.4 1.045e+04 4.046e-10
 84.71635     53.7 1.036e+04 3.760e-10
 84.75521     51.6 1.051e+04 4.128e-10
 84.79588     49.8 1.086e+04 5.737e-10
 84.82715     48.5 1.101e+04 7.107e-10
 84.84749     48.2 1.081e+04 6.629e-10
 84.87723     47.1 1.068e+04 6.176e-10
 84.91790     46.1 1.037e+04 5.076e-10
 84.95829     45.1 1.019e+04 4.522e-10
 84.97862     44.6 1.015e+04 4.508e-10
 84.99925     43.9 1.024e+04 4.815e-10
 85.03992     43.3 1.032e+04 5.095e-10
 85.08060     43.0 1.029e+04 5.012e-10
 85.10976     42.9 1.008e+04 4.411e-10
 85.13010     42.6 1.001e+04 4.337e-10
 85.16194     42.9 9.604e+03 3.033e-10
 85.20262     43.4 9.168e+03 1.938e-10
 85.24090     43.8 8.793e+03 1.314e-10
 85.26124     43.6 8.735e+03 1.267e-10
 85.28396     44.5 8.632e+03 1.228e-10
 85.32464     45.8 8.642e+03 1.266e-10
 85.36531     47.1 8.712e+03 1.414e-10
 85.39237     48.3 8.878e+03 1.699e-10
 85.41271     48.3 9.049e+03 2.074e-10
 85.44666     49.4 9.347e+03 2.615e-10
 85.48733     50.1 9.706e+03 3.375e-10
 85.52351     50.2 9.950e+03 4.079e-10
 85.54375     50.1 1.011e+04 4.973e-10
 85.55831     50.2 1.030e+04 5.950e-10
 85.57865     50.5 1.049e+04 6.891e-10
 85.59899     50.8 1.066e+04 7.613e-10
 85.61932     51.3 1.074e+04 7.633e-10
 85.63966     51.3 1.075e+04 7.519e-10
 85.66000     51.3 1.076e+04 7.176e-10
 85.67479     51.3 1.076e+04 6.763e-10
 85.68496     51.5 1.056e+04 5.966e-10
 85.70067     51.4 1.054e+04 5.558e-10
 85.72101     51.1 1.058e+04 5.353e-10
 85.74036     50.9 1.060e+04 5.320e-10
 85.75053     51.2 1.044e+04 4.726e-10
 85.77195     51.0 1.077e+04 5.690e-10
 85.80612     51.0 1.095e+04 6.547e-10
 85.82646     52.0 1.072e+04 5.359e-10
 85.85339     52.4 1.073e+04 5.813e-10
 85.89406     52.8 1.071e+04 6.065e-10
 85.93474     53.3 1.073e+04 6.344e-10
 85.95760     53.7 1.093e+04 7.283e-10
 85.97794     54.7 1.086e+04 6.780e-10
 86.01608     54.8 1.125e+04 8.439e-10
 86.04649     55.6 1.124e+04 8.469e-10
 86.06673     55.7 1.139e+04 9.062e-10
 86.08707     55.5 1.170e+04 1.029e-09
 86.09871     55.1 1.205e+04 1.189e-09
 86.10888     55.7 1.182e+04 1.028e-09
 86.12774     55.3 1.211e+04 1.167e-09
 86.14808     54.7 1.234e+04 1.304e-09
 86.16428     54.0 1.259e+04 1.481e-09
 86.17445     54.6 1.242e+04 1.309e-09
 86.18875     53.7 1.269e+04 1.563e-09
 86.20909     52.9 1.299e+04 1.870e-09
 86.22942     52.0 1.338e+04 2.234e-09
 86.24002     51.1 1.378e+04 2.608e-09
 86.25018     51.6 1.380e+04 2.637e-09
 86.27010     50.4 1.414e+04 2.965e-09
 86.29043     49.0 1.418e+04 2.971e-09
 86.30558     47.6 1.400e+04 2.764e-09
 86.31575     48.0 1.424e+04 3.050e-09
 86.33111     46.7 1.379e+04 2.437e-09
 86.35144     45.2 1.307e+04 1.729e-09
 86.37115     43.5 1.224e+04 1.132e-09
 86.38132     44.5 1.236e+04 1.189e-09
 86.39212     42.9 1.153e+04 7.740e-10
 86.41245     41.7 1.080e+04 5.575e-10
 86.43279     40.9 1.032e+04 4.370e-10
 86.46339     41.0 1.001e+04 3.535e-10
 86.50249     40.3 9.732e+03 2.907e-10
 86.52282     41.3 9.663e+03 2.768e-10
 86.54484     40.4 9.741e+03 2.945e-10
 86.58551     39.8 1.018e+04 3.742e-10
 86.62618     39.8 1.035e+04 4.587e-10
 86.65396     40.0 1.036e+04 5.030e-10
 86.67430     41.4 1.010e+04 4.198e-10
 86.70753     41.6 1.008e+04 4.365e-10
 86.74820     41.4 1.024e+04 4.373e-10
 86.78510     41.6 1.017e+04 4.086e-10
 86.80543     43.3 1.013e+04 4.102e-10
 86.82955     43.8 9.993e+03 3.852e-10
 86.87023     44.5 9.692e+03 3.324e-10
 86.91090     45.3 9.361e+03 2.736e-10
 86.93657     46.0 9.200e+03 2.455e-10
 86.95691     47.4 9.587e+03 3.068e-10
 86.99225     48.3 9.659e+03 3.154e-10
 87.03292     49.0 9.872e+03 3.594e-10
 87.06333     48.7 1.007e+04 4.282e-10
 87.07768     48.7 1.010e+04 4.584e-10
 87.08785     49.7 1.024e+04 5.929e-10
 87.10390     50.4 1.041e+04 6.986e-10
 87.12424     51.0 1.060e+04 7.690e-10
 87.14325     51.3 1.071e+04 7.842e-10
 87.15342     51.6 1.107e+04 9.263e-10
 87.16491     51.7 1.112e+04 9.224e-10
 87.18525     51.7 1.118e+04 8.953e-10
 87.20559     51.5 1.125e+04 8.806e-10
 87.21899     51.3 1.134e+04 8.848e-10
 87.22916     51.7 1.175e+04 1.110e-09
 87.24626     51.6 1.176e+04 1.092e-09
 87.26660     51.6 1.170e+04 1.060e-09
 87.28456     51.7 1.155e+04 1.002e-09
 87.29473     52.1 1.193e+04 1.191e-09
 87.30727     52.3 1.169e+04 1.060e-09
 87.32761     52.6 1.140e+04 9.161e-10
 87.34794     52.9 1.111e+04 7.773e-10
 87.36030     53.3 1.085e+04 6.557e-10
 87.37046     53.3 1.120e+04 7.789e-10
 87.38862     53.6 1.095e+04 6.738e-10
 87.40895     54.0 1.074e+04 5.985e-10
 87.42586     54.4 1.068e+04 5.632e-10
 87.43603     54.5 1.102e+04 7.079e-10
 87.44963     55.0 1.104e+04 7.040e-10
 87.46996     55.4 1.111e+04 7.163e-10
 87.49030     55.8 1.130e+04 7.687e-10
 87.50160     56.1 1.154e+04 8.693e-10
 87.51177     56.5 1.174e+04 9.967e-10
 87.53097     57.0 1.198e+04 1.116e-09
 87.55131     57.6 1.222e+04 1.273e-09
 87.56717     58.3 1.245e+04 1.445e-09
 87.57734     58.7 1.260e+04 1.509e-09
 87.59198     59.3 1.283e+04 1.691e-09
 87.61232     60.0 1.307e+04 1.846e-09
 87.63266     60.8 1.331e+04 1.923e-09
 87.65299     61.6 1.409e+04 2.581e-09
 87.67333     62.5 1.462e+04 2.747e-09
 87.69367     63.5 1.510e+04 2.757e-09
 87.70848     64.5 1.550e+04 2.802e-09
 87.71351     64.5 1.590e+04 4.269e-09
 87.71899     64.8 1.595e+04 4.191e-09
 87.72916     65.5 1.600e+04 4.059e-09
 87.73933     66.4 1.613e+04 3.934e-09
 87.74625     67.1 1.620e+04 4.020e-09
 87.75133     66.6 1.697e+04 5.390e-09
 87.75966     67.4 1.776e+04 6.085e-09
 87.76983     68.2 1.897e+04 7.239e-09
 87.77903     69.4 2.056e+04 9.069e-09
 87.78412     67.0 2.356e+04 1.689e-08
 87.79017     68.3 2.524e+04 2.429e-08
 87.80034     70.2 2.639e+04 3.566e-08
 87.81050     73.2 2.721e+04 5.660e-08
 87.81690     76.2 3.172e+04 8.815e-08
 87.82198     69.5 2.847e+04 9.499e-08
 87.83084     65.0 3.508e+04 1.803e-07
 87.83844     54.2 3.675e+04 3.454e-07
 87.84350     40.5 2.371e+04 4.219e-06
 87.84859     22.2 1.904e+04 1.826e-05
 87.85218     10.1 1.855e+04 2.174e-05
 87.85474     18.6 3.530e+04 4.277e-07
 87.86135      9.7 3.690e+04 2.551e-07
 87.87151      2.3 6.598e+04 1.579e-08
 87.88168    -14.8 8.092e+04 6.162e-09
 87.88755    -33.5 4.855e+04 2.803e-08
 87.89264    -32.1 4.033e+04 2.176e-08
 87.90202    -39.3 2.920e+04 1.876e-08
 87.91130    -37.6 2.985e+04 1.355e-08
 87.91638    -39.4 3.157e+04 1.558e-08
 87.92034    -37.4 3.001e+04 1.243e-08
 87.92547    -34.3 2.640e+04 1.561e-08
 87.93771    -31.1 2.625e+04 1.240e-08
 87.95804    -28.9 2.640e+04 7.394e-09
 87.97838    -28.1 2.379e+04 3.349e-09
 87.99109    -28.0 1.739e+04 1.479e-09
 88.00126    -23.0 2.499e+04 5.157e-09
 88.01905    -23.6 2.073e+04 2.095e-09
 88.03939    -24.2 1.434e+04 1.178e-09
 88.05666    -24.3 1.189e+04 8.660e-10
 88.06683    -21.2 1.645e+04 1.953e-09
 88.08006    -22.1 1.324e+04 1.046e-09
 88.10040    -23.1 1.117e+04 6.894e-10
 88.12074    -23.2 1.043e+04 6.009e-10
 88.13239    -22.2 1.025e+04 5.824e-10
 88.14256    -21.8 1.032e+04 5.839e-10
 88.16141    -20.6 1.017e+04 5.926e-10
 88.18175    -19.4 1.026e+04 5.812e-10
 88.19796    -18.5 1.043e+04 6.030e-10
 88.20813    -18.9 1.066e+04 6.727e-10
 88.22242    -18.2 1.087e+04 7.629e-10
 88.24276    -17.7 1.107e+04 7.974e-10
 88.26309    -16.8 1.105e+04 8.747e-10
 88.27370    -15.9 1.097e+04 9.365e-10
 88.28387    -15.3 1.116e+04 1.081e-09
 88.30377    -14.0 1.105e+04 1.089e-09
 88.32410    -12.6 1.101e+04 1.068e-09
 88.33927    -11.1 1.092e+04 1.036e-09
 88.34944    -10.7 1.090e+04 1.025e-09
 88.36478     -9.4 1.082e+04 9.435e-10
 88.38511     -8.4 1.056e+04 8.253e-10
 88.40484     -9.1 1.257e+04 7.198e-10
 88.41501     -7.9 1.029e+04 5.866e-10
 88.42579    -15.7 2.695e+04 6.106e-10
 88.44612    -26.4 4.276e+04 2.882e-09
 88.46133    -27.4 4.055e+04 6.229e-09
 88.47145    -29.0 3.190e+04 1.821e-08
 88.48048    -30.7 2.677e+04 4.234e-08
 88.48556    -28.5 3.749e+04 9.294e-09
 88.49178    -30.3 2.962e+04 2.235e-08
 88.50195    -32.7 2.387e+04 4.678e-08
 88.51212    -34.7 2.150e+04 7.645e-08
 88.51835    -35.5 2.077e+04 1.131e-07
 88.52343    -33.8 2.346e+04 5.329e-08
 88.53246    -35.3 2.195e+04 9.466e-08
 88.54263    -35.5 2.115e+04 1.464e-07
 88.55113    -35.1 2.115e+04 1.747e-07
 88.55621    -36.4 2.131e+04 1.436e-07
 88.56296    -35.3 2.122e+04 1.732e-07
 88.57313    -35.1 2.332e+04 1.295e-07
 88.58330    -38.6 3.437e+04 4.754e-08
 88.58900    -55.4 4.205e+04 1.246e-08
 88.59408    -47.3 4.048e+04 3.283e-08
 88.60364    -65.0 3.883e+04 1.400e-08
 88.61380    -76.4 2.238e+04 1.390e-08
 88.62178    -78.5 1.909e+04 1.784e-08
 88.62687    -78.3 2.107e+04 2.055e-08
 88.63414    -78.7 1.854e+04 3.071e-08
 88.64431    -78.6 1.949e+04 3.488e-08
 88.65448    -78.5 1.968e+04 3.596e-08
 88.65965    -78.7 2.019e+04 3.298e-08
 88.66474    -78.8 2.059e+04 4.004e-08
 88.67481    -78.8 2.169e+04 2.150e-08
 88.68498    -83.4 2.228e+04 7.615e-09
 88.69244    -91.8 1.974e+04 2.435e-09
 88.69752    -91.8 1.974e+04 2.899e-09
 88.71045    -99.0 1.566e+04 1.392e-09
 88.73084   -105.5 1.235e+04 7.745e-10
 88.75117   -109.6 1.041e+04 5.437e-10
 88.76319   -110.4 1.010e+04 5.043e-10
 88.77336   -110.7 1.024e+04 5.276e-10
 88.79185   -111.2 1.015e+04 5.080e-10
 88.81218   -112.0 1.017e+04 4.902e-10
 88.82876   -113.3 1.023e+04 4.740e-10
 88.83892   -113.8 1.020e+04 4.899e-10
 88.85286   -115.3 1.018e+04 4.773e-10
 88.87319   -116.2 1.013e+04 4.641e-10
 88.89442   -116.8 1.006e+04 4.480e-10
 88.91486   -116.9 9.988e+03 4.800e-10
 88.94457   -117.1 9.811e+03 4.272e-10
 88.98524   -117.4 9.479e+03 3.209e-10
 89.02483   -117.4 9.119e+03 2.427e-10
 89.04491   -117.0 9.083e+03 2.404e-10
 89.04599   -117.0 9.100e+03 2.565e-10
 89.06659   -116.7 8.975e+03 2.305e-10
 89.10726   -116.4 8.959e+03 2.271e-10
 89.14794   -116.4 9.139e+03 2.457e-10
 89.17713   -116.8 9.695e+03 3.380e-10
 89.18720   -115.4 9.821e+03 3.688e-10
 89.19858   -116.3 1.002e+04 4.197e-10
 89.21892   -116.9 1.034e+04 5.256e-10
 89.23926   -117.5 1.062e+04 6.302e-10
 89.25267   -118.0 1.085e+04 7.327e-10
 89.26284   -117.9 1.118e+04 8.907e-10
 89.27993   -118.5 1.130e+04 9.526e-10
 89.30027   -119.0 1.131e+04 9.620e-10
 89.31824   -119.4 1.119e+04 9.350e-10
 89.32841   -119.3 1.137e+04 1.014e-09
 89.34094   -119.7 1.110e+04 8.346e-10
 89.36128   -120.3 1.081e+04 6.486e-10
 89.38161   -121.1 1.052e+04 5.049e-10
 89.39398   -122.2 1.028e+04 4.161e-10
 89.40415   -122.4 1.044e+04 4.575e-10
 89.42229   -123.4 1.031e+04 4.239e-10
 89.44262   -124.3 1.028e+04 4.184e-10
 89.45955   -125.0 1.029e+04 4.327e-10
 89.46972   -125.1 1.055e+04 5.148e-10
 89.48330   -125.6 1.070e+04 5.825e-10
 89.50363   -125.8 1.086e+04 6.502e-10
 89.52397   -126.0 1.096e+04 6.783e-10
 89.53529   -126.2 1.098e+04 6.804e-10
 89.54545   -126.3 1.117e+04 8.253e-10
 89.56464   -126.6 1.112e+04 7.692e-10
 89.58498   -127.1 1.099e+04 6.590e-10
 89.60086   -127.9 1.085e+04 5.650e-10
 89.61102   -128.1 1.131e+04 7.794e-10
 89.62565   -128.9 1.120e+04 7.093e-10
 89.64599   -129.7 1.112e+04 6.808e-10
 89.66633   -130.3 1.111e+04 6.759e-10
 89.67659   -130.7 1.114e+04 6.909e-10
 89.68676   -130.7 1.129e+04 8.591e-10
 89.70700   -130.8 1.124e+04 8.560e-10
 89.72734   -130.8 1.123e+04 8.587e-10
 89.74216   -130.9 1.125e+04 8.537e-10
 89.75233   -130.6 1.104e+04 7.768e-10
 89.76801   -130.8 1.097e+04 7.099e-10
 89.78835   -131.0 1.085e+04 6.377e-10
 89.80773   -131.3 1.068e+04 5.654e-10
 89.81790   -131.2 1.062e+04 4.182e-10
 89.82902   -131.4 1.055e+04 3.781e-10
 89.84936   -131.5 1.051e+04 3.688e-10
 89.86969   -131.7 1.050e+04 3.758e-10
 89.88347   -132.0 1.047e+04 3.955e-10
 89.89373   -132.0 9.975e+03 2.707e-10
 89.92073   -132.1 1.001e+04 2.822e-10
 89.96140   -132.6 1.030e+04 3.601e-10
 90.00208   -133.3 1.054e+04 4.256e-10
 90.02497   -134.2 1.055e+04 4.353e-10
 90.04531   -134.2 1.037e+04 3.737e-10
 90.08342   -135.4 1.024e+04 3.558e-10
 90.12410   -136.5 9.834e+03 2.649e-10
 90.15611   -137.3 9.383e+03 1.847e-10
 90.17644   -137.2 9.488e+03 1.999e-10
 90.20544   -137.6 9.130e+03 1.403e-10
 90.24612   -137.7 8.926e+03 1.043e-10
 90.28679   -137.7 8.786e+03 8.089e-11
 90.30758   -137.4 8.695e+03 6.577e-11
 90.32792   -137.5 8.709e+03 6.382e-11
 90.36814   -137.1 8.673e+03 5.742e-11
 90.40881   -136.6 8.654e+03 5.581e-11
 90.43872   -136.1 8.651e+03 5.554e-11
 90.45906   -136.2 8.666e+03 5.597e-11
 90.49016   -135.5 8.666e+03 5.594e-11
 90.53083   -134.7 8.668e+03 5.642e-11
 90.56986   -133.9 8.670e+03 5.704e-11
 90.59019   -134.0 8.702e+03 5.922e-11
 90.61218   -133.0 8.686e+03 5.851e-11
 90.65285   -132.0 8.673e+03 5.490e-11
 90.69352   -130.9 8.649e+03 5.000e-11
 90.72133   -129.8 8.630e+03 4.514e-11
 90.74167   -130.1 8.678e+03 4.136e-11
 90.77487   -129.1 8.668e+03 4.011e-11
 90.81554   -128.3 8.673e+03 3.999e-11
 90.85247   -128.2 8.724e+03 4.039e-11
 90.87281   -129.2 8.767e+03 4.071e-11
 90.89689   -129.6 8.854e+03 5.251e-11
 90.93756   -130.2 9.231e+03 1.042e-10
 90.97824   -130.6 1.006e+04 2.336e-10
 91.00394   -131.1 1.106e+04 4.780e-10
 91.02428   -133.3 1.134e+04 5.706e-10
 91.05959   -134.5 1.192e+04 8.756e-10
 91.10026   -136.2 1.208e+04 1.012e-09
 91.13508   -137.9 1.201e+04 1.018e-09
 91.15542   -138.5 1.218e+04 1.243e-09
 91.18161   -140.2 1.175e+04 8.939e-10
 91.22228   -141.6 1.116e+04 5.787e-10
 91.26295   -142.0 1.084e+04 4.331e-10
 91.28656   -142.4 1.071e+04 3.667e-10
 91.30689   -144.3 1.113e+04 4.613e-10
 91.34430   -143.8 1.085e+04 4.245e-10
 91.38497   -142.7 1.077e+04 4.163e-10
 91.41769   -141.4 1.086e+04 4.284e-10
 91.43803   -143.2 1.087e+04 3.242e-10
 91.46632   -142.4 1.106e+04 3.040e-10
 91.50699   -142.2 1.122e+04 2.922e-10
 91.54767   -142.1 1.113e+04 2.745e-10
 91.56917   -142.4 1.091e+04 2.444e-10
 91.58950   -143.6 1.050e+04 2.035e-10
 91.62901   -143.5 1.051e+04 1.912e-10
 91.66969   -143.5 1.054e+04 1.762e-10
 91.70030   -143.5 1.057e+04 1.629e-10
 91.72064   -143.9 1.050e+04 1.964e-10
 91.75103   -143.7 1.049e+04 1.894e-10
 91.79171   -143.5 1.048e+04 1.808e-10
 91.83144   -143.3 1.048e+04 1.731e-10
 91.85178   -143.8 1.059e+04 2.119e-10
 91.87305   -143.7 1.060e+04 2.100e-10
 91.91373   -143.7 1.068e+04 2.136e-10
 91.95440   -143.9 1.080e+04 2.333e-10
 91.98292   -144.1 1.087e+04 2.534e-10
 92.00325   -145.4 1.104e+04 3.073e-10
 92.03575   -145.3 1.097e+04 3.013e-10
 92.07642   -144.8 1.101e+04 2.678e-10
 92.10683   -144.2 1.111e+04 2.460e-10
 92.12403   -144.4 1.114e+04 2.473e-10
 92.13420   -146.3 1.143e+04 2.773e-10
 92.14740   -151.5 1.350e+04 3.083e-10
 92.16774   -158.8 1.671e+04 9.545e-10
 92.18808   -162.8 1.736e+04 3.223e-09
 92.19976   -164.5 1.753e+04 6.483e-09
 92.20993   -165.2 1.799e+04 9.430e-09
 92.22875   -166.2 1.797e+04 1.013e-08
 92.24909   -166.8 1.767e+04 8.410e-09
 92.26533   -167.3 1.720e+04 5.193e-09
 92.27550   -168.8 1.739e+04 4.017e-09
 92.28976   -171.9 1.658e+04 1.741e-09
 92.31010   -177.7 1.438e+04 5.368e-10
 92.33043   -182.3 1.184e+04 2.892e-10
 92.34107   -183.4 1.115e+04 2.603e-10
 92.35124   -183.6 1.113e+04 3.134e-10
 92.37111   -183.5 1.108e+04 3.070e-10
 92.39657   -182.8 1.105e+04 3.086e-10
 92.41700   -182.4 1.127e+04 3.735e-10
 92.44248   -180.8 1.145e+04 3.948e-10
 92.47231   -179.9 1.171e+04 4.508e-10
 92.48238   -179.9 1.158e+04 3.898e-10
 92.49313   -179.9 1.165e+04 3.850e-10
 92.51346   -179.9 1.186e+04 4.040e-10
 92.53380   -180.4 1.195e+04 4.780e-10
 92.54795   -180.7 1.202e+04 5.811e-10
 92.55811   -179.6 1.180e+04 3.857e-10
 92.57447   -180.1 1.185e+04 4.647e-10
 92.59481   -180.3 1.187e+04 5.539e-10
 92.61351   -180.5 1.188e+04 6.190e-10
 92.62368   -179.1 1.179e+04 4.274e-10
 92.63548   -179.8 1.193e+04 4.970e-10
 92.65582   -181.0 1.213e+04 5.962e-10
 92.67616   -182.5 1.242e+04 7.689e-10
 92.68925   -184.0 1.276e+04 1.053e-09
 92.69942   -183.6 1.280e+04 9.124e-10
 92.71683   -185.1 1.315e+04 1.384e-09
 92.73717   -186.2 1.348e+04 1.954e-09
 92.75482   -187.0 1.373e+04 2.459e-09
 92.76499   -186.9 1.391e+04 2.592e-09
 92.77784   -187.7 1.416e+04 2.937e-09
 92.79818   -188.4 1.427e+04 3.002e-09
 92.81851   -189.3 1.395e+04 2.377e-09
 92.83056   -190.5 1.353e+04 1.783e-09
 92.84073   -190.5 1.383e+04 2.286e-09
 92.85919   -191.6 1.336e+04 1.674e-09
 92.87952   -192.8 1.294e+04 1.242e-09
 92.89613   -194.2 1.266e+04 1.005e-09
 92.90630   -193.8 1.294e+04 1.133e-09
 92.92020   -195.2 1.262e+04 9.429e-10
 92.94053   -196.3 1.228e+04 8.755e-10
 92.96179   -197.0 1.202e+04 8.543e-10
 92.98223   -197.8 1.218e+04 8.979e-10
 93.01191   -197.2 1.194e+04 8.881e-10
 93.05258   -197.1 1.181e+04 8.861e-10
 93.09303   -196.9 1.166e+04 8.495e-10
 93.11337   -196.8 1.173e+04 8.926e-10
 93.13393   -196.3 1.143e+04 7.334e-10
 93.17460   -195.7 1.107e+04 5.560e-10
 93.21528   -195.1 1.065e+04 4.062e-10
 93.24450   -194.4 1.026e+04 3.050e-10
 93.26484   -193.7 1.021e+04 2.788e-10
 93.29662   -192.9 9.909e+03 2.235e-10
 93.33730   -192.0 9.755e+03 2.076e-10
 93.37564   -191.2 9.814e+03 2.308e-10
 93.39598   -190.2 9.627e+03 1.753e-10
 93.41864   -189.2 9.751e+03 2.003e-10
 93.45932   -188.4 9.910e+03 2.435e-10
 93.49999   -187.9 1.020e+04 3.297e-10
 93.52712   -187.5 1.069e+04 4.815e-10
 93.54559   -185.9 1.052e+04 4.098e-10
 93.55913   -185.0 1.014e+04 2.979e-10
 93.58134   -184.6 1.061e+04 4.403e-10
 93.62201   -184.5 1.125e+04 6.671e-10
 93.65825   -185.1 1.189e+04 9.794e-10
 93.67859   -183.2 1.197e+04 9.644e-10
 93.70336   -184.9 1.250e+04 1.297e-09
 93.74403   -187.1 1.281e+04 1.459e-09
 93.78470   -189.2 1.291e+04 1.466e-09
 93.80973   -190.8 1.273e+04 1.325e-09
 93.81980   -191.6 1.371e+04 1.737e-09
 93.83535   -193.1 1.336e+04 1.603e-09
 93.86595   -193.6 1.306e+04 1.457e-09
 93.90672   -194.0 1.255e+04 1.096e-09
 93.94087   -195.1 1.183e+04 7.530e-10
 93.96120   -197.4 1.203e+04 8.167e-10
 93.98807   -197.6 1.135e+04 5.581e-10
 94.02874   -198.0 1.096e+04 4.055e-10
 94.06942   -198.3 1.084e+04 3.268e-10
 94.09234   -197.9 1.083e+04 3.088e-10
 94.11268   -197.9 1.052e+04 2.454e-10
 94.15076   -196.9 1.055e+04 2.511e-10
 94.19144   -196.2 1.071e+04 2.870e-10
 94.22348   -195.8 1.084e+04 3.303e-10
 94.24381   -195.3 1.083e+04 3.543e-10
 94.27278   -195.1 1.088e+04 3.863e-10
 94.31346   -195.1 1.088e+04 3.910e-10
 94.35413   -195.0 1.068e+04 3.566e-10
 94.37495   -194.7 1.037e+04 2.727e-10
 94.39529   -194.0 1.035e+04 2.863e-10
 94.43548   -193.4 1.005e+04 2.094e-10
 94.47615   -192.6 9.853e+03 1.614e-10
 94.50609   -191.7 9.742e+03 1.347e-10
 94.52643   -190.8 9.685e+03 1.451e-10
 94.55750   -189.7 9.634e+03 1.347e-10
 94.59817   -188.5 9.616e+03 1.302e-10
 94.63723   -187.3 9.621e+03 1.279e-10
 94.65756   -186.2 9.570e+03 1.540e-10
 94.67952   -185.0 9.614e+03 1.554e-10
 94.72019   -184.0 9.728e+03 1.652e-10
 94.76086   -183.3 9.901e+03 1.855e-10
 94.78870   -182.8 1.009e+04 2.167e-10
 94.80904   -181.7 1.020e+04 2.626e-10
 94.84221   -181.5 1.042e+04 3.336e-10
 94.88288   -181.3 1.059e+04 3.917e-10
 94.91984   -181.3 1.065e+04 4.115e-10
 94.94018   -180.4 1.081e+04 4.736e-10
 94.96423   -180.6 1.080e+04 4.744e-10
 95.00490   -180.5 1.066e+04 4.132e-10
 95.04558   -180.3 1.044e+04 3.183e-10
 95.07131   -179.7 1.020e+04 2.503e-10
 95.09165   -178.8 1.020e+04 2.576e-10
 95.12693   -177.9 9.962e+03 2.048e-10
 95.16760   -176.9 9.879e+03 1.901e-10
 95.20245   -175.7 9.880e+03 1.904e-10
 95.22279   -174.5 9.679e+03 1.628e-10
 95.24895   -173.1 9.694e+03 1.692e-10
 95.28962   -171.8 9.804e+03 1.922e-10
 95.33029   -170.5 9.903e+03 2.099e-10
 95.35393   -169.2 9.933e+03 2.138e-10
 95.37426   -167.5 9.777e+03 1.823e-10
 95.41164   -166.0 9.835e+03 1.871e-10
 95.45231   -164.6 9.874e+03 1.841e-10
 95.48506   -163.2 9.926e+03 1.660e-10
 95.50540   -161.5 9.860e+03 1.590e-10
 95.53366   -160.1 9.929e+03 1.509e-10
 95.57433   -158.8 9.958e+03 1.395e-10
 95.61501   -157.4 9.944e+03 1.312e-10
 95.63654   -156.1 9.899e+03 1.255e-10
 95.65687   -154.3 9.971e+03 1.297e-10
 95.69635   -153.0 9.919e+03 1.223e-10
 95.73703   -151.5 9.861e+03 1.128e-10
 95.76768   -150.0 9.822e+03 1.011e-10
 95.78801   -148.5 9.948e+03 1.154e-10
 95.81837   -147.0 9.899e+03 1.040e-10
 95.85905   -145.5 9.899e+03 9.451e-11
 95.89881   -143.9 9.935e+03 8.955e-11
 95.91915   -142.6 1.005e+04 1.229e-10
 95.94039   -141.0 1.010e+04 1.197e-10
 95.98107   -139.5 1.014e+04 1.195e-10
 96.02174   -137.9 1.024e+04 1.213e-10
 96.05029   -136.4 1.030e+04 1.239e-10
 96.07062   -134.9 1.046e+04 1.754e-10
 96.10309   -133.3 1.048e+04 1.700e-10
 96.14376   -131.5 1.046e+04 1.558e-10
 96.18143   -129.6 1.046e+04 1.324e-10
 96.20176   -128.1 1.059e+04 1.748e-10
 96.22511   -126.1 1.057e+04 1.417e-10
 96.26578   -124.2 1.061e+04 1.144e-10
 96.30645   -122.4 1.072e+04 9.991e-11
 96.33290   -121.1 1.077e+04 9.754e-11
 96.35324   -119.3 1.080e+04 1.272e-10
 96.38780   -118.3 1.090e+04 1.280e-10
 96.42847   -117.6 1.119e+04 1.601e-10
 96.46404   -117.0 1.136e+04 2.356e-10
 96.48437   -114.8 1.143e+04 2.631e-10
 96.50982   -114.0 1.173e+04 3.551e-10
 96.55049   -113.4 1.204e+04 4.073e-10
 96.59117   -113.1 1.214e+04 4.121e-10
 96.61551   -112.9 1.218e+04 3.836e-10
 96.62558   -112.1 1.218e+04 4.390e-10
 96.64181   -112.0 1.214e+04 4.003e-10
 96.66215   -112.0 1.214e+04 3.742e-10
 96.68089   -112.0 1.215e+04 3.708e-10
 96.69105   -111.3 1.224e+04 4.172e-10
 96.70282   -111.6 1.231e+04 4.208e-10
 96.72316   -112.6 1.288e+04 4.628e-10
 96.74350   -113.9 1.352e+04 6.759e-10
 96.75662   -115.2 1.418e+04 1.111e-09
 96.76679   -116.9 1.546e+04 2.177e-09
 96.78417   -117.8 1.627e+04 3.882e-09
 96.80451   -118.6 1.696e+04 6.020e-09
 96.82219   -119.5 1.747e+04 7.943e-09
 96.83236   -119.9 1.822e+04 1.209e-08
 96.84518   -121.3 1.827e+04 1.249e-08
 96.86552   -122.8 1.795e+04 1.090e-08
 96.88585   -124.5 1.747e+04 8.131e-09
 96.89793   -126.7 1.690e+04 5.424e-09
 96.90810   -128.3 1.665e+04 4.113e-09
 96.92653   -131.7 1.557e+04 2.060e-09
 96.94686   -135.1 1.409e+04 9.920e-10
 96.96350   -137.5 1.285e+04 5.972e-10
 96.97367   -138.0 1.260e+04 5.640e-10
 96.99780   -138.8 1.226e+04 4.527e-10
 97.02926   -139.4 1.203e+04 3.265e-10
 97.04960   -139.9 1.196e+04 3.012e-10
 97.07925   -140.1 1.183e+04 2.643e-10
 97.11992   -140.4 1.183e+04 2.611e-10
 97.16040   -141.0 1.228e+04 3.420e-10
 97.18074   -139.4 1.180e+04 2.569e-10
 97.20127   -139.7 1.256e+04 4.377e-10
 97.24194   -139.6 1.329e+04 8.605e-10
 97.28262   -139.3 1.371e+04 1.278e-09
 97.31178   -138.3 1.383e+04 1.415e-09
 97.33211   -138.0 1.413e+04 1.684e-09
 97.35370   -137.6 1.413e+04 1.766e-09
 97.37394   -138.1 1.403e+04 1.748e-09
 97.38742   -138.9 1.356e+04 1.600e-09
 97.39758   -138.3 1.395e+04 1.802e-09
 97.41461   -138.6 1.380e+04 1.770e-09
 97.43495   -138.6 1.375e+04 1.801e-09
 97.45298   -138.6 1.378e+04 1.930e-09
 97.46315   -138.4 1.389e+04 1.961e-09
 97.47562   -138.4 1.404e+04 2.121e-09
 97.49596   -138.6 1.420e+04 2.207e-09
 97.51629   -139.0 1.426e+04 2.220e-09
 97.52872   -139.8 1.420e+04 2.027e-09
 97.53889   -139.8 1.419e+04 1.994e-09
 97.56723   -140.7 1.390e+04 1.667e-09
 97.59449   -140.7 1.351e+04 1.333e-09
 97.61482   -141.0 1.338e+04 1.106e-09
 97.64868   -141.6 1.314e+04 8.678e-10
 97.68935   -142.2 1.297e+04 7.496e-10
 97.72562   -142.7 1.289e+04 7.244e-10
 97.74596   -143.0 1.257e+04 4.720e-10
 97.77070   -143.2 1.241e+04 4.423e-10
 97.81137   -143.6 1.241e+04 4.361e-10
 97.85204   -144.7 1.283e+04 4.870e-10
 97.87710   -146.1 1.333e+04 6.248e-10
 97.89743   -145.1 1.211e+04 2.384e-10
 97.93339   -146.2 1.284e+04 3.050e-10
 97.97406   -147.3 1.334e+04 4.632e-10
 98.00824   -148.2 1.354e+04 7.163e-10
 98.02857   -146.7 1.319e+04 4.141e-10
 98.05276   -147.5 1.343e+04 7.061e-10
 98.07310   -149.2 1.376e+04 1.144e-09
 98.09608   -149.8 1.376e+04 1.428e-09
 98.13676   -150.5 1.368e+04 1.570e-09
 98.15971   -151.2 1.355e+04 1.578e-09
 98.18005   -149.9 1.348e+04 1.506e-09
 98.21810   -150.4 1.334e+04 1.499e-09
 98.25878   -150.9 1.318e+04 1.458e-09
 98.29085   -151.3 1.307e+04 1.424e-09
 98.31118   -150.1 1.304e+04 1.409e-09
 98.34012   -150.5 1.306e+04 1.432e-09
 98.38080   -150.6 1.311e+04 1.429e-09
 98.42147   -150.7 1.317e+04 1.426e-09
 98.44232   -151.1 1.315e+04 1.395e-09
 98.45239   -150.3 1.327e+04 1.558e-09
 98.47212   -150.4 1.329e+04 1.555e-09
 98.49245   -150.5 1.332e+04 1.567e-09
 98.50770   -150.5 1.332e+04 1.579e-09
 98.51786   -150.4 1.339e+04 1.626e-09
 98.54339   -150.4 1.334e+04 1.603e-09
 98.57346   -150.5 1.335e+04 1.641e-09
 98.59380   -149.4 1.353e+04 1.802e-09
 98.62484   -149.5 1.363e+04 1.890e-09
 98.66551   -150.4 1.367e+04 1.853e-09
 98.70460   -151.6 1.328e+04 1.463e-09
 98.72493   -150.6 1.347e+04 1.577e-09
 98.74686   -151.2 1.280e+04 9.875e-10
 98.78753   -151.4 1.216e+04 5.959e-10
 98.82820   -151.3 1.183e+04 4.168e-10
 98.85607   -151.1 1.169e+04 3.523e-10
 98.87641   -150.0 1.161e+04 3.362e-10
 98.90955   -149.5 1.151e+04 3.144e-10
 98.95022   -148.9 1.141e+04 2.998e-10
 98.98721   -148.3 1.126e+04 2.790e-10
 99.00755   -147.0 1.123e+04 2.672e-10
 99.03157   -146.2 1.107e+04 2.457e-10
 99.07224   -145.3 1.090e+04 2.163e-10
 99.11292   -144.2 1.075e+04 1.861e-10
 99.13868   -142.9 1.065e+04 1.588e-10
 99.15902   -141.8 1.064e+04 1.664e-10
 99.19426   -140.5 1.056e+04 1.411e-10
 99.23494   -139.2 1.051e+04 1.199e-10
 99.26982   -137.8 1.048e+04 1.034e-10
 99.29016   -136.7 1.045e+04 1.051e-10
 99.31629   -135.5 1.043e+04 9.271e-11
 99.35696   -134.2 1.041e+04 8.562e-11
 99.39763   -132.9 1.039e+04 8.237e-11
 99.42130   -131.6 1.038e+04 8.146e-11
 99.44163   -130.6 1.037e+04 8.155e-11
 99.47898   -129.3 1.036e+04 8.115e-11
 99.51965   -128.0 1.036e+04 8.107e-11
 99.55243   -126.8 1.037e+04 8.108e-11
 99.57277   -125.7 1.035e+04 8.096e-11
 99.60100   -124.5 1.034e+04 8.102e-11
 99.64167   -123.3 1.036e+04 8.154e-11
 99.68235   -122.1 1.042e+04 8.292e-11
 99.70391   -121.0 1.048e+04 8.504e-11
 99.72424   -119.8 1.047e+04 8.560e-11
 99.76369   -118.7 1.050e+04 8.946e-11
 99.80437   -117.5 1.052e+04 9.381e-11
 99.83505   -116.2 1.053e+04 9.765e-11
 99.85538   -115.3 1.054e+04 1.065e-10
 99.88571   -114.0 1.053e+04 1.095e-10
 99.92639   -112.7 1.051e+04 1.102e-10
 99.96618   -111.2 1.048e+04 1.103e-10
 99.98652   -110.4 1.051e+04 1.190e-10
100.00773   -108.9 1.045e+04 1.143e-10
