# Columns:
#   distance along LOS (in CHIMPs)
#   peculiar velocity  (in km/s)
#   temperature (K)
#   HI number density
# pos=(131.26,36.5545,81.317), angles=(0.0713627,2.42799)
  0.01439     -0.4 9.614e+03 4.491e-11
  0.04850      2.3 9.730e+03 3.857e-11
  0.08780      4.4 9.776e+03 5.125e-11
  0.12696      6.7 9.793e+03 7.522e-11
  0.16612      9.7 9.757e+03 1.077e-10
  0.20528     12.5 9.898e+03 1.222e-10
  0.24445     14.9 9.996e+03 1.282e-10
  0.28361     17.0 1.006e+04 1.364e-10
  0.32277     18.8 1.015e+04 1.642e-10
  0.36193     20.9 1.017e+04 2.209e-10
  0.40110     23.2 1.023e+04 2.686e-10
  0.44026     25.4 1.024e+04 2.628e-10
  0.47942     27.8 1.026e+04 2.178e-10
  0.51858     29.8 1.031e+04 1.585e-10
  0.55774     31.7 1.031e+04 1.180e-10
  0.59691     33.7 1.016e+04 9.673e-11
  0.63566     36.1 9.928e+03 8.293e-11
  0.65525     36.4 9.915e+03 7.248e-11
  0.67523     39.1 9.767e+03 5.948e-11
  0.71439     41.9 9.685e+03 4.822e-11
  0.74371     44.6 9.690e+03 3.895e-11
  0.76329     44.9 9.767e+03 3.874e-11
  0.79272     47.5 9.756e+03 3.242e-11
  0.83188     50.1 9.698e+03 3.049e-11
  0.87104     52.9 9.691e+03 3.059e-11
  0.91020     55.8 9.702e+03 3.125e-11
  0.94937     58.6 9.742e+03 3.352e-11
  0.98853     61.3 9.785e+03 3.752e-11
  1.02769     64.1 9.849e+03 4.324e-11
  1.06685     66.8 9.929e+03 5.137e-11
  1.10601     69.5 1.001e+04 6.396e-11
  1.14518     72.1 1.009e+04 8.068e-11
  1.18434     74.7 1.017e+04 1.008e-10
  1.22350     77.2 1.024e+04 1.217e-10
  1.26266     79.6 1.027e+04 1.405e-10
  1.30183     82.0 1.027e+04 1.557e-10
  1.34099     84.3 1.025e+04 1.676e-10
  1.38015     86.7 1.028e+04 1.765e-10
  1.41931     88.9 1.024e+04 1.872e-10
  1.45847     91.2 1.025e+04 1.962e-10
  1.48493     93.8 1.023e+04 1.980e-10
  1.50451     93.7 1.023e+04 1.250e-10
  1.53680     95.9 1.025e+04 1.304e-10
  1.57596     98.1 1.024e+04 1.352e-10
  1.61512    100.4 1.019e+04 1.401e-10
  1.65429    102.8 1.013e+04 1.442e-10
  1.69345    105.2 1.010e+04 1.441e-10
  1.73261    107.6 1.004e+04 1.418e-10
  1.77177    110.0 9.974e+03 1.369e-10
  1.81093    112.4 9.904e+03 1.288e-10
  1.85010    114.8 9.841e+03 1.186e-10
  1.88926    117.2 9.787e+03 1.111e-10
  1.92842    119.7 9.767e+03 1.103e-10
  1.96758    122.3 9.776e+03 1.121e-10
  2.00674    124.9 9.795e+03 1.207e-10
  2.04591    127.6 9.823e+03 1.371e-10
  2.08507    130.3 9.863e+03 1.560e-10
  2.12423    132.9 9.889e+03 1.656e-10
  2.16339    135.4 9.888e+03 1.651e-10
  2.19286    137.9 9.869e+03 1.594e-10
  2.21244    138.2 9.899e+03 1.500e-10
  2.24172    140.7 9.850e+03 1.423e-10
  2.28088    143.1 9.771e+03 1.283e-10
  2.31461    145.6 9.707e+03 1.133e-10
  2.33419    145.8 9.689e+03 1.146e-10
  2.35920    148.3 9.632e+03 1.033e-10
  2.39837    150.9 9.547e+03 9.716e-11
  2.43753    153.5 9.476e+03 9.629e-11
  2.47669    156.3 9.462e+03 9.632e-11
  2.51585    159.1 9.452e+03 9.676e-11
  2.55502    161.9 9.430e+03 9.879e-11
  2.59418    164.8 9.419e+03 1.029e-10
  2.63334    167.6 9.416e+03 1.089e-10
  2.67250    170.4 9.424e+03 1.171e-10
  2.71166    173.2 9.440e+03 1.276e-10
  2.75083    176.0 9.465e+03 1.407e-10
  2.78999    178.7 9.495e+03 1.567e-10
  2.82915    181.5 9.540e+03 1.762e-10
  2.86831    184.2 9.611e+03 2.002e-10
  2.90747    186.9 9.703e+03 2.304e-10
  2.94664    189.4 9.757e+03 2.423e-10
  2.98580    191.9 9.866e+03 2.847e-10
  3.02496    194.3 1.002e+04 3.405e-10
  3.06412    196.7 1.021e+04 4.094e-10
  3.10329    198.9 1.039e+04 4.821e-10
  3.14245    201.1 1.056e+04 5.433e-10
  3.16388    203.0 1.069e+04 5.791e-10
  3.18346    202.2 1.062e+04 4.757e-10
  3.22077    203.9 1.069e+04 4.856e-10
  3.25993    205.5 1.079e+04 4.943e-10
  3.28453    206.1 1.083e+04 5.040e-10
  3.29422    206.0 1.078e+04 4.805e-10
  3.30869    206.5 1.081e+04 4.801e-10
  3.32827    207.0 1.086e+04 4.871e-10
  3.34785    207.5 1.091e+04 5.080e-10
  3.36744    207.9 1.098e+04 5.422e-10
  3.38702    208.3 1.107e+04 5.891e-10
  3.40660    208.6 1.118e+04 6.512e-10
  3.42618    208.8 1.130e+04 7.296e-10
  3.44576    209.1 1.143e+04 8.247e-10
  3.46534    209.3 1.159e+04 9.389e-10
  3.48492    209.4 1.176e+04 1.077e-09
  3.50450    209.3 1.196e+04 1.248e-09
  3.52408    209.2 1.222e+04 1.470e-09
  3.54366    209.1 1.258e+04 1.776e-09
  3.56325    208.8 1.306e+04 2.196e-09
  3.57852    208.1 1.360e+04 2.721e-09
  3.58831    207.7 1.338e+04 2.417e-09
  3.60241    206.6 1.384e+04 2.761e-09
  3.62199    204.6 1.452e+04 3.249e-09
  3.64157    201.2 1.566e+04 4.205e-09
  3.65161    196.5 1.698e+04 6.007e-09
  3.66141    197.3 1.568e+04 3.634e-09
  3.68073    192.4 1.690e+04 5.549e-09
  3.70031    188.0 1.750e+04 7.735e-09
  3.71989    184.3 1.746e+04 8.199e-09
  3.73948    181.4 1.720e+04 7.801e-09
  3.75906    179.3 1.640e+04 6.152e-09
  3.77864    177.8 1.521e+04 3.898e-09
  3.79822    177.2 1.393e+04 2.145e-09
  3.81780    176.7 1.282e+04 1.314e-09
  3.84727    176.9 1.134e+04 6.717e-10
  3.88653    177.0 9.919e+03 3.109e-10
  3.92569    177.7 9.848e+03 2.531e-10
  3.96485    179.7 9.776e+03 2.492e-10
  3.99356    182.2 9.771e+03 2.497e-10
  4.01314    182.0 1.046e+04 4.350e-10
  4.03329    183.2 1.040e+04 4.403e-10
  4.05277    184.4 1.037e+04 4.460e-10
  4.07235    185.6 1.042e+04 4.751e-10
  4.09194    186.7 1.059e+04 5.267e-10
  4.11152    187.6 1.080e+04 5.932e-10
  4.13110    188.3 1.098e+04 6.596e-10
  4.15068    188.9 1.114e+04 7.174e-10
  4.17026    189.5 1.125e+04 7.582e-10
  4.18984    189.9 1.128e+04 7.729e-10
  4.20942    190.2 1.128e+04 7.726e-10
  4.22900    190.5 1.127e+04 7.671e-10
  4.24858    190.8 1.121e+04 7.450e-10
  4.26817    191.1 1.112e+04 7.095e-10
  4.28775    191.4 1.103e+04 6.791e-10
  4.30733    191.7 1.102e+04 6.735e-10
  4.32691    192.0 1.103e+04 6.765e-10
  4.34649    192.3 1.107e+04 6.949e-10
  4.36607    192.5 1.118e+04 7.354e-10
  4.37619    192.8 1.132e+04 7.901e-10
  4.38598    192.3 1.153e+04 9.301e-10
  4.40523    192.6 1.168e+04 9.761e-10
  4.41800    192.7 1.183e+04 9.943e-10
  4.42779    191.7 1.214e+04 1.180e-09
  4.44439    191.7 1.209e+04 1.133e-09
  4.46398    191.6 1.199e+04 1.068e-09
  4.48356    191.3 1.190e+04 9.958e-10
  4.50314    190.8 1.182e+04 9.355e-10
  4.52272    190.3 1.172e+04 8.956e-10
  4.54230    189.7 1.164e+04 8.728e-10
  4.56188    189.2 1.162e+04 8.583e-10
  4.58146    188.7 1.165e+04 8.503e-10
  4.60104    188.2 1.168e+04 8.459e-10
  4.62062    187.7 1.175e+04 8.464e-10
  4.64021    187.3 1.180e+04 8.515e-10
  4.65979    186.9 1.192e+04 8.899e-10
  4.67937    186.6 1.201e+04 9.406e-10
  4.70884    186.4 1.239e+04 1.210e-09
  4.74810    186.2 1.286e+04 1.610e-09
  4.78726    185.6 1.296e+04 1.694e-09
  4.82325    184.7 1.287e+04 1.592e-09
  4.84283    184.0 1.230e+04 1.198e-09
  4.86558    183.1 1.181e+04 7.601e-10
  4.90475    182.5 1.099e+04 3.704e-10
  4.94391    181.8 9.993e+03 1.993e-10
  4.98307    181.7 9.773e+03 1.848e-10
  5.02223    182.2 9.759e+03 1.874e-10
  5.06139    183.0 9.793e+03 2.117e-10
  5.09117    183.8 1.001e+04 2.751e-10
  5.11076    183.7 9.933e+03 2.529e-10
  5.13972    184.3 1.017e+04 3.302e-10
  5.17888    184.7 1.039e+04 4.135e-10
  5.21804    184.8 1.057e+04 4.955e-10
  5.25721    184.8 1.072e+04 5.853e-10
  5.29637    184.8 1.089e+04 6.983e-10
  5.33553    184.6 1.114e+04 8.332e-10
  5.37469    184.2 1.129e+04 9.007e-10
  5.41385    183.8 1.128e+04 8.910e-10
  5.45302    183.8 1.119e+04 8.313e-10
  5.49218    183.9 1.101e+04 7.322e-10
  5.53134    184.1 1.089e+04 6.663e-10
  5.57050    184.3 1.089e+04 6.645e-10
  5.60966    184.5 1.093e+04 6.780e-10
  5.64883    184.6 1.098e+04 6.964e-10
  5.67251    184.5 1.098e+04 6.969e-10
  5.69209    185.6 1.075e+04 5.581e-10
  5.72715    185.5 1.075e+04 5.578e-10
  5.76631    185.5 1.069e+04 5.364e-10
  5.80548    185.6 1.056e+04 4.613e-10
  5.82554    185.7 1.041e+04 3.664e-10
  5.84512    187.4 1.047e+04 4.088e-10
  5.88380    187.5 1.034e+04 3.221e-10
  5.92296    187.6 1.029e+04 2.826e-10
  5.96212    187.8 1.032e+04 2.939e-10
  6.00129    188.2 1.043e+04 3.486e-10
  6.04045    188.9 1.054e+04 4.377e-10
  6.07961    189.9 1.059e+04 5.092e-10
  6.11877    190.9 1.055e+04 5.048e-10
  6.15794    192.0 1.043e+04 4.612e-10
  6.19710    193.2 1.025e+04 3.725e-10
  6.23626    194.2 1.005e+04 2.820e-10
  6.27542    195.0 9.861e+03 2.191e-10
  6.31458    195.8 9.697e+03 1.875e-10
  6.35375    196.7 9.608e+03 1.820e-10
  6.39291    197.5 9.612e+03 1.831e-10
  6.43207    198.2 9.657e+03 1.914e-10
  6.47123    198.7 9.823e+03 2.226e-10
  6.50219    198.9 1.013e+04 2.942e-10
  6.52177    199.0 1.024e+04 3.983e-10
  6.54033    199.1 1.076e+04 6.107e-10
  6.55991    199.1 1.113e+04 7.716e-10
  6.58872    198.8 1.175e+04 1.108e-09
  6.62788    198.1 1.218e+04 1.235e-09
  6.66704    197.0 1.219e+04 1.203e-09
  6.70621    196.3 1.203e+04 1.023e-09
  6.74537    196.3 1.160e+04 7.182e-10
  6.78453    196.3 1.102e+04 4.653e-10
  6.82369    196.6 1.045e+04 3.355e-10
  6.86285    197.5 1.026e+04 3.151e-10
  6.90202    199.1 1.024e+04 3.223e-10
  6.94118    200.9 1.026e+04 3.476e-10
  6.98034    202.6 1.029e+04 3.808e-10
  7.01950    204.1 1.030e+04 3.932e-10
  7.05867    205.6 1.029e+04 3.904e-10
  7.09783    207.0 1.022e+04 3.710e-10
  7.13699    208.6 1.011e+04 3.268e-10
  7.17615    210.2 1.003e+04 2.785e-10
  7.21531    211.9 1.006e+04 2.561e-10
  7.25448    213.8 1.009e+04 2.570e-10
  7.27470    215.6 1.020e+04 2.699e-10
  7.29428    216.1 9.909e+03 2.510e-10
  7.33188    217.9 1.014e+04 2.746e-10
  7.35146    217.5 1.004e+04 2.555e-10
  7.37196    218.5 1.024e+04 2.993e-10
  7.40124    219.1 1.050e+04 3.568e-10
  7.42072    219.9 1.088e+04 4.603e-10
  7.44030    220.7 1.141e+04 6.401e-10
  7.45988    220.9 1.202e+04 9.114e-10
  7.47946    220.9 1.269e+04 1.304e-09
  7.49904    221.0 1.342e+04 1.855e-09
  7.51863    221.0 1.416e+04 2.529e-09
  7.53821    221.0 1.485e+04 3.048e-09
  7.55779    220.5 1.511e+04 3.087e-09
  7.57737    219.5 1.508e+04 2.936e-09
  7.59695    218.6 1.478e+04 2.298e-09
  7.61653    217.6 1.407e+04 1.417e-09
  7.63190    216.0 1.295e+04 7.413e-10
  7.64169    216.6 1.271e+04 7.560e-10
  7.65569    214.4 1.155e+04 4.231e-10
  7.67527    212.0 1.084e+04 3.646e-10
  7.69486    210.4 1.072e+04 3.635e-10
  7.71444    209.5 1.069e+04 3.683e-10
  7.73402    208.9 1.065e+04 3.957e-10
  7.75360    208.5 1.071e+04 4.445e-10
  7.76611    208.3 1.084e+04 5.014e-10
  7.77590    208.0 1.092e+04 5.571e-10
  7.79276    207.6 1.122e+04 6.303e-10
  7.81234    206.9 1.160e+04 7.350e-10
  7.83192    205.9 1.206e+04 9.034e-10
  7.85150    204.6 1.254e+04 1.153e-09
  7.87109    202.9 1.307e+04 1.472e-09
  7.89067    201.4 1.349e+04 1.687e-09
  7.91025    199.6 1.372e+04 1.695e-09
  7.92983    197.7 1.370e+04 1.633e-09
  7.94941    195.4 1.359e+04 1.414e-09
  7.96899    193.1 1.319e+04 1.141e-09
  7.98939    190.5 1.299e+04 9.608e-10
  8.00897    189.3 1.274e+04 8.196e-10
  8.03762    186.3 1.234e+04 6.278e-10
  8.07688    180.8 1.133e+04 4.075e-10
  8.11604    176.4 1.076e+04 3.001e-10
  8.15521    173.2 1.051e+04 2.219e-10
  8.18114    170.7 1.027e+04 1.593e-10
  8.20072    170.1 1.050e+04 2.738e-10
  8.23353    168.3 1.007e+04 2.146e-10
  8.27269    167.0 9.959e+03 2.077e-10
  8.31186    166.1 9.984e+03 2.176e-10
  8.35102    165.4 1.013e+04 2.574e-10
  8.39018    164.5 1.033e+04 3.119e-10
  8.42934    163.5 1.044e+04 3.523e-10
  8.46850    162.2 1.048e+04 3.700e-10
  8.50767    161.0 1.049e+04 3.849e-10
  8.54683    159.7 1.054e+04 4.378e-10
  8.58599    158.5 1.085e+04 5.767e-10
  8.62515    157.5 1.124e+04 7.584e-10
  8.66431    156.1 1.137e+04 8.031e-10
  8.70348    154.7 1.130e+04 7.667e-10
  8.72385    153.8 1.094e+04 6.017e-10
  8.74344    153.0 1.092e+04 6.001e-10
  8.78180    152.7 1.035e+04 3.889e-10
  8.82096    152.6 9.776e+03 2.255e-10
  8.86013    152.5 9.344e+03 1.253e-10
  8.89929    152.4 9.058e+03 7.099e-11
  8.93845    152.4 8.920e+03 5.478e-11
  8.97761    153.0 8.911e+03 5.436e-11
  9.01083    154.0 8.914e+03 5.494e-11
  9.03041    153.3 9.212e+03 7.828e-11
  9.05594    154.4 9.191e+03 9.325e-11
  9.09510    155.6 9.304e+03 1.260e-10
  9.13426    156.9 9.546e+03 1.759e-10
  9.17342    158.1 9.942e+03 2.503e-10
  9.21259    158.2 1.025e+04 3.218e-10
  9.24186    158.6 1.041e+04 3.842e-10
  9.26134    158.8 1.060e+04 4.813e-10
  9.28092    158.8 1.087e+04 6.107e-10
  9.30050    158.7 1.117e+04 7.408e-10
  9.32009    158.5 1.149e+04 8.565e-10
  9.33967    158.2 1.164e+04 9.192e-10
  9.36914    157.7 1.154e+04 8.972e-10
  9.40840    157.4 1.138e+04 8.783e-10
  9.43864    156.9 1.103e+04 7.906e-10
  9.45822    157.7 1.167e+04 1.045e-09
  9.48672    157.2 1.090e+04 7.370e-10
  9.52588    157.0 1.021e+04 5.077e-10
  9.56504    157.0 9.700e+03 3.591e-10
  9.60421    157.4 9.344e+03 2.653e-10
  9.64337    158.3 9.047e+03 2.113e-10
  9.68253    159.5 8.839e+03 2.018e-10
  9.72169    160.9 8.837e+03 2.019e-10
  9.76086    162.3 8.832e+03 2.046e-10
  9.80002    163.7 8.836e+03 2.152e-10
  9.83918    165.2 8.870e+03 2.343e-10
  9.86009    166.6 8.958e+03 2.626e-10
  9.87967    167.5 9.129e+03 3.037e-10
  9.91750    168.8 9.260e+03 3.434e-10
  9.95667    170.0 9.418e+03 3.883e-10
  9.99583    170.7 9.524e+03 4.263e-10
 10.02510    170.9 9.624e+03 4.640e-10
 10.04459    171.1 9.748e+03 5.085e-10
 10.06417    171.2 9.886e+03 5.569e-10
 10.08375    171.2 1.006e+04 6.083e-10
 10.10333    171.0 1.028e+04 6.727e-10
 10.12291    170.5 1.051e+04 7.583e-10
 10.14249    169.9 1.072e+04 8.670e-10
 10.16207    169.5 1.088e+04 9.914e-10
 10.17282    169.2 1.098e+04 1.117e-09
 10.18261    169.6 1.076e+04 9.958e-10
 10.20123    169.5 1.088e+04 1.151e-09
 10.22082    169.2 1.119e+04 1.383e-09
 10.24040    168.1 1.224e+04 1.896e-09
 10.25998    165.8 1.408e+04 3.122e-09
 10.27474    163.4 1.584e+04 5.604e-09
 10.28453    166.1 1.501e+04 3.991e-09
 10.29914    163.8 1.668e+04 7.309e-09
 10.31872    161.8 1.775e+04 1.045e-08
 10.33830    159.5 1.819e+04 1.072e-08
 10.35788    156.3 1.845e+04 9.880e-09
 10.37746    151.6 1.890e+04 7.266e-09
 10.39705    144.9 1.822e+04 4.981e-09
 10.41663    138.2 1.598e+04 3.916e-09
 10.43621    133.5 1.430e+04 3.571e-09
 10.45579    130.8 1.417e+04 3.364e-09
 10.47537    128.3 1.436e+04 3.069e-09
 10.49495    125.0 1.441e+04 2.538e-09
 10.51453    120.9 1.385e+04 1.917e-09
 10.53021    116.9 1.275e+04 1.424e-09
 10.54000    116.1 1.251e+04 1.290e-09
 10.55369    112.8 1.150e+04 1.048e-09
 10.58316    111.0 1.131e+04 9.305e-10
 10.62242    109.2 1.097e+04 8.157e-10
 10.66159    108.9 1.094e+04 8.072e-10
 10.68977    108.7 1.103e+04 8.442e-10
 10.70936    107.0 1.168e+04 1.192e-09
 10.73991    107.7 1.190e+04 1.367e-09
 10.77907    108.9 1.216e+04 1.505e-09
 10.81823    110.3 1.216e+04 1.433e-09
 10.85740    111.9 1.188e+04 1.144e-09
 10.88780    113.4 1.132e+04 7.581e-10
 10.90738    112.3 1.009e+04 4.082e-10
 10.93572    113.8 9.489e+03 2.804e-10
 10.97488    115.6 9.329e+03 2.444e-10
 11.01405    117.9 9.305e+03 2.432e-10
 11.05321    120.4 9.327e+03 2.509e-10
 11.09237    122.9 9.458e+03 2.824e-10
 11.13153    125.3 9.697e+03 3.430e-10
 11.17069    127.6 1.000e+04 4.314e-10
 11.20986    130.0 1.035e+04 5.443e-10
 11.24902    132.3 1.073e+04 6.805e-10
 11.28818    134.4 1.108e+04 8.337e-10
 11.32734    136.4 1.138e+04 9.785e-10
 11.36650    138.3 1.152e+04 1.052e-09
 11.40567    140.1 1.153e+04 1.051e-09
 11.44483    141.8 1.148e+04 1.026e-09
 11.48399    143.6 1.135e+04 9.426e-10
 11.51946    145.3 1.118e+04 8.284e-10
 11.53904    145.6 1.143e+04 9.563e-10
 11.56232    147.3 1.113e+04 7.545e-10
 11.60148    148.9 1.087e+04 5.895e-10
 11.62217    150.5 1.064e+04 4.560e-10
 11.64175    150.1 1.072e+04 4.598e-10
 11.67980    151.7 1.042e+04 3.268e-10
 11.71896    153.4 1.015e+04 2.261e-10
 11.75813    155.1 9.926e+03 1.553e-10
 11.79729    156.7 9.731e+03 1.093e-10
 11.83645    158.1 9.576e+03 9.277e-11
 11.87561    159.8 9.570e+03 9.289e-11
 11.91478    161.3 9.582e+03 9.577e-11
 11.95394    162.8 9.619e+03 1.071e-10
 11.99310    164.3 9.647e+03 1.292e-10
 12.03226    165.8 9.646e+03 1.611e-10
 12.07142    167.3 9.662e+03 1.963e-10
 12.11059    168.8 9.721e+03 2.289e-10
 12.14975    170.3 9.888e+03 2.520e-10
 12.18891    170.9 1.014e+04 2.595e-10
 12.22807    171.1 1.018e+04 2.582e-10
 12.26724    171.2 1.016e+04 2.486e-10
 12.30640    171.3 1.011e+04 2.290e-10
 12.33567    171.7 1.007e+04 2.231e-10
 12.34655    172.2 9.917e+03 2.076e-10
 12.35634    172.4 9.960e+03 2.161e-10
 12.36853    172.2 9.994e+03 2.129e-10
 12.37832    175.1 1.004e+04 2.132e-10
 12.39432    174.8 1.005e+04 2.064e-10
 12.41390    173.6 1.055e+04 2.222e-10
 12.43348    170.8 1.224e+04 3.243e-10
 12.45306    167.5 1.381e+04 6.855e-10
 12.47264    165.0 1.452e+04 1.453e-09
 12.49222    163.6 1.475e+04 2.347e-09
 12.51180    162.9 1.490e+04 2.954e-09
 12.53138    162.4 1.493e+04 2.796e-09
 12.55097    161.5 1.498e+04 2.115e-09
 12.57055    159.6 1.482e+04 1.218e-09
 12.59013    156.7 1.383e+04 5.962e-10
 12.60971    153.2 1.201e+04 3.639e-10
 12.62929    150.4 1.055e+04 3.552e-10
 12.64887    149.0 1.053e+04 3.804e-10
 12.66845    148.3 1.052e+04 4.853e-10
 12.68803    147.8 1.086e+04 6.489e-10
 12.70394    147.4 1.124e+04 8.461e-10
 12.71373    148.0 1.111e+04 7.776e-10
 12.72720    147.1 1.147e+04 9.516e-10
 12.74678    146.0 1.164e+04 9.893e-10
 12.76636    144.5 1.164e+04 9.767e-10
 12.78337    143.7 1.154e+04 9.491e-10
 12.79316    144.7 1.159e+04 9.535e-10
 12.81541    143.3 1.130e+04 8.523e-10
 12.85467    142.4 1.065e+04 6.191e-10
 12.89383    141.9 9.833e+03 4.012e-10
 12.93299    141.8 9.102e+03 2.571e-10
 12.97215    142.0 8.606e+03 1.738e-10
 13.01132    142.5 8.322e+03 1.283e-10
 13.05048    143.5 8.175e+03 1.053e-10
 13.07132    144.7 8.110e+03 9.380e-11
 13.09090    145.8 8.142e+03 9.561e-11
 13.12880    147.1 8.070e+03 8.655e-11
 13.16797    148.8 8.022e+03 8.376e-11
 13.19841    150.6 8.004e+03 8.411e-11
 13.21799    151.5 8.055e+03 9.003e-11
 13.24629    153.5 8.055e+03 9.049e-11
 13.28545    155.5 8.062e+03 9.192e-11
 13.32461    157.5 8.092e+03 9.484e-11
 13.36378    159.6 8.143e+03 9.987e-11
 13.40294    161.7 8.209e+03 1.071e-10
 13.44210    163.8 8.280e+03 1.159e-10
 13.48126    166.0 8.349e+03 1.258e-10
 13.52042    168.2 8.408e+03 1.367e-10
 13.55959    170.4 8.471e+03 1.496e-10
 13.59875    172.7 8.572e+03 1.672e-10
 13.63791    174.9 8.772e+03 1.942e-10
 13.67707    177.2 9.143e+03 2.393e-10
 13.71624    179.4 9.598e+03 3.038e-10
 13.74551    180.6 9.763e+03 3.413e-10
 13.76499    181.4 9.970e+03 3.936e-10
 13.78457    182.0 1.018e+04 4.933e-10
 13.79570    183.0 1.037e+04 6.392e-10
 13.80550    184.1 1.038e+04 5.565e-10
 13.82374    185.0 1.058e+04 7.555e-10
 13.84332    185.8 1.088e+04 1.020e-09
 13.86290    185.7 1.165e+04 1.425e-09
 13.88248    185.1 1.309e+04 2.144e-09
 13.90206    183.8 1.468e+04 3.386e-09
 13.92164    182.2 1.588e+04 4.968e-09
 13.94122    180.5 1.677e+04 6.485e-09
 13.96080    178.4 1.674e+04 6.390e-09
 13.98038    175.9 1.656e+04 5.716e-09
 13.99997    173.2 1.616e+04 4.770e-09
 14.01955    169.9 1.553e+04 3.868e-09
 14.03769    166.2 1.471e+04 3.147e-09
 14.04748    168.0 1.550e+04 4.141e-09
 14.05871    164.7 1.473e+04 3.388e-09
 14.07829    161.9 1.374e+04 2.616e-09
 14.09787    160.0 1.276e+04 1.939e-09
 14.11745    158.7 1.187e+04 1.378e-09
 14.13703    157.6 1.114e+04 9.450e-10
 14.15310    156.5 1.062e+04 6.472e-10
 14.16289    157.4 1.083e+04 7.579e-10
 14.17620    156.4 1.045e+04 5.593e-10
 14.19578    155.2 1.016e+04 4.293e-10
 14.22525    154.3 9.948e+03 3.611e-10
 14.26451    154.8 9.743e+03 3.243e-10
 14.30367    155.5 9.649e+03 3.122e-10
 14.34283    156.3 9.614e+03 3.027e-10
 14.38199    157.3 9.571e+03 2.875e-10
 14.42115    158.4 9.522e+03 2.668e-10
 14.46032    159.7 9.493e+03 2.476e-10
 14.49948    161.0 9.511e+03 2.427e-10
 14.52048    162.5 9.537e+03 2.449e-10
 14.54006    164.0 9.614e+03 2.559e-10
 14.57780    165.6 9.768e+03 2.691e-10
 14.61697    167.1 1.002e+04 3.011e-10
 14.65613    168.5 1.023e+04 3.360e-10
 14.69529    169.5 1.042e+04 3.687e-10
 14.73445    170.2 1.055e+04 3.855e-10
 14.77361    170.5 1.058e+04 3.888e-10
 14.80289    170.6 1.057e+04 3.665e-10
 14.82237    170.8 1.059e+04 3.683e-10
 14.84195    171.3 1.059e+04 3.698e-10
 14.86153    171.5 1.058e+04 3.694e-10
 14.87716    171.9 1.056e+04 3.712e-10
 14.88351    171.6 1.055e+04 3.724e-10
 14.88747    172.9 1.067e+04 4.130e-10
 14.90070    173.2 1.061e+04 4.067e-10
 14.92028    173.6 1.051e+04 4.020e-10
 14.93986    173.9 1.048e+04 4.088e-10
 14.95944    174.1 1.047e+04 4.346e-10
 14.97902    174.1 1.057e+04 4.840e-10
 14.99860    174.2 1.071e+04 5.534e-10
 15.01818    174.3 1.085e+04 6.418e-10
 15.03776    174.5 1.099e+04 7.296e-10
 15.05734    174.7 1.109e+04 7.871e-10
 15.07693    174.8 1.114e+04 7.972e-10
 15.09651    174.9 1.116e+04 7.995e-10
 15.11609    175.0 1.117e+04 8.028e-10
 15.13567    175.0 1.120e+04 8.146e-10
 15.15525    174.9 1.128e+04 8.566e-10
 15.17483    174.8 1.145e+04 9.557e-10
 15.19441    174.8 1.171e+04 1.125e-09
 15.21399    174.6 1.214e+04 1.398e-09
 15.23357    174.3 1.278e+04 1.843e-09
 15.24486    173.8 1.375e+04 2.631e-09
 15.25465    174.3 1.369e+04 2.578e-09
 15.27274    173.6 1.491e+04 3.792e-09
 15.29200    173.2 1.568e+04 4.788e-09
 15.30179    172.8 1.572e+04 4.845e-09
 15.30695    171.9 1.638e+04 5.782e-09
 15.31670    171.0 1.702e+04 6.877e-09
 15.32649    170.0 1.771e+04 8.278e-09
 15.33628    168.8 1.842e+04 1.011e-08
 15.34607    167.6 1.912e+04 1.231e-08
 15.35586    166.5 1.981e+04 1.468e-08
 15.36565    165.4 2.045e+04 1.663e-08
 15.37544    164.5 2.106e+04 1.841e-08
 15.38523    162.9 2.139e+04 1.812e-08
 15.39502    162.0 2.144e+04 1.775e-08
 15.40481    159.9 2.157e+04 1.757e-08
 15.41460    158.8 2.147e+04 1.682e-08
 15.42346    156.8 2.121e+04 1.516e-08
 15.42836    157.6 2.193e+04 1.912e-08
 15.43418    156.2 2.155e+04 1.645e-08
 15.44892    153.8 2.071e+04 1.228e-08
 15.46855    150.7 1.956e+04 8.740e-09
 15.48813    147.7 1.771e+04 5.923e-09
 15.50771    144.6 1.592e+04 4.353e-09
 15.52729    142.5 1.481e+04 3.632e-09
 15.54687    142.1 1.444e+04 3.362e-09
 15.56645    142.2 1.431e+04 3.254e-09
 15.58603    142.6 1.414e+04 3.101e-09
 15.60225    143.2 1.403e+04 2.927e-09
 15.61204    143.4 1.456e+04 3.217e-09
 15.62520    144.3 1.475e+04 3.131e-09
 15.63983    144.4 1.451e+04 2.866e-09
 15.64958    144.5 1.420e+04 2.695e-09
 15.65937    144.4 1.411e+04 2.716e-09
 15.66916    142.1 1.637e+04 3.041e-09
 15.67895    131.3 2.600e+04 7.097e-09
 15.68874    119.4 2.669e+04 4.476e-08
 15.69853    113.0 2.389e+04 1.487e-07
 15.70832    110.2 2.235e+04 2.064e-07
 15.71654    108.4 2.248e+04 1.922e-07
 15.72143    110.0 2.244e+04 1.946e-07
 15.72790    107.9 2.325e+04 1.536e-07
 15.73769    103.5 2.811e+04 5.811e-08
 15.74748     93.2 3.778e+04 9.223e-09
 15.75727     73.8 3.325e+04 1.531e-09
 15.76706     62.5 1.454e+04 1.713e-09
 15.78180     60.1 1.330e+04 1.731e-09
 15.80143     59.1 1.183e+04 1.653e-09
 15.82101     58.5 1.231e+04 1.566e-09
 15.84059     58.0 1.231e+04 1.509e-09
 15.86017     57.5 1.219e+04 1.522e-09
 15.87975     56.3 1.254e+04 1.679e-09
 15.89933     51.9 1.433e+04 2.613e-09
 15.91891     45.8 1.708e+04 5.894e-09
 15.93849     43.0 1.773e+04 1.062e-08
 15.95807     42.9 1.741e+04 1.057e-08
 15.96944     42.9 1.697e+04 8.919e-09
 15.97923     43.5 1.649e+04 7.455e-09
 15.99724     42.5 1.585e+04 4.593e-09
 16.01682     39.0 1.465e+04 2.175e-09
 16.03640     33.6 1.215e+04 1.013e-09
 16.05598     30.3 1.046e+04 6.359e-10
 16.07556     29.5 1.021e+04 5.448e-10
 16.09514     28.9 1.014e+04 5.110e-10
 16.11472     28.0 1.033e+04 5.451e-10
 16.13148     26.9 1.085e+04 6.808e-10
 16.14127     26.0 1.144e+04 8.918e-10
 16.15389     25.2 1.186e+04 1.127e-09
 16.17347     24.8 1.195e+04 1.339e-09
 16.19305     24.8 1.185e+04 1.408e-09
 16.21263     25.0 1.167e+04 1.325e-09
 16.23221     25.1 1.133e+04 1.148e-09
 16.25179     25.0 1.115e+04 9.054e-10
 16.27137     24.4 1.085e+04 6.934e-10
 16.29095     23.6 1.043e+04 5.407e-10
 16.31053     23.0 1.000e+04 4.489e-10
 16.32683     22.7 9.736e+03 3.955e-10
 16.33662     23.6 9.742e+03 4.078e-10
 16.34970     23.8 9.749e+03 3.993e-10
 16.36928     24.0 9.761e+03 4.153e-10
 16.38886     24.1 9.935e+03 4.565e-10
 16.40844     24.1 1.015e+04 5.582e-10
 16.42802     23.7 1.080e+04 7.095e-10
 16.44760     22.9 1.170e+04 1.055e-09
 16.46718     22.3 1.259e+04 1.576e-09
 16.48676     22.7 1.297e+04 2.262e-09
 16.50635     24.0 1.316e+04 2.809e-09
 16.52593     25.5 1.329e+04 3.080e-09
 16.54551     26.8 1.344e+04 2.944e-09
 16.55611     27.6 1.365e+04 2.476e-09
 16.56590     26.4 1.381e+04 2.451e-09
 16.58467     26.6 1.334e+04 1.880e-09
 16.60425     26.2 1.262e+04 1.347e-09
 16.62383     26.1 1.225e+04 1.211e-09
 16.65330     27.6 1.177e+04 1.072e-09
 16.68442     30.0 1.188e+04 1.136e-09
 16.70390     30.5 1.212e+04 1.237e-09
 16.72174     32.4 1.253e+04 1.483e-09
 16.74132     33.0 1.255e+04 1.532e-09
 16.76090     34.6 1.277e+04 1.695e-09
 16.78048     35.5 1.320e+04 1.999e-09
 16.80006     36.5 1.349e+04 2.277e-09
 16.81964     37.5 1.372e+04 2.572e-09
 16.83922     38.7 1.389e+04 2.835e-09
 16.85881     39.9 1.389e+04 3.007e-09
 16.87839     41.1 1.386e+04 3.063e-09
 16.89797     42.0 1.392e+04 3.005e-09
 16.91755     42.5 1.403e+04 3.015e-09
 16.93713     42.7 1.425e+04 3.119e-09
 16.95671     42.9 1.454e+04 3.399e-09
 16.97095     43.0 1.481e+04 3.786e-09
 16.98074     42.7 1.417e+04 2.949e-09
 16.99587     43.1 1.418e+04 2.883e-09
 17.01545     43.0 1.423e+04 2.678e-09
 17.03503     41.0 1.523e+04 3.004e-09
 17.05141     37.5 1.602e+04 3.938e-09
 17.06120     38.7 1.601e+04 3.733e-09
 17.07420     36.6 1.588e+04 4.675e-09
 17.09378     36.4 1.553e+04 5.378e-09
 17.11336     36.6 1.528e+04 5.184e-09
 17.13294     36.6 1.544e+04 4.238e-09
 17.15252     35.5 1.572e+04 2.976e-09
 17.17210     32.9 1.511e+04 1.832e-09
 17.19168     29.8 1.338e+04 1.241e-09
 17.21126     27.8 1.266e+04 1.109e-09
 17.23085     27.0 1.255e+04 1.051e-09
 17.25043     26.5 1.253e+04 1.089e-09
 17.27001     25.7 1.266e+04 1.244e-09
 17.28959     24.7 1.314e+04 1.495e-09
 17.30917     23.4 1.369e+04 1.940e-09
 17.32875     22.4 1.401e+04 2.464e-09
 17.34833     21.8 1.421e+04 2.963e-09
 17.36791     21.5 1.434e+04 3.257e-09
 17.38579     21.4 1.439e+04 3.341e-09
 17.39558     21.9 1.383e+04 2.625e-09
 17.40708     21.7 1.378e+04 2.249e-09
 17.41859     21.0 1.338e+04 1.773e-09
 17.42838     21.6 1.351e+04 1.913e-09
 17.44624     20.8 1.308e+04 1.499e-09
 17.46582     20.0 1.262e+04 1.202e-09
 17.48540     19.7 1.235e+04 1.125e-09
 17.50498     19.5 1.251e+04 1.178e-09
 17.52456     19.3 1.278e+04 1.257e-09
 17.54414     19.0 1.310e+04 1.490e-09
 17.56372     18.8 1.353e+04 1.865e-09
 17.58331     18.8 1.399e+04 2.399e-09
 17.60289     19.0 1.447e+04 3.000e-09
 17.62247     19.4 1.458e+04 3.416e-09
 17.64205     20.0 1.450e+04 3.536e-09
 17.66163     20.8 1.433e+04 3.333e-09
 17.68121     21.4 1.416e+04 2.771e-09
 17.70079     21.3 1.379e+04 2.034e-09
 17.72037     20.9 1.310e+04 1.347e-09
 17.73995     19.9 1.194e+04 8.621e-10
 17.75954     18.8 1.110e+04 6.627e-10
 17.77599     18.8 1.090e+04 6.196e-10
 17.78578     19.1 1.067e+04 4.999e-10
 17.79870     19.2 1.071e+04 4.438e-10
 17.82817     20.5 1.134e+04 5.658e-10
 17.86743     22.2 1.133e+04 6.877e-10
 17.90659     24.4 1.138e+04 8.184e-10
 17.94575     26.9 1.150e+04 9.443e-10
 17.98491     29.3 1.162e+04 1.023e-09
 18.02408     31.2 1.175e+04 1.077e-09
 18.06324     32.6 1.195e+04 1.183e-09
 18.10240     33.8 1.229e+04 1.449e-09
 18.13167     34.5 1.270e+04 1.888e-09
 18.14317     35.6 1.290e+04 2.198e-09
 18.15296     35.7 1.310e+04 2.317e-09
 18.17074     36.9 1.331e+04 2.625e-09
 18.19032     37.8 1.349e+04 2.800e-09
 18.20990     38.8 1.343e+04 2.747e-09
 18.22527     39.5 1.336e+04 2.615e-09
 18.23506     39.5 1.332e+04 2.535e-09
 18.24906     40.4 1.310e+04 2.286e-09
 18.26864     40.8 1.301e+04 2.087e-09
 18.28822     41.5 1.260e+04 1.764e-09
 18.30781     41.7 1.234e+04 1.554e-09
 18.32739     42.2 1.203e+04 1.352e-09
 18.34697     42.7 1.175e+04 1.181e-09
 18.36655     43.5 1.151e+04 1.035e-09
 18.38613     44.2 1.127e+04 8.984e-10
 18.40571     45.1 1.100e+04 7.708e-10
 18.42529     46.0 1.081e+04 6.736e-10
 18.44487     46.9 1.068e+04 6.074e-10
 18.46445     47.7 1.053e+04 5.495e-10
 18.48404     48.4 1.045e+04 5.071e-10
 18.50057     49.3 1.046e+04 5.056e-10
 18.51036     49.5 1.043e+04 5.107e-10
 18.52320     50.2 1.053e+04 5.195e-10
 18.54278     50.7 1.062e+04 5.444e-10
 18.56236     51.1 1.082e+04 6.084e-10
 18.58194     51.6 1.107e+04 7.173e-10
 18.60152     52.2 1.128e+04 8.514e-10
 18.62110     52.7 1.150e+04 9.915e-10
 18.64011     53.1 1.171e+04 1.104e-09
 18.64990     53.5 1.182e+04 1.153e-09
 18.66027     54.0 1.195e+04 1.242e-09
 18.67985     54.5 1.193e+04 1.233e-09
 18.69943     55.1 1.182e+04 1.172e-09
 18.71901     55.7 1.166e+04 1.034e-09
 18.73859     56.0 1.153e+04 9.108e-10
 18.75817     56.2 1.141e+04 7.859e-10
 18.77775     56.2 1.129e+04 7.057e-10
 18.80722     56.1 1.124e+04 6.883e-10
 18.84648     56.3 1.145e+04 8.114e-10
 18.86785     56.7 1.154e+04 9.009e-10
 18.88743     57.5 1.165e+04 9.767e-10
 18.91492     58.1 1.171e+04 1.079e-09
 18.93440     58.8 1.169e+04 1.070e-09
 18.95398     59.3 1.162e+04 1.020e-09
 18.97356     59.6 1.151e+04 9.517e-10
 18.99314     59.7 1.143e+04 9.098e-10
 19.01272     59.8 1.137e+04 8.831e-10
 19.03231     59.8 1.132e+04 8.702e-10
 19.05189     60.0 1.129e+04 8.716e-10
 19.06474     60.1 1.128e+04 8.755e-10
 19.07453     60.3 1.133e+04 9.419e-10
 19.09105     60.6 1.131e+04 9.300e-10
 19.11063     60.8 1.121e+04 9.086e-10
 19.13021     61.1 1.116e+04 8.797e-10
 19.14979     61.2 1.116e+04 8.573e-10
 19.16937     61.2 1.120e+04 8.596e-10
 19.18895     61.0 1.132e+04 8.899e-10
 19.20854     60.5 1.156e+04 9.834e-10
 19.22514     59.8 1.189e+04 1.164e-09
 19.23493     60.3 1.196e+04 1.186e-09
 19.24770     59.5 1.241e+04 1.500e-09
 19.26728     59.1 1.275e+04 1.885e-09
 19.28686     59.1 1.312e+04 2.115e-09
 19.30644     58.7 1.321e+04 2.085e-09
 19.32602     57.8 1.315e+04 1.911e-09
 19.34560     56.6 1.269e+04 1.579e-09
 19.36518     55.3 1.201e+04 1.246e-09
 19.38477     54.1 1.138e+04 9.864e-10
 19.40435     53.3 1.092e+04 8.110e-10
 19.42393     52.8 1.059e+04 6.872e-10
 19.44351     52.4 1.041e+04 6.177e-10
 19.46309     52.2 1.032e+04 5.753e-10
 19.47958     51.9 1.033e+04 5.633e-10
 19.48937     52.6 1.002e+04 5.005e-10
 19.50225     52.4 1.007e+04 4.884e-10
 19.52183     52.1 1.016e+04 5.029e-10
 19.54141     51.8 1.023e+04 5.283e-10
 19.56100     51.6 1.026e+04 5.534e-10
 19.58058     51.3 1.033e+04 5.774e-10
 19.59233     51.0 1.050e+04 6.082e-10
 19.60212     50.8 1.071e+04 6.749e-10
 19.61974     50.4 1.092e+04 6.984e-10
 19.63932     49.8 1.109e+04 7.330e-10
 19.65890     49.3 1.113e+04 7.754e-10
 19.67848     49.2 1.107e+04 8.145e-10
 19.69806     49.4 1.097e+04 8.307e-10
 19.71764     49.9 1.084e+04 8.066e-10
 19.73723     50.4 1.072e+04 7.469e-10
 19.75681     50.9 1.062e+04 6.705e-10
 19.77639     51.1 1.051e+04 6.048e-10
 19.79597     50.9 1.049e+04 5.393e-10
 19.81555     50.4 1.043e+04 5.077e-10
 19.83513     50.0 1.044e+04 5.133e-10
 19.85471     49.4 1.055e+04 5.478e-10
 19.87429     48.8 1.079e+04 6.293e-10
 19.89387     48.1 1.115e+04 7.741e-10
 19.90421     47.5 1.156e+04 9.729e-10
 19.91401     49.2 1.157e+04 9.738e-10
 19.93304     49.1 1.192e+04 1.165e-09
 19.94972     49.0 1.219e+04 1.259e-09
 19.95951     47.8 1.204e+04 1.179e-09
 19.97220     47.5 1.195e+04 1.095e-09
 19.99178     46.9 1.168e+04 8.950e-10
 20.01136     45.4 1.133e+04 6.790e-10
 20.03094     43.0 1.103e+04 5.186e-10
 20.05052     38.9 1.288e+04 5.487e-10
 20.07010     24.2 2.564e+04 1.142e-09
 20.08474     19.8 1.907e+04 3.981e-09
 20.09448     15.8 2.190e+04 5.189e-09
 20.10427      8.1 2.723e+04 1.859e-08
 20.11154     -1.8 2.849e+04 9.395e-08
 20.11643     -7.8 2.481e+04 3.231e-07
 20.12385    -14.5 2.360e+04 5.226e-07
 20.13322    -22.0 2.426e+04 2.758e-07
 20.13811    -21.6 2.394e+04 3.192e-07
 20.14343    -28.1 2.364e+04 1.253e-07
 20.15323    -31.9 2.170e+04 5.241e-08
 20.16302    -33.7 2.081e+04 2.676e-08
 20.17281    -35.0 2.073e+04 1.470e-08
 20.18260    -36.9 1.988e+04 8.448e-09
 20.19239    -38.4 1.860e+04 5.738e-09
 20.20712    -39.0 1.759e+04 4.191e-09
 20.22675    -40.0 1.525e+04 2.297e-09
 20.24633    -41.2 1.378e+04 1.582e-09
 20.26591    -41.7 1.282e+04 1.425e-09
 20.28550    -41.2 1.252e+04 1.393e-09
 20.30508    -40.3 1.245e+04 1.385e-09
 20.31691    -39.3 1.245e+04 1.369e-09
 20.32110    -38.5 1.249e+04 1.365e-09
 20.32885    -39.7 1.230e+04 1.342e-09
 20.34424    -38.7 1.215e+04 1.282e-09
 20.36382    -37.9 1.193e+04 1.165e-09
 20.38340    -37.1 1.165e+04 9.990e-10
 20.40298    -36.4 1.134e+04 8.049e-10
 20.42256    -35.8 1.102e+04 6.017e-10
 20.44214    -35.3 1.063e+04 4.239e-10
 20.46173    -34.6 1.029e+04 3.178e-10
 20.48131    -33.8 1.016e+04 2.776e-10
 20.50089    -33.5 1.011e+04 2.686e-10
 20.53036    -31.9 9.843e+03 2.182e-10
 20.56962    -31.5 9.164e+03 1.656e-10
 20.60878    -31.0 8.930e+03 1.548e-10
 20.64794    -30.6 9.105e+03 1.747e-10
 20.68710    -30.4 9.597e+03 2.366e-10
 20.72430    -30.3 9.966e+03 3.217e-10
 20.74388    -30.2 9.740e+03 2.866e-10
 20.76543    -29.8 9.927e+03 3.180e-10
 20.80459    -29.6 9.928e+03 3.159e-10
 20.83386    -29.5 9.844e+03 3.241e-10
 20.85335    -29.5 9.838e+03 3.151e-10
 20.87293    -29.5 9.928e+03 3.169e-10
 20.89251    -31.1 1.084e+04 3.539e-10
 20.91209    -36.0 1.421e+04 7.179e-10
 20.93167    -40.6 1.622e+04 2.309e-09
 20.95125    -42.2 1.721e+04 6.445e-09
 20.97083    -42.5 1.814e+04 1.259e-08
 20.99041    -42.8 1.898e+04 1.663e-08
 21.00505    -42.9 1.957e+04 2.012e-08
 21.01479    -43.4 1.978e+04 2.096e-08
 21.02458    -43.8 2.027e+04 1.973e-08
 21.03437    -44.7 2.084e+04 1.515e-08
 21.04139    -46.6 2.063e+04 1.125e-08
 21.04628    -46.7 2.069e+04 1.015e-08
 21.05396    -49.3 1.950e+04 7.512e-09
 21.06869    -53.1 1.729e+04 4.980e-09
 21.08832    -55.4 1.611e+04 4.112e-09
 21.10790    -56.8 1.533e+04 3.309e-09
 21.12748    -58.0 1.444e+04 2.586e-09
 21.14706    -59.2 1.358e+04 2.083e-09
 21.15853    -60.0 1.306e+04 1.805e-09
 21.16832    -59.5 1.349e+04 1.986e-09
 21.18623    -60.5 1.296e+04 1.724e-09
 21.20581    -61.0 1.280e+04 1.628e-09
 21.22539    -61.3 1.278e+04 1.603e-09
 21.24497    -61.5 1.279e+04 1.599e-09
 21.26455    -61.7 1.291e+04 1.614e-09
 21.28413    -62.1 1.314e+04 1.659e-09
 21.30371    -63.0 1.353e+04 1.762e-09
 21.32329    -64.4 1.398e+04 1.968e-09
 21.34287    -65.9 1.430e+04 2.323e-09
 21.36246    -67.1 1.447e+04 2.796e-09
 21.38204    -67.7 1.459e+04 3.281e-09
 21.39888    -68.2 1.457e+04 3.585e-09
 21.40867    -67.9 1.480e+04 3.751e-09
 21.42120    -68.6 1.479e+04 3.854e-09
 21.44078    -69.3 1.464e+04 3.846e-09
 21.46036    -70.0 1.437e+04 3.621e-09
 21.47994    -70.6 1.409e+04 3.359e-09
 21.49952    -70.8 1.387e+04 3.137e-09
 21.51910    -70.8 1.366e+04 2.883e-09
 21.53869    -70.7 1.337e+04 2.530e-09
 21.55827    -70.5 1.299e+04 2.109e-09
 21.57337    -70.4 1.254e+04 1.695e-09
 21.58316    -70.2 1.250e+04 1.668e-09
 21.59743    -70.2 1.202e+04 1.328e-09
 21.61701    -70.3 1.156e+04 1.081e-09
 21.63659    -70.2 1.118e+04 9.198e-10
 21.65617    -69.8 1.092e+04 8.261e-10
 21.67575    -69.3 1.075e+04 7.765e-10
 21.69533    -68.6 1.069e+04 7.600e-10
 21.71491    -68.1 1.068e+04 7.584e-10
 21.73450    -68.6 1.092e+04 7.656e-10
 21.75408    -75.4 1.581e+04 1.230e-09
 21.76606    -83.5 2.041e+04 5.503e-09
 21.77585    -84.4 2.169e+04 8.562e-09
 21.78564    -88.1 2.239e+04 1.924e-08
 21.79049    -87.7 2.213e+04 1.527e-08
 21.79804    -90.1 2.256e+04 2.960e-08
 21.80783    -91.6 2.251e+04 5.043e-08
 21.81762    -92.4 2.243e+04 5.772e-08
 21.82741    -93.3 2.236e+04 5.692e-08
 21.83720    -94.4 2.230e+04 3.668e-08
 21.84699    -97.9 2.228e+04 1.439e-08
 21.85678   -105.1 2.065e+04 3.864e-09
 21.87151   -115.9 1.470e+04 9.778e-10
 21.89114   -120.8 1.164e+04 5.591e-10
 21.91073   -125.3 9.529e+03 3.081e-10
 21.93031   -126.5 9.031e+03 2.508e-10
 21.94989   -126.7 8.948e+03 2.418e-10
 21.97936   -126.8 8.940e+03 2.425e-10
 22.01862   -127.0 9.233e+03 3.067e-10
 22.05778   -128.1 9.694e+03 4.150e-10
 22.09694   -129.0 1.005e+04 4.986e-10
 22.13610   -129.8 1.023e+04 5.181e-10
 22.16538   -131.2 1.008e+04 5.105e-10
 22.18486   -132.7 9.862e+03 4.592e-10
 22.20444   -133.6 9.654e+03 3.953e-10
 22.22402   -133.8 9.635e+03 3.617e-10
 22.24360   -133.7 9.640e+03 3.524e-10
 22.26319   -133.9 9.637e+03 3.436e-10
 22.28277   -134.1 9.650e+03 3.376e-10
 22.30235   -134.5 9.685e+03 3.370e-10
 22.32193   -135.8 9.832e+03 3.415e-10
 22.34151   -137.5 1.040e+04 4.389e-10
 22.36109   -139.0 1.113e+04 6.456e-10
 22.38067   -140.2 1.207e+04 1.029e-09
 22.40025   -141.2 1.307e+04 1.636e-09
 22.41285   -142.1 1.405e+04 2.579e-09
 22.42264   -141.8 1.412e+04 2.353e-09
 22.43942   -142.8 1.500e+04 3.579e-09
 22.45900   -144.0 1.547e+04 4.322e-09
 22.47858   -145.3 1.558e+04 4.531e-09
 22.49064   -146.3 1.528e+04 4.224e-09
 22.50043   -147.5 1.520e+04 4.118e-09
 22.51774   -147.9 1.457e+04 3.417e-09
 22.53732   -148.0 1.400e+04 2.789e-09
 22.55690   -148.1 1.353e+04 2.267e-09
 22.57648   -148.1 1.313e+04 1.835e-09
 22.59606   -148.0 1.275e+04 1.467e-09
 22.61565   -148.0 1.236e+04 1.167e-09
 22.63523   -148.1 1.195e+04 9.267e-10
 22.65481   -148.1 1.155e+04 7.461e-10
 22.67439   -148.2 1.119e+04 6.154e-10
 22.69397   -148.3 1.090e+04 5.242e-10
 22.71355   -148.3 1.070e+04 4.676e-10
 22.73313   -148.2 1.058e+04 4.392e-10
 22.75271   -147.9 1.049e+04 4.159e-10
 22.77229   -147.6 1.043e+04 3.952e-10
 22.79187   -147.1 1.038e+04 3.783e-10
 22.81146   -147.0 1.038e+04 3.686e-10
 22.84093   -146.7 1.044e+04 3.636e-10
 22.88019   -145.8 1.038e+04 3.452e-10
 22.91935   -144.9 1.036e+04 3.424e-10
 22.95851   -144.6 1.048e+04 3.562e-10
 22.99767   -144.7 1.072e+04 4.213e-10
 23.03683   -144.8 1.101e+04 5.348e-10
 23.07600   -145.1 1.131e+04 6.770e-10
 23.11516   -145.4 1.171e+04 8.447e-10
 23.15432   -145.7 1.222e+04 1.052e-09
 23.18359   -145.3 1.279e+04 1.308e-09
 23.20308   -146.5 1.315e+04 1.535e-09
 23.21522   -147.8 1.340e+04 1.805e-09
 23.22501   -148.5 1.367e+04 2.105e-09
 23.24224   -149.4 1.368e+04 2.138e-09
 23.25232   -150.0 1.357e+04 2.096e-09
 23.26211   -150.2 1.367e+04 2.133e-09
 23.28140   -150.7 1.341e+04 1.889e-09
 23.30098   -151.3 1.309e+04 1.557e-09
 23.32056   -151.8 1.278e+04 1.268e-09
 23.34015   -152.4 1.251e+04 1.061e-09
 23.35973   -152.8 1.231e+04 9.269e-10
 23.37931   -153.0 1.217e+04 8.466e-10
 23.39889   -153.1 1.208e+04 8.077e-10
 23.41847   -153.0 1.204e+04 7.993e-10
 23.43805   -153.0 1.204e+04 7.997e-10
 23.45763   -152.9 1.213e+04 8.169e-10
 23.47721   -153.0 1.226e+04 8.619e-10
 23.49679   -152.9 1.243e+04 9.159e-10
 23.51638   -152.9 1.264e+04 9.617e-10
 23.53596   -152.9 1.284e+04 9.790e-10
 23.55554   -153.2 1.291e+04 9.776e-10
 23.57261   -153.6 1.299e+04 9.256e-10
 23.58240   -153.7 1.314e+04 1.004e-09
 23.59470   -154.6 1.306e+04 9.071e-10
 23.61428   -155.8 1.291e+04 8.599e-10
 23.63386   -157.1 1.284e+04 8.546e-10
 23.65344   -158.5 1.283e+04 8.579e-10
 23.66716   -160.2 1.282e+04 8.931e-10
 23.67695   -159.8 1.284e+04 8.619e-10
 23.69260   -160.8 1.301e+04 9.059e-10
 23.71219   -163.0 1.372e+04 9.965e-10
 23.73177   -166.2 1.608e+04 1.609e-09
 23.75135   -169.0 1.790e+04 3.468e-09
 23.77093   -171.1 1.892e+04 6.939e-09
 23.79051   -172.7 1.951e+04 1.116e-08
 23.81009   -174.3 1.978e+04 1.414e-08
 23.82967   -175.7 1.975e+04 1.480e-08
 23.84925   -177.2 1.950e+04 1.289e-08
 23.86883   -179.5 1.886e+04 8.438e-09
 23.88842   -183.1 1.799e+04 5.073e-09
 23.90800   -187.6 1.732e+04 3.866e-09
 23.92758   -191.4 1.723e+04 3.769e-09
 23.93980   -194.6 1.724e+04 4.327e-09
 23.94959   -194.4 1.835e+04 6.663e-09
 23.96180   -195.4 1.823e+04 6.574e-09
 23.97154   -197.2 1.861e+04 8.066e-09
 23.98133   -199.0 1.918e+04 1.037e-08
 23.99112   -200.7 1.969e+04 1.312e-08
 24.00091   -202.3 2.007e+04 1.574e-08
 24.01070   -204.0 2.035e+04 1.750e-08
 24.02049   -205.8 2.049e+04 1.813e-08
 24.03028   -207.9 2.059e+04 1.739e-08
 24.04007   -210.3 2.069e+04 1.654e-08
 24.04986   -213.0 2.072e+04 1.566e-08
 24.05965   -215.8 2.060e+04 1.476e-08
 24.06944   -218.4 2.030e+04 1.373e-08
 24.07923   -220.7 1.981e+04 1.245e-08
 24.08680   -222.8 1.913e+04 1.089e-08
 24.09170   -223.4 1.977e+04 1.284e-08
 24.09881   -225.2 1.883e+04 1.045e-08
 24.10861   -226.7 1.781e+04 8.265e-09
 24.11839   -227.9 1.680e+04 6.482e-09
 24.12818   -229.1 1.559e+04 4.709e-09
 24.14292   -229.8 1.526e+04 4.161e-09
 24.16255   -230.0 1.455e+04 3.215e-09
 24.18213   -230.1 1.359e+04 2.183e-09
 24.20171   -230.2 1.255e+04 1.421e-09
 24.22129   -230.3 1.162e+04 9.606e-10
 24.24088   -230.1 1.098e+04 6.840e-10
 24.26046   -229.4 1.056e+04 5.082e-10
 24.28004   -228.8 1.027e+04 3.954e-10
 24.29719   -228.3 1.007e+04 3.346e-10
 24.30698   -228.7 9.989e+03 3.192e-10
 24.32909   -227.9 9.865e+03 2.918e-10
 24.36835   -225.5 9.393e+03 2.281e-10
 24.40751   -223.4 8.965e+03 1.766e-10
 24.44667   -221.5 8.693e+03 1.439e-10
 24.48583   -219.7 8.535e+03 1.237e-10
 24.52500   -218.0 8.444e+03 1.111e-10
 24.56416   -216.2 8.376e+03 1.021e-10
 24.60332   -214.6 8.314e+03 9.573e-11
 24.64248   -212.9 8.246e+03 9.132e-11
 24.66457   -211.3 8.174e+03 8.898e-11
 24.68415   -211.9 8.117e+03 8.846e-11
 24.72081   -210.3 8.093e+03 8.833e-11
 24.75997   -208.8 8.077e+03 8.879e-11
 24.79913   -207.2 8.069e+03 8.929e-11
 24.83829   -205.7 8.067e+03 8.937e-11
 24.87746   -204.1 8.034e+03 8.875e-11
 24.91188   -202.5 7.963e+03 8.378e-11
 24.93147   -202.7 7.961e+03 8.425e-11
 24.95578   -201.1 7.906e+03 7.623e-11
 24.99494   -199.4 7.851e+03 6.649e-11
 25.03410   -197.7 7.794e+03 5.721e-11
 25.07327   -196.1 7.735e+03 4.997e-11
 25.11243   -194.4 7.672e+03 4.537e-11
 25.15159   -192.6 7.632e+03 4.308e-11
 25.19075   -190.8 7.616e+03 4.260e-11
 25.22992   -188.9 7.608e+03 4.280e-11
 25.26908   -187.0 7.590e+03 4.512e-11
 25.30824   -185.1 7.600e+03 4.840e-11
 25.34740   -183.3 7.612e+03 5.116e-11
 25.37936   -181.5 7.615e+03 5.218e-11
 25.39894   -182.2 7.618e+03 5.437e-11
 25.42573   -180.5 7.607e+03 5.206e-11
 25.46489   -178.8 7.603e+03 4.786e-11
 25.50405   -177.2 7.626e+03 4.359e-11
 25.54321   -176.2 7.690e+03 4.039e-11
 25.58238   -176.0 7.731e+03 3.889e-11
 25.62154   -176.1 7.716e+03 3.919e-11
 25.66070   -177.1 7.939e+03 6.587e-11
 25.69986   -177.9 8.492e+03 1.415e-10
 25.73902   -178.4 9.089e+03 2.686e-10
 25.76115   -178.7 9.680e+03 4.178e-10
 25.78073   -178.5 9.431e+03 3.494e-10
 25.81735   -178.8 9.753e+03 4.136e-10
 25.85651   -179.2 9.835e+03 4.258e-10
 25.89567   -179.3 9.838e+03 4.018e-10
 25.93483   -179.4 9.605e+03 3.071e-10
 25.97400   -179.3 9.226e+03 2.250e-10
 26.01316   -178.8 8.874e+03 1.812e-10
 26.05232   -178.0 8.731e+03 1.580e-10
 26.09148   -177.0 8.677e+03 1.490e-10
 26.11372   -175.9 8.676e+03 1.484e-10
 26.13331   -176.3 8.938e+03 1.934e-10
 26.16981   -175.2 9.042e+03 2.112e-10
 26.20897   -174.0 9.158e+03 2.317e-10
 26.24813   -172.9 9.305e+03 2.571e-10
 26.28729   -171.8 9.508e+03 2.919e-10
 26.32646   -170.8 9.766e+03 3.389e-10
 26.36562   -170.1 1.001e+04 3.920e-10
 26.39489   -169.4 1.006e+04 4.052e-10
 26.41438   -169.5 1.015e+04 4.387e-10
 26.43396   -169.7 1.031e+04 5.063e-10
 26.45354   -170.2 1.053e+04 5.948e-10
 26.47092   -170.9 1.086e+04 7.135e-10
 26.48071   -171.8 1.119e+04 8.349e-10
 26.49270   -172.9 1.179e+04 1.088e-09
 26.51228   -174.1 1.239e+04 1.430e-09
 26.53186   -175.1 1.291e+04 1.832e-09
 26.55144   -176.1 1.326e+04 2.190e-09
 26.57102   -177.0 1.344e+04 2.390e-09
 26.59061   -178.0 1.347e+04 2.427e-09
 26.61019   -178.7 1.314e+04 1.983e-09
 26.62977   -179.6 1.282e+04 1.523e-09
 26.64935   -180.5 1.240e+04 1.095e-09
 26.66893   -181.4 1.198e+04 7.952e-10
 26.68851   -182.0 1.163e+04 6.281e-10
 26.71798   -182.3 1.136e+04 5.313e-10
 26.75724   -182.3 1.117e+04 4.705e-10
 26.79640   -182.2 1.115e+04 4.611e-10
 26.82851   -182.2 1.151e+04 5.197e-10
 26.84800   -182.3 1.159e+04 5.278e-10
 26.86474   -182.6 1.193e+04 6.119e-10
 26.88432   -182.9 1.227e+04 7.223e-10
 26.90390   -183.1 1.258e+04 8.350e-10
 26.92348   -183.3 1.287e+04 9.504e-10
 26.94307   -183.5 1.313e+04 1.064e-09
 26.96265   -183.9 1.333e+04 1.170e-09
 26.98223   -184.5 1.336e+04 1.241e-09
 27.00181   -185.1 1.334e+04 1.258e-09
 27.01527   -185.3 1.301e+04 1.165e-09
 27.02506   -186.0 1.287e+04 1.103e-09
 27.04097   -185.9 1.255e+04 8.914e-10
 27.06055   -185.8 1.231e+04 6.899e-10
 27.08013   -185.9 1.208e+04 5.197e-10
 27.09971   -186.2 1.186e+04 3.958e-10
 27.11930   -186.3 1.163e+04 3.210e-10
 27.14876   -186.1 1.138e+04 2.621e-10
 27.18802   -184.5 1.090e+04 1.820e-10
 27.22719   -182.9 1.058e+04 1.327e-10
 27.26635   -181.4 1.044e+04 1.037e-10
 27.30551   -180.2 1.042e+04 8.805e-11
 27.34467   -179.5 1.040e+04 8.257e-11
 27.38384   -179.3 1.036e+04 8.098e-11
 27.42052   -179.5 1.057e+04 9.133e-11
 27.44010   -179.8 1.053e+04 9.166e-11
 27.46216   -181.4 1.137e+04 1.736e-10
 27.50132   -184.0 1.262e+04 4.082e-10
 27.53060   -184.9 1.291e+04 6.446e-10
 27.55008   -186.0 1.348e+04 8.739e-10
 27.56268   -187.8 1.417e+04 1.373e-09
 27.57248   -187.0 1.386e+04 1.229e-09
 27.58924   -188.8 1.441e+04 1.733e-09
 27.60882   -190.8 1.467e+04 2.485e-09
 27.62840   -192.3 1.455e+04 2.928e-09
 27.64798   -193.3 1.445e+04 3.070e-09
 27.66757   -193.6 1.419e+04 3.104e-09
 27.68715   -193.6 1.371e+04 2.750e-09
 27.70673   -193.7 1.324e+04 2.238e-09
 27.72631   -193.6 1.282e+04 1.809e-09
 27.74589   -193.2 1.236e+04 1.433e-09
 27.76547   -192.6 1.193e+04 1.119e-09
 27.78505   -192.0 1.155e+04 8.612e-10
 27.80463   -191.4 1.125e+04 6.520e-10
 27.82421   -190.9 1.097e+04 4.978e-10
 27.85368   -190.4 1.071e+04 4.004e-10
 27.89294   -188.9 1.046e+04 3.446e-10
 27.93211   -186.7 1.015e+04 2.935e-10
 27.97127   -184.7 9.913e+03 2.556e-10
 28.01043   -182.6 9.745e+03 2.283e-10
 28.04959   -180.6 9.619e+03 2.072e-10
 28.08875   -178.7 9.545e+03 1.957e-10
 28.12792   -176.8 9.514e+03 1.923e-10
 28.16708   -175.1 9.506e+03 1.917e-10
 28.20624   -173.5 9.485e+03 1.972e-10
 28.24540   -172.0 9.401e+03 2.069e-10
 28.26978   -170.5 9.321e+03 2.101e-10
 28.28246   -170.9 9.062e+03 1.722e-10
 28.29725   -171.3 9.093e+03 2.009e-10
 28.32373   -169.6 9.069e+03 2.069e-10
 28.36289   -167.8 8.986e+03 2.059e-10
 28.40205   -165.7 8.789e+03 1.871e-10
 28.44121   -163.6 8.618e+03 1.586e-10
 28.48038   -161.3 8.479e+03 1.324e-10
 28.51954   -159.1 8.360e+03 1.126e-10
 28.55870   -156.7 8.283e+03 9.984e-11
 28.59786   -154.2 8.270e+03 9.481e-11
 28.63703   -151.9 8.276e+03 9.420e-11
 28.67619   -150.3 8.412e+03 1.011e-10
 28.71535   -149.6 9.142e+03 1.641e-10
 28.74462   -149.5 9.995e+03 2.952e-10
 28.76411   -150.2 1.060e+04 4.747e-10
 28.78369   -150.5 1.131e+04 8.963e-10
 28.80327   -150.4 1.188e+04 1.440e-09
 28.82285   -150.1 1.235e+04 1.930e-09
 28.84243   -150.0 1.264e+04 2.141e-09
 28.86201   -150.2 1.271e+04 2.163e-09
 28.88159   -150.9 1.251e+04 1.970e-09
 28.90117   -151.7 1.205e+04 1.548e-09
 28.92076   -152.5 1.138e+04 1.190e-09
 28.94034   -152.9 1.089e+04 9.773e-10
 28.95992   -153.0 1.053e+04 8.315e-10
 28.98939   -152.8 1.024e+04 7.047e-10
 29.01194   -152.8 9.606e+03 5.408e-10
 29.02163   -153.0 9.623e+03 5.525e-10
 29.03824   -152.9 9.466e+03 5.018e-10
 29.05782   -152.7 9.273e+03 4.453e-10
 29.07740   -152.5 9.119e+03 3.999e-10
 29.09699   -152.3 9.082e+03 3.796e-10
 29.10906   -152.3 9.086e+03 3.763e-10
 29.11885   -153.4 9.235e+03 4.253e-10
 29.13615   -153.8 9.413e+03 4.381e-10
 29.15573   -154.5 9.739e+03 5.080e-10
 29.17531   -155.2 1.009e+04 6.280e-10
 29.19489   -155.6 1.045e+04 7.878e-10
 29.21447   -155.9 1.078e+04 9.703e-10
 29.23405   -156.0 1.108e+04 1.154e-09
 29.25363   -156.2 1.133e+04 1.323e-09
 29.27322   -156.3 1.155e+04 1.466e-09
 29.29280   -156.4 1.173e+04 1.581e-09
 29.31238   -156.6 1.186e+04 1.663e-09
 29.33196   -156.8 1.192e+04 1.695e-09
 29.35154   -157.1 1.193e+04 1.701e-09
 29.36923   -157.3 1.188e+04 1.668e-09
 29.37902   -157.1 1.161e+04 1.483e-09
 29.39070   -157.1 1.147e+04 1.370e-09
 29.41028   -157.2 1.129e+04 1.226e-09
 29.42986   -157.5 1.113e+04 1.103e-09
 29.44944   -158.0 1.107e+04 1.036e-09
 29.46903   -158.7 1.108e+04 1.020e-09
 29.48861   -159.5 1.129e+04 1.064e-09
 29.50819   -160.5 1.158e+04 1.205e-09
 29.52390   -161.2 1.183e+04 1.395e-09
 29.53369   -162.4 1.189e+04 1.459e-09
 29.54735   -162.7 1.195e+04 1.583e-09
 29.56693   -162.9 1.194e+04 1.623e-09
 29.58651   -162.9 1.190e+04 1.625e-09
 29.60609   -162.7 1.172e+04 1.520e-09
 29.62567   -162.6 1.157e+04 1.313e-09
 29.64526   -162.5 1.148e+04 1.124e-09
 29.66484   -162.7 1.148e+04 9.913e-10
 29.68442   -163.1 1.152e+04 9.552e-10
 29.70400   -163.5 1.170e+04 9.551e-10
 29.72358   -163.8 1.205e+04 1.118e-09
 29.73642   -163.9 1.233e+04 1.417e-09
 29.74621   -163.8 1.235e+04 1.403e-09
 29.76274   -163.4 1.253e+04 1.752e-09
 29.78232   -162.7 1.270e+04 2.072e-09
 29.80190   -162.2 1.280e+04 2.248e-09
 29.82149   -161.9 1.281e+04 2.284e-09
 29.84107   -161.5 1.268e+04 2.134e-09
 29.86065   -161.2 1.242e+04 1.844e-09
 29.88023   -161.0 1.208e+04 1.556e-09
 29.89981   -160.9 1.176e+04 1.320e-09
 29.91939   -160.7 1.149e+04 1.157e-09
 29.93874   -160.5 1.127e+04 1.051e-09
 29.94853   -160.6 1.130e+04 1.103e-09
 29.95855   -160.1 1.121e+04 1.061e-09
 29.97813   -159.5 1.113e+04 1.035e-09
 29.99772   -158.9 1.106e+04 1.011e-09
 30.01730   -158.1 1.100e+04 9.884e-10
 30.03688   -157.3 1.095e+04 9.647e-10
 30.05646   -156.4 1.090e+04 9.403e-10
 30.07604   -155.5 1.086e+04 9.057e-10
 30.09381   -154.7 1.082e+04 8.552e-10
 30.10360   -154.9 1.082e+04 8.413e-10
 30.11520   -154.0 1.072e+04 7.755e-10
 30.13478   -153.2 1.063e+04 7.184e-10
 30.15436   -152.4 1.053e+04 6.710e-10
 30.17395   -151.7 1.044e+04 6.333e-10
 30.19353   -150.9 1.036e+04 6.061e-10
 30.21311   -150.2 1.030e+04 5.892e-10
 30.23269   -149.5 1.027e+04 5.818e-10
 30.25227   -148.7 1.026e+04 5.804e-10
 30.27185   -148.0 1.026e+04 5.830e-10
 30.29143   -147.3 1.029e+04 5.986e-10
 30.31101   -146.5 1.033e+04 6.212e-10
 30.33059   -145.8 1.039e+04 6.457e-10
 30.35018   -145.1 1.044e+04 6.676e-10
 30.36338   -144.5 1.047e+04 6.834e-10
 30.37317   -144.6 1.020e+04 5.715e-10
 30.38934   -144.1 1.022e+04 5.890e-10
 30.40892   -143.6 1.024e+04 5.993e-10
 30.42850   -143.0 1.027e+04 6.050e-10
 30.44808   -142.5 1.027e+04 6.054e-10
 30.46100   -141.9 1.026e+04 6.001e-10
 30.47079   -142.1 1.027e+04 6.007e-10
 30.48724   -141.5 1.021e+04 5.781e-10
 30.50682   -140.9 1.013e+04 5.423e-10
 30.52640   -140.4 1.003e+04 5.028e-10
 30.54599   -139.9 9.936e+03 4.678e-10
 30.56557   -139.6 9.883e+03 4.400e-10
 30.58515   -139.4 9.848e+03 4.294e-10
 30.60473   -139.4 9.842e+03 4.286e-10
 30.62431   -139.6 1.004e+04 4.390e-10
 30.64389   -140.3 1.037e+04 5.071e-10
 30.66347   -140.9 1.071e+04 6.307e-10
 30.68305   -141.2 1.099e+04 7.968e-10
 30.70263   -141.3 1.119e+04 9.663e-10
 30.72222   -141.3 1.130e+04 1.081e-09
 30.74180   -141.2 1.133e+04 1.115e-09
 30.76138   -141.0 1.129e+04 1.110e-09
 30.77822   -140.7 1.109e+04 9.943e-10
 30.78801   -140.5 1.097e+04 8.971e-10
 30.80054   -140.3 1.076e+04 7.875e-10
 30.81839   -140.1 1.056e+04 6.903e-10
 30.82818   -141.0 1.048e+04 6.599e-10
 30.83970   -140.7 1.026e+04 5.889e-10
 30.85928   -140.3 1.009e+04 5.203e-10
 30.87886   -139.8 9.974e+03 4.560e-10
 30.90833   -139.1 9.875e+03 3.992e-10
 30.94759   -138.0 9.660e+03 3.314e-10
 30.98676   -136.7 9.390e+03 2.645e-10
 31.02592   -135.1 9.204e+03 2.213e-10
 31.06508   -133.4 9.163e+03 2.044e-10
 31.10424   -131.6 9.162e+03 2.018e-10
 31.14340   -129.7 9.198e+03 2.019e-10
 31.17598   -127.7 9.270e+03 2.059e-10
 31.19556   -128.4 9.259e+03 2.007e-10
 31.22173   -126.4 9.302e+03 1.993e-10
 31.26089   -124.3 9.291e+03 1.932e-10
 31.30005   -122.2 9.247e+03 1.808e-10
 31.33922   -119.9 9.184e+03 1.628e-10
 31.37838   -117.6 9.101e+03 1.404e-10
 31.41754   -115.2 9.018e+03 1.181e-10
 31.45670   -112.8 8.955e+03 1.005e-10
 31.49586   -110.4 8.924e+03 8.926e-11
 31.53503   -107.9 8.915e+03 7.959e-11
 31.57419   -105.4 8.925e+03 7.237e-11
 31.60810   -103.0 8.959e+03 6.840e-11
 31.62768   -103.0 9.035e+03 8.542e-11
 31.65251   -100.7 9.053e+03 8.461e-11
 31.69167    -98.6 9.229e+03 8.913e-11
 31.73084    -96.7 9.462e+03 1.186e-10
 31.77000    -94.7 9.687e+03 1.767e-10
 31.80916    -92.6 9.931e+03 2.570e-10
 31.84832    -90.6 1.016e+04 3.420e-10
 31.88749    -88.9 1.032e+04 4.043e-10
 31.91035    -87.5 1.038e+04 4.307e-10
 31.92993    -88.5 1.043e+04 4.366e-10
 31.96581    -87.3 1.044e+04 4.440e-10
 32.00497    -86.1 1.032e+04 4.285e-10
 32.04413    -84.9 1.019e+04 3.859e-10
 32.08330    -83.6 9.992e+03 3.272e-10
 32.12246    -82.5 9.771e+03 2.678e-10
 32.16162    -81.4 9.539e+03 2.193e-10
 32.20078    -80.2 9.356e+03 1.897e-10
 32.23995    -78.9 9.259e+03 1.810e-10
 32.27911    -77.5 9.234e+03 1.793e-10
 32.31827    -76.3 9.309e+03 1.914e-10
 32.35743    -75.2 9.520e+03 2.259e-10
 32.39659    -74.5 9.844e+03 2.947e-10
 32.43576    -74.0 1.024e+04 3.969e-10
 32.45736    -73.9 1.068e+04 5.144e-10
 32.47694    -74.4 1.042e+04 4.575e-10
 32.51408    -74.6 1.040e+04 4.027e-10
 32.55324    -76.1 1.023e+04 3.363e-10
 32.59240    -77.8 1.015e+04 3.116e-10
 32.62168    -78.5 1.041e+04 3.871e-10
 32.63473    -78.8 1.048e+04 4.359e-10
 32.64452    -79.2 1.050e+04 4.448e-10
 32.66074    -79.2 1.059e+04 5.239e-10
 32.68032    -79.1 1.065e+04 5.957e-10
 32.69991    -79.1 1.084e+04 7.221e-10
 32.71949    -80.4 1.233e+04 1.064e-09
 32.73907    -83.7 1.527e+04 2.095e-09
 32.75865    -87.1 1.871e+04 4.309e-09
 32.77329    -87.6 1.955e+04 4.181e-09
 32.78303    -89.7 2.103e+04 7.105e-09
 32.79282    -91.7 2.153e+04 1.273e-08
 32.80261    -92.3 2.129e+04 2.008e-08
 32.81240    -92.4 2.069e+04 2.815e-08
 32.81822    -92.0 2.019e+04 3.470e-08
 32.82312    -92.3 2.047e+04 3.621e-08
 32.83198    -92.1 2.062e+04 3.179e-08
 32.84177    -92.8 2.174e+04 2.181e-08
 32.85156    -94.5 2.336e+04 1.314e-08
 32.86135    -96.5 2.535e+04 7.574e-09
 32.87114    -98.4 2.750e+04 4.332e-09
 32.87681   -102.6 3.184e+04 2.156e-09
 32.88175   -100.3 2.625e+04 3.919e-09
 32.89572   -108.6 2.950e+04 9.637e-10
 32.91530   -116.3 1.971e+04 6.009e-10
 32.93488   -120.4 1.158e+04 7.072e-10
 32.95446   -121.3 1.042e+04 7.434e-10
 32.98393   -121.3 1.079e+04 8.581e-10
 33.02319   -120.8 1.155e+04 1.195e-09
 33.06235   -120.7 1.227e+04 1.653e-09
 33.10151   -121.0 1.282e+04 2.131e-09
 33.13079   -120.9 1.306e+04 2.422e-09
 33.15027   -121.0 1.303e+04 2.408e-09
 33.16985   -120.8 1.279e+04 2.056e-09
 33.18943   -120.7 1.232e+04 1.503e-09
 33.20901   -121.1 1.176e+04 1.049e-09
 33.22860   -121.8 1.114e+04 7.247e-10
 33.24818   -122.4 1.060e+04 5.225e-10
 33.26776   -122.8 1.023e+04 4.075e-10
 33.28685   -122.9 1.005e+04 3.493e-10
 33.29664   -122.8 1.017e+04 3.726e-10
 33.30692   -122.8 1.017e+04 3.625e-10
 33.32650   -122.9 1.035e+04 3.723e-10
 33.34608   -122.9 1.069e+04 4.308e-10
 33.35931   -122.7 1.094e+04 5.186e-10
 33.36910   -123.9 1.171e+04 9.977e-10
 33.38524   -123.0 1.169e+04 1.149e-09
 33.40482   -121.9 1.169e+04 1.278e-09
 33.42441   -120.7 1.163e+04 1.352e-09
 33.44399   -119.5 1.159e+04 1.370e-09
 33.46357   -118.2 1.141e+04 1.300e-09
 33.48315   -117.0 1.123e+04 1.188e-09
 33.50273   -115.7 1.102e+04 1.052e-09
 33.52231   -114.6 1.083e+04 9.162e-10
 33.54189   -113.4 1.065e+04 7.876e-10
 33.56147   -112.3 1.052e+04 6.672e-10
 33.58105   -111.2 1.044e+04 5.626e-10
 33.60064   -110.4 1.040e+04 4.931e-10
 33.62022   -110.0 1.037e+04 4.582e-10
 33.64969   -109.3 1.027e+04 4.156e-10
 33.68895   -107.1 1.002e+04 3.482e-10
 33.72811   -104.9 9.850e+03 2.976e-10
 33.76727   -102.8 9.699e+03 2.533e-10
 33.80643   -100.9 9.615e+03 2.184e-10
 33.84559    -99.0 9.569e+03 1.935e-10
 33.88476    -97.1 9.563e+03 1.788e-10
 33.92392    -95.2 9.573e+03 1.714e-10
 33.96308    -93.2 9.575e+03 1.690e-10
 34.00224    -91.3 9.571e+03 1.693e-10
 34.04141    -89.3 9.543e+03 1.760e-10
 34.07429    -87.2 9.521e+03 1.849e-10
 34.09387    -87.8 9.445e+03 1.606e-10
 34.11673    -85.8 9.470e+03 1.692e-10
 34.13631    -85.7 9.493e+03 1.730e-10
 34.15889    -83.9 9.501e+03 1.763e-10
 34.19805    -82.1 9.497e+03 1.790e-10
 34.23722    -80.4 9.451e+03 1.829e-10
 34.27638    -78.8 9.421e+03 1.927e-10
 34.31554    -77.3 9.454e+03 2.091e-10
 34.35470    -76.0 9.494e+03 2.295e-10
 34.39387    -74.7 9.513e+03 2.474e-10
 34.43303    -73.5 9.507e+03 2.558e-10
 34.47219    -72.3 9.503e+03 2.574e-10
 34.51135    -71.0 9.370e+03 2.528e-10
 34.55051    -69.7 9.265e+03 2.306e-10
 34.58968    -68.6 9.144e+03 2.037e-10
 34.62884    -67.6 9.041e+03 1.804e-10
 34.66800    -66.8 8.952e+03 1.650e-10
 34.70716    -66.0 8.873e+03 1.565e-10
 34.74632    -65.2 8.804e+03 1.519e-10
 34.78549    -64.4 8.728e+03 1.481e-10
 34.80866    -63.5 8.632e+03 1.400e-10
 34.82824    -65.2 8.376e+03 1.228e-10
 34.86381    -64.2 8.273e+03 1.035e-10
 34.90297    -63.3 8.129e+03 8.696e-11
 34.94214    -62.5 8.037e+03 7.962e-11
 34.96599    -62.3 8.108e+03 7.923e-11
 34.98557    -68.9 1.251e+04 1.237e-10
 35.01057    -72.1 1.577e+04 1.587e-10
 35.03006    -77.2 1.621e+04 5.319e-10
 35.04964    -81.1 1.638e+04 1.814e-09
 35.06922    -82.1 1.652e+04 5.301e-09
 35.08880    -81.9 1.667e+04 9.124e-09
 35.10838    -81.2 1.669e+04 1.041e-08
 35.12796    -80.8 1.640e+04 1.016e-08
 35.14754    -80.6 1.586e+04 6.954e-09
 35.16586    -82.2 1.566e+04 3.984e-09
 35.17565    -82.2 1.554e+04 4.695e-09
 35.18670    -86.2 1.495e+04 2.273e-09
 35.20628    -90.8 1.335e+04 1.226e-09
 35.22587    -94.0 1.251e+04 9.625e-10
 35.24545    -96.4 1.239e+04 9.154e-10
 35.26503    -99.4 1.265e+04 9.313e-10
 35.28461   -102.9 1.290e+04 1.197e-09
 35.30419   -106.0 1.301e+04 1.657e-09
 35.32377   -108.9 1.331e+04 2.165e-09
 35.34335   -112.1 1.371e+04 2.549e-09
 35.36293   -116.3 1.405e+04 2.702e-09
 35.38064   -121.1 1.418e+04 2.731e-09
 35.39043   -120.7 1.395e+04 2.629e-09
 35.40210   -125.2 1.389e+04 2.535e-09
 35.42168   -129.5 1.368e+04 2.372e-09
 35.44126   -133.2 1.332e+04 2.138e-09
 35.46084   -136.2 1.277e+04 1.781e-09
 35.48042   -138.6 1.213e+04 1.371e-09
 35.50000   -140.6 1.153e+04 1.007e-09
 35.51958   -142.4 1.104e+04 7.351e-10
 35.53304   -144.0 1.065e+04 5.511e-10
 35.54283   -144.0 1.064e+04 5.302e-10
 35.55874   -145.5 1.034e+04 4.229e-10
 35.57833   -146.7 1.028e+04 3.827e-10
 35.60779   -147.8 1.030e+04 3.739e-10
 35.64705   -149.3 1.058e+04 3.973e-10
 35.68622   -150.6 1.085e+04 4.668e-10
 35.72538   -151.2 1.091e+04 4.990e-10
 35.76454   -151.2 1.085e+04 4.892e-10
 35.79568   -151.0 1.060e+04 4.191e-10
 35.81526   -148.4 1.096e+04 5.966e-10
 35.84287   -148.2 1.096e+04 5.909e-10
 35.88203   -147.7 1.082e+04 5.462e-10
 35.92119   -147.0 1.064e+04 5.095e-10
 35.96035   -146.2 1.052e+04 5.002e-10
 35.99951   -145.5 1.047e+04 5.029e-10
 36.03868   -144.8 1.041e+04 5.362e-10
 36.07784   -144.1 1.045e+04 5.629e-10
 36.11700   -143.4 1.046e+04 5.683e-10
 36.15616   -142.7 1.041e+04 5.564e-10
 36.19533   -141.6 1.026e+04 4.871e-10
 36.23449   -140.2 1.006e+04 3.920e-10
 36.25781   -138.5 9.831e+03 3.048e-10
 36.27740   -137.6 9.964e+03 3.515e-10
 36.31281   -135.9 9.835e+03 2.893e-10
 36.35197   -134.2 9.845e+03 2.576e-10
 36.39114   -132.6 9.885e+03 2.463e-10
 36.43030   -131.1 9.896e+03 2.448e-10
 36.46946   -129.7 9.978e+03 2.484e-10
 36.50862   -128.5 1.013e+04 2.679e-10
 36.54778   -127.4 1.027e+04 2.947e-10
 36.58695   -126.4 1.038e+04 3.162e-10
 36.62536   -125.6 1.042e+04 3.229e-10
 36.64494   -125.3 1.062e+04 3.926e-10
 36.66527   -124.5 1.055e+04 3.543e-10
 36.70443   -123.5 1.040e+04 2.920e-10
 36.74360   -122.3 1.020e+04 2.260e-10
 36.78276   -121.0 1.000e+04 1.726e-10
 36.82192   -119.6 9.849e+03 1.375e-10
 36.86108   -118.2 9.803e+03 1.193e-10
 36.90024   -116.5 9.812e+03 1.143e-10
 36.93941   -114.9 9.819e+03 1.141e-10
 36.97260   -113.7 9.902e+03 1.166e-10
 36.99218   -112.7 9.979e+03 1.244e-10
 37.01773   -112.6 1.026e+04 1.669e-10
 37.05689   -113.3 1.122e+04 4.282e-10
 37.09606   -113.6 1.264e+04 1.151e-09
 37.12533   -113.2 1.302e+04 1.515e-09
 37.14481   -113.4 1.356e+04 1.964e-09
 37.16439   -113.9 1.398e+04 2.473e-09
 37.18397   -114.4 1.412e+04 2.772e-09
 37.20356   -115.1 1.412e+04 2.873e-09
 37.22314   -115.4 1.388e+04 2.651e-09
 37.24272   -115.8 1.344e+04 2.059e-09
 37.26230   -116.4 1.295e+04 1.465e-09
 37.28188   -117.0 1.249e+04 1.005e-09
 37.30146   -117.7 1.208e+04 7.051e-10
 37.32104   -118.3 1.176e+04 5.323e-10
 37.33959   -118.6 1.157e+04 4.477e-10
 37.34938   -119.1 1.178e+04 5.605e-10
 37.36020   -119.1 1.173e+04 5.447e-10
 37.37979   -118.9 1.172e+04 5.459e-10
 37.39937   -118.8 1.185e+04 6.182e-10
 37.41895   -118.5 1.207e+04 7.754e-10
 37.43853   -118.0 1.228e+04 9.714e-10
 37.45811   -117.5 1.251e+04 1.170e-09
 37.47443   -117.0 1.271e+04 1.331e-09
 37.48422   -117.0 1.289e+04 1.553e-09
 37.49727   -116.6 1.303e+04 1.652e-09
 37.51685   -116.2 1.306e+04 1.673e-09
 37.53643   -115.8 1.306e+04 1.642e-09
 37.55602   -115.3 1.299e+04 1.518e-09
 37.57560   -114.9 1.291e+04 1.385e-09
 37.59518   -114.4 1.283e+04 1.257e-09
 37.61476   -113.9 1.273e+04 1.149e-09
 37.63434   -113.3 1.266e+04 1.062e-09
 37.65392   -112.8 1.261e+04 9.782e-10
 37.67350   -112.2 1.254e+04 8.880e-10
 37.69308   -111.7 1.244e+04 7.958e-10
 37.70678   -111.1 1.232e+04 7.049e-10
 37.71657   -111.0 1.221e+04 5.413e-10
 37.73225   -110.3 1.212e+04 4.737e-10
 37.76171   -109.6 1.206e+04 4.290e-10
 37.80097   -108.1 1.189e+04 3.877e-10
 37.84014   -106.1 1.173e+04 3.520e-10
 37.87930   -104.2 1.161e+04 3.216e-10
 37.91846   -102.0 1.148e+04 2.864e-10
 37.95762    -99.8 1.134e+04 2.508e-10
 37.99679    -97.4 1.123e+04 2.221e-10
 38.03595    -95.0 1.115e+04 2.035e-10
 38.07511    -92.6 1.113e+04 1.961e-10
 38.11427    -90.1 1.113e+04 1.947e-10
 38.15343    -87.7 1.117e+04 1.999e-10
 38.19260    -85.4 1.119e+04 2.110e-10
 38.23176    -83.1 1.118e+04 2.214e-10
 38.27092    -80.9 1.114e+04 2.259e-10
 38.30431    -78.7 1.110e+04 2.247e-10
 38.32389    -78.7 1.098e+04 2.048e-10
 38.34924    -76.4 1.085e+04 1.932e-10
 38.38841    -74.1 1.069e+04 1.780e-10
 38.42176    -71.8 1.056e+04 1.616e-10
 38.44134    -71.3 1.073e+04 2.289e-10
 38.46673    -69.1 1.065e+04 2.100e-10
 38.50589    -66.8 1.059e+04 1.943e-10
 38.54506    -64.5 1.054e+04 1.803e-10
 38.58422    -62.2 1.045e+04 1.654e-10
 38.62338    -59.8 1.036e+04 1.472e-10
 38.66254    -57.3 1.027e+04 1.266e-10
 38.70170    -54.8 1.019e+04 1.065e-10
 38.74087    -52.4 1.013e+04 9.140e-11
 38.78003    -50.0 1.007e+04 8.263e-11
 38.81919    -47.7 1.002e+04 8.116e-11
 38.85835    -45.4 9.984e+03 8.313e-11
 38.89752    -43.0 9.933e+03 8.581e-11
 38.93668    -40.6 9.890e+03 8.663e-11
 38.97584    -38.0 9.725e+03 8.359e-11
 39.01500    -35.2 9.622e+03 7.186e-11
 39.05416    -32.5 9.586e+03 5.835e-11
 39.09333    -29.9 9.582e+03 4.847e-11
 39.13249    -27.3 9.591e+03 4.534e-11
 39.15357    -24.9 9.686e+03 4.522e-11
 39.15763    -24.8 9.685e+03 5.196e-11
 39.17571    -24.3 9.665e+03 5.467e-11
 39.21081    -22.0 9.792e+03 6.261e-11
 39.24998    -19.7 9.782e+03 8.529e-11
 39.28914    -17.2 9.805e+03 1.267e-10
 39.32830    -14.6 9.862e+03 1.951e-10
 39.36746    -11.8 9.987e+03 2.908e-10
 39.40662     -8.9 1.018e+04 3.814e-10
 39.44579     -6.3 1.040e+04 4.276e-10
 39.48495     -4.2 1.066e+04 4.518e-10
 39.52411     -2.8 1.095e+04 5.123e-10
 39.56327     -1.2 1.107e+04 7.064e-10
 39.60243      1.1 1.120e+04 9.005e-10
 39.64160      3.1 1.133e+04 9.615e-10
 39.68076      4.4 1.146e+04 9.346e-10
 39.71992      5.5 1.147e+04 1.077e-09
 39.75908      7.0 1.166e+04 1.150e-09
 39.78836      7.4 1.156e+04 8.230e-10
 39.80784      6.6 1.235e+04 8.969e-10
 39.82742      5.9 1.396e+04 1.072e-09
 39.84700      4.4 1.448e+04 1.683e-09
 39.86658      4.7 1.446e+04 2.597e-09
 39.88051      5.6 1.417e+04 3.671e-09
 39.89030      6.1 1.366e+04 1.493e-09
 39.90575      6.8 1.310e+04 2.352e-09
 39.92533      7.8 1.294e+04 2.755e-09
 39.94491      8.6 1.275e+04 2.610e-09
 39.96449      9.3 1.257e+04 2.528e-09
 39.98316     10.5 1.209e+04 1.873e-09
 40.00284     10.7 1.157e+04 1.320e-09
 40.03322     11.9 1.082e+04 7.743e-10
 40.07238     12.8 1.010e+04 5.042e-10
 40.11154     14.8 9.421e+03 3.428e-10
 40.15071     17.6 9.001e+03 2.349e-10
 40.18987     20.6 8.725e+03 1.537e-10
 40.22903     23.3 8.628e+03 1.017e-10
 40.26819     25.7 8.560e+03 7.624e-11
 40.30735     28.2 8.424e+03 6.968e-11
 40.34652     31.0 8.428e+03 7.018e-11
 40.38568     33.7 8.488e+03 7.557e-11
 40.42484     36.4 8.574e+03 8.621e-11
 40.46400     39.1 8.672e+03 9.898e-11
 40.50316     41.8 8.764e+03 1.098e-10
 40.54233     44.3 8.868e+03 1.171e-10
 40.58149     46.6 8.847e+03 1.232e-10
 40.60528     49.0 8.820e+03 1.242e-10
 40.62486     49.2 8.448e+03 9.707e-11
 40.65981     51.7 8.424e+03 9.577e-11
 40.69898     54.2 8.409e+03 9.329e-11
 40.73814     56.9 8.385e+03 8.949e-11
 40.77730     59.6 8.342e+03 8.668e-11
 40.81294     62.3 8.309e+03 8.430e-11
 40.83252     62.7 8.227e+03 8.829e-11
 40.85562     65.5 8.214e+03 8.599e-11
 40.89479     68.2 8.214e+03 8.422e-11
 40.93395     71.0 8.223e+03 8.198e-11
 40.97311     73.9 8.252e+03 7.984e-11
 41.01227     76.7 8.270e+03 7.960e-11
 41.05144     79.6 8.301e+03 8.019e-11
 41.09060     82.5 8.356e+03 8.320e-11
 41.12976     85.3 8.426e+03 8.930e-11
 41.16892     88.1 8.521e+03 9.935e-11
 41.20808     90.8 8.671e+03 1.150e-10
 41.24725     93.3 9.012e+03 1.397e-10
 41.28641     95.5 9.917e+03 1.903e-10
 41.31568     96.6 9.632e+03 2.021e-10
 41.32966     97.1 1.014e+04 2.254e-10
 41.33955     98.4 9.501e+03 2.153e-10
 41.35484     98.9 9.927e+03 2.407e-10
 41.37433     99.1 1.082e+04 3.108e-10
 41.39391     99.4 1.157e+04 4.992e-10
 41.41349    100.0 1.211e+04 8.538e-10
 41.43307    100.9 1.254e+04 1.409e-09
 41.45265    102.0 1.309e+04 2.201e-09
 41.47223    103.2 1.397e+04 3.325e-09
 41.49181    103.8 1.468e+04 4.212e-09
 41.50645    103.3 1.540e+04 5.097e-09
 41.51316    102.1 1.666e+04 6.516e-09
 41.51805    102.0 1.663e+04 5.958e-09
 41.52598     99.9 1.871e+04 8.708e-09
 41.53577     97.5 2.044e+04 1.354e-08
 41.54556     95.4 2.106e+04 2.025e-08
 41.55536     94.8 2.088e+04 2.865e-08
 41.56515     94.9 2.046e+04 3.705e-08
 41.57494     95.1 2.034e+04 3.755e-08
 41.58473     95.6 2.013e+04 3.626e-08
 41.59452     96.3 1.980e+04 3.195e-08
 41.60431     96.6 1.939e+04 2.504e-08
 41.61410     96.9 1.896e+04 2.125e-08
 41.62883     96.8 1.808e+04 1.317e-08
 41.64846     96.6 1.672e+04 6.427e-09
 41.66201     94.9 1.521e+04 2.762e-09
 41.67180     91.4 1.368e+04 1.188e-09
 41.68706     88.3 1.161e+04 7.698e-10
 41.69685     88.3 1.188e+04 9.726e-10
 41.70721     88.1 1.160e+04 9.404e-10
 41.72679     88.4 1.161e+04 9.446e-10
 41.74637     88.5 1.175e+04 9.821e-10
 41.76595     88.4 1.198e+04 1.056e-09
 41.78553     88.2 1.221e+04 1.149e-09
 41.80511     87.9 1.239e+04 1.252e-09
 41.82469     87.6 1.253e+04 1.359e-09
 41.84427     87.1 1.259e+04 1.470e-09
 41.86386     86.7 1.258e+04 1.593e-09
 41.88344     86.7 1.255e+04 1.744e-09
 41.90302     86.7 1.255e+04 1.870e-09
 41.92260     86.9 1.262e+04 1.903e-09
 41.95207     87.0 1.259e+04 1.832e-09
 41.99133     87.2 1.247e+04 1.693e-09
 42.03049     87.5 1.213e+04 1.381e-09
 42.05444     88.2 1.164e+04 9.703e-10
 42.07402     87.6 1.134e+04 7.562e-10
 42.10881     88.6 1.078e+04 4.720e-10
 42.14798     90.0 1.025e+04 2.872e-10
 42.18714     91.8 9.841e+03 1.812e-10
 42.22630     93.7 9.615e+03 1.241e-10
 42.26546     95.9 9.562e+03 9.328e-11
 42.30462     98.2 9.613e+03 7.594e-11
 42.34379    100.6 9.676e+03 6.740e-11
 42.38295    103.1 9.681e+03 6.674e-11
 42.42211    105.8 9.683e+03 6.697e-11
 42.46127    108.4 9.701e+03 6.800e-11
 42.49189    111.0 9.746e+03 7.139e-11
 42.51147    110.3 9.697e+03 9.556e-11
 42.53960    112.8 9.751e+03 1.046e-10
 42.57876    115.2 9.826e+03 1.173e-10
 42.61792    117.6 9.926e+03 1.317e-10
 42.65708    119.8 1.005e+04 1.442e-10
 42.69625    121.9 1.019e+04 1.497e-10
 42.73541    123.9 1.025e+04 1.498e-10
 42.76923    125.7 1.027e+04 1.487e-10
 42.78881    125.4 1.044e+04 1.748e-10
 42.81373    127.2 1.043e+04 1.671e-10
 42.85290    129.0 1.040e+04 1.648e-10
 42.89206    130.9 1.040e+04 1.660e-10
 42.93122    132.8 1.041e+04 1.729e-10
 42.97038    134.7 1.046e+04 1.953e-10
 43.00954    136.7 1.057e+04 2.368e-10
 43.04871    138.7 1.076e+04 2.950e-10
 43.08787    140.6 1.094e+04 3.577e-10
 43.12703    142.4 1.111e+04 4.043e-10
 43.16619    143.9 1.122e+04 4.308e-10
 43.20535    145.2 1.128e+04 4.432e-10
 43.24452    146.3 1.131e+04 4.540e-10
 43.28368    147.2 1.130e+04 4.714e-10
 43.32157    148.1 1.125e+04 4.932e-10
 43.34116    147.0 1.113e+04 5.322e-10
 43.36200    148.2 1.101e+04 5.210e-10
 43.40117    149.4 1.085e+04 4.611e-10
 43.44033    150.7 1.067e+04 3.706e-10
 43.47949    152.0 1.045e+04 2.803e-10
 43.50359    153.3 1.020e+04 2.166e-10
 43.52317    152.5 1.004e+04 1.492e-10
 43.55781    153.9 9.768e+03 1.373e-10
 43.59698    155.6 9.709e+03 1.363e-10
 43.63614    157.4 9.689e+03 1.357e-10
 43.67530    159.3 9.678e+03 1.340e-10
 43.71446    161.2 9.664e+03 1.308e-10
 43.75363    163.0 9.644e+03 1.265e-10
 43.79279    164.8 9.618e+03 1.226e-10
 43.83195    166.7 9.588e+03 1.208e-10
 43.87111    168.6 9.573e+03 1.217e-10
 43.91027    170.6 9.561e+03 1.257e-10
 43.94944    172.6 9.574e+03 1.318e-10
 43.98860    174.6 9.608e+03 1.397e-10
 44.02776    176.6 9.669e+03 1.501e-10
 44.06692    178.5 9.741e+03 1.623e-10
 44.10609    180.2 9.855e+03 1.829e-10
 44.14525    182.0 1.009e+04 2.269e-10
 44.17084    183.7 1.042e+04 3.008e-10
 44.19042    183.4 1.017e+04 2.630e-10
 44.21838    184.7 1.049e+04 3.321e-10
 44.23796    184.7 1.032e+04 3.049e-10
 44.26273    185.6 1.060e+04 3.661e-10
 44.29201    185.6 1.080e+04 4.058e-10
 44.31149    185.7 1.103e+04 4.509e-10
 44.33107    185.7 1.125e+04 5.080e-10
 44.35065    185.7 1.145e+04 5.698e-10
 44.37023    185.4 1.164e+04 6.349e-10
 44.38982    185.0 1.182e+04 7.028e-10
 44.40940    184.4 1.196e+04 7.683e-10
 44.42898    183.7 1.207e+04 8.250e-10
 44.44856    183.0 1.214e+04 8.660e-10
 44.46814    182.3 1.221e+04 8.867e-10
 44.48772    181.6 1.222e+04 8.826e-10
 44.50730    180.9 1.221e+04 8.721e-10
 44.52688    180.2 1.217e+04 8.396e-10
 44.54646    179.5 1.208e+04 8.017e-10
 44.57593    180.0 1.195e+04 7.372e-10
 44.61519    179.7 1.179e+04 6.651e-10
 44.65436    179.4 1.166e+04 5.952e-10
 44.69352    179.4 1.156e+04 5.277e-10
 44.73268    179.5 1.148e+04 4.650e-10
 44.77184    179.7 1.140e+04 3.996e-10
 44.81100    179.9 1.135e+04 3.257e-10
 44.85017    180.1 1.127e+04 2.564e-10
 44.88933    180.4 1.105e+04 2.199e-10
 44.92849    180.8 1.097e+04 2.179e-10
 44.95275    181.2 1.095e+04 2.225e-10
 44.97233    181.9 1.100e+04 2.461e-10
 45.00052    181.9 1.102e+04 2.918e-10
 45.02010    181.6 1.120e+04 3.843e-10
 45.04598    181.5 1.138e+04 4.918e-10
 45.08514    180.9 1.151e+04 5.127e-10
 45.12430    179.9 1.148e+04 4.834e-10
 45.16346    179.2 1.129e+04 3.553e-10
 45.20263    178.7 1.095e+04 1.932e-10
 45.24179    178.2 1.048e+04 9.429e-11
 45.28095    178.0 9.991e+03 7.164e-11
 45.32011    178.3 9.928e+03 7.136e-11
 45.35927    179.3 9.893e+03 7.316e-11
 45.39844    180.7 9.823e+03 8.316e-11
 45.43760    182.1 9.858e+03 1.045e-10
 45.47676    183.5 9.974e+03 1.355e-10
 45.51592    184.7 1.014e+04 1.742e-10
 45.55509    185.7 1.031e+04 2.175e-10
 45.59425    186.3 1.049e+04 2.626e-10
 45.63341    186.7 1.064e+04 3.081e-10
 45.66754    186.8 1.076e+04 3.614e-10
 45.68712    186.6 1.111e+04 4.923e-10
 45.71173    186.6 1.119e+04 5.642e-10
 45.75090    186.6 1.131e+04 6.757e-10
 45.79006    186.6 1.150e+04 8.482e-10
 45.82922    186.8 1.177e+04 1.057e-09
 45.84979    187.0 1.200e+04 1.215e-09
 45.86937    186.1 1.206e+04 1.233e-09
 45.90755    186.1 1.204e+04 1.210e-09
 45.94671    186.3 1.191e+04 1.111e-09
 45.98587    186.5 1.167e+04 9.334e-10
 46.02503    186.7 1.138e+04 7.368e-10
 46.06419    186.8 1.109e+04 5.796e-10
 46.10336    186.9 1.080e+04 4.965e-10
 46.14252    187.1 1.055e+04 4.789e-10
 46.18168    187.6 1.047e+04 4.741e-10
 46.22084    188.2 1.044e+04 4.655e-10
 46.26000    189.0 1.039e+04 4.432e-10
 46.29917    189.8 1.029e+04 3.949e-10
 46.33833    190.7 1.011e+04 3.271e-10
 46.37749    191.7 9.884e+03 2.506e-10
 46.40191    192.8 9.625e+03 1.776e-10
 46.42149    192.1 9.452e+03 1.246e-10
 46.45582    193.3 9.181e+03 9.664e-11
 46.49498    194.9 9.117e+03 9.442e-11
 46.53414    196.8 9.114e+03 9.503e-11
 46.57330    198.7 9.132e+03 9.899e-11
 46.61246    200.4 9.205e+03 1.092e-10
 46.65163    202.0 9.325e+03 1.245e-10
 46.67947    203.3 9.523e+03 1.548e-10
 46.69905    202.3 9.644e+03 1.990e-10
 46.72995    203.4 1.004e+04 3.127e-10
 46.76911    204.2 1.051e+04 4.935e-10
 46.80828    204.5 1.093e+04 6.943e-10
 46.84744    204.5 1.115e+04 7.629e-10
 46.88660    204.4 1.116e+04 7.541e-10
 46.92576    204.4 1.108e+04 7.006e-10
 46.96492    204.7 1.084e+04 5.727e-10
 47.00409    205.3 1.047e+04 4.238e-10
 47.04325    206.1 1.010e+04 3.067e-10
 47.08241    207.1 9.810e+03 2.389e-10
 47.11669    208.2 9.649e+03 2.070e-10
 47.13627    208.5 9.745e+03 2.254e-10
 47.16073    209.6 9.639e+03 1.982e-10
 47.19990    210.6 9.531e+03 1.760e-10
 47.23906    211.7 9.408e+03 1.524e-10
 47.27822    212.9 9.274e+03 1.267e-10
 47.31738    214.0 9.131e+03 1.026e-10
 47.35655    215.1 9.003e+03 8.322e-11
 47.39571    216.1 8.895e+03 6.978e-11
 47.43487    217.2 8.797e+03 6.114e-11
 47.47403    218.4 8.705e+03 5.652e-11
 47.50915    219.6 8.613e+03 5.515e-11
 47.52874    219.5 8.691e+03 6.308e-11
 47.55236    220.8 8.680e+03 6.360e-11
 47.59152    222.1 8.670e+03 6.522e-11
 47.63068    223.3 8.672e+03 6.835e-11
 47.66984    224.4 8.691e+03 7.340e-11
 47.70901    225.6 8.726e+03 8.082e-11
 47.74817    226.7 8.785e+03 9.085e-11
 47.78733    227.8 8.864e+03 1.034e-10
 47.82649    228.7 8.937e+03 1.187e-10
 47.85106    229.5 9.017e+03 1.384e-10
 47.87064    228.5 9.045e+03 1.441e-10
 47.90482    229.2 9.181e+03 1.749e-10
 47.94398    229.4 9.386e+03 2.201e-10
 47.98314    229.3 9.636e+03 2.793e-10
 48.02230    229.0 9.853e+03 3.347e-10
 48.05158    228.6 1.012e+04 4.144e-10
 48.07106    228.1 1.048e+04 5.450e-10
 48.09064    227.2 1.083e+04 7.311e-10
 48.11022    225.8 1.130e+04 9.990e-10
 48.12980    223.2 1.222e+04 1.486e-09
 48.14938    219.3 1.368e+04 2.465e-09
 48.16897    214.4 1.512e+04 3.927e-09
 48.18855    209.1 1.610e+04 4.636e-09
 48.20813    203.5 1.618e+04 4.481e-09
 48.21805    198.4 1.591e+04 3.523e-09
 48.22784    197.8 1.588e+04 3.523e-09
 48.24729    194.1 1.506e+04 1.827e-09
 48.26687    190.3 1.400e+04 7.868e-10
 48.29634    183.9 1.185e+04 1.889e-10
 48.33560    175.0 9.328e+03 1.070e-10
 48.35842    171.1 9.116e+03 1.079e-10
 48.37800    171.8 9.116e+03 1.094e-10
 48.41392    170.7 9.114e+03 1.253e-10
 48.45309    170.2 9.401e+03 1.899e-10
 48.49225    169.4 9.813e+03 2.807e-10
 48.52152    168.6 1.027e+04 4.050e-10
 48.54101    168.1 1.081e+04 6.360e-10
 48.56059    167.8 1.140e+04 1.007e-09
 48.57544    167.7 1.199e+04 1.443e-09
 48.58523    168.0 1.215e+04 1.570e-09
 48.59975    167.9 1.278e+04 2.116e-09
 48.61933    167.5 1.334e+04 2.474e-09
 48.63891    166.6 1.374e+04 2.527e-09
 48.65849    165.2 1.379e+04 2.512e-09
 48.67807    163.7 1.382e+04 2.434e-09
 48.69765    162.1 1.372e+04 2.296e-09
 48.71724    160.8 1.344e+04 2.169e-09
 48.73682    160.2 1.316e+04 2.074e-09
 48.75640    160.2 1.298e+04 2.008e-09
 48.77307    160.3 1.288e+04 1.941e-09
 48.78286    160.3 1.302e+04 2.160e-09
 48.79556    160.7 1.305e+04 2.176e-09
 48.81514    161.4 1.301e+04 2.066e-09
 48.83472    162.1 1.291e+04 1.806e-09
 48.85430    162.7 1.276e+04 1.470e-09
 48.87388    163.1 1.252e+04 1.133e-09
 48.89347    163.1 1.214e+04 8.532e-10
 48.91305    163.0 1.161e+04 6.604e-10
 48.93263    163.0 1.102e+04 5.642e-10
 48.94263    163.2 1.083e+04 5.613e-10
 48.95242    164.1 1.188e+04 8.370e-10
 48.97179    164.1 1.170e+04 8.385e-10
 48.99137    164.1 1.171e+04 8.734e-10
 49.01095    164.0 1.185e+04 1.029e-09
 49.03053    163.8 1.226e+04 1.375e-09
 49.05011    163.8 1.282e+04 1.967e-09
 49.06970    164.0 1.344e+04 2.853e-09
 49.08928    164.5 1.415e+04 4.016e-09
 49.10886    165.2 1.472e+04 5.148e-09
 49.12844    165.3 1.502e+04 5.581e-09
 49.14802    165.3 1.499e+04 5.429e-09
 49.16760    165.5 1.470e+04 4.527e-09
 49.18718    165.7 1.403e+04 3.011e-09
 49.19770    165.6 1.305e+04 1.750e-09
 49.20749    165.0 1.226e+04 1.131e-09
 49.23623    163.7 1.082e+04 5.488e-10
 49.27549    162.4 9.768e+03 3.404e-10
 49.30022    162.3 9.650e+03 3.184e-10
 49.31980    163.6 9.562e+03 3.098e-10
 49.35382    164.2 9.566e+03 3.130e-10
 49.39298    165.6 9.617e+03 3.317e-10
 49.43214    166.7 9.729e+03 3.690e-10
 49.46142    167.1 9.798e+03 4.007e-10
 49.48090    167.8 9.949e+03 4.499e-10
 49.50048    168.5 1.024e+04 5.351e-10
 49.52006    168.9 1.055e+04 6.433e-10
 49.53964    168.9 1.091e+04 7.758e-10
 49.55922    168.9 1.130e+04 9.401e-10
 49.57880    168.9 1.173e+04 1.136e-09
 49.59839    168.8 1.215e+04 1.352e-09
 49.61254    168.7 1.246e+04 1.534e-09
 49.62233    169.2 1.273e+04 1.747e-09
 49.63755    169.1 1.280e+04 1.782e-09
 49.65713    168.6 1.275e+04 1.731e-09
 49.66721    168.3 1.267e+04 1.681e-09
 49.67700    168.9 1.282e+04 1.805e-09
 49.69629    168.9 1.262e+04 1.654e-09
 49.71587    168.9 1.244e+04 1.533e-09
 49.74534    169.0 1.196e+04 1.218e-09
 49.77471    169.4 1.162e+04 1.049e-09
 49.79420    169.8 1.139e+04 9.507e-10
 49.81378    170.2 1.116e+04 8.511e-10
 49.83336    170.6 1.096e+04 7.646e-10
 49.85294    171.1 1.080e+04 6.937e-10
 49.87252    171.5 1.066e+04 6.338e-10
 49.89210    172.0 1.055e+04 5.847e-10
 49.91168    172.5 1.046e+04 5.493e-10
 49.93126    173.0 1.040e+04 5.279e-10
 49.95084    173.6 1.035e+04 5.154e-10
 49.97043    174.2 1.034e+04 5.160e-10
 49.99001    174.8 1.034e+04 5.204e-10
 50.00959    175.5 1.037e+04 5.342e-10
 50.02460    176.0 1.046e+04 5.600e-10
 50.03260    176.2 1.056e+04 6.272e-10
 50.03717    176.3 1.043e+04 5.521e-10
 50.04875    176.9 1.056e+04 5.990e-10
 50.06833    177.4 1.073e+04 6.644e-10
 50.09780    178.2 1.103e+04 7.603e-10
 50.13706    179.0 1.156e+04 1.009e-09
 50.17622    179.2 1.197e+04 1.207e-09
 50.21538    179.1 1.203e+04 1.222e-09
 50.25455    178.8 1.199e+04 1.173e-09
 50.29371    178.5 1.187e+04 1.048e-09
 50.33287    178.5 1.169e+04 8.798e-10
 50.37203    178.6 1.144e+04 6.993e-10
 50.41120    179.0 1.114e+04 5.244e-10
 50.45036    179.5 1.085e+04 3.842e-10
 50.48952    180.3 1.064e+04 3.134e-10
 50.52868    181.2 1.062e+04 3.099e-10
 50.56784    182.3 1.070e+04 3.127e-10
 50.60701    183.3 1.088e+04 3.274e-10
 50.64617    184.3 1.105e+04 3.574e-10
 50.68533    185.0 1.118e+04 3.925e-10
 50.72449    185.7 1.123e+04 4.179e-10
 50.74937    186.2 1.120e+04 4.220e-10
 50.76895    186.5 1.125e+04 4.507e-10
 50.80282    186.9 1.117e+04 4.307e-10
 50.84198    187.5 1.103e+04 3.858e-10
 50.86705    188.1 1.088e+04 3.365e-10
 50.88663    188.7 1.094e+04 3.601e-10
 50.92030    189.3 1.085e+04 3.320e-10
 50.95947    189.9 1.076e+04 3.027e-10
 50.99863    190.7 1.071e+04 2.790e-10
 51.03779    191.4 1.069e+04 2.617e-10
 51.07695    192.2 1.066e+04 2.465e-10
 51.11611    192.9 1.064e+04 2.299e-10
 51.15528    193.6 1.061e+04 2.115e-10
 51.19444    194.2 1.057e+04 1.933e-10
 51.23360    194.7 1.052e+04 1.765e-10
 51.27276    195.1 1.044e+04 1.626e-10
 51.31193    195.5 1.035e+04 1.519e-10
 51.35109    196.0 1.024e+04 1.436e-10
 51.39025    196.7 1.013e+04 1.375e-10
 51.42941    197.5 1.012e+04 1.380e-10
 51.46416    198.5 1.015e+04 1.456e-10
 51.48374    198.2 1.042e+04 1.869e-10
 51.50774    199.2 1.056e+04 2.164e-10
 51.54690    200.2 1.068e+04 2.442e-10
 51.58606    201.4 1.077e+04 2.650e-10
 51.62522    202.7 1.084e+04 2.816e-10
 51.66439    204.1 1.096e+04 3.087e-10
 51.69674    205.2 1.111e+04 3.539e-10
 51.71632    205.1 1.136e+04 4.741e-10
 51.74271    206.4 1.153e+04 5.682e-10
 51.78187    207.9 1.179e+04 7.057e-10
 51.82103    209.4 1.215e+04 8.806e-10
 51.86020    210.6 1.246e+04 1.043e-09
 51.89936    211.2 1.268e+04 1.119e-09
 51.93852    211.5 1.267e+04 1.107e-09
 51.97768    211.5 1.262e+04 1.068e-09
 52.01684    211.5 1.251e+04 1.068e-09
 52.05601    211.4 1.249e+04 1.074e-09
 52.09517    211.0 1.246e+04 1.072e-09
 52.13433    211.1 1.231e+04 1.038e-09
 52.17349    211.2 1.199e+04 9.029e-10
 52.19853    211.5 1.156e+04 6.716e-10
 52.21811    212.7 1.156e+04 6.675e-10
 52.25182    213.2 1.110e+04 4.620e-10
 52.29098    213.9 1.063e+04 2.860e-10
 52.33014    214.5 1.020e+04 1.737e-10
 52.36930    215.3 9.837e+03 1.335e-10
 52.40847    216.4 9.769e+03 1.312e-10
 52.44763    217.8 9.790e+03 1.322e-10
 52.48679    219.2 9.889e+03 1.426e-10
 52.52595    220.7 1.008e+04 1.767e-10
 52.54600    222.2 1.032e+04 2.344e-10
 52.56558    223.5 1.025e+04 2.206e-10
 52.60428    225.0 1.045e+04 2.809e-10
 52.64344    226.4 1.060e+04 3.395e-10
 52.68260    227.7 1.067e+04 3.824e-10
 52.72176    228.9 1.069e+04 4.103e-10
 52.76093    229.9 1.068e+04 4.274e-10
 52.79020    231.3 1.068e+04 4.746e-10
 52.80968    232.3 1.071e+04 5.048e-10
 52.82926    233.0 1.074e+04 5.229e-10
 52.84885    233.8 1.075e+04 5.357e-10
 52.86843    234.5 1.075e+04 5.466e-10
 52.88801    235.4 1.075e+04 5.576e-10
 52.91322    237.0 1.072e+04 5.269e-10
 52.93280    237.8 1.090e+04 6.083e-10
 52.94675    239.0 1.095e+04 6.333e-10
 52.96065    239.8 1.098e+04 6.510e-10
 52.97044    239.9 1.097e+04 6.247e-10
 52.99580    242.0 1.122e+04 7.404e-10
 53.03506    244.1 1.145e+04 8.434e-10
 53.07422    246.0 1.168e+04 9.147e-10
 53.11339    247.7 1.167e+04 8.927e-10
 53.15255    248.7 1.155e+04 7.922e-10
 53.19171    249.3 1.126e+04 6.191e-10
 53.23087    249.6 1.088e+04 4.544e-10
 53.27003    249.8 1.051e+04 3.404e-10
 53.30920    250.1 1.036e+04 3.048e-10
 53.34836    250.6 1.035e+04 3.044e-10
 53.37568    251.4 1.035e+04 3.086e-10
 53.39527    251.4 1.067e+04 4.449e-10
 53.42668    252.2 1.065e+04 4.418e-10
 53.46585    253.1 1.065e+04 4.387e-10
 53.50501    254.1 1.065e+04 4.410e-10
 53.54417    255.2 1.069e+04 4.532e-10
 53.58333    256.5 1.079e+04 4.842e-10
 53.62249    257.7 1.100e+04 5.477e-10
 53.64768    258.6 1.135e+04 6.597e-10
 53.66727    258.1 1.145e+04 6.936e-10
 53.70082    258.2 1.185e+04 8.099e-10
 53.73998    258.2 1.216e+04 8.598e-10
 53.77914    258.0 1.224e+04 8.477e-10
 53.81830    257.2 1.221e+04 7.368e-10
 53.85747    256.4 1.176e+04 5.487e-10
 53.89663    256.2 1.101e+04 3.932e-10
 53.93579    256.4 1.025e+04 2.943e-10
 53.97495    256.8 9.725e+03 2.409e-10
 54.01412    257.6 9.497e+03 2.183e-10
 54.05328    258.6 9.443e+03 2.082e-10
 54.09244    259.8 9.427e+03 1.978e-10
 54.13160    260.8 9.404e+03 1.814e-10
 54.17076    261.8 9.366e+03 1.589e-10
 54.20537    262.7 9.296e+03 1.354e-10
 54.22495    263.8 9.620e+03 2.677e-10
 54.24909    264.5 9.498e+03 2.388e-10
 54.28825    265.3 9.361e+03 2.147e-10
 54.32741    266.6 9.218e+03 2.036e-10
 54.36247    267.8 9.180e+03 2.030e-10
 54.38205    268.1 9.054e+03 1.910e-10
 54.40574    269.8 9.066e+03 1.970e-10
 54.44490    271.4 9.103e+03 2.201e-10
 54.48406    272.9 9.228e+03 2.606e-10
 54.52322    274.2 9.386e+03 3.089e-10
 54.56239    275.2 9.498e+03 3.475e-10
 54.60155    276.0 9.547e+03 3.709e-10
 54.64071    276.9 9.563e+03 3.909e-10
 54.67987    277.9 9.625e+03 4.194e-10
 54.71903    279.0 9.736e+03 4.658e-10
 54.75820    280.3 9.882e+03 5.311e-10
 54.79736    281.8 1.004e+04 6.047e-10
 54.83652    283.1 1.017e+04 6.521e-10
 54.87568    284.4 1.020e+04 6.546e-10
 54.91485    285.6 1.018e+04 6.441e-10
 54.95401    286.7 1.005e+04 5.965e-10
 54.99317    287.8 9.809e+03 5.102e-10
 55.03233    288.7 9.456e+03 4.051e-10
 55.05463    289.4 9.020e+03 3.015e-10
 55.07421    288.6 8.265e+03 1.785e-10
 55.09684    289.2 7.953e+03 1.429e-10
 55.11642    289.8 7.891e+03 1.375e-10
 55.14982    290.5 7.708e+03 1.194e-10
 55.18898    291.2 7.551e+03 1.076e-10
 55.22814    292.0 7.455e+03 1.037e-10
 55.26731    292.9 7.436e+03 1.033e-10
 55.30647    293.7 7.435e+03 1.032e-10
 55.34563    294.6 7.436e+03 1.030e-10
 55.38479    295.4 7.431e+03 1.021e-10
 55.42395    296.1 7.408e+03 9.934e-11
 55.46312    296.8 7.366e+03 9.501e-11
 55.50228    297.5 7.348e+03 9.189e-11
 55.54144    298.1 7.356e+03 9.190e-11
 55.58060    298.2 7.410e+03 9.442e-11
 55.61977    298.0 7.566e+03 1.037e-10
 55.65893    297.4 7.816e+03 1.226e-10
 55.69809    297.1 8.015e+03 1.405e-10
 55.72736    296.8 8.087e+03 1.499e-10
 55.74685    296.6 8.215e+03 1.634e-10
 55.76643    295.2 9.022e+03 2.426e-10
 55.78601    288.3 1.313e+04 9.843e-10
 55.80559    278.0 1.828e+04 4.987e-09
 55.82122    268.2 2.117e+04 1.286e-08
 55.83101    273.9 1.916e+04 7.207e-09
 55.84475    264.4 2.170e+04 1.259e-08
 55.86433    255.9 2.221e+04 1.248e-08
 55.88391    248.1 2.236e+04 9.404e-09
 55.89391    240.8 2.077e+04 4.525e-09
 55.90370    242.2 2.074e+04 5.264e-09
 55.92308    235.0 1.703e+04 2.119e-09
 55.94266    228.1 1.129e+04 8.333e-10
 55.96224    223.3 1.042e+04 4.699e-10
 55.98182    221.1 1.018e+04 4.336e-10
 56.00140    220.1 1.013e+04 4.338e-10
 56.02098    219.3 1.012e+04 4.341e-10
 56.04056    218.4 1.012e+04 4.362e-10
 56.06014    217.4 1.014e+04 4.450e-10
 56.07973    216.5 1.019e+04 4.653e-10
 56.09931    215.6 1.028e+04 4.989e-10
 56.11889    214.7 1.041e+04 5.480e-10
 56.13847    213.8 1.061e+04 6.208e-10
 56.15805    212.7 1.094e+04 7.344e-10
 56.17763    211.4 1.143e+04 9.147e-10
 56.18841    209.8 1.204e+04 1.189e-09
 56.19820    211.1 1.163e+04 9.911e-10
 56.21679    209.5 1.222e+04 1.283e-09
 56.23637    207.8 1.278e+04 1.674e-09
 56.25596    206.0 1.338e+04 2.200e-09
 56.27554    203.8 1.417e+04 2.962e-09
 56.29512    201.0 1.520e+04 4.111e-09
 56.30875    198.1 1.621e+04 5.608e-09
 56.31854    198.7 1.586e+04 4.689e-09
 56.33428    195.7 1.678e+04 6.458e-09
 56.35386    192.9 1.711e+04 6.859e-09
 56.37344    190.3 1.699e+04 6.397e-09
 56.39302    188.0 1.645e+04 4.690e-09
 56.41260    185.3 1.542e+04 2.590e-09
 56.43218    180.7 1.397e+04 1.232e-09
 56.45177    176.8 1.219e+04 7.076e-10
 56.48124    171.8 1.143e+04 6.611e-10
 56.51061    170.3 1.132e+04 6.458e-10
 56.53009    168.6 1.133e+04 6.674e-10
 56.54580    166.5 1.163e+04 8.002e-10
 56.55559    167.6 1.150e+04 6.636e-10
 56.56925    165.3 1.211e+04 8.986e-10
 56.58883    163.3 1.298e+04 1.432e-09
 56.60841    161.9 1.364e+04 2.185e-09
 56.62800    160.8 1.409e+04 2.910e-09
 56.64758    159.8 1.444e+04 3.399e-09
 56.66716    158.7 1.478e+04 3.409e-09
 56.68674    157.3 1.484e+04 3.166e-09
 56.70632    155.3 1.482e+04 2.586e-09
 56.72360    152.7 1.434e+04 2.025e-09
 56.73339    156.0 1.462e+04 2.408e-09
 56.74548    153.4 1.417e+04 1.988e-09
 56.76506    150.9 1.345e+04 1.757e-09
 56.78464    148.9 1.285e+04 1.653e-09
 56.80423    147.7 1.251e+04 1.581e-09
 56.82381    147.1 1.249e+04 1.530e-09
 56.84339    145.9 1.274e+04 1.563e-09
 56.86297    142.7 1.410e+04 1.725e-09
 56.88255    137.7 1.662e+04 2.624e-09
 56.90213    133.4 1.786e+04 4.852e-09
 56.91298    130.7 1.808e+04 7.681e-09
 56.92277    132.6 1.814e+04 6.228e-09
 56.94129    130.9 1.831e+04 8.897e-09
 56.96087    129.9 1.829e+04 9.515e-09
 56.98046    129.2 1.803e+04 8.344e-09
 57.00004    128.0 1.740e+04 5.456e-09
 57.01962    125.7 1.616e+04 2.980e-09
 57.03920    122.6 1.416e+04 1.738e-09
 57.05878    120.3 1.278e+04 1.516e-09
 57.07836    119.1 1.285e+04 1.596e-09
 57.09794    118.2 1.327e+04 1.945e-09
 57.11752    117.5 1.390e+04 2.525e-09
 57.13710    117.0 1.423e+04 2.887e-09
 57.14823    116.4 1.419e+04 2.852e-09
 57.15802    117.7 1.489e+04 3.743e-09
 57.17627    117.3 1.466e+04 3.407e-09
 57.19585    117.2 1.402e+04 2.551e-09
 57.21543    116.9 1.313e+04 1.618e-09
 57.23501    116.2 1.218e+04 9.164e-10
 57.25459    114.6 1.138e+04 5.117e-10
 57.27038    112.7 1.065e+04 3.368e-10
 57.28017    114.0 1.086e+04 3.786e-10
 57.29375    112.3 1.048e+04 3.301e-10
 57.31333    112.0 1.040e+04 3.261e-10
 57.33291    112.0 1.039e+04 3.309e-10
 57.35250    112.1 1.038e+04 3.570e-10
 57.37208    112.3 1.043e+04 4.144e-10
 57.39166    113.0 1.055e+04 5.028e-10
 57.41124    114.0 1.075e+04 6.167e-10
 57.43082    115.1 1.100e+04 7.124e-10
 57.45040    115.9 1.129e+04 7.639e-10
 57.46998    116.4 1.148e+04 7.648e-10
 57.48956    116.0 1.160e+04 7.414e-10
 57.50914    116.0 1.160e+04 7.308e-10
 57.53861    116.1 1.176e+04 7.828e-10
 57.56326    115.3 1.202e+04 8.870e-10
 57.58285    116.5 1.214e+04 9.208e-10
 57.61704    116.1 1.243e+04 1.081e-09
 57.63766    115.4 1.273e+04 1.286e-09
 57.64735    115.7 1.254e+04 1.153e-09
 57.66579    115.8 1.263e+04 1.206e-09
 57.68537    116.0 1.285e+04 1.302e-09
 57.70496    116.1 1.291e+04 1.335e-09
 57.73442    116.8 1.321e+04 1.517e-09
 57.77368    117.3 1.306e+04 1.386e-09
 57.81285    117.9 1.276e+04 1.214e-09
 57.85201    119.1 1.232e+04 1.026e-09
 57.89117    120.2 1.201e+04 8.809e-10
 57.93033    121.3 1.180e+04 7.596e-10
 57.96950    122.4 1.162e+04 6.539e-10
 57.99515    123.6 1.156e+04 5.854e-10
 58.01473    125.8 1.139e+04 5.609e-10
 58.04782    127.0 1.139e+04 5.326e-10
 58.08698    127.9 1.156e+04 5.529e-10
 58.12614    128.9 1.193e+04 6.342e-10
 58.15542    128.5 1.224e+04 7.954e-10
 58.17490    128.7 1.236e+04 9.455e-10
 58.19448    129.2 1.257e+04 1.100e-09
 58.21406    129.7 1.272e+04 1.234e-09
 58.23365    130.2 1.272e+04 1.270e-09
 58.25323    130.8 1.271e+04 1.204e-09
 58.27281    131.3 1.262e+04 1.065e-09
 58.29239    131.7 1.251e+04 9.008e-10
 58.31197    131.7 1.242e+04 7.669e-10
 58.33155    131.8 1.233e+04 7.025e-10
 58.36102    132.1 1.231e+04 6.628e-10
 58.39295    131.4 1.206e+04 5.804e-10
 58.41253    131.8 1.237e+04 6.202e-10
 58.42955    129.9 1.159e+04 4.896e-10
 58.44904    128.8 1.132e+04 4.372e-10
 58.46862    128.0 1.201e+04 4.485e-10
 58.48820    127.5 1.224e+04 4.487e-10
 58.50778    126.5 1.221e+04 5.242e-10
 58.52736    125.1 1.281e+04 7.336e-10
 58.54694    123.5 1.348e+04 1.151e-09
 58.56652    122.6 1.400e+04 1.710e-09
 58.58610    122.4 1.449e+04 2.283e-09
 58.60569    122.2 1.496e+04 2.794e-09
 58.62527    121.6 1.563e+04 3.361e-09
 58.64485    120.0 1.675e+04 4.313e-09
 58.66443    118.2 1.778e+04 5.389e-09
 58.67907    117.4 1.831e+04 6.401e-09
 58.68881    116.6 1.838e+04 6.665e-09
 58.70354    115.6 1.806e+04 6.059e-09
 58.71953    113.9 1.766e+04 5.572e-09
 58.72932    115.7 1.760e+04 5.662e-09
 58.74275    113.5 1.673e+04 4.078e-09
 58.76233    110.5 1.546e+04 2.521e-09
 58.78192    107.7 1.426e+04 1.803e-09
 58.80150    106.0 1.341e+04 1.417e-09
 58.81739    105.7 1.296e+04 1.225e-09
 58.82718    105.2 1.290e+04 1.208e-09
 58.84066    105.4 1.267e+04 1.096e-09
 58.86024    105.8 1.254e+04 1.020e-09
 58.87982    106.4 1.243e+04 9.608e-10
 58.89940    106.9 1.229e+04 9.036e-10
 58.91898    107.7 1.217e+04 8.538e-10
 58.93856    107.8 1.204e+04 7.854e-10
 58.95815    107.9 1.203e+04 7.791e-10
 58.98761    109.4 1.164e+04 6.565e-10
 59.02687    110.4 1.115e+04 5.141e-10
 59.06604    111.4 1.068e+04 3.809e-10
 59.10520    112.3 1.029e+04 2.824e-10
 59.14436    113.1 1.000e+04 2.199e-10
 59.18352    114.0 9.800e+03 1.822e-10
 59.22263    114.9 9.632e+03 1.601e-10
 59.26179    115.5 9.690e+03 1.639e-10
 59.30101    116.2 9.667e+03 1.619e-10
 59.34017    117.0 9.678e+03 1.665e-10
 59.37933    117.9 9.768e+03 1.908e-10
 59.41850    119.1 1.000e+04 2.343e-10
 59.44431    120.4 1.020e+04 2.820e-10
 59.46389    122.3 1.009e+04 2.614e-10
 59.49682    123.6 1.043e+04 3.282e-10
 59.53598    124.7 1.077e+04 4.050e-10
 59.56526    125.1 1.100e+04 4.553e-10
 59.58474    125.5 1.119e+04 5.067e-10
 59.60432    125.9 1.135e+04 5.662e-10
 59.62390    126.5 1.145e+04 6.241e-10
 59.64348    127.2 1.150e+04 6.602e-10
 59.65686    127.9 1.152e+04 6.655e-10
 59.66665    128.1 1.158e+04 6.707e-10
 59.68265    128.8 1.157e+04 6.698e-10
 59.70223    129.3 1.158e+04 6.699e-10
 59.72181    129.8 1.159e+04 6.710e-10
 59.74139    130.2 1.161e+04 6.748e-10
 59.76097    130.5 1.165e+04 6.865e-10
 59.78055    131.2 1.170e+04 6.980e-10
 59.80013    131.4 1.187e+04 7.431e-10
 59.81130    131.5 1.198e+04 7.738e-10
 59.82109    131.7 1.193e+04 7.591e-10
 59.84918    131.4 1.225e+04 8.443e-10
 59.87855    131.1 1.267e+04 9.409e-10
 59.89804    130.5 1.289e+04 1.052e-09
 59.91762    129.8 1.305e+04 1.137e-09
 59.93720    129.0 1.312e+04 1.218e-09
 59.95678    128.0 1.274e+04 1.384e-09
 59.97636    126.5 1.285e+04 1.559e-09
 59.99594    124.7 1.343e+04 1.696e-09
 60.01552    120.9 1.531e+04 1.983e-09
 60.03511    115.0 1.881e+04 3.219e-09
 60.05469    109.6 2.057e+04 6.194e-09
 60.07170    105.4 2.121e+04 1.048e-08
 60.08149    104.8 2.157e+04 1.104e-08
 60.08890    102.6 2.140e+04 1.283e-08
 60.09865    101.3 2.162e+04 1.484e-08
 60.10844     99.8 2.207e+04 1.612e-08
 60.11823     98.8 2.229e+04 1.646e-08
 60.13296     96.1 2.279e+04 1.641e-08
 60.15259     93.0 2.201e+04 1.082e-08
 60.16869     88.9 2.021e+04 6.584e-09
 60.17848     93.0 2.021e+04 6.773e-09
 60.19175     88.1 1.851e+04 4.504e-09
 60.21133     83.5 1.741e+04 3.705e-09
 60.23092     80.4 1.692e+04 3.821e-09
 60.25050     78.7 1.660e+04 3.836e-09
 60.27008     77.8 1.630e+04 3.679e-09
 60.28966     77.5 1.562e+04 3.290e-09
 60.30924     77.2 1.502e+04 2.613e-09
 60.32882     76.5 1.453e+04 1.954e-09
 60.34840     75.0 1.403e+04 1.433e-09
 60.36798     73.3 1.330e+04 1.076e-09
 60.38756     71.9 1.256e+04 8.700e-10
 60.40715     70.8 1.210e+04 7.818e-10
 60.42673     69.9 1.210e+04 7.789e-10
 60.44631     69.1 1.211e+04 8.354e-10
 60.46589     68.6 1.207e+04 9.121e-10
 60.48547     68.5 1.204e+04 9.530e-10
 60.49633     68.3 1.203e+04 9.388e-10
 60.50612     68.9 1.237e+04 1.126e-09
 60.52463     68.8 1.233e+04 1.089e-09
 60.53587     68.1 1.251e+04 1.044e-09
 60.54566     68.6 1.256e+04 1.055e-09
 60.56379     67.2 1.265e+04 1.028e-09
 60.58338     65.7 1.259e+04 9.874e-10
 60.60296     64.6 1.232e+04 9.159e-10
 60.62254     63.8 1.203e+04 8.322e-10
 60.64212     63.2 1.181e+04 7.438e-10
 60.66170     62.4 1.167e+04 6.607e-10
 60.68128     61.6 1.143e+04 5.828e-10
 60.70086     60.5 1.129e+04 4.979e-10
 60.72044     60.2 1.118e+04 4.438e-10
 60.74991     58.1 1.153e+04 4.877e-10
 60.78917     57.2 1.129e+04 4.306e-10
 60.82833     56.6 1.081e+04 3.432e-10
 60.86750     56.2 1.045e+04 2.868e-10
 60.89346     56.2 1.047e+04 2.899e-10
 60.90797     57.0 1.041e+04 2.746e-10
 60.92116     56.8 1.059e+04 3.136e-10
 60.94582     57.2 1.071e+04 3.381e-10
 60.98498     57.8 1.081e+04 3.507e-10
 61.02415     58.4 1.088e+04 3.506e-10
 61.06331     58.8 1.100e+04 3.539e-10
 61.10247     59.1 1.113e+04 3.676e-10
 61.14163     59.6 1.121e+04 3.780e-10
 61.18079     60.1 1.125e+04 3.816e-10
 61.21996     60.3 1.138e+04 4.030e-10
 61.25912     60.6 1.149e+04 4.386e-10
 61.29828     60.6 1.173e+04 4.911e-10
 61.33744     60.6 1.183e+04 4.831e-10
 61.36672     59.4 1.186e+04 4.767e-10
 61.38620     59.5 1.185e+04 4.811e-10
 61.40578     59.1 1.197e+04 5.151e-10
 61.42536     58.6 1.213e+04 5.639e-10
 61.44494     58.1 1.228e+04 6.229e-10
 61.46452     57.5 1.245e+04 6.841e-10
 61.48411     57.0 1.239e+04 7.465e-10
 61.50369     56.1 1.278e+04 7.571e-10
 61.52327     53.5 1.354e+04 8.455e-10
 61.53790     50.7 1.634e+04 8.392e-10
 61.54313     31.1 4.247e+04 1.331e-09
 61.54803     21.8 4.873e+04 2.258e-09
 61.55744      7.6 3.959e+04 1.402e-08
 61.56723     -1.1 2.743e+04 7.407e-08
 61.57702    -15.7 3.615e+04 1.484e-07
 61.58681    -42.0 5.365e+04 8.635e-08
 61.59660    -88.2 7.003e+04 1.535e-08
 61.60639   -133.1 5.997e+04 1.965e-09
 61.61780   -151.2 4.974e+04 9.546e-10
 61.62764   -160.5 4.422e+04 8.917e-10
 61.64075   -196.3 1.428e+04 5.176e-10
 61.66034   -203.9 1.239e+04 3.117e-10
 61.67992   -207.3 1.254e+04 2.791e-10
 61.69950   -211.1 1.249e+04 2.640e-10
 61.72897   -215.5 1.250e+04 2.505e-10
 61.75085   -220.0 1.257e+04 2.627e-10
 61.77043   -217.8 1.392e+04 3.338e-10
 61.80739   -222.1 1.545e+04 4.434e-10
 61.84655   -224.9 1.637e+04 5.857e-10
 61.87583   -225.8 1.623e+04 6.462e-10
 61.89531   -225.8 1.598e+04 6.934e-10
 61.91489   -225.6 1.578e+04 7.488e-10
 61.93447   -225.9 1.597e+04 8.138e-10
 61.95405   -232.3 2.784e+04 9.695e-10
 61.97363   -241.5 3.957e+04 2.502e-09
 61.98498   -247.8 4.223e+04 5.295e-09
 61.99477   -255.5 3.040e+04 9.226e-09
 62.00785   -257.8 2.889e+04 1.600e-08
 62.01759   -261.5 2.735e+04 2.349e-08
 62.02738   -266.0 2.701e+04 3.151e-08
 62.03717   -271.5 2.698e+04 3.525e-08
 62.04696   -277.6 2.686e+04 3.569e-08
 62.05675   -284.2 2.576e+04 3.095e-08
 62.06655   -291.8 2.414e+04 2.187e-08
 62.07634   -300.1 2.245e+04 1.442e-08
 62.08613   -307.9 2.133e+04 1.020e-08
 62.09592   -314.4 2.141e+04 8.016e-09
 62.10571   -319.6 2.178e+04 7.309e-09
 62.11550   -324.3 2.198e+04 7.159e-09
 62.12529   -328.7 2.283e+04 6.952e-09
 62.13508   -332.9 2.384e+04 6.795e-09
 62.14487   -336.5 2.459e+04 6.881e-09
 62.15466   -339.3 2.494e+04 7.147e-09
 62.16544   -342.2 2.508e+04 7.636e-09
 62.17523   -348.0 2.681e+04 1.155e-08
 62.18403   -351.4 2.616e+04 1.469e-08
 62.19382   -353.5 2.612e+04 1.788e-08
 62.20361   -355.3 2.609e+04 2.118e-08
 62.21340   -357.0 2.606e+04 2.382e-08
 62.22319   -358.4 2.606e+04 2.522e-08
 62.23298   -359.4 2.605e+04 2.555e-08
 62.24278   -360.2 2.617e+04 2.409e-08
 62.25257   -360.9 2.613e+04 2.168e-08
 62.26236   -361.4 2.602e+04 1.880e-08
 62.27215   -361.8 2.572e+04 1.586e-08
 62.28194   -361.9 2.518e+04 1.348e-08
 62.29173   -362.0 2.451e+04 1.160e-08
 62.30152   -362.0 2.378e+04 1.011e-08
 62.31131   -362.0 2.308e+04 8.867e-09
 62.32110   -362.1 2.249e+04 7.774e-09
 62.33089   -362.1 2.189e+04 6.811e-09
 62.34237   -362.5 2.095e+04 5.765e-09
 62.35221   -361.3 2.061e+04 6.444e-09
 62.36525   -360.3 1.924e+04 5.487e-09
 62.38484   -359.3 1.840e+04 4.787e-09
 62.40442   -358.2 1.783e+04 4.215e-09
 62.42400   -356.9 1.741e+04 3.725e-09
 62.44358   -355.6 1.706e+04 3.317e-09
 62.46316   -354.5 1.673e+04 3.018e-09
 62.48274   -353.3 1.646e+04 2.827e-09
 62.50232   -352.1 1.632e+04 2.707e-09
 62.52190   -350.9 1.626e+04 2.660e-09
 62.54148   -349.7 1.626e+04 2.651e-09
 62.56107   -348.5 1.621e+04 2.680e-09
 62.58033   -347.2 1.611e+04 2.730e-09
 62.59012   -347.9 1.634e+04 4.119e-09
 62.60023   -346.3 1.604e+04 3.879e-09
 62.61981   -344.7 1.576e+04 3.646e-09
 62.63939   -343.0 1.551e+04 3.405e-09
 62.65897   -341.3 1.527e+04 3.145e-09
 62.67855   -339.5 1.507e+04 2.870e-09
 62.69813   -337.8 1.487e+04 2.605e-09
 62.70961   -336.0 1.460e+04 2.331e-09
 62.71940   -336.8 1.482e+04 2.344e-09
 62.73730   -335.1 1.448e+04 2.025e-09
 62.75688   -333.6 1.414e+04 1.717e-09
 62.77646   -332.1 1.381e+04 1.434e-09
 62.79604   -330.7 1.347e+04 1.181e-09
 62.81562   -329.3 1.310e+04 9.730e-10
 62.83520   -327.9 1.274e+04 8.116e-10
 62.85478   -326.5 1.239e+04 6.962e-10
 62.87436   -325.2 1.209e+04 6.166e-10
 62.89394   -323.8 1.185e+04 5.646e-10
 62.91353   -322.5 1.166e+04 5.402e-10
 62.93311   -321.1 1.157e+04 5.341e-10
 62.95269   -319.6 1.155e+04 5.352e-10
 62.97227   -318.2 1.155e+04 5.573e-10
 62.99185   -316.8 1.159e+04 5.818e-10
 63.00497   -315.4 1.160e+04 6.017e-10
 63.01476   -316.2 1.173e+04 6.154e-10
 63.03101   -314.8 1.174e+04 6.260e-10
 63.05059   -313.4 1.174e+04 6.334e-10
 63.06700   -312.0 1.173e+04 6.402e-10
 63.07679   -312.8 1.157e+04 5.702e-10
 63.08976   -311.4 1.159e+04 5.802e-10
 63.10934   -310.1 1.161e+04 5.914e-10
 63.12892   -308.7 1.163e+04 6.023e-10
 63.14850   -307.4 1.164e+04 6.126e-10
 63.16808   -306.2 1.163e+04 6.220e-10
 63.18766   -305.0 1.160e+04 6.306e-10
 63.20724   -303.8 1.156e+04 6.384e-10
 63.22682   -302.5 1.152e+04 6.467e-10
 63.24640   -301.2 1.149e+04 6.557e-10
 63.26598   -300.0 1.146e+04 6.649e-10
 63.28557   -298.9 1.144e+04 6.736e-10
 63.30515   -297.7 1.142e+04 6.826e-10
 63.32473   -296.6 1.140e+04 6.932e-10
 63.34431   -295.5 1.141e+04 7.073e-10
 63.36389   -294.5 1.144e+04 7.273e-10
 63.38347   -293.5 1.150e+04 7.552e-10
 63.40305   -292.6 1.157e+04 7.906e-10
 63.41981   -291.8 1.164e+04 8.304e-10
 63.42960   -291.9 1.132e+04 6.675e-10
 63.43419   -291.1 1.132e+04 6.735e-10
 63.44398   -292.4 1.118e+04 6.374e-10
 63.46180   -291.7 1.122e+04 6.564e-10
 63.48138   -291.1 1.125e+04 6.797e-10
 63.50096   -290.5 1.127e+04 7.042e-10
 63.52054   -289.9 1.127e+04 7.238e-10
 63.54012   -289.4 1.124e+04 7.363e-10
 63.55970   -288.7 1.122e+04 7.404e-10
 63.57928   -288.0 1.116e+04 7.426e-10
 63.59886   -287.2 1.105e+04 7.370e-10
 63.61844   -286.2 1.094e+04 7.207e-10
 63.63803   -285.2 1.083e+04 6.994e-10
 63.65761   -284.0 1.074e+04 6.748e-10
 63.67719   -282.9 1.068e+04 6.406e-10
 63.69677   -282.0 1.065e+04 5.846e-10
 63.71635   -281.3 1.064e+04 5.134e-10
 63.73593   -280.4 1.059e+04 4.604e-10
 63.76540   -279.0 1.056e+04 4.354e-10
 63.79177   -276.1 1.034e+04 3.787e-10
 63.81136   -278.3 9.910e+03 3.057e-10
 63.84382   -276.1 9.626e+03 2.745e-10
 63.88298   -274.1 9.520e+03 2.664e-10
 63.92215   -272.3 9.622e+03 2.821e-10
 63.96131   -270.8 9.846e+03 3.202e-10
 64.00047   -269.4 1.021e+04 3.845e-10
 64.03963   -268.2 1.052e+04 4.515e-10
 64.07880   -267.2 1.071e+04 4.898e-10
 64.11796   -266.1 1.079e+04 4.996e-10
 64.15712   -265.0 1.067e+04 4.476e-10
 64.19628   -264.1 1.032e+04 3.554e-10
 64.23544   -263.3 9.761e+03 2.601e-10
 64.25948   -262.6 9.136e+03 1.895e-10
 64.27906   -261.1 9.433e+03 2.325e-10
 64.31377   -260.1 8.954e+03 1.820e-10
 64.35293   -259.3 8.758e+03 1.676e-10
 64.39209   -258.5 8.700e+03 1.701e-10
 64.43125   -257.9 8.792e+03 1.951e-10
 64.47042   -257.3 8.800e+03 2.158e-10
 64.50656   -256.6 8.788e+03 2.211e-10
 64.52614   -258.5 8.743e+03 2.110e-10
 64.54874   -257.5 8.579e+03 1.948e-10
 64.58790   -256.4 8.310e+03 1.545e-10
 64.62707   -255.2 8.008e+03 1.165e-10
 64.66623   -254.0 7.770e+03 9.343e-11
 64.70539   -252.7 7.650e+03 8.429e-11
 64.74455   -251.3 7.612e+03 8.163e-11
 64.78371   -249.8 7.602e+03 8.128e-11
 64.82288   -248.3 7.601e+03 8.344e-11
 64.86204   -246.8 7.674e+03 9.288e-11
 64.90120   -245.4 7.768e+03 1.056e-10
 64.94036   -244.1 7.849e+03 1.171e-10
 64.97953   -242.9 7.910e+03 1.253e-10
 65.01869   -241.8 7.932e+03 1.298e-10
 65.05785   -240.8 7.938e+03 1.310e-10
 65.08916   -239.8 7.939e+03 1.312e-10
 65.10874   -239.1 8.182e+03 1.702e-10
 65.13617   -238.4 8.258e+03 1.806e-10
 65.17534   -237.7 8.353e+03 1.935e-10
 65.21450   -237.1 8.459e+03 2.093e-10
 65.24093   -236.5 8.548e+03 2.251e-10
 65.26051   -237.9 8.251e+03 1.907e-10
 65.29282   -237.6 8.336e+03 2.099e-10
 65.33198   -237.6 8.439e+03 2.497e-10
 65.37115   -238.4 8.832e+03 3.993e-10
 65.41031   -241.3 1.195e+04 8.915e-10
 65.43958   -243.7 1.362e+04 1.695e-09
 65.45907   -245.5 1.505e+04 3.066e-09
 65.47865   -247.5 1.609e+04 5.020e-09
 65.49823   -249.8 1.663e+04 6.683e-09
 65.51360   -252.1 1.671e+04 7.189e-09
 65.52339   -252.6 1.704e+04 7.708e-09
 65.53739   -254.6 1.680e+04 7.545e-09
 65.55697   -255.9 1.599e+04 5.991e-09
 65.57655   -257.1 1.492e+04 4.048e-09
 65.59613   -258.3 1.370e+04 2.534e-09
 65.60792   -259.5 1.249e+04 1.595e-09
 65.61771   -260.4 1.226e+04 1.466e-09
 65.63530   -261.1 1.132e+04 9.767e-10
 65.65488   -261.4 1.072e+04 6.977e-10
 65.67446   -261.6 1.035e+04 5.249e-10
 65.69404   -261.4 1.008e+04 4.145e-10
 65.72351   -260.3 9.890e+03 3.554e-10
 65.76277   -259.8 9.707e+03 3.077e-10
 65.80193   -258.5 9.410e+03 2.527e-10
 65.84109   -257.2 9.199e+03 2.150e-10
 65.88026   -255.9 9.130e+03 1.994e-10
 65.91885   -254.5 9.118e+03 1.962e-10
 65.93843   -254.7 9.125e+03 1.963e-10
 65.95572   -253.5 9.152e+03 1.981e-10
 65.97530   -254.5 9.363e+03 2.366e-10
 65.99774   -253.5 9.514e+03 2.738e-10
 66.03690   -252.7 9.678e+03 3.256e-10
 66.07607   -251.9 9.836e+03 3.864e-10
 66.11523   -251.1 9.960e+03 4.406e-10
 66.15439   -249.9 1.001e+04 4.601e-10
 66.18366   -248.5 9.935e+03 4.474e-10
 66.20315   -248.1 9.911e+03 4.438e-10
 66.23262   -247.9 9.803e+03 4.398e-10
 66.27188   -247.7 9.672e+03 4.147e-10
 66.31104   -247.6 9.437e+03 3.695e-10
 66.35020   -246.8 9.136e+03 3.171e-10
 66.38936   -245.7 8.844e+03 2.712e-10
 66.42853   -244.3 8.636e+03 2.398e-10
 66.46769   -242.9 8.489e+03 2.203e-10
 66.50685   -241.5 8.395e+03 2.090e-10
 66.54601   -240.1 8.343e+03 2.031e-10
 66.58517   -238.8 8.326e+03 2.009e-10
 66.62434   -237.5 8.315e+03 1.999e-10
 66.66350   -236.3 8.328e+03 2.004e-10
 66.69009   -235.3 8.325e+03 2.028e-10
 66.70967   -236.9 8.430e+03 2.158e-10
 66.74182   -236.1 8.535e+03 2.308e-10
 66.76811   -235.5 8.710e+03 2.565e-10
 66.78769   -236.4 8.706e+03 2.539e-10
 66.82015   -236.1 9.070e+03 3.085e-10
 66.85931   -235.8 9.447e+03 3.815e-10
 66.89847   -235.5 9.719e+03 4.457e-10
 66.92775   -234.5 9.793e+03 4.723e-10
 66.94723   -235.0 9.832e+03 4.830e-10
 66.97670   -235.7 9.828e+03 4.947e-10
 67.01596   -235.5 9.716e+03 4.645e-10
 67.05512   -235.3 9.659e+03 4.453e-10
 67.08439   -234.7 9.556e+03 4.252e-10
 67.10388   -234.9 9.601e+03 4.261e-10
 67.12346   -237.3 1.004e+04 4.550e-10
 67.14304   -241.7 1.364e+04 7.826e-10
 67.16262   -246.3 2.026e+04 2.611e-09
 67.18220   -249.8 2.292e+04 8.746e-09
 67.19250   -252.9 2.293e+04 2.222e-08
 67.19734   -253.6 2.274e+04 2.706e-08
 67.20658   -254.8 2.258e+04 3.264e-08
 67.21637   -256.2 2.248e+04 3.584e-08
 67.22616   -257.4 2.248e+04 3.632e-08
 67.23567   -258.5 2.289e+04 3.278e-08
 67.24057   -258.3 2.301e+04 3.381e-08
 67.24574   -259.4 2.340e+04 2.394e-08
 67.25553   -261.1 2.354e+04 1.480e-08
 67.26532   -263.6 2.312e+04 8.415e-09
 67.27512   -266.9 2.148e+04 4.639e-09
 67.28491   -270.6 1.843e+04 2.733e-09
 67.29470   -273.6 1.533e+04 1.939e-09
 67.30449   -275.3 1.397e+04 1.677e-09
 67.31922   -276.6 1.335e+04 1.568e-09
 67.33885   -278.2 1.247e+04 1.408e-09
 67.35843   -278.5 1.235e+04 1.378e-09
 67.37801   -278.8 1.239e+04 1.381e-09
 67.39759   -279.2 1.242e+04 1.385e-09
 67.41447   -279.4 1.242e+04 1.349e-09
 67.42426   -279.8 1.235e+04 1.295e-09
 67.43676   -280.1 1.229e+04 1.276e-09
 67.45634   -280.3 1.209e+04 1.201e-09
 67.47592   -280.6 1.184e+04 1.118e-09
 67.49550   -280.9 1.162e+04 1.053e-09
 67.51508   -281.2 1.152e+04 1.029e-09
 67.53466   -281.6 1.151e+04 1.028e-09
 67.55424   -282.2 1.168e+04 1.104e-09
 67.57382   -283.0 1.232e+04 1.334e-09
 67.59341   -283.9 1.307e+04 1.673e-09
 67.60739   -284.8 1.376e+04 2.051e-09
 67.61718   -285.4 1.592e+04 3.385e-09
 67.63257   -286.0 1.668e+04 4.369e-09
 67.65215   -286.5 1.702e+04 4.909e-09
 67.67173   -286.8 1.708e+04 5.015e-09
 67.69131   -286.9 1.699e+04 4.854e-09
 67.71089   -286.7 1.649e+04 3.948e-09
 67.73047   -286.5 1.574e+04 2.956e-09
 67.75005   -286.4 1.492e+04 2.137e-09
 67.76964   -286.3 1.415e+04 1.563e-09
 67.78165   -286.2 1.358e+04 1.205e-09
 67.79144   -286.4 1.362e+04 1.226e-09
 67.80880   -286.1 1.329e+04 1.050e-09
 67.82838   -285.6 1.316e+04 9.827e-10
 67.84796   -284.9 1.313e+04 9.673e-10
 67.86754   -284.3 1.312e+04 9.694e-10
 67.88712   -283.6 1.307e+04 1.005e-09
 67.90670   -282.8 1.295e+04 1.034e-09
 67.92628   -282.1 1.287e+04 1.044e-09
 67.94586   -281.3 1.261e+04 1.053e-09
 67.96545   -280.6 1.227e+04 1.046e-09
 67.98503   -279.8 1.190e+04 1.032e-09
 68.00461   -278.9 1.159e+04 1.029e-09
 68.02223   -278.0 1.140e+04 1.036e-09
 68.03202   -277.8 1.239e+04 1.370e-09
 68.04377   -276.8 1.218e+04 1.251e-09
 68.06335   -275.7 1.200e+04 1.161e-09
 68.08293   -274.5 1.192e+04 1.097e-09
 68.10251   -273.4 1.200e+04 1.051e-09
 68.12209   -272.2 1.209e+04 1.028e-09
 68.13905   -271.1 1.225e+04 1.014e-09
 68.14884   -271.6 1.306e+04 1.211e-09
 68.16126   -270.6 1.306e+04 1.174e-09
 68.18084   -269.6 1.295e+04 1.139e-09
 68.20042   -268.7 1.277e+04 1.117e-09
 68.22000   -267.7 1.260e+04 1.115e-09
 68.23958   -266.7 1.256e+04 1.118e-09
 68.25916   -265.7 1.248e+04 1.151e-09
 68.27874   -264.7 1.253e+04 1.214e-09
 68.29832   -263.9 1.259e+04 1.331e-09
 68.31791   -263.0 1.270e+04 1.532e-09
 68.33749   -262.3 1.293e+04 1.840e-09
 68.35707   -261.6 1.333e+04 2.273e-09
 68.37665   -261.1 1.395e+04 2.840e-09
 68.39623   -261.0 1.481e+04 3.514e-09
 68.41581   -261.1 1.579e+04 4.230e-09
 68.43539   -261.4 1.673e+04 5.041e-09
 68.44686   -262.6 1.742e+04 5.493e-09
 68.45665   -265.9 1.761e+04 6.661e-09
 68.47455   -267.9 1.716e+04 6.067e-09
 68.49414   -269.9 1.611e+04 4.481e-09
 68.50623   -271.9 1.457e+04 2.980e-09
 68.51602   -273.5 1.343e+04 2.596e-09
 68.53330   -274.7 1.231e+04 1.859e-09
 68.55288   -275.6 1.165e+04 1.353e-09
 68.57246   -276.3 1.115e+04 1.057e-09
 68.59204   -276.9 1.092e+04 9.089e-10
 68.61162   -277.3 1.084e+04 8.503e-10
 68.63120   -277.6 1.082e+04 8.349e-10
 68.65078   -277.8 1.082e+04 8.317e-10
 68.67037   -278.0 1.083e+04 8.310e-10
 68.68995   -278.3 1.085e+04 8.308e-10
 68.70953   -278.5 1.089e+04 8.198e-10
 68.72911   -278.7 1.086e+04 7.926e-10
 68.74869   -278.9 1.083e+04 7.588e-10
 68.76827   -279.1 1.081e+04 7.333e-10
 68.78785   -279.3 1.081e+04 7.245e-10
 68.80743   -279.5 1.082e+04 7.235e-10
 68.82701   -279.7 1.086e+04 7.256e-10
 68.84660   -280.1 1.104e+04 7.495e-10
 68.86170   -280.5 1.137e+04 8.273e-10
 68.86894   -280.3 1.099e+04 7.293e-10
 68.87341   -280.6 1.097e+04 7.210e-10
 68.88576   -280.6 1.106e+04 7.502e-10
 68.90534   -280.6 1.118e+04 7.854e-10
 68.92492   -280.5 1.133e+04 8.278e-10
 68.94450   -280.4 1.146e+04 8.706e-10
 68.96408   -280.3 1.156e+04 9.033e-10
 68.98366   -280.1 1.160e+04 9.169e-10
 69.00324   -279.8 1.160e+04 9.186e-10
 69.02282   -279.4 1.155e+04 9.027e-10
 69.04241   -278.8 1.138e+04 8.425e-10
 69.06199   -278.2 1.118e+04 7.700e-10
 69.08157   -277.4 1.099e+04 7.029e-10
 69.10115   -276.6 1.083e+04 6.493e-10
 69.12073   -275.9 1.072e+04 6.127e-10
 69.14031   -275.0 1.066e+04 5.945e-10
 69.15989   -274.2 1.064e+04 5.901e-10
 69.17947   -273.4 1.064e+04 5.897e-10
 69.19905   -272.6 1.068e+04 5.942e-10
 69.21864   -271.9 1.078e+04 6.293e-10
 69.23081   -271.1 1.090e+04 6.930e-10
 69.24060   -270.7 1.081e+04 6.555e-10
 69.25780   -270.0 1.096e+04 7.371e-10
 69.27655   -269.2 1.112e+04 8.434e-10
 69.28634   -268.6 1.098e+04 7.375e-10
 69.29696   -267.9 1.124e+04 8.733e-10
 69.31654   -267.3 1.150e+04 1.037e-09
 69.33612   -266.9 1.173e+04 1.208e-09
 69.35570   -266.6 1.195e+04 1.369e-09
 69.37528   -266.4 1.216e+04 1.531e-09
 69.39487   -266.1 1.234e+04 1.704e-09
 69.41445   -265.7 1.246e+04 1.849e-09
 69.43403   -265.3 1.256e+04 1.949e-09
 69.45361   -264.8 1.262e+04 2.016e-09
 69.47319   -264.3 1.265e+04 2.058e-09
 69.49277   -263.8 1.267e+04 2.090e-09
 69.51235   -263.2 1.269e+04 2.120e-09
 69.53193   -262.7 1.270e+04 2.153e-09
 69.55151   -262.2 1.272e+04 2.187e-09
 69.57110   -261.7 1.273e+04 2.220e-09
 69.58820   -261.2 1.275e+04 2.231e-09
 69.59799   -261.6 1.330e+04 2.465e-09
 69.61026   -261.3 1.336e+04 2.510e-09
 69.62984   -261.0 1.346e+04 2.541e-09
 69.64942   -260.6 1.360e+04 2.585e-09
 69.66900   -260.1 1.375e+04 2.704e-09
 69.68858   -259.6 1.394e+04 2.917e-09
 69.70118   -259.1 1.418e+04 3.226e-09
 69.71097   -259.2 1.442e+04 3.121e-09
 69.72774   -258.6 1.466e+04 3.595e-09
 69.74733   -258.0 1.484e+04 4.110e-09
 69.76691   -257.4 1.490e+04 4.492e-09
 69.78649   -256.7 1.492e+04 4.603e-09
 69.80607   -256.0 1.492e+04 4.609e-09
 69.82565   -255.3 1.490e+04 4.591e-09
 69.84523   -254.5 1.480e+04 4.302e-09
 69.86481   -253.6 1.469e+04 3.835e-09
 69.88439   -252.9 1.456e+04 3.239e-09
 69.90397   -252.2 1.440e+04 2.611e-09
 69.92355   -251.8 1.420e+04 2.013e-09
 69.94314   -251.6 1.390e+04 1.501e-09
 69.95539   -251.4 1.345e+04 1.107e-09
 69.96518   -253.3 1.161e+04 5.879e-10
 69.98230   -253.1 1.091e+04 4.801e-10
 70.00188   -252.7 1.045e+04 4.271e-10
 70.02146   -252.1 1.020e+04 4.042e-10
 70.04104   -251.3 1.010e+04 3.959e-10
 70.06062   -250.4 1.009e+04 3.935e-10
 70.08020   -249.4 1.013e+04 3.916e-10
 70.09978   -248.4 1.017e+04 3.899e-10
 70.11602   -247.4 1.021e+04 3.830e-10
 70.12581   -247.3 1.006e+04 3.388e-10
 70.13895   -246.4 1.009e+04 3.281e-10
 70.15853   -245.5 1.010e+04 3.154e-10
 70.17811   -244.6 1.011e+04 3.085e-10
 70.19769   -243.6 1.011e+04 3.073e-10
 70.22716   -242.5 1.014e+04 3.093e-10
 70.26642   -240.4 9.889e+03 2.648e-10
 70.30318   -238.5 9.730e+03 2.379e-10
 70.32277   -238.7 9.379e+03 1.979e-10
 70.34474   -236.6 9.253e+03 1.772e-10
 70.38391   -234.4 9.130e+03 1.567e-10
 70.42307   -232.2 9.020e+03 1.382e-10
 70.46223   -230.0 8.922e+03 1.221e-10
 70.50139   -227.7 8.840e+03 1.088e-10
 70.54055   -225.5 8.777e+03 9.784e-11
 70.57972   -223.2 8.729e+03 8.904e-11
 70.61888   -221.0 8.692e+03 8.188e-11
 70.65804   -218.8 8.664e+03 7.569e-11
 70.69720   -216.6 8.637e+03 6.989e-11
 70.73637   -214.3 8.610e+03 6.414e-11
 70.77553   -212.1 8.574e+03 5.863e-11
 70.81469   -209.8 8.537e+03 5.389e-11
 70.85385   -207.5 8.505e+03 5.042e-11
 70.89301   -205.2 8.485e+03 4.838e-11
 70.93218   -202.9 8.483e+03 4.772e-11
 70.95569   -200.5 8.484e+03 4.763e-11
 70.97527   -200.3 8.532e+03 4.829e-11
 71.01050   -198.0 8.544e+03 4.845e-11
 71.03755   -195.9 8.636e+03 5.214e-11
 71.05713   -196.1 8.673e+03 5.203e-11
 71.08882   -194.0 8.802e+03 5.834e-11
 71.12799   -192.0 8.924e+03 6.753e-11
 71.16715   -190.0 9.043e+03 7.989e-11
 71.20631   -188.1 9.158e+03 9.578e-11
 71.24547   -186.2 9.261e+03 1.159e-10
 71.28464   -184.3 9.359e+03 1.401e-10
 71.32380   -182.2 9.455e+03 1.670e-10
 71.36296   -180.2 9.550e+03 1.934e-10
 71.40212   -178.1 9.657e+03 2.160e-10
 71.44128   -176.0 9.798e+03 2.353e-10
 71.48045   -174.2 1.001e+04 2.604e-10
 71.51961   -172.5 1.030e+04 3.079e-10
 71.55877   -171.2 1.065e+04 3.921e-10
 71.59793   -170.1 1.099e+04 5.103e-10
 71.63710   -169.3 1.126e+04 6.256e-10
 71.67626   -168.7 1.136e+04 6.691e-10
 71.71542   -168.2 1.135e+04 6.758e-10
 71.75234   -167.4 1.125e+04 6.041e-10
 71.77192   -167.7 1.117e+04 4.700e-10
 71.78537   -166.6 1.104e+04 3.416e-10
 71.80496   -166.4 1.132e+04 5.489e-10
 71.83291   -165.2 1.105e+04 4.169e-10
 71.87207   -163.8 1.081e+04 3.243e-10
 71.91123   -162.3 1.067e+04 2.680e-10
 71.95039   -160.8 1.061e+04 2.329e-10
 71.98956   -159.2 1.056e+04 2.056e-10
 72.02872   -157.6 1.049e+04 1.783e-10
 72.06788   -155.9 1.041e+04 1.498e-10
 72.10704   -154.2 1.033e+04 1.241e-10
 72.14620   -152.4 1.026e+04 1.055e-10
 72.18537   -150.7 1.020e+04 9.675e-11
 72.22453   -148.8 1.019e+04 9.528e-11
 72.26369   -147.0 1.019e+04 9.645e-11
 72.30285   -145.3 1.024e+04 1.082e-10
 72.34201   -143.5 1.027e+04 1.301e-10
 72.38118   -141.7 1.031e+04 1.556e-10
 72.42034   -139.9 1.038e+04 1.829e-10
 72.45950   -138.0 1.050e+04 2.104e-10
 72.48671   -136.3 1.065e+04 2.347e-10
 72.50629   -136.7 1.067e+04 2.240e-10
 72.53783   -135.2 1.079e+04 2.352e-10
 72.57699   -133.8 1.083e+04 2.382e-10
 72.61506   -132.3 1.086e+04 2.315e-10
 72.63464   -131.9 1.068e+04 1.735e-10
 72.65531   -130.2 1.069e+04 1.484e-10
 72.69447   -128.6 1.071e+04 1.223e-10
 72.73364   -126.9 1.075e+04 1.043e-10
 72.77280   -125.3 1.080e+04 9.732e-11
 72.81196   -123.7 1.083e+04 9.663e-11
 72.85112   -122.3 1.106e+04 1.020e-10
 72.89029   -121.1 1.118e+04 1.372e-10
 72.92945   -119.6 1.121e+04 1.993e-10
 72.96861   -118.1 1.128e+04 2.834e-10
 73.00777   -116.7 1.145e+04 3.875e-10
 73.04693   -115.3 1.168e+04 5.099e-10
 73.08610   -114.1 1.198e+04 6.377e-10
 73.12526   -113.3 1.227e+04 7.363e-10
 73.16442   -113.0 1.248e+04 7.682e-10
 73.20150   -113.0 1.257e+04 7.670e-10
 73.22108   -113.7 1.274e+04 8.078e-10
 73.24274   -114.2 1.286e+04 7.020e-10
 73.28191   -114.9 1.261e+04 5.860e-10
 73.32107   -115.2 1.232e+04 4.619e-10
 73.36023   -115.4 1.205e+04 3.400e-10
 73.39939   -115.4 1.180e+04 2.416e-10
 73.43856   -115.4 1.166e+04 1.851e-10
 73.46432   -115.4 1.166e+04 1.686e-10
 73.48390   -114.2 1.160e+04 1.728e-10
 73.51688   -114.3 1.161e+04 1.711e-10
 73.55604   -114.6 1.199e+04 2.300e-10
 73.59520   -114.6 1.228e+04 4.542e-10
 73.63437   -114.2 1.260e+04 7.817e-10
 73.67353   -113.7 1.294e+04 1.087e-09
 73.71269   -113.3 1.309e+04 1.275e-09
 73.75185   -113.1 1.309e+04 1.314e-09
 73.78113   -113.5 1.286e+04 1.221e-09
 73.80061   -113.5 1.279e+04 1.206e-09
 73.82019   -113.4 1.275e+04 1.202e-09
 73.83977   -113.4 1.270e+04 1.193e-09
 73.85935   -113.3 1.267e+04 1.191e-09
 73.87893   -113.1 1.263e+04 1.181e-09
 73.89852   -112.3 1.281e+04 1.288e-09
 73.91810   -112.3 1.283e+04 1.245e-09
 73.93567   -112.5 1.288e+04 1.214e-09
 73.94546   -112.9 1.344e+04 1.596e-09
 73.95726   -113.7 1.379e+04 1.776e-09
 73.97684   -114.7 1.426e+04 2.138e-09
 73.99642   -115.6 1.467e+04 2.681e-09
 74.01600   -116.0 1.495e+04 3.315e-09
 74.03558   -116.1 1.509e+04 3.854e-09
 74.05516   -116.0 1.505e+04 4.132e-09
 74.07475   -115.9 1.499e+04 4.175e-09
 74.09433   -115.8 1.466e+04 3.986e-09
 74.11391   -115.9 1.455e+04 3.842e-09
 74.13349   -117.2 1.493e+04 3.840e-09
 74.15307   -120.2 1.681e+04 4.791e-09
 74.17265   -123.0 1.856e+04 8.461e-09
 74.19223   -124.6 1.951e+04 1.531e-08
 74.21181   -125.3 1.992e+04 2.196e-08
 74.23139   -126.1 1.995e+04 2.378e-08
 74.25098   -126.5 1.934e+04 2.173e-08
 74.27056   -126.5 1.830e+04 1.453e-08
 74.29014   -126.6 1.683e+04 7.958e-09
 74.30285   -127.2 1.520e+04 4.250e-09
 74.30653   -127.6 1.504e+04 4.148e-09
 74.31339   -126.7 1.582e+04 6.433e-09
 74.32930   -126.7 1.441e+04 3.636e-09
 74.34888   -126.8 1.323e+04 2.225e-09
 74.36846   -126.4 1.238e+04 1.521e-09
 74.38804   -125.3 1.185e+04 1.143e-09
 74.40762   -124.2 1.155e+04 9.003e-10
 74.42721   -123.0 1.135e+04 7.139e-10
 74.44679   -121.8 1.118e+04 5.744e-10
 74.46637   -120.7 1.104e+04 4.908e-10
 74.49584   -119.0 1.095e+04 4.556e-10
 74.53510   -117.6 1.078e+04 3.924e-10
 74.57426   -115.5 1.054e+04 3.243e-10
 74.61342   -113.4 1.033e+04 2.765e-10
 74.65065   -111.3 1.018e+04 2.448e-10
 74.67023   -111.6 1.020e+04 2.261e-10
 74.69175   -109.5 1.013e+04 2.218e-10
 74.73091   -107.5 1.008e+04 2.204e-10
 74.77007   -105.4 1.003e+04 2.189e-10
 74.80923   -103.2 9.948e+03 2.129e-10
 74.84839   -101.0 9.881e+03 1.977e-10
 74.88756    -98.8 9.830e+03 1.795e-10
 74.92672    -96.6 9.843e+03 1.643e-10
 74.96588    -94.5 9.885e+03 1.585e-10
 75.00504    -92.6 1.001e+04 1.593e-10
 75.04420    -91.1 1.022e+04 1.763e-10
 75.08337    -89.9 1.041e+04 2.079e-10
 75.12253    -89.0 1.060e+04 2.419e-10
 75.14327    -88.3 1.073e+04 2.682e-10
 75.16285    -88.2 1.083e+04 2.916e-10
 75.20085    -87.9 1.095e+04 3.191e-10
 75.24002    -87.6 1.109e+04 3.599e-10
 75.27918    -87.3 1.125e+04 4.097e-10
 75.31834    -87.0 1.133e+04 4.345e-10
 75.35750    -86.8 1.127e+04 4.303e-10
 75.38502    -86.4 1.110e+04 3.999e-10
 75.40460    -86.5 1.105e+04 4.164e-10
 75.43583    -85.6 1.075e+04 3.334e-10
 75.47499    -84.1 1.045e+04 2.481e-10
 75.51415    -82.4 1.023e+04 1.887e-10
 75.55331    -80.7 1.017e+04 1.540e-10
 75.59248    -78.7 1.017e+04 1.336e-10
 75.63164    -76.5 1.019e+04 1.244e-10
 75.67080    -74.2 1.021e+04 1.231e-10
 75.70996    -72.4 1.039e+04 1.266e-10
 75.74912    -71.5 1.101e+04 1.672e-10
 75.78829    -71.4 1.196e+04 4.038e-10
 75.81756    -70.7 1.262e+04 7.017e-10
 75.83704    -71.4 1.372e+04 1.208e-09
 75.85662    -72.7 1.499e+04 1.988e-09
 75.87621    -76.7 1.837e+04 6.523e-09
 75.89084    -78.7 1.978e+04 1.322e-08
 75.90058    -80.3 2.044e+04 2.506e-08
 75.91038    -81.6 2.070e+04 4.834e-08
 75.92017    -82.2 2.090e+04 9.567e-08
 75.92996    -82.7 2.121e+04 1.558e-07
 75.93550    -83.9 2.137e+04 1.906e-07
 75.94040    -84.3 2.118e+04 1.611e-07
 75.94954    -85.5 2.097e+04 1.571e-07
 75.95933    -85.7 2.064e+04 1.065e-07
 75.96912    -85.6 2.066e+04 5.650e-08
 75.97756    -86.6 2.085e+04 2.775e-08
 75.98245    -86.0 2.092e+04 2.581e-08
 75.98870    -88.4 2.038e+04 1.311e-08
 75.99849    -91.0 1.893e+04 8.122e-09
 76.01322    -92.9 1.775e+04 5.888e-09
 76.03285    -96.1 1.488e+04 3.141e-09
 76.05244    -97.6 1.329e+04 2.161e-09
 76.07202    -97.9 1.270e+04 1.898e-09
 76.09160    -97.6 1.245e+04 1.811e-09
 76.10940    -96.6 1.239e+04 1.786e-09
 76.11919    -97.1 1.150e+04 1.244e-09
 76.13076    -96.5 1.136e+04 1.165e-09
 76.15034    -96.0 1.123e+04 1.073e-09
 76.16992    -95.6 1.109e+04 9.805e-10
 76.18950    -95.3 1.100e+04 8.994e-10
 76.20908    -95.1 1.098e+04 8.341e-10
 76.22867    -95.0 1.100e+04 7.820e-10
 76.24825    -95.0 1.104e+04 7.420e-10
 76.26783    -95.1 1.108e+04 7.263e-10
 76.28741    -95.3 1.115e+04 7.231e-10
 76.30699    -95.3 1.131e+04 7.691e-10
 76.32657    -95.2 1.133e+04 8.083e-10
 76.34615    -95.1 1.130e+04 8.194e-10
 76.36573    -95.0 1.119e+04 8.115e-10
 76.38531    -94.8 1.115e+04 8.106e-10
 76.41478    -94.5 1.106e+04 7.806e-10
 76.45404    -94.3 1.100e+04 7.029e-10
 76.49321    -94.5 1.106e+04 6.535e-10
 76.52248    -94.5 1.103e+04 6.634e-10
 76.54196    -95.2 1.130e+04 6.865e-10
 76.56154    -96.0 1.143e+04 7.427e-10
 76.58113    -96.8 1.151e+04 8.013e-10
 76.60071    -97.6 1.151e+04 8.316e-10
 76.62029    -98.5 1.150e+04 8.413e-10
 76.63987    -99.3 1.144e+04 8.410e-10
 76.65945   -100.1 1.133e+04 8.176e-10
 76.68892   -101.2 1.121e+04 7.986e-10
 76.72818   -102.2 1.111e+04 8.085e-10
 76.76734   -102.9 1.139e+04 9.828e-10
 76.79661   -102.7 1.147e+04 1.118e-09
 76.81223   -103.2 1.170e+04 1.273e-09
 76.82202   -102.5 1.102e+04 9.177e-10
 76.83398   -103.0 1.112e+04 9.792e-10
 76.84377   -102.5 1.132e+04 1.056e-09
 76.85526   -103.2 1.150e+04 1.145e-09
 76.87484   -103.8 1.165e+04 1.241e-09
 76.89442   -104.3 1.177e+04 1.352e-09
 76.91400   -104.4 1.191e+04 1.480e-09
 76.93358   -104.4 1.206e+04 1.599e-09
 76.95317   -104.2 1.213e+04 1.650e-09
 76.97275   -103.9 1.213e+04 1.641e-09
 76.99233   -103.6 1.201e+04 1.545e-09
 77.01191   -103.2 1.177e+04 1.381e-09
 77.03149   -102.6 1.148e+04 1.205e-09
 77.05107   -102.0 1.118e+04 1.033e-09
 77.07065   -101.3 1.089e+04 8.645e-10
 77.09023   -100.5 1.059e+04 7.112e-10
 77.10981    -99.6 1.035e+04 5.840e-10
 77.12940    -98.8 1.016e+04 4.888e-10
 77.14898    -98.1 1.003e+04 4.286e-10
 77.16856    -97.5 9.942e+03 3.935e-10
 77.18814    -96.7 9.866e+03 3.672e-10
 77.20117    -96.1 9.829e+03 3.570e-10
 77.21096    -96.4 1.013e+04 4.724e-10
 77.22708    -95.8 1.010e+04 4.659e-10
 77.23687    -95.9 1.023e+04 5.360e-10
 77.24688    -95.2 1.024e+04 5.373e-10
 77.26646    -94.6 1.025e+04 5.436e-10
 77.28604    -93.8 1.025e+04 5.468e-10
 77.30563    -92.8 1.022e+04 5.351e-10
 77.32521    -91.5 1.016e+04 4.921e-10
 77.35468    -90.2 1.009e+04 4.371e-10
 77.39394    -88.7 9.997e+03 3.857e-10
 77.43310    -86.5 9.667e+03 2.929e-10
 77.47226    -84.0 9.330e+03 1.974e-10
 77.51142    -81.6 9.088e+03 1.277e-10
 77.54896    -79.3 8.977e+03 8.696e-11
 77.56854    -79.8 8.785e+03 7.058e-11
 77.58975    -77.5 8.754e+03 5.993e-11
 77.62891    -75.0 8.731e+03 5.646e-11
 77.65190    -72.3 8.725e+03 5.581e-11
 77.67148    -72.6 8.763e+03 6.233e-11
 77.70723    -70.0 8.803e+03 6.340e-11
 77.74640    -67.5 8.882e+03 7.022e-11
 77.78556    -65.0 8.959e+03 8.140e-11
 77.82472    -62.5 9.037e+03 9.724e-11
 77.86388    -60.0 9.122e+03 1.195e-10
 77.90304    -57.5 9.218e+03 1.509e-10
 77.94221    -54.9 9.326e+03 1.909e-10
 77.98137    -52.2 9.450e+03 2.304e-10
 78.02053    -49.6 9.588e+03 2.568e-10
 78.05969    -47.3 9.775e+03 2.851e-10
 78.09885    -45.9 1.018e+04 3.576e-10
 78.13802    -45.4 1.103e+04 5.962e-10
 78.16729    -45.8 1.197e+04 1.092e-09
 78.18677    -46.1 1.277e+04 1.706e-09
 78.20636    -46.6 1.388e+04 2.974e-09
 78.22594    -47.0 1.505e+04 4.909e-09
 78.24552    -47.4 1.609e+04 7.259e-09
 78.26510    -47.9 1.681e+04 9.140e-09
 78.28314    -48.8 1.701e+04 9.660e-09
 78.29293    -48.8 1.705e+04 9.491e-09
 78.30426    -49.4 1.673e+04 8.174e-09
 78.32384    -50.0 1.603e+04 5.767e-09
 78.34342    -50.7 1.518e+04 3.759e-09
 78.36300    -51.4 1.427e+04 2.398e-09
 78.38259    -52.1 1.333e+04 1.575e-09
 78.40217    -52.6 1.241e+04 1.116e-09
 78.42175    -52.8 1.162e+04 8.767e-10
 78.44133    -52.6 1.113e+04 7.498e-10
 78.46091    -52.0 1.099e+04 6.839e-10
 78.48049    -51.2 1.100e+04 6.336e-10
 78.49118    -50.5 1.100e+04 5.867e-10
 78.50107    -53.2 1.046e+04 4.096e-10
 78.52964    -52.0 1.007e+04 3.225e-10
 78.56880    -50.7 9.700e+03 2.548e-10
 78.60796    -49.3 9.507e+03 2.002e-10
 78.64713    -47.8 9.349e+03 1.558e-10
 78.68629    -46.2 9.287e+03 1.238e-10
 78.72545    -44.8 9.376e+03 1.004e-10
 78.76461    -43.6 9.572e+03 8.493e-11
 78.80377    -42.4 9.656e+03 8.086e-11
 78.84294    -41.2 9.639e+03 8.954e-11
 78.88210    -39.7 9.668e+03 1.165e-10
 78.92126    -37.7 9.747e+03 1.451e-10
 78.96042    -35.5 9.911e+03 1.803e-10
 78.99812    -33.4 1.013e+04 2.318e-10
 79.01770    -32.5 1.001e+04 1.974e-10
 79.03875    -30.2 1.026e+04 2.107e-10
 79.07791    -28.2 1.062e+04 2.402e-10
 79.11707    -26.8 1.097e+04 3.210e-10
 79.15623    -25.4 1.106e+04 5.141e-10
 79.19540    -23.8 1.124e+04 7.822e-10
 79.23456    -21.6 1.181e+04 9.477e-10
 79.27372    -20.3 1.233e+04 9.330e-10
 79.30299    -21.4 1.202e+04 5.243e-10
 79.32087    -22.1 1.200e+04 4.702e-10
 79.33066    -21.5 1.284e+04 5.445e-10
 79.34206    -22.3 1.234e+04 5.025e-10
 79.36164    -22.6 1.201e+04 5.073e-10
 79.37490    -22.6 1.185e+04 5.641e-10
 79.38469    -21.7 1.308e+04 1.008e-09
 79.40080    -21.6 1.234e+04 9.628e-10
 79.42038    -20.8 1.214e+04 9.523e-10
 79.43996    -19.7 1.210e+04 9.185e-10
 79.45955    -18.8 1.205e+04 8.611e-10
 79.47913    -18.2 1.212e+04 7.670e-10
 79.49871    -18.0 1.225e+04 6.863e-10
 79.51829    -18.1 1.226e+04 6.488e-10
 79.53787    -18.1 1.235e+04 6.487e-10
 79.55745    -18.1 1.244e+04 7.285e-10
 79.57703    -17.8 1.232e+04 8.719e-10
 79.59661    -16.8 1.230e+04 1.019e-09
 79.62608    -15.2 1.262e+04 1.158e-09
 79.66534    -13.0 1.239e+04 1.238e-09
 79.70450    -10.9 1.215e+04 1.154e-09
 79.73249     -9.2 1.191e+04 1.074e-09
 79.75207     -9.0 1.139e+04 6.788e-10
 79.78283     -7.2 1.123e+04 6.851e-10
 79.82199     -4.9 1.119e+04 8.149e-10
 79.86115     -2.4 1.116e+04 8.964e-10
 79.90031     -0.0 1.115e+04 9.124e-10
 79.93948      2.3 1.117e+04 8.947e-10
 79.97864      4.7 1.096e+04 8.071e-10
 80.01780      6.9 1.067e+04 6.897e-10
 80.05696      8.7 1.055e+04 6.222e-10
 80.09613     10.6 1.058e+04 6.428e-10
 80.13529     11.9 1.079e+04 7.526e-10
 80.16054     13.6 1.127e+04 1.089e-09
 80.18012     13.1 1.172e+04 1.243e-09
 80.21361     14.9 1.244e+04 1.934e-09
 80.24289     15.7 1.280e+04 2.336e-09
 80.26237     16.6 1.307e+04 2.715e-09
 80.28195     17.7 1.331e+04 3.081e-09
 80.30153     18.9 1.318e+04 3.270e-09
 80.32111     20.3 1.303e+04 3.177e-09
 80.34069     21.8 1.281e+04 2.939e-09
 80.37016     23.4 1.236e+04 2.146e-09
 80.40942     25.6 1.171e+04 1.485e-09
 80.44728     27.6 1.117e+04 1.078e-09
 80.46686     27.5 1.100e+04 9.436e-10
 80.48775     29.6 1.067e+04 7.787e-10
 80.52691     32.1 1.054e+04 7.648e-10
 80.56607     34.2 1.056e+04 8.166e-10
 80.60523     36.2 1.095e+04 1.081e-09
 80.63451     37.1 1.106e+04 1.259e-09
 80.65399     38.0 1.125e+04 1.461e-09
 80.67357     39.0 1.148e+04 1.671e-09
 80.69315     40.2 1.169e+04 1.797e-09
 80.72262     41.3 1.192e+04 1.974e-09
 80.76188     43.2 1.168e+04 1.782e-09
 80.80104     45.2 1.118e+04 1.338e-09
 80.82415     46.1 1.078e+04 1.084e-09
 80.83385     45.9 1.093e+04 1.185e-09
 80.84980     46.8 1.071e+04 1.042e-09
 80.86938     47.6 1.053e+04 9.188e-10
 80.88896     48.3 1.033e+04 8.252e-10
 80.90855     49.1 1.013e+04 7.665e-10
 80.92813     50.2 1.010e+04 7.634e-10
 80.94771     51.1 1.013e+04 7.759e-10
 80.96729     52.0 1.019e+04 8.065e-10
 80.98687     53.0 1.030e+04 8.561e-10
 80.99981     53.9 1.046e+04 9.227e-10
 81.00961     53.6 1.012e+04 7.389e-10
 81.02603     54.5 1.022e+04 7.879e-10
 81.04561     55.3 1.037e+04 8.549e-10
 81.06519     56.1 1.055e+04 9.386e-10
 81.08478     56.8 1.073e+04 1.030e-09
 81.10436     57.5 1.094e+04 1.131e-09
 81.12394     58.2 1.117e+04 1.238e-09
 81.14352     58.8 1.144e+04 1.347e-09
 81.16310     59.2 1.184e+04 1.493e-09
 81.18145     59.1 1.233e+04 1.704e-09
 81.19124     59.5 1.222e+04 1.637e-09
 81.20226     59.4 1.257e+04 1.858e-09
 81.22184     58.7 1.326e+04 2.282e-09
 81.24142     57.0 1.431e+04 3.381e-09
 81.26101     55.6 1.509e+04 5.391e-09
 81.28059     55.7 1.573e+04 8.549e-09
 81.30017     56.5 1.631e+04 1.251e-08
 81.31975     57.1 1.663e+04 1.451e-08
 81.33933     57.4 1.652e+04 1.393e-08
 81.35891     57.9 1.605e+04 1.199e-08
 81.37849     58.0 1.554e+04 9.447e-09
 81.39807     57.6 1.491e+04 6.998e-09
 81.41466     56.8 1.412e+04 4.869e-09
 81.42445     55.9 1.374e+04 3.583e-09
 81.43723     55.1 1.284e+04 2.684e-09
 81.45682     54.6 1.218e+04 2.183e-09
 81.47640     54.2 1.211e+04 1.949e-09
 81.49598     53.7 1.228e+04 1.832e-09
 81.51556     53.1 1.262e+04 1.807e-09
 81.53514     52.5 1.303e+04 1.876e-09
 81.54863     52.1 1.320e+04 1.932e-09
 81.55842     51.5 1.474e+04 4.681e-09
 81.57430     52.3 1.445e+04 4.315e-09
 81.59388     53.0 1.412e+04 3.735e-09
 81.61346     53.6 1.379e+04 3.129e-09
 81.63305     54.0 1.350e+04 2.621e-09
 81.65263     54.6 1.326e+04 2.304e-09
 81.67221     55.4 1.316e+04 2.175e-09
 81.69179     56.3 1.325e+04 2.129e-09
 81.71137     57.1 1.331e+04 2.106e-09
 81.73095     58.2 1.338e+04 2.099e-09
 81.75053     59.3 1.359e+04 2.122e-09
 81.77011     60.2 1.389e+04 2.186e-09
 81.78969     61.1 1.411e+04 2.335e-09
 81.80928     62.2 1.441e+04 2.659e-09
 81.82886     63.1 1.499e+04 3.283e-09
 81.83929     63.6 1.559e+04 4.231e-09
 81.84908     63.1 1.494e+04 4.556e-09
 81.86802     63.9 1.564e+04 6.092e-09
 81.88760     65.4 1.613e+04 8.665e-09
 81.90603     66.7 1.668e+04 1.246e-08
 81.91582     67.0 1.551e+04 1.047e-08
 81.92676     68.1 1.609e+04 1.336e-08
 81.94634     69.2 1.650e+04 1.564e-08
 81.96592     70.2 1.675e+04 1.684e-08
 81.98551     71.2 1.710e+04 1.719e-08
 82.00509     72.2 1.744e+04 1.680e-08
 82.02467     72.8 1.809e+04 1.604e-08
 82.04425     72.9 1.858e+04 1.478e-08
 82.06383     72.9 1.881e+04 1.345e-08
 82.08341     72.9 1.865e+04 1.170e-08
 82.10299     72.9 1.811e+04 9.590e-09
 82.12257     73.0 1.731e+04 7.611e-09
 82.14215     73.4 1.647e+04 5.967e-09
 82.16174     73.8 1.577e+04 4.744e-09
 82.18132     74.4 1.524e+04 3.824e-09
 82.20090     75.1 1.487e+04 3.144e-09
 82.22048     75.9 1.463e+04 2.697e-09
 82.24006     76.7 1.441e+04 2.416e-09
 82.25413     77.5 1.429e+04 2.217e-09
 82.26392     77.8 1.323e+04 1.506e-09
 82.27321     78.7 1.322e+04 1.454e-09
 82.28300     79.1 1.189e+04 8.924e-10
 82.29880     80.2 1.173e+04 8.350e-10
 82.31838     81.3 1.153e+04 8.200e-10
 82.33797     82.4 1.154e+04 8.193e-10
 82.35755     83.4 1.171e+04 8.375e-10
 82.37713     84.2 1.232e+04 9.068e-10
 82.39671     84.7 1.381e+04 1.154e-09
 82.41629     85.1 1.599e+04 1.616e-09
 82.43587     85.7 1.799e+04 2.358e-09
 82.45545     86.5 1.916e+04 3.353e-09
 82.47503     87.5 1.958e+04 4.531e-09
 82.49461     88.4 1.956e+04 5.895e-09
 82.51419     89.1 1.926e+04 7.403e-09
 82.53378     89.9 1.887e+04 9.083e-09
 82.55336     90.9 1.856e+04 1.110e-08
 82.57294     91.8 1.826e+04 1.328e-08
 82.59252     92.7 1.796e+04 1.491e-08
 82.61210     93.9 1.774e+04 1.490e-08
 82.63060     95.3 1.738e+04 1.440e-08
 82.64039     95.6 1.719e+04 1.077e-08
 82.65126     96.7 1.699e+04 1.074e-08
 82.66897     97.9 1.656e+04 1.031e-08
 82.67876     98.5 1.681e+04 8.783e-09
 82.69042     99.6 1.637e+04 8.821e-09
 82.71001    100.9 1.612e+04 8.820e-09
 82.72959    102.2 1.610e+04 9.090e-09
 82.74917    103.2 1.620e+04 9.427e-09
 82.76875    104.4 1.622e+04 9.279e-09
 82.78833    105.8 1.621e+04 8.791e-09
 82.80791    107.1 1.618e+04 7.973e-09
 82.82749    108.3 1.620e+04 6.776e-09
 82.84707    109.7 1.623e+04 5.457e-09
 82.86665    110.7 1.610e+04 4.300e-09
 82.88624    110.8 1.572e+04 3.347e-09
 82.90582    111.0 1.501e+04 2.691e-09
 82.92540    111.3 1.431e+04 2.419e-09
 82.94498    112.0 1.418e+04 2.441e-09
 82.96456    112.8 1.416e+04 2.540e-09
 82.98414    113.8 1.420e+04 2.653e-09
 82.99779    114.9 1.424e+04 2.776e-09
 83.00758    114.7 1.337e+04 1.931e-09
 83.02330    115.6 1.344e+04 2.044e-09
 83.04288    116.6 1.351e+04 2.155e-09
 83.06247    117.7 1.358e+04 2.258e-09
 83.08205    118.8 1.370e+04 2.367e-09
 83.09361    119.9 1.383e+04 2.479e-09
 83.10340    119.2 1.367e+04 2.539e-09
 83.12121    120.4 1.359e+04 2.552e-09
 83.14079    121.8 1.357e+04 2.586e-09
 83.16037    123.0 1.362e+04 2.661e-09
 83.17995    124.1 1.369e+04 2.735e-09
 83.19953    125.4 1.381e+04 2.813e-09
 83.21911    126.7 1.401e+04 2.913e-09
 83.23870    127.9 1.431e+04 3.037e-09
 83.25828    129.1 1.464e+04 3.180e-09
 83.27786    130.3 1.506e+04 3.371e-09
 83.29744    131.6 1.556e+04 3.640e-09
 83.31702    132.6 1.608e+04 3.987e-09
 83.33660    133.6 1.658e+04 4.449e-09
 83.35518    134.7 1.708e+04 5.053e-09
 83.36497    134.3 1.545e+04 4.101e-09
 83.37576    135.2 1.580e+04 4.524e-09
 83.39534    136.0 1.606e+04 4.936e-09
 83.41492    136.7 1.630e+04 5.295e-09
 83.43451    137.4 1.654e+04 5.603e-09
 83.45409    137.9 1.673e+04 5.931e-09
 83.47367    138.3 1.670e+04 6.092e-09
 83.49325    138.6 1.669e+04 6.196e-09
 83.50789    138.5 1.632e+04 5.691e-09
 83.51324    138.4 1.635e+04 5.654e-09
 83.51819    137.5 1.426e+04 2.642e-09
 83.53241    137.0 1.504e+04 3.181e-09
 83.54362    136.5 1.579e+04 3.788e-09
 83.54847    136.4 1.518e+04 3.466e-09
 83.55679    136.1 1.540e+04 3.863e-09
 83.56658    135.8 1.574e+04 4.453e-09
 83.57637    135.3 1.619e+04 5.323e-09
 83.58616    134.7 1.666e+04 6.434e-09
 83.59595    134.0 1.710e+04 8.076e-09
 83.60574    133.3 1.751e+04 1.032e-08
 83.61553    132.4 1.779e+04 1.343e-08
 83.62532    131.4 1.788e+04 1.790e-08
 83.63511    131.0 1.796e+04 2.480e-08
 83.64491    131.0 1.833e+04 3.586e-08
 83.65470    131.3 1.906e+04 5.097e-08
 83.66449    131.1 1.979e+04 6.073e-08
 83.67428    129.8 1.986e+04 5.997e-08
 83.68407    129.3 1.952e+04 5.215e-08
 83.69386    129.8 1.878e+04 3.723e-08
 83.70859    131.3 1.783e+04 1.992e-08
 83.72237    131.4 1.581e+04 6.276e-09
 83.73216    130.6 1.591e+04 4.673e-09
 83.74780    128.3 1.286e+04 1.128e-09
 83.77727    122.2 1.066e+04 2.532e-10
 83.81653    119.2 8.368e+03 1.529e-10
 83.85569    119.3 8.092e+03 1.456e-10
 83.89486    120.0 8.052e+03 1.452e-10
 83.93402    121.2 8.131e+03 1.514e-10
 83.96329    121.7 8.221e+03 1.591e-10
 83.98278    122.1 8.296e+03 1.650e-10
 84.00236    122.4 8.377e+03 1.712e-10
 84.02194    122.8 8.430e+03 1.759e-10
 84.04152    123.2 8.502e+03 1.824e-10
 84.06110    123.5 8.597e+03 1.933e-10
 84.07976    123.8 8.730e+03 2.116e-10
 84.08955    124.6 8.735e+03 2.265e-10
 84.10026    124.9 8.903e+03 2.483e-10
 84.11984    125.3 9.067e+03 2.835e-10
 84.13943    125.8 9.357e+03 3.343e-10
 84.15901    126.3 1.004e+04 4.353e-10
 84.17859    126.8 1.100e+04 6.291e-10
 84.19817    127.4 1.203e+04 9.582e-10
 84.21775    128.0 1.298e+04 1.481e-09
 84.23733    129.0 1.389e+04 2.306e-09
 84.25691    130.2 1.489e+04 3.629e-09
 84.27649    130.7 1.575e+04 4.942e-09
 84.29113    131.1 1.623e+04 5.557e-09
 84.30087    131.5 1.685e+04 6.397e-09
 84.31066    131.7 1.766e+04 7.828e-09
 84.32045    131.9 1.840e+04 9.792e-09
 84.33024    132.1 1.902e+04 1.211e-08
 84.34003    132.3 1.954e+04 1.463e-08
 84.34782    132.7 2.001e+04 1.738e-08
 84.35272    132.3 1.773e+04 1.074e-08
 84.35961    132.7 1.819e+04 1.292e-08
 84.36941    132.9 1.875e+04 1.537e-08
 84.37920    133.1 1.931e+04 1.815e-08
 84.38899    133.2 2.000e+04 2.169e-08
 84.39878    133.4 2.070e+04 2.548e-08
 84.40857    133.6 2.163e+04 2.634e-08
 84.41836    133.6 2.196e+04 2.597e-08
 84.42815    133.6 2.208e+04 2.541e-08
 84.43794    133.4 2.235e+04 2.370e-08
 84.44685    132.9 2.253e+04 2.123e-08
 84.45174    133.9 2.382e+04 3.237e-08
 84.45752    133.2 2.447e+04 2.955e-08
 84.46731    132.0 2.494e+04 2.465e-08
 84.47710    130.6 2.444e+04 1.974e-08
 84.48689    128.8 2.335e+04 1.525e-08
 84.49668    127.2 2.203e+04 1.245e-08
 84.51142    126.1 2.104e+04 8.906e-09
 84.53105    123.1 1.773e+04 5.569e-09
 84.55063    121.0 1.504e+04 3.926e-09
 84.57021    120.6 1.381e+04 3.159e-09
 84.58979    120.6 1.343e+04 2.728e-09
 84.60937    121.0 1.317e+04 2.394e-09
 84.62895    121.5 1.285e+04 2.098e-09
 84.64853    122.0 1.253e+04 1.855e-09
 84.66811    122.4 1.227e+04 1.670e-09
 84.68770    122.7 1.206e+04 1.524e-09
 84.70728    123.1 1.185e+04 1.394e-09
 84.72686    123.5 1.166e+04 1.261e-09
 84.74644    123.8 1.148e+04 1.130e-09
 84.76276    124.3 1.125e+04 9.673e-10
 84.77255    123.8 1.141e+04 1.053e-09
 84.79464    124.6 1.088e+04 7.332e-10
 84.81423    124.9 1.105e+04 8.696e-10
 84.82476    125.5 1.076e+04 7.277e-10
 84.84434    126.0 1.050e+04 6.250e-10
 84.86393    126.7 1.023e+04 5.223e-10
 84.88351    127.1 9.961e+03 4.381e-10
 84.91298    128.6 9.869e+03 4.084e-10
 84.95224    129.9 9.637e+03 3.468e-10
 84.99140    131.3 9.527e+03 3.153e-10
 85.03056    132.7 9.458e+03 2.935e-10
 85.06972    133.8 9.426e+03 2.747e-10
 85.10888    134.2 9.435e+03 2.537e-10
 85.14805    134.1 9.460e+03 2.251e-10
 85.17780    133.5 9.480e+03 1.874e-10
 85.19738    130.6 9.752e+03 2.486e-10
 85.22637    130.3 9.758e+03 2.588e-10
 85.26553    130.4 9.694e+03 2.516e-10
 85.30470    130.9 9.605e+03 2.234e-10
 85.34386    131.7 9.521e+03 2.029e-10
 85.38302    132.8 9.512e+03 2.025e-10
 85.42218    134.1 9.528e+03 2.096e-10
 85.46134    135.4 9.628e+03 2.396e-10
 85.50051    136.8 9.906e+03 2.938e-10
 85.52911    138.0 1.029e+04 3.627e-10
 85.54869    137.4 1.035e+04 3.750e-10
 85.57883    138.0 1.061e+04 3.930e-10
 85.61799    138.3 1.063e+04 3.891e-10
 85.65715    138.3 1.059e+04 3.776e-10
 85.69632    138.1 1.048e+04 3.771e-10
 85.72559    137.6 1.044e+04 3.845e-10
 85.74507    137.3 1.040e+04 3.984e-10
 85.76466    137.3 1.046e+04 4.484e-10
 85.78424    137.3 1.056e+04 4.958e-10
 85.80382    137.2 1.074e+04 5.441e-10
 85.82340    137.1 1.077e+04 5.498e-10
 85.84298    137.0 1.081e+04 5.553e-10
 85.86256    137.0 1.081e+04 5.540e-10
 85.88214    136.9 1.075e+04 5.236e-10
 85.89610    136.9 1.067e+04 4.900e-10
 85.90589    136.8 1.054e+04 4.639e-10
 85.93119    137.2 1.054e+04 4.235e-10
 85.97045    137.3 1.019e+04 2.908e-10
 86.00748    137.2 9.828e+03 1.932e-10
 86.02706    136.1 9.613e+03 1.652e-10
 86.04878    136.1 9.650e+03 1.662e-10
 86.08794    136.3 9.726e+03 1.829e-10
 86.12710    136.7 9.904e+03 2.377e-10
 86.16626    137.4 1.012e+04 3.101e-10
 86.20543    138.2 1.027e+04 3.682e-10
 86.24390    139.0 1.027e+04 3.595e-10
 86.26348    138.7 1.030e+04 3.516e-10
 86.28375    139.5 1.021e+04 2.889e-10
 86.32291    140.3 1.009e+04 2.104e-10
 86.36207    141.0 9.970e+03 1.467e-10
 86.40124    141.7 9.841e+03 1.104e-10
 86.44040    142.4 9.822e+03 1.033e-10
 86.47956    143.2 9.834e+03 1.073e-10
 86.51872    144.1 9.932e+03 1.240e-10
 86.55788    145.0 1.006e+04 1.501e-10
 86.59705    145.7 1.026e+04 1.777e-10
 86.63621    146.2 1.048e+04 1.873e-10
 86.67537    146.4 1.053e+04 1.859e-10
 86.71453    146.5 1.061e+04 1.757e-10
 86.75370    146.8 1.065e+04 1.574e-10
 86.79286    147.1 1.054e+04 1.449e-10
 86.83202    147.7 1.035e+04 1.427e-10
 86.85675    148.4 1.027e+04 1.439e-10
 86.87633    148.4 1.038e+04 1.643e-10
 86.91034    149.2 1.029e+04 1.642e-10
 86.94951    150.0 1.024e+04 1.662e-10
 86.97827    150.7 1.019e+04 1.671e-10
 86.99785    151.1 1.037e+04 2.049e-10
 87.02783    151.7 1.034e+04 2.026e-10
 87.06699    152.4 1.026e+04 1.926e-10
 87.10616    153.2 1.013e+04 1.701e-10
 87.14532    154.2 9.980e+03 1.419e-10
 87.18448    155.3 9.836e+03 1.155e-10
 87.22364    156.6 9.732e+03 9.418e-11
 87.26280    158.0 9.675e+03 7.864e-11
 87.30197    159.4 9.644e+03 6.823e-11
 87.34113    160.9 9.617e+03 6.155e-11
 87.38029    162.5 9.553e+03 5.783e-11
 87.41945    164.1 9.473e+03 5.663e-11
 87.45861    165.8 9.456e+03 5.733e-11
 87.49778    167.6 9.425e+03 6.003e-11
 87.53694    169.4 9.394e+03 6.581e-11
 87.57610    171.2 9.376e+03 7.470e-11
 87.61526    173.1 9.378e+03 8.648e-11
 87.65443    175.0 9.393e+03 1.008e-10
 87.68643    176.9 9.429e+03 1.166e-10
 87.70548    177.0 9.467e+03 1.178e-10
 87.71264    177.2 9.462e+03 8.448e-11
 87.73275    179.1 9.476e+03 9.183e-11
 87.77191    181.0 9.495e+03 9.973e-11
 87.81107    182.9 9.511e+03 1.074e-10
 87.85024    184.8 9.509e+03 1.141e-10
 87.88940    186.7 9.500e+03 1.200e-10
 87.92856    188.5 9.492e+03 1.254e-10
 87.96772    190.3 9.474e+03 1.303e-10
 88.00689    192.1 9.449e+03 1.347e-10
 88.04605    193.8 9.405e+03 1.393e-10
 88.08521    195.6 9.360e+03 1.463e-10
 88.12437    197.4 9.340e+03 1.580e-10
 88.16353    199.3 9.354e+03 1.757e-10
 88.20270    201.2 9.397e+03 1.975e-10
 88.24186    203.1 9.465e+03 2.211e-10
 88.28102    204.9 9.550e+03 2.446e-10
 88.32018    206.6 9.622e+03 2.640e-10
 88.35935    208.2 9.675e+03 2.775e-10
 88.39851    209.7 9.730e+03 2.878e-10
 88.42742    210.7 9.795e+03 3.001e-10
 88.44700    210.7 1.022e+04 4.368e-10
 88.47683    211.8 1.028e+04 4.629e-10
 88.50611    212.1 1.026e+04 4.630e-10
 88.52559    212.3 1.023e+04 4.520e-10
 88.53550    212.7 1.020e+04 4.493e-10
 88.55518    212.9 1.010e+04 4.008e-10
 88.59432    213.6 1.011e+04 4.061e-10
 88.63348    214.4 1.008e+04 4.005e-10
 88.67264    215.3 9.968e+03 3.770e-10
 88.71180    216.4 9.826e+03 3.444e-10
 88.75097    217.6 9.685e+03 3.156e-10
 88.79013    218.9 9.596e+03 3.018e-10
 88.82929    220.3 9.591e+03 3.022e-10
 88.86845    221.7 9.624e+03 3.139e-10
 88.90762    223.0 9.710e+03 3.466e-10
 88.94678    223.6 9.764e+03 3.862e-10
 88.97605    224.2 9.817e+03 4.253e-10
 88.99554    225.4 9.970e+03 4.971e-10
 89.01512    226.6 1.021e+04 6.089e-10
 89.03470    227.6 1.047e+04 7.381e-10
 89.05428    228.3 1.070e+04 8.743e-10
 89.07386    229.0 1.093e+04 1.018e-09
 89.09344    229.7 1.118e+04 1.185e-09
 89.11302    230.4 1.150e+04 1.402e-09
 89.13260    231.0 1.190e+04 1.687e-09
 89.15181    231.3 1.235e+04 2.050e-09
 89.16160    231.6 1.218e+04 1.648e-09
 89.17176    231.6 1.266e+04 2.013e-09
 89.19135    231.6 1.320e+04 2.509e-09
 89.21093    231.5 1.382e+04 3.185e-09
 89.23051    231.4 1.451e+04 4.077e-09
 89.25009    231.2 1.520e+04 5.114e-09
 89.26967    231.0 1.569e+04 5.822e-09
 89.28925    230.5 1.578e+04 5.848e-09
 89.30883    229.9 1.578e+04 5.661e-09
 89.32841    229.2 1.561e+04 4.997e-09
 89.34799    228.6 1.520e+04 4.037e-09
 89.36519    227.7 1.461e+04 3.144e-09
 89.37498    226.9 1.415e+04 2.680e-09
 89.38716    226.0 1.346e+04 2.304e-09
 89.40674    225.0 1.326e+04 2.284e-09
 89.42632    224.3 1.322e+04 2.304e-09
 89.44590    223.6 1.313e+04 2.448e-09
 89.46548    223.1 1.320e+04 2.766e-09
 89.48506    222.7 1.342e+04 3.203e-09
 89.50464    222.5 1.376e+04 3.763e-09
 89.51899    222.3 1.421e+04 4.455e-09
 89.52878    222.6 1.396e+04 4.152e-09
 89.54381    222.3 1.436e+04 4.888e-09
 89.56339    221.9 1.487e+04 5.916e-09
 89.58297    221.7 1.552e+04 7.407e-09
 89.60255    221.4 1.631e+04 9.533e-09
 89.62213    221.0 1.715e+04 1.168e-08
 89.64171    219.9 1.754e+04 1.219e-08
 89.66129    218.2 1.752e+04 1.196e-08
 89.68087    216.7 1.731e+04 1.040e-08
 89.70045    215.6 1.672e+04 6.926e-09
 89.72004    214.2 1.569e+04 3.701e-09
 89.73962    212.2 1.425e+04 1.877e-09
 89.75920    210.2 1.296e+04 1.061e-09
 89.77878    208.8 1.226e+04 7.974e-10
 89.78982    207.3 1.162e+04 6.572e-10
 89.79961    207.7 1.164e+04 6.645e-10
 89.81794    207.2 1.123e+04 5.887e-10
 89.83752    206.9 1.086e+04 5.375e-10
 89.85710    206.6 1.059e+04 5.079e-10
 89.87638    206.7 1.049e+04 5.069e-10
 89.88617    207.8 1.046e+04 4.330e-10
 89.89627    207.9 1.036e+04 4.324e-10
 89.91585    208.0 1.036e+04 4.371e-10
 89.93543    208.2 1.037e+04 4.563e-10
 89.95501    208.4 1.044e+04 4.970e-10
 89.97459    208.6 1.059e+04 5.759e-10
 89.99417    209.0 1.078e+04 6.641e-10
 90.01375    209.3 1.093e+04 7.265e-10
 90.03333    209.6 1.105e+04 7.736e-10
 90.05291    209.6 1.108e+04 7.753e-10
 90.08238    209.9 1.099e+04 7.207e-10
 90.12164    210.7 1.075e+04 6.107e-10
 90.16081    211.8 1.040e+04 4.832e-10
 90.19506    213.1 1.005e+04 3.773e-10
 90.21465    213.4 9.967e+03 3.432e-10
 90.23913    214.8 9.604e+03 2.664e-10
 90.27829    216.4 9.385e+03 2.380e-10
 90.31745    218.2 9.364e+03 2.377e-10
 90.35662    220.1 9.361e+03 2.399e-10
 90.39578    221.9 9.376e+03 2.496e-10
 90.43494    223.6 9.433e+03 2.679e-10
 90.47410    225.3 9.517e+03 2.876e-10
 90.51326    226.9 9.586e+03 2.949e-10
 90.55243    228.3 9.590e+03 2.947e-10
 90.59137    229.7 9.591e+03 2.917e-10
 90.61095    231.2 9.971e+03 3.947e-10
 90.63075    232.5 9.979e+03 3.801e-10
 90.66991    233.7 9.949e+03 3.582e-10
 90.70908    234.9 9.887e+03 3.356e-10
 90.74824    236.2 9.887e+03 3.330e-10
 90.78740    237.5 9.923e+03 3.386e-10
 90.82656    238.7 1.001e+04 3.572e-10
 90.86572    239.4 1.008e+04 3.797e-10
 90.89500    239.8 1.014e+04 3.995e-10
 90.91448    240.4 1.029e+04 4.423e-10
 90.93406    240.9 1.057e+04 5.284e-10
 90.95364    240.9 1.080e+04 6.121e-10
 90.96815    240.9 1.116e+04 7.528e-10
 90.97794    241.3 1.108e+04 7.258e-10
 90.99281    241.3 1.137e+04 8.548e-10
 91.01239    241.2 1.176e+04 1.046e-09
 91.03197    241.1 1.203e+04 1.204e-09
 91.04413    241.0 1.228e+04 1.379e-09
 91.06381    241.2 1.193e+04 1.193e-09
 91.10070    241.5 1.191e+04 1.218e-09
 91.13986    241.5 1.186e+04 1.196e-09
 91.17902    241.9 1.167e+04 1.067e-09
 91.21818    242.3 1.142e+04 8.899e-10
 91.25735    242.8 1.112e+04 7.159e-10
 91.29651    243.4 1.082e+04 5.826e-10
 91.32573    244.3 1.055e+04 4.916e-10
 91.34532    245.0 1.113e+04 7.555e-10
 91.37483    246.0 1.090e+04 6.647e-10
 91.40411    246.1 1.077e+04 6.228e-10
 91.42359    246.3 1.069e+04 5.941e-10
 91.44317    246.7 1.061e+04 5.896e-10
 91.45898    247.2 1.061e+04 5.945e-10
 91.46877    247.6 1.065e+04 6.234e-10
 91.48233    248.2 1.069e+04 6.459e-10
 91.50191    248.9 1.076e+04 6.750e-10
 91.52150    249.5 1.085e+04 7.072e-10
 91.54108    250.1 1.093e+04 7.334e-10
 91.56066    250.6 1.097e+04 7.397e-10
 91.58024    251.0 1.096e+04 7.386e-10
 91.59982    251.4 1.094e+04 7.310e-10
 91.61940    251.8 1.090e+04 7.096e-10
 91.63898    252.2 1.083e+04 6.743e-10
 91.65856    252.7 1.074e+04 6.354e-10
 91.67814    253.2 1.065e+04 5.744e-10
 91.69272    253.5 1.058e+04 5.308e-10
 91.70251    254.2 1.059e+04 5.731e-10
 91.71731    254.9 1.052e+04 5.286e-10
 91.73689    255.6 1.046e+04 4.916e-10
 91.75647    256.3 1.045e+04 4.618e-10
 91.77605    257.1 1.045e+04 4.409e-10
 91.80552    257.9 1.041e+04 3.871e-10
 91.84478    259.7 1.044e+04 3.671e-10
 91.87401    261.3 1.047e+04 3.565e-10
 91.89350    262.6 1.074e+04 4.264e-10
 91.91312    263.5 1.073e+04 4.176e-10
 91.93270    264.4 1.068e+04 4.075e-10
 91.95228    265.2 1.061e+04 3.984e-10
 91.97186    266.1 1.056e+04 3.964e-10
 91.99144    266.8 1.055e+04 4.006e-10
 92.01102    267.4 1.057e+04 4.168e-10
 92.03060    267.8 1.065e+04 4.407e-10
 92.05012    268.1 1.075e+04 4.668e-10
 92.06970    269.3 1.086e+04 4.970e-10
 92.08935    269.4 1.092e+04 5.125e-10
 92.10893    269.5 1.103e+04 5.322e-10
 92.12851    269.5 1.119e+04 5.660e-10
 92.14809    269.4 1.138e+04 6.145e-10
 92.16767    269.2 1.157e+04 6.751e-10
 92.18725    268.8 1.174e+04 7.435e-10
 92.20683    268.4 1.186e+04 8.208e-10
 92.22641    268.3 1.199e+04 9.043e-10
 92.24600    268.2 1.210e+04 9.873e-10
 92.26558    268.3 1.219e+04 1.061e-09
 92.28516    268.4 1.226e+04 1.112e-09
 92.29845    268.6 1.229e+04 1.144e-09
 92.30824    267.9 1.279e+04 1.533e-09
 92.32432    268.2 1.274e+04 1.469e-09
 92.34390    268.7 1.267e+04 1.371e-09
 92.36348    269.1 1.259e+04 1.264e-09
 92.38306    269.6 1.251e+04 1.167e-09
 92.40264    270.1 1.244e+04 1.103e-09
 92.41730    270.6 1.243e+04 1.101e-09
 92.42709    270.2 1.230e+04 9.856e-10
 92.44181    270.7 1.223e+04 9.736e-10
 92.46139    271.1 1.225e+04 9.838e-10
 92.48097    271.4 1.236e+04 1.028e-09
 92.51044    272.9 1.272e+04 1.207e-09
 92.54970    273.7 1.291e+04 1.279e-09
 92.58886    274.9 1.307e+04 1.321e-09
 92.61813    274.8 1.290e+04 1.163e-09
 92.63762    275.0 1.269e+04 1.026e-09
 92.65720    275.2 1.264e+04 9.812e-10
 92.67678    275.2 1.259e+04 9.654e-10
 92.69636    275.1 1.257e+04 9.647e-10
 92.71329    275.0 1.250e+04 9.662e-10
 92.72318    274.5 1.235e+04 9.330e-10
 92.74551    274.5 1.237e+04 9.726e-10
 92.77489    274.4 1.238e+04 9.822e-10
 92.79447    274.3 1.187e+04 7.504e-10
 92.82383    274.6 1.175e+04 7.001e-10
 92.86300    275.2 1.153e+04 5.944e-10
 92.90216    276.1 1.123e+04 4.722e-10
 92.94132    277.2 1.094e+04 3.711e-10
 92.98048    278.6 1.071e+04 3.206e-10
 93.01964    280.5 1.069e+04 3.182e-10
 93.05881    282.7 1.071e+04 3.229e-10
 93.09797    284.8 1.068e+04 3.253e-10
 93.13713    286.5 1.067e+04 3.403e-10
 93.17629    288.3 1.074e+04 3.745e-10
 93.21546    289.3 1.081e+04 4.068e-10
 93.24473    290.2 1.080e+04 4.106e-10
 93.26421    290.9 1.083e+04 4.214e-10
 93.28379    291.5 1.086e+04 4.353e-10
 93.30337    292.1 1.088e+04 4.464e-10
 93.32296    292.9 1.090e+04 4.583e-10
 93.34254    293.6 1.093e+04 4.682e-10
 93.36212    294.0 1.093e+04 4.667e-10
 93.38170    294.1 1.093e+04 4.629e-10
 93.40128    294.5 1.091e+04 4.516e-10
 93.42086    294.6 1.089e+04 4.383e-10
 93.44044    294.9 1.085e+04 4.184e-10
 93.46002    295.2 1.081e+04 4.028e-10
 93.47960    295.6 1.077e+04 3.856e-10
 93.49919    296.0 1.074e+04 3.720e-10
 93.51877    296.8 1.073e+04 3.743e-10
 93.53835    297.1 1.069e+04 3.576e-10
 93.55286    298.2 1.080e+04 3.746e-10
 93.57254    298.7 1.043e+04 3.143e-10
 93.60708    300.1 1.034e+04 2.998e-10
 93.64624    301.5 1.025e+04 2.882e-10
 93.68540    302.9 1.018e+04 2.803e-10
 93.72456    304.4 1.017e+04 2.808e-10
 93.76373    306.0 1.016e+04 2.850e-10
 93.80289    307.5 1.017e+04 2.941e-10
 93.84205    309.0 1.024e+04 3.111e-10
 93.88121    310.7 1.035e+04 3.383e-10
 93.92037    311.8 1.039e+04 3.676e-10
 93.94965    312.6 1.040e+04 3.881e-10
 93.96761    313.6 1.044e+04 4.253e-10
 93.97740    313.1 1.041e+04 4.073e-10
 93.98871    313.9 1.046e+04 4.430e-10
 94.00829    314.9 1.053e+04 4.948e-10
 94.02787    315.8 1.063e+04 5.549e-10
 94.04746    316.4 1.075e+04 6.124e-10
 94.06704    316.9 1.085e+04 6.630e-10
 94.08662    317.3 1.093e+04 7.063e-10
 94.10620    317.7 1.098e+04 7.430e-10
 94.12578    318.1 1.101e+04 7.741e-10
 94.14536    318.5 1.102e+04 8.008e-10
 94.16494    319.0 1.102e+04 8.245e-10
 94.18452    319.5 1.103e+04 8.470e-10
 94.20410    320.0 1.104e+04 8.677e-10
 94.22369    320.6 1.106e+04 8.819e-10
 94.23364    321.2 1.109e+04 8.908e-10
 94.24343    321.4 1.116e+04 9.062e-10
 94.26285    321.9 1.118e+04 9.146e-10
 94.28243    322.4 1.121e+04 9.174e-10
 94.30201    322.9 1.124e+04 9.007e-10
 94.32159    323.3 1.131e+04 8.717e-10
 94.34117    323.6 1.142e+04 8.520e-10
 94.36075    323.7 1.159e+04 8.507e-10
 94.38033    323.7 1.175e+04 8.668e-10
 94.39224    323.7 1.192e+04 8.861e-10
 94.40203    324.0 1.102e+04 6.053e-10
 94.41950    324.0 1.113e+04 6.222e-10
 94.43908    324.1 1.122e+04 6.458e-10
 94.45866    324.3 1.129e+04 6.679e-10
 94.47824    324.7 1.132e+04 6.765e-10
 94.49782    325.1 1.131e+04 6.739e-10
 94.51740    325.7 1.124e+04 6.556e-10
 94.53698    326.5 1.114e+04 6.201e-10
 94.55656    327.2 1.107e+04 5.834e-10
 94.57615    328.0 1.111e+04 5.659e-10
 94.59103    328.8 1.113e+04 5.657e-10
 94.60082    328.7 1.121e+04 6.114e-10
 94.61531    329.4 1.126e+04 6.158e-10
 94.63489    330.1 1.139e+04 6.408e-10
 94.65447    330.6 1.158e+04 7.044e-10
 94.67405    331.0 1.181e+04 8.110e-10
 94.69363    331.5 1.210e+04 9.661e-10
 94.71321    331.8 1.246e+04 1.174e-09
 94.73279    331.8 1.283e+04 1.448e-09
 94.75238    331.7 1.339e+04 1.906e-09
 94.77196    331.2 1.416e+04 2.686e-09
 94.79154    330.4 1.513e+04 3.925e-09
 94.80617    329.9 1.565e+04 4.705e-09
 94.81188    329.7 1.614e+04 5.487e-09
 94.81678    330.2 1.595e+04 5.660e-09
 94.82571    329.7 1.651e+04 6.703e-09
 94.83550    329.1 1.717e+04 8.192e-09
 94.84529    328.4 1.786e+04 1.025e-08
 94.85508    327.6 1.861e+04 1.297e-08
 94.86487    326.7 1.936e+04 1.624e-08
 94.87466    325.7 2.007e+04 1.989e-08
 94.88445    324.5 2.070e+04 2.311e-08
 94.89424    322.9 2.114e+04 2.398e-08
 94.90403    321.1 2.115e+04 2.390e-08
 94.91382    319.2 2.110e+04 2.344e-08
 94.92856    317.7 2.065e+04 1.914e-08
 94.94819    315.4 1.995e+04 1.302e-08
 94.95822    313.5 1.835e+04 6.230e-09
 94.96801    312.1 1.824e+04 6.390e-09
 94.98735    310.4 1.521e+04 2.327e-09
 95.00693    307.7 1.157e+04 7.940e-10
 95.02651    305.1 1.097e+04 5.638e-10
 95.04609    304.7 1.084e+04 5.496e-10
 95.06567    304.9 1.080e+04 5.486e-10
 95.08525    305.4 1.079e+04 5.516e-10
 95.10483    306.3 1.078e+04 5.768e-10
 95.12442    307.2 1.088e+04 6.566e-10
 95.14400    308.1 1.110e+04 7.907e-10
 95.16358    309.0 1.134e+04 9.687e-10
 95.18316    309.9 1.159e+04 1.166e-09
 95.20274    310.9 1.182e+04 1.358e-09
 95.22192    311.9 1.202e+04 1.535e-09
 95.23171    311.5 1.192e+04 1.385e-09
 95.24190    312.4 1.192e+04 1.368e-09
 95.26148    313.2 1.192e+04 1.302e-09
 95.28106    313.9 1.186e+04 1.197e-09
 95.30065    314.5 1.174e+04 1.092e-09
 95.31561    315.0 1.169e+04 1.037e-09
 95.32540    314.5 1.189e+04 1.062e-09
 95.33981    314.6 1.190e+04 1.065e-09
 95.35939    314.5 1.197e+04 1.096e-09
 95.37897    314.2 1.224e+04 1.241e-09
 95.39855    313.5 1.286e+04 1.627e-09
 95.41813    312.6 1.383e+04 2.398e-09
 95.43771    311.6 1.507e+04 3.771e-09
 95.45729    310.6 1.640e+04 5.922e-09
 95.47688    309.3 1.766e+04 8.569e-09
 95.49646    307.6 1.879e+04 1.035e-08
 95.51604    304.9 1.914e+04 1.031e-08
 95.53562    301.4 1.927e+04 9.349e-09
 95.55520    297.3 1.900e+04 7.243e-09
 95.57478    292.7 1.809e+04 5.228e-09
 95.59436    288.2 1.668e+04 4.017e-09
 95.61394    284.4 1.539e+04 3.495e-09
 95.63352    281.8 1.464e+04 3.249e-09
 95.64656    280.3 1.426e+04 3.052e-09
 95.65635    280.0 1.448e+04 3.316e-09
 95.67269    279.5 1.399e+04 2.762e-09
 95.68280    279.3 1.356e+04 2.136e-09
 95.69259    277.9 1.335e+04 1.821e-09
 95.71185    277.5 1.270e+04 1.155e-09
 95.73143    277.3 1.202e+04 7.682e-10
 95.76090    277.2 1.112e+04 4.557e-10
 95.80016    276.9 1.001e+04 2.976e-10
 95.83932    277.2 9.841e+03 2.854e-10
 95.87848    278.5 9.839e+03 2.852e-10
 95.91765    279.7 9.880e+03 2.900e-10
 95.95681    280.3 9.978e+03 3.076e-10
 95.98608    281.0 1.006e+04 3.394e-10
 96.00556    281.8 1.014e+04 3.706e-10
 96.03503    282.2 1.073e+04 5.500e-10
 96.06159    282.3 1.133e+04 8.319e-10
 96.08117    283.0 1.066e+04 5.758e-10
 96.11346    282.8 1.113e+04 7.580e-10
 96.15262    282.4 1.142e+04 8.424e-10
 96.19178    281.8 1.143e+04 8.391e-10
 96.23094    281.7 1.137e+04 8.000e-10
 96.27010    281.9 1.116e+04 6.997e-10
 96.30927    282.7 1.086e+04 5.833e-10
 96.34843    283.9 1.057e+04 4.896e-10
 96.38759    285.3 1.037e+04 4.316e-10
 96.40757    287.0 1.028e+04 4.023e-10
 96.42715    286.4 1.050e+04 4.659e-10
 96.46592    288.1 1.044e+04 4.380e-10
 96.50508    289.9 1.038e+04 4.100e-10
 96.54424    291.6 1.039e+04 3.972e-10
 96.58340    293.1 1.040e+04 3.980e-10
 96.62256    294.1 1.047e+04 4.061e-10
 96.66173    295.2 1.056e+04 4.241e-10
 96.70089    296.6 1.083e+04 4.785e-10
 96.73016    296.8 1.096e+04 5.183e-10
 96.74965    297.3 1.105e+04 5.445e-10
 96.76477    297.8 1.111e+04 5.662e-10
 96.77456    297.2 1.138e+04 6.303e-10
 96.78881    297.4 1.152e+04 6.818e-10
 96.80839    297.4 1.166e+04 7.393e-10
 96.82797    297.2 1.187e+04 8.339e-10
 96.84755    296.9 1.219e+04 9.922e-10
 96.86713    296.4 1.265e+04 1.262e-09
 96.88671    295.7 1.320e+04 1.654e-09
 96.90087    294.9 1.369e+04 2.064e-09
 96.91066    296.4 1.372e+04 2.035e-09
 96.92588    295.3 1.410e+04 2.337e-09
 96.94546    293.9 1.415e+04 2.349e-09
 96.96504    292.4 1.408e+04 2.290e-09
 96.98462    290.9 1.385e+04 2.073e-09
 97.00420    289.5 1.360e+04 1.774e-09
 97.02378    287.8 1.345e+04 1.469e-09
 97.04336    285.7 1.334e+04 1.223e-09
 97.06294    283.5 1.314e+04 1.038e-09
 97.08252    281.3 1.283e+04 8.986e-10
 97.10211    279.2 1.245e+04 7.966e-10
 97.12169    277.3 1.208e+04 7.263e-10
 97.13195    275.6 1.179e+04 6.839e-10
 97.14174    275.0 1.168e+04 7.028e-10
 97.16085    273.6 1.163e+04 7.008e-10
 97.18043    272.4 1.163e+04 7.040e-10
 97.20001    271.2 1.167e+04 7.209e-10
 97.21959    269.9 1.179e+04 7.560e-10
 97.23917    268.5 1.192e+04 7.923e-10
 97.25875    267.1 1.197e+04 8.007e-10
 97.27834    265.6 1.196e+04 7.964e-10
 97.29792    264.3 1.187e+04 7.704e-10
 97.31571    263.1 1.166e+04 6.840e-10
 97.32551    262.9 1.171e+04 6.928e-10
 97.33708    262.1 1.143e+04 5.922e-10
 97.35666    261.2 1.118e+04 4.944e-10
 97.37624    260.4 1.100e+04 4.257e-10
 97.39582    259.6 1.085e+04 3.732e-10
 97.41540    258.9 1.072e+04 3.452e-10
 97.43498    258.4 1.058e+04 3.354e-10
 97.45457    258.1 1.056e+04 3.355e-10
 97.47415    258.0 1.056e+04 3.360e-10
 97.48935    257.9 1.056e+04 3.398e-10
 97.49914    258.0 1.056e+04 3.584e-10
 97.51331    258.1 1.061e+04 3.790e-10
 97.53289    258.4 1.069e+04 4.130e-10
 97.55247    258.7 1.081e+04 4.629e-10
 97.57205    259.2 1.097e+04 5.326e-10
 97.59163    259.7 1.118e+04 6.297e-10
 97.61121    260.2 1.148e+04 7.681e-10
 97.63080    260.6 1.188e+04 9.725e-10
 97.65038    260.8 1.240e+04 1.264e-09
 97.66996    260.7 1.309e+04 1.672e-09
 97.68954    260.4 1.408e+04 2.248e-09
 97.70912    259.5 1.532e+04 3.050e-09
 97.72870    257.8 1.652e+04 4.070e-09
 97.74035    255.8 1.728e+04 5.073e-09
 97.75014    253.4 1.873e+04 9.246e-09
 97.76786    251.6 1.869e+04 9.335e-09
 97.78744    250.1 1.839e+04 8.885e-09
 97.80702    249.0 1.787e+04 7.420e-09
 97.82661    248.1 1.721e+04 5.882e-09
 97.84619    247.1 1.664e+04 4.364e-09
 97.85653    246.2 1.605e+04 3.069e-09
 97.86632    244.8 1.623e+04 2.865e-09
 97.88535    244.0 1.551e+04 1.955e-09
 97.90493    243.4 1.461e+04 1.332e-09
 97.92451    243.3 1.361e+04 9.349e-10
 97.95398    242.1 1.230e+04 6.484e-10
 97.99324    242.9 1.153e+04 4.704e-10
 98.03240    244.2 1.104e+04 3.723e-10
 98.07156    245.7 1.073e+04 3.145e-10
 98.11073    247.6 1.047e+04 2.733e-10
 98.14989    249.5 1.021e+04 2.393e-10
 98.18905    251.5 9.970e+03 2.101e-10
 98.22821    253.6 9.767e+03 1.847e-10
 98.26738    255.9 9.610e+03 1.627e-10
 98.30654    258.2 9.481e+03 1.442e-10
 98.34570    260.6 9.363e+03 1.303e-10
 98.38486    263.0 9.266e+03 1.240e-10
 98.42402    265.6 9.253e+03 1.238e-10
 98.46319    268.2 9.254e+03 1.245e-10
 98.50235    270.8 9.262e+03 1.287e-10
 98.54151    273.4 9.346e+03 1.412e-10
 98.57023    275.8 9.552e+03 1.635e-10
 98.58065    275.8 9.160e+03 1.262e-10
 98.59109    275.5 9.018e+03 1.215e-10
 98.61984    277.9 9.293e+03 1.500e-10
 98.65900    280.1 9.642e+03 1.884e-10
 98.69816    282.2 1.004e+04 2.351e-10
 98.73732    284.0 1.044e+04 2.859e-10
 98.77648    285.2 1.076e+04 3.293e-10
 98.81565    285.4 1.087e+04 3.432e-10
 98.85481    285.1 1.082e+04 3.415e-10
 98.88408    284.8 1.063e+04 3.303e-10
 98.90357    286.2 1.039e+04 3.199e-10
 98.92315    288.6 1.032e+04 3.224e-10
 98.93850    291.0 1.029e+04 3.455e-10
 98.94829    291.1 1.031e+04 3.582e-10
 98.96231    293.2 1.050e+04 4.379e-10
 98.98189    294.9 1.099e+04 5.672e-10
 98.99466    296.2 1.158e+04 7.392e-10
 99.00445    295.7 1.123e+04 6.316e-10
 99.02105    297.0 1.176e+04 7.932e-10
 99.04063    298.0 1.226e+04 9.630e-10
 99.06021    298.8 1.272e+04 1.135e-09
 99.07980    299.5 1.316e+04 1.310e-09
 99.09938    300.2 1.356e+04 1.487e-09
 99.11896    300.9 1.395e+04 1.676e-09
 99.13854    301.8 1.436e+04 1.902e-09
 99.15812    302.8 1.483e+04 2.202e-09
 99.17770    303.8 1.546e+04 2.637e-09
 99.19728    304.8 1.635e+04 3.313e-09
 99.21686    305.8 1.753e+04 4.408e-09
 99.23644    306.7 1.891e+04 6.125e-09
 99.25603    307.5 2.037e+04 8.865e-09
 99.27561    308.3 2.150e+04 1.206e-08
 99.29519    308.8 2.254e+04 1.618e-08
 99.30564    308.6 2.293e+04 1.808e-08
 99.31543    310.3 2.283e+04 1.639e-08
 99.32941    309.9 2.322e+04 1.852e-08
 99.33915    310.0 2.353e+04 1.997e-08
 99.34894    309.8 2.386e+04 2.166e-08
 99.35873    309.4 2.422e+04 2.360e-08
 99.36852    308.9 2.463e+04 2.539e-08
 99.37831    308.3 2.517e+04 2.622e-08
 99.38810    307.5 2.553e+04 2.596e-08
 99.39789    306.5 2.581e+04 2.493e-08
 99.40768    305.1 2.609e+04 2.285e-08
 99.41430    303.3 2.608e+04 2.055e-08
 99.41920    304.2 2.697e+04 3.002e-08
 99.42726    302.0 2.686e+04 2.551e-08
 99.43705    299.4 2.606e+04 2.157e-08
 99.44684    296.9 2.486e+04 1.892e-08
 99.45663    294.6 2.366e+04 1.789e-08
 99.46642    292.7 2.326e+04 1.799e-08
 99.47622    291.3 2.329e+04 1.798e-08
 99.48429    290.4 2.336e+04 1.799e-08
 99.48918    290.1 2.287e+04 1.626e-08
 99.49580    289.4 2.305e+04 1.647e-08
 99.50559    288.9 2.339e+04 1.693e-08
 99.51538    288.4 2.397e+04 1.770e-08
 99.52517    287.8 2.480e+04 1.876e-08
 99.53496    287.1 2.582e+04 1.999e-08
 99.54475    286.5 2.681e+04 2.134e-08
 99.55454    286.2 2.767e+04 2.274e-08
 99.56433    285.9 2.834e+04 2.419e-08
 99.57412    285.8 2.873e+04 2.572e-08
 99.58391    285.8 2.882e+04 2.748e-08
 99.59370    285.8 2.863e+04 2.959e-08
 99.60349    286.0 2.823e+04 3.200e-08
 99.61328    286.4 2.773e+04 3.450e-08
 99.62172    287.1 2.732e+04 3.722e-08
 99.62662    283.7 2.690e+04 5.422e-08
 99.63286    284.1 2.745e+04 5.786e-08
 99.64265    283.6 2.955e+04 6.081e-08
 99.65244    282.1 3.353e+04 6.212e-08
 99.66224    279.0 3.864e+04 6.008e-08
 99.66788    274.3 4.084e+04 6.152e-08
 99.67277    263.1 3.855e+04 4.881e-08
 99.68182    257.5 3.342e+04 5.295e-08
 99.69161    252.9 2.852e+04 6.291e-08
 99.70140    250.0 2.673e+04 7.664e-08
 99.71119    248.2 2.559e+04 1.021e-07
 99.72098    246.5 2.679e+04 1.078e-07
 99.73077    244.4 2.736e+04 1.031e-07
 99.74056    241.6 2.852e+04 8.613e-08
 99.75035    237.9 2.986e+04 6.292e-08
 99.76014    233.2 3.072e+04 4.404e-08
 99.76993    228.1 3.067e+04 3.110e-08
 99.77972    223.3 2.983e+04 2.340e-08
 99.78951    219.3 2.896e+04 1.916e-08
 99.79930    216.0 2.852e+04 1.668e-08
 99.80909    213.1 2.836e+04 1.518e-08
 99.81888    210.3 2.818e+04 1.406e-08
 99.82867    207.9 2.812e+04 1.297e-08
 99.83404    205.3 2.897e+04 1.291e-08
 99.83893    201.8 3.101e+04 1.560e-08
 99.84657    182.9 5.558e+04 1.353e-08
 99.85147    189.7 4.649e+04 1.304e-08
 99.85557    185.0 5.219e+04 1.302e-08
 99.86045    176.2 5.887e+04 1.914e-08
 99.86534    154.4 4.366e+04 2.141e-07
 99.87024    125.0 2.683e+04 2.936e-06
 99.87513     97.6 2.530e+04 3.327e-06
 99.88003     74.6 3.167e+04 9.867e-07
 99.88492     60.8 3.856e+04 2.214e-07
 99.88982     61.2 2.878e+04 4.566e-07
 99.89471     65.3 2.560e+04 6.945e-07
 99.89961     66.4 2.623e+04 6.869e-07
 99.90697     65.1 3.347e+04 3.012e-07
 99.91679     51.3 7.302e+04 1.265e-08
 99.92658     15.2 9.613e+04 1.486e-09
 99.94131    -17.5 2.770e+04 3.029e-09
 99.96094    -23.1 1.962e+04 2.932e-09
 99.98053    -23.7 1.880e+04 2.866e-09
100.00011    -22.9 1.839e+04 2.765e-09
