# Columns:
#   distance along LOS (in CHIMPs)
#   peculiar velocity  (in km/s)
#   temperature (K)
#   HI number density
# pos=(147.501,54.0754,168.564), angles=(2.96844,2.01375)
  0.00074    -23.3 9.724e+03 1.579e-10
  0.00602    -22.9 9.932e+03 2.079e-10
  0.03039    -21.5 1.001e+04 2.445e-10
  0.07004    -20.1 1.013e+04 2.942e-10
  0.10970    -18.7 1.026e+04 3.566e-10
  0.14936    -17.5 1.039e+04 4.230e-10
  0.17241    -16.4 1.045e+04 4.686e-10
  0.19223    -16.9 1.042e+04 4.466e-10
  0.22867    -15.8 1.034e+04 4.370e-10
  0.26832    -14.8 1.022e+04 4.056e-10
  0.30798    -13.8 1.016e+04 3.712e-10
  0.34763    -12.7 1.020e+04 3.539e-10
  0.37728    -11.8 1.018e+04 3.497e-10
  0.39701    -12.0 1.040e+04 3.604e-10
  0.41665    -13.7 1.150e+04 5.241e-10
  0.42657    -14.1 1.192e+04 5.437e-10
  0.43666    -18.1 1.376e+04 1.216e-09
  0.45649    -19.9 1.479e+04 2.772e-09
  0.47632    -20.2 1.551e+04 4.895e-09
  0.49615    -19.6 1.609e+04 6.362e-09
  0.51597    -19.6 1.639e+04 6.664e-09
  0.52808    -22.2 1.748e+04 6.678e-09
  0.53800    -24.1 1.920e+04 9.654e-09
  0.54879    -33.3 2.261e+04 1.069e-08
  0.55870    -37.3 2.400e+04 1.540e-08
  0.57045    -44.0 2.402e+04 2.329e-08
  0.58032    -47.2 2.321e+04 4.138e-08
  0.59023    -49.0 2.274e+04 6.416e-08
  0.60014    -49.9 2.250e+04 7.837e-08
  0.60980    -50.4 2.234e+04 8.071e-08
  0.61476    -50.8 2.204e+04 6.444e-08
  0.61997    -50.6 2.170e+04 4.255e-08
  0.62988    -51.1 2.147e+04 2.220e-08
  0.63980    -53.7 2.080e+04 1.179e-08
  0.65472    -56.4 1.991e+04 7.329e-09
  0.67101    -62.6 1.672e+04 2.527e-09
  0.68092    -68.4 1.325e+04 1.121e-09
  0.69442    -71.9 1.130e+04 8.317e-10
  0.71425    -72.4 1.111e+04 8.429e-10
  0.73408    -72.3 1.147e+04 1.003e-09
  0.75391    -71.9 1.184e+04 1.169e-09
  0.78375    -71.7 1.222e+04 1.341e-09
  0.81349    -71.8 1.266e+04 1.655e-09
  0.83322    -71.9 1.293e+04 1.886e-09
  0.85304    -72.1 1.335e+04 2.299e-09
  0.87287    -72.3 1.379e+04 2.731e-09
  0.89270    -72.6 1.415e+04 3.138e-09
  0.91253    -72.9 1.438e+04 3.380e-09
  0.92536    -73.5 1.444e+04 3.434e-09
  0.93528    -73.8 1.445e+04 3.444e-09
  0.95218    -74.6 1.451e+04 3.450e-09
  0.97201    -75.8 1.454e+04 3.313e-09
  0.99184    -77.7 1.482e+04 3.265e-09
  1.01167    -79.9 1.524e+04 3.445e-09
  1.03149    -81.9 1.557e+04 3.744e-09
  1.04758    -83.5 1.580e+04 4.092e-09
  1.05646    -85.2 1.702e+04 6.182e-09
  1.06015    -86.1 1.795e+04 8.593e-09
  1.07110    -87.0 1.814e+04 9.903e-09
  1.09098    -87.5 1.757e+04 8.979e-09
  1.11081    -88.0 1.721e+04 7.917e-09
  1.13063    -88.8 1.689e+04 6.861e-09
  1.15046    -89.7 1.662e+04 5.892e-09
  1.16980    -90.7 1.642e+04 5.327e-09
  1.17972    -91.8 1.629e+04 3.899e-09
  1.19012    -93.0 1.602e+04 3.221e-09
  1.20994    -94.1 1.583e+04 2.847e-09
  1.22977    -95.3 1.581e+04 2.721e-09
  1.24960    -97.0 1.587e+04 2.712e-09
  1.26943    -99.5 1.631e+04 3.172e-09
  1.28925   -102.1 1.706e+04 4.329e-09
  1.30194   -104.0 1.782e+04 6.007e-09
  1.31185   -103.9 1.759e+04 7.513e-09
  1.32138   -103.8 1.848e+04 1.056e-08
  1.33129   -103.0 1.746e+04 8.864e-09
  1.34874   -103.9 1.828e+04 1.064e-08
  1.36300   -105.3 1.599e+04 1.240e-08
  1.36791   -107.2 1.925e+04 1.190e-08
  1.37342   -108.1 2.162e+04 1.170e-08
  1.38334   -110.2 2.574e+04 1.083e-08
  1.39325   -118.1 4.554e+04 9.201e-09
  1.40317   -127.0 6.468e+04 9.189e-09
  1.41308   -136.1 6.361e+04 1.723e-08
  1.42299   -143.4 5.178e+04 4.772e-08
  1.42902   -151.6 3.968e+04 1.408e-07
  1.43147   -150.4 3.221e+04 3.228e-07
  1.43534   -153.8 3.124e+04 3.318e-07
  1.44029   -159.2 2.855e+04 4.393e-07
  1.44525   -164.7 2.790e+04 4.823e-07
  1.45021   -172.9 2.700e+04 5.029e-07
  1.45427   -181.5 3.219e+04 2.462e-07
  1.45675   -188.6 3.981e+04 1.201e-07
  1.45952   -198.7 5.746e+04 2.856e-08
  1.46200   -198.7 6.731e+04 2.489e-08
  1.46508   -200.5 7.616e+04 1.242e-08
  1.47004   -198.2 7.790e+04 9.161e-09
  1.47499   -198.4 8.182e+04 5.542e-09
  1.47995   -204.7 8.595e+04 3.167e-09
  1.48491   -214.1 8.562e+04 2.048e-09
  1.49010   -225.5 7.321e+04 1.471e-09
  1.49506   -204.2 5.509e+04 8.263e-09
  1.50228   -212.1 5.471e+04 4.286e-09
  1.51222   -235.0 4.593e+04 8.565e-10
  1.52714   -248.7 1.359e+04 7.641e-10
  1.54638   -247.1 1.137e+04 7.068e-10
  1.55629   -248.4 1.210e+04 7.756e-10
  1.56684   -244.3 1.079e+04 6.849e-10
  1.58250   -240.1 1.061e+04 6.218e-10
  1.59242   -238.4 1.045e+04 5.489e-10
  1.60650   -235.6 1.026e+04 4.506e-10
  1.62633   -232.8 9.994e+03 3.797e-10
  1.65617   -230.5 9.840e+03 3.350e-10
  1.67871   -227.9 9.585e+03 2.911e-10
  1.69854   -227.4 9.648e+03 3.421e-10
  1.73557   -223.9 9.260e+03 2.800e-10
  1.77523   -220.4 8.957e+03 2.387e-10
  1.81488   -217.2 8.837e+03 2.220e-10
  1.85454   -214.1 8.817e+03 2.193e-10
  1.89420   -211.1 8.820e+03 2.200e-10
  1.92315   -208.3 8.919e+03 2.351e-10
  1.94298   -208.1 8.933e+03 2.565e-10
  1.97351   -205.3 8.950e+03 2.616e-10
  2.01316   -202.6 8.983e+03 2.696e-10
  2.05282   -199.9 8.986e+03 2.760e-10
  2.09247   -197.2 8.980e+03 2.779e-10
  2.11487   -194.6 8.942e+03 2.780e-10
  2.13470   -194.6 8.983e+03 2.874e-10
  2.16759   -192.0 8.887e+03 2.827e-10
  2.18742   -191.4 8.429e+03 2.008e-10
  2.21144   -188.6 8.335e+03 1.865e-10
  2.25110   -185.8 8.251e+03 1.734e-10
  2.29075   -183.0 8.193e+03 1.641e-10
  2.33041   -180.2 8.170e+03 1.600e-10
  2.37006   -177.4 8.168e+03 1.593e-10
  2.40972   -174.7 8.174e+03 1.595e-10
  2.43186   -172.2 8.284e+03 1.637e-10
  2.45169   -171.7 8.035e+03 1.051e-10
  2.48903   -169.5 8.213e+03 1.112e-10
  2.52868   -167.5 8.399e+03 1.310e-10
  2.56834   -165.9 8.705e+03 1.709e-10
  2.60799   -164.5 9.162e+03 2.470e-10
  2.63712   -163.4 9.740e+03 3.823e-10
  2.65695   -163.0 9.463e+03 3.219e-10
  2.67630   -162.1 9.914e+03 4.414e-10
  2.69613   -161.4 9.549e+03 3.359e-10
  2.72696   -160.7 9.950e+03 4.363e-10
  2.76662   -160.1 1.034e+04 5.568e-10
  2.80627   -159.3 1.067e+04 6.890e-10
  2.84593   -158.6 1.087e+04 7.966e-10
  2.88558   -157.9 1.091e+04 8.378e-10
  2.92074   -157.0 1.089e+04 8.394e-10
  2.94057   -156.2 1.047e+04 5.826e-10
  2.96489   -155.1 1.042e+04 5.780e-10
  3.00455   -153.5 1.030e+04 5.325e-10
  3.04420   -151.6 1.018e+04 4.761e-10
  3.08386   -149.5 1.010e+04 4.304e-10
  3.12352   -147.2 1.004e+04 4.014e-10
  3.15937   -144.8 1.002e+04 3.888e-10
  3.17920   -144.3 9.868e+03 2.996e-10
  3.18501   -142.0 9.931e+03 3.104e-10
  3.20484   -142.3 1.021e+04 4.171e-10
  3.24248   -139.9 1.031e+04 4.612e-10
  3.28214   -137.7 1.045e+04 5.107e-10
  3.32179   -135.4 1.064e+04 5.789e-10
  3.36145   -133.1 1.083e+04 6.719e-10
  3.40110   -130.7 1.102e+04 7.740e-10
  3.42945   -128.3 1.123e+04 8.876e-10
  3.43884   -128.9 1.095e+04 7.587e-10
  3.44013   -129.0 1.121e+04 8.657e-10
  3.45048   -128.0 1.126e+04 8.992e-10
  3.47031   -126.7 1.131e+04 9.481e-10
  3.49013   -125.7 1.136e+04 9.905e-10
  3.50996   -124.4 1.145e+04 1.062e-09
  3.52979   -123.2 1.151e+04 1.113e-09
  3.54962   -121.8 1.160e+04 1.179e-09
  3.56139   -120.5 1.169e+04 1.250e-09
  3.57131   -120.5 1.142e+04 9.296e-10
  3.58927   -119.2 1.151e+04 9.726e-10
  3.60910   -117.7 1.160e+04 1.013e-09
  3.62893   -116.1 1.175e+04 1.062e-09
  3.64876   -114.8 1.203e+04 1.137e-09
  3.66858   -113.9 1.250e+04 1.267e-09
  3.68361   -113.3 1.317e+04 1.526e-09
  3.69353   -115.1 1.344e+04 1.464e-09
  3.70126   -115.0 1.414e+04 2.065e-09
  3.71117   -114.9 1.549e+04 4.881e-09
  3.72807   -114.5 1.652e+04 7.141e-09
  3.74789   -114.1 1.768e+04 1.031e-08
  3.76772   -113.7 1.892e+04 1.435e-08
  3.78254   -114.1 1.943e+04 1.479e-08
  3.79241   -113.8 2.010e+04 1.653e-08
  3.80232   -113.6 2.043e+04 1.657e-08
  3.81069   -113.7 2.102e+04 1.771e-08
  3.81570   -115.9 1.993e+04 1.505e-08
  3.82220   -115.7 2.026e+04 1.432e-08
  3.83173   -116.6 2.034e+04 1.405e-08
  3.83668   -116.6 2.081e+04 1.961e-08
  3.84198   -117.5 2.082e+04 1.851e-08
  3.85189   -118.7 2.046e+04 1.438e-08
  3.86681   -120.9 1.987e+04 1.070e-08
  3.88669   -124.5 1.923e+04 7.737e-09
  3.90652   -128.3 1.792e+04 5.684e-09
  3.92634   -131.8 1.628e+04 4.377e-09
  3.93797   -134.7 1.498e+04 3.644e-09
  3.94788   -134.2 1.367e+04 2.545e-09
  3.96239   -135.5 1.326e+04 2.360e-09
  3.97230   -134.5 1.510e+04 3.809e-09
  3.98583   -135.6 1.433e+04 3.258e-09
  4.00565   -136.2 1.366e+04 2.809e-09
  4.02548   -136.3 1.311e+04 2.443e-09
  4.04531   -136.2 1.270e+04 2.127e-09
  4.06019   -136.0 1.233e+04 1.827e-09
  4.07010   -135.3 1.196e+04 1.507e-09
  4.08497   -135.0 1.162e+04 1.264e-09
  4.10479   -134.5 1.130e+04 1.049e-09
  4.12462   -134.2 1.101e+04 8.864e-10
  4.14445   -133.8 1.080e+04 7.837e-10
  4.16428   -133.5 1.069e+04 7.392e-10
  4.18241   -133.0 1.067e+04 7.305e-10
  4.19232   -132.9 9.910e+03 4.778e-10
  4.20393   -132.4 9.895e+03 4.739e-10
  4.22351   -132.0 9.915e+03 4.774e-10
  4.23343   -131.5 9.934e+03 4.896e-10
  4.24359   -131.0 9.936e+03 4.935e-10
  4.26342   -130.6 9.968e+03 5.095e-10
  4.28324   -130.3 1.006e+04 5.441e-10
  4.30307   -130.2 1.015e+04 5.948e-10
  4.31454   -130.2 1.021e+04 6.549e-10
  4.32446   -130.7 9.615e+03 3.927e-10
  4.34273   -130.8 9.761e+03 4.653e-10
  4.36255   -130.9 9.941e+03 5.547e-10
  4.38238   -131.0 1.016e+04 6.540e-10
  4.40221   -131.0 1.040e+04 7.525e-10
  4.42204   -131.2 1.062e+04 8.278e-10
  4.43677   -131.8 1.076e+04 8.585e-10
  4.44678   -131.6 1.048e+04 6.728e-10
  4.47180   -133.3 1.073e+04 7.373e-10
  4.49465   -136.4 1.062e+04 6.603e-10
  4.50447   -134.8 1.078e+04 7.565e-10
  4.52118   -137.4 1.080e+04 7.166e-10
  4.54100   -140.2 1.082e+04 6.938e-10
  4.55899   -143.5 1.087e+04 6.897e-10
  4.56890   -143.0 1.093e+04 7.234e-10
  4.58066   -146.2 1.115e+04 7.494e-10
  4.60049   -149.4 1.130e+04 8.138e-10
  4.62031   -152.4 1.134e+04 8.594e-10
  4.64014   -155.3 1.133e+04 8.700e-10
  4.65997   -157.7 1.131e+04 8.707e-10
  4.67980   -159.9 1.114e+04 8.404e-10
  4.69112   -161.7 1.092e+04 7.744e-10
  4.70103   -160.8 1.066e+04 6.627e-10
  4.71945   -162.6 1.045e+04 5.998e-10
  4.73928   -164.0 1.024e+04 5.441e-10
  4.75568   -165.1 1.005e+04 4.958e-10
  4.76560   -164.8 1.014e+04 5.081e-10
  4.77894   -165.9 9.967e+03 4.624e-10
  4.79876   -166.7 9.810e+03 4.251e-10
  4.81334   -167.1 9.693e+03 3.957e-10
  4.82326   -166.8 9.739e+03 4.050e-10
  4.83842   -167.1 9.649e+03 3.844e-10
  4.86826   -167.4 9.630e+03 3.776e-10
  4.90801   -167.6 9.628e+03 3.744e-10
  4.93566   -167.4 9.648e+03 3.785e-10
  4.94548   -167.1 9.541e+03 3.665e-10
  4.95739   -167.1 9.569e+03 3.748e-10
  4.97721   -167.1 9.610e+03 3.947e-10
  4.99704   -167.1 9.646e+03 4.128e-10
  5.01681   -166.9 9.695e+03 4.317e-10
  5.03664   -167.1 9.812e+03 4.804e-10
  5.05652   -166.9 9.808e+03 4.807e-10
  5.06770   -166.3 9.748e+03 4.572e-10
  5.07761   -166.2 9.663e+03 4.233e-10
  5.10619   -165.8 9.663e+03 4.101e-10
  5.14594   -165.0 9.566e+03 3.668e-10
  5.18020   -164.1 9.425e+03 3.219e-10
  5.20003   -164.6 9.293e+03 2.935e-10
  5.22526   -164.0 9.281e+03 2.913e-10
  5.26491   -163.6 9.465e+03 3.143e-10
  5.28805   -163.4 9.761e+03 3.863e-10
  5.29786   -163.8 9.670e+03 3.799e-10
  5.31214   -163.9 9.792e+03 4.289e-10
  5.32205   -164.1 9.821e+03 4.411e-10
  5.33411   -164.2 9.893e+03 4.809e-10
  5.35394   -164.3 9.902e+03 4.971e-10
  5.37377   -164.5 9.876e+03 5.051e-10
  5.39360   -164.4 9.796e+03 4.777e-10
  5.41342   -164.2 9.714e+03 4.228e-10
  5.43325   -164.1 9.651e+03 3.685e-10
  5.44427   -163.9 9.603e+03 3.318e-10
  5.46420   -164.5 9.316e+03 2.689e-10
  5.50284   -163.9 9.261e+03 2.431e-10
  5.54250   -162.9 9.261e+03 2.379e-10
  5.58215   -161.7 9.286e+03 2.396e-10
  5.62181   -160.1 9.416e+03 2.649e-10
  5.66147   -158.3 9.586e+03 3.134e-10
  5.68891   -156.4 9.736e+03 3.735e-10
  5.70874   -155.9 9.406e+03 3.084e-10
  5.74078   -153.8 9.449e+03 3.244e-10
  5.78043   -151.7 9.479e+03 3.343e-10
  5.81030   -149.7 9.490e+03 3.363e-10
  5.83013   -150.3 9.143e+03 2.459e-10
  5.85974   -148.4 9.144e+03 2.451e-10
  5.89940   -146.7 9.352e+03 2.733e-10
  5.93335   -145.0 9.649e+03 3.436e-10
  5.95318   -144.2 9.397e+03 2.544e-10
  5.97871   -142.4 9.733e+03 3.541e-10
  6.01836   -140.4 1.003e+04 4.534e-10
  6.05802   -138.4 1.024e+04 5.193e-10
  6.09768   -136.4 1.030e+04 5.357e-10
  6.13733   -134.2 1.032e+04 5.256e-10
  6.17699   -131.8 1.022e+04 4.496e-10
  6.19762   -129.3 1.008e+04 3.608e-10
  6.21745   -128.6 1.009e+04 3.666e-10
  6.25630   -125.9 9.963e+03 2.790e-10
  6.29595   -123.3 9.872e+03 2.073e-10
  6.33255   -120.7 9.833e+03 1.559e-10
  6.35238   -121.2 9.633e+03 1.293e-10
  6.37526   -118.6 9.593e+03 1.101e-10
  6.41492   -115.7 9.625e+03 1.036e-10
  6.44206   -112.8 9.651e+03 1.024e-10
  6.46189   -112.1 9.636e+03 1.299e-10
  6.49423   -109.5 9.717e+03 1.306e-10
  6.53389   -107.3 1.021e+04 1.488e-10
  6.57354   -105.4 1.069e+04 2.754e-10
  6.61320   -103.1 1.125e+04 5.666e-10
  6.65285   -100.8 1.197e+04 1.048e-09
  6.68650    -98.8 1.267e+04 1.631e-09
  6.70633    -97.7 1.246e+04 1.456e-09
  6.72215    -96.5 1.302e+04 2.021e-09
  6.74188    -95.7 1.321e+04 2.206e-09
  6.76171    -95.2 1.358e+04 2.508e-09
  6.78154    -95.0 1.410e+04 2.781e-09
  6.80137    -95.1 1.491e+04 3.297e-09
  6.81844    -95.9 1.580e+04 4.048e-09
  6.82835    -95.5 1.563e+04 3.661e-09
  6.84102    -96.7 1.638e+04 4.816e-09
  6.86085    -97.6 1.666e+04 5.838e-09
  6.87444    -97.9 1.665e+04 6.413e-09
  6.88435    -97.8 1.812e+04 1.183e-08
  6.89550    -97.7 1.738e+04 8.782e-09
  6.90536    -97.7 1.718e+04 8.053e-09
  6.91528    -97.8 1.691e+04 7.015e-09
  6.92519    -98.2 1.679e+04 6.217e-09
  6.93510    -98.7 1.644e+04 5.308e-09
  6.94502    -99.3 1.610e+04 4.591e-09
  6.95053   -100.2 1.577e+04 3.955e-09
  6.95548    -99.3 1.671e+04 5.000e-09
  6.96485    -99.8 1.666e+04 4.659e-09
  6.97476   -100.7 1.674e+04 4.439e-09
  6.98467   -101.4 1.678e+04 4.410e-09
  6.99459   -102.6 1.717e+04 4.387e-09
  7.00450   -103.6 1.754e+04 4.662e-09
  7.00986   -105.0 1.796e+04 5.123e-09
  7.01199   -105.9 1.722e+04 4.628e-09
  7.01655   -106.8 1.842e+04 6.187e-09
  7.02433   -107.6 1.840e+04 6.993e-09
  7.03424   -108.1 1.827e+04 7.892e-09
  7.04416   -108.3 1.812e+04 8.862e-09
  7.05407   -108.4 1.795e+04 9.747e-09
  7.06399   -108.4 1.778e+04 1.036e-08
  7.07270   -108.4 1.763e+04 1.075e-08
  7.07766   -108.3 1.861e+04 1.452e-08
  7.08381   -108.3 1.855e+04 1.464e-08
  7.09373   -108.2 1.852e+04 1.468e-08
  7.10364   -108.2 1.841e+04 1.457e-08
  7.11355   -108.3 1.837e+04 1.393e-08
  7.12347   -108.7 1.833e+04 1.289e-08
  7.13338   -109.1 1.842e+04 1.171e-08
  7.13877   -109.9 1.868e+04 1.093e-08
  7.14085   -110.6 2.037e+04 1.441e-08
  7.14538   -111.7 1.952e+04 9.176e-09
  7.15321   -113.5 1.973e+04 8.671e-09
  7.16312   -115.8 2.015e+04 8.549e-09
  7.17304   -118.5 2.081e+04 8.817e-09
  7.18295   -121.4 2.104e+04 9.447e-09
  7.19287   -124.0 2.074e+04 1.007e-08
  7.19988   -126.1 2.036e+04 1.032e-08
  7.20483   -127.2 2.138e+04 1.229e-08
  7.21269   -128.3 2.053e+04 1.208e-08
  7.22261   -129.1 1.972e+04 1.137e-08
  7.23252   -129.6 1.893e+04 1.027e-08
  7.24243   -130.1 1.811e+04 8.941e-09
  7.25235   -130.6 1.725e+04 7.562e-09
  7.26099   -131.1 1.647e+04 6.247e-09
  7.26594   -131.3 1.644e+04 6.067e-09
  7.27718   -131.9 1.566e+04 4.859e-09
  7.29706   -133.5 1.423e+04 3.017e-09
  7.31689   -135.2 1.343e+04 2.149e-09
  7.32715   -137.0 1.285e+04 1.803e-09
  7.33707   -136.9 1.201e+04 1.378e-09
  7.35654   -138.0 1.183e+04 1.318e-09
  7.37637   -138.9 1.178e+04 1.313e-09
  7.39620   -140.0 1.189e+04 1.479e-09
  7.40661   -140.9 1.236e+04 1.866e-09
  7.41652   -139.8 1.225e+04 1.692e-09
  7.43585   -140.7 1.260e+04 2.080e-09
  7.44937   -141.4 1.277e+04 2.381e-09
  7.45929   -140.2 1.219e+04 1.898e-09
  7.47551   -140.8 1.232e+04 2.097e-09
  7.49534   -141.2 1.233e+04 2.168e-09
  7.51516   -141.4 1.230e+04 2.178e-09
  7.53499   -141.5 1.211e+04 2.120e-09
  7.55482   -141.5 1.187e+04 1.946e-09
  7.57159   -141.5 1.158e+04 1.718e-09
  7.58151   -140.8 1.163e+04 1.780e-09
  7.59447   -140.7 1.140e+04 1.599e-09
  7.61430   -140.6 1.117e+04 1.417e-09
  7.63413   -140.6 1.096e+04 1.259e-09
  7.65396   -140.5 1.079e+04 1.126e-09
  7.66773   -140.4 1.065e+04 1.024e-09
  7.67765   -140.9 1.089e+04 1.163e-09
  7.69361   -140.8 1.077e+04 1.068e-09
  7.70373   -140.7 1.068e+04 9.876e-10
  7.71364   -140.2 1.109e+04 1.207e-09
  7.73327   -140.0 1.101e+04 1.130e-09
  7.75310   -139.8 1.092e+04 1.052e-09
  7.77292   -139.6 1.082e+04 9.785e-10
  7.79275   -139.4 1.073e+04 9.109e-10
  7.81258   -139.2 1.065e+04 8.522e-10
  7.82595   -139.1 1.059e+04 8.045e-10
  7.83586   -138.6 1.107e+04 1.026e-09
  7.85224   -138.5 1.100e+04 9.708e-10
  7.87206   -138.4 1.096e+04 9.280e-10
  7.89189   -138.3 1.093e+04 8.983e-10
  7.91172   -138.1 1.091e+04 8.776e-10
  7.92886   -137.7 1.087e+04 8.583e-10
  7.93877   -138.9 1.112e+04 1.080e-09
  7.94817   -138.3 1.094e+04 1.031e-09
  7.95808   -137.6 1.102e+04 1.093e-09
  7.97120   -136.8 1.077e+04 9.730e-10
  7.99103   -135.8 1.048e+04 8.219e-10
  8.01086   -134.7 1.015e+04 6.540e-10
  8.03068   -133.6 9.850e+03 5.077e-10
  8.05051   -132.8 9.658e+03 4.190e-10
  8.08035   -132.1 9.542e+03 3.617e-10
  8.12010   -130.6 9.274e+03 2.747e-10
  8.15976   -128.6 9.024e+03 2.132e-10
  8.19281   -126.8 8.949e+03 1.897e-10
  8.21263   -125.9 9.004e+03 2.060e-10
  8.23907   -124.2 8.999e+03 2.036e-10
  8.27873   -122.8 9.115e+03 2.143e-10
  8.31838   -121.4 9.269e+03 2.466e-10
  8.35804   -119.8 9.378e+03 2.815e-10
  8.39769   -118.1 9.463e+03 3.092e-10
  8.43725   -116.2 9.549e+03 3.267e-10
  8.46112   -113.9 9.686e+03 3.271e-10
  8.48105   -113.9 9.514e+03 2.614e-10
  8.51666   -112.0 9.486e+03 2.539e-10
  8.55632   -110.1 9.457e+03 2.469e-10
  8.59597   -108.1 9.409e+03 2.353e-10
  8.63563   -106.2 9.338e+03 2.174e-10
  8.67528   -104.3 9.228e+03 1.959e-10
  8.70152   -102.4 9.093e+03 1.753e-10
  8.72134   -101.9 9.141e+03 1.714e-10
  8.75459   -100.0 9.006e+03 1.619e-10
  8.79425    -98.0 8.886e+03 1.550e-10
  8.83390    -96.0 8.773e+03 1.524e-10
  8.87356    -94.1 8.693e+03 1.525e-10
  8.91321    -92.1 8.660e+03 1.531e-10
  8.94596    -90.2 8.591e+03 1.566e-10
  8.96578    -89.2 8.644e+03 1.624e-10
  8.98348    -87.4 8.574e+03 1.624e-10
  9.00330    -87.0 8.468e+03 1.553e-10
  9.03218    -85.2 8.454e+03 1.554e-10
  9.07184    -83.5 8.449e+03 1.586e-10
  9.11149    -82.0 8.462e+03 1.627e-10
  9.15115    -80.8 8.472e+03 1.645e-10
  9.19040    -80.1 8.470e+03 1.643e-10
  9.21023    -78.8 8.549e+03 1.777e-10
  9.23046    -78.5 8.521e+03 1.751e-10
  9.27011    -78.3 8.502e+03 1.716e-10
  9.30977    -79.7 8.645e+03 1.819e-10
  9.34942    -83.0 9.531e+03 2.875e-10
  9.38908    -86.8 1.078e+04 5.562e-10
  9.42874    -91.0 1.183e+04 9.279e-10
  9.45467    -95.3 1.241e+04 1.133e-09
  9.46448    -94.8 1.299e+04 1.335e-09
  9.47811    -96.7 1.356e+04 1.614e-09
  9.49794    -99.5 1.372e+04 1.963e-09
  9.51545   -101.3 1.366e+04 2.031e-09
  9.52536   -103.2 1.362e+04 2.667e-09
  9.53759   -103.8 1.288e+04 2.315e-09
  9.55742   -104.2 1.226e+04 1.984e-09
  9.57669   -104.6 1.190e+04 1.807e-09
  9.58661   -103.8 1.239e+04 2.328e-09
  9.59708   -104.1 1.219e+04 2.097e-09
  9.61690   -104.3 1.220e+04 2.043e-09
  9.63673   -104.5 1.234e+04 2.098e-09
  9.65656   -105.0 1.286e+04 2.478e-09
  9.67639   -105.6 1.352e+04 3.056e-09
  9.69621   -106.7 1.419e+04 3.781e-09
  9.70883   -108.1 1.476e+04 4.510e-09
  9.71874   -107.6 1.422e+04 3.314e-09
  9.73587   -109.7 1.475e+04 3.907e-09
  9.75570   -111.9 1.515e+04 4.531e-09
  9.77553   -113.9 1.535e+04 5.012e-09
  9.78649   -115.8 1.538e+04 5.101e-09
  9.79640   -117.2 1.547e+04 5.298e-09
  9.81518   -118.5 1.515e+04 4.795e-09
  9.83105   -119.3 1.454e+04 3.640e-09
  9.84096   -119.1 1.500e+04 4.849e-09
  9.85484   -119.4 1.420e+04 3.390e-09
  9.87466   -119.8 1.338e+04 2.272e-09
  9.89449   -120.1 1.266e+04 1.579e-09
  9.91432   -120.2 1.209e+04 1.157e-09
  9.93415   -120.0 1.161e+04 8.667e-10
  9.95327   -119.2 1.124e+04 6.540e-10
  9.96318   -119.3 1.121e+04 6.275e-10
  9.97380   -118.3 1.091e+04 4.757e-10
  9.99363   -117.5 1.072e+04 3.771e-10
 10.02347   -116.4 1.062e+04 3.177e-10
 10.04781   -115.5 1.053e+04 2.712e-10
 10.06764   -116.1 1.039e+04 2.464e-10
 10.10288   -114.1 1.024e+04 2.127e-10
 10.14253   -112.1 1.018e+04 2.004e-10
 10.18219   -110.1 1.017e+04 1.981e-10
 10.20782   -108.2 1.022e+04 2.030e-10
 10.22765   -108.2 1.039e+04 2.652e-10
 10.26150   -106.5 1.037e+04 2.838e-10
 10.30116   -104.8 1.034e+04 2.918e-10
 10.34081   -103.2 1.023e+04 2.949e-10
 10.38047   -101.5 1.009e+04 2.699e-10
 10.42012    -99.8 9.916e+03 2.351e-10
 10.45226    -98.1 9.796e+03 2.027e-10
 10.47209    -98.6 9.699e+03 1.834e-10
 10.49943    -97.0 9.654e+03 1.638e-10
 10.53909    -95.3 9.659e+03 1.581e-10
 10.57007    -93.5 9.664e+03 1.575e-10
 10.58989    -93.3 9.857e+03 2.381e-10
 10.61840    -91.9 9.921e+03 2.451e-10
 10.65806    -91.0 1.017e+04 2.943e-10
 10.69670    -90.7 1.064e+04 4.369e-10
 10.71653    -91.4 1.040e+04 3.196e-10
 10.73737    -91.5 1.087e+04 4.661e-10
 10.77702    -91.7 1.126e+04 6.521e-10
 10.81668    -92.5 1.150e+04 8.000e-10
 10.85633    -93.5 1.155e+04 8.473e-10
 10.89599    -94.6 1.148e+04 8.010e-10
 10.93564    -95.6 1.143e+04 7.158e-10
 10.96097    -96.4 1.148e+04 6.911e-10
 10.98080    -97.6 1.207e+04 9.390e-10
 11.00494    -97.9 1.183e+04 7.871e-10
 11.02467    -98.5 1.187e+04 7.878e-10
 11.04450    -99.2 1.169e+04 7.209e-10
 11.06433    -99.5 1.153e+04 6.350e-10
 11.08300    -99.9 1.134e+04 5.270e-10
 11.09291   -101.1 1.137e+04 5.354e-10
 11.10204   -101.6 1.117e+04 4.329e-10
 11.11195   -102.5 1.100e+04 3.691e-10
 11.13382   -102.6 1.095e+04 3.425e-10
 11.17358   -102.9 1.091e+04 3.361e-10
 11.20541   -103.3 1.086e+04 3.480e-10
 11.22524   -104.7 1.083e+04 3.573e-10
 11.25289   -105.0 1.080e+04 3.666e-10
 11.29254   -105.3 1.077e+04 3.680e-10
 11.33220   -105.8 1.063e+04 3.424e-10
 11.37185   -106.2 1.041e+04 2.918e-10
 11.41151   -106.4 1.018e+04 2.309e-10
 11.44985   -106.4 9.960e+03 1.780e-10
 11.46968   -106.4 9.867e+03 1.593e-10
 11.49082   -105.8 9.662e+03 1.251e-10
 11.53048   -104.9 9.520e+03 1.014e-10
 11.57013   -104.0 9.445e+03 8.707e-11
 11.60979   -103.1 9.420e+03 8.135e-11
 11.63440   -102.1 9.416e+03 8.021e-11
 11.65423   -102.3 9.410e+03 7.471e-11
 11.68910   -101.2 9.437e+03 7.759e-11
 11.71412   -100.2 9.438e+03 8.642e-11
 11.73395    -99.6 9.372e+03 8.046e-11
 11.76841    -98.4 9.372e+03 9.378e-11
 11.80806    -97.1 9.357e+03 9.860e-11
 11.84772    -95.8 9.341e+03 9.885e-11
 11.88737    -94.3 9.263e+03 9.573e-11
 11.92703    -92.7 9.206e+03 9.069e-11
 11.95856    -91.0 9.183e+03 8.717e-11
 11.97839    -90.4 9.189e+03 9.415e-11
 12.00634    -88.7 9.186e+03 9.394e-11
 12.04600    -86.9 9.184e+03 9.522e-11
 12.08565    -85.2 9.176e+03 9.584e-11
 12.12531    -83.4 9.156e+03 9.575e-11
 12.15665    -81.5 9.114e+03 9.404e-11
 12.17648    -81.4 9.124e+03 9.912e-11
 12.20300    -79.4 9.083e+03 9.578e-11
 12.22283    -78.8 9.115e+03 1.067e-10
 12.24427    -76.7 9.063e+03 1.036e-10
 12.28393    -74.7 9.043e+03 9.849e-11
 12.32358    -72.7 9.028e+03 9.347e-11
 12.36324    -70.7 9.007e+03 8.762e-11
 12.40290    -68.7 8.990e+03 8.130e-11
 12.44255    -66.7 8.971e+03 7.495e-11
 12.46727    -64.7 8.963e+03 6.996e-11
 12.48710    -64.1 9.003e+03 7.787e-11
 12.52186    -62.2 9.013e+03 7.625e-11
 12.56152    -60.6 9.116e+03 7.892e-11
 12.60117    -59.2 9.217e+03 9.694e-11
 12.64083    -57.9 9.349e+03 1.329e-10
 12.67891    -56.6 9.543e+03 1.854e-10
 12.69874    -55.9 9.414e+03 1.477e-10
 12.71171    -54.5 9.624e+03 2.000e-10
 12.73154    -54.5 9.966e+03 3.031e-10
 12.75980    -53.3 1.013e+04 3.333e-10
 12.79945    -52.2 1.017e+04 3.356e-10
 12.83911    -51.1 1.006e+04 2.913e-10
 12.87876    -50.1 9.911e+03 2.399e-10
 12.91842    -49.3 9.880e+03 2.199e-10
 12.95616    -48.4 9.903e+03 2.198e-10
 12.97598    -48.6 9.713e+03 1.723e-10
 12.99773    -47.4 9.741e+03 1.661e-10
 13.03738    -46.0 9.727e+03 1.643e-10
 13.07704    -44.5 9.736e+03 1.613e-10
 13.11669    -42.8 9.724e+03 1.529e-10
 13.15635    -41.0 9.665e+03 1.351e-10
 13.19601    -39.1 9.592e+03 1.185e-10
 13.22043    -37.2 9.562e+03 1.104e-10
 13.22558    -36.8 9.450e+03 8.640e-11
 13.24082    -35.7 9.440e+03 8.503e-11
 13.27532    -33.8 9.525e+03 9.644e-11
 13.31497    -31.6 9.552e+03 1.167e-10
 13.35463    -29.2 9.605e+03 1.375e-10
 13.39428    -26.7 9.677e+03 1.512e-10
 13.43394    -24.2 9.708e+03 1.548e-10
 13.46487    -21.7 9.717e+03 1.528e-10
 13.48469    -21.4 9.674e+03 1.442e-10
 13.51325    -18.8 9.674e+03 1.314e-10
 13.55290    -16.2 9.690e+03 1.206e-10
 13.59256    -13.7 9.707e+03 1.159e-10
 13.63222    -11.2 9.779e+03 1.155e-10
 13.67187     -9.0 9.900e+03 1.307e-10
 13.70931     -6.7 9.903e+03 1.646e-10
 13.72914     -6.6 9.840e+03 1.521e-10
 13.74324     -4.0 9.942e+03 1.992e-10
 13.76307     -3.4 1.004e+04 2.266e-10
 13.79084     -0.5 1.023e+04 2.908e-10
 13.83049      2.3 1.033e+04 3.201e-10
 13.87015      5.0 1.036e+04 3.024e-10
 13.90980      7.7 1.053e+04 2.363e-10
 13.94946      9.6 1.047e+04 2.033e-10
 13.97358     11.6 1.051e+04 2.119e-10
 13.99340     11.5 1.037e+04 1.739e-10
 14.02877     13.4 1.039e+04 2.119e-10
 14.06843     15.7 1.042e+04 2.778e-10
 14.10808     18.0 1.055e+04 3.620e-10
 14.14774     20.3 1.069e+04 4.105e-10
 14.18739     22.3 1.073e+04 4.278e-10
 14.21802     24.1 1.068e+04 3.892e-10
 14.23785     23.6 1.029e+04 2.369e-10
 14.26550     25.4 1.022e+04 2.420e-10
 14.28532     26.7 1.050e+04 3.073e-10
 14.30636     28.5 1.046e+04 2.972e-10
 14.34601     30.3 1.038e+04 2.877e-10
 14.38567     32.2 1.032e+04 2.709e-10
 14.42532     34.4 1.028e+04 2.379e-10
 14.46246     36.5 1.026e+04 1.933e-10
 14.48229     36.6 1.016e+04 1.304e-10
 14.50464     38.3 1.003e+04 1.126e-10
 14.54429     40.2 9.945e+03 1.156e-10
 14.58395     42.1 9.943e+03 1.298e-10
 14.62360     44.2 9.905e+03 1.538e-10
 14.66326     46.4 9.852e+03 1.915e-10
 14.70291     49.0 9.877e+03 2.409e-10
 14.72673     51.7 1.003e+04 2.716e-10
 14.74656     51.9 1.026e+04 3.808e-10
 14.78222     54.4 1.028e+04 3.720e-10
 14.80758     56.9 1.023e+04 3.219e-10
 14.82741     57.9 1.049e+04 4.449e-10
 14.86154     60.4 1.038e+04 3.516e-10
 14.90119     62.8 1.020e+04 2.458e-10
 14.94085     64.9 9.976e+03 1.754e-10
 14.97117     67.0 9.645e+03 1.474e-10
 14.99100     67.0 9.850e+03 1.695e-10
 15.02016     69.6 9.758e+03 1.696e-10
 15.05981     72.3 9.727e+03 1.744e-10
 15.09947     74.9 9.713e+03 1.891e-10
 15.13912     77.6 9.747e+03 2.099e-10
 15.17878     80.2 9.805e+03 2.336e-10
 15.21561     82.7 9.874e+03 2.586e-10
 15.23544     82.6 1.009e+04 2.897e-10
 15.25809     85.1 1.013e+04 3.011e-10
 15.29775     87.5 1.015e+04 3.089e-10
 15.32983     89.9 1.013e+04 3.120e-10
 15.34966     90.4 1.074e+04 6.172e-10
 15.37706     92.7 1.072e+04 5.868e-10
 15.41671     94.9 1.061e+04 5.141e-10
 15.45637     97.0 1.042e+04 4.144e-10
 15.47988     99.1 1.019e+04 3.126e-10
 15.49971     99.0 1.005e+04 2.125e-10
 15.53568    100.9 9.878e+03 1.584e-10
 15.57533    102.8 9.685e+03 1.371e-10
 15.61499    104.8 9.646e+03 1.375e-10
 15.65464    106.8 9.633e+03 1.448e-10
 15.69430    108.7 9.627e+03 1.689e-10
 15.72432    110.6 9.673e+03 2.062e-10
 15.74415    110.5 9.731e+03 1.969e-10
 15.77361    112.3 9.834e+03 2.532e-10
 15.81327    113.9 9.903e+03 2.887e-10
 15.85209    115.3 9.901e+03 2.857e-10
 15.87191    115.8 9.994e+03 3.064e-10
 15.89258    117.0 9.980e+03 3.007e-10
 15.93223    117.9 9.916e+03 2.736e-10
 15.96876    118.7 9.820e+03 2.306e-10
 15.98859    118.7 9.831e+03 2.388e-10
 16.01154    119.5 9.681e+03 1.857e-10
 16.05120    120.2 9.549e+03 1.414e-10
 16.09085    120.9 9.485e+03 1.208e-10
 16.13051    121.8 9.486e+03 1.204e-10
 16.17017    123.0 9.523e+03 1.252e-10
 16.20982    124.2 9.616e+03 1.407e-10
 16.23303    125.6 9.735e+03 1.680e-10
 16.25286    126.8 9.507e+03 1.242e-10
 16.28913    128.3 9.635e+03 1.470e-10
 16.32879    129.9 9.741e+03 1.767e-10
 16.36844    131.6 9.810e+03 2.102e-10
 16.39417    133.4 9.854e+03 2.313e-10
 16.41400    133.7 9.915e+03 2.628e-10
 16.44775    135.7 9.934e+03 2.625e-10
 16.47747    137.7 9.920e+03 2.489e-10
 16.49730    138.9 9.918e+03 2.658e-10
 16.52706    141.0 1.007e+04 2.671e-10
 16.56672    143.2 1.007e+04 2.538e-10
 16.60638    145.4 1.006e+04 2.263e-10
 16.64603    147.5 1.001e+04 2.017e-10
 16.68569    149.7 1.003e+04 2.051e-10
 16.72191    151.8 1.015e+04 2.262e-10
 16.74174    152.5 1.025e+04 2.357e-10
 16.76500    153.9 1.025e+04 2.471e-10
 16.79464    155.0 1.028e+04 2.888e-10
 16.81437    156.5 1.043e+04 3.578e-10
 16.83420    158.2 1.065e+04 4.413e-10
 16.85385    159.9 1.089e+04 5.132e-10
 16.86377    160.4 1.089e+04 4.990e-10
 16.87385    161.8 1.112e+04 5.675e-10
 16.89368    162.2 1.162e+04 7.165e-10
 16.91351    162.1 1.305e+04 1.104e-09
 16.92614    161.4 1.471e+04 1.744e-09
 16.93105    158.5 1.554e+04 2.108e-09
 16.93820    157.7 1.640e+04 2.830e-09
 16.94811    156.5 1.762e+04 4.161e-09
 16.95803    154.9 1.901e+04 6.380e-09
 16.96794    153.4 2.049e+04 9.680e-09
 16.97785    152.2 2.202e+04 1.395e-08
 16.98589    151.2 2.343e+04 1.902e-08
 16.99085    150.7 2.085e+04 1.805e-08
 16.99768    149.9 2.176e+04 2.373e-08
 17.00759    149.3 2.292e+04 2.815e-08
 17.01751    148.6 2.449e+04 3.057e-08
 17.02742    147.7 2.571e+04 3.046e-08
 17.03734    146.3 2.596e+04 2.919e-08
 17.04700    144.6 2.626e+04 2.345e-08
 17.05196    143.5 2.556e+04 2.075e-08
 17.05661    140.6 2.457e+04 1.519e-08
 17.06156    137.1 2.042e+04 9.788e-09
 17.06708    134.2 1.849e+04 7.914e-09
 17.07699    132.1 1.745e+04 6.919e-09
 17.08691    131.0 1.751e+04 6.745e-09
 17.09682    130.4 1.764e+04 6.871e-09
 17.10673    129.8 1.818e+04 7.346e-09
 17.11307    129.2 1.913e+04 8.140e-09
 17.11802    127.7 2.124e+04 1.155e-08
 17.12656    127.1 2.264e+04 1.326e-08
 17.13647    126.8 2.373e+04 1.475e-08
 17.14639    126.8 2.426e+04 1.529e-08
 17.15630    127.0 2.434e+04 1.512e-08
 17.16622    127.3 2.427e+04 1.416e-08
 17.17418    127.5 2.377e+04 1.263e-08
 17.17914    126.9 2.331e+04 1.340e-08
 17.18604    126.9 2.302e+04 1.116e-08
 17.19213    126.8 2.234e+04 9.133e-09
 17.19713    126.7 1.752e+04 5.318e-09
 17.21093    126.7 1.638e+04 4.086e-09
 17.23043    127.1 1.541e+04 3.193e-09
 17.24034    125.7 1.547e+04 3.653e-09
 17.25058    126.3 1.493e+04 3.097e-09
 17.27041    127.3 1.469e+04 2.750e-09
 17.29024    128.4 1.461e+04 2.534e-09
 17.31007    129.7 1.454e+04 2.348e-09
 17.32989    130.9 1.437e+04 2.127e-09
 17.34972    131.9 1.397e+04 1.847e-09
 17.36256    132.8 1.335e+04 1.535e-09
 17.37248    132.9 1.387e+04 2.043e-09
 17.38938    133.7 1.341e+04 1.686e-09
 17.40920    134.4 1.268e+04 1.371e-09
 17.42903    135.1 1.196e+04 1.140e-09
 17.44839    135.8 1.141e+04 9.828e-10
 17.45831    135.7 1.044e+04 6.890e-10
 17.46869    136.6 1.034e+04 6.361e-10
 17.48478    137.6 1.029e+04 5.953e-10
 17.49470    137.6 1.044e+04 6.346e-10
 17.50834    138.5 1.037e+04 5.925e-10
 17.52817    139.4 1.031e+04 5.575e-10
 17.54800    140.3 1.028e+04 5.325e-10
 17.56783    141.1 1.025e+04 5.161e-10
 17.58765    141.9 1.025e+04 5.115e-10
 17.60701    142.7 1.025e+04 5.118e-10
 17.61692    142.5 1.026e+04 5.156e-10
 17.62731    143.2 1.026e+04 5.167e-10
 17.64714    143.8 1.027e+04 5.266e-10
 17.66696    144.2 1.030e+04 5.549e-10
 17.68679    144.6 1.041e+04 6.068e-10
 17.70662    144.9 1.062e+04 6.880e-10
 17.71943    144.8 1.088e+04 7.993e-10
 17.72935    144.6 1.035e+04 6.348e-10
 17.73914    144.5 1.062e+04 7.385e-10
 17.74905    143.7 1.063e+04 7.442e-10
 17.76610    143.2 1.095e+04 8.744e-10
 17.78593    142.5 1.125e+04 1.028e-09
 17.80576    141.8 1.147e+04 1.171e-09
 17.82559    140.6 1.208e+04 1.342e-09
 17.84541    137.1 1.467e+04 1.993e-09
 17.86136    130.5 1.966e+04 4.333e-09
 17.87127    130.0 1.781e+04 3.335e-09
 17.88507    123.0 2.023e+04 6.724e-09
 17.90490    117.3 2.073e+04 1.106e-08
 17.91972    113.9 2.089e+04 1.466e-08
 17.92733    110.8 2.168e+04 1.618e-08
 17.93229    109.2 2.085e+04 1.309e-08
 17.93950    107.2 2.197e+04 1.414e-08
 17.94941    103.8 2.310e+04 1.375e-08
 17.95933     99.9 2.433e+04 1.313e-08
 17.96924     96.3 2.478e+04 1.173e-08
 17.98051     89.1 2.638e+04 9.515e-09
 17.98985     93.4 2.399e+04 1.048e-08
 17.99349     93.2 1.919e+04 7.265e-09
 18.00404     86.0 1.839e+04 3.512e-09
 18.02386     79.1 1.522e+04 1.460e-09
 18.04369     73.3 1.184e+04 7.032e-10
 18.07353     69.3 1.037e+04 4.026e-10
 18.11328     67.6 9.527e+03 3.820e-10
 18.15294     68.2 9.483e+03 4.000e-10
 18.19259     69.3 9.577e+03 4.452e-10
 18.22822     70.7 9.769e+03 5.013e-10
 18.24805     71.5 9.413e+03 4.011e-10
 18.27191     72.6 9.560e+03 4.323e-10
 18.31156     73.9 9.538e+03 4.270e-10
 18.35122     75.3 9.414e+03 3.973e-10
 18.39087     76.9 9.221e+03 3.431e-10
 18.43053     78.4 9.026e+03 2.865e-10
 18.47018     79.9 8.873e+03 2.413e-10
 18.49249     81.3 8.763e+03 2.085e-10
 18.50549     80.7 8.445e+03 1.507e-10
 18.52284     79.6 8.283e+03 1.290e-10
 18.54949     80.9 8.219e+03 1.220e-10
 18.58915     82.3 8.219e+03 1.232e-10
 18.62880     83.8 8.245e+03 1.298e-10
 18.66846     85.2 8.351e+03 1.416e-10
 18.70812     86.6 8.498e+03 1.519e-10
 18.73693     87.7 8.667e+03 1.585e-10
 18.75676     88.0 8.505e+03 1.421e-10
 18.78743     89.0 8.595e+03 1.386e-10
 18.82708     89.8 8.646e+03 1.436e-10
 18.86674     90.6 8.708e+03 1.623e-10
 18.90639     91.4 8.751e+03 1.897e-10
 18.94605     92.4 8.758e+03 2.010e-10
 18.98137     93.3 8.726e+03 1.942e-10
 19.00120     93.5 8.794e+03 2.156e-10
 19.02526     94.1 8.758e+03 2.051e-10
 19.06492     93.9 8.647e+03 1.830e-10
 19.10467     94.4 8.665e+03 1.812e-10
 19.14433     94.9 8.739e+03 1.891e-10
 19.18398     95.4 9.006e+03 2.284e-10
 19.22364     95.8 9.409e+03 3.043e-10
 19.24554     95.9 9.586e+03 3.521e-10
 19.25536     95.8 9.584e+03 3.537e-10
 19.27301     96.2 9.754e+03 4.094e-10
 19.29284     96.7 1.006e+04 5.040e-10
 19.30602     97.1 1.043e+04 6.203e-10
 19.31594     95.9 1.052e+04 6.983e-10
 19.33249     95.9 1.079e+04 8.211e-10
 19.35232     95.7 1.102e+04 9.495e-10
 19.36766     95.4 1.121e+04 1.076e-09
 19.37758     95.8 1.109e+04 9.667e-10
 19.39198     95.4 1.125e+04 1.084e-09
 19.41181     94.7 1.144e+04 1.206e-09
 19.43163     93.0 1.184e+04 1.393e-09
 19.45146     88.5 1.308e+04 1.985e-09
 19.47129     80.8 1.609e+04 3.933e-09
 19.48988     73.9 1.862e+04 9.073e-09
 19.49975     73.2 1.880e+04 1.079e-08
 19.51089     69.5 1.995e+04 1.481e-08
 19.53077     64.6 1.974e+04 1.356e-08
 19.55060     60.2 1.855e+04 8.631e-09
 19.56715     54.8 1.665e+04 4.351e-09
 19.57706     54.5 1.653e+04 5.331e-09
 19.59025     48.7 1.546e+04 3.771e-09
 19.61008     44.9 1.462e+04 3.225e-09
 19.62202     44.1 1.406e+04 2.957e-09
 19.63193     44.5 1.404e+04 3.178e-09
 19.64974     44.7 1.344e+04 2.559e-09
 19.66957     44.7 1.262e+04 1.822e-09
 19.68939     44.1 1.169e+04 1.183e-09
 19.70922     41.6 1.068e+04 7.644e-10
 19.72905     38.2 1.068e+04 7.741e-10
 19.74424     30.9 1.231e+04 1.217e-09
 19.75415     27.8 1.356e+04 1.775e-09
 19.76870     22.4 1.455e+04 4.071e-09
 19.78853     22.1 1.540e+04 7.481e-09
 19.80836     21.6 1.636e+04 9.732e-09
 19.82819     18.3 1.867e+04 1.060e-08
 19.84802     16.0 1.895e+04 7.847e-09
 19.86646      8.9 1.680e+04 3.818e-09
 19.87637      5.8 1.546e+04 2.852e-09
 19.88767     -0.0 1.173e+04 1.568e-09
 19.90750     -0.7 1.128e+04 1.237e-09
 19.92733     -1.3 1.072e+04 9.123e-10
 19.94715     -2.0 1.033e+04 6.962e-10
 19.96698     -2.6 9.971e+03 5.389e-10
 19.98681     -2.7 9.861e+03 4.859e-10
 19.99859     -2.7 9.711e+03 4.580e-10
 20.00851     -2.9 9.734e+03 4.581e-10
 20.02646     -2.6 9.693e+03 4.583e-10
 20.04629     -1.5 9.612e+03 4.717e-10
 20.06612     -0.5 9.622e+03 4.827e-10
 20.08950      1.4 9.539e+03 4.658e-10
 20.10943      2.4 9.451e+03 4.534e-10
 20.13571      5.2 9.483e+03 4.733e-10
 20.17537      7.5 9.404e+03 4.228e-10
 20.21502      9.9 9.119e+03 3.685e-10
 20.24323     12.4 8.971e+03 3.319e-10
 20.26306     12.4 8.878e+03 3.233e-10
 20.29433     15.1 8.848e+03 2.920e-10
 20.33399     17.6 8.943e+03 2.794e-10
 20.37365     19.7 9.128e+03 3.014e-10
 20.41330     22.0 9.246e+03 3.568e-10
 20.45296     24.5 9.356e+03 4.241e-10
 20.48767     27.0 9.518e+03 4.935e-10
 20.50750     27.3 9.580e+03 4.921e-10
 20.53227     29.9 9.759e+03 5.382e-10
 20.57192     32.0 9.873e+03 5.410e-10
 20.61158     34.1 9.820e+03 5.258e-10
 20.63168     36.3 9.682e+03 4.800e-10
 20.65151     37.2 9.578e+03 4.342e-10
 20.69089     39.3 9.415e+03 3.761e-10
 20.73054     41.2 9.242e+03 3.194e-10
 20.75194     43.1 9.107e+03 2.744e-10
 20.77177     43.3 9.178e+03 2.942e-10
 20.80986     45.3 9.148e+03 2.704e-10
 20.84951     47.3 9.146e+03 2.444e-10
 20.88917     49.1 9.132e+03 2.175e-10
 20.92882     50.8 9.114e+03 2.043e-10
 20.96848     52.4 9.011e+03 1.983e-10
 20.99638     54.3 8.884e+03 1.959e-10
 21.01621     54.4 9.055e+03 2.223e-10
 21.04779     56.5 8.955e+03 2.176e-10
 21.08744     58.9 8.780e+03 1.971e-10
 21.12710     61.3 8.630e+03 1.572e-10
 21.15393     63.7 8.527e+03 1.130e-10
 21.17376     64.2 8.772e+03 1.900e-10
 21.20641     66.6 8.668e+03 1.457e-10
 21.24082     68.8 8.616e+03 1.057e-10
 21.26065     68.8 8.806e+03 1.308e-10
 21.28572     70.9 8.683e+03 9.556e-11
 21.32538     72.7 8.504e+03 7.871e-11
 21.36503     74.7 8.458e+03 7.996e-11
 21.40469     76.7 8.426e+03 8.780e-11
 21.44434     78.8 8.479e+03 1.025e-10
 21.48400     81.0 8.582e+03 1.217e-10
 21.50509     83.1 8.710e+03 1.437e-10
 21.52492     83.0 8.972e+03 1.827e-10
 21.56331     85.0 9.092e+03 2.035e-10
 21.60297     87.1 9.289e+03 2.310e-10
 21.64262     89.3 9.566e+03 2.690e-10
 21.67619     91.3 9.856e+03 3.162e-10
 21.69602     91.2 9.886e+03 3.167e-10
 21.71192     92.1 9.920e+03 3.392e-10
 21.73165     93.2 9.989e+03 3.709e-10
 21.74934     94.5 1.019e+04 4.286e-10
 21.75925     94.2 1.030e+04 4.464e-10
 21.77131     95.5 1.065e+04 5.274e-10
 21.79113     95.8 1.114e+04 6.544e-10
 21.81096     95.5 1.180e+04 8.873e-10
 21.83079     94.7 1.272e+04 1.349e-09
 21.85062     94.0 1.371e+04 2.205e-09
 21.87044     94.1 1.467e+04 3.569e-09
 21.88147     94.5 1.532e+04 4.810e-09
 21.89139     94.2 1.480e+04 3.866e-09
 21.91010     94.3 1.477e+04 3.774e-09
 21.92993     94.6 1.448e+04 3.229e-09
 21.94703     94.6 1.382e+04 2.322e-09
 21.95695     94.5 1.362e+04 2.276e-09
 21.96958     94.3 1.274e+04 1.512e-09
 21.98941     94.2 1.206e+04 9.940e-10
 22.00369     94.0 1.126e+04 6.842e-10
 22.01371     94.0 1.160e+04 8.665e-10
 22.02916     94.3 1.100e+04 6.244e-10
 22.04889     94.6 1.063e+04 5.168e-10
 22.06872     95.1 1.037e+04 4.587e-10
 22.08855     96.0 1.018e+04 4.345e-10
 22.10838     97.2 1.007e+04 4.322e-10
 22.12591     98.4 1.006e+04 4.329e-10
 22.13583     98.7 1.011e+04 4.535e-10
 22.14803    100.0 1.010e+04 4.593e-10
 22.16786    101.3 1.011e+04 4.819e-10
 22.18769    102.4 1.019e+04 5.221e-10
 22.20752    103.6 1.028e+04 5.744e-10
 22.21807    104.8 1.039e+04 6.356e-10
 22.22799    104.9 1.054e+04 6.669e-10
 22.24717    106.1 1.067e+04 7.413e-10
 22.25805    107.2 1.081e+04 8.224e-10
 22.26796    107.6 1.086e+04 8.460e-10
 22.28683    108.7 1.098e+04 9.282e-10
 22.30665    109.8 1.112e+04 1.013e-09
 22.32648    110.8 1.125e+04 1.102e-09
 22.34631    111.8 1.139e+04 1.194e-09
 22.36614    112.9 1.154e+04 1.289e-09
 22.38027    113.9 1.169e+04 1.404e-09
 22.39018    114.2 1.170e+04 1.393e-09
 22.40579    115.2 1.187e+04 1.531e-09
 22.42562    116.2 1.206e+04 1.696e-09
 22.44545    117.3 1.228e+04 1.880e-09
 22.46528    118.4 1.250e+04 2.058e-09
 22.47920    119.3 1.268e+04 2.196e-09
 22.48911    119.4 1.325e+04 3.005e-09
 22.50249    120.1 1.328e+04 3.006e-09
 22.51240    120.3 1.323e+04 2.887e-09
 22.52476    121.0 1.322e+04 2.856e-09
 22.54459    121.6 1.314e+04 2.707e-09
 22.56442    122.2 1.299e+04 2.485e-09
 22.58424    122.7 1.282e+04 2.265e-09
 22.60407    123.1 1.264e+04 2.077e-09
 22.62390    123.3 1.252e+04 1.956e-09
 22.63463    123.4 1.246e+04 1.904e-09
 22.64454    123.7 1.231e+04 1.787e-09
 22.67357    124.4 1.232e+04 1.813e-09
 22.71332    124.9 1.216e+04 1.740e-09
 22.74052    125.5 1.204e+04 1.693e-09
 22.75450    124.8 1.167e+04 1.497e-09
 22.76696    125.3 1.142e+04 1.331e-09
 22.79263    126.1 1.125e+04 1.261e-09
 22.83228    127.0 1.089e+04 1.101e-09
 22.87194    128.0 1.032e+04 8.413e-10
 22.91160    129.3 9.550e+03 5.553e-10
 22.95125    130.7 8.675e+03 3.249e-10
 22.99091    132.1 7.794e+03 1.789e-10
 23.01140    133.4 7.055e+03 1.037e-10
 23.03122    133.7 7.141e+03 1.088e-10
 23.07022    135.3 6.894e+03 8.345e-11
 23.10987    137.3 6.858e+03 7.987e-11
 23.14953    139.3 6.850e+03 7.979e-11
 23.18918    141.4 6.847e+03 8.000e-11
 23.22884    143.4 6.848e+03 8.123e-11
 23.25584    145.2 6.886e+03 8.468e-11
 23.26995    145.5 6.952e+03 9.255e-11
 23.28260    146.6 6.944e+03 9.388e-11
 23.30815    148.4 7.051e+03 1.042e-10
 23.34781    150.0 7.233e+03 1.233e-10
 23.38746    151.3 7.513e+03 1.544e-10
 23.42712    152.3 7.900e+03 2.011e-10
 23.46677    152.8 8.342e+03 2.636e-10
 23.50028    152.9 8.732e+03 3.278e-10
 23.52011    152.4 9.101e+03 4.088e-10
 23.53372    152.1 9.130e+03 4.119e-10
 23.54354    152.7 9.152e+03 4.188e-10
 23.55580    152.6 9.221e+03 4.339e-10
 23.57563    152.3 9.307e+03 4.386e-10
 23.59546    152.0 9.338e+03 4.396e-10
 23.61529    151.5 9.352e+03 4.327e-10
 23.63222    151.1 9.368e+03 4.251e-10
 23.64213    150.6 9.465e+03 4.593e-10
 23.65494    149.9 9.479e+03 4.438e-10
 23.67477    149.2 9.499e+03 4.434e-10
 23.69460    148.4 9.580e+03 4.543e-10
 23.71442    147.6 9.798e+03 4.969e-10
 23.73425    146.7 1.017e+04 5.948e-10
 23.75408    146.0 1.069e+04 7.730e-10
 23.76435    145.3 1.132e+04 1.064e-09
 23.77427    144.1 1.214e+04 1.617e-09
 23.79373    143.6 1.296e+04 2.264e-09
 23.80466    143.1 1.380e+04 3.155e-09
 23.81458    143.8 1.341e+04 2.757e-09
 23.83339    143.2 1.427e+04 3.713e-09
 23.85322    142.7 1.508e+04 4.924e-09
 23.87305    142.6 1.577e+04 6.151e-09
 23.88657    142.2 1.614e+04 6.696e-09
 23.89649    140.4 1.690e+04 7.399e-09
 23.91270    139.8 1.689e+04 7.333e-09
 23.93253    139.1 1.670e+04 6.756e-09
 23.95236    138.2 1.619e+04 5.487e-09
 23.97218    137.1 1.541e+04 4.064e-09
 23.99201    135.5 1.450e+04 2.941e-09
 24.00879    133.9 1.363e+04 2.244e-09
 24.01871    133.7 1.458e+04 2.897e-09
 24.03167    132.4 1.354e+04 2.084e-09
 24.05150    131.5 1.282e+04 1.609e-09
 24.06579    131.0 1.243e+04 1.348e-09
 24.07570    130.7 1.228e+04 1.265e-09
 24.10116    129.5 1.171e+04 8.383e-10
 24.14092    128.6 1.088e+04 5.177e-10
 24.18057    128.0 1.024e+04 3.415e-10
 24.22023    127.7 9.806e+03 2.637e-10
 24.25343    127.8 9.820e+03 2.341e-10
 24.27326    127.8 9.749e+03 2.257e-10
 24.29954    128.9 9.787e+03 2.166e-10
 24.32711    130.0 9.894e+03 2.047e-10
 24.34694    130.8 9.709e+03 2.036e-10
 24.37885    131.9 9.803e+03 1.883e-10
 24.41850    133.0 9.925e+03 1.839e-10
 24.45816    134.0 1.009e+04 1.872e-10
 24.48780    134.4 1.019e+04 1.876e-10
 24.50753    134.4 1.053e+04 2.012e-10
 24.52736    135.1 1.069e+04 2.035e-10
 24.54719    133.7 1.200e+04 3.153e-10
 24.56702    131.6 1.361e+04 7.662e-10
 24.58684    129.8 1.479e+04 1.999e-09
 24.59796    128.7 1.559e+04 4.012e-09
 24.60787    129.9 1.536e+04 2.644e-09
 24.62650    128.8 1.605e+04 4.480e-09
 24.63968    127.5 1.678e+04 6.792e-09
 24.64458    127.0 1.717e+04 6.392e-09
 24.65119    126.0 1.754e+04 1.006e-08
 24.66110    125.8 1.806e+04 1.323e-08
 24.67101    125.7 1.853e+04 1.461e-08
 24.68093    125.6 1.880e+04 1.533e-08
 24.69084    125.6 1.885e+04 1.551e-08
 24.70576    126.1 1.896e+04 1.621e-08
 24.72564    126.8 1.865e+04 1.029e-08
 24.74547    126.2 1.787e+04 3.893e-09
 24.76195    123.7 1.596e+04 1.142e-09
 24.77186    124.5 1.704e+04 1.581e-09
 24.78512    119.4 1.323e+04 5.529e-10
 24.81496    114.3 1.037e+04 3.945e-10
 24.84937    114.4 9.662e+03 3.656e-10
 24.86919    115.1 9.852e+03 2.953e-10
 24.89437    116.0 9.384e+03 2.776e-10
 24.93402    117.9 9.367e+03 2.799e-10
 24.97368    120.1 9.367e+03 2.943e-10
 25.00658    122.2 9.435e+03 3.291e-10
 25.02641    122.1 9.404e+03 3.183e-10
 25.05299    124.2 9.538e+03 3.752e-10
 25.09265    126.3 9.739e+03 4.515e-10
 25.13230    128.3 9.940e+03 5.225e-10
 25.17196    130.1 9.925e+03 5.109e-10
 25.21161    131.7 9.855e+03 4.711e-10
 25.25102    133.2 9.745e+03 4.167e-10
 25.27085    133.8 1.020e+04 6.010e-10
 25.29092    135.1 1.012e+04 5.502e-10
 25.33058    136.4 1.005e+04 5.176e-10
 25.37023    137.5 1.011e+04 5.385e-10
 25.39145    138.7 1.039e+04 6.307e-10
 25.41127    138.6 1.009e+04 4.907e-10
 25.44955    139.4 1.030e+04 5.454e-10
 25.48920    139.7 1.040e+04 5.668e-10
 25.51529    139.8 1.037e+04 5.512e-10
 25.53512    140.9 1.029e+04 5.013e-10
 25.56851    141.0 1.017e+04 4.537e-10
 25.60817    141.0 9.948e+03 3.550e-10
 25.64782    140.6 9.819e+03 2.798e-10
 25.68748    140.1 9.852e+03 2.735e-10
 25.72713    139.6 9.949e+03 2.900e-10
 25.75973    139.8 1.013e+04 3.415e-10
 25.77956    140.8 1.027e+04 3.962e-10
 25.80645    141.1 1.036e+04 4.338e-10
 25.84610    141.6 1.034e+04 4.359e-10
 25.88576    142.6 1.024e+04 4.152e-10
 25.91370    143.9 1.004e+04 3.478e-10
 25.93353    145.2 9.921e+03 3.210e-10
 25.96507    146.6 9.739e+03 2.646e-10
 26.00418    148.2 9.563e+03 2.042e-10
 26.02400    148.9 9.528e+03 2.342e-10
 26.04438    150.8 9.325e+03 1.705e-10
 26.08403    152.6 9.151e+03 1.263e-10
 26.12369    154.6 9.059e+03 1.033e-10
 26.16334    156.6 9.038e+03 9.759e-11
 26.20300    158.8 9.030e+03 9.879e-11
 26.24266    161.1 9.031e+03 1.024e-10
 26.26844    163.3 9.066e+03 1.085e-10
 26.28827    164.4 8.936e+03 9.323e-11
 26.32197    166.6 8.996e+03 1.050e-10
 26.36162    168.7 9.081e+03 1.207e-10
 26.40128    170.7 9.183e+03 1.391e-10
 26.43595    172.7 9.310e+03 1.584e-10
 26.45578    174.0 9.313e+03 1.563e-10
 26.48059    176.0 9.484e+03 1.818e-10
 26.51289    178.0 9.757e+03 2.130e-10
 26.53271    179.3 9.501e+03 2.038e-10
 26.55990    181.0 9.816e+03 2.281e-10
 26.59955    182.4 1.020e+04 2.564e-10
 26.62920    181.6 1.085e+04 3.300e-10
 26.64482    180.6 1.146e+04 4.897e-10
 26.65474    181.9 1.120e+04 3.825e-10
 26.66876    180.9 1.176e+04 6.072e-10
 26.68858    180.2 1.222e+04 9.910e-10
 26.70680    179.9 1.265e+04 1.472e-09
 26.71671    181.3 1.242e+04 1.197e-09
 26.72824    181.1 1.283e+04 1.673e-09
 26.74807    180.9 1.319e+04 1.903e-09
 26.76705    180.5 1.327e+04 1.872e-09
 26.77696    181.5 1.302e+04 1.692e-09
 26.78772    181.1 1.311e+04 1.585e-09
 26.80755    180.3 1.328e+04 1.334e-09
 26.82738    178.9 1.351e+04 1.124e-09
 26.84721    176.9 1.350e+04 1.087e-09
 26.86703    174.9 1.338e+04 1.114e-09
 26.88686    174.0 1.312e+04 1.159e-09
 26.89918    173.6 1.294e+04 1.153e-09
 26.90909    174.7 1.283e+04 1.021e-09
 26.92652    174.4 1.270e+04 1.025e-09
 26.95636    173.9 1.264e+04 1.052e-09
 26.97804    173.7 1.261e+04 1.039e-09
 26.99786    175.9 1.258e+04 1.058e-09
 27.02160    175.5 1.250e+04 1.024e-09
 27.04142    177.7 1.259e+04 1.059e-09
 27.07542    177.3 1.283e+04 1.168e-09
 27.11508    176.8 1.302e+04 1.259e-09
 27.15473    176.0 1.305e+04 1.326e-09
 27.19439    175.8 1.299e+04 1.338e-09
 27.23404    176.1 1.289e+04 1.326e-09
 27.26604    176.6 1.276e+04 1.243e-09
 27.28586    177.1 1.289e+04 1.239e-09
 27.31335    177.5 1.257e+04 1.087e-09
 27.35301    178.3 1.226e+04 9.346e-10
 27.39266    179.5 1.194e+04 7.819e-10
 27.43232    180.9 1.164e+04 6.413e-10
 27.47197    182.5 1.128e+04 4.943e-10
 27.50029    184.2 1.093e+04 3.707e-10
 27.51897    185.3 1.110e+04 4.103e-10
 27.53031    185.8 1.105e+04 4.008e-10
 27.55129    187.3 1.081e+04 3.269e-10
 27.59094    188.8 1.058e+04 2.634e-10
 27.63060    190.3 1.039e+04 2.157e-10
 27.67025    191.7 1.027e+04 1.843e-10
 27.70991    193.1 1.023e+04 1.679e-10
 27.74956    194.5 1.029e+04 1.595e-10
 27.77475    195.6 1.037e+04 1.635e-10
 27.79458    195.9 1.022e+04 1.464e-10
 27.82887    196.9 1.027e+04 1.469e-10
 27.86853    197.7 1.044e+04 1.596e-10
 27.90819    198.4 1.077e+04 2.161e-10
 27.94784    199.1 1.101e+04 3.149e-10
 27.98750    200.0 1.109e+04 4.144e-10
 28.01919    200.9 1.108e+04 4.498e-10
 28.03441    201.8 1.087e+04 3.781e-10
 28.04237    203.1 1.079e+04 3.209e-10
 28.06681    204.3 1.081e+04 3.561e-10
 28.10646    205.5 1.076e+04 3.495e-10
 28.14612    206.8 1.063e+04 3.222e-10
 28.18577    208.3 1.048e+04 2.725e-10
 28.22543    209.8 1.032e+04 2.286e-10
 28.26363    211.4 1.025e+04 2.088e-10
 28.28346    212.2 1.022e+04 2.058e-10
 28.30474    213.8 1.023e+04 2.071e-10
 28.34440    215.4 1.028e+04 2.193e-10
 28.38405    216.7 1.038e+04 2.450e-10
 28.42371    217.9 1.046e+04 2.755e-10
 28.46336    219.0 1.050e+04 2.960e-10
 28.50302    219.9 1.046e+04 3.002e-10
 28.52790    220.8 1.041e+04 2.886e-10
 28.54773    220.7 1.066e+04 3.119e-10
 28.56462    221.5 1.046e+04 2.871e-10
 28.58445    222.4 1.084e+04 3.595e-10
 28.62198    223.4 1.066e+04 3.341e-10
 28.66164    224.2 1.041e+04 2.949e-10
 28.70129    224.7 1.011e+04 2.554e-10
 28.74095    225.2 9.910e+03 2.350e-10
 28.77234    225.9 9.904e+03 2.352e-10
 28.79217    225.9 9.874e+03 2.309e-10
 28.82026    226.6 9.954e+03 2.423e-10
 28.85992    227.1 1.016e+04 2.776e-10
 28.89957    227.0 1.039e+04 3.312e-10
 28.93923    226.5 1.059e+04 3.929e-10
 28.97888    226.9 1.065e+04 4.571e-10
 29.01678    227.2 1.064e+04 5.095e-10
 29.03661    226.4 1.057e+04 4.585e-10
 29.05819    226.4 1.048e+04 4.462e-10
 29.08688    226.3 1.018e+04 3.748e-10
 29.10671    227.4 1.056e+04 4.699e-10
 29.13750    227.3 1.010e+04 3.402e-10
 29.17716    227.2 9.619e+03 2.291e-10
 29.21682    227.1 9.217e+03 1.560e-10
 29.25647    227.1 8.975e+03 1.204e-10
 29.28105    227.5 8.923e+03 1.156e-10
 29.30088    227.0 8.836e+03 1.110e-10
 29.33578    227.9 8.834e+03 1.110e-10
 29.37544    229.1 8.845e+03 1.127e-10
 29.41509    230.5 8.874e+03 1.206e-10
 29.45475    231.9 8.931e+03 1.365e-10
 29.49440    233.5 8.999e+03 1.559e-10
 29.52549    235.0 9.042e+03 1.680e-10
 29.54532    234.9 9.048e+03 1.672e-10
 29.57371    236.5 9.070e+03 1.724e-10
 29.60913    238.2 9.061e+03 1.708e-10
 29.62896    238.9 9.228e+03 1.922e-10
 29.65303    240.6 9.199e+03 1.863e-10
 29.69268    242.4 9.118e+03 1.737e-10
 29.73234    244.3 8.989e+03 1.600e-10
 29.76993    246.4 8.931e+03 1.531e-10
 29.78976    247.2 9.144e+03 1.823e-10
 29.81165    250.3 9.308e+03 1.901e-10
 29.84129    251.7 9.325e+03 1.892e-10
 29.86102    252.8 9.385e+03 1.917e-10
 29.87998    252.7 1.021e+04 2.117e-10
 29.88989    252.8 9.852e+03 2.048e-10
 29.90068    251.0 1.317e+04 2.515e-10
 29.91179    241.1 2.417e+04 6.479e-10
 29.92170    244.5 2.395e+04 5.153e-10
 29.93533    230.6 2.803e+04 3.834e-09
 29.94519    222.2 2.566e+04 1.509e-08
 29.95511    218.9 2.312e+04 3.375e-08
 29.96502    218.3 2.162e+04 4.706e-08
 29.97280    218.1 2.132e+04 4.676e-08
 29.97776    217.4 2.154e+04 4.362e-08
 29.98485    217.2 2.121e+04 3.805e-08
 29.99476    216.7 2.169e+04 2.492e-08
 30.00468    215.7 2.264e+04 1.436e-08
 30.01959    213.6 2.373e+04 6.915e-09
 30.03401    206.4 2.578e+04 1.564e-09
 30.04392    203.9 2.635e+04 1.442e-09
 30.05930    193.0 1.871e+04 3.877e-10
 30.07913    186.4 1.071e+04 3.436e-10
 30.09895    185.5 1.048e+04 3.208e-10
 30.11878    185.4 1.046e+04 2.984e-10
 30.13861    185.2 1.047e+04 2.847e-10
 30.15112    185.7 1.022e+04 2.438e-10
 30.17104    184.4 1.056e+04 2.793e-10
 30.20820    184.7 1.022e+04 2.340e-10
 30.24786    185.3 9.874e+03 2.050e-10
 30.27864    186.1 9.847e+03 2.049e-10
 30.29847    182.8 1.026e+04 2.736e-10
 30.32717    183.6 1.034e+04 2.762e-10
 30.36682    183.9 1.057e+04 2.917e-10
 30.40648    184.2 1.066e+04 3.240e-10
 30.43612    184.3 1.084e+04 4.215e-10
 30.45585    184.7 1.110e+04 5.444e-10
 30.47568    185.3 1.134e+04 6.734e-10
 30.49551    185.8 1.153e+04 7.646e-10
 30.51534    186.4 1.163e+04 8.077e-10
 30.53280    187.1 1.168e+04 8.201e-10
 30.54272    185.1 1.167e+04 7.301e-10
 30.55499    184.5 1.221e+04 6.813e-10
 30.57482    183.8 1.275e+04 6.564e-10
 30.58964    184.3 1.295e+04 6.686e-10
 30.59877    184.3 1.353e+04 7.096e-10
 30.60373    178.8 1.944e+04 9.303e-10
 30.60942    172.3 2.753e+04 2.182e-09
 30.61934    165.1 3.148e+04 7.831e-09
 30.62925    159.4 3.087e+04 2.375e-08
 30.63916    155.9 2.819e+04 5.421e-08
 30.64908    154.3 2.493e+04 9.625e-08
 30.65899    154.0 2.318e+04 1.285e-07
 30.66484    154.0 2.269e+04 1.448e-07
 30.66980    153.5 2.204e+04 9.921e-08
 30.67813    153.5 2.244e+04 7.969e-08
 30.68309    152.1 2.414e+04 4.067e-08
 30.68873    150.6 2.797e+04 1.678e-08
 30.69865    149.2 3.079e+04 8.046e-09
 30.71357    139.9 3.305e+04 1.183e-09
 30.73344    128.9 1.770e+04 9.200e-10
 30.75327    124.3 1.206e+04 1.223e-09
 30.77310    123.7 1.197e+04 1.502e-09
 30.78716    123.3 1.257e+04 1.772e-09
 30.79707    123.4 1.254e+04 1.701e-09
 30.81275    123.0 1.273e+04 1.820e-09
 30.83258    122.6 1.277e+04 1.832e-09
 30.85241    122.2 1.275e+04 1.761e-09
 30.88225    120.8 1.244e+04 1.413e-09
 30.92200    119.9 1.165e+04 8.141e-10
 30.96166    119.8 1.032e+04 3.457e-10
 31.00131    119.3 8.667e+03 1.426e-10
 31.03180    119.4 8.334e+03 1.195e-10
 31.05162    120.6 8.481e+03 1.402e-10
 31.08062    121.5 8.447e+03 1.406e-10
 31.12028    123.3 8.462e+03 1.497e-10
 31.15993    125.2 8.582e+03 1.745e-10
 31.19572    126.9 8.748e+03 1.966e-10
 31.21555    126.6 8.852e+03 2.114e-10
 31.23924    128.1 8.911e+03 2.131e-10
 31.27624    129.3 8.916e+03 2.089e-10
 31.29606    129.9 9.078e+03 2.379e-10
 31.31856    131.0 9.045e+03 2.140e-10
 31.35821    132.0 8.969e+03 1.838e-10
 31.39787    133.0 8.914e+03 1.608e-10
 31.43752    134.0 8.913e+03 1.563e-10
 31.47718    135.1 8.935e+03 1.581e-10
 31.51683    136.2 9.027e+03 1.681e-10
 31.54051    137.2 9.204e+03 1.876e-10
 31.56033    137.5 9.191e+03 1.828e-10
 31.59614    138.4 9.404e+03 2.035e-10
 31.63580    139.1 9.558e+03 2.089e-10
 31.67545    139.6 9.568e+03 2.054e-10
 31.71511    140.0 9.539e+03 1.907e-10
 31.73780    140.5 9.440e+03 1.745e-10
 31.75763    139.9 9.421e+03 1.744e-10
 31.78495    140.6 9.363e+03 1.735e-10
 31.80477    140.8 9.564e+03 2.026e-10
 31.83408    141.6 9.572e+03 2.092e-10
 31.87373    142.4 9.577e+03 2.181e-10
 31.91339    143.2 9.557e+03 2.174e-10
 31.95304    144.1 9.464e+03 2.082e-10
 31.99270    145.1 9.294e+03 1.830e-10
 32.02939    146.3 9.094e+03 1.515e-10
 32.04922    146.7 9.234e+03 1.737e-10
 32.07201    148.0 9.015e+03 1.367e-10
 32.11167    149.1 8.879e+03 1.166e-10
 32.15132    150.4 8.823e+03 1.133e-10
 32.19098    151.6 8.825e+03 1.155e-10
 32.23063    152.9 8.831e+03 1.229e-10
 32.26006    154.1 8.918e+03 1.388e-10
 32.27988    153.7 8.839e+03 1.355e-10
 32.29366    154.9 9.017e+03 1.609e-10
 32.31348    155.6 9.065e+03 1.646e-10
 32.34960    156.4 9.433e+03 2.217e-10
 32.38925    156.4 9.865e+03 3.118e-10
 32.42891    156.1 1.022e+04 4.036e-10
 32.45855    155.6 1.078e+04 6.083e-10
 32.47828    155.3 1.117e+04 7.827e-10
 32.49811    154.7 1.148e+04 8.360e-10
 32.51794    153.9 1.150e+04 8.313e-10
 32.53090    152.8 1.148e+04 7.950e-10
 32.54082    152.8 1.134e+04 7.287e-10
 32.54782    151.7 1.128e+04 6.865e-10
 32.55773    152.0 1.146e+04 7.847e-10
 32.57742    150.9 1.134e+04 7.232e-10
 32.59725    149.9 1.118e+04 6.629e-10
 32.61708    149.1 1.102e+04 6.134e-10
 32.63690    148.5 1.090e+04 5.735e-10
 32.65673    148.0 1.083e+04 5.408e-10
 32.67004    147.5 1.080e+04 5.123e-10
 32.67995    147.5 1.079e+04 4.957e-10
 32.69639    147.0 1.077e+04 4.936e-10
 32.71622    146.6 1.078e+04 4.978e-10
 32.73604    146.0 1.086e+04 5.215e-10
 32.75587    145.3 1.105e+04 5.914e-10
 32.77570    144.4 1.142e+04 7.281e-10
 32.79203    143.8 1.189e+04 9.339e-10
 32.79867    144.1 1.189e+04 9.330e-10
 32.80217    144.9 1.178e+04 8.965e-10
 32.81535    143.9 1.240e+04 1.127e-09
 32.83518    142.8 1.284e+04 1.309e-09
 32.85501    141.4 1.316e+04 1.340e-09
 32.87484    140.1 1.310e+04 1.320e-09
 32.89467    138.4 1.315e+04 1.250e-09
 32.91448    136.8 1.302e+04 1.136e-09
 32.93431    136.0 1.284e+04 9.382e-10
 32.95415    133.4 1.282e+04 8.911e-10
 32.97398    130.8 1.280e+04 8.925e-10
 32.99380    128.4 1.277e+04 9.062e-10
 33.01363    126.3 1.274e+04 9.441e-10
 33.03346    124.3 1.275e+04 9.890e-10
 33.04661    122.5 1.272e+04 1.017e-09
 33.05640    123.4 1.274e+04 1.023e-09
 33.06307    123.6 1.272e+04 1.016e-09
 33.07311    121.9 1.271e+04 1.036e-09
 33.09294    120.4 1.268e+04 1.030e-09
 33.11277    119.2 1.250e+04 9.931e-10
 33.13260    118.4 1.223e+04 9.042e-10
 33.15243    117.9 1.192e+04 7.800e-10
 33.16883    117.5 1.166e+04 6.266e-10
 33.17875    118.0 1.171e+04 6.840e-10
 33.19208    117.6 1.147e+04 5.348e-10
 33.21191    116.7 1.131e+04 3.892e-10
 33.23174    115.9 1.114e+04 3.108e-10
 33.26158    115.5 1.087e+04 2.569e-10
 33.29125    115.8 1.062e+04 2.441e-10
 33.31108    116.7 1.074e+04 2.630e-10
 33.32439    117.2 1.072e+04 2.671e-10
 33.34422    117.6 1.078e+04 2.908e-10
 33.38064    118.0 1.072e+04 3.066e-10
 33.41028    118.0 1.070e+04 3.361e-10
 33.42319    118.1 1.068e+04 3.460e-10
 33.43310    118.5 1.067e+04 3.464e-10
 33.44984    119.1 1.064e+04 3.801e-10
 33.46967    119.8 1.068e+04 4.331e-10
 33.48950    120.3 1.078e+04 4.865e-10
 33.50933    120.6 1.087e+04 5.292e-10
 33.52915    120.9 1.093e+04 5.582e-10
 33.54541    121.2 1.099e+04 5.710e-10
 33.55532    121.8 1.118e+04 6.705e-10
 33.56881    122.0 1.123e+04 6.730e-10
 33.58532    122.3 1.124e+04 6.710e-10
 33.59524    122.5 1.142e+04 7.478e-10
 33.60846    122.8 1.142e+04 7.389e-10
 33.62829    123.1 1.138e+04 7.153e-10
 33.64812    123.4 1.131e+04 6.837e-10
 33.66763    123.6 1.127e+04 6.583e-10
 33.67754    124.4 1.140e+04 7.381e-10
 33.68777    124.6 1.134e+04 7.051e-10
 33.70760    124.9 1.137e+04 7.103e-10
 33.72743    125.0 1.149e+04 7.461e-10
 33.74726    125.1 1.168e+04 8.473e-10
 33.76709    125.4 1.192e+04 1.013e-09
 33.78691    125.7 1.220e+04 1.234e-09
 33.79977    126.1 1.249e+04 1.464e-09
 33.80968    127.1 1.225e+04 1.256e-09
 33.82657    127.4 1.249e+04 1.435e-09
 33.84640    127.7 1.263e+04 1.535e-09
 33.86622    128.0 1.230e+04 1.341e-09
 33.88605    128.3 1.220e+04 1.285e-09
 33.90588    128.9 1.191e+04 1.139e-09
 33.92199    129.5 1.153e+04 9.281e-10
 33.93190    130.3 1.185e+04 1.079e-09
 33.94554    131.0 1.155e+04 9.073e-10
 33.96536    131.5 1.124e+04 7.025e-10
 33.98519    131.9 1.092e+04 5.320e-10
 34.00502    132.2 1.064e+04 4.114e-10
 34.02485    132.4 1.034e+04 3.289e-10
 34.04421    132.6 1.012e+04 2.952e-10
 34.05412    134.1 1.067e+04 4.126e-10
 34.06450    134.4 1.035e+04 3.751e-10
 34.08433    134.8 1.028e+04 3.755e-10
 34.10416    135.2 1.026e+04 3.926e-10
 34.11749    135.7 1.033e+04 4.529e-10
 34.12740    135.2 1.028e+04 4.448e-10
 34.14381    135.3 1.057e+04 5.508e-10
 34.16364    135.3 1.094e+04 6.789e-10
 34.17634    134.8 1.143e+04 8.434e-10
 34.18625    135.9 1.201e+04 1.037e-09
 34.20330    134.7 1.271e+04 1.304e-09
 34.22312    132.2 1.362e+04 1.787e-09
 34.24295    128.2 1.473e+04 2.662e-09
 34.26278    123.1 1.655e+04 4.462e-09
 34.28261    118.3 1.788e+04 6.981e-09
 34.29856    113.6 1.843e+04 8.277e-09
 34.30848    112.8 1.954e+04 1.135e-08
 34.32226    107.9 1.941e+04 1.088e-08
 34.34209    103.1 1.888e+04 8.974e-09
 34.36192     98.2 1.798e+04 6.540e-09
 34.37862     93.2 1.673e+04 4.870e-09
 34.38853     94.4 1.666e+04 4.817e-09
 34.40157     90.7 1.559e+04 3.893e-09
 34.42078     88.3 1.468e+04 3.211e-09
 34.43070     87.2 1.519e+04 3.779e-09
 34.44123     85.8 1.427e+04 2.816e-09
 34.46106     84.6 1.345e+04 2.016e-09
 34.48088     83.3 1.275e+04 1.488e-09
 34.50071     82.1 1.218e+04 1.134e-09
 34.52054     81.0 1.162e+04 8.652e-10
 34.54037     79.9 1.104e+04 6.574e-10
 34.55292     78.9 1.052e+04 5.138e-10
 34.56283     76.7 1.023e+04 4.610e-10
 34.58002     76.2 9.949e+03 4.111e-10
 34.59985     75.0 9.912e+03 3.883e-10
 34.61968     74.8 9.879e+03 3.820e-10
 34.64952     75.0 9.681e+03 3.543e-10
 34.68927     75.0 9.262e+03 2.852e-10
 34.72893     75.0 8.822e+03 2.148e-10
 34.76858     74.6 8.711e+03 1.931e-10
 34.79755     73.9 8.804e+03 2.042e-10
 34.81738     70.9 8.892e+03 2.127e-10
 34.84789     69.5 9.466e+03 3.078e-10
 34.88755     67.7 1.027e+04 4.556e-10
 34.91088     67.0 1.060e+04 5.291e-10
 34.92070     67.6 1.023e+04 4.350e-10
 34.92949     66.8 1.073e+04 5.323e-10
 34.93941     64.8 1.110e+04 6.209e-10
 34.95675     62.8 1.180e+04 9.241e-10
 34.97658     61.3 1.225e+04 1.291e-09
 34.99641     60.5 1.253e+04 1.611e-09
 35.01623     60.2 1.264e+04 1.721e-09
 35.03606     60.0 1.253e+04 1.663e-09
 35.05171     59.9 1.224e+04 1.433e-09
 35.06163     59.1 1.277e+04 1.776e-09
 35.07572     58.8 1.223e+04 1.342e-09
 35.09554     58.0 1.156e+04 9.659e-10
 35.11537     57.1 1.082e+04 6.932e-10
 35.13520     56.4 1.024e+04 5.267e-10
 35.15503     56.0 9.852e+03 4.221e-10
 35.17191     55.9 9.603e+03 3.638e-10
 35.18090     56.2 9.772e+03 4.241e-10
 35.18385     56.1 1.004e+04 4.969e-10
 35.19468     56.3 9.876e+03 4.373e-10
 35.21451     56.2 9.857e+03 4.035e-10
 35.23434     55.6 1.000e+04 4.176e-10
 35.25417     52.1 1.150e+04 5.940e-10
 35.27399     42.6 1.562e+04 1.720e-09
 35.29382     36.2 1.755e+04 4.402e-09
 35.30607     33.5 1.778e+04 7.644e-09
 35.31598     33.1 1.773e+04 1.055e-08
 35.33348     33.5 1.669e+04 7.766e-09
 35.35330     32.2 1.571e+04 3.693e-09
 35.37313     27.7 1.539e+04 1.235e-09
 35.39296     20.3 1.445e+04 4.309e-10
 35.41279     12.9 1.192e+04 2.596e-10
 35.42829     10.1 1.026e+04 2.908e-10
 35.43820      8.6 1.010e+04 3.667e-10
 35.44295      9.3 1.008e+04 4.760e-10
 35.45287      9.6 1.015e+04 5.056e-10
 35.47227     10.4 1.030e+04 6.311e-10
 35.49210     10.8 1.082e+04 7.330e-10
 35.51193     10.1 1.158e+04 8.016e-10
 35.53175      8.2 1.177e+04 9.007e-10
 35.55051      6.1 1.153e+04 1.055e-09
 35.56042      5.8 1.112e+04 8.679e-10
 35.57141      4.4 1.150e+04 1.000e-09
 35.59124      3.5 1.224e+04 1.219e-09
 35.61107      1.8 1.279e+04 1.380e-09
 35.63089     -1.4 1.290e+04 1.447e-09
 35.65072     -4.9 1.338e+04 1.610e-09
 35.67055     -8.4 1.381e+04 1.875e-09
 35.68264    -12.7 1.379e+04 1.946e-09
 35.69256    -13.1 1.432e+04 2.491e-09
 35.70408    -16.0 1.399e+04 2.385e-09
 35.71399    -15.9 1.397e+04 2.395e-09
 35.73003    -17.7 1.384e+04 2.183e-09
 35.74986    -19.5 1.362e+04 1.924e-09
 35.76969    -21.1 1.339e+04 1.717e-09
 35.78951    -22.2 1.317e+04 1.541e-09
 35.80486    -23.1 1.299e+04 1.466e-09
 35.81478    -23.6 1.290e+04 1.435e-09
 35.82917    -23.5 1.291e+04 1.430e-09
 35.84900    -26.0 1.441e+04 2.061e-09
 35.86382    -29.4 1.718e+04 3.275e-09
 35.87083    -33.7 2.326e+04 3.125e-09
 35.87579    -37.2 2.961e+04 3.066e-09
 35.88360    -53.6 4.128e+04 1.158e-08
 35.89351    -67.4 2.956e+04 1.348e-07
 35.90092    -72.2 2.499e+04 4.110e-07
 35.90382    -77.9 2.200e+04 1.180e-06
 35.90518    -77.0 2.195e+04 1.272e-06
 35.90721    -77.6 2.044e+04 2.152e-06
 35.91081    -79.9 1.879e+04 4.285e-06
 35.91577    -80.7 1.847e+04 5.297e-06
 35.92073    -81.0 1.833e+04 5.456e-06
 35.92568    -79.3 1.836e+04 4.574e-06
 35.93064    -77.3 1.873e+04 3.445e-06
 35.93437    -76.5 1.964e+04 2.237e-06
 35.93685    -70.6 1.864e+04 3.527e-06
 35.94055    -70.6 1.999e+04 1.754e-06
 35.94551    -74.0 2.315e+04 6.433e-07
 35.95297    -80.4 2.790e+04 2.007e-07
 35.96291    -89.7 3.541e+04 3.277e-08
 35.97007    -96.5 3.609e+04 6.509e-09
 35.97502   -102.0 3.364e+04 3.043e-09
 35.98774   -107.4 2.344e+04 1.961e-09
 36.00762   -107.0 1.697e+04 1.682e-09
 36.02745   -104.8 1.363e+04 1.525e-09
 36.04728   -102.2 1.243e+04 1.445e-09
 36.05922    -99.5 1.226e+04 1.334e-09
 36.06913    -99.5 1.249e+04 1.748e-09
 36.08693    -96.9 1.250e+04 1.683e-09
 36.10676    -94.4 1.251e+04 1.596e-09
 36.12659    -92.0 1.249e+04 1.509e-09
 36.14641    -89.7 1.249e+04 1.424e-09
 36.16624    -87.4 1.253e+04 1.333e-09
 36.18144    -85.1 1.251e+04 1.288e-09
 36.19135    -85.8 1.292e+04 1.682e-09
 36.20590    -83.7 1.290e+04 1.614e-09
 36.22572    -82.6 1.379e+04 1.791e-09
 36.23625    -82.5 1.530e+04 2.090e-09
 36.24115    -86.0 1.578e+04 2.023e-09
 36.24741    -86.1 1.595e+04 2.135e-09
 36.25237    -88.1 1.765e+04 2.317e-09
 36.26033    -88.0 1.852e+04 2.750e-09
 36.27024    -90.4 2.183e+04 3.377e-09
 36.28015    -94.2 2.670e+04 5.563e-09
 36.29007    -98.8 2.873e+04 1.300e-08
 36.29998   -103.2 2.769e+04 3.530e-08
 36.30852   -106.8 2.604e+04 8.677e-08
 36.31348   -107.8 2.528e+04 9.726e-08
 36.31981   -110.1 2.419e+04 1.809e-07
 36.32972   -112.7 2.486e+04 2.187e-07
 36.33964   -117.5 2.576e+04 2.101e-07
 36.34955   -126.7 3.100e+04 8.439e-08
 36.35946   -144.2 3.990e+04 1.011e-08
 36.36671   -170.9 3.385e+04 9.207e-10
 36.37167   -184.1 1.634e+04 6.909e-10
 36.37459   -190.2 1.282e+04 5.756e-10
 36.37954   -190.6 1.292e+04 5.801e-10
 36.38921   -193.9 1.231e+04 5.355e-10
 36.40413   -198.5 1.174e+04 5.071e-10
 36.42400   -206.1 1.096e+04 4.981e-10
 36.43580   -210.6 1.092e+04 5.029e-10
 36.44571   -210.2 1.089e+04 5.069e-10
 36.46366   -213.7 1.093e+04 5.575e-10
 36.48349   -216.5 1.103e+04 6.028e-10
 36.49737   -218.7 1.111e+04 6.395e-10
 36.50729   -216.7 1.085e+04 5.582e-10
 36.52314   -218.4 1.090e+04 5.808e-10
 36.54297   -219.8 1.090e+04 5.896e-10
 36.55802   -220.9 1.089e+04 5.903e-10
 36.56793   -221.5 1.106e+04 6.364e-10
 36.59264   -223.1 1.094e+04 6.315e-10
 36.63239   -225.0 1.046e+04 5.456e-10
 36.67204   -225.7 1.017e+04 4.528e-10
 36.71170   -226.1 9.959e+03 3.992e-10
 36.75136   -226.2 9.907e+03 3.837e-10
 36.79101   -226.1 9.904e+03 3.818e-10
 36.81257   -225.9 9.936e+03 3.845e-10
 36.83239   -227.3 9.959e+03 3.939e-10
 36.87032   -227.2 1.008e+04 4.241e-10
 36.90998   -227.0 1.016e+04 4.572e-10
 36.94963   -226.6 1.021e+04 4.818e-10
 36.98929   -226.1 1.026e+04 4.979e-10
 37.01982   -225.6 1.027e+04 5.043e-10
 37.03965   -225.7 1.022e+04 4.867e-10
 37.05701   -225.5 1.022e+04 4.883e-10
 37.07684   -226.9 9.999e+03 4.392e-10
 37.10825   -226.6 9.976e+03 4.341e-10
 37.14791   -226.3 9.956e+03 4.304e-10
 37.18757   -226.1 9.951e+03 4.302e-10
 37.22722   -225.9 9.946e+03 4.335e-10
 37.26688   -225.8 9.939e+03 4.354e-10
 37.30145   -225.8 9.855e+03 4.150e-10
 37.32128   -226.2 9.550e+03 3.462e-10
 37.34619   -226.0 9.445e+03 3.174e-10
 37.38584   -225.8 9.282e+03 2.694e-10
 37.42550   -225.8 9.085e+03 2.159e-10
 37.46515   -225.9 8.903e+03 1.705e-10
 37.50481   -226.0 8.786e+03 1.395e-10
 37.54208   -226.2 8.749e+03 1.226e-10
 37.56190   -226.8 8.752e+03 1.202e-10
 37.56572   -227.1 8.760e+03 1.188e-10
 37.58555   -226.5 8.751e+03 1.173e-10
 37.62378   -226.8 8.760e+03 1.170e-10
 37.66343   -227.0 8.846e+03 1.197e-10
 37.70309   -227.1 8.925e+03 1.295e-10
 37.74274   -227.0 8.975e+03 1.426e-10
 37.78240   -226.5 8.998e+03 1.572e-10
 37.81016   -226.0 9.040e+03 1.742e-10
 37.82999   -225.2 9.021e+03 1.587e-10
 37.86171   -224.9 9.150e+03 1.858e-10
 37.90136   -224.9 9.417e+03 2.300e-10
 37.94102   -224.9 9.912e+03 3.074e-10
 37.98067   -225.7 1.060e+04 4.431e-10
 38.02033   -227.1 1.127e+04 6.493e-10
 38.05460   -228.8 1.174e+04 8.848e-10
 38.07443   -227.4 1.157e+04 8.154e-10
 38.08416   -229.3 1.185e+04 1.013e-09
 38.10399   -230.2 1.171e+04 9.685e-10
 38.13930   -231.7 1.176e+04 1.044e-09
 38.17895   -232.8 1.174e+04 1.050e-09
 38.21861   -233.6 1.142e+04 9.471e-10
 38.25826   -233.8 1.095e+04 7.473e-10
 38.29792   -233.6 1.057e+04 5.965e-10
 38.31887   -232.8 1.040e+04 5.326e-10
 38.33870   -231.4 1.034e+04 5.197e-10
 38.37723   -230.2 1.031e+04 5.075e-10
 38.41689   -229.4 1.039e+04 5.356e-10
 38.45654   -229.2 1.144e+04 8.629e-10
 38.49620   -229.1 1.267e+04 1.607e-09
 38.52584   -229.3 1.374e+04 3.000e-09
 38.54557   -229.5 1.408e+04 3.600e-09
 38.56312   -230.0 1.421e+04 3.819e-09
 38.57303   -229.7 1.460e+04 4.341e-09
 38.58523   -230.5 1.462e+04 4.396e-09
 38.60505   -231.0 1.446e+04 4.237e-09
 38.61613   -231.3 1.401e+04 3.504e-09
 38.62604   -231.8 1.447e+04 3.840e-09
 38.64471   -232.2 1.393e+04 2.999e-09
 38.66454   -232.7 1.339e+04 2.347e-09
 38.68436   -233.2 1.292e+04 1.922e-09
 38.69525   -233.5 1.256e+04 1.676e-09
 38.70516   -233.2 1.285e+04 1.941e-09
 38.72402   -233.3 1.256e+04 1.775e-09
 38.74385   -233.3 1.236e+04 1.706e-09
 38.76368   -233.1 1.226e+04 1.690e-09
 38.78350   -232.7 1.223e+04 1.691e-09
 38.80333   -232.5 1.219e+04 1.718e-09
 38.81747   -232.3 1.219e+04 1.740e-09
 38.82739   -231.9 1.215e+04 1.717e-09
 38.84299   -231.7 1.208e+04 1.719e-09
 38.86281   -231.6 1.202e+04 1.684e-09
 38.87726   -231.5 1.197e+04 1.630e-09
 38.88717   -231.6 1.206e+04 1.669e-09
 38.90247   -231.6 1.197e+04 1.584e-09
 38.92230   -231.5 1.183e+04 1.476e-09
 38.93969   -231.4 1.166e+04 1.352e-09
 38.94961   -231.0 1.179e+04 1.428e-09
 38.96195   -231.0 1.163e+04 1.303e-09
 38.98178   -230.9 1.143e+04 1.167e-09
 39.00161   -230.8 1.119e+04 1.031e-09
 39.02144   -230.6 1.095e+04 9.073e-10
 39.04126   -230.3 1.072e+04 8.017e-10
 39.06109   -230.0 1.052e+04 7.178e-10
 39.07183   -229.6 1.037e+04 6.557e-10
 39.08174   -229.3 1.056e+04 7.319e-10
 39.10075   -228.8 1.046e+04 6.853e-10
 39.12057   -228.3 1.039e+04 6.488e-10
 39.13838   -227.9 1.033e+04 6.199e-10
 39.14840   -228.9 1.039e+04 6.451e-10
 39.17034   -227.6 1.016e+04 5.535e-10
 39.20999   -226.5 1.011e+04 5.268e-10
 39.24965   -225.6 1.012e+04 5.255e-10
 39.28931   -225.3 1.020e+04 5.316e-10
 39.31646   -225.5 1.084e+04 6.453e-10
 39.33629   -224.1 1.033e+04 4.926e-10
 39.36862   -225.3 1.151e+04 7.866e-10
 39.39826   -226.9 1.257e+04 1.482e-09
 39.40942   -227.5 1.306e+04 1.935e-09
 39.41934   -226.6 1.294e+04 1.699e-09
 39.43782   -227.2 1.355e+04 2.264e-09
 39.44840   -228.3 1.391e+04 2.589e-09
 39.45832   -227.4 1.378e+04 2.445e-09
 39.47747   -228.7 1.389e+04 2.532e-09
 39.49730   -230.1 1.381e+04 2.425e-09
 39.51713   -231.7 1.330e+04 1.856e-09
 39.53696   -233.5 1.249e+04 1.313e-09
 39.55678   -235.1 1.173e+04 1.018e-09
 39.57062   -236.1 1.138e+04 9.264e-10
 39.58054   -235.7 1.147e+04 9.567e-10
 39.59644   -236.2 1.139e+04 9.416e-10
 39.61627   -236.4 1.138e+04 9.580e-10
 39.63610   -236.4 1.148e+04 1.032e-09
 39.65592   -236.3 1.155e+04 1.089e-09
 39.67055   -236.1 1.156e+04 1.101e-09
 39.68047   -236.1 1.165e+04 1.222e-09
 39.69284   -235.7 1.164e+04 1.222e-09
 39.70276   -235.5 1.192e+04 1.403e-09
 39.71541   -235.0 1.174e+04 1.371e-09
 39.73523   -234.3 1.144e+04 1.182e-09
 39.75506   -233.6 1.109e+04 9.268e-10
 39.77489   -232.8 1.070e+04 6.919e-10
 39.79472   -232.0 1.035e+04 5.120e-10
 39.81455   -231.0 1.012e+04 4.024e-10
 39.82508   -230.2 1.001e+04 3.434e-10
 39.83499   -230.0 1.002e+04 4.015e-10
 39.85420   -229.0 9.938e+03 3.622e-10
 39.88404   -228.4 9.900e+03 3.389e-10
 39.92379   -227.2 9.779e+03 2.939e-10
 39.96345   -225.5 9.620e+03 2.533e-10
 40.00310   -223.7 9.491e+03 2.233e-10
 40.04276   -221.8 9.401e+03 2.018e-10
 40.06961   -219.9 9.334e+03 1.855e-10
 40.08944   -219.9 9.448e+03 1.905e-10
 40.12207   -217.9 9.342e+03 1.711e-10
 40.16173   -215.9 9.267e+03 1.581e-10
 40.19300   -213.7 9.239e+03 1.508e-10
 40.21283   -213.5 9.347e+03 1.770e-10
 40.24104   -211.4 9.334e+03 1.758e-10
 40.28069   -209.2 9.333e+03 1.766e-10
 40.31406   -207.1 9.414e+03 1.904e-10
 40.33388   -207.0 9.398e+03 1.707e-10
 40.36000   -205.0 9.497e+03 1.864e-10
 40.39966   -203.0 9.598e+03 2.045e-10
 40.43931   -201.0 9.673e+03 2.195e-10
 40.47897   -199.2 9.705e+03 2.266e-10
 40.51862   -197.5 9.709e+03 2.279e-10
 40.55828   -195.7 9.695e+03 2.267e-10
 40.57833   -194.0 9.648e+03 2.160e-10
 40.59815   -193.6 9.570e+03 1.902e-10
 40.63759   -191.8 9.528e+03 1.751e-10
 40.67725   -190.1 9.507e+03 1.616e-10
 40.71525   -188.3 9.502e+03 1.519e-10
 40.73508   -188.2 9.547e+03 1.632e-10
 40.75656   -186.5 9.526e+03 1.480e-10
 40.79621   -184.8 9.522e+03 1.352e-10
 40.82277   -183.1 9.546e+03 1.253e-10
 40.84259   -182.8 9.542e+03 1.280e-10
 40.87552   -181.2 9.578e+03 1.201e-10
 40.91518   -179.7 9.620e+03 1.172e-10
 40.95484   -178.3 9.636e+03 1.170e-10
 40.99449   -177.1 9.711e+03 1.181e-10
 41.03415   -175.9 9.797e+03 1.216e-10
 41.06721   -174.8 9.892e+03 1.257e-10
 41.08704   -174.1 9.795e+03 1.190e-10
 41.11346   -172.9 9.864e+03 1.208e-10
 41.15311   -171.8 9.973e+03 1.225e-10
 41.19277   -170.8 1.016e+04 1.273e-10
 41.23242   -169.9 1.040e+04 1.418e-10
 41.25734   -169.2 1.058e+04 1.736e-10
 41.27716   -168.8 1.064e+04 1.791e-10
 41.31165   -168.3 1.084e+04 2.409e-10
 41.35130   -165.8 1.081e+04 2.418e-10
 41.39105   -165.4 1.101e+04 3.275e-10
 41.43070   -165.1 1.124e+04 4.471e-10
 41.47036   -165.0 1.152e+04 5.954e-10
 41.51001   -164.8 1.176e+04 7.485e-10
 41.54967   -164.6 1.187e+04 8.652e-10
 41.57592   -164.5 1.186e+04 9.027e-10
 41.59575   -162.5 1.177e+04 8.341e-10
 41.62898   -162.4 1.178e+04 8.481e-10
 41.66863   -162.0 1.158e+04 8.225e-10
 41.70829   -160.7 1.114e+04 6.962e-10
 41.74794   -159.1 1.073e+04 5.577e-10
 41.77959   -157.4 1.041e+04 4.332e-10
 41.79942   -157.5 1.045e+04 4.024e-10
 41.82036   -156.0 1.016e+04 2.997e-10
 41.84019   -154.8 1.055e+04 4.056e-10
 41.86691   -153.3 1.026e+04 3.048e-10
 41.90657   -151.4 9.938e+03 2.087e-10
 41.94622   -149.6 9.673e+03 1.386e-10
 41.98588   -147.8 9.472e+03 9.481e-11
 42.02553   -146.0 9.325e+03 7.271e-11
 42.06480   -144.1 9.230e+03 6.271e-11
 42.08463   -143.4 9.442e+03 9.257e-11
 42.10484   -141.5 9.378e+03 8.129e-11
 42.14450   -139.7 9.362e+03 7.767e-11
 42.18415   -137.9 9.362e+03 7.700e-11
 42.22381   -136.3 9.369e+03 8.194e-11
 42.26347   -135.0 9.430e+03 1.104e-10
 42.30184   -133.7 9.568e+03 1.656e-10
 42.32167   -133.6 9.530e+03 1.970e-10
 42.32907   -132.2 9.698e+03 2.524e-10
 42.34890   -131.7 9.999e+03 3.078e-10
 42.38243   -130.6 1.011e+04 3.409e-10
 42.42209   -129.7 1.015e+04 3.510e-10
 42.46174   -128.9 1.013e+04 3.480e-10
 42.50140   -128.1 1.002e+04 3.057e-10
 42.54105   -127.5 9.875e+03 2.510e-10
 42.57351   -126.8 9.745e+03 2.071e-10
 42.59334   -126.4 9.694e+03 1.629e-10
 42.62036   -125.7 9.611e+03 1.502e-10
 42.66002   -124.9 9.580e+03 1.476e-10
 42.69968   -123.8 9.558e+03 1.494e-10
 42.73933   -122.7 9.568e+03 1.647e-10
 42.77899   -121.6 9.631e+03 1.873e-10
 42.81795   -120.4 9.728e+03 2.185e-10
 42.83778   -120.0 9.768e+03 2.067e-10
 42.84392   -118.9 9.913e+03 2.385e-10
 42.86375   -118.8 9.799e+03 2.218e-10
 42.89795   -117.7 9.934e+03 2.417e-10
 42.93761   -116.9 1.012e+04 2.736e-10
 42.97726   -116.2 1.031e+04 3.215e-10
 43.01692   -115.8 1.049e+04 3.824e-10
 43.05658   -115.4 1.064e+04 4.465e-10
 43.08222   -115.2 1.072e+04 4.958e-10
 43.10205   -114.7 1.108e+04 6.745e-10
 43.13589   -114.4 1.115e+04 7.292e-10
 43.17554   -114.1 1.112e+04 7.285e-10
 43.21520   -113.8 1.092e+04 6.458e-10
 43.25485   -113.1 1.076e+04 5.691e-10
 43.28450   -112.8 1.089e+04 6.185e-10
 43.30423   -112.6 1.097e+04 6.270e-10
 43.32405   -112.6 1.114e+04 6.680e-10
 43.33638   -112.8 1.135e+04 7.234e-10
 43.34639   -112.7 1.125e+04 7.544e-10
 43.36618   -113.7 1.190e+04 9.852e-10
 43.38591   -115.2 1.245e+04 1.368e-09
 43.40337   -116.3 1.288e+04 1.759e-09
 43.42319   -117.1 1.340e+04 2.370e-09
 43.44302   -117.9 1.388e+04 3.174e-09
 43.45860   -118.3 1.419e+04 3.686e-09
 43.46852   -118.5 1.368e+04 2.841e-09
 43.48268   -119.4 1.372e+04 2.842e-09
 43.50250   -120.3 1.350e+04 2.254e-09
 43.52233   -121.9 1.280e+04 1.411e-09
 43.54216   -124.0 1.162e+04 7.794e-10
 43.56199   -126.1 1.022e+04 4.450e-10
 43.58082   -127.5 9.291e+03 2.957e-10
 43.59083   -126.8 9.517e+03 3.341e-10
 43.61175   -127.6 8.705e+03 1.965e-10
 43.65141   -127.8 8.130e+03 1.261e-10
 43.69106   -127.7 7.911e+03 9.468e-11
 43.73072   -126.7 7.855e+03 8.438e-11
 43.77037   -125.8 7.852e+03 8.166e-11
 43.81003   -124.9 7.857e+03 8.110e-11
 43.83537   -124.2 7.892e+03 8.105e-11
 43.85520   -124.6 7.730e+03 7.464e-11
 43.88843   -124.6 7.865e+03 7.636e-11
 43.90826   -127.2 7.935e+03 6.738e-11
 43.92900   -130.9 9.678e+03 1.837e-10
 43.96865   -134.4 1.199e+04 7.764e-10
 43.99829   -135.2 1.280e+04 1.577e-09
 44.01803   -135.9 1.349e+04 2.702e-09
 44.03785   -136.3 1.399e+04 3.917e-09
 44.05768   -136.7 1.419e+04 4.555e-09
 44.07751   -137.2 1.422e+04 4.654e-09
 44.08953   -137.6 1.402e+04 4.185e-09
 44.09945   -138.2 1.435e+04 4.442e-09
 44.11716   -139.3 1.395e+04 3.113e-09
 44.13699   -141.3 1.327e+04 1.992e-09
 44.15682   -143.4 1.247e+04 1.356e-09
 44.16919   -145.0 1.188e+04 1.065e-09
 44.17911   -146.5 1.188e+04 1.084e-09
 44.19647   -146.8 1.175e+04 9.949e-10
 44.21175   -146.9 1.164e+04 9.307e-10
 44.22167   -147.2 1.191e+04 1.248e-09
 44.23613   -147.0 1.163e+04 1.114e-09
 44.25596   -146.7 1.139e+04 1.014e-09
 44.27579   -146.3 1.126e+04 9.558e-10
 44.29561   -145.9 1.121e+04 9.330e-10
 44.31544   -145.5 1.120e+04 9.295e-10
 44.33397   -145.0 1.126e+04 9.650e-10
 44.34389   -144.8 1.096e+04 8.678e-10
 44.35510   -144.3 1.114e+04 9.131e-10
 44.37492   -143.9 1.142e+04 1.066e-09
 44.39475   -143.4 1.174e+04 1.301e-09
 44.41458   -143.0 1.211e+04 1.607e-09
 44.43032   -142.6 1.247e+04 1.958e-09
 44.44023   -143.1 1.257e+04 1.956e-09
 44.45424   -142.7 1.281e+04 2.341e-09
 44.46611   -142.3 1.294e+04 2.619e-09
 44.47602   -142.3 1.264e+04 1.974e-09
 44.49389   -141.8 1.280e+04 2.222e-09
 44.51372   -141.4 1.298e+04 2.394e-09
 44.53355   -141.1 1.326e+04 2.526e-09
 44.55337   -140.8 1.368e+04 2.697e-09
 44.57320   -140.8 1.410e+04 2.950e-09
 44.58833   -141.1 1.443e+04 3.347e-09
 44.59824   -142.0 1.410e+04 3.587e-09
 44.61286   -142.0 1.438e+04 4.381e-09
 44.63268   -142.2 1.505e+04 5.629e-09
 44.65251   -142.6 1.602e+04 7.785e-09
 44.67234   -143.0 1.694e+04 1.138e-08
 44.69144   -143.3 1.768e+04 1.586e-08
 44.70136   -143.2 1.806e+04 1.166e-08
 44.71055   -144.1 1.823e+04 1.206e-08
 44.72046   -144.6 1.891e+04 3.666e-09
 44.73182   -146.0 1.904e+04 3.203e-09
 44.75165   -147.7 1.758e+04 2.578e-09
 44.77148   -149.6 1.534e+04 2.067e-09
 44.79131   -151.2 1.357e+04 1.744e-09
 44.81113   -152.0 1.267e+04 1.547e-09
 44.83096   -152.5 1.226e+04 1.395e-09
 44.84268   -152.9 1.208e+04 1.257e-09
 44.85260   -153.3 1.244e+04 1.273e-09
 44.87062   -154.0 1.241e+04 1.303e-09
 44.89045   -154.9 1.256e+04 1.375e-09
 44.91027   -155.9 1.281e+04 1.509e-09
 44.93010   -157.1 1.315e+04 1.711e-09
 44.94993   -158.2 1.353e+04 1.978e-09
 44.96249   -159.1 1.387e+04 2.295e-09
 44.96755   -157.8 1.345e+04 1.710e-09
 44.97482   -158.5 1.478e+04 2.596e-09
 44.98958   -158.9 1.496e+04 2.770e-09
 45.00941   -159.2 1.501e+04 2.810e-09
 45.02924   -159.1 1.499e+04 2.774e-09
 45.04907   -158.9 1.482e+04 2.539e-09
 45.06890   -158.6 1.456e+04 2.237e-09
 45.08713   -158.5 1.421e+04 1.941e-09
 45.09704   -158.7 1.347e+04 1.655e-09
 45.10855   -158.6 1.314e+04 1.403e-09
 45.12838   -158.5 1.285e+04 1.255e-09
 45.14821   -158.0 1.264e+04 1.191e-09
 45.16803   -157.5 1.257e+04 1.179e-09
 45.18786   -156.8 1.254e+04 1.182e-09
 45.20769   -156.2 1.251e+04 1.233e-09
 45.21926   -155.4 1.250e+04 1.287e-09
 45.22527   -155.5 1.202e+04 1.229e-09
 45.23353   -155.3 1.170e+04 9.474e-10
 45.24734   -154.6 1.180e+04 1.017e-09
 45.26717   -153.9 1.185e+04 1.050e-09
 45.28700   -153.1 1.187e+04 1.056e-09
 45.30683   -152.4 1.185e+04 1.048e-09
 45.32666   -151.6 1.177e+04 9.935e-10
 45.34148   -150.8 1.168e+04 9.170e-10
 45.35139   -151.3 1.134e+04 9.264e-10
 45.36631   -150.7 1.131e+04 8.603e-10
 45.38614   -150.3 1.129e+04 8.121e-10
 45.40597   -149.9 1.127e+04 7.836e-10
 45.42579   -149.6 1.126e+04 7.669e-10
 45.44562   -149.1 1.126e+04 7.622e-10
 45.46370   -148.6 1.126e+04 7.633e-10
 45.47362   -149.4 1.133e+04 8.312e-10
 45.48474   -148.7 1.132e+04 8.324e-10
 45.49465   -149.3 1.147e+04 9.826e-10
 45.50511   -148.6 1.135e+04 9.473e-10
 45.52493   -148.0 1.118e+04 9.003e-10
 45.54476   -147.3 1.102e+04 8.562e-10
 45.56459   -146.6 1.092e+04 8.303e-10
 45.58442   -145.9 1.090e+04 8.242e-10
 45.59584   -145.2 1.091e+04 8.249e-10
 45.60575   -145.6 1.070e+04 6.997e-10
 45.62407   -145.1 1.078e+04 7.241e-10
 45.64390   -144.6 1.090e+04 7.808e-10
 45.66373   -144.2 1.106e+04 8.492e-10
 45.68355   -143.9 1.122e+04 9.148e-10
 45.70338   -143.7 1.135e+04 9.714e-10
 45.71806   -143.5 1.141e+04 1.017e-09
 45.72797   -144.0 1.155e+04 9.681e-10
 45.74304   -143.9 1.159e+04 1.009e-09
 45.75578   -143.7 1.155e+04 1.041e-09
 45.76569   -143.9 1.136e+04 9.930e-10
 45.78269   -143.8 1.132e+04 1.012e-09
 45.80252   -143.6 1.126e+04 1.028e-09
 45.82235   -143.4 1.122e+04 1.042e-09
 45.84028   -143.2 1.121e+04 1.065e-09
 45.85019   -143.7 1.129e+04 1.081e-09
 45.86200   -143.5 1.136e+04 1.128e-09
 45.88183   -143.4 1.145e+04 1.183e-09
 45.90166   -143.2 1.155e+04 1.250e-09
 45.92149   -143.1 1.163e+04 1.306e-09
 45.95133   -143.2 1.174e+04 1.353e-09
 45.99108   -143.0 1.183e+04 1.408e-09
 46.01710   -143.0 1.195e+04 1.470e-09
 46.03693   -143.0 1.153e+04 1.058e-09
 46.07039   -143.0 1.169e+04 1.145e-09
 46.09483   -143.0 1.194e+04 1.262e-09
 46.11466   -144.1 1.125e+04 8.740e-10
 46.14970   -143.5 1.111e+04 8.448e-10
 46.18936   -142.6 1.090e+04 7.275e-10
 46.22901   -141.8 1.079e+04 6.100e-10
 46.26867   -141.2 1.079e+04 5.361e-10
 46.29831   -140.7 9.977e+03 3.781e-10
 46.31804   -140.5 9.972e+03 3.694e-10
 46.33787   -140.0 9.958e+03 3.612e-10
 46.34899   -139.6 1.001e+04 3.654e-10
 46.35900   -139.7 9.640e+03 3.121e-10
 46.38763   -138.6 9.636e+03 3.094e-10
 46.41728   -137.9 9.549e+03 2.933e-10
 46.43701   -137.4 9.566e+03 2.930e-10
 46.45684   -136.8 9.588e+03 2.921e-10
 46.47121   -136.4 9.665e+03 2.948e-10
 46.48112   -136.0 9.466e+03 2.774e-10
 46.49649   -135.3 9.475e+03 2.758e-10
 46.51632   -134.8 9.575e+03 2.776e-10
 46.53615   -134.0 9.691e+03 2.780e-10
 46.54907   -133.4 9.837e+03 2.861e-10
 46.55899   -133.0 9.513e+03 2.417e-10
 46.57580   -132.2 9.591e+03 2.457e-10
 46.59343   -131.4 9.687e+03 2.535e-10
 46.60344   -131.2 9.304e+03 2.148e-10
 46.62557   -129.6 9.453e+03 2.255e-10
 46.66522   -127.9 9.616e+03 2.442e-10
 46.70488   -126.1 9.735e+03 2.611e-10
 46.74453   -124.3 9.805e+03 2.759e-10
 46.77418   -123.1 1.002e+04 3.126e-10
 46.79391   -122.2 1.004e+04 3.227e-10
 46.81020   -121.2 1.004e+04 3.323e-10
 46.82012   -120.8 9.803e+03 2.850e-10
 46.83356   -120.0 9.808e+03 2.900e-10
 46.84778   -118.9 9.800e+03 2.922e-10
 46.85770   -118.8 1.004e+04 3.346e-10
 46.87322   -117.8 9.987e+03 3.267e-10
 46.90306   -116.2 9.920e+03 3.236e-10
 46.94281   -114.7 9.838e+03 2.928e-10
 46.98247   -112.5 9.717e+03 2.589e-10
 47.02212   -110.3 9.705e+03 2.474e-10
 47.06161   -108.1 9.736e+03 2.471e-10
 47.09225   -105.7 9.360e+03 1.822e-10
 47.11225   -105.5 9.172e+03 1.370e-10
 47.14109   -103.4 9.201e+03 1.370e-10
 47.18074   -101.4 9.253e+03 1.417e-10
 47.22040    -99.2 9.269e+03 1.477e-10
 47.26006    -97.1 9.264e+03 1.526e-10
 47.29971    -94.8 9.263e+03 1.562e-10
 47.33686    -92.5 9.277e+03 1.581e-10
 47.35669    -92.1 9.153e+03 1.302e-10
 47.37902    -89.7 9.171e+03 1.301e-10
 47.41868    -87.4 9.233e+03 1.263e-10
 47.45833    -84.9 9.274e+03 1.201e-10
 47.49799    -82.5 9.290e+03 1.137e-10
 47.53764    -79.9 9.258e+03 1.068e-10
 47.57730    -77.4 9.152e+03 1.014e-10
 47.60113    -74.7 9.003e+03 9.862e-11
 47.60770    -74.1 8.969e+03 1.004e-10
 47.62352    -73.6 9.176e+03 7.162e-11
 47.65661    -70.9 9.109e+03 7.109e-11
 47.69627    -68.2 9.035e+03 7.253e-11
 47.73592    -65.6 8.893e+03 8.003e-11
 47.77558    -63.0 8.821e+03 8.875e-11
 47.81523    -60.2 8.801e+03 9.717e-11
 47.84557    -57.5 8.840e+03 1.019e-10
 47.86540    -57.1 8.828e+03 1.327e-10
 47.89454    -54.4 8.863e+03 1.480e-10
 47.93420    -51.7 8.930e+03 1.535e-10
 47.97385    -49.0 8.991e+03 1.513e-10
 48.01351    -46.4 9.073e+03 1.325e-10
 48.05316    -44.1 9.160e+03 1.160e-10
 48.09001    -42.2 9.226e+03 1.110e-10
 48.10984    -41.3 9.331e+03 1.746e-10
 48.12594    -39.8 9.393e+03 1.682e-10
 48.14577    -40.8 9.314e+03 1.343e-10
 48.17213    -39.2 9.352e+03 1.612e-10
 48.21179    -37.3 9.293e+03 2.188e-10
 48.25144    -35.0 9.264e+03 2.661e-10
 48.29110    -32.7 9.231e+03 2.771e-10
 48.33075    -30.3 8.973e+03 2.538e-10
 48.35428    -27.8 8.717e+03 1.905e-10
 48.37411    -27.7 8.908e+03 2.793e-10
 48.41006    -25.2 8.660e+03 2.277e-10
 48.44972    -22.8 8.487e+03 1.846e-10
 48.48937    -20.4 8.396e+03 1.639e-10
 48.52903    -18.0 8.359e+03 1.561e-10
 48.56869    -15.4 8.341e+03 1.655e-10
 48.59872    -12.5 8.369e+03 1.691e-10
 48.61855    -12.2 8.526e+03 1.406e-10
 48.64800     -9.7 8.533e+03 1.354e-10
 48.66803     -7.0 8.488e+03 1.157e-10
 48.68785     -7.3 8.339e+03 1.013e-10
 48.72731     -5.0 8.327e+03 7.924e-11
 48.76696     -3.3 8.291e+03 6.600e-11
 48.80662     -1.3 8.185e+03 6.647e-11
 48.84317      0.7 8.156e+03 7.587e-11
 48.86299      1.4 8.115e+03 7.164e-11
 48.88593      3.1 8.204e+03 7.847e-11
 48.92558      4.7 8.289e+03 1.009e-10
 48.96524      6.7 8.321e+03 1.391e-10
 49.00490      8.8 8.479e+03 1.800e-10
 49.04455     10.5 8.779e+03 2.052e-10
 49.08421     11.4 9.330e+03 2.466e-10
 49.10743     11.1 9.846e+03 3.475e-10
 49.12726     11.3 1.050e+04 5.641e-10
 49.16352     11.8 1.095e+04 7.968e-10
 49.19028     12.3 1.124e+04 9.778e-10
 49.21011     10.4 1.176e+04 1.132e-09
 49.24283     10.1 1.139e+04 9.545e-10
 49.28248     10.0 1.077e+04 7.452e-10
 49.32214     10.4 1.033e+04 5.480e-10
 49.35188     10.7 1.010e+04 4.161e-10
 49.37170     12.3 1.030e+04 6.806e-10
 49.40145     13.2 1.023e+04 5.196e-10
 49.44111     13.5 1.001e+04 4.519e-10
 49.48076     14.2 9.731e+03 4.507e-10
 49.52042     15.3 9.604e+03 4.591e-10
 49.56007     17.0 9.407e+03 4.317e-10
 49.59632     18.9 9.151e+03 3.483e-10
 49.61614     20.1 9.303e+03 3.963e-10
 49.63938     21.7 9.146e+03 3.189e-10
 49.67904     22.9 9.107e+03 2.573e-10
 49.71253     24.1 9.095e+03 2.390e-10
 49.73236     23.8 9.433e+03 3.010e-10
 49.75835     25.4 9.366e+03 2.826e-10
 49.79801     27.3 9.331e+03 2.579e-10
 49.83766     29.0 9.277e+03 2.280e-10
 49.86059     30.5 9.211e+03 2.114e-10
 49.88041     32.0 9.465e+03 2.612e-10
 49.91697     33.2 9.327e+03 2.244e-10
 49.95663     34.3 9.324e+03 2.289e-10
 49.99628     35.4 9.382e+03 2.569e-10
 50.03594     36.8 9.430e+03 3.047e-10
 50.07559     38.2 9.540e+03 3.346e-10
 50.10503     39.7 9.646e+03 3.330e-10
 50.12485     40.3 9.552e+03 3.040e-10
 50.15490     41.4 9.725e+03 3.132e-10
 50.19456     42.9 9.881e+03 3.183e-10
 50.22420     43.9 9.907e+03 3.078e-10
 50.23697     44.5 9.981e+03 3.121e-10
 50.24688     44.1 1.012e+04 3.594e-10
 50.25442     44.5 1.049e+04 4.126e-10
 50.26433     42.5 1.099e+04 6.044e-10
 50.28359     42.1 1.157e+04 8.401e-10
 50.30342     41.6 1.206e+04 1.234e-09
 50.32324     41.6 1.256e+04 1.848e-09
 50.34307     41.3 1.336e+04 2.856e-09
 50.35919     40.7 1.494e+04 4.553e-09
 50.36910     40.6 1.490e+04 4.845e-09
 50.38273     39.9 1.600e+04 6.536e-09
 50.40256     39.2 1.738e+04 7.540e-09
 50.42238     38.1 1.790e+04 7.092e-09
 50.44221     36.4 1.838e+04 5.411e-09
 50.46204     34.1 1.763e+04 3.331e-09
 50.48141     31.0 1.516e+04 1.554e-09
 50.49132     27.7 1.154e+04 6.782e-10
 50.50169     24.8 9.829e+03 4.338e-10
 50.51555     23.9 9.489e+03 3.653e-10
 50.52546     23.4 9.357e+03 2.993e-10
 50.54135     23.1 9.360e+03 2.972e-10
 50.56118     22.8 9.402e+03 3.043e-10
 50.58101     21.9 9.689e+03 3.419e-10
 50.60083     21.4 1.008e+04 4.383e-10
 50.61354     21.2 1.047e+04 5.856e-10
 50.62346     22.5 9.997e+03 4.584e-10
 50.64049     22.6 1.034e+04 5.847e-10
 50.66032     22.8 1.068e+04 7.282e-10
 50.68014     23.1 1.096e+04 8.614e-10
 50.69997     23.5 1.116e+04 9.638e-10
 50.71980     23.7 1.138e+04 1.052e-09
 50.73576     23.6 1.173e+04 1.175e-09
 50.74568     24.2 1.167e+04 1.131e-09
 50.75946     24.2 1.195e+04 1.273e-09
 50.77667     22.7 1.276e+04 1.751e-09
 50.78659     21.9 1.313e+04 2.030e-09
 50.79911     20.9 1.404e+04 3.356e-09
 50.81894     21.5 1.457e+04 4.228e-09
 50.83877     22.4 1.530e+04 4.400e-09
 50.85798     21.2 1.578e+04 4.186e-09
 50.86790     23.5 1.595e+04 6.586e-09
 50.87842     22.6 1.635e+04 5.056e-09
 50.89825     20.2 1.572e+04 3.394e-09
 50.91808     17.2 1.405e+04 2.280e-09
 50.93790     14.8 1.279e+04 1.816e-09
 50.95773     13.7 1.240e+04 1.679e-09
 50.97756     13.0 1.230e+04 1.633e-09
 50.99012     12.6 1.222e+04 1.570e-09
 51.00003     13.7 1.234e+04 1.690e-09
 51.01722     13.5 1.217e+04 1.598e-09
 51.03704     13.6 1.200e+04 1.446e-09
 51.04771     13.8 1.175e+04 1.200e-09
 51.05763     14.2 1.160e+04 1.110e-09
 51.07670     14.3 1.121e+04 8.911e-10
 51.09653     14.7 1.073e+04 6.599e-10
 51.11234     14.6 1.042e+04 5.329e-10
 51.12225     15.7 1.053e+04 5.646e-10
 51.14619     16.6 1.006e+04 3.962e-10
 51.18595     17.7 9.236e+03 2.349e-10
 51.22560     18.7 8.767e+03 1.777e-10
 51.26526     20.6 8.696e+03 1.760e-10
 51.29912     21.5 9.141e+03 2.204e-10
 51.31895     22.2 8.850e+03 1.832e-10
 51.34457     22.5 9.408e+03 3.195e-10
 51.36689     23.0 1.005e+04 5.632e-10
 51.38672     25.6 9.745e+03 4.668e-10
 51.42388     25.8 1.073e+04 7.923e-10
 51.45352     24.8 1.148e+04 1.076e-09
 51.47325     24.8 1.173e+04 1.177e-09
 51.48891     24.7 1.201e+04 1.233e-09
 51.49883     26.9 1.154e+04 1.157e-09
 51.51291     26.3 1.188e+04 1.230e-09
 51.53274     24.3 1.292e+04 1.402e-09
 51.55256     22.5 1.424e+04 1.915e-09
 51.56997     20.9 1.496e+04 2.731e-09
 51.57988     22.7 1.366e+04 1.833e-09
 51.59222     21.8 1.415e+04 2.380e-09
 51.61114     21.7 1.435e+04 2.838e-09
 51.62105     24.4 1.366e+04 1.994e-09
 51.63188     24.2 1.385e+04 2.345e-09
 51.65170     24.2 1.377e+04 2.529e-09
 51.67153     24.5 1.362e+04 2.415e-09
 51.69136     24.3 1.331e+04 2.126e-09
 51.71119     24.0 1.280e+04 1.738e-09
 51.73101     23.6 1.195e+04 1.443e-09
 51.74327     23.6 1.126e+04 1.152e-09
 51.75318     25.5 1.161e+04 1.194e-09
 51.77067     25.6 1.102e+04 1.023e-09
 51.79050     26.3 1.060e+04 8.935e-10
 51.81033     26.7 1.049e+04 7.029e-10
 51.83015     27.0 1.002e+04 5.166e-10
 51.84111     25.7 8.903e+03 2.890e-10
 51.85102     28.2 1.004e+04 4.445e-10
 51.86549     27.6 9.272e+03 3.280e-10
 51.87540     30.3 9.949e+03 4.756e-10
 51.88964     30.7 9.322e+03 3.275e-10
 51.90946     30.3 8.950e+03 2.920e-10
 51.93930     33.5 8.774e+03 2.720e-10
 51.97906     34.9 8.388e+03 2.285e-10
 52.01871     35.0 8.379e+03 2.203e-10
 52.05837     34.5 8.581e+03 2.576e-10
 52.09802     34.8 9.082e+03 3.844e-10
 52.12004     35.7 9.685e+03 5.533e-10
 52.13987     39.1 9.566e+03 5.012e-10
 52.16732     38.7 1.005e+04 6.677e-10
 52.18705     38.9 1.028e+04 7.683e-10
 52.20688     38.8 1.058e+04 8.669e-10
 52.22671     37.9 1.106e+04 1.012e-09
 52.24207     36.5 1.150e+04 1.217e-09
 52.25198     38.9 1.139e+04 1.142e-09
 52.26636     37.6 1.167e+04 1.332e-09
 52.28619     36.5 1.172e+04 1.442e-09
 52.30602     36.0 1.153e+04 1.425e-09
 52.32585     35.7 1.137e+04 1.291e-09
 52.34567     35.0 1.122e+04 1.056e-09
 52.36326     33.1 1.076e+04 7.736e-10
 52.37196     32.9 1.043e+04 6.504e-10
 52.37420     34.9 1.073e+04 7.770e-10
 52.38533     32.4 1.014e+04 5.750e-10
 52.40516     29.5 9.532e+03 4.410e-10
 52.42498     27.9 9.248e+03 4.153e-10
 52.44481     26.7 9.349e+03 4.355e-10
 52.46464     25.7 9.602e+03 4.851e-10
 52.48447     24.5 9.796e+03 5.742e-10
 52.49642     23.7 9.957e+03 6.618e-10
 52.50634     24.0 1.033e+04 8.360e-10
 52.52412     23.7 1.047e+04 9.229e-10
 52.54395     23.5 1.055e+04 9.541e-10
 52.56378     23.4 1.054e+04 9.068e-10
 52.58361     22.9 1.043e+04 8.019e-10
 52.60343     22.1 1.010e+04 6.641e-10
 52.61864     21.2 9.803e+03 5.409e-10
 52.62856     20.4 9.710e+03 5.024e-10
 52.63430     19.5 9.384e+03 4.110e-10
 52.64422     21.0 9.920e+03 5.570e-10
 52.66292     20.2 9.571e+03 4.480e-10
 52.68275     19.3 9.207e+03 3.660e-10
 52.70257     19.0 9.008e+03 3.335e-10
 52.72240     19.0 8.981e+03 3.267e-10
 52.74086     19.0 8.917e+03 3.247e-10
 52.75078     18.0 8.986e+03 3.459e-10
 52.76206     17.7 9.228e+03 4.132e-10
 52.78188     17.3 9.543e+03 5.077e-10
 52.80171     17.2 1.002e+04 6.743e-10
 52.82154     17.1 1.056e+04 9.172e-10
 52.84137     17.3 1.117e+04 1.252e-09
 52.86120     17.6 1.171e+04 1.652e-09
 52.87300     18.2 1.221e+04 2.159e-09
 52.88291     17.6 1.259e+04 2.523e-09
 52.89543     18.2 1.306e+04 3.045e-09
 52.90534     19.0 1.265e+04 2.684e-09
 52.92068     19.2 1.311e+04 3.183e-09
 52.94051     19.1 1.353e+04 3.638e-09
 52.96033     18.8 1.410e+04 4.150e-09
 52.98016     18.1 1.487e+04 4.701e-09
 52.99522     17.3 1.579e+04 5.184e-09
 53.00513     15.8 1.597e+04 5.158e-09
 53.01982     14.8 1.641e+04 5.313e-09
 53.03964     13.6 1.648e+04 4.952e-09
 53.05947     12.1 1.587e+04 4.142e-09
 53.07930     10.5 1.476e+04 3.261e-09
 53.09913      9.1 1.353e+04 2.563e-09
 53.11744      8.5 1.267e+04 2.092e-09
 53.12735      7.9 1.216e+04 1.692e-09
 53.13878      8.3 1.184e+04 1.352e-09
 53.15656      8.5 1.162e+04 9.846e-10
 53.16647      9.6 1.208e+04 1.644e-09
 53.17844      9.9 1.176e+04 1.215e-09
 53.19827      9.8 1.136e+04 8.140e-10
 53.21809      9.4 1.094e+04 5.459e-10
 53.23792      8.8 1.056e+04 3.790e-10
 53.24957      8.4 1.018e+04 2.894e-10
 53.25949      7.5 9.970e+03 2.613e-10
 53.28759      8.0 9.739e+03 2.223e-10
 53.32734      9.2 9.723e+03 1.931e-10
 53.36208     10.2 9.835e+03 1.717e-10
 53.38190      8.9 1.007e+04 2.002e-10
 53.40665     10.0 1.032e+04 2.146e-10
 53.42779     11.6 1.049e+04 2.436e-10
 53.44762     12.8 1.064e+04 2.635e-10
 53.47595     13.9 1.076e+04 3.056e-10
 53.49401     14.0 1.086e+04 3.397e-10
 53.50393     12.9 1.102e+04 4.524e-10
 53.51551     13.6 1.155e+04 7.351e-10
 53.53534     13.7 1.183e+04 9.930e-10
 53.55517     14.9 1.242e+04 1.504e-09
 53.57499     16.1 1.296e+04 1.927e-09
 53.59482     17.4 1.337e+04 2.183e-09
 53.61465     18.5 1.349e+04 2.250e-09
 53.62615     19.4 1.351e+04 2.253e-09
 53.63606     18.4 1.343e+04 1.898e-09
 53.65430     18.8 1.316e+04 1.526e-09
 53.67413     18.7 1.286e+04 1.194e-09
 53.68872     18.2 1.252e+04 9.522e-10
 53.69864     19.2 1.252e+04 9.692e-10
 53.71379     18.5 1.212e+04 8.030e-10
 53.73362     17.9 1.185e+04 7.529e-10
 53.74837     17.8 1.174e+04 7.872e-10
 53.75828     16.7 1.154e+04 7.354e-10
 53.77327     17.0 1.167e+04 8.228e-10
 53.79310     17.7 1.178e+04 9.766e-10
 53.81293     17.9 1.203e+04 1.075e-09
 53.83275     18.1 1.214e+04 1.263e-09
 53.85258     18.4 1.244e+04 1.407e-09
 53.87059     18.7 1.268e+04 1.616e-09
 53.88050     18.2 1.267e+04 1.469e-09
 53.89224     18.1 1.315e+04 1.764e-09
 53.91207     17.9 1.365e+04 2.204e-09
 53.93189     17.5 1.416e+04 2.752e-09
 53.94985     17.5 1.454e+04 3.729e-09
 53.95977     18.2 1.449e+04 3.086e-09
 53.97155     18.5 1.478e+04 3.763e-09
 53.99138     19.2 1.498e+04 4.465e-09
 54.00272     19.9 1.514e+04 5.060e-09
 54.01264     19.2 1.537e+04 5.751e-09
 54.03103     19.6 1.555e+04 5.801e-09
 54.05086     19.4 1.592e+04 6.008e-09
 54.07069     18.6 1.671e+04 6.950e-09
 54.09051     17.5 1.750e+04 8.693e-09
 54.11034     17.2 1.847e+04 1.094e-08
 54.12495     17.1 1.929e+04 1.244e-08
 54.13486     16.7 1.774e+04 7.162e-09
 54.15000     15.4 1.790e+04 7.391e-09
 54.16983     13.6 1.792e+04 8.448e-09
 54.18465     12.9 1.768e+04 9.718e-09
 54.19091     12.2 1.821e+04 1.035e-08
 54.19587     11.3 1.836e+04 9.698e-09
 54.20943     10.9 1.852e+04 1.187e-08
 54.22089     10.2 1.835e+04 1.302e-08
 54.23081     10.2 1.796e+04 1.103e-08
 54.24717     10.6 1.811e+04 1.232e-08
 54.25708      9.7 1.812e+04 1.307e-08
 54.26896     10.7 1.784e+04 1.205e-08
 54.28879     11.6 1.739e+04 1.004e-08
 54.30862     12.2 1.716e+04 6.965e-09
 54.32845     11.4 1.709e+04 4.367e-09
 54.34828      8.1 1.672e+04 3.117e-09
 54.36810      3.9 1.624e+04 2.880e-09
 54.37930      0.5 1.594e+04 3.722e-09
 54.38921     -1.8 1.512e+04 3.548e-09
 54.40776     -2.5 1.518e+04 4.738e-09
 54.42759     -2.1 1.536e+04 5.947e-09
 54.44741     -1.2 1.547e+04 6.335e-09
 54.46724     -0.4 1.519e+04 5.292e-09
 54.48202     -0.1 1.492e+04 3.323e-09
 54.49193      0.1 1.468e+04 2.675e-09
 54.50152     -2.4 1.427e+04 1.455e-09
 54.51143     -4.9 1.361e+04 1.135e-09
 54.52672     -7.5 1.231e+04 8.555e-10
 54.54655     -8.3 1.183e+04 8.030e-10
 54.56638     -8.5 1.166e+04 8.869e-10
 54.58621     -8.3 1.167e+04 1.007e-09
 54.60604     -7.8 1.168e+04 1.114e-09
 54.62374     -7.1 1.173e+04 1.174e-09
 54.63366     -7.7 1.148e+04 9.436e-10
 54.64569     -7.2 1.145e+04 8.954e-10
 54.66552     -6.5 1.130e+04 7.838e-10
 54.68535     -5.9 1.111e+04 6.481e-10
 54.70517     -5.3 1.094e+04 5.206e-10
 54.72500     -4.8 1.075e+04 4.152e-10
 54.74315     -4.2 1.056e+04 3.481e-10
 54.75306     -3.7 1.071e+04 3.737e-10
 54.75588     -3.2 1.071e+04 3.481e-10
 54.76579     -5.8 1.137e+04 3.747e-10
 54.78449     -9.8 1.405e+04 5.774e-10
 54.80431    -14.3 1.572e+04 1.477e-09
 54.82414    -16.5 1.563e+04 3.484e-09
 54.84397    -14.7 1.554e+04 6.340e-09
 54.86380    -12.8 1.583e+04 7.930e-09
 54.87810    -11.0 1.616e+04 8.551e-09
 54.88801    -11.6 1.609e+04 6.508e-09
 54.90345    -12.1 1.685e+04 3.936e-09
 54.92328    -16.0 1.720e+04 1.845e-09
 54.94311    -21.7 1.461e+04 9.162e-10
 54.96294    -25.8 1.114e+04 7.510e-10
 54.98276    -26.6 1.075e+04 7.919e-10
 55.00032    -26.6 1.086e+04 8.453e-10
 55.01023    -26.8 1.082e+04 8.368e-10
 55.01419    -26.6 1.094e+04 8.799e-10
 55.02410    -26.4 1.056e+04 7.101e-10
 55.04225    -26.2 1.054e+04 6.897e-10
 55.07209    -26.0 1.050e+04 6.324e-10
 55.11184    -25.5 1.065e+04 6.379e-10
 55.13265    -25.0 1.097e+04 7.291e-10
 55.15248    -24.7 1.009e+04 4.969e-10
 55.19115    -23.9 1.026e+04 5.359e-10
 55.23080    -22.6 1.053e+04 6.550e-10
 55.27046    -21.0 1.079e+04 8.121e-10
 55.31012    -19.2 1.112e+04 1.024e-09
 55.34977    -17.5 1.150e+04 1.250e-09
 55.37709    -16.2 1.211e+04 1.610e-09
 55.39692    -17.0 1.155e+04 1.401e-09
 55.42908    -15.5 1.186e+04 1.665e-09
 55.46874    -13.5 1.209e+04 1.839e-09
 55.50839    -11.5 1.171e+04 1.503e-09
 55.53664    -10.0 1.086e+04 9.744e-10
 55.55646     -9.9 1.107e+04 1.051e-09
 55.58770     -8.5 1.027e+04 6.741e-10
 55.62153     -6.1 9.639e+03 4.493e-10
 55.64136     -5.6 9.065e+03 3.099e-10
 55.66702     -3.2 8.860e+03 2.478e-10
 55.70667     -0.7 8.790e+03 2.262e-10
 55.74633      1.8 8.896e+03 2.253e-10
 55.78598      3.8 9.157e+03 2.734e-10
 55.82564      6.0 9.409e+03 3.705e-10
 55.86529      9.0 9.698e+03 4.999e-10
 55.88580     11.8 9.891e+03 5.475e-10
 55.90563     11.4 1.004e+04 5.930e-10
 55.94460     13.4 1.024e+04 6.097e-10
 55.98426     15.0 1.029e+04 6.254e-10
 56.02391     17.3 1.013e+04 5.913e-10
 56.05889     20.0 9.923e+03 4.856e-10
 56.07872     20.1 1.035e+04 7.014e-10
 56.10323     22.8 1.022e+04 5.835e-10
 56.13024     25.2 1.007e+04 4.190e-10
 56.15007     23.7 9.708e+03 2.521e-10
 56.18254     24.9 9.521e+03 1.967e-10
 56.22219     26.3 9.370e+03 1.919e-10
 56.26185     28.0 9.294e+03 2.096e-10
 56.30150     30.0 9.365e+03 2.290e-10
 56.34116     31.9 9.397e+03 2.282e-10
 56.37468     33.5 9.454e+03 2.238e-10
 56.39451     32.4 9.439e+03 2.195e-10
 56.42047     33.4 9.568e+03 2.373e-10
 56.46012     34.0 9.770e+03 2.982e-10
 56.49978     34.8 9.925e+03 3.895e-10
 56.53944     35.8 1.015e+04 4.427e-10
 56.57909     36.6 1.021e+04 3.988e-10
 56.60097     36.3 1.018e+04 3.110e-10
 56.62080     34.9 1.009e+04 2.722e-10
 56.63895     34.0 9.891e+03 2.538e-10
 56.65878     33.6 9.756e+03 1.916e-10
 56.69806     32.4 9.772e+03 2.014e-10
 56.73771     30.5 1.002e+04 2.870e-10
 56.77737     29.3 1.021e+04 4.607e-10
 56.81702     29.5 9.998e+03 4.912e-10
 56.85668     30.5 9.671e+03 4.201e-10
 56.88339     31.5 9.323e+03 2.865e-10
 56.90322     32.2 9.241e+03 2.813e-10
 56.93599     33.2 9.062e+03 1.931e-10
 56.97565     33.9 8.969e+03 1.345e-10
 57.01530     34.8 8.808e+03 1.175e-10
 57.05496     36.3 8.793e+03 1.183e-10
 57.09461     37.7 8.863e+03 1.256e-10
 57.12322     39.3 9.135e+03 1.501e-10
 57.13662     39.4 9.466e+03 2.123e-10
 57.14766     40.8 9.434e+03 1.874e-10
 57.17392     41.9 9.743e+03 2.149e-10
 57.20357     42.0 9.967e+03 2.506e-10
 57.22330     42.2 1.026e+04 3.362e-10
 57.24312     42.2 1.098e+04 5.345e-10
 57.25977     41.7 1.231e+04 1.006e-09
 57.26969     41.1 1.393e+04 1.512e-09
 57.27777     40.7 1.532e+04 2.655e-09
 57.28764     40.1 1.687e+04 3.584e-09
 57.29755     36.5 2.096e+04 7.279e-09
 57.30747     32.2 2.502e+04 1.556e-08
 57.31738     28.6 2.485e+04 6.208e-08
 57.32574     25.0 2.259e+04 2.618e-07
 57.32959     25.6 2.255e+04 4.359e-07
 57.33112     25.4 2.198e+04 6.405e-07
 57.33468     24.3 2.012e+04 1.299e-06
 57.33964     25.0 1.930e+04 1.721e-06
 57.34460     27.6 1.939e+04 1.748e-06
 57.34955     27.4 1.975e+04 1.736e-06
 57.35701     30.3 1.978e+04 9.957e-07
 57.36695     32.8 2.071e+04 3.159e-07
 57.37686     31.8 2.221e+04 9.597e-08
 57.38678     28.2 2.350e+04 3.222e-08
 57.39181     26.5 2.104e+04 1.863e-08
 57.39410     24.3 2.065e+04 8.758e-09
 57.40398     21.1 1.873e+04 7.681e-09
 57.42157     20.5 1.638e+04 4.548e-09
 57.44140     22.0 1.555e+04 3.484e-09
 57.46123     23.6 1.535e+04 3.082e-09
 57.48106     25.0 1.519e+04 2.763e-09
 57.50089     26.4 1.502e+04 2.575e-09
 57.51413     27.6 1.526e+04 2.616e-09
 57.52404     27.3 1.372e+04 1.258e-09
 57.54054     28.3 1.375e+04 1.227e-09
 57.56037     29.1 1.387e+04 1.257e-09
 57.58020     30.1 1.410e+04 1.316e-09
 57.60002     30.8 1.450e+04 1.472e-09
 57.61985     31.4 1.475e+04 1.697e-09
 57.63635     32.1 1.484e+04 2.014e-09
 57.64626     31.9 1.388e+04 1.320e-09
 57.65520     32.8 1.417e+04 1.711e-09
 57.66511     33.6 1.376e+04 1.471e-09
 57.67933     34.7 1.411e+04 1.805e-09
 57.69916     36.0 1.429e+04 2.133e-09
 57.71899     37.4 1.423e+04 2.442e-09
 57.73882     38.9 1.404e+04 2.488e-09
 57.75857     40.5 1.373e+04 2.485e-09
 57.77840     42.2 1.298e+04 1.917e-09
 57.79830     43.7 1.277e+04 1.773e-09
 57.81813     45.0 1.266e+04 1.672e-09
 57.83796     46.0 1.267e+04 1.643e-09
 57.85778     47.1 1.268e+04 1.661e-09
 57.87761     48.3 1.271e+04 1.760e-09
 57.89070     48.9 1.331e+04 2.009e-09
 57.90062     45.5 1.673e+04 2.245e-09
 57.91632     43.4 1.944e+04 3.844e-09
 57.92624     44.5 1.908e+04 3.554e-09
 57.93209     44.6 1.969e+04 4.489e-09
 57.94195     44.4 2.024e+04 5.455e-09
 57.95172     44.3 2.054e+04 6.716e-09
 57.95667     42.4 1.938e+04 8.039e-09
 57.96178     43.3 1.842e+04 9.232e-09
 57.97170     44.3 1.812e+04 9.248e-09
 57.98161     45.1 1.774e+04 9.056e-09
 57.99152     45.8 1.730e+04 8.449e-09
 58.00144     46.0 1.701e+04 7.842e-09
 58.01135     46.4 1.657e+04 6.849e-09
 58.01778     46.3 1.616e+04 5.949e-09
 58.02279     47.2 1.588e+04 4.445e-09
 58.03623     47.3 1.551e+04 2.422e-09
 58.05606     46.0 1.481e+04 1.142e-09
 58.07589     43.2 1.296e+04 5.246e-10
 58.09572     40.8 1.072e+04 2.899e-10
 58.11555     40.5 1.020e+04 2.391e-10
 58.13514     40.6 1.022e+04 2.444e-10
 58.14506     40.3 9.091e+03 1.534e-10
 58.15520     40.9 9.233e+03 1.561e-10
 58.17503     41.4 9.556e+03 1.717e-10
 58.18736     42.0 9.860e+03 2.021e-10
 58.19728     42.3 9.512e+03 1.728e-10
 58.21468     43.1 9.912e+03 2.108e-10
 58.23451     44.2 1.029e+04 2.695e-10
 58.25434     45.7 1.056e+04 3.549e-10
 58.26728     47.4 1.070e+04 4.634e-10
 58.27719     48.7 1.047e+04 2.869e-10
 58.29399     50.2 1.079e+04 3.730e-10
 58.31382     51.8 1.090e+04 4.986e-10
 58.33365     53.7 1.104e+04 6.718e-10
 58.35348     55.9 1.129e+04 8.894e-10
 58.37331     58.0 1.168e+04 1.146e-09
 58.38950     59.9 1.224e+04 1.445e-09
 58.39941     59.3 1.213e+04 1.241e-09
 58.41296     60.7 1.275e+04 1.666e-09
 58.43279     61.7 1.348e+04 2.154e-09
 58.44849     62.7 1.472e+04 2.882e-09
 58.45635     62.9 1.529e+04 3.500e-09
 58.46043     62.9 1.525e+04 3.484e-09
 58.46739     62.9 1.538e+04 3.824e-09
 58.47730     62.7 1.599e+04 3.989e-09
 58.48722     58.7 2.308e+04 4.518e-09
 58.49463     39.3 5.610e+04 5.021e-09
 58.49956     35.9 6.176e+04 5.532e-09
 58.50452     18.2 6.337e+04 1.725e-08
 58.50947      9.4 5.559e+04 4.400e-08
 58.51443      4.3 3.200e+04 4.530e-07
 58.51858     -0.8 2.298e+04 1.405e-06
 58.52068     -1.0 2.074e+04 1.877e-06
 58.52149      0.3 2.059e+04 1.930e-06
 58.52685     -3.7 2.146e+04 1.105e-06
 58.53679    -12.5 2.897e+04 2.319e-07
 58.54670    -29.9 7.494e+04 3.406e-09
 58.55661    -69.4 5.002e+04 5.124e-10
 58.57153    -81.8 2.274e+04 4.247e-10
 58.59141    -84.6 1.105e+04 5.763e-10
 58.61124    -83.1 1.124e+04 7.050e-10
 58.63107    -81.8 1.145e+04 8.360e-10
 58.64386    -80.4 1.167e+04 9.651e-10
 58.65377    -80.0 1.150e+04 8.783e-10
 58.67072    -78.9 1.169e+04 9.717e-10
 58.69055    -78.1 1.175e+04 9.996e-10
 58.70962    -77.5 1.174e+04 9.990e-10
 58.72954    -76.4 1.148e+04 8.511e-10
 58.76014    -75.3 1.124e+04 7.994e-10
 58.79980    -74.6 1.075e+04 6.002e-10
 58.83945    -74.3 1.010e+04 4.076e-10
 58.87858    -74.4 9.548e+03 2.992e-10
 58.89841    -76.0 9.343e+03 2.813e-10
 58.91876    -75.5 9.164e+03 2.559e-10
 58.95842    -74.5 9.130e+03 2.518e-10
 58.99807    -73.5 9.149e+03 2.585e-10
 59.03773    -72.7 9.147e+03 2.655e-10
 59.07739    -71.9 9.020e+03 2.666e-10
 59.11704    -70.8 8.829e+03 2.552e-10
 59.14285    -69.5 8.665e+03 2.421e-10
 59.16267    -69.8 8.748e+03 2.524e-10
 59.19635    -68.2 8.599e+03 2.361e-10
 59.23207    -66.4 8.463e+03 2.223e-10
 59.25189    -64.7 9.033e+03 3.333e-10
 59.27566    -63.1 8.864e+03 3.133e-10
 59.31532    -61.1 8.725e+03 2.979e-10
 59.35497    -58.7 8.624e+03 2.821e-10
 59.38729    -56.4 8.475e+03 2.507e-10
 59.40712    -56.5 8.364e+03 2.171e-10
 59.43428    -54.4 8.165e+03 1.863e-10
 59.47394    -52.2 8.081e+03 1.700e-10
 59.51360    -50.0 8.058e+03 1.654e-10
 59.55325    -48.0 8.072e+03 1.652e-10
 59.59291    -46.5 8.320e+03 1.907e-10
 59.63173    -45.3 8.808e+03 2.819e-10
 59.65156    -45.4 8.944e+03 3.018e-10
 59.67222    -43.8 9.227e+03 3.693e-10
 59.71187    -42.5 9.450e+03 4.052e-10
 59.75153    -41.3 9.540e+03 3.999e-10
 59.77415    -40.5 9.540e+03 3.803e-10
 59.79398    -39.3 1.035e+04 6.880e-10
 59.83084    -38.4 1.037e+04 6.918e-10
 59.87049    -37.4 1.027e+04 6.685e-10
 59.89600    -36.3 1.007e+04 6.040e-10
 59.91583    -36.0 9.574e+03 3.974e-10
 59.94981    -34.8 9.649e+03 4.028e-10
 59.98946    -33.6 9.753e+03 4.104e-10
 60.02912    -32.5 9.868e+03 3.847e-10
 60.06877    -31.6 1.004e+04 3.734e-10
 60.10843    -30.9 1.021e+04 3.729e-10
 60.14044    -30.3 1.049e+04 3.911e-10
 60.16027    -30.2 1.163e+04 6.933e-10
 60.18774    -30.2 1.206e+04 8.627e-10
 60.22739    -30.3 1.249e+04 1.270e-09
 60.25704    -29.6 1.235e+04 1.409e-09
 60.27238    -29.0 1.246e+04 1.693e-09
 60.28229    -29.0 1.304e+04 2.195e-09
 60.29621    -28.0 1.289e+04 2.210e-09
 60.30612    -27.7 1.299e+04 2.390e-09
 60.31642    -26.4 1.250e+04 2.216e-09
 60.33625    -24.9 1.200e+04 1.691e-09
 60.35608    -24.0 1.147e+04 1.152e-09
 60.38478    -23.2 1.100e+04 7.777e-10
 60.40461    -24.0 1.060e+04 4.175e-10
 60.42557    -23.2 9.949e+03 2.883e-10
 60.46533    -21.5 9.346e+03 1.987e-10
 60.50498    -19.0 8.683e+03 1.363e-10
 60.54464    -16.6 8.484e+03 1.190e-10
 60.58429    -14.1 8.447e+03 1.166e-10
 60.62395    -12.0 8.555e+03 1.319e-10
 60.64915    -10.2 8.693e+03 1.651e-10
 60.66898     -9.5 8.569e+03 1.431e-10
 60.70326     -7.7 8.803e+03 2.119e-10
 60.74292     -5.7 9.104e+03 3.144e-10
 60.78257     -3.4 9.340e+03 3.975e-10
 60.81866     -1.5 9.359e+03 4.109e-10
 60.83848     -0.9 9.251e+03 3.581e-10
 60.86188      0.8 9.145e+03 3.286e-10
 60.89359      2.3 9.015e+03 2.853e-10
 60.91342      3.4 9.072e+03 3.088e-10
 60.94119      4.7 8.823e+03 2.612e-10
 60.98085      6.3 8.646e+03 2.370e-10
 61.02050      8.3 8.466e+03 2.094e-10
 61.06016     10.4 8.301e+03 1.641e-10
 61.09981     12.1 8.160e+03 1.237e-10
 61.13803     13.4 8.026e+03 1.071e-10
 61.15786     14.5 8.059e+03 1.109e-10
 61.17913     16.1 8.055e+03 1.121e-10
 61.21878     17.2 8.170e+03 1.359e-10
 61.25844     18.6 8.427e+03 1.884e-10
 61.29809     20.1 8.750e+03 2.677e-10
 61.33775     21.5 9.145e+03 3.615e-10
 61.36074     22.8 9.399e+03 4.358e-10
 61.38057     22.7 9.346e+03 4.165e-10
 61.40230     23.8 9.516e+03 4.657e-10
 61.42213     23.3 1.007e+04 6.229e-10
 61.45671     24.1 1.020e+04 6.644e-10
 61.49637     24.8 1.020e+04 6.750e-10
 61.53602     25.7 1.020e+04 6.904e-10
 61.57568     26.7 1.015e+04 6.926e-10
 61.61534     28.0 9.987e+03 6.276e-10
 61.64674     29.1 9.879e+03 5.716e-10
 61.66657     27.9 9.665e+03 5.110e-10
 61.69465     29.0 9.475e+03 4.670e-10
 61.73430     30.3 9.358e+03 4.562e-10
 61.77396     31.8 9.272e+03 4.470e-10
 61.81361     33.7 9.108e+03 4.053e-10
 61.85327     35.8 8.834e+03 3.336e-10
 61.88299     38.0 8.557e+03 2.568e-10
 61.90108     38.0 8.610e+03 2.614e-10
 61.91101     37.6 8.470e+03 2.290e-10
 61.93258     39.7 8.301e+03 1.892e-10
 61.97223     41.8 8.163e+03 1.562e-10
 62.01189     43.9 8.062e+03 1.350e-10
 62.05155     46.2 7.997e+03 1.219e-10
 62.09120     48.6 7.981e+03 1.128e-10
 62.13086     50.9 7.997e+03 1.057e-10
 62.15545     53.2 8.025e+03 1.009e-10
 62.17528     52.9 7.851e+03 7.578e-11
 62.21017     55.2 7.866e+03 7.657e-11
 62.24982     57.4 7.898e+03 7.986e-11
 62.28948     59.6 7.938e+03 8.575e-11
 62.32913     61.8 7.984e+03 9.296e-11
 62.36879     64.1 8.042e+03 9.851e-11
 62.39989     66.4 8.108e+03 1.021e-10
 62.41652     66.3 8.086e+03 1.024e-10
 62.42507     66.2 8.081e+03 1.006e-10
 62.44810     68.5 8.147e+03 1.027e-10
 62.48776     70.8 8.205e+03 1.033e-10
 62.52741     73.1 8.256e+03 1.022e-10
 62.56707     75.4 8.295e+03 1.016e-10
 62.60672     77.6 8.341e+03 1.023e-10
 62.64434     79.8 8.409e+03 1.062e-10
 62.66416     79.8 8.484e+03 1.396e-10
 62.68603     82.1 8.576e+03 1.580e-10
 62.72569     84.4 8.688e+03 1.844e-10
 62.76534     86.9 8.847e+03 2.132e-10
 62.80500     89.2 8.998e+03 2.261e-10
 62.84466     91.4 9.012e+03 2.241e-10
 62.88431     93.7 9.002e+03 2.086e-10
 62.90860     96.0 8.953e+03 1.716e-10
 62.92843     96.3 9.039e+03 1.856e-10
 62.94733     98.7 8.952e+03 1.425e-10
 62.96715     98.1 8.924e+03 1.349e-10
 63.00328    100.3 8.873e+03 1.029e-10
 63.04293    102.4 8.830e+03 8.201e-11
 63.08259    104.5 8.813e+03 7.807e-11
 63.12224    106.8 8.823e+03 7.885e-11
 63.15305    108.9 8.879e+03 8.347e-11
 63.17287    109.6 8.878e+03 8.658e-11
 63.20155    111.7 9.026e+03 1.046e-10
 63.24121    113.7 9.385e+03 1.523e-10
 63.28087    115.3 9.852e+03 2.422e-10
 63.32052    115.8 1.018e+04 3.392e-10
 63.35016    116.1 1.062e+04 5.106e-10
 63.36990    116.6 1.097e+04 6.666e-10
 63.38972    117.0 1.131e+04 7.935e-10
 63.40721    117.0 1.149e+04 8.079e-10
 63.41712    116.9 1.232e+04 1.263e-09
 63.43939    117.0 1.254e+04 1.314e-09
 63.46958    117.0 1.221e+04 9.050e-10
 63.48941    116.3 1.206e+04 8.212e-10
 63.51880    116.1 1.150e+04 4.584e-10
 63.55845    115.7 1.072e+04 2.974e-10
 63.59811    115.6 1.047e+04 2.912e-10
 63.63776    116.0 1.042e+04 3.033e-10
 63.66176    116.6 1.040e+04 3.593e-10
 63.68158    115.7 1.021e+04 3.303e-10
 63.71708    116.3 1.019e+04 3.364e-10
 63.75673    116.6 1.017e+04 3.272e-10
 63.79639    116.7 1.007e+04 2.977e-10
 63.83604    116.7 9.857e+03 2.662e-10
 63.87570    116.6 9.684e+03 2.570e-10
 63.90620    117.0 9.680e+03 2.643e-10
 63.92603    116.8 9.249e+03 1.782e-10
 63.95501    117.9 9.280e+03 2.034e-10
 63.99183    119.1 9.433e+03 2.405e-10
 64.01166    119.6 9.266e+03 2.364e-10
 64.03432    121.0 9.436e+03 2.714e-10
 64.07397    122.5 9.576e+03 3.037e-10
 64.11363    124.0 9.664e+03 3.287e-10
 64.15064    125.5 9.694e+03 3.444e-10
 64.17047    126.3 9.615e+03 3.448e-10
 64.19294    127.9 9.753e+03 3.928e-10
 64.23260    129.3 9.930e+03 4.516e-10
 64.27225    130.6 1.037e+04 5.739e-10
 64.31191    131.9 1.092e+04 7.643e-10
 64.34155    132.5 1.097e+04 8.078e-10
 64.36128    132.8 1.112e+04 8.979e-10
 64.38111    133.0 1.137e+04 1.046e-09
 64.40094    133.1 1.161e+04 1.197e-09
 64.41471    133.2 1.171e+04 1.289e-09
 64.42463    133.4 1.233e+04 1.648e-09
 64.44059    133.4 1.227e+04 1.622e-09
 64.46042    133.5 1.212e+04 1.521e-09
 64.48025    133.7 1.194e+04 1.387e-09
 64.50008    133.9 1.172e+04 1.202e-09
 64.51990    134.2 1.149e+04 1.026e-09
 64.53372    134.6 1.129e+04 8.781e-10
 64.54084    135.3 1.143e+04 1.019e-09
 64.54685    135.3 1.116e+04 9.052e-10
 64.55956    135.5 1.096e+04 7.797e-10
 64.57939    135.6 1.083e+04 6.959e-10
 64.59921    135.8 1.075e+04 6.492e-10
 64.61904    136.0 1.070e+04 6.253e-10
 64.63887    136.2 1.067e+04 6.106e-10
 64.65870    136.3 1.063e+04 5.974e-10
 64.66907    136.4 1.060e+04 5.856e-10
 64.67898    135.7 1.008e+04 3.939e-10
 64.69835    135.8 1.011e+04 4.036e-10
 64.71818    135.7 1.018e+04 4.181e-10
 64.73801    135.6 1.030e+04 4.429e-10
 64.75784    135.3 1.051e+04 4.893e-10
 64.77766    134.9 1.074e+04 5.536e-10
 64.79129    134.6 1.094e+04 6.242e-10
 64.79856    134.1 1.079e+04 5.514e-10
 64.80476    134.6 1.068e+04 5.183e-10
 64.81732    134.1 1.088e+04 5.964e-10
 64.83715    133.5 1.107e+04 6.601e-10
 64.85698    132.4 1.151e+04 6.972e-10
 64.87680    130.3 1.205e+04 7.017e-10
 64.90369    127.6 1.374e+04 7.245e-10
 64.92352    123.7 1.374e+04 8.786e-10
 64.93629    122.9 1.357e+04 1.130e-09
 64.95611    122.6 1.325e+04 1.243e-09
 64.98595    120.9 1.282e+04 1.562e-09
 65.02571    121.3 1.220e+04 1.353e-09
 65.05617    122.4 1.184e+04 1.118e-09
 65.07600    124.0 1.185e+04 1.078e-09
 65.10502    125.2 1.151e+04 9.132e-10
 65.14467    126.6 1.123e+04 7.540e-10
 65.16806    128.1 1.097e+04 6.115e-10
 65.18789    126.3 1.038e+04 4.341e-10
 65.22398    128.0 1.012e+04 4.199e-10
 65.26364    130.0 1.007e+04 4.088e-10
 65.30329    131.5 1.012e+04 4.023e-10
 65.34295    133.1 1.015e+04 3.916e-10
 65.38261    134.6 1.017e+04 3.841e-10
 65.41250    136.2 1.014e+04 3.694e-10
 65.43233    134.9 1.015e+04 3.545e-10
 65.46192    136.1 1.011e+04 3.542e-10
 65.50157    137.4 1.005e+04 3.508e-10
 65.54123    138.7 9.985e+03 3.445e-10
 65.57842    140.1 9.905e+03 3.396e-10
 65.59825    140.5 9.940e+03 3.411e-10
 65.62054    142.1 9.924e+03 3.419e-10
 65.65694    143.7 9.914e+03 3.406e-10
 65.67677    142.9 9.835e+03 3.429e-10
 65.69985    144.7 9.755e+03 3.044e-10
 65.73950    146.4 9.665e+03 2.559e-10
 65.77916    147.9 9.552e+03 2.093e-10
 65.81882    149.4 9.413e+03 1.791e-10
 65.85847    150.9 9.361e+03 1.763e-10
 65.89813    152.5 9.369e+03 1.816e-10
 65.92121    154.0 9.443e+03 2.087e-10
 65.94104    153.4 9.405e+03 2.072e-10
 65.97744    154.8 9.676e+03 2.876e-10
 66.01709    156.0 9.992e+03 3.830e-10
 66.05675    156.9 1.029e+04 4.367e-10
 66.09640    157.5 1.035e+04 4.377e-10
 66.12050    157.9 1.038e+04 4.188e-10
 66.14033    158.3 1.077e+04 5.983e-10
 66.16565    158.6 1.071e+04 5.074e-10
 66.18548    157.2 1.050e+04 3.860e-10
 66.21537    157.4 1.037e+04 3.024e-10
 66.25503    157.6 1.029e+04 2.793e-10
 66.29468    157.8 1.030e+04 2.845e-10
 66.33434    158.0 1.036e+04 3.049e-10
 66.37399    158.4 1.060e+04 3.643e-10
 66.41009    158.3 1.088e+04 4.296e-10
 66.42982    156.8 1.096e+04 4.381e-10
 66.44319    157.1 1.101e+04 4.713e-10
 66.46302    157.4 1.108e+04 5.039e-10
 66.48285    157.2 1.119e+04 5.314e-10
 66.50268    156.9 1.127e+04 5.426e-10
 66.53252    156.7 1.119e+04 5.094e-10
 66.57227    157.3 1.108e+04 5.002e-10
 66.61193    158.0 1.092e+04 4.736e-10
 66.64276    158.9 1.079e+04 4.410e-10
 66.66259    159.3 1.093e+04 4.932e-10
 66.67436    160.2 1.080e+04 4.567e-10
 66.69419    159.4 1.034e+04 2.902e-10
 66.73089    160.5 1.028e+04 2.730e-10
 66.77055    161.7 1.024e+04 2.535e-10
 66.81020    163.0 1.020e+04 2.326e-10
 66.84986    164.3 1.020e+04 2.152e-10
 66.88951    165.7 1.023e+04 2.118e-10
 66.91880    167.1 1.025e+04 2.134e-10
 66.93863    167.4 1.012e+04 1.799e-10
 66.96882    169.0 1.020e+04 1.958e-10
 67.00848    170.6 1.031e+04 2.240e-10
 67.04814    172.2 1.047e+04 2.653e-10
 67.08779    173.9 1.065e+04 3.206e-10
 67.12745    175.6 1.084e+04 3.796e-10
 67.16325    177.2 1.102e+04 4.238e-10
 67.18098    177.9 1.107e+04 4.988e-10
 67.18484    177.7 1.103e+04 4.708e-10
 67.20676    179.2 1.118e+04 5.014e-10
 67.24641    180.6 1.121e+04 4.939e-10
 67.28607    181.9 1.117e+04 4.468e-10
 67.32572    183.3 1.106e+04 3.654e-10
 67.36538    184.6 1.091e+04 2.768e-10
 67.40503    185.9 1.075e+04 2.025e-10
 67.42751    187.1 1.058e+04 1.525e-10
 67.44734    187.9 1.106e+04 2.973e-10
 67.48435    188.9 1.084e+04 2.272e-10
 67.52400    189.8 1.056e+04 1.948e-10
 67.56366    190.7 1.049e+04 1.937e-10
 67.60331    191.8 1.057e+04 2.018e-10
 67.64297    192.9 1.076e+04 2.280e-10
 67.67196    194.0 1.103e+04 2.800e-10
 67.69178    193.7 1.125e+04 3.608e-10
 67.70709    194.0 1.160e+04 4.638e-10
 67.72692    194.2 1.157e+04 4.538e-10
 67.76193    194.0 1.189e+04 5.343e-10
 67.80159    193.5 1.227e+04 5.531e-10
 67.84124    192.1 1.258e+04 5.146e-10
 67.88090    190.1 1.294e+04 4.721e-10
 67.91640    187.4 1.302e+04 4.820e-10
 67.93623    185.9 1.359e+04 1.008e-09
 67.96021    184.3 1.311e+04 8.148e-10
 67.98986    183.6 1.276e+04 6.516e-10
 68.00959    182.5 1.254e+04 5.609e-10
 68.03942    181.2 1.198e+04 4.438e-10
 68.07918    181.3 1.141e+04 3.651e-10
 68.11883    181.8 1.100e+04 3.141e-10
 68.15849    182.1 1.077e+04 2.756e-10
 68.18067    182.1 1.066e+04 2.423e-10
 68.20049    182.1 1.065e+04 2.306e-10
 68.22935    182.1 1.059e+04 2.108e-10
 68.24917    182.7 1.059e+04 2.178e-10
 68.27745    182.5 1.053e+04 1.947e-10
 68.31711    182.2 1.054e+04 1.949e-10
 68.35677    181.7 1.058e+04 2.075e-10
 68.39642    181.2 1.060e+04 2.403e-10
 68.42511    180.9 1.058e+04 2.777e-10
 68.44494    181.4 1.069e+04 3.058e-10
 68.47573    181.0 1.065e+04 3.220e-10
 68.51539    180.8 1.060e+04 3.123e-10
 68.55504    180.8 1.046e+04 2.796e-10
 68.59470    180.9 1.029e+04 2.334e-10
 68.63435    180.9 1.015e+04 1.994e-10
 68.66955    181.2 1.011e+04 1.938e-10
 68.68938    181.2 1.023e+04 2.123e-10
 68.71367    181.6 1.026e+04 2.197e-10
 68.75160    181.5 1.039e+04 2.574e-10
 68.77143    181.1 1.066e+04 3.082e-10
 68.79298    180.8 1.091e+04 4.209e-10
 68.83263    180.3 1.139e+04 6.283e-10
 68.87229    179.3 1.195e+04 9.082e-10
 68.91194    177.7 1.243e+04 1.094e-09
 68.93382    175.6 1.250e+04 1.089e-09
 68.95365    174.5 1.290e+04 1.369e-09
 68.99125    172.6 1.289e+04 1.279e-09
 69.03091    170.6 1.273e+04 1.062e-09
 69.07056    169.3 1.247e+04 8.657e-10
 69.10021    168.0 1.231e+04 7.905e-10
 69.11994    167.0 1.230e+04 8.042e-10
 69.13977    166.1 1.234e+04 8.598e-10
 69.15959    165.4 1.251e+04 1.006e-09
 69.17816    165.7 1.242e+04 9.489e-10
 69.18808    165.0 1.296e+04 1.370e-09
 69.19925    165.0 1.299e+04 1.402e-09
 69.21908    164.9 1.302e+04 1.426e-09
 69.23890    164.7 1.311e+04 1.484e-09
 69.25873    164.4 1.329e+04 1.592e-09
 69.27856    164.0 1.347e+04 1.721e-09
 69.29349    163.4 1.360e+04 1.844e-09
 69.30340    162.9 1.358e+04 1.814e-09
 69.31020    162.5 1.356e+04 1.840e-09
 69.32011    161.7 1.367e+04 1.967e-09
 69.33804    161.4 1.350e+04 1.863e-09
 69.35787    161.3 1.328e+04 1.713e-09
 69.37770    161.0 1.306e+04 1.530e-09
 69.39753    160.6 1.295e+04 1.400e-09
 69.41735    160.0 1.296e+04 1.388e-09
 69.43242    159.2 1.302e+04 1.412e-09
 69.44233    158.9 1.267e+04 1.151e-09
 69.45701    158.1 1.279e+04 1.217e-09
 69.47684    156.9 1.320e+04 1.435e-09
 69.49667    154.6 1.424e+04 1.985e-09
 69.51649    151.0 1.579e+04 3.253e-09
 69.53632    147.0 1.714e+04 5.648e-09
 69.55461    143.4 1.786e+04 8.381e-09
 69.56453    144.1 1.695e+04 6.034e-09
 69.57598    140.8 1.705e+04 6.791e-09
 69.59580    137.8 1.686e+04 6.488e-09
 69.61563    135.4 1.609e+04 5.005e-09
 69.63546    133.6 1.486e+04 3.027e-09
 69.66530    129.8 1.310e+04 1.214e-09
 69.68697    125.0 9.046e+03 3.347e-10
 69.70680    127.8 1.049e+04 4.612e-10
 69.74471    123.7 8.361e+03 1.343e-10
 69.78436    121.3 8.461e+03 1.003e-10
 69.81594    120.4 8.451e+03 9.934e-11
 69.83576    120.5 8.239e+03 9.419e-11
 69.86367    119.7 8.282e+03 9.543e-11
 69.90333    118.9 8.462e+03 1.009e-10
 69.93141    117.8 8.712e+03 1.111e-10
 69.95124    117.5 8.721e+03 1.178e-10
 69.98264    115.7 8.987e+03 1.401e-10
 70.02230    113.3 9.493e+03 1.772e-10
 70.06195    111.3 9.993e+03 2.184e-10
 70.08688    110.0 1.030e+04 2.423e-10
 70.09669    110.6 1.003e+04 2.339e-10
 70.11133    109.5 1.036e+04 2.523e-10
 70.13115    107.6 1.138e+04 2.984e-10
 70.15098    105.0 1.252e+04 4.356e-10
 70.17081    101.4 1.393e+04 8.171e-10
 70.18557     96.9 1.593e+04 2.001e-09
 70.19548     93.2 1.673e+04 4.120e-09
 70.21046     90.4 1.796e+04 7.870e-09
 70.23029     88.2 1.854e+04 1.105e-08
 70.25012     86.5 1.840e+04 1.032e-08
 70.26995     85.0 1.784e+04 7.110e-09
 70.28977     82.4 1.680e+04 3.346e-09
 70.30779     77.8 1.463e+04 1.210e-09
 70.31771     72.7 1.181e+04 6.131e-10
 70.32943     69.6 1.026e+04 3.943e-10
 70.34791     69.4 1.012e+04 3.574e-10
 70.35782     70.1 1.020e+04 3.892e-10
 70.36909     70.0 1.012e+04 3.461e-10
 70.38891     69.9 1.009e+04 3.199e-10
 70.40874     70.6 1.001e+04 2.927e-10
 70.42857     70.7 9.979e+03 2.869e-10
 70.44002     71.8 9.941e+03 2.692e-10
 70.45995     70.6 9.653e+03 2.283e-10
 70.49816     71.0 9.416e+03 2.115e-10
 70.53782     71.6 9.359e+03 2.112e-10
 70.57747     72.2 9.360e+03 2.159e-10
 70.61713     72.8 9.352e+03 2.216e-10
 70.65678     73.3 9.334e+03 2.211e-10
 70.68456     74.0 9.266e+03 2.137e-10
 70.70439     73.1 9.104e+03 1.865e-10
 70.73609     74.0 9.010e+03 1.634e-10
 70.77575     74.7 8.937e+03 1.449e-10
 70.81541     75.5 8.937e+03 1.423e-10
 70.85506     76.4 8.974e+03 1.466e-10
 70.88027     77.2 9.138e+03 1.743e-10
 70.90010     76.9 9.134e+03 1.684e-10
 70.92900     77.7 9.440e+03 2.287e-10
 70.94883     77.3 9.393e+03 2.203e-10
 70.97403     78.2 9.761e+03 3.192e-10
 71.01368     79.0 1.004e+04 4.092e-10
 71.05334     79.6 1.016e+04 4.339e-10
 71.09299     80.3 1.016e+04 4.190e-10
 71.13265     80.9 1.011e+04 3.860e-10
 71.17230     81.6 1.002e+04 3.804e-10
 71.19327     82.5 1.005e+04 3.899e-10
 71.21310     82.5 1.003e+04 3.997e-10
 71.25162     83.5 1.009e+04 4.199e-10
 71.29127     84.5 1.010e+04 4.258e-10
 71.31540     85.2 1.022e+04 4.454e-10
 71.32521     85.1 1.017e+04 4.424e-10
 71.34064     85.5 1.023e+04 4.528e-10
 71.36047     85.8 1.034e+04 4.789e-10
 71.38030     86.1 1.047e+04 5.163e-10
 71.40013     86.3 1.061e+04 5.707e-10
 71.41224     86.6 1.076e+04 6.405e-10
 71.42216     85.8 1.101e+04 7.414e-10
 71.43752     86.1 1.120e+04 8.431e-10
 71.44743     86.1 1.117e+04 8.528e-10
 71.45961     86.4 1.137e+04 9.524e-10
 71.47944     86.7 1.154e+04 1.039e-09
 71.49927     86.9 1.161e+04 1.074e-09
 71.51909     87.2 1.159e+04 1.066e-09
 71.53892     87.7 1.149e+04 1.018e-09
 71.55875     88.4 1.126e+04 8.894e-10
 71.56965     89.3 1.098e+04 7.241e-10
 71.57957     89.7 1.091e+04 7.152e-10
 71.60842     89.5 1.068e+04 4.893e-10
 71.64817     90.2 1.034e+04 3.042e-10
 71.68216     91.0 1.032e+04 2.856e-10
 71.70198     91.5 1.045e+04 3.536e-10
 71.71747     91.1 1.044e+04 3.430e-10
 71.73720     91.2 1.049e+04 3.742e-10
 71.75703     91.7 1.073e+04 5.001e-10
 71.77685     92.4 1.102e+04 6.653e-10
 71.80669     94.0 1.153e+04 9.076e-10
 71.84645     94.4 1.210e+04 1.141e-09
 71.88610     94.1 1.225e+04 1.145e-09
 71.92478     94.0 1.218e+04 1.025e-09
 71.94461     92.6 1.157e+04 6.837e-10
 71.94642     92.8 1.134e+04 5.278e-10
 71.96625     92.8 1.141e+04 5.981e-10
 72.00507     93.3 1.112e+04 4.779e-10
 72.04472     94.2 1.093e+04 4.209e-10
 72.08438     95.5 1.089e+04 4.086e-10
 72.12404     97.1 1.092e+04 4.188e-10
 72.16369     98.7 1.102e+04 4.456e-10
 72.19087    100.4 1.116e+04 4.691e-10
 72.21069    100.8 1.120e+04 4.993e-10
 72.24300    102.4 1.130e+04 5.131e-10
 72.28266    104.1 1.132e+04 5.169e-10
 72.32231    106.0 1.135e+04 5.295e-10
 72.36197    108.2 1.147e+04 5.733e-10
 72.40162    110.6 1.178e+04 6.824e-10
 72.43531    112.6 1.222e+04 8.560e-10
 72.45504    112.9 1.280e+04 1.164e-09
 72.46666    113.3 1.317e+04 1.359e-09
 72.47658    113.4 1.286e+04 1.135e-09
 72.49065    113.5 1.343e+04 1.433e-09
 72.51048    113.2 1.431e+04 2.061e-09
 72.53031    112.9 1.521e+04 3.035e-09
 72.55014    112.5 1.600e+04 4.359e-09
 72.56725    112.1 1.672e+04 6.046e-09
 72.57716    111.4 1.774e+04 1.002e-08
 72.58979    110.9 1.812e+04 1.143e-08
 72.60962    110.1 1.832e+04 1.225e-08
 72.62945    109.3 1.851e+04 1.324e-08
 72.64928    108.7 1.861e+04 1.427e-08
 72.66910    108.3 1.851e+04 1.353e-08
 72.68893    108.2 1.831e+04 1.166e-08
 72.69938    108.0 1.793e+04 9.000e-09
 72.70929    106.9 1.606e+04 3.858e-09
 72.72779    106.0 1.510e+04 2.465e-09
 72.73771    106.4 1.553e+04 3.004e-09
 72.74841    105.2 1.441e+04 1.830e-09
 72.76824    104.0 1.334e+04 1.174e-09
 72.78807    103.1 1.257e+04 8.437e-10
 72.80790    102.8 1.208e+04 7.223e-10
 72.82160    102.9 1.176e+04 6.736e-10
 72.83152    103.0 1.138e+04 4.881e-10
 72.84755    103.3 1.131e+04 4.755e-10
 72.87739    104.5 1.135e+04 5.155e-10
 72.91715    106.5 1.117e+04 4.788e-10
 72.94392    108.0 1.099e+04 4.446e-10
 72.96375    108.7 1.071e+04 3.573e-10
 72.98911    110.7 1.074e+04 3.640e-10
 73.00894    111.0 1.068e+04 3.552e-10
 73.03611    113.0 1.072e+04 3.608e-10
 73.07577    115.1 1.074e+04 3.604e-10
 73.11542    117.2 1.077e+04 3.585e-10
 73.15508    119.2 1.080e+04 3.504e-10
 73.18846    121.2 1.081e+04 3.322e-10
 73.20829    121.7 1.059e+04 2.784e-10
 73.23439    123.5 1.065e+04 2.810e-10
 73.27404    125.1 1.074e+04 2.981e-10
 73.31370    126.3 1.078e+04 3.218e-10
 73.34334    127.1 1.072e+04 3.411e-10
 73.36307    128.1 1.071e+04 3.725e-10
 73.38290    129.2 1.084e+04 4.318e-10
 73.40273    130.1 1.112e+04 5.132e-10
 73.42256    130.6 1.145e+04 6.231e-10
 73.44238    130.7 1.174e+04 7.654e-10
 73.45253    130.7 1.219e+04 1.001e-09
 73.46245    130.4 1.221e+04 9.772e-10
 73.48204    130.3 1.270e+04 1.321e-09
 73.50187    130.4 1.316e+04 1.800e-09
 73.52109    130.7 1.359e+04 2.368e-09
 73.53100    131.2 1.313e+04 1.749e-09
 73.54152    131.5 1.344e+04 2.090e-09
 73.56135    131.7 1.371e+04 2.256e-09
 73.57475    131.7 1.379e+04 2.265e-09
 73.58467    131.2 1.346e+04 1.889e-09
 73.60101    131.1 1.348e+04 1.880e-09
 73.62083    130.9 1.352e+04 1.876e-09
 73.64066    130.5 1.361e+04 1.925e-09
 73.66049    130.0 1.374e+04 2.065e-09
 73.68032    129.7 1.391e+04 2.300e-09
 73.69697    129.8 1.406e+04 2.566e-09
 73.70689    129.9 1.387e+04 2.301e-09
 73.71997    130.1 1.412e+04 2.512e-09
 73.73980    130.4 1.410e+04 2.493e-09
 73.75963    130.6 1.398e+04 2.350e-09
 73.77946    130.9 1.371e+04 2.047e-09
 73.79213    131.2 1.332e+04 1.678e-09
 73.80204    132.1 1.380e+04 2.126e-09
 73.81911    132.4 1.337e+04 1.708e-09
 73.83894    132.7 1.308e+04 1.466e-09
 73.85877    132.8 1.267e+04 1.194e-09
 73.87859    133.0 1.236e+04 1.010e-09
 73.89842    133.4 1.216e+04 8.997e-10
 73.91825    133.9 1.209e+04 8.470e-10
 73.93808    134.6 1.214e+04 8.345e-10
 73.95133    135.4 1.220e+04 8.545e-10
 73.96124    135.4 1.247e+04 1.053e-09
 73.97773    136.1 1.268e+04 1.169e-09
 73.99756    136.8 1.289e+04 1.340e-09
 74.01739    137.6 1.325e+04 1.600e-09
 74.03722    137.6 1.392e+04 2.052e-09
 74.05325    137.5 1.495e+04 2.879e-09
 74.06317    137.8 1.470e+04 2.668e-09
 74.07355    137.4 1.570e+04 3.712e-09
 74.08346    137.5 1.626e+04 4.562e-09
 74.09169    136.8 1.691e+04 5.412e-09
 74.10156    136.0 1.771e+04 6.880e-09
 74.11147    135.2 1.856e+04 9.144e-09
 74.12139    134.4 1.950e+04 1.230e-08
 74.13130    133.2 2.064e+04 1.694e-08
 74.13952    131.8 2.193e+04 2.437e-08
 74.14448    131.1 2.258e+04 3.040e-08
 74.15113    129.4 2.364e+04 4.716e-08
 74.16104    127.5 2.445e+04 7.220e-08
 74.17096    125.0 2.501e+04 9.573e-08
 74.18087    122.0 2.558e+04 9.973e-08
 74.18868    119.0 2.573e+04 9.562e-08
 74.19363    116.3 2.666e+04 8.845e-08
 74.20063    112.8 2.708e+04 8.330e-08
 74.20559    112.4 2.707e+04 8.446e-08
 74.21061    108.9 2.776e+04 6.902e-08
 74.22053    105.3 2.809e+04 5.488e-08
 74.23044    101.3 2.781e+04 4.562e-08
 74.24035     97.0 2.684e+04 4.375e-08
 74.25027     92.6 2.629e+04 4.594e-08
 74.26018     88.2 2.528e+04 5.512e-08
 74.26670     84.6 2.414e+04 7.714e-08
 74.27165     83.3 2.374e+04 9.115e-08
 74.28001     81.4 2.297e+04 1.375e-07
 74.28992     80.0 2.289e+04 1.694e-07
 74.29984     78.8 2.291e+04 1.662e-07
 74.30975     78.1 2.293e+04 1.382e-07
 74.31924     78.0 2.289e+04 9.196e-08
 74.32420     76.7 2.329e+04 7.885e-08
 74.32781     75.7 2.370e+04 3.946e-08
 74.33276     75.3 2.381e+04 3.075e-08
 74.33949     73.2 2.403e+04 1.578e-08
 74.35441     66.8 2.286e+04 5.693e-09
 74.37429     59.8 1.827e+04 2.045e-09
 74.39412     53.6 1.266e+04 1.064e-09
 74.41394     50.2 1.134e+04 8.101e-10
 74.43377     48.4 1.092e+04 7.086e-10
 74.45013     47.2 1.069e+04 5.972e-10
 74.47005     47.2 1.073e+04 5.568e-10
 74.50336     45.8 9.929e+03 4.089e-10
 74.54302     45.5 9.491e+03 3.088e-10
 74.57570     45.5 9.243e+03 2.583e-10
 74.59553     44.3 9.575e+03 3.197e-10
 74.62233     44.8 9.558e+03 3.157e-10
 74.66199     45.5 9.574e+03 3.210e-10
 74.69476     46.3 9.598e+03 3.267e-10
 74.71459     46.1 9.516e+03 3.174e-10
 74.74130     47.0 9.536e+03 3.180e-10
 74.78095     48.0 9.537e+03 3.144e-10
 74.82061     49.3 9.548e+03 3.137e-10
 74.86026     50.8 9.588e+03 3.142e-10
 74.88991     51.7 9.637e+03 3.217e-10
 74.90964     52.5 9.687e+03 3.299e-10
 74.92946     53.5 9.721e+03 3.453e-10
 74.94892     54.7 9.800e+03 3.721e-10
 74.95884     54.9 9.915e+03 3.791e-10
 74.96912     56.0 1.037e+04 4.386e-10
 74.98895     55.4 1.205e+04 6.447e-10
 75.00878     52.8 1.547e+04 1.541e-09
 75.02860     50.0 1.921e+04 4.912e-09
 75.04843     48.5 2.094e+04 1.113e-08
 75.06325     45.9 2.157e+04 2.265e-08
 75.07312     45.9 2.135e+04 3.394e-08
 75.08096     45.7 2.150e+04 3.927e-08
 75.08592     45.4 2.172e+04 5.174e-08
 75.09295     40.9 2.547e+04 8.111e-08
 75.10286     25.8 3.218e+04 1.746e-07
 75.11253      6.4 3.531e+04 1.436e-07
 75.11749      2.4 3.848e+04 6.093e-08
 75.12269    -14.5 2.892e+04 4.493e-08
 75.13260    -24.5 2.232e+04 3.512e-08
 75.14207    -27.4 2.327e+04 2.744e-08
 75.14703    -28.9 2.457e+04 2.336e-08
 75.15243    -33.7 2.586e+04 1.603e-08
 75.16234    -43.2 2.405e+04 7.426e-09
 75.17226    -55.0 1.693e+04 3.411e-09
 75.18217    -58.8 1.486e+04 2.631e-09
 75.19208    -59.9 1.450e+04 2.439e-09
 75.20323    -62.2 1.338e+04 1.982e-09
 75.21319    -62.5 1.339e+04 2.288e-09
 75.22688    -62.5 1.319e+04 2.213e-09
 75.24671    -62.1 1.269e+04 1.804e-09
 75.26654    -61.8 1.199e+04 1.297e-09
 75.28636    -61.8 1.123e+04 8.885e-10
 75.30619    -62.0 1.052e+04 6.117e-10
 75.32550    -62.1 9.921e+03 4.426e-10
 75.33541    -61.7 1.003e+04 4.751e-10
 75.34585    -61.4 9.663e+03 3.804e-10
 75.37569    -61.3 9.422e+03 3.289e-10
 75.41544    -60.4 9.216e+03 2.951e-10
 75.44791    -59.3 9.040e+03 2.727e-10
 75.46774    -58.9 9.051e+03 2.731e-10
 75.49475    -58.0 8.918e+03 2.562e-10
 75.53441    -57.4 8.828e+03 2.420e-10
 75.57406    -57.1 8.799e+03 2.378e-10
 75.61372    -57.1 8.871e+03 2.527e-10
 75.64004    -57.8 9.425e+03 3.458e-10
 75.65987    -56.9 9.397e+03 3.468e-10
 75.68302    -57.5 9.803e+03 4.490e-10
 75.70207    -57.8 1.008e+04 5.284e-10
 75.71199    -57.6 1.007e+04 5.275e-10
 75.72257    -57.7 1.048e+04 7.139e-10
 75.74240    -57.7 1.076e+04 8.453e-10
 75.76223    -59.1 1.134e+04 1.086e-09
 75.78206    -63.2 1.433e+04 1.969e-09
 75.80189    -68.5 1.736e+04 5.022e-09
 75.82171    -71.7 1.876e+04 1.247e-08
 75.83416    -72.1 1.975e+04 2.426e-08
 75.83907    -72.1 1.981e+04 2.459e-08
 75.84640    -72.3 2.024e+04 3.294e-08
 75.85631    -72.3 2.058e+04 4.099e-08
 75.86623    -72.6 2.048e+04 4.076e-08
 75.87614    -72.1 1.998e+04 2.954e-08
 75.88606    -71.7 1.939e+04 1.776e-08
 75.90092    -73.1 1.842e+04 9.652e-09
 75.92080    -74.9 1.693e+04 5.464e-09
 75.94068    -79.2 1.347e+04 1.662e-09
 75.95643    -82.9 1.100e+04 7.607e-10
 75.96634    -81.8 1.121e+04 8.149e-10
 75.98033    -83.0 1.026e+04 5.918e-10
 76.00016    -83.2 9.964e+03 5.325e-10
 76.01999    -83.1 9.894e+03 5.194e-10
 76.03982    -82.9 9.879e+03 5.172e-10
 76.05965    -82.8 9.888e+03 5.209e-10
 76.07865    -82.7 9.918e+03 5.297e-10
 76.08856    -82.1 9.896e+03 5.091e-10
 76.09930    -82.1 9.986e+03 5.263e-10
 76.11913    -82.4 1.019e+04 5.574e-10
 76.13896    -83.2 1.050e+04 6.124e-10
 76.15878    -84.3 1.086e+04 7.082e-10
 76.17201    -85.6 1.120e+04 8.597e-10
 76.18192    -85.4 1.132e+04 9.096e-10
 76.19844    -86.5 1.166e+04 1.127e-09
 76.21078    -87.4 1.193e+04 1.311e-09
 76.22070    -86.6 1.193e+04 1.308e-09
 76.23810    -87.5 1.203e+04 1.374e-09
 76.25792    -88.6 1.202e+04 1.370e-09
 76.27775    -89.7 1.178e+04 1.231e-09
 76.29758    -90.9 1.143e+04 1.050e-09
 76.31741    -91.9 1.111e+04 8.948e-10
 76.33300    -92.8 1.088e+04 7.698e-10
 76.34292    -92.1 1.089e+04 7.611e-10
 76.35706    -92.9 1.074e+04 6.649e-10
 76.37689    -93.5 1.066e+04 5.787e-10
 76.39672    -94.2 1.056e+04 5.001e-10
 76.41655    -95.1 1.038e+04 4.179e-10
 76.44541    -96.7 1.002e+04 3.295e-10
 76.46533    -95.2 1.019e+04 3.597e-10
 76.48614    -96.5 9.896e+03 3.021e-10
 76.52579    -97.3 1.002e+04 3.050e-10
 76.56545    -98.4 1.057e+04 3.856e-10
 76.58746   -100.2 1.101e+04 5.158e-10
 76.59727    -99.5 1.109e+04 5.459e-10
 76.61482   -100.8 1.156e+04 7.773e-10
 76.63465   -101.7 1.207e+04 1.082e-09
 76.65448   -102.4 1.252e+04 1.359e-09
 76.67431   -103.3 1.277e+04 1.500e-09
 76.69413   -104.5 1.281e+04 1.524e-09
 76.70418   -105.8 1.260e+04 1.409e-09
 76.70971   -105.4 1.234e+04 1.202e-09
 76.71949   -104.8 1.253e+04 1.320e-09
 76.73379   -106.0 1.208e+04 9.801e-10
 76.76363   -107.7 1.146e+04 6.401e-10
 76.80338   -110.3 1.067e+04 3.867e-10
 76.84304   -113.3 1.037e+04 3.143e-10
 76.88269   -115.6 1.045e+04 3.324e-10
 76.92235   -117.7 1.108e+04 5.515e-10
 76.95422   -119.3 1.164e+04 8.548e-10
 76.97404   -118.6 1.147e+04 7.302e-10
 77.00166   -120.2 1.198e+04 9.404e-10
 77.03130   -121.4 1.221e+04 9.653e-10
 77.05103   -122.7 1.251e+04 9.185e-10
 77.07086   -125.4 1.246e+04 7.966e-10
 77.08616   -127.8 1.215e+04 7.013e-10
 77.09607   -126.9 1.235e+04 8.118e-10
 77.11052   -128.8 1.195e+04 7.346e-10
 77.13034   -130.1 1.159e+04 6.843e-10
 77.15017   -130.9 1.127e+04 6.219e-10
 77.17000   -131.4 1.099e+04 5.267e-10
 77.18983   -131.9 1.072e+04 4.223e-10
 77.20838   -132.4 1.050e+04 3.519e-10
 77.21829   -131.7 1.052e+04 3.478e-10
 77.22653   -131.9 1.033e+04 3.004e-10
 77.24645   -132.4 1.031e+04 2.842e-10
 77.27925   -133.2 1.028e+04 2.703e-10
 77.31890   -134.4 1.050e+04 3.055e-10
 77.35856   -136.0 1.114e+04 4.745e-10
 77.38820   -136.8 1.170e+04 6.843e-10
 77.40793   -137.3 1.182e+04 7.457e-10
 77.42776   -139.1 1.209e+04 9.364e-10
 77.44759   -140.6 1.240e+04 1.082e-09
 77.46273   -142.3 1.260e+04 1.177e-09
 77.47265   -142.4 1.284e+04 1.292e-09
 77.48724   -144.5 1.296e+04 1.326e-09
 77.49747   -146.6 1.308e+04 1.325e-09
 77.50739   -146.7 1.292e+04 1.173e-09
 77.52690   -148.9 1.294e+04 1.158e-09
 77.54673   -151.4 1.320e+04 1.156e-09
 77.56655   -154.1 1.354e+04 1.270e-09
 77.58495   -156.7 1.381e+04 1.529e-09
 77.59487   -156.7 1.347e+04 1.324e-09
 77.60621   -158.8 1.362e+04 1.545e-09
 77.62604   -160.8 1.377e+04 1.752e-09
 77.64586   -162.9 1.389e+04 1.844e-09
 77.66569   -164.9 1.395e+04 1.851e-09
 77.68552   -167.0 1.417e+04 1.686e-09
 77.70535   -169.2 1.394e+04 1.475e-09
 77.71709   -171.1 1.336e+04 1.364e-09
 77.72700   -170.6 1.328e+04 1.257e-09
 77.74500   -171.9 1.267e+04 1.208e-09
 77.75860   -172.5 1.219e+04 1.168e-09
 77.76851   -171.0 1.225e+04 8.850e-10
 77.78466   -171.6 1.197e+04 8.945e-10
 77.80449   -171.6 1.171e+04 9.332e-10
 77.82431   -171.6 1.156e+04 9.566e-10
 77.83931   -171.3 1.152e+04 9.503e-10
 77.84922   -171.1 1.151e+04 9.241e-10
 77.86397   -170.8 1.140e+04 9.149e-10
 77.88380   -170.4 1.128e+04 8.505e-10
 77.90363   -170.1 1.113e+04 7.458e-10
 77.92345   -169.7 1.096e+04 6.247e-10
 77.94328   -169.3 1.075e+04 5.138e-10
 77.96153   -168.8 1.053e+04 4.295e-10
 77.97144   -168.5 1.054e+04 4.353e-10
 77.98294   -167.9 1.039e+04 3.847e-10
 78.00276   -167.2 1.031e+04 3.684e-10
 78.03260   -166.1 1.031e+04 3.668e-10
 78.07236   -165.1 1.024e+04 3.539e-10
 78.11201   -164.1 1.012e+04 3.438e-10
 78.15167   -163.1 1.001e+04 3.373e-10
 78.19132   -162.3 9.964e+03 3.365e-10
 78.21608   -161.9 9.908e+03 3.466e-10
 78.23591   -162.2 1.005e+04 3.910e-10
 78.27063   -162.4 1.003e+04 4.230e-10
 78.29086   -162.0 1.003e+04 4.524e-10
 78.30068   -161.7 1.004e+04 4.635e-10
 78.32001   -161.9 1.012e+04 5.021e-10
 78.33810   -162.2 1.024e+04 5.527e-10
 78.34802   -162.5 1.027e+04 5.658e-10
 78.35966   -162.8 1.044e+04 6.312e-10
 78.37949   -163.2 1.061e+04 6.978e-10
 78.39932   -163.8 1.071e+04 7.434e-10
 78.41915   -164.7 1.072e+04 7.555e-10
 78.43897   -165.5 1.066e+04 7.533e-10
 78.45880   -166.1 1.041e+04 6.935e-10
 78.47024   -166.6 1.014e+04 5.977e-10
 78.48015   -166.7 1.020e+04 6.298e-10
 78.49846   -167.1 9.960e+03 5.375e-10
 78.51829   -167.6 9.757e+03 4.568e-10
 78.53811   -168.3 9.609e+03 3.911e-10
 78.55189   -169.0 9.534e+03 3.496e-10
 78.56181   -169.2 9.531e+03 3.433e-10
 78.58778   -170.1 9.569e+03 3.338e-10
 78.62753   -171.1 9.690e+03 3.309e-10
 78.65718   -171.3 9.847e+03 3.417e-10
 78.67691   -171.8 1.020e+04 3.847e-10
 78.69673   -172.7 1.062e+04 4.708e-10
 78.71468   -173.6 1.060e+04 5.034e-10
 78.72469   -173.8 1.195e+04 8.099e-10
 78.73649   -174.5 1.173e+04 9.067e-10
 78.75622   -175.8 1.266e+04 1.372e-09
 78.77605   -177.0 1.352e+04 1.946e-09
 78.79587   -178.3 1.439e+04 2.634e-09
 78.81302   -179.6 1.499e+04 3.445e-09
 78.82293   -178.7 1.362e+04 1.921e-09
 78.83553   -180.2 1.414e+04 2.473e-09
 78.84681   -181.5 1.459e+04 3.108e-09
 78.85673   -180.4 1.426e+04 2.976e-09
 78.87518   -181.4 1.455e+04 3.569e-09
 78.89501   -182.0 1.487e+04 4.312e-09
 78.91484   -182.3 1.529e+04 5.183e-09
 78.93467   -182.4 1.581e+04 6.114e-09
 78.95450   -182.7 1.641e+04 7.198e-09
 78.96904   -183.3 1.698e+04 8.158e-09
 78.97895   -182.4 1.631e+04 6.485e-09
 78.99415   -183.2 1.665e+04 6.700e-09
 79.01398   -184.2 1.678e+04 6.729e-09
 79.03381   -185.5 1.680e+04 6.683e-09
 79.05363   -186.7 1.665e+04 6.645e-09
 79.07346   -187.7 1.636e+04 6.670e-09
 79.08406   -188.2 1.597e+04 6.737e-09
 79.09194   -187.5 1.657e+04 8.342e-09
 79.10117   -186.7 1.586e+04 6.075e-09
 79.11312   -187.1 1.552e+04 6.028e-09
 79.13294   -187.2 1.528e+04 5.956e-09
 79.15277   -187.2 1.511e+04 5.657e-09
 79.17260   -187.3 1.483e+04 5.065e-09
 79.19243   -187.4 1.452e+04 4.506e-09
 79.21226   -187.6 1.419e+04 3.932e-09
 79.22339   -187.7 1.383e+04 3.309e-09
 79.23330   -186.8 1.389e+04 3.570e-09
 79.25191   -186.9 1.362e+04 3.115e-09
 79.27174   -187.2 1.335e+04 2.668e-09
 79.29157   -187.6 1.308e+04 2.281e-09
 79.31139   -188.2 1.280e+04 1.948e-09
 79.33122   -188.8 1.246e+04 1.650e-09
 79.34519   -189.6 1.205e+04 1.388e-09
 79.34966   -189.9 1.188e+04 1.316e-09
 79.35552   -188.7 1.253e+04 1.659e-09
 79.37088   -189.4 1.203e+04 1.365e-09
 79.39071   -189.9 1.153e+04 1.145e-09
 79.42054   -190.1 1.109e+04 9.657e-10
 79.45811   -189.4 1.039e+04 6.971e-10
 79.47794   -189.2 1.110e+04 9.099e-10
 79.49995   -188.0 1.033e+04 6.506e-10
 79.53961   -186.8 9.844e+03 4.931e-10
 79.57926   -185.4 9.421e+03 3.762e-10
 79.61892   -183.8 9.172e+03 2.998e-10
 79.65858   -182.1 8.964e+03 2.403e-10
 79.69823   -180.2 8.809e+03 1.958e-10
 79.72238   -178.2 8.687e+03 1.640e-10
 79.74221   -177.6 8.983e+03 2.191e-10
 79.77754   -175.7 8.924e+03 1.974e-10
 79.81720   -173.8 8.898e+03 1.878e-10
 79.85685   -172.1 8.885e+03 1.843e-10
 79.87755   -170.5 8.940e+03 1.900e-10
 79.89738   -170.7 8.949e+03 1.911e-10
 79.93616   -169.3 9.033e+03 2.102e-10
 79.96682   -168.0 9.059e+03 2.215e-10
 79.98665   -167.9 9.400e+03 3.086e-10
 80.01547   -166.6 9.374e+03 3.063e-10
 80.05513   -165.1 9.279e+03 2.895e-10
 80.09479   -163.5 9.199e+03 2.725e-10
 80.13444   -161.8 9.175e+03 2.659e-10
 80.17410   -160.0 9.194e+03 2.671e-10
 80.21126   -158.1 9.244e+03 2.779e-10
 80.23109   -157.8 9.237e+03 2.734e-10
 80.25341   -155.9 9.296e+03 2.779e-10
 80.29306   -153.9 9.357e+03 2.863e-10
 80.33272   -151.9 9.424e+03 2.921e-10
 80.37237   -150.0 9.490e+03 2.950e-10
 80.39980   -148.1 9.569e+03 2.974e-10
 80.41963   -148.8 9.611e+03 2.987e-10
 80.45168   -147.0 9.778e+03 3.023e-10
 80.47553   -145.3 9.930e+03 3.229e-10
 80.49536   -144.9 9.488e+03 2.213e-10
 80.53100   -143.4 9.684e+03 2.465e-10
 80.57065   -141.8 9.913e+03 3.011e-10
 80.59766   -140.5 1.015e+04 3.700e-10
 80.60747   -140.2 9.872e+03 3.090e-10
 80.62003   -140.1 1.020e+04 3.834e-10
 80.64986   -139.2 1.051e+04 5.003e-10
 80.68962   -137.6 1.085e+04 6.645e-10
 80.71997   -136.3 1.111e+04 8.023e-10
 80.73980   -134.6 1.018e+04 4.441e-10
 80.76893   -133.2 1.044e+04 5.309e-10
 80.80858   -132.0 1.061e+04 6.054e-10
 80.84824   -130.9 1.076e+04 6.491e-10
 80.88789   -130.1 1.088e+04 6.540e-10
 80.92206   -129.7 1.089e+04 6.112e-10
 80.94189   -131.7 1.063e+04 4.925e-10
 80.96442   -131.7 1.053e+04 4.078e-10
 80.98424   -129.9 1.077e+04 5.143e-10
 81.00686   -130.4 1.078e+04 4.602e-10
 81.04652   -132.0 1.070e+04 4.050e-10
 81.08617   -133.6 1.059e+04 3.612e-10
 81.12583   -135.2 1.053e+04 3.277e-10
 81.16548   -136.4 1.046e+04 2.788e-10
 81.20514   -137.2 1.039e+04 2.254e-10
 81.22869   -137.8 1.033e+04 1.809e-10
 81.24851   -137.4 1.040e+04 2.119e-10
 81.28445   -137.6 1.031e+04 1.683e-10
 81.32410   -137.7 1.019e+04 1.368e-10
 81.36376   -137.2 1.001e+04 1.143e-10
 81.40342   -136.2 9.845e+03 1.034e-10
 81.44307   -135.2 9.796e+03 1.011e-10
 81.46414   -134.2 9.795e+03 1.016e-10
 81.47437   -135.0 9.906e+03 1.220e-10
 81.49295   -134.8 9.957e+03 1.247e-10
 81.52238   -133.9 1.004e+04 1.569e-10
 81.56204   -133.0 1.010e+04 1.987e-10
 81.60169   -132.1 1.012e+04 2.321e-10
 81.64135   -131.3 1.010e+04 2.438e-10
 81.68100   -130.3 1.007e+04 2.449e-10
 81.71757   -129.1 9.918e+03 2.337e-10
 81.73740   -129.1 1.016e+04 2.899e-10
 81.76032   -127.7 1.006e+04 2.699e-10
 81.79997   -126.2 1.006e+04 2.624e-10
 81.83963   -124.6 1.008e+04 2.620e-10
 81.87928   -123.4 1.039e+04 2.846e-10
 81.91894   -122.5 1.108e+04 4.237e-10
 81.95859   -121.8 1.181e+04 7.313e-10
 81.98184   -121.7 1.271e+04 1.330e-09
 81.98971   -122.5 1.251e+04 1.269e-09
 82.00612   -124.0 1.257e+04 1.262e-09
 82.02789   -123.8 1.317e+04 2.012e-09
 82.04762   -124.3 1.418e+04 2.868e-09
 82.06745   -124.9 1.561e+04 4.251e-09
 82.08728   -126.0 1.705e+04 5.914e-09
 82.10386   -127.8 1.799e+04 7.072e-09
 82.11378   -128.2 1.752e+04 5.950e-09
 82.12693   -130.7 1.772e+04 6.274e-09
 82.14676   -133.4 1.743e+04 6.160e-09
 82.16659   -136.0 1.642e+04 5.129e-09
 82.18642   -138.4 1.532e+04 3.930e-09
 82.20624   -140.5 1.452e+04 3.025e-09
 82.22607   -142.3 1.409e+04 2.445e-09
 82.24590   -144.0 1.390e+04 2.286e-09
 82.25724   -145.2 1.381e+04 2.219e-09
 82.26715   -144.9 1.256e+04 1.143e-09
 82.28555   -145.6 1.255e+04 1.134e-09
 82.30538   -146.0 1.259e+04 1.150e-09
 82.32521   -146.1 1.268e+04 1.214e-09
 82.34504   -146.2 1.272e+04 1.281e-09
 82.35822   -145.9 1.268e+04 1.328e-09
 82.36813   -146.6 1.297e+04 1.594e-09
 82.38469   -145.9 1.294e+04 1.643e-09
 82.40452   -144.9 1.292e+04 1.688e-09
 82.42435   -143.8 1.295e+04 1.743e-09
 82.44418   -143.0 1.309e+04 1.839e-09
 82.46400   -142.8 1.344e+04 2.048e-09
 82.48044   -143.0 1.419e+04 2.576e-09
 82.49035   -143.9 1.414e+04 2.674e-09
 82.50366   -144.5 1.503e+04 3.578e-09
 82.51837   -145.4 1.611e+04 5.203e-09
 82.52828   -144.7 1.562e+04 3.610e-09
 82.54332   -146.4 1.765e+04 6.493e-09
 82.56314   -148.4 1.961e+04 1.142e-08
 82.57797   -150.3 2.034e+04 1.537e-08
 82.58783   -151.4 2.097e+04 1.805e-08
 82.59774   -153.4 2.168e+04 2.123e-08
 82.60752   -155.9 2.249e+04 2.530e-08
 82.61247   -157.2 2.242e+04 2.485e-08
 82.61757   -160.3 2.294e+04 2.930e-08
 82.62749   -163.8 2.305e+04 3.266e-08
 82.63740   -167.3 2.288e+04 3.486e-08
 82.64731   -170.6 2.276e+04 3.562e-08
 82.65379   -173.5 2.215e+04 3.559e-08
 82.65874   -173.6 2.264e+04 3.686e-08
 82.66714   -176.1 2.212e+04 2.768e-08
 82.67359   -178.7 2.176e+04 1.898e-08
 82.67854   -178.9 2.142e+04 1.731e-08
 82.68697   -181.9 2.113e+04 1.120e-08
 82.69688   -185.5 2.051e+04 6.719e-09
 82.70680   -189.4 1.925e+04 4.021e-09
 82.71671   -192.7 1.772e+04 2.737e-09
 82.72662   -194.7 1.693e+04 2.270e-09
 82.73474   -196.6 1.628e+04 1.894e-09
 82.74471   -194.7 1.649e+04 2.225e-09
 82.76142   -197.8 1.436e+04 1.324e-09
 82.77949   -199.6 1.239e+04 8.789e-10
 82.78941   -199.8 1.113e+04 5.904e-10
 82.80108   -199.8 1.090e+04 5.696e-10
 82.82090   -199.6 1.085e+04 5.696e-10
 82.84073   -199.3 1.085e+04 5.905e-10
 82.85701   -199.0 1.088e+04 6.176e-10
 82.86693   -197.7 1.066e+04 5.371e-10
 82.88039   -197.5 1.071e+04 5.567e-10
 82.90021   -197.4 1.089e+04 6.143e-10
 82.92004   -197.8 1.134e+04 7.481e-10
 82.93987   -198.7 1.202e+04 1.016e-09
 82.95970   -199.5 1.281e+04 1.477e-09
 82.97923   -200.2 1.356e+04 2.142e-09
 82.98915   -198.4 1.273e+04 1.458e-09
 82.99935   -199.1 1.342e+04 2.046e-09
 83.01918   -199.8 1.393e+04 2.643e-09
 83.03901   -200.7 1.415e+04 3.047e-09
 83.05053   -201.7 1.417e+04 3.165e-09
 83.06045   -200.6 1.451e+04 3.703e-09
 83.07866   -201.7 1.451e+04 3.788e-09
 83.09849   -202.7 1.433e+04 3.723e-09
 83.11137   -203.8 1.410e+04 3.318e-09
 83.12128   -202.3 1.437e+04 3.757e-09
 83.13815   -203.5 1.422e+04 3.555e-09
 83.15798   -204.7 1.407e+04 3.074e-09
 83.17780   -206.1 1.387e+04 2.517e-09
 83.19763   -207.7 1.358e+04 2.031e-09
 83.21746   -209.5 1.329e+04 1.730e-09
 83.23359   -211.2 1.313e+04 1.633e-09
 83.24350   -209.5 1.322e+04 1.703e-09
 83.25711   -211.0 1.312e+04 1.628e-09
 83.27694   -212.2 1.313e+04 1.636e-09
 83.29677   -213.0 1.344e+04 1.942e-09
 83.31166   -213.4 1.382e+04 2.491e-09
 83.32157   -212.9 1.459e+04 3.768e-09
 83.33642   -212.9 1.480e+04 4.385e-09
 83.35581   -212.8 1.492e+04 4.768e-09
 83.36572   -212.1 1.522e+04 4.595e-09
 83.37608   -212.2 1.532e+04 5.295e-09
 83.39591   -212.4 1.545e+04 5.909e-09
 83.41574   -212.7 1.565e+04 6.766e-09
 83.43556   -212.8 1.588e+04 7.906e-09
 83.45539   -213.0 1.633e+04 9.190e-09
 83.47522   -213.2 1.685e+04 1.047e-08
 83.48794   -214.2 1.720e+04 1.115e-08
 83.49786   -213.6 1.885e+04 1.979e-08
 83.51487   -215.9 1.894e+04 2.021e-08
 83.53470   -217.6 1.854e+04 1.808e-08
 83.55453   -218.5 1.774e+04 1.313e-08
 83.57279   -219.2 1.690e+04 9.280e-09
 83.58265   -218.9 1.727e+04 9.959e-09
 83.58913   -219.4 1.689e+04 8.507e-09
 83.59904   -219.7 1.662e+04 7.575e-09
 83.60896   -220.0 1.628e+04 6.689e-09
 83.61502   -220.0 1.604e+04 6.159e-09
 83.62003   -220.0 1.572e+04 3.995e-09
 83.63384   -220.5 1.496e+04 2.973e-09
 83.65367   -220.8 1.414e+04 2.203e-09
 83.67350   -220.9 1.342e+04 1.751e-09
 83.69332   -220.3 1.282e+04 1.431e-09
 83.71315   -219.5 1.235e+04 1.187e-09
 83.73239   -218.7 1.200e+04 9.847e-10
 83.74230   -219.5 1.154e+04 7.898e-10
 83.75281   -218.7 1.137e+04 6.663e-10
 83.77264   -217.9 1.119e+04 5.562e-10
 83.79246   -217.1 1.099e+04 4.653e-10
 83.81229   -216.3 1.078e+04 3.967e-10
 83.83212   -215.4 1.057e+04 3.494e-10
 83.84383   -214.3 1.042e+04 3.229e-10
 83.85374   -215.0 1.054e+04 3.796e-10
 83.86452   -213.6 1.039e+04 3.488e-10
 83.87443   -213.4 1.030e+04 3.355e-10
 83.90161   -211.8 1.033e+04 3.216e-10
 83.94137   -210.1 1.032e+04 3.151e-10
 83.97702   -208.1 1.026e+04 2.993e-10
 83.99685   -208.5 1.004e+04 2.707e-10
 84.02068   -206.4 9.965e+03 2.497e-10
 84.06033   -204.3 9.933e+03 2.348e-10
 84.09524   -202.2 9.940e+03 2.286e-10
 84.11506   -202.6 1.001e+04 2.364e-10
 84.13964   -200.5 1.001e+04 2.331e-10
 84.17930   -198.5 1.005e+04 2.346e-10
 84.21895   -196.7 1.022e+04 2.558e-10
 84.24129   -195.0 1.043e+04 2.943e-10
 84.26112   -195.5 1.017e+04 2.669e-10
 84.29827   -193.9 1.025e+04 2.821e-10
 84.33792   -192.4 1.030e+04 2.932e-10
 84.37758   -190.9 1.035e+04 2.997e-10
 84.41723   -189.3 1.039e+04 3.083e-10
 84.45689   -187.6 1.040e+04 3.216e-10
 84.48573   -185.9 1.038e+04 3.374e-10
 84.50556   -186.9 9.970e+03 2.675e-10
 84.53620   -185.3 9.945e+03 2.684e-10
 84.57585   -183.8 9.796e+03 2.590e-10
 84.61551   -182.1 9.627e+03 2.278e-10
 84.63732   -180.3 9.446e+03 1.890e-10
 84.65714   -180.8 9.543e+03 1.699e-10
 84.69482   -179.1 9.329e+03 1.286e-10
 84.73017   -177.5 9.182e+03 1.001e-10
 84.75000   -177.4 8.975e+03 7.411e-11
 84.77413   -175.7 8.943e+03 6.581e-11
 84.81379   -174.0 8.951e+03 6.236e-11
 84.85344   -172.4 8.958e+03 6.165e-11
 84.89310   -170.8 9.040e+03 6.227e-11
 84.93275   -169.4 9.168e+03 6.919e-11
 84.97241   -167.9 9.342e+03 8.548e-11
 84.99444   -166.5 9.556e+03 1.215e-10
 85.01427   -165.4 9.385e+03 9.546e-11
 85.05172   -163.8 9.646e+03 1.333e-10
 85.09137   -162.4 9.947e+03 1.968e-10
 85.13103   -161.1 1.024e+04 2.781e-10
 85.15957   -160.0 1.047e+04 3.464e-10
 85.17940   -162.0 1.034e+04 3.204e-10
 85.21034   -161.3 1.044e+04 3.040e-10
 85.23888   -160.9 1.044e+04 2.614e-10
 85.25871   -160.5 1.071e+04 3.535e-10
 85.28965   -160.3 1.065e+04 3.209e-10
 85.32931   -160.0 1.048e+04 2.809e-10
 85.36896   -159.7 1.030e+04 2.388e-10
 85.40862   -159.3 1.016e+04 2.042e-10
 85.44827   -158.9 1.011e+04 1.814e-10
 85.48333   -158.5 1.012e+04 1.738e-10
 85.50315   -158.5 1.055e+04 2.135e-10
 85.52758   -158.4 1.058e+04 2.127e-10
 85.56724   -158.3 1.064e+04 2.538e-10
 85.60690   -157.8 1.066e+04 3.527e-10
 85.64655   -156.9 1.071e+04 4.683e-10
 85.68182   -155.6 1.075e+04 5.574e-10
 85.70165   -155.7 1.062e+04 4.641e-10
 85.72586   -154.4 1.063e+04 4.712e-10
 85.74760   -153.1 1.060e+04 4.487e-10
 85.76742   -153.0 1.058e+04 4.627e-10
 85.80517   -151.4 1.043e+04 3.659e-10
 85.84483   -149.8 1.028e+04 2.773e-10
 85.88448   -148.1 1.017e+04 2.185e-10
 85.92414   -146.4 1.015e+04 1.934e-10
 85.96380   -144.6 1.017e+04 1.891e-10
 85.99204   -142.9 1.024e+04 1.899e-10
 86.01186   -142.9 1.019e+04 1.763e-10
 86.04311   -141.3 1.033e+04 2.081e-10
 86.08276   -139.7 1.040e+04 3.021e-10
 86.12242   -137.9 1.054e+04 4.476e-10
 86.16207   -136.1 1.075e+04 6.321e-10
 86.20173   -134.4 1.102e+04 8.369e-10
 86.22391   -132.9 1.137e+04 1.046e-09
 86.23883   -133.1 1.165e+04 1.100e-09
 86.25631   -131.9 1.096e+04 8.645e-10
 86.28104   -130.6 1.151e+04 1.198e-09
 86.32069   -129.2 1.206e+04 1.623e-09
 86.36035   -127.9 1.239e+04 1.995e-09
 86.38999   -126.3 1.234e+04 2.003e-09
 86.40972   -125.6 1.234e+04 2.016e-09
 86.42955   -124.6 1.200e+04 1.851e-09
 86.44938   -123.7 1.156e+04 1.585e-09
 86.46921   -122.6 1.096e+04 1.294e-09
 86.48484   -121.6 1.060e+04 1.089e-09
 86.49475   -121.5 1.057e+04 1.098e-09
 86.50055   -120.7 1.025e+04 9.083e-10
 86.51047   -120.3 1.077e+04 1.136e-09
 86.52869   -119.4 1.041e+04 9.651e-10
 86.54852   -118.5 1.008e+04 8.301e-10
 86.56835   -117.6 9.868e+03 7.340e-10
 86.58817   -116.7 9.672e+03 6.565e-10
 86.60800   -115.9 9.546e+03 5.997e-10
 86.62277   -115.1 9.427e+03 5.526e-10
 86.63269   -114.6 9.635e+03 6.711e-10
 86.64766   -113.8 9.460e+03 6.144e-10
 86.66748   -112.9 9.302e+03 5.683e-10
 86.68731   -111.8 9.175e+03 5.316e-10
 86.70714   -110.7 9.089e+03 5.028e-10
 86.72697   -109.7 9.027e+03 4.825e-10
 86.74509   -108.7 8.986e+03 4.671e-10
 86.75417   -108.4 9.063e+03 5.156e-10
 86.76589   -108.7 9.133e+03 4.638e-10
 86.79656   -106.4 8.840e+03 4.033e-10
 86.83622   -104.6 8.636e+03 3.561e-10
 86.87587   -102.5 8.380e+03 3.105e-10
 86.91553   -100.5 8.202e+03 2.832e-10
 86.95518    -98.6 8.104e+03 2.718e-10
 86.98963    -96.7 8.082e+03 2.701e-10
 87.00946    -96.5 7.980e+03 2.250e-10
 87.03449    -95.1 8.135e+03 2.556e-10
 87.07415    -93.8 8.292e+03 2.927e-10
 87.11380    -92.6 8.396e+03 3.213e-10
 87.15346    -91.3 8.424e+03 3.353e-10
 87.19311    -90.0 8.419e+03 3.395e-10
 87.23277    -88.6 8.407e+03 3.414e-10
 87.25390    -87.1 8.385e+03 3.434e-10
 87.26971    -87.0 8.692e+03 4.044e-10
 87.28824    -87.5 8.628e+03 3.961e-10
 87.31208    -85.8 8.494e+03 3.559e-10
 87.35174    -84.0 8.344e+03 3.111e-10
 87.39139    -82.2 8.193e+03 2.651e-10
 87.43105    -80.5 8.075e+03 2.241e-10
 87.47070    -78.8 7.990e+03 1.935e-10
 87.49834    -77.2 7.939e+03 1.738e-10
 87.51817    -77.2 8.139e+03 2.229e-10
 87.55001    -75.4 8.102e+03 2.043e-10
 87.58967    -73.5 8.063e+03 1.867e-10
 87.62932    -71.5 8.010e+03 1.695e-10
 87.66898    -69.5 7.939e+03 1.553e-10
 87.70864    -67.5 7.877e+03 1.409e-10
 87.74278    -65.3 7.816e+03 1.262e-10
 87.76261    -65.4 7.880e+03 1.172e-10
 87.78795    -63.2 7.810e+03 1.100e-10
 87.81049    -61.0 7.757e+03 1.022e-10
 87.83032    -60.9 7.773e+03 8.181e-11
 87.86726    -58.7 7.745e+03 8.060e-11
 87.90691    -56.4 7.735e+03 7.822e-11
 87.94657    -54.0 7.746e+03 7.454e-11
 87.98622    -51.6 7.788e+03 6.878e-11
 88.00705    -49.2 7.858e+03 6.191e-11
 88.02688    -49.0 7.788e+03 4.926e-11
 88.06554    -46.7 7.883e+03 4.521e-11
 88.10519    -44.8 7.933e+03 4.459e-11
 88.14485    -43.4 8.159e+03 4.959e-11
 88.18450    -42.3 8.208e+03 8.541e-11
 88.22416    -40.3 8.286e+03 1.553e-10
 88.25149    -37.6 8.478e+03 2.355e-10
 88.27132    -37.2 8.547e+03 2.486e-10
 88.30347    -34.5 8.782e+03 2.862e-10
 88.33275    -32.2 8.845e+03 2.844e-10
 88.35258    -31.9 8.703e+03 2.463e-10
 88.38278    -29.7 8.661e+03 1.928e-10
 88.42243    -28.1 8.658e+03 1.386e-10
 88.46209    -26.9 8.644e+03 1.147e-10
 88.49593    -25.2 8.662e+03 1.117e-10
 88.51576    -25.7 8.942e+03 2.071e-10
 88.54140    -23.9 9.119e+03 2.211e-10
 88.58106    -22.3 9.361e+03 2.467e-10
 88.62071    -20.9 9.578e+03 2.970e-10
 88.66037    -19.4 9.738e+03 3.863e-10
 88.70002    -17.2 9.956e+03 4.905e-10
 88.73968    -14.9 1.012e+04 5.620e-10
 88.76020    -13.0 1.008e+04 5.809e-10
 88.78003    -13.7 1.050e+04 8.354e-10
 88.81899    -11.8 1.027e+04 7.318e-10
 88.85500     -9.9 1.014e+04 6.593e-10
 88.87483     -8.7 1.000e+04 6.288e-10
 88.89830     -6.9 9.969e+03 5.561e-10
 88.93796     -5.0 9.769e+03 4.733e-10
 88.97761     -3.0 9.654e+03 4.188e-10
 89.00464     -1.1 9.597e+03 3.872e-10
 89.02447     -3.1 1.017e+04 5.008e-10
 89.05692     -1.4 1.025e+04 4.894e-10
 89.09658      0.2 1.029e+04 5.088e-10
 89.13623      1.9 1.035e+04 5.648e-10
 89.17589      3.5 1.056e+04 6.640e-10
 89.21554      4.8 1.106e+04 8.517e-10
 89.24908      6.3 1.175e+04 1.189e-09
 89.26891      3.2 1.215e+04 1.377e-09
 89.28484      4.3 1.264e+04 1.642e-09
 89.30457      4.1 1.320e+04 1.967e-09
 89.32440      3.3 1.402e+04 2.287e-09
 89.34423      2.6 1.406e+04 2.327e-09
 89.36406      2.4 1.342e+04 2.111e-09
 89.38102      2.2 1.267e+04 1.745e-09
 89.39094      0.3 1.158e+04 9.948e-10
 89.39689     -0.2 1.149e+04 7.621e-10
 89.40680      0.8 1.144e+04 8.531e-10
 89.42354      0.2 1.119e+04 6.652e-10
 89.44337     -0.5 1.064e+04 5.122e-10
 89.46320     -1.1 1.010e+04 4.131e-10
 89.48302     -1.4 9.875e+03 3.633e-10
 89.50285     -1.3 9.736e+03 3.460e-10
 89.51316     -0.9 9.646e+03 3.450e-10
 89.53308     -0.7 9.638e+03 3.279e-10
 89.57244      0.4 9.625e+03 3.503e-10
 89.61210      1.6 9.734e+03 3.687e-10
 89.65175      2.7 1.000e+04 3.968e-10
 89.68140      2.9 1.023e+04 4.632e-10
 89.70113      3.1 1.027e+04 4.934e-10
 89.72096      3.0 1.035e+04 5.508e-10
 89.74078      3.3 1.032e+04 5.911e-10
 89.75760      3.6 1.037e+04 6.296e-10
 89.76751      3.3 1.051e+04 6.831e-10
 89.78044      3.6 1.051e+04 6.828e-10
 89.80027      3.9 1.049e+04 6.632e-10
 89.82009      3.5 1.079e+04 6.768e-10
 89.83992      1.8 1.163e+04 7.627e-10
 89.85975      0.2 1.223e+04 9.492e-10
 89.87958     -0.9 1.229e+04 1.236e-09
 89.88973     -0.7 1.209e+04 1.423e-09
 89.89965     -1.6 1.224e+04 1.705e-09
 89.91914     -1.1 1.210e+04 1.495e-09
 89.93897     -1.5 1.218e+04 1.456e-09
 89.95889     -2.0 1.187e+04 9.712e-10
 89.97872     -3.2 1.147e+04 6.697e-10
 89.99854     -4.4 1.103e+04 4.911e-10
 90.01195     -5.4 1.066e+04 4.066e-10
 90.02187     -7.2 1.044e+04 3.042e-10
 90.03820     -8.6 1.085e+04 3.666e-10
 90.05803    -11.7 1.211e+04 5.196e-10
 90.07785    -15.1 1.306e+04 1.051e-09
 90.09768    -16.6 1.317e+04 1.943e-09
 90.11751    -15.7 1.289e+04 2.928e-09
 90.13417    -13.7 1.270e+04 3.405e-09
 90.14409    -13.6 1.237e+04 3.127e-09
 90.15717    -11.2 1.266e+04 2.227e-09
 90.17699    -11.2 1.302e+04 1.289e-09
 90.19018    -14.1 1.256e+04 6.650e-10
 90.20010    -14.5 1.200e+04 6.052e-10
 90.21665    -17.2 1.059e+04 3.901e-10
 90.23648    -18.6 9.983e+03 3.026e-10
 90.25630    -18.6 9.880e+03 2.896e-10
 90.28614    -18.8 9.764e+03 2.613e-10
 90.32590    -18.2 9.823e+03 2.500e-10
 90.36555    -17.9 9.967e+03 2.597e-10
 90.40521    -17.4 1.005e+04 3.111e-10
 90.44159    -16.4 1.023e+04 3.774e-10
 90.46142    -14.6 1.012e+04 3.527e-10
 90.48452    -13.4 1.028e+04 3.999e-10
 90.51095    -12.3 1.042e+04 4.404e-10
 90.53077    -13.9 1.011e+04 3.600e-10
 90.56383    -12.9 1.011e+04 3.125e-10
 90.60349    -12.2 1.020e+04 2.897e-10
 90.64314    -12.1 1.046e+04 3.411e-10
 90.67278    -13.5 1.075e+04 4.327e-10
 90.69251    -13.6 1.091e+04 5.391e-10
 90.71234    -13.5 1.087e+04 7.515e-10
 90.73217    -12.9 1.105e+04 8.153e-10
 90.75200    -12.5 1.133e+04 9.843e-10
 90.76511    -12.2 1.158e+04 1.044e-09
 90.77502    -12.9 1.142e+04 9.468e-10
 90.79165    -12.4 1.123e+04 9.184e-10
 90.81148    -11.3 1.112e+04 7.461e-10
 90.83131    -11.1 1.104e+04 4.610e-10
 90.85114    -11.9 1.088e+04 3.456e-10
 90.88098    -13.2 1.072e+04 2.237e-10
 90.92073    -13.6 1.012e+04 2.025e-10
 90.96038    -13.1 9.846e+03 2.122e-10
 90.98367    -12.3 9.744e+03 2.159e-10
 91.00329    -12.4 9.595e+03 1.902e-10
 91.01966    -12.4 9.511e+03 1.606e-10
 91.03970    -11.9 9.697e+03 1.902e-10
 91.07935    -11.8 9.832e+03 2.300e-10
 91.11901    -11.3 9.752e+03 2.785e-10
 91.15866    -10.4 9.611e+03 2.563e-10
 91.19832    -10.0 9.483e+03 1.896e-10
 91.23797    -10.4 9.341e+03 1.569e-10
 91.26410    -10.2 9.310e+03 1.631e-10
 91.28393     -9.7 9.365e+03 1.707e-10
 91.31728     -9.0 9.408e+03 1.955e-10
 91.35694     -8.1 9.781e+03 2.533e-10
 91.39659     -8.2 1.041e+04 3.645e-10
 91.43625     -9.5 1.143e+04 7.637e-10
 91.46589    -12.5 1.335e+04 1.697e-09
 91.48562    -15.8 1.501e+04 3.527e-09
 91.50545    -17.4 1.568e+04 6.236e-09
 91.51564    -16.9 1.610e+04 8.534e-09
 91.51854    -16.7 1.650e+04 1.076e-08
 91.52817    -16.3 1.680e+04 1.250e-08
 91.54511    -16.1 1.682e+04 9.591e-09
 91.56494    -16.9 1.587e+04 5.446e-09
 91.58476    -19.1 1.407e+04 2.659e-09
 91.60459    -22.1 1.243e+04 1.283e-09
 91.63443    -24.1 1.121e+04 7.695e-10
 91.67418    -24.7 1.033e+04 4.723e-10
 91.71384    -24.4 1.012e+04 4.393e-10
 91.75298    -23.5 1.010e+04 4.840e-10
 91.77281    -23.2 1.005e+04 4.819e-10
 91.79315    -21.7 9.799e+03 4.390e-10
 91.83280    -19.9 9.428e+03 3.175e-10
 91.87246    -18.4 9.031e+03 2.047e-10
 91.91212    -17.4 8.796e+03 1.364e-10
 91.95177    -16.7 8.679e+03 1.096e-10
 91.99143    -15.8 8.628e+03 1.126e-10
 92.01725    -14.7 8.706e+03 1.323e-10
 92.03417    -14.4 8.607e+03 1.161e-10
 92.04801    -14.3 8.739e+03 1.548e-10
 92.07074    -13.2 8.992e+03 1.820e-10
 92.11039    -12.0 9.043e+03 2.142e-10
 92.15005    -10.7 9.043e+03 2.244e-10
 92.18970     -9.1 9.007e+03 2.077e-10
 92.22936     -7.9 9.059e+03 1.800e-10
 92.26169     -6.9 9.093e+03 1.764e-10
 92.28152     -6.4 8.919e+03 1.191e-10
 92.30867     -5.3 8.913e+03 1.264e-10
 92.34833     -3.8 8.954e+03 1.346e-10
 92.38798     -2.2 9.023e+03 1.349e-10
 92.42764     -0.7 9.090e+03 1.267e-10
 92.46729      0.6 9.183e+03 1.176e-10
 92.50613      1.6 9.278e+03 1.216e-10
 92.52596      2.3 9.192e+03 1.009e-10
 92.54660      3.1 9.410e+03 1.180e-10
 92.57026      3.6 9.694e+03 1.754e-10
 92.59009      2.7 9.776e+03 1.891e-10
 92.62591      3.9 1.009e+04 3.158e-10
 92.66557      4.7 1.049e+04 4.185e-10
 92.69521      5.5 1.057e+04 4.346e-10
 92.71494      5.5 1.061e+04 4.351e-10
 92.74478      5.2 1.047e+04 3.924e-10
 92.77040      5.0 1.022e+04 3.496e-10
 92.79023      5.8 1.031e+04 3.763e-10
 92.82419      5.5 1.016e+04 3.684e-10
 92.86385      5.3 1.013e+04 3.881e-10
 92.90350      5.0 1.022e+04 4.572e-10
 92.94316      4.8 1.022e+04 4.986e-10
 92.98281      5.2 9.992e+03 4.444e-10
 93.01484      5.9 9.603e+03 3.068e-10
 93.03467      6.1 9.759e+03 3.467e-10
 93.06212      5.8 9.431e+03 1.955e-10
 93.09252      5.1 9.051e+03 1.208e-10
 93.11234      4.0 8.768e+03 1.008e-10
 93.14144      4.5 8.356e+03 8.310e-11
 93.18109      5.2 8.225e+03 6.879e-11
 93.22075      5.9 8.369e+03 6.542e-11
 93.25928      6.1 8.521e+03 7.425e-11
 93.27911      6.2 8.436e+03 6.155e-11
 93.30006      7.0 8.415e+03 9.112e-11
 93.33971      8.4 8.446e+03 1.303e-10
 93.37937     10.1 8.541e+03 1.511e-10
 93.41902     11.6 8.564e+03 1.489e-10
 93.45868     12.9 8.562e+03 1.374e-10
 93.49833     14.0 8.573e+03 1.326e-10
 93.52355     14.8 8.634e+03 1.423e-10
 93.54338     15.5 8.593e+03 1.370e-10
 93.57765     16.1 8.791e+03 1.865e-10
 93.61477     17.2 9.033e+03 2.762e-10
 93.63460     17.2 8.835e+03 2.183e-10
 93.65696     18.8 9.114e+03 3.249e-10
 93.69661     20.3 9.081e+03 3.348e-10
 93.73627     22.0 8.911e+03 2.979e-10
 93.76799     23.8 8.581e+03 2.045e-10
 93.78782     24.4 8.470e+03 1.805e-10
 93.81558     25.9 8.181e+03 1.103e-10
 93.85523     27.1 7.954e+03 7.080e-11
 93.89489     28.4 7.760e+03 5.503e-11
 93.93454     30.2 7.635e+03 5.127e-11
 93.97420     32.3 7.601e+03 5.068e-11
 94.01244     34.6 7.592e+03 5.042e-11
 94.03226     35.2 7.562e+03 4.920e-11
 94.05351     37.4 7.571e+03 4.939e-11
 94.09317     39.6 7.601e+03 5.001e-11
 94.13282     41.7 7.651e+03 5.155e-11
 94.15685     43.6 7.715e+03 5.572e-11
 94.17668     43.8 7.863e+03 7.758e-11
 94.21213     45.7 7.923e+03 8.570e-11
 94.25179     47.5 7.965e+03 9.798e-11
 94.27670     49.3 7.996e+03 1.135e-10
 94.29653     49.6 8.112e+03 1.281e-10
 94.33110     51.2 8.131e+03 1.419e-10
 94.37076     52.7 8.155e+03 1.547e-10
 94.41041     54.1 8.217e+03 1.727e-10
 94.45007     55.2 8.330e+03 2.012e-10
 94.48972     56.4 8.519e+03 2.494e-10
 94.52115     57.6 8.741e+03 3.143e-10
 94.54097     57.5 8.946e+03 3.558e-10
 94.56903     58.9 9.086e+03 4.066e-10
 94.60869     60.2 9.058e+03 4.038e-10
 94.64834     61.7 8.874e+03 3.687e-10
 94.67910     63.3 8.563e+03 2.978e-10
 94.69893     63.0 8.983e+03 3.963e-10
 94.72765     64.7 8.566e+03 2.944e-10
 94.76559     66.5 8.183e+03 2.160e-10
 94.78541     66.6 8.313e+03 2.404e-10
 94.80697     68.4 8.077e+03 1.970e-10
 94.84662     70.5 7.936e+03 1.713e-10
 94.88628     72.7 7.845e+03 1.545e-10
 94.92593     75.0 7.756e+03 1.442e-10
 94.96559     77.5 7.708e+03 1.424e-10
 95.00524     80.3 7.711e+03 1.431e-10
 95.02986     83.1 7.732e+03 1.463e-10
 95.04968     83.0 7.986e+03 1.875e-10
 95.08455     85.8 8.069e+03 1.988e-10
 95.12421     88.7 8.184e+03 2.175e-10
 95.16386     91.8 8.321e+03 2.388e-10
 95.20136     95.2 8.487e+03 2.581e-10
 95.22109     95.5 8.758e+03 3.036e-10
 95.23307     97.6 8.826e+03 3.075e-10
 95.25289     99.1 8.870e+03 3.117e-10
 95.27272    101.0 8.875e+03 3.112e-10
 95.28402    102.6 8.850e+03 3.078e-10
 95.29393    102.6 8.947e+03 3.339e-10
 95.31238    104.7 8.982e+03 3.335e-10
 95.33220    106.5 9.311e+03 3.432e-10
 95.35203    107.1 1.093e+04 3.929e-10
 95.37186    106.5 1.524e+04 5.754e-10
 95.39169    106.1 1.941e+04 1.082e-09
 95.40624    107.0 2.121e+04 2.062e-09
 95.41615    106.4 2.208e+04 3.381e-09
 95.42634    107.3 2.181e+04 4.047e-09
 95.43620    107.9 2.146e+04 5.117e-09
 95.44612    108.5 2.105e+04 6.959e-09
 95.45603    109.3 2.084e+04 9.308e-09
 95.46594    110.3 2.075e+04 1.190e-08
 95.47221    111.3 2.070e+04 1.482e-08
 95.47716    110.7 2.082e+04 2.039e-08
 95.48202    111.5 2.065e+04 2.568e-08
 95.48698    110.9 2.018e+04 1.664e-08
 95.49569    111.7 2.070e+04 1.987e-08
 95.50560    112.9 2.088e+04 2.516e-08
 95.51551    114.4 2.077e+04 3.340e-08
 95.52543    116.0 2.044e+04 4.402e-08
 95.53332    117.7 2.010e+04 5.457e-08
 95.53827    118.2 1.944e+04 7.763e-08
 95.54526    119.9 1.953e+04 8.185e-08
 95.55517    121.9 2.024e+04 8.172e-08
 95.56508    123.1 2.241e+04 7.457e-08
 95.57500    122.7 2.619e+04 6.300e-08
 95.58491    121.6 3.249e+04 4.488e-08
 95.59443    119.0 4.243e+04 2.501e-08
 95.59938    115.7 4.796e+04 1.573e-08
 95.60474    109.6 5.973e+04 8.079e-09
 95.61258     99.9 6.403e+04 6.936e-09
 95.61754     86.1 2.986e+04 5.827e-09
 95.62457     78.5 2.483e+04 9.619e-09
 95.63448     74.2 2.122e+04 2.158e-08
 95.64439     72.5 2.030e+04 3.835e-08
 95.65431     71.9 2.028e+04 4.494e-08
 95.66049     71.4 2.030e+04 4.419e-08
 95.66545     70.9 2.018e+04 2.655e-08
 95.67414     70.4 2.004e+04 2.479e-08
 95.68405     69.7 1.984e+04 2.073e-08
 95.69396     68.8 1.960e+04 1.668e-08
 95.70388     67.0 1.931e+04 1.215e-08
 95.71379     65.2 1.934e+04 9.244e-09
 95.72871     59.6 2.138e+04 8.416e-09
 95.74324     53.3 2.474e+04 6.012e-09
 95.75316     54.3 1.626e+04 2.123e-09
 95.76842     49.6 1.371e+04 1.547e-09
 95.78281     47.6 1.227e+04 1.436e-09
 95.79273     50.0 1.522e+04 2.212e-09
 95.80807     48.1 1.327e+04 1.976e-09
 95.82790     47.2 1.273e+04 1.994e-09
 95.84773     47.3 1.308e+04 2.203e-09
 95.86755     47.7 1.342e+04 2.454e-09
 95.88738     48.1 1.360e+04 2.575e-09
 95.90503     48.5 1.362e+04 2.562e-09
 95.91495     48.8 1.374e+04 2.723e-09
 95.92704     49.1 1.373e+04 2.643e-09
 95.94686     49.4 1.356e+04 2.395e-09
 95.96669     49.7 1.333e+04 2.122e-09
 95.98652     50.2 1.291e+04 1.737e-09
 96.00437     50.6 1.255e+04 1.441e-09
 96.01428     51.2 1.238e+04 1.297e-09
 96.02735     51.4 1.166e+04 9.296e-10
 96.04718     52.4 1.177e+04 8.970e-10
 96.07584     53.6 1.116e+04 6.493e-10
 96.11560     55.6 9.991e+03 3.480e-10
 96.15525     57.7 8.928e+03 1.931e-10
 96.19491     59.9 8.514e+03 1.339e-10
 96.23456     62.7 8.456e+03 1.284e-10
 96.26569     66.0 8.448e+03 1.285e-10
 96.28319     65.6 8.299e+03 1.098e-10
 96.29172     63.5 8.999e+03 1.266e-10
 96.31387     67.2 8.928e+03 1.335e-10
 96.35353     71.3 9.151e+03 1.694e-10
 96.39318     75.1 9.711e+03 2.710e-10
 96.43284     78.0 1.046e+04 4.956e-10
 96.46248     77.6 1.120e+04 8.656e-10
 96.48221     77.0 1.253e+04 1.578e-09
 96.50204     76.8 1.400e+04 2.918e-09
 96.52187     77.0 1.535e+04 5.030e-09
 96.53596     77.5 1.644e+04 7.449e-09
 96.54072     76.7 1.710e+04 9.283e-09
 96.54645     76.1 1.733e+04 6.146e-09
 96.56152     75.3 1.827e+04 6.764e-09
 96.58135     75.0 1.831e+04 6.517e-09
 96.60118     74.4 1.831e+04 5.669e-09
 96.62101     73.0 1.879e+04 4.434e-09
 96.64084     70.6 1.951e+04 3.415e-09
 96.65818     68.2 1.997e+04 3.044e-09
 96.66810     61.4 2.317e+04 6.681e-09
 96.68049     61.3 2.193e+04 8.989e-09
 96.69531     61.5 2.148e+04 1.232e-08
 96.70518     61.8 2.132e+04 1.310e-08
 96.71509     62.5 2.128e+04 1.410e-08
 96.72415     63.0 2.128e+04 1.468e-08
 96.72911     61.9 2.194e+04 1.874e-08
 96.73993     64.2 2.133e+04 1.392e-08
 96.75980     65.6 2.156e+04 1.412e-08
 96.77963     67.0 2.198e+04 1.427e-08
 96.79032     68.1 2.261e+04 1.472e-08
 96.79523     65.1 2.370e+04 2.067e-08
 96.80252     65.6 2.392e+04 2.060e-08
 96.80753     63.6 2.341e+04 2.174e-08
 96.81929     63.7 2.305e+04 2.101e-08
 96.83911     63.6 2.229e+04 2.143e-08
 96.85894     63.6 2.166e+04 2.239e-08
 96.87376     63.7 2.143e+04 2.532e-08
 96.88363     63.8 2.116e+04 2.703e-08
 96.89354     63.8 2.112e+04 2.775e-08
 96.90346     63.9 2.115e+04 2.819e-08
 96.91244     63.9 2.117e+04 2.842e-08
 96.91740     63.2 2.113e+04 2.993e-08
 96.92328     63.2 2.114e+04 2.966e-08
 96.93309     63.2 2.113e+04 2.924e-08
 96.93804     63.0 2.065e+04 2.669e-08
 96.94311     62.9 2.066e+04 2.615e-08
 96.95302     62.7 2.065e+04 2.495e-08
 96.96294     62.4 2.054e+04 2.362e-08
 96.97786     61.9 2.035e+04 2.170e-08
 96.99773     61.0 1.975e+04 1.734e-08
 97.01756     60.1 1.864e+04 1.219e-08
 97.03476     59.2 1.725e+04 7.954e-09
 97.04467     57.6 1.594e+04 5.412e-09
 97.05722     56.7 1.490e+04 3.830e-09
 97.06871     55.3 1.390e+04 2.734e-09
 97.07862     54.7 1.409e+04 2.807e-09
 97.09687     53.4 1.336e+04 2.331e-09
 97.11670     52.4 1.293e+04 2.202e-09
 97.13653     51.7 1.275e+04 2.156e-09
 97.15636     51.5 1.263e+04 2.105e-09
 97.16689     51.5 1.250e+04 2.025e-09
 97.17681     51.0 1.212e+04 1.736e-09
 97.19601     51.2 1.190e+04 1.653e-09
 97.21584     51.5 1.166e+04 1.431e-09
 97.23567     51.7 1.142e+04 1.157e-09
 97.25550     51.5 1.120e+04 9.009e-10
 97.27532     50.9 1.102e+04 7.195e-10
 97.28912     49.9 1.088e+04 6.561e-10
 97.29903     49.8 1.070e+04 6.201e-10
 97.31498     48.9 1.070e+04 6.231e-10
 97.32983     48.0 1.073e+04 6.533e-10
 97.33975     47.2 1.053e+04 5.969e-10
 97.35463     46.7 1.071e+04 6.754e-10
 97.37446     46.3 1.085e+04 7.165e-10
 97.39429     45.9 1.085e+04 7.119e-10
 97.41134     45.6 1.077e+04 6.745e-10
 97.42125     46.1 1.064e+04 6.300e-10
 97.43394     45.8 1.050e+04 5.311e-10
 97.45377     45.0 1.032e+04 3.841e-10
 97.47360     44.5 1.021e+04 3.242e-10
 97.50344     43.0 1.013e+04 2.804e-10
 97.53375     42.2 1.006e+04 2.726e-10
 97.55358     43.8 9.764e+03 2.101e-10
 97.58285     43.7 9.781e+03 2.145e-10
 97.62250     43.6 9.912e+03 2.381e-10
 97.66216     43.3 1.013e+04 2.821e-10
 97.69180     44.2 1.019e+04 3.134e-10
 97.71153     44.3 1.025e+04 3.340e-10
 97.73136     43.7 1.059e+04 4.385e-10
 97.75119     43.3 1.081e+04 5.373e-10
 97.77102     42.9 1.109e+04 6.761e-10
 97.78791     42.5 1.130e+04 7.790e-10
 97.79783     44.1 1.120e+04 7.399e-10
 97.81067     43.7 1.141e+04 8.202e-10
 97.83050     43.2 1.155e+04 8.418e-10
 97.85033     42.6 1.155e+04 8.400e-10
 97.86200     42.3 1.145e+04 8.145e-10
 97.87191     43.0 1.135e+04 7.569e-10
 97.88998     42.9 1.125e+04 7.225e-10
 97.90981     42.5 1.134e+04 7.289e-10
 97.92005     40.8 1.191e+04 8.449e-10
 97.92996     42.8 1.134e+04 6.660e-10
 97.94947     40.1 1.239e+04 8.930e-10
 97.96929     37.1 1.374e+04 1.688e-09
 97.98912     35.5 1.451e+04 3.186e-09
 98.00895     35.0 1.497e+04 4.802e-09
 98.02878     34.7 1.524e+04 5.258e-09
 98.04227     33.8 1.523e+04 4.698e-09
 98.05218     34.8 1.487e+04 4.311e-09
 98.06843     33.4 1.479e+04 3.777e-09
 98.08826     31.4 1.431e+04 2.857e-09
 98.10809     29.2 1.355e+04 1.983e-09
 98.12313     27.0 1.276e+04 1.366e-09
 98.13304     28.4 1.294e+04 1.569e-09
 98.14774     26.5 1.227e+04 1.084e-09
 98.16449     24.9 1.176e+04 7.774e-10
 98.17440     25.4 1.280e+04 1.267e-09
 98.18740     24.0 1.238e+04 9.559e-10
 98.20723     22.9 1.184e+04 7.375e-10
 98.22705     22.2 1.134e+04 5.915e-10
 98.24688     21.7 1.095e+04 5.036e-10
 98.26671     21.5 1.070e+04 4.576e-10
 98.28654     21.4 1.060e+04 4.505e-10
 98.29662     21.4 1.059e+04 4.609e-10
 98.30654     21.3 1.088e+04 5.221e-10
 98.32619     21.2 1.088e+04 5.222e-10
 98.34602     21.1 1.097e+04 5.569e-10
 98.36585     20.8 1.121e+04 6.501e-10
 98.38425     20.6 1.145e+04 7.838e-10
 98.39417     21.8 1.170e+04 9.282e-10
 98.41552     22.3 1.213e+04 1.171e-09
 98.45527     22.8 1.203e+04 1.222e-09
 98.49492     23.2 1.194e+04 1.184e-09
 98.53134     23.5 1.173e+04 1.074e-09
 98.55117     23.2 1.155e+04 9.944e-10
 98.57423     23.5 1.161e+04 1.029e-09
 98.61389     23.7 1.187e+04 1.138e-09
 98.65355     23.8 1.228e+04 1.334e-09
 98.68319     23.7 1.243e+04 1.460e-09
 98.70292     23.4 1.269e+04 1.696e-09
 98.72275     22.9 1.299e+04 2.017e-09
 98.74258     22.6 1.321e+04 2.342e-09
 98.76240     22.2 1.329e+04 2.458e-09
 98.78223     21.8 1.322e+04 2.398e-09
 98.79542     21.6 1.295e+04 2.142e-09
 98.80533     21.4 1.296e+04 2.144e-09
 98.82189     21.1 1.270e+04 1.858e-09
 98.84171     20.6 1.237e+04 1.474e-09
 98.86154     19.9 1.203e+04 1.079e-09
 98.88137     18.6 1.157e+04 6.849e-10
 98.90120     17.8 1.126e+04 5.926e-10
 98.91652     17.7 1.054e+04 3.825e-10
 98.93644     19.4 1.108e+04 5.931e-10
 98.97079     19.5 1.021e+04 3.340e-10
 99.01045     19.9 9.582e+03 2.136e-10
 99.04006     20.6 9.297e+03 1.543e-10
 99.05988     20.3 9.455e+03 1.952e-10
 99.08976     21.4 9.361e+03 1.787e-10
 99.12941     22.5 9.373e+03 1.817e-10
 99.16907     23.4 9.447e+03 2.043e-10
 99.20872     24.1 9.599e+03 2.509e-10
 99.24838     24.6 9.736e+03 3.241e-10
 99.28450     25.0 1.005e+04 4.439e-10
 99.30432     25.0 1.019e+04 4.571e-10
 99.32769     24.9 1.039e+04 5.373e-10
 99.36734     24.8 1.052e+04 5.591e-10
 99.40700     25.0 1.050e+04 5.485e-10
 99.43887     25.9 1.022e+04 4.332e-10
 99.45870     26.9 1.003e+04 3.693e-10
 99.48631     28.0 9.778e+03 2.876e-10
 99.52597     29.1 9.554e+03 2.070e-10
 99.54877     30.3 9.335e+03 1.601e-10
 99.56859     30.1 9.199e+03 1.218e-10
 99.60528     31.7 9.142e+03 1.206e-10
 99.64493     33.4 9.179e+03 1.302e-10
 99.68459     35.0 9.367e+03 1.760e-10
 99.72424     36.7 9.721e+03 2.770e-10
 99.76390     38.2 1.005e+04 4.234e-10
 99.79321     40.0 1.021e+04 5.441e-10
 99.81303     40.4 1.011e+04 4.985e-10
 99.84321     41.9 1.016e+04 5.166e-10
 99.88287     43.1 1.013e+04 5.027e-10
 99.92252     44.4 9.979e+03 4.498e-10
 99.96112     45.8 9.725e+03 3.686e-10
 99.98095     47.3 9.888e+03 3.961e-10
100.00183     48.9 9.608e+03 3.072e-10
