# Columns:
#   distance along LOS (in CHIMPs)
#   peculiar velocity  (in km/s)
#   temperature (K)
#   HI number density
# pos=(190.336,2.01163,30.0154), angles=(1.60994,5.46721)
  0.00135    -45.3 1.230e+04 9.797e-10
  0.00588    -45.0 1.227e+04 9.672e-10
  0.01930    -44.5 1.199e+04 7.645e-10
  0.03357    -44.0 1.197e+04 7.708e-10
  0.04698    -43.4 1.175e+04 6.290e-10
  0.05913    -42.8 1.175e+04 6.295e-10
  0.07838    -43.1 1.191e+04 7.654e-10
  0.10254    -41.7 1.155e+04 5.491e-10
  0.13107    -40.4 1.170e+04 6.786e-10
  0.15790    -39.2 1.157e+04 5.557e-10
  0.18643    -38.5 1.188e+04 7.408e-10
  0.21327    -37.4 1.167e+04 6.072e-10
  0.22743    -37.4 1.172e+04 6.962e-10
  0.24075    -36.9 1.161e+04 6.249e-10
  0.25502    -36.7 1.171e+04 7.062e-10
  0.26843    -36.2 1.164e+04 6.337e-10
  0.28270    -36.4 1.189e+04 7.663e-10
  0.29611    -36.1 1.183e+04 6.986e-10
  0.31038    -36.5 1.205e+04 8.765e-10
  0.32380    -36.1 1.195e+04 8.073e-10
  0.33806    -36.2 1.205e+04 1.014e-09
  0.36489    -35.5 1.189e+04 1.018e-09
  0.37916    -35.2 1.185e+04 1.005e-09
  0.39258    -34.5 1.166e+04 8.228e-10
  0.40684    -34.2 1.159e+04 7.248e-10
  0.42026    -33.4 1.157e+04 5.877e-10
  0.43452    -33.5 1.159e+04 5.213e-10
  0.46145    -33.0 1.164e+04 4.696e-10
  0.49008    -33.0 1.152e+04 4.458e-10
  0.51691    -31.3 1.129e+04 3.358e-10
  0.54544    -30.2 1.120e+04 3.294e-10
  0.57228    -28.3 1.117e+04 2.650e-10
  0.60080    -27.2 1.117e+04 2.737e-10
  0.62764    -25.5 1.118e+04 2.434e-10
  0.65617    -24.3 1.118e+04 2.614e-10
  0.68300    -22.6 1.119e+04 2.408e-10
  0.71153    -21.5 1.116e+04 2.547e-10
  0.73836    -19.8 1.114e+04 2.362e-10
  0.76689    -18.6 1.110e+04 2.394e-10
  0.79373    -17.0 1.110e+04 2.251e-10
  0.82226    -15.8 1.107e+04 2.279e-10
  0.84909    -14.1 1.109e+04 2.223e-10
  0.87762    -13.0 1.103e+04 2.376e-10
  0.90445    -11.5 1.104e+04 2.366e-10
  0.93298    -10.4 1.098e+04 2.668e-10
  0.95982     -9.2 1.125e+04 2.913e-10
  0.98834     -8.2 1.119e+04 3.188e-10
  1.01518     -7.1 1.136e+04 4.000e-10
  1.04138     -6.1 1.130e+04 3.972e-10
  1.06248     -6.1 1.138e+04 4.602e-10
  1.07054     -5.0 1.162e+04 5.953e-10
  1.09907     -4.1 1.145e+04 5.553e-10
  1.12590     -3.0 1.160e+04 6.252e-10
  1.15443     -2.0 1.148e+04 6.063e-10
  1.18127     -0.9 1.155e+04 6.201e-10
  1.20979      0.3 1.157e+04 6.323e-10
  1.23663      1.4 1.159e+04 6.286e-10
  1.26412      2.4 1.173e+04 7.229e-10
  1.29199      3.4 1.204e+04 9.289e-10
  1.31883      4.2 1.208e+04 9.289e-10
  1.34735      5.1 1.246e+04 1.266e-09
  1.37419      5.9 1.245e+04 1.259e-09
  1.40272      6.7 1.286e+04 1.640e-09
  1.42955      7.3 1.271e+04 1.566e-09
  1.45808      7.9 1.299e+04 1.766e-09
  1.48491      8.7 1.263e+04 1.561e-09
  1.51344      9.3 1.276e+04 1.656e-09
  1.54028     10.2 1.243e+04 1.415e-09
  1.56881     10.9 1.263e+04 1.579e-09
  1.59564     11.6 1.242e+04 1.440e-09
  1.62417     12.5 1.274e+04 1.732e-09
  1.65100     13.2 1.244e+04 1.541e-09
  1.67943     13.6 1.240e+04 1.577e-09
  1.69275     14.1 1.213e+04 1.357e-09
  1.70670     14.7 1.234e+04 1.541e-09
  1.72043     15.1 1.254e+04 1.683e-09
  1.73385     15.3 1.234e+04 1.457e-09
  1.74812     15.5 1.241e+04 1.536e-09
  1.76153     15.9 1.213e+04 1.297e-09
  1.77580     16.3 1.219e+04 1.357e-09
  1.78921     16.8 1.193e+04 1.111e-09
  1.80348     17.0 1.201e+04 1.152e-09
  1.81690     17.4 1.176e+04 9.492e-10
  1.83116     17.7 1.180e+04 9.638e-10
  1.84458     18.1 1.159e+04 8.131e-10
  1.85884     18.5 1.160e+04 8.174e-10
  1.87226     19.0 1.147e+04 7.340e-10
  1.88652     19.5 1.149e+04 7.292e-10
  1.89994     20.0 1.144e+04 6.798e-10
  1.91420     20.4 1.147e+04 6.761e-10
  1.92772     20.7 1.137e+04 6.262e-10
  1.95634     21.6 1.141e+04 5.874e-10
  1.98318     23.0 1.111e+04 5.145e-10
  2.01171     24.2 1.110e+04 4.760e-10
  2.03854     25.5 1.092e+04 4.080e-10
  2.05036     26.6 1.097e+04 3.977e-10
  2.07510     27.1 1.085e+04 3.869e-10
  2.09390     28.3 1.068e+04 2.879e-10
  2.12243     29.4 1.071e+04 2.789e-10
  2.14927     30.5 1.057e+04 2.252e-10
  2.17651     31.6 1.061e+04 2.373e-10
  2.20463     33.0 1.062e+04 2.496e-10
  2.23146     34.2 1.049e+04 2.305e-10
  2.25999     35.6 1.051e+04 2.382e-10
  2.28683     36.9 1.048e+04 2.348e-10
  2.31535     38.4 1.049e+04 2.427e-10
  2.34219     39.7 1.049e+04 2.659e-10
  2.37072     41.4 1.061e+04 2.923e-10
  2.39755     42.5 1.072e+04 3.494e-10
  2.42608     44.0 1.097e+04 3.965e-10
  2.45291     44.6 1.098e+04 4.525e-10
  2.48135     45.1 1.109e+04 5.125e-10
  2.49466     45.7 1.104e+04 5.449e-10
  2.50893     46.3 1.126e+04 6.762e-10
  2.52235     46.8 1.123e+04 6.830e-10
  2.53661     47.5 1.160e+04 9.169e-10
  2.55003     48.0 1.149e+04 8.582e-10
  2.55466     48.5 1.193e+04 1.158e-09
  2.56695     48.9 1.189e+04 1.078e-09
  2.57771     49.1 1.175e+04 8.561e-10
  2.59197     49.4 1.213e+04 1.135e-09
  2.60539     49.3 1.192e+04 8.729e-10
  2.61908     49.5 1.225e+04 1.130e-09
  2.63307     49.6 1.255e+04 1.422e-09
  2.64649     49.4 1.227e+04 1.132e-09
  2.66075     49.4 1.242e+04 1.282e-09
  2.67427     49.4 1.209e+04 9.765e-10
  2.70289     49.1 1.240e+04 1.278e-09
  2.72973     49.6 1.204e+04 1.067e-09
  2.75826     49.2 1.220e+04 1.129e-09
  2.78509     50.0 1.197e+04 9.752e-10
  2.81362     49.4 1.191e+04 9.230e-10
  2.84045     50.3 1.189e+04 9.057e-10
  2.86898     50.3 1.163e+04 7.233e-10
  2.89582     50.8 1.168e+04 7.509e-10
  2.92434     50.9 1.127e+04 5.273e-10
  2.95118     51.6 1.131e+04 5.595e-10
  2.97971     52.1 1.089e+04 3.873e-10
  3.00654     52.8 1.089e+04 3.844e-10
  3.03251     53.6 1.063e+04 2.786e-10
  3.05920     53.9 1.053e+04 2.716e-10
  3.08874     55.5 1.030e+04 1.671e-10
  3.11727     56.7 1.026e+04 1.645e-10
  3.14410     57.5 1.020e+04 1.380e-10
  3.17263     59.0 1.017e+04 1.451e-10
  3.19946     59.9 1.012e+04 1.381e-10
  3.22799     61.5 1.015e+04 1.610e-10
  3.25483     62.5 1.014e+04 1.750e-10
  3.28336     64.0 1.020e+04 2.162e-10
  3.31019     65.0 1.025e+04 2.595e-10
  3.33872     66.3 1.033e+04 3.156e-10
  3.36555     67.4 1.038e+04 3.698e-10
  3.39408     68.6 1.044e+04 4.248e-10
  3.42092     69.6 1.046e+04 4.577e-10
  3.44944     70.7 1.052e+04 4.733e-10
  3.47628     71.6 1.050e+04 4.748e-10
  3.50481     72.4 1.051e+04 4.711e-10
  3.53164     73.2 1.035e+04 4.288e-10
  3.56017     73.9 1.038e+04 4.358e-10
  3.58700     74.4 1.024e+04 4.024e-10
  3.61553     74.9 1.041e+04 5.053e-10
  3.64237     75.3 1.041e+04 5.560e-10
  3.67089     75.9 1.092e+04 8.686e-10
  3.69773     76.1 1.091e+04 8.868e-10
  3.72626     76.5 1.133e+04 1.218e-09
  3.75309     76.4 1.081e+04 8.261e-10
  3.78162     76.3 1.078e+04 8.024e-10
  3.80845     75.9 1.039e+04 5.921e-10
  3.83698     76.1 1.010e+04 4.969e-10
  3.86382     76.3 9.963e+03 4.580e-10
  3.89234     77.1 9.599e+03 3.824e-10
  3.91918     77.8 9.617e+03 3.922e-10
  3.94760     79.1 9.495e+03 3.739e-10
  4.00127     81.6 9.562e+03 4.047e-10
  4.02990     83.2 9.641e+03 4.414e-10
  4.04330     84.1 9.672e+03 4.489e-10
  4.06833     84.2 9.562e+03 4.013e-10
  4.08527     85.5 9.752e+03 4.827e-10
  4.11210     86.3 9.739e+03 4.797e-10
  4.14063     87.2 9.909e+03 5.484e-10
  4.16747     87.7 9.920e+03 5.527e-10
  4.19599     88.1 9.960e+03 5.669e-10
  4.22283     88.3 1.009e+04 5.976e-10
  4.25136     88.5 9.972e+03 5.710e-10
  4.27819     88.7 1.009e+04 5.903e-10
  4.30672     89.0 9.868e+03 5.333e-10
  4.33355     88.8 1.027e+04 5.965e-10
  4.36208     89.3 1.001e+04 5.550e-10
  4.37540     88.3 1.067e+04 7.816e-10
  4.38957     88.5 1.054e+04 7.516e-10
  4.40298     88.6 1.102e+04 9.615e-10
  4.41702     88.9 1.082e+04 8.652e-10
  4.43067     89.0 1.064e+04 7.914e-10
  4.44418     89.0 1.108e+04 9.758e-10
  4.47281     89.3 1.062e+04 7.679e-10
  4.49964     88.9 1.139e+04 1.160e-09
  4.52817     89.2 1.085e+04 8.601e-10
  4.55500     88.8 1.133e+04 1.169e-09
  4.58353     89.1 1.071e+04 8.315e-10
  4.61037     89.0 1.107e+04 1.072e-09
  4.63889     89.4 1.057e+04 8.116e-10
  4.66573     89.4 1.077e+04 8.895e-10
  4.69426     89.7 1.031e+04 6.629e-10
  4.72109     89.5 1.033e+04 6.374e-10
  4.74962     89.8 9.931e+03 4.575e-10
  4.77645     89.5 9.788e+03 3.787e-10
  4.80498     89.7 9.449e+03 2.874e-10
  4.83182     89.3 9.387e+03 2.746e-10
  4.85998     89.9 9.387e+03 2.756e-10
  4.88718     90.6 9.444e+03 2.857e-10
  4.91401     90.6 9.480e+03 2.902e-10
  4.94254     91.3 9.664e+03 3.311e-10
  4.96938     91.4 9.608e+03 3.241e-10
  4.99791     92.2 9.759e+03 3.736e-10
  5.02474     92.7 9.592e+03 3.571e-10
  5.05048     93.5 9.600e+03 3.559e-10
  5.05592     95.2 9.832e+03 4.350e-10
  5.08010     95.7 9.690e+03 3.969e-10
  5.10863     96.4 9.648e+03 3.880e-10
  5.13547     97.0 9.501e+03 3.405e-10
  5.16399     97.3 9.304e+03 3.094e-10
  5.19083     97.8 9.162e+03 2.914e-10
  5.21936     97.9 9.135e+03 2.972e-10
  5.24619     98.7 9.149e+03 3.090e-10
  5.27472     98.7 9.229e+03 3.470e-10
  5.30155     99.6 9.301e+03 3.697e-10
  5.33008     99.5 9.546e+03 4.640e-10
  5.35692    100.5 9.601e+03 4.833e-10
  5.38544    100.2 9.838e+03 5.723e-10
  5.41228    101.3 9.688e+03 5.380e-10
  5.44081    100.7 9.713e+03 5.365e-10
  5.46764    101.8 9.392e+03 4.284e-10
  5.49617    101.1 9.339e+03 4.134e-10
  5.52300    102.1 9.056e+03 3.400e-10
  5.55153    101.8 8.977e+03 3.343e-10
  5.57837    102.9 8.877e+03 3.229e-10
  5.60689    102.9 8.813e+03 3.176e-10
  5.63373    104.2 8.804e+03 3.244e-10
  5.66226    104.3 8.737e+03 3.143e-10
  5.68909    105.7 8.789e+03 3.300e-10
  5.71762    105.9 8.747e+03 3.222e-10
  5.74446    107.4 8.780e+03 3.295e-10
  5.77237    107.7 8.777e+03 3.297e-10
  5.79982    108.0 8.795e+03 3.382e-10
  5.82665    109.2 8.759e+03 3.187e-10
  5.85518    109.6 8.835e+03 3.412e-10
  5.88202    110.2 8.742e+03 2.957e-10
  5.91054    110.4 8.856e+03 3.219e-10
  5.93738    110.2 8.836e+03 3.091e-10
  5.96591    110.4 8.932e+03 3.341e-10
  5.99274    110.1 9.175e+03 4.085e-10
  6.02127    110.5 9.187e+03 4.108e-10
  6.04002    110.8 9.492e+03 5.338e-10
  6.05946    109.8 9.269e+03 4.749e-10
  6.07663    110.5 9.040e+03 3.954e-10
  6.10347    110.9 9.130e+03 3.986e-10
  6.13199    111.8 8.903e+03 3.240e-10
  6.15883    112.1 8.779e+03 2.275e-10
  6.18736    113.1 8.599e+03 1.893e-10
  6.21419    112.4 7.821e+03 9.861e-11
  6.24272    113.2 7.780e+03 8.745e-11
  6.26955    111.9 7.653e+03 8.300e-11
  6.29808    112.5 7.731e+03 9.514e-11
  6.32492    112.5 7.763e+03 1.072e-10
  6.35344    113.3 7.892e+03 1.244e-10
  6.38028    113.3 8.053e+03 1.339e-10
  6.40881    113.9 8.309e+03 1.587e-10
  6.43564    113.5 8.695e+03 1.873e-10
  6.46417    113.9 8.927e+03 2.196e-10
  6.49100    113.3 9.310e+03 2.852e-10
  6.50517    113.4 9.377e+03 2.933e-10
  6.51849    112.9 9.511e+03 3.177e-10
  6.53275    112.2 9.825e+03 3.679e-10
  6.54613    110.2 1.055e+04 5.842e-10
  6.56040    109.5 1.085e+04 5.894e-10
  6.57385    106.7 1.199e+04 1.114e-09
  6.58812    104.7 1.259e+04 1.610e-09
  6.60153    103.4 1.340e+04 2.942e-09
  6.61580    102.9 1.374e+04 3.758e-09
  6.62922    102.9 1.430e+04 4.970e-09
  6.64348    102.8 1.432e+04 4.933e-09
  6.65690    102.6 1.446e+04 4.940e-09
  6.67114    101.9 1.430e+04 4.123e-09
  6.69797     98.5 1.371e+04 2.467e-09
  6.71226     96.3 1.332e+04 2.353e-09
  6.72568     94.0 1.347e+04 2.371e-09
  6.73994     92.6 1.369e+04 2.734e-09
  6.75336     90.9 1.442e+04 3.668e-09
  6.76762     90.2 1.481e+04 4.582e-09
  6.78104     89.5 1.528e+04 6.225e-09
  6.79530     89.1 1.557e+04 7.008e-09
  6.80872     89.0 1.579e+04 8.060e-09
  6.82299     88.0 1.616e+04 8.485e-09
  6.83640     87.2 1.602e+04 7.422e-09
  6.85067     84.6 1.661e+04 7.955e-09
  6.86408     82.4 1.645e+04 6.918e-09
  6.87835     79.2 1.725e+04 8.884e-09
  6.89177     77.1 1.654e+04 7.352e-09
  6.90603     75.1 1.688e+04 8.708e-09
  6.91945     73.9 1.563e+04 5.777e-09
  6.93371     72.3 1.560e+04 5.491e-09
  6.94713     71.2 1.435e+04 3.318e-09
  6.96139     68.7 1.407e+04 2.494e-09
  6.97481     66.4 1.289e+04 1.542e-09
  6.98907     62.6 1.209e+04 1.263e-09
  7.00249     60.8 1.141e+04 1.163e-09
  7.01676     58.4 1.136e+04 1.192e-09
  7.03017     58.6 1.116e+04 1.196e-09
  7.04142     57.8 1.133e+04 1.399e-09
  7.05245     57.2 1.134e+04 1.409e-09
  7.05785     57.9 1.137e+04 1.450e-09
  7.07212     57.3 1.166e+04 1.632e-09
  7.08554     57.9 1.161e+04 1.542e-09
  7.09980     57.2 1.178e+04 1.607e-09
  7.11322     57.7 1.154e+04 1.438e-09
  7.12733     56.9 1.154e+04 1.434e-09
  7.14090     56.2 1.154e+04 1.420e-09
  7.15432     56.7 1.130e+04 1.279e-09
  7.16858     55.9 1.135e+04 1.299e-09
  7.18200     56.5 1.133e+04 1.284e-09
  7.19626     55.8 1.140e+04 1.327e-09
  7.20968     56.3 1.153e+04 1.428e-09
  7.22394     55.6 1.163e+04 1.516e-09
  7.23736     56.2 1.179e+04 1.697e-09
  7.25162     55.6 1.192e+04 1.844e-09
  7.26504     56.4 1.210e+04 2.051e-09
  7.27930     56.0 1.229e+04 2.250e-09
  7.29272     56.7 1.242e+04 2.360e-09
  7.30699     56.5 1.264e+04 2.621e-09
  7.32040     57.1 1.263e+04 2.562e-09
  7.33467     56.8 1.280e+04 2.604e-09
  7.34808     57.4 1.246e+04 2.245e-09
  7.36235     57.0 1.246e+04 2.209e-09
  7.37577     57.6 1.200e+04 1.796e-09
  7.39003     57.2 1.199e+04 1.713e-09
  7.40345     58.0 1.156e+04 1.399e-09
  7.41771     57.6 1.158e+04 1.347e-09
  7.43113     58.5 1.130e+04 1.146e-09
  7.44539     58.2 1.131e+04 1.132e-09
  7.45881     59.2 1.113e+04 1.014e-09
  7.47307     59.0 1.114e+04 1.014e-09
  7.48649     59.9 1.106e+04 9.803e-10
  7.50076     59.9 1.108e+04 9.822e-10
  7.51417     60.9 1.110e+04 9.887e-10
  7.52844     60.9 1.113e+04 9.894e-10
  7.54185     61.9 1.123e+04 1.028e-09
  7.54591     61.8 1.122e+04 1.022e-09
  7.55876     61.3 1.127e+04 1.054e-09
  7.56954     62.2 1.134e+04 1.081e-09
  7.58352     62.0 1.128e+04 1.041e-09
  7.59722     61.8 1.118e+04 9.599e-10
  7.61063     62.6 1.135e+04 1.035e-09
  7.62490     62.2 1.123e+04 9.341e-10
  7.65183     63.1 1.147e+04 1.056e-09
  7.68046     62.1 1.127e+04 9.006e-10
  7.70729     63.4 1.178e+04 1.136e-09
  7.73582     62.3 1.147e+04 9.371e-10
  7.76265     63.3 1.182e+04 1.165e-09
  7.79118     62.3 1.125e+04 8.465e-10
  7.81802     63.6 1.140e+04 9.242e-10
  7.84654     63.1 1.065e+04 5.703e-10
  7.87338     64.2 1.064e+04 5.446e-10
  7.90191     63.7 9.948e+03 3.304e-10
  7.92874     64.3 9.978e+03 3.656e-10
  7.95727     64.2 9.936e+03 3.627e-10
  7.98410     64.9 1.045e+04 5.233e-10
  8.01263     65.0 1.044e+04 5.556e-10
  8.03674     65.5 1.102e+04 8.352e-10
  8.05050     65.2 1.105e+04 8.232e-10
  8.06790     65.0 1.129e+04 1.000e-09
  8.09473     65.5 1.169e+04 1.247e-09
  8.12326     65.0 1.188e+04 1.364e-09
  8.15009     65.0 1.167e+04 1.197e-09
  8.16426     64.5 1.159e+04 1.160e-09
  8.17768     64.6 1.144e+04 1.023e-09
  8.19194     63.9 1.134e+04 9.868e-10
  8.20536     63.5 1.086e+04 7.900e-10
  8.21962     62.8 1.086e+04 7.904e-10
  8.23304     63.0 1.075e+04 7.080e-10
  8.24730     62.3 1.071e+04 7.187e-10
  8.26072     62.3 1.056e+04 6.464e-10
  8.27499     61.7 1.052e+04 6.662e-10
  8.28840     61.9 1.050e+04 6.261e-10
  8.30267     61.5 1.045e+04 6.243e-10
  8.31618     61.7 1.049e+04 6.020e-10
  8.34481     61.0 1.037e+04 5.080e-10
  8.37164     61.1 1.012e+04 3.884e-10
  8.40017     60.0 9.934e+03 2.789e-10
  8.42701     59.8 9.848e+03 2.357e-10
  8.45553     58.7 9.806e+03 2.335e-10
  8.48237     58.6 9.834e+03 2.391e-10
  8.50952     57.9 9.809e+03 2.627e-10
  8.53773     57.6 1.001e+04 3.513e-10
  8.56457     58.2 1.026e+04 4.125e-10
  8.59300     58.0 1.053e+04 4.992e-10
  8.60632     57.9 1.057e+04 5.298e-10
  8.62058     57.8 1.071e+04 6.263e-10
  8.63400     57.9 1.067e+04 6.535e-10
  8.64826     58.3 1.083e+04 7.753e-10
  8.66168     58.4 1.086e+04 7.724e-10
  8.67594     58.6 1.120e+04 8.972e-10
  8.68936     57.3 1.183e+04 9.114e-10
  8.70362     56.2 1.244e+04 1.079e-09
  8.71704     54.0 1.302e+04 1.244e-09
  8.73131     53.1 1.339e+04 1.545e-09
  8.74472     51.8 1.301e+04 1.777e-09
  8.75899     51.2 1.371e+04 2.345e-09
  8.77240     50.1 1.347e+04 2.171e-09
  8.78667     48.0 1.482e+04 2.868e-09
  8.80009     45.4 1.492e+04 2.568e-09
  8.81435     42.2 1.607e+04 3.620e-09
  8.82777     40.1 1.534e+04 3.382e-09
  8.84203     37.9 1.574e+04 4.226e-09
  8.85545     37.2 1.495e+04 3.931e-09
  8.86971     35.9 1.516e+04 4.190e-09
  8.88313     36.4 1.432e+04 3.327e-09
  8.89739     34.8 1.417e+04 2.957e-09
  8.91081     35.1 1.370e+04 2.230e-09
  8.92507     33.4 1.365e+04 2.223e-09
  8.93849     33.7 1.321e+04 1.651e-09
  8.95209     32.6 1.330e+04 1.853e-09
  8.96617     31.9 1.375e+04 2.362e-09
  8.97959     32.3 1.355e+04 2.007e-09
  8.99385     31.7 1.440e+04 2.896e-09
  9.00727     31.7 1.444e+04 2.824e-09
  9.02154     30.8 1.555e+04 4.528e-09
  9.03490     30.9 1.565e+04 5.224e-09
  9.04917     31.2 1.670e+04 9.091e-09
  9.06263     32.0 1.669e+04 9.844e-09
  9.07690     32.3 1.732e+04 1.168e-08
  9.09032     33.0 1.732e+04 1.223e-08
  9.10458     32.8 1.721e+04 1.144e-08
  9.11800     33.4 1.737e+04 1.246e-08
  9.13226     33.5 1.670e+04 8.978e-09
  9.14568     33.6 1.698e+04 1.036e-08
  9.15994     33.6 1.585e+04 5.600e-09
  9.17336     34.0 1.609e+04 6.932e-09
  9.18762     33.9 1.463e+04 2.906e-09
  9.20104     34.5 1.490e+04 3.721e-09
  9.21531     34.3 1.335e+04 1.523e-09
  9.22872     35.1 1.374e+04 2.135e-09
  9.25735     35.3 1.215e+04 7.572e-10
  9.28428     36.9 1.240e+04 1.167e-09
  9.31281     37.3 1.101e+04 4.109e-10
  9.33964     39.1 1.160e+04 7.534e-10
  9.36817     40.2 1.076e+04 3.506e-10
  9.42184     43.1 1.057e+04 3.466e-10
  9.45037     44.6 1.033e+04 2.974e-10
  9.47720     46.3 1.068e+04 4.277e-10
  9.50573     47.9 1.064e+04 4.302e-10
  9.51905     48.1 1.071e+04 4.897e-10
  9.53322     48.9 1.072e+04 5.043e-10
  9.54122     49.8 1.092e+04 5.383e-10
  9.55046     49.9 1.091e+04 5.405e-10
  9.56090     50.6 1.098e+04 5.788e-10
  9.57432     51.1 1.103e+04 5.850e-10
  9.58858     51.7 1.112e+04 6.486e-10
  9.60200     52.2 1.111e+04 6.207e-10
  9.61626     52.8 1.125e+04 7.030e-10
  9.62968     53.4 1.129e+04 6.287e-10
  9.64394     53.9 1.143e+04 7.212e-10
  9.65736     54.3 1.146e+04 6.347e-10
  9.67162     54.6 1.162e+04 7.325e-10
  9.68504     54.7 1.160e+04 6.830e-10
  9.69931     54.9 1.177e+04 7.777e-10
  9.71272     55.0 1.182e+04 7.915e-10
  9.72699     55.1 1.195e+04 8.422e-10
  9.74040     55.2 1.194e+04 9.879e-10
  9.75467     55.4 1.193e+04 9.761e-10
  9.76809     56.0 1.191e+04 1.131e-09
  9.78235     56.4 1.184e+04 1.024e-09
  9.79577     57.2 1.188e+04 1.090e-09
  9.81003     57.5 1.177e+04 8.527e-10
  9.82345     58.1 1.173e+04 8.235e-10
  9.83764     57.9 1.167e+04 5.996e-10
  9.86448     57.6 1.147e+04 4.589e-10
  9.87881     57.3 1.116e+04 4.463e-10
  9.89223     57.6 1.108e+04 4.288e-10
  9.90649     57.7 1.104e+04 4.328e-10
  9.92001     58.4 1.100e+04 3.961e-10
  9.94863     59.0 1.098e+04 3.991e-10
  9.97547     60.4 1.090e+04 3.345e-10
 10.00400     61.3 1.077e+04 2.872e-10
 10.03083     62.8 1.042e+04 2.030e-10
 10.04173     63.5 1.031e+04 1.607e-10
 10.06199     63.2 1.056e+04 2.347e-10
 10.08619     64.1 1.040e+04 1.634e-10
 10.11472     64.7 1.039e+04 1.641e-10
 10.14156     65.5 1.044e+04 1.581e-10
 10.17008     66.2 1.046e+04 1.781e-10
 10.19692     67.0 1.061e+04 2.220e-10
 10.22545     67.9 1.063e+04 2.396e-10
 10.25228     68.7 1.086e+04 3.108e-10
 10.28061     69.4 1.085e+04 2.674e-10
 10.30764     69.8 1.082e+04 2.341e-10
 10.33448     70.1 1.077e+04 2.570e-10
 10.36301     70.6 1.068e+04 2.481e-10
 10.38984     71.4 1.046e+04 2.906e-10
 10.41837     72.2 1.050e+04 2.949e-10
 10.44520     73.3 1.035e+04 2.761e-10
 10.47373     74.1 1.053e+04 3.129e-10
 10.50057     75.2 1.033e+04 2.492e-10
 10.52909     75.9 1.056e+04 3.468e-10
 10.55593     76.1 1.058e+04 2.802e-10
 10.58446     76.6 1.084e+04 3.689e-10
 10.61129     76.4 1.079e+04 3.590e-10
 10.63982     76.9 1.145e+04 5.774e-10
 10.66665     76.6 1.102e+04 6.736e-10
 10.69518     77.1 1.177e+04 1.088e-09
 10.72202     77.3 1.173e+04 1.062e-09
 10.75055     77.8 1.241e+04 1.560e-09
 10.77738     77.8 1.225e+04 1.324e-09
 10.80591     77.8 1.238e+04 1.325e-09
 10.83274     77.2 1.198e+04 9.470e-10
 10.86127     77.1 1.175e+04 8.056e-10
 10.88811     77.5 1.125e+04 7.325e-10
 10.91663     78.2 1.111e+04 6.498e-10
 10.94337     79.2 1.077e+04 5.548e-10
 10.95754     79.6 1.074e+04 5.384e-10
 10.97095     80.4 1.065e+04 5.108e-10
 10.98522     81.0 1.061e+04 4.964e-10
 10.99873     82.0 1.075e+04 4.044e-10
 11.01300     82.4 1.075e+04 4.017e-10
 11.02632     82.6 1.072e+04 3.834e-10
 11.03710     83.2 1.077e+04 3.878e-10
 11.04589     83.1 1.063e+04 3.843e-10
 11.05410     83.8 1.066e+04 3.209e-10
 11.06836     84.1 1.073e+04 3.574e-10
 11.08168     84.2 1.075e+04 3.548e-10
 11.09594     84.8 1.089e+04 4.191e-10
 11.10936     85.6 1.084e+04 4.405e-10
 11.12363     86.0 1.114e+04 5.648e-10
 11.13704     86.8 1.109e+04 5.904e-10
 11.15131     87.2 1.139e+04 7.767e-10
 11.16482     88.4 1.111e+04 6.928e-10
 11.19300     88.7 1.186e+04 1.183e-09
 11.22028     89.2 1.276e+04 1.850e-09
 11.24712     91.0 1.232e+04 1.565e-09
 11.27564     90.8 1.284e+04 1.724e-09
 11.30248     93.0 1.255e+04 1.562e-09
 11.33101     92.2 1.262e+04 1.517e-09
 11.35784     94.8 1.274e+04 1.470e-09
 11.38637     93.8 1.269e+04 1.303e-09
 11.41320     96.5 1.301e+04 1.569e-09
 11.44173     95.7 1.283e+04 1.089e-09
 11.46857     98.0 1.332e+04 1.452e-09
 11.49710     97.1 1.280e+04 6.516e-10
 11.52393     98.7 1.334e+04 9.144e-10
 11.55246     97.5 1.237e+04 3.294e-10
 11.57929     98.4 1.270e+04 4.973e-10
 11.60782     98.0 1.167e+04 3.345e-10
 11.63466     98.8 1.178e+04 5.376e-10
 11.66318     99.7 1.172e+04 5.271e-10
 11.69002    101.0 1.188e+04 6.608e-10
 11.71855    102.5 1.192e+04 6.856e-10
 11.74528    103.1 1.196e+04 7.148e-10
 11.77381    104.7 1.207e+04 7.639e-10
 11.80065    105.5 1.193e+04 7.216e-10
 11.81481    106.1 1.214e+04 8.298e-10
 11.82823    106.7 1.194e+04 7.252e-10
 11.84249    107.1 1.213e+04 8.548e-10
 11.85591    107.9 1.195e+04 7.199e-10
 11.88454    108.8 1.229e+04 9.139e-10
 11.91147    109.9 1.201e+04 6.930e-10
 11.94000    110.8 1.260e+04 1.197e-09
 11.96683    112.2 1.214e+04 8.565e-10
 11.99536    113.1 1.283e+04 1.485e-09
 12.02219    114.6 1.231e+04 9.846e-10
 12.03286    115.3 1.299e+04 1.607e-09
 12.05871    114.4 1.312e+04 1.764e-09
 12.07756    115.9 1.264e+04 1.290e-09
 12.10538    116.4 1.283e+04 1.417e-09
 12.13292    116.9 1.272e+04 1.250e-09
 12.15975    118.4 1.249e+04 1.098e-09
 12.18828    119.1 1.228e+04 8.937e-10
 12.21512    120.9 1.226e+04 9.191e-10
 12.24364    121.7 1.203e+04 7.685e-10
 12.25696    122.7 1.219e+04 9.022e-10
 12.27113    122.9 1.214e+04 8.803e-10
 12.28455    123.5 1.223e+04 9.503e-10
 12.29881    124.0 1.213e+04 9.037e-10
 12.32574    125.5 1.220e+04 9.405e-10
 12.35437    126.3 1.202e+04 8.354e-10
 12.38121    127.4 1.220e+04 9.828e-10
 12.40973    128.0 1.223e+04 9.992e-10
 12.43657    129.0 1.244e+04 1.172e-09
 12.46510    129.4 1.273e+04 1.437e-09
 12.49193    130.3 1.272e+04 1.372e-09
 12.52046    130.4 1.305e+04 1.657e-09
 12.54729    131.4 1.281e+04 1.363e-09
 12.57582    131.4 1.299e+04 1.436e-09
 12.60266    132.4 1.256e+04 9.458e-10
 12.63118    132.4 1.252e+04 9.099e-10
 12.65802    133.5 1.210e+04 5.503e-10
 12.68655    133.8 1.196e+04 4.436e-10
 12.71338    135.0 1.169e+04 2.530e-10
 12.74191    135.4 1.154e+04 1.857e-10
 12.76874    136.7 1.143e+04 1.266e-10
 12.79727    137.3 1.117e+04 1.122e-10
 12.82411    138.9 1.100e+04 9.277e-11
 12.85263    140.1 1.096e+04 9.359e-11
 12.87947    141.9 1.082e+04 8.610e-11
 12.90800    143.3 1.082e+04 9.145e-11
 12.93483    145.3 1.073e+04 8.522e-11
 12.96336    146.8 1.080e+04 1.018e-10
 12.99019    148.8 1.074e+04 9.231e-11
 13.01501    150.2 1.084e+04 1.169e-10
 13.04184    150.4 1.075e+04 1.072e-10
 13.04556    151.8 1.088e+04 1.377e-10
 13.07239    153.9 1.080e+04 1.182e-10
 13.10092    155.2 1.091e+04 1.446e-10
 13.12775    157.3 1.084e+04 1.210e-10
 13.15628    158.6 1.094e+04 1.392e-10
 13.18312    160.6 1.087e+04 1.179e-10
 13.21165    162.0 1.097e+04 1.279e-10
 13.23848    164.0 1.078e+04 1.192e-10
 13.26701    165.4 1.086e+04 1.226e-10
 13.29384    167.6 1.085e+04 1.236e-10
 13.32237    168.9 1.087e+04 1.219e-10
 13.34921    171.1 1.087e+04 1.267e-10
 13.37773    172.4 1.089e+04 1.228e-10
 13.40457    174.4 1.090e+04 1.397e-10
 13.43310    175.7 1.094e+04 1.336e-10
 13.45993    177.8 1.106e+04 1.751e-10
 13.48846    178.9 1.109e+04 1.670e-10
 13.51529    180.7 1.140e+04 2.431e-10
 13.54382    181.7 1.138e+04 2.321e-10
 13.57066    182.8 1.171e+04 3.320e-10
 13.59918    183.8 1.168e+04 3.220e-10
 13.62592    184.3 1.184e+04 3.872e-10
 13.64009    184.9 1.178e+04 3.787e-10
 13.65351    185.3 1.193e+04 4.555e-10
 13.66777    185.7 1.189e+04 4.432e-10
 13.68119    186.3 1.206e+04 5.519e-10
 13.69545    186.8 1.197e+04 5.238e-10
 13.70887    187.4 1.217e+04 6.478e-10
 13.72313    187.8 1.209e+04 6.137e-10
 13.73655    188.2 1.224e+04 7.176e-10
 13.75081    188.7 1.213e+04 6.715e-10
 13.76423    188.9 1.224e+04 7.471e-10
 13.77849    189.5 1.211e+04 7.086e-10
 13.79191    189.7 1.222e+04 7.600e-10
 13.80618    190.5 1.209e+04 7.262e-10
 13.81959    190.6 1.221e+04 7.671e-10
 13.83386    191.2 1.211e+04 7.557e-10
 13.84727    191.5 1.220e+04 7.883e-10
 13.86154    192.3 1.208e+04 7.642e-10
 13.87496    192.4 1.219e+04 8.024e-10
 13.88922    193.1 1.211e+04 7.914e-10
 13.90264    193.4 1.220e+04 8.144e-10
 13.91653    194.1 1.204e+04 7.813e-10
 13.93032    194.5 1.197e+04 7.732e-10
 13.94374    194.9 1.203e+04 7.775e-10
 13.95810    195.7 1.177e+04 6.979e-10
 13.97151    195.9 1.187e+04 7.249e-10
 13.98568    196.2 1.176e+04 7.064e-10
 13.99910    196.9 1.175e+04 6.895e-10
 14.01346    197.6 1.145e+04 6.038e-10
 14.02681    198.1 1.153e+04 6.222e-10
 14.04097    198.6 1.173e+04 7.575e-10
 14.05446    199.4 1.161e+04 6.994e-10
 14.06882    200.2 1.165e+04 7.526e-10
 14.08224    200.9 1.157e+04 7.040e-10
 14.09641    201.1 1.152e+04 6.990e-10
 14.10982    202.1 1.153e+04 7.028e-10
 14.12419    203.0 1.152e+04 7.276e-10
 14.13760    203.8 1.158e+04 7.433e-10
 14.15177    204.1 1.152e+04 7.326e-10
 14.16519    205.2 1.168e+04 7.851e-10
 14.17955    206.1 1.159e+04 7.776e-10
 14.19297    206.8 1.186e+04 9.066e-10
 14.20713    207.1 1.171e+04 8.515e-10
 14.22055    208.1 1.204e+04 1.030e-09
 14.23491    209.0 1.185e+04 9.405e-10
 14.24833    209.7 1.232e+04 1.225e-09
 14.26249    209.9 1.207e+04 1.083e-09
 14.27591    210.8 1.256e+04 1.396e-09
 14.29027    211.5 1.219e+04 1.162e-09
 14.30369    212.0 1.282e+04 1.581e-09
 14.31786    212.1 1.245e+04 1.318e-09
 14.33127    212.8 1.297e+04 1.663e-09
 14.34564    213.3 1.233e+04 1.227e-09
 14.35905    213.6 1.295e+04 1.621e-09
 14.37272    213.6 1.241e+04 1.273e-09
 14.40100    214.6 1.193e+04 9.786e-10
 14.42783    214.9 1.183e+04 9.465e-10
 14.44200    215.3 1.127e+04 6.900e-10
 14.45542    215.4 1.144e+04 7.643e-10
 14.46968    215.7 1.108e+04 6.121e-10
 14.48310    216.1 1.123e+04 6.744e-10
 14.49736    216.6 1.093e+04 5.410e-10
 14.51078    217.0 1.108e+04 6.106e-10
 14.52504    217.5 1.089e+04 5.258e-10
 14.53302    218.0 1.099e+04 5.748e-10
 14.54171    218.1 1.099e+04 5.606e-10
 14.55273    218.8 1.078e+04 4.807e-10
 14.56614    219.4 1.092e+04 5.444e-10
 14.58041    220.2 1.074e+04 4.867e-10
 14.59382    220.8 1.088e+04 5.524e-10
 14.60809    221.6 1.076e+04 5.136e-10
 14.62151    222.3 1.091e+04 5.859e-10
 14.63577    223.1 1.084e+04 5.643e-10
 14.64919    223.8 1.099e+04 6.472e-10
 14.66345    224.6 1.098e+04 6.450e-10
 14.67687    225.2 1.115e+04 7.368e-10
 14.69113    226.1 1.117e+04 7.554e-10
 14.70455    226.6 1.135e+04 8.593e-10
 14.71881    227.4 1.140e+04 9.041e-10
 14.73223    227.9 1.158e+04 1.009e-09
 14.74649    228.6 1.167e+04 1.084e-09
 14.75991    229.1 1.185e+04 1.166e-09
 14.77418    229.7 1.198e+04 1.279e-09
 14.78759    230.0 1.214e+04 1.335e-09
 14.80186    230.5 1.231e+04 1.508e-09
 14.81527    230.8 1.248e+04 1.570e-09
 14.82891    231.2 1.273e+04 1.840e-09
 14.84296    231.6 1.305e+04 2.205e-09
 14.85637    231.8 1.333e+04 2.381e-09
 14.87064    232.0 1.376e+04 2.954e-09
 14.88405    232.2 1.398e+04 3.089e-09
 14.89832    232.5 1.442e+04 3.767e-09
 14.91174    232.6 1.442e+04 3.736e-09
 14.92600    232.7 1.476e+04 4.300e-09
 14.93942    232.8 1.461e+04 3.891e-09
 14.95368    233.0 1.466e+04 3.932e-09
 14.96710    233.3 1.425e+04 3.170e-09
 14.98136    233.5 1.425e+04 3.108e-09
 14.99478    233.8 1.376e+04 2.385e-09
 15.00904    233.9 1.376e+04 2.235e-09
 15.02246    234.0 1.328e+04 1.856e-09
 15.03278    234.3 1.326e+04 1.765e-09
 15.03933    234.8 1.348e+04 2.020e-09
 15.05014    235.1 1.334e+04 1.906e-09
 15.06441    235.5 1.326e+04 1.782e-09
 15.07782    235.8 1.329e+04 1.807e-09
 15.09209    236.5 1.306e+04 1.632e-09
 15.10551    236.7 1.329e+04 1.758e-09
 15.11977    237.5 1.305e+04 1.535e-09
 15.13319    237.6 1.336e+04 1.808e-09
 15.14745    238.5 1.312e+04 1.540e-09
 15.16087    238.5 1.352e+04 1.968e-09
 15.17513    239.4 1.337e+04 1.686e-09
 15.18855    239.4 1.381e+04 2.400e-09
 15.20281    240.4 1.379e+04 2.126e-09
 15.21623    240.5 1.427e+04 3.218e-09
 15.23050    241.5 1.437e+04 2.961e-09
 15.24391    241.8 1.494e+04 4.322e-09
 15.25818    242.9 1.495e+04 4.171e-09
 15.28501    244.3 1.550e+04 5.365e-09
 15.29928    245.4 1.547e+04 4.968e-09
 15.31269    245.6 1.586e+04 6.074e-09
 15.32696    246.8 1.583e+04 5.727e-09
 15.33362    246.7 1.605e+04 6.229e-09
 15.34070    247.2 1.601e+04 6.064e-09
 15.34741    247.3 1.611e+04 6.256e-09
 15.35459    247.9 1.606e+04 5.887e-09
 15.36806    247.9 1.600e+04 5.910e-09
 15.38232    248.7 1.614e+04 5.862e-09
 15.39574    248.8 1.600e+04 5.726e-09
 15.40995    249.0 1.611e+04 5.883e-09
 15.42337    249.1 1.586e+04 5.689e-09
 15.43763    249.3 1.609e+04 6.085e-09
 15.44429    249.4 1.572e+04 5.636e-09
 15.45142    249.7 1.605e+04 6.248e-09
 15.45813    249.7 1.574e+04 5.900e-09
 15.46527    250.0 1.609e+04 6.589e-09
 15.47197    250.0 1.567e+04 5.814e-09
 15.47911    250.2 1.614e+04 6.797e-09
 15.48581    250.1 1.575e+04 6.123e-09
 15.49295    250.3 1.623e+04 7.183e-09
 15.50636    250.6 1.624e+04 7.146e-09
 15.51350    251.0 1.666e+04 8.501e-09
 15.52020    251.0 1.627e+04 7.233e-09
 15.52734    251.3 1.663e+04 8.369e-09
 15.53128    251.3 1.621e+04 6.740e-09
 15.53718    252.0 1.701e+04 9.186e-09
 15.54118    252.3 1.725e+04 1.062e-08
 15.54789    252.2 1.696e+04 8.805e-09
 15.55502    252.5 1.715e+04 9.913e-09
 15.56173    252.2 1.686e+04 7.651e-09
 15.56886    252.4 1.701e+04 8.630e-09
 15.57557    252.0 1.671e+04 6.879e-09
 15.58270    252.1 1.682e+04 7.608e-09
 15.58941    251.6 1.650e+04 5.848e-09
 15.59654    251.5 1.658e+04 6.455e-09
 15.60325    251.0 1.623e+04 5.424e-09
 15.61038    250.9 1.631e+04 5.829e-09
 15.61709    250.3 1.598e+04 4.794e-09
 15.62422    250.0 1.612e+04 5.426e-09
 15.63093    249.6 1.579e+04 4.859e-09
 15.63806    249.4 1.593e+04 5.318e-09
 15.64477    248.9 1.567e+04 4.764e-09
 15.65190    248.7 1.584e+04 5.381e-09
 15.65861    248.4 1.560e+04 5.050e-09
 15.66574    248.4 1.579e+04 5.557e-09
 15.67245    248.2 1.557e+04 5.217e-09
 15.67958    248.2 1.582e+04 5.829e-09
 15.68629    248.0 1.554e+04 5.494e-09
 15.69342    248.2 1.590e+04 6.294e-09
 15.70013    248.0 1.562e+04 5.869e-09
 15.70727    248.2 1.605e+04 6.798e-09
 15.71397    248.1 1.576e+04 6.367e-09
 15.72107    248.4 1.625e+04 7.382e-09
 15.73449    248.3 1.641e+04 7.746e-09
 15.74166    248.5 1.678e+04 8.489e-09
 15.74836    248.2 1.639e+04 7.873e-09
 15.75550    248.3 1.672e+04 8.380e-09
 15.76221    248.0 1.621e+04 7.500e-09
 15.76934    247.9 1.644e+04 7.950e-09
 15.77605    247.7 1.601e+04 7.247e-09
 15.78271    247.6 1.613e+04 7.462e-09
 15.78444    248.0 1.636e+04 7.662e-09
 15.78989    247.7 1.589e+04 6.834e-09
 15.79702    247.7 1.606e+04 7.142e-09
 15.80373    247.5 1.570e+04 6.569e-09
 15.81086    247.5 1.582e+04 6.795e-09
 15.82433    247.2 1.572e+04 6.358e-09
 15.83859    247.0 1.588e+04 6.660e-09
 15.85201    246.3 1.592e+04 6.211e-09
 15.86632    246.0 1.635e+04 7.014e-09
 15.87974    244.1 1.631e+04 6.141e-09
 15.89400    243.6 1.684e+04 7.171e-09
 15.90742    241.4 1.630e+04 5.442e-09
 15.92168    240.6 1.674e+04 6.140e-09
 15.93510    238.3 1.554e+04 4.073e-09
 15.94936    237.5 1.599e+04 4.499e-09
 15.96278    235.4 1.423e+04 2.793e-09
 15.97704    234.4 1.476e+04 3.135e-09
 15.99046    232.7 1.301e+04 2.030e-09
 16.00473    231.5 1.386e+04 2.525e-09
 16.01814    230.2 1.251e+04 1.762e-09
 16.02835    228.5 1.406e+04 2.755e-09
 16.03769    227.4 1.533e+04 4.338e-09
 16.04582    226.5 1.468e+04 3.575e-09
 16.06009    224.9 1.669e+04 6.695e-09
 16.07351    224.4 1.620e+04 6.143e-09
 16.08777    223.2 1.799e+04 1.081e-08
 16.10119    222.9 1.752e+04 9.962e-09
 16.11545    221.6 1.895e+04 1.404e-08
 16.12887    221.3 1.842e+04 1.169e-08
 16.14313    219.4 1.878e+04 1.169e-08
 16.15655    218.9 1.792e+04 9.484e-09
 16.17065    217.1 1.770e+04 8.004e-09
 16.18423    215.4 1.702e+04 6.142e-09
 16.19765    215.1 1.601e+04 4.659e-09
 16.21191    213.2 1.519e+04 3.544e-09
 16.22533    213.0 1.453e+04 3.010e-09
 16.23959    211.4 1.390e+04 2.536e-09
 16.25301    212.0 1.364e+04 2.409e-09
 16.26728    211.3 1.339e+04 2.135e-09
 16.28069    212.2 1.334e+04 2.088e-09
 16.29496    211.8 1.324e+04 1.845e-09
 16.30837    213.0 1.318e+04 1.737e-09
 16.33700    211.8 1.267e+04 1.107e-09
 16.36393    212.7 1.243e+04 1.022e-09
 16.39246    211.6 1.195e+04 8.348e-10
 16.41920    211.7 1.174e+04 8.128e-10
 16.43336    211.4 1.167e+04 7.897e-10
 16.44678    211.9 1.165e+04 7.942e-10
 16.46104    211.6 1.165e+04 7.883e-10
 16.47446    212.3 1.167e+04 8.081e-10
 16.48873    212.0 1.172e+04 8.156e-10
 16.50214    212.7 1.178e+04 8.566e-10
 16.51641    212.4 1.178e+04 8.574e-10
 16.52974    213.2 1.185e+04 9.088e-10
 16.54401    213.0 1.181e+04 8.874e-10
 16.55751    213.8 1.189e+04 9.479e-10
 16.57177    213.5 1.186e+04 9.389e-10
 16.58519    214.3 1.196e+04 1.002e-09
 16.59945    213.9 1.188e+04 9.742e-10
 16.61287    214.6 1.200e+04 1.038e-09
 16.62685    214.2 1.187e+04 9.741e-10
 16.64055    213.8 1.170e+04 8.761e-10
 16.65397    214.4 1.179e+04 9.098e-10
 16.66823    214.0 1.153e+04 7.802e-10
 16.68165    214.5 1.154e+04 7.805e-10
 16.69591    214.1 1.124e+04 6.568e-10
 16.70933    214.6 1.121e+04 6.422e-10
 16.72359    214.3 1.091e+04 5.642e-10
 16.73701    214.8 1.087e+04 5.458e-10
 16.75128    214.5 1.079e+04 5.382e-10
 16.76469    215.1 1.078e+04 5.242e-10
 16.77896    214.9 1.079e+04 5.283e-10
 16.79237    215.4 1.077e+04 5.166e-10
 16.80664    215.2 1.083e+04 5.475e-10
 16.82006    215.8 1.081e+04 5.427e-10
 16.83432    215.6 1.091e+04 6.034e-10
 16.84774    216.2 1.089e+04 5.991e-10
 16.86200    216.0 1.099e+04 6.749e-10
 16.87542    216.7 1.095e+04 6.643e-10
 16.88968    216.5 1.106e+04 7.437e-10
 16.90310    217.3 1.101e+04 7.214e-10
 16.91736    217.2 1.112e+04 8.024e-10
 16.93078    218.1 1.109e+04 7.703e-10
 16.94505    218.0 1.122e+04 8.638e-10
 16.95846    219.0 1.121e+04 8.285e-10
 16.97273    218.8 1.137e+04 9.572e-10
 16.98614    219.8 1.141e+04 9.252e-10
 17.00041    219.5 1.165e+04 1.114e-09
 17.01383    220.5 1.176e+04 1.104e-09
 17.02391    220.2 1.210e+04 1.404e-09
 17.03605    219.7 1.248e+04 1.648e-09
 17.04151    220.5 1.271e+04 1.722e-09
 17.05577    219.8 1.340e+04 2.398e-09
 17.06919    220.2 1.387e+04 2.715e-09
 17.08304    219.1 1.495e+04 4.133e-09
 17.09687    217.9 1.609e+04 6.141e-09
 17.11029    218.0 1.699e+04 8.096e-09
 17.12455    216.5 1.831e+04 1.245e-08
 17.13797    216.8 1.893e+04 1.515e-08
 17.15223    214.9 1.988e+04 1.962e-08
 17.16565    214.6 1.994e+04 1.951e-08
 17.17991    212.0 2.016e+04 1.993e-08
 17.19333    211.7 1.974e+04 1.640e-08
 17.20759    208.5 1.940e+04 1.411e-08
 17.22101    207.9 1.852e+04 1.032e-08
 17.23528    205.0 1.772e+04 8.715e-09
 17.24869    204.7 1.703e+04 7.131e-09
 17.26296    202.1 1.640e+04 6.356e-09
 17.27637    202.0 1.611e+04 5.860e-09
 17.29064    199.8 1.576e+04 5.430e-09
 17.30406    199.8 1.564e+04 5.222e-09
 17.31832    197.8 1.532e+04 4.773e-09
 17.33174    197.9 1.507e+04 4.410e-09
 17.34600    196.0 1.473e+04 3.943e-09
 17.35942    196.3 1.421e+04 3.290e-09
 17.37368    194.4 1.381e+04 2.878e-09
 17.38710    195.0 1.322e+04 2.291e-09
 17.40136    193.7 1.283e+04 1.956e-09
 17.41478    194.3 1.245e+04 1.564e-09
 17.42905    192.8 1.214e+04 1.311e-09
 17.44256    193.0 1.153e+04 9.167e-10
 17.47119    190.2 1.082e+04 6.570e-10
 17.49802    191.2 1.010e+04 4.554e-10
 17.52601    190.2 9.538e+03 3.273e-10
 17.55338    190.3 8.986e+03 2.072e-10
 17.58022    192.2 8.897e+03 1.934e-10
 17.60875    192.6 8.568e+03 1.273e-10
 17.63558    194.6 8.592e+03 1.334e-10
 17.66411    195.0 8.357e+03 9.406e-11
 17.69094    197.0 8.429e+03 1.053e-10
 17.71947    197.3 8.295e+03 8.751e-11
 17.74631    199.1 8.418e+03 1.011e-10
 17.77483    199.4 8.393e+03 9.769e-11
 17.80167    200.9 8.535e+03 1.147e-10
 17.83020    201.3 8.545e+03 1.148e-10
 17.85703    202.5 8.694e+03 1.369e-10
 17.88556    202.6 8.680e+03 1.345e-10
 17.91239    203.4 8.776e+03 1.581e-10
 17.94092    203.4 8.683e+03 1.469e-10
 17.96776    204.0 8.721e+03 1.680e-10
 17.99629    204.1 8.573e+03 1.468e-10
 18.02035    204.5 8.617e+03 1.676e-10
 18.03309    204.5 8.423e+03 1.342e-10
 18.05165    204.8 8.299e+03 1.182e-10
 18.07848    205.2 8.338e+03 1.333e-10
 18.10701    205.6 8.244e+03 1.193e-10
 18.13385    205.9 8.281e+03 1.316e-10
 18.16237    206.3 8.193e+03 1.186e-10
 18.18921    206.4 8.188e+03 1.205e-10
 18.21774    207.1 8.092e+03 1.082e-10
 18.24457    207.2 8.066e+03 1.078e-10
 18.27310    208.1 7.978e+03 9.623e-11
 18.29993    208.5 7.925e+03 9.614e-11
 18.32846    209.6 7.898e+03 8.557e-11
 18.35530    210.1 7.873e+03 8.856e-11
 18.38382    211.3 7.855e+03 8.077e-11
 18.41066    211.9 7.886e+03 9.286e-11
 18.43839    213.2 7.906e+03 8.765e-11
 18.46602    214.5 7.949e+03 8.445e-11
 18.49286    215.0 8.039e+03 1.018e-10
 18.52138    216.4 8.084e+03 9.890e-11
 18.54822    216.8 8.203e+03 1.182e-10
 18.57675    218.2 8.263e+03 1.169e-10
 18.60358    218.2 8.401e+03 1.361e-10
 18.63211    219.5 8.486e+03 1.361e-10
 18.65894    219.1 8.588e+03 1.531e-10
 18.68747    220.3 8.689e+03 1.544e-10
 18.71431    219.6 8.773e+03 1.720e-10
 18.74283    220.7 8.874e+03 1.776e-10
 18.76967    219.6 8.993e+03 2.079e-10
 18.79820    220.4 9.167e+03 2.348e-10
 18.82503    218.9 9.466e+03 3.138e-10
 18.85356    219.5 9.829e+03 4.058e-10
 18.88039    217.4 1.022e+04 5.541e-10
 18.90892    217.5 1.060e+04 6.887e-10
 18.93576    214.5 1.063e+04 6.881e-10
 18.96429    214.3 1.083e+04 7.537e-10
 18.99112    211.3 1.041e+04 5.508e-10
 19.01524    211.2 1.021e+04 4.637e-10
 19.03297    212.3 1.027e+04 4.936e-10
 19.04648    209.2 9.332e+03 2.714e-10
 19.07501    209.2 8.961e+03 2.186e-10
 19.10185    206.2 8.346e+03 1.698e-10
 19.13037    206.4 8.277e+03 1.623e-10
 19.15721    204.7 8.250e+03 1.618e-10
 19.18574    205.3 8.196e+03 1.533e-10
 19.21257    204.1 8.211e+03 1.548e-10
 19.24110    204.8 8.155e+03 1.445e-10
 19.26793    203.5 8.227e+03 1.479e-10
 19.29646    204.1 8.147e+03 1.342e-10
 19.32330    202.5 8.191e+03 1.328e-10
 19.35077    203.2 8.081e+03 1.228e-10
 19.37866    204.0 8.059e+03 1.222e-10
 19.40549    202.2 8.057e+03 1.223e-10
 19.43402    203.1 8.059e+03 1.239e-10
 19.46086    201.4 8.075e+03 1.296e-10
 19.48938    202.2 8.152e+03 1.447e-10
 19.51622    200.2 8.444e+03 1.802e-10
 19.54475    200.4 8.738e+03 2.181e-10
 19.57158    198.5 9.118e+03 2.692e-10
 19.60001    198.9 9.224e+03 2.954e-10
 19.61333    198.2 9.357e+03 3.481e-10
 19.62760    198.2 9.591e+03 4.104e-10
 19.64101    196.1 1.030e+04 6.695e-10
 19.65528    194.6 1.115e+04 9.715e-10
 19.66869    188.5 1.432e+04 2.383e-09
 19.68296    186.7 1.535e+04 3.224e-09
 19.69633    181.0 1.811e+04 6.869e-09
 19.70341    178.6 1.928e+04 9.586e-09
 19.71012    175.4 2.037e+04 1.431e-08
 19.71725    173.5 2.094e+04 1.783e-08
 19.72396    170.2 2.114e+04 1.972e-08
 19.73109    167.4 2.137e+04 2.059e-08
 19.73780    165.9 2.120e+04 2.010e-08
 19.74493    164.4 2.114e+04 1.995e-08
 19.75169    162.1 2.100e+04 1.825e-08
 19.76600    157.9 2.046e+04 1.353e-08
 19.77942    151.8 1.874e+04 5.855e-09
 19.79335    144.0 1.710e+04 3.786e-09
 19.80710    134.3 1.683e+04 3.829e-09
 19.82052    127.8 1.511e+04 3.175e-09
 19.83478    121.5 1.645e+04 5.191e-09
 19.84820    120.2 1.594e+04 4.478e-09
 19.86246    116.8 1.668e+04 5.773e-09
 19.87588    115.8 1.547e+04 3.367e-09
 19.89015    111.3 1.548e+04 3.004e-09
 19.90356    108.6 1.390e+04 1.660e-09
 19.91783    103.2 1.305e+04 1.522e-09
 19.93124    102.4 1.221e+04 1.187e-09
 19.94551     99.3 1.199e+04 1.289e-09
 19.95902    101.3 1.176e+04 1.027e-09
 19.98765     98.6 1.156e+04 1.117e-09
 20.01448    100.4 1.110e+04 8.467e-10
 20.02423     99.3 1.084e+04 7.431e-10
 20.04560    100.2 1.088e+04 7.443e-10
 20.06985    101.7 1.051e+04 5.862e-10
 20.09837    100.3 1.005e+04 4.413e-10
 20.12521    101.9 9.925e+03 4.015e-10
 20.15374    101.0 9.656e+03 3.481e-10
 20.18057    102.8 9.678e+03 3.429e-10
 20.20910    102.6 9.687e+03 3.383e-10
 20.23593    104.5 9.746e+03 3.361e-10
 20.24964    103.6 9.802e+03 3.523e-10
 20.26342    102.9 1.002e+04 3.821e-10
 20.27684    103.4 1.031e+04 4.096e-10
 20.29110    101.4 1.123e+04 6.052e-10
 20.30452    101.7 1.165e+04 7.469e-10
 20.31878     99.6 1.264e+04 1.383e-09
 20.33220    100.3 1.300e+04 1.712e-09
 20.34646     99.4 1.382e+04 2.855e-09
 20.35988    100.5 1.404e+04 3.233e-09
 20.37415     99.1 1.528e+04 4.461e-09
 20.38756    100.3 1.525e+04 4.499e-09
 20.40178     98.2 1.677e+04 5.393e-09
 20.41520     98.5 1.683e+04 5.099e-09
 20.42946     95.6 1.762e+04 5.412e-09
 20.44288     95.9 1.710e+04 4.751e-09
 20.45719     91.9 1.640e+04 4.109e-09
 20.47061     92.9 1.657e+04 4.014e-09
 20.48487     86.4 1.726e+04 4.246e-09
 20.49824     85.5 1.772e+04 4.754e-09
 20.50532     81.4 1.738e+04 4.882e-09
 20.51203     80.9 1.785e+04 5.592e-09
 20.51916     79.2 1.693e+04 5.346e-09
 20.52309     77.9 1.720e+04 6.552e-09
 20.52842     78.2 1.750e+04 7.451e-09
 20.54018     75.7 1.715e+04 8.318e-09
 20.55365     74.6 1.790e+04 1.172e-08
 20.56791     70.8 1.835e+04 7.550e-09
 20.58133     69.3 1.941e+04 7.635e-09
 20.59560     62.2 1.713e+04 3.903e-09
 20.60901     58.7 1.603e+04 2.886e-09
 20.62328     53.7 1.318e+04 1.849e-09
 20.63670     51.6 1.240e+04 1.295e-09
 20.65096     50.7 1.233e+04 1.195e-09
 20.66438     48.6 1.200e+04 8.630e-10
 20.67864     46.8 1.244e+04 9.587e-10
 20.69206     44.6 1.212e+04 8.177e-10
 20.70573     42.9 1.245e+04 1.162e-09
 20.71974     41.8 1.273e+04 1.732e-09
 20.73316     41.8 1.232e+04 1.553e-09
 20.74742     42.0 1.276e+04 2.089e-09
 20.76084     42.1 1.252e+04 1.755e-09
 20.77510     42.0 1.307e+04 2.061e-09
 20.78852     41.0 1.287e+04 1.736e-09
 20.80278     39.7 1.313e+04 1.864e-09
 20.81620     38.2 1.290e+04 1.791e-09
 20.83046     36.8 1.301e+04 1.949e-09
 20.84388     36.3 1.297e+04 2.098e-09
 20.85815     35.8 1.307e+04 2.244e-09
 20.87156     36.0 1.314e+04 2.347e-09
 20.88583     35.6 1.319e+04 2.329e-09
 20.89924     35.9 1.319e+04 2.303e-09
 20.91351     34.8 1.314e+04 2.026e-09
 20.92702     35.7 1.290e+04 1.853e-09
 20.95565     34.4 1.259e+04 1.585e-09
 20.98248     34.8 1.196e+04 1.237e-09
 21.00637     33.7 1.176e+04 1.109e-09
 21.02969     31.2 1.168e+04 1.039e-09
 21.03785     32.5 1.084e+04 6.600e-10
 21.06637     32.3 1.128e+04 8.489e-10
 21.09321     33.9 1.045e+04 5.219e-10
 21.12174     34.2 1.102e+04 7.470e-10
 21.17541     36.5 1.071e+04 6.522e-10
 21.20393     37.2 1.105e+04 8.355e-10
 21.23077     39.1 1.048e+04 5.876e-10
 21.25930     39.8 1.067e+04 6.905e-10
 21.28613     42.0 1.026e+04 5.193e-10
 21.31466     42.5 1.028e+04 5.604e-10
 21.34149     44.7 9.961e+03 4.415e-10
 21.37002     45.3 9.983e+03 4.807e-10
 21.39686     47.4 9.751e+03 4.057e-10
 21.42539     48.3 9.887e+03 4.564e-10
 21.45222     50.4 9.712e+03 4.037e-10
 21.48075     51.3 9.887e+03 4.560e-10
 21.50758     53.4 9.744e+03 4.121e-10
 21.53611     54.2 9.948e+03 4.753e-10
 21.56295     56.4 9.851e+03 4.456e-10
 21.59147     57.2 1.008e+04 5.237e-10
 21.61831     59.4 1.007e+04 5.298e-10
 21.64684     60.3 1.041e+04 6.164e-10
 21.67367     62.8 1.074e+04 7.164e-10
 21.68784     61.7 1.083e+04 7.107e-10
 21.70116     62.6 1.100e+04 7.813e-10
 21.71542     62.5 1.104e+04 7.830e-10
 21.72884     63.5 1.125e+04 8.837e-10
 21.74310     63.1 1.106e+04 8.367e-10
 21.75652     64.2 1.136e+04 9.844e-10
 21.77078     64.0 1.111e+04 9.026e-10
 21.78420     65.0 1.137e+04 1.037e-09
 21.79846     64.8 1.119e+04 8.986e-10
 21.81188     65.7 1.141e+04 9.999e-10
 21.82615     65.1 1.119e+04 8.399e-10
 21.83956     65.8 1.134e+04 9.089e-10
 21.85383     64.9 1.111e+04 7.961e-10
 21.86725     65.3 1.132e+04 8.801e-10
 21.88151     64.6 1.131e+04 8.597e-10
 21.89493     64.4 1.165e+04 1.006e-09
 21.90919     63.7 1.176e+04 1.090e-09
 21.92261     63.2 1.220e+04 1.399e-09
 21.93687     63.0 1.228e+04 1.554e-09
 21.95029     62.9 1.277e+04 2.037e-09
 21.96455     63.5 1.281e+04 2.092e-09
 21.97797     63.8 1.321e+04 2.541e-09
 21.99223     64.3 1.303e+04 2.036e-09
 22.00565     64.2 1.302e+04 2.009e-09
 22.01516     64.1 1.253e+04 1.494e-09
 22.02786     63.9 1.255e+04 1.492e-09
 22.03333     63.6 1.250e+04 1.391e-09
 22.04747     63.5 1.196e+04 1.061e-09
 22.06111     63.8 1.157e+04 8.553e-10
 22.07453     63.4 1.128e+04 7.200e-10
 22.08870     63.7 1.118e+04 6.440e-10
 22.10211     63.4 1.091e+04 5.334e-10
 22.11647     63.6 1.066e+04 4.684e-10
 22.14341     62.2 1.082e+04 5.172e-10
 22.17184     62.8 1.058e+04 4.685e-10
 22.19867     61.7 1.102e+04 6.712e-10
 22.22730     63.0 1.086e+04 6.350e-10
 22.25413     61.7 1.124e+04 8.366e-10
 22.28266     62.3 1.174e+04 1.089e-09
 22.30950     60.3 1.178e+04 1.114e-09
 22.33802     61.0 1.233e+04 1.707e-09
 22.36486     60.6 1.190e+04 1.417e-09
 22.39339     62.7 1.238e+04 1.741e-09
 22.42022     62.5 1.128e+04 8.398e-10
 22.44875     62.9 1.112e+04 6.643e-10
 22.47558     61.9 9.393e+03 2.246e-10
 22.50411     61.5 9.178e+03 1.952e-10
 22.53095     61.3 8.640e+03 1.451e-10
 22.55947     62.0 8.711e+03 1.624e-10
 22.58631     63.1 8.663e+03 1.614e-10
 22.61484     64.3 8.722e+03 1.670e-10
 22.64167     65.7 8.715e+03 1.698e-10
 22.67020     66.8 8.717e+03 1.562e-10
 22.69703     68.1 8.713e+03 1.621e-10
 22.72556     69.0 8.666e+03 1.474e-10
 22.75240     70.2 8.665e+03 1.566e-10
 22.78092     71.3 8.582e+03 1.403e-10
 22.80776     72.4 8.595e+03 1.504e-10
 22.83629     73.5 8.492e+03 1.417e-10
 22.86312     74.6 8.538e+03 1.600e-10
 22.89165     75.7 8.592e+03 1.665e-10
 22.91848     76.7 8.694e+03 1.968e-10
 22.94663     77.4 9.069e+03 2.444e-10
 22.97385     77.5 9.471e+03 3.094e-10
 22.98717     77.7 9.505e+03 3.478e-10
 23.00133     77.6 9.627e+03 3.706e-10
 23.01195     77.8 9.859e+03 4.643e-10
 23.02415     77.5 1.005e+04 5.305e-10
 23.02901     77.3 1.039e+04 6.409e-10
 23.04243     77.2 1.085e+04 8.274e-10
 23.05670     75.6 1.197e+04 1.100e-09
 23.07011     75.3 1.260e+04 1.454e-09
 23.08438     73.3 1.318e+04 1.906e-09
 23.09779     73.4 1.350e+04 2.407e-09
 23.11206     72.4 1.328e+04 2.651e-09
 23.12548     72.6 1.362e+04 3.097e-09
 23.13974     71.9 1.372e+04 2.843e-09
 23.15316     71.5 1.420e+04 3.003e-09
 23.16742     69.3 1.423e+04 2.343e-09
 23.18084     67.9 1.436e+04 2.564e-09
 23.19510     65.1 1.320e+04 1.946e-09
 23.20852     64.6 1.345e+04 2.397e-09
 23.22278     64.1 1.300e+04 1.905e-09
 23.23620     64.7 1.351e+04 2.242e-09
 23.25047     63.6 1.289e+04 1.464e-09
 23.26388     63.4 1.323e+04 1.440e-09
 23.27815     61.6 1.194e+04 9.373e-10
 23.29156     60.7 1.186e+04 8.414e-10
 23.30583     60.0 1.135e+04 6.763e-10
 23.31925     59.4 1.124e+04 6.367e-10
 23.33351     59.5 1.110e+04 5.770e-10
 23.34693     59.3 1.109e+04 5.747e-10
 23.36119     59.2 1.093e+04 5.442e-10
 23.37461     59.3 1.095e+04 5.476e-10
 23.38887     59.5 1.100e+04 5.668e-10
 23.40229     59.7 1.107e+04 5.799e-10
 23.41605     59.9 1.117e+04 6.228e-10
 23.42997     59.8 1.126e+04 6.822e-10
 23.44339     60.0 1.137e+04 7.203e-10
 23.45765     60.3 1.148e+04 8.754e-10
 23.47107     60.5 1.163e+04 9.375e-10
 23.48533     60.6 1.162e+04 1.036e-09
 23.49875     60.8 1.181e+04 1.130e-09
 23.51302     61.4 1.198e+04 1.254e-09
 23.51827     61.2 1.230e+04 1.399e-09
 23.52864     61.3 1.228e+04 1.396e-09
 23.54070     61.2 1.237e+04 1.488e-09
 23.55411     59.9 1.310e+04 1.859e-09
 23.56838     58.6 1.361e+04 2.216e-09
 23.58180     56.1 1.475e+04 3.543e-09
 23.59606     54.8 1.526e+04 4.625e-09
 23.60948     54.1 1.592e+04 6.846e-09
 23.62374     54.2 1.618e+04 7.537e-09
 23.63716     53.6 1.617e+04 7.594e-09
 23.65142     54.1 1.569e+04 6.145e-09
 23.66484     54.4 1.522e+04 4.837e-09
 23.67910     53.9 1.430e+04 2.600e-09
 23.69252     52.9 1.369e+04 1.368e-09
 23.70678     50.1 1.254e+04 6.793e-10
 23.72020     46.9 1.134e+04 3.579e-10
 23.73447     45.1 1.052e+04 3.001e-10
 23.74788     44.5 1.034e+04 2.861e-10
 23.76215     44.6 1.032e+04 2.958e-10
 23.77566     44.5 1.035e+04 2.963e-10
 23.80429     44.9 1.030e+04 3.260e-10
 23.83112     45.1 1.034e+04 3.619e-10
 23.85902     45.9 1.023e+04 3.891e-10
 23.88649     47.1 1.022e+04 4.116e-10
 23.91332     47.4 1.006e+04 3.713e-10
 23.94185     48.7 9.938e+03 3.388e-10
 23.96868     49.2 9.671e+03 2.457e-10
 23.99721     50.4 9.600e+03 2.174e-10
 24.01051     51.0 9.349e+03 1.433e-10
 24.03333     51.2 9.458e+03 1.654e-10
 24.05257     52.3 9.476e+03 1.773e-10
 24.07941     53.1 9.271e+03 1.190e-10
 24.10794     54.1 9.466e+03 1.845e-10
 24.13477     55.0 9.269e+03 1.413e-10
 24.16330     56.6 9.657e+03 2.601e-10
 24.19013     57.7 9.480e+03 2.198e-10
 24.21866     59.6 1.004e+04 3.814e-10
 24.24550     60.9 9.855e+03 3.347e-10
 24.27402     62.6 1.036e+04 5.047e-10
 24.30086     64.0 1.013e+04 4.345e-10
 24.32939     65.5 1.054e+04 5.830e-10
 24.35622     66.7 1.029e+04 4.867e-10
 24.38475     67.8 1.077e+04 6.403e-10
 24.41158     68.8 1.052e+04 5.303e-10
 24.44011     69.6 1.109e+04 7.743e-10
 24.46695     70.8 1.088e+04 6.767e-10
 24.49547     71.7 1.174e+04 1.133e-09
 24.51673     72.4 1.174e+04 1.184e-09
 24.52421     72.5 1.143e+04 9.963e-10
 24.53638     73.4 1.194e+04 1.336e-09
 24.54980     74.1 1.177e+04 1.243e-09
 24.56406     74.7 1.227e+04 1.463e-09
 24.57748     75.4 1.203e+04 1.325e-09
 24.59174     75.8 1.243e+04 1.535e-09
 24.60516     76.4 1.212e+04 1.345e-09
 24.61942     76.5 1.258e+04 1.537e-09
 24.63284     77.0 1.224e+04 1.304e-09
 24.64710     77.2 1.253e+04 1.480e-09
 24.66052     77.4 1.216e+04 1.276e-09
 24.67478     77.3 1.251e+04 1.416e-09
 24.68830     78.1 1.172e+04 9.843e-10
 24.71693     79.1 1.224e+04 1.448e-09
 24.74376     80.5 1.141e+04 8.650e-10
 24.77140     80.4 1.183e+04 1.026e-09
 24.79903     80.1 1.197e+04 1.184e-09
 24.82586     80.8 1.148e+04 9.795e-10
 24.85449     81.3 1.210e+04 1.338e-09
 24.88132     83.0 1.134e+04 1.031e-09
 24.90985     83.2 1.187e+04 8.577e-10
 24.93668     84.9 1.112e+04 6.168e-10
 24.96521     84.6 1.138e+04 4.839e-10
 24.99205     86.2 1.066e+04 3.696e-10
 25.01547     86.7 1.089e+04 3.326e-10
 25.02314     86.6 1.134e+04 4.426e-10
 25.04741     88.0 1.088e+04 4.188e-10
 25.07594     89.0 1.117e+04 4.008e-10
 25.10277     90.5 1.082e+04 3.931e-10
 25.13130     92.5 1.100e+04 3.528e-10
 25.15813     93.4 1.088e+04 3.595e-10
 25.18656     95.2 1.099e+04 3.158e-10
 25.19988     95.5 1.100e+04 3.229e-10
 25.21398     96.3 1.092e+04 3.050e-10
 25.22757     97.8 1.098e+04 2.792e-10
 25.24098     97.9 1.100e+04 2.780e-10
 25.25525     99.1 1.106e+04 2.639e-10
 25.26866     99.2 1.104e+04 2.638e-10
 25.28293    100.6 1.081e+04 2.376e-10
 25.29635    100.4 1.085e+04 2.431e-10
 25.31061    101.9 1.089e+04 2.436e-10
 25.32403    101.6 1.098e+04 2.631e-10
 25.33829    103.2 1.100e+04 2.679e-10
 25.35171    102.9 1.114e+04 3.148e-10
 25.36597    104.7 1.119e+04 3.273e-10
 25.37939    103.6 1.153e+04 4.336e-10
 25.39365    104.1 1.232e+04 5.248e-10
 25.40707     99.6 1.460e+04 1.157e-09
 25.42133     95.9 1.749e+04 2.508e-09
 25.43475     90.8 1.843e+04 7.215e-09
 25.44873     87.7 1.879e+04 1.358e-08
 25.45563     85.9 1.990e+04 1.901e-08
 25.46234     85.5 2.007e+04 1.817e-08
 25.46947     84.8 2.059e+04 2.151e-08
 25.47618     84.3 2.073e+04 1.844e-08
 25.48331     82.0 2.327e+04 1.552e-08
 25.49002     82.0 2.360e+04 1.054e-08
 25.49715     80.2 2.814e+04 7.173e-09
 25.50386     80.0 2.936e+04 2.967e-09
 25.51099     76.6 3.265e+04 2.097e-09
 25.51494     76.6 3.102e+04 1.528e-09
 25.51977     69.5 2.105e+04 7.682e-10
 25.53206     61.3 1.715e+04 7.653e-10
 25.54548     60.2 1.338e+04 6.841e-10
 25.55974     58.3 1.386e+04 9.581e-10
 25.57316     60.8 1.335e+04 7.519e-10
 25.58742     60.7 1.424e+04 1.122e-09
 25.60084     62.5 1.350e+04 8.716e-10
 25.61510     62.5 1.402e+04 1.244e-09
 25.62852     64.0 1.345e+04 9.336e-10
 25.64279     64.4 1.371e+04 1.188e-09
 25.65630     66.6 1.320e+04 8.109e-10
 25.68378     67.0 1.364e+04 1.386e-09
 25.71176     68.3 1.368e+04 1.670e-09
 25.73860     69.6 1.336e+04 1.501e-09
 25.76703     70.1 1.354e+04 1.687e-09
 25.78035     70.7 1.344e+04 1.635e-09
 25.79461     70.8 1.347e+04 1.782e-09
 25.80803     71.5 1.336e+04 1.686e-09
 25.82229     72.2 1.346e+04 1.952e-09
 25.83571     72.9 1.335e+04 1.830e-09
 25.84997     73.4 1.337e+04 1.944e-09
 25.86339     74.0 1.327e+04 1.777e-09
 25.87765     74.4 1.327e+04 1.875e-09
 25.89107     75.0 1.322e+04 1.711e-09
 25.90533     75.3 1.326e+04 1.768e-09
 25.91875     75.5 1.323e+04 1.624e-09
 25.93302     75.9 1.309e+04 1.693e-09
 25.94643     76.3 1.297e+04 1.523e-09
 25.96070     76.7 1.288e+04 1.525e-09
 25.97412     77.0 1.288e+04 1.395e-09
 25.98838     77.6 1.259e+04 1.381e-09
 26.00180     78.0 1.256e+04 1.245e-09
 26.01085     78.6 1.235e+04 1.131e-09
 26.02130     78.1 1.220e+04 1.024e-09
 26.02948     78.0 1.223e+04 9.799e-10
 26.04374     78.6 1.203e+04 8.667e-10
 26.05716     78.3 1.204e+04 8.870e-10
 26.07142     78.8 1.202e+04 7.772e-10
 26.08484     77.8 1.216e+04 9.349e-10
 26.09910     77.3 1.263e+04 9.264e-10
 26.11252     74.6 1.380e+04 1.700e-09
 26.12636     73.4 1.455e+04 2.155e-09
 26.14020     72.8 1.518e+04 2.713e-09
 26.15362     71.9 1.605e+04 5.992e-09
 26.16788     72.3 1.643e+04 6.642e-09
 26.18130     72.5 1.703e+04 9.910e-09
 26.19557     72.3 1.728e+04 9.173e-09
 26.20898     71.8 1.726e+04 8.982e-09
 26.22325     71.0 1.693e+04 7.293e-09
 26.23666     70.2 1.659e+04 5.766e-09
 26.25093     68.3 1.564e+04 4.494e-09
 26.26435     66.9 1.493e+04 2.651e-09
 26.27861     65.3 1.424e+04 2.456e-09
 26.29203     63.5 1.345e+04 1.404e-09
 26.30629     62.9 1.330e+04 1.646e-09
 26.31971     61.5 1.260e+04 1.089e-09
 26.33397     61.6 1.284e+04 1.398e-09
 26.34739     61.0 1.227e+04 1.030e-09
 26.36165     61.3 1.258e+04 1.220e-09
 26.37507     61.5 1.198e+04 8.888e-10
 26.38934     61.6 1.245e+04 9.574e-10
 26.40275     62.2 1.195e+04 6.562e-10
 26.43138     61.8 1.154e+04 4.598e-10
 26.45831     62.1 1.050e+04 2.406e-10
 26.48684     61.5 1.034e+04 1.714e-10
 26.51367     61.8 9.686e+03 1.352e-10
 26.54220     62.3 9.583e+03 1.110e-10
 26.56904     63.1 9.450e+03 1.088e-10
 26.59617     64.3 9.393e+03 8.597e-11
 26.62440     65.3 9.541e+03 7.185e-11
 26.65123     65.8 9.428e+03 7.097e-11
 26.67976     66.2 9.500e+03 6.633e-11
 26.70660     66.6 9.441e+03 6.783e-11
 26.73512     66.3 9.625e+03 8.811e-11
 26.76196     67.2 9.464e+03 1.005e-10
 26.79049     66.9 9.969e+03 1.982e-10
 26.81732     68.5 9.928e+03 2.112e-10
 26.84585     68.0 1.062e+04 3.342e-10
 26.87268     70.0 1.060e+04 3.447e-10
 26.90111     69.6 1.062e+04 3.883e-10
 26.91443     70.4 1.053e+04 3.919e-10
 26.92870     70.4 1.054e+04 3.933e-10
 26.94212     71.2 1.051e+04 3.990e-10
 26.95638     70.9 1.093e+04 3.962e-10
 26.96980     71.7 1.092e+04 4.041e-10
 26.98406     70.6 1.143e+04 3.921e-10
 26.99748     71.3 1.148e+04 4.202e-10
 27.00641     69.7 1.175e+04 4.803e-10
 27.01966     70.7 1.178e+04 4.712e-10
 27.02516     71.3 1.194e+04 5.380e-10
 27.03874     69.6 1.213e+04 6.919e-10
 27.05284     68.4 1.206e+04 9.907e-10
 27.06626     68.9 1.234e+04 1.180e-09
 27.08052     68.7 1.252e+04 1.591e-09
 27.09394     69.4 1.282e+04 1.885e-09
 27.10820     69.7 1.313e+04 2.225e-09
 27.12162     70.5 1.341e+04 2.463e-09
 27.13588     70.8 1.351e+04 2.404e-09
 27.14930     71.4 1.353e+04 2.381e-09
 27.16357     71.3 1.310e+04 1.673e-09
 27.17698     71.4 1.307e+04 1.545e-09
 27.19125     70.5 1.242e+04 9.707e-10
 27.20466     70.4 1.236e+04 8.927e-10
 27.21893     69.7 1.178e+04 6.222e-10
 27.23235     69.7 1.180e+04 6.253e-10
 27.24661     69.4 1.152e+04 5.178e-10
 27.26003     69.6 1.161e+04 5.574e-10
 27.27429     69.3 1.119e+04 4.859e-10
 27.28771     69.6 1.152e+04 5.776e-10
 27.30197     69.7 1.149e+04 5.727e-10
 27.31539     70.0 1.198e+04 7.028e-10
 27.32965     69.7 1.193e+04 7.689e-10
 27.34307     69.6 1.255e+04 1.014e-09
 27.35734     69.2 1.248e+04 1.228e-09
 27.37075     68.9 1.323e+04 1.727e-09
 27.38502     69.0 1.313e+04 2.065e-09
 27.39843     68.6 1.395e+04 2.952e-09
 27.41270     69.2 1.389e+04 3.090e-09
 27.42612     69.1 1.465e+04 4.182e-09
 27.44038     69.8 1.427e+04 3.607e-09
 27.45380     69.5 1.480e+04 4.090e-09
 27.46806     69.6 1.400e+04 2.730e-09
 27.49490     67.7 1.327e+04 1.794e-09
 27.50916     66.8 1.237e+04 1.276e-09
 27.51171     65.2 1.240e+04 1.293e-09
 27.52432     65.0 1.276e+04 1.490e-09
 27.53684     64.4 1.212e+04 1.183e-09
 27.55026     63.0 1.231e+04 1.339e-09
 27.56452     62.8 1.200e+04 1.231e-09
 27.57794     61.7 1.228e+04 1.485e-09
 27.59220     62.1 1.205e+04 1.435e-09
 27.60562     61.4 1.233e+04 1.649e-09
 27.61989     61.8 1.216e+04 1.524e-09
 27.63330     60.9 1.223e+04 1.522e-09
 27.64757     61.0 1.201e+04 1.388e-09
 27.66098     59.8 1.192e+04 1.305e-09
 27.67525     59.8 1.175e+04 1.201e-09
 27.68867     58.7 1.141e+04 1.030e-09
 27.70293     58.7 1.125e+04 9.576e-10
 27.71635     57.5 1.082e+04 8.056e-10
 27.73061     57.5 1.072e+04 7.707e-10
 27.74403     56.6 1.041e+04 6.795e-10
 27.75839     57.5 1.063e+04 7.057e-10
 27.78532     56.7 1.015e+04 5.914e-10
 27.81385     56.9 9.599e+03 4.059e-10
 27.84068     56.4 9.283e+03 3.393e-10
 27.86921     55.9 8.662e+03 2.028e-10
 27.89605     55.9 8.541e+03 1.892e-10
 27.92458     55.9 8.250e+03 1.447e-10
 27.95141     56.7 8.183e+03 1.343e-10
 27.97994     57.4 8.081e+03 1.215e-10
 28.00395     58.1 8.029e+03 1.151e-10
 28.01559     58.1 8.048e+03 1.130e-10
 28.03530     58.9 8.042e+03 1.108e-10
 28.06214     59.6 8.069e+03 1.143e-10
 28.09066     59.9 8.195e+03 1.352e-10
 28.11750     60.7 8.416e+03 1.716e-10
 28.14603     61.5 8.778e+03 2.282e-10
 28.17286     62.5 9.179e+03 2.983e-10
 28.20139     62.9 9.401e+03 3.261e-10
 28.22822     63.3 9.631e+03 3.665e-10
 28.25675     63.0 9.691e+03 3.458e-10
 28.28349     62.7 9.698e+03 3.479e-10
 28.29765     62.2 9.667e+03 3.334e-10
 28.31107     62.0 9.709e+03 3.592e-10
 28.32534     61.8 9.659e+03 3.537e-10
 28.33875     61.5 9.796e+03 3.949e-10
 28.35302     61.4 9.745e+03 3.836e-10
 28.36643     60.4 1.064e+04 5.061e-10
 28.38048     60.2 1.080e+04 5.047e-10
 28.39412     59.5 1.113e+04 5.292e-10
 28.40753     51.5 1.635e+04 1.959e-09
 28.42180     49.3 1.737e+04 2.648e-09
 28.42846     44.8 1.920e+04 6.546e-09
 28.43554     43.9 1.959e+04 7.040e-09
 28.44225     40.8 2.034e+04 1.450e-08
 28.44938     38.9 2.028e+04 1.926e-08
 28.45609     38.2 2.040e+04 3.110e-08
 28.46322     37.8 2.025e+04 3.546e-08
 28.46993     37.5 2.114e+04 3.614e-08
 28.47706     37.8 2.117e+04 3.893e-08
 28.48377     36.6 2.177e+04 3.586e-08
 28.49090     36.5 2.214e+04 3.527e-08
 28.49761     33.4 2.420e+04 2.202e-08
 28.50474     33.0 2.515e+04 1.919e-08
 28.51002     22.8 2.614e+04 7.303e-09
 28.51989     19.3 2.564e+04 4.292e-09
 28.53252     14.7 2.480e+04 2.572e-09
 28.54594      2.5 1.349e+04 1.882e-09
 28.56020      1.2 1.209e+04 1.402e-09
 28.57362      0.1 1.168e+04 1.172e-09
 28.58789     -0.5 1.086e+04 7.725e-10
 28.60130     -2.4 1.072e+04 5.639e-10
 28.61557     -4.0 1.015e+04 3.607e-10
 28.62898     -7.1 1.002e+04 3.379e-10
 28.64325     -8.7 1.001e+04 3.218e-10
 28.65667     -9.9 9.881e+03 3.327e-10
 28.67103    -10.5 1.003e+04 3.667e-10
 28.69796    -12.5 1.041e+04 5.979e-10
 28.72649    -12.6 1.039e+04 6.501e-10
 28.75332    -12.6 1.061e+04 7.967e-10
 28.78185    -12.3 1.031e+04 6.817e-10
 28.80869    -12.0 1.010e+04 5.855e-10
 28.83721    -11.9 9.707e+03 4.444e-10
 28.86405    -12.2 9.336e+03 3.195e-10
 28.89258    -12.2 9.083e+03 2.710e-10
 28.91941    -12.3 8.796e+03 2.279e-10
 28.94794    -11.6 8.612e+03 1.951e-10
 28.97477    -11.2 8.562e+03 1.917e-10
 28.99774    -10.5 8.375e+03 1.558e-10
 29.01658     -9.9 8.247e+03 1.335e-10
 29.03014     -9.5 8.264e+03 1.419e-10
 29.05866     -8.9 8.205e+03 1.358e-10
 29.08550     -8.4 8.244e+03 1.515e-10
 29.11403     -7.5 8.201e+03 1.514e-10
 29.14086     -6.7 8.159e+03 1.486e-10
 29.16939     -5.7 8.125e+03 1.452e-10
 29.19622     -4.9 7.970e+03 1.200e-10
 29.22475     -4.0 7.957e+03 1.118e-10
 29.25159     -3.7 7.827e+03 9.599e-11
 29.27964     -3.2 7.873e+03 9.619e-11
 29.30695     -3.6 8.289e+03 1.254e-10
 29.33378     -4.4 8.492e+03 1.504e-10
 29.36231     -4.6 9.205e+03 3.083e-10
 29.38915     -4.8 9.551e+03 4.366e-10
 29.41767     -4.0 1.015e+04 6.683e-10
 29.43099     -4.5 1.009e+04 6.503e-10
 29.44516     -4.4 1.021e+04 6.953e-10
 29.45858     -4.5 1.014e+04 6.677e-10
 29.47284     -4.3 1.034e+04 7.199e-10
 29.48626     -4.9 1.025e+04 6.503e-10
 29.50052     -5.1 1.039e+04 6.740e-10
 29.50843     -5.8 1.025e+04 6.237e-10
 29.51545     -5.0 1.022e+04 6.101e-10
 29.52820     -5.2 1.028e+04 6.219e-10
 29.55514     -6.6 1.026e+04 6.385e-10
 29.58376     -6.8 1.027e+04 6.503e-10
 29.61060     -7.3 1.005e+04 6.118e-10
 29.63913     -7.3 9.936e+03 5.514e-10
 29.65245     -7.1 9.885e+03 5.557e-10
 29.66661     -6.9 9.855e+03 5.391e-10
 29.68003     -6.8 9.771e+03 5.170e-10
 29.69429     -6.8 9.700e+03 4.859e-10
 29.70771     -6.8 9.697e+03 4.808e-10
 29.72197     -6.9 9.651e+03 4.588e-10
 29.73539     -6.9 9.699e+03 4.678e-10
 29.74906     -7.0 9.665e+03 4.509e-10
 29.76307     -7.2 9.646e+03 4.356e-10
 29.77649     -7.2 9.770e+03 4.612e-10
 29.79075     -7.4 9.801e+03 4.633e-10
 29.80417     -7.5 9.925e+03 4.945e-10
 29.81844     -7.7 9.984e+03 5.122e-10
 29.83185     -7.9 1.012e+04 5.561e-10
 29.84612     -7.9 1.015e+04 5.737e-10
 29.85953     -7.9 1.021e+04 6.068e-10
 29.87380     -7.8 1.028e+04 6.290e-10
 29.88731     -8.5 1.071e+04 7.765e-10
 29.91594     -8.2 1.080e+04 7.842e-10
 29.94277     -9.3 1.117e+04 8.828e-10
 29.97130    -10.6 1.169e+04 9.569e-10
 29.99804    -11.8 1.210e+04 1.070e-09
 30.00653    -12.3 1.237e+04 1.255e-09
 30.02911    -11.3 1.185e+04 8.427e-10
 30.05340    -13.1 1.277e+04 1.462e-09
 30.06757    -13.3 1.293e+04 1.722e-09
 30.08098    -13.7 1.329e+04 2.156e-09
 30.09525    -14.1 1.337e+04 2.250e-09
 30.10867    -16.6 1.487e+04 3.301e-09
 30.12293    -21.1 1.709e+04 4.307e-09
 30.13635    -25.7 1.855e+04 8.962e-09
 30.15061    -28.2 1.834e+04 9.785e-09
 30.16398    -28.3 1.726e+04 1.117e-08
 30.17106    -28.1 1.654e+04 9.671e-09
 30.17777    -27.4 1.601e+04 9.249e-09
 30.18490    -27.2 1.563e+04 7.321e-09
 30.19161    -26.9 1.563e+04 5.754e-09
 30.20520    -27.6 1.568e+04 4.217e-09
 30.21939    -29.3 1.533e+04 2.295e-09
 30.23281    -33.9 1.414e+04 1.006e-09
 30.24707    -39.6 1.153e+04 4.051e-10
 30.26049    -42.4 1.021e+04 3.253e-10
 30.27475    -42.9 1.006e+04 2.810e-10
 30.28817    -43.1 1.019e+04 2.880e-10
 30.30244    -43.2 1.026e+04 2.672e-10
 30.31585    -43.4 1.029e+04 2.719e-10
 30.33021    -43.4 1.035e+04 2.605e-10
 30.35715    -45.7 1.068e+04 3.132e-10
 30.38568    -47.4 1.101e+04 3.190e-10
 30.39899    -49.0 1.104e+04 4.581e-10
 30.41316    -50.1 1.128e+04 5.018e-10
 30.42658    -51.2 1.149e+04 6.624e-10
 30.44084    -52.0 1.167e+04 7.943e-10
 30.45426    -52.7 1.173e+04 9.743e-10
 30.46852    -53.2 1.194e+04 1.062e-09
 30.48194    -54.2 1.204e+04 1.073e-09
 30.49621    -55.0 1.206e+04 1.061e-09
 30.50679    -56.5 1.186e+04 9.329e-10
 30.51102    -56.5 1.181e+04 9.252e-10
 30.52389    -57.2 1.150e+04 8.002e-10
 30.53730    -58.4 1.113e+04 6.538e-10
 30.55157    -59.2 1.097e+04 5.460e-10
 30.56499    -60.4 1.068e+04 4.078e-10
 30.57925    -61.6 1.058e+04 3.608e-10
 30.59267    -62.1 1.039e+04 3.236e-10
 30.60703    -62.8 1.058e+04 3.730e-10
 30.63396    -64.2 1.008e+04 2.561e-10
 30.66249    -65.6 9.994e+03 2.482e-10
 30.68932    -67.2 9.697e+03 2.080e-10
 30.71785    -68.6 9.717e+03 2.339e-10
 30.74469    -69.6 9.720e+03 2.649e-10
 30.77321    -70.6 9.877e+03 3.342e-10
 30.80005    -71.2 9.909e+03 3.650e-10
 30.82858    -71.9 9.970e+03 3.968e-10
 30.85541    -72.5 9.852e+03 3.630e-10
 30.88394    -73.1 9.647e+03 3.243e-10
 30.91077    -73.8 9.391e+03 2.612e-10
 30.93930    -74.1 9.091e+03 1.931e-10
 30.96614    -74.8 8.987e+03 1.763e-10
 30.98887    -74.8 8.793e+03 1.283e-10
 31.01330    -75.7 8.810e+03 1.280e-10
 31.02150    -76.3 8.891e+03 1.464e-10
 31.05003    -76.3 8.701e+03 1.220e-10
 31.07686    -76.4 8.779e+03 1.662e-10
 31.10441    -75.8 8.652e+03 1.536e-10
 31.13222    -75.1 8.584e+03 1.492e-10
 31.15906    -74.6 8.643e+03 1.653e-10
 31.18759    -73.6 8.577e+03 1.593e-10
 31.21442    -73.0 8.441e+03 1.437e-10
 31.24295    -71.9 8.399e+03 1.392e-10
 31.26978    -71.3 8.231e+03 1.014e-10
 31.29831    -70.2 8.242e+03 1.064e-10
 31.32515    -69.6 8.096e+03 8.000e-11
 31.35368    -68.5 8.194e+03 1.037e-10
 31.38051    -67.9 8.149e+03 8.682e-11
 31.40904    -66.9 8.310e+03 1.215e-10
 31.43587    -66.5 8.411e+03 1.212e-10
 31.46440    -65.7 8.714e+03 1.813e-10
 31.47772    -65.4 9.014e+03 2.183e-10
 31.49189    -65.1 9.015e+03 2.317e-10
 31.50515    -65.8 9.339e+03 2.659e-10
 31.50659    -68.5 1.092e+04 3.773e-10
 31.51957    -70.5 1.284e+04 6.811e-10
 31.53299    -74.5 1.515e+04 2.101e-09
 31.54699    -75.6 1.583e+04 3.539e-09
 31.56067    -76.1 1.608e+04 5.070e-09
 31.57408    -75.6 1.642e+04 9.191e-09
 31.58835    -75.4 1.632e+04 9.615e-09
 31.60177    -74.1 1.645e+04 1.109e-08
 31.61603    -73.7 1.591e+04 9.329e-09
 31.62945    -72.4 1.568e+04 8.162e-09
 31.64371    -72.7 1.509e+04 5.832e-09
 31.65713    -72.5 1.476e+04 3.278e-09
 31.67139    -74.1 1.389e+04 1.892e-09
 31.68481    -76.2 1.300e+04 9.490e-10
 31.69907    -77.2 1.234e+04 8.758e-10
 31.71259    -78.9 1.184e+04 4.927e-10
 31.74121    -79.7 1.039e+04 3.881e-10
 31.76805    -82.7 8.348e+03 1.855e-10
 31.79658    -81.6 8.075e+03 1.700e-10
 31.82341    -82.8 7.909e+03 1.410e-10
 31.85194    -81.3 7.811e+03 1.233e-10
 31.87877    -81.9 7.789e+03 1.298e-10
 31.90730    -80.7 7.724e+03 1.151e-10
 31.93414    -81.5 7.941e+03 1.400e-10
 31.96267    -80.7 7.947e+03 1.367e-10
 31.98950    -82.5 8.673e+03 2.331e-10
 31.99786    -81.9 8.869e+03 2.628e-10
 32.02469    -83.7 9.671e+03 4.808e-10
 32.04486    -83.2 9.861e+03 5.631e-10
 32.07170    -84.6 1.019e+04 7.325e-10
 32.10023    -83.9 1.002e+04 6.747e-10
 32.12706    -85.4 9.829e+03 6.225e-10
 32.15559    -84.7 9.413e+03 4.833e-10
 32.18242    -86.1 8.901e+03 3.401e-10
 32.21095    -85.9 8.513e+03 2.538e-10
 32.23779    -87.1 8.313e+03 2.199e-10
 32.26631    -86.6 8.157e+03 1.930e-10
 32.29315    -87.1 8.301e+03 2.185e-10
 32.32168    -86.8 8.396e+03 2.296e-10
 32.34851    -87.0 8.811e+03 3.234e-10
 32.37704    -87.0 9.060e+03 3.830e-10
 32.40387    -86.8 9.399e+03 4.863e-10
 32.43240    -86.9 9.650e+03 5.669e-10
 32.45924    -86.6 9.754e+03 5.970e-10
 32.48776    -86.9 9.876e+03 6.402e-10
 32.51460    -86.7 9.865e+03 6.211e-10
 32.54313    -87.5 1.000e+04 6.590e-10
 32.56996    -88.0 1.014e+04 6.780e-10
 32.58413    -90.0 1.030e+04 7.262e-10
 32.59745    -91.4 1.086e+04 8.344e-10
 32.61171    -97.4 1.338e+04 1.349e-09
 32.62513    -99.5 1.472e+04 1.814e-09
 32.63939   -105.3 1.653e+04 3.676e-09
 32.65281   -107.1 1.722e+04 4.990e-09
 32.66707   -111.9 1.731e+04 6.572e-09
 32.68049   -113.6 1.770e+04 7.347e-09
 32.69476   -118.0 1.674e+04 6.134e-09
 32.70817   -119.7 1.647e+04 4.991e-09
 32.72244   -126.2 1.405e+04 1.483e-09
 32.73585   -129.4 1.301e+04 8.521e-10
 32.75012   -136.8 1.008e+04 3.033e-10
 32.76354   -138.8 9.594e+03 2.641e-10
 32.77780   -140.7 9.096e+03 2.277e-10
 32.79122   -141.5 9.154e+03 2.350e-10
 32.81984   -143.3 9.280e+03 2.516e-10
 32.84668   -144.8 9.508e+03 3.216e-10
 32.87521   -146.0 9.669e+03 3.719e-10
 32.90204   -146.8 9.716e+03 4.376e-10
 32.91556   -147.2 9.829e+03 4.828e-10
 32.92962   -147.6 9.952e+03 5.481e-10
 32.94304   -147.6 9.809e+03 5.378e-10
 32.95731   -147.8 9.909e+03 5.808e-10
 32.97072   -147.9 9.738e+03 5.441e-10
 32.98499   -148.1 9.813e+03 5.619e-10
 32.99556   -148.2 9.691e+03 5.275e-10
 33.00664   -148.0 9.487e+03 4.661e-10
 33.01267   -148.1 9.489e+03 4.636e-10
 33.03960   -148.6 9.433e+03 4.407e-10
 33.06823   -148.8 9.475e+03 4.555e-10
 33.09506   -149.0 9.455e+03 4.642e-10
 33.12359   -148.8 9.602e+03 5.094e-10
 33.15042   -148.6 9.460e+03 4.836e-10
 33.17895   -148.3 9.674e+03 5.495e-10
 33.20579   -148.3 9.311e+03 4.506e-10
 33.23431   -147.9 9.648e+03 5.361e-10
 33.26115   -148.0 9.118e+03 3.894e-10
 33.28968   -147.4 9.367e+03 4.439e-10
 33.31651   -147.6 8.751e+03 3.011e-10
 33.34504   -146.9 8.900e+03 3.171e-10
 33.37187   -147.0 8.450e+03 2.267e-10
 33.40040   -146.2 8.463e+03 2.258e-10
 33.42724   -146.2 8.221e+03 1.795e-10
 33.45576   -145.0 8.229e+03 1.787e-10
 33.48260   -144.9 8.115e+03 1.632e-10
 33.51113   -143.7 8.154e+03 1.648e-10
 33.53796   -143.6 8.140e+03 1.633e-10
 33.56649   -142.7 8.420e+03 1.910e-10
 33.59332   -142.9 8.751e+03 2.436e-10
 33.62185   -142.0 9.090e+03 3.148e-10
 33.64869   -142.0 9.335e+03 3.931e-10
 33.67722   -141.1 9.495e+03 4.427e-10
 33.70405   -140.8 9.484e+03 4.425e-10
 33.73258   -139.9 9.489e+03 4.431e-10
 33.75941   -139.3 9.340e+03 3.738e-10
 33.78789   -138.2 9.230e+03 3.320e-10
 33.84156   -136.3 8.935e+03 2.310e-10
 33.87014   -135.1 8.853e+03 2.041e-10
 33.89697   -134.4 8.807e+03 1.847e-10
 33.92550   -133.3 8.817e+03 1.779e-10
 33.95234   -132.8 8.939e+03 1.878e-10
 33.98086   -132.1 9.033e+03 1.923e-10
 33.99412   -131.8 9.235e+03 2.311e-10
 34.01582   -130.8 9.254e+03 2.343e-10
 34.03623   -130.2 9.326e+03 2.456e-10
 34.06306   -129.9 9.541e+03 2.976e-10
 34.09159   -129.3 9.592e+03 3.096e-10
 34.11842   -128.9 9.793e+03 3.607e-10
 34.14695   -128.2 9.842e+03 3.743e-10
 34.17379   -127.8 1.008e+04 4.336e-10
 34.20231   -127.1 1.012e+04 4.463e-10
 34.22915   -126.8 1.040e+04 5.066e-10
 34.25768   -126.1 1.042e+04 4.862e-10
 34.28441   -125.8 1.060e+04 5.145e-10
 34.31294   -124.7 1.048e+04 4.632e-10
 34.33978   -124.1 1.052e+04 4.541e-10
 34.36830   -123.3 1.050e+04 4.145e-10
 34.39514   -122.7 1.054e+04 4.065e-10
 34.42367   -122.0 1.058e+04 3.900e-10
 34.45050   -121.5 1.067e+04 3.977e-10
 34.47903   -120.7 1.072e+04 3.993e-10
 34.50033   -119.9 1.081e+04 4.046e-10
 34.50670   -119.6 1.083e+04 4.228e-10
 34.53439   -119.1 1.085e+04 4.019e-10
 34.56133   -118.6 1.091e+04 4.040e-10
 34.58985   -117.7 1.076e+04 3.609e-10
 34.61669   -117.2 1.087e+04 3.295e-10
 34.64522   -115.9 1.056e+04 2.707e-10
 34.67205   -115.1 1.057e+04 2.194e-10
 34.70027   -113.6 1.032e+04 1.772e-10
 34.72741   -111.9 1.019e+04 1.506e-10
 34.75425   -111.4 1.024e+04 1.366e-10
 34.78278   -109.8 1.021e+04 1.268e-10
 34.80961   -109.2 1.035e+04 1.252e-10
 34.83814   -107.5 1.029e+04 1.227e-10
 34.86497   -106.8 1.040e+04 1.300e-10
 34.89350   -105.0 1.034e+04 1.224e-10
 34.92034   -104.1 1.043e+04 1.268e-10
 34.94886   -102.1 1.040e+04 1.109e-10
 34.97570   -101.0 1.048e+04 1.083e-10
 34.99797    -99.1 1.046e+04 8.834e-11
 35.00674    -99.0 1.050e+04 8.596e-11
 35.03106    -98.0 1.056e+04 8.229e-11
 35.05959    -96.1 1.057e+04 6.868e-11
 35.08642    -95.1 1.059e+04 6.751e-11
 35.11495    -93.2 1.057e+04 6.142e-11
 35.14179    -92.1 1.058e+04 6.068e-11
 35.17031    -90.2 1.057e+04 5.886e-11
 35.19715    -89.1 1.058e+04 5.797e-11
 35.22568    -87.3 1.059e+04 5.772e-11
 35.25251    -86.2 1.060e+04 5.675e-11
 35.28104    -84.5 1.058e+04 6.367e-11
 35.30787    -83.4 1.060e+04 6.401e-11
 35.33640    -81.7 1.059e+04 7.626e-11
 35.36324    -80.6 1.064e+04 7.829e-11
 35.39177    -78.9 1.062e+04 9.078e-11
 35.41860    -77.9 1.073e+04 9.428e-11
 35.44713    -76.1 1.073e+04 9.751e-11
 35.47396    -75.2 1.078e+04 1.009e-10
 35.50249    -73.5 1.076e+04 9.976e-11
 35.52933    -72.4 1.080e+04 9.550e-11
 35.55785    -70.7 1.078e+04 8.594e-11
 35.58469    -69.7 1.083e+04 7.433e-11
 35.61266    -68.3 1.083e+04 6.805e-11
 35.64005    -66.9 1.083e+04 6.625e-11
 35.66689    -66.1 1.079e+04 6.081e-11
 35.69541    -64.7 1.075e+04 6.277e-11
 35.72225    -63.8 1.071e+04 6.246e-11
 35.75078    -62.4 1.067e+04 6.571e-11
 35.77761    -61.4 1.061e+04 6.634e-11
 35.80614    -59.8 1.059e+04 6.651e-11
 35.83297    -58.8 1.054e+04 6.631e-11
 35.86150    -57.4 1.053e+04 6.352e-11
 35.88834    -56.4 1.047e+04 6.332e-11
 35.91686    -55.1 1.045e+04 6.288e-11
 35.94370    -54.1 1.035e+04 6.522e-11
 35.97223    -52.6 1.033e+04 6.597e-11
 35.99084    -51.5 1.027e+04 6.880e-11
 36.00696    -51.0 1.028e+04 8.307e-11
 36.02759    -49.5 1.028e+04 8.800e-11
 36.05442    -48.5 1.024e+04 8.974e-11
 36.08295    -46.9 1.024e+04 9.064e-11
 36.10979    -45.8 1.014e+04 9.097e-11
 36.13832    -44.2 1.014e+04 9.004e-11
 36.16515    -43.1 1.009e+04 8.563e-11
 36.19368    -41.5 1.008e+04 8.464e-11
 36.22051    -40.2 1.004e+04 7.613e-11
 36.24904    -38.6 1.003e+04 7.582e-11
 36.27588    -37.5 1.003e+04 6.397e-11
 36.30440    -35.8 1.000e+04 6.316e-11
 36.33124    -34.8 1.001e+04 5.290e-11
 36.35977    -33.1 9.966e+03 5.100e-11
 36.38660    -32.1 9.879e+03 4.757e-11
 36.41513    -30.3 9.860e+03 4.433e-11
 36.44196    -29.2 9.819e+03 4.367e-11
 36.47049    -27.4 9.843e+03 4.001e-11
 36.49733    -26.2 9.852e+03 3.956e-11
 36.52504    -24.7 9.867e+03 3.747e-11
 36.55269    -23.2 9.965e+03 3.785e-11
 36.57952    -22.2 9.962e+03 3.702e-11
 36.60805    -21.2 9.902e+03 4.698e-11
 36.63489    -20.0 9.834e+03 4.432e-11
 36.66341    -18.5 9.618e+03 6.315e-11
 36.69025    -17.0 9.788e+03 4.876e-11
 36.71878    -15.2 9.729e+03 6.092e-11
 36.74561    -14.6 9.964e+03 4.251e-11
 36.77414    -13.0 9.865e+03 4.730e-11
 36.80097    -12.6 9.780e+03 4.181e-11
 36.82950    -10.9 9.770e+03 4.194e-11
 36.85634    -10.2 9.736e+03 4.132e-11
 36.88486     -8.9 9.911e+03 3.446e-11
 36.91170     -8.0 9.701e+03 4.301e-11
 36.94023     -6.8 9.685e+03 3.709e-11
 36.96706     -5.7 9.867e+03 4.479e-11
 36.98910     -5.3 1.013e+04 4.077e-11
 37.00347     -4.5 9.939e+03 3.732e-11
 37.02243     -4.3 1.037e+04 4.995e-11
 37.05095     -5.0 1.057e+04 6.599e-11
 37.07779     -4.6 1.039e+04 1.090e-10
 37.10632     -3.2 9.867e+03 1.771e-10
 37.13315     -1.1 9.845e+03 1.914e-10
 37.16168      0.6 1.002e+04 1.558e-10
 37.18851      1.0 1.044e+04 1.015e-10
 37.21704      0.1 1.053e+04 7.546e-11
 37.24388     -0.8 1.041e+04 7.462e-11
 37.27240     -0.8 1.005e+04 8.283e-11
 37.29924      0.2 9.720e+03 1.304e-10
 37.32777      1.2 1.003e+04 1.115e-10
 37.35460      2.1 1.025e+04 1.502e-10
 37.38313      1.0 1.084e+04 1.353e-10
 37.40996      0.3 1.112e+04 1.889e-10
 37.43742     -2.5 1.174e+04 3.945e-10
 37.46523     -4.2 1.235e+04 1.087e-09
 37.47855     -5.8 1.292e+04 9.340e-10
 37.49281     -6.6 1.351e+04 1.029e-09
 37.49532     -6.7 1.344e+04 1.014e-09
 37.50682     -5.9 1.344e+04 8.768e-10
 37.52049     -9.0 1.306e+04 1.413e-09
 37.53391     -9.3 1.176e+04 1.253e-09
 37.54818     -8.7 1.184e+04 1.433e-09
 37.56159     -9.0 1.204e+04 1.122e-09
 37.57586     -9.4 1.324e+04 9.205e-10
 37.58927    -12.4 1.300e+04 7.247e-10
 37.60354    -15.2 1.185e+04 5.593e-10
 37.61696    -16.9 1.133e+04 5.648e-10
 37.63122    -17.5 1.087e+04 5.103e-10
 37.64464    -17.8 1.100e+04 6.087e-10
 37.65890    -17.8 1.083e+04 5.294e-10
 37.67232    -18.2 1.093e+04 6.229e-10
 37.68658    -18.3 1.076e+04 5.221e-10
 37.70000    -18.8 1.097e+04 6.343e-10
 37.71426    -18.8 1.078e+04 5.363e-10
 37.72768    -19.2 1.088e+04 6.054e-10
 37.74204    -19.1 1.062e+04 4.276e-10
 37.75546    -19.0 1.082e+04 5.712e-10
 37.76963    -18.6 1.073e+04 4.752e-10
 37.78304    -18.9 1.069e+04 4.733e-10
 37.79741    -18.9 1.051e+04 3.733e-10
 37.82434    -19.7 1.054e+04 3.675e-10
 37.85287    -18.9 1.009e+04 2.972e-10
 37.87970    -19.8 9.890e+03 2.776e-10
 37.90823    -18.2 9.751e+03 2.722e-10
 37.93506    -18.6 9.613e+03 2.452e-10
 37.96359    -16.7 9.565e+03 2.630e-10
 37.98756    -16.9 9.477e+03 2.170e-10
 37.99809    -16.9 9.588e+03 2.464e-10
 38.01895    -15.1 9.659e+03 2.379e-10
 38.04579    -15.6 9.361e+03 1.837e-10
 38.07432    -14.0 9.536e+03 1.939e-10
 38.10115    -14.2 9.246e+03 1.546e-10
 38.12968    -12.9 9.404e+03 2.072e-10
 38.15651    -13.2 9.359e+03 1.831e-10
 38.18504    -12.4 9.874e+03 2.745e-10
 38.21188    -14.7 1.048e+04 3.487e-10
 38.24040    -14.1 1.105e+04 6.277e-10
 38.26724    -15.5 1.143e+04 1.024e-09
 38.28141    -14.7 1.162e+04 1.145e-09
 38.29472    -15.1 1.171e+04 1.216e-09
 38.30899    -14.6 1.168e+04 1.200e-09
 38.32250    -15.3 1.161e+04 1.176e-09
 38.33629    -15.1 1.149e+04 9.683e-10
 38.35009    -14.9 1.121e+04 8.936e-10
 38.36351    -15.5 1.103e+04 7.627e-10
 38.37777    -16.1 1.081e+04 6.211e-10
 38.39119    -16.8 1.043e+04 5.321e-10
 38.40545    -16.6 1.027e+04 5.099e-10
 38.41887    -16.8 1.014e+04 4.741e-10
 38.43313    -16.5 9.971e+03 4.503e-10
 38.46006    -16.2 9.834e+03 4.402e-10
 38.48869    -15.1 9.609e+03 3.290e-10
 38.51552    -14.4 9.472e+03 3.117e-10
 38.54405    -13.7 9.329e+03 2.022e-10
 38.57089    -13.0 9.162e+03 1.891e-10
 38.59942    -12.5 8.927e+03 1.361e-10
 38.62625    -11.4 8.849e+03 1.358e-10
 38.65478    -10.6 8.740e+03 1.111e-10
 38.68161     -9.4 8.787e+03 1.171e-10
 38.71014     -8.4 8.655e+03 1.083e-10
 38.73698     -7.2 8.702e+03 1.187e-10
 38.76550     -6.0 8.613e+03 1.104e-10
 38.79234     -4.9 8.632e+03 1.278e-10
 38.82087     -3.8 8.574e+03 1.216e-10
 38.84770     -2.4 8.595e+03 1.396e-10
 38.87623     -1.4 8.621e+03 1.406e-10
 38.90306      0.1 8.650e+03 1.454e-10
 38.93159      1.0 8.730e+03 1.553e-10
 38.95843      2.4 8.673e+03 1.461e-10
 38.98024      2.8 8.932e+03 1.785e-10
 39.00019      2.9 9.009e+03 1.944e-10
 39.01379      4.1 8.962e+03 1.750e-10
 39.04232      3.4 9.447e+03 2.868e-10
 39.06915      4.1 9.536e+03 3.040e-10
 39.08332      3.5 1.013e+04 5.899e-10
 39.09664      3.5 1.012e+04 5.922e-10
 39.11090      3.5 1.015e+04 6.098e-10
 39.12432      4.3 1.062e+04 8.202e-10
 39.15294      3.5 1.072e+04 8.784e-10
 39.17988      4.4 1.116e+04 1.200e-09
 39.20840      4.1 1.055e+04 7.804e-10
 39.26207      3.2 9.735e+03 3.940e-10
 39.29060      0.1 8.923e+03 2.355e-10
 39.31744      0.4 8.886e+03 2.083e-10
 39.34596     -5.3 1.031e+04 3.230e-10
 39.37280     -9.0 1.164e+04 5.776e-10
 39.40123    -14.7 1.285e+04 1.969e-09
 39.41455    -14.9 1.310e+04 2.655e-09
 39.42881    -16.4 1.377e+04 3.222e-09
 39.44223    -16.6 1.407e+04 3.380e-09
 39.45649    -20.1 1.455e+04 3.102e-09
 39.46991    -22.7 1.450e+04 2.584e-09
 39.48418    -28.8 1.351e+04 1.971e-09
 39.49204    -32.2 1.311e+04 1.883e-09
 39.49795    -32.2 1.284e+04 1.694e-09
 39.51186    -35.5 1.242e+04 1.583e-09
 39.52527    -37.0 1.257e+04 1.773e-09
 39.53954    -39.1 1.259e+04 1.739e-09
 39.55296    -40.1 1.246e+04 1.760e-09
 39.56732    -41.8 1.232e+04 1.545e-09
 39.58074    -42.8 1.234e+04 1.751e-09
 39.59490    -44.1 1.225e+04 1.652e-09
 39.60832    -44.8 1.215e+04 1.668e-09
 39.62258    -45.7 1.218e+04 1.633e-09
 39.63600    -46.3 1.199e+04 1.655e-09
 39.65026    -47.0 1.211e+04 1.635e-09
 39.66368    -47.2 1.189e+04 1.569e-09
 39.67793    -47.8 1.205e+04 1.578e-09
 39.70477    -48.9 1.213e+04 1.553e-09
 39.73341    -50.3 1.187e+04 1.380e-09
 39.76034    -50.4 1.185e+04 1.408e-09
 39.78887    -52.3 1.139e+04 1.049e-09
 39.81570    -52.0 1.160e+04 1.223e-09
 39.84423    -53.4 1.034e+04 5.633e-10
 39.87106    -52.8 1.052e+04 6.278e-10
 39.89959    -54.2 9.488e+03 3.162e-10
 39.92643    -53.5 9.635e+03 3.562e-10
 39.95495    -54.0 9.191e+03 2.381e-10
 39.98179    -53.4 9.228e+03 2.372e-10
 39.98922    -53.3 8.856e+03 1.699e-10
 40.01281    -52.5 8.855e+03 1.713e-10
 40.03715    -52.1 8.811e+03 1.609e-10
 40.06568    -51.5 8.571e+03 1.225e-10
 40.09251    -50.9 8.496e+03 1.124e-10
 40.12090    -50.0 8.399e+03 8.860e-11
 40.17457    -48.4 8.390e+03 6.685e-11
 40.20324    -47.5 8.376e+03 5.643e-11
 40.23007    -46.8 8.446e+03 5.558e-11
 40.25860    -45.9 8.441e+03 4.938e-11
 40.28544    -45.4 8.607e+03 5.806e-11
 40.31397    -44.5 8.602e+03 5.435e-11
 40.34080    -44.2 8.615e+03 8.443e-11
 40.36933    -43.7 8.703e+03 8.465e-11
 40.39616    -44.0 9.268e+03 1.532e-10
 40.42469    -44.0 9.472e+03 2.003e-10
 40.45153    -44.4 1.021e+04 3.917e-10
 40.47996    -43.7 1.013e+04 4.140e-10
 40.49040    -44.4 1.040e+04 5.956e-10
 40.49352    -44.8 1.064e+04 7.057e-10
 40.50754    -44.7 1.070e+04 6.919e-10
 40.52096    -45.4 1.093e+04 8.344e-10
 40.53522    -45.7 1.094e+04 8.184e-10
 40.54864    -46.3 1.094e+04 8.902e-10
 40.56290    -46.6 1.084e+04 8.796e-10
 40.57632    -46.8 1.064e+04 8.773e-10
 40.59031    -46.3 1.052e+04 8.662e-10
 40.60400    -45.8 1.049e+04 8.522e-10
 40.61742    -45.3 1.036e+04 6.252e-10
 40.63168    -44.9 1.045e+04 5.532e-10
 40.64510    -45.6 1.019e+04 3.318e-10
 40.65936    -45.9 1.021e+04 2.912e-10
 40.67288    -47.3 9.612e+03 2.155e-10
 40.70150    -48.3 9.578e+03 1.915e-10
 40.72834    -49.7 9.173e+03 1.629e-10
 40.75687    -50.6 9.571e+03 2.406e-10
 40.78370    -50.9 9.844e+03 3.969e-10
 40.81223    -50.2 1.041e+04 6.655e-10
 40.83906    -50.0 1.078e+04 7.884e-10
 40.86759    -49.5 1.113e+04 9.181e-10
 40.89443    -50.3 1.116e+04 8.330e-10
 40.92295    -50.7 1.126e+04 8.168e-10
 40.94979    -52.5 1.112e+04 7.129e-10
 40.97137    -53.4 1.122e+04 7.420e-10
 40.99691    -54.3 1.089e+04 6.994e-10
 41.00515    -55.4 1.121e+04 9.316e-10
 41.03328    -55.6 1.140e+04 1.029e-09
 41.06051    -55.7 1.139e+04 1.009e-09
 41.08735    -56.1 1.128e+04 9.027e-10
 41.11588    -55.7 1.079e+04 5.487e-10
 41.14271    -56.6 1.038e+04 3.734e-10
 41.17124    -56.7 1.006e+04 2.421e-10
 41.19808    -57.1 9.987e+03 2.295e-10
 41.22660    -56.3 9.889e+03 2.010e-10
 41.25344    -56.4 1.017e+04 2.624e-10
 41.28197    -55.9 1.045e+04 2.877e-10
 41.30880    -57.2 1.133e+04 5.665e-10
 41.33733    -58.1 1.226e+04 9.191e-10
 41.35065    -59.4 1.274e+04 1.326e-09
 41.36481    -59.9 1.323e+04 1.812e-09
 41.37823    -61.0 1.349e+04 2.203e-09
 41.39250    -61.0 1.394e+04 3.025e-09
 41.40591    -61.5 1.401e+04 3.142e-09
 41.42018    -61.2 1.438e+04 3.855e-09
 41.43359    -62.1 1.413e+04 2.720e-09
 41.44786    -62.2 1.453e+04 2.649e-09
 41.46128    -66.1 1.355e+04 1.342e-09
 41.47554    -68.1 1.321e+04 1.098e-09
 41.48876    -71.7 1.192e+04 7.717e-10
 41.48908    -71.4 1.153e+04 5.732e-10
 41.50270    -71.9 1.119e+04 5.112e-10
 41.51664    -73.1 1.108e+04 5.092e-10
 41.53015    -75.2 1.126e+04 5.318e-10
 41.55878    -75.0 1.103e+04 4.668e-10
 41.58561    -75.4 1.014e+04 2.529e-10
 41.61414    -74.6 9.715e+03 1.816e-10
 41.64098    -74.8 9.304e+03 1.242e-10
 41.66950    -73.8 9.099e+03 1.109e-10
 41.69634    -72.8 9.007e+03 1.053e-10
 41.72487    -71.5 8.941e+03 1.036e-10
 41.75170    -70.5 9.008e+03 1.181e-10
 41.78023    -69.1 8.950e+03 1.246e-10
 41.80706    -68.1 9.151e+03 1.557e-10
 41.83559    -66.8 9.087e+03 1.623e-10
 41.86243    -66.0 9.285e+03 1.867e-10
 41.89096    -64.8 9.213e+03 1.911e-10
 41.91779    -64.4 9.459e+03 2.231e-10
 41.94567    -63.6 9.435e+03 2.394e-10
 41.97315    -62.9 9.497e+03 2.707e-10
 41.98101    -63.0 9.900e+03 3.752e-10
 42.00719    -62.7 1.002e+04 3.851e-10
 42.02852    -62.5 1.018e+04 4.472e-10
 42.05535    -63.0 1.084e+04 7.014e-10
 42.08388    -63.2 1.090e+04 7.677e-10
 42.11071    -63.9 1.150e+04 1.060e-09
 42.13924    -64.6 1.148e+04 1.039e-09
 42.16608    -65.8 1.170e+04 1.109e-09
 42.19460    -66.7 1.149e+04 9.505e-10
 42.22144    -68.0 1.126e+04 7.888e-10
 42.24997    -68.8 1.081e+04 5.526e-10
 42.27680    -69.8 1.061e+04 4.353e-10
 42.30533    -70.5 1.013e+04 2.670e-10
 42.33216    -71.2 1.005e+04 2.170e-10
 42.36069    -72.5 9.482e+03 1.226e-10
 42.38753    -73.6 9.384e+03 1.109e-10
 42.41605    -74.3 9.003e+03 9.780e-11
 42.44289    -75.3 9.003e+03 1.091e-10
 42.47142    -75.2 8.991e+03 1.075e-10
 42.49825    -75.9 9.135e+03 1.270e-10
 42.52678    -75.8 9.199e+03 1.326e-10
 42.55361    -76.7 9.338e+03 1.456e-10
 42.58214    -77.0 9.427e+03 1.629e-10
 42.60898    -78.4 9.528e+03 1.838e-10
 42.63750    -78.8 9.638e+03 2.274e-10
 42.66434    -80.3 9.894e+03 2.995e-10
 42.69287    -80.9 9.993e+03 3.357e-10
 42.71970    -82.3 1.034e+04 4.680e-10
 42.74823    -83.0 1.026e+04 4.288e-10
 42.77507    -84.2 1.046e+04 4.788e-10
 42.80359    -85.3 1.013e+04 3.462e-10
 42.83043    -87.1 1.011e+04 3.206e-10
 42.85805    -88.4 9.764e+03 2.478e-10
 42.88579    -89.2 9.590e+03 2.286e-10
 42.91263    -90.5 9.540e+03 2.225e-10
 42.94115    -90.7 9.462e+03 2.153e-10
 42.96510    -91.3 9.408e+03 2.002e-10
 42.98934    -91.1 9.339e+03 1.822e-10
 42.99652    -90.9 9.298e+03 1.690e-10
 43.02335    -91.8 9.335e+03 1.545e-10
 43.05188    -91.9 9.376e+03 1.500e-10
 43.07871    -93.7 9.445e+03 1.483e-10
 43.10724    -95.6 9.917e+03 1.821e-10
 43.13408    -98.0 1.036e+04 3.072e-10
 43.16260    -99.8 1.096e+04 5.724e-10
 43.18944   -101.3 1.123e+04 7.184e-10
 43.21797   -103.0 1.166e+04 9.340e-10
 43.24480   -104.6 1.157e+04 8.149e-10
 43.27333   -107.1 1.162e+04 7.308e-10
 43.30016   -108.7 1.143e+04 5.394e-10
 43.32869   -111.2 1.112e+04 3.750e-10
 43.35553   -112.1 1.108e+04 3.574e-10
 43.38405   -114.3 1.066e+04 2.911e-10
 43.41089   -114.8 1.067e+04 3.106e-10
 43.43942   -116.1 1.048e+04 2.863e-10
 43.46625   -116.3 1.050e+04 2.968e-10
 43.49478   -117.1 1.032e+04 2.457e-10
 43.52161   -117.3 1.026e+04 2.263e-10
 43.55014   -117.9 1.001e+04 1.624e-10
 43.57698   -118.2 9.921e+03 1.487e-10
 43.60551   -118.8 9.744e+03 1.195e-10
 43.63234   -118.9 9.710e+03 1.238e-10
 43.66087   -119.6 9.700e+03 1.207e-10
 43.68770   -119.6 9.766e+03 1.428e-10
 43.71623   -120.8 1.004e+04 1.989e-10
 43.74307   -120.6 1.022e+04 2.476e-10
 43.77043   -122.0 1.073e+04 4.579e-10
 43.79843   -123.6 1.124e+04 7.575e-10
 43.82526   -123.5 1.123e+04 7.538e-10
 43.85369   -124.7 1.146e+04 9.112e-10
 43.86701   -124.6 1.147e+04 9.083e-10
 43.88128   -125.8 1.150e+04 9.250e-10
 43.89469   -125.9 1.151e+04 9.235e-10
 43.90896   -127.5 1.109e+04 8.582e-10
 43.92238   -127.4 1.106e+04 8.546e-10
 43.93664   -128.3 1.050e+04 5.564e-10
 43.95006   -128.2 1.049e+04 5.517e-10
 43.96442   -129.3 1.001e+04 3.515e-10
 43.97773   -129.0 1.004e+04 3.534e-10
 43.99832   -129.6 9.971e+03 3.202e-10
 44.01988   -130.7 9.481e+03 2.139e-10
 44.04671   -130.5 9.501e+03 2.212e-10
 44.07524   -131.5 9.082e+03 1.527e-10
 44.10208   -131.1 9.088e+03 1.586e-10
 44.13060   -131.2 8.866e+03 1.243e-10
 44.15744   -130.7 8.911e+03 1.324e-10
 44.18597   -130.7 8.883e+03 1.211e-10
 44.21280   -130.3 8.992e+03 1.394e-10
 44.24133   -130.5 9.031e+03 1.421e-10
 44.26816   -130.2 9.198e+03 1.741e-10
 44.29669   -130.5 9.229e+03 1.795e-10
 44.32353   -130.3 9.372e+03 2.146e-10
 44.35206   -130.5 9.339e+03 2.025e-10
 44.37889   -130.4 9.427e+03 2.229e-10
 44.40742   -130.5 9.315e+03 1.787e-10
 44.43425   -130.4 9.376e+03 1.871e-10
 44.46278   -130.5 9.262e+03 1.398e-10
 44.48962   -130.6 9.328e+03 1.471e-10
 44.51814   -130.7 9.249e+03 1.128e-10
 44.54498   -130.9 9.322e+03 1.231e-10
 44.57351   -130.9 9.249e+03 9.857e-11
 44.60034   -131.0 9.287e+03 1.075e-10
 44.62887   -130.8 9.208e+03 8.614e-11
 44.65570   -130.7 9.210e+03 9.011e-11
 44.68281   -130.1 9.169e+03 7.436e-11
 44.71107   -129.4 9.155e+03 6.722e-11
 44.73790   -129.0 9.164e+03 6.589e-11
 44.76643   -128.2 9.185e+03 6.234e-11
 44.79326   -127.6 9.202e+03 6.164e-11
 44.82179   -126.8 9.227e+03 6.046e-11
 44.84863   -126.2 9.262e+03 6.029e-11
 44.87715   -125.4 9.259e+03 6.026e-11
 44.90399   -124.9 9.467e+03 6.012e-11
 44.93252   -124.2 9.468e+03 6.079e-11
 44.95935   -123.7 9.596e+03 6.337e-11
 44.98047   -123.0 9.594e+03 6.509e-11
 44.99035   -123.4 9.582e+03 6.575e-11
 45.01471   -122.8 9.579e+03 6.495e-11
 45.04324   -122.1 9.587e+03 6.543e-11
 45.07008   -121.5 9.572e+03 6.475e-11
 45.09860   -120.9 9.577e+03 6.483e-11
 45.12544   -120.3 9.578e+03 6.488e-11
 45.15397   -119.6 9.610e+03 6.508e-11
 45.18080   -119.1 9.722e+03 7.064e-11
 45.20933   -118.5 9.745e+03 7.130e-11
 45.23617   -118.0 9.841e+03 9.121e-11
 45.26469   -117.5 9.897e+03 9.009e-11
 45.29153   -117.1 9.994e+03 1.228e-10
 45.32006   -116.8 1.012e+04 1.272e-10
 45.34689   -116.6 1.030e+04 1.813e-10
 45.37542   -116.9 1.048e+04 2.140e-10
 45.40225   -116.9 1.068e+04 3.054e-10
 45.43078   -117.4 1.086e+04 3.811e-10
 45.45762   -117.4 1.114e+04 5.148e-10
 45.48614   -117.7 1.131e+04 5.953e-10
 45.51298   -117.8 1.162e+04 7.443e-10
 45.54151   -118.4 1.167e+04 7.495e-10
 45.59518   -119.5 1.182e+04 8.013e-10
 45.62370   -120.2 1.187e+04 8.219e-10
 45.65054   -120.6 1.192e+04 8.416e-10
 45.67907   -121.2 1.203e+04 9.180e-10
 45.70590   -121.6 1.205e+04 9.236e-10
 45.73443   -122.0 1.208e+04 9.468e-10
 45.76126   -122.3 1.190e+04 7.997e-10
 45.78979   -122.7 1.185e+04 7.557e-10
 45.81663   -122.8 1.157e+04 5.977e-10
 45.84515   -123.2 1.160e+04 5.993e-10
 45.87199   -123.6 1.151e+04 5.296e-10
 45.90052   -124.4 1.193e+04 6.656e-10
 45.92735   -125.1 1.197e+04 6.741e-10
 45.95588   -126.0 1.261e+04 1.036e-09
 45.97445   -126.9 1.250e+04 9.771e-10
 45.98945   -127.3 1.304e+04 1.318e-09
 46.01104   -127.4 1.325e+04 1.400e-09
 46.02446   -127.9 1.375e+04 1.798e-09
 46.03788   -127.9 1.326e+04 1.257e-09
 46.05215   -128.5 1.375e+04 1.663e-09
 46.06556   -128.8 1.322e+04 1.097e-09
 46.07983   -129.5 1.346e+04 1.368e-09
 46.09324   -129.9 1.296e+04 9.578e-10
 46.10751   -130.6 1.308e+04 1.203e-09
 46.12093   -130.9 1.262e+04 9.205e-10
 46.13519   -131.4 1.281e+04 1.200e-09
 46.14861   -131.5 1.243e+04 9.623e-10
 46.16287   -131.7 1.266e+04 1.238e-09
 46.17629   -131.7 1.232e+04 1.002e-09
 46.19055   -131.6 1.255e+04 1.244e-09
 46.20397   -131.6 1.222e+04 1.011e-09
 46.21823   -131.5 1.239e+04 1.190e-09
 46.23165   -131.5 1.209e+04 9.838e-10
 46.24592   -131.3 1.220e+04 1.074e-09
 46.25933   -131.2 1.191e+04 8.767e-10
 46.27360   -130.9 1.193e+04 9.050e-10
 46.28701   -130.8 1.169e+04 7.105e-10
 46.30128   -130.4 1.160e+04 6.558e-10
 46.31479   -130.9 1.145e+04 5.004e-10
 46.34342   -130.4 1.128e+04 4.570e-10
 46.37025   -130.5 1.102e+04 3.710e-10
 46.39878   -129.6 1.075e+04 3.054e-10
 46.42562   -129.6 1.054e+04 2.500e-10
 46.45391   -128.6 1.038e+04 2.137e-10
 46.48098   -127.4 1.026e+04 1.910e-10
 46.50781   -127.7 1.026e+04 1.844e-10
 46.53634   -126.4 1.019e+04 1.742e-10
 46.56318   -127.3 1.032e+04 1.901e-10
 46.59170   -126.2 1.028e+04 1.954e-10
 46.61854   -127.9 1.057e+04 3.076e-10
 46.64707   -126.8 1.056e+04 3.248e-10
 46.67390   -128.9 1.081e+04 4.695e-10
 46.70243   -128.0 1.078e+04 4.728e-10
 46.72926   -130.5 1.083e+04 5.185e-10
 46.75779   -130.0 1.079e+04 5.156e-10
 46.78463   -132.1 1.050e+04 4.635e-10
 46.81316   -131.6 1.049e+04 4.643e-10
 46.83999   -133.3 1.017e+04 3.148e-10
 46.86852   -132.9 1.044e+04 3.554e-10
 46.89535   -135.6 1.048e+04 3.222e-10
 46.92388   -136.1 1.088e+04 4.175e-10
 46.95072   -141.8 1.209e+04 5.594e-10
 46.96488   -142.3 1.193e+04 6.273e-10
 46.97261   -145.7 1.337e+04 1.258e-09
 46.98482   -146.7 1.360e+04 1.539e-09
 46.99247   -146.9 1.393e+04 1.889e-09
 47.00588   -149.5 1.542e+04 4.497e-09
 47.02015   -150.0 1.590e+04 5.056e-09
 47.03356   -152.9 1.710e+04 7.725e-09
 47.04783   -155.0 1.731e+04 7.156e-09
 47.06125   -160.0 1.755e+04 7.502e-09
 47.07551   -163.1 1.729e+04 6.732e-09
 47.08893   -169.3 1.659e+04 5.302e-09
 47.10319   -171.9 1.595e+04 4.664e-09
 47.11661   -177.9 1.481e+04 3.222e-09
 47.13087   -179.3 1.447e+04 2.974e-09
 47.14429   -183.9 1.377e+04 2.446e-09
 47.15855   -184.7 1.356e+04 2.305e-09
 47.17197   -187.8 1.320e+04 2.119e-09
 47.18623   -188.2 1.305e+04 2.005e-09
 47.19965   -190.3 1.276e+04 1.819e-09
 47.21392   -190.5 1.266e+04 1.715e-09
 47.22733   -192.3 1.235e+04 1.507e-09
 47.24160   -192.5 1.225e+04 1.414e-09
 47.25501   -194.2 1.196e+04 1.260e-09
 47.26928   -194.3 1.183e+04 1.187e-09
 47.28270   -195.6 1.157e+04 1.086e-09
 47.29696   -195.5 1.141e+04 1.007e-09
 47.31038   -196.2 1.112e+04 8.890e-10
 47.32464   -195.8 1.093e+04 7.872e-10
 47.33806   -195.9 1.062e+04 6.444e-10
 47.35232   -195.3 1.045e+04 5.562e-10
 47.36574   -195.1 1.025e+04 4.622e-10
 47.37952   -194.6 1.020e+04 4.349e-10
 47.39342   -193.8 1.018e+04 4.147e-10
 47.42035   -194.0 1.015e+04 3.803e-10
 47.44898   -192.7 1.007e+04 3.467e-10
 47.47581   -192.8 9.878e+03 2.868e-10
 47.50434   -191.0 9.796e+03 2.605e-10
 47.53118   -190.4 9.635e+03 2.161e-10
 47.55970   -188.4 9.604e+03 1.974e-10
 47.58654   -187.7 9.517e+03 1.673e-10
 47.61507   -185.7 9.533e+03 1.576e-10
 47.64190   -185.0 9.496e+03 1.410e-10
 47.67043   -183.0 9.525e+03 1.397e-10
 47.69726   -182.3 9.518e+03 1.330e-10
 47.72579   -180.5 9.603e+03 1.376e-10
 47.75263   -180.0 9.616e+03 1.368e-10
 47.78116   -178.5 9.737e+03 1.524e-10
 47.80799   -178.1 9.771e+03 1.650e-10
 47.83652   -176.6 9.841e+03 2.011e-10
 47.86335   -176.1 9.857e+03 2.240e-10
 47.89188   -174.5 9.944e+03 2.564e-10
 47.91872   -174.0 9.985e+03 2.675e-10
 47.94724   -172.5 1.005e+04 2.892e-10
 47.97117   -172.1 1.004e+04 2.871e-10
 47.98059   -172.2 9.866e+03 2.329e-10
 48.00261   -170.7 9.837e+03 2.056e-10
 48.02944   -170.4 9.853e+03 1.889e-10
 48.05797   -169.2 9.796e+03 1.599e-10
 48.08480   -169.6 9.794e+03 1.564e-10
 48.11333   -168.9 9.718e+03 1.450e-10
 48.14017   -170.2 9.908e+03 1.545e-10
 48.16869   -170.4 1.006e+04 1.822e-10
 48.19553   -173.8 1.138e+04 4.498e-10
 48.22406   -173.5 1.176e+04 6.242e-10
 48.25089   -176.8 1.266e+04 1.250e-09
 48.27868   -175.8 1.244e+04 1.221e-09
 48.30625   -174.7 1.209e+04 1.061e-09
 48.33309   -177.4 1.239e+04 1.253e-09
 48.36162   -176.0 1.188e+04 9.142e-10
 48.38845   -177.9 1.189e+04 9.191e-10
 48.41698   -176.0 1.155e+04 6.434e-10
 48.44381   -176.9 1.148e+04 6.088e-10
 48.47234   -174.9 1.130e+04 4.377e-10
 48.49918   -175.1 1.121e+04 4.172e-10
 48.52771   -173.0 1.104e+04 3.142e-10
 48.55454   -172.9 1.089e+04 3.021e-10
 48.58307   -170.7 1.069e+04 2.328e-10
 48.60990   -170.2 1.050e+04 2.246e-10
 48.63843   -168.0 1.036e+04 1.769e-10
 48.66527   -167.2 1.021e+04 1.783e-10
 48.69379   -165.0 1.012e+04 1.466e-10
 48.72063   -164.1 1.004e+04 1.529e-10
 48.74916   -162.0 9.973e+03 1.312e-10
 48.77599   -161.1 9.919e+03 1.372e-10
 48.80452   -159.1 9.851e+03 1.210e-10
 48.83135   -158.1 9.820e+03 1.243e-10
 48.85988   -156.2 9.775e+03 1.116e-10
 48.88672   -155.3 9.763e+03 1.129e-10
 48.91524   -153.7 9.738e+03 1.047e-10
 48.94208   -152.9 9.717e+03 1.057e-10
 48.96274   -151.6 9.691e+03 1.028e-10
 48.98380   -152.0 9.496e+03 9.899e-11
 48.99744   -151.1 9.413e+03 1.041e-10
 49.02597   -149.8 9.397e+03 1.096e-10
 49.05280   -148.7 9.336e+03 1.081e-10
 49.08133   -147.4 9.231e+03 1.054e-10
 49.10817   -146.3 9.138e+03 9.684e-11
 49.13669   -145.0 9.075e+03 8.536e-11
 49.16353   -144.0 9.014e+03 7.488e-11
 49.19106   -142.8 8.997e+03 6.783e-11
 49.21889   -141.7 9.012e+03 6.664e-11
 49.24573   -140.9 8.968e+03 5.990e-11
 49.27425   -140.0 9.027e+03 6.867e-11
 49.30109   -139.2 8.954e+03 6.501e-11
 49.32962   -138.1 8.912e+03 8.686e-11
 49.35645   -137.1 8.829e+03 7.955e-11
 49.38498   -135.6 8.811e+03 9.460e-11
 49.41182   -134.6 8.709e+03 7.997e-11
 49.44034   -133.1 8.688e+03 8.116e-11
 49.46718   -132.0 8.589e+03 6.673e-11
 49.49571   -130.5 8.566e+03 6.143e-11
 49.52254   -129.5 8.517e+03 5.211e-11
 49.55107   -128.2 8.534e+03 4.996e-11
 49.57790   -127.2 8.496e+03 4.489e-11
 49.60643   -126.1 8.538e+03 4.751e-11
 49.63327   -125.1 8.502e+03 4.465e-11
 49.66179   -123.9 8.424e+03 5.553e-11
 49.68863   -122.8 8.375e+03 5.326e-11
 49.71716   -121.3 8.338e+03 6.798e-11
 49.74399   -120.0 8.289e+03 6.531e-11
 49.77252   -118.3 8.305e+03 7.564e-11
 49.79935   -117.0 8.251e+03 7.114e-11
 49.82788   -115.5 8.258e+03 7.237e-11
 49.85472   -114.1 8.201e+03 6.598e-11
 49.88324   -112.7 8.228e+03 6.033e-11
 49.91008   -111.1 8.162e+03 5.396e-11
 49.93861   -109.9 8.094e+03 4.997e-11
 49.96544   -108.3 8.026e+03 4.454e-11
 49.97172   -106.7 7.887e+03 4.270e-11
 49.99642   -106.5 7.875e+03 4.509e-11
 50.02080   -104.8 7.839e+03 4.078e-11
 50.04933   -103.0 7.810e+03 3.610e-11
 50.07617   -101.3 7.829e+03 3.375e-11
 50.10344    -99.7 7.810e+03 2.869e-11
 50.13153    -98.4 7.826e+03 2.478e-11
 50.15836    -96.8 7.830e+03 2.467e-11
 50.18689    -95.6 7.830e+03 2.415e-11
 50.21373    -94.3 7.960e+03 2.617e-11
 50.24226    -93.6 8.020e+03 3.267e-11
 50.26909    -92.4 8.097e+03 4.036e-11
 50.29762    -91.4 8.074e+03 5.814e-11
 50.32445    -90.0 8.127e+03 7.155e-11
 50.35298    -88.7 8.111e+03 9.244e-11
 50.37982    -87.2 8.153e+03 1.025e-10
 50.40834    -85.8 8.132e+03 1.043e-10
 50.43518    -84.4 8.149e+03 1.059e-10
 50.46371    -83.3 8.078e+03 9.537e-11
 50.49054    -81.9 8.112e+03 9.226e-11
 50.51907    -80.9 7.962e+03 8.664e-11
 50.54590    -79.5 7.966e+03 8.517e-11
 50.57443    -78.5 7.955e+03 8.734e-11
 50.60127    -77.5 8.036e+03 8.825e-11
 50.62979    -77.6 8.309e+03 1.108e-10
 50.65663    -77.4 8.746e+03 1.777e-10
 50.68516    -76.5 9.016e+03 2.934e-10
 50.71199    -75.7 9.505e+03 4.617e-10
 50.74052    -74.5 9.380e+03 4.458e-10
 50.76735    -73.8 9.654e+03 5.486e-10
 50.79588    -73.2 9.237e+03 3.690e-10
 50.82272    -73.2 9.271e+03 3.665e-10
 50.85124    -73.4 8.845e+03 2.590e-10
 50.87808    -73.6 8.814e+03 2.567e-10
 50.90661    -73.0 8.546e+03 2.420e-10
 50.93344    -72.8 8.597e+03 2.627e-10
 50.95387    -71.9 8.603e+03 2.664e-10
 50.98052    -70.7 8.657e+03 2.791e-10
 51.01564    -69.4 8.758e+03 3.128e-10
 51.04417    -70.0 9.001e+03 3.614e-10
 51.07100    -71.6 9.812e+03 5.397e-10
 51.09953    -74.0 1.085e+04 9.177e-10
 51.11285    -76.4 1.139e+04 1.247e-09
 51.12702    -76.7 1.133e+04 1.339e-09
 51.14043    -77.7 1.167e+04 1.609e-09
 51.15470    -78.4 1.145e+04 1.473e-09
 51.16812    -79.2 1.149e+04 1.571e-09
 51.18238    -79.8 1.122e+04 1.392e-09
 51.19580    -80.4 1.106e+04 1.334e-09
 51.21006    -81.8 1.047e+04 9.154e-10
 51.22348    -83.5 1.041e+04 8.622e-10
 51.23774    -88.1 9.764e+03 6.216e-10
 51.25116    -94.8 1.017e+04 6.187e-10
 51.26542   -100.4 1.090e+04 5.926e-10
 51.27884   -109.6 1.466e+04 1.671e-09
 51.29310   -112.1 1.513e+04 2.849e-09
 51.30652   -117.6 1.696e+04 5.959e-09
 51.32079   -119.2 1.710e+04 6.738e-09
 51.33420   -124.8 1.774e+04 7.956e-09
 51.34847   -127.1 1.738e+04 7.359e-09
 51.36188   -132.6 1.686e+04 6.621e-09
 51.36897   -133.3 1.618e+04 5.821e-09
 51.37563   -135.5 1.549e+04 4.999e-09
 51.38276   -135.5 1.541e+04 4.956e-09
 51.38952   -137.6 1.458e+04 4.110e-09
 51.40383   -137.9 1.388e+04 3.738e-09
 51.41725   -140.1 1.302e+04 2.691e-09
 51.43151   -139.3 1.293e+04 2.603e-09
 51.45811   -139.8 1.186e+04 1.624e-09
 51.47158   -141.4 1.168e+04 1.513e-09
 51.47261   -140.4 1.154e+04 1.461e-09
 51.48603   -141.3 1.060e+04 9.849e-10
 51.50029   -140.3 1.056e+04 9.772e-10
 51.51371   -140.5 9.877e+03 7.105e-10
 51.52797   -139.6 9.907e+03 7.124e-10
 51.54139   -139.5 9.476e+03 5.594e-10
 51.55565   -138.5 9.522e+03 5.585e-10
 51.56907   -138.5 9.214e+03 4.627e-10
 51.58334   -137.6 9.384e+03 4.842e-10
 51.59675   -137.2 9.217e+03 4.344e-10
 51.61102   -136.7 9.307e+03 4.509e-10
 51.62453   -136.4 9.164e+03 4.127e-10
 51.63880   -135.8 9.340e+03 4.523e-10
 51.65212   -135.3 9.279e+03 4.306e-10
 51.66638   -135.0 9.314e+03 4.397e-10
 51.67989   -134.8 9.258e+03 4.184e-10
 51.69416   -134.1 9.490e+03 4.629e-10
 51.70748   -133.8 9.405e+03 4.410e-10
 51.72174   -133.7 9.421e+03 4.466e-10
 51.73526   -133.5 9.332e+03 4.206e-10
 51.74952   -132.6 9.500e+03 4.679e-10
 51.76284   -132.3 9.426e+03 4.432e-10
 51.77710   -132.2 9.439e+03 4.464e-10
 51.79062   -132.0 9.347e+03 4.194e-10
 51.80488   -131.1 9.452e+03 4.562e-10
 51.81820   -130.8 9.385e+03 4.321e-10
 51.83247   -130.6 9.401e+03 4.352e-10
 51.84598   -130.3 9.339e+03 4.152e-10
 51.87454   -129.2 9.417e+03 4.534e-10
 51.92821   -127.5 9.507e+03 4.839e-10
 51.95681   -126.4 9.611e+03 4.979e-10
 51.96461   -125.5 9.482e+03 4.694e-10
 51.98969   -125.5 9.101e+03 3.613e-10
 52.01217   -124.1 9.086e+03 3.247e-10
 52.03900   -123.3 8.996e+03 3.128e-10
 52.06753   -122.3 9.018e+03 2.700e-10
 52.09437   -121.3 8.931e+03 2.536e-10
 52.12289   -120.3 8.924e+03 2.529e-10
 52.14973   -119.1 8.850e+03 2.307e-10
 52.17826   -117.9 8.839e+03 2.420e-10
 52.20509   -116.7 8.782e+03 2.210e-10
 52.23362   -115.4 8.830e+03 2.328e-10
 52.26045   -114.2 8.776e+03 2.133e-10
 52.28898   -113.1 8.886e+03 2.232e-10
 52.31582   -111.9 8.820e+03 2.023e-10
 52.34434   -111.1 8.934e+03 2.181e-10
 52.37118   -110.0 8.874e+03 1.969e-10
 52.39971   -109.4 8.947e+03 2.335e-10
 52.42654   -108.4 8.875e+03 2.124e-10
 52.45507   -107.4 8.924e+03 2.546e-10
 52.48190   -106.5 8.933e+03 2.407e-10
 52.51043   -105.6 9.028e+03 2.475e-10
 52.53727   -105.2 9.120e+03 2.499e-10
 52.56580   -105.2 9.460e+03 2.700e-10
 52.59263   -105.4 9.797e+03 3.797e-10
 52.62116   -105.5 1.000e+04 4.426e-10
 52.64799   -105.7 1.032e+04 5.943e-10
 52.67652   -106.0 1.052e+04 6.375e-10
 52.70336   -106.4 1.077e+04 7.523e-10
 52.73188   -107.1 1.114e+04 8.549e-10
 52.75872   -107.7 1.130e+04 9.454e-10
 52.77288   -108.3 1.165e+04 1.164e-09
 52.78620   -108.6 1.168e+04 1.218e-09
 52.80014   -108.7 1.167e+04 1.306e-09
 52.81398   -108.1 1.165e+04 1.234e-09
 52.82740   -108.5 1.163e+04 1.232e-09
 52.84157   -108.6 1.169e+04 1.240e-09
 52.85498   -108.7 1.152e+04 1.135e-09
 52.86935   -107.5 1.128e+04 8.657e-10
 52.88276   -107.6 1.108e+04 7.418e-10
 52.89693   -107.7 1.113e+04 7.137e-10
 52.91035   -107.8 1.102e+04 6.451e-10
 52.92471   -106.6 1.080e+04 4.277e-10
 52.94871   -106.6 1.084e+04 3.568e-10
 52.97184   -107.3 1.086e+04 3.042e-10
 52.98017   -106.9 1.088e+04 2.003e-10
 53.00700   -107.0 1.089e+04 1.975e-10
 53.03553   -106.4 1.082e+04 1.601e-10
 53.06237   -106.2 1.095e+04 1.657e-10
 53.09089   -105.2 1.089e+04 1.583e-10
 53.11773   -105.0 1.095e+04 1.611e-10
 53.14626   -103.8 1.095e+04 1.647e-10
 53.17309   -103.4 1.103e+04 1.674e-10
 53.20162   -102.2 1.105e+04 1.798e-10
 53.22845   -102.0 1.115e+04 1.860e-10
 53.25698   -100.7 1.118e+04 2.055e-10
 53.28382   -100.6 1.122e+04 2.142e-10
 53.31234    -99.6 1.126e+04 2.309e-10
 53.33918    -99.8 1.128e+04 2.333e-10
 53.36771    -99.2 1.135e+04 2.574e-10
 53.39454    -99.7 1.137e+04 2.625e-10
 53.42307    -99.5 1.148e+04 3.434e-10
 53.44991   -100.7 1.156e+04 3.842e-10
 53.47843   -101.0 1.194e+04 5.882e-10
 53.50527   -102.8 1.216e+04 7.449e-10
 53.53380   -103.5 1.273e+04 1.066e-09
 53.56053   -105.6 1.303e+04 1.537e-09
 53.57470   -106.8 1.356e+04 1.845e-09
 53.58812   -108.0 1.355e+04 1.997e-09
 53.60238   -108.6 1.364e+04 2.117e-09
 53.61580   -109.5 1.362e+04 2.153e-09
 53.63006   -110.7 1.401e+04 2.464e-09
 53.64348   -110.9 1.358e+04 2.244e-09
 53.65774   -111.9 1.351e+04 2.122e-09
 53.67116   -112.1 1.309e+04 1.576e-09
 53.68542   -113.4 1.295e+04 1.298e-09
 53.69884   -113.9 1.257e+04 9.497e-10
 53.71253   -115.1 1.220e+04 8.300e-10
 53.72652   -115.9 1.193e+04 7.806e-10
 53.73994   -116.0 1.160e+04 6.279e-10
 53.75420   -116.2 1.155e+04 6.304e-10
 53.76762   -115.9 1.135e+04 5.266e-10
 53.78189   -115.9 1.137e+04 5.589e-10
 53.80882   -115.7 1.124e+04 5.044e-10
 53.83744   -115.4 1.123e+04 5.370e-10
 53.86428   -114.9 1.105e+04 4.820e-10
 53.89281   -114.0 1.091e+04 4.487e-10
 53.91964   -113.1 1.071e+04 4.063e-10
 53.94817   -111.9 1.054e+04 3.284e-10
 53.96134   -110.9 1.041e+04 2.932e-10
 53.98082   -110.9 1.039e+04 2.733e-10
 54.00353   -109.7 1.034e+04 2.014e-10
 54.03037   -108.7 1.026e+04 1.862e-10
 54.05889   -107.6 1.022e+04 1.436e-10
 54.08573   -106.4 1.014e+04 1.404e-10
 54.11426   -105.0 1.009e+04 1.156e-10
 54.14109   -103.7 1.006e+04 1.149e-10
 54.16962   -102.2 1.000e+04 9.636e-11
 54.19645   -100.7 1.001e+04 9.540e-11
 54.22498    -99.3 9.960e+03 8.378e-11
 54.25182    -97.9 9.969e+03 8.349e-11
 54.28035    -96.3 9.967e+03 8.330e-11
 54.30718    -95.2 1.007e+04 8.380e-11
 54.33571    -94.0 1.016e+04 9.229e-11
 54.36254    -93.1 1.028e+04 1.079e-10
 54.39107    -92.0 1.034e+04 1.448e-10
 54.41791    -91.2 1.044e+04 1.767e-10
 54.44643    -89.9 1.058e+04 2.415e-10
 54.47327    -89.5 1.069e+04 2.844e-10
 54.50180    -88.7 1.089e+04 3.723e-10
 54.52863    -88.6 1.096e+04 4.227e-10
 54.55716    -87.7 1.119e+04 5.244e-10
 54.58399    -87.7 1.116e+04 5.545e-10
 54.59816    -87.2 1.127e+04 6.268e-10
 54.62490    -86.7 1.133e+04 6.835e-10
 54.63916    -86.2 1.130e+04 6.776e-10
 54.65258    -85.9 1.120e+04 6.410e-10
 54.66684    -85.4 1.116e+04 6.177e-10
 54.68026    -85.1 1.109e+04 5.801e-10
 54.69462    -84.3 1.108e+04 5.070e-10
 54.72155    -83.8 1.101e+04 4.715e-10
 54.75008    -82.4 1.083e+04 3.533e-10
 54.77692    -81.7 1.077e+04 3.372e-10
 54.80544    -80.3 1.075e+04 2.783e-10
 54.83228    -79.5 1.077e+04 3.004e-10
 54.86081    -77.9 1.082e+04 3.020e-10
 54.88764    -77.3 1.095e+04 3.666e-10
 54.91617    -75.7 1.121e+04 4.259e-10
 54.94300    -75.5 1.139e+04 5.489e-10
 54.96297    -74.1 1.191e+04 7.738e-10
 54.97396    -74.6 1.214e+04 8.930e-10
 54.99837    -74.8 1.230e+04 1.030e-09
 55.02690    -74.1 1.304e+04 1.469e-09
 55.04021    -74.5 1.275e+04 1.316e-09
 55.05427    -74.6 1.323e+04 1.692e-09
 55.06780    -75.0 1.369e+04 2.263e-09
 55.08122    -75.4 1.368e+04 2.299e-09
 55.09548    -75.2 1.400e+04 3.002e-09
 55.10890    -75.4 1.367e+04 2.750e-09
 55.12316    -75.0 1.390e+04 2.942e-09
 55.13658    -75.1 1.345e+04 2.321e-09
 55.15084    -75.0 1.347e+04 2.290e-09
 55.16426    -75.3 1.303e+04 1.787e-09
 55.17852    -75.7 1.304e+04 1.720e-09
 55.19194    -76.0 1.268e+04 1.456e-09
 55.20621    -76.1 1.267e+04 1.457e-09
 55.21972    -76.3 1.233e+04 1.216e-09
 55.24835    -75.6 1.257e+04 1.501e-09
 55.27518    -75.5 1.213e+04 1.281e-09
 55.30371    -75.1 1.249e+04 1.564e-09
 55.33054    -74.8 1.198e+04 1.313e-09
 55.35907    -74.2 1.201e+04 1.342e-09
 55.38591    -73.7 1.148e+04 9.785e-10
 55.41443    -73.0 1.148e+04 9.681e-10
 55.44127    -72.2 1.099e+04 6.823e-10
 55.46980    -71.7 1.103e+04 7.038e-10
 55.49663    -70.7 1.068e+04 5.478e-10
 55.52407    -70.3 1.078e+04 6.140e-10
 55.55199    -69.9 1.089e+04 7.109e-10
 55.57883    -68.8 1.073e+04 6.556e-10
 55.60736    -68.3 1.084e+04 7.691e-10
 55.63419    -67.0 1.070e+04 7.161e-10
 55.66272    -66.6 1.077e+04 7.846e-10
 55.68955    -65.4 1.059e+04 6.940e-10
 55.71808    -65.0 1.060e+04 7.134e-10
 55.74492    -63.7 1.044e+04 6.382e-10
 55.77344    -63.3 1.046e+04 6.697e-10
 55.80028    -62.0 1.036e+04 6.245e-10
 55.82881    -61.6 1.041e+04 6.751e-10
 55.85564    -60.1 1.039e+04 6.604e-10
 55.88417    -59.6 1.038e+04 6.645e-10
 55.91100    -57.7 1.042e+04 6.321e-10
 55.93953    -57.3 1.030e+04 5.859e-10
 55.95806    -55.3 1.025e+04 5.426e-10
 55.97185    -55.9 1.045e+04 6.258e-10
 55.98044    -55.7 1.031e+04 5.353e-10
 55.99385    -55.0 1.029e+04 5.239e-10
 56.00812    -54.9 1.021e+04 4.816e-10
 56.02153    -53.8 1.019e+04 4.710e-10
 56.05016    -53.5 1.011e+04 4.010e-10
 56.07709    -51.4 1.009e+04 3.933e-10
 56.10562    -51.5 1.006e+04 3.554e-10
 56.13246    -49.9 1.016e+04 3.918e-10
 56.16098    -50.1 1.024e+04 4.258e-10
 56.18782    -49.2 1.076e+04 5.814e-10
 56.21635    -50.0 1.133e+04 8.253e-10
 56.24318    -49.9 1.237e+04 1.368e-09
 56.25735    -49.7 1.228e+04 1.432e-09
 56.27067    -49.7 1.260e+04 1.625e-09
 56.28493    -49.9 1.286e+04 1.968e-09
 56.29835    -50.0 1.344e+04 2.844e-09
 56.31261    -50.0 1.339e+04 2.972e-09
 56.32603    -49.9 1.391e+04 3.924e-09
 56.34029    -49.8 1.363e+04 3.544e-09
 56.35371    -49.7 1.382e+04 3.929e-09
 56.38234    -50.8 1.304e+04 2.399e-09
 56.40927    -51.5 1.299e+04 2.241e-09
 56.43645    -51.8 1.176e+04 1.088e-09
 56.46463    -52.1 1.064e+04 4.780e-10
 56.49147    -52.4 1.067e+04 5.653e-10
 56.51999    -52.1 1.004e+04 2.847e-10
 56.54683    -51.7 1.009e+04 3.070e-10
 56.57536    -51.1 9.727e+03 1.864e-10
 56.60219    -50.5 9.739e+03 1.911e-10
 56.63072    -49.5 9.559e+03 1.729e-10
 56.65755    -48.8 9.634e+03 1.807e-10
 56.68608    -48.0 9.666e+03 1.890e-10
 56.71292    -47.8 9.803e+03 2.289e-10
 56.74145    -47.5 1.005e+04 3.227e-10
 56.76828    -47.2 1.040e+04 4.843e-10
 56.79681    -46.9 1.073e+04 6.850e-10
 56.82364    -46.6 1.104e+04 8.806e-10
 56.85217    -46.8 1.112e+04 9.107e-10
 56.87901    -46.4 1.119e+04 9.395e-10
 56.90753    -46.4 1.095e+04 7.457e-10
 56.93437    -45.7 1.084e+04 6.386e-10
 56.95410    -45.6 1.049e+04 4.333e-10
 56.97068    -45.6 1.041e+04 4.228e-10
 56.98973    -44.9 1.030e+04 3.299e-10
 57.01826    -44.6 9.998e+03 2.090e-10
 57.04509    -43.9 1.004e+04 1.949e-10
 57.07362    -43.5 9.798e+03 1.384e-10
 57.10046    -42.8 9.833e+03 1.362e-10
 57.12898    -42.1 9.654e+03 1.366e-10
 57.15582    -41.0 9.711e+03 1.474e-10
 57.18435    -39.9 9.686e+03 1.491e-10
 57.21118    -38.7 9.745e+03 1.592e-10
 57.23971    -37.5 9.721e+03 1.633e-10
 57.26654    -36.3 9.803e+03 1.686e-10
 57.29507    -34.9 9.755e+03 1.789e-10
 57.34874    -32.0 9.806e+03 1.946e-10
 57.37727    -30.6 9.870e+03 2.087e-10
 57.40410    -29.0 9.882e+03 2.063e-10
 57.43263    -27.6 9.965e+03 2.085e-10
 57.45947    -26.0 1.000e+04 2.075e-10
 57.48799    -24.6 9.993e+03 2.060e-10
 57.51483    -23.2 1.023e+04 2.107e-10
 57.54336    -21.8 1.018e+04 2.004e-10
 57.57019    -20.4 1.035e+04 2.394e-10
 57.59872    -19.1 1.026e+04 2.199e-10
 57.62556    -17.6 1.040e+04 2.807e-10
 57.65408    -16.2 1.029e+04 2.372e-10
 57.68092    -14.7 1.050e+04 3.156e-10
 57.70945    -13.4 1.036e+04 2.448e-10
 57.73628    -12.0 1.060e+04 3.384e-10
 57.76481    -10.7 1.043e+04 2.481e-10
 57.79164     -9.4 1.067e+04 3.508e-10
 57.82017     -8.2 1.048e+04 2.560e-10
 57.84701     -7.0 1.071e+04 3.550e-10
 57.87553     -5.8 1.050e+04 2.772e-10
 57.90237     -4.6 1.069e+04 3.625e-10
 57.93090     -3.1 1.056e+04 3.296e-10
 57.95478     -1.9 1.072e+04 4.000e-10
 57.96308     -1.9 1.054e+04 3.332e-10
 57.98626     -0.0 1.055e+04 3.357e-10
 58.01309      1.1 1.061e+04 3.733e-10
 58.04162      2.9 1.071e+04 3.902e-10
 58.06846      3.9 1.072e+04 3.953e-10
 58.09698      5.2 1.082e+04 4.248e-10
 58.12382      6.5 1.066e+04 4.068e-10
 58.13799      6.9 1.075e+04 4.391e-10
 58.15131      7.5 1.068e+04 4.140e-10
 58.16557      8.0 1.077e+04 4.383e-10
 58.17908      8.7 1.064e+04 3.812e-10
 58.19335      8.8 1.093e+04 4.594e-10
 58.20667      9.4 1.082e+04 4.204e-10
 58.22077      9.4 1.115e+04 5.249e-10
 58.23435      9.3 1.160e+04 7.345e-10
 58.24777      9.9 1.138e+04 6.518e-10
 58.26203      9.8 1.182e+04 9.406e-10
 58.27545     10.5 1.160e+04 8.360e-10
 58.28971     10.4 1.200e+04 1.160e-09
 58.30313     11.2 1.182e+04 1.043e-09
 58.31739     11.0 1.220e+04 1.349e-09
 58.33081     11.8 1.207e+04 1.249e-09
 58.34507     11.2 1.252e+04 1.528e-09
 58.35849     11.9 1.243e+04 1.467e-09
 58.37276     10.8 1.304e+04 1.784e-09
 58.38617     11.6 1.296e+04 1.764e-09
 58.40044     10.2 1.362e+04 2.142e-09
 58.41385     11.1 1.348e+04 2.093e-09
 58.42812      9.7 1.387e+04 2.339e-09
 58.44154     10.7 1.365e+04 2.160e-09
 58.45396      9.2 1.365e+04 2.095e-09
 58.46090      9.6 1.377e+04 2.154e-09
 58.46922     10.4 1.363e+04 1.973e-09
 58.48348      9.2 1.327e+04 1.665e-09
 58.49690     10.2 1.317e+04 1.547e-09
 58.51126      8.1 1.271e+04 1.275e-09
 58.53819     10.1 1.243e+04 1.017e-09
 58.56672      9.1 1.164e+04 6.520e-10
 58.59356     11.2 1.139e+04 4.970e-10
 58.62208     11.0 1.081e+04 3.603e-10
 58.64892     12.9 1.072e+04 3.108e-10
 58.67745     13.5 1.046e+04 2.835e-10
 58.70428     15.5 1.046e+04 2.646e-10
 58.73281     16.3 1.029e+04 2.453e-10
 58.75964     18.2 1.032e+04 2.349e-10
 58.78817     19.4 1.013e+04 2.108e-10
 58.81501     21.1 1.019e+04 2.026e-10
 58.84353     22.6 9.943e+03 1.919e-10
 58.87037     24.2 1.004e+04 1.909e-10
 58.89890     25.9 9.942e+03 1.913e-10
 58.92573     27.1 1.033e+04 2.164e-10
 58.94523     28.9 1.019e+04 2.107e-10
 58.96740     29.0 1.046e+04 2.738e-10
 58.98109     30.1 1.094e+04 4.978e-10
 59.00962     32.0 1.086e+04 4.633e-10
 59.03646     33.3 1.138e+04 8.209e-10
 59.06498     35.2 1.129e+04 7.578e-10
 59.09182     36.4 1.175e+04 1.100e-09
 59.11993     38.4 1.158e+04 9.902e-10
 59.14718     40.4 1.134e+04 8.341e-10
 59.17402     41.6 1.159e+04 1.038e-09
 59.20255     43.8 1.136e+04 8.924e-10
 59.22938     45.0 1.147e+04 9.901e-10
 59.25791     47.4 1.132e+04 8.965e-10
 59.28474     48.8 1.135e+04 9.315e-10
 59.31327     51.3 1.134e+04 9.088e-10
 59.34011     52.9 1.132e+04 8.912e-10
 59.36854     54.7 1.128e+04 8.771e-10
 59.38186     55.5 1.114e+04 8.907e-10
 59.39612     56.8 1.129e+04 8.867e-10
 59.40954     57.7 1.112e+04 8.439e-10
 59.42380     58.9 1.124e+04 8.910e-10
 59.43722     59.9 1.110e+04 8.113e-10
 59.44953     61.1 1.122e+04 8.716e-10
 59.45926     61.0 1.117e+04 8.532e-10
 59.46490     62.0 1.094e+04 7.296e-10
 59.47916     63.2 1.111e+04 8.137e-10
 59.49258     64.1 1.087e+04 6.778e-10
 59.50684     65.2 1.103e+04 7.746e-10
 59.52026     66.0 1.076e+04 6.210e-10
 59.53453     67.2 1.093e+04 7.219e-10
 59.54794     68.2 1.068e+04 5.806e-10
 59.56221     69.5 1.091e+04 6.845e-10
 59.57562     70.3 1.073e+04 5.626e-10
 59.58935     71.4 1.097e+04 6.727e-10
 59.60331     72.6 1.120e+04 8.132e-10
 59.61672     73.4 1.096e+04 6.858e-10
 59.63099     74.7 1.122e+04 8.253e-10
 59.64440     75.6 1.108e+04 7.222e-10
 59.65867     76.7 1.139e+04 8.920e-10
 59.67209     77.4 1.122e+04 8.080e-10
 59.68635     78.6 1.150e+04 9.873e-10
 59.69977     79.4 1.135e+04 8.897e-10
 59.71403     80.6 1.165e+04 1.084e-09
 59.72745     81.3 1.150e+04 9.948e-10
 59.74171     82.5 1.181e+04 1.201e-09
 59.75513     83.3 1.167e+04 1.099e-09
 59.76939     84.4 1.194e+04 1.288e-09
 59.78281     85.1 1.177e+04 1.190e-09
 59.79708     86.3 1.203e+04 1.370e-09
 59.81049     87.0 1.194e+04 1.317e-09
 59.82476     88.1 1.224e+04 1.513e-09
 59.83817     88.8 1.222e+04 1.502e-09
 59.85244     89.9 1.250e+04 1.699e-09
 59.86586     90.6 1.257e+04 1.752e-09
 59.88012     91.5 1.287e+04 1.972e-09
 59.89354     92.1 1.309e+04 2.117e-09
 59.90780     92.9 1.340e+04 2.381e-09
 59.92122     93.3 1.373e+04 2.696e-09
 59.93548     94.1 1.400e+04 2.990e-09
 59.94890     94.4 1.439e+04 3.554e-09
 59.95402     95.3 1.467e+04 3.905e-09
 59.96557     95.3 1.434e+04 3.608e-09
 59.97658     95.6 1.468e+04 4.278e-09
 59.99084     96.4 1.500e+04 4.637e-09
 60.00426     96.6 1.528e+04 5.234e-09
 60.01853     97.2 1.569e+04 5.663e-09
 60.03194     97.3 1.590e+04 6.030e-09
 60.04554     97.5 1.653e+04 6.972e-09
 60.05962     97.7 1.734e+04 8.627e-09
 60.07304     97.4 1.773e+04 9.312e-09
 60.08731     97.4 1.900e+04 1.388e-08
 60.10072     97.0 1.926e+04 1.448e-08
 60.11494     97.0 2.015e+04 2.023e-08
 60.12836     96.3 1.952e+04 1.592e-08
 60.14267     95.8 1.962e+04 1.655e-08
 60.15609     94.5 1.814e+04 1.090e-08
 60.17035     93.9 1.776e+04 9.890e-09
 60.18377     93.6 1.641e+04 6.861e-09
 60.19803     93.2 1.590e+04 5.815e-09
 60.21145     93.2 1.530e+04 4.930e-09
 60.22571     93.1 1.477e+04 4.132e-09
 60.23913     93.6 1.459e+04 3.934e-09
 60.25339     93.9 1.414e+04 3.346e-09
 60.26681     94.6 1.394e+04 3.201e-09
 60.28108     95.2 1.347e+04 2.604e-09
 60.29449     96.1 1.324e+04 2.452e-09
 60.30876     96.7 1.272e+04 1.826e-09
 60.32217     97.5 1.252e+04 1.703e-09
 60.33644     98.0 1.199e+04 1.195e-09
 60.34986     98.8 1.173e+04 1.084e-09
 60.36412     99.3 1.124e+04 7.419e-10
 60.37754    100.1 1.096e+04 6.550e-10
 60.39180    100.4 1.051e+04 4.518e-10
 60.40522    101.5 1.021e+04 4.030e-10
 60.41948    101.8 9.810e+03 3.166e-10
 60.43290    102.2 9.595e+03 2.943e-10
 60.44510    103.0 9.364e+03 2.600e-10
 60.45762    104.1 1.001e+04 3.772e-10
 60.47410    105.7 9.504e+03 2.992e-10
 60.50272    107.6 9.244e+03 2.604e-10
 60.52956    109.8 9.066e+03 2.522e-10
 60.55808    111.8 8.946e+03 2.332e-10
 60.58492    114.0 8.840e+03 2.234e-10
 60.61345    115.9 8.820e+03 2.182e-10
 60.64028    117.9 8.749e+03 2.123e-10
 60.66881    119.7 8.803e+03 2.198e-10
 60.69564    121.6 8.769e+03 2.190e-10
 60.72417    123.4 8.859e+03 2.310e-10
 60.75101    125.3 8.819e+03 2.257e-10
 60.77954    127.0 8.914e+03 2.351e-10
 60.80637    128.9 8.843e+03 2.189e-10
 60.83490    130.5 8.947e+03 2.278e-10
 60.86173    132.4 8.836e+03 2.046e-10
 60.89026    133.9 8.963e+03 2.204e-10
 60.91710    135.8 8.905e+03 2.064e-10
 60.93637    137.2 9.079e+03 2.353e-10
 60.96320    139.4 9.272e+03 2.582e-10
 60.97246    140.8 9.496e+03 2.932e-10
 60.99929    142.8 9.602e+03 3.024e-10
 61.02782    143.4 9.900e+03 3.570e-10
 61.05466    145.1 9.962e+03 3.744e-10
 61.08309    144.7 1.002e+04 4.176e-10
 61.09641    146.3 9.863e+03 4.625e-10
 61.11067    146.7 1.002e+04 5.652e-10
 61.12409    147.8 1.007e+04 5.886e-10
 61.13835    148.2 1.029e+04 7.187e-10
 61.15177    149.2 1.044e+04 6.894e-10
 61.16603    149.1 1.068e+04 7.890e-10
 61.17945    150.0 1.069e+04 8.043e-10
 61.19371    149.4 1.094e+04 8.809e-10
 61.20713    150.1 1.102e+04 8.982e-10
 61.22139    149.1 1.125e+04 9.641e-10
 61.23481    149.6 1.138e+04 1.027e-09
 61.24908    148.2 1.164e+04 1.084e-09
 61.26249    148.5 1.177e+04 1.186e-09
 61.27676    146.7 1.197e+04 1.202e-09
 61.29017    146.9 1.227e+04 1.406e-09
 61.30444    144.6 1.229e+04 1.401e-09
 61.31786    144.8 1.277e+04 1.742e-09
 61.33212    142.2 1.273e+04 1.684e-09
 61.34554    142.1 1.331e+04 2.102e-09
 61.35980    139.6 1.295e+04 1.791e-09
 61.37322    139.7 1.340e+04 2.097e-09
 61.38728    137.3 1.267e+04 1.527e-09
 61.40090    134.7 1.188e+04 1.095e-09
 61.41432    134.7 1.190e+04 1.071e-09
 61.42858    131.8 1.102e+04 8.001e-10
 61.44171    131.3 1.080e+04 7.569e-10
 61.45408    130.3 1.067e+04 6.929e-10
 61.45626    128.5 1.049e+04 6.659e-10
 61.46968    128.3 1.053e+04 6.845e-10
 61.48394    127.9 1.046e+04 6.647e-10
 61.49736    128.1 1.053e+04 6.983e-10
 61.51163    128.0 1.039e+04 6.207e-10
 61.52504    128.6 1.045e+04 6.468e-10
 61.53931    128.2 1.022e+04 5.480e-10
 61.55272    129.3 1.007e+04 5.574e-10
 61.56699    128.8 9.843e+03 4.577e-10
 61.58041    129.5 9.793e+03 4.663e-10
 61.59467    128.7 9.635e+03 4.106e-10
 61.60809    129.9 9.524e+03 4.274e-10
 61.63671    129.5 9.540e+03 4.108e-10
 61.66355    131.4 9.527e+03 4.697e-10
 61.67771    130.8 9.586e+03 4.702e-10
 61.69113    132.2 9.693e+03 5.174e-10
 61.70539    131.6 9.697e+03 5.156e-10
 61.71881    133.8 9.803e+03 5.680e-10
 61.73308    133.0 9.806e+03 5.642e-10
 61.74649    135.2 9.896e+03 5.867e-10
 61.76076    134.3 9.904e+03 5.873e-10
 61.77418    136.5 9.917e+03 5.804e-10
 61.78844    135.4 9.935e+03 5.863e-10
 61.80186    137.7 9.921e+03 5.599e-10
 61.81612    136.3 9.980e+03 5.882e-10
 61.82954    138.5 9.964e+03 5.540e-10
 61.84347    136.8 1.021e+04 6.576e-10
 61.85722    134.7 1.077e+04 9.161e-10
 61.87064    136.8 1.075e+04 8.659e-10
 61.88490    134.1 1.199e+04 1.471e-09
 61.89832    136.2 1.191e+04 1.367e-09
 61.91258    132.4 1.398e+04 2.755e-09
 61.92600    133.6 1.492e+04 2.795e-09
 61.94026    128.8 1.710e+04 5.561e-09
 61.94803    130.4 1.875e+04 5.132e-09
 61.95511    124.0 2.324e+04 1.050e-08
 61.96071    124.9 2.309e+04 1.002e-08
 61.96785    119.9 2.486e+04 1.470e-08
 61.97456    120.1 2.508e+04 1.584e-08
 61.98169    116.5 2.580e+04 2.043e-08
 61.98840    115.8 2.634e+04 2.481e-08
 61.99553    111.5 2.674e+04 2.892e-08
 62.00224    111.1 2.688e+04 3.480e-08
 62.00937    107.1 2.648e+04 3.410e-08
 62.01608    106.6 2.631e+04 4.076e-08
 62.02321    103.1 2.535e+04 3.752e-08
 62.02992    102.5 2.513e+04 4.482e-08
 62.03705     99.3 2.406e+04 3.655e-08
 62.04376     98.6 2.413e+04 4.129e-08
 62.05089     95.4 2.332e+04 2.787e-08
 62.05760     93.9 2.423e+04 2.641e-08
 62.06473     91.0 2.350e+04 1.589e-08
 62.07859     84.6 2.171e+04 5.308e-09
 62.09209     78.4 2.177e+04 3.007e-09
 62.10635     73.2 1.432e+04 2.137e-09
 62.11977     68.6 1.293e+04 1.984e-09
 62.13403     68.3 1.227e+04 1.715e-09
 62.14745     66.1 1.241e+04 1.697e-09
 62.16171     66.7 1.226e+04 1.560e-09
 62.17513     64.3 1.259e+04 1.618e-09
 62.18940     64.8 1.246e+04 1.532e-09
 62.20281     62.2 1.275e+04 1.652e-09
 62.21708     62.7 1.270e+04 1.644e-09
 62.23049     60.3 1.316e+04 1.961e-09
 62.24476     61.1 1.309e+04 1.986e-09
 62.25818     59.7 1.320e+04 2.209e-09
 62.27244     60.9 1.310e+04 2.189e-09
 62.28586     60.3 1.328e+04 2.315e-09
 62.29966     61.4 1.314e+04 2.213e-09
 62.31354     62.7 1.296e+04 2.075e-09
 62.32696     62.2 1.299e+04 1.906e-09
 62.34122     63.2 1.284e+04 1.777e-09
 62.35464     62.4 1.302e+04 1.499e-09
 62.36890     63.3 1.289e+04 1.374e-09
 62.38232     62.6 1.277e+04 1.256e-09
 62.39658     63.6 1.269e+04 1.242e-09
 62.41000     62.2 1.224e+04 8.951e-10
 62.42426     63.4 1.192e+04 8.356e-10
 62.43768     63.0 1.173e+04 7.926e-10
 62.44965     64.5 1.156e+04 7.694e-10
 62.45434     62.8 1.207e+04 9.631e-10
 62.46536     62.4 1.180e+04 9.844e-10
 62.47963     64.2 1.176e+04 9.696e-10
 62.49304     63.9 1.186e+04 1.075e-09
 62.50731     65.7 1.187e+04 1.104e-09
 62.52072     65.4 1.236e+04 1.290e-09
 62.53499     67.1 1.239e+04 1.354e-09
 62.54841     66.9 1.303e+04 1.693e-09
 62.56267     68.7 1.301e+04 1.789e-09
 62.57609     68.7 1.370e+04 2.169e-09
 62.59035     70.9 1.364e+04 2.294e-09
 62.60377     70.7 1.484e+04 2.895e-09
 62.61803     73.0 1.492e+04 3.060e-09
 62.63145     70.9 1.840e+04 4.461e-09
 62.64571     72.7 1.912e+04 4.598e-09
 62.65908     69.6 2.325e+04 5.528e-09
 62.66617     70.4 2.397e+04 5.555e-09
 62.67287     67.6 2.828e+04 8.516e-09
 62.68001     68.1 2.932e+04 8.658e-09
 62.68672     64.5 2.815e+04 1.621e-08
 62.69385     64.6 2.954e+04 1.726e-08
 62.70027     63.0 2.463e+04 2.940e-08
 62.70179     64.2 2.205e+04 3.971e-08
 62.70769     64.3 2.266e+04 4.623e-08
 62.71440     63.8 2.143e+04 5.257e-08
 62.72153     63.7 2.148e+04 6.267e-08
 62.72824     63.5 1.997e+04 6.320e-08
 62.73537     63.2 2.001e+04 8.246e-08
 62.74208     63.3 1.967e+04 7.529e-08
 62.74905     63.5 1.981e+04 1.133e-07
 62.75592     63.6 2.001e+04 1.798e-07
 62.76263     64.3 2.010e+04 1.505e-07
 62.76976     64.2 2.054e+04 2.008e-07
 62.77647     64.4 2.206e+04 1.034e-07
 62.78360     63.5 2.268e+04 1.004e-07
 62.79031     62.3 2.706e+04 2.574e-08
 62.79744     60.5 2.811e+04 2.065e-08
 62.80415     57.6 3.715e+04 3.718e-09
 62.81128     55.3 3.545e+04 3.537e-09
 62.81799     47.2 2.794e+04 7.702e-10
 62.82512     45.8 2.676e+04 8.260e-10
 62.83183     37.5 1.550e+04 4.956e-10
 62.83896     37.8 1.621e+04 5.834e-10
 62.84567     35.5 1.599e+04 5.722e-10
 62.85280     35.7 1.745e+04 7.874e-10
 62.86627     34.2 1.966e+04 1.253e-09
 62.88058     35.7 2.049e+04 2.358e-09
 62.89400     33.0 2.000e+04 2.684e-09
 62.90826     34.8 2.029e+04 4.548e-09
 62.92168     33.9 1.863e+04 6.014e-09
 62.93594     36.0 1.919e+04 8.944e-09
 62.94639     35.9 1.800e+04 1.041e-08
 62.95414     36.8 1.684e+04 4.085e-09
 62.96363     38.6 1.750e+04 5.401e-09
 62.97704     38.6 1.721e+04 7.884e-09
 62.99131     40.2 1.778e+04 9.746e-09
 63.00473     40.0 1.806e+04 1.101e-08
 63.01899     41.2 1.836e+04 1.252e-08
 63.03241     40.7 1.854e+04 1.211e-08
 63.04667     41.8 1.873e+04 1.322e-08
 63.06009     40.9 1.852e+04 1.143e-08
 63.07435     41.8 1.861e+04 1.199e-08
 63.08777     41.1 1.775e+04 8.784e-09
 63.10203     41.9 1.781e+04 8.959e-09
 63.11545     41.2 1.644e+04 5.281e-09
 63.12971     41.6 1.654e+04 5.333e-09
 63.14313     40.6 1.507e+04 3.092e-09
 63.15740     40.6 1.537e+04 3.347e-09
 63.17081     39.6 1.434e+04 2.218e-09
 63.18508     39.4 1.489e+04 2.816e-09
 63.19849     38.5 1.416e+04 2.201e-09
 63.21204     38.2 1.499e+04 3.190e-09
 63.22618     38.0 1.586e+04 4.542e-09
 63.23959     37.5 1.535e+04 3.974e-09
 63.25386     37.1 1.599e+04 5.079e-09
 63.26727     36.7 1.567e+04 4.770e-09
 63.28149     36.5 1.605e+04 5.429e-09
 63.29491     35.9 1.582e+04 5.129e-09
 63.30917     35.5 1.623e+04 5.811e-09
 63.31583     35.5 1.597e+04 5.413e-09
 63.32296     35.0 1.632e+04 5.926e-09
 63.32967     35.0 1.608e+04 5.498e-09
 63.33680     34.5 1.645e+04 5.940e-09
 63.34351     34.4 1.618e+04 5.435e-09
 63.35064     33.8 1.650e+04 5.590e-09
 63.35735     33.7 1.611e+04 5.074e-09
 63.36453     32.6 1.626e+04 4.927e-09
 63.37800     32.6 1.572e+04 4.294e-09
 63.39226     31.0 1.564e+04 3.864e-09
 63.40568     31.1 1.519e+04 3.435e-09
 63.41995     29.0 1.471e+04 2.636e-09
 63.43336     29.2 1.431e+04 2.415e-09
 63.44521     26.8 1.360e+04 1.816e-09
 63.45270     28.2 1.582e+04 3.996e-09
 63.46104     28.4 1.535e+04 3.655e-09
 63.47531     26.1 1.447e+04 2.583e-09
 63.48873     26.4 1.417e+04 2.510e-09
 63.50299     24.4 1.331e+04 1.880e-09
 63.51641     24.8 1.337e+04 1.983e-09
 63.53067     23.3 1.263e+04 1.522e-09
 63.54409     23.7 1.281e+04 1.657e-09
 63.55835     22.6 1.202e+04 1.223e-09
 63.57177     22.7 1.220e+04 1.335e-09
 63.58603     21.3 1.178e+04 1.058e-09
 63.59945     21.1 1.218e+04 1.266e-09
 63.61371     19.0 1.235e+04 1.321e-09
 63.62713     18.2 1.281e+04 1.640e-09
 63.64140     14.5 1.371e+04 2.235e-09
 63.66823     11.1 1.581e+04 5.434e-09
 63.68249      9.5 1.736e+04 1.004e-08
 63.69591      9.3 1.753e+04 1.011e-08
 63.71018      7.3 1.867e+04 1.139e-08
 63.72359      5.9 1.860e+04 9.704e-09
 63.73786      2.1 1.876e+04 8.582e-09
 63.75127      0.1 1.838e+04 7.359e-09
 63.76554     -4.7 1.742e+04 5.242e-09
 63.77896     -5.9 1.679e+04 4.958e-09
 63.79322     -9.6 1.520e+04 3.837e-09
 63.80664     -9.7 1.505e+04 3.918e-09
 63.82090    -11.4 1.410e+04 3.282e-09
 63.83432    -11.2 1.418e+04 3.425e-09
 63.84858    -11.5 1.361e+04 2.873e-09
 63.86200    -11.3 1.375e+04 3.130e-09
 63.87626    -11.3 1.334e+04 2.402e-09
 63.88968    -11.2 1.353e+04 2.757e-09
 63.90395    -11.3 1.317e+04 1.802e-09
 63.91736    -11.2 1.342e+04 2.233e-09
 63.93163    -11.6 1.324e+04 1.309e-09
 63.94475    -11.4 1.343e+04 1.669e-09
 63.96322    -13.8 1.284e+04 5.492e-10
 63.98718    -17.7 1.030e+04 3.070e-10
 64.01402    -17.4 1.138e+04 3.945e-10
 64.04255    -20.0 1.002e+04 3.620e-10
 64.05587    -19.5 1.069e+04 4.101e-10
 64.07003    -20.6 1.012e+04 3.861e-10
 64.08345    -21.2 1.027e+04 4.203e-10
 64.09759    -21.7 1.008e+04 3.945e-10
 64.11113    -21.8 1.007e+04 3.804e-10
 64.12455    -22.5 1.014e+04 3.805e-10
 64.13881    -22.4 1.019e+04 3.567e-10
 64.15223    -23.2 1.022e+04 3.349e-10
 64.16649    -23.3 1.028e+04 3.257e-10
 64.17991    -24.0 1.029e+04 3.112e-10
 64.19418    -23.6 1.025e+04 3.010e-10
 64.20759    -24.2 1.024e+04 2.957e-10
 64.22186    -24.0 1.028e+04 2.994e-10
 64.23527    -24.8 1.029e+04 2.990e-10
 64.24954    -24.2 1.032e+04 3.015e-10
 64.26296    -24.6 1.036e+04 3.085e-10
 64.27722    -24.4 1.042e+04 3.140e-10
 64.29074    -25.1 1.049e+04 3.353e-10
 64.30500    -24.8 1.055e+04 3.459e-10
 64.31832    -25.0 1.056e+04 3.575e-10
 64.33258    -25.0 1.070e+04 4.000e-10
 64.34600    -25.2 1.069e+04 4.066e-10
 64.36026    -25.2 1.094e+04 4.803e-10
 64.37368    -25.2 1.092e+04 4.805e-10
 64.38795    -25.4 1.120e+04 5.935e-10
 64.40136    -25.3 1.114e+04 5.668e-10
 64.41563    -25.5 1.149e+04 7.052e-10
 64.42904    -25.3 1.139e+04 6.579e-10
 64.44078    -25.6 1.175e+04 8.049e-10
 64.45106    -26.0 1.203e+04 9.697e-10
 64.45673    -25.8 1.184e+04 8.792e-10
 64.47099    -26.1 1.217e+04 1.050e-09
 64.48441    -25.7 1.195e+04 9.477e-10
 64.49867    -25.9 1.214e+04 1.068e-09
 64.51209    -25.4 1.195e+04 9.648e-10
 64.52635    -25.5 1.197e+04 9.848e-10
 64.53977    -24.9 1.179e+04 8.748e-10
 64.55378    -25.0 1.174e+04 8.601e-10
 64.56745    -25.1 1.160e+04 7.915e-10
 64.58087    -24.4 1.143e+04 6.908e-10
 64.59513    -24.7 1.132e+04 6.070e-10
 64.60855    -24.0 1.114e+04 5.358e-10
 64.62281    -24.4 1.120e+04 5.267e-10
 64.63623    -23.5 1.101e+04 4.737e-10
 64.65050    -24.0 1.120e+04 5.023e-10
 64.66391    -23.0 1.102e+04 4.616e-10
 64.67818    -23.9 1.159e+04 5.698e-10
 64.69159    -22.7 1.131e+04 5.227e-10
 64.70586    -24.0 1.230e+04 7.893e-10
 64.71928    -22.5 1.192e+04 6.873e-10
 64.73354    -23.7 1.289e+04 1.176e-09
 64.74696    -22.3 1.254e+04 9.724e-10
 64.76122    -23.2 1.323e+04 1.673e-09
 64.77464    -21.9 1.296e+04 1.359e-09
 64.78890    -22.5 1.337e+04 2.144e-09
 64.80232    -21.4 1.319e+04 1.792e-09
 64.81658    -21.7 1.332e+04 2.411e-09
 64.83000    -20.7 1.330e+04 2.197e-09
 64.84426    -20.8 1.321e+04 2.394e-09
 64.85768    -19.9 1.323e+04 2.352e-09
 64.87195    -19.7 1.310e+04 2.281e-09
 64.88536    -18.8 1.312e+04 2.259e-09
 64.89963    -18.5 1.279e+04 2.010e-09
 64.91304    -17.6 1.284e+04 2.031e-09
 64.92731    -17.3 1.228e+04 1.558e-09
 64.94073    -16.3 1.231e+04 1.605e-09
 64.94527    -16.0 1.167e+04 1.121e-09
 64.95737    -16.2 1.163e+04 1.024e-09
 64.96841    -15.1 1.164e+04 1.116e-09
 64.98267    -15.0 1.104e+04 7.033e-10
 64.99609    -13.8 1.104e+04 7.702e-10
 65.00997    -13.8 1.056e+04 4.997e-10
 65.02377    -13.7 1.021e+04 3.626e-10
 65.03719    -12.4 1.022e+04 3.856e-10
 65.05145    -11.9 9.906e+03 3.146e-10
 65.06487    -10.8 9.899e+03 3.151e-10
 65.07913    -10.4 9.848e+03 3.108e-10
 65.09255     -9.1 9.876e+03 3.171e-10
 65.10681     -8.3 9.799e+03 3.187e-10
 65.12023     -7.4 9.796e+03 3.261e-10
 65.13450     -7.1 9.831e+03 3.383e-10
 65.14801     -5.8 9.879e+03 3.516e-10
 65.17664     -4.3 1.029e+04 4.432e-10
 65.20337     -2.8 1.004e+04 4.079e-10
 65.21754     -2.4 1.022e+04 4.796e-10
 65.23096     -1.8 1.027e+04 4.908e-10
 65.24522     -1.6 1.068e+04 6.340e-10
 65.25864     -1.3 1.069e+04 6.572e-10
 65.27290     -1.5 1.110e+04 8.880e-10
 65.28632     -0.9 1.111e+04 8.981e-10
 65.30058     -1.0 1.156e+04 1.224e-09
 65.31400     -0.4 1.154e+04 1.139e-09
 65.32826     -0.6 1.220e+04 1.510e-09
 65.34168     -0.2 1.190e+04 1.278e-09
 65.35595     -1.1 1.296e+04 1.704e-09
 65.36936     -0.9 1.236e+04 1.382e-09
 65.38363     -3.1 1.354e+04 1.985e-09
 65.39704     -3.6 1.305e+04 1.737e-09
 65.41131     -6.2 1.412e+04 2.956e-09
 65.42473     -6.0 1.362e+04 2.663e-09
 65.43634     -6.2 1.434e+04 4.477e-09
 65.44942     -5.5 1.496e+04 5.372e-09
 65.45241     -4.6 1.430e+04 4.622e-09
 65.46617     -4.5 1.446e+04 5.334e-09
 65.48009     -4.3 1.427e+04 5.024e-09
 65.49351     -2.6 1.352e+04 3.754e-09
 65.50777     -2.3 1.309e+04 2.912e-09
 65.52119     -1.2 1.248e+04 2.023e-09
 65.53545     -1.7 1.215e+04 1.377e-09
 65.54887     -1.2 1.147e+04 9.325e-10
 65.56313     -2.6 1.099e+04 6.494e-10
 65.57655     -2.1 1.035e+04 4.803e-10
 65.59081     -3.0 9.889e+03 4.200e-10
 65.60423     -2.0 9.585e+03 3.467e-10
 65.61850     -2.0 9.550e+03 3.496e-10
 65.63191     -0.8 9.378e+03 3.048e-10
 65.64618     -0.7 9.401e+03 3.220e-10
 65.67311      1.0 9.226e+03 2.862e-10
 65.70164      2.2 9.232e+03 3.153e-10
 65.72847      4.2 9.171e+03 3.002e-10
 65.75700      5.3 9.260e+03 3.514e-10
 65.78383      7.6 9.170e+03 3.237e-10
 65.81236      8.5 9.270e+03 3.666e-10
 65.82568     10.4 9.111e+03 3.280e-10
 65.83995     10.1 9.303e+03 3.849e-10
 65.85336     11.4 9.144e+03 3.452e-10
 65.86763     10.9 9.629e+03 4.674e-10
 65.89456     12.7 9.506e+03 4.193e-10
 65.92319     12.3 1.059e+04 8.227e-10
 65.94166     15.9 9.461e+03 4.907e-10
 65.95445     15.8 1.035e+04 8.448e-10
 65.96419     15.4 1.049e+04 9.197e-10
 65.97751     16.2 1.030e+04 8.393e-10
 65.99177     16.3 1.027e+04 8.143e-10
 66.00519     18.5 9.866e+03 6.094e-10
 66.01945     18.1 9.926e+03 6.296e-10
 66.03287     19.0 9.709e+03 5.745e-10
 66.04713     19.1 9.642e+03 5.522e-10
 66.06055     20.7 9.454e+03 4.858e-10
 66.07481     20.6 9.403e+03 4.572e-10
 66.08823     21.7 9.226e+03 4.272e-10
 66.10250     21.5 9.147e+03 4.019e-10
 66.11591     23.1 9.308e+03 4.201e-10
 66.13018     22.9 9.181e+03 4.006e-10
 66.14359     24.0 9.310e+03 4.183e-10
 66.15786     23.8 9.297e+03 4.209e-10
 66.17128     24.8 9.709e+03 5.079e-10
 66.18554     24.6 9.690e+03 5.225e-10
 66.19896     25.1 1.009e+04 6.476e-10
 66.21322     25.0 1.017e+04 7.069e-10
 66.22664     26.8 1.072e+04 9.832e-10
 66.24090     27.1 1.073e+04 1.025e-09
 66.25432     27.4 1.111e+04 1.146e-09
 66.26858     27.4 1.111e+04 1.145e-09
 66.28200     27.9 1.180e+04 1.591e-09
 66.29627     28.0 1.165e+04 1.458e-09
 66.30968     28.8 1.224e+04 1.874e-09
 66.32395     28.9 1.198e+04 1.639e-09
 66.33736     30.4 1.255e+04 2.223e-09
 66.35163     30.4 1.213e+04 1.676e-09
 66.37846     30.6 1.224e+04 1.586e-09
 66.39273     29.7 1.165e+04 1.241e-09
 66.40614     30.3 1.231e+04 1.544e-09
 66.42041     29.4 1.192e+04 1.451e-09
 66.43352     29.8 1.265e+04 1.899e-09
 66.44533     29.7 1.212e+04 1.528e-09
 66.44809     28.7 1.228e+04 1.618e-09
 66.46151     29.2 1.297e+04 2.138e-09
 66.47577     28.2 1.329e+04 2.418e-09
 66.48919     29.2 1.370e+04 3.041e-09
 66.50345     28.8 1.397e+04 3.351e-09
 66.51687     30.2 1.429e+04 3.928e-09
 66.53113     29.8 1.442e+04 3.886e-09
 66.54455     31.2 1.459e+04 4.244e-09
 66.55881     30.5 1.456e+04 3.799e-09
 66.57223     31.8 1.464e+04 3.815e-09
 66.58650     30.5 1.434e+04 3.117e-09
 66.59991     31.7 1.429e+04 2.996e-09
 66.61418     29.9 1.408e+04 2.655e-09
 66.62759     31.4 1.390e+04 2.455e-09
 66.64186     28.7 1.459e+04 2.749e-09
 66.65528     30.4 1.445e+04 2.494e-09
 66.66954     26.1 1.615e+04 3.962e-09
 66.68296     27.2 1.682e+04 3.749e-09
 66.69722     24.7 1.591e+04 5.719e-09
 66.71064     25.5 1.671e+04 6.403e-09
 66.72490     25.6 1.616e+04 8.734e-09
 66.73832     26.2 1.686e+04 1.107e-08
 66.75258     26.2 1.712e+04 1.272e-08
 66.76600     26.9 1.758e+04 1.575e-08
 66.78027     26.8 1.753e+04 1.467e-08
 66.79368     27.7 1.801e+04 1.814e-08
 66.80791     27.5 1.759e+04 1.392e-08
 66.83474     27.8 1.697e+04 8.954e-09
 66.84905     26.3 1.538e+04 4.078e-09
 66.86246     27.3 1.597e+04 4.735e-09
 66.87673     25.5 1.379e+04 2.225e-09
 66.89014     26.1 1.438e+04 2.545e-09
 66.90441     24.8 1.215e+04 1.388e-09
 66.91783     25.3 1.266e+04 1.617e-09
 66.93209     25.0 1.163e+04 1.190e-09
 66.93983     25.6 1.188e+04 1.389e-09
 66.95419     24.4 1.039e+04 6.692e-10
 66.97338     25.7 1.103e+04 1.050e-09
 67.00191     26.6 1.035e+04 6.281e-10
 67.02875     27.7 1.107e+04 9.080e-10
 67.04291     27.3 1.079e+04 6.523e-10
 67.05623     27.6 1.105e+04 7.653e-10
 67.07050     27.7 1.109e+04 7.583e-10
 67.08391     27.9 1.140e+04 8.861e-10
 67.11254     28.5 1.120e+04 1.179e-09
 67.13947     29.3 1.165e+04 1.489e-09
 67.16800     31.3 1.115e+04 1.100e-09
 67.19483     31.6 1.144e+04 1.122e-09
 67.22336     31.7 1.101e+04 7.212e-10
 67.25020     31.0 1.102e+04 7.047e-10
 67.27771     30.9 1.033e+04 5.712e-10
 67.30556     31.8 9.920e+03 4.582e-10
 67.33239     31.6 9.881e+03 4.650e-10
 67.36092     32.6 9.607e+03 3.532e-10
 67.38776     32.5 9.519e+03 3.436e-10
 67.41629     33.5 9.165e+03 2.438e-10
 67.44312     33.8 9.081e+03 2.182e-10
 67.47165     34.5 8.905e+03 1.487e-10
 67.49848     34.5 8.868e+03 1.340e-10
 67.52701     35.0 8.735e+03 1.100e-10
 67.55385     35.3 8.622e+03 1.133e-10
 67.58237     36.4 8.562e+03 1.040e-10
 67.60921     37.1 8.501e+03 1.075e-10
 67.63774     38.2 8.525e+03 9.630e-11
 67.66457     39.0 8.530e+03 9.440e-11
 67.69310     40.0 8.544e+03 9.517e-11
 67.71993     40.7 8.622e+03 8.972e-11
 67.74846     41.7 8.682e+03 1.011e-10
 67.77530     42.4 8.734e+03 1.016e-10
 67.80382     43.6 8.832e+03 1.228e-10
 67.83066     44.4 9.005e+03 1.289e-10
 67.85919     45.7 9.171e+03 1.558e-10
 67.88602     46.6 9.347e+03 1.595e-10
 67.91455     48.0 9.446e+03 1.864e-10
 67.93839     49.0 9.434e+03 1.779e-10
 67.94558     50.1 9.440e+03 2.054e-10
 67.96991     51.6 9.571e+03 2.169e-10
 67.99675     52.7 9.560e+03 1.837e-10
 68.02527     54.1 9.646e+03 1.965e-10
 68.05211     55.0 9.628e+03 1.441e-10
 68.08064     56.5 9.738e+03 1.745e-10
 68.10747     57.2 9.724e+03 1.248e-10
 68.13600     58.9 9.878e+03 1.690e-10
 68.16283     59.6 9.807e+03 1.268e-10
 68.19009     61.4 9.961e+03 1.818e-10
 68.21820     63.0 1.023e+04 2.971e-10
 68.24503     63.8 1.004e+04 2.274e-10
 68.27356     65.3 1.040e+04 4.020e-10
 68.30039     66.4 1.020e+04 3.266e-10
 68.32892     68.2 1.072e+04 5.675e-10
 68.35576     69.5 1.048e+04 4.390e-10
 68.38429     71.1 1.085e+04 5.588e-10
 68.41112     72.4 1.058e+04 4.121e-10
 68.43965     73.5 1.061e+04 4.060e-10
 68.46648     74.9 1.040e+04 3.278e-10
 68.49501     76.1 1.033e+04 2.942e-10
 68.52185     77.8 1.032e+04 2.945e-10
 68.55037     79.1 1.018e+04 2.171e-10
 68.57721     80.8 1.026e+04 2.408e-10
 68.60574     81.8 1.012e+04 1.663e-10
 68.63257     83.4 1.028e+04 2.145e-10
 68.66110     84.4 1.001e+04 1.617e-10
 68.68793     85.9 1.024e+04 2.159e-10
 68.71646     87.0 9.975e+03 1.811e-10
 68.74330     88.2 1.022e+04 2.282e-10
 68.77182     89.6 9.978e+03 1.958e-10
 68.79866     90.5 1.015e+04 2.372e-10
 68.82719     92.0 9.948e+03 2.041e-10
 68.85402     92.7 1.004e+04 2.492e-10
 68.88255     94.5 9.902e+03 2.231e-10
 68.90938     95.3 9.973e+03 2.863e-10
 68.92773     97.2 9.899e+03 2.737e-10
 68.95101     98.0 9.827e+03 2.321e-10
 68.96475     98.9 9.926e+03 3.233e-10
 68.99328    101.0 9.990e+03 3.497e-10
 69.02011    102.0 1.006e+04 4.455e-10
 69.04864    104.1 1.014e+04 4.758e-10
 69.10231    107.0 1.013e+04 4.762e-10
 69.13084    108.9 1.014e+04 4.616e-10
 69.15767    109.8 9.865e+03 4.049e-10
 69.18620    111.6 9.782e+03 3.633e-10
 69.21303    112.8 9.366e+03 2.506e-10
 69.24156    114.5 9.274e+03 2.196e-10
 69.26840    115.7 8.861e+03 1.325e-10
 69.29692    117.4 8.851e+03 1.313e-10
 69.32376    118.7 8.518e+03 7.979e-11
 69.35229    120.5 8.531e+03 8.519e-11
 69.37912    121.9 8.254e+03 6.297e-11
 69.40765    123.7 8.336e+03 7.527e-11
 69.43448    125.4 8.184e+03 6.805e-11
 69.46301    127.1 8.297e+03 8.584e-11
 69.48985    129.0 8.215e+03 8.160e-11
 69.51837    130.6 8.376e+03 1.081e-10
 69.54521    132.5 8.309e+03 1.004e-10
 69.57374    134.0 8.751e+03 1.566e-10
 69.60057    135.8 8.631e+03 1.374e-10
 69.62910    136.8 9.221e+03 2.326e-10
 69.65593    138.7 9.037e+03 1.975e-10
 69.68446    139.1 9.548e+03 3.101e-10
 69.71130    141.2 9.390e+03 2.771e-10
 69.72546    141.1 9.674e+03 3.492e-10
 69.73878    141.8 9.564e+03 3.246e-10
 69.75305    142.1 9.917e+03 4.199e-10
 69.76656    143.5 9.733e+03 3.713e-10
 69.78083    143.2 1.021e+04 5.333e-10
 69.79415    144.0 1.012e+04 4.980e-10
 69.80841    144.1 1.055e+04 7.089e-10
 69.82183    145.4 1.047e+04 6.637e-10
 69.83609    145.3 1.088e+04 8.779e-10
 69.84951    146.6 1.082e+04 8.487e-10
 69.86377    146.4 1.110e+04 9.286e-10
 69.87719    147.6 1.104e+04 9.209e-10
 69.89145    147.2 1.105e+04 8.871e-10
 69.90487    148.6 1.099e+04 8.774e-10
 69.91913    148.2 1.094e+04 7.743e-10
 69.93255    149.5 1.088e+04 7.743e-10
 69.93662    149.7 1.043e+04 5.183e-10
 69.94927    149.8 1.089e+04 7.191e-10
 69.96023    151.0 1.089e+04 7.362e-10
 69.97441    150.5 1.058e+04 5.708e-10
 70.01476    152.6 1.027e+04 4.407e-10
 70.04347    151.9 9.482e+03 2.551e-10
 70.07031    154.4 9.577e+03 2.763e-10
 70.09884    153.6 8.948e+03 1.852e-10
 70.12567    156.2 9.016e+03 2.094e-10
 70.15420    155.6 8.960e+03 1.800e-10
 70.18103    158.1 8.992e+03 2.020e-10
 70.20956    157.6 9.041e+03 1.990e-10
 70.23640    160.1 9.063e+03 2.180e-10
 70.26492    159.3 9.120e+03 2.180e-10
 70.29176    161.8 9.147e+03 2.337e-10
 70.32029    160.7 9.255e+03 2.388e-10
 70.34712    163.1 9.295e+03 2.549e-10
 70.37565    161.8 9.439e+03 2.810e-10
 70.40248    164.0 9.560e+03 3.064e-10
 70.43101    162.4 9.836e+03 3.658e-10
 70.45785    164.2 1.004e+04 4.032e-10
 70.48637    162.0 1.018e+04 4.367e-10
 70.51311    162.4 1.016e+04 4.660e-10
 70.52728    161.0 1.018e+04 4.556e-10
 70.54070    162.0 1.021e+04 4.948e-10
 70.55496    160.9 1.018e+04 4.698e-10
 70.56838    161.8 1.025e+04 5.167e-10
 70.59700    160.9 1.004e+04 4.313e-10
 70.62393    162.3 1.033e+04 5.497e-10
 70.65246    160.8 9.756e+03 3.594e-10
 70.67930    161.8 1.008e+04 4.567e-10
 70.70783    160.3 9.319e+03 2.738e-10
 70.73466    160.9 9.443e+03 3.119e-10
 70.76319    160.1 8.971e+03 2.339e-10
 70.79002    160.7 9.067e+03 2.697e-10
 70.81855    160.7 8.919e+03 2.430e-10
 70.84539    161.6 9.031e+03 2.841e-10
 70.87357    162.2 8.964e+03 2.677e-10
 70.90075    163.0 8.972e+03 2.569e-10
 70.91920    164.1 9.197e+03 3.202e-10
 70.94570    164.0 9.132e+03 2.894e-10
 70.95611    164.9 9.183e+03 2.786e-10
 70.98295    166.0 9.519e+03 3.724e-10
 71.01147    166.7 9.556e+03 3.547e-10
 71.03831    167.3 9.806e+03 4.391e-10
 71.06684    168.2 9.772e+03 3.900e-10
 71.08016    168.4 9.881e+03 4.378e-10
 71.09432    168.5 9.856e+03 4.136e-10
 71.10774    169.2 9.962e+03 4.495e-10
 71.12200    169.6 9.911e+03 4.203e-10
 71.13542    170.2 1.007e+04 4.665e-10
 71.14968    170.5 9.985e+03 4.552e-10
 71.16310    171.0 1.019e+04 5.176e-10
 71.17746    170.9 1.023e+04 5.411e-10
 71.19088    171.3 1.050e+04 6.435e-10
 71.20505    171.3 1.051e+04 6.550e-10
 71.21847    171.8 1.084e+04 7.877e-10
 71.23283    171.3 1.100e+04 8.785e-10
 71.25976    172.1 1.166e+04 1.236e-09
 71.28829    171.2 1.176e+04 1.271e-09
 71.31512    171.7 1.221e+04 1.543e-09
 71.34365    171.0 1.161e+04 1.054e-09
 71.37048    171.4 1.163e+04 1.016e-09
 71.39901    170.9 1.081e+04 5.676e-10
 71.42585    171.4 1.081e+04 5.729e-10
 71.45438    171.4 1.027e+04 4.048e-10
 71.48121    172.3 1.042e+04 4.846e-10
 71.50974    173.1 1.035e+04 4.766e-10
 71.53657    174.4 1.051e+04 5.484e-10
 71.56510    175.6 1.059e+04 5.827e-10
 71.59194    176.8 1.066e+04 6.035e-10
 71.62046    177.8 1.086e+04 6.756e-10
 71.64730    178.9 1.085e+04 6.662e-10
 71.67583    179.8 1.103e+04 7.319e-10
 71.70266    180.9 1.090e+04 6.686e-10
 71.73119    181.7 1.104e+04 6.884e-10
 71.75802    182.9 1.080e+04 6.019e-10
 71.78595    183.5 1.091e+04 6.021e-10
 71.81339    184.2 1.093e+04 5.893e-10
 71.84022    185.4 1.077e+04 5.287e-10
 71.86875    186.2 1.079e+04 5.028e-10
 71.89558    187.5 1.065e+04 4.583e-10
 71.92411    188.4 1.056e+04 4.049e-10
 71.93183    189.9 1.044e+04 3.731e-10
 71.95468    189.4 1.045e+04 4.068e-10
 71.97947    190.7 1.025e+04 3.486e-10
 72.00631    192.3 1.017e+04 3.183e-10
 72.03484    193.8 9.992e+03 2.805e-10
 72.06167    195.4 9.972e+03 2.682e-10
 72.09020    197.0 9.849e+03 2.452e-10
 72.11703    198.6 9.852e+03 2.388e-10
 72.14556    200.3 9.763e+03 2.225e-10
 72.17240    202.0 9.759e+03 2.153e-10
 72.20092    203.8 9.668e+03 2.013e-10
 72.22776    205.4 9.665e+03 1.932e-10
 72.25629    207.3 9.580e+03 1.804e-10
 72.28312    208.9 9.598e+03 1.747e-10
 72.31165    210.9 9.523e+03 1.642e-10
 72.33848    212.5 9.577e+03 1.644e-10
 72.36701    214.5 9.513e+03 1.556e-10
 72.39385    216.1 9.573e+03 1.642e-10
 72.42238    218.1 9.532e+03 1.565e-10
 72.44921    219.8 9.602e+03 1.701e-10
 72.47774    221.8 9.570e+03 1.623e-10
 72.50457    223.6 9.619e+03 1.796e-10
 72.53310    225.5 9.584e+03 1.716e-10
 72.55994    227.3 9.619e+03 1.908e-10
 72.58846    229.2 9.593e+03 1.840e-10
 72.61530    231.0 9.654e+03 2.086e-10
 72.64383    232.8 9.727e+03 2.132e-10
 72.67066    234.6 9.940e+03 2.583e-10
 72.69834    236.3 1.018e+04 2.833e-10
 72.72602    237.6 1.023e+04 2.842e-10
 72.73934    237.8 1.040e+04 3.255e-10
 72.75351    238.1 1.037e+04 3.204e-10
 72.76693    238.9 1.052e+04 3.642e-10
 72.78119    239.6 1.049e+04 3.555e-10
 72.79461    240.6 1.076e+04 4.642e-10
 72.80887    241.4 1.073e+04 4.524e-10
 72.82229    242.5 1.112e+04 6.487e-10
 72.83655    243.2 1.111e+04 6.155e-10
 72.84997    244.0 1.160e+04 9.156e-10
 72.86424    244.7 1.159e+04 8.440e-10
 72.87765    245.1 1.217e+04 1.274e-09
 72.89192    245.6 1.214e+04 1.150e-09
 72.90533    245.9 1.272e+04 1.714e-09
 72.91960    246.3 1.266e+04 1.539e-09
 72.92999    246.5 1.319e+04 2.202e-09
 72.93663    246.8 1.268e+04 1.603e-09
 72.94728    247.3 1.248e+04 1.304e-09
 72.96070    247.4 1.312e+04 2.006e-09
 72.97496    247.7 1.291e+04 1.671e-09
 72.98838    247.8 1.347e+04 2.400e-09
 73.00264    248.3 1.316e+04 1.978e-09
 73.01606    248.5 1.351e+04 2.460e-09
 73.03032    249.1 1.321e+04 2.143e-09
 73.04374    249.3 1.337e+04 2.227e-09
 73.05810    250.1 1.276e+04 1.581e-09
 73.08503    249.6 1.291e+04 1.666e-09
 73.11356    250.2 1.254e+04 1.354e-09
 73.14040    250.1 1.248e+04 1.323e-09
 73.16893    250.8 1.220e+04 1.109e-09
 73.19576    251.2 1.206e+04 9.992e-10
 73.22429    252.1 1.186e+04 8.859e-10
 73.25112    252.8 1.148e+04 6.729e-10
 73.27965    253.9 1.130e+04 6.311e-10
 73.30649    254.8 1.074e+04 4.151e-10
 73.33501    256.2 1.067e+04 4.191e-10
 73.36185    257.3 1.012e+04 2.882e-10
 73.39038    258.8 1.022e+04 3.278e-10
 73.41721    260.0 9.938e+03 2.753e-10
 73.44574    261.5 1.011e+04 3.329e-10
 73.47257    262.8 1.005e+04 3.186e-10
 73.50110    264.2 1.019e+04 3.675e-10
 73.52794    265.6 1.017e+04 3.564e-10
 73.55646    266.8 1.028e+04 3.752e-10
 73.58330    268.1 1.029e+04 3.478e-10
 73.61072    269.1 1.040e+04 3.511e-10
 73.63866    269.9 1.055e+04 3.648e-10
 73.66550    270.6 1.055e+04 3.432e-10
 73.69402    270.7 1.074e+04 3.802e-10
 73.72086    271.2 1.072e+04 3.521e-10
 73.74929    271.6 1.081e+04 3.766e-10
 73.77612    272.0 1.073e+04 3.456e-10
 73.80465    272.3 1.082e+04 3.764e-10
 73.81797    272.2 1.066e+04 3.392e-10
 73.83224    272.4 1.076e+04 3.856e-10
 73.84565    272.2 1.061e+04 3.591e-10
 73.85992    272.2 1.071e+04 4.369e-10
 73.87333    272.1 1.060e+04 4.273e-10
 73.88760    271.7 1.091e+04 5.805e-10
 73.90102    271.8 1.089e+04 5.911e-10
 73.91528    270.5 1.156e+04 9.450e-10
 73.92836    270.6 1.171e+04 1.013e-09
 73.93220    270.9 1.182e+04 1.037e-09
 73.94296    268.2 1.348e+04 2.157e-09
 73.95638    268.2 1.393e+04 2.511e-09
 73.97064    265.3 1.597e+04 5.617e-09
 73.98406    265.5 1.635e+04 6.447e-09
 73.99832    262.9 1.789e+04 1.026e-08
 74.01174    263.3 1.802e+04 1.056e-08
 74.02600    260.3 1.826e+04 1.048e-08
 74.03942    260.9 1.821e+04 1.039e-08
 74.05330    257.9 1.782e+04 7.576e-09
 74.06710    254.6 1.638e+04 3.823e-09
 74.08052    255.2 1.613e+04 3.450e-09
 74.09479    251.2 1.374e+04 1.394e-09
 74.10820    251.9 1.353e+04 1.244e-09
 74.13683    244.5 1.067e+04 2.968e-10
 74.16376    245.6 1.022e+04 2.655e-10
 74.19229    241.5 8.478e+03 1.706e-10
 74.21912    243.5 8.517e+03 1.758e-10
 74.24765    243.4 8.327e+03 1.596e-10
 74.27449    245.1 8.350e+03 1.651e-10
 74.30301    245.2 8.290e+03 1.638e-10
 74.32985    246.8 8.338e+03 1.710e-10
 74.35838    247.3 8.332e+03 1.808e-10
 74.38521    248.8 8.399e+03 1.941e-10
 74.41374    249.4 8.496e+03 2.187e-10
 74.44057    250.9 8.600e+03 2.385e-10
 74.46910    251.6 8.671e+03 2.564e-10
 74.49594    252.9 8.698e+03 2.656e-10
 74.52310    253.5 8.670e+03 2.604e-10
 74.55130    254.1 8.522e+03 2.345e-10
 74.57813    255.6 8.517e+03 2.351e-10
 74.60666    256.0 8.322e+03 1.936e-10
 74.63350    257.6 8.329e+03 1.967e-10
 74.66202    257.8 8.327e+03 1.839e-10
 74.68886    259.5 8.395e+03 1.967e-10
 74.71739    259.2 8.471e+03 2.032e-10
 74.74422    260.9 8.580e+03 2.231e-10
 74.77275    260.3 8.873e+03 2.573e-10
 74.79958    262.0 8.970e+03 2.724e-10
 74.82811    260.8 9.528e+03 3.630e-10
 74.85495    262.3 9.530e+03 3.601e-10
 74.88338    262.0 9.952e+03 4.719e-10
 74.89670    262.8 9.937e+03 4.794e-10
 74.91096    262.4 1.032e+04 6.228e-10
 74.92438    263.3 1.036e+04 6.459e-10
 74.92777    263.1 1.043e+04 6.697e-10
 74.94108    262.6 1.038e+04 6.409e-10
 74.95216    263.2 1.045e+04 6.708e-10
 74.96568    263.0 1.041e+04 6.574e-10
 74.99410    263.2 1.029e+04 5.973e-10
 75.02104    264.5 1.040e+04 6.308e-10
 75.04956    263.8 1.010e+04 5.383e-10
 75.07640    264.7 1.033e+04 5.976e-10
 75.10493    264.2 1.010e+04 5.382e-10
 75.13176    264.8 1.047e+04 6.456e-10
 75.16029    264.5 1.028e+04 5.732e-10
 75.18712    264.2 1.059e+04 6.433e-10
 75.21565    263.8 1.017e+04 4.991e-10
 75.24249    262.7 1.020e+04 4.928e-10
 75.27101    262.8 9.784e+03 3.906e-10
 75.29785    262.0 9.758e+03 3.795e-10
 75.32638    262.6 9.570e+03 3.477e-10
 75.35321    261.8 9.628e+03 3.626e-10
 75.38174    263.3 9.657e+03 3.738e-10
 75.43541    263.8 9.936e+03 4.587e-10
 75.46394    265.1 1.017e+04 5.221e-10
 75.49077    263.6 1.039e+04 6.109e-10
 75.51930    264.5 1.077e+04 7.211e-10
 75.54613    261.6 1.099e+04 8.366e-10
 75.57466    262.1 1.147e+04 9.885e-10
 75.60150    257.9 1.165e+04 1.124e-09
 75.63003    258.0 1.201e+04 1.242e-09
 75.65686    253.5 1.221e+04 1.381e-09
 75.68529    251.9 1.236e+04 1.430e-09
 75.71212    248.8 1.243e+04 1.429e-09
 75.74065    247.8 1.241e+04 1.434e-09
 75.75397    245.6 1.236e+04 1.334e-09
 75.76824    246.2 1.234e+04 1.362e-09
 75.78165    244.5 1.214e+04 1.202e-09
 75.79592    245.2 1.210e+04 1.213e-09
 75.80934    243.7 1.180e+04 1.009e-09
 75.82360    244.4 1.176e+04 1.009e-09
 75.83702    243.0 1.136e+04 8.169e-10
 75.85123    243.8 1.137e+04 8.209e-10
 75.87806    243.2 1.097e+04 7.065e-10
 75.89238    244.0 1.105e+04 7.574e-10
 75.90580    243.0 1.066e+04 6.821e-10
 75.92006    243.9 1.078e+04 7.567e-10
 75.92508    243.3 1.066e+04 7.371e-10
 75.93675    243.5 1.074e+04 7.558e-10
 75.94774    244.5 1.082e+04 8.153e-10
 75.96116    244.2 1.081e+04 8.218e-10
 75.97542    245.3 1.089e+04 8.799e-10
 75.98884    245.1 1.089e+04 9.150e-10
 76.00310    246.4 1.095e+04 9.671e-10
 76.01652    246.3 1.103e+04 1.033e-09
 76.03079    247.7 1.110e+04 1.089e-09
 76.04420    247.7 1.128e+04 1.187e-09
 76.05847    249.1 1.139e+04 1.266e-09
 76.07188    249.1 1.165e+04 1.407e-09
 76.08615    250.5 1.183e+04 1.539e-09
 76.09957    250.4 1.220e+04 1.743e-09
 76.11383    251.7 1.248e+04 2.006e-09
 76.12725    251.5 1.298e+04 2.224e-09
 76.14151    252.7 1.336e+04 2.718e-09
 76.15493    252.1 1.367e+04 2.763e-09
 76.16919    253.4 1.426e+04 3.525e-09
 76.18261    252.7 1.431e+04 3.462e-09
 76.19687    254.3 1.513e+04 4.700e-09
 76.21029    253.3 1.518e+04 4.266e-09
 76.22456    254.5 1.620e+04 6.216e-09
 76.23797    253.4 1.595e+04 4.553e-09
 76.25224    254.4 1.707e+04 6.917e-09
 76.26565    253.3 1.632e+04 3.793e-09
 76.27992    254.1 1.749e+04 5.799e-09
 76.29334    252.4 1.605e+04 2.271e-09
 76.30742    252.6 1.698e+04 3.347e-09
 76.32102    252.4 1.770e+04 4.706e-09
 76.33443    249.6 1.498e+04 1.520e-09
 76.34870    249.0 1.570e+04 2.272e-09
 76.36212    245.8 1.202e+04 8.470e-10
 76.37638    245.6 1.310e+04 1.288e-09
 76.38980    243.1 1.032e+04 6.466e-10
 76.40406    243.2 1.117e+04 9.145e-10
 76.41713    241.5 9.978e+03 5.956e-10
 76.42783    241.8 1.150e+04 1.094e-09
 76.43174    242.0 1.196e+04 1.419e-09
 76.44516    240.6 1.120e+04 9.549e-10
 76.45942    240.6 1.165e+04 1.220e-09
 76.47284    239.7 1.133e+04 9.348e-10
 76.48710    239.7 1.179e+04 1.198e-09
 76.50052    238.9 1.162e+04 9.987e-10
 76.51479    239.0 1.213e+04 1.296e-09
 76.52820    238.3 1.200e+04 1.149e-09
 76.54247    238.7 1.253e+04 1.498e-09
 76.55588    237.7 1.253e+04 1.403e-09
 76.57015    238.4 1.301e+04 1.759e-09
 76.58357    237.2 1.306e+04 1.753e-09
 76.59783    238.2 1.347e+04 2.107e-09
 76.61125    235.6 1.447e+04 2.274e-09
 76.62551    235.7 1.605e+04 2.838e-09
 76.63888    233.2 1.750e+04 3.254e-09
 76.64596    234.0 1.746e+04 3.483e-09
 76.65267    229.9 1.995e+04 4.676e-09
 76.65980    229.5 2.148e+04 5.754e-09
 76.66651    221.7 2.628e+04 1.080e-08
 76.67327    219.8 2.848e+04 1.777e-08
 76.67732    221.2 2.826e+04 1.930e-08
 76.68035    212.9 2.992e+04 3.578e-08
 76.68749    211.1 2.955e+04 8.518e-08
 76.69419    203.8 2.981e+04 8.166e-08
 76.70133    202.7 2.787e+04 2.031e-07
 76.70803    194.7 2.843e+04 1.605e-07
 76.71517    193.4 2.520e+04 5.379e-07
 76.72188    185.2 3.234e+04 1.492e-07
 76.72901    181.8 3.800e+04 1.502e-07
 76.73572    161.0 5.955e+04 1.025e-08
 76.74285    145.5 5.349e+04 1.361e-08
 76.74956    127.3 2.647e+04 2.296e-08
 76.75669    120.5 2.431e+04 3.255e-08
 76.76340    117.4 2.286e+04 3.511e-08
 76.77022    114.9 2.308e+04 4.111e-08
 76.77724    112.5 2.376e+04 3.983e-08
 76.78395    109.9 2.199e+04 3.397e-08
 76.79108    107.4 2.141e+04 2.569e-08
 76.79779    106.0 2.141e+04 1.903e-08
 76.80492    103.6 2.081e+04 1.278e-08
 76.81839     95.9 2.032e+04 4.672e-09
 76.83270     84.2 1.638e+04 2.214e-09
 76.84612     75.6 1.429e+04 1.757e-09
 76.86038     69.8 1.426e+04 2.034e-09
 76.87380     67.7 1.397e+04 2.068e-09
 76.88806     65.3 1.422e+04 2.509e-09
 76.90148     64.2 1.397e+04 2.065e-09
 76.91574     61.2 1.413e+04 1.970e-09
 76.92344     59.8 1.374e+04 1.496e-09
 76.93232     62.1 1.350e+04 1.456e-09
 76.94342     59.3 1.324e+04 1.270e-09
 76.95684     57.9 1.269e+04 9.079e-10
 76.97111     53.8 1.183e+04 6.190e-10
 76.98452     52.6 1.119e+04 4.997e-10
 76.99879     51.7 1.079e+04 4.630e-10
 77.01230     52.8 1.034e+04 3.838e-10
 77.04093     50.7 9.485e+03 2.758e-10
 77.06776     51.3 9.108e+03 2.421e-10
 77.09629     50.3 8.728e+03 1.677e-10
 77.12312     51.4 8.731e+03 1.711e-10
 77.15165     50.4 8.384e+03 1.268e-10
 77.17849     51.8 8.537e+03 1.507e-10
 77.20658     51.6 8.424e+03 1.463e-10
 77.23385     51.7 8.468e+03 1.551e-10
 77.26068     53.0 8.714e+03 1.840e-10
 77.28921     53.2 8.920e+03 2.185e-10
 77.31605     54.2 9.204e+03 2.631e-10
 77.34458     54.7 9.436e+03 3.246e-10
 77.37141     55.5 9.614e+03 3.517e-10
 77.39994     56.2 9.760e+03 3.990e-10
 77.42677     56.9 9.772e+03 3.941e-10
 77.45530     57.6 1.003e+04 4.281e-10
 77.48214     57.8 1.010e+04 4.125e-10
 77.51057     58.1 1.039e+04 4.567e-10
 77.52389     57.9 1.038e+04 4.330e-10
 77.53815     57.6 1.072e+04 5.586e-10
 77.55157     57.5 1.066e+04 5.439e-10
 77.56583     57.2 1.111e+04 7.643e-10
 77.57925     57.0 1.104e+04 7.489e-10
 77.59351     56.7 1.168e+04 1.092e-09
 77.60693     56.3 1.174e+04 1.098e-09
 77.62119     55.2 1.295e+04 1.716e-09
 77.63461     54.3 1.333e+04 1.808e-09
 77.64887     52.4 1.492e+04 2.935e-09
 77.66229     51.4 1.500e+04 2.933e-09
 77.67600     49.8 1.557e+04 4.000e-09
 77.68997     48.6 1.573e+04 4.467e-09
 77.70339     47.8 1.527e+04 3.829e-09
 77.71765     46.6 1.479e+04 3.275e-09
 77.73107     45.7 1.414e+04 2.700e-09
 77.74534     44.5 1.320e+04 1.916e-09
 77.75875     44.1 1.268e+04 1.638e-09
 77.77302     43.2 1.205e+04 1.079e-09
 77.78643     43.4 1.184e+04 9.708e-10
 77.80070     42.6 1.160e+04 6.760e-10
 77.81412     42.7 1.165e+04 6.317e-10
 77.82838     41.3 1.136e+04 4.201e-10
 77.84180     41.1 1.136e+04 4.317e-10
 77.85606     39.7 1.063e+04 3.559e-10
 77.86948     39.6 1.064e+04 3.882e-10
 77.88374     38.8 1.062e+04 3.214e-10
 77.89716     39.2 1.075e+04 3.622e-10
 77.91142     38.9 1.072e+04 3.467e-10
 77.92180     39.1 1.086e+04 3.857e-10
 77.92788     39.5 1.086e+04 3.830e-10
 77.93911     39.0 1.074e+04 3.778e-10
 77.95252     39.2 1.085e+04 3.969e-10
 77.96679     39.3 1.080e+04 3.926e-10
 77.98020     39.5 1.088e+04 4.051e-10
 78.00883     40.2 1.069e+04 4.268e-10
 78.03576     40.7 1.071e+04 4.321e-10
 78.06429     41.9 1.055e+04 4.124e-10
 78.09112     42.5 1.050e+04 3.990e-10
 78.11897     44.1 1.037e+04 3.406e-10
 78.14649     45.3 1.023e+04 2.869e-10
 78.17332     46.2 1.022e+04 2.829e-10
 78.20185     47.6 1.001e+04 2.459e-10
 78.22869     48.6 1.001e+04 2.492e-10
 78.25721     50.1 9.878e+03 2.182e-10
 78.28405     51.2 1.000e+04 2.452e-10
 78.31258     52.3 1.008e+04 2.293e-10
 78.33941     53.2 1.061e+04 3.417e-10
 78.36794     53.7 1.066e+04 3.266e-10
 78.39477     54.5 1.144e+04 5.998e-10
 78.41906     54.5 1.153e+04 7.053e-10
 78.42811     54.9 1.156e+04 7.023e-10
 78.43652     55.2 1.198e+04 9.218e-10
 78.45079     55.7 1.199e+04 9.790e-10
 78.46420     56.2 1.238e+04 1.221e-09
 78.47847     56.8 1.231e+04 1.186e-09
 78.49189     57.3 1.260e+04 1.371e-09
 78.50615     57.7 1.251e+04 1.244e-09
 78.51957     57.8 1.273e+04 1.340e-09
 78.53383     57.8 1.253e+04 1.171e-09
 78.54725     57.7 1.255e+04 1.186e-09
 78.56151     57.4 1.234e+04 1.076e-09
 78.58835     57.7 1.195e+04 9.555e-10
 78.60261     57.9 1.187e+04 9.209e-10
 78.61603     58.3 1.166e+04 8.405e-10
 78.63029     59.1 1.133e+04 7.320e-10
 78.64371     59.6 1.111e+04 6.129e-10
 78.65797     59.8 1.104e+04 5.682e-10
 78.67149     60.3 1.083e+04 4.766e-10
 78.70011     61.4 1.039e+04 3.560e-10
 78.72695     62.3 1.013e+04 2.955e-10
 78.75548     63.4 9.804e+03 2.080e-10
 78.78231     64.5 9.706e+03 2.012e-10
 78.81084     65.5 9.540e+03 1.539e-10
 78.83767     67.0 9.519e+03 1.626e-10
 78.86620     68.1 9.407e+03 1.429e-10
 78.89304     69.6 9.463e+03 1.617e-10
 78.91023     70.7 9.433e+03 1.607e-10
 78.93462     70.8 9.597e+03 1.867e-10
 78.94840     72.3 9.675e+03 2.063e-10
 78.97693     73.2 9.750e+03 2.234e-10
 79.00376     74.5 9.936e+03 2.531e-10
 79.03135     75.2 1.000e+04 2.799e-10
 79.05913     75.9 1.006e+04 3.102e-10
 79.08596     76.3 1.015e+04 3.483e-10
 79.11449     77.0 1.015e+04 3.715e-10
 79.12781     77.3 1.018e+04 3.950e-10
 79.14197     77.5 1.026e+04 4.166e-10
 79.15539     77.9 1.053e+04 5.237e-10
 79.16966     78.3 1.059e+04 5.489e-10
 79.18307     78.7 1.095e+04 6.993e-10
 79.19734     79.1 1.093e+04 6.936e-10
 79.21075     79.5 1.120e+04 8.236e-10
 79.22502     79.9 1.111e+04 7.753e-10
 79.23844     80.1 1.129e+04 8.463e-10
 79.25270     80.6 1.116e+04 7.638e-10
 79.26612     80.5 1.129e+04 8.027e-10
 79.28038     80.8 1.118e+04 7.211e-10
 79.29380     80.4 1.132e+04 7.646e-10
 79.30806     80.6 1.123e+04 7.033e-10
 79.32148     79.7 1.168e+04 8.531e-10
 79.33574     79.5 1.184e+04 8.803e-10
 79.34916     77.3 1.286e+04 1.384e-09
 79.36342     76.8 1.320e+04 1.596e-09
 79.37684     74.4 1.487e+04 3.391e-09
 79.39111     74.6 1.494e+04 3.693e-09
 79.40447     73.8 1.562e+04 4.962e-09
 79.41156     73.8 1.574e+04 5.063e-09
 79.41827     72.6 1.656e+04 6.577e-09
 79.42114     71.5 1.717e+04 7.238e-09
 79.42637     70.5 1.788e+04 8.745e-09
 79.43211     67.9 1.938e+04 1.229e-08
 79.43924     64.3 2.114e+04 1.646e-08
 79.44595     61.4 2.219e+04 2.159e-08
 79.45308     59.2 2.173e+04 2.533e-08
 79.45979     57.4 2.149e+04 2.506e-08
 79.46692     56.6 2.099e+04 2.689e-08
 79.47363     55.2 2.027e+04 2.344e-08
 79.48054     54.6 1.996e+04 2.287e-08
 79.48747     53.9 1.980e+04 2.142e-08
 79.50094     50.0 1.982e+04 1.227e-08
 79.51525     44.4 2.206e+04 6.393e-09
 79.52867     35.5 2.011e+04 2.671e-09
 79.54293     25.2 1.404e+04 1.354e-09
 79.55635     21.3 1.162e+04 1.076e-09
 79.57061     20.4 1.155e+04 9.388e-10
 79.58403     21.0 1.158e+04 8.664e-10
 79.59829     19.9 1.145e+04 6.829e-10
 79.61171     20.0 1.117e+04 5.591e-10
 79.62597     18.5 1.066e+04 4.364e-10
 79.63939     18.7 1.038e+04 3.437e-10
 79.65366     17.4 1.027e+04 3.041e-10
 79.66707     17.6 1.024e+04 2.580e-10
 79.68134     16.6 1.025e+04 2.651e-10
 79.69485     17.6 1.008e+04 2.141e-10
 79.70912     15.8 1.023e+04 2.875e-10
 79.72244     16.4 1.018e+04 2.709e-10
 79.73670     15.3 1.065e+04 3.629e-10
 79.75012     15.9 1.070e+04 3.624e-10
 79.76438     14.5 1.139e+04 5.708e-10
 79.77780     14.9 1.147e+04 5.866e-10
 79.79206     13.6 1.198e+04 9.408e-10
 79.80548     14.3 1.205e+04 1.014e-09
 79.81974     13.9 1.240e+04 1.461e-09
 79.83316     14.9 1.261e+04 1.645e-09
 79.84743     15.1 1.308e+04 1.923e-09
 79.86084     16.1 1.312e+04 2.009e-09
 79.87511     15.9 1.332e+04 1.919e-09
 79.88852     17.0 1.337e+04 1.870e-09
 79.90279     16.0 1.309e+04 1.353e-09
 79.91621     16.5 1.296e+04 1.292e-09
 79.91902     14.7 1.220e+04 9.581e-10
 79.93243     14.5 1.204e+04 8.438e-10
 79.94389     13.6 1.163e+04 7.471e-10
 79.95730     14.5 1.156e+04 7.252e-10
 79.97167     13.5 1.142e+04 6.859e-10
 79.99860     15.3 1.132e+04 6.577e-10
 80.02713     14.4 1.117e+04 6.389e-10
 80.05396     16.3 1.116e+04 6.398e-10
 80.08249     15.7 1.132e+04 6.878e-10
 80.10932     17.8 1.126e+04 6.836e-10
 80.13785     17.5 1.143e+04 7.550e-10
 80.16469     19.9 1.127e+04 6.973e-10
 80.19321     19.8 1.131e+04 6.997e-10
 80.22005     22.1 1.111e+04 6.191e-10
 80.24858     22.2 1.108e+04 6.010e-10
 80.27541     24.6 1.093e+04 5.729e-10
 80.30394     24.9 1.089e+04 5.634e-10
 80.33077     27.5 1.089e+04 5.740e-10
 80.35930     28.0 1.080e+04 5.398e-10
 80.38614     30.6 1.085e+04 5.555e-10
 80.41466     31.3 1.071e+04 4.866e-10
 80.44150     33.9 1.070e+04 4.824e-10
 80.47003     34.4 1.045e+04 3.892e-10
 80.49686     37.4 1.046e+04 3.889e-10
 80.52539     38.0 1.036e+04 3.512e-10
 80.55222     40.7 1.036e+04 3.545e-10
 80.58075     41.0 1.031e+04 3.454e-10
 80.60759     43.8 1.032e+04 3.565e-10
 80.63612     44.1 1.051e+04 4.169e-10
 80.66295     46.9 1.064e+04 4.500e-10
 80.69148     47.2 1.081e+04 6.284e-10
 80.71831     49.9 1.108e+04 7.388e-10
 80.74684     51.1 1.153e+04 9.140e-10
 80.77368     53.6 1.218e+04 1.196e-09
 80.80220     53.8 1.212e+04 1.054e-09
 80.82894     54.6 1.241e+04 1.171e-09
 80.84250     53.9 1.178e+04 8.294e-10
 80.85652     53.8 1.160e+04 7.524e-10
 80.86994     54.2 1.184e+04 8.671e-10
 80.88421     53.9 1.168e+04 8.276e-10
 80.89762     54.4 1.198e+04 9.931e-10
 80.91189     54.5 1.225e+04 1.072e-09
 80.91688     55.1 1.250e+04 1.255e-09
 80.92800     54.4 1.279e+04 1.415e-09
 80.93957     54.3 1.303e+04 1.601e-09
 80.95299     54.7 1.303e+04 1.617e-09
 80.96725     54.6 1.310e+04 1.778e-09
 80.98067     54.9 1.307e+04 1.703e-09
 80.99493     54.7 1.305e+04 1.837e-09
 81.00835     54.6 1.299e+04 1.715e-09
 81.02261     54.2 1.287e+04 1.858e-09
 81.03603     53.6 1.289e+04 1.866e-09
 81.05029     53.4 1.271e+04 1.990e-09
 81.06371     53.1 1.284e+04 2.169e-09
 81.07798     53.7 1.281e+04 2.301e-09
 81.09139     53.9 1.302e+04 2.577e-09
 81.10566     54.4 1.296e+04 2.403e-09
 81.11907     54.4 1.298e+04 2.405e-09
 81.13334     54.6 1.271e+04 1.835e-09
 81.14676     54.7 1.259e+04 1.699e-09
 81.16112     52.8 1.187e+04 1.132e-09
 81.18805     53.0 1.157e+04 1.022e-09
 81.21658     51.3 1.109e+04 8.214e-10
 81.24341     52.3 1.068e+04 6.875e-10
 81.27184     51.8 1.044e+04 6.041e-10
 81.29868     52.6 1.060e+04 6.921e-10
 81.32730     52.4 1.113e+04 9.783e-10
 81.35414     54.1 1.068e+04 7.836e-10
 81.36830     53.5 1.121e+04 9.872e-10
 81.38162     54.1 1.090e+04 8.574e-10
 81.39589     54.1 1.091e+04 8.565e-10
 81.40940     55.8 1.036e+04 6.270e-10
 81.42367     55.1 1.036e+04 6.367e-10
 81.43699     55.7 1.006e+04 5.093e-10
 81.45125     55.5 1.026e+04 5.277e-10
 81.46477     56.7 9.738e+03 3.781e-10
 81.49339     55.2 1.033e+04 4.546e-10
 81.52023     57.6 9.274e+03 2.743e-10
 81.54875     56.3 1.016e+04 4.723e-10
 81.57559     59.1 9.364e+03 3.202e-10
 81.60412     58.3 1.029e+04 5.681e-10
 81.63095     61.1 9.666e+03 4.016e-10
 81.65948     60.5 1.035e+04 6.399e-10
 81.68631     63.1 9.846e+03 4.667e-10
 81.71483     62.6 1.036e+04 6.884e-10
 81.76850     64.5 1.032e+04 7.160e-10
 81.79704     64.3 1.044e+04 7.828e-10
 81.82387     66.3 1.019e+04 6.740e-10
 81.85240     66.0 1.020e+04 6.870e-10
 81.87924     68.0 9.891e+03 5.581e-10
 81.90776     67.7 9.866e+03 5.607e-10
 81.91544     69.5 9.501e+03 4.259e-10
 81.93718     70.2 9.034e+03 3.238e-10
 81.96313     70.1 9.011e+03 3.209e-10
 81.98996     71.8 8.454e+03 2.161e-10
 82.01849     71.7 8.645e+03 2.455e-10
 82.04532     73.4 8.316e+03 1.891e-10
 82.07385     73.4 8.675e+03 2.511e-10
 82.10069     75.3 8.577e+03 2.254e-10
 82.12921     75.4 9.042e+03 3.351e-10
 82.15605     77.3 9.087e+03 3.340e-10
 82.18458     77.4 9.683e+03 5.184e-10
 82.21141     79.2 9.814e+03 5.389e-10
 82.23994     79.2 1.051e+04 8.072e-10
 82.26678     80.8 1.076e+04 8.687e-10
 82.29530     80.1 1.170e+04 1.269e-09
 82.32214     81.4 1.222e+04 1.450e-09
 82.33630     78.7 1.307e+04 1.990e-09
 82.34962     78.4 1.365e+04 2.417e-09
 82.36389     76.5 1.425e+04 3.012e-09
 82.37731     76.4 1.469e+04 3.567e-09
 82.39157     75.0 1.476e+04 3.944e-09
 82.40499     75.1 1.499e+04 4.359e-09
 82.41464     74.2 1.440e+04 3.649e-09
 82.42155     75.5 1.516e+04 4.674e-09
 82.43267     75.8 1.521e+04 4.891e-09
 82.44693     75.2 1.439e+04 3.412e-09
 82.46035     75.3 1.426e+04 2.889e-09
 82.47461     73.5 1.301e+04 1.409e-09
 82.48803     72.5 1.245e+04 9.773e-10
 82.50229     68.9 1.045e+04 3.989e-10
 82.51571     67.3 9.619e+03 2.775e-10
 82.52998     65.4 8.819e+03 1.818e-10
 82.54339     65.3 8.746e+03 1.740e-10
 82.57202     66.3 8.536e+03 1.483e-10
 82.59895     67.1 8.521e+03 1.475e-10
 82.62721     69.1 8.101e+03 1.098e-10
 82.65431     70.2 7.916e+03 8.836e-11
 82.68115     70.8 7.919e+03 9.582e-11
 82.70968     72.2 7.797e+03 8.601e-11
 82.73651     72.9 7.900e+03 9.710e-11
 82.76504     74.4 7.835e+03 9.118e-11
 82.79187     75.1 8.000e+03 1.113e-10
 82.82040     76.6 7.921e+03 1.029e-10
 82.84724     77.5 8.106e+03 1.256e-10
 82.87576     79.0 8.005e+03 1.141e-10
 82.89953     79.8 8.166e+03 1.361e-10
 82.91933     80.7 8.021e+03 1.262e-10
 82.93113     82.3 7.979e+03 1.238e-10
 82.95796     83.2 8.136e+03 1.444e-10
 82.98649     84.8 8.107e+03 1.430e-10
 83.01332     85.7 8.377e+03 1.749e-10
 83.04185     87.1 8.422e+03 1.828e-10
 83.06869     88.0 8.800e+03 2.423e-10
 83.09722     89.3 8.991e+03 2.808e-10
 83.12405     90.0 9.403e+03 3.795e-10
 83.15258     91.2 9.646e+03 4.317e-10
 83.17941     91.7 9.844e+03 4.426e-10
 83.20794     92.6 9.946e+03 4.688e-10
 83.23478     93.5 9.955e+03 4.204e-10
 83.26330     94.3 1.008e+04 4.344e-10
 83.29014     95.2 9.848e+03 3.108e-10
 83.31867     95.5 9.981e+03 3.457e-10
 83.34550     96.4 9.544e+03 2.361e-10
 83.37403     96.3 9.927e+03 3.584e-10
 83.40086     97.2 9.889e+03 3.242e-10
 83.41030     96.8 1.014e+04 5.140e-10
 83.41992     97.1 1.018e+04 5.775e-10
 83.42835     97.6 1.027e+04 5.908e-10
 83.44261     97.7 1.060e+04 8.757e-10
 83.45603     98.2 1.074e+04 9.187e-10
 83.47029     99.2 1.113e+04 1.163e-09
 83.48371     99.7 1.127e+04 1.206e-09
 83.49798    100.4 1.153e+04 1.295e-09
 83.51139    100.8 1.153e+04 1.290e-09
 83.52566    101.0 1.158e+04 1.256e-09
 83.53907    101.4 1.157e+04 1.235e-09
 83.55282    101.6 1.133e+04 9.222e-10
 83.56676    100.5 1.083e+04 6.434e-10
 83.58017    100.8 1.087e+04 6.572e-10
 83.59444     99.7 1.027e+04 5.037e-10
 83.60786    100.1 1.036e+04 5.342e-10
 83.62212     99.6 1.005e+04 4.727e-10
 83.63554    100.0 1.018e+04 5.106e-10
 83.64980     99.7 1.004e+04 4.772e-10
 83.66322    100.1 1.017e+04 5.194e-10
 83.67748     99.9 1.005e+04 4.890e-10
 83.69090    100.3 1.017e+04 5.323e-10
 83.70516    100.1 1.003e+04 4.962e-10
 83.71858    100.4 1.012e+04 5.198e-10
 83.73294     99.8 9.973e+03 4.430e-10
 83.74636    100.3 9.996e+03 4.600e-10
 83.76053    100.0 9.951e+03 4.344e-10
 83.77394    100.0 9.950e+03 4.242e-10
 83.78830    100.3 9.905e+03 3.855e-10
 83.81524    100.3 9.833e+03 3.457e-10
 83.84377    100.6 9.531e+03 2.798e-10
 83.87060    100.2 9.369e+03 2.350e-10
 83.89913    100.3 9.195e+03 2.153e-10
 83.91216     99.7 9.182e+03 2.018e-10
 83.92831     99.7 9.304e+03 2.267e-10
 83.95449     99.8 9.313e+03 2.302e-10
 83.98133     99.0 9.358e+03 2.318e-10
 84.00985     98.6 9.578e+03 2.868e-10
 84.03669     97.3 9.921e+03 3.565e-10
 84.06522     97.1 1.028e+04 5.137e-10
 84.09205     96.1 1.059e+04 5.909e-10
 84.12058     96.1 1.083e+04 6.747e-10
 84.14741     94.6 1.080e+04 6.071e-10
 84.17594     93.9 1.069e+04 5.276e-10
 84.20278     92.5 9.990e+03 3.152e-10
 84.23130     91.9 9.615e+03 2.601e-10
 84.25814     90.4 8.908e+03 1.797e-10
 84.28667     90.3 8.988e+03 1.906e-10
 84.31350     89.1 9.021e+03 1.947e-10
 84.34203     88.7 9.388e+03 2.450e-10
 84.36886     87.2 9.725e+03 3.065e-10
 84.38303     87.4 9.892e+03 3.570e-10
 84.39635     86.6 1.004e+04 4.180e-10
 84.40577     86.2 1.026e+04 5.195e-10
 84.41828     86.3 1.033e+04 5.308e-10
 84.42403     85.8 1.066e+04 7.245e-10
 84.43830     86.2 1.092e+04 8.902e-10
 84.46513     85.8 1.142e+04 9.836e-10
 84.47939     85.3 1.140e+04 9.153e-10
 84.49281     83.8 1.137e+04 8.672e-10
 84.50708     82.8 1.111e+04 7.400e-10
 84.52049     81.0 1.089e+04 6.797e-10
 84.53476     80.0 1.069e+04 6.199e-10
 84.54817     78.3 1.070e+04 6.227e-10
 84.56244     77.6 1.065e+04 5.943e-10
 84.57586     76.0 1.072e+04 6.317e-10
 84.59012     75.0 1.072e+04 6.292e-10
 84.60354     72.2 1.121e+04 7.799e-10
 84.61780     68.9 1.219e+04 1.021e-09
 84.63122     64.1 1.352e+04 1.690e-09
 84.64548     60.3 1.450e+04 2.731e-09
 84.65890     57.2 1.514e+04 3.932e-09
 84.67316     55.0 1.572e+04 5.138e-09
 84.68658     52.1 1.637e+04 5.095e-09
 84.70084     49.3 1.638e+04 5.232e-09
 84.71426     44.5 1.658e+04 4.448e-09
 84.72853     41.1 1.589e+04 3.293e-09
 84.74194     35.8 1.457e+04 2.455e-09
 84.75621     33.1 1.301e+04 1.630e-09
 84.76962     30.2 1.210e+04 1.368e-09
 84.78389     29.4 1.140e+04 9.816e-10
 84.79731     27.9 1.122e+04 8.312e-10
 84.81157     27.3 1.080e+04 6.265e-10
 84.82499     25.3 1.053e+04 5.183e-10
 84.83925     24.8 1.021e+04 4.315e-10
 84.85267     22.7 1.004e+04 4.172e-10
 84.86693     22.6 9.998e+03 3.864e-10
 84.88035     20.7 1.002e+04 4.095e-10
 84.89455     21.0 1.000e+04 4.055e-10
 84.91036     21.2 1.010e+04 4.240e-10
 84.92378     20.9 1.021e+04 5.140e-10
 84.93571     21.4 1.026e+04 5.307e-10
 84.94913     20.5 1.032e+04 5.458e-10
 84.96339     21.2 1.035e+04 5.473e-10
 84.97681     20.5 1.034e+04 5.361e-10
 84.99108     21.1 1.033e+04 5.197e-10
 85.00449     19.9 1.024e+04 4.614e-10
 85.01876     20.7 1.021e+04 4.356e-10
 85.03217     20.0 1.010e+04 4.031e-10
 85.04644     20.3 1.006e+04 3.934e-10
 85.05986     19.0 1.002e+04 3.881e-10
 85.07412     20.0 1.004e+04 3.869e-10
 85.08754     19.5 1.005e+04 3.967e-10
 85.10180     19.9 1.004e+04 3.958e-10
 85.11522     19.1 1.019e+04 4.555e-10
 85.12948     20.1 1.022e+04 4.604e-10
 85.14290     19.2 1.048e+04 5.538e-10
 85.15716     20.1 1.048e+04 5.539e-10
 85.17058     19.5 1.073e+04 6.304e-10
 85.18485     20.4 1.074e+04 6.291e-10
 85.19826     19.8 1.082e+04 6.331e-10
 85.21253     20.7 1.084e+04 6.316e-10
 85.22594     20.3 1.081e+04 5.774e-10
 85.24021     21.2 1.082e+04 5.807e-10
 85.25363     20.7 1.070e+04 4.568e-10
 85.26789     21.7 1.074e+04 4.646e-10
 85.28131     20.8 1.048e+04 3.337e-10
 85.29557     21.8 1.064e+04 3.477e-10
 85.30899     20.8 1.064e+04 3.286e-10
 85.32325     21.5 1.086e+04 3.660e-10
 85.33667     18.7 1.180e+04 4.476e-10
 85.35075     19.2 1.199e+04 5.228e-10
 85.36435     19.7 1.213e+04 6.268e-10
 85.37777     13.4 1.531e+04 1.626e-09
 85.39203     14.7 1.511e+04 1.779e-09
 85.40237     10.3 1.738e+04 6.078e-09
 85.41476      9.1 1.728e+04 7.472e-09
 85.41971     10.6 1.682e+04 6.433e-09
 85.43313      8.8 1.776e+04 8.478e-09
 85.44739     10.1 1.711e+04 6.218e-09
 85.46081      6.5 1.823e+04 5.047e-09
 85.47508      7.5 1.740e+04 3.570e-09
 85.48849      1.1 1.775e+04 1.940e-09
 85.50276      2.0 1.665e+04 1.266e-09
 85.51617     -5.5 1.330e+04 1.023e-09
 85.53044     -4.1 1.246e+04 7.329e-10
 85.54386     -6.7 1.129e+04 7.819e-10
 85.55812     -4.5 1.097e+04 5.707e-10
 85.57154     -5.8 1.146e+04 7.497e-10
 85.58580     -3.4 1.104e+04 5.048e-10
 85.59922     -4.4 1.116e+04 5.746e-10
 85.61348     -2.6 1.082e+04 3.843e-10
 85.62690     -4.5 1.134e+04 5.236e-10
 85.64116     -3.0 1.104e+04 3.715e-10
 85.65458     -4.0 1.089e+04 4.637e-10
 85.66894     -1.5 1.057e+04 2.872e-10
 85.68236     -4.0 1.096e+04 5.112e-10
 85.69653     -2.7 1.106e+04 4.299e-10
 85.70994     -4.0 1.100e+04 6.011e-10
 85.72421     -2.6 1.116e+04 5.561e-10
 85.73763     -3.7 1.121e+04 7.849e-10
 85.75189     -2.6 1.126e+04 7.784e-10
 85.76531     -3.2 1.129e+04 9.507e-10
 85.77957     -2.0 1.131e+04 1.038e-09
 85.79299     -2.6 1.189e+04 1.029e-09
 85.80694     -1.3 1.206e+04 1.187e-09
 85.82067     -0.2 1.230e+04 1.446e-09
 85.83409     -2.4 1.379e+04 1.453e-09
 85.84835     -1.8 1.454e+04 1.947e-09
 85.86177     -5.1 1.446e+04 1.621e-09
 85.87603     -4.2 1.510e+04 2.269e-09
 85.88945     -6.8 1.286e+04 1.481e-09
 85.90371     -5.4 1.341e+04 1.893e-09
 85.90869     -7.3 1.155e+04 9.921e-10
 85.91925     -7.8 1.148e+04 9.071e-10
 85.94576     -7.8 1.182e+04 6.902e-10
 85.97269    -12.1 9.957e+03 2.499e-10
 86.00122    -12.0 9.831e+03 1.864e-10
 86.02805    -14.4 9.065e+03 1.099e-10
 86.05658    -14.1 8.847e+03 1.101e-10
 86.08341    -14.4 8.629e+03 9.723e-11
 86.11194    -13.2 8.764e+03 1.025e-10
 86.13878    -12.9 8.656e+03 8.405e-11
 86.16730    -12.8 9.192e+03 1.000e-10
 86.19414    -13.2 9.233e+03 8.833e-11
 86.22267    -15.9 9.938e+03 1.927e-10
 86.24950    -17.8 1.035e+04 2.822e-10
 86.27674    -18.0 1.110e+04 9.176e-10
 86.30486    -15.8 1.204e+04 1.641e-09
 86.33170    -15.8 1.256e+04 1.943e-09
 86.36023    -15.6 1.305e+04 1.703e-09
 86.38706    -18.7 1.318e+04 1.474e-09
 86.41559    -22.4 1.266e+04 1.261e-09
 86.44243    -24.5 1.255e+04 1.392e-09
 86.47095    -25.3 1.254e+04 1.543e-09
 86.49779    -26.7 1.236e+04 1.406e-09
 86.52632    -27.2 1.211e+04 1.281e-09
 86.55315    -28.4 1.151e+04 9.371e-10
 86.58168    -28.5 1.110e+04 7.566e-10
 86.60851    -29.0 1.051e+04 5.566e-10
 86.63704    -28.7 1.016e+04 4.557e-10
 86.66388    -28.8 9.791e+03 3.741e-10
 86.69240    -28.0 9.662e+03 3.455e-10
 86.71924    -27.7 9.575e+03 3.265e-10
 86.74777    -27.1 9.779e+03 3.405e-10
 86.77460    -27.3 9.832e+03 3.440e-10
 86.80313    -27.8 1.055e+04 4.872e-10
 86.82996    -28.4 1.072e+04 5.454e-10
 86.85849    -28.7 1.140e+04 9.662e-10
 86.88533    -28.6 1.133e+04 9.645e-10
 86.90159    -27.6 1.181e+04 1.303e-09
 86.92151    -28.1 1.152e+04 1.071e-09
 86.94069    -28.2 1.099e+04 7.102e-10
 86.96922    -28.1 1.103e+04 7.557e-10
 86.99605    -28.6 1.026e+04 4.569e-10
 87.02458    -28.1 1.047e+04 5.904e-10
 87.05141    -27.9 9.921e+03 3.902e-10
 87.07994    -26.7 1.025e+04 5.230e-10
 87.10678    -26.3 9.787e+03 3.334e-10
 87.13531    -25.4 1.003e+04 4.188e-10
 87.18897    -24.4 9.805e+03 3.376e-10
 87.21750    -23.3 1.010e+04 4.275e-10
 87.24434    -23.5 9.714e+03 3.147e-10
 87.27287    -22.6 9.971e+03 3.786e-10
 87.29970    -22.8 9.802e+03 3.294e-10
 87.32823    -22.2 9.994e+03 4.040e-10
 87.35506    -22.2 9.802e+03 3.663e-10
 87.38359    -21.1 9.856e+03 4.399e-10
 87.41043    -21.1 9.690e+03 3.771e-10
 87.43895    -20.4 9.750e+03 3.905e-10
 87.46579    -21.9 1.011e+04 3.976e-10
 87.49432    -23.3 1.092e+04 5.286e-10
 87.52115    -25.8 1.199e+04 1.012e-09
 87.54968    -25.7 1.229e+04 1.444e-09
 87.57651    -27.3 1.296e+04 2.091e-09
 87.60504    -26.6 1.274e+04 1.843e-09
 87.63188    -28.3 1.269e+04 1.777e-09
 87.66040    -28.5 1.189e+04 1.161e-09
 87.68724    -30.2 1.150e+04 9.380e-10
 87.71577    -30.4 1.090e+04 6.570e-10
 87.74260    -31.8 1.052e+04 5.176e-10
 87.77113    -31.1 1.056e+04 5.513e-10
 87.79787    -31.1 1.044e+04 5.069e-10
 87.82639    -31.4 1.031e+04 4.766e-10
 87.85333    -32.3 9.943e+03 3.656e-10
 87.88185    -31.6 9.904e+03 4.233e-10
 87.90560    -32.6 9.759e+03 3.884e-10
 87.91058    -32.7 9.982e+03 4.572e-10
 87.93722    -31.7 1.018e+04 5.243e-10
 87.96395    -32.2 1.010e+04 4.920e-10
 87.99248    -32.2 1.034e+04 4.445e-10
 88.01942    -33.1 1.041e+04 4.685e-10
 88.04784    -33.4 1.021e+04 3.675e-10
 88.10151    -35.0 1.030e+04 3.728e-10
 88.13014    -37.4 1.108e+04 5.549e-10
 88.15698    -39.7 1.189e+04 9.100e-10
 88.18541    -42.5 1.307e+04 1.800e-09
 88.19873    -43.3 1.354e+04 2.388e-09
 88.21299    -44.5 1.458e+04 4.017e-09
 88.22641    -44.8 1.470e+04 4.223e-09
 88.24067    -45.4 1.535e+04 5.933e-09
 88.25409    -45.4 1.504e+04 4.789e-09
 88.26835    -45.9 1.504e+04 4.958e-09
 88.28177    -46.9 1.420e+04 3.112e-09
 88.29603    -48.1 1.378e+04 2.353e-09
 88.30945    -50.1 1.298e+04 1.593e-09
 88.32371    -51.0 1.268e+04 1.096e-09
 88.33713    -52.2 1.225e+04 8.990e-10
 88.35149    -53.5 1.148e+04 5.651e-10
 88.37843    -54.4 1.120e+04 4.662e-10
 88.40695    -55.0 1.058e+04 2.081e-10
 88.43379    -55.4 1.054e+04 2.031e-10
 88.46232    -55.6 1.015e+04 1.219e-10
 88.48915    -55.5 1.023e+04 1.465e-10
 88.51768    -54.8 1.003e+04 1.131e-10
 88.54451    -54.7 1.024e+04 1.515e-10
 88.57304    -53.9 1.014e+04 1.112e-10
 88.59988    -54.4 1.069e+04 2.162e-10
 88.62840    -53.6 1.052e+04 1.336e-10
 88.65524    -54.3 1.137e+04 4.028e-10
 88.68377    -53.8 1.099e+04 2.310e-10
 88.71060    -54.9 1.191e+04 6.168e-10
 88.73913    -54.8 1.151e+04 3.965e-10
 88.76596    -56.0 1.233e+04 9.015e-10
 88.79449    -55.3 1.197e+04 6.911e-10
 88.82133    -56.2 1.267e+04 1.255e-09
 88.84986    -54.9 1.247e+04 9.889e-10
 88.87669    -55.8 1.314e+04 1.648e-09
 88.89273    -54.5 1.328e+04 1.349e-09
 88.91823    -53.0 1.198e+04 5.811e-10
 88.93205    -54.9 1.290e+04 1.024e-09
 88.96022    -54.6 1.300e+04 6.718e-10
 88.98742    -54.8 1.272e+04 4.466e-10
 89.00074    -56.7 1.471e+04 1.701e-09
 89.01490    -56.7 1.452e+04 1.284e-09
 89.02832    -58.0 1.639e+04 2.420e-09
 89.04258    -59.4 1.599e+04 1.341e-09
 89.05600    -61.4 1.958e+04 2.099e-09
 89.07026    -62.3 1.808e+04 2.092e-09
 89.08368    -64.6 1.911e+04 4.587e-09
 89.09795    -64.8 1.734e+04 3.503e-09
 89.11136    -66.9 1.799e+04 5.353e-09
 89.12563    -68.5 1.687e+04 4.081e-09
 89.13904    -70.5 1.708e+04 5.247e-09
 89.15331    -71.5 1.679e+04 5.065e-09
 89.16673    -73.4 1.683e+04 5.397e-09
 89.18099    -74.1 1.678e+04 5.631e-09
 89.19441    -76.3 1.634e+04 4.948e-09
 89.20867    -76.8 1.630e+04 4.955e-09
 89.22209    -79.3 1.549e+04 3.862e-09
 89.23635    -79.9 1.527e+04 3.556e-09
 89.24977    -82.1 1.436e+04 2.820e-09
 89.26403    -83.0 1.405e+04 2.506e-09
 89.27745    -84.4 1.343e+04 2.044e-09
 89.29172    -85.0 1.320e+04 1.817e-09
 89.30513    -86.0 1.262e+04 1.400e-09
 89.31940    -86.5 1.239e+04 1.241e-09
 89.33281    -87.2 1.169e+04 8.944e-10
 89.34708    -87.4 1.141e+04 7.874e-10
 89.36050    -87.7 1.079e+04 5.523e-10
 89.37476    -87.6 1.054e+04 4.768e-10
 89.38818    -87.6 1.017e+04 3.524e-10
 89.39702    -87.5 1.011e+04 3.382e-10
 89.41008    -86.5 1.023e+04 3.671e-10
 89.41586    -86.6 1.006e+04 3.133e-10
 89.43022    -86.7 1.010e+04 3.093e-10
 89.45715    -86.8 9.824e+03 2.476e-10
 89.48568    -86.6 9.748e+03 2.406e-10
 89.51251    -85.9 9.384e+03 1.904e-10
 89.54104    -85.5 9.365e+03 1.894e-10
 89.56788    -84.3 9.122e+03 1.580e-10
 89.59641    -83.9 9.110e+03 1.514e-10
 89.62324    -82.7 8.985e+03 1.339e-10
 89.65177    -82.2 8.986e+03 1.294e-10
 89.67860    -81.0 8.922e+03 1.196e-10
 89.70713    -80.4 8.927e+03 1.168e-10
 89.73397    -79.2 8.853e+03 1.075e-10
 89.76249    -78.4 8.829e+03 1.051e-10
 89.78933    -77.3 8.726e+03 9.359e-11
 89.81786    -76.2 8.702e+03 9.048e-11
 89.84469    -75.0 8.604e+03 7.876e-11
 89.87260    -73.8 8.613e+03 7.455e-11
 89.90005    -72.6 8.653e+03 7.335e-11
 89.90232    -71.4 8.520e+03 6.138e-11
 89.92854    -70.7 8.534e+03 6.408e-11
 89.95542    -69.5 8.692e+03 6.504e-11
 89.98225    -68.3 8.533e+03 5.710e-11
 90.01078    -67.4 8.722e+03 6.705e-11
 90.03761    -66.0 8.616e+03 5.927e-11
 90.06614    -65.0 8.686e+03 7.789e-11
 90.09298    -63.6 8.624e+03 6.922e-11
 90.12150    -62.4 8.725e+03 9.110e-11
 90.14834    -61.1 8.694e+03 8.224e-11
 90.17687    -59.8 8.800e+03 1.082e-10
 90.20370    -58.7 8.798e+03 1.018e-10
 90.23223    -57.4 8.942e+03 1.344e-10
 90.25906    -56.3 8.948e+03 1.325e-10
 90.28759    -55.1 9.197e+03 1.752e-10
 90.31443    -54.0 9.196e+03 1.755e-10
 90.34295    -52.7 9.418e+03 2.150e-10
 90.36979    -51.7 9.367e+03 2.057e-10
 90.39832    -50.4 9.459e+03 2.219e-10
 90.42515    -49.5 9.409e+03 1.957e-10
 90.45368    -48.3 9.654e+03 1.861e-10
 90.48052    -48.0 9.782e+03 1.792e-10
 90.50904    -48.1 1.023e+04 2.114e-10
 90.53588    -48.4 1.043e+04 2.690e-10
 90.56441    -47.9 1.064e+04 4.236e-10
 90.59124    -47.6 1.072e+04 5.042e-10
 90.61977    -46.7 1.093e+04 5.967e-10
 90.64660    -46.5 1.087e+04 5.576e-10
 90.67513    -45.9 1.097e+04 5.635e-10
 90.70197    -45.8 1.078e+04 4.567e-10
 90.73049    -46.0 1.090e+04 4.652e-10
 90.75733    -46.2 1.080e+04 4.055e-10
 90.78499    -46.8 1.093e+04 5.115e-10
 90.81269    -47.0 1.115e+04 6.833e-10
 90.83953    -47.0 1.124e+04 6.199e-10
 90.86796    -46.6 1.165e+04 5.991e-10
 90.88128    -47.4 1.176e+04 5.977e-10
 90.89554    -49.5 1.245e+04 7.003e-10
 90.90049    -50.6 1.252e+04 8.042e-10
 90.91050    -49.3 1.242e+04 7.612e-10
 90.92322    -50.4 1.221e+04 9.754e-10
 90.93664    -50.6 1.211e+04 1.083e-09
 90.95090    -50.3 1.211e+04 1.209e-09
 90.96432    -50.1 1.208e+04 1.179e-09
 90.97858    -49.6 1.213e+04 1.068e-09
 90.99200    -49.5 1.229e+04 7.826e-10
 91.00627    -49.7 1.204e+04 6.174e-10
 91.01968    -50.5 1.205e+04 4.703e-10
 91.03395    -50.8 1.154e+04 4.136e-10
 91.04736    -51.5 1.158e+04 3.801e-10
 91.06163    -51.2 1.148e+04 3.556e-10
 91.07505    -51.6 1.163e+04 3.544e-10
 91.08931    -51.2 1.201e+04 3.390e-10
 91.10273    -52.0 1.206e+04 4.183e-10
 91.11699    -51.8 1.191e+04 4.457e-10
 91.13041    -52.0 1.191e+04 6.147e-10
 91.14467    -51.3 1.198e+04 6.516e-10
 91.15809    -51.3 1.206e+04 8.649e-10
 91.17235    -50.4 1.222e+04 8.551e-10
 91.18577    -50.4 1.243e+04 9.936e-10
 91.20003    -49.6 1.246e+04 8.873e-10
 91.21345    -49.7 1.255e+04 9.316e-10
 91.22757    -49.4 1.259e+04 8.209e-10
 91.24113    -49.7 1.301e+04 6.495e-10
 91.25455    -49.9 1.290e+04 6.546e-10
 91.26881    -50.2 1.290e+04 6.045e-10
 91.28223    -49.9 1.255e+04 5.614e-10
 91.29650    -49.3 1.177e+04 6.603e-10
 91.30991    -48.9 1.181e+04 4.798e-10
 91.32418    -48.4 1.186e+04 4.721e-10
 91.33769    -48.9 1.191e+04 3.631e-10
 91.36632    -47.5 1.185e+04 3.538e-10
 91.39315    -47.6 1.165e+04 2.703e-10
 91.42168    -46.2 1.152e+04 2.527e-10
 91.44852    -45.9 1.142e+04 2.407e-10
 91.47704    -44.0 1.132e+04 2.016e-10
 91.50388    -43.3 1.132e+04 1.991e-10
 91.53241    -42.1 1.147e+04 1.562e-10
 91.55924    -41.6 1.149e+04 1.570e-10
 91.58777    -40.5 1.151e+04 1.512e-10
 91.61460    -40.3 1.154e+04 1.858e-10
 91.64313    -39.5 1.167e+04 2.391e-10
 91.66997    -39.0 1.172e+04 3.601e-10
 91.69737    -37.8 1.192e+04 4.736e-10
 91.72523    -37.0 1.204e+04 6.109e-10
 91.73855    -36.7 1.216e+04 6.850e-10
 91.75281    -36.3 1.228e+04 7.126e-10
 91.76623    -36.3 1.230e+04 7.365e-10
 91.78059    -35.6 1.226e+04 7.341e-10
 91.80753    -35.6 1.233e+04 7.688e-10
 91.83605    -34.7 1.231e+04 8.012e-10
 91.86289    -34.7 1.227e+04 7.713e-10
 91.89142    -33.5 1.222e+04 7.728e-10
 91.89905    -33.1 1.199e+04 5.904e-10
 91.91968    -33.2 1.199e+04 5.679e-10
 91.94678    -31.8 1.205e+04 5.876e-10
 91.97361    -31.4 1.181e+04 4.049e-10
 92.00214    -30.2 1.191e+04 4.437e-10
 92.02898    -29.8 1.176e+04 3.411e-10
 92.05751    -28.6 1.185e+04 3.953e-10
 92.08434    -28.0 1.180e+04 3.655e-10
 92.11287    -26.9 1.187e+04 4.133e-10
 92.13970    -26.4 1.187e+04 4.121e-10
 92.16823    -25.6 1.201e+04 4.767e-10
 92.19507    -25.4 1.208e+04 5.138e-10
 92.22359    -25.1 1.232e+04 6.718e-10
 92.25043    -25.1 1.240e+04 7.320e-10
 92.27896    -25.1 1.280e+04 1.052e-09
 92.30579    -25.3 1.281e+04 1.085e-09
 92.31996    -25.4 1.295e+04 1.254e-09
 92.33328    -25.3 1.287e+04 1.199e-09
 92.34754    -25.1 1.280e+04 1.192e-09
 92.36096    -25.0 1.271e+04 1.093e-09
 92.37522    -24.8 1.260e+04 9.989e-10
 92.38864    -24.9 1.257e+04 9.432e-10
 92.39714    -24.9 1.253e+04 8.236e-10
 92.40516    -24.7 1.261e+04 9.065e-10
 92.41632    -24.9 1.262e+04 9.008e-10
 92.43058    -25.4 1.265e+04 7.861e-10
 92.44400    -25.8 1.275e+04 8.494e-10
 92.45827    -26.2 1.273e+04 8.556e-10
 92.47168    -26.3 1.277e+04 9.257e-10
 92.48595    -26.8 1.282e+04 1.014e-09
 92.49936    -26.7 1.282e+04 1.031e-09
 92.51363    -26.7 1.284e+04 1.091e-09
 92.52714    -26.7 1.276e+04 1.011e-09
 92.55577    -26.5 1.279e+04 1.089e-09
 92.58260    -26.2 1.241e+04 7.212e-10
 92.60975    -25.9 1.226e+04 6.269e-10
 92.63797    -25.5 1.212e+04 5.555e-10
 92.66480    -25.2 1.180e+04 3.510e-10
 92.69333    -24.4 1.170e+04 3.730e-10
 92.72016    -23.5 1.147e+04 2.888e-10
 92.74869    -22.2 1.140e+04 3.121e-10
 92.77553    -21.1 1.126e+04 2.596e-10
 92.80405    -19.7 1.124e+04 2.622e-10
 92.83089    -18.6 1.114e+04 2.257e-10
 92.85942    -17.2 1.114e+04 2.256e-10
 92.88314    -16.2 1.105e+04 2.114e-10
 92.90183    -16.0 1.123e+04 2.519e-10
 92.91478    -14.7 1.126e+04 2.540e-10
 92.94161    -13.7 1.125e+04 2.530e-10
 92.97014    -12.3 1.124e+04 2.466e-10
 92.99698    -11.6 1.121e+04 2.928e-10
 93.02551    -10.2 1.118e+04 2.788e-10
 93.05234     -9.4 1.121e+04 3.702e-10
 93.08087     -8.0 1.117e+04 3.461e-10
 93.10770     -7.1 1.129e+04 4.653e-10
 93.13623     -5.7 1.124e+04 4.258e-10
 93.16307     -4.9 1.139e+04 5.359e-10
 93.19159     -3.5 1.131e+04 4.761e-10
 93.21843     -2.9 1.137e+04 5.318e-10
 93.24696     -1.6 1.128e+04 4.667e-10
 93.27379     -1.1 1.128e+04 4.738e-10
 93.30232      0.3 1.119e+04 4.332e-10
 93.32915      0.8 1.100e+04 4.026e-10
 93.35768      2.3 1.101e+04 4.004e-10
 93.38452      2.8 1.080e+04 3.181e-10
 93.41304      4.2 1.083e+04 3.254e-10
 93.43988      4.7 1.061e+04 2.465e-10
 93.46841      6.0 1.066e+04 2.673e-10
 93.52208      7.7 1.055e+04 2.662e-10
 93.55060      8.8 1.064e+04 2.987e-10
 93.57744      9.3 1.060e+04 2.993e-10
 93.60597     10.2 1.063e+04 3.094e-10
 93.63280     10.5 1.064e+04 3.423e-10
 93.66133     11.3 1.059e+04 3.238e-10
 93.68816     11.6 1.059e+04 3.373e-10
 93.71669     12.4 1.046e+04 2.934e-10
 93.74353     12.9 1.034e+04 2.700e-10
 93.77206     13.6 1.024e+04 2.296e-10
 93.79889     14.1 1.012e+04 1.971e-10
 93.82742     14.9 1.006e+04 1.877e-10
 93.85425     15.6 9.940e+03 1.655e-10
 93.88278     16.6 9.914e+03 1.686e-10
 93.89577     17.4 9.815e+03 1.493e-10
 93.91081     17.7 9.813e+03 1.493e-10
 93.93814     18.8 9.827e+03 1.561e-10
 93.96498     19.6 9.744e+03 1.405e-10
 93.99351     20.6 9.786e+03 1.461e-10
 94.02034     21.2 9.734e+03 1.374e-10
 94.04887     21.7 9.859e+03 1.546e-10
 94.07570     22.2 9.848e+03 1.534e-10
 94.10423     22.5 1.001e+04 1.938e-10
 94.13107     23.1 9.959e+03 1.924e-10
 94.15959     23.3 1.008e+04 2.256e-10
 94.18643     23.9 9.992e+03 2.155e-10
 94.21496     23.8 1.000e+04 2.145e-10
 94.24179     24.7 9.916e+03 2.044e-10
 94.27032     24.4 9.895e+03 1.886e-10
 94.29715     25.4 9.842e+03 1.795e-10
 94.32568     25.0 9.860e+03 1.710e-10
 94.35252     26.0 9.853e+03 1.686e-10
 94.38085     25.4 9.914e+03 1.709e-10
 94.40788     24.6 1.013e+04 1.839e-10
 94.43471     25.5 1.016e+04 2.061e-10
 94.46324     24.7 1.038e+04 2.432e-10
 94.49008     25.8 1.035e+04 2.621e-10
 94.51860     24.5 1.062e+04 3.203e-10
 94.54544     25.7 1.060e+04 3.311e-10
 94.57397     24.1 1.081e+04 4.145e-10
 94.60080     25.3 1.082e+04 4.343e-10
 94.62923     24.6 1.099e+04 4.937e-10
 94.65607     24.7 1.115e+04 5.676e-10
 94.68460     24.2 1.126e+04 5.742e-10
 94.71143     24.2 1.130e+04 6.070e-10
 94.74006     22.6 1.117e+04 4.652e-10
 94.76689     23.2 1.110e+04 4.697e-10
 94.79542     21.1 1.083e+04 2.860e-10
 94.82225     21.3 1.084e+04 2.657e-10
 94.85078     19.0 1.042e+04 2.130e-10
 94.87762     19.3 1.040e+04 2.171e-10
 94.89296     18.7 1.021e+04 1.993e-10
 94.90839     19.5 1.020e+04 1.862e-10
 94.93298     20.0 1.011e+04 1.734e-10
 94.96151     20.4 9.900e+03 1.347e-10
 94.98834     21.2 9.823e+03 1.128e-10
 95.01687     21.6 9.777e+03 7.006e-11
 95.04370     22.0 9.844e+03 6.220e-11
 95.07223     21.9 9.659e+03 4.508e-11
 95.09907     22.1 9.718e+03 4.943e-11
 95.12759     22.7 9.667e+03 4.967e-11
 95.15443     23.0 9.670e+03 8.465e-11
 95.18296     23.9 9.666e+03 9.010e-11
 95.20979     24.3 9.852e+03 1.692e-10
 95.23832     24.5 1.010e+04 2.142e-10
 95.26515     24.6 1.060e+04 4.116e-10
 95.29323     24.5 1.146e+04 7.371e-10
 95.32052     23.3 1.254e+04 1.240e-09
 95.33384     22.7 1.280e+04 1.509e-09
 95.34800     21.3 1.374e+04 2.300e-09
 95.36142     20.6 1.404e+04 2.677e-09
 95.37568     19.9 1.448e+04 3.690e-09
 95.38598     19.1 1.446e+04 3.389e-09
 95.39725     19.5 1.454e+04 3.392e-09
 95.40337     18.5 1.452e+04 3.282e-09
 95.41678     16.8 1.417e+04 2.575e-09
 95.43105     15.0 1.371e+04 1.846e-09
 95.45798     12.0 1.287e+04 1.308e-09
 95.48651     10.2 1.224e+04 9.612e-10
 95.49983      8.8 1.179e+04 8.238e-10
 95.51409      8.0 1.135e+04 6.832e-10
 95.52751      7.5 1.114e+04 5.957e-10
 95.54177      7.0 1.083e+04 5.001e-10
 95.56871      6.0 1.054e+04 3.913e-10
 95.59733      6.2 1.033e+04 3.505e-10
 95.62417      5.8 1.012e+04 2.693e-10
 95.65269      6.3 1.004e+04 2.649e-10
 95.67953      6.0 9.901e+03 2.310e-10
 95.70806      6.8 9.874e+03 2.320e-10
 95.73489      6.8 9.781e+03 2.150e-10
 95.76342      7.6 9.762e+03 2.095e-10
 95.79025      7.6 9.663e+03 1.878e-10
 95.81878      8.3 9.626e+03 1.773e-10
 95.84562      8.4 9.496e+03 1.536e-10
 95.87414      9.0 9.462e+03 1.482e-10
 95.89249      9.3 9.355e+03 1.246e-10
 95.90194     10.0 9.370e+03 1.349e-10
 95.92951     10.8 9.363e+03 1.291e-10
 95.95634     11.1 9.304e+03 1.045e-10
 95.98487     11.7 9.333e+03 9.585e-11
 96.01170     11.7 9.306e+03 8.163e-11
 96.04023     12.1 9.368e+03 8.262e-11
 96.06707     11.9 9.370e+03 8.173e-11
 96.09559     11.9 9.543e+03 9.870e-11
 96.12243     11.7 9.616e+03 1.239e-10
 96.15096     11.7 9.824e+03 1.800e-10
 96.17779     11.6 9.986e+03 2.265e-10
 96.20561     11.7 1.023e+04 2.974e-10
 96.23316     11.6 1.047e+04 3.361e-10
 96.25999     11.3 1.074e+04 3.590e-10
 96.28852     10.7 1.082e+04 3.407e-10
 96.30184      9.2 1.130e+04 3.990e-10
 96.31600      9.1 1.131e+04 3.989e-10
 96.32942      8.9 1.136e+04 4.101e-10
 96.34378      8.3 1.141e+04 3.847e-10
 96.35720      6.5 1.177e+04 6.054e-10
 96.37137      6.3 1.175e+04 6.059e-10
 96.38434      5.7 1.193e+04 7.294e-10
 96.39282      6.4 1.193e+04 7.270e-10
 96.39915      6.4 1.165e+04 5.873e-10
 96.41256      5.8 1.210e+04 9.559e-10
 96.42673      5.7 1.195e+04 8.290e-10
 96.44015      4.9 1.223e+04 9.950e-10
 96.45441      4.3 1.215e+04 9.095e-10
 96.46783      3.4 1.237e+04 1.057e-09
 96.48209      2.8 1.226e+04 1.062e-09
 96.49551      1.9 1.236e+04 1.204e-09
 96.50977      1.7 1.222e+04 1.234e-09
 96.52319      1.2 1.226e+04 1.304e-09
 96.53745      1.3 1.212e+04 1.258e-09
 96.55087      0.9 1.212e+04 1.261e-09
 96.56514      0.9 1.195e+04 1.165e-09
 96.57855      0.2 1.197e+04 1.114e-09
 96.59282      0.0 1.179e+04 1.017e-09
 96.60623     -1.2 1.192e+04 1.007e-09
 96.62050     -1.4 1.181e+04 9.494e-10
 96.63392     -3.1 1.228e+04 1.104e-09
 96.64818     -2.9 1.217e+04 1.085e-09
 96.67501     -3.9 1.253e+04 1.440e-09
 96.68928     -3.3 1.231e+04 1.286e-09
 96.70270     -4.4 1.292e+04 1.864e-09
 96.71696     -3.9 1.271e+04 1.569e-09
 96.73038     -5.3 1.352e+04 2.318e-09
 96.74464     -5.2 1.340e+04 1.963e-09
 96.75806     -6.9 1.433e+04 3.031e-09
 96.77232     -7.0 1.427e+04 2.745e-09
 96.78574     -8.6 1.506e+04 4.202e-09
 96.80000     -8.7 1.505e+04 4.075e-09
 96.81342     -9.8 1.553e+04 5.359e-09
 96.82769     -9.7 1.567e+04 5.509e-09
 96.84110    -10.5 1.583e+04 5.975e-09
 96.85537    -10.7 1.606e+04 6.457e-09
 96.86878    -11.4 1.597e+04 6.326e-09
 96.88305    -11.5 1.626e+04 7.221e-09
 96.89065    -12.1 1.558e+04 5.258e-09
 96.89731    -12.9 1.629e+04 6.721e-09
 96.91073    -12.9 1.668e+04 8.310e-09
 96.92415    -13.9 1.519e+04 4.198e-09
 96.93841    -13.6 1.532e+04 4.855e-09
 96.95183    -14.9 1.358e+04 2.427e-09
 96.96609    -14.5 1.373e+04 2.762e-09
 96.97951    -15.7 1.256e+04 1.683e-09
 96.99377    -15.4 1.281e+04 1.958e-09
 97.00719    -16.1 1.222e+04 1.431e-09
 97.02145    -15.7 1.246e+04 1.694e-09
 97.03487    -16.3 1.214e+04 1.360e-09
 97.06350    -16.5 1.248e+04 1.604e-09
 97.09043    -17.7 1.240e+04 1.470e-09
 97.10448    -17.2 1.308e+04 2.076e-09
 97.11792    -17.3 1.356e+04 2.550e-09
 97.13133    -18.7 1.381e+04 2.860e-09
 97.14560    -18.8 1.399e+04 3.099e-09
 97.15902    -19.9 1.412e+04 3.295e-09
 97.17328    -20.0 1.405e+04 3.201e-09
 97.18670    -21.1 1.402e+04 3.209e-09
 97.20096    -21.2 1.376e+04 2.897e-09
 97.21438    -22.4 1.330e+04 2.402e-09
 97.22864    -22.7 1.296e+04 2.083e-09
 97.24206    -24.0 1.221e+04 1.436e-09
 97.25632    -24.3 1.191e+04 1.286e-09
 97.26974    -25.6 1.110e+04 8.431e-10
 97.28400    -25.6 1.097e+04 8.174e-10
 97.29742    -26.6 1.033e+04 5.477e-10
 97.31169    -26.3 1.037e+04 5.589e-10
 97.32510    -27.3 9.911e+03 4.030e-10
 97.33937    -27.0 9.929e+03 4.213e-10
 97.35278    -27.8 9.800e+03 3.596e-10
 97.36705    -27.1 9.835e+03 3.800e-10
 97.39398    -27.6 9.875e+03 3.675e-10
 97.42261    -26.7 9.935e+03 3.831e-10
 97.44944    -27.3 9.829e+03 3.336e-10
 97.47797    -26.3 9.881e+03 3.350e-10
 97.50480    -26.7 9.702e+03 2.842e-10
 97.53333    -26.2 9.860e+03 3.113e-10
 97.56017    -26.9 9.843e+03 3.030e-10
 97.58869    -26.9 1.024e+04 4.065e-10
 97.61553    -28.1 1.062e+04 5.001e-10
 97.64406    -28.3 1.117e+04 7.404e-10
 97.67089    -28.9 1.141e+04 8.266e-10
 97.69942    -28.8 1.169e+04 9.637e-10
 97.72616    -29.8 1.175e+04 9.127e-10
 97.74032    -30.2 1.174e+04 8.780e-10
 97.75374    -32.0 1.175e+04 8.629e-10
 97.76800    -33.6 1.205e+04 8.875e-10
 97.78142    -36.7 1.302e+04 1.166e-09
 97.79569    -39.4 1.399e+04 1.781e-09
 97.80910    -41.1 1.461e+04 2.843e-09
 97.82337    -42.2 1.533e+04 4.464e-09
 97.83678    -42.6 1.562e+04 5.435e-09
 97.85105    -43.1 1.607e+04 6.684e-09
 97.86447    -43.7 1.594e+04 6.489e-09
 97.87873    -44.2 1.574e+04 6.066e-09
 97.88902    -44.9 1.507e+04 4.402e-09
 97.89288    -45.9 1.502e+04 4.013e-09
 97.90641    -47.7 1.471e+04 3.272e-09
 97.91983    -49.9 1.384e+04 2.164e-09
 97.93409    -53.1 1.398e+04 2.292e-09
 97.94751    -55.3 1.342e+04 1.854e-09
 97.96177    -58.0 1.404e+04 2.693e-09
 97.97519    -58.9 1.379e+04 2.540e-09
 97.98946    -60.1 1.427e+04 3.463e-09
 98.00287    -60.3 1.397e+04 2.938e-09
 98.01677    -61.7 1.409e+04 2.908e-09
 98.03055    -63.5 1.400e+04 2.554e-09
 98.04397    -64.4 1.338e+04 1.779e-09
 98.05824    -67.8 1.281e+04 1.390e-09
 98.07165    -69.8 1.217e+04 1.007e-09
 98.08592    -73.9 1.199e+04 9.745e-10
 98.09933    -75.3 1.166e+04 8.488e-10
 98.11360    -77.5 1.142e+04 9.696e-10
 98.12702    -77.4 1.108e+04 9.022e-10
 98.14128    -77.9 1.103e+04 1.020e-09
 98.15470    -77.3 1.085e+04 9.116e-10
 98.16896    -77.6 1.093e+04 8.843e-10
 98.18238    -77.2 1.078e+04 7.456e-10
 98.19664    -78.6 1.117e+04 7.006e-10
 98.21006    -79.1 1.135e+04 6.472e-10
 98.22432    -83.1 1.181e+04 6.983e-10
 98.25126    -84.8 1.191e+04 7.586e-10
 98.27988    -86.6 1.149e+04 1.046e-09
 98.30672    -87.0 1.219e+04 1.454e-09
 98.33524    -89.4 1.204e+04 9.374e-10
 98.36208    -90.5 1.212e+04 9.451e-10
 98.39061    -95.1 1.127e+04 6.269e-10
 98.41744    -96.1 1.092e+04 4.953e-10
 98.44597    -99.0 1.053e+04 4.176e-10
 98.47280    -99.3 1.014e+04 3.070e-10
 98.50133   -101.0 9.947e+03 2.791e-10
 98.52817   -100.5 9.857e+03 2.191e-10
 98.54233   -100.9 1.027e+04 2.196e-10
 98.55565   -100.8 1.032e+04 2.112e-10
 98.56992   -101.9 1.074e+04 2.261e-10
 98.58333   -103.1 1.162e+04 2.326e-10
 98.59760   -110.0 1.350e+04 5.725e-10
 98.61102   -112.1 1.391e+04 8.846e-10
 98.62528   -114.7 1.386e+04 2.137e-09
 98.63870   -115.2 1.436e+04 3.036e-09
 98.65296   -115.5 1.500e+04 4.033e-09
 98.66638   -115.7 1.536e+04 4.482e-09
 98.68064   -116.7 1.535e+04 3.545e-09
 98.69406   -117.7 1.534e+04 2.743e-09
 98.70832   -121.6 1.407e+04 1.153e-09
 98.72174   -124.4 1.340e+04 8.285e-10
 98.73601   -128.2 1.245e+04 5.579e-10
 98.74942   -130.2 1.247e+04 5.494e-10
 98.76369   -132.4 1.263e+04 5.206e-10
 98.77710   -135.1 1.314e+04 7.019e-10
 98.79137   -137.5 1.350e+04 9.918e-10
 98.80479   -139.2 1.366e+04 1.486e-09
 98.81905   -140.7 1.386e+04 1.887e-09
 98.83247   -141.6 1.387e+04 2.222e-09
 98.84673   -142.9 1.389e+04 2.181e-09
 98.86015   -143.6 1.367e+04 2.078e-09
 98.87441   -145.3 1.348e+04 1.656e-09
 98.88738   -146.5 1.318e+04 1.308e-09
 98.88845   -147.0 1.340e+04 1.432e-09
 98.90209   -149.9 1.299e+04 1.173e-09
 98.91551   -151.5 1.254e+04 9.912e-10
 98.92915   -153.5 1.219e+04 9.544e-10
 98.94319   -154.8 1.197e+04 9.533e-10
 98.95661   -155.1 1.185e+04 9.470e-10
 98.97087   -155.6 1.179e+04 9.489e-10
 98.98429   -155.6 1.176e+04 9.594e-10
 98.99855   -155.9 1.158e+04 8.938e-10
 99.01197   -155.8 1.155e+04 9.168e-10
 99.02624   -156.1 1.132e+04 7.217e-10
 99.03965   -155.9 1.130e+04 7.269e-10
 99.05392   -156.5 1.099e+04 5.364e-10
 99.06733   -156.2 1.094e+04 5.386e-10
 99.08160   -156.9 1.052e+04 4.214e-10
 99.09502   -156.4 1.050e+04 4.232e-10
 99.10928   -156.4 1.029e+04 3.708e-10
 99.12270   -156.0 1.030e+04 3.740e-10
 99.13706   -155.9 1.026e+04 3.498e-10
 99.16399   -154.5 1.039e+04 3.625e-10
 99.19252   -154.5 1.042e+04 3.492e-10
 99.20584   -153.0 1.048e+04 3.610e-10
 99.22001   -153.2 1.053e+04 3.641e-10
 99.23342   -153.3 1.059e+04 3.707e-10
 99.24769   -154.0 1.068e+04 4.123e-10
 99.26110   -154.0 1.071e+04 4.174e-10
 99.27537   -154.4 1.072e+04 4.702e-10
 99.28879   -154.4 1.075e+04 4.643e-10
 99.30305   -154.6 1.076e+04 5.086e-10
 99.31647   -154.8 1.079e+04 5.012e-10
 99.33073   -154.9 1.079e+04 5.380e-10
 99.34415   -155.1 1.086e+04 5.363e-10
 99.35841   -155.3 1.085e+04 5.686e-10
 99.37942   -155.7 1.094e+04 6.375e-10
 99.39294   -156.4 1.095e+04 6.526e-10
 99.39951   -156.6 1.101e+04 7.071e-10
 99.41293   -157.0 1.128e+04 8.392e-10
 99.42719   -157.5 1.164e+04 9.946e-10
 99.44061   -158.1 1.226e+04 1.337e-09
 99.45487   -158.8 1.286e+04 1.723e-09
 99.46829   -159.1 1.351e+04 2.449e-09
 99.48255   -159.3 1.394e+04 3.096e-09
 99.49597   -159.2 1.461e+04 4.278e-09
 99.51024   -160.2 1.570e+04 5.340e-09
 99.52365   -161.2 1.758e+04 7.466e-09
 99.53792   -166.3 1.982e+04 1.021e-08
 99.54458   -165.9 2.021e+04 1.133e-08
 99.55166   -167.0 2.063e+04 1.224e-08
 99.55837   -168.3 2.143e+04 1.380e-08
 99.56550   -171.7 2.254e+04 1.861e-08
 99.57221   -173.9 2.359e+04 2.484e-08
 99.57934   -177.1 2.404e+04 3.549e-08
 99.58605   -179.3 2.420e+04 4.698e-08
 99.59318   -181.8 2.406e+04 5.890e-08
 99.60660   -186.1 2.361e+04 6.637e-08
 99.61373   -187.8 2.313e+04 5.725e-08
 99.62044   -188.8 2.265e+04 4.943e-08
 99.62757   -190.3 2.230e+04 3.315e-08
 99.63248   -191.5 2.201e+04 2.573e-08
 99.63838   -193.3 2.188e+04 2.201e-08
 99.64141   -196.0 2.075e+04 1.269e-08
 99.64812   -198.3 1.963e+04 9.372e-09
 99.65525   -201.4 1.748e+04 5.553e-09
 99.66196   -203.2 1.633e+04 4.623e-09
 99.66909   -204.6 1.526e+04 3.512e-09
 99.67580   -205.1 1.507e+04 3.388e-09
 99.68294   -205.1 1.496e+04 3.141e-09
 99.68969   -205.3 1.490e+04 3.241e-09
 99.70401   -206.5 1.432e+04 2.336e-09
 99.71742   -207.7 1.399e+04 2.321e-09
 99.73169   -209.6 1.320e+04 1.748e-09
 99.74510   -209.7 1.315e+04 1.977e-09
 99.75937   -210.3 1.270e+04 1.864e-09
 99.77279   -209.8 1.292e+04 2.101e-09
 99.78705   -209.7 1.279e+04 2.144e-09
 99.80047   -209.3 1.297e+04 2.307e-09
 99.81470   -209.1 1.294e+04 2.382e-09
 99.84153   -208.6 1.292e+04 2.495e-09
 99.85583   -208.2 1.254e+04 2.160e-09
 99.86925   -208.1 1.267e+04 2.309e-09
 99.88351   -207.7 1.226e+04 1.846e-09
 99.88574   -207.5 1.236e+04 2.000e-09
 99.89743   -207.9 1.223e+04 1.847e-09
 99.91119   -207.6 1.176e+04 1.361e-09
 99.92461   -207.3 1.188e+04 1.531e-09
 99.93887   -206.9 1.144e+04 1.103e-09
 99.95229   -206.6 1.155e+04 1.254e-09
 99.96655   -206.4 1.113e+04 9.087e-10
 99.97997   -206.0 1.123e+04 1.032e-09
 99.99424   -205.9 1.081e+04 7.645e-10
100.00765   -205.3 1.093e+04 8.733e-10
