# Columns:
#   distance along LOS (in CHIMPs)
#   peculiar velocity  (in km/s)
#   temperature (K)
#   HI number density
# pos=(76.2977,106.546,54.4394), angles=(0.231013,4.74678)
  0.00506   -114.6 9.401e+03 2.865e-10
  0.02084   -112.8 9.595e+03 3.201e-10
  0.04091   -113.3 1.001e+04 4.620e-10
  0.07031   -112.4 1.053e+04 6.012e-10
  0.11044   -112.3 1.120e+04 8.048e-10
  0.15057   -112.6 1.195e+04 1.113e-09
  0.18645   -113.9 1.268e+04 1.586e-09
  0.20642   -114.7 1.315e+04 2.174e-09
  0.22060   -115.1 1.328e+04 2.291e-09
  0.24066   -115.5 1.331e+04 2.301e-09
  0.26073   -116.1 1.327e+04 2.216e-09
  0.27910   -116.8 1.318e+04 2.048e-09
  0.28913   -117.6 1.264e+04 1.553e-09
  0.30085   -118.5 1.239e+04 1.345e-09
  0.32092   -119.5 1.215e+04 1.171e-09
  0.34098   -120.4 1.193e+04 1.030e-09
  0.36105   -121.3 1.175e+04 9.166e-10
  0.37193   -122.0 1.162e+04 8.360e-10
  0.38197   -122.5 1.149e+04 7.873e-10
  0.40117   -123.0 1.147e+04 7.665e-10
  0.42124   -123.3 1.147e+04 7.591e-10
  0.44130   -123.5 1.148e+04 7.582e-10
  0.45474   -123.7 1.160e+04 7.689e-10
  0.46477   -124.0 1.162e+04 8.114e-10
  0.48143   -124.1 1.173e+04 8.590e-10
  0.50150   -124.1 1.184e+04 9.219e-10
  0.52156   -124.0 1.196e+04 9.959e-10
  0.53754   -124.0 1.204e+04 1.057e-09
  0.54758   -124.0 1.220e+04 1.142e-09
  0.56169   -123.9 1.222e+04 1.152e-09
  0.58175   -123.8 1.218e+04 1.151e-09
  0.60182   -123.5 1.202e+04 1.087e-09
  0.62035   -123.2 1.182e+04 9.653e-10
  0.63038   -123.2 1.196e+04 1.057e-09
  0.64195   -122.9 1.177e+04 9.271e-10
  0.66201   -122.7 1.149e+04 7.574e-10
  0.68207   -122.5 1.131e+04 6.537e-10
  0.70214   -122.4 1.116e+04 5.902e-10
  0.71319   -122.4 1.110e+04 5.712e-10
  0.72322   -122.1 1.133e+04 6.043e-10
  0.74227   -122.2 1.129e+04 5.864e-10
  0.76233   -122.8 1.139e+04 5.993e-10
  0.78240   -123.6 1.155e+04 6.746e-10
  0.79599   -124.3 1.172e+04 7.781e-10
  0.80602   -124.7 1.295e+04 1.045e-09
  0.82252   -125.3 1.299e+04 1.167e-09
  0.84259   -125.8 1.292e+04 1.233e-09
  0.86265   -126.3 1.278e+04 1.249e-09
  0.87880   -126.8 1.257e+04 1.237e-09
  0.88883   -126.6 1.319e+04 1.603e-09
  0.90278   -127.2 1.281e+04 1.423e-09
  0.92285   -127.7 1.250e+04 1.296e-09
  0.94291   -128.0 1.224e+04 1.198e-09
  0.96160   -128.2 1.201e+04 1.106e-09
  0.97163   -128.2 1.225e+04 1.243e-09
  0.98304   -128.6 1.200e+04 1.138e-09
  1.00310   -128.9 1.183e+04 1.045e-09
  1.02317   -129.4 1.167e+04 9.689e-10
  1.04323   -130.0 1.152e+04 9.093e-10
  1.05444   -130.6 1.137e+04 8.664e-10
  1.06447   -130.7 1.160e+04 9.812e-10
  1.08336   -131.4 1.145e+04 9.521e-10
  1.10342   -132.1 1.136e+04 9.444e-10
  1.12349   -132.6 1.133e+04 9.495e-10
  1.13724   -132.9 1.136e+04 9.792e-10
  1.14728   -133.3 1.159e+04 1.134e-09
  1.16362   -133.4 1.160e+04 1.156e-09
  1.18368   -133.4 1.157e+04 1.158e-09
  1.20375   -133.2 1.135e+04 1.095e-09
  1.22005   -132.8 1.106e+04 9.605e-10
  1.23008   -132.9 1.108e+04 9.794e-10
  1.24387   -132.3 1.071e+04 7.948e-10
  1.26394   -131.5 1.031e+04 6.154e-10
  1.28400   -130.7 9.942e+03 4.671e-10
  1.31420   -130.0 9.651e+03 3.563e-10
  1.35442   -129.2 9.341e+03 2.705e-10
  1.38585   -127.7 8.952e+03 1.965e-10
  1.40592   -127.4 9.295e+03 2.536e-10
  1.43468   -126.4 9.401e+03 2.588e-10
  1.47481   -126.0 9.722e+03 3.175e-10
  1.51494   -125.7 9.950e+03 4.115e-10
  1.55146   -125.3 1.003e+04 4.859e-10
  1.57153   -125.3 1.085e+04 8.319e-10
  1.59519   -124.9 1.057e+04 7.687e-10
  1.63532   -124.2 1.001e+04 5.383e-10
  1.67545   -123.6 9.375e+03 3.411e-10
  1.71558   -123.1 8.899e+03 2.351e-10
  1.73714   -122.6 8.748e+03 2.043e-10
  1.75720   -123.0 8.807e+03 2.048e-10
  1.79584   -122.6 8.810e+03 2.025e-10
  1.83596   -122.2 8.983e+03 2.352e-10
  1.87609   -121.9 9.153e+03 2.887e-10
  1.90275   -121.5 9.185e+03 3.122e-10
  1.92281   -122.1 9.114e+03 2.920e-10
  1.95635   -121.6 8.991e+03 2.808e-10
  1.99648   -120.9 8.776e+03 2.373e-10
  2.03661   -120.2 8.576e+03 1.929e-10
  2.06836   -119.6 8.428e+03 1.619e-10
  2.08842   -120.5 8.437e+03 1.605e-10
  2.11686   -119.9 8.378e+03 1.487e-10
  2.15699   -119.1 8.331e+03 1.433e-10
  2.19712   -118.2 8.298e+03 1.401e-10
  2.23397   -117.2 8.294e+03 1.390e-10
  2.25403   -117.8 8.379e+03 1.487e-10
  2.27738   -116.9 8.411e+03 1.527e-10
  2.31751   -116.0 8.482e+03 1.631e-10
  2.35764   -115.3 8.548e+03 1.749e-10
  2.39776   -114.6 8.591e+03 1.836e-10
  2.41964   -114.1 8.618e+03 1.897e-10
  2.43971   -114.2 8.590e+03 1.861e-10
  2.47802   -113.5 8.574e+03 1.834e-10
  2.51815   -112.9 8.598e+03 1.867e-10
  2.55828   -112.4 8.657e+03 1.975e-10
  2.58525   -111.9 8.713e+03 2.117e-10
  2.60532   -111.5 8.586e+03 1.830e-10
  2.63854   -110.8 8.632e+03 1.931e-10
  2.67866   -110.0 8.686e+03 2.038e-10
  2.71879   -109.1 8.755e+03 2.146e-10
  2.75086   -108.1 8.833e+03 2.247e-10
  2.77093   -107.8 8.824e+03 2.215e-10
  2.79905   -106.7 8.896e+03 2.327e-10
  2.83918   -105.5 8.944e+03 2.404e-10
  2.87931   -104.1 8.957e+03 2.421e-10
  2.91648   -102.4 8.933e+03 2.390e-10
  2.93654   -102.0 8.714e+03 1.939e-10
  2.95956   -100.1 8.673e+03 1.798e-10
  2.99969    -98.0 8.651e+03 1.656e-10
  3.03982    -95.9 8.656e+03 1.563e-10
  3.07995    -93.8 8.669e+03 1.539e-10
  3.10215    -91.8 8.860e+03 1.601e-10
  3.12221    -91.5 8.714e+03 1.432e-10
  3.16021    -89.6 8.928e+03 1.721e-10
  3.20033    -87.6 9.189e+03 2.178e-10
  3.24046    -85.5 9.456e+03 2.740e-10
  3.26776    -83.3 9.673e+03 3.187e-10
  3.28782    -82.6 9.240e+03 2.236e-10
  3.32072    -80.3 9.279e+03 2.191e-10
  3.36085    -77.9 9.281e+03 1.958e-10
  3.40098    -75.3 9.241e+03 1.658e-10
  3.43337    -72.7 9.208e+03 1.408e-10
  3.45343    -71.9 9.016e+03 1.071e-10
  3.48123    -69.3 9.113e+03 9.776e-11
  3.52136    -66.5 9.184e+03 9.471e-11
  3.56149    -64.0 9.437e+03 1.092e-10
  3.59898    -61.5 9.604e+03 1.561e-10
  3.61904    -61.1 9.718e+03 1.522e-10
  3.64175    -58.6 1.002e+04 2.843e-10
  3.68188    -55.6 1.048e+04 5.383e-10
  3.72201    -52.5 1.108e+04 8.818e-10
  3.76213    -49.5 1.163e+04 1.199e-09
  3.78466    -47.1 1.197e+04 1.291e-09
  3.80472    -47.5 1.253e+04 1.709e-09
  3.83226    -45.4 1.275e+04 1.915e-09
  3.85223    -44.8 1.287e+04 1.875e-09
  3.86726    -44.5 1.299e+04 1.831e-09
  3.87730    -44.8 1.325e+04 1.969e-09
  3.89236    -45.3 1.351e+04 2.139e-09
  3.91242    -45.5 1.381e+04 2.645e-09
  3.93248    -45.3 1.417e+04 3.458e-09
  3.95007    -44.6 1.474e+04 4.225e-09
  3.96010    -46.2 1.504e+04 3.795e-09
  3.97261    -46.5 1.567e+04 4.298e-09
  3.99268    -47.3 1.630e+04 4.729e-09
  4.00910    -49.1 1.671e+04 5.089e-09
  4.01913    -49.6 1.892e+04 8.946e-09
  4.03281    -51.8 1.916e+04 9.259e-09
  4.05287    -56.1 2.026e+04 1.164e-08
  4.07293    -56.9 1.973e+04 1.270e-08
  4.09300    -57.2 1.931e+04 1.311e-08
  4.11306    -56.4 1.876e+04 1.291e-08
  4.12571    -55.5 1.820e+04 1.173e-08
  4.13574    -56.3 1.831e+04 1.270e-08
  4.15319    -55.2 1.762e+04 1.072e-08
  4.17326    -53.7 1.694e+04 8.780e-09
  4.19332    -52.6 1.636e+04 7.141e-09
  4.20852    -51.7 1.554e+04 5.570e-09
  4.21855    -51.6 1.548e+04 5.505e-09
  4.23345    -50.4 1.475e+04 4.421e-09
  4.25351    -49.1 1.431e+04 3.824e-09
  4.27358    -47.9 1.402e+04 3.431e-09
  4.29132    -46.5 1.362e+04 3.038e-09
  4.30135    -46.4 1.331e+04 2.591e-09
  4.31371    -45.1 1.296e+04 2.315e-09
  4.33377    -43.7 1.275e+04 2.135e-09
  4.35383    -42.3 1.270e+04 2.072e-09
  4.37390    -41.0 1.260e+04 1.994e-09
  4.38416    -39.7 1.241e+04 1.876e-09
  4.39419    -39.5 1.223e+04 1.667e-09
  4.41403    -38.2 1.214e+04 1.624e-09
  4.43409    -37.0 1.214e+04 1.617e-09
  4.45416    -35.9 1.210e+04 1.598e-09
  4.46697    -34.6 1.199e+04 1.528e-09
  4.47700    -34.4 1.190e+04 1.447e-09
  4.49428    -33.4 1.178e+04 1.389e-09
  4.51435    -32.3 1.183e+04 1.389e-09
  4.53441    -31.4 1.167e+04 1.324e-09
  4.54977    -30.4 1.156e+04 1.269e-09
  4.55980    -30.0 1.151e+04 1.244e-09
  4.57454    -29.2 1.144e+04 1.204e-09
  4.59460    -28.3 1.124e+04 1.118e-09
  4.61467    -27.5 1.113e+04 1.057e-09
  4.63258    -26.6 1.088e+04 9.532e-10
  4.64261    -26.1 1.079e+04 9.067e-10
  4.65480    -25.2 1.055e+04 8.229e-10
  4.67486    -24.0 1.022e+04 6.839e-10
  4.69493    -22.9 9.933e+03 5.781e-10
  4.72512    -21.4 9.583e+03 4.265e-10
  4.76535    -19.8 9.153e+03 2.793e-10
  4.79838    -17.8 8.710e+03 1.767e-10
  4.81845    -15.6 8.643e+03 1.673e-10
  4.84560    -14.3 8.446e+03 1.132e-10
  4.88573    -12.6 8.241e+03 1.022e-10
  4.92586    -10.8 8.253e+03 1.133e-10
  4.96399     -8.7 8.363e+03 1.392e-10
  4.98406     -6.4 8.327e+03 1.340e-10
  5.00612     -4.2 8.553e+03 1.699e-10
  5.04625     -2.1 9.096e+03 2.311e-10
  5.06676     -2.2 9.425e+03 2.787e-10
  5.07670     -0.5 9.327e+03 2.741e-10
  5.09621     -0.3 9.654e+03 3.355e-10
  5.11628     -0.8 1.028e+04 4.953e-10
  5.13634     -0.9 1.078e+04 7.489e-10
  5.14947     -0.9 1.144e+04 1.163e-09
  5.15950      1.3 1.119e+04 9.776e-10
  5.17647      1.3 1.198e+04 1.463e-09
  5.19653      0.9 1.288e+04 2.109e-09
  5.21660      0.6 1.353e+04 2.671e-09
  5.23228      0.4 1.366e+04 2.934e-09
  5.24231      1.9 1.421e+04 3.357e-09
  5.25673      1.7 1.406e+04 3.496e-09
  5.27679      2.1 1.348e+04 2.970e-09
  5.29685      1.8 1.284e+04 2.208e-09
  5.31508      0.8 1.226e+04 1.460e-09
  5.32511      2.9 1.312e+04 2.179e-09
  5.33698      1.3 1.235e+04 1.281e-09
  5.35705     -1.1 1.127e+04 7.618e-10
  5.37711     -3.3 1.055e+04 5.762e-10
  5.39718     -4.2 1.019e+04 5.574e-10
  5.40792     -4.9 1.050e+04 6.149e-10
  5.41795     -4.2 1.015e+04 5.287e-10
  5.43730     -5.0 1.063e+04 6.211e-10
  5.45737     -6.4 1.182e+04 8.978e-10
  5.47743     -7.8 1.331e+04 1.560e-09
  5.49072     -8.9 1.432e+04 2.667e-09
  5.50076     -6.9 1.383e+04 1.920e-09
  5.51756     -8.7 1.570e+04 3.671e-09
  5.53763     -9.7 1.655e+04 6.576e-09
  5.55769    -10.0 1.676e+04 1.034e-08
  5.57353     -9.9 1.709e+04 1.386e-08
  5.58356    -10.2 1.808e+04 1.881e-08
  5.59782     -9.0 1.816e+04 2.338e-08
  5.61788     -8.3 1.862e+04 1.998e-08
  5.63795     -8.3 1.875e+04 1.357e-08
  5.65633     -8.7 1.836e+04 7.820e-09
  5.66637     -7.6 1.871e+04 1.106e-08
  5.67807     -8.5 1.783e+04 5.185e-09
  5.69814    -11.2 1.500e+04 2.265e-09
  5.71820    -13.3 1.192e+04 1.244e-09
  5.73827    -13.5 1.121e+04 9.612e-10
  5.76846    -12.6 1.146e+04 9.126e-10
  5.80869    -12.2 1.106e+04 7.571e-10
  5.83217    -11.9 1.142e+04 9.156e-10
  5.85224    -10.2 1.138e+04 9.372e-10
  5.88894     -9.9 1.162e+04 1.092e-09
  5.92907     -9.1 1.192e+04 1.238e-09
  5.96920     -8.5 1.201e+04 1.232e-09
  5.99768    -11.0 1.254e+04 1.108e-09
  6.00762     -7.9 1.237e+04 1.421e-09
  6.01917     -8.8 1.288e+04 1.203e-09
  6.03923    -13.2 1.636e+04 1.198e-09
  6.05930    -20.8 1.895e+04 1.604e-09
  6.07936    -28.2 1.666e+04 2.582e-09
  6.09042    -30.9 1.482e+04 4.591e-09
  6.10046    -31.6 1.576e+04 4.362e-09
  6.11949    -32.5 1.520e+04 6.868e-09
  6.13955    -32.8 1.519e+04 8.629e-09
  6.15962    -33.6 1.532e+04 9.147e-09
  6.17323    -34.6 1.503e+04 8.404e-09
  6.18326    -35.7 1.456e+04 6.578e-09
  6.19975    -36.8 1.426e+04 5.106e-09
  6.21981    -38.4 1.391e+04 3.954e-09
  6.23987    -39.6 1.352e+04 3.225e-09
  6.25603    -40.4 1.316e+04 2.736e-09
  6.26607    -42.7 1.274e+04 2.104e-09
  6.28000    -42.6 1.234e+04 1.805e-09
  6.30007    -42.1 1.210e+04 1.577e-09
  6.32013    -41.5 1.197e+04 1.379e-09
  6.33884    -40.9 1.187e+04 1.183e-09
  6.34887    -42.5 1.146e+04 8.152e-10
  6.36026    -42.0 1.108e+04 6.558e-10
  6.38032    -41.5 1.068e+04 5.415e-10
  6.40039    -41.1 1.043e+04 4.798e-10
  6.42045    -40.6 1.036e+04 4.584e-10
  6.43168    -40.1 1.044e+04 4.649e-10
  6.44171    -42.9 1.138e+04 5.280e-10
  6.46058    -44.7 1.271e+04 8.280e-10
  6.48065    -46.2 1.339e+04 1.541e-09
  6.49345    -46.9 1.369e+04 2.762e-09
  6.50349    -48.4 1.496e+04 4.492e-09
  6.51448    -46.7 1.523e+04 6.949e-09
  6.52451    -46.2 1.569e+04 9.544e-09
  6.54084    -44.2 1.595e+04 1.047e-08
  6.56090    -42.5 1.594e+04 1.049e-08
  6.58097    -40.3 1.575e+04 9.103e-09
  6.59729    -38.5 1.549e+04 6.808e-09
  6.60732    -38.5 1.473e+04 3.210e-09
  6.62110    -39.8 1.364e+04 1.788e-09
  6.64116    -41.5 1.205e+04 1.090e-09
  6.66122    -41.9 1.101e+04 8.588e-10
  6.68009    -40.9 1.069e+04 8.023e-10
  6.69012    -41.6 1.010e+04 5.718e-10
  6.70135    -40.2 1.011e+04 5.714e-10
  6.72142    -38.8 1.020e+04 5.777e-10
  6.74148    -37.6 1.045e+04 6.317e-10
  6.76154    -36.5 1.082e+04 7.497e-10
  6.77293    -35.4 1.121e+04 9.194e-10
  6.78296    -35.8 1.054e+04 6.705e-10
  6.80167    -34.4 1.080e+04 7.708e-10
  6.82174    -33.0 1.104e+04 8.695e-10
  6.84180    -31.7 1.123e+04 9.478e-10
  6.85573    -30.3 1.131e+04 9.690e-10
  6.86577    -31.4 1.072e+04 7.479e-10
  6.88193    -30.1 1.078e+04 7.511e-10
  6.90199    -29.2 1.084e+04 6.817e-10
  6.92206    -28.4 1.111e+04 6.319e-10
  6.93854    -28.1 1.135e+04 5.675e-10
  6.94857    -29.4 1.142e+04 5.825e-10
  6.96219    -29.4 1.146e+04 5.522e-10
  6.98225    -29.5 1.135e+04 5.459e-10
  7.00232    -29.5 1.117e+04 5.961e-10
  7.02134    -29.6 1.096e+04 6.739e-10
  7.03138    -29.9 1.082e+04 6.572e-10
  7.04244    -29.5 1.072e+04 7.104e-10
  7.06251    -28.9 1.071e+04 7.438e-10
  7.08257    -28.2 1.084e+04 8.068e-10
  7.10264    -28.0 1.083e+04 8.357e-10
  7.11418    -27.7 1.120e+04 9.413e-10
  7.12421    -27.8 1.070e+04 6.691e-10
  7.14277    -27.9 1.083e+04 7.414e-10
  7.16283    -28.2 1.117e+04 8.883e-10
  7.18289    -28.5 1.166e+04 1.148e-09
  7.19699    -28.5 1.214e+04 1.565e-09
  7.20702    -27.8 1.144e+04 1.178e-09
  7.22302    -27.4 1.185e+04 1.577e-09
  7.24309    -26.4 1.214e+04 2.024e-09
  7.26315    -24.9 1.232e+04 2.378e-09
  7.27979    -23.1 1.253e+04 2.558e-09
  7.28982    -23.0 1.214e+04 2.063e-09
  7.30328    -21.7 1.234e+04 2.150e-09
  7.32334    -20.7 1.269e+04 2.103e-09
  7.34341    -20.4 1.298e+04 2.004e-09
  7.36260    -20.2 1.305e+04 1.962e-09
  7.37263    -20.4 1.338e+04 2.036e-09
  7.38354    -20.2 1.336e+04 2.050e-09
  7.40360    -19.6 1.314e+04 2.032e-09
  7.42367    -18.9 1.308e+04 2.112e-09
  7.44373    -18.1 1.316e+04 2.254e-09
  7.45543    -17.3 1.329e+04 2.396e-09
  7.46547    -17.7 1.303e+04 2.245e-09
  7.48386    -17.0 1.315e+04 2.382e-09
  7.50392    -16.5 1.329e+04 2.442e-09
  7.52399    -15.8 1.330e+04 2.688e-09
  7.53824    -14.8 1.337e+04 2.834e-09
  7.54827    -15.0 1.264e+04 2.047e-09
  7.56412    -13.8 1.272e+04 2.101e-09
  7.58418    -12.7 1.300e+04 2.009e-09
  7.60424    -11.8 1.327e+04 1.797e-09
  7.62104    -11.2 1.301e+04 1.625e-09
  7.63108    -11.9 1.202e+04 9.775e-10
  7.64437    -11.4 1.169e+04 7.999e-10
  7.66444    -10.8 1.117e+04 7.301e-10
  7.68450     -9.8 1.102e+04 6.258e-10
  7.70385     -8.9 1.100e+04 5.630e-10
  7.71388     -9.1 1.034e+04 3.648e-10
  7.72463     -8.1 1.028e+04 3.169e-10
  7.74469     -7.6 1.012e+04 2.957e-10
  7.76476     -6.2 9.938e+03 2.677e-10
  7.78482     -5.8 9.928e+03 2.647e-10
  7.81502     -3.7 9.892e+03 2.568e-10
  7.85524     -1.2 9.895e+03 2.555e-10
  7.87969      1.4 9.884e+03 2.459e-10
  7.89975      2.1 9.585e+03 2.054e-10
  7.93550      4.9 9.589e+03 2.000e-10
  7.97563      7.7 9.607e+03 1.918e-10
  8.01576     10.3 9.662e+03 1.915e-10
  8.04530     12.8 9.775e+03 2.052e-10
  8.06536     13.9 9.497e+03 1.545e-10
  8.09601     16.2 9.611e+03 1.654e-10
  8.13614     18.4 9.812e+03 2.035e-10
  8.17627     20.6 1.005e+04 2.780e-10
  8.21091     22.8 1.022e+04 3.675e-10
  8.23097     24.0 9.913e+03 2.501e-10
  8.25653     26.3 1.008e+04 3.248e-10
  8.29666     28.2 1.031e+04 4.189e-10
  8.33678     29.9 1.062e+04 5.625e-10
  8.37652     31.6 1.091e+04 7.419e-10
  8.39658     33.2 1.045e+04 4.582e-10
  8.41704     34.8 1.062e+04 5.711e-10
  8.45717     36.4 1.065e+04 6.331e-10
  8.49730     38.2 1.059e+04 6.368e-10
  8.53743     39.9 1.046e+04 5.972e-10
  8.56219     41.5 1.035e+04 5.520e-10
  8.58226     43.0 1.027e+04 5.237e-10
  8.61768     44.7 1.028e+04 5.376e-10
  8.65781     46.5 1.026e+04 5.402e-10
  8.69794     48.4 1.021e+04 5.367e-10
  8.72780     50.5 1.007e+04 4.950e-10
  8.74787     51.6 1.038e+04 6.175e-10
  8.77820     53.7 1.035e+04 6.104e-10
  8.81833     55.9 1.023e+04 5.531e-10
  8.85846     58.1 1.003e+04 4.622e-10
  8.89341     60.3 9.781e+03 3.704e-10
  8.91348     60.8 1.063e+04 6.253e-10
  8.93871     62.7 1.045e+04 4.972e-10
  8.96797     64.3 1.028e+04 4.122e-10
  8.98803     65.6 1.024e+04 4.545e-10
  9.01897     67.4 1.015e+04 4.212e-10
  9.05902     69.2 1.014e+04 4.307e-10
  9.09915     70.4 1.120e+04 9.990e-10
  9.13935     72.6 1.132e+04 1.172e-09
  9.17948     75.6 1.181e+04 1.475e-09
  9.20948     76.7 1.216e+04 1.696e-09
  9.22945     77.6 1.241e+04 1.871e-09
  9.24450     78.5 1.257e+04 2.011e-09
  9.25453     77.8 1.258e+04 2.051e-09
  9.26958     78.9 1.257e+04 2.039e-09
  9.28964     79.8 1.255e+04 1.982e-09
  9.30971     80.5 1.250e+04 1.884e-09
  9.32731     81.2 1.239e+04 1.766e-09
  9.33734     79.9 1.178e+04 1.369e-09
  9.34983     80.3 1.160e+04 1.325e-09
  9.36990     80.8 1.147e+04 1.300e-09
  9.38996     81.3 1.140e+04 1.288e-09
  9.41003     81.7 1.131e+04 1.269e-09
  9.43009     82.2 1.064e+04 9.814e-10
  9.45016     83.0 1.048e+04 9.116e-10
  9.47022     83.8 1.026e+04 8.156e-10
  9.49028     84.7 1.000e+04 6.988e-10
  9.50295     85.5 9.783e+03 5.945e-10
  9.51298     85.2 9.533e+03 4.681e-10
  9.53041     86.0 9.402e+03 4.097e-10
  9.55048     86.4 9.273e+03 3.648e-10
  9.57582     87.7 9.342e+03 3.843e-10
  9.59598     87.8 8.917e+03 2.754e-10
  9.62090     89.4 8.835e+03 2.682e-10
  9.66103     91.1 8.839e+03 2.711e-10
  9.70115     92.9 8.880e+03 2.851e-10
  9.74128     94.7 9.037e+03 3.171e-10
  9.76159     96.3 9.261e+03 3.619e-10
  9.78166     96.8 9.228e+03 3.621e-10
  9.81141     97.2 9.436e+03 4.237e-10
  9.83138     97.7 9.672e+03 5.049e-10
  9.84420     98.4 9.976e+03 6.255e-10
  9.85424     98.9 1.013e+04 7.129e-10
  9.87150     99.6 1.036e+04 8.390e-10
  9.89157    100.3 1.060e+04 9.538e-10
  9.91163    100.9 1.074e+04 1.013e-09
  9.92701    101.2 1.080e+04 1.017e-09
  9.93704    101.6 1.093e+04 1.083e-09
  9.95176    101.8 1.089e+04 1.061e-09
  9.98196    102.7 1.088e+04 1.003e-09
 10.02218    103.5 1.039e+04 7.282e-10
 10.06231    104.1 9.684e+03 4.560e-10
 10.09281    104.7 8.862e+03 2.807e-10
 10.11288    104.5 8.916e+03 2.999e-10
 10.14257    105.3 8.613e+03 2.608e-10
 10.18270    106.8 8.614e+03 2.623e-10
 10.22282    108.5 8.709e+03 2.807e-10
 10.25842    110.1 8.928e+03 3.207e-10
 10.27849    109.4 9.141e+03 3.659e-10
 10.29295    110.2 9.222e+03 4.020e-10
 10.31292    111.1 9.398e+03 4.558e-10
 10.33298    112.0 9.630e+03 5.321e-10
 10.35107    113.0 9.846e+03 6.110e-10
 10.36110    112.4 1.025e+04 7.711e-10
 10.37311    113.3 1.044e+04 8.647e-10
 10.39318    114.3 1.060e+04 9.444e-10
 10.41324    115.3 1.074e+04 1.018e-09
 10.43330    116.2 1.090e+04 1.096e-09
 10.44390    117.1 1.108e+04 1.193e-09
 10.45394    116.4 1.151e+04 1.419e-09
 10.47343    117.0 1.197e+04 1.690e-09
 10.49350    117.6 1.291e+04 2.291e-09
 10.51356    118.5 1.412e+04 3.389e-09
 10.52671    118.6 1.491e+04 4.395e-09
 10.53674    118.0 1.497e+04 4.541e-09
 10.54862    117.3 1.616e+04 6.232e-09
 10.55861    117.0 1.730e+04 8.844e-09
 10.56801    117.0 1.829e+04 1.291e-08
 10.57303    117.1 1.775e+04 1.073e-08
 10.57867    117.2 1.845e+04 1.458e-08
 10.58870    117.6 1.905e+04 1.890e-08
 10.59874    118.3 1.961e+04 2.352e-08
 10.60877    118.7 2.018e+04 2.733e-08
 10.61443    118.6 2.098e+04 2.746e-08
 10.61945    117.8 2.050e+04 1.566e-08
 10.62883    117.1 2.048e+04 1.553e-08
 10.63887    116.2 2.031e+04 1.500e-08
 10.65396    115.4 1.901e+04 1.152e-08
 10.67408    114.6 1.806e+04 1.004e-08
 10.69232    113.5 1.674e+04 7.629e-09
 10.70235    112.6 1.513e+04 5.093e-09
 10.71420    112.1 1.468e+04 4.654e-09
 10.73427    112.2 1.439e+04 4.207e-09
 10.75433    112.5 1.408e+04 3.770e-09
 10.77440    112.8 1.371e+04 3.293e-09
 10.78516    113.2 1.325e+04 2.792e-09
 10.79519    114.1 1.360e+04 3.142e-09
 10.81453    114.4 1.313e+04 2.601e-09
 10.83459    114.9 1.261e+04 2.013e-09
 10.86478    115.7 1.207e+04 1.392e-09
 10.90501    116.7 1.078e+04 6.648e-10
 10.94093    117.7 9.447e+03 3.238e-10
 10.96099    119.6 1.025e+04 5.566e-10
 10.98527    120.8 9.277e+03 3.205e-10
 11.02540    122.6 9.235e+03 2.668e-10
 11.06552    124.9 9.184e+03 2.558e-10
 11.10565    127.4 9.205e+03 2.503e-10
 11.12660    129.9 9.283e+03 2.446e-10
 11.14667    131.5 9.581e+03 3.242e-10
 11.18591    133.9 9.655e+03 3.143e-10
 11.22604    136.1 9.758e+03 3.049e-10
 11.26617    138.0 9.793e+03 3.046e-10
 11.29221    139.5 9.906e+03 3.147e-10
 11.31228    141.7 1.040e+04 4.581e-10
 11.34642    142.7 1.053e+04 4.978e-10
 11.38655    143.2 1.080e+04 5.847e-10
 11.42668    143.6 1.121e+04 7.086e-10
 11.45782    143.4 1.133e+04 7.116e-10
 11.47789    145.0 1.198e+04 8.692e-10
 11.50694    144.1 1.169e+04 6.394e-10
 11.54707    143.3 1.131e+04 3.836e-10
 11.58719    142.6 1.089e+04 2.170e-10
 11.62343    142.2 1.033e+04 1.643e-10
 11.64350    143.0 1.054e+04 1.847e-10
 11.66745    143.3 1.050e+04 1.868e-10
 11.70758    144.0 1.041e+04 2.031e-10
 11.74771    145.0 1.041e+04 2.322e-10
 11.78784    146.0 1.047e+04 2.548e-10
 11.80911    146.9 1.044e+04 2.625e-10
 11.82917    147.6 1.110e+04 4.483e-10
 11.86809    148.5 1.105e+04 4.380e-10
 11.90822    149.9 1.092e+04 4.041e-10
 11.94835    151.6 1.079e+04 3.639e-10
 11.97472    153.5 1.069e+04 3.328e-10
 11.99478    153.8 1.109e+04 4.193e-10
 12.02861    155.6 1.098e+04 3.407e-10
 12.06874    157.4 1.090e+04 2.935e-10
 12.10887    159.2 1.081e+04 2.663e-10
 12.14033    160.9 1.071e+04 2.465e-10
 12.16039    161.0 1.073e+04 3.040e-10
 12.18912    162.9 1.056e+04 2.509e-10
 12.22925    164.8 1.035e+04 2.020e-10
 12.26938    166.6 1.011e+04 1.698e-10
 12.30594    168.6 1.003e+04 1.644e-10
 12.32600    168.9 9.875e+03 1.735e-10
 12.34964    171.0 9.867e+03 1.734e-10
 12.38976    173.1 9.871e+03 1.758e-10
 12.42989    175.1 9.915e+03 1.896e-10
 12.47002    177.0 1.007e+04 2.289e-10
 12.49161    178.8 1.034e+04 3.021e-10
 12.51168    179.8 1.015e+04 2.699e-10
 12.55028    181.6 1.048e+04 3.399e-10
 12.59041    183.2 1.088e+04 4.503e-10
 12.63054    184.6 1.130e+04 6.067e-10
 12.65722    186.0 1.167e+04 8.000e-10
 12.67729    186.6 1.155e+04 6.676e-10
 12.71079    187.8 1.197e+04 9.076e-10
 12.75092    188.9 1.229e+04 1.162e-09
 12.79105    189.9 1.238e+04 1.363e-09
 12.82284    190.9 1.232e+04 1.399e-09
 12.84290    191.5 1.261e+04 1.591e-09
 12.87131    192.5 1.245e+04 1.511e-09
 12.91144    193.8 1.212e+04 1.301e-09
 12.95156    195.3 1.169e+04 1.029e-09
 12.98845    196.9 1.124e+04 7.581e-10
 13.00851    197.3 1.078e+04 5.147e-10
 13.03182    198.7 1.031e+04 3.439e-10
 13.07195    200.1 9.950e+03 2.422e-10
 13.11208    201.5 9.665e+03 1.822e-10
 13.15221    203.1 9.379e+03 1.473e-10
 13.17412    205.0 9.016e+03 1.360e-10
 13.19418    206.2 8.929e+03 1.356e-10
 13.23246    208.4 8.856e+03 1.314e-10
 13.27259    210.7 8.857e+03 1.317e-10
 13.31272    212.8 8.871e+03 1.348e-10
 13.33973    214.9 8.938e+03 1.485e-10
 13.35979    216.0 8.894e+03 1.466e-10
 13.39298    218.0 9.002e+03 1.652e-10
 13.43311    219.7 9.166e+03 1.960e-10
 13.47323    221.4 9.376e+03 2.412e-10
 13.50534    222.8 9.615e+03 3.039e-10
 13.52540    224.1 9.462e+03 2.739e-10
 13.55349    225.6 9.635e+03 3.150e-10
 13.59362    226.6 9.771e+03 3.564e-10
 13.62362    227.5 9.818e+03 3.763e-10
 13.64359    228.8 9.930e+03 4.145e-10
 13.66365    230.0 1.011e+04 4.874e-10
 13.68079    230.9 1.031e+04 5.826e-10
 13.69082    231.6 1.021e+04 5.129e-10
 13.70378    232.3 1.042e+04 6.053e-10
 13.72384    232.8 1.064e+04 7.136e-10
 13.74391    233.3 1.084e+04 8.344e-10
 13.76359    233.9 1.103e+04 9.512e-10
 13.77362    234.5 1.098e+04 8.787e-10
 13.78404    235.0 1.112e+04 9.763e-10
 13.80410    235.4 1.115e+04 1.002e-09
 13.82416    235.8 1.114e+04 9.983e-10
 13.84423    236.2 1.108e+04 9.754e-10
 13.85643    236.7 1.093e+04 9.109e-10
 13.86646    237.2 1.102e+04 9.216e-10
 13.88436    237.6 1.088e+04 8.653e-10
 13.90442    238.1 1.071e+04 7.918e-10
 13.92449    238.4 1.055e+04 7.168e-10
 13.93648    238.6 1.044e+04 6.567e-10
 13.94119    238.4 1.051e+04 7.019e-10
 13.94927    238.7 1.078e+04 8.260e-10
 13.96461    238.9 1.081e+04 8.438e-10
 13.98468    239.0 1.092e+04 8.814e-10
 14.00474    239.0 1.107e+04 9.334e-10
 14.02204    238.9 1.125e+04 9.988e-10
 14.03207    238.9 1.165e+04 1.266e-09
 14.04487    238.7 1.184e+04 1.381e-09
 14.06493    238.5 1.202e+04 1.514e-09
 14.08500    238.3 1.218e+04 1.658e-09
 14.10485    238.1 1.229e+04 1.796e-09
 14.11488    238.4 1.251e+04 1.962e-09
 14.12513    238.3 1.251e+04 1.953e-09
 14.14519    238.2 1.242e+04 1.913e-09
 14.16526    238.3 1.228e+04 1.850e-09
 14.18532    238.5 1.213e+04 1.761e-09
 14.19768    238.6 1.199e+04 1.657e-09
 14.20771    238.5 1.183e+04 1.361e-09
 14.22545    238.5 1.169e+04 1.267e-09
 14.24551    238.3 1.165e+04 1.242e-09
 14.26558    238.2 1.166e+04 1.246e-09
 14.28049    238.0 1.171e+04 1.278e-09
 14.29052    237.5 1.141e+04 1.063e-09
 14.30571    237.1 1.158e+04 1.204e-09
 14.32577    236.3 1.218e+04 1.539e-09
 14.34583    235.0 1.324e+04 2.231e-09
 14.36329    233.3 1.458e+04 3.563e-09
 14.37333    233.7 1.407e+04 2.923e-09
 14.38596    231.8 1.534e+04 4.507e-09
 14.40603    229.6 1.637e+04 6.177e-09
 14.42609    226.9 1.687e+04 6.543e-09
 14.44610    223.8 1.685e+04 6.297e-09
 14.46616    222.2 1.626e+04 4.616e-09
 14.48628    219.5 1.557e+04 3.039e-09
 14.50635    216.4 1.435e+04 1.656e-09
 14.52641    212.9 1.261e+04 8.503e-10
 14.53894    209.4 1.092e+04 5.397e-10
 14.54897    210.8 1.129e+04 6.165e-10
 14.56654    208.2 1.057e+04 5.495e-10
 14.58661    206.9 1.047e+04 5.406e-10
 14.60667    206.4 1.046e+04 5.409e-10
 14.62174    206.1 1.049e+04 5.523e-10
 14.63177    206.8 1.064e+04 6.187e-10
 14.64680    206.3 1.076e+04 6.733e-10
 14.66686    205.8 1.098e+04 7.682e-10
 14.68693    205.3 1.128e+04 9.047e-10
 14.70455    204.8 1.165e+04 1.091e-09
 14.71458    205.2 1.186e+04 1.305e-09
 14.72706    204.8 1.235e+04 1.625e-09
 14.74712    204.4 1.291e+04 2.027e-09
 14.76718    204.1 1.360e+04 2.505e-09
 14.78725    203.6 1.438e+04 3.030e-09
 14.79738    202.8 1.514e+04 3.550e-09
 14.80741    202.9 1.569e+04 4.720e-09
 14.82738    201.8 1.644e+04 5.615e-09
 14.84744    200.6 1.699e+04 6.528e-09
 14.86751    199.6 1.728e+04 7.331e-09
 14.88019    198.8 1.707e+04 7.874e-09
 14.89022    199.0 1.748e+04 1.122e-08
 14.90763    198.7 1.762e+04 1.292e-08
 14.92770    198.7 1.756e+04 1.351e-08
 14.94776    198.6 1.752e+04 1.339e-08
 14.96299    198.5 1.743e+04 1.272e-08
 14.97303    198.8 1.862e+04 2.028e-08
 14.98789    198.7 1.862e+04 1.901e-08
 15.00796    198.5 1.858e+04 1.613e-08
 15.02802    197.8 1.832e+04 1.246e-08
 15.04580    197.4 1.760e+04 8.703e-09
 15.05583    197.2 1.888e+04 1.345e-08
 15.06815    197.2 1.774e+04 8.429e-09
 15.08821    197.4 1.615e+04 4.827e-09
 15.10828    197.6 1.437e+04 2.720e-09
 15.12834    197.8 1.283e+04 1.665e-09
 15.13864    198.1 1.243e+04 1.315e-09
 15.14867    197.5 1.265e+04 1.374e-09
 15.16847    197.9 1.211e+04 1.073e-09
 15.19866    199.1 1.150e+04 8.251e-10
 15.22164    200.9 1.127e+04 7.162e-10
 15.24170    199.7 1.161e+04 7.324e-10
 15.27902    201.7 1.134e+04 6.141e-10
 15.31915    203.6 1.114e+04 5.279e-10
 15.35927    205.5 1.099e+04 4.626e-10
 15.38725    207.3 1.086e+04 4.106e-10
 15.40731    206.2 1.077e+04 3.078e-10
 15.43953    208.1 1.062e+04 2.791e-10
 15.47966    209.9 1.049e+04 2.590e-10
 15.51979    211.8 1.036e+04 2.405e-10
 15.55286    213.6 1.024e+04 2.201e-10
 15.57292    213.4 1.025e+04 2.274e-10
 15.60005    215.2 1.016e+04 2.118e-10
 15.64017    216.8 1.008e+04 1.959e-10
 15.68030    218.4 1.001e+04 1.792e-10
 15.71847    219.8 9.923e+03 1.613e-10
 15.73853    219.7 1.001e+04 2.017e-10
 15.76056    221.2 9.898e+03 1.786e-10
 15.80069    222.8 9.781e+03 1.528e-10
 15.84082    224.4 9.670e+03 1.276e-10
 15.88095    226.1 9.564e+03 1.072e-10
 15.90414    227.7 9.455e+03 9.585e-11
 15.92421    227.7 9.472e+03 1.020e-10
 15.96120    229.3 9.468e+03 9.801e-11
 16.00133    231.0 9.467e+03 9.821e-11
 16.04146    232.7 9.471e+03 9.906e-11
 16.06975    234.5 9.495e+03 1.022e-10
 16.08982    234.5 9.608e+03 1.035e-10
 16.12172    236.4 9.629e+03 1.079e-10
 16.16185    238.4 9.679e+03 1.165e-10
 16.20197    240.4 9.751e+03 1.307e-10
 16.23536    242.5 9.835e+03 1.510e-10
 16.25543    242.7 9.821e+03 1.393e-10
 16.28223    244.8 9.901e+03 1.625e-10
 16.32236    246.9 9.995e+03 1.929e-10
 16.36249    248.8 1.012e+04 2.332e-10
 16.40097    250.7 1.029e+04 2.881e-10
 16.42104    251.1 1.026e+04 2.663e-10
 16.44274    252.9 1.051e+04 3.313e-10
 16.48287    254.3 1.078e+04 4.017e-10
 16.52300    255.3 1.101e+04 4.419e-10
 16.56313    255.6 1.104e+04 4.428e-10
 16.58665    255.6 1.103e+04 4.308e-10
 16.60671    255.9 1.096e+04 4.048e-10
 16.64339    256.0 1.091e+04 3.542e-10
 16.68352    255.9 1.079e+04 2.867e-10
 16.72364    255.9 1.063e+04 2.302e-10
 16.75226    256.0 1.043e+04 2.049e-10
 16.77232    256.4 1.037e+04 1.822e-10
 16.80390    256.8 1.028e+04 1.792e-10
 16.84403    257.7 1.028e+04 1.811e-10
 16.88416    258.8 1.030e+04 1.934e-10
 16.91787    260.0 1.043e+04 2.234e-10
 16.93793    260.7 1.034e+04 2.094e-10
 16.96442    261.9 1.054e+04 2.591e-10
 17.00454    262.8 1.076e+04 3.226e-10
 17.04467    263.6 1.097e+04 3.912e-10
 17.08348    264.2 1.113e+04 4.524e-10
 17.10354    264.8 1.114e+04 4.703e-10
 17.12493    265.2 1.128e+04 5.244e-10
 17.16506    265.6 1.138e+04 5.485e-10
 17.20519    265.9 1.142e+04 5.519e-10
 17.24532    266.3 1.146e+04 5.520e-10
 17.26915    266.8 1.154e+04 5.551e-10
 17.28922    267.3 1.157e+04 5.519e-10
 17.32557    267.4 1.170e+04 5.467e-10
 17.36570    267.4 1.173e+04 5.400e-10
 17.40583    267.2 1.178e+04 5.133e-10
 17.43476    266.9 1.174e+04 4.471e-10
 17.45483    267.1 1.164e+04 4.006e-10
 17.48609    266.8 1.137e+04 3.033e-10
 17.52621    266.5 1.102e+04 2.288e-10
 17.56634    266.4 1.084e+04 2.104e-10
 17.60037    266.4 1.084e+04 2.116e-10
 17.62044    266.5 1.076e+04 1.944e-10
 17.64660    266.4 1.083e+04 2.085e-10
 17.68673    266.1 1.102e+04 2.535e-10
 17.72686    265.7 1.128e+04 3.288e-10
 17.76598    264.8 1.154e+04 4.211e-10
 17.78605    264.6 1.145e+04 3.802e-10
 17.80711    263.1 1.161e+04 4.382e-10
 17.84724    261.2 1.180e+04 4.515e-10
 17.88737    258.7 1.185e+04 4.495e-10
 17.92750    255.7 1.184e+04 4.511e-10
 17.95166    252.5 1.174e+04 4.676e-10
 17.97172    252.8 1.170e+04 4.881e-10
 18.00776    250.0 1.161e+04 5.036e-10
 18.04789    247.4 1.156e+04 5.028e-10
 18.08801    245.1 1.141e+04 4.951e-10
 18.11727    243.1 1.124e+04 4.760e-10
 18.13733    244.2 1.130e+04 4.697e-10
 18.16827    242.5 1.105e+04 4.471e-10
 18.20840    241.1 1.100e+04 4.495e-10
 18.24853    240.2 1.094e+04 4.604e-10
 18.28288    239.4 1.090e+04 4.603e-10
 18.30294    240.7 1.084e+04 4.488e-10
 18.32879    240.3 1.082e+04 4.460e-10
 18.36891    240.5 1.070e+04 4.149e-10
 18.40904    240.8 1.043e+04 3.104e-10
 18.44849    241.4 1.009e+04 1.834e-10
 18.46855    242.2 1.020e+04 2.259e-10
 18.48930    242.9 9.835e+03 1.220e-10
 18.52943    243.7 9.400e+03 6.340e-11
 18.56956    244.7 9.089e+03 4.927e-11
 18.60968    246.3 9.051e+03 4.869e-11
 18.63416    248.4 9.044e+03 4.881e-11
 18.65423    249.2 9.035e+03 5.053e-11
 18.68994    251.4 9.023e+03 5.124e-11
 18.73007    253.7 9.014e+03 5.462e-11
 18.77020    255.8 9.038e+03 6.103e-11
 18.79977    258.0 9.104e+03 7.042e-11
 18.81984    258.8 9.086e+03 7.029e-11
 18.85046    260.9 9.158e+03 8.112e-11
 18.88531    262.9 9.252e+03 9.527e-11
 18.90538    262.6 9.224e+03 9.156e-11
 18.93071    264.5 9.339e+03 1.076e-10
 18.96538    266.2 9.451e+03 1.251e-10
 18.98545    267.0 9.375e+03 1.122e-10
 19.01097    268.5 9.459e+03 1.243e-10
 19.05110    270.0 9.528e+03 1.346e-10
 19.09123    271.4 9.589e+03 1.430e-10
 19.13099    272.7 9.651e+03 1.507e-10
 19.15106    273.7 9.555e+03 1.338e-10
 19.17148    275.0 9.637e+03 1.436e-10
 19.21161    276.2 9.737e+03 1.553e-10
 19.25174    277.4 9.848e+03 1.701e-10
 19.29187    278.4 1.002e+04 1.924e-10
 19.31667    279.0 1.026e+04 2.267e-10
 19.33673    280.8 1.023e+04 2.223e-10
 19.37213    281.3 1.049e+04 2.636e-10
 19.41226    281.3 1.066e+04 3.033e-10
 19.44225    281.8 1.078e+04 3.454e-10
 19.46222    282.4 1.103e+04 4.505e-10
 19.48208    282.7 1.146e+04 6.738e-10
 19.49212    283.7 1.141e+04 6.150e-10
 19.50235    283.7 1.206e+04 9.984e-10
 19.52241    283.3 1.290e+04 1.663e-09
 19.54248    282.7 1.374e+04 2.620e-09
 19.56254    282.0 1.452e+04 3.551e-09
 19.57492    280.9 1.508e+04 3.765e-09
 19.58495    281.7 1.573e+04 5.339e-09
 19.60267    280.1 1.590e+04 5.324e-09
 19.62273    278.3 1.592e+04 4.911e-09
 19.64280    276.7 1.559e+04 3.735e-09
 19.65773    275.0 1.479e+04 2.480e-09
 19.66776    275.0 1.532e+04 3.329e-09
 19.68293    273.3 1.412e+04 2.110e-09
 19.70299    272.0 1.322e+04 1.693e-09
 19.72306    271.4 1.315e+04 1.664e-09
 19.74053    271.0 1.310e+04 1.641e-09
 19.75056    271.0 1.313e+04 1.634e-09
 19.77331    270.3 1.311e+04 1.679e-09
 19.81350    269.6 1.306e+04 1.703e-09
 19.85363    269.1 1.251e+04 1.283e-09
 19.89380    269.4 1.230e+04 1.216e-09
 19.93393    270.2 1.209e+04 1.129e-09
 19.97405    271.5 1.188e+04 1.019e-09
 19.99917    272.9 1.165e+04 8.957e-10
 20.01924    273.2 1.100e+04 5.630e-10
 20.05431    274.8 1.083e+04 5.204e-10
 20.09444    276.4 1.064e+04 4.580e-10
 20.13457    278.0 1.044e+04 3.910e-10
 20.16478    279.7 1.025e+04 3.339e-10
 20.18485    280.1 9.920e+03 2.465e-10
 20.21483    281.6 9.829e+03 2.321e-10
 20.25495    283.1 9.770e+03 2.230e-10
 20.29508    284.6 9.741e+03 2.169e-10
 20.33039    286.0 9.722e+03 2.130e-10
 20.35046    286.4 9.557e+03 1.941e-10
 20.37534    287.7 9.593e+03 2.032e-10
 20.41547    289.0 9.642e+03 2.140e-10
 20.45560    290.1 9.702e+03 2.271e-10
 20.49573    291.1 9.771e+03 2.459e-10
 20.51607    291.9 9.854e+03 2.713e-10
 20.53613    292.5 9.888e+03 2.888e-10
 20.57598    293.3 9.957e+03 3.139e-10
 20.61611    294.0 1.000e+04 3.377e-10
 20.65624    294.7 1.002e+04 3.588e-10
 20.68168    295.5 1.002e+04 3.765e-10
 20.70174    296.0 1.007e+04 3.887e-10
 20.73650    296.7 1.010e+04 4.142e-10
 20.77662    297.5 1.017e+04 4.487e-10
 20.81675    298.3 1.028e+04 4.903e-10
 20.84729    298.9 1.040e+04 5.245e-10
 20.86735    298.8 1.048e+04 5.498e-10
 20.89701    299.1 1.048e+04 5.485e-10
 20.93714    299.3 1.044e+04 5.291e-10
 20.97727    299.7 1.028e+04 4.686e-10
 21.01290    300.3 1.000e+04 3.824e-10
 21.03296    300.0 9.916e+03 3.693e-10
 21.05752    300.8 9.585e+03 2.935e-10
 21.09765    301.7 9.296e+03 2.418e-10
 21.13778    302.8 9.195e+03 2.192e-10
 21.17791    304.0 9.201e+03 2.182e-10
 21.19857    305.2 9.209e+03 2.187e-10
 21.21864    304.8 9.145e+03 2.062e-10
 21.25817    305.8 9.148e+03 2.022e-10
 21.29830    306.7 9.139e+03 1.937e-10
 21.33842    307.5 9.110e+03 1.797e-10
 21.36418    308.3 9.057e+03 1.622e-10
 21.38425    307.9 8.923e+03 1.397e-10
 21.41868    308.6 8.845e+03 1.247e-10
 21.45881    309.3 8.746e+03 1.156e-10
 21.49894    310.1 8.648e+03 1.136e-10
 21.52979    310.8 8.624e+03 1.135e-10
 21.54986    310.8 8.625e+03 1.140e-10
 21.57920    311.8 8.617e+03 1.145e-10
 21.61932    312.7 8.622e+03 1.163e-10
 21.65945    313.5 8.644e+03 1.193e-10
 21.69540    313.6 8.664e+03 1.232e-10
 21.71547    313.8 8.705e+03 1.297e-10
 21.73971    313.6 8.742e+03 1.322e-10
 21.77984    313.3 8.779e+03 1.333e-10
 21.81997    312.4 8.846e+03 1.374e-10
 21.86009    311.1 8.946e+03 1.512e-10
 21.88108    309.7 9.054e+03 1.733e-10
 21.90114    309.7 9.063e+03 1.755e-10
 21.94035    308.3 9.128e+03 1.943e-10
 21.98048    307.1 9.167e+03 2.100e-10
 22.02061    306.0 9.162e+03 2.103e-10
 22.04669    304.9 9.134e+03 2.045e-10
 22.06675    305.0 9.045e+03 1.803e-10
 22.10087    304.1 8.974e+03 1.668e-10
 22.14099    303.1 8.901e+03 1.553e-10
 22.18112    302.1 8.869e+03 1.514e-10
 22.21230    301.0 8.871e+03 1.525e-10
 22.23236    301.1 8.866e+03 1.519e-10
 22.26138    299.9 8.998e+03 1.696e-10
 22.30151    298.1 9.265e+03 1.980e-10
 22.34164    295.4 9.665e+03 2.347e-10
 22.37791    291.7 1.012e+04 2.754e-10
 22.39797    290.7 1.037e+04 3.077e-10
 22.42189    286.4 1.064e+04 3.337e-10
 22.46202    282.5 1.068e+04 3.542e-10
 22.49202    279.9 1.054e+04 4.108e-10
 22.51199    278.1 1.055e+04 4.636e-10
 22.53205    276.2 1.060e+04 5.140e-10
 22.55212    274.6 1.064e+04 5.509e-10
 22.56339    273.2 1.068e+04 5.731e-10
 22.57342    273.2 1.079e+04 6.131e-10
 22.59224    271.9 1.081e+04 6.278e-10
 22.61231    270.3 1.087e+04 6.573e-10
 22.63237    268.5 1.107e+04 7.407e-10
 22.64619    266.2 1.155e+04 9.512e-10
 22.65623    266.4 1.145e+04 8.928e-10
 22.67250    263.6 1.225e+04 1.268e-09
 22.69257    260.3 1.337e+04 1.996e-09
 22.71263    256.7 1.460e+04 3.202e-09
 22.72900    252.6 1.577e+04 4.726e-09
 22.73903    252.3 1.560e+04 4.449e-09
 22.75276    247.8 1.668e+04 5.522e-09
 22.77282    242.7 1.709e+04 5.535e-09
 22.79289    237.0 1.714e+04 5.242e-09
 22.81180    231.3 1.697e+04 4.115e-09
 22.82184    231.3 1.697e+04 4.267e-09
 22.83302    225.5 1.631e+04 2.863e-09
 22.85308    219.6 1.521e+04 1.731e-09
 22.87314    213.7 1.378e+04 1.047e-09
 22.89321    208.4 1.228e+04 6.895e-10
 22.90464    204.0 1.115e+04 5.199e-10
 22.91467    203.9 1.130e+04 5.886e-10
 22.93334    200.6 1.103e+04 5.393e-10
 22.95340    198.0 1.103e+04 5.410e-10
 22.97347    195.6 1.109e+04 5.627e-10
 22.98745    193.1 1.139e+04 6.608e-10
 22.99748    192.4 1.161e+04 7.522e-10
 23.01359    189.7 1.218e+04 1.012e-09
 23.03366    187.2 1.279e+04 1.433e-09
 23.05372    185.1 1.332e+04 1.940e-09
 23.07025    183.3 1.373e+04 2.329e-09
 23.08028    182.6 1.360e+04 2.135e-09
 23.09385    180.7 1.362e+04 2.092e-09
 23.11392    178.6 1.357e+04 1.875e-09
 23.13398    176.0 1.338e+04 1.516e-09
 23.15306    172.5 1.338e+04 1.346e-09
 23.16309    170.2 1.320e+04 1.209e-09
 23.17411    164.4 1.376e+04 1.422e-09
 23.19417    157.4 1.537e+04 2.527e-09
 23.21424    151.4 1.705e+04 5.325e-09
 23.23430    146.9 1.810e+04 8.013e-09
 23.24589    142.6 1.825e+04 8.024e-09
 23.25593    140.7 1.854e+04 8.337e-09
 23.27443    136.5 1.817e+04 5.463e-09
 23.29449    130.5 1.720e+04 2.455e-09
 23.31456    121.5 1.434e+04 1.321e-09
 23.32870    113.1 1.288e+04 1.357e-09
 23.33873    110.4 1.241e+04 1.231e-09
 23.35469    106.5 1.237e+04 1.415e-09
 23.38488    101.3 1.294e+04 1.689e-09
 23.41170     96.4 1.272e+04 1.527e-09
 23.43176     95.0 1.261e+04 1.474e-09
 23.46524     91.6 1.174e+04 7.576e-10
 23.50536     86.6 9.946e+03 2.339e-10
 23.54549     80.8 8.094e+03 1.287e-10
 23.57731     78.1 7.948e+03 1.283e-10
 23.59737     77.4 8.010e+03 1.364e-10
 23.62575     75.9 8.248e+03 1.665e-10
 23.66588     74.3 8.887e+03 2.486e-10
 23.70601     72.9 9.476e+03 3.664e-10
 23.74292     71.9 9.741e+03 4.202e-10
 23.76299     70.7 9.898e+03 4.586e-10
 23.78626     69.7 9.835e+03 4.326e-10
 23.82639     68.6 9.648e+03 3.521e-10
 23.85402     67.2 9.451e+03 2.798e-10
 23.87408     69.8 9.614e+03 3.364e-10
 23.90665     68.6 9.407e+03 2.664e-10
 23.92860     67.1 9.422e+03 2.535e-10
 23.94866     66.0 9.244e+03 1.956e-10
 23.98691     64.3 9.342e+03 2.018e-10
 24.02703     62.0 9.709e+03 2.525e-10
 24.06716     59.6 1.042e+04 4.439e-10
 24.09421     57.7 1.098e+04 7.351e-10
 24.11427     56.8 1.046e+04 4.881e-10
 24.14742     54.9 1.059e+04 5.834e-10
 24.18755     52.6 1.060e+04 5.793e-10
 24.22768     50.0 1.047e+04 5.306e-10
 24.25982     47.0 1.052e+04 5.500e-10
 24.27988     45.9 1.089e+04 7.276e-10
 24.30793     40.4 1.242e+04 1.264e-09
 24.33793     35.8 1.276e+04 1.514e-09
 24.35246     34.8 1.234e+04 1.584e-09
 24.36249     35.1 1.260e+04 1.706e-09
 24.37796     34.2 1.219e+04 1.641e-09
 24.39803     32.4 1.271e+04 1.815e-09
 24.41809     24.6 1.625e+04 3.194e-09
 24.43526     19.8 1.645e+04 4.674e-09
 24.44530     19.7 1.574e+04 4.401e-09
 24.45822     17.0 1.510e+04 4.824e-09
 24.47829     12.5 1.624e+04 5.534e-09
 24.49835      5.4 1.939e+04 6.377e-09
 24.51807     -2.8 1.981e+04 8.109e-09
 24.52810     -1.1 1.953e+04 7.958e-09
 24.53848     -6.2 1.878e+04 9.923e-09
 24.55854     -9.3 1.839e+04 1.051e-08
 24.57861    -11.9 1.817e+04 9.708e-09
 24.59867    -15.0 1.760e+04 6.473e-09
 24.61091    -19.5 1.540e+04 3.728e-09
 24.62094    -18.9 1.564e+04 4.308e-09
 24.63880    -21.7 1.415e+04 3.155e-09
 24.65886    -23.1 1.385e+04 2.637e-09
 24.67893    -25.0 1.339e+04 2.147e-09
 24.69371    -27.1 1.288e+04 1.829e-09
 24.70374    -26.6 1.354e+04 2.029e-09
 24.71906    -28.5 1.284e+04 1.730e-09
 24.73912    -29.1 1.241e+04 1.578e-09
 24.75918    -29.2 1.212e+04 1.472e-09
 24.77652    -28.7 1.187e+04 1.342e-09
 24.78655    -28.5 1.207e+04 1.387e-09
 24.79931    -27.8 1.198e+04 1.212e-09
 24.81938    -27.6 1.168e+04 9.512e-10
 24.83944    -27.7 1.109e+04 6.886e-10
 24.85932    -27.8 1.064e+04 5.104e-10
 24.86935    -27.8 1.049e+04 4.743e-10
 24.87957    -27.9 1.026e+04 3.732e-10
 24.90976    -29.3 9.850e+03 3.228e-10
 24.94232    -29.9 9.300e+03 2.481e-10
 24.96239    -28.8 9.412e+03 2.608e-10
 24.99012    -28.6 9.139e+03 2.396e-10
 25.03025    -28.6 9.040e+03 2.437e-10
 25.07038    -28.4 9.115e+03 2.927e-10
 25.10793    -27.9 9.351e+03 3.661e-10
 25.12800    -26.6 9.439e+03 3.780e-10
 25.14050    -27.1 9.618e+03 4.310e-10
 25.16047    -26.6 9.711e+03 4.471e-10
 25.18053    -26.9 1.023e+04 5.632e-10
 25.20057    -27.6 1.046e+04 6.032e-10
 25.22064    -28.7 1.128e+04 8.295e-10
 25.24073    -29.7 1.157e+04 9.071e-10
 25.26079    -31.9 1.215e+04 1.221e-09
 25.28086    -32.4 1.273e+04 1.498e-09
 25.29341    -34.1 1.312e+04 1.803e-09
 25.30344    -32.9 1.284e+04 1.696e-09
 25.32098    -34.6 1.313e+04 1.880e-09
 25.34105    -36.5 1.339e+04 2.120e-09
 25.36111    -38.2 1.359e+04 2.278e-09
 25.37622    -39.9 1.358e+04 2.318e-09
 25.38625    -38.8 1.375e+04 2.437e-09
 25.40124    -39.9 1.339e+04 2.302e-09
 25.42131    -40.7 1.260e+04 1.757e-09
 25.44137    -41.2 1.174e+04 1.214e-09
 25.45902    -41.6 1.100e+04 8.222e-10
 25.46905    -40.3 1.117e+04 9.373e-10
 25.48150    -40.4 1.101e+04 7.203e-10
 25.50156    -40.5 1.123e+04 6.250e-10
 25.52163    -40.1 1.138e+04 5.958e-10
 25.55182    -41.8 1.118e+04 5.160e-10
 25.59205    -43.4 1.082e+04 4.269e-10
 25.62483    -44.1 1.072e+04 4.159e-10
 25.64489    -41.4 1.082e+04 4.411e-10
 25.67230    -41.6 1.088e+04 4.848e-10
 25.71243    -41.6 1.097e+04 5.332e-10
 25.75256    -41.8 1.091e+04 5.280e-10
 25.79044    -41.8 1.056e+04 4.286e-10
 25.81050    -39.1 1.099e+04 5.315e-10
 25.83282    -39.3 1.054e+04 3.961e-10
 25.87295    -39.3 1.008e+04 2.825e-10
 25.91307    -39.1 9.709e+03 1.985e-10
 25.95320    -39.4 9.558e+03 1.618e-10
 25.97611    -40.7 9.757e+03 1.628e-10
 25.99618    -38.2 1.002e+04 2.098e-10
 26.03346    -40.4 1.109e+04 3.546e-10
 26.07359    -42.1 1.211e+04 7.750e-10
 26.11372    -43.5 1.277e+04 1.220e-09
 26.14172    -45.6 1.294e+04 1.320e-09
 26.16179    -43.0 1.283e+04 1.208e-09
 26.19397    -45.3 1.237e+04 9.448e-10
 26.23410    -47.5 1.141e+04 5.262e-10
 26.27423    -49.5 1.051e+04 3.212e-10
 26.30733    -50.8 1.016e+04 2.626e-10
 26.32740    -48.0 1.042e+04 2.953e-10
 26.35449    -49.2 1.038e+04 2.895e-10
 26.39462    -50.7 1.043e+04 2.948e-10
 26.43475    -52.9 1.054e+04 3.286e-10
 26.46474    -53.7 1.054e+04 3.676e-10
 26.48278    -53.7 1.060e+04 4.525e-10
 26.49281    -52.3 1.065e+04 4.966e-10
 26.50478    -53.2 1.151e+04 7.148e-10
 26.52484    -54.3 1.246e+04 1.009e-09
 26.54490    -56.2 1.318e+04 1.334e-09
 26.56497    -58.5 1.372e+04 1.658e-09
 26.57562    -61.2 1.402e+04 1.936e-09
 26.58565    -59.7 1.402e+04 1.952e-09
 26.60510    -62.7 1.424e+04 2.195e-09
 26.62516    -66.0 1.459e+04 2.512e-09
 26.64523    -69.4 1.518e+04 3.044e-09
 26.65842    -72.7 1.584e+04 3.794e-09
 26.66845    -70.8 1.583e+04 3.754e-09
 26.68535    -74.0 1.638e+04 4.497e-09
 26.70542    -77.3 1.657e+04 4.787e-09
 26.72548    -80.7 1.654e+04 4.788e-09
 26.74123    -83.8 1.616e+04 4.300e-09
 26.75126    -81.9 1.626e+04 4.365e-09
 26.76561    -84.8 1.562e+04 3.576e-09
 26.78567    -87.4 1.491e+04 2.867e-09
 26.80574    -89.1 1.423e+04 2.269e-09
 26.82403    -90.2 1.367e+04 1.763e-09
 26.83406    -88.7 1.365e+04 1.778e-09
 26.84587    -89.4 1.311e+04 1.345e-09
 26.86593    -90.0 1.264e+04 1.000e-09
 26.88600    -90.8 1.232e+04 7.645e-10
 26.90606    -91.8 1.222e+04 6.386e-10
 26.91687    -92.8 1.224e+04 6.033e-10
 26.92690    -90.6 1.191e+04 4.733e-10
 26.94619    -91.6 1.196e+04 4.638e-10
 26.96625    -92.6 1.206e+04 4.804e-10
 26.98632    -93.5 1.202e+04 5.266e-10
 26.99967    -94.2 1.183e+04 5.684e-10
 27.00971    -92.2 1.206e+04 4.635e-10
 27.02645    -93.0 1.181e+04 4.921e-10
 27.04651    -93.7 1.163e+04 5.093e-10
 27.06657    -94.4 1.145e+04 5.212e-10
 27.08248    -95.1 1.136e+04 5.321e-10
 27.09251    -93.5 1.137e+04 4.704e-10
 27.10670    -94.5 1.127e+04 4.916e-10
 27.12677    -96.3 1.156e+04 5.634e-10
 27.14683    -98.8 1.245e+04 7.499e-10
 27.16528   -101.6 1.351e+04 1.152e-09
 27.17532    -99.1 1.306e+04 9.643e-10
 27.18696   -101.9 1.418e+04 1.572e-09
 27.20702   -104.9 1.523e+04 2.452e-09
 27.22709   -109.3 1.662e+04 3.437e-09
 27.24715   -115.9 1.825e+04 4.479e-09
 27.25812   -124.6 1.946e+04 5.497e-09
 27.26815   -120.9 1.969e+04 5.417e-09
 27.28728   -130.9 1.993e+04 6.215e-09
 27.30735   -140.9 1.975e+04 6.401e-09
 27.32741   -149.3 1.827e+04 6.210e-09
 27.34093   -155.5 1.663e+04 4.708e-09
 27.35096   -153.1 1.698e+04 5.172e-09
 27.36754   -158.1 1.531e+04 3.417e-09
 27.38760   -162.9 1.457e+04 2.363e-09
 27.40767   -169.4 1.472e+04 2.142e-09
 27.42373   -179.5 1.870e+04 2.088e-09
 27.43376   -181.1 1.969e+04 2.805e-09
 27.44780   -191.1 2.187e+04 5.301e-09
 27.46786   -197.5 2.188e+04 9.295e-09
 27.48792   -201.0 2.145e+04 1.238e-08
 27.50292   -202.4 2.069e+04 1.159e-08
 27.51146   -203.9 2.073e+04 1.256e-08
 27.51647   -204.8 2.075e+04 1.255e-08
 27.52294   -207.2 2.072e+04 1.290e-08
 27.53297   -209.4 2.073e+04 1.294e-08
 27.54300   -211.8 2.028e+04 1.250e-08
 27.55286   -214.2 1.973e+04 1.025e-08
 27.55787   -216.2 1.950e+04 9.572e-09
 27.56307   -218.7 1.862e+04 7.593e-09
 27.57310   -220.8 1.789e+04 6.297e-09
 27.58025   -222.4 1.734e+04 5.419e-09
 27.58527   -223.9 1.699e+04 5.134e-09
 27.59316   -224.6 1.668e+04 4.717e-09
 27.59933   -224.3 1.674e+04 4.464e-09
 27.60434   -226.0 1.663e+04 4.747e-09
 27.61323   -226.2 1.661e+04 4.590e-09
 27.62832   -226.9 1.668e+04 4.550e-09
 27.64844   -228.0 1.627e+04 4.097e-09
 27.66850   -229.1 1.543e+04 3.315e-09
 27.68218   -229.9 1.458e+04 2.637e-09
 27.69221   -230.8 1.550e+04 3.093e-09
 27.70863   -231.5 1.469e+04 2.451e-09
 27.72870   -232.0 1.410e+04 2.062e-09
 27.74876   -232.3 1.375e+04 1.889e-09
 27.76498   -232.4 1.355e+04 1.828e-09
 27.77502   -233.4 1.413e+04 2.315e-09
 27.78889   -232.8 1.394e+04 2.290e-09
 27.80895   -232.0 1.373e+04 2.257e-09
 27.82902   -231.0 1.347e+04 2.179e-09
 27.84779   -229.9 1.319e+04 2.044e-09
 27.85782   -230.1 1.357e+04 2.408e-09
 27.86914   -228.9 1.335e+04 2.181e-09
 27.88921   -227.9 1.331e+04 2.068e-09
 27.90927   -227.2 1.332e+04 2.051e-09
 27.92934   -227.1 1.340e+04 2.060e-09
 27.94063   -227.7 1.374e+04 2.128e-09
 27.95066   -228.8 1.485e+04 2.813e-09
 27.96947   -230.2 1.702e+04 4.349e-09
 27.98953   -231.2 1.941e+04 7.771e-09
 28.00959   -231.9 2.130e+04 1.329e-08
 28.02338   -232.8 2.235e+04 1.880e-08
 28.02835   -232.4 2.211e+04 1.922e-08
 28.03458   -232.8 2.264e+04 2.295e-08
 28.04461   -233.2 2.306e+04 2.640e-08
 28.05464   -233.9 2.336e+04 2.896e-08
 28.06467   -234.9 2.354e+04 3.015e-08
 28.06975   -235.8 2.357e+04 3.037e-08
 28.07477   -234.9 2.346e+04 3.016e-08
 28.08474   -235.5 2.346e+04 2.998e-08
 28.09477   -235.8 2.322e+04 2.769e-08
 28.10480   -235.8 2.280e+04 2.402e-08
 28.11116   -235.8 2.231e+04 2.022e-08
 28.11617   -234.9 2.256e+04 2.157e-08
 28.12487   -234.7 2.211e+04 1.848e-08
 28.13490   -234.6 2.168e+04 1.573e-08
 28.14493   -234.3 2.138e+04 1.374e-08
 28.15256   -234.0 2.128e+04 1.243e-08
 28.15757   -233.3 2.154e+04 1.387e-08
 28.17006   -234.0 2.131e+04 1.102e-08
 28.18904   -235.3 2.074e+04 6.934e-09
 28.19907   -231.5 2.161e+04 1.102e-08
 28.21024   -234.4 2.152e+04 7.082e-09
 28.23030   -239.3 2.089e+04 4.326e-09
 28.25037   -247.4 1.853e+04 2.554e-09
 28.27043   -256.3 1.587e+04 1.750e-09
 28.28188   -263.9 1.442e+04 1.395e-09
 28.29191   -262.9 1.740e+04 1.630e-09
 28.31056   -272.6 1.746e+04 1.544e-09
 28.33062   -281.7 1.835e+04 1.584e-09
 28.35069   -288.0 1.863e+04 1.904e-09
 28.36468   -291.5 1.849e+04 2.409e-09
 28.36965   -292.8 1.935e+04 2.664e-09
 28.37567   -293.6 1.926e+04 2.963e-09
 28.38570   -294.5 1.891e+04 3.435e-09
 28.39573   -294.9 1.881e+04 3.801e-09
 28.40577   -295.4 1.852e+04 4.355e-09
 28.41101   -295.7 1.842e+04 4.803e-09
 28.41602   -298.1 1.880e+04 6.871e-09
 28.42583   -298.0 1.843e+04 7.723e-09
 28.43586   -297.6 1.815e+04 8.415e-09
 28.44589   -297.1 1.792e+04 9.077e-09
 28.45241   -296.5 1.779e+04 9.587e-09
 28.45742   -297.5 1.791e+04 1.055e-08
 28.46596   -296.7 1.782e+04 1.005e-08
 28.47599   -296.0 1.774e+04 9.495e-09
 28.48602   -295.4 1.767e+04 8.654e-09
 28.49381   -295.1 1.750e+04 7.441e-09
 28.49883   -296.0 1.728e+04 6.065e-09
 28.50609   -295.7 1.686e+04 5.078e-09
 28.51612   -295.3 1.657e+04 4.623e-09
 28.53025   -294.8 1.636e+04 4.358e-09
 28.54033   -296.4 1.582e+04 3.042e-09
 28.55133   -296.0 1.519e+04 2.221e-09
 28.57139   -296.1 1.446e+04 1.581e-09
 28.59146   -296.6 1.373e+04 1.186e-09
 28.61152   -297.4 1.312e+04 1.009e-09
 28.62313   -298.9 1.292e+04 9.772e-10
 28.63316   -301.1 1.143e+04 6.706e-10
 28.65165   -302.8 1.187e+04 7.624e-10
 28.67172   -304.3 1.341e+04 1.300e-09
 28.69178   -305.1 1.449e+04 2.267e-09
 28.70594   -305.8 1.509e+04 3.276e-09
 28.71597   -305.9 1.503e+04 3.219e-09
 28.73191   -306.8 1.528e+04 3.774e-09
 28.75197   -308.0 1.530e+04 3.868e-09
 28.77204   -309.0 1.505e+04 3.757e-09
 28.78874   -309.5 1.442e+04 3.050e-09
 28.79877   -309.5 1.442e+04 3.035e-09
 28.81217   -310.1 1.373e+04 2.235e-09
 28.82252   -311.0 1.301e+04 1.623e-09
 28.83256   -312.0 1.260e+04 1.327e-09
 28.85229   -313.2 1.203e+04 1.042e-09
 28.87155   -314.2 1.167e+04 9.023e-10
 28.88158   -314.1 1.184e+04 1.017e-09
 28.89242   -314.8 1.168e+04 9.711e-10
 28.91249   -315.2 1.159e+04 9.568e-10
 28.93255   -315.5 1.151e+04 9.447e-10
 28.95261   -315.8 1.140e+04 9.199e-10
 28.96439   -315.9 1.124e+04 8.730e-10
 28.97442   -315.9 1.141e+04 9.590e-10
 28.99274   -316.0 1.120e+04 8.612e-10
 29.01281   -316.2 1.096e+04 7.481e-10
 29.03287   -316.4 1.070e+04 6.339e-10
 29.04719   -316.6 1.044e+04 5.315e-10
 29.05722   -316.7 1.047e+04 5.329e-10
 29.07300   -316.9 1.021e+04 4.478e-10
 29.09306   -317.1 1.002e+04 3.865e-10
 29.11313   -317.3 9.984e+03 3.554e-10
 29.13000   -317.6 9.990e+03 3.493e-10
 29.14003   -317.7 1.000e+04 3.528e-10
 29.15326   -318.6 1.004e+04 3.527e-10
 29.17332   -320.1 1.047e+04 3.623e-10
 29.19339   -322.3 1.145e+04 4.581e-10
 29.21280   -324.5 1.230e+04 6.833e-10
 29.22283   -324.7 1.227e+04 6.997e-10
 29.23351   -326.8 1.285e+04 1.015e-09
 29.25358   -328.8 1.324e+04 1.383e-09
 29.27364   -330.8 1.345e+04 1.706e-09
 29.29371   -332.8 1.348e+04 1.878e-09
 29.30564   -334.8 1.347e+04 1.913e-09
 29.31567   -335.9 1.339e+04 1.695e-09
 29.33384   -337.8 1.329e+04 1.693e-09
 29.35390   -339.3 1.303e+04 1.599e-09
 29.37396   -340.5 1.280e+04 1.437e-09
 29.38844   -341.5 1.259e+04 1.269e-09
 29.40860   -342.3 1.235e+04 1.155e-09
 29.44438   -342.5 1.190e+04 9.030e-10
 29.48451   -341.3 1.154e+04 6.882e-10
 29.52464   -339.7 1.117e+04 4.998e-10
 29.55425   -338.3 1.094e+04 3.830e-10
 29.57431   -337.2 1.114e+04 4.139e-10
 29.60490   -337.3 1.095e+04 3.307e-10
 29.64503   -337.2 1.073e+04 2.636e-10
 29.68516   -336.5 1.050e+04 2.095e-10
 29.71986   -335.6 1.033e+04 1.735e-10
 29.73992   -336.0 1.044e+04 1.830e-10
 29.76541   -335.2 1.036e+04 1.617e-10
 29.80554   -334.4 1.036e+04 1.549e-10
 29.84567   -333.8 1.037e+04 1.539e-10
 29.88547   -333.3 1.041e+04 1.549e-10
 29.90553   -333.7 1.048e+04 1.723e-10
 29.92593   -333.3 1.054e+04 1.752e-10
 29.96606   -332.9 1.062e+04 1.803e-10
 30.00618   -332.3 1.064e+04 1.847e-10
 30.04631   -331.4 1.063e+04 1.884e-10
 30.07114   -330.7 1.066e+04 1.951e-10
 30.09121   -331.8 1.097e+04 2.457e-10
 30.12657   -332.7 1.196e+04 2.567e-10
 30.15385   -330.8 1.206e+04 6.875e-11
 30.16379   -331.9 1.256e+04 9.089e-11
 30.17653   -336.0 1.549e+04 1.962e-10
 30.19660   -336.7 1.506e+04 2.718e-10
 30.21666   -340.2 1.988e+04 9.573e-10
 30.23656   -341.7 2.114e+04 3.657e-09
 30.24659   -341.5 2.083e+04 5.052e-09
 30.25679   -342.0 2.126e+04 1.030e-08
 30.27686   -342.3 2.118e+04 1.522e-08
 30.29692   -342.5 2.099e+04 1.680e-08
 30.31698   -342.8 2.049e+04 1.650e-08
 30.32940   -343.0 1.945e+04 1.303e-08
 30.33943   -344.2 1.834e+04 7.925e-09
 30.35711   -344.7 1.705e+04 4.795e-09
 30.37718   -345.5 1.556e+04 2.766e-09
 30.39724   -346.4 1.410e+04 1.690e-09
 30.41220   -346.9 1.297e+04 1.181e-09
 30.42223   -347.8 1.236e+04 9.516e-10
 30.43737   -347.2 1.208e+04 8.240e-10
 30.45743   -346.3 1.192e+04 7.473e-10
 30.47750   -345.2 1.179e+04 6.899e-10
 30.49501   -344.2 1.167e+04 6.404e-10
 30.50504   -344.3 1.151e+04 5.750e-10
 30.51763   -343.3 1.140e+04 5.387e-10
 30.53769   -342.4 1.130e+04 5.120e-10
 30.55776   -341.4 1.122e+04 4.933e-10
 30.57781   -340.4 1.115e+04 4.810e-10
 30.59788   -339.4 1.103e+04 4.520e-10
 30.61795   -338.5 1.101e+04 4.539e-10
 30.63801   -337.5 1.100e+04 4.561e-10
 30.65808   -336.7 1.098e+04 4.564e-10
 30.67065   -335.9 1.094e+04 4.551e-10
 30.68068   -335.9 1.093e+04 4.508e-10
 30.69821   -335.1 1.089e+04 4.513e-10
 30.71827   -334.4 1.081e+04 4.473e-10
 30.73833   -333.6 1.072e+04 4.381e-10
 30.75345   -332.9 1.063e+04 4.251e-10
 30.76349   -332.9 1.063e+04 4.212e-10
 30.77846   -332.0 1.056e+04 4.012e-10
 30.80866   -331.8 1.052e+04 3.862e-10
 30.84888   -330.9 1.045e+04 3.827e-10
 30.88901   -329.4 1.043e+04 3.834e-10
 30.91926   -328.0 1.047e+04 4.125e-10
 30.93932   -327.5 1.022e+04 3.400e-10
 30.96927   -326.2 1.029e+04 3.658e-10
 31.00940   -324.9 1.043e+04 4.015e-10
 31.04953   -323.8 1.056e+04 4.301e-10
 31.08487   -322.6 1.063e+04 4.408e-10
 31.10493   -322.4 1.021e+04 3.365e-10
 31.12978   -321.3 1.026e+04 3.474e-10
 31.16991   -320.1 1.030e+04 3.598e-10
 31.21004   -318.8 1.033e+04 3.671e-10
 31.25017   -317.3 1.034e+04 3.669e-10
 31.27054   -315.8 1.036e+04 3.630e-10
 31.29061   -314.8 1.031e+04 3.574e-10
 31.33042   -312.9 1.031e+04 3.399e-10
 31.37055   -310.9 1.030e+04 3.211e-10
 31.41068   -308.8 1.027e+04 3.061e-10
 31.43615   -307.0 1.021e+04 2.935e-10
 31.45622   -306.4 1.026e+04 2.810e-10
 31.49094   -304.6 1.022e+04 2.786e-10
 31.53107   -302.7 1.021e+04 2.787e-10
 31.57120   -300.8 1.025e+04 2.954e-10
 31.60176   -299.0 1.041e+04 3.424e-10
 31.62183   -298.8 1.046e+04 3.327e-10
 31.65145   -297.2 1.069e+04 4.022e-10
 31.68145   -296.0 1.081e+04 4.382e-10
 31.69441   -295.5 1.096e+04 4.877e-10
 31.70444   -295.5 1.096e+04 4.859e-10
 31.72148   -294.9 1.114e+04 5.502e-10
 31.74155   -294.6 1.132e+04 6.193e-10
 31.76161   -294.3 1.155e+04 7.212e-10
 31.77721   -294.2 1.177e+04 8.377e-10
 31.78724   -294.4 1.172e+04 7.831e-10
 31.80174   -294.3 1.196e+04 9.235e-10
 31.82180   -294.1 1.222e+04 1.051e-09
 31.84187   -293.9 1.245e+04 1.197e-09
 31.86002   -293.7 1.263e+04 1.338e-09
 31.87005   -294.0 1.245e+04 1.163e-09
 31.88200   -293.7 1.255e+04 1.261e-09
 31.90206   -293.4 1.257e+04 1.323e-09
 31.92213   -293.0 1.255e+04 1.341e-09
 31.94219   -292.5 1.254e+04 1.343e-09
 31.95285   -291.8 1.239e+04 1.332e-09
 31.96289   -292.0 1.214e+04 1.107e-09
 31.98232   -291.2 1.202e+04 1.046e-09
 32.00238   -290.4 1.192e+04 9.736e-10
 32.02245   -289.5 1.182e+04 9.030e-10
 32.03566   -288.6 1.175e+04 8.419e-10
 32.04569   -288.8 1.166e+04 7.115e-10
 32.06257   -287.9 1.165e+04 6.815e-10
 32.08264   -286.9 1.166e+04 6.658e-10
 32.10270   -285.9 1.167e+04 6.618e-10
 32.11846   -284.9 1.169e+04 6.686e-10
 32.12850   -285.2 1.167e+04 6.234e-10
 32.14283   -284.2 1.170e+04 6.415e-10
 32.16290   -283.1 1.172e+04 6.672e-10
 32.18296   -282.1 1.174e+04 7.004e-10
 32.20127   -281.0 1.177e+04 7.391e-10
 32.21130   -281.3 1.180e+04 7.391e-10
 32.22309   -280.3 1.188e+04 7.968e-10
 32.24315   -279.1 1.197e+04 8.606e-10
 32.26322   -278.0 1.206e+04 9.252e-10
 32.28328   -276.9 1.216e+04 9.851e-10
 32.29411   -275.8 1.227e+04 1.037e-09
 32.30414   -276.4 1.258e+04 1.178e-09
 32.32341   -275.5 1.272e+04 1.248e-09
 32.34347   -274.5 1.284e+04 1.310e-09
 32.36354   -273.6 1.295e+04 1.374e-09
 32.37691   -272.8 1.306e+04 1.449e-09
 32.38694   -273.4 1.331e+04 1.810e-09
 32.40367   -272.5 1.339e+04 1.887e-09
 32.42373   -271.7 1.350e+04 1.972e-09
 32.44380   -270.9 1.366e+04 2.084e-09
 32.45972   -270.3 1.390e+04 2.243e-09
 32.46975   -270.6 1.391e+04 2.303e-09
 32.48392   -270.1 1.412e+04 2.384e-09
 32.50399   -269.6 1.441e+04 2.522e-09
 32.52405   -269.1 1.476e+04 2.739e-09
 32.54252   -268.6 1.514e+04 3.032e-09
 32.55255   -269.1 1.472e+04 2.399e-09
 32.56418   -268.7 1.500e+04 2.520e-09
 32.58425   -268.3 1.527e+04 2.637e-09
 32.60431   -267.9 1.549e+04 2.712e-09
 32.62437   -267.4 1.565e+04 2.728e-09
 32.63536   -267.0 1.576e+04 2.686e-09
 32.64539   -267.9 1.519e+04 2.050e-09
 32.66450   -267.7 1.533e+04 2.091e-09
 32.68457   -267.6 1.541e+04 2.159e-09
 32.70463   -267.7 1.542e+04 2.258e-09
 32.71816   -267.8 1.534e+04 2.408e-09
 32.72820   -268.7 1.520e+04 2.783e-09
 32.74476   -268.9 1.525e+04 3.176e-09
 32.76482   -269.0 1.528e+04 3.526e-09
 32.78489   -269.4 1.528e+04 3.770e-09
 32.80097   -269.9 1.525e+04 3.861e-09
 32.81100   -270.1 1.521e+04 3.767e-09
 32.82502   -270.5 1.512e+04 3.749e-09
 32.84508   -270.8 1.478e+04 3.403e-09
 32.86515   -270.9 1.436e+04 2.824e-09
 32.88377   -270.9 1.392e+04 2.270e-09
 32.89381   -270.9 1.349e+04 1.811e-09
 32.90527   -270.9 1.303e+04 1.423e-09
 32.92534   -270.7 1.262e+04 1.138e-09
 32.94540   -270.3 1.226e+04 9.388e-10
 32.96547   -269.7 1.197e+04 8.017e-10
 32.97661   -269.1 1.176e+04 7.066e-10
 32.98664   -269.1 1.155e+04 6.411e-10
 33.00560   -268.4 1.144e+04 5.942e-10
 33.02566   -267.6 1.135e+04 5.601e-10
 33.04572   -266.9 1.128e+04 5.331e-10
 33.05942   -266.1 1.122e+04 5.061e-10
 33.06945   -266.1 1.124e+04 5.125e-10
 33.08585   -265.4 1.120e+04 4.909e-10
 33.10592   -264.8 1.118e+04 4.728e-10
 33.12598   -264.1 1.117e+04 4.589e-10
 33.14222   -263.4 1.117e+04 4.505e-10
 33.15225   -263.6 1.136e+04 5.314e-10
 33.16611   -262.9 1.139e+04 5.473e-10
 33.18617   -262.2 1.145e+04 5.700e-10
 33.20624   -261.6 1.150e+04 5.999e-10
 33.22503   -260.8 1.157e+04 6.347e-10
 33.23506   -261.0 1.188e+04 8.450e-10
 33.24637   -260.2 1.198e+04 9.032e-10
 33.26643   -259.5 1.208e+04 9.542e-10
 33.28649   -258.9 1.216e+04 9.912e-10
 33.30656   -258.3 1.220e+04 1.016e-09
 33.31786   -257.7 1.225e+04 1.039e-09
 33.32790   -257.9 1.258e+04 1.316e-09
 33.34669   -257.5 1.258e+04 1.310e-09
 33.36675   -257.1 1.260e+04 1.299e-09
 33.38682   -256.9 1.261e+04 1.295e-09
 33.40067   -256.7 1.269e+04 1.295e-09
 33.41070   -257.2 1.293e+04 1.499e-09
 33.42694   -257.1 1.294e+04 1.493e-09
 33.44701   -257.1 1.302e+04 1.496e-09
 33.46707   -257.1 1.310e+04 1.511e-09
 33.48348   -257.1 1.317e+04 1.519e-09
 33.49351   -257.8 1.317e+04 1.533e-09
 33.50720   -257.6 1.314e+04 1.468e-09
 33.52727   -257.4 1.305e+04 1.370e-09
 33.54733   -256.9 1.291e+04 1.253e-09
 33.56628   -256.4 1.274e+04 1.125e-09
 33.57631   -256.9 1.247e+04 1.061e-09
 33.58746   -256.2 1.226e+04 9.517e-10
 33.60752   -255.5 1.207e+04 8.543e-10
 33.62759   -254.7 1.191e+04 7.675e-10
 33.64765   -253.7 1.179e+04 7.007e-10
 33.65912   -252.8 1.168e+04 6.505e-10
 33.66915   -253.0 1.168e+04 6.542e-10
 33.68778   -251.9 1.159e+04 6.111e-10
 33.70784   -250.8 1.152e+04 5.752e-10
 33.72791   -249.7 1.145e+04 5.445e-10
 33.74192   -248.6 1.138e+04 5.145e-10
 33.75195   -248.8 1.135e+04 5.238e-10
 33.76804   -247.6 1.128e+04 4.875e-10
 33.78120   -246.5 1.121e+04 4.510e-10
 33.79123   -245.7 1.140e+04 5.469e-10
 33.80817   -244.6 1.135e+04 5.151e-10
 33.82473   -243.5 1.131e+04 4.818e-10
 33.83476   -243.7 1.127e+04 4.865e-10
 33.84829   -242.7 1.123e+04 4.469e-10
 33.86836   -241.6 1.119e+04 4.094e-10
 33.88842   -240.4 1.114e+04 3.749e-10
 33.90753   -239.2 1.107e+04 3.458e-10
 33.91757   -239.0 1.097e+04 3.317e-10
 33.92855   -237.8 1.095e+04 3.200e-10
 33.94862   -236.8 1.096e+04 3.176e-10
 33.97881   -235.9 1.101e+04 3.163e-10
 34.00057   -233.5 1.079e+04 2.923e-10
 34.02063   -233.2 1.059e+04 2.824e-10
 34.05916   -230.3 1.040e+04 2.673e-10
 34.09929   -227.7 1.029e+04 2.573e-10
 34.13942   -225.2 1.024e+04 2.528e-10
 34.16608   -223.4 1.022e+04 2.578e-10
 34.17601   -223.3 1.009e+04 2.501e-10
 34.18939   -222.1 1.009e+04 2.488e-10
 34.20945   -221.0 1.012e+04 2.493e-10
 34.22951   -220.0 1.020e+04 2.547e-10
 34.24879   -219.0 1.034e+04 2.642e-10
 34.25882   -218.9 1.031e+04 2.592e-10
 34.26964   -217.9 1.057e+04 2.748e-10
 34.28971   -217.1 1.100e+04 3.047e-10
 34.30977   -216.4 1.159e+04 3.589e-10
 34.32984   -215.9 1.234e+04 4.555e-10
 34.34162   -215.4 1.314e+04 6.304e-10
 34.35166   -215.6 1.367e+04 6.743e-10
 34.36996   -215.2 1.449e+04 1.034e-09
 34.39003   -214.6 1.511e+04 1.585e-09
 34.41009   -213.7 1.557e+04 2.347e-09
 34.42443   -212.6 1.593e+04 3.314e-09
 34.43446   -212.6 1.628e+04 3.829e-09
 34.45022   -211.5 1.661e+04 5.208e-09
 34.47029   -210.5 1.687e+04 6.603e-09
 34.49035   -209.7 1.701e+04 7.787e-09
 34.50723   -208.9 1.703e+04 8.610e-09
 34.51727   -208.6 1.726e+04 9.547e-09
 34.53048   -208.1 1.726e+04 9.774e-09
 34.55054   -207.7 1.701e+04 9.646e-09
 34.57061   -207.3 1.675e+04 8.720e-09
 34.59004   -206.9 1.636e+04 7.737e-09
 34.60007   -206.8 1.654e+04 8.048e-09
 34.61074   -206.3 1.609e+04 6.967e-09
 34.63080   -205.8 1.558e+04 5.942e-09
 34.65086   -205.2 1.505e+04 5.026e-09
 34.67093   -204.5 1.454e+04 4.222e-09
 34.68288   -203.6 1.407e+04 3.552e-09
 34.69291   -203.4 1.425e+04 3.845e-09
 34.71106   -202.3 1.379e+04 3.174e-09
 34.73112   -201.3 1.339e+04 2.610e-09
 34.75119   -200.2 1.304e+04 2.137e-09
 34.76568   -199.0 1.275e+04 1.755e-09
 34.77571   -198.6 1.265e+04 1.676e-09
 34.79131   -197.5 1.232e+04 1.367e-09
 34.81138   -196.5 1.204e+04 1.154e-09
 34.83144   -195.4 1.184e+04 1.025e-09
 34.84849   -194.1 1.172e+04 9.552e-10
 34.85852   -193.5 1.147e+04 9.008e-10
 34.87157   -191.9 1.144e+04 8.908e-10
 34.90177   -190.2 1.157e+04 9.169e-10
 34.94199   -186.5 1.143e+04 8.846e-10
 34.98212   -183.2 1.153e+04 8.967e-10
 35.01429   -180.1 1.171e+04 9.530e-10
 35.03436   -178.3 1.121e+04 8.400e-10
 35.06238   -175.1 1.151e+04 9.307e-10
 35.10251   -172.0 1.190e+04 1.070e-09
 35.14263   -168.9 1.236e+04 1.267e-09
 35.17990   -165.8 1.269e+04 1.462e-09
 35.19987   -163.8 1.313e+04 1.627e-09
 35.21266   -162.0 1.337e+04 1.834e-09
 35.23273   -160.5 1.361e+04 2.052e-09
 35.25279   -159.1 1.390e+04 2.324e-09
 35.27254   -157.7 1.421e+04 2.622e-09
 35.28258   -156.7 1.496e+04 3.196e-09
 35.29292   -155.3 1.557e+04 3.814e-09
 35.31298   -154.1 1.620e+04 4.534e-09
 35.33305   -152.9 1.678e+04 5.321e-09
 35.35311   -151.8 1.727e+04 6.091e-09
 35.36538   -150.6 1.761e+04 6.726e-09
 35.37541   -149.6 1.958e+04 1.142e-08
 35.39324   -148.3 2.007e+04 1.347e-08
 35.41331   -147.0 2.018e+04 1.429e-08
 35.43337   -145.9 2.016e+04 1.410e-08
 35.44814   -145.7 1.969e+04 1.339e-08
 35.45310   -145.4 2.088e+04 1.908e-08
 35.45835   -145.2 2.068e+04 1.838e-08
 35.46839   -145.0 2.039e+04 1.709e-08
 35.47842   -144.8 2.011e+04 1.589e-08
 35.48845   -144.4 1.977e+04 1.447e-08
 35.49451   -144.0 1.941e+04 1.274e-08
 35.49952   -143.8 2.073e+04 1.981e-08
 35.50851   -143.3 2.041e+04 1.718e-08
 35.51855   -142.8 2.005e+04 1.441e-08
 35.52858   -142.4 1.961e+04 1.179e-08
 35.53591   -142.1 1.904e+04 9.460e-09
 35.54093   -141.6 2.083e+04 1.573e-08
 35.54864   -141.1 2.046e+04 1.260e-08
 35.55867   -140.7 1.986e+04 9.886e-09
 35.56871   -140.5 1.899e+04 7.688e-09
 35.57731   -140.5 1.787e+04 6.007e-09
 35.58233   -139.5 2.099e+04 1.061e-08
 35.58877   -139.3 2.009e+04 8.182e-09
 35.59880   -139.2 1.886e+04 6.347e-09
 35.60883   -139.2 1.750e+04 5.004e-09
 35.61871   -139.2 1.646e+04 4.061e-09
 35.62373   -138.0 2.084e+04 7.463e-09
 35.62890   -138.0 1.932e+04 5.569e-09
 35.63893   -138.1 1.794e+04 4.360e-09
 35.64896   -138.2 1.678e+04 3.707e-09
 35.65900   -138.2 1.594e+04 3.321e-09
 35.66513   -138.2 1.543e+04 3.065e-09
 35.67015   -137.2 1.868e+04 4.468e-09
 35.67906   -137.6 1.722e+04 3.852e-09
 35.68909   -137.9 1.630e+04 3.483e-09
 35.69912   -138.2 1.590e+04 3.259e-09
 35.70654   -138.7 1.583e+04 3.120e-09
 35.71155   -138.6 2.120e+04 4.996e-09
 35.71919   -139.7 2.220e+04 4.828e-09
 35.72922   -141.2 2.326e+04 4.871e-09
 35.73925   -142.5 2.307e+04 4.671e-09
 35.74794   -143.3 2.018e+04 3.742e-09
 35.75295   -148.5 3.024e+04 1.195e-08
 35.75932   -148.2 2.684e+04 8.342e-09
 35.76935   -147.2 2.332e+04 6.028e-09
 35.77938   -146.6 2.082e+04 4.746e-09
 35.78934   -146.5 1.951e+04 4.052e-09
 35.79436   -150.7 2.558e+04 1.525e-08
 35.79945   -150.1 2.500e+04 1.241e-08
 35.80948   -149.7 2.452e+04 1.097e-08
 35.81951   -149.4 2.410e+04 1.016e-08
 35.82954   -149.1 2.375e+04 9.741e-09
 35.83576   -148.9 2.340e+04 9.465e-09
 35.84078   -151.3 2.481e+04 2.540e-08
 35.84961   -150.8 2.447e+04 2.307e-08
 35.85964   -150.2 2.417e+04 2.118e-08
 35.86967   -149.6 2.393e+04 1.963e-08
 35.87716   -148.8 2.372e+04 1.824e-08
 35.88218   -149.7 2.360e+04 3.137e-08
 35.88973   -148.9 2.348e+04 2.782e-08
 35.89977   -148.3 2.332e+04 2.456e-08
 35.90980   -147.7 2.313e+04 2.175e-08
 35.91856   -147.0 2.296e+04 1.953e-08
 35.92358   -147.3 2.273e+04 2.339e-08
 35.92986   -146.6 2.247e+04 2.066e-08
 35.93990   -146.0 2.225e+04 1.853e-08
 35.95499   -145.2 2.202e+04 1.662e-08
 35.97511   -143.8 2.300e+04 1.545e-08
 35.99517   -142.4 2.277e+04 1.383e-08
 36.01523   -140.9 2.296e+04 1.280e-08
 36.03530   -139.6 2.315e+04 1.258e-08
 36.04789   -138.6 2.329e+04 1.256e-08
 36.05792   -138.5 2.321e+04 8.675e-09
 36.07543   -137.2 2.340e+04 8.565e-09
 36.09549   -135.7 2.332e+04 8.379e-09
 36.11556   -133.9 2.282e+04 8.074e-09
 36.13069   -132.2 2.219e+04 7.660e-09
 36.14072   -131.4 2.102e+04 6.688e-09
 36.15568   -129.6 2.090e+04 6.735e-09
 36.17575   -127.8 2.078e+04 6.746e-09
 36.19581   -126.1 2.078e+04 6.689e-09
 36.21350   -124.5 2.093e+04 6.474e-09
 36.22353   -122.9 2.089e+04 7.608e-09
 36.23594   -121.4 2.181e+04 7.946e-09
 36.25552   -120.2 2.263e+04 8.091e-09
 36.26555   -122.9 2.301e+04 7.878e-09
 36.27607   -122.2 2.203e+04 7.635e-09
 36.29613   -121.8 2.045e+04 7.421e-09
 36.30633   -121.7 1.884e+04 7.211e-09
 36.31637   -119.2 2.452e+04 1.181e-08
 36.33626   -119.6 2.373e+04 1.200e-08
 36.35633   -120.7 2.219e+04 1.200e-08
 36.37639   -122.5 2.050e+04 1.228e-08
 36.38909   -122.6 2.059e+04 1.361e-08
 36.39406   -121.9 2.185e+04 1.657e-08
 36.40137   -123.0 2.105e+04 1.685e-08
 36.41141   -124.1 2.079e+04 1.715e-08
 36.42144   -125.2 2.071e+04 1.766e-08
 36.43044   -126.6 2.077e+04 1.811e-08
 36.43546   -126.8 2.105e+04 1.945e-08
 36.44150   -128.3 2.080e+04 1.870e-08
 36.45153   -129.4 2.045e+04 1.704e-08
 36.46157   -130.3 2.009e+04 1.495e-08
 36.47160   -131.3 1.978e+04 1.259e-08
 36.47686   -132.7 1.943e+04 1.019e-08
 36.48188   -133.2 1.940e+04 9.528e-09
 36.49166   -135.5 1.866e+04 7.241e-09
 36.50169   -138.0 1.764e+04 5.493e-09
 36.51679   -140.9 1.644e+04 4.113e-09
 36.53690   -143.6 1.564e+04 3.189e-09
 36.55475   -147.5 1.389e+04 2.030e-09
 36.56478   -148.6 1.353e+04 1.756e-09
 36.57703   -151.0 1.216e+04 1.078e-09
 36.59710   -152.8 1.150e+04 7.061e-10
 36.61716   -154.9 1.094e+04 4.879e-10
 36.63723   -157.2 1.041e+04 3.653e-10
 36.64759   -159.2 1.020e+04 3.187e-10
 36.65762   -160.0 1.023e+04 3.274e-10
 36.67735   -161.1 1.020e+04 3.203e-10
 36.69742   -162.1 1.025e+04 3.218e-10
 36.71748   -163.1 1.046e+04 3.462e-10
 36.73039   -164.3 1.068e+04 3.774e-10
 36.74042   -166.1 1.088e+04 4.464e-10
 36.75761   -167.6 1.102e+04 4.777e-10
 36.77768   -169.4 1.113e+04 5.000e-10
 36.79774   -171.3 1.122e+04 5.136e-10
 36.81320   -173.3 1.134e+04 5.234e-10
 36.82323   -175.4 1.171e+04 5.821e-10
 36.83787   -177.9 1.195e+04 6.236e-10
 36.85793   -180.6 1.224e+04 6.972e-10
 36.87800   -183.4 1.254e+04 8.045e-10
 36.89600   -186.2 1.278e+04 9.240e-10
 36.90603   -188.7 1.307e+04 1.053e-09
 36.91813   -191.6 1.325e+04 1.130e-09
 36.93819   -194.7 1.339e+04 1.147e-09
 36.95825   -197.8 1.341e+04 1.144e-09
 36.97832   -200.9 1.330e+04 1.077e-09
 36.98884   -203.9 1.299e+04 9.585e-10
 36.99887   -207.1 1.256e+04 8.037e-10
 37.01845   -209.9 1.214e+04 6.882e-10
 37.03851   -212.6 1.195e+04 6.189e-10
 37.05858   -215.2 1.192e+04 6.033e-10
 37.07164   -218.1 1.203e+04 5.982e-10
 37.08168   -223.4 1.326e+04 7.355e-10
 37.09870   -227.0 1.401e+04 9.853e-10
 37.11877   -230.0 1.441e+04 1.390e-09
 37.13883   -232.2 1.458e+04 1.858e-09
 37.15445   -233.6 1.462e+04 2.247e-09
 37.16448   -236.7 1.505e+04 2.872e-09
 37.17896   -237.4 1.502e+04 2.900e-09
 37.19903   -237.9 1.477e+04 2.536e-09
 37.21909   -238.6 1.426e+04 1.947e-09
 37.23725   -239.8 1.366e+04 1.408e-09
 37.24729   -244.2 1.326e+04 1.072e-09
 37.25922   -245.8 1.247e+04 8.233e-10
 37.27928   -247.0 1.196e+04 7.336e-10
 37.29935   -247.7 1.180e+04 7.180e-10
 37.31941   -248.0 1.175e+04 7.269e-10
 37.33009   -247.9 1.185e+04 8.062e-10
 37.34012   -250.9 1.230e+04 9.077e-10
 37.35954   -250.8 1.262e+04 1.018e-09
 37.37960   -250.8 1.287e+04 1.113e-09
 37.39967   -250.9 1.300e+04 1.188e-09
 37.41290   -251.2 1.301e+04 1.261e-09
 37.42293   -254.0 1.274e+04 1.276e-09
 37.43980   -254.3 1.301e+04 1.416e-09
 37.45986   -254.5 1.343e+04 1.599e-09
 37.47992   -254.6 1.382e+04 1.777e-09
 37.49570   -254.6 1.403e+04 1.882e-09
 37.50573   -257.4 1.386e+04 1.771e-09
 37.52005   -257.1 1.340e+04 1.665e-09
 37.54012   -256.7 1.285e+04 1.503e-09
 37.56018   -256.2 1.231e+04 1.342e-09
 37.57851   -255.4 1.190e+04 1.211e-09
 37.58854   -256.1 1.120e+04 9.325e-10
 37.60031   -255.1 1.107e+04 8.434e-10
 37.62037   -254.2 1.099e+04 7.728e-10
 37.64044   -253.3 1.095e+04 7.232e-10
 37.66050   -252.4 1.092e+04 6.943e-10
 37.67134   -251.5 1.091e+04 6.827e-10
 37.68138   -252.0 1.042e+04 4.553e-10
 37.70063   -251.0 1.041e+04 4.544e-10
 37.72070   -250.1 1.041e+04 4.551e-10
 37.74076   -249.0 1.044e+04 4.647e-10
 37.75415   -248.1 1.048e+04 4.809e-10
 37.76428   -248.9 9.699e+03 2.687e-10
 37.79112   -246.7 9.860e+03 3.057e-10
 37.83124   -244.5 9.968e+03 3.416e-10
 37.87137   -242.4 9.982e+03 3.560e-10
 37.90992   -240.4 9.974e+03 3.568e-10
 37.92999   -240.1 9.480e+03 2.531e-10
 37.95163   -238.0 9.474e+03 2.572e-10
 37.99176   -236.0 9.463e+03 2.559e-10
 38.03189   -233.9 9.425e+03 2.474e-10
 38.07202   -231.9 9.375e+03 2.346e-10
 38.09560   -229.9 9.373e+03 2.255e-10
 38.11566   -230.0 9.290e+03 2.059e-10
 38.15227   -228.4 9.448e+03 2.112e-10
 38.19240   -226.8 9.570e+03 2.417e-10
 38.23253   -225.3 9.699e+03 2.904e-10
 38.26121   -223.8 9.802e+03 3.471e-10
 38.28127   -224.1 9.810e+03 3.377e-10
 38.31279   -222.6 9.805e+03 3.458e-10
 38.35292   -221.1 9.746e+03 3.427e-10
 38.39304   -219.4 9.563e+03 3.124e-10
 38.42682   -217.6 9.355e+03 2.713e-10
 38.44688   -217.6 9.127e+03 1.763e-10
 38.47330   -215.6 8.990e+03 1.570e-10
 38.51343   -213.4 8.891e+03 1.458e-10
 38.55356   -211.2 8.838e+03 1.416e-10
 38.59243   -208.9 8.827e+03 1.408e-10
 38.61249   -208.4 8.665e+03 1.181e-10
 38.63381   -206.1 8.671e+03 1.208e-10
 38.67394   -203.8 8.785e+03 1.414e-10
 38.71407   -201.6 8.965e+03 1.800e-10
 38.74006   -199.4 9.125e+03 2.287e-10
 38.76013   -198.8 8.976e+03 2.002e-10
 38.77810   -196.6 9.085e+03 2.440e-10
 38.79817   -195.5 9.090e+03 2.415e-10
 38.83446   -193.2 9.214e+03 2.837e-10
 38.87459   -191.0 9.264e+03 3.066e-10
 38.91471   -188.7 9.270e+03 3.111e-10
 38.94371   -186.4 9.185e+03 3.055e-10
 38.96378   -185.2 9.249e+03 3.107e-10
 38.99497   -182.8 9.147e+03 2.785e-10
 39.03510   -180.4 8.999e+03 2.368e-10
 39.07523   -178.0 8.869e+03 2.010e-10
 39.10932   -175.6 8.790e+03 1.776e-10
 39.12939   -174.7 9.302e+03 2.639e-10
 39.15549   -172.5 9.338e+03 2.621e-10
 39.19561   -170.4 9.614e+03 2.707e-10
 39.22561   -169.4 1.029e+04 3.708e-10
 39.24558   -168.7 1.054e+04 4.304e-10
 39.26564   -168.0 1.077e+04 5.186e-10
 39.28477   -167.4 1.100e+04 6.372e-10
 39.29480   -167.1 1.110e+04 1.036e-09
 39.30577   -166.2 1.129e+04 1.181e-09
 39.32584   -165.1 1.153e+04 1.356e-09
 39.34590   -164.0 1.184e+04 1.571e-09
 39.36597   -162.8 1.222e+04 1.831e-09
 39.37761   -161.7 1.264e+04 2.114e-09
 39.38764   -161.2 1.266e+04 1.955e-09
 39.40609   -160.1 1.294e+04 2.113e-09
 39.42616   -159.0 1.328e+04 2.312e-09
 39.44622   -158.1 1.367e+04 2.558e-09
 39.46041   -157.1 1.408e+04 2.870e-09
 39.47045   -157.3 1.360e+04 2.298e-09
 39.48635   -156.4 1.402e+04 2.580e-09
 39.50641   -155.5 1.446e+04 2.970e-09
 39.52648   -154.5 1.487e+04 3.481e-09
 39.54322   -153.3 1.524e+04 4.157e-09
 39.55325   -153.6 1.428e+04 3.177e-09
 39.56661   -152.5 1.485e+04 3.756e-09
 39.58667   -151.4 1.568e+04 4.641e-09
 39.60674   -150.6 1.686e+04 6.524e-09
 39.62602   -150.1 1.825e+04 1.116e-08
 39.63606   -149.8 1.789e+04 4.354e-09
 39.64686   -150.6 2.011e+04 7.182e-09
 39.66186   -151.2 2.121e+04 1.466e-08
 39.67185   -152.1 2.153e+04 2.232e-08
 39.67736   -152.6 2.148e+04 3.745e-08
 39.68238   -155.0 2.321e+04 1.971e-08
 39.69191   -155.6 2.253e+04 4.016e-08
 39.70194   -156.1 2.248e+04 7.018e-08
 39.71198   -156.9 2.253e+04 1.044e-07
 39.71876   -158.2 2.274e+04 1.260e-07
 39.72378   -157.7 2.323e+04 7.614e-08
 39.73204   -159.4 2.332e+04 8.561e-08
 39.74207   -161.4 2.327e+04 8.658e-08
 39.75210   -162.8 2.266e+04 7.410e-08
 39.76017   -163.3 2.207e+04 5.326e-08
 39.76518   -162.8 2.264e+04 4.406e-08
 39.77217   -163.1 2.214e+04 3.425e-08
 39.78220   -163.5 2.175e+04 2.614e-08
 39.79223   -163.9 2.132e+04 1.995e-08
 39.80157   -164.4 2.070e+04 1.536e-08
 39.80658   -163.8 2.159e+04 1.612e-08
 39.81230   -164.2 2.103e+04 1.258e-08
 39.82233   -164.8 2.026e+04 9.799e-09
 39.83236   -165.4 1.934e+04 7.737e-09
 39.84239   -166.0 1.839e+04 6.293e-09
 39.84799   -166.5 1.752e+04 5.368e-09
 39.85300   -166.6 1.779e+04 5.644e-09
 39.86246   -166.9 1.697e+04 4.922e-09
 39.87249   -167.0 1.646e+04 4.454e-09
 39.88442   -167.2 1.599e+04 3.976e-09
 39.89450   -168.4 1.568e+04 3.672e-09
 39.90770   -168.8 1.499e+04 3.183e-09
 39.92776   -169.3 1.459e+04 2.922e-09
 39.94783   -169.9 1.434e+04 2.796e-09
 39.96728   -170.3 1.414e+04 2.737e-09
 39.97731   -170.5 1.387e+04 2.822e-09
 39.98796   -170.8 1.360e+04 2.704e-09
 40.00802   -170.9 1.331e+04 2.493e-09
 40.02809   -170.9 1.306e+04 2.186e-09
 40.04815   -170.9 1.282e+04 1.851e-09
 40.06011   -170.9 1.263e+04 1.554e-09
 40.07015   -171.1 1.299e+04 1.589e-09
 40.08828   -171.2 1.279e+04 1.415e-09
 40.10834   -171.0 1.255e+04 1.274e-09
 40.12841   -170.5 1.232e+04 1.154e-09
 40.14292   -169.8 1.211e+04 1.044e-09
 40.15295   -169.9 1.212e+04 1.187e-09
 40.16854   -169.1 1.190e+04 1.049e-09
 40.18860   -168.4 1.169e+04 9.308e-10
 40.20866   -167.6 1.151e+04 8.436e-10
 40.22572   -166.7 1.139e+04 7.958e-10
 40.23576   -166.9 1.136e+04 8.157e-10
 40.24879   -166.0 1.133e+04 8.019e-10
 40.26886   -165.1 1.133e+04 8.007e-10
 40.28892   -164.6 1.136e+04 8.064e-10
 40.30853   -164.3 1.154e+04 9.185e-10
 40.31856   -164.3 1.157e+04 8.197e-10
 40.32905   -164.1 1.215e+04 1.062e-09
 40.34911   -163.8 1.278e+04 1.479e-09
 40.36918   -163.4 1.341e+04 2.070e-09
 40.38924   -162.8 1.397e+04 2.759e-09
 40.40137   -162.6 1.433e+04 3.341e-09
 40.41140   -163.0 1.365e+04 2.349e-09
 40.42937   -162.9 1.373e+04 2.611e-09
 40.44943   -162.9 1.372e+04 2.669e-09
 40.46950   -162.9 1.359e+04 2.661e-09
 40.48417   -162.4 1.310e+04 2.412e-09
 40.49420   -162.4 1.291e+04 1.803e-09
 40.50963   -161.6 1.252e+04 1.623e-09
 40.52969   -160.6 1.212e+04 1.411e-09
 40.54976   -159.6 1.176e+04 1.207e-09
 40.56698   -158.7 1.144e+04 1.025e-09
 40.57701   -158.8 1.109e+04 8.050e-10
 40.58988   -157.7 1.084e+04 7.159e-10
 40.60995   -156.7 1.064e+04 6.433e-10
 40.63001   -155.6 1.045e+04 5.767e-10
 40.64978   -154.5 1.030e+04 5.208e-10
 40.65991   -154.7 1.030e+04 5.263e-10
 40.68037   -152.3 1.011e+04 4.745e-10
 40.72050   -149.9 9.994e+03 4.346e-10
 40.76063   -147.5 9.881e+03 3.986e-10
 40.80075   -145.1 9.782e+03 3.631e-10
 40.82562   -142.7 9.662e+03 3.230e-10
 40.84568   -141.6 9.676e+03 3.438e-10
 40.88101   -139.1 9.506e+03 2.962e-10
 40.92114   -136.4 9.308e+03 2.481e-10
 40.96127   -133.7 9.136e+03 2.085e-10
 40.99123   -130.8 9.058e+03 1.821e-10
 41.01129   -129.7 8.991e+03 1.788e-10
 41.04153   -126.8 8.958e+03 1.626e-10
 41.08165   -123.8 8.976e+03 1.580e-10
 41.12178   -120.7 8.986e+03 1.576e-10
 41.15684   -117.8 9.042e+03 1.590e-10
 41.17690   -116.9 8.990e+03 1.648e-10
 41.20204   -114.0 9.039e+03 1.657e-10
 41.24217   -111.4 9.260e+03 1.751e-10
 41.28230   -109.4 9.633e+03 2.876e-10
 41.32243   -107.6 1.102e+04 6.417e-10
 41.35242   -105.8 1.193e+04 1.024e-09
 41.37239   -105.0 1.294e+04 1.710e-09
 41.39246   -104.4 1.393e+04 2.847e-09
 41.41252   -104.0 1.542e+04 5.479e-09
 41.42512   -103.2 1.683e+04 9.882e-09
 41.43516   -102.9 1.651e+04 9.148e-09
 41.45265   -102.0 1.793e+04 1.648e-08
 41.46648   -101.4 1.893e+04 2.695e-08
 41.47145   -101.4 1.880e+04 2.607e-08
 41.47763   -101.0 1.931e+04 3.408e-08
 41.48766   -100.6 1.989e+04 4.550e-08
 41.49769   -100.5 2.023e+04 5.604e-08
 41.50773   -100.5 2.047e+04 6.777e-08
 41.51285   -100.2 2.074e+04 8.251e-08
 41.51786   -100.0 2.032e+04 6.612e-08
 41.52779   -100.0 2.077e+04 7.785e-08
 41.53782   -100.4 2.105e+04 8.408e-08
 41.54786   -101.2 2.106e+04 8.485e-08
 41.55425   -101.7 2.092e+04 7.948e-08
 41.55927   -101.6 2.071e+04 5.256e-08
 41.56792   -101.7 2.067e+04 5.025e-08
 41.57795   -102.1 2.058e+04 4.739e-08
 41.58798   -102.3 2.035e+04 4.305e-08
 41.59565   -102.3 2.004e+04 3.862e-08
 41.60067   -102.3 1.962e+04 3.008e-08
 41.60805   -102.0 1.947e+04 2.793e-08
 41.61808   -101.8 1.943e+04 2.632e-08
 41.62811   -101.6 1.936e+04 2.497e-08
 41.63706   -101.3 1.918e+04 2.329e-08
 41.64207   -101.2 1.870e+04 1.931e-08
 41.64818   -100.8 1.858e+04 1.800e-08
 41.65821   -100.6 1.844e+04 1.616e-08
 41.66824   -100.4 1.820e+04 1.451e-08
 41.67827   -100.2 1.795e+04 1.346e-08
 41.68352    -99.8 1.754e+04 1.202e-08
 41.69360    -99.6 1.712e+04 8.567e-09
 41.71348    -99.2 1.610e+04 5.833e-09
 41.73355    -98.5 1.485e+04 3.905e-09
 41.75361    -97.8 1.352e+04 2.769e-09
 41.76638    -97.2 1.271e+04 2.159e-09
 41.77641    -97.6 1.380e+04 1.841e-09
 41.79374    -97.5 1.319e+04 1.615e-09
 41.81380    -97.3 1.315e+04 1.551e-09
 41.83387    -97.0 1.387e+04 1.538e-09
 41.84918    -96.6 1.577e+04 1.667e-09
 41.85921    -97.8 1.344e+04 2.037e-09
 41.87400    -96.9 1.325e+04 2.313e-09
 41.89406    -95.8 1.400e+04 2.636e-09
 41.91413    -94.9 1.563e+04 2.936e-09
 41.93199    -94.4 1.899e+04 3.137e-09
 41.94202    -95.3 1.858e+04 2.314e-09
 41.95425    -94.9 2.448e+04 2.062e-09
 41.97432    -94.3 2.843e+04 1.935e-09
 41.99438    -93.6 3.034e+04 1.952e-09
 42.01445    -92.8 3.020e+04 2.066e-09
 42.02482    -92.1 2.913e+04 2.141e-09
 42.03486    -93.0 2.257e+04 1.036e-09
 42.05458    -92.4 2.112e+04 1.018e-09
 42.07464    -92.0 1.993e+04 1.068e-09
 42.09470    -91.6 1.861e+04 1.231e-09
 42.10763    -91.2 1.783e+04 1.451e-09
 42.11766    -91.3 1.150e+04 7.344e-10
 42.13483    -90.7 1.164e+04 7.619e-10
 42.15490    -90.1 1.176e+04 8.380e-10
 42.17496    -89.4 1.203e+04 9.424e-10
 42.19043    -88.7 1.222e+04 1.069e-09
 42.20047    -88.2 1.144e+04 8.565e-10
 42.21509    -87.5 1.152e+04 9.403e-10
 42.23515    -86.7 1.160e+04 1.010e-09
 42.25522    -85.9 1.162e+04 1.053e-09
 42.27324    -85.2 1.161e+04 1.071e-09
 42.28327    -85.1 1.134e+04 9.450e-10
 42.29535    -84.7 1.136e+04 9.763e-10
 42.31541    -84.4 1.133e+04 9.868e-10
 42.33548    -84.1 1.127e+04 9.832e-10
 42.35554    -84.0 1.114e+04 9.319e-10
 42.36608    -84.1 1.107e+04 9.029e-10
 42.37621    -83.3 1.116e+04 8.888e-10
 42.39577    -84.1 1.135e+04 9.011e-10
 42.41573    -84.9 1.139e+04 9.056e-10
 42.43580    -86.4 1.125e+04 8.809e-10
 42.44888    -88.7 1.161e+04 9.796e-10
 42.45891    -87.0 1.139e+04 9.291e-10
 42.47593    -89.5 1.174e+04 1.149e-09
 42.49599    -92.5 1.290e+04 1.801e-09
 42.51605    -95.8 1.506e+04 3.244e-09
 42.53169    -99.2 1.760e+04 6.185e-09
 42.54172    -99.2 1.869e+04 8.026e-09
 42.55112   -101.5 1.999e+04 1.244e-08
 42.56110   -103.0 2.075e+04 1.677e-08
 42.57113   -104.5 2.145e+04 2.146e-08
 42.57801   -106.0 2.194e+04 2.663e-08
 42.58302   -105.7 2.234e+04 3.521e-08
 42.59120   -107.2 2.247e+04 3.885e-08
 42.60123   -108.7 2.246e+04 3.950e-08
 42.61126   -109.4 2.193e+04 3.638e-08
 42.61941   -109.6 2.112e+04 2.778e-08
 42.62443   -109.5 2.112e+04 2.960e-08
 42.63133   -109.4 2.021e+04 1.929e-08
 42.64136   -109.9 1.922e+04 1.273e-08
 42.65139   -110.8 1.807e+04 8.579e-09
 42.66081   -111.9 1.686e+04 6.077e-09
 42.66583   -112.4 1.647e+04 5.711e-09
 42.67652   -113.2 1.549e+04 4.272e-09
 42.69663   -114.1 1.357e+04 2.559e-09
 42.70733   -114.4 1.249e+04 1.881e-09
 42.71736   -114.8 1.175e+04 1.565e-09
 42.73676   -114.0 1.144e+04 1.387e-09
 42.75682   -112.9 1.135e+04 1.332e-09
 42.77689   -111.9 1.132e+04 1.288e-09
 42.79013   -111.0 1.128e+04 1.234e-09
 42.80017   -110.8 1.100e+04 1.128e-09
 42.81702   -110.0 1.092e+04 1.065e-09
 42.83708   -109.2 1.082e+04 1.007e-09
 42.85715   -108.5 1.070e+04 9.542e-10
 42.87294   -107.8 1.060e+04 9.039e-10
 42.88297   -107.4 1.063e+04 8.285e-10
 42.89727   -106.6 1.057e+04 7.922e-10
 42.91734   -105.9 1.052e+04 7.602e-10
 42.93740   -105.1 1.046e+04 7.240e-10
 42.95575   -104.2 1.038e+04 6.785e-10
 42.96578   -103.8 1.039e+04 7.176e-10
 42.97753   -102.9 1.030e+04 6.621e-10
 42.99760   -102.0 1.019e+04 6.041e-10
 43.01766   -101.0 1.010e+04 5.530e-10
 43.03772    -99.9 1.002e+04 5.130e-10
 43.04858    -98.8 9.950e+03 4.834e-10
 43.05861    -98.2 9.955e+03 5.156e-10
 43.07785    -97.1 9.894e+03 4.919e-10
 43.09792    -95.9 9.852e+03 4.779e-10
 43.11798    -94.6 9.826e+03 4.703e-10
 43.13139    -93.3 9.796e+03 4.643e-10
 43.14142    -92.7 9.894e+03 4.904e-10
 43.15811    -91.3 9.867e+03 4.778e-10
 43.17817    -90.0 9.840e+03 4.638e-10
 43.20426    -88.6 9.806e+03 4.486e-10
 43.22432    -86.5 9.792e+03 4.588e-10
 43.24850    -84.6 9.793e+03 4.460e-10
 43.28872    -82.0 9.684e+03 4.182e-10
 43.32885    -79.1 9.530e+03 3.766e-10
 43.36898    -76.2 9.359e+03 3.275e-10
 43.39003    -73.2 9.215e+03 2.808e-10
 43.41009    -71.9 9.229e+03 2.899e-10
 43.44924    -69.1 9.137e+03 2.499e-10
 43.48937    -66.3 9.053e+03 2.187e-10
 43.52949    -63.5 8.986e+03 1.974e-10
 43.55564    -60.6 8.964e+03 1.890e-10
 43.57570    -59.0 8.980e+03 1.873e-10
 43.60975    -56.1 8.960e+03 1.767e-10
 43.64988    -53.1 8.955e+03 1.745e-10
 43.68870    -50.0 8.981e+03 1.781e-10
 43.70877    -50.0 9.091e+03 1.992e-10
 43.72125    -47.1 9.133e+03 2.094e-10
 43.74132    -45.5 9.096e+03 1.849e-10
 43.77027    -42.5 9.163e+03 2.001e-10
 43.81039    -39.5 9.214e+03 2.127e-10
 43.85052    -36.5 9.241e+03 2.162e-10
 43.88686    -33.6 9.264e+03 2.117e-10
 43.90693    -32.0 9.370e+03 2.406e-10
 43.93078    -29.1 9.451e+03 2.453e-10
 43.97091    -26.3 9.492e+03 2.441e-10
 44.01104    -23.5 9.517e+03 2.421e-10
 44.05116    -20.7 9.555e+03 2.427e-10
 44.07254    -18.1 9.566e+03 2.440e-10
 44.09260    -16.6 9.835e+03 3.275e-10
 44.13142    -13.9 9.806e+03 3.179e-10
 44.17155    -11.3 9.756e+03 2.974e-10
 44.21168     -8.6 9.756e+03 2.736e-10
 44.23815     -5.8 9.895e+03 2.622e-10
 44.25821     -4.6 1.034e+04 3.967e-10
 44.29194     -2.4 1.038e+04 3.598e-10
 44.33206     -0.3 1.040e+04 3.480e-10
 44.37219      1.8 1.045e+04 3.572e-10
 44.40376      3.7 1.054e+04 3.903e-10
 44.42372      4.4 1.076e+04 4.758e-10
 44.44222      5.6 1.097e+04 5.363e-10
 44.46229      6.1 1.099e+04 5.555e-10
 44.49248      8.5 1.140e+04 7.364e-10
 44.53271     10.9 1.154e+04 8.105e-10
 44.56937     13.2 1.170e+04 8.725e-10
 44.58943     13.9 1.195e+04 9.160e-10
 44.61296     15.6 1.192e+04 8.547e-10
 44.65309     17.2 1.192e+04 7.457e-10
 44.69322     18.4 1.171e+04 6.221e-10
 44.73335     19.5 1.147e+04 6.102e-10
 44.75504     21.1 1.144e+04 6.163e-10
 44.77511     21.9 1.070e+04 3.965e-10
 44.81361     24.0 1.077e+04 2.956e-10
 44.85374     25.9 1.074e+04 2.077e-10
 44.89386     27.7 1.053e+04 1.456e-10
 44.92065     29.3 1.037e+04 1.170e-10
 44.94072     29.9 9.704e+03 8.107e-11
 44.97412     31.6 9.709e+03 9.365e-11
 45.01425     33.3 1.001e+04 1.490e-10
 45.05438     35.2 1.065e+04 3.211e-10
 45.08438     36.6 1.100e+04 4.699e-10
 45.09610     37.4 1.126e+04 5.943e-10
 45.10613     38.1 1.095e+04 4.638e-10
 45.12441     39.6 1.139e+04 6.760e-10
 45.14447     40.2 1.155e+04 7.348e-10
 45.16454     41.4 1.197e+04 9.677e-10
 45.17890     41.9 1.215e+04 1.065e-09
 45.18894     42.6 1.181e+04 8.873e-10
 45.21479     44.1 1.222e+04 1.167e-09
 45.25187     45.7 1.271e+04 1.620e-09
 45.27184     46.8 1.237e+04 1.320e-09
 45.28492     47.5 1.250e+04 1.485e-09
 45.30499     48.2 1.259e+04 1.714e-09
 45.32505     49.0 1.267e+04 1.979e-09
 45.34451     49.7 1.299e+04 2.322e-09
 45.35455     50.3 1.300e+04 2.048e-09
 45.36518     50.8 1.359e+04 2.535e-09
 45.38524     51.1 1.425e+04 3.165e-09
 45.40531     51.4 1.527e+04 3.824e-09
 45.42537     51.6 1.644e+04 4.153e-09
 45.43735     51.7 1.676e+04 4.019e-09
 45.44738     51.7 1.762e+04 3.601e-09
 45.46550     51.4 1.766e+04 3.177e-09
 45.48556     51.2 1.617e+04 2.395e-09
 45.50563     50.4 1.402e+04 1.763e-09
 45.52016     49.7 1.244e+04 1.372e-09
 45.53019     49.3 1.248e+04 1.438e-09
 45.54576     49.3 1.232e+04 1.344e-09
 45.56582     50.0 1.222e+04 1.281e-09
 45.58589     50.4 1.228e+04 1.299e-09
 45.60306     51.5 1.230e+04 1.264e-09
 45.61309     51.1 1.237e+04 1.402e-09
 45.62601     51.4 1.241e+04 1.428e-09
 45.65621     52.6 1.237e+04 1.496e-09
 45.69643     54.6 1.214e+04 1.443e-09
 45.73656     56.7 1.186e+04 1.298e-09
 45.76877     58.7 1.153e+04 1.109e-09
 45.78883     58.0 1.117e+04 9.296e-10
 45.81682     60.1 1.083e+04 7.572e-10
 45.85695     62.2 1.061e+04 6.472e-10
 45.89708     64.4 1.048e+04 5.992e-10
 45.93438     67.0 1.043e+04 5.817e-10
 45.95444     66.7 1.001e+04 3.828e-10
 45.97733     69.2 9.982e+03 3.807e-10
 46.01746     71.8 1.000e+04 3.847e-10
 46.05759     74.3 1.005e+04 3.915e-10
 46.09772     76.7 1.009e+04 4.084e-10
 46.12005     79.3 1.023e+04 4.586e-10
 46.14012     79.0 9.834e+03 3.228e-10
 46.17798     81.7 1.005e+04 3.819e-10
 46.20276     82.9 1.014e+04 4.789e-10
 46.21269     82.9 1.004e+04 4.024e-10
 46.22794     84.1 1.007e+04 4.475e-10
 46.24801     85.5 1.013e+04 5.077e-10
 46.26807     86.8 1.023e+04 5.632e-10
 46.28547     88.1 1.034e+04 6.100e-10
 46.29550     88.0 1.016e+04 5.088e-10
 46.30820     89.4 1.027e+04 5.618e-10
 46.32826     90.7 1.042e+04 6.136e-10
 46.34833     92.0 1.056e+04 6.636e-10
 46.36827     93.3 1.068e+04 7.093e-10
 46.37830     93.4 1.066e+04 7.106e-10
 46.38846     94.7 1.081e+04 7.547e-10
 46.40852     96.0 1.095e+04 7.931e-10
 46.42858     97.2 1.104e+04 8.112e-10
 46.44865     98.5 1.106e+04 8.032e-10
 46.46111     99.8 1.107e+04 7.780e-10
 46.47114     99.8 1.122e+04 9.115e-10
 46.48878    101.1 1.117e+04 8.712e-10
 46.50884    102.5 1.108e+04 8.169e-10
 46.52891    103.8 1.099e+04 7.590e-10
 46.54391    105.0 1.089e+04 6.999e-10
 46.55395    105.1 1.107e+04 8.304e-10
 46.56903    106.3 1.095e+04 7.513e-10
 46.58910    107.6 1.086e+04 6.823e-10
 46.60916    108.7 1.077e+04 6.231e-10
 46.62672    109.8 1.068e+04 5.729e-10
 46.63675    109.8 1.077e+04 6.259e-10
 46.64929    111.0 1.067e+04 5.754e-10
 46.66936    112.3 1.063e+04 5.468e-10
 46.68942    113.6 1.062e+04 5.399e-10
 46.70948    114.9 1.063e+04 5.399e-10
 46.72955    116.3 1.057e+04 5.545e-10
 46.74961    117.8 1.063e+04 5.668e-10
 46.76968    119.2 1.078e+04 6.053e-10
 46.78974    120.3 1.097e+04 6.678e-10
 46.80236    121.4 1.120e+04 7.533e-10
 46.81239    121.5 1.108e+04 7.529e-10
 46.82987    122.7 1.135e+04 8.674e-10
 46.84993    123.8 1.167e+04 1.025e-09
 46.87000    124.8 1.200e+04 1.224e-09
 46.88517    125.7 1.232e+04 1.445e-09
 46.89520    126.0 1.210e+04 1.380e-09
 46.91013    127.0 1.239e+04 1.599e-09
 46.93019    128.0 1.262e+04 1.739e-09
 46.95025    128.9 1.265e+04 1.743e-09
 46.96797    129.8 1.261e+04 1.691e-09
 46.97800    130.2 1.240e+04 1.613e-09
 46.99038    131.2 1.228e+04 1.486e-09
 47.01045    132.3 1.202e+04 1.258e-09
 47.03051    133.4 1.173e+04 9.912e-10
 47.05058    134.4 1.143e+04 7.399e-10
 47.06081    135.3 1.116e+04 5.384e-10
 47.07084    135.8 1.114e+04 5.895e-10
 47.09070    136.7 1.092e+04 4.382e-10
 47.11077    137.4 1.074e+04 3.389e-10
 47.13083    138.0 1.052e+04 2.860e-10
 47.14361    138.8 1.027e+04 2.611e-10
 47.15365    139.5 1.036e+04 2.721e-10
 47.17096    140.4 1.013e+04 2.576e-10
 47.19103    141.4 9.971e+03 2.567e-10
 47.21109    142.5 9.958e+03 2.575e-10
 47.22642    143.6 9.943e+03 2.614e-10
 47.23645    144.2 9.959e+03 2.644e-10
 47.25122    145.3 9.955e+03 2.707e-10
 47.27128    146.4 9.968e+03 2.801e-10
 47.29135    147.4 1.003e+04 2.957e-10
 47.30922    148.5 1.015e+04 3.213e-10
 47.31926    149.1 1.002e+04 3.051e-10
 47.33148    150.1 1.015e+04 3.297e-10
 47.35154    150.9 1.036e+04 3.675e-10
 47.37160    151.8 1.060e+04 4.202e-10
 47.39167    152.6 1.086e+04 4.911e-10
 47.40206    153.5 1.109e+04 5.830e-10
 47.41209    153.9 1.095e+04 4.997e-10
 47.43180    154.6 1.120e+04 5.975e-10
 47.45186    155.3 1.136e+04 7.216e-10
 47.47193    155.9 1.144e+04 8.715e-10
 47.48487    156.7 1.144e+04 1.038e-09
 47.49490    156.9 1.141e+04 9.280e-10
 47.51205    157.7 1.133e+04 1.092e-09
 47.53212    158.6 1.126e+04 1.239e-09
 47.55218    159.5 1.127e+04 1.336e-09
 47.56767    160.4 1.135e+04 1.377e-09
 47.57770    160.6 1.137e+04 1.378e-09
 47.59231    161.4 1.151e+04 1.393e-09
 47.61238    162.2 1.171e+04 1.415e-09
 47.63244    162.6 1.196e+04 1.459e-09
 47.65048    162.6 1.222e+04 1.508e-09
 47.66051    162.9 1.230e+04 1.520e-09
 47.67257    162.9 1.254e+04 1.563e-09
 47.69263    162.8 1.262e+04 1.627e-09
 47.71270    162.5 1.264e+04 1.715e-09
 47.73276    162.2 1.263e+04 1.819e-09
 47.74331    162.0 1.257e+04 1.926e-09
 47.75335    162.1 1.246e+04 1.729e-09
 47.77289    161.9 1.235e+04 1.814e-09
 47.79295    161.8 1.231e+04 1.893e-09
 47.81302    161.8 1.230e+04 1.971e-09
 47.82612    162.0 1.235e+04 2.074e-09
 47.83615    161.8 1.231e+04 1.939e-09
 47.85315    162.0 1.251e+04 2.143e-09
 47.87321    162.2 1.275e+04 2.377e-09
 47.89327    162.5 1.298e+04 2.641e-09
 47.90892    162.8 1.316e+04 2.910e-09
 47.91896    162.6 1.321e+04 2.903e-09
 47.93340    163.0 1.334e+04 3.156e-09
 47.95347    163.5 1.344e+04 3.385e-09
 47.97353    164.2 1.353e+04 3.593e-09
 47.99173    164.8 1.362e+04 3.792e-09
 48.00176    164.6 1.349e+04 3.501e-09
 48.01366    165.4 1.356e+04 3.636e-09
 48.03372    166.2 1.366e+04 3.795e-09
 48.05379    167.0 1.377e+04 4.029e-09
 48.07385    167.9 1.392e+04 4.255e-09
 48.08457    168.7 1.396e+04 4.271e-09
 48.09460    168.3 1.366e+04 3.655e-09
 48.11398    169.1 1.364e+04 3.619e-09
 48.13405    169.8 1.351e+04 3.443e-09
 48.15411    170.7 1.324e+04 3.085e-09
 48.16737    171.6 1.284e+04 2.623e-09
 48.17740    171.1 1.245e+04 2.208e-09
 48.19424    172.0 1.203e+04 1.870e-09
 48.21430    173.1 1.159e+04 1.555e-09
 48.23437    174.2 1.118e+04 1.294e-09
 48.25018    175.4 1.083e+04 1.089e-09
 48.26021    175.1 1.072e+04 1.029e-09
 48.27450    176.3 1.050e+04 9.094e-10
 48.29456    177.6 1.032e+04 8.179e-10
 48.31462    179.0 1.019e+04 7.510e-10
 48.33298    180.3 1.010e+04 6.997e-10
 48.34301    180.1 1.014e+04 7.267e-10
 48.35475    181.4 1.008e+04 6.966e-10
 48.37482    182.8 1.001e+04 6.638e-10
 48.39488    184.4 9.941e+03 6.350e-10
 48.41495    185.9 9.886e+03 6.124e-10
 48.42582    187.4 9.839e+03 5.929e-10
 48.43585    187.3 9.891e+03 6.373e-10
 48.45507    188.8 9.853e+03 6.211e-10
 48.47514    190.3 9.827e+03 6.063e-10
 48.49520    191.9 9.821e+03 5.964e-10
 48.50863    193.3 9.824e+03 5.904e-10
 48.51866    193.3 9.925e+03 6.537e-10
 48.53533    194.6 9.930e+03 6.524e-10
 48.55540    196.1 9.932e+03 6.520e-10
 48.57546    197.6 9.953e+03 6.546e-10
 48.59143    199.0 1.001e+04 6.672e-10
 48.60146    199.0 1.017e+04 7.492e-10
 48.61559    200.3 1.024e+04 7.723e-10
 48.63565    201.6 1.033e+04 8.032e-10
 48.65572    202.9 1.044e+04 8.467e-10
 48.66724    204.2 1.060e+04 9.069e-10
 48.67573    203.8 1.094e+04 1.085e-09
 48.68427    203.7 1.117e+04 1.264e-09
 48.69585    205.0 1.124e+04 1.315e-09
 48.71591    206.3 1.132e+04 1.369e-09
 48.73597    207.6 1.145e+04 1.436e-09
 48.75604    208.7 1.166e+04 1.524e-09
 48.76707    209.6 1.196e+04 1.653e-09
 48.77710    209.7 1.218e+04 1.819e-09
 48.79617    210.4 1.277e+04 2.041e-09
 48.81623    210.7 1.356e+04 2.368e-09
 48.83630    210.9 1.438e+04 2.810e-09
 48.84988    211.1 1.501e+04 3.350e-09
 48.85991    211.2 1.561e+04 3.670e-09
 48.87642    211.6 1.579e+04 4.163e-09
 48.89649    212.0 1.565e+04 4.630e-09
 48.91655    212.6 1.537e+04 5.005e-09
 48.93268    213.4 1.522e+04 5.156e-09
 48.94272    213.7 1.515e+04 4.710e-09
 48.95668    214.6 1.485e+04 4.484e-09
 48.97674    215.4 1.470e+04 4.212e-09
 48.99681    216.1 1.465e+04 3.899e-09
 49.01549    216.7 1.465e+04 3.536e-09
 49.02552    216.8 1.402e+04 2.610e-09
 49.03694    217.2 1.403e+04 2.366e-09
 49.05700    217.6 1.398e+04 2.162e-09
 49.07707    218.1 1.385e+04 1.985e-09
 49.09713    218.8 1.365e+04 1.821e-09
 49.10833    219.5 1.342e+04 1.664e-09
 49.11836    219.8 1.307e+04 1.548e-09
 49.13726    220.9 1.295e+04 1.491e-09
 49.15732    222.1 1.278e+04 1.423e-09
 49.17739    223.4 1.259e+04 1.330e-09
 49.19113    224.8 1.238e+04 1.221e-09
 49.20116    225.5 1.247e+04 1.316e-09
 49.21752    226.9 1.231e+04 1.234e-09
 49.23758    228.4 1.211e+04 1.142e-09
 49.25764    229.9 1.189e+04 1.051e-09
 49.27394    231.3 1.168e+04 9.663e-10
 49.28397    232.2 1.203e+04 1.140e-09
 49.29777    233.6 1.185e+04 1.070e-09
 49.31784    235.0 1.168e+04 1.005e-09
 49.33790    236.5 1.152e+04 9.419e-10
 49.35674    238.1 1.138e+04 8.775e-10
 49.36677    238.8 1.195e+04 1.150e-09
 49.37803    240.3 1.184e+04 1.099e-09
 49.39809    241.8 1.171e+04 1.036e-09
 49.41816    243.3 1.156e+04 9.550e-10
 49.43822    244.9 1.139e+04 8.597e-10
 49.44958    246.4 1.120e+04 7.540e-10
 49.45961    247.1 1.194e+04 1.174e-09
 49.47835    248.7 1.166e+04 1.023e-09
 49.49842    250.4 1.135e+04 8.632e-10
 49.51848    252.0 1.102e+04 7.127e-10
 49.53238    253.6 1.069e+04 5.839e-10
 49.54242    254.4 1.187e+04 1.091e-09
 49.55861    256.0 1.166e+04 9.363e-10
 49.57867    257.6 1.144e+04 8.061e-10
 49.59874    259.2 1.123e+04 6.952e-10
 49.61519    260.8 1.103e+04 6.068e-10
 49.62522    261.2 1.376e+04 1.623e-09
 49.63887    263.0 1.360e+04 1.447e-09
 49.65893    264.8 1.337e+04 1.275e-09
 49.67899    266.6 1.302e+04 1.105e-09
 49.69799    268.4 1.256e+04 9.473e-10
 49.70803    268.2 1.646e+04 2.173e-09
 49.71912    270.2 1.651e+04 1.854e-09
 49.73919    272.1 1.620e+04 1.530e-09
 49.75925    274.0 1.552e+04 1.246e-09
 49.77932    275.9 1.470e+04 1.028e-09
 49.79083    277.6 1.394e+04 8.706e-10
 49.79580    276.8 1.925e+04 1.558e-09
 49.80430    277.7 1.874e+04 1.392e-09
 49.81433    278.8 1.808e+04 1.234e-09
 49.82436    279.7 1.730e+04 1.114e-09
 49.83214    280.9 1.641e+04 1.003e-09
 49.83715    280.0 2.352e+04 2.336e-09
 49.84443    281.1 2.296e+04 1.965e-09
 49.85446    282.1 2.214e+04 1.663e-09
 49.86449    283.0 2.112e+04 1.429e-09
 49.87354    284.0 1.987e+04 1.281e-09
 49.87855    282.4 2.654e+04 4.792e-09
 49.88455    283.5 2.685e+04 4.209e-09
 49.89459    284.7 2.687e+04 3.585e-09
 49.90431    286.0 2.655e+04 2.958e-09
 49.90932    285.7 2.532e+04 2.911e-09
 49.91465    287.0 2.440e+04 2.323e-09
 49.91996    288.0 2.261e+04 1.900e-09
 49.92497    286.3 2.596e+04 9.200e-09
 49.93472    286.9 2.658e+04 7.522e-09
 49.94475    287.7 2.679e+04 6.239e-09
 49.95478    288.5 2.669e+04 5.252e-09
 49.96136    289.5 2.631e+04 4.462e-09
 49.96638    288.7 2.508e+04 2.251e-08
 49.97484    289.5 2.605e+04 1.741e-08
 49.98488    290.7 2.700e+04 1.372e-08
 49.99491    292.0 2.768e+04 1.085e-08
 50.00276    293.5 2.772e+04 8.648e-09
 50.00778    293.8 2.639e+04 3.083e-08
 50.01497    295.2 2.761e+04 2.429e-08
 50.02500    296.6 2.866e+04 1.874e-08
 50.03504    297.6 2.934e+04 1.427e-08
 50.04416    298.6 2.925e+04 1.086e-08
 50.04918    298.8 2.997e+04 2.773e-08
 50.05510    299.6 3.145e+04 2.159e-08
 50.06513    300.4 3.239e+04 1.687e-08
 50.07517    301.0 3.238e+04 1.343e-08
 50.08520    301.7 3.116e+04 1.087e-08
 50.09058    302.4 2.887e+04 9.023e-09
 50.09560    302.8 3.483e+04 2.137e-08
 50.10526    303.9 3.531e+04 1.794e-08
 50.11529    305.1 3.490e+04 1.508e-08
 50.12533    306.5 3.382e+04 1.257e-08
 50.13199    307.9 3.227e+04 1.042e-08
 50.13700    308.6 3.670e+04 2.933e-08
 50.14539    310.8 3.914e+04 2.638e-08
 50.15542    313.3 4.150e+04 2.263e-08
 50.16545    315.7 4.292e+04 1.908e-08
 50.17339    317.2 4.557e+04 1.503e-08
 50.17840    320.9 4.583e+04 3.970e-08
 50.18552    321.4 5.269e+04 3.487e-08
 50.19302    319.6 6.302e+04 2.242e-08
 50.19655    317.4 6.503e+04 2.159e-08
 50.19906    319.1 6.072e+04 5.354e-08
 50.20303    316.1 6.366e+04 5.258e-08
 50.20804    310.7 6.331e+04 5.750e-08
 50.21306    301.6 5.857e+04 8.939e-08
 50.21681    297.9 5.349e+04 1.470e-07
 50.21848    291.6 3.989e+04 7.007e-07
 50.21897    286.7 3.294e+04 2.615e-06
 50.21979    291.9 4.175e+04 7.058e-07
 50.22181    271.1 2.044e+04 2.729e-05
 50.22365    262.8 1.425e+04 7.428e-04
 50.22427    261.3 1.359e+04 1.214e-03
 50.22493    252.5 9.999e+03 3.037e-02
 50.22619    244.6 9.264e+03 1.447e-01
 50.22685    243.8 4.146e+03 4.862e-01
 50.22716    243.6 3.441e+03 5.007e-01
 50.22775    242.4 7.047e+01 1.503e+00
 50.22814    241.1 1.098e+01 2.927e+00
 50.22830    241.1 3.135e+01 2.902e+00
 50.22853    237.5 3.334e+01 6.938e+00
 50.22884    231.7 4.036e+03 1.390e+01
 50.22916    225.7 9.028e+03 1.946e+01
 50.22944    220.4 9.013e+03 2.463e+01
 50.22959    221.8 9.002e+03 2.551e+01
 50.22978    217.6 1.210e+04 1.378e+01
 50.23010    215.8 9.864e+03 1.648e+01
 50.23041    215.2 7.807e+03 2.233e+01
 50.23073    213.6 8.191e+03 1.768e+01
 50.23089    211.0 8.629e+03 1.181e+01
 50.23104    211.7 8.854e+03 1.337e+01
 50.23151    205.0 8.291e+03 3.855e+00
 50.23246    199.3 8.892e+03 8.148e-01
 50.23371    197.9 8.965e+03 1.501e-01
 50.23462    200.2 1.038e+04 3.566e-02
 50.23525    196.6 9.973e+03 4.093e-02
 50.23685    202.4 1.166e+04 7.014e-03
 50.23918    219.9 2.230e+04 1.892e-05
 50.24044    208.4 1.526e+04 3.905e-04
 50.24314    221.4 2.260e+04 1.313e-05
 50.24817    238.1 3.256e+04 1.461e-06
 50.25319    246.7 2.983e+04 1.096e-06
 50.25820    248.9 2.548e+04 1.095e-06
 50.26116    249.5 2.365e+04 1.013e-06
 50.26367    242.4 2.348e+04 2.392e-06
 50.26824    243.8 2.443e+04 1.734e-06
 50.27325    244.9 2.570e+04 1.295e-06
 50.27827    246.1 2.772e+04 8.810e-07
 50.28582    245.5 2.915e+04 8.442e-07
 50.29587    245.9 3.613e+04 3.036e-07
 50.30261    244.9 4.520e+04 9.297e-08
 50.30763    236.8 5.498e+04 2.112e-08
 50.31594    235.1 4.607e+04 1.629e-08
 50.32597    233.6 3.293e+04 1.636e-08
 50.33600    233.4 2.439e+04 1.616e-08
 50.34401    234.3 2.149e+04 1.470e-08
 50.34903    234.5 2.165e+04 1.630e-08
 50.35606    236.1 2.107e+04 1.565e-08
 50.36610    237.3 2.061e+04 1.560e-08
 50.37613    238.2 2.057e+04 1.575e-08
 50.38542    238.9 2.051e+04 1.637e-08
 50.39043    239.7 2.099e+04 1.684e-08
 50.39619    240.4 2.101e+04 1.780e-08
 50.40623    241.1 2.110e+04 1.949e-08
 50.41626    241.7 2.124e+04 2.216e-08
 50.42629    242.2 2.143e+04 2.611e-08
 50.43184    242.7 2.161e+04 3.189e-08
 50.43685    242.6 2.169e+04 2.902e-08
 50.44635    242.8 2.189e+04 3.470e-08
 50.45639    242.9 2.193e+04 3.961e-08
 50.46642    242.7 2.191e+04 4.035e-08
 50.47324    242.1 2.185e+04 3.977e-08
 50.47825    242.7 2.154e+04 2.568e-08
 50.48648    242.3 2.137e+04 2.386e-08
 50.50158    241.5 2.035e+04 1.415e-08
 50.52169    240.4 1.896e+04 8.114e-09
 50.54176    239.2 1.686e+04 4.003e-09
 50.55614    237.5 1.388e+04 1.824e-09
 50.56617    235.6 1.304e+04 1.390e-09
 50.59202    235.2 1.128e+04 7.532e-10
 50.63224    234.3 9.580e+03 4.029e-10
 50.67237    234.4 9.445e+03 3.059e-10
 50.71191    234.8 9.439e+03 3.033e-10
 50.73198    235.5 9.837e+03 3.780e-10
 50.75263    235.6 9.882e+03 3.856e-10
 50.78263    235.2 9.869e+03 3.836e-10
 50.80259    235.0 9.856e+03 3.845e-10
 50.81459    234.9 9.867e+03 3.967e-10
 50.82462    235.5 1.022e+04 5.049e-10
 50.84272    235.5 1.029e+04 5.387e-10
 50.86279    235.3 1.045e+04 5.795e-10
 50.88285    234.1 1.117e+04 7.206e-10
 50.89739    230.7 1.312e+04 1.098e-09
 50.90743    231.2 1.275e+04 1.043e-09
 50.92298    224.0 1.620e+04 2.002e-09
 50.93798    220.1 1.774e+04 2.855e-09
 50.94371    216.3 1.954e+04 4.571e-09
 50.94873    215.6 1.962e+04 4.932e-09
 50.95799    211.2 2.127e+04 9.497e-09
 50.96802    207.4 2.256e+04 1.992e-08
 50.97806    204.2 2.344e+04 3.488e-08
 50.98512    201.1 2.442e+04 3.974e-08
 50.99013    200.4 2.494e+04 2.065e-08
 50.99812    195.9 2.525e+04 1.983e-08
 51.00815    192.4 2.555e+04 1.684e-08
 51.02325    182.5 2.619e+04 6.358e-09
 51.04336    169.7 2.207e+04 2.431e-09
 51.06300    159.1 1.456e+04 2.059e-09
 51.07304    159.8 1.291e+04 1.334e-09
 51.08349    156.6 1.272e+04 1.330e-09
 51.10356    155.6 1.286e+04 1.386e-09
 51.12362    154.7 1.313e+04 1.496e-09
 51.14156    153.4 1.321e+04 1.549e-09
 51.15160    154.4 1.356e+04 1.732e-09
 51.15584    153.0 1.355e+04 1.734e-09
 51.16587    153.2 1.239e+04 1.198e-09
 51.18381    151.7 1.235e+04 1.188e-09
 51.20388    150.5 1.217e+04 1.132e-09
 51.22394    149.6 1.187e+04 1.024e-09
 51.23865    148.9 1.152e+04 8.908e-10
 51.24868    149.3 1.096e+04 7.023e-10
 51.26407    148.9 1.065e+04 5.805e-10
 51.28413    148.7 1.035e+04 4.736e-10
 51.30420    148.4 1.025e+04 4.253e-10
 51.32145    148.1 1.028e+04 4.275e-10
 51.33148    148.5 9.678e+03 3.115e-10
 51.34433    148.5 9.794e+03 3.041e-10
 51.36439    148.6 9.860e+03 3.067e-10
 51.38446    149.1 9.889e+03 3.204e-10
 51.40426    149.9 9.856e+03 3.425e-10
 51.41429    149.3 9.451e+03 2.592e-10
 51.42458    150.4 9.469e+03 2.669e-10
 51.44465    150.6 9.578e+03 2.962e-10
 51.46471    150.1 1.055e+04 4.289e-10
 51.48478    148.0 1.330e+04 1.035e-09
 51.49709    145.9 1.646e+04 3.124e-09
 51.50713    147.7 1.400e+04 1.207e-09
 51.52491    146.1 1.690e+04 3.696e-09
 51.54497    145.7 1.851e+04 8.280e-09
 51.56503    145.6 1.928e+04 1.249e-08
 51.57990    145.2 1.928e+04 1.254e-08
 51.58993    146.3 1.884e+04 1.021e-08
 51.60516    145.8 1.876e+04 1.001e-08
 51.62523    145.1 1.825e+04 8.553e-09
 51.64529    144.3 1.720e+04 5.570e-09
 51.66270    142.7 1.567e+04 2.797e-09
 51.67274    144.5 1.657e+04 4.890e-09
 51.68542    143.1 1.525e+04 2.818e-09
 51.70548    141.1 1.368e+04 1.829e-09
 51.72555    139.6 1.323e+04 1.752e-09
 51.74551    138.4 1.335e+04 1.877e-09
 51.75554    139.5 1.516e+04 3.248e-09
 51.76568    136.9 1.616e+04 4.461e-09
 51.78574    135.0 1.746e+04 6.910e-09
 51.80581    133.7 1.853e+04 1.013e-08
 51.82587    132.7 1.915e+04 1.204e-08
 51.83835    131.6 1.921e+04 1.200e-08
 51.84838    130.9 1.971e+04 1.286e-08
 51.86600    129.9 1.883e+04 8.805e-09
 51.88606    128.4 1.736e+04 4.726e-09
 51.90613    125.6 1.521e+04 2.240e-09
 51.92115    121.8 1.244e+04 1.119e-09
 51.93118    118.6 1.029e+04 5.880e-10
 51.95638    118.2 1.070e+04 4.606e-10
 51.99661    118.2 9.598e+03 3.892e-10
 52.03674    119.6 9.320e+03 3.690e-10
 52.07687    121.7 9.163e+03 3.553e-10
 52.11700    125.1 8.903e+03 2.899e-10
 52.15713    127.6 8.872e+03 2.903e-10
 52.19725    130.3 8.822e+03 2.832e-10
 52.23738    133.3 8.742e+03 2.699e-10
 52.26260    136.2 8.696e+03 2.602e-10
 52.28266    137.7 8.665e+03 2.526e-10
 52.31764    140.7 8.683e+03 2.541e-10
 52.35777    143.6 8.725e+03 2.568e-10
 52.39790    146.5 8.739e+03 2.552e-10
 52.42821    149.3 8.742e+03 2.491e-10
 52.44827    150.8 8.730e+03 2.510e-10
 52.47815    153.5 8.665e+03 2.381e-10
 52.51828    156.3 8.646e+03 2.284e-10
 52.55841    159.0 8.682e+03 2.288e-10
 52.59382    161.3 8.881e+03 2.446e-10
 52.61388    162.9 8.682e+03 2.320e-10
 52.63867    164.8 8.952e+03 2.598e-10
 52.66867    165.1 9.147e+03 2.830e-10
 52.68646    165.2 9.581e+03 3.561e-10
 52.69649    166.5 9.284e+03 3.036e-10
 52.70870    166.7 9.813e+03 4.048e-10
 52.72876    166.8 1.040e+04 5.939e-10
 52.74883    167.1 1.094e+04 8.742e-10
 52.76889    167.6 1.144e+04 1.237e-09
 52.77930    168.4 1.193e+04 1.643e-09
 52.78933    169.5 1.165e+04 1.399e-09
 52.80902    170.2 1.215e+04 1.806e-09
 52.82908    170.8 1.258e+04 2.035e-09
 52.84915    171.1 1.270e+04 2.023e-09
 52.86210    171.3 1.271e+04 1.888e-09
 52.87214    172.6 1.277e+04 2.049e-09
 52.88928    172.7 1.271e+04 1.817e-09
 52.90934    172.6 1.237e+04 1.393e-09
 52.92940    172.4 1.178e+04 9.773e-10
 52.94501    172.1 1.093e+04 6.086e-10
 52.95504    173.6 1.150e+04 7.767e-10
 52.96953    173.0 1.090e+04 5.711e-10
 52.99973    173.7 1.016e+04 3.735e-10
 53.03995    173.9 9.228e+03 2.633e-10
 53.08008    174.3 9.116e+03 2.566e-10
 53.11072    175.1 9.115e+03 2.569e-10
 53.13078    175.6 9.157e+03 2.607e-10
 53.16034    176.6 9.166e+03 2.648e-10
 53.20047    177.7 9.210e+03 2.763e-10
 53.24060    178.7 9.307e+03 2.918e-10
 53.27633    179.3 9.417e+03 3.081e-10
 53.29639    179.3 9.459e+03 3.218e-10
 53.31072    179.7 9.433e+03 3.193e-10
 53.33069    180.5 9.476e+03 3.276e-10
 53.35075    181.0 9.680e+03 3.697e-10
 53.36897    181.2 1.009e+04 4.703e-10
 53.37900    181.8 1.005e+04 4.604e-10
 53.39088    182.0 1.050e+04 5.913e-10
 53.41095    182.0 1.104e+04 8.007e-10
 53.43101    182.1 1.165e+04 1.124e-09
 53.45107    182.0 1.233e+04 1.584e-09
 53.46181    182.0 1.303e+04 2.181e-09
 53.47184    182.1 1.313e+04 2.051e-09
 53.49120    182.0 1.383e+04 2.835e-09
 53.51127    181.9 1.452e+04 3.680e-09
 53.53133    181.7 1.511e+04 4.256e-09
 53.54461    180.9 1.530e+04 4.294e-09
 53.55464    181.2 1.563e+04 4.767e-09
 53.57146    180.4 1.561e+04 4.673e-09
 53.59152    179.7 1.541e+04 4.248e-09
 53.61159    179.0 1.499e+04 3.686e-09
 53.62592    178.2 1.450e+04 3.231e-09
 53.63171    178.8 1.422e+04 2.873e-09
 53.63745    179.7 1.456e+04 3.126e-09
 53.65172    178.9 1.414e+04 2.881e-09
 53.67178    178.3 1.384e+04 2.839e-09
 53.69185    178.5 1.369e+04 2.838e-09
 53.71022    178.8 1.352e+04 2.760e-09
 53.72025    179.4 1.423e+04 3.471e-09
 53.73197    179.8 1.417e+04 3.427e-09
 53.75204    180.4 1.398e+04 3.237e-09
 53.77210    181.0 1.370e+04 2.861e-09
 53.79217    181.5 1.331e+04 2.342e-09
 53.80306    181.8 1.278e+04 1.771e-09
 53.81309    182.3 1.426e+04 3.182e-09
 53.83230    182.3 1.371e+04 2.378e-09
 53.85236    182.1 1.306e+04 1.699e-09
 53.87242    181.3 1.243e+04 1.269e-09
 53.88586    180.3 1.194e+04 1.163e-09
 53.89590    180.4 1.351e+04 2.011e-09
 53.91255    179.8 1.305e+04 1.950e-09
 53.93262    179.7 1.306e+04 1.988e-09
 53.95268    179.8 1.308e+04 2.119e-09
 53.96867    180.3 1.317e+04 2.316e-09
 53.97870    180.3 1.386e+04 3.114e-09
 53.99281    180.8 1.388e+04 3.108e-09
 54.01287    181.2 1.387e+04 2.950e-09
 54.03294    181.4 1.372e+04 2.648e-09
 54.05147    181.5 1.342e+04 2.287e-09
 54.06151    180.9 1.333e+04 2.164e-09
 54.07307    180.9 1.291e+04 1.797e-09
 54.09313    180.9 1.246e+04 1.514e-09
 54.11320    180.9 1.210e+04 1.342e-09
 54.13326    181.0 1.193e+04 1.292e-09
 54.14431    181.4 1.194e+04 1.300e-09
 54.15434    180.9 1.191e+04 1.271e-09
 54.17339    181.4 1.201e+04 1.333e-09
 54.19345    181.9 1.215e+04 1.423e-09
 54.21352    182.5 1.230e+04 1.529e-09
 54.22712    183.1 1.246e+04 1.647e-09
 54.23715    182.6 1.222e+04 1.442e-09
 54.25364    183.3 1.232e+04 1.516e-09
 54.27371    184.0 1.243e+04 1.587e-09
 54.29377    184.7 1.256e+04 1.658e-09
 54.30992    185.3 1.272e+04 1.738e-09
 54.31995    184.9 1.183e+04 1.106e-09
 54.33390    185.4 1.191e+04 1.122e-09
 54.35397    185.9 1.201e+04 1.140e-09
 54.37403    186.2 1.211e+04 1.156e-09
 54.39273    186.2 1.215e+04 1.160e-09
 54.40276    185.4 1.009e+04 5.839e-10
 54.41416    185.2 9.687e+03 5.644e-10
 54.43422    185.0 9.532e+03 5.452e-10
 54.45429    184.6 9.604e+03 5.308e-10
 54.47435    184.3 9.701e+03 5.266e-10
 54.48556    184.0 9.829e+03 5.363e-10
 54.49560    184.0 9.806e+03 3.669e-10
 54.51448    184.1 9.688e+03 3.753e-10
 54.53454    184.2 9.692e+03 3.829e-10
 54.55461    184.6 9.755e+03 3.832e-10
 54.56837    184.9 9.787e+03 3.776e-10
 54.57840    185.1 9.601e+03 3.277e-10
 54.59474    185.5 9.543e+03 3.089e-10
 54.61480    185.8 9.485e+03 2.925e-10
 54.63487    186.2 9.402e+03 2.754e-10
 54.65117    186.5 9.325e+03 2.634e-10
 54.66130    187.2 9.470e+03 2.804e-10
 54.68522    187.7 9.309e+03 2.538e-10
 54.72535    188.2 9.322e+03 2.551e-10
 54.76548    188.9 9.357e+03 2.617e-10
 54.80561    189.6 9.406e+03 2.701e-10
 54.82701    190.5 9.434e+03 2.752e-10
 54.84708    190.1 9.249e+03 2.463e-10
 54.88586    191.2 9.277e+03 2.532e-10
 54.92599    192.4 9.302e+03 2.550e-10
 54.96612    193.7 9.363e+03 2.591e-10
 54.99262    194.9 9.515e+03 2.744e-10
 55.01269    194.4 9.546e+03 2.784e-10
 55.04638    194.9 9.727e+03 3.077e-10
 55.08651    195.3 9.820e+03 3.358e-10
 55.11651    195.4 9.835e+03 3.508e-10
 55.13647    195.8 9.857e+03 3.692e-10
 55.15654    196.5 9.902e+03 4.097e-10
 55.16807    197.3 1.008e+04 4.779e-10
 55.17810    196.7 1.022e+04 5.244e-10
 55.19666    197.1 1.050e+04 6.221e-10
 55.21673    197.3 1.074e+04 7.183e-10
 55.23679    197.4 1.094e+04 8.044e-10
 55.25087    197.4 1.114e+04 9.017e-10
 55.26091    194.5 1.253e+04 1.275e-09
 55.27692    192.4 1.394e+04 1.774e-09
 55.29699    190.1 1.533e+04 2.517e-09
 55.31199    187.3 1.679e+04 3.872e-09
 55.32197    185.7 1.757e+04 5.287e-09
 55.33200    184.4 1.817e+04 6.947e-09
 55.33860    183.4 1.864e+04 8.741e-09
 55.34366    180.3 2.003e+04 1.243e-08
 55.35718    178.7 2.110e+04 1.449e-08
 55.37724    177.1 2.183e+04 1.424e-08
 55.39731    175.2 2.227e+04 1.318e-08
 55.41648    173.2 2.256e+04 1.152e-08
 55.42652    166.4 2.108e+04 6.346e-09
 55.43744    163.4 1.917e+04 5.359e-09
 55.45750    160.4 1.780e+04 5.481e-09
 55.47756    157.8 1.750e+04 6.131e-09
 55.49763    156.2 1.768e+04 8.237e-09
 55.50932    155.8 1.837e+04 1.177e-08
 55.51935    154.3 1.711e+04 8.859e-09
 55.53776    154.5 1.767e+04 1.095e-08
 55.55782    154.2 1.784e+04 1.116e-08
 55.57789    153.5 1.780e+04 1.057e-08
 55.59213    152.7 1.753e+04 8.621e-09
 55.60216    151.1 1.592e+04 3.947e-09
 55.61801    149.5 1.529e+04 3.037e-09
 55.63808    148.0 1.428e+04 2.393e-09
 55.65814    147.0 1.330e+04 2.027e-09
 55.67493    146.9 1.271e+04 1.838e-09
 55.68496    146.7 1.249e+04 1.745e-09
 55.69827    147.4 1.255e+04 1.759e-09
 55.71834    148.0 1.252e+04 1.731e-09
 55.73840    148.6 1.241e+04 1.624e-09
 55.75774    149.2 1.221e+04 1.467e-09
 55.76777    149.1 1.238e+04 1.597e-09
 55.77853    149.6 1.217e+04 1.438e-09
 55.79859    150.0 1.197e+04 1.285e-09
 55.81866    150.4 1.181e+04 1.159e-09
 55.83872    150.6 1.169e+04 1.072e-09
 55.85057    150.8 1.162e+04 1.030e-09
 55.86061    150.9 1.194e+04 1.094e-09
 55.87885    151.2 1.183e+04 1.060e-09
 55.89891    151.5 1.174e+04 1.042e-09
 55.91898    152.0 1.165e+04 1.015e-09
 55.93338    152.6 1.151e+04 9.717e-10
 55.94341    152.6 1.146e+04 9.224e-10
 55.95911    153.2 1.127e+04 8.624e-10
 55.97917    153.9 1.121e+04 8.220e-10
 55.99924    154.6 1.123e+04 8.220e-10
 56.01618    155.2 1.131e+04 8.373e-10
 56.02622    155.0 1.130e+04 8.255e-10
 56.03936    155.6 1.161e+04 9.250e-10
 56.05943    156.0 1.211e+04 1.118e-09
 56.07949    156.2 1.280e+04 1.452e-09
 56.09899    156.4 1.361e+04 1.995e-09
 56.10902    156.9 1.333e+04 1.925e-09
 56.11027    157.3 1.414e+04 2.598e-09
 56.12030    155.8 1.523e+04 4.228e-09
 56.13969    156.4 1.588e+04 5.523e-09
 56.15975    157.1 1.638e+04 6.875e-09
 56.17981    157.8 1.669e+04 7.497e-09
 56.19183    158.4 1.671e+04 7.472e-09
 56.20186    158.8 1.646e+04 6.764e-09
 56.21994    159.4 1.641e+04 6.688e-09
 56.24001    160.2 1.622e+04 6.259e-09
 56.26007    160.9 1.589e+04 5.353e-09
 56.27463    161.6 1.544e+04 4.290e-09
 56.28466    162.1 1.527e+04 4.130e-09
 56.30020    162.6 1.479e+04 3.221e-09
 56.32026    163.0 1.424e+04 2.450e-09
 56.34033    163.4 1.362e+04 1.865e-09
 56.35744    163.8 1.297e+04 1.450e-09
 56.36747    164.3 1.288e+04 1.454e-09
 56.38046    164.9 1.233e+04 1.181e-09
 56.40052    165.7 1.188e+04 9.974e-10
 56.42058    166.7 1.154e+04 8.683e-10
 56.44024    167.9 1.129e+04 7.713e-10
 56.45027    168.2 1.140e+04 8.460e-10
 56.46071    169.6 1.123e+04 7.715e-10
 56.48078    170.8 1.108e+04 7.079e-10
 56.50084    172.1 1.093e+04 6.521e-10
 56.52091    173.4 1.080e+04 6.060e-10
 56.53308    174.8 1.070e+04 5.710e-10
 56.54311    175.1 1.083e+04 6.514e-10
 56.56103    176.3 1.073e+04 6.199e-10
 56.58110    177.6 1.066e+04 6.010e-10
 56.60116    178.8 1.064e+04 5.978e-10
 56.61588    180.0 1.064e+04 5.980e-10
 56.62592    180.2 1.085e+04 7.102e-10
 56.64129    181.3 1.086e+04 7.154e-10
 56.66136    182.3 1.091e+04 7.356e-10
 56.68142    183.2 1.102e+04 7.835e-10
 56.69869    183.9 1.127e+04 8.779e-10
 56.70872    183.7 1.171e+04 1.142e-09
 56.72155    184.0 1.207e+04 1.339e-09
 56.74161    184.1 1.250e+04 1.622e-09
 56.76168    184.1 1.298e+04 2.012e-09
 56.78149    184.2 1.347e+04 2.482e-09
 56.79153    184.2 1.369e+04 2.689e-09
 56.80181    183.9 1.380e+04 2.742e-09
 56.82187    183.4 1.377e+04 2.680e-09
 56.84193    182.8 1.360e+04 2.436e-09
 56.86200    182.2 1.326e+04 2.073e-09
 56.87433    181.5 1.286e+04 1.744e-09
 56.88436    180.2 1.252e+04 1.537e-09
 56.90213    179.4 1.226e+04 1.449e-09
 56.93232    178.7 1.205e+04 1.344e-09
 56.97255    178.2 1.184e+04 1.317e-09
 57.01268    178.3 1.161e+04 1.281e-09
 57.04014    179.5 1.135e+04 1.192e-09
 57.06020    178.1 1.149e+04 1.232e-09
 57.09293    179.6 1.105e+04 9.681e-10
 57.13306    181.2 1.060e+04 7.337e-10
 57.17319    182.9 1.014e+04 5.613e-10
 57.20575    184.9 9.895e+03 4.927e-10
 57.22581    183.4 9.390e+03 4.277e-10
 57.25345    185.7 9.361e+03 4.284e-10
 57.29358    188.6 9.444e+03 4.428e-10
 57.32357    189.7 9.469e+03 4.585e-10
 57.34354    190.7 9.515e+03 4.743e-10
 57.36360    191.6 9.578e+03 4.936e-10
 57.38119    192.5 9.645e+03 5.125e-10
 57.39132    192.1 9.272e+03 4.172e-10
 57.41396    194.0 9.410e+03 4.314e-10
 57.45409    195.6 9.460e+03 4.308e-10
 57.49422    197.3 9.517e+03 4.178e-10
 57.52422    197.8 9.492e+03 3.957e-10
 57.54418    198.3 9.453e+03 3.710e-10
 57.55684    198.7 9.386e+03 3.445e-10
 57.57700    199.0 8.951e+03 2.282e-10
 57.61460    200.5 8.978e+03 2.257e-10
 57.65473    201.6 9.017e+03 2.290e-10
 57.68473    202.0 9.011e+03 2.343e-10
 57.70470    202.6 9.024e+03 2.511e-10
 57.72245    203.1 9.054e+03 2.887e-10
 57.74261    205.3 9.185e+03 2.654e-10
 57.76499    205.7 9.345e+03 3.100e-10
 57.78495    206.2 9.609e+03 3.728e-10
 57.80502    206.9 9.980e+03 4.621e-10
 57.81528    207.7 1.037e+04 5.595e-10
 57.82532    208.4 9.734e+03 3.838e-10
 57.84515    209.2 9.962e+03 4.145e-10
 57.86521    210.0 1.019e+04 4.346e-10
 57.88528    210.8 1.036e+04 4.457e-10
 57.89809    211.5 1.047e+04 4.510e-10
 57.90822    213.3 9.846e+03 3.166e-10
 57.92550    213.6 1.005e+04 3.229e-10
 57.94547    214.0 1.019e+04 3.314e-10
 57.96553    214.4 1.022e+04 3.416e-10
 57.98090    215.0 1.019e+04 3.537e-10
 57.99093    215.7 9.948e+03 3.101e-10
 58.00566    216.3 9.979e+03 3.193e-10
 58.02573    217.0 9.959e+03 3.423e-10
 58.04579    217.8 9.955e+03 3.796e-10
 58.06370    218.7 1.001e+04 4.296e-10
 58.07373    219.2 1.007e+04 4.308e-10
 58.08592    220.1 1.019e+04 4.949e-10
 58.10598    221.1 1.035e+04 5.709e-10
 58.12605    222.1 1.057e+04 6.599e-10
 58.14611    223.1 1.082e+04 7.602e-10
 58.15654    224.1 1.107e+04 8.545e-10
 58.16657    224.2 1.129e+04 9.787e-10
 58.18624    225.1 1.149e+04 1.064e-09
 58.20630    225.8 1.156e+04 1.076e-09
 58.22637    226.5 1.155e+04 1.057e-09
 58.23934    227.1 1.145e+04 9.523e-10
 58.24937    227.3 1.167e+04 1.096e-09
 58.26650    227.7 1.147e+04 9.446e-10
 58.28656    228.2 1.116e+04 7.612e-10
 58.30663    228.5 1.082e+04 6.209e-10
 58.32215    229.1 1.044e+04 4.933e-10
 58.33218    229.0 1.051e+04 5.052e-10
 58.34675    229.4 1.010e+04 4.033e-10
 58.37695    231.2 9.939e+03 3.702e-10
 58.40515    232.6 9.613e+03 3.248e-10
 58.42521    232.2 9.655e+03 3.231e-10
 58.45730    233.7 9.653e+03 3.239e-10
 58.49743    235.2 9.682e+03 3.355e-10
 58.53756    236.6 9.783e+03 3.677e-10
 58.57076    237.5 9.903e+03 4.077e-10
 58.58789    236.3 1.000e+04 4.253e-10
 58.59482    235.4 1.017e+04 4.343e-10
 58.61782    236.7 1.027e+04 4.581e-10
 58.65794    238.2 1.027e+04 4.558e-10
 58.69807    239.3 1.021e+04 4.258e-10
 58.73637    240.5 9.966e+03 3.572e-10
 58.75643    239.3 9.966e+03 3.410e-10
 58.77833    241.1 9.686e+03 2.757e-10
 58.80833    242.0 9.521e+03 2.524e-10
 58.82830    243.0 9.402e+03 2.394e-10
 58.83904    244.0 9.297e+03 2.278e-10
 58.84907    243.7 9.365e+03 2.418e-10
 58.86842    244.7 9.301e+03 2.390e-10
 58.88849    245.5 9.388e+03 2.405e-10
 58.90855    245.8 9.929e+03 2.573e-10
 58.92185    245.6 1.120e+04 3.386e-10
 58.93188    244.3 1.235e+04 6.356e-10
 58.94868    244.5 1.340e+04 1.089e-09
 58.96875    244.9 1.427e+04 1.822e-09
 58.98881    245.7 1.504e+04 2.879e-09
 59.00465    246.6 1.569e+04 4.163e-09
 59.01469    246.1 1.731e+04 7.591e-09
 59.02894    247.2 1.775e+04 9.270e-09
 59.04900    248.2 1.802e+04 1.013e-08
 59.06907    249.3 1.801e+04 1.005e-08
 59.08746    250.6 1.789e+04 9.547e-09
 59.09749    250.1 1.862e+04 1.305e-08
 59.10920    251.3 1.819e+04 1.122e-08
 59.12926    252.8 1.773e+04 9.334e-09
 59.14426    253.5 1.746e+04 8.569e-09
 59.15424    254.1 1.729e+04 8.080e-09
 59.16427    254.7 1.714e+04 7.664e-09
 59.17431    255.2 1.706e+04 7.289e-09
 59.18020    255.7 1.701e+04 6.925e-09
 59.18521    255.2 1.731e+04 7.815e-09
 59.19437    255.8 1.733e+04 7.392e-09
 59.20440    256.3 1.734e+04 6.968e-09
 59.21444    256.7 1.732e+04 6.554e-09
 59.22160    257.2 1.729e+04 6.190e-09
 59.22662    257.1 1.745e+04 7.170e-09
 59.23450    257.6 1.747e+04 6.737e-09
 59.24453    258.1 1.744e+04 6.464e-09
 59.25456    258.5 1.752e+04 6.392e-09
 59.26300    258.8 1.781e+04 6.362e-09
 59.26802    258.0 1.911e+04 7.880e-09
 59.27463    258.1 2.000e+04 7.720e-09
 59.28466    257.9 2.121e+04 7.626e-09
 59.29469    257.6 2.272e+04 7.613e-09
 59.30441    257.1 2.434e+04 7.692e-09
 59.30942    256.8 2.466e+04 9.066e-09
 59.31476    256.2 2.628e+04 9.012e-09
 59.32479    255.7 2.797e+04 8.938e-09
 59.33482    255.1 2.978e+04 8.858e-09
 59.34485    254.7 3.109e+04 9.254e-09
 59.35082    254.4 3.158e+04 1.031e-08
 59.35584    254.8 2.926e+04 1.639e-08
 59.36492    254.6 2.882e+04 1.967e-08
 59.37495    254.5 2.828e+04 2.314e-08
 59.38498    254.4 2.760e+04 2.646e-08
 59.39223    254.4 2.692e+04 2.899e-08
 59.39724    254.7 2.605e+04 3.802e-08
 59.40505    254.6 2.580e+04 3.804e-08
 59.41508    254.5 2.553e+04 3.695e-08
 59.42511    254.3 2.513e+04 3.562e-08
 59.43363    254.0 2.468e+04 3.443e-08
 59.43865    254.8 2.390e+04 4.647e-08
 59.44517    254.3 2.367e+04 4.493e-08
 59.45521    253.6 2.341e+04 4.266e-08
 59.46524    252.9 2.310e+04 3.984e-08
 59.47503    252.4 2.280e+04 3.699e-08
 59.48005    253.4 2.256e+04 3.954e-08
 59.48530    252.7 2.242e+04 3.470e-08
 59.49533    251.9 2.231e+04 3.041e-08
 59.50537    251.1 2.211e+04 2.624e-08
 59.51540    250.5 2.178e+04 2.213e-08
 59.52145    250.2 2.131e+04 1.833e-08
 59.52647    250.2 2.095e+04 1.382e-08
 59.53546    249.8 2.031e+04 1.132e-08
 59.54550    249.5 1.964e+04 9.459e-09
 59.55553    249.1 1.895e+04 8.070e-09
 59.56285    248.8 1.822e+04 7.006e-09
 59.56787    248.2 1.713e+04 5.850e-09
 59.57559    248.0 1.658e+04 5.244e-09
 59.58562    247.9 1.619e+04 4.766e-09
 59.59566    247.8 1.594e+04 4.502e-09
 59.60426    247.8 1.580e+04 4.397e-09
 59.60927    248.2 1.562e+04 4.090e-09
 59.61572    248.3 1.561e+04 4.121e-09
 59.62575    248.5 1.563e+04 4.165e-09
 59.63578    248.6 1.567e+04 4.207e-09
 59.64566    248.7 1.570e+04 4.230e-09
 59.65067    248.8 1.576e+04 4.254e-09
 59.65585    249.0 1.579e+04 4.260e-09
 59.66588    249.1 1.579e+04 4.258e-09
 59.67591    249.3 1.579e+04 4.242e-09
 59.68711    249.5 1.557e+04 3.953e-09
 59.69719    250.3 1.594e+04 4.282e-09
 59.71112    250.6 1.593e+04 4.211e-09
 59.73119    250.7 1.584e+04 4.060e-09
 59.75125    250.7 1.570e+04 3.933e-09
 59.76996    250.5 1.560e+04 3.888e-09
 59.78000    251.3 1.612e+04 4.484e-09
 59.79138    250.9 1.605e+04 4.499e-09
 59.81144    250.3 1.597e+04 4.520e-09
 59.83151    249.4 1.584e+04 4.449e-09
 59.85157    248.3 1.547e+04 4.142e-09
 59.86280    247.3 1.488e+04 3.545e-09
 59.87283    248.1 1.519e+04 3.851e-09
 59.89170    247.3 1.429e+04 2.930e-09
 59.91177    246.6 1.341e+04 2.165e-09
 59.93183    245.7 1.267e+04 1.620e-09
 59.94561    244.6 1.213e+04 1.268e-09
 59.95564    245.3 1.208e+04 1.258e-09
 59.97196    244.1 1.170e+04 1.042e-09
 59.99202    243.1 1.138e+04 9.003e-10
 60.01209    242.0 1.113e+04 8.264e-10
 60.02841    240.7 1.115e+04 8.366e-10
 60.03844    241.7 1.110e+04 8.161e-10
 60.05222    240.2 1.125e+04 8.526e-10
 60.07228    238.2 1.176e+04 1.010e-09
 60.09234    236.1 1.237e+04 1.303e-09
 60.11122    234.2 1.283e+04 1.668e-09
 60.12125    235.4 1.272e+04 1.567e-09
 60.13247    233.8 1.303e+04 1.939e-09
 60.15254    232.5 1.320e+04 2.153e-09
 60.17260    231.1 1.331e+04 2.227e-09
 60.19267    229.5 1.341e+04 2.260e-09
 60.20405    227.2 1.368e+04 2.340e-09
 60.21409    228.9 1.337e+04 2.142e-09
 60.23279    226.1 1.373e+04 2.233e-09
 60.25286    222.0 1.465e+04 2.592e-09
 60.27292    217.0 1.584e+04 3.393e-09
 60.28686    212.0 1.688e+04 4.906e-09
 60.29689    214.0 1.648e+04 4.011e-09
 60.31305    209.5 1.742e+04 6.067e-09
 60.33312    206.1 1.767e+04 7.243e-09
 60.35318    203.3 1.760e+04 7.143e-09
 60.36966    201.1 1.721e+04 6.295e-09
 60.37970    202.5 1.755e+04 7.120e-09
 60.39331    200.8 1.679e+04 5.427e-09
 60.41337    199.6 1.559e+04 3.322e-09
 60.43344    198.6 1.404e+04 1.796e-09
 60.45257    195.1 1.191e+04 7.551e-10
 60.46260    198.3 1.326e+04 1.222e-09
 60.47356    196.1 1.173e+04 6.994e-10
 60.50376    193.9 1.067e+04 4.316e-10
 60.54399    192.6 1.017e+04 3.505e-10
 60.58411    193.0 1.000e+04 3.254e-10
 60.61827    193.6 9.870e+03 3.008e-10
 60.63834    194.8 1.041e+04 4.234e-10
 60.66437    195.4 1.025e+04 3.742e-10
 60.70450    196.0 1.006e+04 3.274e-10
 60.74463    196.8 9.928e+03 2.996e-10
 60.78388    197.8 9.879e+03 2.946e-10
 60.80395    197.8 1.045e+04 4.090e-10
 60.82488    198.7 1.043e+04 4.096e-10
 60.86501    199.7 1.050e+04 4.320e-10
 60.90514    200.8 1.065e+04 4.724e-10
 60.94527    201.9 1.076e+04 4.970e-10
 60.96956    202.8 1.077e+04 4.925e-10
 60.98962    201.6 1.102e+04 5.373e-10
 61.02553    202.4 1.075e+04 4.541e-10
 61.06566    203.3 1.041e+04 3.651e-10
 61.10578    204.1 1.012e+04 3.114e-10
 61.13517    205.2 1.007e+04 3.070e-10
 61.15523    203.9 1.013e+04 3.367e-10
 61.18604    204.8 1.029e+04 3.784e-10
 61.22617    205.7 1.065e+04 4.684e-10
 61.26630    206.7 1.098e+04 5.671e-10
 61.29630    206.0 1.127e+04 6.674e-10
 61.31062    205.8 1.147e+04 7.687e-10
 61.32065    204.8 1.157e+04 8.135e-10
 61.33633    204.9 1.168e+04 9.062e-10
 61.35639    205.1 1.179e+04 1.006e-09
 61.37646    205.3 1.192e+04 1.115e-09
 61.39342    205.5 1.209e+04 1.243e-09
 61.40345    204.6 1.204e+04 1.225e-09
 61.41659    204.8 1.224e+04 1.374e-09
 61.43665    205.1 1.246e+04 1.538e-09
 61.45671    205.3 1.269e+04 1.714e-09
 61.47623    205.6 1.294e+04 1.905e-09
 61.48626    204.6 1.284e+04 1.829e-09
 61.49684    204.8 1.315e+04 2.012e-09
 61.51691    204.8 1.341e+04 2.123e-09
 61.53697    204.5 1.353e+04 2.131e-09
 61.55703    204.1 1.354e+04 2.105e-09
 61.56906    203.7 1.351e+04 1.978e-09
 61.57910    201.9 1.359e+04 2.056e-09
 61.59716    201.2 1.353e+04 1.945e-09
 61.61723    200.3 1.379e+04 1.872e-09
 61.63729    199.5 1.396e+04 1.890e-09
 61.65187    199.0 1.407e+04 1.961e-09
 61.66190    196.6 1.543e+04 3.050e-09
 61.67742    196.5 1.517e+04 3.141e-09
 61.69748    196.8 1.494e+04 3.092e-09
 61.71755    197.4 1.460e+04 2.977e-09
 61.73467    198.2 1.427e+04 2.830e-09
 61.74471    196.2 1.539e+04 3.750e-09
 61.75768    196.8 1.515e+04 3.505e-09
 61.77774    197.3 1.502e+04 3.319e-09
 61.79781    197.8 1.497e+04 3.176e-09
 61.81748    198.3 1.499e+04 3.053e-09
 61.82751    195.7 1.557e+04 3.828e-09
 61.83793    196.3 1.536e+04 3.665e-09
 61.85800    197.0 1.511e+04 3.467e-09
 61.87806    197.6 1.486e+04 3.249e-09
 61.89813    198.0 1.482e+04 3.103e-09
 61.91032    198.4 1.489e+04 3.103e-09
 61.92035    195.3 1.619e+04 4.111e-09
 61.93826    195.5 1.649e+04 4.233e-09
 61.95832    195.6 1.679e+04 4.471e-09
 61.97838    195.8 1.694e+04 4.770e-09
 61.99312    196.4 1.695e+04 5.135e-09
 62.00315    194.0 1.494e+04 3.976e-09
 62.01851    194.9 1.471e+04 3.696e-09
 62.03858    196.1 1.473e+04 3.414e-09
 62.05864    197.1 1.494e+04 3.152e-09
 62.07593    197.8 1.522e+04 2.800e-09
 62.08596    193.0 1.279e+04 9.515e-10
 62.09877    192.1 1.205e+04 6.769e-10
 62.11883    191.0 1.124e+04 5.208e-10
 62.13890    190.1 1.054e+04 4.426e-10
 62.15873    189.3 1.005e+04 4.060e-10
 62.16876    187.5 9.596e+03 3.557e-10
 62.17903    187.6 9.613e+03 3.625e-10
 62.19909    187.5 9.658e+03 3.732e-10
 62.21916    187.3 9.744e+03 3.880e-10
 62.23922    186.9 9.847e+03 4.051e-10
 62.25157    186.6 9.957e+03 4.226e-10
 62.26160    185.6 9.965e+03 4.133e-10
 62.27935    185.4 1.004e+04 4.304e-10
 62.29941    185.2 1.012e+04 4.528e-10
 62.31948    185.1 1.021e+04 4.838e-10
 62.33437    185.1 1.030e+04 5.274e-10
 62.34441    184.6 1.030e+04 5.235e-10
 62.35961    184.7 1.039e+04 5.749e-10
 62.37967    185.0 1.047e+04 6.293e-10
 62.39973    185.5 1.055e+04 6.771e-10
 62.41718    186.0 1.063e+04 6.991e-10
 62.42721    185.5 1.049e+04 6.125e-10
 62.43986    185.7 1.049e+04 6.024e-10
 62.45993    185.8 1.048e+04 5.782e-10
 62.47999    185.8 1.043e+04 5.422e-10
 62.49999    185.7 1.035e+04 5.001e-10
 62.52005    184.5 1.001e+04 4.026e-10
 62.54018    184.6 9.997e+03 4.025e-10
 62.56025    184.7 1.001e+04 4.084e-10
 62.58031    184.8 1.011e+04 4.317e-10
 62.59282    184.7 1.031e+04 4.792e-10
 62.60285    183.9 1.028e+04 4.714e-10
 62.62044    183.5 1.070e+04 5.750e-10
 62.64050    182.2 1.132e+04 7.690e-10
 62.66057    179.3 1.232e+04 1.170e-09
 62.67563    175.1 1.371e+04 1.891e-09
 62.68566    172.4 1.431e+04 2.322e-09
 62.70070    167.8 1.538e+04 3.137e-09
 62.72076    163.6 1.623e+04 3.724e-09
 62.74083    160.4 1.661e+04 3.838e-09
 62.75843    158.2 1.656e+04 3.687e-09
 62.76846    156.7 1.566e+04 2.851e-09
 62.78095    155.0 1.502e+04 2.387e-09
 62.80102    153.9 1.422e+04 1.973e-09
 62.82108    153.6 1.350e+04 1.629e-09
 62.84115    153.6 1.297e+04 1.360e-09
 62.86121    153.1 1.249e+04 1.134e-09
 62.88128    153.6 1.224e+04 1.024e-09
 62.90134    154.2 1.204e+04 9.591e-10
 62.92140    155.0 1.195e+04 9.330e-10
 62.93408    155.9 1.192e+04 9.247e-10
 62.94411    155.4 1.196e+04 9.597e-10
 62.96153    156.4 1.196e+04 9.553e-10
 62.98160    157.3 1.203e+04 9.597e-10
 63.00166    158.1 1.217e+04 9.843e-10
 63.01688    158.6 1.244e+04 1.020e-09
 63.02691    156.2 1.368e+04 1.367e-09
 63.04179    155.8 1.455e+04 1.687e-09
 63.06185    155.5 1.530e+04 2.134e-09
 63.08192    155.3 1.580e+04 2.651e-09
 63.09969    155.5 1.614e+04 3.092e-09
 63.10972    153.7 1.704e+04 5.344e-09
 63.12205    154.3 1.689e+04 5.314e-09
 63.14211    155.1 1.665e+04 4.881e-09
 63.16218    155.6 1.631e+04 4.126e-09
 63.18224    155.7 1.593e+04 3.406e-09
 63.19252    155.0 1.631e+04 2.917e-09
 63.20255    152.8 1.694e+04 3.049e-09
 63.22237    150.4 1.715e+04 3.030e-09
 63.24243    146.6 1.771e+04 3.223e-09
 63.26250    142.8 1.836e+04 3.973e-09
 63.27528    140.3 1.819e+04 4.493e-09
 63.28025    136.9 1.799e+04 4.622e-09
 63.28748    136.2 1.792e+04 4.929e-09
 63.29751    135.5 1.814e+04 5.669e-09
 63.30754    134.3 1.863e+04 6.855e-09
 63.31663    133.1 1.914e+04 8.389e-09
 63.32165    131.2 1.874e+04 7.241e-09
 63.32761    130.1 1.921e+04 7.540e-09
 63.33764    128.8 1.931e+04 7.475e-09
 63.34767    127.5 1.937e+04 7.182e-09
 63.35770    126.0 1.929e+04 6.580e-09
 63.36305    124.4 1.912e+04 5.854e-09
 63.36807    122.3 1.815e+04 4.494e-09
 63.37777    120.3 1.826e+04 4.143e-09
 63.38780    118.2 1.836e+04 3.849e-09
 63.39783    116.9 1.825e+04 3.638e-09
 63.40445    116.3 1.852e+04 3.604e-09
 63.40947    114.2 1.857e+04 3.208e-09
 63.41790    109.2 2.852e+04 3.193e-09
 63.42793     89.6 5.430e+04 7.113e-09
 63.43543     93.4 4.535e+04 1.478e-08
 63.44042     92.7 3.773e+04 5.689e-08
 63.44544     88.6 2.619e+04 1.014e-06
 63.44830     85.1 2.348e+04 2.695e-06
 63.45081     81.9 2.456e+04 1.326e-06
 63.45547     72.5 2.716e+04 1.515e-06
 63.45865     55.5 2.476e+04 3.332e-06
 63.45990     54.4 2.528e+04 2.850e-06
 63.46171     50.4 2.320e+04 3.822e-06
 63.46549     36.7 1.529e+04 1.734e-04
 63.46900     35.8 1.259e+04 1.618e-03
 63.47025     37.4 1.468e+04 2.165e-04
 63.47175     32.2 1.091e+04 8.778e-03
 63.47425     26.2 9.770e+03 2.490e-02
 63.47676     21.5 9.563e+03 2.928e-02
 63.47927     18.5 9.753e+03 2.446e-02
 63.48060     16.4 1.026e+04 1.306e-02
 63.48185     17.9 1.090e+04 5.846e-03
 63.48555     17.8 1.365e+04 6.660e-04
 63.48972     20.5 1.966e+04 7.946e-06
 63.49223     21.2 1.824e+04 1.208e-05
 63.49560     21.6 2.612e+04 1.294e-06
 63.50061     22.3 3.831e+04 1.060e-07
 63.50816     20.7 5.667e+04 7.010e-09
 63.52328      3.9 3.576e+04 2.350e-09
 63.53378     -9.7 1.432e+04 1.604e-09
 63.54367     -8.7 1.640e+04 2.228e-09
 63.55329     -7.1 1.886e+04 2.439e-09
 63.56346     -8.5 1.432e+04 1.498e-09
 63.58353     -7.4 1.317e+04 1.015e-09
 63.60359     -7.1 1.218e+04 7.340e-10
 63.61658     -6.9 1.159e+04 6.187e-10
 63.62661     -6.5 1.195e+04 6.460e-10
 63.64372     -6.5 1.132e+04 5.631e-10
 63.66378     -6.0 1.125e+04 5.553e-10
 63.68385     -5.4 1.125e+04 5.591e-10
 63.69939     -4.8 1.128e+04 5.767e-10
 63.70942     -4.7 1.122e+04 5.642e-10
 63.72397     -4.0 1.131e+04 5.911e-10
 63.74404     -3.4 1.147e+04 6.362e-10
 63.76410     -3.0 1.169e+04 7.093e-10
 63.78219     -2.7 1.194e+04 8.209e-10
 63.79222     -2.4 1.189e+04 7.798e-10
 63.80423     -2.4 1.224e+04 9.343e-10
 63.82430     -2.5 1.270e+04 1.156e-09
 63.84436     -2.8 1.318e+04 1.433e-09
 63.86442     -2.9 1.358e+04 1.719e-09
 63.87503     -2.8 1.375e+04 1.850e-09
 63.88506     -2.4 1.371e+04 1.848e-09
 63.90455     -2.2 1.367e+04 1.823e-09
 63.92462     -2.0 1.349e+04 1.695e-09
 63.94468     -2.1 1.329e+04 1.520e-09
 63.95783     -2.7 1.304e+04 1.370e-09
 63.96787     -1.9 1.293e+04 1.288e-09
 63.98481     -2.5 1.284e+04 1.265e-09
 64.00487     -3.3 1.295e+04 1.323e-09
 64.02494     -3.7 1.312e+04 1.486e-09
 64.04064     -3.5 1.330e+04 1.697e-09
 64.05067     -3.0 1.318e+04 1.570e-09
 64.06507     -2.7 1.344e+04 1.820e-09
 64.08513     -2.7 1.378e+04 2.088e-09
 64.10520     -3.0 1.426e+04 2.417e-09
 64.12344     -3.8 1.495e+04 2.908e-09
 64.13348     -3.3 1.483e+04 2.916e-09
 64.14532     -4.1 1.553e+04 3.589e-09
 64.16539     -5.1 1.618e+04 4.318e-09
 64.18545     -6.2 1.647e+04 4.957e-09
 64.20552     -7.3 1.645e+04 4.966e-09
 64.21628     -8.3 1.631e+04 4.734e-09
 64.22631     -7.9 1.640e+04 4.760e-09
 64.24565     -9.0 1.610e+04 4.168e-09
 64.26571    -10.8 1.592e+04 3.293e-09
 64.28577    -13.2 1.540e+04 2.418e-09
 64.29909    -16.1 1.438e+04 1.819e-09
 64.30912    -15.1 1.476e+04 2.007e-09
 64.32590    -17.0 1.343e+04 1.544e-09
 64.34597    -17.4 1.264e+04 1.201e-09
 64.36603    -16.9 1.224e+04 1.016e-09
 64.38199    -18.2 1.164e+04 6.608e-10
 64.40215    -17.7 1.209e+04 8.401e-10
 64.43645    -18.0 1.085e+04 4.219e-10
 64.47658    -18.6 1.006e+04 2.247e-10
 64.51671    -18.1 9.976e+03 2.066e-10
 64.54770    -18.5 1.037e+04 2.464e-10
 64.56776    -17.9 1.096e+04 3.342e-10
 64.58684    -20.7 1.103e+04 3.353e-10
 64.60680    -20.1 1.082e+04 3.218e-10
 64.62687    -21.7 1.116e+04 4.203e-10
 64.64034    -23.2 1.155e+04 5.959e-10
 64.65037    -22.2 1.184e+04 7.419e-10
 64.66700    -24.0 1.296e+04 1.261e-09
 64.68706    -27.5 1.499e+04 2.631e-09
 64.70712    -32.6 1.781e+04 5.775e-09
 64.72314    -37.7 1.980e+04 9.936e-09
 64.73318    -38.2 2.056e+04 1.144e-08
 64.74725    -44.9 2.017e+04 1.252e-08
 64.76732    -50.4 1.856e+04 8.098e-09
 64.78738    -56.4 1.629e+04 3.871e-09
 64.80595    -61.5 1.375e+04 1.914e-09
 64.81598    -64.2 1.399e+04 2.000e-09
 64.82751    -67.2 1.317e+04 1.491e-09
 64.84757    -69.9 1.288e+04 1.355e-09
 64.86764    -72.3 1.283e+04 1.383e-09
 64.88770    -74.3 1.319e+04 1.747e-09
 64.89879    -75.2 1.369e+04 2.246e-09
 64.90882    -75.2 1.454e+04 3.080e-09
 64.92783    -75.8 1.498e+04 3.550e-09
 64.94789    -76.8 1.507e+04 3.648e-09
 64.96796    -78.0 1.485e+04 3.184e-09
 64.98159    -80.2 1.413e+04 2.167e-09
 64.99162    -80.2 1.441e+04 2.472e-09
 65.00809    -83.5 1.316e+04 1.520e-09
 65.02815    -86.8 1.175e+04 9.556e-10
 65.04822    -88.9 1.081e+04 6.798e-10
 65.06440    -89.8 1.032e+04 5.337e-10
 65.07443    -89.5 1.028e+04 5.324e-10
 65.08834    -89.9 9.969e+03 4.301e-10
 65.10841    -90.5 9.935e+03 3.687e-10
 65.12847    -91.6 1.002e+04 3.541e-10
 65.15867    -94.1 1.009e+04 3.528e-10
 65.19889    -97.7 1.010e+04 3.812e-10
 65.23020    -98.7 1.000e+04 4.053e-10
 65.25027    -99.0 1.002e+04 4.022e-10
 65.27915    -99.0 9.957e+03 4.112e-10
 65.31928    -98.9 9.959e+03 3.957e-10
 65.35941    -99.5 9.966e+03 3.560e-10
 65.39581   -101.2 1.004e+04 3.427e-10
 65.41588   -102.2 1.062e+04 4.694e-10
 65.42953   -105.1 1.107e+04 6.178e-10
 65.44950   -107.7 1.311e+04 1.255e-09
 65.46957   -110.1 1.540e+04 2.741e-09
 65.48845   -112.0 1.715e+04 5.165e-09
 65.49849   -112.3 1.800e+04 7.109e-09
 65.50969   -114.7 1.850e+04 8.866e-09
 65.52976   -116.8 1.845e+04 9.099e-09
 65.53984   -117.6 1.797e+04 8.328e-09
 65.54481   -118.0 1.794e+04 8.302e-09
 65.55474   -118.0 1.762e+04 7.185e-09
 65.56477   -118.7 1.710e+04 5.799e-09
 65.57481   -119.4 1.677e+04 4.882e-09
 65.58124   -120.5 1.640e+04 4.073e-09
 65.59132   -121.5 1.612e+04 3.600e-09
 65.61002   -124.6 1.464e+04 1.938e-09
 65.63008   -127.9 1.267e+04 1.024e-09
 65.65014   -130.4 1.161e+04 7.347e-10
 65.66410   -131.7 1.134e+04 6.812e-10
 65.67413   -131.8 1.111e+04 6.057e-10
 65.69027   -133.3 1.114e+04 6.030e-10
 65.71034   -138.5 1.414e+04 8.096e-10
 65.72534   -141.8 1.623e+04 1.040e-09
 65.73532   -147.7 2.155e+04 2.095e-09
 65.74535   -154.3 2.288e+04 8.162e-09
 65.75182   -157.6 2.266e+04 2.308e-08
 65.75684   -156.0 2.226e+04 1.406e-08
 65.76542   -158.0 2.241e+04 3.024e-08
 65.77545   -158.8 2.296e+04 4.773e-08
 65.78548   -159.7 2.387e+04 5.618e-08
 65.79322   -161.4 2.427e+04 5.660e-08
 65.79824   -160.7 2.422e+04 4.242e-08
 65.80554   -163.1 2.488e+04 3.359e-08
 65.81558   -166.5 2.460e+04 1.990e-08
 65.82561   -170.0 2.307e+04 1.187e-08
 65.83463   -172.6 2.161e+04 8.828e-09
 65.83964   -170.8 2.177e+04 9.518e-09
 65.85074   -173.5 2.054e+04 7.450e-09
 65.87085   -179.0 1.717e+04 5.027e-09
 65.89091   -182.3 1.556e+04 4.080e-09
 65.91098   -183.6 1.527e+04 3.770e-09
 65.92254   -184.7 1.502e+04 3.537e-09
 65.93258   -182.8 1.553e+04 4.105e-09
 65.95111   -184.3 1.509e+04 3.695e-09
 65.97117   -185.9 1.439e+04 3.106e-09
 65.99124   -187.5 1.362e+04 2.491e-09
 66.00535   -188.9 1.295e+04 1.965e-09
 66.01538   -188.5 1.333e+04 2.316e-09
 66.02761   -190.0 1.260e+04 1.778e-09
 66.03764   -188.6 1.259e+04 1.840e-09
 66.05143   -189.6 1.201e+04 1.423e-09
 66.07149   -190.4 1.148e+04 1.089e-09
 66.08815   -191.1 1.095e+04 8.333e-10
 66.09819   -191.3 1.105e+04 9.326e-10
 66.11162   -191.8 1.054e+04 7.181e-10
 66.13169   -192.1 1.013e+04 5.661e-10
 66.15175   -192.2 9.847e+03 4.609e-10
 66.17096   -192.1 9.714e+03 3.925e-10
 66.18099   -192.8 9.698e+03 4.268e-10
 66.19188   -192.5 9.712e+03 3.818e-10
 66.21194   -192.2 9.794e+03 3.661e-10
 66.23201   -192.0 9.899e+03 3.618e-10
 66.25207   -192.0 9.956e+03 3.602e-10
 66.26380   -191.9 9.975e+03 3.532e-10
 66.27383   -192.4 1.011e+04 4.314e-10
 66.29220   -192.0 1.022e+04 4.407e-10
 66.31226   -191.6 1.030e+04 4.555e-10
 66.33233   -191.3 1.035e+04 4.709e-10
 66.34660   -190.9 1.038e+04 4.832e-10
 66.35663   -191.6 1.054e+04 5.894e-10
 66.37246   -191.0 1.054e+04 5.909e-10
 66.39252   -190.3 1.050e+04 5.684e-10
 66.41259   -189.2 1.043e+04 5.281e-10
 66.42941   -188.2 1.038e+04 4.775e-10
 66.43944   -189.3 1.042e+04 5.086e-10
 66.45271   -188.7 1.035e+04 4.425e-10
 66.48291   -188.8 1.027e+04 3.784e-10
 66.52313   -187.3 1.006e+04 3.241e-10
 66.56326   -185.6 9.651e+03 2.640e-10
 66.59521   -183.7 9.340e+03 2.228e-10
 66.61528   -184.3 9.306e+03 2.148e-10
 66.64352   -182.0 9.136e+03 1.939e-10
 66.68365   -179.6 9.106e+03 1.883e-10
 66.72378   -177.2 9.102e+03 1.875e-10
 66.76082   -174.9 9.126e+03 1.911e-10
 66.78089   -174.7 9.118e+03 1.853e-10
 66.80403   -172.4 9.271e+03 2.056e-10
 66.84416   -170.2 9.555e+03 2.582e-10
 66.88429   -168.1 9.877e+03 3.365e-10
 66.92442   -166.3 1.029e+04 4.411e-10
 66.94650   -164.6 1.073e+04 5.825e-10
 66.96656   -164.1 1.097e+04 6.218e-10
 67.00468   -162.6 1.133e+04 8.257e-10
 67.04480   -161.1 1.166e+04 1.039e-09
 67.08493   -159.7 1.196e+04 1.155e-09
 67.11211   -158.9 1.205e+04 1.173e-09
 67.13217   -158.4 1.204e+04 1.178e-09
 67.16519   -157.5 1.199e+04 1.151e-09
 67.20532   -156.4 1.182e+04 1.049e-09
 67.24545   -155.1 1.147e+04 8.667e-10
 67.27772   -153.6 1.093e+04 6.235e-10
 67.29778   -151.8 1.126e+04 7.596e-10
 67.32570   -150.2 1.084e+04 5.695e-10
 67.36583   -148.9 1.038e+04 4.067e-10
 67.40596   -147.9 9.999e+03 3.023e-10
 67.44333   -147.2 9.868e+03 2.594e-10
 67.46339   -145.9 1.103e+04 4.666e-10
 67.48622   -145.8 1.096e+04 4.438e-10
 67.52635   -146.2 1.095e+04 4.419e-10
 67.56648   -146.8 1.103e+04 4.873e-10
 67.60660   -147.2 1.112e+04 5.465e-10
 67.62900   -147.4 1.122e+04 6.055e-10
 67.64907   -147.8 1.206e+04 9.927e-10
 67.68686   -148.1 1.215e+04 1.052e-09
 67.72699   -148.6 1.220e+04 1.102e-09
 67.76712   -148.8 1.221e+04 1.126e-09
 67.79461   -148.7 1.211e+04 1.101e-09
 67.81468   -148.7 1.299e+04 1.671e-09
 67.84738   -148.7 1.272e+04 1.504e-09
 67.88750   -148.3 1.243e+04 1.350e-09
 67.91750   -147.7 1.208e+04 1.210e-09
 67.93747   -147.6 1.199e+04 1.177e-09
 67.95753   -147.5 1.164e+04 1.041e-09
 67.97006   -146.7 1.127e+04 8.935e-10
 67.98009   -146.6 1.150e+04 9.876e-10
 67.99766   -146.0 1.110e+04 8.330e-10
 68.01773   -145.3 1.072e+04 6.814e-10
 68.03779   -144.7 1.034e+04 5.399e-10
 68.05287   -144.2 1.006e+04 4.397e-10
 68.06290   -144.2 1.022e+04 4.881e-10
 68.08805   -144.2 9.896e+03 3.853e-10
 68.12583   -143.8 9.737e+03 3.510e-10
 68.14590   -143.3 9.852e+03 3.873e-10
 68.16840   -143.2 9.711e+03 3.568e-10
 68.20853   -143.3 9.554e+03 3.268e-10
 68.24866   -143.4 9.396e+03 3.007e-10
 68.28879   -143.5 9.213e+03 2.721e-10
 68.31151   -143.7 9.018e+03 2.413e-10
 68.33157   -143.7 8.869e+03 2.149e-10
 68.36905   -144.2 8.814e+03 2.038e-10
 68.40917   -145.5 8.835e+03 2.035e-10
 68.44930   -148.0 9.438e+03 2.549e-10
 68.47712   -151.0 1.060e+04 4.608e-10
 68.49718   -151.5 1.086e+04 5.413e-10
 68.51216   -154.1 1.154e+04 8.433e-10
 68.53222   -154.2 1.185e+04 9.824e-10
 68.56969   -156.7 1.201e+04 1.101e-09
 68.59969   -158.1 1.190e+04 1.082e-09
 68.61965   -158.6 1.159e+04 9.300e-10
 68.63972   -159.6 1.113e+04 7.455e-10
 68.65257   -160.3 1.080e+04 6.247e-10
 68.66260   -160.8 1.076e+04 6.082e-10
 68.67985   -161.4 1.067e+04 5.806e-10
 68.69991   -161.8 1.066e+04 5.773e-10
 68.71998   -162.3 1.074e+04 6.046e-10
 68.73537   -162.9 1.116e+04 7.245e-10
 68.74540   -164.3 1.179e+04 9.237e-10
 68.76010   -165.1 1.260e+04 1.260e-09
 68.78017   -166.1 1.352e+04 1.780e-09
 68.80023   -167.0 1.445e+04 2.523e-09
 68.81818   -167.7 1.528e+04 3.486e-09
 68.82821   -168.9 1.563e+04 4.006e-09
 68.84036   -169.4 1.616e+04 4.959e-09
 68.86043   -169.7 1.663e+04 5.939e-09
 68.88049   -169.9 1.706e+04 6.910e-09
 68.90055   -170.3 1.750e+04 7.865e-09
 68.91101   -170.9 1.797e+04 8.862e-09
 68.92105   -171.6 1.767e+04 8.600e-09
 68.94068   -172.1 1.831e+04 9.658e-09
 68.96075   -172.8 1.887e+04 1.063e-08
 68.98081   -173.4 1.922e+04 1.177e-08
 68.99382   -173.9 1.948e+04 1.239e-08
 69.00385   -173.3 1.912e+04 1.121e-08
 69.02094   -173.5 1.928e+04 9.740e-09
 69.04100   -174.8 1.949e+04 6.846e-09
 69.06107   -179.9 2.056e+04 3.843e-09
 69.07662   -191.5 2.202e+04 2.583e-09
 69.08666   -196.1 2.656e+04 4.028e-09
 69.10120   -209.4 2.273e+04 6.659e-09
 69.12126   -217.3 2.115e+04 1.224e-08
 69.14132   -222.8 2.104e+04 1.483e-08
 69.15943   -227.5 2.076e+04 1.473e-08
 69.16946   -231.5 1.978e+04 1.132e-08
 69.18145   -235.9 1.804e+04 6.349e-09
 69.20152   -239.9 1.601e+04 3.349e-09
 69.22158   -243.5 1.398e+04 1.939e-09
 69.24165   -246.2 1.273e+04 1.403e-09
 69.25227   -247.8 1.209e+04 1.190e-09
 69.26230   -249.1 1.147e+04 9.446e-10
 69.28177   -250.0 1.142e+04 9.271e-10
 69.30184   -250.8 1.142e+04 9.242e-10
 69.32190   -251.8 1.143e+04 9.336e-10
 69.33507   -252.6 1.142e+04 9.451e-10
 69.34510   -252.9 1.118e+04 8.555e-10
 69.36203   -253.5 1.117e+04 8.576e-10
 69.38210   -254.0 1.111e+04 8.550e-10
 69.40216   -254.3 1.105e+04 8.407e-10
 69.41788   -254.5 1.102e+04 8.277e-10
 69.42791   -254.4 1.078e+04 7.370e-10
 69.44229   -254.7 1.078e+04 7.306e-10
 69.46235   -255.5 1.081e+04 7.305e-10
 69.48242   -257.4 1.109e+04 7.452e-10
 69.50068   -260.1 1.246e+04 1.022e-09
 69.51071   -258.9 1.173e+04 7.989e-10
 69.52255   -261.6 1.324e+04 1.336e-09
 69.54261   -264.0 1.447e+04 2.249e-09
 69.56267   -265.8 1.522e+04 3.381e-09
 69.58274   -267.4 1.546e+04 4.153e-09
 69.59352   -268.8 1.546e+04 4.320e-09
 69.60355   -267.8 1.530e+04 4.095e-09
 69.62287   -268.8 1.515e+04 4.104e-09
 69.64293   -268.9 1.444e+04 3.527e-09
 69.66300   -268.9 1.360e+04 2.542e-09
 69.67632   -268.7 1.272e+04 1.696e-09
 69.68636   -267.9 1.288e+04 1.836e-09
 69.70312   -267.7 1.207e+04 1.219e-09
 69.72319   -267.6 1.139e+04 8.375e-10
 69.74325   -267.5 1.090e+04 6.263e-10
 69.75913   -267.1 1.064e+04 5.289e-10
 69.76916   -266.3 1.074e+04 5.649e-10
 69.78338   -265.6 1.065e+04 5.341e-10
 69.80345   -264.9 1.064e+04 5.287e-10
 69.82351   -264.2 1.067e+04 5.316e-10
 69.84193   -263.7 1.088e+04 5.793e-10
 69.85197   -262.9 1.097e+04 6.140e-10
 69.86364   -262.5 1.121e+04 6.984e-10
 69.88370   -262.2 1.143e+04 7.919e-10
 69.90377   -262.0 1.160e+04 8.720e-10
 69.92383   -262.0 1.169e+04 9.214e-10
 69.93477   -262.2 1.170e+04 9.351e-10
 69.94480   -261.4 1.170e+04 9.345e-10
 69.96396   -261.5 1.166e+04 9.362e-10
 69.98402   -261.5 1.134e+04 8.950e-10
 70.00409   -261.4 1.097e+04 7.865e-10
 70.01758   -261.1 1.060e+04 6.568e-10
 70.02761   -260.3 1.071e+04 6.930e-10
 70.04422   -259.7 1.033e+04 5.670e-10
 70.06428   -258.6 9.974e+03 4.564e-10
 70.08434   -257.3 9.729e+03 3.812e-10
 70.10038   -256.3 9.597e+03 3.424e-10
 70.11041   -255.9 9.629e+03 3.504e-10
 70.13460   -255.7 9.485e+03 3.113e-10
 70.17335   -254.3 9.101e+03 2.453e-10
 70.19341   -252.4 9.282e+03 2.716e-10
 70.21496   -250.5 8.812e+03 2.036e-10
 70.25509   -248.4 8.421e+03 1.605e-10
 70.29521   -246.2 8.266e+03 1.445e-10
 70.33534   -244.1 8.247e+03 1.420e-10
 70.35902   -242.2 8.259e+03 1.442e-10
 70.37909   -240.4 8.250e+03 1.412e-10
 70.41560   -238.6 8.354e+03 1.576e-10
 70.45573   -237.0 8.550e+03 1.938e-10
 70.49586   -235.4 8.711e+03 2.326e-10
 70.52463   -233.8 8.813e+03 2.621e-10
 70.54470   -231.7 8.735e+03 2.434e-10
 70.57611   -230.1 8.769e+03 2.580e-10
 70.61624   -228.4 8.766e+03 2.611e-10
 70.65637   -226.6 8.686e+03 2.566e-10
 70.69024   -224.7 8.591e+03 2.406e-10
 70.71031   -222.5 8.582e+03 2.350e-10
 70.73663   -220.6 8.488e+03 2.196e-10
 70.77676   -218.8 8.373e+03 1.999e-10
 70.81689   -216.9 8.251e+03 1.788e-10
 70.85585   -215.0 8.152e+03 1.613e-10
 70.87592   -212.7 8.232e+03 1.699e-10
 70.89714   -211.0 8.189e+03 1.596e-10
 70.93727   -209.5 8.188e+03 1.574e-10
 70.97740   -208.8 8.222e+03 1.583e-10
 71.01753   -208.5 8.600e+03 1.995e-10
 71.04153   -209.6 1.040e+04 4.616e-10
 71.06159   -206.6 9.814e+03 3.430e-10
 71.09779   -208.0 1.137e+04 7.673e-10
 71.13791   -210.0 1.235e+04 1.310e-09
 71.17804   -212.7 1.269e+04 1.572e-09
 71.20714   -215.6 1.270e+04 1.588e-09
 71.22720   -212.4 1.252e+04 1.419e-09
 71.25830   -215.1 1.220e+04 1.265e-09
 71.29843   -217.1 1.159e+04 9.925e-10
 71.33856   -218.5 1.129e+04 8.769e-10
 71.37275   -219.6 1.126e+04 8.629e-10
 71.39281   -217.4 1.095e+04 6.996e-10
 71.41881   -218.9 1.107e+04 7.025e-10
 71.45894   -221.1 1.213e+04 8.889e-10
 71.48894   -221.1 1.252e+04 1.027e-09
 71.50891   -222.7 1.331e+04 1.346e-09
 71.52897   -224.6 1.410e+04 1.909e-09
 71.54820   -226.5 1.468e+04 2.665e-09
 71.55823   -225.0 1.428e+04 2.124e-09
 71.56910   -226.8 1.455e+04 2.728e-09
 71.58916   -228.3 1.450e+04 2.993e-09
 71.60923   -229.5 1.438e+04 3.032e-09
 71.62929   -230.3 1.376e+04 2.693e-09
 71.64103   -231.0 1.312e+04 1.956e-09
 71.65107   -230.1 1.304e+04 1.982e-09
 71.66942   -231.1 1.240e+04 1.361e-09
 71.68949   -232.5 1.184e+04 9.011e-10
 71.70955   -234.3 1.155e+04 6.604e-10
 71.72384   -236.2 1.152e+04 5.978e-10
 71.73387   -234.7 1.141e+04 5.871e-10
 71.74968   -236.5 1.140e+04 5.669e-10
 71.76974   -238.1 1.151e+04 5.805e-10
 71.78981   -239.5 1.185e+04 7.252e-10
 71.80664   -240.4 1.217e+04 9.561e-10
 71.81668   -238.9 1.166e+04 7.277e-10
 71.82994   -239.7 1.181e+04 8.635e-10
 71.85000   -240.1 1.188e+04 9.370e-10
 71.87006   -240.4 1.189e+04 9.522e-10
 71.88945   -240.4 1.183e+04 9.454e-10
 71.89948   -239.0 1.129e+04 7.249e-10
 71.91019   -238.8 1.111e+04 6.356e-10
 71.93026   -238.4 1.093e+04 5.166e-10
 71.95032   -237.8 1.075e+04 4.227e-10
 71.98051   -237.6 1.056e+04 3.640e-10
 72.02074   -237.4 1.023e+04 3.100e-10
 72.05526   -236.5 9.803e+03 2.548e-10
 72.07532   -234.5 9.682e+03 1.750e-10
 72.10100   -233.2 9.427e+03 1.567e-10
 72.14113   -231.4 9.275e+03 1.501e-10
 72.18126   -229.6 9.220e+03 1.483e-10
 72.22087   -227.8 9.203e+03 1.471e-10
 72.24093   -226.4 9.291e+03 1.260e-10
 72.26151   -224.7 9.291e+03 1.329e-10
 72.30164   -222.9 9.288e+03 1.346e-10
 72.34177   -221.0 9.277e+03 1.346e-10
 72.38190   -219.0 9.240e+03 1.327e-10
 72.40654   -216.9 9.221e+03 1.313e-10
 72.42660   -215.8 9.282e+03 1.278e-10
 72.46215   -213.8 9.281e+03 1.290e-10
 72.50228   -212.0 9.329e+03 1.377e-10
 72.54241   -210.3 9.446e+03 1.596e-10
 72.57215   -208.7 9.584e+03 1.923e-10
 72.59221   -207.6 9.564e+03 1.832e-10
 72.62267   -206.1 9.731e+03 2.242e-10
 72.66280   -204.8 9.879e+03 2.682e-10
 72.70293   -203.5 9.959e+03 3.036e-10
 72.73776   -202.2 9.970e+03 3.181e-10
 72.75783   -201.2 9.984e+03 3.134e-10
 72.78318   -200.1 9.981e+03 3.174e-10
 72.82331   -198.8 9.878e+03 3.122e-10
 72.86344   -197.2 9.657e+03 2.734e-10
 72.90337   -195.5 9.417e+03 2.194e-10
 72.92344   -194.6 9.278e+03 1.948e-10
 72.94370   -192.8 9.036e+03 1.463e-10
 72.98383   -190.9 8.833e+03 1.090e-10
 73.02395   -189.1 8.689e+03 8.355e-11
 73.06408   -187.2 8.635e+03 6.886e-11
 73.08905   -185.3 8.659e+03 6.370e-11
 73.10911   -184.6 8.576e+03 5.465e-11
 73.14434   -182.8 8.604e+03 5.284e-11
 73.18447   -181.2 8.653e+03 5.269e-11
 73.22460   -179.8 9.032e+03 5.893e-11
 73.25466   -178.5 9.307e+03 8.190e-11
 73.27472   -177.6 8.972e+03 6.840e-11
 73.30485   -176.2 9.142e+03 8.706e-11
 73.34498   -174.7 9.290e+03 1.069e-10
 73.38511   -173.1 9.383e+03 1.212e-10
 73.42027   -171.4 9.406e+03 1.253e-10
 73.44033   -170.0 9.250e+03 1.189e-10
 73.46080   -168.1 9.282e+03 1.195e-10
 73.48086   -167.4 9.381e+03 1.408e-10
 73.50550   -165.3 9.450e+03 1.439e-10
 73.54562   -162.9 9.481e+03 1.440e-10
 73.58575   -160.5 9.502e+03 1.439e-10
 73.62588   -157.1 9.711e+03 1.562e-10
 73.66601   -155.1 1.017e+04 2.002e-10
 73.70614   -153.1 1.083e+04 3.286e-10
 73.74627   -151.1 1.157e+04 5.938e-10
 73.77145   -149.7 1.196e+04 9.898e-10
 73.78139   -150.1 1.280e+04 1.185e-09
 73.79623   -148.8 1.317e+04 1.639e-09
 73.81630   -147.6 1.318e+04 2.010e-09
 73.83636   -146.7 1.379e+04 2.464e-09
 73.85416   -146.7 1.760e+04 3.350e-09
 73.86419   -144.6 1.458e+04 3.613e-09
 73.87649   -144.0 1.928e+04 4.814e-09
 73.89149   -148.8 2.802e+04 8.133e-09
 73.90048   -152.8 2.686e+04 3.316e-08
 73.90550   -149.7 2.967e+04 1.147e-08
 73.91150   -153.8 2.600e+04 6.970e-08
 73.92154   -155.7 2.241e+04 3.259e-07
 73.93157   -156.6 2.128e+04 7.280e-07
 73.94160   -157.4 2.118e+04 9.050e-07
 73.94688   -157.6 2.212e+04 5.618e-07
 73.95189   -155.6 2.062e+04 1.206e-06
 73.95913   -157.0 2.232e+04 5.308e-07
 73.96412   -157.8 2.290e+04 3.891e-07
 73.96755   -159.4 2.401e+04 2.154e-07
 73.97006   -157.9 2.343e+04 3.270e-07
 73.97416   -159.4 2.445e+04 1.830e-07
 73.98170   -162.2 2.602e+04 7.595e-08
 73.98830   -165.9 2.645e+04 3.530e-08
 73.99332   -163.0 2.776e+04 5.603e-08
 74.00179   -167.5 2.801e+04 2.468e-08
 74.01183   -175.4 2.604e+04 7.973e-09
 74.02186   -183.3 2.282e+04 3.519e-09
 74.02971   -188.5 2.179e+04 2.743e-09
 74.03472   -190.6 2.490e+04 5.295e-09
 74.04192   -196.1 2.407e+04 5.028e-09
 74.05195   -199.2 2.360e+04 5.230e-09
 74.06199   -201.0 2.215e+04 6.563e-09
 74.07111   -201.8 2.106e+04 8.108e-09
 74.07612   -203.7 2.027e+04 1.212e-08
 74.08205   -203.4 1.952e+04 1.279e-08
 74.09208   -203.0 1.878e+04 1.308e-08
 74.10211   -202.4 1.856e+04 1.193e-08
 74.11215   -201.9 1.841e+04 1.056e-08
 74.11753   -201.6 1.808e+04 9.179e-09
 74.12254   -202.8 1.806e+04 6.972e-09
 74.13221   -203.2 1.771e+04 5.309e-09
 74.14224   -203.6 1.730e+04 4.320e-09
 74.15734   -203.9 1.689e+04 3.770e-09
 74.17745   -203.6 1.635e+04 2.895e-09
 74.19541   -203.2 1.580e+04 2.069e-09
 74.20545   -206.9 1.498e+04 1.409e-09
 74.21758   -206.0 1.405e+04 1.179e-09
 74.23765   -204.8 1.337e+04 1.034e-09
 74.25771   -203.4 1.284e+04 9.228e-10
 74.27777   -201.8 1.243e+04 8.177e-10
 74.28825   -200.3 1.213e+04 7.106e-10
 74.29828   -200.2 1.193e+04 7.023e-10
 74.31790   -198.7 1.175e+04 6.014e-10
 74.33797   -197.2 1.161e+04 5.099e-10
 74.35803   -195.8 1.150e+04 4.377e-10
 74.37106   -194.5 1.146e+04 3.891e-10
 74.38109   -194.3 1.149e+04 3.688e-10
 74.39816   -193.3 1.150e+04 3.509e-10
 74.41822   -192.4 1.149e+04 3.439e-10
 74.43829   -191.4 1.150e+04 3.430e-10
 74.45386   -190.4 1.156e+04 3.458e-10
 74.47402   -189.4 1.128e+04 2.668e-10
 74.50871   -187.9 1.201e+04 3.661e-10
 74.54884   -186.7 1.286e+04 7.234e-10
 74.58897   -185.4 1.339e+04 1.279e-09
 74.61967   -184.2 1.364e+04 1.763e-09
 74.63973   -182.8 1.298e+04 7.581e-10
 74.66922   -181.7 1.329e+04 1.175e-09
 74.70935   -180.8 1.352e+04 1.554e-09
 74.74948   -180.0 1.362e+04 1.790e-09
 74.78528   -179.3 1.363e+04 1.889e-09
 74.80534   -177.9 1.340e+04 1.591e-09
 74.82974   -177.4 1.338e+04 1.688e-09
 74.86987   -177.1 1.319e+04 1.676e-09
 74.90999   -176.5 1.261e+04 1.445e-09
 74.95012   -175.3 1.189e+04 1.068e-09
 74.97095   -173.5 1.113e+04 7.176e-10
 74.99102   -173.3 1.104e+04 7.077e-10
 75.03038   -171.1 1.041e+04 4.761e-10
 75.07051   -169.3 1.009e+04 3.689e-10
 75.11064   -168.0 9.886e+03 3.167e-10
 75.13656   -165.8 9.604e+03 2.711e-10
 75.15663   -165.6 9.659e+03 3.188e-10
 75.19089   -163.5 9.522e+03 3.032e-10
 75.23102   -161.4 9.503e+03 2.997e-10
 75.27115   -159.6 9.519e+03 3.041e-10
 75.30217   -157.9 9.485e+03 3.274e-10
 75.32224   -158.0 9.392e+03 3.288e-10
 75.35141   -156.4 9.346e+03 3.282e-10
 75.39154   -154.8 9.261e+03 3.194e-10
 75.43167   -153.2 9.167e+03 3.042e-10
 75.46778   -151.5 9.083e+03 2.905e-10
 75.48785   -151.8 8.682e+03 2.215e-10
 75.51192   -150.1 8.627e+03 2.120e-10
 75.55205   -148.4 8.621e+03 2.106e-10
 75.59218   -147.1 8.642e+03 2.167e-10
 75.63231   -146.2 9.114e+03 3.014e-10
 75.65346   -145.5 9.935e+03 4.980e-10
 75.67352   -145.6 9.579e+03 4.060e-10
 75.71256   -144.9 1.051e+04 7.098e-10
 75.75269   -144.4 1.130e+04 1.091e-09
 75.79282   -144.2 1.191e+04 1.451e-09
 75.81907   -144.8 1.231e+04 1.706e-09
 75.83913   -144.4 1.204e+04 1.542e-09
 75.86295   -145.3 1.219e+04 1.625e-09
 75.88292   -145.7 1.227e+04 1.657e-09
 75.90168   -146.5 1.233e+04 1.677e-09
 75.91171   -146.3 1.212e+04 1.571e-09
 75.92304   -147.1 1.217e+04 1.585e-09
 75.94311   -148.2 1.215e+04 1.581e-09
 75.95499   -149.0 1.216e+04 1.564e-09
 75.96502   -149.0 1.237e+04 1.700e-09
 75.98324   -149.9 1.215e+04 1.535e-09
 75.99451   -150.7 1.183e+04 1.301e-09
 76.00464   -149.6 1.201e+04 1.452e-09
 76.03359   -151.4 1.138e+04 1.054e-09
 76.07372   -153.1 1.061e+04 7.307e-10
 76.11385   -154.6 1.028e+04 6.098e-10
 76.15029   -155.8 1.027e+04 6.012e-10
 76.17035   -152.9 1.062e+04 7.105e-10
 76.19411   -155.0 1.075e+04 7.193e-10
 76.22411   -157.1 1.117e+04 8.838e-10
 76.24293   -158.1 1.147e+04 1.063e-09
 76.25296   -158.0 1.156e+04 1.111e-09
 76.26414   -159.2 1.182e+04 1.318e-09
 76.28420   -160.3 1.192e+04 1.424e-09
 76.30426   -161.3 1.193e+04 1.442e-09
 76.32433   -162.1 1.182e+04 1.408e-09
 76.33577   -162.8 1.152e+04 1.216e-09
 76.34580   -162.6 1.168e+04 1.292e-09
 76.36446   -163.3 1.132e+04 1.053e-09
 76.38452   -164.1 1.101e+04 8.617e-10
 76.40459   -164.9 1.079e+04 7.334e-10
 76.41857   -165.7 1.068e+04 6.530e-10
 76.42860   -165.4 1.077e+04 6.969e-10
 76.44471   -166.1 1.069e+04 6.419e-10
 76.46478   -166.6 1.065e+04 6.042e-10
 76.48484   -167.2 1.061e+04 5.731e-10
 76.50138   -167.7 1.057e+04 5.439e-10
 76.51141   -167.0 1.069e+04 5.778e-10
 76.52497   -167.5 1.064e+04 5.427e-10
 76.54504   -167.8 1.060e+04 5.145e-10
 76.56510   -168.0 1.060e+04 4.989e-10
 76.58418   -168.2 1.061e+04 4.955e-10
 76.59421   -167.5 1.070e+04 5.279e-10
 76.60523   -167.7 1.073e+04 5.269e-10
 76.62529   -168.0 1.089e+04 5.383e-10
 76.64536   -168.2 1.103e+04 5.664e-10
 76.66542   -168.5 1.113e+04 5.964e-10
 76.67702   -168.7 1.120e+04 6.219e-10
 76.68705   -167.9 1.137e+04 7.113e-10
 76.70555   -168.2 1.141e+04 7.397e-10
 76.72561   -168.3 1.144e+04 7.596e-10
 76.74568   -168.5 1.145e+04 7.718e-10
 76.75982   -168.6 1.145e+04 7.765e-10
 76.76986   -168.1 1.164e+04 8.736e-10
 76.78581   -168.1 1.161e+04 8.676e-10
 76.80587   -168.1 1.151e+04 8.334e-10
 76.82594   -168.0 1.140e+04 7.921e-10
 76.84263   -167.7 1.125e+04 7.371e-10
 76.85276   -167.4 1.135e+04 7.743e-10
 76.86616   -166.9 1.111e+04 6.986e-10
 76.88613   -166.5 1.103e+04 6.693e-10
 76.90619   -166.1 1.099e+04 6.563e-10
 76.92543   -165.7 1.099e+04 6.542e-10
 76.93547   -165.4 1.099e+04 6.544e-10
 76.94632   -165.2 1.107e+04 6.865e-10
 76.96639   -164.9 1.118e+04 7.457e-10
 76.98645   -164.6 1.128e+04 8.055e-10
 77.00651   -164.2 1.135e+04 8.545e-10
 77.01827   -163.9 1.137e+04 8.814e-10
 77.02830   -163.5 1.145e+04 9.417e-10
 77.04664   -163.1 1.145e+04 9.436e-10
 77.06671   -162.8 1.137e+04 9.165e-10
 77.08677   -162.4 1.126e+04 8.585e-10
 77.10108   -162.0 1.112e+04 7.852e-10
 77.11111   -161.5 1.106e+04 7.602e-10
 77.12690   -161.0 1.089e+04 6.675e-10
 77.14696   -160.5 1.072e+04 5.757e-10
 77.16703   -160.0 1.057e+04 4.913e-10
 77.18388   -159.7 1.045e+04 4.290e-10
 77.19391   -159.3 1.036e+04 3.984e-10
 77.20716   -158.9 1.027e+04 3.645e-10
 77.23735   -158.3 1.020e+04 3.331e-10
 77.27758   -156.6 9.936e+03 2.714e-10
 77.31771   -154.9 9.706e+03 2.297e-10
 77.34969   -153.1 9.540e+03 2.055e-10
 77.36975   -152.3 9.497e+03 2.000e-10
 77.39796   -150.4 9.424e+03 1.889e-10
 77.43809   -148.4 9.365e+03 1.808e-10
 77.47822   -146.4 9.323e+03 1.786e-10
 77.51530   -144.4 9.287e+03 1.804e-10
 77.53536   -143.8 9.175e+03 1.628e-10
 77.55848   -141.8 9.099e+03 1.605e-10
 77.59860   -139.8 9.024e+03 1.596e-10
 77.63873   -137.8 8.959e+03 1.586e-10
 77.67886   -135.8 8.894e+03 1.575e-10
 77.70097   -133.6 8.845e+03 1.564e-10
 77.72104   -132.9 8.838e+03 1.577e-10
 77.75912   -130.7 8.825e+03 1.574e-10
 77.79925   -128.3 8.828e+03 1.576e-10
 77.83938   -126.1 8.855e+03 1.588e-10
 77.86658   -124.3 8.923e+03 1.775e-10
 77.88665   -123.8 9.006e+03 2.073e-10
 77.91963   -122.2 9.548e+03 3.328e-10
 77.95976   -120.5 1.030e+04 5.670e-10
 77.99989   -119.1 1.117e+04 9.394e-10
 78.03219   -118.3 1.199e+04 1.451e-09
 78.05226   -117.8 1.233e+04 1.655e-09
 78.07002   -117.8 1.285e+04 2.194e-09
 78.08998   -117.9 1.319e+04 2.657e-09
 78.11005   -117.9 1.346e+04 3.059e-09
 78.12484   -117.8 1.367e+04 3.319e-09
 78.13487   -117.6 1.391e+04 3.639e-09
 78.15018   -117.6 1.408e+04 3.808e-09
 78.17024   -117.9 1.423e+04 3.863e-09
 78.19031   -119.1 1.442e+04 3.780e-09
 78.20764   -120.9 1.450e+04 3.692e-09
 78.21767   -120.0 1.444e+04 3.890e-09
 78.23043   -122.3 1.451e+04 3.857e-09
 78.25050   -125.7 1.521e+04 4.116e-09
 78.27056   -130.1 1.641e+04 5.057e-09
 78.29045   -135.0 1.743e+04 6.465e-09
 78.30048   -135.6 1.852e+04 8.429e-09
 78.31069   -140.8 1.880e+04 1.011e-08
 78.33076   -145.9 1.865e+04 1.039e-08
 78.35082   -150.4 1.776e+04 8.825e-09
 78.37088   -154.9 1.634e+04 5.630e-09
 78.38328   -159.5 1.449e+04 3.116e-09
 78.39332   -162.4 1.396e+04 2.570e-09
 78.41101   -166.7 1.177e+04 1.356e-09
 78.42931   -169.4 1.028e+04 8.262e-10
 78.43934   -168.1 1.133e+04 1.173e-09
 78.45114   -170.2 9.981e+03 7.225e-10
 78.46609   -171.3 9.357e+03 5.015e-10
 78.47612   -172.9 9.164e+03 4.439e-10
 78.49127   -173.1 9.015e+03 3.629e-10
 78.51133   -172.8 8.932e+03 3.284e-10
 78.53140   -172.7 8.880e+03 3.162e-10
 78.54899   -172.4 8.765e+03 2.914e-10
 78.56915   -173.9 8.781e+03 2.983e-10
 78.60182   -172.3 8.508e+03 2.600e-10
 78.64195   -170.4 8.317e+03 2.302e-10
 78.68207   -168.5 8.220e+03 2.112e-10
 78.71470   -166.5 8.197e+03 2.017e-10
 78.73476   -167.1 8.595e+03 2.747e-10
 78.76233   -165.1 8.605e+03 2.701e-10
 78.80246   -163.1 8.592e+03 2.618e-10
 78.84259   -161.1 8.572e+03 2.504e-10
 78.88031   -159.1 8.578e+03 2.429e-10
 78.90037   -159.7 8.702e+03 2.760e-10
 78.92285   -157.9 8.708e+03 2.671e-10
 78.96297   -156.8 8.723e+03 2.665e-10
 79.00310   -156.7 8.822e+03 2.723e-10
 79.04323   -157.8 9.399e+03 3.372e-10
 79.06598   -160.9 1.156e+04 7.837e-10
 79.08605   -161.9 1.176e+04 8.874e-10
 79.11336   -163.7 1.293e+04 1.635e-09
 79.13333   -164.8 1.379e+04 2.558e-09
 79.14859   -165.9 1.436e+04 3.539e-09
 79.15863   -166.0 1.427e+04 3.498e-09
 79.17345   -167.1 1.440e+04 3.780e-09
 79.19352   -168.1 1.437e+04 3.795e-09
 79.21358   -168.6 1.392e+04 3.272e-09
 79.23140   -169.1 1.317e+04 2.344e-09
 79.24143   -169.1 1.293e+04 2.040e-09
 79.25371   -169.9 1.217e+04 1.444e-09
 79.27378   -170.7 1.148e+04 1.061e-09
 79.29384   -171.2 1.097e+04 8.315e-10
 79.31390   -171.5 1.064e+04 6.977e-10
 79.32424   -171.6 1.042e+04 6.227e-10
 79.33427   -171.8 1.048e+04 6.209e-10
 79.35403   -171.9 1.039e+04 5.969e-10
 79.37410   -171.9 1.037e+04 5.894e-10
 79.39416   -171.9 1.037e+04 5.889e-10
 79.40704   -172.0 1.044e+04 5.999e-10
 79.41707   -172.5 1.064e+04 6.372e-10
 79.43429   -172.6 1.070e+04 6.503e-10
 79.45435   -172.8 1.071e+04 6.539e-10
 79.47442   -172.9 1.072e+04 6.471e-10
 79.48985   -172.7 1.061e+04 5.848e-10
 79.49988   -173.4 1.073e+04 6.048e-10
 79.51455   -173.0 1.054e+04 5.215e-10
 79.53461   -172.5 1.035e+04 4.447e-10
 79.56272   -171.6 1.023e+04 3.775e-10
 79.58278   -172.5 1.027e+04 3.855e-10
 79.59480   -172.1 1.026e+04 3.758e-10
 79.61487   -171.9 1.027e+04 3.760e-10
 79.64506   -171.8 1.020e+04 3.711e-10
 79.68529   -170.7 9.951e+03 3.350e-10
 79.72542   -169.4 9.688e+03 2.966e-10
 79.74849   -167.9 9.475e+03 2.662e-10
 79.76855   -168.6 9.696e+03 3.093e-10
 79.80567   -166.9 9.597e+03 2.952e-10
 79.84580   -165.1 9.571e+03 2.914e-10
 79.88593   -163.5 9.574e+03 2.985e-10
 79.91410   -161.8 9.617e+03 3.126e-10
 79.93416   -161.7 1.004e+04 4.162e-10
 79.96619   -160.0 1.003e+04 4.229e-10
 80.00632   -158.3 9.957e+03 4.255e-10
 80.04644   -156.5 9.871e+03 4.124e-10
 80.07971   -154.7 9.770e+03 3.898e-10
 80.09977   -154.6 9.918e+03 4.277e-10
 80.12670   -152.7 9.781e+03 3.890e-10
 80.16683   -150.5 9.617e+03 3.484e-10
 80.20696   -148.2 9.433e+03 3.087e-10
 80.24532   -146.0 9.253e+03 2.722e-10
 80.26538   -145.5 9.428e+03 2.982e-10
 80.28722   -143.2 9.280e+03 2.699e-10
 80.32734   -141.0 9.146e+03 2.439e-10
 80.36747   -138.9 9.017e+03 2.188e-10
 80.40760   -136.8 8.895e+03 1.958e-10
 80.43099   -134.8 8.800e+03 1.790e-10
 80.45106   -134.1 9.110e+03 2.306e-10
 80.48786   -132.3 9.089e+03 2.262e-10
 80.52799   -130.8 9.232e+03 2.401e-10
 80.56812   -129.5 9.641e+03 3.233e-10
 80.59651   -128.5 9.987e+03 4.250e-10
 80.60644   -128.3 1.036e+04 5.371e-10
 80.61808   -128.1 1.070e+04 6.672e-10
 80.64827   -127.6 1.113e+04 8.623e-10
 80.67837   -126.6 1.121e+04 9.482e-10
 80.68925   -126.7 1.132e+04 9.858e-10
 80.69928   -126.8 1.166e+04 1.137e-09
 80.71840   -127.4 1.201e+04 1.320e-09
 80.73847   -128.2 1.241e+04 1.481e-09
 80.75853   -129.6 1.300e+04 1.764e-09
 80.77205   -131.4 1.375e+04 2.240e-09
 80.78208   -132.6 1.453e+04 3.049e-09
 80.79866   -134.5 1.533e+04 3.909e-09
 80.81872   -136.2 1.602e+04 4.889e-09
 80.83879   -137.8 1.647e+04 5.610e-09
 80.85486   -139.5 1.658e+04 5.786e-09
 80.86489   -140.9 1.674e+04 6.125e-09
 80.87892   -142.4 1.623e+04 5.502e-09
 80.89898   -143.5 1.531e+04 4.458e-09
 80.91366   -144.3 1.427e+04 3.459e-09
 80.92369   -145.9 1.316e+04 2.484e-09
 80.93766   -146.1 1.239e+04 1.867e-09
 80.94769   -146.4 1.184e+04 1.354e-09
 80.95917   -146.2 1.129e+04 9.887e-10
 80.97924   -145.8 1.083e+04 7.300e-10
 80.99930   -145.4 1.042e+04 5.456e-10
 81.01937   -145.1 1.003e+04 4.265e-10
 81.03050   -144.7 9.702e+03 3.591e-10
 81.04053   -145.1 9.502e+03 3.180e-10
 81.05949   -144.0 9.521e+03 3.282e-10
 81.08969   -142.8 9.585e+03 3.433e-10
 81.11350   -140.2 9.241e+03 2.996e-10
 81.13356   -139.9 8.967e+03 2.524e-10
 81.17004   -138.0 8.923e+03 2.494e-10
 81.21017   -136.3 8.931e+03 2.509e-10
 81.25030   -135.2 9.258e+03 3.060e-10
 81.27911   -134.3 9.813e+03 4.443e-10
 81.29917   -133.6 9.398e+03 3.308e-10
 81.33056   -133.0 9.960e+03 4.782e-10
 81.37069   -132.5 1.052e+04 6.914e-10
 81.41081   -132.2 1.089e+04 8.832e-10
 81.44472   -132.1 1.102e+04 9.475e-10
 81.46478   -131.5 1.048e+04 6.639e-10
 81.49107   -131.4 1.049e+04 6.737e-10
 81.53120   -131.0 1.023e+04 5.724e-10
 81.57133   -129.8 9.707e+03 3.768e-10
 81.61033   -128.5 9.202e+03 2.358e-10
 81.63039   -127.7 9.112e+03 2.258e-10
 81.65159   -126.4 8.879e+03 1.642e-10
 81.69171   -125.0 8.770e+03 1.339e-10
 81.73184   -123.5 8.737e+03 1.210e-10
 81.77197   -122.0 8.728e+03 1.154e-10
 81.79601   -120.4 8.737e+03 1.126e-10
 81.81607   -119.6 8.666e+03 1.095e-10
 81.85223   -117.9 8.643e+03 1.033e-10
 81.89236   -116.1 8.628e+03 9.666e-11
 81.93248   -114.3 8.610e+03 8.979e-11
 81.96162   -112.3 8.586e+03 8.275e-11
 81.98168   -111.7 8.557e+03 8.129e-11
 82.01274   -109.6 8.543e+03 7.602e-11
 82.05287   -107.4 8.549e+03 7.342e-11
 82.09300   -105.3 8.562e+03 7.310e-11
 82.12723   -103.3 8.652e+03 7.413e-11
 82.14729   -103.3 8.876e+03 8.528e-11
 82.17326   -101.8 9.192e+03 1.253e-10
 82.21338   -100.2 9.688e+03 2.321e-10
 82.25351    -98.4 1.040e+04 4.514e-10
 82.29284    -96.6 1.127e+04 8.319e-10
 82.31290    -96.1 1.122e+04 8.633e-10
 82.33377    -94.7 1.203e+04 1.328e-09
 82.37390    -93.5 1.275e+04 1.918e-09
 82.39561    -92.9 1.342e+04 2.767e-09
 82.40554    -92.7 1.315e+04 2.367e-09
 82.42386    -91.9 1.338e+04 2.628e-09
 82.44393    -91.2 1.353e+04 2.789e-09
 82.46399    -90.6 1.359e+04 2.829e-09
 82.47832    -90.0 1.355e+04 2.549e-09
 82.49848    -89.7 1.292e+04 1.852e-09
 82.53441    -88.6 1.252e+04 1.341e-09
 82.57454    -87.5 1.194e+04 8.924e-10
 82.61467    -86.4 1.136e+04 5.951e-10
 82.64412    -85.3 1.111e+04 5.134e-10
 82.66418    -84.9 1.080e+04 5.009e-10
 82.69493    -83.7 1.075e+04 4.864e-10
 82.73506    -82.5 1.078e+04 4.905e-10
 82.77518    -81.4 1.089e+04 5.436e-10
 82.80973    -80.5 1.098e+04 6.425e-10
 82.82980    -79.4 1.077e+04 5.471e-10
 82.85544    -78.3 1.083e+04 6.158e-10
 82.89557    -77.1 1.089e+04 6.930e-10
 82.93570    -75.9 1.089e+04 7.418e-10
 82.97534    -74.6 1.082e+04 7.489e-10
 82.99541    -73.9 1.092e+04 7.548e-10
 83.01595    -72.8 1.097e+04 8.393e-10
 83.05608    -71.6 1.105e+04 9.289e-10
 83.09621    -70.4 1.118e+04 1.042e-09
 83.13634    -69.2 1.131e+04 1.150e-09
 83.16102    -67.8 1.137e+04 1.187e-09
 83.17095    -68.0 1.177e+04 1.436e-09
 83.18631    -67.6 1.168e+04 1.406e-09
 83.20637    -66.7 1.138e+04 1.233e-09
 83.22643    -66.1 1.105e+04 1.015e-09
 83.24363    -65.5 1.077e+04 8.422e-10
 83.25366    -65.7 1.087e+04 8.663e-10
 83.26656    -65.4 1.059e+04 7.297e-10
 83.29676    -64.8 1.036e+04 6.513e-10
 83.32663    -63.3 1.009e+04 5.694e-10
 83.34669    -64.2 1.048e+04 6.547e-10
 83.37711    -62.4 1.061e+04 6.922e-10
 83.39821    -60.6 1.091e+04 8.088e-10
 83.41827    -59.7 9.692e+03 3.640e-10
 83.45737    -59.1 1.016e+04 4.798e-10
 83.48737    -59.8 1.124e+04 8.271e-10
 83.50207    -60.5 1.209e+04 1.190e-09
 83.51211    -61.0 1.227e+04 1.287e-09
 83.52740    -61.9 1.320e+04 2.117e-09
 83.54746    -62.1 1.421e+04 3.577e-09
 83.56753    -61.4 1.506e+04 5.580e-09
 83.58488    -60.1 1.571e+04 7.345e-09
 83.59491    -60.3 1.526e+04 6.040e-09
 83.60766    -59.4 1.540e+04 6.290e-09
 83.62772    -58.7 1.531e+04 5.527e-09
 83.64778    -58.3 1.475e+04 3.623e-09
 83.66768    -59.1 1.394e+04 2.222e-09
 83.67772    -61.8 1.316e+04 1.612e-09
 83.68791    -63.3 1.224e+04 1.350e-09
 83.70798    -63.9 1.185e+04 1.317e-09
 83.72804    -63.4 1.166e+04 1.357e-09
 83.74810    -62.5 1.172e+04 1.434e-09
 83.76052    -61.6 1.176e+04 1.470e-09
 83.77055    -62.6 1.187e+04 1.489e-09
 83.78823    -62.1 1.180e+04 1.407e-09
 83.80830    -61.9 1.169e+04 1.295e-09
 83.82836    -61.8 1.151e+04 1.182e-09
 83.84333    -61.7 1.129e+04 1.093e-09
 83.85336    -63.4 1.087e+04 9.364e-10
 83.86849    -63.3 1.066e+04 8.604e-10
 83.89868    -63.3 1.031e+04 7.434e-10
 83.93891    -62.1 9.964e+03 6.065e-10
 83.97904    -61.2 9.669e+03 4.581e-10
 84.00913    -60.5 9.277e+03 3.170e-10
 84.02920    -63.9 8.203e+03 1.596e-10
 84.05930    -63.2 7.863e+03 1.189e-10
 84.09942    -62.2 7.618e+03 9.040e-11
 84.13955    -60.9 7.432e+03 6.853e-11
 84.17474    -59.5 7.368e+03 5.620e-11
 84.19481    -61.2 7.384e+03 5.747e-11
 84.21981    -60.1 7.412e+03 5.592e-11
 84.25994    -59.7 7.604e+03 5.835e-11
 84.30007    -59.8 8.095e+03 9.632e-11
 84.34020    -59.3 8.533e+03 1.915e-10
 84.38032    -58.7 8.910e+03 3.025e-10
 84.42045    -57.8 8.990e+03 3.146e-10
 84.46058    -57.1 8.975e+03 2.626e-10
 84.50071    -56.5 8.760e+03 1.797e-10
 84.52603    -56.1 8.489e+03 1.262e-10
 84.54609    -56.5 8.302e+03 1.027e-10
 84.58097    -55.7 8.191e+03 9.760e-11
 84.62110    -54.6 8.158e+03 9.712e-11
 84.66122    -53.5 8.134e+03 1.037e-10
 84.69164    -52.3 8.163e+03 1.177e-10
 84.71170    -51.8 8.178e+03 1.117e-10
 84.74148    -50.6 8.227e+03 1.269e-10
 84.78161    -49.5 8.301e+03 1.490e-10
 84.82174    -48.4 8.383e+03 1.774e-10
 84.85725    -47.3 8.454e+03 2.055e-10
 84.87731    -46.6 8.472e+03 1.982e-10
 84.90200    -45.6 8.565e+03 2.283e-10
 84.94212    -44.7 8.596e+03 2.385e-10
 84.98225    -44.0 8.535e+03 2.312e-10
 85.02238    -43.2 8.419e+03 2.056e-10
 85.04292    -42.4 8.278e+03 1.784e-10
 85.06299    -42.2 8.477e+03 2.168e-10
 85.10264    -41.2 8.275e+03 1.785e-10
 85.14277    -40.1 8.176e+03 1.538e-10
 85.18289    -38.9 8.186e+03 1.483e-10
 85.20853    -37.9 8.380e+03 1.670e-10
 85.22860    -37.9 8.437e+03 1.691e-10
 85.26315    -37.0 8.691e+03 2.164e-10
 85.30328    -36.2 8.887e+03 2.757e-10
 85.34341    -35.2 9.147e+03 3.402e-10
 85.37414    -34.3 9.348e+03 3.738e-10
 85.39411    -34.5 9.753e+03 4.954e-10
 85.41344    -34.0 9.615e+03 4.473e-10
 85.43350    -33.7 9.537e+03 4.227e-10
 85.46370    -33.3 9.458e+03 3.779e-10
 85.50392    -32.8 9.217e+03 2.751e-10
 85.53975    -32.0 8.886e+03 1.921e-10
 85.55982    -33.5 9.541e+03 2.923e-10
 85.58418    -32.3 9.232e+03 2.344e-10
 85.62431    -30.8 9.013e+03 2.077e-10
 85.66444    -29.2 8.942e+03 2.009e-10
 85.70457    -27.2 8.898e+03 2.060e-10
 85.72543    -25.1 8.930e+03 2.193e-10
 85.74549    -25.9 9.056e+03 2.388e-10
 85.78482    -23.6 9.070e+03 2.364e-10
 85.82495    -21.3 9.023e+03 2.344e-10
 85.86508    -19.1 8.956e+03 2.195e-10
 85.89104    -17.0 8.966e+03 2.048e-10
 85.91110    -18.1 9.065e+03 2.292e-10
 85.94534    -16.6 9.307e+03 2.470e-10
 85.98547    -15.6 9.631e+03 3.251e-10
 86.02559    -14.2 1.002e+04 4.701e-10
 86.05665    -12.2 1.038e+04 6.255e-10
 86.07671    -13.8 1.053e+04 7.740e-10
 86.10585    -11.9 1.031e+04 6.755e-10
 86.14598     -9.9 9.972e+03 5.021e-10
 86.18611     -8.9 9.697e+03 3.710e-10
 86.22226     -7.9 9.484e+03 3.206e-10
 86.24232     -9.2 9.244e+03 2.653e-10
 86.26636     -7.3 9.074e+03 2.583e-10
 86.30649     -5.3 9.091e+03 2.632e-10
 86.34662     -3.3 9.235e+03 2.723e-10
 86.38675     -1.4 9.428e+03 2.631e-10
 86.40793      0.4 9.342e+03 2.433e-10
 86.42800     -1.1 9.014e+03 1.878e-10
 86.46701      1.4 8.857e+03 1.584e-10
 86.50714      3.4 8.935e+03 1.205e-10
 86.54726      4.7 8.992e+03 1.046e-10
 86.57354      6.1 8.849e+03 1.131e-10
 86.59361      5.5 8.696e+03 1.579e-10
 86.62752      8.1 8.681e+03 1.794e-10
 86.66765     10.8 8.788e+03 1.987e-10
 86.70778     13.3 8.992e+03 2.125e-10
 86.73915     15.6 9.162e+03 2.260e-10
 86.75922     15.0 9.238e+03 1.937e-10
 86.78804     17.3 9.275e+03 2.147e-10
 86.82816     19.2 9.415e+03 2.693e-10
 86.86829     22.2 9.971e+03 4.167e-10
 86.89829     24.1 9.849e+03 4.207e-10
 86.91460     25.2 9.880e+03 4.709e-10
 86.92463     25.1 9.844e+03 4.664e-10
 86.93832     26.4 1.024e+04 5.628e-10
 86.95839     25.4 1.213e+04 8.717e-10
 86.97845     22.4 1.529e+04 1.959e-09
 86.99741     19.5 1.679e+04 4.715e-09
 87.00744     17.9 1.731e+04 6.753e-09
 87.01858     18.7 1.780e+04 1.263e-08
 87.03864     20.5 1.817e+04 1.659e-08
 87.05871     22.1 1.818e+04 1.590e-08
 87.07877     23.5 1.793e+04 1.238e-08
 87.09024     24.4 1.695e+04 7.782e-09
 87.10027     23.0 1.555e+04 5.741e-09
 87.11890     21.6 1.423e+04 3.138e-09
 87.13896     21.2 1.234e+04 1.565e-09
 87.15903     20.2 1.131e+04 1.086e-09
 87.18922     21.8 1.024e+04 6.373e-10
 87.22945     24.5 9.483e+03 3.876e-10
 87.25605     26.9 9.112e+03 2.813e-10
 87.27611     26.7 8.938e+03 2.388e-10
 87.30971     29.5 8.813e+03 2.296e-10
 87.34983     32.7 8.813e+03 2.307e-10
 87.38996     35.8 8.844e+03 2.396e-10
 87.42166     38.9 8.904e+03 2.560e-10
 87.44172     39.1 8.649e+03 1.863e-10
 87.47022     42.3 8.744e+03 1.919e-10
 87.51035     45.4 8.765e+03 1.911e-10
 87.55048     48.4 8.785e+03 1.851e-10
 87.58727     51.4 8.776e+03 1.693e-10
 87.60733     51.6 8.571e+03 1.213e-10
 87.63073     54.5 8.589e+03 1.137e-10
 87.67086     57.4 8.607e+03 1.052e-10
 87.71099     60.2 8.573e+03 9.688e-11
 87.75112     63.0 8.482e+03 9.388e-11
 87.77294     65.9 8.485e+03 9.431e-11
 87.79301     65.9 8.877e+03 1.152e-10
 87.83138     68.4 8.995e+03 1.265e-10
 87.87151     70.9 9.146e+03 1.560e-10
 87.91163     73.7 9.437e+03 2.191e-10
 87.93855     76.5 9.771e+03 3.064e-10
 87.94849     75.3 9.906e+03 4.096e-10
 87.96160     76.6 1.003e+04 4.600e-10
 87.98166     77.7 1.023e+04 5.364e-10
 88.00173     78.8 1.048e+04 6.284e-10
 88.02116     79.8 1.073e+04 7.316e-10
 88.03120     79.5 1.099e+04 8.625e-10
 88.04186     80.5 1.122e+04 9.550e-10
 88.06192     81.4 1.143e+04 1.043e-09
 88.08198     82.3 1.165e+04 1.136e-09
 88.10205     83.3 1.190e+04 1.262e-09
 88.11400     84.0 1.219e+04 1.434e-09
 88.12403     83.7 1.219e+04 1.335e-09
 88.14218     84.5 1.242e+04 1.471e-09
 88.16224     85.4 1.265e+04 1.641e-09
 88.18231     86.4 1.287e+04 1.810e-09
 88.19681     87.3 1.300e+04 1.910e-09
 88.20684     86.8 1.258e+04 1.526e-09
 88.22243     87.9 1.255e+04 1.496e-09
 88.24250     89.0 1.242e+04 1.382e-09
 88.26256     90.1 1.216e+04 1.183e-09
 88.27961     91.2 1.186e+04 9.555e-10
 88.28964     90.7 1.143e+04 8.156e-10
 88.30269     91.8 1.122e+04 6.629e-10
 88.32276     92.7 1.109e+04 5.365e-10
 88.34282     93.7 1.096e+04 4.376e-10
 88.35668     94.7 1.085e+04 3.663e-10
 88.36625     95.3 1.126e+04 5.866e-10
 88.37245     94.5 1.167e+04 6.945e-10
 88.38295     95.6 1.181e+04 6.946e-10
 88.40301     96.6 1.207e+04 7.167e-10
 88.42308     97.5 1.243e+04 7.831e-10
 88.44314     98.5 1.289e+04 9.184e-10
 88.45525     99.7 1.367e+04 1.202e-09
 88.46529     99.3 1.430e+04 2.463e-09
 88.48327    100.9 1.577e+04 3.519e-09
 88.49661    101.9 1.694e+04 3.501e-09
 88.50157    101.3 1.698e+04 3.983e-09
 88.50825    101.3 1.815e+04 4.699e-09
 88.51828    101.0 1.910e+04 6.509e-09
 88.52832    100.9 1.925e+04 1.010e-08
 88.53796    101.3 1.962e+04 1.956e-08
 88.54298    101.4 1.920e+04 2.525e-08
 88.54838    101.5 2.039e+04 5.281e-08
 88.55841    100.5 2.175e+04 1.291e-07
 88.56365     98.4 2.268e+04 2.344e-07
 88.56614     97.9 2.253e+04 2.366e-07
 88.57090     96.4 2.210e+04 3.292e-07
 88.57845     92.5 2.163e+04 6.093e-07
 88.58438     86.4 2.143e+04 6.085e-07
 88.58940     89.5 2.100e+04 3.804e-07
 88.59854     87.0 2.072e+04 2.900e-07
 88.60857     87.2 2.055e+04 1.533e-07
 88.61861     87.3 2.093e+04 5.914e-08
 88.62578     86.5 2.185e+04 1.885e-08
 88.63080     87.3 2.124e+04 2.049e-08
 88.64374     84.3 2.070e+04 5.218e-09
 88.66385     79.5 1.593e+04 2.277e-09
 88.68391     78.4 1.435e+04 1.912e-09
 88.70367     78.9 1.406e+04 1.771e-09
 88.71370     79.7 1.425e+04 1.648e-09
 88.72404     80.2 1.407e+04 1.538e-09
 88.74411     80.7 1.385e+04 1.397e-09
 88.76417     81.1 1.351e+04 1.209e-09
 88.78423     81.2 1.300e+04 9.936e-10
 88.79651     81.1 1.235e+04 7.918e-10
 88.80654     80.9 1.131e+04 6.814e-10
 88.82436     80.7 1.067e+04 5.564e-10
 88.84443     80.3 1.020e+04 4.614e-10
 88.86449     79.7 9.944e+03 3.844e-10
 88.87931     79.0 9.821e+03 3.402e-10
 88.88934     79.2 9.655e+03 3.183e-10
 88.90462     78.5 9.657e+03 3.190e-10
 88.92468     77.8 9.716e+03 3.294e-10
 88.94475     76.9 9.926e+03 3.783e-10
 88.96212     75.5 1.045e+04 4.987e-10
 88.97215     75.6 1.053e+04 5.104e-10
 88.98488     73.8 1.125e+04 7.882e-10
 89.00494     72.2 1.179e+04 1.227e-09
 89.02500     71.6 1.216e+04 1.766e-09
 89.04492     71.6 1.250e+04 2.191e-09
 89.05495     72.2 1.244e+04 2.044e-09
 89.06513     71.6 1.258e+04 2.037e-09
 89.08520     70.9 1.259e+04 1.913e-09
 89.10526     70.0 1.238e+04 1.525e-09
 89.12533     68.8 1.188e+04 1.081e-09
 89.13776     67.0 1.128e+04 7.419e-10
 89.14779     67.2 1.106e+04 6.844e-10
 89.16545     65.1 1.058e+04 5.127e-10
 89.18552     63.0 1.020e+04 4.531e-10
 89.20558     61.6 1.016e+04 4.520e-10
 89.22056     60.4 1.021e+04 4.638e-10
 89.23060     60.7 1.031e+04 4.613e-10
 89.24571     59.3 1.066e+04 5.233e-10
 89.26578     57.6 1.114e+04 6.582e-10
 89.28584     55.8 1.168e+04 8.759e-10
 89.30337     54.3 1.212e+04 1.197e-09
 89.31340     54.5 1.198e+04 1.136e-09
 89.32597     53.4 1.228e+04 1.446e-09
 89.34603     52.5 1.259e+04 1.662e-09
 89.36610     51.4 1.266e+04 1.671e-09
 89.39629     49.9 1.245e+04 1.487e-09
 89.43652     48.7 1.176e+04 1.105e-09
 89.46917     47.8 1.100e+04 7.440e-10
 89.48924     48.5 1.094e+04 7.289e-10
 89.51677     48.0 1.050e+04 5.846e-10
 89.55690     48.2 1.056e+04 5.908e-10
 89.59703     47.7 1.117e+04 7.418e-10
 89.62703     46.4 1.211e+04 1.057e-09
 89.64462     45.4 1.279e+04 1.598e-09
 89.65465     45.4 1.297e+04 1.879e-09
 89.66706     45.7 1.336e+04 2.862e-09
 89.68713     46.8 1.367e+04 3.872e-09
 89.70719     48.1 1.379e+04 4.247e-09
 89.72725     49.3 1.375e+04 4.176e-09
 89.73746     50.4 1.352e+04 3.795e-09
 89.74749     51.3 1.344e+04 3.484e-09
 89.76738     52.3 1.309e+04 2.629e-09
 89.78745     52.5 1.265e+04 1.823e-09
 89.80751     52.2 1.210e+04 1.229e-09
 89.82026     51.5 1.142e+04 8.509e-10
 89.83030     49.1 9.865e+03 4.910e-10
 89.84764     48.7 9.267e+03 4.192e-10
 89.86770     48.8 9.124e+03 4.171e-10
 89.88777     49.3 9.111e+03 4.251e-10
 89.90307     50.0 9.125e+03 4.474e-10
 89.91310     49.9 9.210e+03 4.780e-10
 89.92790     50.6 9.343e+03 5.273e-10
 89.94796     51.3 9.464e+03 5.757e-10
 89.96803     52.0 9.565e+03 6.176e-10
 89.98587     52.6 9.649e+03 6.517e-10
 89.99591     52.8 9.791e+03 6.991e-10
 90.00815     53.4 9.874e+03 7.342e-10
 90.02822     53.9 9.932e+03 7.562e-10
 90.04828     54.3 9.974e+03 7.670e-10
 90.06835     54.6 1.002e+04 7.687e-10
 90.07871     54.8 1.006e+04 7.669e-10
 90.08874     55.6 1.034e+04 9.032e-10
 90.10847     55.9 1.043e+04 9.077e-10
 90.12854     56.1 1.051e+04 9.014e-10
 90.14860     56.3 1.057e+04 8.763e-10
 90.16152     56.4 1.057e+04 8.244e-10
 90.17155     57.2 1.104e+04 1.072e-09
 90.18873     57.3 1.103e+04 9.851e-10
 90.20880     57.4 1.085e+04 8.704e-10
 90.22886     57.5 1.053e+04 7.551e-10
 90.24432     57.7 1.017e+04 6.647e-10
 90.25435     58.5 1.083e+04 8.756e-10
 90.26899     58.8 1.038e+04 7.360e-10
 90.28905     59.2 9.977e+03 6.373e-10
 90.30912     59.7 9.736e+03 5.892e-10
 90.32713     60.3 9.721e+03 5.848e-10
 90.33716     61.0 9.706e+03 5.655e-10
 90.34925     61.6 9.719e+03 5.571e-10
 90.36931     62.3 9.821e+03 5.795e-10
 90.38937     62.8 1.015e+04 6.673e-10
 90.40944     63.1 1.062e+04 8.401e-10
 90.41996     63.5 1.115e+04 1.118e-09
 90.43000     64.0 1.100e+04 8.925e-10
 90.44957     64.2 1.153e+04 1.238e-09
 90.46963     64.4 1.207e+04 1.739e-09
 90.48970     64.8 1.259e+04 2.425e-09
 90.50277     65.6 1.327e+04 3.195e-09
 90.51280     65.2 1.313e+04 3.110e-09
 90.52982     66.1 1.379e+04 3.996e-09
 90.54989     67.1 1.445e+04 5.247e-09
 90.56995     68.4 1.529e+04 5.603e-09
 90.58557     69.7 1.548e+04 5.363e-09
 90.59561     69.2 1.608e+04 6.416e-09
 90.61008     69.8 1.618e+04 5.991e-09
 90.63015     69.6 1.612e+04 4.588e-09
 90.65021     69.0 1.522e+04 2.995e-09
 90.66838     67.9 1.368e+04 1.952e-09
 90.67841     68.0 1.402e+04 2.538e-09
 90.69034     67.0 1.285e+04 2.025e-09
 90.71040     67.0 1.271e+04 2.020e-09
 90.73047     67.1 1.286e+04 2.103e-09
 90.75053     67.4 1.312e+04 2.248e-09
 90.76122     67.6 1.324e+04 2.327e-09
 90.77125     67.2 1.390e+04 3.509e-09
 90.79066     67.8 1.383e+04 3.461e-09
 90.81072     68.4 1.366e+04 3.250e-09
 90.83079     69.0 1.338e+04 2.870e-09
 90.84103     69.5 1.308e+04 2.443e-09
 90.84424     69.5 1.310e+04 2.454e-09
 90.85405     69.5 1.301e+04 2.476e-09
 90.87092     69.7 1.248e+04 1.846e-09
 90.89098     69.6 1.213e+04 1.495e-09
 90.91105     69.4 1.178e+04 1.198e-09
 90.92683     69.1 1.158e+04 1.059e-09
 90.93686     68.7 1.143e+04 9.257e-10
 90.96130     68.4 1.140e+04 9.588e-10
 90.99980     68.4 1.127e+04 9.957e-10
 91.01986     68.0 1.063e+04 7.152e-10
 91.04166     68.3 1.059e+04 7.242e-10
 91.08179     68.7 1.043e+04 6.764e-10
 91.12192     69.1 9.997e+03 5.090e-10
 91.15191     69.1 9.670e+03 4.109e-10
 91.17188     69.1 9.445e+03 3.569e-10
 91.18537     69.3 9.362e+03 3.556e-10
 91.20553     69.2 8.936e+03 2.561e-10
 91.24230     69.9 8.904e+03 2.574e-10
 91.28243     71.1 8.887e+03 2.597e-10
 91.32256     72.4 8.867e+03 2.553e-10
 91.35108     74.0 8.777e+03 2.308e-10
 91.37114     73.9 8.552e+03 1.744e-10
 91.40281     75.4 8.506e+03 1.558e-10
 91.44294     76.9 8.374e+03 1.224e-10
 91.48307     78.3 8.215e+03 8.949e-11
 91.51669     79.6 8.093e+03 7.255e-11
 91.53675     79.4 8.409e+03 8.906e-11
 91.56333     80.9 8.369e+03 8.870e-11
 91.60346     82.6 8.356e+03 9.372e-11
 91.64359     84.3 8.411e+03 1.149e-10
 91.68230     86.2 8.586e+03 1.524e-10
 91.70236     86.3 8.775e+03 2.247e-10
 91.72384     88.4 9.013e+03 2.750e-10
 91.76397     90.3 9.198e+03 2.934e-10
 91.80410     91.9 9.213e+03 2.909e-10
 91.84423     93.3 9.208e+03 2.724e-10
 91.86798     94.6 9.140e+03 2.324e-10
 91.88804     94.6 9.262e+03 2.601e-10
 91.92449     95.7 9.170e+03 2.203e-10
 91.96461     96.9 9.085e+03 1.947e-10
 92.00474     98.2 9.067e+03 1.920e-10
 92.03359     99.8 9.080e+03 1.932e-10
 92.05365     99.8 9.278e+03 2.440e-10
 92.08500    101.4 9.390e+03 2.608e-10
 92.12513    103.0 9.615e+03 2.998e-10
 92.16526    104.7 9.877e+03 3.561e-10
 92.19920    106.1 1.004e+04 4.038e-10
 92.21926    106.0 1.012e+04 4.312e-10
 92.24551    107.7 1.021e+04 4.414e-10
 92.27551    109.0 1.025e+04 4.229e-10
 92.29184    109.9 1.031e+04 4.210e-10
 92.30187    109.6 1.017e+04 3.658e-10
 92.31554    110.5 1.016e+04 3.493e-10
 92.33561    111.1 1.012e+04 3.358e-10
 92.35567    111.8 1.010e+04 3.287e-10
 92.37464    112.4 1.010e+04 3.283e-10
 92.38477    112.0 9.753e+03 2.451e-10
 92.40603    113.4 9.763e+03 2.477e-10
 92.44616    114.9 9.837e+03 2.626e-10
 92.48628    116.3 1.001e+04 2.990e-10
 92.52641    117.6 1.025e+04 3.461e-10
 92.55048    118.8 1.048e+04 3.691e-10
 92.57054    118.4 1.005e+04 2.714e-10
 92.60667    119.6 1.006e+04 2.707e-10
 92.64680    120.9 1.006e+04 2.623e-10
 92.68693    122.3 1.001e+04 2.450e-10
 92.71609    123.9 9.954e+03 2.297e-10
 92.73616    124.0 9.846e+03 2.202e-10
 92.76718    125.9 9.847e+03 2.187e-10
 92.80731    128.0 9.861e+03 2.196e-10
 92.84744    130.2 9.884e+03 2.199e-10
 92.88170    132.5 9.890e+03 2.179e-10
 92.90177    132.7 9.838e+03 2.489e-10
 92.92770    135.0 9.830e+03 2.474e-10
 92.96783    137.3 9.780e+03 2.369e-10
 93.00796    139.7 9.674e+03 2.113e-10
 93.04731    142.2 9.533e+03 1.782e-10
 93.06738    142.6 9.548e+03 2.071e-10
 93.08821    145.2 9.411e+03 1.814e-10
 93.12834    147.9 9.264e+03 1.623e-10
 93.16847    150.7 9.183e+03 1.488e-10
 93.20860    153.5 9.158e+03 1.399e-10
 93.23299    156.2 9.152e+03 1.337e-10
 93.25305    156.9 9.304e+03 1.757e-10
 93.28886    159.7 9.310e+03 1.688e-10
 93.31555    162.4 9.307e+03 1.559e-10
 93.33561    162.3 9.202e+03 1.192e-10
 93.36911    164.9 9.143e+03 1.067e-10
 93.39860    167.4 9.036e+03 9.652e-11
 93.41866    167.9 9.295e+03 1.142e-10
 93.44937    170.4 9.163e+03 9.452e-11
 93.48950    172.9 8.970e+03 8.329e-11
 93.52963    175.5 8.781e+03 8.025e-11
 93.56421    178.3 8.736e+03 8.022e-11
 93.58427    178.6 8.773e+03 7.907e-11
 93.60988    181.4 8.740e+03 7.918e-11
 93.65001    184.3 8.716e+03 8.026e-11
 93.69014    187.3 8.661e+03 8.510e-11
 93.72982    190.2 8.652e+03 9.377e-11
 93.74988    190.6 8.749e+03 9.792e-11
 93.77040    193.6 8.733e+03 1.072e-10
 93.81053    196.6 8.757e+03 1.195e-10
 93.85065    199.5 8.808e+03 1.337e-10
 93.89078    202.4 8.882e+03 1.490e-10
 93.91549    205.3 8.968e+03 1.651e-10
 93.93556    205.9 9.012e+03 1.993e-10
 93.97104    208.8 9.084e+03 2.189e-10
 94.01117    211.7 9.177e+03 2.397e-10
 94.05130    214.7 9.271e+03 2.596e-10
 94.08110    217.5 9.359e+03 2.696e-10
 94.10117    218.4 9.591e+03 3.539e-10
 94.13155    221.1 9.684e+03 3.673e-10
 94.17168    223.9 9.710e+03 3.672e-10
 94.21181    226.6 9.721e+03 3.627e-10
 94.24671    229.2 9.723e+03 3.458e-10
 94.26678    229.9 1.016e+04 4.920e-10
 94.29207    232.4 1.015e+04 4.681e-10
 94.33220    234.7 1.009e+04 4.350e-10
 94.37233    237.0 1.002e+04 3.980e-10
 94.41232    239.2 9.954e+03 3.627e-10
 94.45245    241.9 1.027e+04 4.717e-10
 94.49271    244.0 1.012e+04 4.040e-10
 94.53284    246.2 9.957e+03 3.445e-10
 94.57297    248.4 9.856e+03 3.094e-10
 94.59800    250.9 9.853e+03 3.059e-10
 94.61806    251.6 9.949e+03 3.304e-10
 94.65322    254.2 9.946e+03 3.298e-10
 94.69335    256.8 9.974e+03 3.376e-10
 94.73348    259.3 1.007e+04 3.722e-10
 94.76361    261.2 1.016e+04 4.281e-10
 94.78367    262.7 1.006e+04 3.368e-10
 94.81374    264.7 1.023e+04 3.803e-10
 94.84374    265.5 1.035e+04 4.098e-10
 94.85625    266.7 1.050e+04 4.581e-10
 94.86628    266.9 1.029e+04 4.047e-10
 94.88377    268.6 1.033e+04 4.407e-10
 94.90383    270.2 1.044e+04 5.055e-10
 94.92390    271.5 1.058e+04 5.797e-10
 94.93905    272.6 1.071e+04 6.468e-10
 94.94909    272.0 1.091e+04 4.027e-10
 94.96403    273.4 1.097e+04 4.718e-10
 94.98409    274.8 1.097e+04 5.346e-10
 95.00415    276.2 1.096e+04 5.846e-10
 95.02186    277.4 1.096e+04 6.259e-10
 95.03189    277.8 1.064e+04 5.088e-10
 95.04428    279.0 1.067e+04 5.410e-10
 95.06435    280.3 1.071e+04 5.711e-10
 95.08441    281.7 1.076e+04 6.036e-10
 95.10448    283.0 1.084e+04 6.417e-10
 95.11470    284.4 1.096e+04 6.900e-10
 95.12473    284.7 1.059e+04 5.655e-10
 95.14460    286.0 1.072e+04 6.147e-10
 95.16467    287.4 1.090e+04 6.764e-10
 95.18473    288.6 1.114e+04 7.570e-10
 95.19750    289.7 1.147e+04 8.679e-10
 95.20753    290.2 1.105e+04 7.803e-10
 95.22486    291.3 1.137e+04 9.048e-10
 95.24493    292.4 1.177e+04 1.073e-09
 95.26499    293.4 1.226e+04 1.301e-09
 95.28031    294.5 1.279e+04 1.606e-09
 95.29034    295.3 1.232e+04 1.419e-09
 95.30512    296.4 1.281e+04 1.727e-09
 95.32518    297.6 1.329e+04 2.090e-09
 95.34525    298.8 1.374e+04 2.478e-09
 95.36311    300.0 1.413e+04 2.851e-09
 95.37314    301.0 1.358e+04 2.445e-09
 95.38537    302.2 1.386e+04 2.715e-09
 95.40544    303.6 1.407e+04 2.902e-09
 95.42550    304.9 1.422e+04 3.012e-09
 95.44557    306.2 1.434e+04 3.074e-09
 95.45595    307.6 1.446e+04 3.108e-09
 95.46598    308.5 1.397e+04 2.835e-09
 95.48570    309.8 1.417e+04 2.970e-09
 95.50576    311.1 1.440e+04 3.134e-09
 95.52582    312.4 1.471e+04 3.319e-09
 95.53875    313.6 1.508e+04 3.525e-09
 95.54879    314.5 1.516e+04 4.080e-09
 95.56595    315.5 1.571e+04 4.722e-09
 95.58011    315.7 1.598e+04 4.997e-09
 95.58508    315.7 1.594e+04 5.069e-09
 95.59094    316.1 1.619e+04 5.470e-09
 95.60097    316.5 1.659e+04 6.140e-09
 95.61100    316.9 1.708e+04 7.047e-09
 95.62103    317.3 1.759e+04 8.173e-09
 95.62648    317.8 1.812e+04 9.545e-09
 95.63149    318.2 1.807e+04 1.171e-08
 95.64110    318.7 1.860e+04 1.419e-08
 95.65113    319.2 1.914e+04 1.710e-08
 95.66116    319.3 1.966e+04 2.012e-08
 95.66788    319.4 2.020e+04 2.267e-08
 95.67290    320.1 2.047e+04 3.239e-08
 95.68122    319.9 2.103e+04 3.496e-08
 95.69126    319.1 2.155e+04 3.459e-08
 95.70129    318.0 2.170e+04 3.434e-08
 95.70928    316.7 2.188e+04 3.424e-08
 95.71430    317.4 2.227e+04 4.503e-08
 95.72135    316.3 2.242e+04 4.493e-08
 95.73139    314.3 2.306e+04 4.695e-08
 95.74142    310.9 2.429e+04 5.848e-08
 95.75069    305.7 2.546e+04 8.360e-08
 95.75570    307.7 2.497e+04 9.793e-08
 95.76148    301.4 2.636e+04 1.248e-07
 95.77151    293.9 2.811e+04 1.200e-07
 95.78155    284.5 2.925e+04 1.053e-07
 95.79158    273.7 3.369e+04 5.996e-08
 95.79710    260.6 3.945e+04 2.261e-08
 95.80012    265.3 3.755e+04 3.367e-08
 95.80462    272.3 3.249e+04 1.076e-07
 95.81164    258.0 4.497e+04 2.245e-08
 95.82167    240.2 5.817e+04 3.935e-09
 95.83171    218.5 6.239e+04 9.460e-10
 95.84680    201.9 2.781e+04 2.254e-09
 95.86692    200.8 1.679e+04 2.914e-09
 95.88001    201.2 1.559e+04 2.551e-09
 95.89004    197.4 1.892e+04 6.561e-09
 95.90705    199.5 1.853e+04 4.930e-09
 95.92711    200.9 1.766e+04 3.578e-09
 95.94717    202.1 1.657e+04 2.679e-09
 95.96281    203.5 1.572e+04 2.126e-09
 95.97284    202.4 1.646e+04 5.279e-09
 95.98730    204.4 1.629e+04 4.765e-09
 96.00737    206.5 1.636e+04 4.438e-09
 96.02743    208.6 1.652e+04 4.152e-09
 96.04562    210.4 1.665e+04 3.783e-09
 96.05560    210.8 1.715e+04 5.824e-09
 96.06245    211.6 1.727e+04 5.568e-09
 96.07248    212.3 1.736e+04 5.313e-09
 96.08251    213.0 1.745e+04 5.037e-09
 96.09194    213.7 1.751e+04 4.785e-09
 96.09695    213.9 1.760e+04 7.274e-09
 96.10257    214.4 1.769e+04 6.898e-09
 96.11261    215.0 1.780e+04 6.586e-09
 96.12264    215.4 1.793e+04 6.332e-09
 96.13267    216.0 1.807e+04 6.150e-09
 96.13836    216.5 1.812e+04 6.033e-09
 96.14337    216.9 1.807e+04 8.545e-09
 96.15274    217.4 1.822e+04 8.399e-09
 96.16277    217.9 1.835e+04 8.299e-09
 96.17280    218.4 1.844e+04 8.261e-09
 96.17976    218.8 1.844e+04 8.242e-09
 96.18478    219.4 1.865e+04 1.113e-08
 96.19286    219.6 1.881e+04 1.111e-08
 96.20290    219.9 1.881e+04 1.108e-08
 96.21293    220.0 1.877e+04 1.105e-08
 96.22116    220.1 1.871e+04 1.106e-08
 96.22618    220.3 1.982e+04 1.519e-08
 96.23299    220.3 1.989e+04 1.535e-08
 96.24302    220.1 1.996e+04 1.562e-08
 96.25306    219.8 2.001e+04 1.597e-08
 96.26256    219.3 1.998e+04 1.628e-08
 96.26758    219.5 2.029e+04 1.787e-08
 96.27312    219.1 2.026e+04 1.809e-08
 96.28315    218.7 2.023e+04 1.842e-08
 96.29318    218.2 2.022e+04 1.885e-08
 96.30322    217.6 2.020e+04 1.940e-08
 96.30898    217.0 2.016e+04 2.009e-08
 96.31405    216.8 2.109e+04 1.939e-08
 96.32839    215.8 2.098e+04 1.898e-08
 96.34846    214.6 2.087e+04 1.764e-08
 96.36852    213.4 2.069e+04 1.538e-08
 96.38687    212.2 2.040e+04 1.285e-08
 96.39690    209.5 1.867e+04 6.533e-09
 96.40865    207.7 1.735e+04 5.451e-09
 96.42872    206.2 1.617e+04 4.753e-09
 96.44878    205.1 1.518e+04 4.180e-09
 96.46884    204.7 1.440e+04 3.631e-09
 96.47971    204.7 1.385e+04 3.095e-09
 96.48974    204.4 1.367e+04 2.785e-09
 96.50897    204.4 1.339e+04 2.441e-09
 96.52904    204.2 1.309e+04 2.119e-09
 96.54910    203.8 1.284e+04 1.881e-09
 96.56251    203.3 1.270e+04 1.764e-09
 96.57254    202.9 1.267e+04 1.743e-09
 96.58923    202.3 1.267e+04 1.705e-09
 96.60929    201.6 1.266e+04 1.699e-09
 96.62936    200.8 1.267e+04 1.698e-09
 96.64532    199.8 1.269e+04 1.704e-09
 96.65535    199.0 1.260e+04 1.618e-09
 96.66949    197.6 1.271e+04 1.674e-09
 96.68955    195.9 1.291e+04 1.764e-09
 96.70962    194.1 1.316e+04 1.837e-09
 96.72812    191.9 1.330e+04 1.836e-09
 96.73815    190.8 1.355e+04 1.944e-09
 96.74974    188.1 1.358e+04 1.916e-09
 96.77994    184.8 1.343e+04 1.526e-09
 96.81112    179.9 1.286e+04 9.182e-10
 96.83119    176.1 1.285e+04 1.176e-09
 96.86029    171.4 1.156e+04 6.928e-10
 96.90042    167.9 1.066e+04 5.345e-10
 96.94055    166.0 1.037e+04 4.831e-10
 96.97673    164.9 1.026e+04 4.366e-10
 96.99680    163.0 1.013e+04 3.783e-10
 97.02081    161.9 9.837e+03 2.821e-10
 97.06094    160.8 9.651e+03 2.488e-10
 97.10106    159.8 9.648e+03 2.499e-10
 97.14119    158.9 9.723e+03 2.624e-10
 97.16241    158.0 9.885e+03 2.920e-10
 97.18247    155.8 9.760e+03 2.848e-10
 97.21132    155.8 9.849e+03 3.186e-10
 97.23129    155.8 9.908e+03 3.791e-10
 97.24502    155.4 1.019e+04 4.960e-10
 97.25505    153.6 1.082e+04 5.786e-10
 97.27142    150.0 1.336e+04 1.119e-09
 97.29148    144.8 1.607e+04 2.499e-09
 97.31154    140.9 1.733e+04 4.331e-09
 97.32654    137.7 1.813e+04 6.664e-09
 97.33274    136.0 1.841e+04 8.660e-09
 97.33781    135.1 1.764e+04 7.779e-09
 97.35167    132.6 1.842e+04 7.792e-09
 97.37174    129.3 1.863e+04 6.863e-09
 97.39180    124.9 1.880e+04 4.245e-09
 97.41063    118.9 1.757e+04 1.908e-09
 97.42066    111.6 1.291e+04 6.688e-10
 97.43193    107.3 1.145e+04 6.073e-10
 97.45199    105.3 1.148e+04 6.239e-10
 97.47206    103.5 1.196e+04 7.497e-10
 97.49212    101.3 1.321e+04 1.198e-09
 97.50347     99.3 1.454e+04 2.194e-09
 97.51350     99.9 1.331e+04 1.479e-09
 97.53225     98.4 1.428e+04 2.344e-09
 97.55231     97.4 1.506e+04 3.454e-09
 97.57238     96.8 1.558e+04 4.398e-09
 97.58627     96.2 1.576e+04 4.598e-09
 97.59630     95.7 1.479e+04 3.157e-09
 97.61251     95.0 1.478e+04 3.163e-09
 97.63257     94.2 1.463e+04 3.021e-09
 97.65264     93.4 1.431e+04 2.695e-09
 97.66908     92.6 1.389e+04 2.341e-09
 97.67911     92.2 1.359e+04 2.136e-09
 97.69276     91.4 1.333e+04 1.974e-09
 97.71283     91.0 1.309e+04 1.862e-09
 97.73289     90.6 1.294e+04 1.771e-09
 97.75188     90.5 1.284e+04 1.720e-09
 97.76191     90.6 1.283e+04 1.712e-09
 97.78315     91.1 1.281e+04 1.688e-09
 97.81325     90.6 1.263e+04 1.586e-09
 97.83321     90.4 1.232e+04 1.416e-09
 97.84472     90.4 1.190e+04 1.200e-09
 97.85475     90.4 1.161e+04 1.070e-09
 97.87334     90.6 1.118e+04 8.718e-10
 97.89341     90.8 1.080e+04 7.231e-10
 97.91347     91.0 1.055e+04 6.448e-10
 97.92752     91.2 1.050e+04 6.364e-10
 97.93756     91.2 1.020e+04 5.366e-10
 97.95360     91.6 1.021e+04 5.388e-10
 97.97366     92.0 1.030e+04 5.619e-10
 97.99373     92.2 1.057e+04 6.369e-10
 98.01033     92.1 1.101e+04 7.769e-10
 98.02036     92.4 1.051e+04 6.173e-10
 98.03386     92.4 1.098e+04 7.745e-10
 98.05392     92.2 1.159e+04 1.015e-09
 98.07399     91.9 1.225e+04 1.357e-09
 98.09313     91.5 1.288e+04 1.794e-09
 98.10317     92.2 1.218e+04 1.318e-09
 98.11411     91.7 1.271e+04 1.674e-09
 98.13418     91.0 1.316e+04 2.044e-09
 98.15424     90.1 1.354e+04 2.407e-09
 98.17431     89.0 1.385e+04 2.741e-09
 98.18597     87.8 1.406e+04 3.014e-09
 98.19600     87.8 1.389e+04 2.790e-09
 98.21444     86.6 1.411e+04 3.156e-09
 98.23450     85.6 1.395e+04 3.058e-09
 98.25456     84.7 1.360e+04 2.709e-09
 98.26878     83.7 1.313e+04 2.104e-09
 98.27821     83.6 1.323e+04 2.118e-09
 98.28406     80.9 1.252e+04 1.458e-09
 98.29469     78.4 1.172e+04 9.234e-10
 98.31476     75.4 1.063e+04 5.665e-10
 98.33482     72.4 9.616e+03 3.820e-10
 98.35158     70.5 8.982e+03 3.026e-10
 98.36161     69.8 9.081e+03 3.144e-10
 98.37495     68.9 9.118e+03 3.184e-10
 98.39501     68.5 9.121e+03 3.216e-10
 98.41508     67.9 9.189e+03 3.391e-10
 98.43439     67.4 9.218e+03 3.591e-10
 98.44442     66.9 9.326e+03 4.027e-10
 98.45521     66.4 9.436e+03 4.526e-10
 98.47527     66.0 9.582e+03 5.117e-10
 98.49533     65.8 9.696e+03 5.511e-10
 98.51540     65.6 9.728e+03 5.556e-10
 98.52722     65.4 9.731e+03 5.435e-10
 98.53726     64.7 1.003e+04 6.490e-10
 98.55553     64.5 9.885e+03 5.753e-10
 98.57559     64.0 9.770e+03 4.973e-10
 98.59566     63.5 9.623e+03 4.486e-10
 98.62585     62.7 9.917e+03 5.026e-10
 98.66608     62.1 1.009e+04 5.346e-10
 98.69303     61.8 1.042e+04 6.448e-10
 98.71309     60.6 1.141e+04 1.029e-09
 98.74633     60.2 1.199e+04 1.431e-09
 98.77574     60.3 1.205e+04 1.493e-09
 98.78567     59.5 1.260e+04 1.871e-09
 98.79630     58.8 1.325e+04 2.481e-09
 98.81636     58.1 1.378e+04 3.150e-09
 98.83643     57.4 1.415e+04 3.587e-09
 98.85649     56.6 1.437e+04 3.754e-09
 98.86848     55.6 1.439e+04 3.683e-09
 98.87851     54.3 1.483e+04 3.976e-09
 98.89662     53.0 1.454e+04 3.585e-09
 98.91668     51.6 1.419e+04 3.213e-09
 98.93675     50.5 1.369e+04 2.702e-09
 98.95128     49.9 1.307e+04 2.179e-09
 98.96131     48.0 1.261e+04 1.761e-09
 98.98701     48.5 1.222e+04 1.442e-09
 99.02425     47.9 1.147e+04 9.979e-10
 99.04431     45.4 1.079e+04 6.859e-10
 99.05723     45.7 1.063e+04 6.079e-10
 99.07720     45.7 1.039e+04 5.128e-10
 99.09726     45.6 1.008e+04 4.097e-10
 99.11689     45.4 9.847e+03 3.496e-10
 99.12692     44.5 9.768e+03 3.361e-10
 99.14752     45.8 9.616e+03 2.956e-10
 99.18775     46.8 9.254e+03 2.291e-10
 99.20992     48.1 8.965e+03 1.746e-10
 99.22999     47.0 8.910e+03 1.563e-10
 99.26800     48.3 8.747e+03 1.190e-10
 99.30813     49.5 8.672e+03 9.563e-11
 99.34826     50.8 8.646e+03 8.622e-11
 99.37553     52.0 8.676e+03 8.940e-11
 99.39560     50.9 8.751e+03 1.045e-10
 99.42852     52.3 8.851e+03 1.197e-10
 99.46865     53.7 8.961e+03 1.390e-10
 99.50878     55.1 9.058e+03 1.556e-10
 99.54114     56.2 9.194e+03 1.594e-10
 99.56121     54.9 9.241e+03 1.598e-10
 99.58903     55.5 9.353e+03 1.589e-10
 99.62916     56.2 9.485e+03 1.668e-10
 99.66929     56.9 9.622e+03 1.836e-10
 99.70675     57.8 9.761e+03 2.091e-10
 99.72682     56.7 1.007e+04 2.795e-10
 99.74955     57.8 1.022e+04 3.180e-10
 99.78967     59.0 1.036e+04 3.504e-10
 99.82980     60.2 1.049e+04 3.753e-10
 99.86993     61.5 1.063e+04 3.979e-10
 99.89243     62.5 1.070e+04 3.976e-10
 99.91249     61.6 1.071e+04 4.072e-10
 99.94006     62.4 1.070e+04 4.078e-10
 99.96003     62.9 1.075e+04 4.164e-10
 99.97504     63.0 1.086e+04 4.502e-10
 99.98507     62.5 1.086e+04 4.488e-10
100.00015     62.6 1.096e+04 5.014e-10
