# Columns:
#   distance along LOS (in CHIMPs)
#   peculiar velocity  (in km/s)
#   temperature (K)
#   HI number density
# pos=(225.093,217.809,49.1452), angles=(1.65884,1.39719)
  0.01544   -134.4 1.079e+04 5.188e-10
  0.05078   -133.5 1.097e+04 5.822e-10
  0.09059   -132.6 1.122e+04 6.726e-10
  0.12693   -131.8 1.144e+04 7.411e-10
  0.14683   -130.3 1.153e+04 8.130e-10
  0.17022   -129.7 1.181e+04 9.146e-10
  0.21003   -129.2 1.189e+04 9.339e-10
  0.24421   -128.8 1.196e+04 8.857e-10
  0.26412   -128.7 1.194e+04 7.920e-10
  0.28966   -128.0 1.197e+04 7.305e-10
  0.32947   -127.4 1.201e+04 7.209e-10
  0.35988   -127.1 1.235e+04 8.111e-10
  0.37978   -125.6 1.289e+04 1.120e-09
  0.39904   -126.5 1.309e+04 1.211e-09
  0.41885   -126.8 1.338e+04 1.504e-09
  0.43876   -127.2 1.374e+04 1.953e-09
  0.45867   -127.8 1.414e+04 2.449e-09
  0.47452   -128.8 1.454e+04 2.848e-09
  0.48205   -129.4 1.534e+04 2.936e-09
  0.48611   -131.1 1.713e+04 6.988e-09
  0.49848   -133.6 1.813e+04 9.438e-09
  0.51838   -136.1 1.845e+04 1.147e-08
  0.53829   -138.0 1.828e+04 1.236e-08
  0.55317   -138.7 1.792e+04 1.126e-08
  0.56308   -139.3 1.780e+04 1.166e-08
  0.57303   -139.9 1.764e+04 1.182e-08
  0.58298   -140.2 1.755e+04 1.196e-08
  0.58967   -140.6 1.702e+04 1.221e-08
  0.59424   -140.5 1.736e+04 1.419e-08
  0.59751   -140.5 1.698e+04 1.250e-08
  0.60289   -141.0 1.655e+04 1.018e-08
  0.61284   -141.7 1.594e+04 8.085e-09
  0.62280   -142.2 1.538e+04 6.680e-09
  0.63777   -142.5 1.492e+04 5.609e-09
  0.65773   -142.7 1.408e+04 3.669e-09
  0.67764   -143.1 1.296e+04 2.028e-09
  0.69506   -143.7 1.196e+04 1.126e-09
  0.70502   -144.5 1.146e+04 7.168e-10
  0.70910   -144.9 1.090e+04 4.484e-10
  0.71906   -145.2 1.101e+04 4.572e-10
  0.73736   -145.1 1.067e+04 3.413e-10
  0.76731   -145.0 1.042e+04 2.782e-10
  0.80587   -144.4 1.023e+04 2.498e-10
  0.82577   -144.3 1.034e+04 3.160e-10
  0.84704   -143.2 1.008e+04 2.808e-10
  0.88685   -142.1 9.859e+03 2.571e-10
  0.92666   -141.1 9.691e+03 2.352e-10
  0.96647   -140.0 9.558e+03 2.118e-10
  1.00629   -138.9 9.436e+03 1.856e-10
  1.03882   -137.6 9.329e+03 1.606e-10
  1.05872   -137.0 9.288e+03 1.617e-10
  1.08591   -135.7 9.237e+03 1.500e-10
  1.12573   -134.4 9.229e+03 1.474e-10
  1.14630   -133.1 9.251e+03 1.500e-10
  1.16621   -133.0 9.266e+03 1.600e-10
  1.20535   -132.0 9.412e+03 1.881e-10
  1.24516   -131.0 9.549e+03 2.253e-10
  1.27177   -130.2 9.646e+03 2.551e-10
  1.29167   -129.7 9.645e+03 2.519e-10
  1.32479   -129.0 9.659e+03 2.572e-10
  1.36460   -128.1 9.601e+03 2.536e-10
  1.40442   -126.9 9.440e+03 2.179e-10
  1.44423   -125.6 9.300e+03 1.703e-10
  1.48404   -124.2 9.195e+03 1.304e-10
  1.50471   -122.9 9.128e+03 1.008e-10
  1.52462   -122.4 9.130e+03 1.059e-10
  1.56367   -121.0 9.089e+03 8.796e-11
  1.58739   -119.6 9.082e+03 7.815e-11
  1.60730   -119.5 9.069e+03 7.789e-11
  1.64329   -118.0 9.088e+03 7.605e-11
  1.68311   -116.7 9.113e+03 7.590e-11
  1.71776   -115.7 9.374e+03 8.300e-11
  1.73766   -115.2 9.409e+03 1.021e-10
  1.76273   -114.3 9.551e+03 1.330e-10
  1.80254   -113.4 9.686e+03 1.792e-10
  1.84236   -112.4 9.840e+03 2.351e-10
  1.88217   -111.4 9.989e+03 2.893e-10
  1.92198   -110.3 1.009e+04 3.270e-10
  1.95070   -109.1 1.013e+04 3.397e-10
  1.97061   -108.8 1.025e+04 3.840e-10
  2.00161   -107.5 1.025e+04 3.891e-10
  2.02848   -106.0 1.015e+04 3.743e-10
  2.04839   -106.9 1.010e+04 3.572e-10
  2.08123   -105.3 1.004e+04 3.068e-10
  2.12105   -103.5 1.003e+04 2.728e-10
  2.16086   -101.7 1.006e+04 2.612e-10
  2.18365   -100.0 1.014e+04 2.608e-10
  2.20356    -99.3 9.973e+03 2.422e-10
  2.24049    -97.5 1.015e+04 2.502e-10
  2.28030    -95.9 1.039e+04 3.101e-10
  2.32011    -94.4 1.055e+04 4.018e-10
  2.35992    -92.9 1.066e+04 4.857e-10
  2.39670    -91.6 1.068e+04 5.239e-10
  2.41660    -90.7 1.084e+04 5.648e-10
  2.43955    -89.5 1.084e+04 6.174e-10
  2.46957    -88.2 1.081e+04 6.254e-10
  2.48948    -89.5 1.083e+04 5.909e-10
  2.51918    -88.3 1.076e+04 5.856e-10
  2.55899    -86.9 1.060e+04 5.390e-10
  2.59880    -85.5 1.041e+04 4.624e-10
  2.62964    -83.9 1.020e+04 3.823e-10
  2.64955    -83.4 1.065e+04 5.831e-10
  2.67843    -81.8 1.036e+04 4.541e-10
  2.71824    -80.1 1.012e+04 3.656e-10
  2.75805    -78.3 9.916e+03 3.125e-10
  2.79787    -76.4 9.751e+03 2.780e-10
  2.83768    -74.3 9.616e+03 2.500e-10
  2.86259    -72.2 9.483e+03 2.222e-10
  2.88250    -71.5 9.608e+03 2.746e-10
  2.91066    -69.2 9.444e+03 2.339e-10
  2.93057    -69.3 9.354e+03 1.602e-10
  2.95712    -67.1 9.323e+03 1.277e-10
  2.99693    -64.9 9.330e+03 1.014e-10
  3.03674    -63.0 9.326e+03 8.279e-11
  3.07563    -61.1 9.292e+03 7.128e-11
  3.09554    -59.9 9.299e+03 7.263e-11
  3.11637    -57.9 9.238e+03 6.728e-11
  3.15618    -55.9 9.221e+03 6.619e-11
  3.19599    -54.1 9.271e+03 6.644e-11
  3.23581    -52.6 9.526e+03 8.381e-11
  3.27562    -50.9 9.558e+03 1.335e-10
  3.30858    -49.0 9.601e+03 2.051e-10
  3.32849    -47.1 9.531e+03 1.509e-10
  3.35175    -45.1 9.654e+03 2.203e-10
  3.37166    -45.6 9.825e+03 3.004e-10
  3.39506    -43.8 1.006e+04 4.046e-10
  3.43487    -42.2 1.021e+04 5.088e-10
  3.47468    -41.0 1.032e+04 5.557e-10
  3.51450    -40.4 1.046e+04 5.610e-10
  3.54153    -40.1 1.063e+04 5.583e-10
  3.56144    -37.8 1.119e+04 8.606e-10
  3.58216    -38.8 1.129e+04 7.779e-10
  3.59201    -39.0 1.113e+04 7.469e-10
  3.60388    -39.5 1.111e+04 7.437e-10
  3.62379    -41.3 1.062e+04 7.149e-10
  3.64369    -42.0 1.037e+04 7.126e-10
  3.65781    -42.7 1.029e+04 7.058e-10
  3.66776    -42.3 1.078e+04 9.793e-10
  3.68351    -42.7 1.083e+04 9.124e-10
  3.70341    -43.2 1.089e+04 7.851e-10
  3.72332    -43.6 1.080e+04 6.566e-10
  3.74323    -43.8 1.064e+04 5.371e-10
  3.76313    -43.7 1.051e+04 4.268e-10
  3.77438    -43.8 1.042e+04 3.337e-10
  3.78434    -43.7 1.052e+04 3.521e-10
  3.80260    -43.7 1.048e+04 3.031e-10
  3.81256    -44.5 1.013e+04 4.085e-10
  3.82285    -44.4 1.015e+04 3.774e-10
  3.84276    -44.3 1.016e+04 3.674e-10
  3.86266    -44.2 1.017e+04 3.514e-10
  3.88081    -44.2 1.019e+04 3.524e-10
  3.89076    -44.3 1.026e+04 3.600e-10
  3.90248    -44.4 1.039e+04 4.159e-10
  3.92238    -44.4 1.068e+04 5.512e-10
  3.94229    -44.0 1.112e+04 7.390e-10
  3.96220    -43.3 1.173e+04 1.002e-09
  3.98210    -42.5 1.245e+04 1.351e-09
  3.99728    -41.7 1.321e+04 1.785e-09
  4.00723    -42.2 1.343e+04 2.727e-09
  4.02192    -42.2 1.470e+04 3.536e-09
  4.03310    -45.6 1.870e+04 5.636e-09
  4.04305    -49.0 1.879e+04 4.824e-09
  4.06173    -53.7 2.152e+04 1.227e-08
  4.07661    -54.9 2.291e+04 2.673e-08
  4.08651    -55.6 2.428e+04 4.027e-08
  4.09647    -56.9 2.546e+04 5.147e-08
  4.10642    -58.9 2.586e+04 5.387e-08
  4.11366    -60.7 2.699e+04 4.273e-08
  4.11863    -61.2 2.611e+04 2.559e-08
  4.12633    -63.3 2.565e+04 1.391e-08
  4.14131    -68.3 2.119e+04 5.319e-09
  4.16126    -73.7 1.636e+04 1.820e-09
  4.18117    -77.2 1.302e+04 8.911e-10
  4.20107    -77.4 1.243e+04 7.430e-10
  4.22028    -76.9 1.232e+04 6.747e-10
  4.23023    -76.5 1.223e+04 6.403e-10
  4.24089    -75.7 1.218e+04 5.460e-10
  4.25365    -75.1 1.215e+04 4.545e-10
  4.26360    -74.9 1.205e+04 6.842e-10
  4.28070    -74.6 1.202e+04 5.653e-10
  4.30061    -74.4 1.193e+04 4.609e-10
  4.32051    -74.0 1.187e+04 3.989e-10
  4.35047    -73.9 1.189e+04 3.635e-10
  4.39038    -73.9 1.176e+04 2.957e-10
  4.43019    -73.3 1.162e+04 2.444e-10
  4.45342    -72.4 1.161e+04 2.339e-10
  4.47333    -72.0 1.167e+04 2.404e-10
  4.50982    -71.3 1.187e+04 2.455e-10
  4.54963    -70.8 1.238e+04 3.270e-10
  4.58944    -70.4 1.259e+04 4.890e-10
  4.61921    -70.1 1.271e+04 6.612e-10
  4.63901    -69.5 1.273e+04 7.309e-10
  4.66636    -69.3 1.268e+04 7.862e-10
  4.68637    -69.0 1.271e+04 9.060e-10
  4.69493    -68.0 1.274e+04 9.782e-10
  4.71484    -69.5 1.286e+04 1.262e-09
  4.74870    -68.7 1.275e+04 1.179e-09
  4.78851    -67.8 1.267e+04 1.133e-09
  4.81827    -67.0 1.230e+04 1.177e-09
  4.83808    -66.2 1.250e+04 1.387e-09
  4.85799    -65.7 1.283e+04 1.566e-09
  4.87789    -65.3 1.304e+04 1.676e-09
  4.89931    -65.3 1.310e+04 1.666e-09
  4.91932    -65.6 1.343e+04 1.871e-09
  4.94776    -65.4 1.318e+04 1.723e-09
  4.98757    -65.4 1.285e+04 1.427e-09
  5.02739    -65.3 1.243e+04 1.061e-09
  5.06720    -65.1 1.198e+04 7.469e-10
  5.10701    -64.5 1.156e+04 5.374e-10
  5.13236    -63.5 1.128e+04 4.111e-10
  5.14147    -63.5 1.128e+04 4.192e-10
  5.15593    -64.0 1.114e+04 3.604e-10
  5.18664    -62.4 1.100e+04 2.795e-10
  5.22645    -60.7 1.093e+04 2.227e-10
  5.26626    -59.2 1.096e+04 1.912e-10
  5.30608    -57.7 1.099e+04 1.833e-10
  5.34540    -56.5 1.110e+04 1.852e-10
  5.36531    -56.8 1.120e+04 2.466e-10
  5.38570    -56.0 1.141e+04 3.925e-10
  5.42551    -55.0 1.169e+04 6.517e-10
  5.46533    -53.9 1.200e+04 9.321e-10
  5.50514    -53.2 1.215e+04 1.027e-09
  5.54495    -52.7 1.211e+04 1.031e-09
  5.57711    -51.9 1.187e+04 8.755e-10
  5.59061    -51.7 1.161e+04 6.584e-10
  5.59826    -52.1 1.154e+04 5.870e-10
  5.62458    -51.4 1.138e+04 4.660e-10
  5.66439    -50.5 1.127e+04 3.809e-10
  5.70420    -49.2 1.118e+04 3.236e-10
  5.74402    -47.8 1.107e+04 2.716e-10
  5.78383    -46.1 1.093e+04 2.229e-10
  5.81130    -44.4 1.078e+04 1.787e-10
  5.83120    -44.5 1.079e+04 1.774e-10
  5.86345    -42.6 1.067e+04 1.394e-10
  5.90327    -40.7 1.060e+04 1.099e-10
  5.94308    -38.7 1.054e+04 8.846e-11
  5.98289    -36.8 1.043e+04 7.357e-11
  6.01820    -35.0 1.026e+04 6.314e-11
  6.03811    -34.7 1.031e+04 6.643e-11
  6.04425    -32.8 1.016e+04 5.991e-11
  6.06415    -32.7 1.015e+04 5.949e-11
  6.10233    -30.7 1.004e+04 5.408e-11
  6.14214    -28.8 9.948e+03 5.042e-11
  6.18196    -26.8 9.868e+03 4.800e-11
  6.22177    -24.9 9.809e+03 4.619e-11
  6.25729    -23.0 9.768e+03 4.540e-11
  6.27720    -22.9 9.811e+03 4.403e-11
  6.30140    -21.0 9.749e+03 4.538e-11
  6.34121    -19.2 9.645e+03 4.902e-11
  6.38102    -17.2 9.552e+03 5.283e-11
  6.42083    -15.1 9.514e+03 5.415e-11
  6.45930    -12.9 9.432e+03 5.363e-11
  6.47920    -12.5 9.493e+03 5.490e-11
  6.49024    -10.1 9.397e+03 4.985e-11
  6.51014     -9.8 9.403e+03 4.898e-11
  6.54027     -7.4 9.448e+03 3.868e-11
  6.58009     -5.5 9.537e+03 2.960e-11
  6.61990     -3.8 9.589e+03 2.470e-11
  6.65971     -2.2 9.605e+03 2.347e-11
  6.69952     -0.6 9.549e+03 2.670e-11
  6.72319      1.0 9.410e+03 3.473e-11
  6.74309      1.2 9.474e+03 3.174e-11
  6.77915      3.2 9.408e+03 4.088e-11
  6.81896      5.3 9.401e+03 4.840e-11
  6.85878      7.4 9.362e+03 5.228e-11
  6.89859      9.2 9.340e+03 5.180e-11
  6.92029     10.7 9.443e+03 5.101e-11
  6.93803     11.3 9.458e+03 4.979e-11
  6.95613     11.4 9.470e+03 5.460e-11
  6.97821     11.9 9.650e+03 6.897e-11
  7.01803     12.1 9.825e+03 1.268e-10
  7.05784     12.4 1.022e+04 2.658e-10
  7.09765     14.1 1.014e+04 5.329e-10
  7.13747     14.8 1.018e+04 5.423e-10
  7.16918     15.7 1.011e+04 3.597e-10
  7.18908     15.5 1.031e+04 3.928e-10
  7.21709     15.0 1.004e+04 2.502e-10
  7.25690     14.8 9.632e+03 1.806e-10
  7.29672     15.1 9.425e+03 1.391e-10
  7.33653     16.1 9.214e+03 1.238e-10
  7.36138     17.6 9.142e+03 1.048e-10
  7.38129     18.0 9.132e+03 9.987e-11
  7.40213     19.7 9.284e+03 7.163e-11
  7.42203     19.6 9.449e+03 6.877e-11
  7.45597     20.3 9.467e+03 5.395e-11
  7.49578     21.3 9.449e+03 5.674e-11
  7.53559     21.5 9.588e+03 7.753e-11
  7.57541     21.5 9.844e+03 1.539e-10
  7.61517     22.0 1.004e+04 3.930e-10
  7.65498     23.7 1.046e+04 6.924e-10
  7.69485     24.3 1.089e+04 6.859e-10
  7.73466     23.9 1.122e+04 5.364e-10
  7.77447     22.1 1.137e+04 5.123e-10
  7.80247     20.4 1.127e+04 6.445e-10
  7.82238     21.9 1.125e+04 7.677e-10
  7.84812     21.6 1.152e+04 6.678e-10
  7.86802     22.0 1.203e+04 1.020e-09
  7.89391     21.5 1.229e+04 8.087e-10
  7.93372     20.7 1.236e+04 7.345e-10
  7.97354     19.8 1.226e+04 7.963e-10
  8.01335     19.3 1.204e+04 1.023e-09
  8.05316     19.7 1.169e+04 1.106e-09
  8.08106     21.1 1.121e+04 8.654e-10
  8.10097     21.0 1.107e+04 5.761e-10
  8.13279     21.8 1.066e+04 3.358e-10
  8.17260     22.0 1.055e+04 1.979e-10
  8.21241     22.0 1.041e+04 1.614e-10
  8.24356     22.2 1.025e+04 1.838e-10
  8.26347     23.5 1.051e+04 1.974e-10
  8.29204     23.5 1.029e+04 2.828e-10
  8.31401     24.9 1.002e+04 4.081e-10
  8.33392     24.8 9.996e+03 3.733e-10
  8.37166     26.3 1.001e+04 3.773e-10
  8.41148     27.5 1.009e+04 3.045e-10
  8.45129     27.4 1.005e+04 2.645e-10
  8.49110     27.2 1.004e+04 2.943e-10
  8.52706     27.6 9.982e+03 3.470e-10
  8.54696     27.4 9.927e+03 3.237e-10
  8.57073     28.8 9.799e+03 2.808e-10
  8.61054     30.0 9.811e+03 1.844e-10
  8.65035     30.2 9.911e+03 1.145e-10
  8.68465     30.3 9.745e+03 8.626e-11
  8.70456     29.8 9.543e+03 8.245e-11
  8.72998     30.7 9.387e+03 8.242e-11
  8.76000     31.8 9.420e+03 9.170e-11
  8.77991     31.7 9.512e+03 1.012e-10
  8.80961     32.6 9.550e+03 1.250e-10
  8.84942     33.9 9.558e+03 1.547e-10
  8.88923     35.2 9.617e+03 1.750e-10
  8.92904     36.4 9.768e+03 1.784e-10
  8.96886     37.3 9.886e+03 1.784e-10
  8.99295     38.0 1.000e+04 1.837e-10
  9.01286     37.6 1.005e+04 1.781e-10
  9.04848     38.3 1.011e+04 1.849e-10
  9.08830     39.1 1.003e+04 1.889e-10
  9.12575     39.9 9.951e+03 1.842e-10
  9.14565     40.6 1.002e+04 2.043e-10
  9.16792     41.3 9.988e+03 2.013e-10
  9.20599     41.9 9.975e+03 1.979e-10
  9.22590     41.9 9.959e+03 1.863e-10
  9.24755     42.4 1.001e+04 1.978e-10
  9.28736     42.9 1.008e+04 2.266e-10
  9.32717     43.7 1.011e+04 2.597e-10
  9.36699     44.6 1.011e+04 2.660e-10
  9.40680     45.4 1.011e+04 2.528e-10
  9.43894     46.2 1.013e+04 2.256e-10
  9.45885     46.6 1.026e+04 3.025e-10
  9.48642     47.2 1.035e+04 2.573e-10
  9.52624     47.6 1.045e+04 2.321e-10
  9.56605     47.8 1.050e+04 2.387e-10
  9.58674     48.2 1.056e+04 2.706e-10
  9.60665     48.8 1.068e+04 3.087e-10
  9.64568     49.6 1.085e+04 3.431e-10
  9.67189     50.4 1.090e+04 3.431e-10
  9.69180     50.5 1.104e+04 3.755e-10
  9.72530     51.4 1.109e+04 3.405e-10
  9.76511     52.1 1.119e+04 2.771e-10
  9.80493     52.6 1.125e+04 2.692e-10
  9.84474     52.9 1.125e+04 2.986e-10
  9.88455     53.6 1.125e+04 3.707e-10
  9.90484     54.4 1.123e+04 3.975e-10
  9.92475     54.4 1.132e+04 4.707e-10
  9.96418     55.3 1.125e+04 4.394e-10
 10.00399     56.2 1.111e+04 3.520e-10
 10.02783     56.9 1.098e+04 2.671e-10
 10.04774     56.8 1.090e+04 2.163e-10
 10.08362     57.2 1.084e+04 1.905e-10
 10.11788     57.6 1.077e+04 1.798e-10
 10.13779     57.6 1.077e+04 1.817e-10
 10.16324     58.2 1.071e+04 1.827e-10
 10.20306     58.9 1.071e+04 1.830e-10
 10.24287     59.4 1.076e+04 1.831e-10
 10.28268     59.9 1.086e+04 1.881e-10
 10.32249     60.2 1.101e+04 1.969e-10
 10.35083     60.0 1.122e+04 2.205e-10
 10.37074     60.4 1.108e+04 1.923e-10
 10.40212     59.9 1.138e+04 2.383e-10
 10.44193     59.2 1.165e+04 3.603e-10
 10.46892     58.5 1.190e+04 5.774e-10
 10.48883     57.0 1.228e+04 9.066e-10
 10.52156     57.0 1.222e+04 8.967e-10
 10.56137     57.1 1.199e+04 7.463e-10
 10.58378     56.9 1.179e+04 5.613e-10
 10.60369     57.4 1.180e+04 6.383e-10
 10.64100     57.2 1.180e+04 5.039e-10
 10.68081     57.1 1.187e+04 4.343e-10
 10.72062     56.7 1.190e+04 4.405e-10
 10.76044     56.1 1.193e+04 5.445e-10
 10.79682     55.7 1.196e+04 8.838e-10
 10.81673     55.8 1.190e+04 6.334e-10
 10.84006     55.7 1.197e+04 1.009e-09
 10.87987     55.5 1.221e+04 1.311e-09
 10.91001     54.6 1.246e+04 1.399e-09
 10.92992     53.9 1.246e+04 1.137e-09
 10.95950     52.8 1.231e+04 1.077e-09
 10.99931     52.2 1.206e+04 8.989e-10
 11.02977     52.3 1.183e+04 6.520e-10
 11.04968     52.8 1.188e+04 8.654e-10
 11.07894     53.2 1.175e+04 6.133e-10
 11.11875     53.6 1.156e+04 3.875e-10
 11.15856     54.1 1.134e+04 2.410e-10
 11.19838     54.6 1.119e+04 1.659e-10
 11.23819     55.5 1.107e+04 1.334e-10
 11.26272     56.7 1.096e+04 1.205e-10
 11.28263     57.4 1.118e+04 1.035e-10
 11.31782     58.9 1.103e+04 9.398e-11
 11.35111     60.6 1.093e+04 8.718e-11
 11.37101     61.2 1.068e+04 8.632e-11
 11.39744     63.2 1.076e+04 8.179e-11
 11.43725     65.1 1.088e+04 7.460e-11
 11.47576     66.9 1.098e+04 6.668e-11
 11.49567     67.3 1.093e+04 5.702e-11
 11.51688     69.1 1.096e+04 5.364e-11
 11.55669     70.7 1.096e+04 5.442e-11
 11.59651     72.0 1.088e+04 6.289e-11
 11.63632     73.2 1.084e+04 8.988e-11
 11.67613     74.5 1.086e+04 1.404e-10
 11.70871     75.9 1.092e+04 2.062e-10
 11.72862     76.3 1.088e+04 2.110e-10
 11.75576     77.3 1.102e+04 2.465e-10
 11.79220     77.9 1.111e+04 2.415e-10
 11.81210     78.3 1.130e+04 2.895e-10
 11.83538     78.6 1.129e+04 2.822e-10
 11.87520     78.7 1.124e+04 2.671e-10
 11.91501     78.9 1.122e+04 2.629e-10
 11.94166     79.2 1.128e+04 2.642e-10
 11.96157     80.0 1.116e+04 2.068e-10
 11.99463     80.4 1.125e+04 2.167e-10
 12.03445     80.9 1.132e+04 2.260e-10
 12.07426     81.5 1.135e+04 2.376e-10
 12.11407     82.1 1.139e+04 2.535e-10
 12.15389     82.8 1.135e+04 3.087e-10
 12.17461     83.6 1.132e+04 3.848e-10
 12.19451     84.7 1.129e+04 2.933e-10
 12.23329     85.5 1.130e+04 3.471e-10
 12.25319     86.4 1.135e+04 3.694e-10
 12.27332     87.2 1.137e+04 4.391e-10
 12.31314     88.0 1.136e+04 4.726e-10
 12.35295     88.7 1.133e+04 4.922e-10
 12.38765     89.1 1.135e+04 5.327e-10
 12.40756     90.2 1.130e+04 5.263e-10
 12.43258     90.7 1.137e+04 6.024e-10
 12.47239     90.9 1.151e+04 7.349e-10
 12.51220     91.1 1.170e+04 9.690e-10
 12.55201     91.6 1.174e+04 1.155e-09
 12.59183     92.3 1.171e+04 1.140e-09
 12.62060     93.2 1.158e+04 9.559e-10
 12.64050     94.6 1.153e+04 8.997e-10
 12.67145     95.4 1.147e+04 7.379e-10
 12.69428     95.7 1.146e+04 5.665e-10
 12.71419     95.7 1.088e+04 3.833e-10
 12.75108     96.3 1.085e+04 3.557e-10
 12.79089     97.0 1.088e+04 3.841e-10
 12.83070     97.7 1.101e+04 4.989e-10
 12.85355     98.6 1.115e+04 6.822e-10
 12.87345    100.1 1.127e+04 6.153e-10
 12.91033    100.9 1.136e+04 8.353e-10
 12.94009    101.4 1.139e+04 9.450e-10
 12.95987    101.8 1.138e+04 9.576e-10
 12.98983    103.3 1.141e+04 9.502e-10
 13.02977    104.6 1.129e+04 7.543e-10
 13.06659    105.3 1.102e+04 4.449e-10
 13.08650    106.6 1.126e+04 6.379e-10
 13.10939    107.2 1.100e+04 3.512e-10
 13.13537    107.4 1.076e+04 1.986e-10
 13.15528    107.7 1.081e+04 2.205e-10
 13.18902    108.0 1.065e+04 1.724e-10
 13.22883    108.9 1.066e+04 1.747e-10
 13.26865    110.1 1.078e+04 1.881e-10
 13.29954    111.2 1.088e+04 2.279e-10
 13.31944    112.4 1.091e+04 2.172e-10
 13.34827    113.5 1.101e+04 2.633e-10
 13.38808    114.8 1.110e+04 3.242e-10
 13.42790    116.1 1.116e+04 3.845e-10
 13.46771    117.5 1.120e+04 4.139e-10
 13.50752    118.8 1.120e+04 3.947e-10
 13.53249    120.2 1.118e+04 3.345e-10
 13.55239    121.3 1.130e+04 4.463e-10
 13.57646    122.7 1.124e+04 3.593e-10
 13.59637    122.6 1.131e+04 3.881e-10
 13.62696    124.1 1.119e+04 2.660e-10
 13.66677    125.4 1.110e+04 1.685e-10
 13.70659    126.6 1.101e+04 1.128e-10
 13.74553    128.1 1.078e+04 1.004e-10
 13.76543    129.2 1.081e+04 1.278e-10
 13.78621    131.0 1.076e+04 1.262e-10
 13.82603    133.0 1.076e+04 1.272e-10
 13.86584    135.1 1.076e+04 1.345e-10
 13.90565    137.1 1.079e+04 1.540e-10
 13.94546    139.1 1.086e+04 1.876e-10
 13.97848    141.1 1.095e+04 2.362e-10
 13.99838    141.9 1.108e+04 3.088e-10
 14.01756    143.8 1.127e+04 3.925e-10
 14.03746    144.7 1.108e+04 2.927e-10
 14.06490    146.6 1.128e+04 3.633e-10
 14.10472    148.2 1.152e+04 4.424e-10
 14.14453    149.1 1.173e+04 5.012e-10
 14.17429    149.3 1.197e+04 6.338e-10
 14.19410    149.5 1.224e+04 9.043e-10
 14.21123    149.4 1.259e+04 1.444e-09
 14.22118    149.9 1.281e+04 1.971e-09
 14.23391    150.0 1.327e+04 2.922e-09
 14.24786    150.3 1.378e+04 4.054e-09
 14.25781    151.1 1.349e+04 3.294e-09
 14.27372    151.3 1.413e+04 4.842e-09
 14.29363    151.8 1.479e+04 6.312e-09
 14.31354    151.9 1.508e+04 6.271e-09
 14.32770    151.9 1.516e+04 5.652e-09
 14.33766    151.9 1.485e+04 4.365e-09
 14.35335    151.1 1.464e+04 3.041e-09
 14.37326    149.5 1.409e+04 1.861e-09
 14.39316    147.4 1.317e+04 1.133e-09
 14.41307    145.6 1.229e+04 7.856e-10
 14.43298    144.3 1.203e+04 6.293e-10
 14.44418    143.7 1.209e+04 6.211e-10
 14.45413    144.2 1.198e+04 5.686e-10
 14.46840    143.9 1.207e+04 5.671e-10
 14.47836    144.7 1.202e+04 6.005e-10
 14.49270    144.2 1.226e+04 6.322e-10
 14.51260    143.5 1.253e+04 7.267e-10
 14.53251    142.5 1.278e+04 9.154e-10
 14.55070    141.3 1.297e+04 1.235e-09
 14.56065    142.0 1.279e+04 9.557e-10
 14.57232    140.6 1.302e+04 1.374e-09
 14.59223    139.3 1.324e+04 1.989e-09
 14.61213    138.2 1.350e+04 2.757e-09
 14.63204    137.2 1.370e+04 3.592e-09
 14.65195    136.2 1.390e+04 4.077e-09
 14.66717    134.9 1.397e+04 4.058e-09
 14.67713    135.2 1.445e+04 5.108e-09
 14.68895    133.6 1.445e+04 5.002e-09
 14.69890    133.4 1.444e+04 4.801e-09
 14.71167    131.3 1.439e+04 4.584e-09
 14.73157    129.1 1.415e+04 4.176e-09
 14.75148    127.0 1.379e+04 3.685e-09
 14.77138    125.4 1.338e+04 3.182e-09
 14.78365    124.3 1.303e+04 2.720e-09
 14.79360    123.7 1.297e+04 2.606e-09
 14.82125    122.5 1.221e+04 1.724e-09
 14.86116    121.1 1.120e+04 8.997e-10
 14.89036    120.2 1.025e+04 4.369e-10
 14.90904    119.3 9.861e+03 2.988e-10
 14.91964    118.2 9.694e+03 3.104e-10
 14.94078    117.8 9.221e+03 2.023e-10
 14.98060    118.2 9.091e+03 1.891e-10
 15.02041    119.5 9.068e+03 1.863e-10
 15.06022    121.0 9.077e+03 1.866e-10
 15.10004    122.4 9.140e+03 1.967e-10
 15.12331    123.8 9.275e+03 2.194e-10
 15.14322    123.6 9.321e+03 2.233e-10
 15.17966    125.0 9.458e+03 2.488e-10
 15.21947    126.3 9.584e+03 2.689e-10
 15.25929    127.7 9.698e+03 2.782e-10
 15.29910    129.3 9.791e+03 2.824e-10
 15.33636    130.9 9.878e+03 2.899e-10
 15.35626    130.7 9.906e+03 2.875e-10
 15.36073    132.4 1.003e+04 3.060e-10
 15.38064    132.4 9.851e+03 2.346e-10
 15.41854    134.1 1.002e+04 2.582e-10
 15.45835    135.8 1.026e+04 3.058e-10
 15.49816    137.3 1.062e+04 3.989e-10
 15.53798    138.5 1.114e+04 5.791e-10
 15.56930    139.6 1.180e+04 8.627e-10
 15.58921    139.2 1.157e+04 6.587e-10
 15.61760    140.1 1.226e+04 9.237e-10
 15.65742    140.9 1.282e+04 1.232e-09
 15.69723    141.3 1.347e+04 1.639e-09
 15.72699    140.9 1.366e+04 1.816e-09
 15.74680    140.7 1.388e+04 1.991e-09
 15.76671    140.4 1.416e+04 2.244e-09
 15.78661    140.1 1.438e+04 2.494e-09
 15.80163    139.9 1.439e+04 2.587e-09
 15.80712    140.0 1.358e+04 1.667e-09
 15.81201    139.7 1.378e+04 1.837e-09
 15.82643    139.7 1.382e+04 1.926e-09
 15.84633    139.8 1.379e+04 1.955e-09
 15.86624    140.1 1.374e+04 1.950e-09
 15.88614    140.6 1.374e+04 1.965e-09
 15.90605    141.1 1.384e+04 2.041e-09
 15.91853    141.6 1.405e+04 2.211e-09
 15.92848    141.0 1.453e+04 2.732e-09
 15.94586    141.5 1.477e+04 3.011e-09
 15.96577    141.9 1.500e+04 3.364e-09
 15.98568    142.4 1.531e+04 3.722e-09
 16.00558    142.7 1.566e+04 3.950e-09
 16.02217    142.8 1.603e+04 4.124e-09
 16.03169    142.7 1.573e+04 4.761e-09
 16.03501    141.9 1.585e+04 4.655e-09
 16.04540    141.6 1.629e+04 4.798e-09
 16.06530    140.8 1.681e+04 5.035e-09
 16.08521    138.7 1.750e+04 5.593e-09
 16.10512    135.4 1.828e+04 7.389e-09
 16.12502    132.3 1.876e+04 1.145e-08
 16.14153    130.0 1.896e+04 1.547e-08
 16.15148    129.8 1.860e+04 1.464e-08
 16.16483    128.0 1.852e+04 1.448e-08
 16.18474    127.1 1.801e+04 1.237e-08
 16.20465    126.7 1.708e+04 7.930e-09
 16.22455    125.9 1.587e+04 3.936e-09
 16.24272    123.7 1.447e+04 1.702e-09
 16.25267    122.9 1.325e+04 1.380e-09
 16.25800    121.4 1.255e+04 9.927e-10
 16.26795    121.6 1.243e+04 9.088e-10
 16.29432    121.1 1.221e+04 8.774e-10
 16.33423    120.9 1.210e+04 9.040e-10
 16.37405    121.6 1.200e+04 9.994e-10
 16.41386    122.6 1.202e+04 1.116e-09
 16.45367    123.7 1.202e+04 1.168e-09
 16.48119    124.9 1.196e+04 1.137e-09
 16.50110    124.6 1.125e+04 6.633e-10
 16.53330    125.9 1.098e+04 5.271e-10
 16.57311    127.3 1.067e+04 4.056e-10
 16.61292    128.9 1.035e+04 3.226e-10
 16.65274    130.7 1.006e+04 2.730e-10
 16.68401    132.8 9.836e+03 2.457e-10
 16.70391    133.1 9.642e+03 2.420e-10
 16.71414    135.5 9.606e+03 2.456e-10
 16.73405    135.6 9.273e+03 1.665e-10
 16.77218    138.0 9.273e+03 1.720e-10
 16.81199    140.4 9.287e+03 1.802e-10
 16.85180    142.6 9.315e+03 1.925e-10
 16.89161    144.7 9.361e+03 2.098e-10
 16.92718    146.6 9.417e+03 2.311e-10
 16.94709    146.8 9.135e+03 1.633e-10
 16.97124    148.7 9.179e+03 1.810e-10
 17.01105    150.6 9.194e+03 1.938e-10
 17.05087    152.4 9.187e+03 2.006e-10
 17.09068    154.3 9.185e+03 2.024e-10
 17.12510    156.2 9.191e+03 2.025e-10
 17.14500    155.8 9.070e+03 1.690e-10
 17.16013    157.6 9.060e+03 1.677e-10
 17.18004    158.0 8.899e+03 1.439e-10
 17.21012    159.8 8.914e+03 1.481e-10
 17.24993    161.6 8.920e+03 1.527e-10
 17.28974    163.4 8.914e+03 1.559e-10
 17.32956    165.3 8.901e+03 1.578e-10
 17.36937    167.3 8.880e+03 1.583e-10
 17.39308    169.3 8.855e+03 1.592e-10
 17.41299    169.5 8.834e+03 1.566e-10
 17.44899    171.5 8.846e+03 1.582e-10
 17.48881    173.4 8.894e+03 1.587e-10
 17.52862    175.2 8.893e+03 1.555e-10
 17.56619    177.0 8.896e+03 1.470e-10
 17.58609    177.4 8.878e+03 1.443e-10
 17.60612    179.2 8.855e+03 1.282e-10
 17.62603    179.3 8.852e+03 1.377e-10
 17.64806    181.0 8.841e+03 1.258e-10
 17.68787    182.7 8.831e+03 1.208e-10
 17.72768    184.5 8.830e+03 1.211e-10
 17.76750    186.2 8.830e+03 1.246e-10
 17.80731    187.9 8.845e+03 1.390e-10
 17.83907    189.5 8.885e+03 1.717e-10
 17.85898    189.4 8.892e+03 1.747e-10
 17.88694    190.9 9.013e+03 2.251e-10
 17.92675    192.3 9.228e+03 2.961e-10
 17.96656    193.6 9.532e+03 3.833e-10
 18.00637    194.6 9.791e+03 4.687e-10
 18.02709    195.1 9.896e+03 5.104e-10
 18.03694    195.6 1.000e+04 5.858e-10
 18.05595    196.4 1.022e+04 6.783e-10
 18.07182    196.8 1.027e+04 6.779e-10
 18.08178    196.9 1.010e+04 5.957e-10
 18.09576    197.1 1.010e+04 5.776e-10
 18.11566    197.4 9.998e+03 5.191e-10
 18.13557    197.6 9.826e+03 4.540e-10
 18.16553    198.7 9.802e+03 4.593e-10
 18.20544    199.7 9.402e+03 3.699e-10
 18.24525    200.9 9.085e+03 3.122e-10
 18.28506    202.4 9.044e+03 3.041e-10
 18.32487    204.4 9.099e+03 3.145e-10
 18.36469    205.8 9.263e+03 3.422e-10
 18.40450    206.8 9.479e+03 3.955e-10
 18.44432    207.4 9.617e+03 4.538e-10
 18.46818    208.3 9.729e+03 5.387e-10
 18.47803    208.8 9.874e+03 6.178e-10
 18.49389    209.7 1.008e+04 7.221e-10
 18.51379    210.3 1.025e+04 7.997e-10
 18.52777    210.6 1.037e+04 8.385e-10
 18.53772    210.6 1.039e+04 8.330e-10
 18.55361    210.8 1.043e+04 8.431e-10
 18.57351    210.9 1.049e+04 8.571e-10
 18.59342    211.1 1.056e+04 8.742e-10
 18.61333    211.1 1.064e+04 8.870e-10
 18.63323    211.1 1.067e+04 8.877e-10
 18.64424    211.0 1.067e+04 8.821e-10
 18.65420    210.5 1.062e+04 8.396e-10
 18.67304    210.3 1.061e+04 8.287e-10
 18.68862    210.1 1.066e+04 8.337e-10
 18.69858    209.3 1.115e+04 1.040e-09
 18.71286    207.0 1.240e+04 1.311e-09
 18.73276    201.2 1.606e+04 2.862e-09
 18.75076    194.6 1.894e+04 7.652e-09
 18.76072    189.2 1.998e+04 1.302e-08
 18.77258    185.9 1.996e+04 1.393e-08
 18.79248    184.1 1.966e+04 1.218e-08
 18.81239    182.6 1.959e+04 6.772e-09
 18.83230    179.5 2.031e+04 2.216e-09
 18.85220    173.1 2.231e+04 3.408e-10
 18.86724    164.8 1.608e+04 2.695e-10
 18.87719    159.2 1.380e+04 2.097e-10
 18.89202    150.0 9.884e+03 8.438e-11
 18.90927    156.9 9.895e+03 2.219e-10
 18.92927    157.0 9.116e+03 2.050e-10
 18.96188    158.3 9.082e+03 2.072e-10
 18.98391    159.9 9.139e+03 2.108e-10
 19.00381    159.3 9.751e+03 3.158e-10
 19.04151    160.8 9.759e+03 3.185e-10
 19.08132    162.3 9.814e+03 3.401e-10
 19.12113    164.0 9.912e+03 3.832e-10
 19.16095    165.4 1.028e+04 4.792e-10
 19.19695    166.5 1.096e+04 6.690e-10
 19.21686    165.6 1.077e+04 5.861e-10
 19.24057    166.3 1.120e+04 7.397e-10
 19.28039    165.9 1.214e+04 1.164e-09
 19.31015    165.4 1.286e+04 1.690e-09
 19.32318    165.2 1.354e+04 2.458e-09
 19.33313    165.0 1.289e+04 1.775e-09
 19.34986    164.8 1.336e+04 2.285e-09
 19.36021    164.3 1.358e+04 2.560e-09
 19.37017    165.0 1.382e+04 2.842e-09
 19.38968    164.3 1.382e+04 2.840e-09
 19.40958    163.6 1.367e+04 2.643e-09
 19.42949    163.3 1.331e+04 2.206e-09
 19.43966    162.9 1.281e+04 1.707e-09
 19.44971    162.5 1.245e+04 1.329e-09
 19.46940    161.6 1.197e+04 1.062e-09
 19.48921    161.3 1.177e+04 9.771e-10
 19.50911    160.8 1.146e+04 8.717e-10
 19.52902    160.6 1.133e+04 8.315e-10
 19.54618    160.5 1.129e+04 8.280e-10
 19.55613    160.2 1.104e+04 6.999e-10
 19.56883    160.2 1.104e+04 7.043e-10
 19.58076    160.2 1.109e+04 7.243e-10
 19.59071    160.0 1.114e+04 7.428e-10
 19.60865    159.8 1.122e+04 7.669e-10
 19.62855    159.7 1.133e+04 7.833e-10
 19.64846    159.3 1.141e+04 7.850e-10
 19.66275    159.4 1.153e+04 8.186e-10
 19.68275    158.2 1.105e+04 5.897e-10
 19.71833    157.1 1.091e+04 5.195e-10
 19.75814    156.0 1.063e+04 4.257e-10
 19.79155    155.1 1.029e+04 3.478e-10
 19.81145    154.5 1.005e+04 3.008e-10
 19.83777    154.4 9.676e+03 2.252e-10
 19.87589    154.4 9.407e+03 1.871e-10
 19.89580    154.6 9.557e+03 2.307e-10
 19.91739    155.0 9.358e+03 2.063e-10
 19.95720    156.0 9.237e+03 1.938e-10
 19.99702    157.3 9.178e+03 1.879e-10
 20.03683    158.7 9.220e+03 1.851e-10
 20.07664    160.1 9.254e+03 1.855e-10
 20.10884    161.5 9.315e+03 1.847e-10
 20.12874    161.4 9.312e+03 1.937e-10
 20.15627    162.7 9.374e+03 1.870e-10
 20.19608    164.1 9.415e+03 1.782e-10
 20.23264    165.4 9.429e+03 1.731e-10
 20.25254    165.4 9.262e+03 1.590e-10
 20.27571    166.9 9.270e+03 1.595e-10
 20.31552    168.4 9.323e+03 1.665e-10
 20.34179    169.8 9.512e+03 2.003e-10
 20.36169    170.0 9.543e+03 2.089e-10
 20.39515    171.2 9.997e+03 3.030e-10
 20.43496    172.1 1.064e+04 4.916e-10
 20.47477    172.5 1.135e+04 7.816e-10
 20.51458    172.6 1.193e+04 1.110e-09
 20.55440    172.5 1.234e+04 1.364e-09
 20.57464    172.0 1.229e+04 1.321e-09
 20.59454    171.6 1.206e+04 1.095e-09
 20.63402    170.8 1.218e+04 1.056e-09
 20.67373    169.8 1.226e+04 9.559e-10
 20.71354    166.9 1.065e+04 3.810e-10
 20.75346    166.6 1.072e+04 4.084e-10
 20.78778    166.6 1.092e+04 4.980e-10
 20.80768    166.2 1.108e+04 6.335e-10
 20.83309    166.7 1.148e+04 8.687e-10
 20.87290    167.0 1.178e+04 1.017e-09
 20.91271    167.3 1.186e+04 1.028e-09
 20.95253    167.4 1.186e+04 1.015e-09
 20.99234    167.5 1.183e+04 9.490e-10
 21.02073    167.6 1.184e+04 9.012e-10
 21.04063    166.9 1.200e+04 1.116e-09
 21.07196    167.1 1.195e+04 1.047e-09
 21.11178    167.3 1.186e+04 9.658e-10
 21.13472    167.7 1.175e+04 8.890e-10
 21.15463    169.0 1.147e+04 7.866e-10
 21.19140    169.5 1.150e+04 8.199e-10
 21.23122    170.2 1.151e+04 8.242e-10
 21.25367    171.0 1.148e+04 8.194e-10
 21.27358    171.3 1.126e+04 6.915e-10
 21.31084    172.2 1.128e+04 6.767e-10
 21.35065    173.2 1.130e+04 6.588e-10
 21.39047    174.1 1.133e+04 6.291e-10
 21.43028    174.8 1.135e+04 5.785e-10
 21.46672    175.5 1.131e+04 5.092e-10
 21.48662    175.8 1.104e+04 4.122e-10
 21.50991    176.5 1.099e+04 3.757e-10
 21.54972    177.3 1.091e+04 3.388e-10
 21.57582    178.3 1.087e+04 3.110e-10
 21.59572    179.5 1.093e+04 3.412e-10
 21.62934    180.5 1.099e+04 3.373e-10
 21.66916    181.6 1.113e+04 3.463e-10
 21.69966    182.6 1.125e+04 3.577e-10
 21.71947    182.4 1.126e+04 4.040e-10
 21.73863    183.0 1.133e+04 4.072e-10
 21.75854    183.5 1.137e+04 4.093e-10
 21.77845    184.2 1.139e+04 4.086e-10
 21.79617    184.5 1.139e+04 4.046e-10
 21.80612    184.8 1.148e+04 4.266e-10
 21.82831    185.5 1.154e+04 4.507e-10
 21.86822    186.0 1.152e+04 4.332e-10
 21.90803    186.2 1.150e+04 4.220e-10
 21.93261    186.5 1.144e+04 4.043e-10
 21.95252    186.0 1.169e+04 4.758e-10
 21.98766    186.1 1.159e+04 4.479e-10
 22.01691    186.4 1.144e+04 4.129e-10
 22.03681    187.6 1.124e+04 3.286e-10
 22.06729    188.1 1.097e+04 2.707e-10
 22.10710    188.8 1.088e+04 2.597e-10
 22.14566    189.9 1.089e+04 2.610e-10
 22.16556    189.8 1.104e+04 2.922e-10
 22.18672    190.8 1.113e+04 3.079e-10
 22.21649    191.5 1.120e+04 3.343e-10
 22.23629    192.0 1.129e+04 3.671e-10
 22.24721    192.3 1.144e+04 4.260e-10
 22.25716    192.6 1.133e+04 3.482e-10
 22.27189    193.0 1.146e+04 4.003e-10
 22.28184    192.6 1.164e+04 5.106e-10
 22.29601    192.9 1.182e+04 6.159e-10
 22.31592    193.2 1.199e+04 7.192e-10
 22.33583    193.6 1.211e+04 7.970e-10
 22.35573    193.9 1.218e+04 8.350e-10
 22.37564    194.1 1.220e+04 8.463e-10
 22.38836    194.3 1.221e+04 8.521e-10
 22.39831    193.4 1.225e+04 9.170e-10
 22.41545    193.4 1.225e+04 9.158e-10
 22.43536    193.2 1.231e+04 9.367e-10
 22.45527    192.9 1.246e+04 1.018e-09
 22.46775    192.5 1.268e+04 1.175e-09
 22.47771    193.0 1.205e+04 7.984e-10
 22.49488    192.6 1.223e+04 9.262e-10
 22.50484    191.4 1.265e+04 1.253e-09
 22.51498    191.3 1.285e+04 1.514e-09
 22.53489    191.3 1.303e+04 1.751e-09
 22.55480    191.4 1.316e+04 1.908e-09
 22.57470    191.3 1.319e+04 1.921e-09
 22.59461    191.3 1.315e+04 1.866e-09
 22.61136    191.1 1.305e+04 1.732e-09
 22.62131    190.8 1.366e+04 2.191e-09
 22.63442    190.4 1.351e+04 1.930e-09
 22.65433    189.4 1.336e+04 1.766e-09
 22.67424    188.0 1.337e+04 1.766e-09
 22.68830    185.8 1.355e+04 1.841e-09
 22.69825    185.4 1.419e+04 2.364e-09
 22.71405    181.5 1.514e+04 3.041e-09
 22.72783    177.3 1.618e+04 4.700e-09
 22.73778    174.8 1.735e+04 7.260e-09
 22.75386    172.1 1.715e+04 8.044e-09
 22.77377    170.3 1.680e+04 7.765e-09
 22.79367    169.1 1.614e+04 6.286e-09
 22.81358    168.0 1.542e+04 4.231e-09
 22.83349    166.4 1.458e+04 2.435e-09
 22.84431    164.1 1.348e+04 1.306e-09
 22.86431    158.4 1.143e+04 3.933e-10
 22.89909    157.0 9.670e+03 3.189e-10
 22.91899    156.3 9.667e+03 3.343e-10
 22.94317    156.8 9.409e+03 3.145e-10
 22.98298    157.4 9.315e+03 3.018e-10
 23.02279    157.9 9.336e+03 3.042e-10
 23.05754    158.0 9.364e+03 3.136e-10
 23.07735    158.2 9.370e+03 3.214e-10
 23.09227    158.1 9.403e+03 3.448e-10
 23.11218    158.0 9.558e+03 3.978e-10
 23.12939    157.6 9.846e+03 4.906e-10
 23.13934    156.9 9.813e+03 4.732e-10
 23.15199    156.3 1.020e+04 6.192e-10
 23.17190    155.5 1.069e+04 8.357e-10
 23.18378    154.6 1.125e+04 1.141e-09
 23.19373    154.0 1.164e+04 1.260e-09
 23.21171    152.7 1.245e+04 1.735e-09
 23.23162    151.1 1.338e+04 2.328e-09
 23.25152    149.3 1.439e+04 2.985e-09
 23.27143    147.6 1.533e+04 3.673e-09
 23.29030    146.0 1.595e+04 4.298e-09
 23.30025    143.4 1.616e+04 5.044e-09
 23.31124    142.3 1.560e+04 4.610e-09
 23.33115    141.7 1.505e+04 4.202e-09
 23.34994    141.4 1.454e+04 3.839e-09
 23.35989    141.1 1.385e+04 3.082e-09
 23.37096    141.0 1.343e+04 2.857e-09
 23.39087    141.2 1.300e+04 2.585e-09
 23.40677    141.4 1.264e+04 2.292e-09
 23.41672    139.7 1.163e+04 1.419e-09
 23.43068    139.3 1.171e+04 1.149e-09
 23.45059    138.6 1.200e+04 1.072e-09
 23.47049    136.8 1.240e+04 1.099e-09
 23.49040    131.2 1.426e+04 1.373e-09
 23.51031    125.4 1.587e+04 1.967e-09
 23.52320    119.7 1.717e+04 3.099e-09
 23.53315    116.6 1.638e+04 3.807e-09
 23.55012    108.2 1.979e+04 1.147e-08
 23.57002    101.2 2.106e+04 1.856e-08
 23.58043     95.5 2.099e+04 1.770e-08
 23.59039     96.1 2.110e+04 1.902e-08
 23.60984     91.9 2.022e+04 1.313e-08
 23.62974     88.1 1.886e+04 5.596e-09
 23.64965     86.6 1.628e+04 2.933e-09
 23.66956     83.2 1.415e+04 1.246e-09
 23.69951     79.5 1.155e+04 6.447e-10
 23.73648     79.5 1.015e+04 4.101e-10
 23.75639     81.3 1.064e+04 4.350e-10
 23.77924     81.7 9.970e+03 3.886e-10
 23.80117     82.8 9.894e+03 3.886e-10
 23.82108     82.9 1.003e+04 4.288e-10
 23.85886     84.4 1.007e+04 4.541e-10
 23.89868     86.0 1.024e+04 5.152e-10
 23.93849     87.8 1.043e+04 5.790e-10
 23.96825     88.6 1.039e+04 5.780e-10
 23.97919     89.1 1.041e+04 5.870e-10
 23.98924     88.8 1.019e+04 5.107e-10
 24.01811     89.9 1.018e+04 5.096e-10
 24.05793     91.0 1.016e+04 5.014e-10
 24.08581     91.4 1.015e+04 5.085e-10
 24.09566     91.4 1.009e+04 4.861e-10
 24.10750     91.7 1.003e+04 4.721e-10
 24.12740     92.0 1.003e+04 4.729e-10
 24.14731     92.4 1.007e+04 4.781e-10
 24.16722     92.8 1.014e+04 4.970e-10
 24.18712     93.2 1.025e+04 5.310e-10
 24.20218     93.6 1.044e+04 5.841e-10
 24.21214     92.0 1.014e+04 4.946e-10
 24.22694     92.1 1.023e+04 5.708e-10
 24.24207     91.9 1.038e+04 6.496e-10
 24.25202     91.7 1.049e+04 7.105e-10
 24.26675     89.7 1.207e+04 9.204e-10
 24.28666     77.5 2.092e+04 2.255e-09
 24.30656     63.0 2.232e+04 9.782e-09
 24.31866     56.9 1.969e+04 1.311e-08
 24.32861     55.3 1.745e+04 9.067e-09
 24.34638     54.8 1.585e+04 7.582e-09
 24.36628     54.2 1.514e+04 3.623e-09
 24.38619     50.8 1.675e+04 8.180e-10
 24.41532     35.7 1.734e+04 2.316e-10
 24.43533     34.7 1.313e+04 1.371e-10
 24.45606     27.7 8.998e+03 1.295e-10
 24.49587     27.9 9.133e+03 1.680e-10
 24.53568     28.6 9.416e+03 2.185e-10
 24.57549     29.3 9.755e+03 2.826e-10
 24.61531     29.7 1.010e+04 3.919e-10
 24.64837     30.3 1.064e+04 5.837e-10
 24.66828     31.9 1.005e+04 3.572e-10
 24.68336     32.6 1.057e+04 5.782e-10
 24.70326     33.5 1.066e+04 5.345e-10
 24.72470     33.2 1.115e+04 7.656e-10
 24.74450     33.2 1.143e+04 9.758e-10
 24.76441     33.0 1.184e+04 1.191e-09
 24.77460     32.0 1.283e+04 1.562e-09
 24.78456     33.6 1.213e+04 1.230e-09
 24.80422     32.5 1.290e+04 1.538e-09
 24.82413     31.5 1.321e+04 1.877e-09
 24.84404     31.1 1.308e+04 1.891e-09
 24.86394     30.6 1.284e+04 1.820e-09
 24.88112     29.5 1.246e+04 1.495e-09
 24.90113     31.5 1.223e+04 1.382e-09
 24.93381     31.3 1.154e+04 1.008e-09
 24.97362     31.0 1.089e+04 5.590e-10
 25.01344     29.8 1.046e+04 3.715e-10
 25.05325     29.0 1.043e+04 4.168e-10
 25.09306     29.7 1.065e+04 5.839e-10
 25.11417     30.5 1.075e+04 6.243e-10
 25.12565     30.7 1.115e+04 7.557e-10
 25.14435     31.8 1.066e+04 5.274e-10
 25.16264     31.5 1.116e+04 6.979e-10
 25.18245     30.5 1.204e+04 9.118e-10
 25.20235     27.6 1.345e+04 1.524e-09
 25.22059     25.8 1.355e+04 2.476e-09
 25.23055     25.7 1.346e+04 2.423e-09
 25.24216     25.9 1.341e+04 3.279e-09
 25.26207     25.8 1.351e+04 3.516e-09
 25.28198     23.9 1.469e+04 3.583e-09
 25.30188     21.5 1.459e+04 2.923e-09
 25.32179     18.4 1.328e+04 1.852e-09
 25.33707     14.4 1.198e+04 1.007e-09
 25.34702     14.7 1.185e+04 1.058e-09
 25.35475     11.8 1.097e+04 5.922e-10
 25.36470     11.3 1.133e+04 7.534e-10
 25.38151      8.5 1.019e+04 4.658e-10
 25.40142      6.8 9.723e+03 3.392e-10
 25.42132      6.0 9.742e+03 2.977e-10
 25.44123      5.6 9.819e+03 2.795e-10
 25.45354      5.4 1.028e+04 3.043e-10
 25.46350      7.1 9.510e+03 2.571e-10
 25.48104      7.3 9.694e+03 2.628e-10
 25.50095      6.5 1.101e+04 3.324e-10
 25.52085      4.8 1.250e+04 5.755e-10
 25.54076      2.9 1.334e+04 1.164e-09
 25.56006      2.1 1.360e+04 2.242e-09
 25.57002      3.7 1.334e+04 1.266e-09
 25.57529      2.9 1.367e+04 2.422e-09
 25.58525      3.4 1.301e+04 2.140e-09
 25.60048      4.2 1.342e+04 3.069e-09
 25.62039      4.9 1.400e+04 3.632e-09
 25.64029      5.1 1.443e+04 3.553e-09
 25.66020      4.2 1.504e+04 2.961e-09
 25.67654      1.2 1.359e+04 1.876e-09
 25.68649      3.3 1.462e+04 2.482e-09
 25.70001      0.0 1.255e+04 1.598e-09
 25.71992     -1.6 1.151e+04 1.194e-09
 25.73983     -1.9 1.128e+04 1.017e-09
 25.75973     -2.1 1.084e+04 8.217e-10
 25.77964     -1.8 1.072e+04 6.935e-10
 25.79301     -2.1 1.045e+04 5.384e-10
 25.79926     -1.4 1.060e+04 6.405e-10
 25.80579     -0.8 1.075e+04 7.593e-10
 25.81945     -0.5 1.069e+04 6.460e-10
 25.83936     -1.0 1.060e+04 5.701e-10
 25.85926     -1.2 1.068e+04 5.645e-10
 25.87917     -2.0 1.092e+04 6.097e-10
 25.89908     -2.8 1.114e+04 7.428e-10
 25.92903     -2.9 1.191e+04 1.197e-09
 25.95889     -2.7 1.279e+04 2.049e-09
 25.97870     -2.9 1.292e+04 2.242e-09
 25.99861     -2.5 1.312e+04 2.322e-09
 26.01601     -3.4 1.278e+04 1.773e-09
 26.02383     -2.7 1.368e+04 2.569e-09
 26.02634     -2.9 1.423e+04 3.063e-09
 26.03842     -4.4 1.299e+04 2.194e-09
 26.05833     -5.2 1.216e+04 1.725e-09
 26.07823     -5.3 1.184e+04 1.415e-09
 26.09814     -5.5 1.151e+04 1.109e-09
 26.11805     -6.3 1.121e+04 9.071e-10
 26.13248     -7.2 1.101e+04 8.239e-10
 26.14243     -7.0 1.122e+04 9.322e-10
 26.15786     -8.0 1.120e+04 9.256e-10
 26.17777    -10.8 1.223e+04 1.273e-09
 26.19767    -15.7 1.451e+04 2.363e-09
 26.21758    -20.3 1.614e+04 4.535e-09
 26.23693    -23.7 1.662e+04 6.612e-09
 26.24688    -23.4 1.644e+04 6.643e-09
 26.24896    -25.6 1.646e+04 7.142e-09
 26.25388    -25.6 1.674e+04 7.971e-09
 26.26227    -26.5 1.665e+04 7.354e-09
 26.27725    -29.0 1.626e+04 5.540e-09
 26.29721    -33.5 1.570e+04 3.824e-09
 26.31711    -38.8 1.462e+04 2.842e-09
 26.33702    -41.2 1.404e+04 2.605e-09
 26.35548    -41.8 1.372e+04 2.561e-09
 26.36543    -42.3 1.377e+04 2.803e-09
 26.37683    -42.1 1.341e+04 2.397e-09
 26.39674    -42.1 1.284e+04 1.684e-09
 26.41664    -42.4 1.217e+04 1.093e-09
 26.43655    -42.8 1.152e+04 7.130e-10
 26.45646    -43.1 1.097e+04 4.901e-10
 26.46743    -43.3 1.056e+04 3.673e-10
 26.47297    -43.7 1.078e+04 4.267e-10
 26.48190    -44.3 1.079e+04 4.300e-10
 26.49627    -43.8 1.050e+04 3.520e-10
 26.51618    -43.0 1.039e+04 3.137e-10
 26.53608    -42.5 1.037e+04 3.061e-10
 26.56604    -41.6 1.046e+04 3.260e-10
 26.60595    -39.9 1.040e+04 3.235e-10
 26.64576    -37.9 1.024e+04 3.057e-10
 26.68519    -36.1 1.009e+04 2.864e-10
 26.70509    -37.3 1.064e+04 4.969e-10
 26.72539    -35.5 1.079e+04 6.037e-10
 26.76520    -33.7 1.102e+04 7.562e-10
 26.80501    -31.7 1.121e+04 8.967e-10
 26.84483    -29.9 1.131e+04 9.843e-10
 26.88464    -28.2 1.137e+04 1.030e-09
 26.90872    -26.8 1.150e+04 1.082e-09
 26.92231    -25.8 1.158e+04 1.135e-09
 26.93804    -27.5 1.160e+04 1.139e-09
 26.96427    -27.1 1.212e+04 1.458e-09
 26.99403    -26.9 1.285e+04 2.095e-09
 27.01384    -27.3 1.348e+04 2.751e-09
 27.03374    -27.6 1.431e+04 4.094e-09
 27.04437    -27.9 1.498e+04 5.784e-09
 27.05432    -27.8 1.436e+04 4.525e-09
 27.07356    -27.6 1.488e+04 5.436e-09
 27.09346    -27.6 1.517e+04 6.029e-09
 27.11337    -27.9 1.522e+04 6.110e-09
 27.12907    -28.4 1.494e+04 5.279e-09
 27.13902    -27.6 1.631e+04 8.599e-09
 27.15089    -28.6 1.542e+04 6.140e-09
 27.16084    -29.7 1.352e+04 2.339e-09
 27.17309    -31.1 1.255e+04 1.659e-09
 27.19299    -32.2 1.173e+04 1.244e-09
 27.21290    -32.8 1.126e+04 1.064e-09
 27.24286    -33.3 1.065e+04 8.501e-10
 27.28277    -32.6 1.032e+04 7.448e-10
 27.32258    -31.2 1.004e+04 6.266e-10
 27.34981    -29.6 9.617e+03 4.850e-10
 27.36971    -28.6 9.973e+03 5.583e-10
 27.38403    -27.1 9.564e+03 4.078e-10
 27.40394    -26.1 9.773e+03 4.735e-10
 27.44202    -24.6 9.462e+03 3.646e-10
 27.48183    -23.1 9.288e+03 3.034e-10
 27.52165    -21.7 9.261e+03 2.845e-10
 27.56146    -20.3 9.276e+03 2.836e-10
 27.59708    -19.1 9.392e+03 3.216e-10
 27.61698    -18.2 9.854e+03 4.801e-10
 27.64108    -16.9 9.883e+03 4.999e-10
 27.68090    -15.5 9.775e+03 4.795e-10
 27.72071    -14.1 9.492e+03 4.139e-10
 27.76052    -12.9 9.209e+03 3.419e-10
 27.79090    -11.7 8.977e+03 2.913e-10
 27.81080    -10.8 8.976e+03 2.821e-10
 27.83003     -9.5 8.789e+03 2.574e-10
 27.84993     -9.3 8.921e+03 2.757e-10
 27.87996     -7.7 8.751e+03 2.393e-10
 27.91977     -6.2 8.634e+03 2.059e-10
 27.95959     -4.7 8.517e+03 1.793e-10
 27.99940     -3.3 8.463e+03 1.665e-10
 28.03921     -1.9 8.533e+03 1.674e-10
 28.06297     -1.4 8.958e+03 2.253e-10
 28.08288     -1.6 8.840e+03 2.144e-10
 28.11884     -0.9 9.235e+03 3.059e-10
 28.15865      0.1 9.756e+03 4.550e-10
 28.19846      1.3 1.020e+04 5.745e-10
 28.23199      1.9 1.026e+04 5.848e-10
 28.25189      2.3 1.004e+04 4.893e-10
 28.27602      2.8 9.981e+03 4.580e-10
 28.29592      2.9 9.663e+03 3.550e-10
 28.31790      3.1 9.640e+03 3.390e-10
 28.35772      2.7 9.712e+03 3.821e-10
 28.39753      2.8 1.006e+04 5.494e-10
 28.43734      3.6 1.055e+04 7.122e-10
 28.47715      3.8 1.075e+04 7.526e-10
 28.50896      2.9 1.079e+04 6.873e-10
 28.52887      4.3 1.027e+04 5.939e-10
 28.55678      3.3 1.031e+04 6.062e-10
 28.59659      2.8 1.052e+04 6.977e-10
 28.63641      2.0 1.123e+04 8.856e-10
 28.66617      0.8 1.186e+04 1.089e-09
 28.68284     -0.9 1.244e+04 1.384e-09
 28.69289      0.7 1.223e+04 1.310e-09
 28.70598     -1.2 1.273e+04 1.599e-09
 28.72579     -2.6 1.304e+04 1.902e-09
 28.74172     -3.3 1.337e+04 2.336e-09
 28.75167     -2.2 1.315e+04 1.890e-09
 28.76560     -3.0 1.314e+04 1.921e-09
 28.78551     -3.6 1.301e+04 2.112e-09
 28.80541     -3.9 1.232e+04 1.690e-09
 28.82532     -4.0 1.159e+04 1.181e-09
 28.84523     -3.8 1.112e+04 8.904e-10
 28.87518     -3.1 1.060e+04 5.922e-10
 28.91510     -2.6 9.981e+03 3.384e-10
 28.95491     -1.8 9.523e+03 2.334e-10
 28.99472      0.5 9.619e+03 2.560e-10
 29.03453      1.4 9.556e+03 2.391e-10
 29.07435      2.3 9.511e+03 2.506e-10
 29.11416      3.5 9.469e+03 2.809e-10
 29.15397      5.7 9.733e+03 3.737e-10
 29.18790      6.9 9.900e+03 3.580e-10
 29.20781      7.7 1.005e+04 4.181e-10
 29.23360      8.3 9.928e+03 3.413e-10
 29.27341      8.6 9.648e+03 3.033e-10
 29.31322      9.8 9.358e+03 2.815e-10
 29.35304     11.3 9.091e+03 2.472e-10
 29.39285     12.6 8.853e+03 2.041e-10
 29.42085     13.7 8.648e+03 1.654e-10
 29.44076     14.3 8.731e+03 1.990e-10
 29.47248     15.5 8.512e+03 1.642e-10
 29.51229     17.1 8.304e+03 1.446e-10
 29.55210     19.1 8.105e+03 1.308e-10
 29.57517     21.0 8.062e+03 1.072e-10
 29.59507     20.4 8.177e+03 1.157e-10
 29.63173     21.6 8.175e+03 1.064e-10
 29.65380     22.7 8.268e+03 1.192e-10
 29.67371     23.6 8.147e+03 1.068e-10
 29.71135     24.5 8.339e+03 1.345e-10
 29.75117     25.8 8.466e+03 2.102e-10
 29.79098     26.5 9.570e+03 4.125e-10
 29.82074     24.7 1.126e+04 6.172e-10
 29.84055     22.7 1.279e+04 1.113e-09
 29.86046     21.8 1.422e+04 1.899e-09
 29.87660     19.7 1.484e+04 4.094e-09
 29.88655     20.8 1.458e+04 2.776e-09
 29.90027     20.3 1.487e+04 5.119e-09
 29.92017     21.9 1.498e+04 6.262e-09
 29.94008     23.5 1.481e+04 5.617e-09
 29.95999     25.1 1.517e+04 2.789e-09
 29.97989     21.8 1.557e+04 8.661e-10
 29.99308     15.9 1.173e+04 3.331e-10
 30.00303     19.6 1.430e+04 4.658e-10
 30.01606     14.4 1.033e+04 2.290e-10
 30.02601     14.3 1.021e+04 2.084e-10
 30.03961     14.5 9.937e+03 1.872e-10
 30.06957     15.8 9.806e+03 1.662e-10
 30.09979     17.6 9.517e+03 1.455e-10
 30.11970     18.5 9.615e+03 1.610e-10
 30.14929     20.3 9.443e+03 1.434e-10
 30.18911     22.0 9.477e+03 1.387e-10
 30.22892     22.9 9.686e+03 1.604e-10
 30.26873     23.3 9.716e+03 2.444e-10
 30.30855     24.4 9.978e+03 3.889e-10
 30.33274     25.6 1.048e+04 5.953e-10
 30.35265     27.1 1.030e+04 5.268e-10
 30.37812     27.2 1.073e+04 6.978e-10
 30.39793     26.4 1.108e+04 8.099e-10
 30.41784     25.8 1.126e+04 9.959e-10
 30.43774     25.5 1.153e+04 1.149e-09
 30.44902     25.3 1.159e+04 1.267e-09
 30.45848     25.8 1.166e+04 1.334e-09
 30.46710     26.0 1.142e+04 1.145e-09
 30.47755     25.7 1.138e+04 1.164e-09
 30.49746     25.7 1.117e+04 1.096e-09
 30.51737     25.7 1.091e+04 9.479e-10
 30.53727     25.3 1.067e+04 7.838e-10
 30.55554     24.4 1.041e+04 6.266e-10
 30.56549     25.2 1.050e+04 6.698e-10
 30.58714     24.2 1.004e+04 5.204e-10
 30.61700     23.0 9.865e+03 5.404e-10
 30.63681     22.5 9.828e+03 5.539e-10
 30.66676     23.3 9.933e+03 6.074e-10
 30.70667     22.5 1.015e+04 6.441e-10
 30.74649     21.3 1.003e+04 6.235e-10
 30.77873     20.6 1.011e+04 6.616e-10
 30.79864     21.8 1.007e+04 6.602e-10
 30.82611     20.6 1.003e+04 6.078e-10
 30.86593     18.8 1.007e+04 5.948e-10
 30.89844     17.7 1.025e+04 6.660e-10
 30.91825     18.8 1.045e+04 7.591e-10
 30.93540     18.9 1.063e+04 8.443e-10
 30.95531     18.0 1.060e+04 8.193e-10
 30.97522     16.8 1.055e+04 7.509e-10
 30.99512     15.2 1.086e+04 7.402e-10
 31.01148     12.3 1.134e+04 7.842e-10
 31.02144     13.8 1.105e+04 7.587e-10
 31.03493     11.2 1.156e+04 9.616e-10
 31.05484      9.4 1.164e+04 1.243e-09
 31.07475      9.1 1.179e+04 1.549e-09
 31.09465      9.3 1.193e+04 1.678e-09
 31.11456      9.4 1.195e+04 1.652e-09
 31.12796      9.3 1.165e+04 1.255e-09
 31.13219     10.1 1.157e+04 1.218e-09
 31.13869     10.1 1.195e+04 1.449e-09
 31.15437      9.3 1.152e+04 1.044e-09
 31.17428      8.2 1.107e+04 7.749e-10
 31.19419      7.3 1.071e+04 6.241e-10
 31.21409      6.7 1.050e+04 5.530e-10
 31.23400      6.4 1.043e+04 5.305e-10
 31.24443      6.2 1.045e+04 5.294e-10
 31.25439      7.2 1.043e+04 5.374e-10
 31.27381      7.1 1.055e+04 5.472e-10
 31.29372      7.1 1.066e+04 5.727e-10
 31.31362      7.1 1.076e+04 5.974e-10
 31.33353      7.1 1.092e+04 6.162e-10
 31.34929      6.6 1.150e+04 6.705e-10
 31.35676      3.8 1.332e+04 1.021e-09
 31.36091      6.0 1.218e+04 7.490e-10
 31.37334      3.5 1.415e+04 1.128e-09
 31.39325      0.0 1.555e+04 2.075e-09
 31.41316     -2.7 1.597e+04 3.851e-09
 31.42804     -3.0 1.594e+04 4.656e-09
 31.43794     -3.3 1.603e+04 5.327e-09
 31.44790     -3.3 1.633e+04 7.685e-09
 31.45785     -3.2 1.673e+04 9.536e-09
 31.46444     -2.8 1.727e+04 1.194e-08
 31.46894     -3.2 1.780e+04 1.275e-08
 31.47231     -2.9 1.780e+04 1.322e-08
 31.47775     -2.7 1.858e+04 1.479e-08
 31.48771     -2.7 1.892e+04 1.556e-08
 31.49766     -3.3 1.906e+04 1.525e-08
 31.50761     -3.7 1.897e+04 1.374e-08
 31.51757     -3.8 1.893e+04 1.343e-08
 31.53255     -3.8 1.899e+04 1.280e-08
 31.55250     -5.6 1.835e+04 9.056e-09
 31.56983     -7.8 1.658e+04 6.269e-09
 31.57978     -9.7 1.527e+04 5.119e-09
 31.58390    -10.0 1.449e+04 4.226e-09
 31.59386     -9.2 1.457e+04 4.127e-09
 31.61222     -9.2 1.406e+04 3.412e-09
 31.63213     -8.8 1.370e+04 2.832e-09
 31.65203     -8.5 1.338e+04 2.339e-09
 31.67194     -8.2 1.304e+04 1.868e-09
 31.69042     -8.1 1.266e+04 1.447e-09
 31.70038     -7.3 1.234e+04 1.195e-09
 31.71175     -7.7 1.190e+04 9.616e-10
 31.74171     -6.9 1.166e+04 8.598e-10
 31.78062     -8.0 1.086e+04 7.260e-10
 31.80052    -11.0 1.078e+04 7.618e-10
 31.82143    -11.0 1.076e+04 8.082e-10
 31.85120     -9.9 1.075e+04 7.972e-10
 31.87100    -10.5 1.084e+04 8.441e-10
 31.89091    -10.8 1.088e+04 8.683e-10
 31.91082    -11.1 1.089e+04 8.792e-10
 31.92337    -11.4 1.095e+04 8.992e-10
 31.93333    -10.6 1.096e+04 9.030e-10
 31.95063    -11.2 1.115e+04 9.767e-10
 31.97054    -11.9 1.132e+04 1.054e-09
 31.99044    -12.6 1.148e+04 1.157e-09
 32.01035    -13.4 1.161e+04 1.243e-09
 32.02087    -14.4 1.181e+04 1.294e-09
 32.03047    -14.2 1.040e+04 6.634e-10
 32.03985    -13.2 1.081e+04 8.581e-10
 32.05016    -15.0 1.065e+04 7.711e-10
 32.07007    -18.0 1.100e+04 6.647e-10
 32.08997    -21.5 1.185e+04 7.301e-10
 32.10988    -24.2 1.261e+04 1.031e-09
 32.12979    -25.7 1.321e+04 1.511e-09
 32.14637    -26.5 1.361e+04 1.926e-09
 32.15632    -26.8 1.484e+04 2.997e-09
 32.16960    -27.9 1.488e+04 3.284e-09
 32.18951    -29.5 1.488e+04 3.389e-09
 32.20941    -31.3 1.507e+04 3.479e-09
 32.22429    -32.6 1.512e+04 3.569e-09
 32.23420    -33.4 1.529e+04 3.739e-09
 32.24132    -35.4 1.568e+04 4.307e-09
 32.24630    -35.3 1.583e+04 4.384e-09
 32.25411    -37.6 1.689e+04 5.569e-09
 32.26274    -40.0 1.811e+04 7.574e-09
 32.26772    -41.2 1.904e+04 9.410e-09
 32.27401    -43.0 2.040e+04 1.307e-08
 32.28396    -44.4 2.191e+04 1.791e-08
 32.29392    -45.8 2.346e+04 2.452e-08
 32.30387    -47.3 2.487e+04 3.431e-08
 32.31382    -48.9 2.576e+04 4.960e-08
 32.32098    -50.6 2.594e+04 7.186e-08
 32.32596    -51.8 2.575e+04 9.864e-08
 32.33373    -53.5 2.506e+04 1.302e-07
 32.34368    -55.1 2.425e+04 1.549e-07
 32.35160    -56.5 2.379e+04 1.662e-07
 32.35657    -57.7 2.361e+04 1.634e-07
 32.36359    -58.5 2.303e+04 1.613e-07
 32.37354    -59.5 2.277e+04 1.569e-07
 32.37922    -61.3 2.277e+04 1.529e-07
 32.38420    -62.8 2.313e+04 1.230e-07
 32.39345    -65.9 2.407e+04 1.080e-07
 32.40340    -70.8 2.617e+04 9.519e-08
 32.41336    -77.7 2.910e+04 8.311e-08
 32.42331    -85.4 3.096e+04 7.300e-08
 32.43248    -92.5 2.942e+04 7.227e-08
 32.43746    -93.9 2.870e+04 5.636e-08
 32.44322    -98.2 2.484e+04 7.507e-08
 32.45317   -100.4 2.225e+04 1.117e-07
 32.46187   -102.3 2.300e+04 1.296e-07
 32.46684   -102.3 2.211e+04 9.245e-08
 32.47308   -103.9 2.224e+04 9.454e-08
 32.48303   -104.4 2.165e+04 7.246e-08
 32.49072   -104.2 2.053e+04 3.966e-08
 32.49569   -104.1 1.953e+04 2.494e-08
 32.50796   -104.4 1.813e+04 1.376e-08
 32.52792   -104.1 1.660e+04 7.535e-09
 32.54782   -103.8 1.481e+04 3.806e-09
 32.56773   -103.8 1.348e+04 2.143e-09
 32.58764   -104.0 1.250e+04 1.376e-09
 32.60231   -103.9 1.199e+04 1.048e-09
 32.61226   -104.0 1.184e+04 9.619e-10
 32.62745   -102.9 1.155e+04 8.306e-10
 32.64735   -101.7 1.137e+04 7.531e-10
 32.66726   -100.6 1.123e+04 6.958e-10
 32.68251    -99.3 1.111e+04 6.533e-10
 32.69246    -98.7 1.113e+04 6.793e-10
 32.70707    -97.6 1.105e+04 6.500e-10
 32.71879    -96.5 1.098e+04 6.247e-10
 32.72874    -96.5 1.097e+04 5.971e-10
 32.74689    -95.5 1.091e+04 5.779e-10
 32.76679    -94.4 1.085e+04 5.596e-10
 32.78670    -93.3 1.078e+04 5.403e-10
 32.80661    -92.2 1.069e+04 5.178e-10
 32.82531    -91.1 1.062e+04 4.923e-10
 32.83526    -91.1 1.062e+04 4.865e-10
 32.84642    -89.9 1.056e+04 4.616e-10
 32.86633    -88.7 1.050e+04 4.381e-10
 32.89628    -87.3 1.049e+04 4.163e-10
 32.93619    -85.0 1.036e+04 3.858e-10
 32.97601    -82.6 1.021e+04 3.616e-10
 33.01582    -80.2 1.011e+04 3.517e-10
 33.04850    -78.0 1.009e+04 3.500e-10
 33.06840    -78.2 1.012e+04 3.547e-10
 33.09544    -75.8 1.016e+04 3.674e-10
 33.12380    -73.8 1.024e+04 3.949e-10
 33.14370    -73.3 1.009e+04 3.278e-10
 33.16487    -71.4 1.018e+04 3.755e-10
 33.17473    -72.0 1.027e+04 3.823e-10
 33.18483    -71.6 1.040e+04 4.181e-10
 33.20473    -70.6 1.055e+04 4.918e-10
 33.22464    -69.8 1.072e+04 5.766e-10
 33.24455    -68.8 1.096e+04 6.879e-10
 33.26445    -67.9 1.129e+04 8.224e-10
 33.28125    -67.0 1.175e+04 9.943e-10
 33.29120    -68.5 1.186e+04 1.043e-09
 33.30427    -68.0 1.232e+04 1.214e-09
 33.32417    -67.7 1.284e+04 1.449e-09
 33.34408    -67.5 1.340e+04 1.794e-09
 33.36399    -67.8 1.557e+04 3.520e-09
 33.38389    -68.0 1.713e+04 4.740e-09
 33.39773    -69.4 1.933e+04 6.430e-09
 33.40768    -74.0 1.795e+04 3.029e-09
 33.42371    -78.3 1.888e+04 3.781e-09
 33.44361    -84.0 1.827e+04 4.443e-09
 33.46352    -90.7 1.630e+04 4.834e-09
 33.48342    -96.9 1.408e+04 5.038e-09
 33.50333   -102.1 1.350e+04 4.371e-09
 33.51420   -106.2 1.371e+04 3.005e-09
 33.52415   -104.1 1.281e+04 2.304e-09
 33.54314   -107.0 1.222e+04 1.524e-09
 33.56305   -109.2 1.147e+04 1.136e-09
 33.57465   -110.1 1.102e+04 1.002e-09
 33.58460   -110.0 1.065e+04 8.825e-10
 33.60286   -110.1 1.049e+04 8.383e-10
 33.62072   -110.0 1.038e+04 8.095e-10
 33.63067   -109.0 1.005e+04 6.829e-10
 33.64268   -109.0 9.954e+03 6.490e-10
 33.66258   -108.9 9.827e+03 6.036e-10
 33.68249   -108.8 9.673e+03 5.527e-10
 33.70240   -108.7 9.524e+03 5.103e-10
 33.72734   -108.3 9.370e+03 4.683e-10
 33.74734   -106.8 9.038e+03 3.600e-10
 33.77226   -105.8 8.512e+03 2.447e-10
 33.81208   -104.8 8.065e+03 1.672e-10
 33.85189   -103.6 7.769e+03 1.238e-10
 33.89170   -102.2 7.575e+03 1.003e-10
 33.93151   -100.6 7.443e+03 8.549e-11
 33.96039    -99.0 7.355e+03 7.574e-11
 33.98029    -98.4 7.364e+03 7.588e-11
 34.00598    -96.9 7.307e+03 6.986e-11
 34.02588    -96.0 7.348e+03 7.424e-11
 34.05095    -94.5 7.337e+03 7.260e-11
 34.09077    -93.1 7.337e+03 7.236e-11
 34.13058    -92.1 7.355e+03 7.297e-11
 34.17039    -91.7 7.366e+03 8.339e-11
 34.19333    -91.7 7.601e+03 1.194e-10
 34.21324    -91.3 7.756e+03 1.295e-10
 34.25002    -92.1 8.615e+03 2.211e-10
 34.28983    -94.5 9.835e+03 4.391e-10
 34.32964    -97.7 1.089e+04 8.291e-10
 34.36946   -101.0 1.150e+04 1.228e-09
 34.40638   -104.2 1.168e+04 1.352e-09
 34.42628   -102.7 1.151e+04 1.258e-09
 34.44707   -106.1 1.179e+04 1.336e-09
 34.46688   -106.3 1.195e+04 1.427e-09
 34.47875   -109.1 1.197e+04 1.397e-09
 34.49865   -111.8 1.206e+04 1.396e-09
 34.51856   -114.7 1.274e+04 1.719e-09
 34.53261   -116.8 1.356e+04 2.478e-09
 34.54256   -117.1 1.423e+04 3.278e-09
 34.55837   -118.7 1.477e+04 4.322e-09
 34.57828   -120.4 1.492e+04 4.720e-09
 34.59818   -122.2 1.488e+04 4.743e-09
 34.61809   -123.7 1.440e+04 4.008e-09
 34.63800   -125.2 1.368e+04 2.846e-09
 34.64908   -127.0 1.295e+04 1.955e-09
 34.65904   -127.3 1.296e+04 1.917e-09
 34.67737   -129.1 1.234e+04 1.376e-09
 34.68733   -128.5 1.241e+04 1.413e-09
 34.69772   -129.9 1.200e+04 1.110e-09
 34.71762   -131.1 1.175e+04 9.387e-10
 34.73753   -132.0 1.159e+04 8.338e-10
 34.75560   -132.9 1.149e+04 7.559e-10
 34.76556   -132.6 1.160e+04 8.068e-10
 34.77734   -133.3 1.153e+04 7.407e-10
 34.79725   -133.9 1.147e+04 6.833e-10
 34.81716   -134.5 1.141e+04 6.308e-10
 34.83706   -135.1 1.135e+04 5.879e-10
 34.85697   -135.9 1.126e+04 5.365e-10
 34.87208   -136.7 1.114e+04 4.914e-10
 34.88203   -136.4 1.130e+04 5.546e-10
 34.89678   -137.1 1.120e+04 5.083e-10
 34.90787   -137.8 1.108e+04 4.653e-10
 34.92787   -137.2 1.103e+04 4.864e-10
 34.96665   -137.3 1.095e+04 4.312e-10
 35.00646   -137.6 1.096e+04 3.759e-10
 35.04627   -137.5 1.107e+04 3.353e-10
 35.08532   -138.3 1.099e+04 2.855e-10
 35.10522   -137.1 1.119e+04 3.429e-10
 35.12590   -137.6 1.107e+04 2.946e-10
 35.16571   -137.9 1.084e+04 2.511e-10
 35.20553   -137.9 1.058e+04 2.169e-10
 35.24534   -137.8 1.039e+04 1.908e-10
 35.28515   -137.6 1.021e+04 1.703e-10
 35.31826   -137.0 1.006e+04 1.552e-10
 35.33817   -136.1 1.011e+04 1.693e-10
 35.34916   -135.4 9.976e+03 1.512e-10
 35.36906   -135.4 1.001e+04 1.626e-10
 35.40459   -134.7 9.879e+03 1.454e-10
 35.44440   -133.9 9.740e+03 1.265e-10
 35.48422   -132.9 9.594e+03 1.062e-10
 35.52403   -131.8 9.462e+03 8.643e-11
 35.55121   -130.6 9.355e+03 6.906e-11
 35.57112   -129.7 9.321e+03 6.793e-11
 35.60365   -128.5 9.254e+03 5.504e-11
 35.64347   -127.3 9.232e+03 4.682e-11
 35.68328   -126.1 9.237e+03 4.330e-11
 35.72309   -124.9 9.245e+03 4.267e-11
 35.76291   -123.8 9.299e+03 4.280e-11
 35.78416   -123.0 9.463e+03 4.940e-11
 35.79160   -122.2 9.411e+03 5.210e-11
 35.81015   -122.2 9.401e+03 5.947e-11
 35.84253   -121.3 9.486e+03 7.828e-11
 35.88234   -120.3 9.581e+03 1.004e-10
 35.92216   -119.3 9.679e+03 1.208e-10
 35.96197   -118.4 9.760e+03 1.341e-10
 35.99720   -117.6 9.818e+03 1.382e-10
 36.01711   -116.6 9.810e+03 1.450e-10
 36.04160   -115.8 9.830e+03 1.458e-10
 36.08141   -114.9 9.851e+03 1.456e-10
 36.12122   -114.0 9.884e+03 1.457e-10
 36.16103   -112.9 9.910e+03 1.473e-10
 36.20085   -111.8 9.930e+03 1.511e-10
 36.23015   -110.5 9.952e+03 1.557e-10
 36.24074   -109.5 9.955e+03 1.675e-10
 36.25124   -109.4 9.994e+03 1.746e-10
 36.28047   -108.1 1.002e+04 1.737e-10
 36.32029   -106.7 1.006e+04 1.726e-10
 36.36010   -105.3 1.011e+04 1.722e-10
 36.39991   -104.0 1.017e+04 1.727e-10
 36.43972   -102.7 1.026e+04 1.737e-10
 36.46310   -101.5 1.034e+04 1.792e-10
 36.48301   -100.6 1.036e+04 2.075e-10
 36.51935    -99.5 1.039e+04 2.104e-10
 36.55916    -98.4 1.046e+04 2.075e-10
 36.59898    -97.4 1.053e+04 1.974e-10
 36.63879    -96.4 1.058e+04 1.770e-10
 36.67243    -95.3 1.062e+04 1.536e-10
 36.68988    -95.8 1.067e+04 1.729e-10
 36.69605    -94.9 1.062e+04 1.568e-10
 36.71841    -93.8 1.066e+04 1.339e-10
 36.75823    -92.5 1.069e+04 1.185e-10
 36.79804    -91.1 1.069e+04 1.103e-10
 36.83785    -89.6 1.069e+04 1.086e-10
 36.87767    -88.2 1.070e+04 1.096e-10
 36.90909    -86.9 1.072e+04 1.237e-10
 36.92900    -86.0 1.071e+04 1.238e-10
 36.95729    -84.9 1.074e+04 1.566e-10
 36.99710    -83.7 1.078e+04 2.019e-10
 37.03692    -82.6 1.083e+04 2.456e-10
 37.07673    -81.7 1.088e+04 2.666e-10
 37.11352    -81.0 1.090e+04 2.726e-10
 37.13343    -81.6 1.077e+04 2.590e-10
 37.14204    -80.9 1.068e+04 2.362e-10
 37.16195    -80.1 1.067e+04 2.450e-10
 37.19617    -79.4 1.050e+04 2.000e-10
 37.23598    -78.6 1.038e+04 1.677e-10
 37.27579    -77.8 1.040e+04 1.535e-10
 37.31561    -77.0 1.044e+04 1.512e-10
 37.35508    -76.3 1.052e+04 1.528e-10
 37.37499    -75.3 1.050e+04 1.555e-10
 37.39523    -75.0 1.080e+04 1.882e-10
 37.43505    -74.9 1.117e+04 2.819e-10
 37.47486    -74.7 1.157e+04 4.346e-10
 37.50462    -74.7 1.181e+04 6.032e-10
 37.52443    -74.8 1.186e+04 6.977e-10
 37.54434    -74.6 1.186e+04 7.316e-10
 37.56424    -74.5 1.183e+04 7.326e-10
 37.57432    -74.5 1.177e+04 6.311e-10
 37.58427    -74.9 1.175e+04 5.853e-10
 37.59779    -75.2 1.166e+04 4.731e-10
 37.60774    -74.9 1.164e+04 4.735e-10
 37.63401    -75.0 1.154e+04 4.147e-10
 37.67392    -74.9 1.151e+04 4.071e-10
 37.70368    -74.8 1.161e+04 4.275e-10
 37.71426    -74.9 1.165e+04 4.520e-10
 37.72422    -74.8 1.166e+04 4.905e-10
 37.74340    -75.0 1.189e+04 5.912e-10
 37.76331    -75.3 1.215e+04 7.243e-10
 37.78321    -75.6 1.238e+04 8.835e-10
 37.79487    -75.8 1.256e+04 1.047e-09
 37.80482    -76.0 1.269e+04 1.177e-09
 37.82078    -76.3 1.285e+04 1.304e-09
 37.83074    -76.7 1.326e+04 1.654e-09
 37.84293    -77.2 1.341e+04 1.781e-09
 37.86284    -77.8 1.353e+04 1.889e-09
 37.88274    -78.4 1.359e+04 2.003e-09
 37.90265    -78.9 1.359e+04 2.128e-09
 37.92256    -79.1 1.352e+04 2.253e-09
 37.93726    -79.2 1.344e+04 2.328e-09
 37.94721    -79.9 1.362e+04 2.471e-09
 37.96237    -79.6 1.340e+04 2.223e-09
 37.98228    -79.3 1.320e+04 1.895e-09
 38.00218    -78.9 1.298e+04 1.521e-09
 38.01541    -78.6 1.276e+04 1.211e-09
 38.02536    -79.0 1.272e+04 1.077e-09
 38.04200    -78.8 1.239e+04 8.227e-10
 38.05383    -77.9 1.213e+04 6.590e-10
 38.07383    -80.1 1.216e+04 6.710e-10
 38.11186    -77.9 1.203e+04 5.771e-10
 38.15168    -76.1 1.209e+04 5.333e-10
 38.19149    -74.5 1.204e+04 4.964e-10
 38.23130    -72.7 1.191e+04 4.665e-10
 38.26697    -70.8 1.177e+04 4.583e-10
 38.28688    -71.9 1.194e+04 5.629e-10
 38.31093    -69.9 1.189e+04 5.576e-10
 38.35074    -67.8 1.188e+04 5.478e-10
 38.39055    -65.8 1.182e+04 5.226e-10
 38.43037    -63.9 1.173e+04 4.933e-10
 38.45670    -61.9 1.161e+04 4.488e-10
 38.47660    -61.5 1.172e+04 5.007e-10
 38.49992    -59.5 1.159e+04 4.486e-10
 38.51983    -60.8 1.146e+04 3.823e-10
 38.54981    -58.9 1.128e+04 3.365e-10
 38.58962    -57.0 1.112e+04 3.141e-10
 38.62943    -55.3 1.104e+04 3.075e-10
 38.66924    -53.6 1.100e+04 3.096e-10
 38.70906    -52.1 1.101e+04 3.314e-10
 38.73287    -50.8 1.111e+04 3.741e-10
 38.75277    -52.4 1.126e+04 4.558e-10
 38.78868    -51.2 1.139e+04 5.257e-10
 38.82850    -50.1 1.147e+04 5.725e-10
 38.86831    -49.1 1.152e+04 5.867e-10
 38.89779    -48.3 1.138e+04 5.245e-10
 38.91769    -47.5 1.156e+04 6.125e-10
 38.94591    -47.3 1.144e+04 5.386e-10
 38.96582    -49.3 1.136e+04 4.705e-10
 38.98775    -49.5 1.135e+04 4.531e-10
 39.02756    -49.9 1.163e+04 5.617e-10
 39.05732    -50.0 1.199e+04 7.753e-10
 39.07214    -50.4 1.220e+04 9.355e-10
 39.08209    -51.2 1.231e+04 1.022e-09
 39.09704    -51.8 1.267e+04 1.394e-09
 39.11694    -52.3 1.297e+04 1.683e-09
 39.12809    -52.9 1.311e+04 1.816e-09
 39.13804    -53.6 1.325e+04 2.002e-09
 39.15676    -54.2 1.325e+04 1.991e-09
 39.17666    -54.7 1.307e+04 1.649e-09
 39.18862    -55.3 1.282e+04 1.211e-09
 39.19857    -56.4 1.242e+04 8.785e-10
 39.21648    -57.3 1.217e+04 6.560e-10
 39.23638    -57.9 1.189e+04 5.317e-10
 39.26634    -57.9 1.152e+04 4.176e-10
 39.30625    -57.4 1.113e+04 3.017e-10
 39.33888    -56.8 1.108e+04 2.490e-10
 39.35878    -58.5 1.142e+04 3.470e-10
 39.38588    -57.6 1.145e+04 3.403e-10
 39.41181    -56.9 1.166e+04 3.874e-10
 39.43171    -56.7 1.147e+04 2.792e-10
 39.46550    -56.4 1.174e+04 3.601e-10
 39.50531    -56.2 1.199e+04 5.204e-10
 39.54513    -55.9 1.224e+04 7.607e-10
 39.58494    -55.3 1.241e+04 1.009e-09
 39.62475    -54.7 1.245e+04 1.106e-09
 39.66457    -53.4 1.249e+04 1.124e-09
 39.70438    -52.2 1.212e+04 7.735e-10
 39.74419    -50.7 1.179e+04 4.619e-10
 39.77997    -49.4 1.154e+04 2.727e-10
 39.79988    -50.7 1.149e+04 2.466e-10
 39.82382    -49.5 1.138e+04 2.141e-10
 39.85780    -48.0 1.136e+04 2.070e-10
 39.87770    -47.2 1.130e+04 2.040e-10
 39.90344    -45.8 1.142e+04 2.082e-10
 39.94326    -44.6 1.162e+04 2.670e-10
 39.98307    -43.3 1.176e+04 3.895e-10
 40.02288    -41.8 1.191e+04 5.315e-10
 40.06269    -40.5 1.202e+04 6.178e-10
 40.09075    -39.3 1.203e+04 6.303e-10
 40.11065    -38.7 1.187e+04 5.651e-10
 40.14232    -37.5 1.171e+04 4.953e-10
 40.18213    -36.3 1.150e+04 3.870e-10
 40.22106    -35.1 1.131e+04 3.047e-10
 40.24097    -35.4 1.116e+04 1.997e-10
 40.26176    -33.9 1.108e+04 1.892e-10
 40.30157    -32.1 1.104e+04 1.906e-10
 40.32369    -30.2 1.102e+04 1.986e-10
 40.34360    -29.8 1.102e+04 2.051e-10
 40.38120    -27.9 1.103e+04 2.154e-10
 40.42101    -26.0 1.105e+04 2.278e-10
 40.46082    -24.1 1.105e+04 2.454e-10
 40.50063    -22.2 1.110e+04 2.709e-10
 40.53674    -20.4 1.115e+04 3.102e-10
 40.55664    -20.2 1.108e+04 3.052e-10
 40.58026    -18.3 1.117e+04 3.572e-10
 40.62007    -16.5 1.133e+04 4.356e-10
 40.65989    -14.7 1.151e+04 5.494e-10
 40.68206    -12.8 1.165e+04 6.471e-10
 40.70196    -12.8 1.132e+04 4.624e-10
 40.73951    -11.1 1.132e+04 4.532e-10
 40.76969     -9.3 1.127e+04 4.325e-10
 40.78959     -9.0 1.118e+04 4.003e-10
 40.81914     -7.1 1.105e+04 3.497e-10
 40.85895     -5.1 1.092e+04 3.039e-10
 40.89876     -3.1 1.080e+04 2.688e-10
 40.93858     -0.9 1.070e+04 2.444e-10
 40.97839      1.3 1.065e+04 2.305e-10
 41.00263      3.6 1.064e+04 2.269e-10
 41.02254      4.2 1.039e+04 1.637e-10
 41.05801      6.7 1.042e+04 1.633e-10
 41.09783      9.2 1.048e+04 1.703e-10
 41.12315     11.7 1.054e+04 1.813e-10
 41.14305     11.8 1.046e+04 1.311e-10
 41.17745     14.3 1.046e+04 1.279e-10
 41.21568     16.8 1.043e+04 1.231e-10
 41.23558     17.5 1.028e+04 1.035e-10
 41.25708     20.1 1.028e+04 1.053e-10
 41.29689     22.7 1.028e+04 1.063e-10
 41.33670     25.3 1.031e+04 1.052e-10
 41.37652     28.0 1.033e+04 1.017e-10
 41.41633     30.6 1.053e+04 8.967e-11
 41.44862     32.6 1.083e+04 7.448e-11
 41.46853     33.7 1.066e+04 6.897e-11
 41.49596     35.4 1.053e+04 6.536e-11
 41.53577     37.0 1.035e+04 7.890e-11
 41.56424     39.0 1.056e+04 1.037e-10
 41.58414     38.9 1.005e+04 9.931e-11
 41.61539     41.1 1.037e+04 1.231e-10
 41.65521     43.2 1.057e+04 1.612e-10
 41.68157     45.4 1.062e+04 2.096e-10
 41.70148     46.4 1.046e+04 1.560e-10
 41.73483     48.5 1.061e+04 1.907e-10
 41.77465     50.2 1.086e+04 2.301e-10
 41.81446     51.3 1.117e+04 3.296e-10
 41.85427     52.5 1.144e+04 5.533e-10
 41.89408     54.4 1.183e+04 8.694e-10
 41.91452     56.5 1.226e+04 1.113e-09
 41.93443     57.3 1.219e+04 1.068e-09
 41.97371     59.0 1.247e+04 1.127e-09
 42.00533     60.5 1.245e+04 1.052e-09
 42.02523     61.0 1.240e+04 1.050e-09
 42.05334     62.4 1.229e+04 9.465e-10
 42.09315     64.0 1.206e+04 8.033e-10
 42.12756     65.7 1.185e+04 6.936e-10
 42.14747     66.7 1.171e+04 6.267e-10
 42.17277     68.6 1.162e+04 5.989e-10
 42.21259     70.7 1.153e+04 5.717e-10
 42.25240     73.0 1.137e+04 5.225e-10
 42.29221     75.4 1.120e+04 4.526e-10
 42.33203     77.8 1.103e+04 3.601e-10
 42.36051     79.8 1.096e+04 3.002e-10
 42.38042     80.9 1.095e+04 3.072e-10
 42.41165     83.0 1.093e+04 2.731e-10
 42.44642     85.2 1.092e+04 2.593e-10
 42.46633     85.7 1.056e+04 1.065e-10
 42.49128     88.1 1.053e+04 1.125e-10
 42.53109     90.7 1.060e+04 1.292e-10
 42.57090     93.3 1.072e+04 1.561e-10
 42.59346     95.8 1.093e+04 1.990e-10
 42.61337     96.7 1.075e+04 1.614e-10
 42.65053     99.2 1.103e+04 2.039e-10
 42.69034    101.4 1.128e+04 2.668e-10
 42.73015    103.6 1.152e+04 3.737e-10
 42.76997    105.8 1.171e+04 5.067e-10
 42.79973    107.1 1.171e+04 4.692e-10
 42.81626    107.6 1.181e+04 5.340e-10
 42.82621    108.0 1.180e+04 4.710e-10
 42.83944    108.4 1.188e+04 6.173e-10
 42.85935    108.9 1.194e+04 8.117e-10
 42.87926    109.5 1.213e+04 1.050e-09
 42.89727    109.8 1.246e+04 1.346e-09
 42.90722    110.3 1.206e+04 9.578e-10
 42.91907    110.3 1.244e+04 1.294e-09
 42.93274    110.2 1.300e+04 1.795e-09
 42.94269    110.1 1.297e+04 1.758e-09
 42.95888    109.8 1.357e+04 2.472e-09
 42.97879    109.6 1.404e+04 3.196e-09
 42.99870    109.3 1.422e+04 3.437e-09
 43.01860    109.1 1.412e+04 3.287e-09
 43.03851    108.9 1.374e+04 2.604e-09
 43.04921    107.9 1.328e+04 1.739e-09
 43.05916    106.9 1.348e+04 1.732e-09
 43.07832    103.0 1.384e+04 1.687e-09
 43.09823     97.3 1.439e+04 2.012e-09
 43.11781     92.9 1.446e+04 3.278e-09
 43.12777     95.8 1.496e+04 2.965e-09
 43.13804     91.7 1.554e+04 4.999e-09
 43.15292     88.2 1.672e+04 6.333e-09
 43.16061     87.0 1.727e+04 6.406e-09
 43.16559     86.2 1.741e+04 6.368e-09
 43.17278     83.1 1.741e+04 5.848e-09
 43.18273     82.1 1.706e+04 5.444e-09
 43.19771     80.3 1.627e+04 4.180e-09
 43.21767     75.9 1.349e+04 1.965e-09
 43.23757     71.7 1.110e+04 8.620e-10
 43.25748     68.2 1.034e+04 4.104e-10
 43.27221     65.3 9.846e+03 2.894e-10
 43.28216     65.0 9.834e+03 2.895e-10
 43.29729     63.9 9.374e+03 2.630e-10
 43.32725     64.5 9.449e+03 2.841e-10
 43.34851     65.5 9.715e+03 3.468e-10
 43.35836     66.1 9.646e+03 3.364e-10
 43.37692     66.3 9.708e+03 3.525e-10
 43.38868     67.0 9.945e+03 4.435e-10
 43.39863     67.3 9.902e+03 4.123e-10
 43.41673     68.0 1.016e+04 5.191e-10
 43.43664     68.9 1.036e+04 6.362e-10
 43.45654     69.9 1.057e+04 7.597e-10
 43.47645     70.8 1.092e+04 9.094e-10
 43.49520     71.1 1.149e+04 1.131e-09
 43.50515     71.8 1.097e+04 8.587e-10
 43.51626     72.0 1.145e+04 1.045e-09
 43.53617     72.3 1.185e+04 1.276e-09
 43.55608     72.9 1.203e+04 1.418e-09
 43.56886     73.5 1.221e+04 1.572e-09
 43.57881     74.0 1.261e+04 1.938e-09
 43.59589     74.6 1.277e+04 2.202e-09
 43.61167     75.5 1.294e+04 2.463e-09
 43.62163     76.4 1.261e+04 1.901e-09
 43.63570     77.2 1.294e+04 2.273e-09
 43.65561     78.1 1.327e+04 2.618e-09
 43.67551     78.7 1.362e+04 2.940e-09
 43.69542     79.0 1.398e+04 3.285e-09
 43.71533     79.2 1.444e+04 3.755e-09
 43.72815     79.3 1.465e+04 4.474e-09
 43.73810     80.6 1.531e+04 4.550e-09
 43.75514     80.3 1.576e+04 6.289e-09
 43.77505     80.9 1.600e+04 7.443e-09
 43.78940     82.2 1.588e+04 7.071e-09
 43.79936     82.4 1.590e+04 7.060e-09
 43.81486     83.8 1.574e+04 6.195e-09
 43.83467     85.2 1.551e+04 4.777e-09
 43.84955     86.2 1.608e+04 5.193e-09
 43.85955     86.0 1.584e+04 4.412e-09
 43.86950     85.1 1.581e+04 3.310e-09
 43.87946     84.6 1.567e+04 2.989e-09
 43.88941     82.8 1.520e+04 2.335e-09
 43.89779     82.4 1.482e+04 2.176e-09
 43.90276     82.8 1.639e+04 3.021e-09
 43.91434     81.3 1.457e+04 2.113e-09
 43.93430     79.8 1.334e+04 2.014e-09
 43.95114     78.8 1.293e+04 2.039e-09
 43.96105     79.4 1.344e+04 2.375e-09
 43.96904     78.4 1.331e+04 2.437e-09
 43.97899     78.2 1.320e+04 2.413e-09
 43.99397     76.9 1.371e+04 2.740e-09
 44.00995     75.7 1.355e+04 2.717e-09
 44.01990     77.0 1.329e+04 2.564e-09
 44.03383     76.0 1.303e+04 2.362e-09
 44.05374     75.3 1.216e+04 1.899e-09
 44.06762     74.2 1.157e+04 1.459e-09
 44.07757     74.4 1.198e+04 1.533e-09
 44.09355     73.0 1.103e+04 1.082e-09
 44.11346     71.8 1.033e+04 7.948e-10
 44.13336     71.4 1.009e+04 7.086e-10
 44.15327     71.7 9.977e+03 6.737e-10
 44.17318     72.2 9.900e+03 6.574e-10
 44.18409     73.0 9.920e+03 6.571e-10
 44.19405     72.7 9.867e+03 6.069e-10
 44.21299     73.7 1.000e+04 6.425e-10
 44.23049     74.6 1.019e+04 7.026e-10
 44.24045     75.0 1.026e+04 7.483e-10
 44.25280     76.0 1.043e+04 8.003e-10
 44.27271     77.1 1.054e+04 8.745e-10
 44.29061     78.4 1.066e+04 9.588e-10
 44.30057     78.4 1.082e+04 9.901e-10
 44.31252     79.8 1.105e+04 1.110e-09
 44.33243     81.2 1.129e+04 1.227e-09
 44.35233     82.5 1.156e+04 1.344e-09
 44.37224     83.4 1.182e+04 1.477e-09
 44.39215     84.0 1.214e+04 1.660e-09
 44.40709     84.2 1.302e+04 2.120e-09
 44.41704     84.2 1.395e+04 2.831e-09
 44.42693     84.2 1.462e+04 3.430e-09
 44.43684     83.9 1.470e+04 3.562e-09
 44.44679     83.3 1.515e+04 4.304e-09
 44.45592     82.1 1.648e+04 5.808e-09
 44.46089     80.6 1.829e+04 7.455e-09
 44.46523     77.6 2.069e+04 1.238e-08
 44.47020     75.1 2.223e+04 1.773e-08
 44.47665     71.6 2.387e+04 3.328e-08
 44.48660     69.1 2.386e+04 6.216e-08
 44.49656     68.1 2.304e+04 1.114e-07
 44.50651     68.3 2.218e+04 1.765e-07
 44.51646     68.6 2.204e+04 2.253e-07
 44.52347     68.9 2.235e+04 2.156e-07
 44.52844     69.0 2.260e+04 1.562e-07
 44.53637     69.2 2.444e+04 6.993e-08
 44.54632     67.5 2.788e+04 2.704e-08
 44.55628     65.0 3.453e+04 9.541e-09
 44.56619     63.8 3.169e+04 7.098e-09
 44.57614     60.1 2.895e+04 4.837e-09
 44.59116     51.7 2.029e+04 1.975e-09
 44.61112     46.1 1.262e+04 1.605e-09
 44.63008     46.1 1.333e+04 1.600e-09
 44.64004     47.2 1.317e+04 1.598e-09
 44.65093     46.8 1.407e+04 2.133e-09
 44.67084     45.8 1.540e+04 2.942e-09
 44.68154     46.0 1.529e+04 4.953e-09
 44.69149     46.0 1.544e+04 4.690e-09
 44.71065     48.4 1.507e+04 6.967e-09
 44.73056     51.3 1.518e+04 7.596e-09
 44.74656     53.7 1.580e+04 6.483e-09
 44.75651     53.1 1.570e+04 6.523e-09
 44.77037     52.9 1.643e+04 5.051e-09
 44.79027     50.1 1.654e+04 4.459e-09
 44.81018     46.6 1.614e+04 4.799e-09
 44.83009     44.2 1.716e+04 6.748e-09
 44.84999     43.8 1.826e+04 1.038e-08
 44.86303     43.5 1.889e+04 1.373e-08
 44.87299     44.6 1.854e+04 1.172e-08
 44.88981     43.9 1.890e+04 1.351e-08
 44.90208     43.1 1.834e+04 1.277e-08
 44.91204     42.9 1.758e+04 9.588e-09
 44.92962     42.1 1.699e+04 7.892e-09
 44.94953     41.2 1.654e+04 6.361e-09
 44.96943     40.2 1.569e+04 5.182e-09
 44.97951     39.7 1.452e+04 4.141e-09
 44.98946     40.4 1.514e+04 4.584e-09
 45.00925     40.6 1.436e+04 3.905e-09
 45.02915     41.4 1.365e+04 3.034e-09
 45.04906     41.7 1.309e+04 2.152e-09
 45.06896     41.3 1.233e+04 1.465e-09
 45.08603     41.0 1.158e+04 1.069e-09
 45.09598     41.3 1.183e+04 1.154e-09
 45.10878     41.1 1.109e+04 8.519e-10
 45.12263     41.6 1.080e+04 7.054e-10
 45.13258     41.8 1.077e+04 6.621e-10
 45.14859     42.1 1.059e+04 5.647e-10
 45.16850     42.4 1.039e+04 5.180e-10
 45.18840     42.3 1.028e+04 4.893e-10
 45.20250     42.0 1.034e+04 5.217e-10
 45.21246     42.2 1.047e+04 5.442e-10
 45.22822     41.8 1.053e+04 6.540e-10
 45.24812     41.8 1.058e+04 7.793e-10
 45.26803     42.8 1.065e+04 8.577e-10
 45.28793     43.5 1.062e+04 8.547e-10
 45.30784     44.1 1.054e+04 7.010e-10
 45.31898     43.7 1.046e+04 5.119e-10
 45.32893     43.6 1.048e+04 5.086e-10
 45.34317     41.6 1.025e+04 3.928e-10
 45.35313     41.3 1.031e+04 4.019e-10
 45.36756     38.7 1.013e+04 3.721e-10
 45.38747     36.1 1.018e+04 4.625e-10
 45.40737     32.7 1.074e+04 7.994e-10
 45.42550     28.5 1.258e+04 1.709e-09
 45.43545     28.7 1.267e+04 1.730e-09
 45.44719     21.3 1.652e+04 4.292e-09
 45.46709     11.8 2.056e+04 1.061e-08
 45.48197      5.3 2.169e+04 1.476e-08
 45.48861      0.8 2.312e+04 1.990e-08
 45.49359     -1.1 2.350e+04 2.634e-08
 45.50183     -6.7 2.326e+04 3.957e-08
 45.51178    -10.3 2.301e+04 4.634e-08
 45.52174    -13.5 2.260e+04 4.610e-08
 45.53169    -15.9 2.191e+04 3.566e-08
 45.54164    -18.3 2.116e+04 2.292e-08
 45.54685    -20.5 2.037e+04 1.430e-08
 45.55183    -21.2 2.016e+04 1.215e-08
 45.56367    -25.2 1.918e+04 6.544e-09
 45.57367    -25.2 1.873e+04 5.898e-09
 45.58653    -33.9 1.466e+04 1.591e-09
 45.60644    -38.9 1.211e+04 9.135e-10
 45.62634    -39.8 1.162e+04 7.507e-10
 45.64625    -39.8 1.149e+04 7.063e-10
 45.65845    -39.9 1.148e+04 6.877e-10
 45.66840    -38.7 1.156e+04 7.276e-10
 45.68606    -38.8 1.151e+04 6.948e-10
 45.70597    -38.9 1.149e+04 6.869e-10
 45.72588    -38.9 1.149e+04 6.875e-10
 45.74578    -38.9 1.152e+04 6.982e-10
 45.76497    -38.7 1.154e+04 7.208e-10
 45.77492    -37.6 1.157e+04 7.311e-10
 45.78426    -37.4 1.161e+04 7.691e-10
 45.79422    -37.0 1.161e+04 7.349e-10
 45.80550    -36.7 1.163e+04 7.758e-10
 45.82541    -36.2 1.162e+04 7.984e-10
 45.84531    -35.6 1.158e+04 7.985e-10
 45.86522    -35.1 1.151e+04 7.716e-10
 45.88144    -34.5 1.144e+04 7.304e-10
 45.89139    -33.8 1.181e+04 9.146e-10
 45.90503    -33.2 1.180e+04 8.911e-10
 45.92494    -32.7 1.177e+04 8.641e-10
 45.94485    -32.2 1.168e+04 8.345e-10
 45.96475    -31.6 1.153e+04 8.008e-10
 45.98466    -30.9 1.134e+04 7.557e-10
 45.99792    -30.0 1.118e+04 6.988e-10
 46.00787    -29.8 1.178e+04 1.020e-09
 46.01476    -28.9 1.160e+04 9.247e-10
 46.02471    -28.6 1.186e+04 1.059e-09
 46.04438    -27.8 1.164e+04 9.402e-10
 46.06429    -26.8 1.143e+04 8.356e-10
 46.08419    -25.6 1.128e+04 7.515e-10
 46.10410    -24.6 1.116e+04 6.823e-10
 46.11439    -23.4 1.106e+04 6.242e-10
 46.12434    -23.3 1.147e+04 8.338e-10
 46.14391    -22.0 1.134e+04 7.575e-10
 46.16382    -20.7 1.127e+04 7.033e-10
 46.18372    -19.5 1.123e+04 6.644e-10
 46.20363    -18.4 1.121e+04 6.400e-10
 46.22091    -17.2 1.123e+04 6.343e-10
 46.23086    -17.1 1.146e+04 7.740e-10
 46.23531    -15.9 1.152e+04 7.753e-10
 46.24526    -15.7 1.182e+04 8.802e-10
 46.26335    -15.0 1.212e+04 9.445e-10
 46.28326    -14.7 1.246e+04 1.095e-09
 46.30316    -14.6 1.282e+04 1.342e-09
 46.32307    -14.5 1.319e+04 1.708e-09
 46.33739    -14.5 1.352e+04 2.166e-09
 46.34734    -14.0 1.370e+04 2.260e-09
 46.36288    -14.1 1.408e+04 2.787e-09
 46.38279    -14.2 1.437e+04 3.266e-09
 46.40269    -14.2 1.455e+04 3.573e-09
 46.42260    -14.3 1.459e+04 3.693e-09
 46.44251    -14.3 1.452e+04 3.589e-09
 46.45386    -14.3 1.436e+04 3.337e-09
 46.45725    -14.7 1.549e+04 5.206e-09
 46.46581    -15.1 1.566e+04 5.302e-09
 46.48232    -15.5 1.555e+04 5.018e-09
 46.50223    -16.2 1.576e+04 4.927e-09
 46.52213    -17.3 1.629e+04 5.392e-09
 46.54204    -18.7 1.696e+04 6.410e-09
 46.56038    -20.0 1.750e+04 7.731e-09
 46.57033    -21.4 1.909e+04 1.661e-08
 46.58185    -22.0 1.905e+04 1.727e-08
 46.60176    -22.5 1.890e+04 1.579e-08
 46.62167    -23.3 1.850e+04 1.246e-08
 46.64157    -24.2 1.808e+04 1.071e-08
 46.66148    -24.7 1.796e+04 1.028e-08
 46.67640    -24.8 1.799e+04 1.010e-08
 46.68182    -25.7 1.881e+04 1.361e-08
 46.68681    -27.0 1.827e+04 7.396e-09
 46.70129    -26.7 1.808e+04 5.971e-09
 46.72120    -26.4 1.788e+04 4.961e-09
 46.74110    -26.1 1.751e+04 4.296e-09
 46.76101    -25.6 1.713e+04 3.880e-09
 46.78092    -25.3 1.682e+04 3.685e-09
 46.79333    -25.2 1.649e+04 3.609e-09
 46.80328    -26.5 1.489e+04 1.731e-09
 46.82073    -26.1 1.470e+04 1.823e-09
 46.84064    -25.5 1.452e+04 1.882e-09
 46.86054    -24.8 1.435e+04 1.917e-09
 46.88045    -23.9 1.418e+04 1.754e-09
 46.89694    -22.8 1.403e+04 1.599e-09
 46.90639    -23.5 1.437e+04 1.912e-09
 46.91985    -25.0 1.299e+04 6.547e-10
 46.95032    -23.9 1.262e+04 3.270e-10
 46.99013    -23.3 1.223e+04 1.965e-10
 47.02994    -22.8 1.189e+04 1.699e-10
 47.06976    -22.0 1.169e+04 1.619e-10
 47.10957    -20.7 1.161e+04 1.599e-10
 47.13299    -19.4 1.158e+04 1.673e-10
 47.15290    -19.2 1.140e+04 1.618e-10
 47.18919    -17.7 1.145e+04 1.836e-10
 47.22901    -16.0 1.154e+04 2.112e-10
 47.26882    -14.4 1.165e+04 2.473e-10
 47.30863    -12.8 1.173e+04 2.977e-10
 47.33823    -11.1 1.178e+04 3.546e-10
 47.35573    -11.5 1.171e+04 2.988e-10
 47.36594    -10.7 1.169e+04 2.971e-10
 47.38826     -9.1 1.170e+04 2.987e-10
 47.42807     -7.5 1.178e+04 2.908e-10
 47.46788     -6.0 1.192e+04 3.117e-10
 47.50770     -4.4 1.206e+04 3.592e-10
 47.54751     -2.8 1.221e+04 4.443e-10
 47.57899     -1.2 1.238e+04 5.738e-10
 47.59889     -0.9 1.200e+04 3.952e-10
 47.62714      0.8 1.220e+04 5.147e-10
 47.66695      2.4 1.244e+04 6.697e-10
 47.70676      4.0 1.270e+04 8.713e-10
 47.74657      5.4 1.297e+04 1.097e-09
 47.77932      6.7 1.317e+04 1.283e-09
 47.79923      7.1 1.304e+04 1.160e-09
 47.81193      8.3 1.318e+04 1.306e-09
 47.83184      8.8 1.276e+04 7.711e-10
 47.86601      9.9 1.281e+04 8.666e-10
 47.90583     11.2 1.278e+04 9.253e-10
 47.94564     12.6 1.267e+04 9.425e-10
 47.98545     14.1 1.245e+04 8.716e-10
 48.02498     15.8 1.221e+04 7.318e-10
 48.04488     16.5 1.201e+04 5.451e-10
 48.06508     18.2 1.189e+04 4.941e-10
 48.10489     20.1 1.177e+04 4.271e-10
 48.14470     22.0 1.160e+04 3.669e-10
 48.18452     23.8 1.151e+04 3.202e-10
 48.22041     25.7 1.148e+04 3.038e-10
 48.24032     25.8 1.156e+04 3.628e-10
 48.25792     27.8 1.157e+04 3.630e-10
 48.27783     28.2 1.155e+04 3.669e-10
 48.30395     30.2 1.158e+04 4.212e-10
 48.34377     32.4 1.161e+04 4.553e-10
 48.38358     34.6 1.162e+04 4.556e-10
 48.42339     36.8 1.152e+04 4.206e-10
 48.46321     39.1 1.149e+04 3.835e-10
 48.49087     41.3 1.148e+04 3.648e-10
 48.51078     41.4 1.143e+04 3.220e-10
 48.54283     43.8 1.147e+04 3.146e-10
 48.58264     45.7 1.173e+04 3.659e-10
 48.62246     47.3 1.186e+04 5.678e-10
 48.66150     49.5 1.217e+04 9.642e-10
 48.68141     50.4 1.247e+04 1.244e-09
 48.70208     52.6 1.287e+04 1.797e-09
 48.72382     54.5 1.306e+04 2.037e-09
 48.74373     55.0 1.291e+04 1.664e-09
 48.78171     56.6 1.299e+04 1.893e-09
 48.82152     58.2 1.288e+04 1.897e-09
 48.86133     59.9 1.264e+04 1.708e-09
 48.90115     61.8 1.230e+04 1.424e-09
 48.93686     63.9 1.183e+04 1.074e-09
 48.95677     64.4 1.204e+04 1.123e-09
 48.98077     66.2 1.180e+04 9.272e-10
 49.02059     67.9 1.157e+04 7.710e-10
 49.06040     69.6 1.142e+04 6.702e-10
 49.10021     71.2 1.137e+04 6.545e-10
 49.12250     72.9 1.133e+04 6.741e-10
 49.14240     73.4 1.144e+04 7.353e-10
 49.16981     75.3 1.136e+04 7.171e-10
 49.18972     75.5 1.162e+04 7.952e-10
 49.21965     77.5 1.144e+04 6.940e-10
 49.25946     79.4 1.132e+04 5.859e-10
 49.29927     81.1 1.124e+04 5.302e-10
 49.33909     82.8 1.124e+04 5.245e-10
 49.37890     84.5 1.121e+04 5.467e-10
 49.40276     86.2 1.124e+04 5.783e-10
 49.42267     86.8 1.105e+04 4.419e-10
 49.45853     88.5 1.101e+04 4.427e-10
 49.49834     90.2 1.098e+04 4.601e-10
 49.53815     91.8 1.106e+04 4.698e-10
 49.56359     93.7 1.105e+04 4.538e-10
 49.58349     93.8 1.133e+04 4.994e-10
 49.61580     95.9 1.110e+04 4.266e-10
 49.63571     96.9 1.121e+04 4.600e-10
 49.65759     99.0 1.099e+04 3.889e-10
 49.69740    101.0 1.079e+04 3.288e-10
 49.73722    103.0 1.065e+04 2.886e-10
 49.77703    105.2 1.055e+04 2.643e-10
 49.81684    107.3 1.046e+04 2.492e-10
 49.84875    109.5 1.041e+04 2.425e-10
 49.86866    110.2 1.070e+04 3.070e-10
 49.89647    112.4 1.066e+04 3.013e-10
 49.93628    114.6 1.071e+04 3.066e-10
 49.97609    116.8 1.078e+04 3.121e-10
 50.00468    119.0 1.080e+04 3.088e-10
 50.02459    119.2 1.065e+04 2.769e-10
 50.05572    121.3 1.067e+04 2.810e-10
 50.08170    123.3 1.073e+04 2.937e-10
 50.10161    123.8 1.088e+04 3.035e-10
 50.13534    125.7 1.101e+04 2.986e-10
 50.17516    127.7 1.118e+04 2.995e-10
 50.21497    129.6 1.135e+04 3.252e-10
 50.23508    130.4 1.140e+04 3.084e-10
 50.24494    130.7 1.146e+04 3.322e-10
 50.26454    131.4 1.160e+04 3.705e-10
 50.28445    132.2 1.187e+04 4.599e-10
 50.30435    132.6 1.229e+04 6.088e-10
 50.31445    132.2 1.290e+04 8.526e-10
 50.32441    132.0 1.264e+04 7.503e-10
 50.34417    130.7 1.397e+04 1.155e-09
 50.36407    128.9 1.565e+04 2.249e-09
 50.38398    127.4 1.707e+04 4.969e-09
 50.40389    126.5 1.802e+04 9.046e-09
 50.42097    125.9 1.860e+04 1.211e-08
 50.43093    125.3 1.789e+04 8.615e-09
 50.44370    124.1 1.826e+04 9.408e-09
 50.45553    122.5 1.824e+04 8.801e-09
 50.46548    124.6 1.929e+04 1.439e-08
 50.48351    122.6 1.906e+04 1.248e-08
 50.50342    120.4 1.842e+04 1.010e-08
 50.52332    118.5 1.739e+04 7.560e-09
 50.53745    117.6 1.624e+04 5.297e-09
 50.54740    117.6 1.600e+04 4.275e-09
 50.56314    117.2 1.498e+04 2.438e-09
 50.58304    116.5 1.422e+04 1.290e-09
 50.60295    115.4 1.350e+04 7.495e-10
 50.62286    114.3 1.254e+04 5.831e-10
 50.64276    114.3 1.199e+04 5.681e-10
 50.65392    114.9 1.194e+04 5.679e-10
 50.66388    114.8 1.199e+04 5.711e-10
 50.67607    115.6 1.205e+04 5.988e-10
 50.68603    115.7 1.203e+04 6.029e-10
 50.70248    116.5 1.210e+04 6.405e-10
 50.72239    117.4 1.220e+04 6.930e-10
 50.74230    118.1 1.239e+04 7.761e-10
 50.76044    118.0 1.266e+04 8.991e-10
 50.77040    117.9 1.271e+04 9.550e-10
 50.78211    117.0 1.349e+04 1.296e-09
 50.80201    114.3 1.509e+04 2.597e-09
 50.82192    112.3 1.662e+04 6.189e-09
 50.84183    112.4 1.754e+04 1.166e-08
 50.86173    112.6 1.771e+04 1.300e-08
 50.87692    112.9 1.745e+04 1.160e-08
 50.88687    112.1 1.766e+04 1.185e-08
 50.89662    112.4 1.666e+04 6.595e-09
 50.90657    112.2 1.679e+04 7.227e-09
 50.92145    111.1 1.599e+04 3.303e-09
 50.94136    107.5 1.481e+04 1.467e-09
 50.96127    104.7 1.356e+04 1.151e-09
 50.98117    103.0 1.312e+04 1.080e-09
 50.99339    101.7 1.330e+04 1.159e-09
 51.01340    100.5 1.288e+04 9.375e-10
 51.04099     99.9 1.284e+04 9.620e-10
 51.06080     99.5 1.282e+04 1.045e-09
 51.08070     98.8 1.280e+04 1.190e-09
 51.09991     97.5 1.287e+04 1.391e-09
 51.10987     96.8 1.282e+04 1.368e-09
 51.11716     95.4 1.304e+04 1.716e-09
 51.12712     95.5 1.318e+04 1.854e-09
 51.14042     94.0 1.334e+04 2.256e-09
 51.16033     93.1 1.330e+04 2.640e-09
 51.18024     92.3 1.324e+04 2.683e-09
 51.20014     92.3 1.288e+04 2.302e-09
 51.21639     91.7 1.261e+04 2.012e-09
 51.22634     91.6 1.283e+04 2.242e-09
 51.25001     91.9 1.201e+04 1.335e-09
 51.28992     91.5 1.086e+04 5.925e-10
 51.32795     90.8 9.900e+03 3.006e-10
 51.34786     90.6 9.977e+03 3.338e-10
 51.36954     91.3 9.825e+03 3.245e-10
 51.40936     92.6 9.913e+03 3.699e-10
 51.43958     93.8 1.025e+04 5.242e-10
 51.45949     94.0 9.958e+03 3.981e-10
 51.48898     95.4 1.032e+04 5.751e-10
 51.52879     96.9 1.060e+04 7.508e-10
 51.56861     98.2 1.069e+04 8.109e-10
 51.60842     99.4 1.064e+04 7.971e-10
 51.64823    100.6 1.047e+04 7.330e-10
 51.67253    101.8 1.022e+04 6.261e-10
 51.69243    102.4 1.012e+04 5.566e-10
 51.72786    103.7 9.845e+03 4.490e-10
 51.76767    105.2 9.549e+03 3.539e-10
 51.78895    106.8 9.273e+03 2.844e-10
 51.80885    106.8 9.397e+03 3.168e-10
 51.84730    108.4 9.136e+03 2.538e-10
 51.88557    110.1 8.963e+03 2.197e-10
 51.90548    110.6 8.963e+03 2.077e-10
 51.92692    112.4 8.908e+03 2.060e-10
 51.96674    114.3 8.903e+03 2.109e-10
 52.00655    116.0 8.937e+03 2.259e-10
 52.04636    117.7 9.040e+03 2.555e-10
 52.08617    119.4 9.288e+03 3.067e-10
 52.11852    121.0 9.618e+03 3.762e-10
 52.13842    121.2 9.779e+03 4.018e-10
 52.16580    122.1 9.935e+03 4.542e-10
 52.19556    123.1 1.009e+04 5.254e-10
 52.21537    124.0 1.030e+04 6.125e-10
 52.22984    124.7 1.054e+04 7.061e-10
 52.23932    125.1 1.056e+04 7.248e-10
 52.24475    125.1 1.060e+04 7.229e-10
 52.25518    125.6 1.088e+04 8.534e-10
 52.27509    126.0 1.124e+04 1.028e-09
 52.29500    126.1 1.166e+04 1.250e-09
 52.31490    126.0 1.207e+04 1.515e-09
 52.33481    126.0 1.248e+04 1.805e-09
 52.35127    126.0 1.285e+04 2.083e-09
 52.36122    125.8 1.264e+04 1.815e-09
 52.37462    125.7 1.290e+04 1.943e-09
 52.39453    125.4 1.310e+04 2.008e-09
 52.41444    124.8 1.313e+04 2.025e-09
 52.43434    124.1 1.309e+04 2.028e-09
 52.45039    123.3 1.300e+04 2.017e-09
 52.46034    123.9 1.340e+04 2.315e-09
 52.46775    123.0 1.319e+04 2.176e-09
 52.47770    122.5 1.277e+04 1.878e-09
 52.49406    121.5 1.267e+04 1.820e-09
 52.51397    120.6 1.246e+04 1.651e-09
 52.53387    119.9 1.210e+04 1.400e-09
 52.55378    119.7 1.162e+04 1.113e-09
 52.57369    119.6 1.117e+04 8.762e-10
 52.58422    119.7 1.079e+04 6.707e-10
 52.59417    119.8 1.072e+04 6.404e-10
 52.61350    119.6 1.043e+04 4.892e-10
 52.64346    120.1 1.004e+04 3.558e-10
 52.67113    120.6 9.620e+03 2.583e-10
 52.69104    120.7 9.880e+03 3.285e-10
 52.72318    121.7 9.728e+03 2.959e-10
 52.76299    122.8 9.635e+03 2.751e-10
 52.79746    124.0 9.512e+03 2.473e-10
 52.81736    124.8 9.512e+03 2.517e-10
 52.84262    125.9 9.379e+03 2.274e-10
 52.88243    126.8 9.343e+03 2.269e-10
 52.92224    127.5 9.394e+03 2.421e-10
 52.96206    128.2 9.608e+03 2.969e-10
 53.00187    128.5 9.939e+03 3.822e-10
 53.03031    128.9 1.013e+04 4.521e-10
 53.04016    129.0 1.013e+04 4.483e-10
 53.05144    129.2 1.030e+04 5.348e-10
 53.07135    129.5 1.041e+04 6.132e-10
 53.09125    129.7 1.048e+04 6.374e-10
 53.11116    129.9 1.049e+04 6.274e-10
 53.12198    130.0 1.047e+04 5.959e-10
 53.13193    130.4 1.066e+04 7.135e-10
 53.14669    130.5 1.060e+04 6.647e-10
 53.15664    130.6 1.054e+04 6.171e-10
 53.17088    130.5 1.042e+04 5.439e-10
 53.19079    130.4 1.029e+04 4.825e-10
 53.21069    130.2 1.015e+04 4.398e-10
 53.23060    130.0 1.004e+04 4.316e-10
 53.25051    130.0 1.003e+04 4.328e-10
 53.26316    130.1 1.000e+04 4.536e-10
 53.27311    130.6 9.978e+03 4.326e-10
 53.29032    130.8 9.991e+03 4.521e-10
 53.31022    131.2 1.001e+04 4.942e-10
 53.33013    131.6 1.005e+04 5.336e-10
 53.34252    131.8 1.005e+04 5.489e-10
 53.35248    132.4 1.014e+04 5.976e-10
 53.36968    132.5 1.010e+04 5.771e-10
 53.37963    133.4 1.016e+04 6.021e-10
 53.38985    133.4 1.009e+04 5.663e-10
 53.40976    133.1 9.967e+03 5.135e-10
 53.43971    133.2 9.720e+03 4.196e-10
 53.47640    134.0 9.362e+03 3.310e-10
 53.49630    135.1 9.655e+03 4.070e-10
 53.51944    136.1 9.409e+03 3.393e-10
 53.55331    137.0 9.242e+03 2.920e-10
 53.57322    137.5 9.190e+03 2.863e-10
 53.59906    137.5 9.121e+03 2.695e-10
 53.63888    136.6 9.182e+03 2.766e-10
 53.66864    135.5 9.442e+03 3.446e-10
 53.68845    133.8 9.961e+03 5.213e-10
 53.70835    132.4 1.043e+04 7.853e-10
 53.71910    131.4 1.081e+04 1.037e-09
 53.72906    131.7 1.084e+04 1.125e-09
 53.74817    130.2 1.123e+04 1.264e-09
 53.76807    127.8 1.168e+04 1.366e-09
 53.78361    124.7 1.211e+04 1.487e-09
 53.79357    125.6 1.178e+04 1.261e-09
 53.80788    122.3 1.206e+04 1.416e-09
 53.82562    119.8 1.223e+04 1.688e-09
 53.83558    119.0 1.222e+04 1.711e-09
 53.84770    117.6 1.243e+04 1.969e-09
 53.86760    116.4 1.267e+04 2.053e-09
 53.88751    114.9 1.273e+04 2.023e-09
 53.90742    112.8 1.274e+04 1.890e-09
 53.92732    110.3 1.261e+04 1.769e-09
 53.94210    107.7 1.241e+04 1.733e-09
 53.95205    105.9 1.240e+04 1.821e-09
 53.96714    103.8 1.257e+04 1.949e-09
 53.98704     96.3 1.533e+04 2.816e-09
 54.00416     84.0 2.011e+04 8.127e-09
 54.01411     85.5 1.965e+04 7.291e-09
 54.02686     80.1 1.818e+04 1.164e-08
 54.04676     78.7 1.748e+04 1.097e-08
 54.05857     77.6 1.675e+04 7.647e-09
 54.06853     75.6 1.646e+04 6.584e-09
 54.08657     72.6 1.591e+04 2.715e-09
 54.10648     65.4 1.328e+04 8.822e-10
 54.12639     60.1 1.029e+04 4.573e-10
 54.14629     59.9 1.014e+04 3.287e-10
 54.16509     59.9 1.012e+04 3.165e-10
 54.17505     59.8 1.012e+04 3.170e-10
 54.19616     62.3 9.511e+03 2.208e-10
 54.23607     63.5 9.316e+03 1.672e-10
 54.27588     65.2 9.282e+03 1.519e-10
 54.31569     67.3 9.339e+03 1.589e-10
 54.35551     69.1 9.606e+03 1.911e-10
 54.38829     70.5 1.028e+04 2.807e-10
 54.40819     71.4 1.049e+04 3.172e-10
 54.42508     71.5 1.079e+04 4.114e-10
 54.44489     71.5 1.106e+04 5.811e-10
 54.45520     72.1 1.128e+04 7.807e-10
 54.46516     72.5 1.111e+04 6.818e-10
 54.48470     73.1 1.138e+04 8.656e-10
 54.50456     73.7 1.163e+04 1.017e-09
 54.52447     74.3 1.196e+04 1.192e-09
 54.54442     74.7 1.175e+04 1.144e-09
 54.56433     74.7 1.172e+04 1.135e-09
 54.58424     74.6 1.178e+04 1.157e-09
 54.60414     74.6 1.175e+04 1.152e-09
 54.62104     75.0 1.168e+04 1.109e-09
 54.63099     75.6 1.160e+04 1.062e-09
 54.64395     75.3 1.155e+04 1.018e-09
 54.66386     75.9 1.124e+04 8.664e-10
 54.67575     75.7 1.105e+04 7.424e-10
 54.68570     76.4 1.126e+04 8.495e-10
 54.70367     76.5 1.093e+04 6.986e-10
 54.72358     76.5 1.066e+04 5.755e-10
 54.73751     76.0 1.025e+04 4.392e-10
 54.74747     76.4 1.031e+04 4.470e-10
 54.76339     75.7 1.001e+04 3.855e-10
 54.79335     76.4 9.764e+03 3.484e-10
 54.83326     77.4 9.541e+03 3.242e-10
 54.85418     78.4 9.455e+03 3.256e-10
 54.87409     78.7 9.648e+03 3.650e-10
 54.89639     79.6 9.566e+03 3.704e-10
 54.90625     80.4 9.555e+03 3.697e-10
 54.92264     80.5 9.582e+03 3.780e-10
 54.94255     81.0 9.647e+03 4.218e-10
 54.96051     81.2 9.732e+03 4.588e-10
 54.97046     81.3 1.005e+04 5.855e-10
 54.98236     81.6 1.018e+04 6.881e-10
 55.00227     82.1 1.030e+04 7.826e-10
 55.02218     82.8 1.038e+04 8.556e-10
 55.04208     83.4 1.049e+04 8.786e-10
 55.06199     83.7 1.065e+04 8.928e-10
 55.07698     83.7 1.087e+04 9.093e-10
 55.08694     83.0 1.152e+04 1.280e-09
 55.10180     82.8 1.173e+04 1.393e-09
 55.11684     82.5 1.186e+04 1.526e-09
 55.12679     83.0 1.161e+04 1.324e-09
 55.14162     82.9 1.166e+04 1.422e-09
 55.16152     82.9 1.177e+04 1.546e-09
 55.18143     83.2 1.182e+04 1.628e-09
 55.19346     83.7 1.182e+04 1.653e-09
 55.20341     83.6 1.224e+04 1.802e-09
 55.22124     84.0 1.221e+04 1.712e-09
 55.24115     84.3 1.229e+04 1.685e-09
 55.26105     84.2 1.241e+04 1.733e-09
 55.28096     83.8 1.275e+04 1.928e-09
 55.29998     83.3 1.313e+04 2.283e-09
 55.30993     82.8 1.312e+04 2.271e-09
 55.32077     82.9 1.360e+04 2.778e-09
 55.33738     82.9 1.399e+04 3.224e-09
 55.34734     82.9 1.359e+04 2.778e-09
 55.36059     82.9 1.355e+04 2.740e-09
 55.38049     83.1 1.328e+04 2.474e-09
 55.40040     83.4 1.285e+04 2.117e-09
 55.41645     83.6 1.233e+04 1.696e-09
 55.42641     83.4 1.262e+04 1.898e-09
 55.44021     83.3 1.238e+04 1.690e-09
 55.46012     83.0 1.237e+04 1.608e-09
 55.48002     81.9 1.289e+04 1.788e-09
 55.49993     78.3 1.477e+04 2.781e-09
 55.51984     73.6 1.691e+04 5.546e-09
 55.53293     71.5 1.740e+04 9.034e-09
 55.54288     71.4 1.882e+04 1.287e-08
 55.55793     70.0 1.866e+04 1.456e-08
 55.56788     69.9 1.897e+04 1.615e-08
 55.57956     66.2 2.020e+04 1.733e-08
 55.59946     61.3 2.036e+04 1.601e-08
 55.61937     57.5 1.850e+04 1.354e-08
 55.63928     55.5 1.761e+04 8.873e-09
 55.64940     52.7 1.712e+04 5.605e-09
 55.65935     52.8 1.638e+04 4.025e-09
 55.67909     49.1 1.531e+04 3.191e-09
 55.69900     47.5 1.452e+04 3.038e-09
 55.71890     47.3 1.464e+04 3.352e-09
 55.73881     47.0 1.521e+04 3.797e-09
 55.75592     45.4 1.621e+04 4.634e-09
 55.76587     45.8 1.614e+04 4.404e-09
 55.77847     43.4 1.706e+04 6.160e-09
 55.78843     42.5 1.661e+04 5.874e-09
 55.79853     41.8 1.666e+04 7.626e-09
 55.81843     42.5 1.691e+04 8.852e-09
 55.83834     43.2 1.674e+04 8.011e-09
 55.85825     43.9 1.620e+04 4.472e-09
 55.87240     40.2 1.513e+04 2.087e-09
 55.88235     40.4 1.512e+04 2.111e-09
 55.89806     35.5 1.296e+04 1.176e-09
 55.91797     33.5 1.240e+04 9.569e-10
 55.93787     32.1 1.225e+04 9.223e-10
 55.95778     31.1 1.230e+04 9.491e-10
 55.97769     30.2 1.240e+04 9.590e-10
 55.98887     29.2 1.240e+04 9.377e-10
 55.99882     29.1 1.206e+04 7.660e-10
 56.00897     27.9 1.211e+04 7.827e-10
 56.01893     28.6 1.211e+04 7.601e-10
 56.03740     26.8 1.233e+04 8.224e-10
 56.05731     23.7 1.275e+04 9.700e-10
 56.07722     20.1 1.340e+04 1.404e-09
 56.09539     16.7 1.366e+04 2.024e-09
 56.10534     16.8 1.339e+04 1.792e-09
 56.11703     14.1 1.359e+04 2.121e-09
 56.13694     11.5 1.356e+04 2.148e-09
 56.15684      9.0 1.297e+04 1.669e-09
 56.17675      6.0 1.196e+04 1.039e-09
 56.19666      3.2 1.099e+04 6.711e-10
 56.21187      1.5 1.043e+04 5.035e-10
 56.22182      1.2 1.043e+04 5.018e-10
 56.22952      0.3 1.015e+04 4.134e-10
 56.23947      0.4 1.018e+04 4.230e-10
 56.25638     -0.3 9.974e+03 3.695e-10
 56.27628     -0.7 9.895e+03 3.444e-10
 56.29619     -0.8 9.909e+03 3.427e-10
 56.31609     -0.8 9.910e+03 3.467e-10
 56.32834     -0.8 9.876e+03 3.520e-10
 56.33829     -1.4 1.002e+04 4.070e-10
 56.35591     -1.2 1.006e+04 4.207e-10
 56.37581     -1.0 1.009e+04 4.306e-10
 56.39572     -0.8 1.010e+04 4.279e-10
 56.42501     -0.2 1.002e+04 3.863e-10
 56.44491     -1.0 1.030e+04 4.889e-10
 56.45006     -0.8 1.025e+04 4.502e-10
 56.46002     -1.0 1.029e+04 4.435e-10
 56.47535     -1.2 1.031e+04 4.459e-10
 56.50530     -1.3 1.036e+04 4.789e-10
 56.54521     -0.6 1.034e+04 5.087e-10
 56.58503      0.4 1.033e+04 5.362e-10
 56.62484      1.4 1.036e+04 5.614e-10
 56.65805      2.4 1.036e+04 5.663e-10
 56.67416      0.6 1.076e+04 6.450e-10
 56.68076      0.2 1.059e+04 5.595e-10
 56.70447      1.1 1.038e+04 4.821e-10
 56.74428      2.1 1.014e+04 4.079e-10
 56.78409      3.1 9.944e+03 3.409e-10
 56.82390      4.1 9.784e+03 2.885e-10
 56.86372      5.2 9.670e+03 2.508e-10
 56.89100      6.4 9.602e+03 2.240e-10
 56.91091      4.7 9.503e+03 1.967e-10
 56.94334      5.9 9.498e+03 1.808e-10
 56.98316      6.9 9.541e+03 1.702e-10
 57.02297      7.7 9.605e+03 1.654e-10
 57.06278      8.4 9.691e+03 1.682e-10
 57.10194      9.0 9.793e+03 1.857e-10
 57.12185      9.4 9.613e+03 1.360e-10
 57.12395      9.9 9.756e+03 1.665e-10
 57.14386      8.1 9.827e+03 1.965e-10
 57.18222      8.8 1.001e+04 2.776e-10
 57.22203      9.7 1.016e+04 3.694e-10
 57.26185     10.6 1.023e+04 4.207e-10
 57.30166     11.7 1.011e+04 4.187e-10
 57.33699     13.0 9.840e+03 3.510e-10
 57.35690     11.7 9.668e+03 2.772e-10
 57.38128     13.1 9.372e+03 1.844e-10
 57.42110     14.4 9.153e+03 1.265e-10
 57.46091     15.8 9.012e+03 1.025e-10
 57.50072     17.4 8.959e+03 9.749e-11
 57.54054     19.3 8.961e+03 9.783e-11
 57.56294     21.1 9.022e+03 1.074e-10
 57.57244     21.1 9.078e+03 1.108e-10
 57.58985     20.3 9.060e+03 1.052e-10
 57.62016     22.1 9.122e+03 1.122e-10
 57.65997     24.0 9.202e+03 1.208e-10
 57.69979     25.6 9.275e+03 1.303e-10
 57.73960     27.2 9.318e+03 1.412e-10
 57.77941     28.7 9.337e+03 1.503e-10
 57.80289     30.4 9.351e+03 1.536e-10
 57.82279     29.9 9.383e+03 1.632e-10
 57.85904     31.7 9.390e+03 1.639e-10
 57.89885     33.6 9.410e+03 1.482e-10
 57.93866     35.3 9.446e+03 1.311e-10
 57.97848     36.9 9.468e+03 1.206e-10
 58.00403     38.6 9.495e+03 1.182e-10
 58.02158     38.3 9.543e+03 1.303e-10
 58.03584     38.4 9.552e+03 1.289e-10
 58.05810     40.1 9.629e+03 1.434e-10
 58.09791     41.9 9.723e+03 1.665e-10
 58.13773     43.7 9.900e+03 1.940e-10
 58.17754     45.6 1.004e+04 2.222e-10
 58.21735     47.5 1.001e+04 2.303e-10
 58.24888     49.9 9.911e+03 1.918e-10
 58.26879     50.1 9.992e+03 1.956e-10
 58.29698     52.3 9.999e+03 1.512e-10
 58.33679     54.2 9.916e+03 1.159e-10
 58.37660     56.1 9.858e+03 9.208e-11
 58.41642     58.2 9.799e+03 7.926e-11
 58.44512     60.4 9.772e+03 7.260e-11
 58.46503     60.1 9.766e+03 6.849e-11
 58.48183     62.4 9.753e+03 6.591e-11
 58.50173     62.8 9.924e+03 8.477e-11
 58.53586     65.0 9.953e+03 8.186e-11
 58.57567     67.1 9.972e+03 8.183e-11
 58.61548     69.0 1.003e+04 8.491e-11
 58.65529     70.9 1.008e+04 9.357e-11
 58.69487     72.8 1.012e+04 1.057e-10
 58.71478     73.1 1.040e+04 1.746e-10
 58.73492     74.8 1.042e+04 1.916e-10
 58.77473     76.5 1.037e+04 1.904e-10
 58.81455     78.3 1.023e+04 1.736e-10
 58.85436     80.1 1.009e+04 1.440e-10
 58.88621     81.9 9.992e+03 1.143e-10
 58.90612     81.6 1.001e+04 1.284e-10
 58.92782     83.2 9.951e+03 1.083e-10
 58.94772     83.1 9.929e+03 9.262e-11
 58.97380     84.6 9.795e+03 7.983e-11
 59.01361     86.4 9.796e+03 8.018e-11
 59.05342     88.2 9.836e+03 8.510e-11
 59.09324     89.9 9.908e+03 9.992e-11
 59.13305     91.5 1.002e+04 1.306e-10
 59.16077     92.9 1.021e+04 1.908e-10
 59.18067     92.9 9.885e+03 1.167e-10
 59.21267     94.0 1.015e+04 1.745e-10
 59.25249     94.9 1.041e+04 2.828e-10
 59.29230     95.7 1.063e+04 4.280e-10
 59.32730     96.5 1.072e+04 5.438e-10
 59.34721     96.2 1.075e+04 5.388e-10
 59.37193     96.9 1.071e+04 5.668e-10
 59.39372     97.7 1.057e+04 5.294e-10
 59.41362     98.1 1.039e+04 4.727e-10
 59.45155     99.1 1.019e+04 4.211e-10
 59.49136    100.4 9.931e+03 3.320e-10
 59.53118    101.8 9.681e+03 2.469e-10
 59.57099    103.2 9.516e+03 1.902e-10
 59.60676    104.7 9.411e+03 1.643e-10
 59.62666    105.1 9.366e+03 1.330e-10
 59.65062    106.8 9.232e+03 1.266e-10
 59.69043    108.7 9.212e+03 1.268e-10
 59.73024    110.9 9.199e+03 1.289e-10
 59.76839    113.1 9.212e+03 1.329e-10
 59.78830    112.7 9.396e+03 1.588e-10
 59.80987    114.9 9.417e+03 1.535e-10
 59.83971    117.0 9.436e+03 1.438e-10
 59.85961    117.4 9.383e+03 1.420e-10
 59.88949    119.5 9.393e+03 1.359e-10
 59.92931    121.7 9.394e+03 1.343e-10
 59.96912    123.9 9.418e+03 1.364e-10
 60.00893    126.1 9.461e+03 1.444e-10
 60.04874    128.3 9.584e+03 1.765e-10
 60.07265    130.3 9.963e+03 2.497e-10
 60.09256    130.2 9.720e+03 2.136e-10
 60.12837    131.6 1.024e+04 3.233e-10
 60.16818    132.0 1.087e+04 5.309e-10
 60.20800    131.8 1.181e+04 9.634e-10
 60.22939    131.4 1.255e+04 1.461e-09
 60.24930    130.2 1.336e+04 1.984e-09
 60.28570    129.3 1.312e+04 1.633e-09
 60.30560    129.3 1.266e+04 1.422e-09
 60.32743    128.7 1.233e+04 1.112e-09
 60.36725    128.6 1.184e+04 6.820e-10
 60.40706    128.5 1.132e+04 3.647e-10
 60.44687    128.4 1.088e+04 2.233e-10
 60.48669    128.6 1.079e+04 2.006e-10
 60.51865    129.2 1.087e+04 2.129e-10
 60.53855    129.6 1.113e+04 2.973e-10
 60.56631    130.2 1.120e+04 3.114e-10
 60.60612    131.1 1.134e+04 3.502e-10
 60.64594    132.3 1.142e+04 3.813e-10
 60.67048    133.4 1.148e+04 4.083e-10
 60.69039    133.3 1.172e+04 4.931e-10
 60.72556    134.4 1.203e+04 5.496e-10
 60.75159    135.4 1.289e+04 6.749e-10
 60.77150    134.9 1.152e+04 3.340e-10
 60.80519    135.8 1.191e+04 3.692e-10
 60.83495    135.4 1.263e+04 4.379e-10
 60.85476    135.2 1.358e+04 5.018e-10
 60.86787    134.4 1.590e+04 7.906e-10
 60.87783    134.4 1.301e+04 5.688e-10
 60.89083    133.2 1.504e+04 8.471e-10
 60.90078    131.9 1.651e+04 1.285e-09
 60.91448    130.2 1.806e+04 3.029e-09
 60.93439    128.8 1.849e+04 6.118e-09
 60.95429    127.3 1.829e+04 8.502e-09
 60.97420    125.7 1.793e+04 8.294e-09
 60.98435    124.3 1.743e+04 7.026e-09
 60.99430    124.5 1.590e+04 4.267e-09
 61.01401    123.3 1.551e+04 3.635e-09
 61.03392    122.4 1.514e+04 2.900e-09
 61.05382    121.5 1.478e+04 2.279e-09
 61.07373    121.3 1.442e+04 1.842e-09
 61.09087    121.2 1.407e+04 1.542e-09
 61.10082    121.7 1.373e+04 1.201e-09
 61.11147    121.8 1.347e+04 9.896e-10
 61.13148    121.7 1.323e+04 8.978e-10
 61.16350    122.4 1.262e+04 6.708e-10
 61.19758    123.8 1.203e+04 5.259e-10
 61.21749    124.4 1.159e+04 3.688e-10
 61.24313    126.1 1.121e+04 3.008e-10
 61.28294    128.0 1.090e+04 2.477e-10
 61.32276    129.7 1.065e+04 2.107e-10
 61.36257    131.5 1.049e+04 1.948e-10
 61.40238    133.2 1.042e+04 1.892e-10
 61.43053    135.0 1.038e+04 1.923e-10
 61.45044    135.6 1.033e+04 1.906e-10
 61.48201    137.4 1.036e+04 2.000e-10
 61.52182    139.0 1.040e+04 2.129e-10
 61.55266    140.6 1.045e+04 2.327e-10
 61.57257    140.3 1.050e+04 2.288e-10
 61.60145    141.8 1.058e+04 2.687e-10
 61.64126    143.2 1.075e+04 3.388e-10
 61.66348    144.5 1.107e+04 4.655e-10
 61.68339    144.6 1.093e+04 4.351e-10
 61.72088    145.6 1.134e+04 5.880e-10
 61.76070    146.4 1.177e+04 7.360e-10
 61.80051    146.8 1.190e+04 7.656e-10
 61.84032    147.1 1.183e+04 7.191e-10
 61.87652    147.7 1.159e+04 5.785e-10
 61.89643    147.6 1.107e+04 4.470e-10
 61.91995    148.1 1.083e+04 3.681e-10
 61.95976    148.8 1.091e+04 3.423e-10
 61.99375    149.4 1.093e+04 3.466e-10
 62.01366    149.9 1.101e+04 3.497e-10
 62.03939    150.5 1.105e+04 3.794e-10
 62.06915    151.1 1.105e+04 4.161e-10
 62.08896    151.7 1.115e+04 4.649e-10
 62.10886    152.1 1.131e+04 5.254e-10
 62.11923    152.4 1.146e+04 5.965e-10
 62.12918    152.0 1.146e+04 5.974e-10
 62.14868    152.0 1.163e+04 6.667e-10
 62.16858    151.4 1.216e+04 8.168e-10
 62.18849    148.4 1.383e+04 1.500e-09
 62.20840    143.9 1.612e+04 3.391e-09
 62.22328    141.2 1.750e+04 5.672e-09
 62.22893    138.7 1.884e+04 9.026e-09
 62.23136    139.3 1.910e+04 9.525e-09
 62.23566    139.8 1.909e+04 1.046e-08
 62.24318    136.6 2.067e+04 1.849e-08
 62.25309    134.3 2.178e+04 2.929e-08
 62.26304    132.1 2.268e+04 3.571e-08
 62.27299    129.2 2.279e+04 3.504e-08
 62.28295    126.0 2.247e+04 2.835e-08
 62.28887    123.5 2.149e+04 2.053e-08
 62.29384    122.5 2.151e+04 2.045e-08
 62.30788    120.4 2.044e+04 1.239e-08
 62.32784    114.8 1.750e+04 4.282e-09
 62.34223    107.8 1.351e+04 1.446e-09
 62.35218    107.1 1.334e+04 1.642e-09
 62.36765    103.2 1.221e+04 8.792e-10
 62.38755    101.8 1.187e+04 7.853e-10
 62.40746    101.2 1.187e+04 7.869e-10
 62.42737    100.3 1.203e+04 8.243e-10
 62.44460     98.6 1.249e+04 9.977e-10
 62.45455     98.7 1.270e+04 1.088e-09
 62.45870     96.4 1.330e+04 1.629e-09
 62.46865     95.8 1.349e+04 1.738e-09
 62.48709     94.3 1.411e+04 2.914e-09
 62.50699     92.9 1.478e+04 4.091e-09
 62.52690     90.8 1.565e+04 4.598e-09
 62.54681     86.8 1.661e+04 4.832e-09
 62.56522     82.3 1.674e+04 5.201e-09
 62.57517     81.2 1.713e+04 6.710e-09
 62.58662     77.6 1.592e+04 5.498e-09
 62.60652     74.5 1.482e+04 4.037e-09
 62.62643     71.8 1.411e+04 2.614e-09
 62.64634     68.5 1.349e+04 1.555e-09
 62.67630     63.8 1.204e+04 8.907e-10
 62.71621     60.6 1.063e+04 6.114e-10
 62.75602     60.0 1.017e+04 4.837e-10
 62.78841     59.9 1.011e+04 4.345e-10
 62.80832     59.2 9.814e+03 2.872e-10
 62.83564     59.2 9.803e+03 2.903e-10
 62.87546     59.6 9.729e+03 2.983e-10
 62.89584     60.1 9.677e+03 2.990e-10
 62.91575     60.2 9.531e+03 2.524e-10
 62.95508     60.7 9.609e+03 2.733e-10
 62.99490     61.1 9.838e+03 3.311e-10
 63.02136     61.4 1.004e+04 4.059e-10
 63.04127     61.3 1.010e+04 3.927e-10
 63.06447     61.5 1.010e+04 4.348e-10
 63.08428     61.5 1.019e+04 4.653e-10
 63.10419     61.5 1.022e+04 4.716e-10
 63.11619     61.5 1.024e+04 4.768e-10
 63.12614     61.7 1.026e+04 4.750e-10
 63.13764     61.9 1.016e+04 4.273e-10
 63.14759     61.8 1.038e+04 5.234e-10
 63.16390     61.8 1.034e+04 4.957e-10
 63.19386     61.7 1.015e+04 3.853e-10
 63.23377     61.4 1.007e+04 3.504e-10
 63.25431     61.7 9.805e+03 3.116e-10
 63.27422     61.1 1.013e+04 3.673e-10
 63.31340     61.7 9.788e+03 3.108e-10
 63.33693     62.6 9.561e+03 2.622e-10
 63.35684     62.7 9.696e+03 2.954e-10
 63.39302     63.7 9.404e+03 2.318e-10
 63.43284     64.4 9.466e+03 2.237e-10
 63.46735     64.3 9.696e+03 2.538e-10
 63.48726     62.8 9.892e+03 3.359e-10
 63.51246     63.2 1.021e+04 3.911e-10
 63.54222     62.9 1.050e+04 4.781e-10
 63.55728     62.7 1.064e+04 5.747e-10
 63.56723     62.9 1.055e+04 5.215e-10
 63.58194     63.0 1.060e+04 5.875e-10
 63.59358     62.8 1.064e+04 6.027e-10
 63.60354     61.9 1.059e+04 5.648e-10
 63.63180     62.9 1.048e+04 5.344e-10
 63.67171     63.8 1.000e+04 3.728e-10
 63.70030     64.8 9.507e+03 2.234e-10
 63.72021     63.9 9.355e+03 2.002e-10
 63.75134     64.8 9.128e+03 1.386e-10
 63.77802     65.8 8.994e+03 1.151e-10
 63.79793     65.8 9.047e+03 1.297e-10
 63.83097     67.3 9.021e+03 1.299e-10
 63.87078     69.0 9.051e+03 1.380e-10
 63.91059     70.8 9.135e+03 1.538e-10
 63.93325     72.6 9.259e+03 1.756e-10
 63.95316     72.4 9.430e+03 2.150e-10
 63.99022     74.2 9.556e+03 2.351e-10
 64.03003     75.8 9.746e+03 2.578e-10
 64.06984     77.2 9.939e+03 2.790e-10
 64.10966     78.5 1.011e+04 2.878e-10
 64.14629     79.9 1.026e+04 2.922e-10
 64.16620     79.5 1.035e+04 3.293e-10
 64.18928     81.0 1.051e+04 3.565e-10
 64.21901     82.1 1.046e+04 3.449e-10
 64.23882     83.1 1.046e+04 3.680e-10
 64.25876     84.3 1.056e+04 4.084e-10
 64.27252     85.6 1.084e+04 4.687e-10
 64.28248     85.2 1.116e+04 6.092e-10
 64.29857     85.7 1.167e+04 7.304e-10
 64.31848     85.1 1.302e+04 1.185e-09
 64.33838     83.7 1.523e+04 2.621e-09
 64.35326     81.5 1.716e+04 4.692e-09
 64.36317     80.2 1.871e+04 7.238e-09
 64.37312     78.0 2.061e+04 1.292e-08
 64.38308     76.7 2.172e+04 2.368e-08
 64.38890     76.8 2.226e+04 4.378e-08
 64.39388     75.9 2.220e+04 4.293e-08
 64.40298     76.7 2.263e+04 8.048e-08
 64.41294     76.8 2.315e+04 1.348e-07
 64.42289     75.7 2.353e+04 1.667e-07
 64.43284     74.4 2.338e+04 1.449e-07
 64.44216     73.7 2.351e+04 9.491e-08
 64.44714     73.9 2.313e+04 8.814e-08
 64.44932     73.0 2.364e+04 4.967e-08
 64.45429     72.3 2.394e+04 3.373e-08
 64.46270     68.6 2.471e+04 2.138e-08
 64.47265     65.5 2.341e+04 1.732e-08
 64.48261     62.2 2.216e+04 1.407e-08
 64.49547     57.3 1.945e+04 1.178e-08
 64.50547     56.7 1.916e+04 6.514e-09
 64.51754     55.9 1.744e+04 6.135e-09
 64.53745     56.2 1.658e+04 5.262e-09
 64.55735     56.4 1.591e+04 4.065e-09
 64.57726     56.2 1.538e+04 2.950e-09
 64.59717     55.2 1.485e+04 2.185e-09
 64.61199     54.1 1.429e+04 1.763e-09
 64.62195     55.3 1.430e+04 1.800e-09
 64.63698     55.0 1.395e+04 1.664e-09
 64.65689     55.3 1.362e+04 1.566e-09
 64.66996     56.0 1.332e+04 1.421e-09
 64.67991     55.6 1.346e+04 1.635e-09
 64.69670     56.5 1.332e+04 1.454e-09
 64.71661     56.9 1.337e+04 1.234e-09
 64.72847     56.6 1.356e+04 1.074e-09
 64.73842     58.2 1.357e+04 1.303e-09
 64.75642     57.6 1.390e+04 1.216e-09
 64.77633     55.7 1.413e+04 1.343e-09
 64.79623     53.7 1.426e+04 1.770e-09
 64.81614     52.4 1.444e+04 2.595e-09
 64.83499     52.0 1.488e+04 3.768e-09
 64.84494     52.5 1.535e+04 4.501e-09
 64.85595     52.7 1.547e+04 5.176e-09
 64.87586     52.3 1.580e+04 5.112e-09
 64.89050     50.6 1.630e+04 4.596e-09
 64.90046     49.1 1.590e+04 3.773e-09
 64.91567     46.4 1.537e+04 3.096e-09
 64.93558     43.4 1.517e+04 2.938e-09
 64.95146     40.2 1.573e+04 3.209e-09
 64.96142     39.3 1.621e+04 3.817e-09
 64.97539     37.8 1.591e+04 4.706e-09
 64.99530     38.3 1.553e+04 5.786e-09
 65.01520     39.1 1.543e+04 5.929e-09
 65.03511     39.9 1.543e+04 4.891e-09
 65.05502     39.3 1.527e+04 3.719e-09
 65.06794     37.9 1.448e+04 2.922e-09
 65.07789     38.0 1.450e+04 2.664e-09
 65.09483     36.8 1.380e+04 2.180e-09
 65.11105     36.5 1.352e+04 2.044e-09
 65.12100     35.6 1.345e+04 2.199e-09
 65.13464     36.0 1.321e+04 2.112e-09
 65.15455     36.6 1.290e+04 2.010e-09
 65.17445     37.5 1.263e+04 1.894e-09
 65.19436     38.2 1.243e+04 1.793e-09
 65.21427     39.0 1.240e+04 1.607e-09
 65.23417     39.7 1.234e+04 1.382e-09
 65.25408     39.7 1.224e+04 1.154e-09
 65.27399     39.2 1.199e+04 1.036e-09
 65.29093     39.0 1.160e+04 1.031e-09
 65.30089     39.7 1.162e+04 9.936e-10
 65.31380     39.7 1.137e+04 9.552e-10
 65.33160     40.0 1.137e+04 9.550e-10
 65.34155     39.7 1.123e+04 9.118e-10
 65.35361     40.1 1.147e+04 9.860e-10
 65.37352     40.0 1.178e+04 1.059e-09
 65.39342     38.8 1.239e+04 1.278e-09
 65.40741     37.9 1.245e+04 1.657e-09
 65.41736     38.5 1.220e+04 1.375e-09
 65.43324     38.4 1.223e+04 1.780e-09
 65.45314     39.4 1.210e+04 2.062e-09
 65.47305     40.5 1.215e+04 2.092e-09
 65.49296     41.2 1.230e+04 1.880e-09
 65.51286     40.6 1.242e+04 1.632e-09
 65.52388     39.4 1.200e+04 1.402e-09
 65.53383     40.4 1.208e+04 1.415e-09
 65.55214     39.4 1.152e+04 1.268e-09
 65.56209     38.9 1.148e+04 1.321e-09
 65.57258     39.0 1.120e+04 1.224e-09
 65.59249     39.5 1.095e+04 1.123e-09
 65.61240     39.5 1.077e+04 8.620e-10
 65.63040     39.5 1.053e+04 7.707e-10
 65.64035     40.5 1.052e+04 7.711e-10
 65.66226     40.0 9.838e+03 4.598e-10
 65.70217     40.5 8.932e+03 2.737e-10
 65.73712     41.4 8.315e+03 1.723e-10
 65.75702     42.7 8.534e+03 2.093e-10
 65.78180     43.7 8.186e+03 1.505e-10
 65.82161     44.8 7.981e+03 1.198e-10
 65.86142     46.1 7.842e+03 1.032e-10
 65.90123     47.4 7.787e+03 9.246e-11
 65.94105     48.7 7.836e+03 8.908e-11
 65.97007     49.8 7.897e+03 9.272e-11
 65.98997     50.6 8.153e+03 1.293e-10
 66.00338     51.4 8.395e+03 1.560e-10
 66.02329     51.5 8.108e+03 1.277e-10
 66.06049     52.2 8.446e+03 1.720e-10
 66.10030     52.5 8.964e+03 2.579e-10
 66.14011     53.0 9.369e+03 3.509e-10
 66.17992     53.3 9.687e+03 4.319e-10
 66.20302     53.8 9.660e+03 4.448e-10
 66.22292     54.0 1.008e+04 5.853e-10
 66.25955     54.5 9.789e+03 4.501e-10
 66.29936     54.2 9.469e+03 3.193e-10
 66.33918     53.9 9.248e+03 2.677e-10
 66.37899     53.9 9.283e+03 2.749e-10
 66.41606     53.7 9.605e+03 3.415e-10
 66.43596     53.9 9.511e+03 3.164e-10
 66.44447     54.2 9.755e+03 3.952e-10
 66.46438     55.2 9.340e+03 2.847e-10
 66.49843     56.0 9.490e+03 3.529e-10
 66.53824     57.2 9.447e+03 3.567e-10
 66.57805     58.3 9.320e+03 3.035e-10
 66.61786     59.0 9.088e+03 2.330e-10
 66.64901     59.8 8.823e+03 1.841e-10
 66.66891     60.4 8.585e+03 1.500e-10
 66.69749     61.5 8.425e+03 1.329e-10
 66.73730     62.7 8.374e+03 1.262e-10
 66.77712     63.9 8.408e+03 1.325e-10
 66.81693     65.0 8.490e+03 1.426e-10
 66.85674     66.1 8.628e+03 1.577e-10
 66.88195     67.1 8.751e+03 1.829e-10
 66.89087     67.3 8.609e+03 1.597e-10
 66.90547     67.9 8.543e+03 1.432e-10
 66.93637     68.7 8.583e+03 1.490e-10
 66.97618     69.6 8.602e+03 1.558e-10
 67.01599     70.6 8.619e+03 1.683e-10
 67.05581     71.9 8.677e+03 1.862e-10
 67.09500     73.3 8.765e+03 2.069e-10
 67.11490     72.6 8.723e+03 2.020e-10
 67.13543     73.9 8.852e+03 2.217e-10
 67.17524     75.2 8.926e+03 2.295e-10
 67.21506     76.4 8.933e+03 2.271e-10
 67.25487     77.6 8.951e+03 2.229e-10
 67.29468     78.7 9.007e+03 2.256e-10
 67.32665     79.7 9.128e+03 2.360e-10
 67.34001     80.3 9.190e+03 2.517e-10
 67.34785     78.6 8.979e+03 2.049e-10
 67.37431     79.5 9.099e+03 2.170e-10
 67.41412     80.3 9.378e+03 2.557e-10
 67.45393     80.7 9.719e+03 3.127e-10
 67.48370     80.3 9.740e+03 3.392e-10
 67.50351     80.4 9.883e+03 3.966e-10
 67.52341     80.6 1.020e+04 5.062e-10
 67.54332     80.6 1.067e+04 6.779e-10
 67.55695     80.2 1.130e+04 9.305e-10
 67.56438     79.8 1.131e+04 9.499e-10
 67.57065     77.8 1.184e+04 1.176e-09
 67.58313     76.5 1.278e+04 1.722e-09
 67.60304     74.9 1.372e+04 2.563e-09
 67.62294     73.6 1.437e+04 3.580e-09
 67.64285     73.0 1.477e+04 4.330e-09
 67.66276     72.2 1.497e+04 4.522e-09
 67.67717     71.0 1.490e+04 4.259e-09
 67.68713     69.5 1.463e+04 3.741e-09
 67.70257     67.6 1.432e+04 3.281e-09
 67.72248     65.7 1.388e+04 2.915e-09
 67.74238     64.4 1.346e+04 2.652e-09
 67.76229     63.9 1.325e+04 2.478e-09
 67.77750     63.7 1.319e+04 2.343e-09
 67.78745     62.4 1.379e+04 2.954e-09
 67.79365     62.1 1.367e+04 2.669e-09
 67.80360     61.1 1.341e+04 2.328e-09
 67.82201     60.5 1.304e+04 1.941e-09
 67.85197     58.0 1.243e+04 1.326e-09
 67.89188     55.9 1.160e+04 6.909e-10
 67.93169     54.3 1.063e+04 3.793e-10
 67.97150     53.6 9.719e+03 2.628e-10
 68.00688     53.7 9.114e+03 2.314e-10
 68.02679     52.9 8.794e+03 2.112e-10
 68.05113     54.2 8.852e+03 2.320e-10
 68.09094     56.1 9.061e+03 2.607e-10
 68.12070     57.5 9.276e+03 2.972e-10
 68.13312     58.1 9.408e+03 3.166e-10
 68.14307     58.4 9.394e+03 3.320e-10
 68.16042     59.4 9.526e+03 3.621e-10
 68.18032     60.5 9.606e+03 3.960e-10
 68.20023     61.3 9.932e+03 4.662e-10
 68.21859     61.6 1.055e+04 5.676e-10
 68.22854     61.4 1.038e+04 5.835e-10
 68.23964     62.0 1.079e+04 7.195e-10
 68.24959     61.0 1.268e+04 7.297e-10
 68.25995     57.3 2.323e+04 1.089e-09
 68.27986     53.1 2.932e+04 3.073e-09
 68.29474     50.8 3.170e+04 5.857e-09
 68.30275     51.3 3.030e+04 1.040e-08
 68.30773     50.9 2.668e+04 2.328e-08
 68.31459     52.5 2.422e+04 4.433e-08
 68.32455     55.5 2.223e+04 6.839e-08
 68.33374     58.8 2.119e+04 9.280e-08
 68.33872     57.7 2.243e+04 6.597e-08
 68.34445     60.9 2.136e+04 9.053e-08
 68.35441     64.3 2.139e+04 1.144e-07
 68.36099     65.7 2.257e+04 1.547e-07
 68.36597     62.0 2.318e+04 1.402e-07
 68.37431     56.6 2.593e+04 2.378e-07
 68.38427     43.6 2.578e+04 4.459e-07
 68.39422     32.6 2.249e+04 7.097e-07
 68.40417     29.7 2.146e+04 8.441e-07
 68.41413     30.5 2.213e+04 7.312e-07
 68.41923     33.3 2.464e+04 3.816e-07
 68.42420     35.0 2.687e+04 1.759e-07
 68.43403     35.2 3.497e+04 2.829e-08
 68.44399     31.2 4.473e+04 2.721e-09
 68.45394     34.6 4.610e+04 3.346e-09
 68.46389     24.4 3.414e+04 9.214e-10
 68.47249     16.2 1.678e+04 6.179e-10
 68.47747     14.3 1.173e+04 7.024e-10
 68.48380     14.1 1.132e+04 6.932e-10
 68.49375     11.9 1.115e+04 5.973e-10
 68.50371     11.1 1.171e+04 6.005e-10
 68.51366      6.7 1.473e+04 4.747e-10
 68.52361      6.4 2.059e+04 4.550e-10
 68.53073      4.8 2.431e+04 4.224e-10
 68.53570      4.5 1.349e+04 4.508e-10
 68.54352      4.1 1.296e+04 4.651e-10
 68.55347      0.8 1.104e+04 4.858e-10
 68.55926      0.5 1.087e+04 4.987e-10
 68.56424     -0.9 1.140e+04 5.210e-10
 68.57840     -1.6 1.065e+04 5.388e-10
 68.58906     -2.1 1.086e+04 5.864e-10
 68.59901     -0.5 1.007e+04 4.405e-10
 68.61827     -0.1 1.017e+04 4.271e-10
 68.63817     -0.0 1.061e+04 4.165e-10
 68.65808      0.0 1.139e+04 4.355e-10
 68.66963      0.2 1.224e+04 4.847e-10
 68.67959     -5.7 1.514e+04 9.517e-10
 68.69558     -4.6 1.529e+04 1.297e-09
 68.70554     -0.3 1.262e+04 5.736e-10
 68.71780      0.7 1.317e+04 7.434e-10
 68.73770      2.1 1.366e+04 1.013e-09
 68.75761      3.5 1.388e+04 1.341e-09
 68.77752      5.2 1.398e+04 1.704e-09
 68.79742      6.7 1.409e+04 2.072e-09
 68.81206      8.4 1.496e+04 2.662e-09
 68.82201     10.2 1.334e+04 1.580e-09
 68.83724     11.7 1.420e+04 2.064e-09
 68.85714     13.1 1.526e+04 2.737e-09
 68.87705     14.3 1.650e+04 3.713e-09
 68.89018     15.3 1.741e+04 5.066e-09
 68.90013     13.7 1.795e+04 6.703e-09
 68.91686     15.1 1.802e+04 7.237e-09
 68.92853     16.6 1.787e+04 7.529e-09
 68.93848     18.5 1.817e+04 7.223e-09
 68.95667     20.1 1.794e+04 7.450e-09
 68.97658     22.0 1.754e+04 7.408e-09
 68.99649     23.9 1.692e+04 6.863e-09
 69.01639     25.8 1.639e+04 5.533e-09
 69.03505     27.1 1.627e+04 3.922e-09
 69.04500     29.8 1.721e+04 5.552e-09
 69.05118     28.9 1.718e+04 3.230e-09
 69.06109     28.5 1.695e+04 3.074e-09
 69.07104     26.5 1.773e+04 2.122e-09
 69.08099     25.5 1.776e+04 2.076e-09
 69.09095     16.0 2.248e+04 2.113e-09
 69.09817      3.5 3.309e+04 3.387e-09
 69.10314     -7.0 3.727e+04 1.115e-08
 69.11063    -16.7 2.987e+04 2.884e-08
 69.11560    -17.5 2.885e+04 2.562e-08
 69.12081    -22.1 2.531e+04 4.868e-08
 69.13076    -25.3 2.406e+04 6.916e-08
 69.14071    -28.6 2.377e+04 7.952e-08
 69.15066    -32.5 2.511e+04 7.055e-08
 69.15640    -37.2 2.781e+04 4.569e-08
 69.16138    -42.7 2.880e+04 3.671e-08
 69.17057    -49.2 2.685e+04 2.019e-08
 69.18052    -54.3 2.243e+04 1.345e-08
 69.19048    -56.7 1.989e+04 1.037e-08
 69.20043    -57.6 1.900e+04 8.824e-09
 69.20967    -57.7 1.859e+04 7.785e-09
 69.21464    -58.5 1.802e+04 6.610e-09
 69.22034    -58.3 1.798e+04 6.334e-09
 69.23532    -57.9 1.817e+04 6.410e-09
 69.25527    -57.5 1.734e+04 4.778e-09
 69.26800    -57.8 1.606e+04 3.406e-09
 69.27795    -59.6 1.415e+04 2.013e-09
 69.29508    -60.1 1.289e+04 1.636e-09
 69.31499    -59.3 1.244e+04 1.554e-09
 69.33127    -58.0 1.235e+04 1.587e-09
 69.34122    -57.7 1.272e+04 1.956e-09
 69.35480    -56.1 1.274e+04 1.967e-09
 69.37452    -54.7 1.276e+04 1.967e-09
 69.38447    -54.0 1.262e+04 1.822e-09
 69.39462    -52.7 1.261e+04 1.809e-09
 69.41452    -51.4 1.261e+04 1.800e-09
 69.44448    -50.0 1.268e+04 1.819e-09
 69.48439    -47.5 1.250e+04 1.698e-09
 69.52420    -45.3 1.221e+04 1.494e-09
 69.55201    -43.3 1.194e+04 1.327e-09
 69.57192    -43.2 1.126e+04 9.865e-10
 69.59771    -41.2 1.124e+04 1.014e-09
 69.61762    -40.3 1.110e+04 9.223e-10
 69.64364    -38.2 1.105e+04 9.387e-10
 69.68345    -35.9 1.118e+04 9.950e-10
 69.71322    -34.1 1.142e+04 1.106e-09
 69.72394    -33.2 1.142e+04 1.113e-09
 69.73390    -32.7 1.110e+04 9.050e-10
 69.75293    -31.5 1.127e+04 9.702e-10
 69.77236    -30.6 1.133e+04 1.019e-09
 69.78231    -30.7 1.169e+04 1.303e-09
 69.79274    -29.5 1.178e+04 1.394e-09
 69.81265    -28.8 1.175e+04 1.431e-09
 69.83047    -27.5 1.175e+04 1.511e-09
 69.84042    -26.9 1.140e+04 1.227e-09
 69.85246    -25.7 1.144e+04 1.290e-09
 69.87237    -24.4 1.157e+04 1.377e-09
 69.89228    -23.3 1.174e+04 1.456e-09
 69.91218    -22.2 1.194e+04 1.540e-09
 69.93209    -21.0 1.208e+04 1.567e-09
 69.96205    -19.9 1.204e+04 1.427e-09
 69.99310    -18.1 1.202e+04 1.419e-09
 70.01301    -18.5 1.190e+04 1.388e-09
 70.04177    -16.3 1.169e+04 1.262e-09
 70.06361    -14.3 1.146e+04 1.129e-09
 70.08352    -13.3 1.074e+04 7.928e-10
 70.12140    -11.1 1.050e+04 6.917e-10
 70.16121     -8.7 1.036e+04 6.176e-10
 70.20102     -6.3 1.017e+04 5.769e-10
 70.24083     -3.7 1.007e+04 5.405e-10
 70.27665     -1.0 9.961e+03 5.004e-10
 70.29656     -0.2 9.696e+03 4.194e-10
 70.32046      2.5 9.636e+03 3.978e-10
 70.36027      5.1 9.616e+03 3.812e-10
 70.40009      7.6 9.628e+03 3.780e-10
 70.43419     10.0 9.683e+03 3.879e-10
 70.45410      9.6 9.657e+03 3.888e-10
 70.47971     11.7 9.723e+03 4.008e-10
 70.50947     14.1 9.733e+03 4.111e-10
 70.52938     14.5 9.714e+03 4.130e-10
 70.54929     16.5 9.795e+03 4.303e-10
 70.56910     17.0 9.804e+03 4.317e-10
 70.59905     18.5 9.860e+03 4.464e-10
 70.63896     20.8 9.843e+03 4.116e-10
 70.67878     22.5 9.857e+03 3.768e-10
 70.71859     24.3 9.861e+03 3.860e-10
 70.74255     26.3 9.806e+03 3.726e-10
 70.76245     27.2 9.545e+03 3.074e-10
 70.79821     29.3 9.490e+03 2.590e-10
 70.83803     30.9 9.615e+03 2.539e-10
 70.87528     32.1 9.776e+03 2.976e-10
 70.89519     31.6 9.770e+03 2.995e-10
 70.91765     34.0 9.847e+03 3.679e-10
 70.95559     36.6 9.850e+03 3.765e-10
 70.97550     37.3 9.825e+03 3.756e-10
 70.99728     40.3 9.737e+03 3.360e-10
 71.03709     43.2 9.546e+03 2.580e-10
 71.07690     45.4 9.456e+03 1.892e-10
 71.11672     47.4 9.392e+03 1.660e-10
 71.15653     49.7 9.453e+03 1.741e-10
 71.18854     52.0 9.755e+03 2.199e-10
 71.20845     52.6 9.769e+03 2.212e-10
 71.23616     54.5 9.994e+03 2.902e-10
 71.26592     55.6 1.026e+04 4.007e-10
 71.28573     57.1 1.062e+04 5.488e-10
 71.30482     58.6 1.109e+04 7.468e-10
 71.31477     58.5 1.126e+04 8.243e-10
 71.32554     59.8 1.187e+04 1.134e-09
 71.33608     61.0 1.250e+04 1.540e-09
 71.34604     60.6 1.318e+04 2.149e-09
 71.36535     61.8 1.398e+04 2.953e-09
 71.38526     61.9 1.499e+04 4.220e-09
 71.40516     61.6 1.703e+04 7.440e-09
 71.42129     59.8 1.972e+04 1.378e-08
 71.43125     60.6 1.871e+04 1.017e-08
 71.43995     58.3 2.053e+04 1.718e-08
 71.44626     57.5 2.104e+04 2.364e-08
 71.45124     56.8 2.120e+04 2.858e-08
 71.45981     56.5 2.098e+04 4.330e-08
 71.46976     56.7 2.078e+04 5.646e-08
 71.47943     56.8 2.072e+04 5.679e-08
 71.48441     57.0 2.004e+04 2.950e-08
 71.48967     57.3 1.979e+04 2.800e-08
 71.49962     57.6 1.944e+04 2.318e-08
 71.50958     57.7 1.892e+04 1.730e-08
 71.52455     58.0 1.843e+04 1.160e-08
 71.53777     56.7 1.682e+04 4.852e-09
 71.54772     55.7 1.539e+04 3.623e-09
 71.55663     54.6 1.398e+04 1.989e-09
 71.56658     54.1 1.355e+04 1.613e-09
 71.58432     53.4 1.229e+04 9.810e-10
 71.60423     53.7 1.162e+04 7.111e-10
 71.62414     54.7 1.131e+04 5.558e-10
 71.64404     55.7 1.107e+04 4.482e-10
 71.65424     56.7 1.086e+04 3.766e-10
 71.66419     56.9 1.088e+04 3.835e-10
 71.68385     57.7 1.070e+04 3.509e-10
 71.70376     58.5 1.055e+04 3.352e-10
 71.72367     59.4 1.040e+04 3.272e-10
 71.74357     60.5 1.038e+04 3.274e-10
 71.76076     61.5 1.043e+04 3.355e-10
 71.77072     62.0 1.055e+04 3.878e-10
 71.77718     62.8 1.067e+04 4.074e-10
 71.78713     62.7 1.067e+04 4.122e-10
 71.80329     63.5 1.086e+04 4.535e-10
 71.82320     63.9 1.112e+04 5.432e-10
 71.84311     64.2 1.145e+04 7.085e-10
 71.86301     64.2 1.207e+04 9.972e-10
 71.87724     64.0 1.295e+04 1.514e-09
 71.88719     63.6 1.369e+04 1.991e-09
 71.90283     63.6 1.488e+04 3.265e-09
 71.92273     63.7 1.592e+04 4.802e-09
 71.94264     64.0 1.676e+04 6.432e-09
 71.96254     64.6 1.689e+04 7.088e-09
 71.98245     64.9 1.716e+04 7.877e-09
 71.99371     65.2 1.750e+04 8.506e-09
 71.99903     65.2 1.751e+04 8.153e-09
 72.00767     64.5 1.836e+04 1.130e-08
 72.02226     65.2 1.800e+04 9.694e-09
 72.04217     65.7 1.780e+04 8.300e-09
 72.06208     65.9 1.764e+04 7.167e-09
 72.08198     66.2 1.765e+04 6.486e-09
 72.10023     66.6 1.764e+04 6.438e-09
 72.11019     67.0 1.679e+04 4.495e-09
 72.12180     67.5 1.699e+04 4.610e-09
 72.14170     68.1 1.700e+04 4.856e-09
 72.16161     69.2 1.703e+04 5.381e-09
 72.18152     70.1 1.723e+04 6.236e-09
 72.20142     71.0 1.742e+04 7.317e-09
 72.21671     72.1 1.770e+04 8.709e-09
 72.22360     72.6 1.708e+04 5.981e-09
 72.22822     72.2 1.679e+04 5.389e-09
 72.24123     73.2 1.745e+04 7.346e-09
 72.26114     73.9 1.834e+04 1.070e-08
 72.28105     74.6 1.927e+04 1.542e-08
 72.30095     75.3 2.002e+04 2.043e-08
 72.31584     75.5 2.025e+04 2.248e-08
 72.32574     75.7 2.055e+04 2.563e-08
 72.33308     76.1 2.081e+04 2.823e-08
 72.34308     76.8 1.960e+04 1.509e-08
 72.36067     77.1 1.984e+04 1.581e-08
 72.38058     77.4 1.976e+04 1.474e-08
 72.40049     77.9 1.936e+04 1.222e-08
 72.42039     78.4 1.841e+04 8.699e-09
 72.43881     78.5 1.706e+04 5.648e-09
 72.44817     78.2 1.626e+04 4.377e-09
 72.44965     79.1 1.567e+04 4.116e-09
 72.46021     79.3 1.494e+04 3.069e-09
 72.48011     79.3 1.432e+04 2.336e-09
 72.50002     79.4 1.376e+04 1.930e-09
 72.51992     79.8 1.335e+04 1.725e-09
 72.53983     80.6 1.304e+04 1.644e-09
 72.55618     81.7 1.287e+04 1.649e-09
 72.56613     82.5 1.292e+04 1.556e-09
 72.57964     83.5 1.278e+04 1.532e-09
 72.59955     84.5 1.268e+04 1.498e-09
 72.61946     85.4 1.257e+04 1.430e-09
 72.63936     86.3 1.258e+04 1.407e-09
 72.65927     87.0 1.265e+04 1.424e-09
 72.67265     87.4 1.274e+04 1.447e-09
 72.68260     88.1 1.263e+04 1.338e-09
 72.69908     88.5 1.293e+04 1.487e-09
 72.71899     88.6 1.344e+04 1.840e-09
 72.73890     88.8 1.403e+04 2.411e-09
 72.75880     89.1 1.461e+04 3.162e-09
 72.77871     89.5 1.511e+04 3.969e-09
 72.78912     89.7 1.546e+04 4.599e-09
 72.79908     90.0 1.579e+04 5.085e-09
 72.81852     90.3 1.615e+04 5.483e-09
 72.83843     90.1 1.619e+04 5.402e-09
 72.85331     89.6 1.643e+04 5.696e-09
 72.86321     89.2 1.650e+04 5.618e-09
 72.87317     88.2 1.652e+04 5.342e-09
 72.88312     87.3 1.643e+04 5.108e-09
 72.88976     86.0 1.639e+04 4.871e-09
 72.89473     85.5 1.737e+04 6.360e-09
 72.90052     84.3 1.730e+04 6.294e-09
 72.90550     84.8 1.780e+04 7.098e-09
 72.91298     83.6 1.746e+04 6.626e-09
 72.92293     82.6 1.686e+04 5.865e-09
 72.93791     82.2 1.700e+04 7.117e-09
 72.95787     82.0 1.564e+04 4.533e-09
 72.97777     81.0 1.425e+04 2.425e-09
 72.99768     78.9 1.287e+04 1.270e-09
 73.01212     77.1 1.153e+04 7.706e-10
 73.02207     77.3 1.169e+04 8.110e-10
 73.03749     76.9 1.076e+04 5.980e-10
 73.05740     77.6 1.036e+04 4.960e-10
 73.07730     79.0 1.035e+04 4.449e-10
 73.09721     80.8 1.037e+04 3.826e-10
 73.11040     81.4 1.040e+04 3.646e-10
 73.12035     80.4 1.051e+04 3.942e-10
 73.12859     81.7 1.039e+04 3.516e-10
 73.13855     81.9 1.046e+04 3.920e-10
 73.15693     83.0 1.039e+04 3.669e-10
 73.17684     84.3 1.029e+04 3.453e-10
 73.19674     85.4 1.027e+04 3.362e-10
 73.21665     86.7 1.016e+04 3.246e-10
 73.23512     87.9 1.011e+04 3.237e-10
 73.24507     88.3 1.032e+04 3.853e-10
 73.25646     89.5 1.031e+04 3.884e-10
 73.27637     90.8 1.031e+04 3.971e-10
 73.29628     91.9 1.034e+04 4.132e-10
 73.31618     93.1 1.041e+04 4.390e-10
 73.33095     94.2 1.056e+04 4.764e-10
 73.34090     92.6 1.200e+04 8.239e-10
 73.35159     93.6 1.216e+04 9.169e-10
 73.36154     93.8 1.322e+04 1.637e-09
 73.37590     94.8 1.328e+04 1.831e-09
 73.39581     95.7 1.334e+04 2.056e-09
 73.41571     96.8 1.337e+04 2.284e-09
 73.43562     97.9 1.341e+04 2.491e-09
 73.45553     99.1 1.344e+04 2.628e-09
 73.46806    100.1 1.344e+04 2.636e-09
 73.47802    101.0 1.399e+04 3.518e-09
 73.49534    101.9 1.395e+04 3.335e-09
 73.51525    102.5 1.372e+04 2.932e-09
 73.53515    103.1 1.332e+04 2.423e-09
 73.55149    103.7 1.281e+04 1.917e-09
 73.56144    102.8 1.276e+04 1.814e-09
 73.57458    103.4 1.222e+04 1.432e-09
 73.58454    103.7 1.222e+04 1.422e-09
 73.59487    104.3 1.175e+04 1.144e-09
 73.61478    104.9 1.135e+04 9.416e-10
 73.63468    105.4 1.100e+04 7.806e-10
 73.65459    105.8 1.071e+04 6.618e-10
 73.67450    106.3 1.047e+04 5.811e-10
 73.69106    106.8 1.029e+04 5.325e-10
 73.70101    107.4 1.034e+04 5.589e-10
 73.71431    108.0 1.016e+04 5.128e-10
 73.73422    108.6 1.002e+04 4.826e-10
 73.75412    109.4 9.838e+03 4.549e-10
 73.77204    109.8 1.007e+04 4.467e-10
 73.78199    109.8 1.012e+04 4.398e-10
 73.79394    110.0 1.014e+04 4.400e-10
 73.82389    111.5 1.002e+04 4.038e-10
 73.86380    112.3 1.035e+04 4.157e-10
 73.90362    112.1 1.113e+04 4.860e-10
 73.92411    111.4 1.135e+04 4.366e-10
 73.94401    113.0 1.052e+04 3.477e-10
 73.97319    110.0 1.272e+04 5.522e-10
 73.99258    108.9 1.408e+04 1.004e-09
 74.00263    112.3 1.162e+04 3.769e-10
 74.01300    109.5 1.468e+04 1.227e-09
 74.03053    108.8 1.592e+04 2.848e-09
 74.04048    110.7 1.361e+04 8.542e-10
 74.05272    109.8 1.507e+04 1.883e-09
 74.07263    108.8 1.618e+04 3.523e-09
 74.09253    107.5 1.709e+04 5.656e-09
 74.11244    106.3 1.775e+04 7.971e-09
 74.13235    105.3 1.802e+04 9.705e-09
 74.14700    105.0 1.793e+04 9.874e-09
 74.15696    106.2 1.744e+04 8.547e-09
 74.17216    106.5 1.742e+04 9.003e-09
 74.19206    107.0 1.714e+04 8.541e-09
 74.21197    107.7 1.678e+04 7.216e-09
 74.22308    108.2 1.611e+04 4.880e-09
 74.23303    108.8 1.606e+04 5.070e-09
 74.25178    108.7 1.519e+04 3.022e-09
 74.26348    107.8 1.395e+04 1.811e-09
 74.27343    110.5 1.489e+04 2.702e-09
 74.29160    109.5 1.374e+04 1.668e-09
 74.31150    108.3 1.261e+04 1.313e-09
 74.33141    107.8 1.236e+04 1.280e-09
 74.35132    107.8 1.244e+04 1.396e-09
 74.37000    108.1 1.305e+04 1.798e-09
 74.37995    109.2 1.249e+04 1.416e-09
 74.39113    109.6 1.308e+04 1.823e-09
 74.41104    110.3 1.378e+04 2.431e-09
 74.43094    111.3 1.436e+04 3.036e-09
 74.44363    112.1 1.468e+04 3.311e-09
 74.45358    112.3 1.449e+04 3.023e-09
 74.47075    112.8 1.450e+04 2.993e-09
 74.48647    113.4 1.435e+04 2.769e-09
 74.49643    114.1 1.381e+04 2.206e-09
 74.51057    114.7 1.359e+04 2.017e-09
 74.53047    115.1 1.327e+04 1.781e-09
 74.55038    115.5 1.295e+04 1.572e-09
 74.57029    115.8 1.268e+04 1.419e-09
 74.59019    116.2 1.246e+04 1.313e-09
 74.60295    116.8 1.231e+04 1.251e-09
 74.61290    117.7 1.228e+04 1.224e-09
 74.63001    118.4 1.224e+04 1.222e-09
 74.64991    119.2 1.221e+04 1.223e-09
 74.66417    120.2 1.218e+04 1.217e-09
 74.67412    120.2 1.235e+04 1.323e-09
 74.68973    121.3 1.235e+04 1.354e-09
 74.70947    122.6 1.226e+04 1.329e-09
 74.71942    123.2 1.240e+04 1.364e-09
 74.72954    124.4 1.236e+04 1.354e-09
 74.74944    125.8 1.224e+04 1.298e-09
 74.76935    127.1 1.203e+04 1.179e-09
 74.78926    128.4 1.176e+04 1.025e-09
 74.80916    129.8 1.145e+04 8.677e-10
 74.82594    131.1 1.113e+04 7.245e-10
 74.83590    131.4 1.142e+04 8.380e-10
 74.84898    132.6 1.111e+04 6.972e-10
 74.86888    133.8 1.083e+04 5.873e-10
 74.88472    134.8 1.058e+04 5.001e-10
 74.89467    134.6 1.057e+04 5.117e-10
 74.90870    135.4 1.029e+04 4.331e-10
 74.92860    136.3 1.006e+04 3.805e-10
 74.94242    137.2 1.003e+04 3.731e-10
 74.95237    137.2 1.024e+04 4.207e-10
 74.96842    138.1 1.025e+04 4.227e-10
 74.98832    139.1 1.032e+04 4.343e-10
 75.00823    139.9 1.050e+04 4.693e-10
 75.02813    140.7 1.078e+04 5.285e-10
 75.04804    141.5 1.109e+04 6.056e-10
 75.05889    142.4 1.140e+04 6.918e-10
 75.06884    141.9 1.151e+04 7.430e-10
 75.08785    142.7 1.173e+04 8.163e-10
 75.10526    143.4 1.189e+04 8.675e-10
 75.11521    142.9 1.137e+04 7.049e-10
 75.12767    143.5 1.154e+04 7.495e-10
 75.14757    144.0 1.166e+04 7.812e-10
 75.16541    144.4 1.176e+04 7.974e-10
 75.17537    143.8 1.171e+04 7.834e-10
 75.18739    144.0 1.175e+04 7.726e-10
 75.20729    143.8 1.180e+04 7.664e-10
 75.22720    143.4 1.188e+04 7.771e-10
 75.24711    142.5 1.220e+04 8.418e-10
 75.26701    140.5 1.314e+04 1.091e-09
 75.28189    137.7 1.470e+04 1.678e-09
 75.29184    137.3 1.397e+04 1.355e-09
 75.30682    134.5 1.543e+04 2.115e-09
 75.32581    132.1 1.647e+04 2.881e-09
 75.33576    129.9 1.583e+04 2.533e-09
 75.34664    127.2 1.577e+04 2.497e-09
 75.36654    124.8 1.537e+04 2.233e-09
 75.38645    122.6 1.471e+04 1.777e-09
 75.39836    120.6 1.402e+04 1.316e-09
 75.40831    120.5 1.398e+04 1.316e-09
 75.42626    118.1 1.436e+04 1.120e-09
 75.44617    114.7 1.479e+04 1.137e-09
 75.46608    110.4 1.560e+04 1.248e-09
 75.48598    105.6 1.575e+04 1.638e-09
 75.50086    104.0 1.596e+04 1.811e-09
 75.50976     92.6 3.439e+04 1.961e-09
 75.51474     92.8 3.345e+04 2.053e-09
 75.52072     51.3 6.525e+04 9.068e-09
 75.53067     31.9 3.209e+04 3.017e-07
 75.53811     23.0 2.086e+04 2.492e-06
 75.54132     15.5 2.091e+04 3.516e-06
 75.54381     14.9 2.139e+04 2.699e-06
 75.54804      1.0 2.362e+04 2.485e-06
 75.55302    -18.3 2.975e+04 1.317e-06
 75.55616    -42.5 4.577e+04 1.424e-07
 75.55865    -46.2 4.513e+04 1.173e-07
 75.56297    -60.1 3.679e+04 1.112e-07
 75.56797    -69.4 3.079e+04 1.155e-07
 75.57297    -70.3 3.240e+04 5.998e-08
 75.58044    -83.1 2.395e+04 3.788e-08
 75.59039    -87.9 2.330e+04 2.025e-08
 75.60035    -91.6 2.182e+04 1.114e-08
 75.61030    -94.0 2.095e+04 6.939e-09
 75.62025    -95.9 1.977e+04 4.520e-09
 75.62623    -97.6 1.865e+04 3.150e-09
 75.63121    -96.2 1.886e+04 3.504e-09
 75.64518    -98.5 1.772e+04 2.566e-09
 75.66514   -102.9 1.545e+04 1.582e-09
 75.68505   -105.7 1.470e+04 1.359e-09
 75.70495   -107.1 1.478e+04 1.373e-09
 75.72486   -108.4 1.546e+04 1.709e-09
 75.73783   -109.4 1.599e+04 2.192e-09
 75.74778   -109.4 1.679e+04 3.295e-09
 75.76467   -109.8 1.696e+04 3.901e-09
 75.77685   -110.1 1.691e+04 4.182e-09
 75.78680   -108.9 1.644e+04 3.249e-09
 75.80448   -109.2 1.638e+04 3.335e-09
 75.82439   -109.2 1.608e+04 3.310e-09
 75.84430   -109.2 1.563e+04 3.023e-09
 75.86420   -109.0 1.548e+04 3.097e-09
 75.88411   -108.9 1.499e+04 2.608e-09
 75.90402   -108.8 1.462e+04 2.269e-09
 75.92392   -108.8 1.436e+04 2.040e-09
 75.94383   -108.6 1.420e+04 1.899e-09
 75.96083   -108.3 1.412e+04 1.855e-09
 75.97078   -108.6 1.411e+04 1.834e-09
 75.98364   -108.1 1.409e+04 1.821e-09
 75.99740   -107.7 1.414e+04 1.848e-09
 76.00735   -106.7 1.409e+04 1.919e-09
 76.02346   -106.4 1.432e+04 2.075e-09
 76.04336   -106.0 1.457e+04 2.256e-09
 76.06327   -105.6 1.479e+04 2.428e-09
 76.07730   -105.2 1.497e+04 2.566e-09
 76.08725   -105.5 1.488e+04 2.350e-09
 76.10308   -105.3 1.501e+04 2.455e-09
 76.12299   -105.0 1.507e+04 2.525e-09
 76.14289   -104.8 1.509e+04 2.541e-09
 76.16280   -104.5 1.494e+04 2.480e-09
 76.18271   -104.3 1.470e+04 2.352e-09
 76.19377   -104.1 1.445e+04 2.222e-09
 76.20373   -104.5 1.476e+04 2.482e-09
 76.21794   -104.1 1.457e+04 2.426e-09
 76.22789   -103.0 1.401e+04 2.049e-09
 76.24243   -102.6 1.383e+04 1.974e-09
 76.26233   -102.1 1.378e+04 1.958e-09
 76.28224   -101.6 1.378e+04 2.001e-09
 76.30030   -101.1 1.384e+04 2.106e-09
 76.31025   -101.1 1.414e+04 2.394e-09
 76.32205   -100.6 1.415e+04 2.499e-09
 76.34196   -100.1 1.413e+04 2.535e-09
 76.36186    -99.7 1.408e+04 2.538e-09
 76.38177    -99.1 1.383e+04 2.461e-09
 76.40168    -98.4 1.353e+04 2.262e-09
 76.41677    -97.7 1.320e+04 2.014e-09
 76.42672    -97.8 1.360e+04 2.407e-09
 76.43849    -97.0 1.330e+04 2.145e-09
 76.44844    -96.3 1.287e+04 1.741e-09
 76.46140    -95.5 1.256e+04 1.504e-09
 76.48130    -94.7 1.225e+04 1.279e-09
 76.50121    -94.0 1.194e+04 1.070e-09
 76.52112    -93.4 1.162e+04 8.814e-10
 76.53324    -92.7 1.131e+04 7.241e-10
 76.54320    -92.5 1.172e+04 8.780e-10
 76.56093    -91.9 1.137e+04 7.007e-10
 76.58084    -91.4 1.102e+04 5.615e-10
 76.60074    -90.9 1.067e+04 4.582e-10
 76.62065    -90.5 1.037e+04 3.850e-10
 76.63977    -90.1 1.009e+04 3.313e-10
 76.64972    -90.0 1.009e+04 3.322e-10
 76.65903    -89.6 9.892e+03 2.978e-10
 76.66899    -88.1 9.756e+03 2.340e-10
 76.69042    -87.2 9.739e+03 2.282e-10
 76.73033    -86.4 9.876e+03 2.344e-10
 76.75634    -86.9 1.032e+04 3.033e-10
 76.76619    -86.8 1.030e+04 3.070e-10
 76.77990    -86.7 1.053e+04 4.006e-10
 76.79981    -86.0 1.071e+04 5.187e-10
 76.81971    -85.0 1.089e+04 6.430e-10
 76.83962    -84.0 1.108e+04 7.663e-10
 76.85953    -83.3 1.133e+04 8.828e-10
 76.87271    -83.0 1.166e+04 1.009e-09
 76.88267    -82.8 1.184e+04 1.111e-09
 76.88953    -82.8 1.234e+04 1.332e-09
 76.89948    -82.9 1.294e+04 1.660e-09
 76.91924    -83.2 1.373e+04 2.210e-09
 76.93915    -83.4 1.451e+04 2.946e-09
 76.95906    -83.3 1.521e+04 3.804e-09
 76.97896    -83.2 1.571e+04 4.552e-09
 76.98919    -83.3 1.590e+04 4.822e-09
 76.99914    -82.6 1.618e+04 5.072e-09
 77.01878    -82.9 1.622e+04 5.144e-09
 77.03868    -83.1 1.600e+04 4.902e-09
 77.05859    -83.5 1.553e+04 4.173e-09
 77.07850    -84.2 1.501e+04 3.459e-09
 77.09571    -85.1 1.451e+04 2.926e-09
 77.10566    -83.9 1.507e+04 3.525e-09
 77.11008    -84.6 1.469e+04 3.074e-09
 77.12003    -84.0 1.487e+04 3.590e-09
 77.13822    -84.5 1.472e+04 3.322e-09
 77.15812    -85.2 1.447e+04 2.925e-09
 77.17803    -86.1 1.406e+04 2.412e-09
 77.19793    -87.3 1.350e+04 1.893e-09
 77.21218    -88.9 1.288e+04 1.468e-09
 77.22214    -87.9 1.336e+04 1.707e-09
 77.23775    -89.8 1.276e+04 1.408e-09
 77.25765    -91.7 1.238e+04 1.251e-09
 77.27756    -93.4 1.223e+04 1.197e-09
 77.29747    -95.1 1.219e+04 1.184e-09
 77.31737    -96.8 1.216e+04 1.182e-09
 77.32866    -98.5 1.211e+04 1.186e-09
 77.33195    -97.7 1.255e+04 1.432e-09
 77.34057    -97.4 1.250e+04 1.439e-09
 77.35719    -98.9 1.227e+04 1.330e-09
 77.37709   -100.4 1.206e+04 1.230e-09
 77.39700   -102.2 1.202e+04 1.204e-09
 77.41691   -105.3 1.266e+04 1.227e-09
 77.43518   -110.5 1.540e+04 1.700e-09
 77.44513   -111.1 1.600e+04 1.882e-09
 77.45672   -116.4 1.770e+04 3.734e-09
 77.47662   -120.1 1.817e+04 6.740e-09
 77.49653   -122.3 1.826e+04 9.270e-09
 77.51644   -124.0 1.826e+04 9.960e-09
 77.53634   -125.7 1.808e+04 9.475e-09
 77.55117   -127.7 1.746e+04 6.453e-09
 77.55652   -124.7 1.854e+04 1.112e-08
 77.56161   -125.7 1.822e+04 1.007e-08
 77.57616   -127.2 1.733e+04 6.098e-09
 77.59606   -129.6 1.615e+04 3.352e-09
 77.61597   -133.3 1.425e+04 1.651e-09
 77.63588   -136.8 1.191e+04 8.679e-10
 77.65578   -138.8 1.093e+04 6.483e-10
 77.66813   -139.4 1.072e+04 6.080e-10
 77.67808   -139.4 1.103e+04 7.103e-10
 77.69560   -139.7 1.101e+04 7.134e-10
 77.71550   -139.9 1.118e+04 7.970e-10
 77.73541   -139.9 1.146e+04 9.494e-10
 77.75531   -139.8 1.173e+04 1.133e-09
 77.77171   -139.4 1.198e+04 1.321e-09
 77.78109   -139.1 1.221e+04 1.456e-09
 77.78460   -138.9 1.257e+04 1.672e-09
 77.79513   -138.5 1.272e+04 1.782e-09
 77.81503   -138.1 1.275e+04 1.826e-09
 77.83494   -137.8 1.274e+04 1.834e-09
 77.85485   -137.4 1.259e+04 1.758e-09
 77.87475   -136.8 1.231e+04 1.553e-09
 77.89112   -136.0 1.197e+04 1.306e-09
 77.90108   -136.1 1.173e+04 1.134e-09
 77.91457   -135.5 1.139e+04 9.442e-10
 77.93447   -134.9 1.109e+04 7.991e-10
 77.95438   -134.3 1.082e+04 6.934e-10
 77.97429   -133.7 1.059e+04 6.175e-10
 77.99226   -132.9 1.039e+04 5.593e-10
 78.00221   -132.3 1.019e+04 4.781e-10
 78.00760   -131.2 1.005e+04 4.272e-10
 78.01755   -131.2 1.003e+04 4.286e-10
 78.04406   -130.0 9.994e+03 4.094e-10
 78.08397   -128.2 9.954e+03 3.989e-10
 78.12378   -126.1 9.934e+03 3.938e-10
 78.16359   -124.1 9.933e+03 3.950e-10
 78.20340   -122.2 9.896e+03 4.002e-10
 78.23069   -121.2 9.933e+03 4.249e-10
 78.24055   -121.9 1.012e+04 4.937e-10
 78.25298   -121.2 1.008e+04 4.947e-10
 78.27288   -120.4 1.005e+04 4.936e-10
 78.29279   -119.6 1.002e+04 4.928e-10
 78.31269   -118.8 1.000e+04 4.946e-10
 78.33260   -117.9 9.994e+03 4.961e-10
 78.34707   -117.0 9.966e+03 4.956e-10
 78.35702   -117.4 1.016e+04 5.698e-10
 78.37241   -116.2 1.001e+04 5.447e-10
 78.39232   -114.5 9.819e+03 4.916e-10
 78.41223   -112.8 9.673e+03 4.405e-10
 78.43345   -111.4 9.599e+03 4.063e-10
 78.45335   -110.8 9.600e+03 4.032e-10
 78.46364   -109.9 9.532e+03 3.767e-10
 78.48364   -109.8 9.489e+03 3.627e-10
 78.52191   -107.8 9.280e+03 3.192e-10
 78.56172   -105.2 9.030e+03 2.771e-10
 78.60153   -102.4 8.864e+03 2.508e-10
 78.64135    -99.6 8.804e+03 2.413e-10
 78.67678    -96.8 8.795e+03 2.396e-10
 78.69668    -96.9 9.023e+03 2.832e-10
 78.72097    -94.2 9.090e+03 2.981e-10
 78.76078    -91.6 9.173e+03 3.197e-10
 78.80060    -89.0 9.253e+03 3.442e-10
 78.84041    -86.3 9.299e+03 3.639e-10
 78.87463    -83.6 9.318e+03 3.763e-10
 78.89454    -84.2 9.527e+03 4.448e-10
 78.90973    -81.5 9.475e+03 4.309e-10
 78.92963    -81.9 9.558e+03 4.623e-10
 78.95985    -79.3 9.456e+03 4.200e-10
 78.99966    -77.0 9.368e+03 3.807e-10
 79.03947    -75.0 9.279e+03 3.475e-10
 79.07929    -73.0 9.191e+03 3.243e-10
 79.11910    -70.8 9.142e+03 3.154e-10
 79.14268    -68.6 9.131e+03 3.186e-10
 79.16258    -69.2 9.283e+03 3.567e-10
 79.19873    -67.0 9.314e+03 3.745e-10
 79.23854    -64.8 9.349e+03 3.882e-10
 79.27835    -62.7 9.342e+03 3.851e-10
 79.31572    -60.8 9.303e+03 3.656e-10
 79.33563    -61.1 9.280e+03 3.565e-10
 79.35572    -59.3 9.159e+03 3.199e-10
 79.37562    -59.9 9.155e+03 3.238e-10
 79.39779    -58.2 9.104e+03 3.129e-10
 79.43760    -56.4 9.152e+03 3.219e-10
 79.47742    -54.7 9.278e+03 3.496e-10
 79.51723    -53.1 9.413e+03 3.798e-10
 79.55704    -51.6 9.490e+03 3.925e-10
 79.58867    -50.1 9.539e+03 3.871e-10
 79.60857    -50.6 9.648e+03 4.103e-10
 79.63667    -49.4 9.489e+03 3.402e-10
 79.67648    -48.2 9.262e+03 2.698e-10
 79.71629    -46.8 9.042e+03 2.133e-10
 79.75611    -45.3 8.877e+03 1.738e-10
 79.77672    -43.8 8.792e+03 1.470e-10
 79.79663    -44.4 8.772e+03 1.459e-10
 79.82161    -42.7 8.664e+03 1.216e-10
 79.84152    -42.8 8.436e+03 1.191e-10
 79.87554    -40.8 8.385e+03 1.007e-10
 79.91536    -38.7 8.374e+03 8.437e-11
 79.95517    -36.6 8.351e+03 7.226e-11
 79.99498    -34.5 8.363e+03 6.647e-11
 80.03466    -32.5 8.375e+03 6.528e-11
 80.07447    -30.6 8.568e+03 8.680e-11
 80.11442    -28.7 8.729e+03 1.056e-10
 80.15423    -26.8 8.890e+03 1.248e-10
 80.19405    -24.8 9.026e+03 1.386e-10
 80.21781    -22.8 9.109e+03 1.459e-10
 80.23772    -22.7 9.134e+03 1.484e-10
 80.26761    -20.7 9.172e+03 1.518e-10
 80.28751    -21.2 9.292e+03 1.773e-10
 80.31349    -19.4 9.278e+03 1.778e-10
 80.35330    -17.6 9.254e+03 1.804e-10
 80.39311    -15.7 9.260e+03 1.873e-10
 80.43292    -13.6 9.269e+03 1.931e-10
 80.47274    -11.6 9.272e+03 1.960e-10
 80.50055     -9.5 9.232e+03 1.907e-10
 80.52046    -10.1 9.153e+03 1.732e-10
 80.55236     -7.9 9.064e+03 1.607e-10
 80.59218     -5.7 8.999e+03 1.525e-10
 80.63199     -3.5 8.929e+03 1.476e-10
 80.65890     -1.1 8.881e+03 1.455e-10
 80.67881     -0.4 8.936e+03 1.335e-10
 80.71161      2.1 8.887e+03 1.288e-10
 80.73350      4.6 8.888e+03 1.280e-10
 80.75341      4.3 8.927e+03 1.321e-10
 80.79124      6.3 9.134e+03 1.467e-10
 80.83105      7.4 9.501e+03 2.214e-10
 80.87087      8.7 9.996e+03 4.071e-10
 80.91068     10.5 1.061e+04 6.978e-10
 80.94654     12.5 1.110e+04 9.099e-10
 80.96645     12.2 1.138e+04 1.054e-09
 80.99030     14.0 1.147e+04 1.085e-09
 81.03012     15.8 1.081e+04 6.535e-10
 81.06993     17.0 1.003e+04 3.426e-10
 81.09999     18.2 9.499e+03 2.102e-10
 81.11990     19.7 1.007e+04 3.290e-10
 81.14956     20.9 9.707e+03 2.595e-10
 81.17949     22.9 9.593e+03 2.459e-10
 81.19940     23.1 9.461e+03 2.492e-10
 81.22918     25.5 9.514e+03 2.763e-10
 81.26899     28.1 9.673e+03 3.083e-10
 81.30881     30.6 9.854e+03 3.498e-10
 81.34862     32.9 9.971e+03 3.973e-10
 81.38843     35.5 1.001e+04 4.486e-10
 81.41244     38.4 9.997e+03 4.550e-10
 81.43235     39.0 9.958e+03 4.380e-10
 81.46806     42.1 9.967e+03 4.184e-10
 81.50787     45.1 9.907e+03 3.726e-10
 81.54108     47.8 9.784e+03 3.140e-10
 81.56099     48.5 9.558e+03 2.624e-10
 81.58750     51.3 9.372e+03 2.136e-10
 81.62548     54.1 9.184e+03 1.778e-10
 81.64539     54.9 9.390e+03 2.115e-10
 81.66712     57.8 9.339e+03 2.049e-10
 81.70694     60.7 9.312e+03 2.060e-10
 81.74675     63.7 9.385e+03 2.196e-10
 81.78656     66.6 9.427e+03 2.300e-10
 81.82637     69.7 9.416e+03 2.301e-10
 81.85843     72.6 9.478e+03 2.334e-10
 81.87834     73.7 1.011e+04 3.853e-10
 81.90600     76.4 1.008e+04 3.606e-10
 81.93576     78.8 1.012e+04 3.169e-10
 81.95557     79.2 1.014e+04 3.065e-10
 81.97471     81.3 1.012e+04 2.886e-10
 81.98467     81.8 1.030e+04 3.435e-10
 81.99193     83.3 1.047e+04 3.361e-10
 82.00189     84.5 1.020e+04 3.334e-10
 82.01529     86.2 1.012e+04 3.028e-10
 82.03520     87.4 1.026e+04 2.868e-10
 82.05510     88.6 1.064e+04 2.925e-10
 82.07501     89.6 1.116e+04 3.359e-10
 82.09119     90.5 1.151e+04 4.335e-10
 82.10114     90.9 1.193e+04 5.232e-10
 82.11482     91.6 1.208e+04 7.478e-10
 82.13473     91.7 1.302e+04 1.270e-09
 82.15463     91.1 1.504e+04 2.593e-09
 82.17454     90.4 1.683e+04 5.414e-09
 82.19445     90.8 1.817e+04 9.573e-09
 82.20766     91.0 1.915e+04 1.289e-08
 82.21574     91.2 1.978e+04 1.663e-08
 82.22243     93.3 1.844e+04 1.080e-08
 82.22923     93.1 1.899e+04 1.311e-08
 82.23914     93.0 1.957e+04 1.493e-08
 82.24909     92.8 2.037e+04 1.653e-08
 82.25905     92.5 2.094e+04 1.743e-08
 82.26580     92.1 2.113e+04 1.805e-08
 82.27078     92.2 2.139e+04 1.826e-08
 82.27895     91.7 2.234e+04 1.577e-08
 82.28891     90.7 2.298e+04 1.159e-08
 82.29886     88.8 2.236e+04 7.691e-09
 82.30881     85.5 2.007e+04 4.442e-09
 82.31876     83.0 1.715e+04 3.170e-09
 82.32404     80.6 1.468e+04 2.182e-09
 82.32792     80.1 1.445e+04 2.174e-09
 82.33261     83.6 1.708e+04 2.878e-09
 82.33867     80.9 1.466e+04 2.249e-09
 82.35365     79.8 1.339e+04 1.669e-09
 82.37361     78.5 1.218e+04 1.151e-09
 82.39351     77.3 1.156e+04 8.105e-10
 82.41342     76.4 1.124e+04 6.368e-10
 82.43066     75.8 1.104e+04 5.618e-10
 82.44031     75.2 1.110e+04 5.935e-10
 82.44298     77.9 1.121e+04 6.292e-10
 82.45323     77.4 1.099e+04 5.765e-10
 82.47314     77.2 1.087e+04 5.582e-10
 82.49304     77.2 1.089e+04 5.675e-10
 82.51295     77.3 1.091e+04 5.849e-10
 82.53286     77.4 1.105e+04 6.080e-10
 82.54713     77.5 1.123e+04 6.255e-10
 82.55708     76.3 1.129e+04 5.524e-10
 82.57267     75.9 1.144e+04 5.576e-10
 82.59258     75.4 1.141e+04 5.468e-10
 82.61248     74.0 1.141e+04 4.890e-10
 82.63239     73.4 1.115e+04 4.526e-10
 82.65230     72.0 1.113e+04 4.180e-10
 82.66352     71.4 1.091e+04 3.948e-10
 82.67347     72.6 1.080e+04 3.718e-10
 82.70216     70.7 1.107e+04 3.821e-10
 82.74207     67.4 1.104e+04 3.731e-10
 82.77032     64.5 1.074e+04 3.586e-10
 82.79023     64.4 1.032e+04 3.005e-10
 82.82170     63.1 1.025e+04 3.001e-10
 82.86151     62.3 1.023e+04 2.846e-10
 82.88426     61.8 1.027e+04 2.771e-10
 82.90417     61.3 1.055e+04 3.155e-10
 82.94113     61.2 1.053e+04 3.228e-10
 82.98095     62.0 1.044e+04 3.336e-10
 83.00317     63.6 1.031e+04 3.420e-10
 83.01303     63.3 1.039e+04 3.710e-10
 83.03052     63.8 1.052e+04 4.147e-10
 83.05042     64.5 1.077e+04 5.115e-10
 83.07033     65.6 1.100e+04 6.257e-10
 83.09024     66.9 1.121e+04 7.455e-10
 83.10461     68.2 1.145e+04 8.514e-10
 83.11402     68.1 1.155e+04 8.598e-10
 83.11955     68.1 1.169e+04 9.431e-10
 83.13005     69.3 1.178e+04 9.717e-10
 83.14996     70.6 1.173e+04 9.856e-10
 83.16986     71.8 1.175e+04 1.002e-09
 83.18977     72.9 1.173e+04 1.003e-09
 83.20968     74.0 1.168e+04 9.961e-10
 83.22607     75.1 1.166e+04 9.956e-10
 83.23602     75.3 1.146e+04 9.019e-10
 83.24949     76.4 1.132e+04 8.752e-10
 83.26939     77.7 1.125e+04 8.507e-10
 83.28930     79.3 1.114e+04 8.048e-10
 83.30921     80.6 1.111e+04 7.679e-10
 83.32516     82.4 1.096e+04 6.979e-10
 83.33511     82.3 1.128e+04 8.891e-10
 83.34254     84.0 1.118e+04 8.576e-10
 83.35250     84.2 1.094e+04 6.991e-10
 83.36893     86.1 1.071e+04 6.136e-10
 83.38883     87.4 1.055e+04 5.580e-10
 83.40874     89.4 1.025e+04 4.771e-10
 83.42865     89.9 1.018e+04 4.560e-10
 83.44855     92.4 9.836e+03 4.010e-10
 83.45902     92.8 9.806e+03 3.935e-10
 83.46907     93.6 9.918e+03 4.047e-10
 83.49851     97.0 9.732e+03 3.749e-10
 83.53833    100.4 9.388e+03 3.133e-10
 83.57814    103.6 9.025e+03 2.550e-10
 83.61795    106.5 8.707e+03 2.040e-10
 83.65777    108.9 8.481e+03 1.680e-10
 83.68221    111.1 8.353e+03 1.499e-10
 83.70212    112.8 8.364e+03 1.493e-10
 83.73739    114.7 8.364e+03 1.492e-10
 83.76644    116.3 8.427e+03 1.558e-10
 83.78635    117.8 8.462e+03 1.586e-10
 83.81702    119.6 8.516e+03 1.657e-10
 83.85683    121.2 8.640e+03 1.813e-10
 83.89525    122.4 8.861e+03 2.177e-10
 83.91516    123.3 9.237e+03 2.250e-10
 83.93646    124.2 9.789e+03 2.646e-10
 83.96622    124.4 9.846e+03 2.844e-10
 83.98603    124.5 9.978e+03 3.024e-10
 83.99675    122.9 1.320e+04 2.832e-10
 84.00670    127.1 1.006e+04 3.261e-10
 84.02148    126.2 1.172e+04 3.204e-10
 84.03144    120.0 3.227e+04 2.244e-10
 84.04575    114.6 4.493e+04 3.603e-10
 84.06565    110.8 4.116e+04 9.610e-10
 84.08556    109.3 3.358e+04 2.102e-09
 84.10546    107.9 2.857e+04 3.580e-09
 84.12537    107.5 2.551e+04 5.237e-09
 84.13791    108.4 2.479e+04 5.946e-09
 84.14284    106.7 2.479e+04 8.662e-09
 84.15016    106.3 2.451e+04 1.091e-08
 84.16011    105.8 2.468e+04 1.365e-08
 84.17006    105.5 2.492e+04 1.643e-08
 84.18002    105.0 2.528e+04 1.897e-08
 84.18997    104.6 2.592e+04 2.018e-08
 84.19610    104.1 2.644e+04 2.176e-08
 84.20107    101.8 2.678e+04 1.874e-08
 84.20988    100.8 2.729e+04 1.513e-08
 84.21719     99.2 2.759e+04 1.034e-08
 84.22217    103.5 2.794e+04 1.867e-08
 84.22978    102.0 2.821e+04 1.402e-08
 84.23974     99.8 2.842e+04 9.919e-09
 84.24936     97.6 2.768e+04 6.470e-09
 84.25433     91.7 2.507e+04 3.143e-09
 84.25964     87.7 2.228e+04 2.644e-09
 84.26959     86.0 1.989e+04 2.386e-09
 84.27955     82.7 1.868e+04 2.602e-09
 84.28950     82.0 1.796e+04 2.635e-09
 84.29945     79.3 1.786e+04 2.781e-09
 84.30759     78.8 1.760e+04 2.750e-09
 84.31257     77.3 1.742e+04 2.785e-09
 84.31936     74.8 1.706e+04 3.023e-09
 84.32747     74.5 1.690e+04 3.012e-09
 84.33244     74.5 1.707e+04 3.266e-09
 84.33927     72.7 1.698e+04 3.530e-09
 84.34922     72.4 1.679e+04 3.544e-09
 84.35917     71.3 1.674e+04 3.649e-09
 84.36583     71.2 1.666e+04 3.635e-09
 84.37081     70.8 1.681e+04 3.799e-09
 84.37908     71.2 1.643e+04 3.576e-09
 84.38903     71.6 1.618e+04 3.447e-09
 84.39899     72.6 1.597e+04 3.122e-09
 84.40894     72.8 1.637e+04 2.885e-09
 84.41889     68.9 1.989e+04 3.766e-09
 84.42407     62.7 2.808e+04 6.125e-09
 84.42905     63.7 3.874e+04 1.267e-08
 84.43629     56.0 4.368e+04 1.757e-08
 84.44018     52.3 4.607e+04 1.647e-08
 84.44267     50.8 5.160e+04 1.909e-08
 84.44622     33.1 5.049e+04 5.645e-08
 84.45065     17.5 4.119e+04 1.868e-07
 84.45313      3.1 3.117e+04 1.828e-06
 84.45490    -10.6 2.474e+04 5.059e-06
 84.45739    -15.1 2.402e+04 7.300e-06
 84.46113    -24.1 1.902e+04 1.753e-05
 84.46612    -24.4 1.913e+04 1.456e-05
 84.47110    -23.0 1.989e+04 9.145e-06
 84.47607    -21.7 2.040e+04 5.932e-06
 84.47977    -20.8 2.118e+04 3.810e-06
 84.48226    -25.7 2.101e+04 3.549e-06
 84.48603    -23.8 2.186e+04 2.206e-06
 84.49100    -22.5 2.280e+04 1.419e-06
 84.49849    -21.7 2.328e+04 8.820e-07
 84.50847    -19.3 2.382e+04 4.744e-07
 84.51842    -17.9 2.426e+04 3.352e-07
 84.52838    -16.9 2.480e+04 2.537e-07
 84.53557    -16.4 2.542e+04 1.897e-07
 84.54054    -17.7 2.607e+04 1.018e-07
 84.54801    -17.8 2.599e+04 7.400e-08
 84.55299    -19.3 2.535e+04 6.078e-08
 84.55824    -19.8 2.444e+04 4.775e-08
 84.56819    -20.1 2.328e+04 3.771e-08
 84.57814    -20.3 2.220e+04 3.019e-08
 84.58810    -20.2 2.130e+04 2.404e-08
 84.59380    -19.9 2.074e+04 1.908e-08
 84.59878    -19.3 2.069e+04 1.510e-08
 84.60800    -19.4 2.060e+04 1.171e-08
 84.61796    -20.1 2.053e+04 9.171e-09
 84.62791    -21.2 2.018e+04 7.183e-09
 84.63786    -22.6 1.939e+04 5.716e-09
 84.64706    -24.5 1.830e+04 4.759e-09
 84.65204    -25.9 1.732e+04 4.241e-09
 84.65777    -27.8 1.688e+04 3.977e-09
 84.66326    -29.3 1.710e+04 4.246e-09
 84.66824    -30.3 1.783e+04 5.077e-09
 84.67768    -32.4 1.843e+04 6.031e-09
 84.68763    -34.0 1.884e+04 7.481e-09
 84.69758    -35.0 1.890e+04 9.283e-09
 84.70530    -35.3 1.879e+04 1.126e-08
 84.71028    -35.7 1.865e+04 1.316e-08
 84.71749    -35.4 1.865e+04 1.477e-08
 84.72744    -34.9 1.873e+04 1.570e-08
 84.73740    -34.4 1.880e+04 1.593e-08
 84.74735    -34.0 1.878e+04 1.469e-08
 84.75730    -33.6 1.858e+04 1.231e-08
 84.76354    -33.5 1.836e+04 9.676e-09
 84.76852    -33.7 1.845e+04 8.417e-09
 84.77353    -34.7 1.822e+04 6.237e-09
 84.77851    -36.5 1.866e+04 6.084e-09
 84.78716    -38.4 1.806e+04 4.591e-09
 84.80214    -38.8 1.742e+04 3.727e-09
 84.81690    -43.0 1.557e+04 2.204e-09
 84.82685    -46.2 1.418e+04 1.769e-09
 84.84200    -48.3 1.280e+04 1.488e-09
 84.86191    -48.3 1.258e+04 1.452e-09
 84.87509    -48.4 1.309e+04 1.602e-09
 84.88001    -48.4 1.322e+04 1.650e-09
 84.88381    -50.5 1.538e+04 2.060e-09
 84.88878    -55.5 2.006e+04 4.002e-09
 84.89665    -59.5 2.270e+04 8.242e-09
 84.90660    -62.5 2.347e+04 1.753e-08
 84.91655    -63.7 2.327e+04 3.531e-08
 84.92651    -63.9 2.290e+04 6.323e-08
 84.93327    -63.4 2.253e+04 9.649e-08
 84.93825    -62.5 2.232e+04 9.797e-08
 84.94641    -61.7 2.220e+04 1.154e-07
 84.95637    -60.7 2.221e+04 1.207e-07
 84.96632    -59.9 2.213e+04 1.068e-07
 84.97627    -59.0 2.209e+04 8.820e-08
 84.98623    -57.9 2.214e+04 6.141e-08
 84.99151    -57.2 2.222e+04 3.630e-08
 84.99439    -56.5 2.245e+04 2.824e-08
 84.99906    -58.0 2.269e+04 1.785e-08
 85.00613    -58.9 2.206e+04 1.056e-08
 85.02111    -58.9 2.135e+04 8.582e-09
 85.03989    -60.0 1.925e+04 3.462e-09
 85.04985    -60.4 1.843e+04 1.954e-09
 85.06097    -62.6 1.421e+04 8.605e-10
 85.08088    -62.9 1.129e+04 6.684e-10
 85.09947    -61.8 1.055e+04 5.331e-10
 85.10952    -64.2 1.082e+04 5.588e-10
 85.13084    -60.0 1.016e+04 3.913e-10
 85.17065    -56.0 9.822e+03 2.999e-10
 85.21047    -52.5 9.452e+03 2.379e-10
 85.25028    -48.7 9.061e+03 1.859e-10
 85.27304    -45.4 8.907e+03 1.639e-10
 85.29294    -45.8 8.790e+03 1.597e-10
 85.32990    -42.8 8.778e+03 1.573e-10
 85.36972    -40.1 8.819e+03 1.591e-10
 85.40953    -37.8 9.073e+03 1.879e-10
 85.44934    -35.6 9.448e+03 2.703e-10
 85.48608    -33.4 1.004e+04 4.318e-10
 85.50598    -33.8 9.880e+03 4.146e-10
 85.51892    -31.8 1.022e+04 5.186e-10
 85.53873    -30.8 1.042e+04 6.006e-10
 85.55052    -29.8 1.072e+04 7.064e-10
 85.56047    -28.8 1.059e+04 6.734e-10
 85.57854    -27.9 1.085e+04 7.575e-10
 85.59845    -27.1 1.101e+04 8.141e-10
 85.61231    -26.3 1.108e+04 8.407e-10
 85.62226    -26.6 1.120e+04 9.235e-10
 85.63826    -26.0 1.134e+04 9.786e-10
 85.65817    -25.6 1.156e+04 1.072e-09
 85.67807    -25.4 1.188e+04 1.240e-09
 85.69798    -25.1 1.222e+04 1.491e-09
 85.71788    -24.8 1.261e+04 1.810e-09
 85.72878    -24.4 1.299e+04 2.148e-09
 85.73874    -24.3 1.302e+04 2.146e-09
 85.75770    -23.9 1.322e+04 2.392e-09
 85.77106    -23.6 1.326e+04 2.445e-09
 85.78102    -22.5 1.362e+04 2.777e-09
 85.79751    -22.1 1.364e+04 2.839e-09
 85.81742    -21.8 1.350e+04 2.653e-09
 85.83531    -21.5 1.321e+04 2.324e-09
 85.84526    -21.7 1.320e+04 2.297e-09
 85.85723    -21.5 1.294e+04 1.997e-09
 85.87714    -21.4 1.272e+04 1.762e-09
 85.89704    -21.6 1.263e+04 1.636e-09
 85.91695    -21.8 1.261e+04 1.605e-09
 85.93686    -22.0 1.261e+04 1.659e-09
 85.95178    -22.0 1.268e+04 1.870e-09
 85.96173    -21.9 1.264e+04 1.978e-09
 85.97667    -21.3 1.279e+04 2.162e-09
 85.99161    -20.7 1.301e+04 2.347e-09
 86.00156    -19.7 1.326e+04 2.619e-09
 86.01648    -19.3 1.346e+04 2.729e-09
 86.03639    -19.2 1.362e+04 2.765e-09
 86.05629    -19.3 1.376e+04 2.793e-09
 86.06825    -19.8 1.389e+04 2.832e-09
 86.07821    -20.7 1.354e+04 2.232e-09
 86.09611    -21.2 1.374e+04 2.622e-09
 86.11601    -21.3 1.405e+04 3.154e-09
 86.13592    -21.1 1.431e+04 3.617e-09
 86.15583    -20.8 1.440e+04 3.779e-09
 86.17478    -20.8 1.439e+04 3.726e-09
 86.18473    -21.6 1.493e+04 4.596e-09
 86.19564    -21.6 1.483e+04 4.445e-09
 86.21215    -21.8 1.457e+04 4.074e-09
 86.22211    -21.4 1.426e+04 3.708e-09
 86.23545    -21.8 1.392e+04 3.312e-09
 86.25536    -22.4 1.356e+04 3.009e-09
 86.27526    -22.7 1.325e+04 2.801e-09
 86.29125    -22.8 1.299e+04 2.663e-09
 86.30120    -23.0 1.263e+04 2.350e-09
 86.31508    -23.0 1.239e+04 2.195e-09
 86.33498    -22.5 1.209e+04 1.961e-09
 86.35489    -22.0 1.175e+04 1.651e-09
 86.37480    -21.4 1.146e+04 1.299e-09
 86.39470    -20.8 1.107e+04 9.874e-10
 86.40772    -20.4 1.060e+04 7.280e-10
 86.41768    -21.8 1.038e+04 6.592e-10
 86.43270    -21.4 9.997e+03 5.486e-10
 86.44265    -21.2 9.989e+03 5.489e-10
 86.45442    -20.6 9.765e+03 4.798e-10
 86.47433    -20.1 9.687e+03 4.480e-10
 86.49424    -19.5 9.672e+03 4.414e-10
 86.51414    -19.0 9.773e+03 4.559e-10
 86.52420    -18.4 9.930e+03 5.106e-10
 86.53415    -18.6 1.020e+04 7.005e-10
 86.55395    -18.0 1.048e+04 8.173e-10
 86.57386    -17.5 1.081e+04 9.711e-10
 86.59377    -16.9 1.120e+04 1.165e-09
 86.61367    -16.3 1.156e+04 1.390e-09
 86.63072    -15.7 1.188e+04 1.619e-09
 86.64067    -15.9 1.255e+04 2.165e-09
 86.65324    -15.4 1.280e+04 2.485e-09
 86.66320    -15.0 1.294e+04 2.521e-09
 86.67339    -14.6 1.323e+04 2.876e-09
 86.69330    -14.2 1.346e+04 3.176e-09
 86.71321    -14.1 1.362e+04 3.428e-09
 86.73311    -14.1 1.366e+04 3.625e-09
 86.74719    -14.2 1.357e+04 3.803e-09
 86.75715    -13.8 1.350e+04 3.425e-09
 86.77293    -13.3 1.345e+04 3.516e-09
 86.79283    -12.6 1.336e+04 3.545e-09
 86.81274    -11.5 1.314e+04 3.415e-09
 86.83264    -10.2 1.290e+04 2.962e-09
 86.85255     -9.1 1.263e+04 2.360e-09
 86.86367     -8.3 1.230e+04 1.758e-09
 86.87505     -9.7 1.124e+04 7.367e-10
 86.89389     -9.8 1.139e+04 6.549e-10
 86.92242     -8.8 1.037e+04 4.563e-10
 86.96223     -7.6 9.778e+03 3.707e-10
 87.00204     -6.0 9.617e+03 3.414e-10
 87.04186     -4.4 9.542e+03 3.369e-10
 87.07691     -2.9 9.516e+03 3.585e-10
 87.09681     -2.7 9.061e+03 2.393e-10
 87.12148     -1.3 9.151e+03 2.741e-10
 87.16130      0.3 9.209e+03 2.914e-10
 87.20111      1.9 9.140e+03 2.710e-10
 87.24092      3.3 8.967e+03 1.922e-10
 87.28073      4.2 8.819e+03 1.298e-10
 87.30985      4.9 8.653e+03 1.079e-10
 87.32429      5.1 8.761e+03 1.399e-10
 87.33498      5.5 8.853e+03 1.559e-10
 87.36036      6.5 8.760e+03 1.386e-10
 87.40017      7.8 8.732e+03 1.339e-10
 87.43999      9.0 8.752e+03 1.341e-10
 87.47980      9.9 8.928e+03 1.400e-10
 87.51961     10.6 9.033e+03 1.658e-10
 87.54280     11.5 9.167e+03 2.039e-10
 87.56271     11.0 9.082e+03 1.874e-10
 87.59924     12.1 9.203e+03 2.022e-10
 87.63905     12.8 9.283e+03 2.062e-10
 87.67886     13.2 9.324e+03 2.185e-10
 87.71868     13.8 9.267e+03 2.635e-10
 87.75584     15.2 9.244e+03 2.913e-10
 87.77343     14.8 9.359e+03 3.182e-10
 87.77607     15.4 9.601e+03 3.845e-10
 87.79830     17.2 9.387e+03 3.910e-10
 87.83811     19.9 8.983e+03 2.623e-10
 87.87793     21.6 8.826e+03 1.454e-10
 87.91774     22.4 8.657e+03 1.022e-10
 87.95755     24.0 8.547e+03 9.311e-11
 87.98879     26.3 8.536e+03 1.001e-10
 88.00870     25.7 8.595e+03 1.100e-10
 88.03718     28.4 8.623e+03 1.183e-10
 88.07699     31.1 8.658e+03 1.148e-10
 88.11680     33.3 8.707e+03 1.092e-10
 88.15662     35.5 8.713e+03 1.102e-10
 88.19643     37.5 8.764e+03 1.178e-10
 88.21716     39.0 8.979e+03 1.438e-10
 88.22257     39.7 8.851e+03 1.255e-10
 88.24165     39.1 9.013e+03 1.170e-10
 88.27606     39.4 9.611e+03 2.161e-10
 88.31587     40.1 1.066e+04 5.487e-10
 88.33812     37.2 1.223e+04 1.153e-09
 88.34797     36.4 1.236e+04 1.307e-09
 88.36544     36.6 1.261e+04 2.294e-09
 88.38535     38.2 1.266e+04 2.903e-09
 88.40525     39.4 1.326e+04 3.105e-09
 88.42516     38.6 1.381e+04 3.000e-09
 88.43751     37.9 1.359e+04 2.356e-09
 88.44694     38.9 1.429e+04 2.999e-09
 88.45450     38.3 1.387e+04 2.558e-09
 88.46497     36.9 1.225e+04 1.628e-09
 88.48488     35.9 1.077e+04 1.051e-09
 88.50478     36.3 9.996e+03 6.677e-10
 88.52469     36.0 9.749e+03 4.588e-10
 88.55465     35.9 9.418e+03 2.609e-10
 88.59456     36.2 8.936e+03 1.606e-10
 88.63437     36.6 8.792e+03 1.582e-10
 88.65825     37.6 8.721e+03 1.734e-10
 88.67171     37.8 8.616e+03 1.688e-10
 88.68764     38.9 8.475e+03 1.229e-10
 88.71400     40.5 8.368e+03 1.434e-10
 88.75381     42.4 8.296e+03 1.464e-10
 88.79362     44.7 8.195e+03 1.381e-10
 88.83344     46.8 8.183e+03 1.187e-10
 88.87325     48.6 8.199e+03 9.961e-11
 88.90068     50.5 8.217e+03 9.758e-11
 88.92059     51.8 8.026e+03 9.573e-11
 88.95287     53.9 8.064e+03 9.689e-11
 88.99269     56.1 8.185e+03 1.076e-10
 89.03250     58.2 8.418e+03 1.408e-10
 89.07231     60.2 8.918e+03 2.062e-10
 89.09934     62.2 9.504e+03 3.458e-10
 89.11925     62.9 9.365e+03 3.180e-10
 89.13363     64.9 9.996e+03 5.228e-10
 89.15354     66.2 9.546e+03 3.151e-10
 89.19175     68.2 1.012e+04 4.978e-10
 89.23156     70.1 1.057e+04 7.272e-10
 89.27138     71.9 1.083e+04 8.824e-10
 89.31119     73.5 1.100e+04 9.907e-10
 89.34667     75.2 1.118e+04 1.091e-09
 89.36658     76.2 1.112e+04 1.019e-09
 89.39082     77.8 1.144e+04 1.208e-09
 89.43063     79.3 1.191e+04 1.476e-09
 89.47044     80.8 1.242e+04 1.779e-09
 89.50020     81.5 1.251e+04 1.838e-09
 89.52001     81.9 1.274e+04 2.016e-09
 89.53992     82.2 1.293e+04 2.260e-09
 89.55019     82.7 1.307e+04 2.495e-09
 89.56015     83.0 1.290e+04 2.309e-09
 89.57943     83.6 1.304e+04 2.602e-09
 89.58938     83.7 1.320e+04 2.479e-09
 89.59964     84.2 1.350e+04 2.886e-09
 89.61954     84.8 1.357e+04 3.101e-09
 89.63945     85.3 1.354e+04 3.083e-09
 89.65936     85.9 1.344e+04 2.977e-09
 89.67926     86.5 1.325e+04 2.727e-09
 89.69590     87.1 1.301e+04 2.388e-09
 89.70585     87.4 1.327e+04 2.422e-09
 89.71908     88.1 1.292e+04 2.020e-09
 89.73898     88.8 1.261e+04 1.667e-09
 89.75889     89.2 1.244e+04 1.397e-09
 89.77074     89.9 1.219e+04 1.200e-09
 89.78069     90.2 1.224e+04 1.238e-09
 89.79870     90.8 1.208e+04 1.137e-09
 89.81247     92.0 1.207e+04 1.213e-09
 89.83248     92.2 1.118e+04 5.870e-10
 89.86857     93.8 1.087e+04 5.557e-10
 89.90838     95.7 1.070e+04 5.355e-10
 89.94820     97.9 1.053e+04 5.077e-10
 89.98152    100.2 1.034e+04 4.712e-10
 90.00143    100.8 1.034e+04 4.721e-10
 90.02561    103.3 1.017e+04 4.322e-10
 90.04552    104.0 9.836e+03 2.830e-10
 90.06763    106.6 9.782e+03 3.045e-10
 90.10745    109.3 9.760e+03 3.131e-10
 90.14726    111.9 9.717e+03 3.059e-10
 90.18707    114.6 9.637e+03 2.879e-10
 90.22689    117.3 9.500e+03 2.558e-10
 90.25856    120.0 9.338e+03 2.189e-10
 90.27847    120.8 9.548e+03 2.610e-10
 90.30651    123.4 9.431e+03 2.287e-10
 90.34632    126.1 9.310e+03 1.987e-10
 90.38614    128.8 9.191e+03 1.747e-10
 90.42262    131.4 9.089e+03 1.586e-10
 90.44252    131.7 9.423e+03 2.134e-10
 90.46576    134.4 9.331e+03 1.983e-10
 90.49151    136.9 9.250e+03 1.890e-10
 90.51142    137.3 9.384e+03 2.107e-10
 90.54539    139.8 9.321e+03 2.042e-10
 90.58520    142.3 9.291e+03 2.014e-10
 90.62501    144.6 9.278e+03 2.010e-10
 90.66483    146.6 9.272e+03 2.009e-10
 90.70455    148.4 9.251e+03 1.993e-10
 90.74436    150.4 9.335e+03 2.181e-10
 90.78427    151.9 9.197e+03 1.969e-10
 90.82408    153.3 9.039e+03 1.675e-10
 90.86371    154.4 8.879e+03 1.370e-10
 90.90352    154.5 8.812e+03 1.238e-10
 90.93750    155.3 8.751e+03 1.162e-10
 90.95741    155.4 8.910e+03 1.412e-10
 90.98333    156.4 8.904e+03 1.418e-10
 91.02314    157.5 8.933e+03 1.487e-10
 91.06296    158.8 9.079e+03 1.734e-10
 91.10277    160.2 9.351e+03 2.254e-10
 91.14258    161.7 9.612e+03 2.816e-10
 91.17045    163.2 9.786e+03 3.134e-10
 91.19035    163.4 9.973e+03 3.790e-10
 91.22221    164.8 1.006e+04 3.841e-10
 91.26202    166.5 1.006e+04 3.745e-10
 91.30183    168.2 1.006e+04 3.549e-10
 91.32470    170.0 1.004e+04 3.370e-10
 91.34461    171.1 1.008e+04 3.408e-10
 91.38146    172.8 1.009e+04 3.394e-10
 91.40340    174.7 1.013e+04 3.434e-10
 91.42330    174.5 1.046e+04 4.693e-10
 91.46108    176.0 1.068e+04 5.359e-10
 91.50090    177.4 1.088e+04 6.166e-10
 91.54071    178.7 1.101e+04 6.709e-10
 91.58052    180.0 1.103e+04 6.807e-10
 91.61644    181.4 1.100e+04 6.596e-10
 91.63635    180.2 1.172e+04 9.667e-10
 91.66015    181.7 1.137e+04 7.574e-10
 91.69996    183.2 1.103e+04 5.740e-10
 91.73977    185.0 1.078e+04 4.459e-10
 91.76579    186.9 1.063e+04 3.632e-10
 91.78570    187.7 1.075e+04 4.002e-10
 91.81940    189.6 1.061e+04 3.334e-10
 91.84939    191.6 1.047e+04 2.897e-10
 91.86920    191.2 1.065e+04 3.293e-10
 91.88888    192.3 1.060e+04 3.225e-10
 91.90878    193.4 1.059e+04 3.210e-10
 91.92869    194.7 1.058e+04 3.192e-10
 91.94860    195.8 1.059e+04 3.208e-10
 91.96567    197.1 1.061e+04 3.226e-10
 91.97562    196.6 1.106e+04 4.663e-10
 91.98614    197.9 1.108e+04 4.776e-10
 91.99610    198.3 1.097e+04 4.622e-10
 92.00832    199.5 1.100e+04 4.727e-10
 92.02822    200.8 1.102e+04 4.863e-10
 92.04813    202.0 1.105e+04 5.039e-10
 92.06803    203.2 1.108e+04 5.255e-10
 92.08214    204.4 1.113e+04 5.495e-10
 92.09209    204.3 1.151e+04 8.418e-10
 92.10785    205.5 1.161e+04 8.963e-10
 92.12775    206.9 1.176e+04 9.546e-10
 92.14766    208.1 1.195e+04 1.009e-09
 92.16757    209.2 1.214e+04 1.042e-09
 92.18747    210.3 1.227e+04 1.042e-09
 92.19861    211.3 1.230e+04 1.036e-09
 92.20788    210.5 1.335e+04 1.837e-09
 92.21664    210.8 1.325e+04 1.808e-09
 92.22729    211.6 1.352e+04 1.838e-09
 92.24719    212.3 1.356e+04 1.826e-09
 92.26710    212.9 1.361e+04 1.805e-09
 92.28701    213.3 1.365e+04 1.805e-09
 92.30514    213.4 1.380e+04 1.827e-09
 92.31509    212.2 1.513e+04 4.194e-09
 92.32682    212.0 1.555e+04 4.718e-09
 92.34672    211.8 1.595e+04 5.446e-09
 92.36663    211.7 1.626e+04 6.272e-09
 92.38654    211.8 1.647e+04 6.906e-09
 92.40644    212.0 1.651e+04 6.997e-09
 92.42161    212.3 1.641e+04 6.774e-09
 92.43156    212.2 1.687e+04 7.102e-09
 92.43719    212.6 1.646e+04 5.708e-09
 92.44714    213.1 1.647e+04 5.670e-09
 92.46616    213.5 1.612e+04 4.477e-09
 92.48607    213.5 1.572e+04 3.366e-09
 92.50598    213.3 1.516e+04 2.474e-09
 92.52588    212.7 1.444e+04 1.850e-09
 92.53808    212.2 1.362e+04 1.439e-09
 92.54804    211.5 1.258e+04 1.244e-09
 92.56570    211.7 1.221e+04 1.048e-09
 92.58560    212.0 1.195e+04 8.896e-10
 92.60551    212.4 1.174e+04 7.546e-10
 92.62541    212.7 1.158e+04 6.439e-10
 92.64461    212.8 1.147e+04 5.637e-10
 92.65456    212.9 1.152e+04 5.069e-10
 92.65773    212.9 1.138e+04 4.716e-10
 92.66769    213.2 1.155e+04 5.019e-10
 92.68513    213.0 1.137e+04 4.806e-10
 92.70504    212.9 1.132e+04 4.828e-10
 92.72495    212.7 1.129e+04 4.863e-10
 92.74485    212.5 1.127e+04 4.894e-10
 92.76108    212.3 1.125e+04 4.971e-10
 92.77103    212.4 1.133e+04 5.046e-10
 92.78467    211.2 1.180e+04 5.787e-10
 92.80457    205.9 1.416e+04 1.001e-09
 92.82448    197.5 1.770e+04 2.902e-09
 92.84439    192.0 1.956e+04 6.599e-09
 92.85927    188.7 2.090e+04 1.219e-08
 92.86917    186.2 2.183e+04 2.274e-08
 92.87746    184.2 2.214e+04 3.444e-08
 92.88149    183.7 2.201e+04 3.987e-08
 92.88316    184.5 2.216e+04 3.943e-08
 92.88908    182.8 2.236e+04 4.167e-08
 92.89903    181.1 2.219e+04 3.941e-08
 92.90898    179.5 2.178e+04 3.096e-08
 92.92396    176.3 2.136e+04 1.676e-08
 92.94392    169.4 1.987e+04 5.830e-09
 92.96382    159.3 1.713e+04 4.004e-09
 92.98373    150.9 1.697e+04 4.163e-09
 92.99403    145.3 1.748e+04 5.347e-09
 93.00398    142.1 1.801e+04 5.410e-09
 93.02354    138.9 1.859e+04 7.852e-09
 93.04345    136.7 1.880e+04 1.052e-08
 93.06336    134.8 1.866e+04 1.265e-08
 93.08326    132.7 1.861e+04 1.269e-08
 93.09882    130.3 1.843e+04 1.211e-08
 93.10616    129.6 1.796e+04 9.280e-09
 93.11050    129.1 1.758e+04 5.145e-09
 93.12307    126.8 1.724e+04 4.615e-09
 93.14298    124.9 1.669e+04 4.273e-09
 93.16289    123.7 1.618e+04 4.041e-09
 93.18279    123.1 1.586e+04 3.826e-09
 93.20270    122.9 1.556e+04 3.467e-09
 93.21702    122.8 1.509e+04 2.935e-09
 93.22698    121.8 1.306e+04 1.483e-09
 93.24251    122.1 1.279e+04 1.385e-09
 93.26242    122.4 1.272e+04 1.356e-09
 93.29238    122.9 1.250e+04 1.218e-09
 93.33229    123.8 1.265e+04 1.318e-09
 93.36205    123.9 1.259e+04 1.326e-09
 93.38186    123.8 1.276e+04 1.445e-09
 93.40176    123.6 1.312e+04 1.666e-09
 93.42167    122.8 1.394e+04 2.209e-09
 93.44002    121.8 1.524e+04 3.388e-09
 93.44997    121.6 1.594e+04 3.996e-09
 93.46148    120.6 1.759e+04 6.804e-09
 93.48139    119.2 1.894e+04 1.024e-08
 93.50130    117.0 1.957e+04 1.207e-08
 93.52120    114.5 1.954e+04 1.209e-08
 93.53991    112.1 1.923e+04 1.151e-08
 93.54987    112.3 1.887e+04 9.824e-09
 93.55649    109.5 1.901e+04 1.134e-08
 93.56645    108.3 1.958e+04 1.435e-08
 93.58092    106.4 1.973e+04 1.692e-08
 93.59580    105.4 2.016e+04 2.008e-08
 93.60571    104.4 2.090e+04 2.620e-08
 93.61463    103.3 2.169e+04 3.701e-08
 93.61961    103.0 2.126e+04 3.109e-08
 93.62561    101.8 2.163e+04 3.771e-08
 93.63557    100.6 2.193e+04 4.199e-08
 93.64552     99.4 2.244e+04 4.226e-08
 93.65507     97.9 2.251e+04 4.183e-08
 93.66004     98.7 2.263e+04 4.136e-08
 93.66543     96.8 2.286e+04 3.846e-08
 93.67287     94.9 2.290e+04 3.194e-08
 93.67785     93.6 2.220e+04 1.995e-08
 93.68533     91.6 2.128e+04 1.640e-08
 93.70031     88.7 1.903e+04 1.121e-08
 93.72027     86.0 1.702e+04 6.384e-09
 93.74017     83.5 1.508e+04 3.477e-09
 93.76008     80.9 1.370e+04 1.978e-09
 93.77041     78.6 1.280e+04 1.318e-09
 93.77987     79.1 1.300e+04 1.466e-09
 93.78944     80.0 1.298e+04 1.517e-09
 93.79989     79.0 1.252e+04 1.201e-09
 93.81980     78.2 1.221e+04 1.010e-09
 93.83971     77.3 1.205e+04 9.162e-10
 93.85961     76.4 1.207e+04 9.183e-10
 93.87952     75.0 1.220e+04 9.582e-10
 93.89596     73.1 1.250e+04 1.087e-09
 93.90592     74.2 1.254e+04 1.182e-09
 93.91933     72.3 1.284e+04 1.368e-09
 93.93924     70.2 1.303e+04 1.572e-09
 93.95914     68.1 1.322e+04 1.762e-09
 93.97905     66.0 1.320e+04 1.872e-09
 93.99096     64.2 1.309e+04 1.846e-09
 94.00091     64.7 1.335e+04 2.038e-09
 94.01244     63.4 1.294e+04 1.876e-09
 94.02239     64.3 1.293e+04 1.750e-09
 94.03877     63.2 1.240e+04 1.499e-09
 94.05868     62.2 1.180e+04 1.151e-09
 94.07858     60.9 1.125e+04 8.262e-10
 94.09849     58.9 1.080e+04 5.924e-10
 94.11840     56.7 1.043e+04 4.837e-10
 94.12891     55.0 1.029e+04 4.771e-10
 94.13887     56.3 1.027e+04 4.746e-10
 94.15821     55.1 1.023e+04 4.801e-10
 94.17812     54.5 1.018e+04 4.921e-10
 94.19802     54.2 1.021e+04 4.964e-10
 94.21150     53.6 1.036e+04 5.121e-10
 94.22146     53.8 1.043e+04 5.457e-10
 94.23543     52.3 1.092e+04 5.951e-10
 94.24539     52.5 1.105e+04 6.702e-10
 94.25774     49.9 1.169e+04 8.749e-10
 94.27765     48.3 1.160e+04 1.081e-09
 94.29755     48.4 1.146e+04 1.090e-09
 94.31746     48.6 1.126e+04 1.054e-09
 94.33737     48.3 1.136e+04 8.930e-10
 94.35191     46.4 1.209e+04 7.426e-10
 94.36186     45.2 1.236e+04 8.165e-10
 94.37718     42.0 1.197e+04 7.541e-10
 94.39709     39.0 1.169e+04 8.103e-10
 94.41699     37.2 1.165e+04 1.002e-09
 94.43205     36.8 1.200e+04 1.223e-09
 94.44200     36.9 1.193e+04 1.141e-09
 94.45681     36.5 1.193e+04 1.101e-09
 94.46838     35.5 1.187e+04 9.489e-10
 94.47833     34.0 1.154e+04 7.898e-10
 94.49662     32.2 1.124e+04 6.326e-10
 94.51652     30.2 1.084e+04 5.308e-10
 94.53643     28.9 1.071e+04 4.755e-10
 94.56505     26.9 1.049e+04 4.749e-10
 94.58505     25.9 1.079e+04 4.995e-10
 94.60630     22.0 1.177e+04 7.852e-10
 94.63606     20.2 1.198e+04 9.384e-10
 94.65259     18.6 1.229e+04 1.155e-09
 94.66255     18.7 1.225e+04 1.099e-09
 94.67578     17.3 1.233e+04 1.256e-09
 94.69138     15.0 1.250e+04 1.416e-09
 94.70133     15.9 1.338e+04 2.113e-09
 94.71559     12.9 1.359e+04 2.063e-09
 94.73550     10.4 1.343e+04 2.053e-09
 94.75540      9.3 1.341e+04 2.034e-09
 94.77531      8.1 1.327e+04 1.817e-09
 94.79800      5.7 1.270e+04 1.403e-09
 94.81800      4.7 1.213e+04 1.325e-09
 94.84518      3.7 1.125e+04 9.304e-10
 94.87324      4.4 1.060e+04 6.905e-10
 94.88309      5.3 1.060e+04 6.952e-10
 94.89475      6.7 1.020e+04 5.633e-10
 94.91437      7.2 9.781e+03 4.108e-10
 94.92433      7.4 9.813e+03 3.993e-10
 94.93456      7.9 9.732e+03 3.485e-10
 94.96452      8.1 9.746e+03 3.241e-10
 95.00443      7.7 1.013e+04 3.423e-10
 95.03104      7.1 1.184e+04 7.562e-10
 95.05095      7.4 1.167e+04 7.779e-10
 95.07400      6.4 1.304e+04 1.588e-09
 95.09368      6.8 1.373e+04 2.313e-09
 95.10364      7.4 1.334e+04 1.833e-09
 95.11372      7.6 1.396e+04 2.596e-09
 95.13362      8.0 1.428e+04 3.341e-09
 95.14732      8.8 1.440e+04 3.844e-09
 95.15727      8.4 1.476e+04 4.344e-09
 95.17344      9.4 1.487e+04 4.861e-09
 95.19334     10.1 1.480e+04 4.931e-09
 95.21325     10.6 1.456e+04 4.378e-09
 95.23316     10.1 1.440e+04 3.729e-09
 95.25306      7.7 1.475e+04 3.685e-09
 95.26380      3.4 1.572e+04 4.218e-09
 95.27375      4.9 1.629e+04 5.425e-09
 95.28785      0.6 1.755e+04 7.113e-09
 95.29775     -1.9 1.827e+04 9.686e-09
 95.30771     -3.8 1.853e+04 1.278e-08
 95.31696     -5.5 1.902e+04 1.642e-08
 95.32193     -5.5 2.125e+04 1.862e-08
 95.32409     -8.8 2.423e+04 2.316e-08
 95.32906     -9.7 2.442e+04 2.458e-08
 95.33757    -13.3 2.685e+04 2.857e-08
 95.34752    -16.6 2.801e+04 2.953e-08
 95.35747    -20.1 2.851e+04 2.217e-08
 95.36743    -25.6 2.559e+04 1.076e-08
 95.37520    -32.6 1.970e+04 5.440e-09
 95.38017    -34.8 2.071e+04 7.331e-09
 95.39236    -40.1 1.710e+04 4.725e-09
 95.41231    -42.4 1.508e+04 3.111e-09
 95.43222    -43.8 1.403e+04 2.491e-09
 95.45213    -44.4 1.398e+04 2.453e-09
 95.47203    -46.1 1.454e+04 2.904e-09
 95.48679    -48.7 1.598e+04 4.493e-09
 95.49674    -50.0 1.595e+04 4.704e-09
 95.51185    -51.6 1.699e+04 6.735e-09
 95.53175    -52.9 1.778e+04 8.489e-09
 95.54473    -54.3 1.818e+04 9.156e-09
 95.55468    -54.9 1.790e+04 8.507e-09
 95.57157    -56.3 1.771e+04 6.970e-09
 95.59147    -58.1 1.688e+04 4.327e-09
 95.60326    -60.9 1.536e+04 2.258e-09
 95.61322    -62.8 1.352e+04 1.421e-09
 95.63128    -66.4 1.226e+04 8.898e-10
 95.65119    -69.3 1.157e+04 7.482e-10
 95.67110    -70.9 1.141e+04 7.236e-10
 95.69100    -71.6 1.128e+04 8.069e-10
 95.70979    -72.0 1.140e+04 8.782e-10
 95.71974    -72.5 1.134e+04 8.667e-10
 95.73082    -72.7 1.138e+04 8.858e-10
 95.75072    -73.0 1.139e+04 8.756e-10
 95.76527    -73.4 1.134e+04 7.748e-10
 95.77523    -73.7 1.117e+04 7.249e-10
 95.79054    -74.5 1.106e+04 6.163e-10
 95.81044    -75.6 1.092e+04 5.449e-10
 95.82626    -76.6 1.084e+04 5.130e-10
 95.83621    -76.7 1.079e+04 4.902e-10
 95.85026    -77.4 1.076e+04 4.845e-10
 95.87016    -78.0 1.077e+04 4.862e-10
 95.89007    -78.5 1.084e+04 5.062e-10
 95.90997    -78.8 1.092e+04 5.279e-10
 95.92988    -79.2 1.100e+04 5.409e-10
 95.94273    -79.5 1.108e+04 5.524e-10
 95.95269    -79.8 1.121e+04 5.939e-10
 95.96969    -80.1 1.129e+04 6.162e-10
 95.98582    -80.2 1.135e+04 6.353e-10
 95.99577    -80.1 1.135e+04 6.318e-10
 96.00951    -80.2 1.143e+04 6.541e-10
 96.02941    -80.1 1.150e+04 6.691e-10
 96.04926    -80.0 1.156e+04 6.704e-10
 96.06916    -79.8 1.157e+04 6.531e-10
 96.08913    -79.5 1.154e+04 6.271e-10
 96.10904    -79.2 1.151e+04 6.083e-10
 96.12895    -78.9 1.150e+04 6.036e-10
 96.14885    -78.5 1.155e+04 6.259e-10
 96.16573    -78.1 1.165e+04 6.821e-10
 96.17568    -78.1 1.146e+04 5.376e-10
 96.18866    -77.6 1.161e+04 6.209e-10
 96.20636    -76.9 1.178e+04 7.185e-10
 96.21632    -76.7 1.198e+04 8.557e-10
 96.22848    -76.0 1.214e+04 9.230e-10
 96.24838    -75.4 1.225e+04 9.534e-10
 96.26829    -74.9 1.230e+04 9.661e-10
 96.28220    -74.6 1.233e+04 9.827e-10
 96.29216    -74.6 1.231e+04 9.557e-10
 96.30810    -74.2 1.240e+04 1.020e-09
 96.32801    -73.7 1.252e+04 1.094e-09
 96.34792    -73.0 1.266e+04 1.163e-09
 96.36782    -72.4 1.279e+04 1.210e-09
 96.38882    -71.9 1.293e+04 1.210e-09
 96.40873    -71.0 1.311e+04 1.362e-09
 96.43759    -70.2 1.325e+04 1.417e-09
 96.46745    -69.6 1.342e+04 1.511e-09
 96.48726    -68.3 1.346e+04 1.616e-09
 96.50520    -67.2 1.351e+04 1.715e-09
 96.51515    -66.6 1.360e+04 1.807e-09
 96.52707    -66.9 1.422e+04 2.004e-09
 96.54698    -71.7 1.976e+04 2.336e-09
 96.56186    -76.5 2.216e+04 2.594e-09
 96.56832    -80.5 2.293e+04 6.661e-09
 96.57329    -81.9 2.366e+04 9.948e-09
 96.58172    -83.6 2.290e+04 1.888e-08
 96.59167    -84.3 2.267e+04 3.757e-08
 96.60163    -84.6 2.285e+04 7.117e-08
 96.61158    -84.6 2.337e+04 1.192e-07
 96.62153    -85.3 2.388e+04 1.620e-07
 96.63148    -88.4 2.415e+04 1.213e-07
 96.64144    -89.9 2.431e+04 9.270e-08
 96.65139    -91.1 2.409e+04 6.110e-08
 96.65731    -92.2 2.358e+04 3.894e-08
 96.66229    -90.9 2.347e+04 3.937e-08
 96.67130    -92.0 2.266e+04 2.668e-08
 96.67981    -93.0 2.174e+04 1.975e-08
 96.68479    -94.3 2.110e+04 1.693e-08
 96.69120    -94.4 2.061e+04 1.467e-08
 96.70618    -94.1 2.023e+04 1.299e-08
 96.72614    -94.7 1.907e+04 8.868e-09
 96.73815    -95.6 1.836e+04 7.551e-09
 96.74810    -96.3 1.827e+04 7.650e-09
 96.76595    -96.5 1.833e+04 7.686e-09
 96.78586    -96.7 1.873e+04 8.794e-09
 96.80576    -96.8 1.927e+04 1.106e-08
 96.82567    -96.7 1.984e+04 1.413e-08
 96.84467    -96.5 2.034e+04 1.757e-08
 96.85457    -96.4 2.032e+04 2.010e-08
 96.86041    -96.2 2.085e+04 2.740e-08
 96.87036    -95.9 2.135e+04 3.543e-08
 96.87786    -95.6 2.190e+04 4.377e-08
 96.88283    -96.0 2.226e+04 4.530e-08
 96.89027    -96.0 2.250e+04 4.779e-08
 96.90022    -96.7 2.264e+04 4.794e-08
 96.90779    -97.8 2.295e+04 4.227e-08
 96.91276    -97.7 2.311e+04 6.373e-08
 96.92013    -99.2 2.345e+04 5.364e-08
 96.93008   -101.3 2.412e+04 4.297e-08
 96.94003   -104.1 2.490e+04 3.355e-08
 96.94999   -107.4 2.530e+04 2.617e-08
 96.95994   -110.8 2.491e+04 2.111e-08
 96.96602   -113.6 2.372e+04 1.829e-08
 96.97100   -113.9 2.405e+04 4.177e-08
 96.97985   -116.2 2.348e+04 2.977e-08
 96.98813   -118.0 2.231e+04 2.228e-08
 96.99310   -118.0 2.156e+04 1.779e-08
 96.99975   -119.4 2.094e+04 1.582e-08
 97.00971   -121.0 2.027e+04 1.401e-08
 97.02469   -122.7 1.991e+04 1.299e-08
 97.04464   -124.6 1.875e+04 1.084e-08
 97.06455   -126.1 1.786e+04 9.394e-09
 97.07762   -127.0 1.731e+04 8.573e-09
 97.08757   -127.6 1.716e+04 7.219e-09
 97.09850   -128.0 1.668e+04 6.755e-09
 97.10845   -127.0 1.714e+04 7.649e-09
 97.12427   -127.1 1.669e+04 7.217e-09
 97.14417   -127.1 1.602e+04 6.010e-09
 97.16408   -127.0 1.517e+04 4.493e-09
 97.18399   -126.9 1.428e+04 3.173e-09
 97.19409   -127.0 1.336e+04 2.201e-09
 97.20405   -126.6 1.378e+04 2.652e-09
 97.22380   -126.4 1.287e+04 1.831e-09
 97.24371   -126.3 1.205e+04 1.303e-09
 97.26361   -125.9 1.135e+04 9.803e-10
 97.28352   -125.1 1.081e+04 7.916e-10
 97.30061   -124.1 1.045e+04 6.786e-10
 97.31057   -123.7 1.068e+04 7.282e-10
 97.31904   -122.7 1.036e+04 6.289e-10
 97.32900   -122.4 1.067e+04 7.357e-10
 97.34324   -121.3 1.041e+04 6.443e-10
 97.36314   -120.2 1.018e+04 5.678e-10
 97.38305   -119.1 9.965e+03 4.985e-10
 97.40296   -117.9 9.767e+03 4.376e-10
 97.41709   -116.6 9.635e+03 3.962e-10
 97.42704   -116.4 9.722e+03 4.060e-10
 97.44277   -115.4 9.629e+03 3.827e-10
 97.47273   -114.3 9.569e+03 3.691e-10
 97.51264   -112.4 9.440e+03 3.581e-10
 97.53376   -110.6 9.353e+03 3.509e-10
 97.54100   -109.7 9.499e+03 3.572e-10
 97.55969   -109.3 9.568e+03 3.645e-10
 97.59226   -107.6 9.419e+03 3.473e-10
 97.63208   -105.9 9.269e+03 3.225e-10
 97.67189   -104.1 9.070e+03 2.874e-10
 97.71170   -102.0 8.872e+03 2.522e-10
 97.74680    -99.9 8.717e+03 2.258e-10
 97.76671    -99.2 8.985e+03 2.501e-10
 97.79133    -97.0 8.883e+03 2.381e-10
 97.83114    -94.7 8.858e+03 2.352e-10
 97.87095    -92.4 8.854e+03 2.350e-10
 97.91077    -90.3 8.926e+03 2.410e-10
 97.95058    -88.3 9.071e+03 2.599e-10
 97.97975    -86.5 9.262e+03 2.942e-10
 97.99014    -85.9 9.546e+03 3.435e-10
 98.00078    -85.9 9.585e+03 3.471e-10
 98.03020    -84.4 9.767e+03 3.996e-10
 98.05997    -83.6 9.836e+03 4.382e-10
 98.07977    -83.0 9.986e+03 4.985e-10
 98.09603    -82.2 1.018e+04 5.710e-10
 98.10598    -82.1 1.019e+04 5.760e-10
 98.11959    -81.4 1.038e+04 6.396e-10
 98.13949    -80.8 1.056e+04 7.060e-10
 98.15940    -80.3 1.074e+04 7.740e-10
 98.17931    -79.8 1.090e+04 8.341e-10
 98.19921    -79.2 1.102e+04 8.727e-10
 98.21118    -78.8 1.109e+04 8.841e-10
 98.21451    -79.2 1.117e+04 9.091e-10
 98.22245    -79.0 1.117e+04 9.076e-10
 98.23903    -78.7 1.117e+04 8.872e-10
 98.25893    -78.5 1.110e+04 8.307e-10
 98.27884    -78.2 1.098e+04 7.593e-10
 98.30880    -77.5 1.088e+04 6.912e-10
 98.34871    -76.7 1.074e+04 5.835e-10
 98.38852    -76.3 1.072e+04 5.620e-10
 98.42197    -76.0 1.088e+04 5.844e-10
 98.43928    -76.6 1.080e+04 5.273e-10
 98.44564    -76.2 1.061e+04 4.230e-10
 98.46815    -76.0 1.089e+04 4.902e-10
 98.50796    -75.9 1.104e+04 5.475e-10
 98.54777    -75.7 1.112e+04 5.660e-10
 98.58758    -75.4 1.115e+04 5.452e-10
 98.62740    -74.8 1.122e+04 5.374e-10
 98.65869    -74.2 1.119e+04 4.888e-10
 98.67859    -74.0 1.062e+04 2.921e-10
 98.70702    -73.3 1.064e+04 2.821e-10
 98.74684    -72.3 1.072e+04 2.806e-10
 98.78665    -71.3 1.078e+04 2.842e-10
 98.82646    -70.2 1.085e+04 3.124e-10
 98.86306    -69.0 1.094e+04 3.666e-10
 98.88296    -69.3 1.110e+04 4.648e-10
 98.89164    -68.2 1.130e+04 5.542e-10
 98.91154    -67.9 1.126e+04 5.231e-10
 98.94590    -66.8 1.148e+04 6.457e-10
 98.98571    -65.6 1.161e+04 7.268e-10
 99.02553    -64.4 1.167e+04 7.378e-10
 99.06534    -63.4 1.163e+04 7.027e-10
 99.10468    -62.4 1.156e+04 6.596e-10
 99.12458    -63.1 1.144e+04 6.359e-10
 99.14496    -62.2 1.133e+04 5.974e-10
 99.18478    -61.1 1.127e+04 5.683e-10
 99.22459    -60.1 1.119e+04 5.318e-10
 99.26440    -59.0 1.110e+04 4.855e-10
 99.30415    -57.9 1.101e+04 4.416e-10
 99.33756    -56.3 1.082e+04 3.858e-10
 99.35753    -57.6 1.058e+04 3.232e-10
 99.38384    -56.8 1.074e+04 3.537e-10
 99.42365    -56.1 1.101e+04 4.436e-10
 99.46347    -55.3 1.128e+04 5.581e-10
 99.50328    -54.7 1.151e+04 6.724e-10
 99.54309    -54.4 1.170e+04 7.735e-10
 99.57058    -54.5 1.192e+04 8.644e-10
 99.59048    -55.5 1.151e+04 6.396e-10
 99.61267    -55.0 1.190e+04 7.318e-10
 99.63248    -55.2 1.200e+04 7.795e-10
 99.65238    -55.5 1.214e+04 8.625e-10
 99.67229    -55.7 1.229e+04 9.697e-10
 99.68685    -55.9 1.242e+04 1.082e-09
 99.69681    -56.4 1.211e+04 8.849e-10
 99.71210    -56.7 1.222e+04 9.857e-10
 99.73201    -56.8 1.232e+04 1.059e-09
 99.75191    -57.1 1.240e+04 1.109e-09
 99.76495    -57.4 1.252e+04 1.158e-09
 99.77490    -56.8 1.261e+04 1.229e-09
 99.79173    -57.3 1.278e+04 1.285e-09
 99.80333    -58.1 1.307e+04 1.409e-09
 99.81328    -58.5 1.284e+04 1.279e-09
 99.83154    -59.6 1.326e+04 1.502e-09
 99.85145    -60.5 1.369e+04 1.853e-09
 99.87135    -61.3 1.399e+04 2.219e-09
 99.89126    -62.0 1.410e+04 2.398e-09
 99.90985    -62.5 1.409e+04 2.421e-09
 99.91980    -62.6 1.390e+04 2.259e-09
 99.93107    -62.7 1.365e+04 1.986e-09
 99.95098    -62.9 1.329e+04 1.507e-09
 99.97089    -63.5 1.286e+04 1.099e-09
 99.98549    -64.0 1.241e+04 8.247e-10
 99.99545    -63.5 1.256e+04 8.629e-10
