# Columns:
#   distance along LOS (in CHIMPs)
#   peculiar velocity  (in km/s)
#   temperature (K)
#   HI number density
# pos=(211.304,123.682,20.3086), angles=(1.57151,4.76764)
  0.01441    -27.5 9.723e+03 3.381e-10
  0.04838    -26.9 9.997e+03 4.568e-10
  0.08750    -26.2 1.029e+04 5.888e-10
  0.12662    -25.5 1.041e+04 6.367e-10
  0.16574    -25.0 1.027e+04 5.237e-10
  0.20486    -24.9 9.958e+03 3.093e-10
  0.24399    -25.5 9.548e+03 1.854e-10
  0.28311    -25.3 9.353e+03 1.401e-10
  0.32223    -24.6 9.258e+03 1.243e-10
  0.36135    -23.8 9.224e+03 1.206e-10
  0.40048    -22.9 9.299e+03 1.250e-10
  0.43960    -22.6 9.410e+03 1.585e-10
  0.47872    -22.0 9.477e+03 2.244e-10
  0.51784    -20.9 9.644e+03 3.000e-10
  0.54561    -19.9 9.731e+03 3.237e-10
  0.56517    -20.2 9.523e+03 2.607e-10
  0.59609    -19.8 9.398e+03 2.109e-10
  0.63521    -19.8 9.185e+03 1.780e-10
  0.67433    -19.3 9.052e+03 1.723e-10
  0.71345    -18.2 8.994e+03 1.861e-10
  0.75258    -16.6 8.998e+03 1.978e-10
  0.79170    -15.0 8.979e+03 1.979e-10
  0.83082    -13.6 8.989e+03 1.896e-10
  0.86994    -12.5 9.051e+03 1.891e-10
  0.90906    -11.6 9.071e+03 2.151e-10
  0.94819    -10.1 9.035e+03 2.551e-10
  0.98731     -8.2 8.904e+03 2.544e-10
  1.02643     -6.4 8.893e+03 1.908e-10
  1.06555     -6.1 8.968e+03 1.360e-10
  1.10468     -7.1 9.061e+03 1.250e-10
  1.14380     -9.0 9.245e+03 1.823e-10
  1.18292     -9.9 9.724e+03 3.409e-10
  1.21216    -11.2 1.003e+04 5.321e-10
  1.23163    -12.0 1.028e+04 5.825e-10
  1.25118    -13.2 1.058e+04 6.915e-10
  1.27074    -15.4 1.034e+04 5.903e-10
  1.29031    -17.5 1.059e+04 6.181e-10
  1.30987    -33.5 2.669e+04 8.037e-10
  1.32449    -47.1 2.949e+04 3.088e-09
  1.33423    -52.3 2.668e+04 1.056e-08
  1.34401    -55.2 2.318e+04 3.112e-08
  1.35379    -55.7 2.148e+04 6.835e-08
  1.36357    -55.6 2.103e+04 9.393e-08
  1.37335    -55.2 2.096e+04 9.904e-08
  1.38313    -54.6 2.145e+04 7.377e-08
  1.39291    -54.3 2.315e+04 3.663e-08
  1.40269    -57.5 2.695e+04 1.289e-08
  1.41247    -70.9 2.625e+04 3.479e-09
  1.42225    -84.9 1.645e+04 1.557e-09
  1.43203    -90.1 1.435e+04 1.415e-09
  1.44675    -93.3 1.445e+04 1.849e-09
  1.46636    -95.5 1.538e+04 4.415e-09
  1.48592    -95.3 1.663e+04 8.050e-09
  1.50548    -95.3 1.731e+04 1.096e-08
  1.52504    -96.0 1.737e+04 1.156e-08
  1.54460    -96.0 1.675e+04 9.279e-09
  1.56417    -96.0 1.588e+04 5.324e-09
  1.58373    -98.5 1.506e+04 2.948e-09
  1.60329   -102.3 1.391e+04 1.899e-09
  1.61384   -105.1 1.300e+04 1.614e-09
  1.62362   -104.6 1.281e+04 1.536e-09
  1.64241   -106.0 1.254e+04 1.512e-09
  1.66197   -106.6 1.244e+04 1.623e-09
  1.68153   -106.8 1.241e+04 1.703e-09
  1.70109   -106.8 1.234e+04 1.712e-09
  1.72065   -106.6 1.204e+04 1.501e-09
  1.74022   -106.1 1.160e+04 1.151e-09
  1.75978   -105.8 1.112e+04 8.188e-10
  1.77934   -105.6 1.063e+04 5.744e-10
  1.79890   -105.4 1.023e+04 4.223e-10
  1.81846   -105.1 1.004e+04 3.546e-10
  1.84790   -104.7 9.970e+03 3.212e-10
  1.88712   -103.7 9.765e+03 2.760e-10
  1.92624   -102.1 9.545e+03 2.386e-10
  1.95714   -100.5 9.391e+03 2.134e-10
  1.97670   -100.0 9.369e+03 2.102e-10
  2.00449    -98.5 9.302e+03 1.988e-10
  2.04361    -97.0 9.274e+03 1.955e-10
  2.08273    -95.4 9.253e+03 1.967e-10
  2.12185    -93.8 9.230e+03 1.997e-10
  2.16097    -92.2 9.183e+03 1.985e-10
  2.20010    -90.5 9.103e+03 1.918e-10
  2.23922    -88.7 9.005e+03 1.778e-10
  2.27834    -87.0 8.908e+03 1.617e-10
  2.31746    -85.3 8.849e+03 1.506e-10
  2.35659    -83.6 8.837e+03 1.479e-10
  2.39571    -82.0 8.858e+03 1.504e-10
  2.43483    -80.6 8.949e+03 1.714e-10
  2.47395    -79.2 9.053e+03 2.002e-10
  2.51307    -77.8 9.124e+03 2.192e-10
  2.55220    -76.5 9.157e+03 2.271e-10
  2.59132    -75.2 9.176e+03 2.250e-10
  2.63044    -73.9 9.149e+03 2.098e-10
  2.66291    -72.7 9.116e+03 1.936e-10
  2.68247    -72.0 9.113e+03 1.970e-10
  2.70869    -70.8 9.082e+03 1.820e-10
  2.74781    -69.7 9.029e+03 1.662e-10
  2.78693    -68.7 8.959e+03 1.507e-10
  2.82605    -67.6 8.887e+03 1.384e-10
  2.86517    -66.4 8.832e+03 1.295e-10
  2.90430    -65.2 8.832e+03 1.224e-10
  2.94342    -63.9 8.834e+03 1.173e-10
  2.98254    -62.5 8.838e+03 1.112e-10
  3.02166    -61.2 8.853e+03 1.019e-10
  3.06079    -59.9 8.864e+03 9.030e-11
  3.09991    -58.8 8.903e+03 8.193e-11
  3.13903    -58.4 8.929e+03 8.026e-11
  3.17815    -58.9 9.150e+03 9.400e-11
  3.21727    -60.2 9.743e+03 2.239e-10
  3.25640    -60.5 1.046e+04 5.434e-10
  3.29552    -60.3 1.115e+04 9.479e-10
  3.33464    -61.0 1.150e+04 1.108e-09
  3.36867    -63.2 1.150e+04 9.468e-10
  3.38823    -61.9 1.126e+04 9.210e-10
  3.41289    -64.0 1.081e+04 5.734e-10
  3.45201    -66.6 1.065e+04 4.902e-10
  3.49113    -69.1 1.080e+04 5.629e-10
  3.53025    -71.1 1.167e+04 1.020e-09
  3.56937    -72.6 1.250e+04 1.612e-09
  3.59862    -74.3 1.302e+04 2.116e-09
  3.61808    -75.2 1.317e+04 2.246e-09
  3.63764    -76.5 1.326e+04 2.315e-09
  3.65720    -78.0 1.333e+04 2.376e-09
  3.67677    -79.6 1.334e+04 2.383e-09
  3.69633    -81.2 1.334e+04 2.358e-09
  3.71589    -83.0 1.331e+04 2.280e-09
  3.73114    -84.7 1.322e+04 2.150e-09
  3.74092    -83.3 1.347e+04 2.503e-09
  3.75501    -85.0 1.326e+04 2.240e-09
  3.77457    -86.6 1.286e+04 1.891e-09
  3.79413    -88.0 1.234e+04 1.534e-09
  3.81369    -89.0 1.183e+04 1.215e-09
  3.83325    -89.8 1.137e+04 9.402e-10
  3.85282    -90.5 1.093e+04 7.113e-10
  3.87238    -91.1 1.052e+04 5.296e-10
  3.89194    -91.7 1.013e+04 4.018e-10
  3.92138    -92.2 9.789e+03 3.182e-10
  3.96060    -92.1 9.451e+03 2.432e-10
  3.99972    -91.3 9.090e+03 1.785e-10
  4.03884    -90.2 8.878e+03 1.429e-10
  4.07444    -88.9 8.719e+03 1.205e-10
  4.09400    -87.6 8.691e+03 1.095e-10
  4.11709    -86.2 8.548e+03 9.155e-11
  4.15621    -84.6 8.403e+03 8.025e-11
  4.19533    -82.8 8.297e+03 7.399e-11
  4.23445    -80.8 8.267e+03 7.162e-11
  4.27357    -78.8 8.272e+03 7.144e-11
  4.31270    -77.8 8.382e+03 7.374e-11
  4.35182    -77.9 8.607e+03 9.635e-11
  4.39094    -79.8 1.002e+04 2.990e-10
  4.43006    -81.5 1.157e+04 8.946e-10
  4.45931    -82.2 1.233e+04 1.501e-09
  4.47877    -83.4 1.291e+04 1.954e-09
  4.49833    -84.7 1.337e+04 2.207e-09
  4.51789    -87.1 1.349e+04 2.221e-09
  4.53745    -90.2 1.344e+04 1.890e-09
  4.55702    -94.2 1.304e+04 1.543e-09
  4.57658    -98.7 1.290e+04 1.447e-09
  4.59614   -103.5 1.299e+04 1.447e-09
  4.61570   -108.7 1.339e+04 1.649e-09
  4.63526   -113.7 1.356e+04 1.984e-09
  4.65482   -118.2 1.353e+04 2.113e-09
  4.67438   -122.3 1.324e+04 2.045e-09
  4.69394   -126.2 1.246e+04 1.373e-09
  4.71350   -130.4 1.135e+04 7.150e-10
  4.73306   -134.8 1.051e+04 4.370e-10
  4.75263   -139.5 1.042e+04 3.925e-10
  4.77219   -146.3 1.205e+04 3.840e-10
  4.78979   -153.9 1.487e+04 7.841e-10
  4.79957   -155.3 1.480e+04 8.413e-10
  4.81131   -160.1 1.514e+04 2.018e-09
  4.83087   -163.3 1.511e+04 3.311e-09
  4.85043   -165.8 1.505e+04 3.746e-09
  4.86999   -167.9 1.468e+04 3.572e-09
  4.88955   -169.8 1.379e+04 2.261e-09
  4.90911   -171.9 1.257e+04 1.072e-09
  4.92868   -174.1 1.122e+04 4.902e-10
  4.94824   -175.5 1.052e+04 2.894e-10
  4.97768   -176.1 1.032e+04 2.234e-10
  5.01690   -176.2 1.019e+04 1.906e-10
  5.05602   -175.7 9.950e+03 1.484e-10
  5.09514   -174.8 9.840e+03 1.261e-10
  5.13426   -173.9 9.834e+03 1.210e-10
  5.17339   -173.2 9.844e+03 1.208e-10
  5.21251   -172.6 9.919e+03 1.282e-10
  5.25163   -172.1 9.972e+03 1.424e-10
  5.29075   -171.5 9.980e+03 1.550e-10
  5.32987   -170.9 9.953e+03 1.609e-10
  5.36900   -170.3 9.933e+03 1.620e-10
  5.40812   -169.7 9.876e+03 1.615e-10
  5.44724   -169.0 9.857e+03 1.609e-10
  5.48597   -168.7 9.865e+03 1.613e-10
  5.50553   -168.5 9.681e+03 1.183e-10
  5.52549   -168.5 9.717e+03 1.473e-10
  5.56461   -168.5 1.022e+04 2.348e-10
  5.60373   -168.6 1.088e+04 4.081e-10
  5.64285   -168.6 1.161e+04 6.898e-10
  5.67210   -169.3 1.212e+04 9.930e-10
  5.69156   -170.2 1.252e+04 1.277e-09
  5.71112   -171.0 1.282e+04 1.567e-09
  5.73068   -171.9 1.292e+04 1.670e-09
  5.75024   -172.9 1.293e+04 1.688e-09
  5.76980   -173.8 1.280e+04 1.636e-09
  5.78936   -174.4 1.244e+04 1.383e-09
  5.80893   -174.9 1.202e+04 1.098e-09
  5.82849   -175.3 1.164e+04 8.669e-10
  5.84805   -175.7 1.132e+04 7.014e-10
  5.85822   -176.1 1.108e+04 5.879e-10
  5.86800   -175.6 1.110e+04 5.969e-10
  5.88717   -176.0 1.090e+04 5.072e-10
  5.90673   -176.4 1.079e+04 4.562e-10
  5.92629   -176.9 1.077e+04 4.392e-10
  5.94585   -177.5 1.077e+04 4.374e-10
  5.96541   -178.3 1.087e+04 4.478e-10
  5.98498   -179.3 1.107e+04 5.261e-10
  6.00454   -180.1 1.121e+04 6.513e-10
  6.02410   -180.9 1.130e+04 7.821e-10
  6.04366   -182.1 1.145e+04 9.007e-10
  6.06322   -184.2 1.190e+04 1.058e-09
  6.08278   -187.6 1.288e+04 1.406e-09
  6.10234   -191.6 1.428e+04 2.251e-09
  6.12190   -195.6 1.557e+04 3.905e-09
  6.14146   -199.1 1.646e+04 6.206e-09
  6.16103   -202.3 1.686e+04 8.007e-09
  6.18059   -205.3 1.691e+04 8.443e-09
  6.20015   -207.9 1.669e+04 8.247e-09
  6.21110   -210.0 1.586e+04 6.054e-09
  6.22088   -209.2 1.610e+04 7.379e-09
  6.23927   -210.9 1.509e+04 4.785e-09
  6.25883   -212.4 1.401e+04 2.698e-09
  6.27839   -213.9 1.296e+04 1.474e-09
  6.29795   -215.3 1.200e+04 8.623e-10
  6.31751   -216.2 1.116e+04 5.836e-10
  6.33708   -216.5 1.049e+04 4.621e-10
  6.35664   -216.5 1.020e+04 3.945e-10
  6.37620   -216.3 1.010e+04 3.445e-10
  6.39576   -215.8 1.004e+04 3.143e-10
  6.42520   -215.3 9.954e+03 2.828e-10
  6.46442   -213.7 9.692e+03 2.277e-10
  6.50354   -212.1 9.488e+03 1.813e-10
  6.54266   -210.4 9.347e+03 1.515e-10
  6.58178   -208.8 9.255e+03 1.342e-10
  6.62091   -207.0 9.223e+03 1.273e-10
  6.66003   -205.2 9.217e+03 1.264e-10
  6.69915   -203.5 9.231e+03 1.279e-10
  6.73827   -201.8 9.319e+03 1.374e-10
  6.77740   -200.1 9.413e+03 1.502e-10
  6.81652   -198.6 9.468e+03 1.594e-10
  6.85564   -197.1 9.479e+03 1.622e-10
  6.89476   -195.5 9.472e+03 1.621e-10
  6.91706   -193.8 9.419e+03 1.485e-10
  6.93662   -193.4 9.408e+03 1.491e-10
  6.97301   -191.5 9.341e+03 1.231e-10
  7.01213   -189.5 9.284e+03 1.004e-10
  7.05125   -187.3 9.276e+03 8.432e-11
  7.09037   -185.1 9.340e+03 7.599e-11
  7.12950   -182.8 9.386e+03 7.406e-11
  7.16862   -181.1 9.421e+03 7.413e-11
  7.20774   -180.5 9.859e+03 8.159e-11
  7.24686   -180.5 1.046e+04 1.403e-10
  7.28598   -180.5 1.088e+04 2.966e-10
  7.32511   -180.7 1.126e+04 5.561e-10
  7.36423   -181.1 1.155e+04 8.401e-10
  7.40335   -181.5 1.166e+04 9.993e-10
  7.44247   -181.7 1.166e+04 1.031e-09
  7.48160   -181.7 1.154e+04 9.997e-10
  7.52072   -181.2 1.136e+04 8.079e-10
  7.55984   -180.3 1.132e+04 6.122e-10
  7.59896   -179.5 1.145e+04 4.807e-10
  7.62283   -179.3 1.158e+04 4.050e-10
  7.64239   -180.3 1.136e+04 3.973e-10
  7.67721   -179.8 1.136e+04 3.529e-10
  7.71633   -179.6 1.131e+04 3.203e-10
  7.75545   -179.5 1.122e+04 2.898e-10
  7.79457   -179.5 1.111e+04 2.616e-10
  7.83370   -179.3 1.107e+04 2.378e-10
  7.87282   -179.1 1.110e+04 2.195e-10
  7.91194   -178.8 1.118e+04 2.126e-10
  7.95106   -178.5 1.125e+04 2.186e-10
  7.99018   -178.3 1.144e+04 2.680e-10
  8.02931   -178.3 1.167e+04 3.616e-10
  8.06843   -178.3 1.193e+04 4.889e-10
  8.10755   -178.4 1.218e+04 6.395e-10
  8.14667   -178.9 1.242e+04 8.093e-10
  8.18580   -179.5 1.264e+04 1.007e-09
  8.22492   -180.3 1.282e+04 1.231e-09
  8.26404   -181.2 1.293e+04 1.448e-09
  8.30316   -182.3 1.296e+04 1.582e-09
  8.32859   -183.4 1.295e+04 1.623e-09
  8.34815   -183.2 1.302e+04 2.253e-09
  8.38141   -183.7 1.279e+04 2.246e-09
  8.42053   -183.8 1.236e+04 1.885e-09
  8.45965   -183.5 1.195e+04 1.370e-09
  8.49877   -182.5 1.152e+04 9.530e-10
  8.53790   -181.0 1.124e+04 7.088e-10
  8.57702   -179.6 1.102e+04 5.528e-10
  8.61614   -178.1 1.076e+04 4.262e-10
  8.65526   -176.2 1.050e+04 3.255e-10
  8.69438   -174.1 1.037e+04 2.498e-10
  8.73351   -172.1 1.039e+04 1.997e-10
  8.77263   -170.1 1.045e+04 1.676e-10
  8.81175   -168.1 1.049e+04 1.477e-10
  8.85087   -166.2 1.050e+04 1.355e-10
  8.89000   -164.3 1.049e+04 1.280e-10
  8.92912   -162.5 1.049e+04 1.235e-10
  8.96824   -160.7 1.054e+04 1.206e-10
  9.00736   -159.1 1.058e+04 1.193e-10
  9.03436   -157.6 1.074e+04 1.193e-10
  9.05392   -157.6 1.072e+04 1.387e-10
  9.08561   -156.1 1.084e+04 1.639e-10
  9.12473   -154.8 1.095e+04 2.019e-10
  9.16385   -153.7 1.109e+04 2.473e-10
  9.20297   -152.8 1.122e+04 2.870e-10
  9.24210   -152.3 1.127e+04 3.048e-10
  9.28122   -151.7 1.128e+04 3.076e-10
  9.32034   -150.9 1.116e+04 2.916e-10
  9.35946   -149.9 1.102e+04 2.359e-10
  9.39858   -148.7 1.092e+04 1.810e-10
  9.43771   -147.5 1.085e+04 1.427e-10
  9.47683   -146.3 1.082e+04 1.209e-10
  9.51595   -145.1 1.080e+04 1.122e-10
  9.55507   -144.0 1.079e+04 1.101e-10
  9.59420   -143.1 1.077e+04 1.136e-10
  9.63332   -142.3 1.071e+04 1.254e-10
  9.67244   -141.5 1.066e+04 1.430e-10
  9.71156   -140.6 1.064e+04 1.642e-10
  9.74012   -139.6 1.062e+04 1.869e-10
  9.75969   -139.0 1.063e+04 1.351e-10
  9.78981   -137.9 1.059e+04 1.545e-10
  9.82893   -136.7 1.057e+04 1.748e-10
  9.86805   -135.5 1.057e+04 1.936e-10
  9.90717   -134.4 1.054e+04 2.078e-10
  9.94630   -133.2 1.052e+04 2.151e-10
  9.98542   -132.1 1.051e+04 2.164e-10
 10.02454   -130.9 1.044e+04 2.125e-10
 10.06366   -129.6 1.035e+04 1.995e-10
 10.10278   -128.2 1.026e+04 1.849e-10
 10.14191   -126.8 1.019e+04 1.740e-10
 10.18103   -125.3 1.015e+04 1.702e-10
 10.22015   -124.0 1.015e+04 1.697e-10
 10.25927   -123.1 1.020e+04 1.750e-10
 10.29840   -122.8 1.056e+04 2.726e-10
 10.33752   -122.4 1.107e+04 5.406e-10
 10.37664   -122.0 1.166e+04 9.671e-10
 10.41576   -121.9 1.219e+04 1.401e-09
 10.44589   -122.4 1.243e+04 1.587e-09
 10.46545   -122.5 1.219e+04 1.352e-09
 10.49401   -123.2 1.216e+04 1.338e-09
 10.53313   -123.3 1.186e+04 1.002e-09
 10.57225   -123.3 1.151e+04 6.033e-10
 10.61137   -123.2 1.121e+04 3.545e-10
 10.65050   -123.0 1.095e+04 2.495e-10
 10.68962   -122.2 1.082e+04 2.265e-10
 10.72874   -121.2 1.080e+04 2.237e-10
 10.76786   -120.4 1.086e+04 2.394e-10
 10.80698   -119.8 1.101e+04 2.830e-10
 10.84611   -119.3 1.115e+04 3.349e-10
 10.88523   -119.0 1.127e+04 3.914e-10
 10.92435   -118.9 1.138e+04 4.523e-10
 10.96347   -119.0 1.145e+04 5.067e-10
 11.00259   -119.1 1.150e+04 5.399e-10
 11.04172   -119.3 1.152e+04 5.491e-10
 11.08084   -119.4 1.151e+04 5.512e-10
 11.11996   -119.4 1.145e+04 5.191e-10
 11.15166   -119.3 1.137e+04 4.362e-10
 11.17122   -119.4 1.147e+04 3.624e-10
 11.19821   -119.2 1.135e+04 3.011e-10
 11.23733   -118.9 1.125e+04 2.274e-10
 11.27645   -118.4 1.118e+04 1.730e-10
 11.31557   -117.9 1.113e+04 1.454e-10
 11.35469   -117.1 1.108e+04 1.369e-10
 11.39382   -116.2 1.106e+04 1.352e-10
 11.43294   -115.2 1.105e+04 1.352e-10
 11.47206   -114.2 1.104e+04 1.354e-10
 11.51118   -113.2 1.101e+04 1.359e-10
 11.55031   -112.2 1.096e+04 1.390e-10
 11.58943   -111.1 1.092e+04 1.464e-10
 11.62855   -109.9 1.089e+04 1.558e-10
 11.66767   -108.6 1.088e+04 1.649e-10
 11.70679   -107.2 1.087e+04 1.699e-10
 11.74592   -105.8 1.085e+04 1.710e-10
 11.78504   -104.4 1.078e+04 1.605e-10
 11.82416   -102.8 1.074e+04 1.438e-10
 11.85742   -101.3 1.072e+04 1.283e-10
 11.87698   -101.3 1.080e+04 9.842e-11
 11.90241    -99.6 1.077e+04 9.314e-11
 11.94153    -97.8 1.074e+04 9.173e-11
 11.98065    -96.0 1.071e+04 9.182e-11
 12.01977    -94.0 1.070e+04 9.227e-11
 12.05889    -92.0 1.066e+04 9.259e-11
 12.09802    -90.0 1.066e+04 8.964e-11
 12.13714    -87.9 1.073e+04 8.303e-11
 12.17626    -85.8 1.085e+04 7.545e-11
 12.21538    -83.6 1.091e+04 6.923e-11
 12.25451    -81.5 1.088e+04 6.394e-11
 12.29363    -79.5 1.082e+04 5.918e-11
 12.33275    -77.4 1.076e+04 5.549e-11
 12.37187    -75.3 1.067e+04 5.359e-11
 12.41099    -73.1 1.061e+04 5.263e-11
 12.45012    -70.9 1.056e+04 5.208e-11
 12.48924    -68.5 1.054e+04 5.196e-11
 12.52836    -66.3 1.055e+04 5.222e-11
 12.56319    -64.7 1.072e+04 5.435e-11
 12.58275    -64.1 1.067e+04 5.526e-11
 12.60661    -62.7 1.083e+04 6.785e-11
 12.64573    -61.8 1.105e+04 1.164e-10
 12.68485    -60.6 1.132e+04 2.785e-10
 12.72397    -59.3 1.173e+04 6.595e-10
 12.76309    -58.2 1.218e+04 1.252e-09
 12.80222    -57.3 1.249e+04 1.725e-09
 12.84134    -56.8 1.254e+04 1.821e-09
 12.87428    -56.3 1.229e+04 1.512e-09
 12.89375    -55.6 1.228e+04 1.394e-09
 12.90961    -55.6 1.176e+04 8.971e-10
 12.92566    -55.5 1.149e+04 7.068e-10
 12.93544    -55.3 1.181e+04 1.039e-09
 12.94873    -55.5 1.144e+04 8.700e-10
 12.96829    -55.2 1.110e+04 8.087e-10
 12.98785    -54.2 1.076e+04 7.423e-10
 13.00741    -53.0 1.069e+04 6.961e-10
 13.02697    -51.9 1.078e+04 6.502e-10
 13.04654    -51.4 1.081e+04 6.168e-10
 13.06610    -50.1 1.089e+04 5.647e-10
 13.08566    -49.8 1.091e+04 5.490e-10
 13.10522    -48.8 1.101e+04 5.225e-10
 13.12478    -48.6 1.101e+04 5.197e-10
 13.14434    -48.0 1.117e+04 5.236e-10
 13.16390    -47.9 1.112e+04 5.666e-10
 13.18346    -47.4 1.104e+04 7.049e-10
 13.20302    -45.9 1.107e+04 8.566e-10
 13.22259    -44.5 1.129e+04 1.003e-09
 13.24215    -43.6 1.172e+04 1.147e-09
 13.26171    -43.6 1.259e+04 1.334e-09
 13.27854    -45.2 1.408e+04 1.908e-09
 13.28832    -46.0 1.399e+04 2.833e-09
 13.30083    -47.5 1.508e+04 4.995e-09
 13.32039    -47.8 1.571e+04 8.925e-09
 13.33995    -47.1 1.634e+04 1.324e-08
 13.35951    -45.9 1.670e+04 1.560e-08
 13.37907    -45.3 1.672e+04 1.538e-08
 13.39370    -45.1 1.629e+04 1.156e-08
 13.40343    -45.0 1.621e+04 1.091e-08
 13.41815    -45.4 1.564e+04 7.511e-09
 13.43776    -47.6 1.502e+04 5.391e-09
 13.45238    -49.5 1.460e+04 4.613e-09
 13.45977    -50.0 1.475e+04 4.672e-09
 13.46466    -49.9 1.457e+04 4.461e-09
 13.47189    -51.1 1.453e+04 4.351e-09
 13.48167    -51.4 1.475e+04 4.685e-09
 13.49145    -52.4 1.522e+04 5.565e-09
 13.50123    -53.3 1.650e+04 7.272e-09
 13.51101    -54.6 1.863e+04 1.059e-08
 13.52079    -56.0 2.134e+04 1.535e-08
 13.53058    -57.6 2.398e+04 2.157e-08
 13.54036    -59.7 2.561e+04 2.944e-08
 13.55014    -61.9 2.559e+04 4.162e-08
 13.55992    -64.0 2.434e+04 5.655e-08
 13.56970    -65.3 2.344e+04 6.457e-08
 13.57948    -66.3 2.194e+04 6.758e-08
 13.58926    -67.0 2.113e+04 6.227e-08
 13.59904    -67.9 2.097e+04 5.891e-08
 13.60882    -69.1 2.229e+04 6.344e-08
 13.61860    -70.9 2.391e+04 9.419e-08
 13.62838    -73.1 2.416e+04 1.812e-07
 13.63621    -75.1 2.376e+04 3.280e-07
 13.64108    -77.2 2.419e+04 3.395e-07
 13.64545    -78.6 2.390e+04 3.789e-07
 13.65034    -79.7 2.369e+04 4.064e-07
 13.65523    -81.8 2.301e+04 4.714e-07
 13.66012    -83.7 2.241e+04 5.479e-07
 13.66501    -85.3 2.171e+04 6.585e-07
 13.66990    -86.0 2.119e+04 7.718e-07
 13.67479    -86.2 2.086e+04 8.470e-07
 13.67968    -86.3 2.087e+04 8.500e-07
 13.68457    -86.5 2.110e+04 7.632e-07
 13.68946    -87.0 2.143e+04 6.325e-07
 13.69682    -87.5 2.168e+04 4.564e-07
 13.70662    -87.5 2.354e+04 2.079e-07
 13.71641    -88.7 2.572e+04 9.330e-08
 13.72619    -90.6 2.724e+04 4.326e-08
 13.73597    -92.5 2.700e+04 2.482e-08
 13.74575    -94.0 2.546e+04 1.628e-08
 13.75553    -95.4 2.342e+04 1.090e-08
 13.76531    -96.7 2.113e+04 7.087e-09
 13.77509    -98.2 1.845e+04 4.610e-09
 13.78981    -99.7 1.502e+04 3.186e-09
 13.80942    -99.2 1.334e+04 2.512e-09
 13.82898    -97.9 1.221e+04 1.939e-09
 13.84854    -96.8 1.166e+04 1.568e-09
 13.86810    -95.6 1.137e+04 1.299e-09
 13.88766    -94.2 1.114e+04 1.097e-09
 13.90722    -93.0 1.093e+04 9.477e-10
 13.92679    -91.7 1.067e+04 8.291e-10
 13.94635    -90.2 1.039e+04 7.231e-10
 13.96591    -88.4 1.028e+04 6.206e-10
 13.98431    -86.6 1.059e+04 5.376e-10
 13.99409    -85.8 1.076e+04 5.803e-10
 14.01491    -84.8 1.086e+04 5.885e-10
 14.05413    -82.8 1.083e+04 5.646e-10
 14.09325    -80.5 1.078e+04 5.377e-10
 14.13237    -78.3 1.078e+04 5.261e-10
 14.17149    -76.1 1.084e+04 5.272e-10
 14.21062    -74.2 1.084e+04 5.533e-10
 14.23986    -72.8 1.073e+04 5.753e-10
 14.25932    -72.3 1.090e+04 6.270e-10
 14.28876    -71.1 1.124e+04 7.419e-10
 14.32798    -70.1 1.142e+04 7.664e-10
 14.36711    -69.1 1.150e+04 7.466e-10
 14.40623    -67.8 1.150e+04 6.015e-10
 14.44535    -66.4 1.126e+04 4.447e-10
 14.48447    -65.0 1.101e+04 3.266e-10
 14.52359    -63.6 1.079e+04 2.648e-10
 14.56272    -62.1 1.062e+04 2.404e-10
 14.60184    -60.3 1.044e+04 2.304e-10
 14.64096    -58.4 1.030e+04 2.182e-10
 14.68008    -56.3 1.022e+04 1.943e-10
 14.70005    -54.3 1.021e+04 1.604e-10
 14.71961    -54.0 1.030e+04 1.668e-10
 14.75833    -52.0 1.022e+04 1.462e-10
 14.79745    -50.1 1.021e+04 1.324e-10
 14.83657    -48.2 1.021e+04 1.278e-10
 14.87569    -46.4 1.025e+04 1.295e-10
 14.91482    -44.7 1.025e+04 1.426e-10
 14.95394    -42.9 1.025e+04 1.570e-10
 14.99306    -41.3 1.033e+04 1.627e-10
 15.03218    -40.0 1.048e+04 1.638e-10
 15.07131    -38.9 1.061e+04 1.651e-10
 15.11043    -38.1 1.063e+04 1.733e-10
 15.14955    -37.3 1.054e+04 1.836e-10
 15.18867    -36.3 1.044e+04 1.865e-10
 15.22779    -34.9 1.030e+04 1.787e-10
 15.26692    -33.1 1.027e+04 1.487e-10
 15.30604    -31.4 1.028e+04 1.102e-10
 15.34516    -30.0 1.027e+04 8.397e-11
 15.38428    -28.7 1.028e+04 7.463e-11
 15.40581    -27.5 1.058e+04 7.666e-11
 15.42537    -26.9 9.834e+03 5.601e-11
 15.46253    -25.7 1.021e+04 6.880e-11
 15.50165    -24.3 1.039e+04 1.113e-10
 15.54077    -22.5 1.071e+04 1.848e-10
 15.57989    -20.6 1.101e+04 2.910e-10
 15.61902    -18.8 1.131e+04 4.155e-10
 15.65814    -17.6 1.173e+04 5.892e-10
 15.68738    -18.5 1.172e+04 8.676e-10
 15.70685    -17.2 1.181e+04 1.175e-09
 15.72641    -16.2 1.229e+04 1.635e-09
 15.74597    -15.9 1.252e+04 1.962e-09
 15.75850    -14.9 1.312e+04 2.430e-09
 15.76828    -14.4 1.308e+04 2.331e-09
 15.78509    -14.4 1.326e+04 2.631e-09
 15.80465    -14.7 1.336e+04 3.018e-09
 15.82421    -14.5 1.358e+04 3.575e-09
 15.84377    -14.6 1.348e+04 3.972e-09
 15.86333    -13.8 1.373e+04 4.248e-09
 15.88290    -13.6 1.404e+04 3.993e-09
 15.90246    -14.2 1.439e+04 3.726e-09
 15.92202    -16.1 1.482e+04 3.599e-09
 15.94158    -19.2 1.525e+04 3.994e-09
 15.96114    -21.9 1.555e+04 5.486e-09
 15.98070    -22.7 1.611e+04 7.549e-09
 15.99532    -22.7 1.656e+04 1.022e-08
 16.00506    -22.8 1.657e+04 1.053e-08
 16.01484    -22.8 1.627e+04 1.050e-08
 16.02462    -22.6 1.607e+04 1.023e-08
 16.03934    -22.7 1.582e+04 9.262e-09
 16.05895    -22.7 1.545e+04 7.968e-09
 16.07851    -22.9 1.513e+04 6.195e-09
 16.09807    -23.3 1.477e+04 4.988e-09
 16.11138    -24.1 1.459e+04 3.969e-09
 16.12116    -24.7 1.483e+04 3.144e-09
 16.13719    -25.3 1.431e+04 2.605e-09
 16.15675    -25.6 1.374e+04 2.279e-09
 16.17631    -25.5 1.326e+04 2.039e-09
 16.19587    -24.8 1.286e+04 1.791e-09
 16.21543    -24.2 1.257e+04 1.505e-09
 16.23500    -23.7 1.226e+04 1.196e-09
 16.25456    -23.3 1.197e+04 9.416e-10
 16.27412    -23.0 1.176e+04 7.686e-10
 16.29368    -22.8 1.161e+04 6.622e-10
 16.31324    -22.5 1.151e+04 6.187e-10
 16.33280    -22.0 1.145e+04 6.113e-10
 16.35236    -21.5 1.145e+04 6.552e-10
 16.37192    -20.7 1.163e+04 7.277e-10
 16.39148    -20.1 1.180e+04 7.868e-10
 16.41105    -19.7 1.184e+04 7.928e-10
 16.43061    -18.9 1.179e+04 7.527e-10
 16.45017    -17.9 1.155e+04 6.663e-10
 16.47961    -17.3 1.138e+04 4.725e-10
 16.51883    -16.7 1.122e+04 3.632e-10
 16.55795    -16.1 1.112e+04 3.177e-10
 16.59707    -14.9 1.098e+04 3.216e-10
 16.63619    -13.0 1.121e+04 3.660e-10
 16.67532    -12.4 1.116e+04 3.437e-10
 16.71444    -11.2 1.105e+04 3.956e-10
 16.75356     -9.4 1.116e+04 4.887e-10
 16.79268     -7.3 1.141e+04 5.595e-10
 16.81734     -5.9 1.169e+04 6.172e-10
 16.83691     -5.7 1.179e+04 5.447e-10
 16.87093     -4.6 1.198e+04 6.583e-10
 16.91005     -3.8 1.225e+04 9.198e-10
 16.94917     -2.6 1.261e+04 1.429e-09
 16.98829     -2.0 1.297e+04 1.853e-09
 17.02742     -2.3 1.331e+04 2.151e-09
 17.06654     -2.6 1.326e+04 2.555e-09
 17.10566     -3.0 1.322e+04 1.909e-09
 17.14478     -3.7 1.263e+04 1.078e-09
 17.18390     -4.5 1.210e+04 4.467e-10
 17.22303     -5.1 1.123e+04 2.595e-10
 17.26215     -4.5 1.098e+04 1.502e-10
 17.30127     -4.1 1.103e+04 1.106e-10
 17.34039     -3.9 1.127e+04 1.055e-10
 17.37952     -4.5 1.115e+04 1.692e-10
 17.41864     -3.4 1.099e+04 3.026e-10
 17.45776     -1.3 1.103e+04 4.152e-10
 17.49688      0.5 1.102e+04 3.857e-10
 17.52311      2.4 1.107e+04 2.641e-10
 17.54267      1.5 1.118e+04 2.546e-10
 17.57513      2.2 1.125e+04 1.712e-10
 17.61425      2.9 1.120e+04 1.466e-10
 17.65337      3.9 1.111e+04 1.634e-10
 17.69249      5.5 1.099e+04 2.068e-10
 17.73162      7.5 1.098e+04 2.412e-10
 17.77074      9.5 1.108e+04 2.434e-10
 17.80986     11.2 1.126e+04 2.321e-10
 17.84898     12.1 1.156e+04 2.580e-10
 17.88810     11.6 1.198e+04 4.044e-10
 17.92723     12.1 1.205e+04 8.934e-10
 17.96635     13.5 1.247e+04 1.529e-09
 18.00547     14.2 1.277e+04 1.577e-09
 18.04459     13.9 1.279e+04 1.373e-09
 18.08372     12.9 1.272e+04 1.424e-09
 18.12284     12.6 1.250e+04 1.641e-09
 18.16196     12.9 1.236e+04 1.712e-09
 18.20108     13.3 1.223e+04 1.574e-09
 18.22888     13.8 1.194e+04 1.278e-09
 18.24844     13.2 1.176e+04 9.764e-10
 18.27933     14.5 1.132e+04 8.197e-10
 18.31845     16.3 1.102e+04 5.739e-10
 18.35757     17.7 1.089e+04 3.823e-10
 18.39669     18.8 1.079e+04 2.890e-10
 18.43582     20.3 1.067e+04 2.623e-10
 18.47494     21.9 1.066e+04 2.549e-10
 18.51406     23.6 1.074e+04 2.552e-10
 18.55318     25.2 1.080e+04 2.633e-10
 18.59230     26.8 1.083e+04 2.790e-10
 18.63143     28.4 1.082e+04 3.078e-10
 18.67055     30.0 1.081e+04 3.553e-10
 18.70967     31.8 1.083e+04 4.196e-10
 18.74879     33.6 1.088e+04 4.962e-10
 18.78792     35.5 1.095e+04 5.788e-10
 18.82704     37.3 1.104e+04 6.754e-10
 18.86616     38.9 1.117e+04 8.016e-10
 18.90528     40.5 1.137e+04 9.618e-10
 18.93464     41.9 1.161e+04 1.123e-09
 18.95420     41.8 1.164e+04 9.645e-10
 18.98353     43.0 1.174e+04 9.475e-10
 19.02265     44.0 1.184e+04 8.336e-10
 19.06177     44.9 1.192e+04 6.816e-10
 19.10089     45.6 1.185e+04 5.939e-10
 19.14002     46.3 1.177e+04 5.951e-10
 19.17914     47.3 1.174e+04 6.440e-10
 19.21826     48.5 1.175e+04 7.130e-10
 19.25738     49.7 1.178e+04 7.797e-10
 19.29650     50.9 1.182e+04 8.562e-10
 19.33563     52.1 1.183e+04 9.124e-10
 19.37475     53.3 1.184e+04 9.138e-10
 19.41387     54.4 1.187e+04 9.089e-10
 19.45299     55.6 1.194e+04 9.345e-10
 19.49212     56.6 1.211e+04 1.037e-09
 19.53124     57.6 1.238e+04 1.280e-09
 19.57036     58.8 1.271e+04 1.610e-09
 19.60948     60.1 1.280e+04 1.731e-09
 19.64041     61.6 1.269e+04 1.610e-09
 19.65997     61.9 1.290e+04 1.786e-09
 19.68773     63.6 1.274e+04 1.604e-09
 19.72685     65.7 1.247e+04 1.251e-09
 19.76597     67.9 1.224e+04 9.125e-10
 19.80509     70.1 1.209e+04 6.667e-10
 19.84422     72.3 1.207e+04 5.114e-10
 19.88334     74.6 1.189e+04 4.490e-10
 19.92246     77.1 1.165e+04 4.527e-10
 19.96158     79.6 1.163e+04 4.587e-10
 20.00070     82.3 1.158e+04 4.814e-10
 20.03983     85.0 1.155e+04 5.152e-10
 20.07895     87.7 1.154e+04 5.526e-10
 20.11807     90.4 1.155e+04 5.877e-10
 20.15719     93.2 1.154e+04 6.127e-10
 20.19632     95.9 1.152e+04 6.118e-10
 20.23544     98.5 1.149e+04 5.949e-10
 20.27456    101.2 1.140e+04 5.491e-10
 20.31368    103.9 1.127e+04 4.840e-10
 20.34617    106.6 1.109e+04 4.190e-10
 20.36573    106.5 1.106e+04 4.324e-10
 20.39193    109.4 1.097e+04 3.964e-10
 20.43105    112.5 1.098e+04 3.927e-10
 20.47017    115.8 1.107e+04 4.013e-10
 20.50929    118.7 1.125e+04 4.332e-10
 20.54842    120.8 1.133e+04 4.677e-10
 20.57766    122.2 1.131e+04 4.940e-10
 20.59712    123.9 1.128e+04 5.271e-10
 20.61668    125.6 1.129e+04 5.712e-10
 20.63624    127.2 1.132e+04 6.136e-10
 20.65581    128.7 1.136e+04 6.481e-10
 20.67537    130.3 1.140e+04 6.736e-10
 20.69493    131.8 1.146e+04 6.949e-10
 20.70864    133.2 1.153e+04 7.099e-10
 20.71842    133.4 1.151e+04 6.985e-10
 20.73405    134.9 1.155e+04 6.985e-10
 20.75361    136.4 1.160e+04 6.902e-10
 20.77317    137.8 1.164e+04 6.790e-10
 20.79273    139.2 1.169e+04 6.689e-10
 20.81229    140.6 1.171e+04 6.647e-10
 20.83186    142.1 1.175e+04 6.721e-10
 20.85142    143.5 1.181e+04 7.083e-10
 20.87098    144.8 1.196e+04 7.831e-10
 20.89054    145.9 1.216e+04 8.872e-10
 20.91010    146.9 1.236e+04 1.013e-09
 20.92966    147.9 1.262e+04 1.181e-09
 20.94922    148.8 1.299e+04 1.423e-09
 20.96878    149.1 1.344e+04 1.754e-09
 20.98834    149.0 1.396e+04 2.203e-09
 21.00791    148.8 1.463e+04 2.872e-09
 21.02747    148.3 1.544e+04 3.938e-09
 21.04703    147.5 1.636e+04 5.520e-09
 21.06152    146.8 1.719e+04 7.611e-09
 21.07130    147.1 1.671e+04 6.542e-09
 21.08615    146.5 1.734e+04 7.904e-09
 21.10571    145.9 1.771e+04 8.601e-09
 21.12527    145.3 1.783e+04 8.509e-09
 21.14483    144.6 1.794e+04 8.189e-09
 21.16439    143.9 1.797e+04 7.672e-09
 21.18396    143.4 1.796e+04 7.269e-09
 21.20352    143.1 1.795e+04 7.179e-09
 21.22308    143.0 1.799e+04 7.209e-09
 21.24264    143.0 1.797e+04 7.178e-09
 21.26220    142.9 1.791e+04 7.112e-09
 21.28176    142.9 1.771e+04 6.874e-09
 21.30132    143.1 1.731e+04 6.273e-09
 21.32088    143.5 1.676e+04 5.406e-09
 21.34044    144.0 1.612e+04 4.496e-09
 21.36001    144.6 1.547e+04 3.723e-09
 21.37957    145.2 1.490e+04 3.143e-09
 21.39913    145.9 1.442e+04 2.730e-09
 21.41441    146.9 1.406e+04 2.449e-09
 21.42419    146.9 1.337e+04 2.021e-09
 21.43825    148.0 1.313e+04 1.835e-09
 21.45781    149.2 1.295e+04 1.701e-09
 21.47737    150.6 1.280e+04 1.638e-09
 21.49693    152.1 1.273e+04 1.633e-09
 21.51649    153.5 1.269e+04 1.648e-09
 21.53606    154.9 1.262e+04 1.696e-09
 21.55562    156.5 1.260e+04 1.774e-09
 21.57518    158.0 1.262e+04 1.870e-09
 21.59474    159.5 1.260e+04 1.952e-09
 21.61430    161.1 1.256e+04 1.971e-09
 21.63386    162.6 1.253e+04 1.960e-09
 21.65342    164.2 1.243e+04 1.924e-09
 21.67298    165.8 1.233e+04 1.838e-09
 21.69254    167.4 1.221e+04 1.711e-09
 21.71211    169.1 1.207e+04 1.563e-09
 21.73167    170.8 1.192e+04 1.413e-09
 21.75123    172.4 1.179e+04 1.278e-09
 21.76729    174.0 1.167e+04 1.154e-09
 21.77707    174.0 1.145e+04 9.316e-10
 21.79035    175.4 1.130e+04 8.390e-10
 21.80991    176.9 1.114e+04 7.582e-10
 21.82947    178.3 1.098e+04 6.867e-10
 21.84903    179.7 1.082e+04 6.239e-10
 21.86859    180.9 1.067e+04 5.683e-10
 21.88816    182.1 1.052e+04 5.200e-10
 21.90772    183.1 1.039e+04 4.784e-10
 21.92728    184.1 1.027e+04 4.443e-10
 21.94684    184.9 1.013e+04 4.118e-10
 21.96640    185.4 1.003e+04 3.886e-10
 21.98596    186.3 9.899e+03 3.648e-10
 22.00552    186.7 9.779e+03 3.479e-10
 22.02508    187.4 9.675e+03 3.294e-10
 22.04464    187.9 9.652e+03 3.227e-10
 22.06421    188.3 9.672e+03 3.247e-10
 22.08377    188.7 9.790e+03 3.412e-10
 22.10333    188.7 1.008e+04 4.004e-10
 22.12017    188.5 1.060e+04 5.308e-10
 22.12995    187.2 1.094e+04 6.911e-10
 22.14245    187.0 1.150e+04 8.762e-10
 22.16201    187.0 1.221e+04 1.040e-09
 22.17663    187.6 1.261e+04 1.110e-09
 22.18636    187.6 1.334e+04 1.230e-09
 22.19615    186.8 1.489e+04 1.553e-09
 22.20593    185.0 1.752e+04 2.315e-09
 22.21571    182.5 2.088e+04 4.419e-09
 22.22549    180.0 2.347e+04 9.303e-09
 22.23527    178.0 2.465e+04 1.792e-08
 22.24505    176.7 2.497e+04 2.960e-08
 22.25483    175.8 2.484e+04 4.048e-08
 22.26461    175.2 2.456e+04 4.384e-08
 22.27439    174.6 2.444e+04 4.314e-08
 22.28417    174.0 2.426e+04 4.102e-08
 22.29395    173.2 2.406e+04 3.507e-08
 22.30141    172.6 2.384e+04 2.769e-08
 22.30630    172.5 2.363e+04 2.457e-08
 22.31845    170.9 2.346e+04 9.555e-09
 22.33806    170.1 2.225e+04 2.736e-09
 22.35762    167.9 1.697e+04 5.811e-10
 22.37718    164.9 1.123e+04 3.160e-10
 22.39674    163.0 9.708e+03 2.876e-10
 22.41631    162.7 9.553e+03 2.835e-10
 22.43587    162.7 9.554e+03 2.848e-10
 22.45543    162.6 9.603e+03 2.971e-10
 22.47306    162.4 9.749e+03 3.354e-10
 22.48284    161.7 9.732e+03 2.898e-10
 22.49455    161.4 9.925e+03 3.556e-10
 22.51411    161.0 1.014e+04 4.430e-10
 22.53367    160.8 1.034e+04 5.474e-10
 22.55323    160.7 1.055e+04 6.589e-10
 22.57279    160.7 1.074e+04 7.621e-10
 22.59236    160.8 1.092e+04 8.424e-10
 22.61192    161.2 1.111e+04 8.994e-10
 22.63148    161.5 1.134e+04 9.558e-10
 22.65104    161.4 1.163e+04 1.043e-09
 22.67060    160.9 1.223e+04 1.239e-09
 22.69016    159.5 1.340e+04 1.707e-09
 22.70972    157.8 1.486e+04 2.730e-09
 22.72928    156.7 1.575e+04 4.164e-09
 22.74884    156.2 1.634e+04 5.823e-09
 22.76841    155.9 1.679e+04 7.019e-09
 22.78797    155.2 1.687e+04 6.883e-09
 22.80753    154.3 1.696e+04 6.027e-09
 22.82594    151.4 1.723e+04 4.215e-09
 22.83572    148.4 1.727e+04 3.582e-09
 22.84171    146.2 1.710e+04 3.135e-09
 22.85144    144.7 1.666e+04 3.038e-09
 22.86122    142.8 1.681e+04 3.171e-09
 22.87100    139.1 1.801e+04 3.917e-09
 22.88078    133.9 2.081e+04 6.428e-09
 22.89056    129.2 2.229e+04 1.334e-08
 22.90035    126.4 2.271e+04 2.856e-08
 22.91013    125.5 2.273e+04 5.686e-08
 22.91991    125.1 2.284e+04 8.983e-08
 22.92969    124.4 2.338e+04 9.623e-08
 22.93947    123.1 2.346e+04 8.964e-08
 22.94925    121.9 2.350e+04 6.461e-08
 22.95903    120.4 2.335e+04 3.484e-08
 22.96881    118.4 2.288e+04 1.575e-08
 22.98353    113.3 2.211e+04 6.616e-09
 23.00314    104.4 1.738e+04 1.234e-09
 23.02270     95.5 1.071e+04 4.419e-10
 23.04226     92.7 9.628e+03 3.614e-10
 23.06182     92.2 9.494e+03 3.409e-10
 23.08138     91.9 9.514e+03 3.532e-10
 23.10094     91.6 9.582e+03 3.845e-10
 23.12051     91.5 9.708e+03 4.255e-10
 23.14007     91.4 9.847e+03 4.636e-10
 23.15963     91.3 9.956e+03 4.860e-10
 23.17882     91.3 9.958e+03 4.862e-10
 23.18860     91.8 9.851e+03 4.601e-10
 23.19875     91.7 9.822e+03 4.454e-10
 23.21831     91.8 9.765e+03 4.138e-10
 23.24775     92.2 9.832e+03 3.814e-10
 23.28697     92.4 9.693e+03 3.294e-10
 23.32609     92.8 9.509e+03 2.756e-10
 23.36521     93.4 9.402e+03 2.491e-10
 23.40434     94.1 9.415e+03 2.510e-10
 23.44346     94.7 9.551e+03 2.692e-10
 23.48258     95.2 9.760e+03 3.253e-10
 23.52170     95.6 9.994e+03 4.015e-10
 23.56083     96.0 1.015e+04 4.528e-10
 23.59007     96.2 1.014e+04 4.414e-10
 23.60953     96.4 1.012e+04 4.311e-10
 23.63897     96.8 1.015e+04 4.167e-10
 23.67819     97.3 9.878e+03 3.313e-10
 23.71731     97.8 9.554e+03 2.546e-10
 23.75644     98.2 9.465e+03 2.404e-10
 23.79556     98.8 9.494e+03 2.460e-10
 23.83468     99.4 9.611e+03 2.690e-10
 23.87380    100.0 9.775e+03 3.064e-10
 23.89456    100.6 9.947e+03 3.453e-10
 23.91412    101.0 9.773e+03 2.916e-10
 23.95205    101.5 9.972e+03 3.311e-10
 23.99117    101.6 1.014e+04 3.673e-10
 24.03029    101.6 1.026e+04 3.997e-10
 24.06941    101.3 1.035e+04 4.303e-10
 24.10854    100.6 1.043e+04 4.777e-10
 24.14766     99.7 1.053e+04 5.315e-10
 24.18678     98.5 1.053e+04 5.395e-10
 24.22590     97.5 1.041e+04 4.999e-10
 24.26503     96.9 1.009e+04 3.763e-10
 24.30415     96.6 9.707e+03 2.258e-10
 24.34327     96.1 9.339e+03 1.149e-10
 24.38239     95.5 8.910e+03 6.708e-11
 24.42151     95.4 8.718e+03 6.352e-11
 24.46064     95.7 8.673e+03 6.625e-11
 24.49976     96.5 8.637e+03 8.093e-11
 24.53888     97.6 8.880e+03 1.174e-10
 24.57800     98.5 9.341e+03 1.863e-10
 24.60033     98.5 9.789e+03 2.804e-10
 24.61001     98.5 9.841e+03 2.707e-10
 24.62671     98.4 9.992e+03 3.082e-10
 24.64627     98.1 1.022e+04 3.904e-10
 24.66583     97.9 1.051e+04 5.316e-10
 24.68539     97.8 1.088e+04 7.324e-10
 24.70495     97.7 1.128e+04 9.662e-10
 24.72452     97.5 1.166e+04 1.189e-09
 24.74408     96.8 1.200e+04 1.365e-09
 24.76364     95.7 1.229e+04 1.495e-09
 24.78320     94.4 1.249e+04 1.593e-09
 24.80276     92.3 1.283e+04 1.773e-09
 24.82232     91.5 1.295e+04 1.851e-09
 24.85176     88.3 1.321e+04 2.004e-09
 24.89098     85.9 1.290e+04 1.755e-09
 24.93010     84.6 1.227e+04 1.244e-09
 24.96923     84.2 1.162e+04 7.512e-10
 25.00835     84.0 1.116e+04 4.298e-10
 25.04747     83.9 1.077e+04 2.914e-10
 25.08659     84.1 1.059e+04 2.804e-10
 25.12571     84.9 1.055e+04 2.932e-10
 25.16484     85.7 1.056e+04 3.546e-10
 25.20396     86.5 1.075e+04 4.776e-10
 25.24308     87.2 1.101e+04 6.138e-10
 25.28220     87.6 1.118e+04 6.780e-10
 25.30609     87.8 1.133e+04 6.983e-10
 25.32566     87.2 1.095e+04 5.676e-10
 25.36045     87.1 1.108e+04 6.091e-10
 25.39957     86.8 1.128e+04 7.124e-10
 25.43869     86.7 1.159e+04 9.079e-10
 25.47781     86.5 1.204e+04 1.151e-09
 25.51694     86.2 1.249e+04 1.272e-09
 25.55606     85.6 1.264e+04 1.247e-09
 25.59518     84.7 1.279e+04 1.204e-09
 25.63430     83.7 1.294e+04 1.228e-09
 25.65888     82.9 1.315e+04 1.300e-09
 25.66856     82.4 1.318e+04 1.323e-09
 25.68301     81.7 1.332e+04 1.412e-09
 25.70257     80.7 1.355e+04 1.568e-09
 25.72213     80.0 1.362e+04 1.686e-09
 25.74169     79.2 1.371e+04 1.795e-09
 25.76125     78.2 1.376e+04 1.858e-09
 25.78082     77.3 1.369e+04 1.829e-09
 25.80038     76.6 1.348e+04 1.711e-09
 25.81994     76.1 1.312e+04 1.516e-09
 25.83950     75.9 1.277e+04 1.246e-09
 25.85906     75.8 1.247e+04 9.950e-10
 25.87862     75.7 1.228e+04 7.963e-10
 25.89818     75.6 1.220e+04 6.443e-10
 25.91774     75.4 1.213e+04 5.331e-10
 25.93730     75.0 1.209e+04 4.494e-10
 25.95687     74.7 1.178e+04 4.129e-10
 25.97643     74.5 1.145e+04 4.065e-10
 25.99599     74.7 1.133e+04 4.118e-10
 26.01167     75.0 1.128e+04 4.232e-10
 26.02145     74.4 1.144e+04 5.390e-10
 26.03511     74.9 1.149e+04 5.649e-10
 26.05467     75.3 1.166e+04 6.084e-10
 26.07423     75.3 1.197e+04 6.805e-10
 26.09379     75.1 1.241e+04 8.169e-10
 26.11335     74.4 1.294e+04 1.091e-09
 26.13292     73.6 1.339e+04 1.593e-09
 26.15248     73.3 1.379e+04 2.392e-09
 26.17204     73.5 1.416e+04 3.344e-09
 26.19160     73.9 1.450e+04 3.912e-09
 26.21116     74.0 1.456e+04 3.845e-09
 26.23072     73.9 1.452e+04 3.377e-09
 26.25028     73.3 1.432e+04 2.563e-09
 26.26984     72.1 1.391e+04 1.804e-09
 26.28940     70.6 1.328e+04 1.313e-09
 26.30897     69.4 1.265e+04 1.074e-09
 26.32853     68.7 1.225e+04 9.907e-10
 26.34809     68.6 1.212e+04 9.603e-10
 26.36455     68.4 1.207e+04 9.406e-10
 26.37433     68.9 1.198e+04 8.722e-10
 26.38721     68.7 1.198e+04 8.719e-10
 26.40677     68.4 1.196e+04 8.725e-10
 26.42633     68.0 1.196e+04 8.794e-10
 26.44589     67.5 1.201e+04 9.264e-10
 26.46545     67.1 1.208e+04 9.750e-10
 26.48502     66.7 1.218e+04 1.044e-09
 26.50458     66.0 1.225e+04 1.139e-09
 26.52414     65.3 1.230e+04 1.245e-09
 26.54370     64.6 1.235e+04 1.355e-09
 26.56326     63.8 1.244e+04 1.440e-09
 26.58282     62.9 1.252e+04 1.481e-09
 26.60238     61.7 1.255e+04 1.468e-09
 26.62194     60.5 1.252e+04 1.422e-09
 26.64150     59.3 1.237e+04 1.298e-09
 26.66107     58.2 1.217e+04 1.150e-09
 26.69050     56.1 1.173e+04 8.204e-10
 26.71763     54.0 1.115e+04 4.862e-10
 26.73719     55.6 1.159e+04 6.741e-10
 26.76885     53.3 1.092e+04 3.506e-10
 26.80797     51.1 1.013e+04 2.276e-10
 26.84709     50.0 9.935e+03 2.231e-10
 26.88621     49.5 9.944e+03 2.384e-10
 26.92534     49.0 1.001e+04 2.801e-10
 26.96446     48.6 1.008e+04 3.308e-10
 27.00358     48.0 1.014e+04 3.853e-10
 27.04270     47.5 1.012e+04 4.293e-10
 27.08182     47.2 1.004e+04 4.201e-10
 27.12095     47.3 9.765e+03 3.565e-10
 27.16007     47.1 9.301e+03 2.351e-10
 27.19919     46.2 9.242e+03 2.065e-10
 27.23831     44.5 9.438e+03 2.386e-10
 27.27744     43.1 9.800e+03 3.283e-10
 27.30668     42.6 1.014e+04 4.443e-10
 27.32614     41.8 1.056e+04 6.684e-10
 27.35558     39.4 1.123e+04 1.086e-09
 27.39480     37.4 1.134e+04 1.163e-09
 27.42339     35.6 1.109e+04 9.876e-10
 27.44295     38.0 1.116e+04 1.039e-09
 27.47305     35.9 1.069e+04 7.335e-10
 27.51217     33.2 9.993e+03 4.597e-10
 27.55129     30.9 9.218e+03 3.295e-10
 27.59041     30.3 8.746e+03 2.676e-10
 27.62954     30.3 8.511e+03 2.333e-10
 27.66866     30.7 8.451e+03 2.297e-10
 27.70778     30.4 8.652e+03 2.627e-10
 27.74690     29.0 9.441e+03 4.771e-10
 27.78602     29.0 1.041e+04 9.823e-10
 27.82515     29.6 1.083e+04 1.258e-09
 27.86427     29.3 1.084e+04 1.135e-09
 27.90339     27.0 1.107e+04 1.091e-09
 27.94251     24.4 1.083e+04 1.111e-09
 27.98164     24.7 1.043e+04 1.042e-09
 28.02076     26.1 9.757e+03 7.744e-10
 28.05988     27.5 9.044e+03 4.731e-10
 28.09900     27.9 8.351e+03 2.885e-10
 28.12916     28.5 7.882e+03 2.335e-10
 28.14872     29.4 7.990e+03 2.610e-10
 28.17725     31.1 7.928e+03 2.581e-10
 28.21637     33.0 7.997e+03 2.764e-10
 28.25549     35.0 8.261e+03 3.254e-10
 28.29461     37.0 8.611e+03 3.892e-10
 28.33374     38.8 8.927e+03 4.549e-10
 28.37286     40.6 9.125e+03 5.001e-10
 28.41198     42.2 9.134e+03 4.984e-10
 28.45110     43.8 9.070e+03 4.709e-10
 28.49022     45.1 8.991e+03 4.305e-10
 28.52935     46.3 8.931e+03 3.880e-10
 28.56847     47.4 8.937e+03 3.741e-10
 28.60759     48.3 8.962e+03 3.799e-10
 28.64671     49.2 9.014e+03 3.938e-10
 28.68584     50.1 9.091e+03 4.221e-10
 28.72496     50.9 9.243e+03 4.418e-10
 28.76408     51.6 9.328e+03 4.378e-10
 28.80320     52.1 9.437e+03 4.034e-10
 28.83492     52.1 9.539e+03 4.008e-10
 28.85449     52.1 9.723e+03 4.538e-10
 28.88145     51.3 1.000e+04 4.967e-10
 28.92057     50.3 1.055e+04 6.945e-10
 28.95969     49.9 1.114e+04 1.002e-09
 28.99881     49.7 1.132e+04 1.092e-09
 29.03794     50.0 1.112e+04 9.210e-10
 29.07706     50.5 1.066e+04 5.474e-10
 29.11618     50.3 1.010e+04 2.757e-10
 29.15530     49.8 9.548e+03 1.618e-10
 29.19442     49.9 9.121e+03 1.230e-10
 29.23355     50.8 8.860e+03 1.058e-10
 29.27267     52.2 8.724e+03 9.500e-11
 29.31179     53.6 8.614e+03 8.378e-11
 29.35091     55.1 8.533e+03 7.086e-11
 29.39004     56.5 8.492e+03 5.850e-11
 29.42916     57.7 8.468e+03 4.872e-11
 29.46828     58.9 8.385e+03 4.364e-11
 29.50740     60.2 8.244e+03 4.249e-11
 29.54069     61.6 8.167e+03 4.217e-11
 29.56025     61.6 8.207e+03 3.700e-11
 29.58565     63.1 8.147e+03 3.587e-11
 29.62477     64.7 8.128e+03 3.386e-11
 29.66389     66.2 8.112e+03 3.071e-11
 29.70301     67.6 8.079e+03 2.787e-11
 29.74214     69.0 8.064e+03 2.743e-11
 29.78126     70.3 8.066e+03 2.811e-11
 29.82038     71.3 8.095e+03 3.177e-11
 29.85950     72.2 8.180e+03 4.550e-11
 29.89862     73.2 8.386e+03 8.122e-11
 29.93775     74.1 8.776e+03 1.586e-10
 29.97687     75.0 9.290e+03 2.846e-10
 30.01599     75.4 9.721e+03 3.735e-10
 30.05511     75.2 9.775e+03 3.692e-10
 30.09424     75.1 9.736e+03 3.154e-10
 30.13336     74.9 9.553e+03 2.195e-10
 30.17248     74.7 9.345e+03 1.481e-10
 30.21160     74.6 9.220e+03 1.165e-10
 30.24646     75.0 9.098e+03 1.089e-10
 30.26602     74.5 9.049e+03 9.728e-11
 30.28985     75.4 9.064e+03 9.960e-11
 30.32897     76.4 9.137e+03 1.083e-10
 30.36809     77.3 9.258e+03 1.244e-10
 30.40721     78.1 9.390e+03 1.484e-10
 30.44633     78.9 9.526e+03 1.850e-10
 30.48546     79.6 9.715e+03 2.346e-10
 30.52458     80.0 9.938e+03 2.963e-10
 30.56370     80.0 1.018e+04 3.744e-10
 30.60282     79.9 1.049e+04 4.779e-10
 30.64195     79.7 1.080e+04 5.610e-10
 30.68107     79.3 1.086e+04 5.594e-10
 30.72019     79.0 1.082e+04 4.865e-10
 30.75931     78.8 1.066e+04 3.416e-10
 30.79843     78.6 1.043e+04 2.325e-10
 30.83756     78.6 1.029e+04 2.178e-10
 30.87668     78.7 1.032e+04 2.412e-10
 30.91580     78.9 1.056e+04 3.620e-10
 30.95222     79.1 1.107e+04 6.179e-10
 30.97178     78.7 1.129e+04 6.739e-10
 30.99405     78.7 1.183e+04 1.053e-09
 31.03317     78.2 1.208e+04 1.155e-09
 31.07229     77.1 1.199e+04 1.093e-09
 31.11141     76.0 1.157e+04 8.328e-10
 31.15053     74.9 1.099e+04 5.215e-10
 31.18966     73.5 1.045e+04 2.995e-10
 31.22878     72.1 1.000e+04 1.894e-10
 31.26790     71.3 9.836e+03 1.780e-10
 31.30702     70.7 9.856e+03 1.867e-10
 31.34615     70.0 9.982e+03 2.411e-10
 31.38527     69.6 1.031e+04 3.855e-10
 31.42439     69.3 1.065e+04 5.653e-10
 31.46351     68.8 1.074e+04 5.968e-10
 31.50263     68.3 1.064e+04 5.537e-10
 31.54176     68.1 1.035e+04 4.246e-10
 31.58088     68.0 1.001e+04 3.085e-10
 31.62000     68.1 9.744e+03 2.438e-10
 31.65799     68.4 9.576e+03 2.111e-10
 31.67755     68.4 9.621e+03 2.310e-10
 31.69825     69.0 9.495e+03 2.027e-10
 31.73737     69.9 9.473e+03 1.972e-10
 31.77649     70.6 9.526e+03 2.028e-10
 31.81561     70.6 9.707e+03 2.341e-10
 31.85473     70.3 1.002e+04 3.318e-10
 31.89386     70.1 1.041e+04 4.953e-10
 31.93298     69.5 1.072e+04 5.969e-10
 31.97210     68.4 1.073e+04 5.862e-10
 32.01122     67.3 1.065e+04 5.168e-10
 32.05035     66.2 1.047e+04 4.156e-10
 32.08947     65.5 1.028e+04 3.329e-10
 32.12859     65.4 1.016e+04 2.688e-10
 32.16771     65.5 1.009e+04 2.043e-10
 32.20683     65.9 1.006e+04 1.433e-10
 32.24596     66.3 1.000e+04 1.132e-10
 32.28508     67.0 9.988e+03 1.138e-10
 32.32420     67.8 1.000e+04 1.283e-10
 32.36332     68.7 1.009e+04 1.778e-10
 32.38331     69.8 1.030e+04 2.615e-10
 32.40288     70.5 1.002e+04 1.615e-10
 32.44157     71.7 1.023e+04 2.256e-10
 32.48069     72.8 1.043e+04 2.946e-10
 32.51981     73.9 1.053e+04 3.424e-10
 32.55893     74.7 1.052e+04 3.470e-10
 32.59806     75.5 1.042e+04 3.290e-10
 32.63718     76.0 1.020e+04 2.893e-10
 32.67630     76.6 9.927e+03 2.531e-10
 32.71542     77.2 9.683e+03 2.345e-10
 32.75455     78.0 9.620e+03 2.342e-10
 32.79367     78.9 9.629e+03 2.372e-10
 32.83279     79.9 9.714e+03 2.490e-10
 32.87191     80.4 9.885e+03 2.749e-10
 32.90116     80.2 1.004e+04 3.058e-10
 32.92062     79.7 1.034e+04 3.744e-10
 32.94018     79.0 1.086e+04 5.316e-10
 32.95974     78.0 1.152e+04 8.381e-10
 32.97930     76.9 1.213e+04 1.367e-09
 32.99886     76.6 1.262e+04 2.136e-09
 33.01843     76.8 1.303e+04 2.932e-09
 33.03799     76.9 1.322e+04 3.131e-09
 33.05755     76.8 1.319e+04 3.023e-09
 33.07711     76.6 1.299e+04 2.539e-09
 33.08888     75.8 1.262e+04 1.898e-09
 33.09867     75.2 1.216e+04 1.293e-09
 33.11623     74.2 1.170e+04 9.930e-10
 33.14567     73.1 1.100e+04 7.262e-10
 33.18489     72.8 1.032e+04 5.621e-10
 33.22401     72.9 9.914e+03 5.105e-10
 33.26313     73.5 9.851e+03 5.199e-10
 33.30226     74.5 9.851e+03 5.592e-10
 33.33150     74.9 9.879e+03 5.832e-10
 33.35096     75.2 9.924e+03 6.065e-10
 33.37053     75.5 9.993e+03 6.400e-10
 33.39009     75.8 1.009e+04 6.819e-10
 33.40965     76.0 1.020e+04 7.286e-10
 33.42921     76.0 1.032e+04 7.818e-10
 33.44177     75.9 1.050e+04 8.571e-10
 33.45155     76.2 1.087e+04 1.037e-09
 33.46833     75.8 1.126e+04 1.217e-09
 33.48789     75.0 1.174e+04 1.518e-09
 33.50745     74.3 1.225e+04 1.964e-09
 33.52701     73.7 1.271e+04 2.493e-09
 33.54658     73.3 1.305e+04 2.958e-09
 33.56614     72.8 1.317e+04 3.135e-09
 33.58570     72.2 1.314e+04 3.099e-09
 33.60526     71.7 1.300e+04 2.950e-09
 33.62482     71.2 1.279e+04 2.743e-09
 33.64438     70.7 1.266e+04 2.534e-09
 33.66394     70.1 1.262e+04 2.312e-09
 33.68350     69.4 1.265e+04 2.099e-09
 33.70306     68.7 1.268e+04 1.905e-09
 33.72263     67.8 1.254e+04 1.675e-09
 33.74219     66.9 1.210e+04 1.425e-09
 33.77163     65.9 1.194e+04 1.519e-09
 33.79485     65.2 1.118e+04 1.219e-09
 33.81441     65.6 1.036e+04 7.644e-10
 33.84997     65.7 9.963e+03 6.626e-10
 33.88909     65.9 9.593e+03 5.262e-10
 33.92821     66.2 9.202e+03 3.705e-10
 33.96733     66.3 8.798e+03 2.513e-10
 34.00646     66.5 8.452e+03 2.010e-10
 34.04558     67.1 8.372e+03 1.990e-10
 34.08470     68.2 8.386e+03 2.033e-10
 34.12382     69.4 8.480e+03 2.094e-10
 34.16295     70.5 8.527e+03 2.089e-10
 34.20207     71.6 8.563e+03 2.017e-10
 34.24119     72.6 8.604e+03 1.842e-10
 34.28031     73.6 8.645e+03 1.658e-10
 34.31943     74.5 8.711e+03 1.572e-10
 34.35856     75.5 8.745e+03 1.576e-10
 34.39768     76.5 8.869e+03 1.615e-10
 34.43680     77.7 9.022e+03 1.744e-10
 34.47592     79.1 9.195e+03 1.969e-10
 34.50061     79.0 9.810e+03 2.498e-10
 34.52017     80.0 9.578e+03 2.332e-10
 34.55417     78.3 1.218e+04 5.135e-10
 34.59329     76.4 1.378e+04 1.489e-09
 34.63241     75.5 1.328e+04 1.697e-09
 34.67153     75.0 1.235e+04 1.289e-09
 34.71066     74.3 1.128e+04 5.946e-10
 34.74978     73.0 1.049e+04 2.079e-10
 34.78890     72.0 1.003e+04 1.328e-10
 34.82802     72.1 9.980e+03 1.389e-10
 34.86715     72.5 9.984e+03 1.761e-10
 34.90627     73.1 1.016e+04 2.761e-10
 34.94539     74.0 1.032e+04 4.138e-10
 34.98451     74.8 1.038e+04 4.810e-10
 35.02363     75.7 1.035e+04 4.718e-10
 35.06276     76.9 1.022e+04 4.156e-10
 35.10188     78.0 1.008e+04 3.148e-10
 35.14100     78.8 9.956e+03 2.183e-10
 35.18012     79.6 9.740e+03 1.673e-10
 35.20638     80.7 9.577e+03 1.631e-10
 35.22594     81.9 9.838e+03 1.727e-10
 35.25837     83.1 9.810e+03 1.691e-10
 35.29749     84.3 9.847e+03 1.739e-10
 35.33661     85.6 9.923e+03 1.904e-10
 35.37573     86.9 1.018e+04 2.321e-10
 35.41486     88.3 1.059e+04 3.054e-10
 35.45398     88.4 1.134e+04 4.212e-10
 35.49310     87.9 1.310e+04 8.733e-10
 35.52234     86.8 1.415e+04 1.583e-09
 35.54181     86.2 1.469e+04 2.521e-09
 35.55906     85.9 1.482e+04 3.245e-09
 35.56885     86.1 1.491e+04 3.778e-09
 35.58093     85.8 1.491e+04 3.987e-09
 35.60049     85.5 1.481e+04 3.773e-09
 35.62005     85.0 1.460e+04 3.219e-09
 35.63961     84.4 1.420e+04 2.335e-09
 35.65917     83.9 1.380e+04 1.791e-09
 35.68861     83.9 1.290e+04 8.851e-10
 35.72783     84.2 1.219e+04 4.958e-10
 35.76696     84.9 1.169e+04 2.683e-10
 35.80608     85.6 1.128e+04 1.696e-10
 35.84520     86.6 1.085e+04 1.540e-10
 35.88432     88.2 1.080e+04 1.536e-10
 35.91214     89.8 1.079e+04 1.570e-10
 35.93170     89.7 1.075e+04 1.693e-10
 35.96257     91.2 1.073e+04 1.872e-10
 36.00169     92.4 1.079e+04 2.443e-10
 36.04081     93.6 1.097e+04 3.426e-10
 36.07993     94.5 1.117e+04 4.413e-10
 36.11906     94.9 1.124e+04 4.589e-10
 36.15818     95.1 1.122e+04 4.437e-10
 36.19730     95.3 1.112e+04 3.868e-10
 36.23642     95.5 1.096e+04 3.154e-10
 36.27554     95.8 1.077e+04 2.596e-10
 36.31467     96.2 1.064e+04 2.188e-10
 36.35379     96.7 1.051e+04 1.878e-10
 36.39291     97.3 1.038e+04 1.663e-10
 36.43203     98.0 1.024e+04 1.633e-10
 36.47116     98.8 1.022e+04 1.662e-10
 36.51028     99.5 1.019e+04 1.798e-10
 36.54940    100.2 1.019e+04 2.026e-10
 36.58852    100.8 1.018e+04 2.277e-10
 36.61791    101.3 1.022e+04 2.525e-10
 36.63747    101.6 1.001e+04 1.898e-10
 36.66677    102.1 1.005e+04 2.021e-10
 36.70589    102.6 1.013e+04 2.175e-10
 36.74501    102.8 1.019e+04 2.221e-10
 36.78413    102.8 1.018e+04 2.172e-10
 36.82326    102.8 1.011e+04 1.952e-10
 36.86238    102.8 1.001e+04 1.596e-10
 36.90150    102.6 9.886e+03 1.288e-10
 36.94062    102.5 9.797e+03 1.189e-10
 36.97974    102.5 9.795e+03 1.195e-10
 37.01887    102.5 9.810e+03 1.244e-10
 37.05799    102.4 9.847e+03 1.401e-10
 37.09711    102.3 9.914e+03 1.693e-10
 37.13623    102.2 1.004e+04 2.157e-10
 37.17536    102.2 1.023e+04 2.699e-10
 37.21448    102.0 1.042e+04 2.878e-10
 37.25360    101.5 1.043e+04 2.797e-10
 37.29272    101.0 1.038e+04 2.427e-10
 37.32367    100.4 1.022e+04 2.046e-10
 37.34324    100.7 1.030e+04 2.310e-10
 37.37097    100.1 1.020e+04 2.242e-10
 37.41009     99.8 1.018e+04 2.330e-10
 37.44921     99.8 1.019e+04 2.697e-10
 37.48833     99.9 1.022e+04 3.058e-10
 37.52746    100.2 1.021e+04 3.062e-10
 37.56658    100.6 1.010e+04 2.825e-10
 37.60570    101.2 9.891e+03 2.291e-10
 37.64482    101.9 9.670e+03 1.749e-10
 37.68394    102.5 9.502e+03 1.365e-10
 37.72307    103.2 9.450e+03 1.179e-10
 37.76219    104.0 9.461e+03 1.160e-10
 37.80131    104.7 9.495e+03 1.198e-10
 37.84043    105.3 9.606e+03 1.325e-10
 37.86968    105.3 9.687e+03 1.426e-10
 37.88914    105.1 9.851e+03 1.534e-10
 37.90870    103.6 1.067e+04 2.032e-10
 37.92826     97.1 1.326e+04 5.718e-10
 37.94782     90.1 1.590e+04 2.737e-09
 37.96739     86.3 1.662e+04 6.556e-09
 37.98695     84.0 1.653e+04 6.970e-09
 38.00651     82.6 1.603e+04 5.473e-09
 38.02607     80.4 1.517e+04 2.423e-09
 38.03903     75.8 1.405e+04 6.353e-10
 38.04881     74.4 1.325e+04 5.658e-10
 38.07507     66.7 1.051e+04 2.749e-10
 38.11429     64.1 9.425e+03 2.501e-10
 38.15341     63.9 9.458e+03 2.655e-10
 38.19253     63.5 9.775e+03 3.872e-10
 38.22178     63.4 9.948e+03 4.784e-10
 38.24124     63.2 1.017e+04 5.839e-10
 38.26080     62.4 1.078e+04 7.990e-10
 38.28036     61.2 1.160e+04 1.213e-09
 38.29992     60.4 1.224e+04 1.839e-09
 38.31949     60.2 1.259e+04 2.468e-09
 38.33905     60.1 1.259e+04 2.582e-09
 38.35861     60.0 1.251e+04 2.490e-09
 38.37817     60.0 1.223e+04 2.155e-09
 38.39191     59.9 1.180e+04 1.715e-09
 38.40169     59.8 1.189e+04 1.789e-09
 38.41729     59.4 1.147e+04 1.411e-09
 38.43685     58.9 1.107e+04 1.052e-09
 38.45641     58.0 1.075e+04 7.834e-10
 38.47597     56.8 1.051e+04 6.097e-10
 38.49554     55.2 1.029e+04 5.532e-10
 38.51510     53.5 1.028e+04 5.608e-10
 38.53466     51.9 1.031e+04 5.951e-10
 38.55422     50.5 1.040e+04 6.757e-10
 38.57378     49.3 1.052e+04 7.723e-10
 38.59334     48.0 1.065e+04 8.523e-10
 38.61290     46.5 1.076e+04 8.975e-10
 38.63246     44.8 1.091e+04 9.459e-10
 38.65202     40.4 1.189e+04 1.187e-09
 38.67158     33.2 1.421e+04 2.234e-09
 38.69115     28.5 1.366e+04 2.608e-09
 38.71071     26.9 1.263e+04 2.080e-09
 38.73027     25.1 1.183e+04 1.223e-09
 38.74479     20.6 1.187e+04 5.435e-10
 38.75457     22.7 1.192e+04 7.578e-10
 38.76939     16.3 1.156e+04 3.893e-10
 38.78895     10.9 1.007e+04 2.991e-10
 38.80851      9.1 9.503e+03 3.511e-10
 38.82807      9.1 9.432e+03 4.128e-10
 38.84763      9.4 9.695e+03 4.795e-10
 38.86720      9.4 9.836e+03 4.937e-10
 38.88676      8.7 1.028e+04 4.997e-10
 38.90632      6.9 1.048e+04 4.856e-10
 38.93576      5.6 1.026e+04 5.838e-10
 38.97498      4.3 1.034e+04 7.077e-10
 39.01410      2.6 1.098e+04 7.599e-10
 39.05322     -1.9 1.229e+04 1.100e-09
 39.08247     -5.3 1.293e+04 1.759e-09
 39.09767     -6.3 1.308e+04 2.150e-09
 39.10746     -7.5 1.349e+04 3.120e-09
 39.12149     -6.6 1.352e+04 3.510e-09
 39.14105     -5.9 1.344e+04 2.831e-09
 39.17049     -8.9 1.219e+04 1.194e-09
 39.20971    -12.9 1.043e+04 6.103e-10
 39.24883    -13.9 9.993e+03 4.628e-10
 39.28796    -14.8 9.711e+03 3.874e-10
 39.32708    -15.4 9.610e+03 3.774e-10
 39.36620    -15.9 9.618e+03 4.191e-10
 39.40532    -16.1 9.650e+03 4.549e-10
 39.44097    -16.2 9.516e+03 4.463e-10
 39.46053    -16.5 9.623e+03 4.900e-10
 39.48357    -16.3 9.317e+03 4.128e-10
 39.52269    -16.0 8.919e+03 2.732e-10
 39.56181    -16.0 8.560e+03 1.908e-10
 39.60093    -15.6 8.370e+03 1.656e-10
 39.64006    -14.8 8.322e+03 1.618e-10
 39.67918    -13.8 8.301e+03 1.633e-10
 39.71830    -12.7 8.237e+03 1.624e-10
 39.75742    -11.4 8.107e+03 1.572e-10
 39.79654     -9.8 7.975e+03 1.402e-10
 39.83567     -8.5 7.917e+03 1.211e-10
 39.87479     -7.5 7.911e+03 1.145e-10
 39.91391     -6.7 8.074e+03 1.290e-10
 39.95303     -6.1 8.328e+03 1.820e-10
 39.99215     -5.2 8.751e+03 2.706e-10
 40.03128     -4.0 9.206e+03 4.008e-10
 40.07040     -2.9 9.356e+03 4.651e-10
 40.10952     -2.2 9.542e+03 4.922e-10
 40.14674     -3.0 1.049e+04 5.795e-10
 40.16630     -6.5 1.216e+04 1.067e-09
 40.17789    -10.7 1.438e+04 2.563e-09
 40.19735    -13.1 1.446e+04 5.257e-09
 40.21691    -11.9 1.513e+04 9.049e-09
 40.23647     -9.9 1.631e+04 1.229e-08
 40.25603     -9.9 1.696e+04 1.147e-08
 40.27560    -12.2 1.737e+04 8.062e-09
 40.29516    -18.3 1.586e+04 4.148e-09
 40.31472    -24.5 1.381e+04 2.299e-09
 40.33428    -28.7 1.241e+04 1.568e-09
 40.35384    -30.9 1.193e+04 1.281e-09
 40.36705    -32.3 1.157e+04 1.071e-09
 40.37683    -32.4 1.090e+04 7.500e-10
 40.39296    -33.7 1.046e+04 5.821e-10
 40.41252    -34.9 1.008e+04 4.611e-10
 40.43208    -35.8 9.910e+03 4.202e-10
 40.46152    -36.0 1.011e+04 4.804e-10
 40.50074    -36.2 1.028e+04 5.189e-10
 40.53987    -36.8 1.084e+04 7.390e-10
 40.57899    -37.1 1.146e+04 1.096e-09
 40.61811    -37.6 1.215e+04 1.501e-09
 40.64735    -38.6 1.279e+04 1.776e-09
 40.66682    -40.5 1.346e+04 2.105e-09
 40.68638    -42.6 1.407e+04 2.700e-09
 40.70594    -44.5 1.442e+04 3.567e-09
 40.72550    -45.4 1.472e+04 4.339e-09
 40.74506    -46.1 1.485e+04 4.579e-09
 40.76462    -47.0 1.487e+04 4.362e-09
 40.78418    -48.5 1.449e+04 3.164e-09
 40.80375    -50.8 1.374e+04 2.131e-09
 40.82331    -53.3 1.290e+04 1.537e-09
 40.84287    -55.0 1.240e+04 1.266e-09
 40.86209    -56.1 1.218e+04 1.167e-09
 40.87197    -55.2 1.174e+04 9.519e-10
 40.89197    -56.8 1.130e+04 7.247e-10
 40.93109    -58.7 1.087e+04 5.571e-10
 40.97021    -60.3 1.047e+04 4.656e-10
 41.00933    -61.6 1.014e+04 4.174e-10
 41.04845    -62.7 9.781e+03 3.687e-10
 41.08758    -63.4 9.347e+03 3.017e-10
 41.12670    -63.7 8.977e+03 2.291e-10
 41.16582    -63.5 8.793e+03 1.659e-10
 41.20494    -63.4 8.299e+03 1.014e-10
 41.24407    -62.9 7.930e+03 6.768e-11
 41.28319    -61.8 7.799e+03 5.542e-11
 41.32231    -60.5 7.791e+03 5.354e-11
 41.36143    -59.8 7.920e+03 5.681e-11
 41.40055    -59.6 8.392e+03 9.551e-11
 41.43968    -59.3 8.919e+03 1.858e-10
 41.47880    -58.8 9.448e+03 3.232e-10
 41.51792    -58.5 9.878e+03 4.677e-10
 41.55704    -58.5 1.013e+04 5.677e-10
 41.57783    -58.8 1.025e+04 6.178e-10
 41.59739    -58.2 1.085e+04 9.089e-10
 41.63529    -58.7 1.092e+04 9.459e-10
 41.67441    -59.4 1.088e+04 9.027e-10
 41.71353    -60.3 1.077e+04 7.599e-10
 41.75265    -61.4 1.069e+04 6.512e-10
 41.79178    -62.4 1.059e+04 5.854e-10
 41.83090    -62.7 1.044e+04 5.139e-10
 41.87002    -62.6 1.028e+04 4.002e-10
 41.90914    -62.3 1.000e+04 2.553e-10
 41.94827    -61.4 9.809e+03 1.587e-10
 41.98739    -60.4 9.716e+03 1.100e-10
 42.02651    -59.2 9.672e+03 8.565e-11
 42.06563    -57.9 9.689e+03 7.917e-11
 42.10475    -56.7 9.822e+03 8.173e-11
 42.14388    -55.6 9.920e+03 1.063e-10
 42.18300    -54.5 9.986e+03 1.557e-10
 42.22212    -53.1 1.014e+04 2.255e-10
 42.26124    -51.8 1.034e+04 3.006e-10
 42.28360    -50.6 1.049e+04 3.568e-10
 42.30316    -50.1 1.065e+04 3.781e-10
 42.33949    -49.1 1.073e+04 4.291e-10
 42.37861    -48.3 1.073e+04 4.451e-10
 42.41773    -47.6 1.068e+04 4.460e-10
 42.45685    -46.8 1.041e+04 4.096e-10
 42.49598    -45.8 1.014e+04 3.321e-10
 42.53510    -44.9 9.850e+03 2.498e-10
 42.57422    -44.1 9.578e+03 1.944e-10
 42.61334    -43.3 9.420e+03 1.762e-10
 42.65247    -42.4 9.376e+03 1.738e-10
 42.69159    -41.5 9.316e+03 1.885e-10
 42.73071    -40.5 9.288e+03 2.118e-10
 42.76983    -39.5 9.282e+03 2.196e-10
 42.80895    -38.6 9.209e+03 2.179e-10
 42.84808    -37.9 9.152e+03 2.140e-10
 42.88720    -37.3 9.134e+03 2.168e-10
 42.92632    -36.7 9.146e+03 2.229e-10
 42.96544    -36.0 9.077e+03 2.162e-10
 42.98936    -35.1 8.906e+03 1.742e-10
 43.00892    -34.3 8.874e+03 1.756e-10
 43.04369    -33.6 8.693e+03 1.330e-10
 43.08281    -33.1 8.526e+03 9.814e-11
 43.12193    -32.7 8.417e+03 7.873e-11
 43.16105    -32.1 8.405e+03 6.936e-11
 43.20018    -31.5 8.462e+03 6.444e-11
 43.23930    -30.9 8.509e+03 6.289e-11
 43.27842    -30.3 8.601e+03 6.508e-11
 43.31754    -29.6 8.585e+03 7.297e-11
 43.35667    -28.8 8.555e+03 7.962e-11
 43.39579    -28.2 8.552e+03 8.120e-11
 43.43491    -27.7 8.505e+03 8.047e-11
 43.47403    -27.4 8.512e+03 8.032e-11
 43.51315    -26.9 8.546e+03 8.577e-11
 43.55228    -26.3 8.580e+03 9.159e-11
 43.59140    -25.8 8.657e+03 9.290e-11
 43.63052    -25.6 8.811e+03 9.468e-11
 43.66964    -26.8 9.349e+03 1.202e-10
 43.69513    -29.8 1.047e+04 3.474e-10
 43.71469    -30.0 1.066e+04 3.999e-10
 43.74789    -31.8 1.176e+04 1.070e-09
 43.77713    -32.1 1.224e+04 1.546e-09
 43.79659    -32.5 1.221e+04 1.567e-09
 43.81616    -32.6 1.185e+04 1.141e-09
 43.83572    -33.5 1.141e+04 6.254e-10
 43.85528    -35.7 1.091e+04 3.220e-10
 43.87484    -37.5 1.041e+04 2.345e-10
 43.90428    -38.7 1.012e+04 2.068e-10
 43.94350    -39.1 1.005e+04 2.116e-10
 43.97274    -38.7 1.027e+04 2.703e-10
 43.99221    -38.9 1.033e+04 2.813e-10
 44.01177    -40.1 1.085e+04 4.001e-10
 44.03133    -42.5 1.159e+04 6.438e-10
 44.04782    -44.9 1.262e+04 1.189e-09
 44.05760    -46.5 1.320e+04 1.488e-09
 44.07045    -48.8 1.426e+04 2.906e-09
 44.09001    -50.2 1.509e+04 4.782e-09
 44.10957    -51.3 1.550e+04 5.934e-09
 44.12913    -52.9 1.547e+04 6.038e-09
 44.14869    -54.6 1.481e+04 4.657e-09
 44.16826    -56.8 1.380e+04 2.709e-09
 44.18782    -60.1 1.259e+04 1.413e-09
 44.20738    -64.1 1.155e+04 8.530e-10
 44.22694    -67.7 1.107e+04 7.227e-10
 44.24650    -70.3 1.092e+04 7.016e-10
 44.26606    -72.2 1.080e+04 7.229e-10
 44.28562    -73.8 1.076e+04 7.533e-10
 44.30518    -75.2 1.077e+04 7.415e-10
 44.32474    -76.9 1.071e+04 6.163e-10
 44.34431    -79.4 1.050e+04 4.875e-10
 44.36387    -82.3 1.016e+04 4.192e-10
 44.38343    -84.5 9.906e+03 3.919e-10
 44.40080    -85.8 9.729e+03 3.696e-10
 44.42046    -85.6 9.796e+03 3.794e-10
 44.45209    -87.1 9.760e+03 3.913e-10
 44.48133    -88.5 9.610e+03 3.484e-10
 44.50079    -89.3 9.599e+03 3.392e-10
 44.52036    -90.5 9.532e+03 3.300e-10
 44.53992    -91.3 9.624e+03 3.348e-10
 44.55948    -97.1 1.031e+04 3.665e-10
 44.57904   -109.4 1.848e+04 1.148e-09
 44.59860   -121.5 2.330e+04 4.672e-09
 44.61816   -133.2 2.312e+04 1.054e-08
 44.63772   -145.1 2.215e+04 1.273e-08
 44.65728   -154.8 1.866e+04 1.115e-08
 44.67684   -162.5 1.553e+04 4.843e-09
 44.69641   -168.7 1.277e+04 1.525e-09
 44.71597   -173.1 1.112e+04 5.836e-10
 44.73553   -175.1 1.037e+04 3.919e-10
 44.75358   -175.7 1.010e+04 3.433e-10
 44.76336   -175.7 1.012e+04 3.509e-10
 44.77465   -175.9 1.006e+04 3.319e-10
 44.79421   -175.9 1.005e+04 3.229e-10
 44.81377   -176.1 1.006e+04 3.217e-10
 44.83333   -176.3 1.014e+04 3.239e-10
 44.85289   -176.8 1.047e+04 3.694e-10
 44.87246   -177.4 1.083e+04 4.786e-10
 44.89202   -177.8 1.119e+04 6.367e-10
 44.91158   -178.0 1.154e+04 8.281e-10
 44.93114   -178.1 1.185e+04 1.022e-09
 44.95070   -178.1 1.209e+04 1.180e-09
 44.97026   -178.1 1.223e+04 1.269e-09
 44.98982   -178.0 1.227e+04 1.292e-09
 45.00938   -177.9 1.227e+04 1.292e-09
 45.02894   -177.6 1.224e+04 1.264e-09
 45.04851   -177.2 1.222e+04 1.234e-09
 45.06807   -176.7 1.222e+04 1.227e-09
 45.08763   -176.3 1.223e+04 1.227e-09
 45.10646   -175.8 1.236e+04 1.245e-09
 45.11624   -175.8 1.231e+04 1.229e-09
 45.12675   -175.2 1.243e+04 1.308e-09
 45.14631   -174.7 1.255e+04 1.426e-09
 45.16587   -173.9 1.269e+04 1.568e-09
 45.18543   -173.2 1.289e+04 1.779e-09
 45.20499   -172.7 1.321e+04 2.117e-09
 45.22456   -172.4 1.374e+04 2.623e-09
 45.24412   -172.4 1.458e+04 3.356e-09
 45.26368   -172.7 1.577e+04 4.451e-09
 45.28324   -173.5 1.715e+04 6.057e-09
 45.30280   -174.9 1.841e+04 8.149e-09
 45.32236   -176.7 1.927e+04 1.051e-08
 45.34192   -178.9 1.943e+04 1.204e-08
 45.36148   -180.8 1.926e+04 1.227e-08
 45.38104   -182.0 1.814e+04 9.981e-09
 45.40061   -183.0 1.681e+04 6.345e-09
 45.42017   -184.2 1.546e+04 3.862e-09
 45.43973   -185.3 1.416e+04 2.382e-09
 45.45929   -186.0 1.311e+04 1.568e-09
 45.47885   -186.0 1.249e+04 1.189e-09
 45.49841   -186.0 1.195e+04 8.967e-10
 45.51797   -185.7 1.150e+04 6.860e-10
 45.53753   -184.9 1.111e+04 5.259e-10
 45.55709   -184.0 1.082e+04 4.114e-10
 45.58653   -183.2 1.063e+04 3.263e-10
 45.62575   -182.5 1.059e+04 2.875e-10
 45.66488   -181.8 1.041e+04 2.323e-10
 45.70400   -180.7 1.023e+04 1.874e-10
 45.74312   -179.6 1.010e+04 1.571e-10
 45.78224   -178.5 1.003e+04 1.369e-10
 45.81243   -177.4 9.994e+03 1.212e-10
 45.83199   -177.5 1.004e+04 1.250e-10
 45.86049   -176.4 9.999e+03 1.099e-10
 45.89961   -175.3 9.970e+03 9.874e-11
 45.93873   -174.2 9.970e+03 9.278e-11
 45.97785   -173.1 9.979e+03 9.170e-11
 46.01698   -172.0 9.985e+03 9.245e-11
 46.05610   -171.0 1.002e+04 9.880e-11
 46.09522   -170.0 1.002e+04 1.137e-10
 46.13434   -168.7 1.008e+04 1.339e-10
 46.17346   -167.2 1.022e+04 1.578e-10
 46.21259   -166.1 1.045e+04 1.837e-10
 46.25171   -165.7 1.079e+04 2.146e-10
 46.29083   -166.1 1.158e+04 2.949e-10
 46.32008   -168.7 1.243e+04 4.496e-10
 46.33954   -170.9 1.322e+04 9.315e-10
 46.35910   -172.7 1.375e+04 1.636e-09
 46.37866   -174.3 1.414e+04 2.396e-09
 46.39822   -176.0 1.428e+04 2.817e-09
 46.41778   -177.7 1.429e+04 2.906e-09
 46.43734   -179.0 1.408e+04 2.839e-09
 46.45691   -180.2 1.375e+04 2.392e-09
 46.47647   -181.2 1.346e+04 1.928e-09
 46.49603   -182.1 1.322e+04 1.634e-09
 46.51559   -182.9 1.302e+04 1.513e-09
 46.52778   -183.3 1.290e+04 1.487e-09
 46.53756   -183.5 1.299e+04 1.614e-09
 46.55471   -183.6 1.293e+04 1.591e-09
 46.57427   -183.6 1.288e+04 1.560e-09
 46.59383   -183.5 1.283e+04 1.501e-09
 46.61339   -183.3 1.277e+04 1.414e-09
 46.63296   -183.1 1.275e+04 1.307e-09
 46.65252   -183.0 1.271e+04 1.195e-09
 46.67208   -182.9 1.264e+04 1.090e-09
 46.69164   -182.8 1.255e+04 9.993e-10
 46.71120   -182.6 1.248e+04 9.287e-10
 46.73076   -182.4 1.244e+04 8.851e-10
 46.75032   -182.2 1.242e+04 8.669e-10
 46.76988   -182.0 1.241e+04 8.636e-10
 46.78944   -181.7 1.237e+04 8.616e-10
 46.80901   -181.4 1.229e+04 8.504e-10
 46.82857   -180.9 1.216e+04 8.110e-10
 46.84813   -180.3 1.201e+04 7.348e-10
 46.86769   -179.6 1.189e+04 6.460e-10
 46.88066   -179.1 1.184e+04 5.797e-10
 46.89044   -179.1 1.186e+04 5.682e-10
 46.91669   -178.8 1.180e+04 5.118e-10
 46.95591   -177.6 1.161e+04 4.055e-10
 46.99503   -175.9 1.135e+04 3.099e-10
 47.03415   -174.0 1.112e+04 2.407e-10
 47.07328   -172.0 1.099e+04 2.002e-10
 47.11240   -170.0 1.095e+04 1.852e-10
 47.15152   -168.1 1.094e+04 1.831e-10
 47.19064   -166.2 1.107e+04 1.897e-10
 47.22396   -164.4 1.114e+04 2.207e-10
 47.24352   -164.2 1.116e+04 2.296e-10
 47.26889   -162.3 1.125e+04 2.812e-10
 47.30801   -160.4 1.133e+04 3.437e-10
 47.34713   -158.3 1.140e+04 4.059e-10
 47.38625   -156.3 1.148e+04 4.592e-10
 47.42538   -154.2 1.162e+04 5.266e-10
 47.46450   -152.3 1.186e+04 6.272e-10
 47.50362   -150.8 1.226e+04 7.893e-10
 47.54274   -150.3 1.285e+04 1.063e-09
 47.58186   -150.6 1.354e+04 1.633e-09
 47.61111   -150.9 1.365e+04 1.715e-09
 47.63057   -151.5 1.402e+04 2.269e-09
 47.65013   -152.2 1.455e+04 2.975e-09
 47.66969   -153.5 1.527e+04 4.322e-09
 47.68926   -154.8 1.583e+04 6.159e-09
 47.70882   -156.0 1.612e+04 7.958e-09
 47.72838   -157.0 1.610e+04 8.711e-09
 47.74794   -157.8 1.599e+04 8.789e-09
 47.76750   -158.0 1.533e+04 7.573e-09
 47.78706   -157.9 1.456e+04 5.364e-09
 47.80662   -157.9 1.375e+04 3.344e-09
 47.82618   -158.1 1.301e+04 2.004e-09
 47.84574   -158.4 1.243e+04 1.250e-09
 47.86531   -158.5 1.200e+04 8.532e-10
 47.88487   -158.4 1.173e+04 6.433e-10
 47.90443   -157.7 1.161e+04 5.466e-10
 47.92963   -157.0 1.157e+04 5.138e-10
 47.94919   -156.2 1.162e+04 5.318e-10
 47.97299   -154.9 1.168e+04 5.585e-10
 48.01221   -153.7 1.170e+04 5.507e-10
 48.05133   -152.2 1.175e+04 5.521e-10
 48.08057   -151.4 1.173e+04 5.205e-10
 48.10004   -151.0 1.184e+04 5.659e-10
 48.11960   -150.7 1.195e+04 6.234e-10
 48.13916   -150.4 1.203e+04 6.765e-10
 48.15872   -150.1 1.217e+04 7.596e-10
 48.17828   -149.9 1.229e+04 8.385e-10
 48.19784   -149.7 1.246e+04 9.759e-10
 48.21741   -149.4 1.261e+04 1.111e-09
 48.23697   -149.2 1.273e+04 1.256e-09
 48.25653   -149.0 1.283e+04 1.381e-09
 48.27609   -148.9 1.285e+04 1.458e-09
 48.29219   -148.7 1.284e+04 1.475e-09
 48.30197   -148.5 1.270e+04 1.396e-09
 48.31521   -148.2 1.267e+04 1.393e-09
 48.33477   -147.8 1.257e+04 1.358e-09
 48.35433   -147.4 1.247e+04 1.285e-09
 48.37389   -146.8 1.236e+04 1.199e-09
 48.39345   -146.3 1.226e+04 1.114e-09
 48.41302   -145.7 1.218e+04 1.034e-09
 48.43258   -145.0 1.211e+04 9.631e-10
 48.45214   -144.4 1.205e+04 9.025e-10
 48.47170   -143.7 1.201e+04 8.546e-10
 48.49126   -143.0 1.197e+04 8.216e-10
 48.51082   -142.2 1.196e+04 8.092e-10
 48.53038   -141.5 1.197e+04 8.114e-10
 48.54994   -141.0 1.214e+04 8.723e-10
 48.56950   -140.7 1.242e+04 1.030e-09
 48.59894   -140.5 1.274e+04 1.294e-09
 48.63549   -139.4 1.305e+04 1.607e-09
 48.65505   -137.6 1.237e+04 9.405e-10
 48.67729   -136.8 1.271e+04 1.287e-09
 48.71641   -136.0 1.302e+04 1.699e-09
 48.75553   -135.5 1.325e+04 2.014e-09
 48.79465   -135.2 1.341e+04 2.196e-09
 48.83378   -135.0 1.346e+04 2.224e-09
 48.86302   -134.9 1.347e+04 2.067e-09
 48.88248   -135.1 1.338e+04 2.016e-09
 48.90204   -135.3 1.330e+04 1.951e-09
 48.92160   -135.5 1.325e+04 1.932e-09
 48.94117   -135.7 1.320e+04 1.960e-09
 48.96073   -135.8 1.319e+04 2.045e-09
 48.98029   -135.8 1.318e+04 2.177e-09
 48.99796   -135.8 1.319e+04 2.351e-09
 49.00774   -135.3 1.350e+04 2.943e-09
 49.01941   -135.1 1.349e+04 3.053e-09
 49.03897   -134.8 1.349e+04 3.088e-09
 49.05853   -134.5 1.341e+04 2.913e-09
 49.07809   -134.1 1.332e+04 2.710e-09
 49.09765   -133.7 1.320e+04 2.393e-09
 49.11722   -133.3 1.305e+04 2.064e-09
 49.13678   -132.8 1.291e+04 1.765e-09
 49.15634   -132.4 1.288e+04 1.573e-09
 49.17590   -132.1 1.292e+04 1.505e-09
 49.19546   -132.1 1.294e+04 1.494e-09
 49.21502   -132.4 1.320e+04 1.630e-09
 49.23458   -133.1 1.385e+04 2.435e-09
 49.25414   -133.7 1.462e+04 3.910e-09
 49.27370   -134.2 1.546e+04 5.992e-09
 49.29327   -134.9 1.621e+04 8.247e-09
 49.31283   -135.9 1.671e+04 9.934e-09
 49.33239   -137.0 1.693e+04 1.064e-08
 49.35084   -138.3 1.699e+04 1.046e-08
 49.36062   -138.9 1.663e+04 8.040e-09
 49.37151   -140.5 1.611e+04 6.175e-09
 49.39107   -142.1 1.535e+04 4.574e-09
 49.41063   -143.5 1.452e+04 3.648e-09
 49.43019   -144.2 1.389e+04 3.236e-09
 49.44975   -144.4 1.372e+04 2.978e-09
 49.46932   -144.5 1.360e+04 2.815e-09
 49.48888   -144.5 1.356e+04 2.731e-09
 49.50844   -144.4 1.355e+04 2.721e-09
 49.52800   -144.3 1.358e+04 2.763e-09
 49.54756   -144.2 1.363e+04 2.827e-09
 49.56712   -144.2 1.366e+04 2.861e-09
 49.58668   -144.2 1.366e+04 2.869e-09
 49.60624   -144.1 1.360e+04 2.768e-09
 49.62580   -144.1 1.341e+04 2.447e-09
 49.64537   -144.1 1.314e+04 2.058e-09
 49.66493   -144.1 1.284e+04 1.704e-09
 49.68449   -144.0 1.254e+04 1.417e-09
 49.70372   -143.8 1.224e+04 1.186e-09
 49.71350   -143.5 1.230e+04 1.190e-09
 49.72361   -143.1 1.208e+04 1.033e-09
 49.74317   -142.7 1.187e+04 9.002e-10
 49.76273   -142.0 1.169e+04 7.803e-10
 49.78229   -141.2 1.156e+04 6.778e-10
 49.81173   -140.6 1.144e+04 5.929e-10
 49.85095   -139.9 1.127e+04 5.174e-10
 49.89007   -138.7 1.100e+04 4.173e-10
 49.92920   -137.2 1.076e+04 3.225e-10
 49.96832   -135.7 1.059e+04 2.457e-10
 50.00744   -134.3 1.049e+04 1.910e-10
 50.04656   -132.8 1.045e+04 1.563e-10
 50.06658   -131.3 1.043e+04 1.359e-10
 50.08614   -130.5 1.055e+04 1.726e-10
 50.12481   -129.0 1.056e+04 1.544e-10
 50.16393   -127.5 1.060e+04 1.467e-10
 50.20305   -126.1 1.062e+04 1.455e-10
 50.24217   -124.8 1.069e+04 1.466e-10
 50.28130   -123.7 1.081e+04 1.554e-10
 50.32042   -122.7 1.085e+04 1.757e-10
 50.35954   -121.7 1.086e+04 2.039e-10
 50.39866   -120.8 1.091e+04 2.281e-10
 50.43779   -119.9 1.097e+04 2.435e-10
 50.47691   -119.0 1.099e+04 2.495e-10
 50.51603   -118.2 1.106e+04 2.402e-10
 50.55515   -117.5 1.111e+04 2.163e-10
 50.59427   -116.9 1.110e+04 1.910e-10
 50.63340   -116.6 1.104e+04 1.818e-10
 50.67252   -116.3 1.102e+04 1.833e-10
 50.71164   -116.1 1.101e+04 1.974e-10
 50.75076   -115.8 1.108e+04 2.227e-10
 50.77235   -115.5 1.114e+04 2.415e-10
 50.79191   -116.0 1.129e+04 2.814e-10
 50.82901   -115.9 1.131e+04 2.911e-10
 50.86813   -115.7 1.123e+04 2.922e-10
 50.90725   -115.3 1.111e+04 2.566e-10
 50.94637   -114.7 1.099e+04 2.130e-10
 50.98550   -113.9 1.091e+04 1.802e-10
 51.02462   -113.0 1.083e+04 1.613e-10
 51.06374   -112.0 1.078e+04 1.539e-10
 51.10286   -110.9 1.077e+04 1.526e-10
 51.14199   -110.0 1.079e+04 1.532e-10
 51.18111   -109.6 1.087e+04 1.695e-10
 51.22023   -109.4 1.105e+04 2.735e-10
 51.25935   -108.9 1.132e+04 4.785e-10
 51.29847   -108.2 1.162e+04 7.106e-10
 51.33760   -107.6 1.176e+04 8.289e-10
 51.37672   -107.2 1.176e+04 8.387e-10
 51.41584   -106.4 1.153e+04 6.647e-10
 51.45496   -105.2 1.122e+04 3.965e-10
 51.47811   -104.1 1.102e+04 2.219e-10
 51.49767   -104.5 1.095e+04 1.684e-10
 51.53321   -103.5 1.086e+04 1.246e-10
 51.57233   -102.4 1.082e+04 1.170e-10
 51.61145   -101.4 1.082e+04 1.166e-10
 51.65057   -100.9 1.093e+04 1.462e-10
 51.68970   -100.5 1.105e+04 2.422e-10
 51.72882   -100.0 1.122e+04 3.881e-10
 51.76794    -99.7 1.142e+04 5.516e-10
 51.80706    -99.5 1.161e+04 6.862e-10
 51.84619    -99.6 1.177e+04 7.707e-10
 51.88531   -100.5 1.189e+04 8.473e-10
 51.92443   -101.6 1.207e+04 1.002e-09
 51.96355   -102.3 1.236e+04 1.294e-09
 52.00267   -102.8 1.267e+04 1.652e-09
 52.04180   -103.2 1.292e+04 1.937e-09
 52.08092   -103.4 1.297e+04 2.017e-09
 52.12004   -103.5 1.293e+04 1.966e-09
 52.15916   -103.3 1.273e+04 1.723e-09
 52.18388   -102.6 1.244e+04 1.396e-09
 52.20344   -102.4 1.212e+04 1.020e-09
 52.23741   -101.6 1.182e+04 7.733e-10
 52.27653   -100.7 1.160e+04 6.154e-10
 52.31565    -99.7 1.143e+04 5.150e-10
 52.35477    -98.5 1.133e+04 4.681e-10
 52.39390    -97.2 1.131e+04 4.584e-10
 52.43302    -96.1 1.138e+04 4.798e-10
 52.47214    -95.1 1.153e+04 5.721e-10
 52.51126    -94.1 1.164e+04 6.993e-10
 52.55039    -93.3 1.167e+04 7.949e-10
 52.58951    -92.6 1.166e+04 8.252e-10
 52.62863    -91.7 1.158e+04 8.227e-10
 52.66775    -90.6 1.142e+04 7.275e-10
 52.70687    -89.4 1.128e+04 5.832e-10
 52.74600    -88.2 1.114e+04 4.521e-10
 52.78512    -87.0 1.103e+04 3.600e-10
 52.82424    -85.7 1.098e+04 3.173e-10
 52.86336    -84.3 1.096e+04 3.091e-10
 52.88964    -82.8 1.097e+04 3.157e-10
 52.90921    -81.9 1.107e+04 4.301e-10
 52.94161    -80.7 1.118e+04 4.980e-10
 52.98073    -79.4 1.130e+04 6.081e-10
 53.01985    -78.3 1.144e+04 7.171e-10
 53.05897    -77.5 1.158e+04 8.147e-10
 53.09810    -77.2 1.172e+04 8.968e-10
 53.13722    -77.1 1.187e+04 9.792e-10
 53.17634    -77.1 1.200e+04 1.088e-09
 53.21546    -77.3 1.206e+04 1.190e-09
 53.25459    -77.5 1.205e+04 1.221e-09
 53.29371    -77.8 1.193e+04 1.151e-09
 53.32295    -77.9 1.201e+04 1.236e-09
 53.34241    -77.8 1.204e+04 1.228e-09
 53.36198    -78.0 1.203e+04 1.220e-09
 53.38154    -78.1 1.212e+04 1.310e-09
 53.40110    -78.1 1.221e+04 1.453e-09
 53.42066    -77.8 1.236e+04 1.583e-09
 53.44022    -77.7 1.240e+04 1.619e-09
 53.45978    -77.6 1.243e+04 1.621e-09
 53.48922    -77.5 1.230e+04 1.482e-09
 53.52844    -77.1 1.214e+04 1.241e-09
 53.56756    -76.6 1.183e+04 8.648e-10
 53.59541    -75.9 1.147e+04 5.152e-10
 53.61497    -75.8 1.152e+04 5.718e-10
 53.64581    -74.9 1.119e+04 3.516e-10
 53.68493    -73.7 1.096e+04 2.366e-10
 53.72405    -72.3 1.083e+04 1.871e-10
 53.76317    -70.6 1.078e+04 1.731e-10
 53.80230    -68.8 1.077e+04 1.705e-10
 53.84142    -67.2 1.085e+04 1.792e-10
 53.88054    -65.8 1.093e+04 2.122e-10
 53.91966    -64.4 1.100e+04 2.570e-10
 53.95879    -63.1 1.106e+04 3.088e-10
 53.99791    -61.9 1.112e+04 3.709e-10
 54.03703    -60.9 1.119e+04 4.547e-10
 54.07615    -59.9 1.130e+04 5.805e-10
 54.11527    -58.8 1.147e+04 7.450e-10
 54.15440    -57.9 1.167e+04 8.953e-10
 54.19352    -57.2 1.174e+04 9.479e-10
 54.23264    -56.6 1.174e+04 9.518e-10
 54.27176    -55.9 1.162e+04 8.626e-10
 54.30118    -55.0 1.142e+04 7.112e-10
 54.32074    -54.9 1.149e+04 7.422e-10
 54.35001    -53.9 1.130e+04 6.582e-10
 54.38913    -52.7 1.116e+04 5.903e-10
 54.42825    -51.2 1.105e+04 5.284e-10
 54.46737    -49.7 1.098e+04 4.558e-10
 54.50650    -48.0 1.095e+04 3.758e-10
 54.54562    -46.4 1.092e+04 3.105e-10
 54.58474    -44.8 1.090e+04 2.669e-10
 54.62386    -43.2 1.087e+04 2.474e-10
 54.66298    -41.6 1.087e+04 2.425e-10
 54.70211    -40.3 1.089e+04 2.625e-10
 54.74123    -39.0 1.087e+04 3.262e-10
 54.78035    -37.5 1.090e+04 3.971e-10
 54.81947    -36.1 1.093e+04 4.380e-10
 54.85860    -34.9 1.097e+04 4.387e-10
 54.89772    -33.6 1.088e+04 4.118e-10
 54.93684    -32.2 1.073e+04 3.548e-10
 54.97596    -31.1 1.059e+04 2.752e-10
 55.00694    -30.1 1.048e+04 2.182e-10
 55.02650    -29.8 1.048e+04 1.922e-10
 55.05421    -28.9 1.043e+04 1.659e-10
 55.09333    -27.9 1.042e+04 1.649e-10
 55.13245    -27.0 1.040e+04 1.964e-10
 55.17157    -25.8 1.036e+04 2.462e-10
 55.21070    -24.2 1.038e+04 2.693e-10
 55.24982    -22.8 1.036e+04 2.566e-10
 55.28894    -21.5 1.033e+04 2.021e-10
 55.32806    -20.7 1.025e+04 1.480e-10
 55.36718    -20.1 1.016e+04 1.257e-10
 55.40631    -19.4 1.017e+04 1.221e-10
 55.44543    -19.2 1.045e+04 1.417e-10
 55.48455    -19.4 1.061e+04 2.144e-10
 55.52367    -19.7 1.089e+04 3.659e-10
 55.56280    -19.8 1.113e+04 6.100e-10
 55.60192    -19.6 1.124e+04 7.887e-10
 55.64104    -19.8 1.115e+04 7.816e-10
 55.68016    -19.6 1.080e+04 4.828e-10
 55.71271    -20.1 1.069e+04 2.572e-10
 55.73227    -20.5 1.071e+04 2.625e-10
 55.75841    -21.2 1.050e+04 1.950e-10
 55.79753    -21.1 1.045e+04 1.831e-10
 55.83665    -20.6 1.047e+04 2.030e-10
 55.87577    -20.1 1.048e+04 2.528e-10
 55.91490    -19.3 1.050e+04 2.997e-10
 55.95402    -18.5 1.048e+04 3.270e-10
 55.99314    -17.8 1.040e+04 3.330e-10
 56.03226    -16.8 1.031e+04 3.134e-10
 56.07138    -15.8 1.023e+04 2.724e-10
 56.11051    -14.8 1.024e+04 2.286e-10
 56.14963    -14.4 1.031e+04 2.068e-10
 56.18875    -14.3 1.040e+04 2.108e-10
 56.22787    -14.5 1.032e+04 2.996e-10
 56.26700    -13.6 1.038e+04 4.274e-10
 56.30612    -13.0 1.057e+04 4.770e-10
 56.34524    -13.1 1.049e+04 4.297e-10
 56.38436    -13.3 1.021e+04 3.188e-10
 56.41847    -13.3 9.965e+03 2.503e-10
 56.43803    -13.5 1.004e+04 3.178e-10
 56.46261    -13.1 1.001e+04 2.363e-10
 56.50173    -13.4 9.910e+03 1.998e-10
 56.54085    -13.2 9.856e+03 2.112e-10
 56.57997    -12.8 9.883e+03 2.733e-10
 56.61910    -12.1 1.008e+04 3.552e-10
 56.65822    -11.6 1.039e+04 4.391e-10
 56.69734    -11.6 1.059e+04 5.137e-10
 56.73646    -11.8 1.066e+04 5.996e-10
 56.77558    -11.3 1.062e+04 6.722e-10
 56.81471    -11.0 1.052e+04 6.473e-10
 56.85383    -10.7 1.036e+04 5.036e-10
 56.89295    -10.6 1.014e+04 3.902e-10
 56.93207    -10.4 9.988e+03 3.266e-10
 56.97120     -9.9 9.901e+03 2.917e-10
 57.01032     -9.3 9.842e+03 2.743e-10
 57.04944     -8.4 9.790e+03 2.584e-10
 57.08856     -7.2 9.776e+03 2.335e-10
 57.12424     -6.3 9.869e+03 1.995e-10
 57.14380     -6.3 9.712e+03 1.778e-10
 57.16681     -5.5 9.740e+03 1.638e-10
 57.20593     -4.6 9.836e+03 1.639e-10
 57.24505     -3.9 9.928e+03 1.923e-10
 57.28417     -3.1 1.001e+04 2.478e-10
 57.32330     -2.1 1.027e+04 3.020e-10
 57.36242     -0.8 1.034e+04 3.403e-10
 57.40154      0.4 1.027e+04 3.397e-10
 57.44066      1.9 1.043e+04 2.586e-10
 57.47978      2.5 1.054e+04 1.971e-10
 57.51891      2.9 1.058e+04 1.836e-10
 57.55803      3.3 1.072e+04 2.028e-10
 57.59715      4.1 1.072e+04 2.694e-10
 57.63627      5.4 1.080e+04 3.377e-10
 57.67540      6.5 1.096e+04 3.492e-10
 57.71452      7.6 1.107e+04 3.196e-10
 57.75364      8.3 1.110e+04 2.869e-10
 57.79276      9.0 1.107e+04 2.877e-10
 57.83001      9.5 1.111e+04 3.089e-10
 57.84957      9.9 1.110e+04 3.092e-10
 57.87101     10.7 1.114e+04 3.478e-10
 57.91013     11.7 1.117e+04 4.114e-10
 57.94925     12.7 1.115e+04 4.657e-10
 57.98837     13.5 1.137e+04 4.434e-10
 58.02750     13.2 1.163e+04 4.763e-10
 58.06662     12.2 1.190e+04 7.337e-10
 58.10574     11.8 1.224e+04 1.244e-09
 58.14486     11.6 1.264e+04 1.780e-09
 58.18398     10.6 1.278e+04 1.930e-09
 58.22311     10.0 1.251e+04 1.555e-09
 58.26223      9.2 1.235e+04 1.196e-09
 58.30135      8.4 1.215e+04 1.157e-09
 58.34047      9.0 1.184e+04 1.031e-09
 58.37960     10.4 1.155e+04 7.553e-10
 58.41872     10.7 1.170e+04 4.712e-10
 58.45784     10.7 1.160e+04 4.321e-10
 58.49696     10.2 1.170e+04 5.467e-10
 58.53577      9.8 1.205e+04 8.887e-10
 58.55533      9.0 1.192e+04 7.665e-10
 58.57521      9.2 1.228e+04 1.447e-09
 58.61433      9.5 1.255e+04 1.755e-09
 58.65345      9.5 1.240e+04 1.458e-09
 58.69257      9.2 1.208e+04 1.033e-09
 58.73170      9.5 1.162e+04 7.473e-10
 58.77082     10.5 1.130e+04 5.167e-10
 58.80994     11.7 1.114e+04 3.236e-10
 58.84906     12.7 1.104e+04 2.033e-10
 58.88818     13.4 1.084e+04 1.537e-10
 58.92731     14.8 1.072e+04 1.513e-10
 58.96643     16.3 1.075e+04 1.601e-10
 59.00555     18.1 1.074e+04 1.819e-10
 59.04467     20.1 1.071e+04 2.055e-10
 59.08380     22.2 1.067e+04 2.164e-10
 59.12292     24.3 1.062e+04 2.155e-10
 59.16204     26.4 1.060e+04 2.074e-10
 59.20116     28.5 1.057e+04 1.990e-10
 59.24028     30.5 1.056e+04 1.938e-10
 59.26110     32.7 1.057e+04 1.903e-10
 59.28066     32.8 1.061e+04 2.136e-10
 59.31853     35.0 1.060e+04 2.051e-10
 59.35765     37.3 1.060e+04 1.882e-10
 59.39677     39.6 1.060e+04 1.650e-10
 59.43589     41.9 1.061e+04 1.404e-10
 59.47502     44.2 1.062e+04 1.208e-10
 59.51414     46.4 1.052e+04 1.116e-10
 59.55326     48.7 1.042e+04 1.114e-10
 59.59238     50.9 1.041e+04 1.159e-10
 59.63151     53.2 1.040e+04 1.317e-10
 59.67063     55.6 1.041e+04 1.547e-10
 59.70975     58.1 1.044e+04 1.775e-10
 59.74887     60.5 1.048e+04 1.923e-10
 59.78799     62.9 1.050e+04 1.967e-10
 59.82712     65.2 1.051e+04 1.923e-10
 59.86624     67.4 1.054e+04 1.879e-10
 59.90536     69.6 1.057e+04 1.842e-10
 59.94448     71.8 1.059e+04 1.846e-10
 59.96686     74.1 1.064e+04 1.866e-10
 59.98642     73.9 1.068e+04 1.913e-10
 60.02273     76.1 1.073e+04 2.008e-10
 60.06185     78.3 1.080e+04 2.193e-10
 60.10097     80.5 1.088e+04 2.444e-10
 60.14009     82.7 1.098e+04 2.727e-10
 60.17922     84.9 1.109e+04 2.959e-10
 60.21834     87.0 1.119e+04 3.096e-10
 60.25746     89.1 1.127e+04 3.141e-10
 60.29658     91.1 1.131e+04 3.157e-10
 60.33571     93.2 1.133e+04 3.226e-10
 60.37483     95.3 1.132e+04 3.422e-10
 60.41395     97.5 1.138e+04 3.882e-10
 60.45307     99.8 1.154e+04 4.694e-10
 60.49219    102.0 1.176e+04 5.759e-10
 60.52144    102.9 1.186e+04 6.332e-10
 60.54090    103.8 1.194e+04 7.028e-10
 60.56046    104.6 1.204e+04 8.204e-10
 60.58002    105.5 1.218e+04 9.661e-10
 60.59959    106.4 1.233e+04 1.111e-09
 60.61915    107.2 1.249e+04 1.246e-09
 60.63871    107.8 1.266e+04 1.378e-09
 60.65827    108.4 1.283e+04 1.511e-09
 60.67243    108.8 1.295e+04 1.636e-09
 60.68221    108.4 1.317e+04 1.927e-09
 60.69739    108.7 1.330e+04 2.093e-09
 60.71695    109.0 1.339e+04 2.230e-09
 60.73651    109.1 1.345e+04 2.329e-09
 60.75607    109.2 1.348e+04 2.394e-09
 60.77564    109.3 1.346e+04 2.398e-09
 60.79520    109.5 1.341e+04 2.338e-09
 60.81476    109.7 1.327e+04 2.189e-09
 60.83432    110.0 1.308e+04 1.981e-09
 60.85388    110.4 1.288e+04 1.764e-09
 60.87344    110.8 1.267e+04 1.556e-09
 60.89300    111.1 1.249e+04 1.397e-09
 60.91256    111.4 1.232e+04 1.274e-09
 60.93212    111.8 1.218e+04 1.188e-09
 60.95169    112.1 1.206e+04 1.129e-09
 60.97125    112.4 1.198e+04 1.104e-09
 60.99081    112.8 1.196e+04 1.103e-09
 61.01037    113.1 1.198e+04 1.117e-09
 61.02532    113.3 1.204e+04 1.144e-09
 61.03510    113.1 1.175e+04 9.301e-10
 61.04949    113.2 1.181e+04 9.492e-10
 61.06905    113.2 1.183e+04 9.616e-10
 61.08861    113.0 1.183e+04 9.676e-10
 61.10817    112.8 1.182e+04 9.590e-10
 61.12774    112.5 1.175e+04 9.238e-10
 61.14730    112.3 1.157e+04 8.430e-10
 61.16686    112.0 1.134e+04 7.264e-10
 61.18642    111.7 1.110e+04 5.811e-10
 61.20598    111.2 1.093e+04 4.959e-10
 61.23542    111.3 1.070e+04 3.993e-10
 61.27464    111.5 1.035e+04 2.966e-10
 61.31376    111.8 1.005e+04 2.295e-10
 61.35288    112.4 9.835e+03 1.970e-10
 61.37840    113.3 9.814e+03 1.963e-10
 61.39796    113.3 9.817e+03 1.772e-10
 61.43113    114.4 9.816e+03 1.801e-10
 61.47025    115.5 9.863e+03 2.009e-10
 61.50937    116.5 1.008e+04 2.613e-10
 61.54849    117.3 1.036e+04 3.685e-10
 61.58762    117.9 1.072e+04 5.508e-10
 61.62674    118.4 1.104e+04 7.575e-10
 61.66586    118.5 1.110e+04 7.891e-10
 61.70498    118.7 1.104e+04 7.307e-10
 61.74411    119.0 1.081e+04 5.278e-10
 61.78323    119.2 1.045e+04 3.292e-10
 61.82235    119.3 1.003e+04 2.314e-10
 61.86147    119.9 9.913e+03 2.235e-10
 61.90059    120.8 9.925e+03 2.277e-10
 61.93972    121.8 1.005e+04 2.494e-10
 61.97884    122.5 1.034e+04 3.008e-10
 62.01796    122.7 1.065e+04 3.787e-10
 62.05708    122.6 1.089e+04 4.797e-10
 62.08416    122.5 1.112e+04 5.992e-10
 62.10372    121.7 1.135e+04 7.105e-10
 62.13533    121.6 1.178e+04 8.476e-10
 62.17445    120.9 1.227e+04 9.501e-10
 62.21357    119.8 1.248e+04 9.518e-10
 62.25269    118.5 1.248e+04 9.063e-10
 62.29182    117.5 1.239e+04 7.756e-10
 62.33094    116.6 1.225e+04 6.305e-10
 62.37006    115.8 1.211e+04 4.929e-10
 62.40918    114.8 1.192e+04 3.866e-10
 62.44831    114.5 1.169e+04 3.572e-10
 62.47755    114.1 1.163e+04 3.785e-10
 62.49701    113.9 1.169e+04 4.370e-10
 62.51657    113.5 1.195e+04 5.693e-10
 62.53614    112.7 1.263e+04 8.511e-10
 62.55570    111.5 1.366e+04 1.465e-09
 62.57526    109.9 1.473e+04 2.726e-09
 62.59482    108.3 1.574e+04 4.965e-09
 62.61438    106.7 1.676e+04 8.197e-09
 62.63394    104.8 1.782e+04 1.200e-08
 62.65350    102.8 1.897e+04 1.489e-08
 62.67306    100.4 1.937e+04 1.369e-08
 62.69262     97.4 1.941e+04 9.581e-09
 62.71219     93.8 1.820e+04 5.303e-09
 62.73175     89.8 1.561e+04 2.946e-09
 62.75131     88.4 1.402e+04 2.199e-09
 62.77087     87.2 1.311e+04 1.781e-09
 62.78983     86.8 1.279e+04 1.293e-09
 62.79961     86.0 1.300e+04 1.587e-09
 62.80999     86.0 1.295e+04 1.415e-09
 62.82955     85.9 1.295e+04 1.306e-09
 62.84911     85.9 1.290e+04 1.225e-09
 62.86867     85.9 1.282e+04 1.156e-09
 62.88823     86.0 1.272e+04 1.085e-09
 62.90780     86.1 1.263e+04 1.008e-09
 62.92736     86.0 1.256e+04 9.214e-10
 62.94692     85.9 1.253e+04 8.530e-10
 62.96648     85.4 1.252e+04 8.418e-10
 62.98604     84.6 1.254e+04 8.566e-10
 63.00560     83.7 1.258e+04 9.049e-10
 63.02516     82.8 1.263e+04 9.910e-10
 63.04472     82.0 1.268e+04 1.100e-09
 63.06428     81.4 1.270e+04 1.182e-09
 63.08385     80.9 1.275e+04 1.208e-09
 63.11329     79.5 1.277e+04 1.103e-09
 63.15251     78.1 1.279e+04 8.609e-10
 63.19163     76.6 1.260e+04 6.794e-10
 63.23075     75.7 1.221e+04 5.942e-10
 63.26987     75.6 1.208e+04 5.865e-10
 63.29912     75.5 1.200e+04 5.581e-10
 63.31858     75.5 1.197e+04 5.630e-10
 63.33814     75.6 1.198e+04 5.918e-10
 63.35770     75.7 1.200e+04 6.359e-10
 63.37726     76.0 1.201e+04 6.809e-10
 63.39682     76.3 1.207e+04 7.148e-10
 63.41638     76.6 1.214e+04 7.341e-10
 63.43595     76.8 1.214e+04 7.329e-10
 63.45551     77.1 1.211e+04 7.157e-10
 63.47507     77.5 1.205e+04 6.762e-10
 63.49560     78.0 1.198e+04 5.661e-10
 63.51525     76.9 1.199e+04 5.554e-10
 63.54373     77.2 1.199e+04 5.044e-10
 63.57297     77.5 1.202e+04 5.114e-10
 63.59243     77.4 1.211e+04 5.446e-10
 63.61200     77.2 1.220e+04 6.362e-10
 63.63156     77.2 1.229e+04 7.716e-10
 63.65112     77.2 1.243e+04 9.269e-10
 63.67068     77.2 1.253e+04 1.040e-09
 63.70012     76.8 1.257e+04 1.046e-09
 63.73934     76.4 1.252e+04 1.013e-09
 63.77846     76.2 1.237e+04 9.359e-10
 63.81758     76.2 1.226e+04 8.511e-10
 63.85671     76.3 1.220e+04 7.860e-10
 63.89583     76.4 1.214e+04 7.419e-10
 63.93495     76.7 1.200e+04 6.794e-10
 63.97407     77.3 1.177e+04 5.762e-10
 64.01319     78.1 1.153e+04 4.561e-10
 64.05232     78.8 1.131e+04 3.480e-10
 64.09144     79.5 1.114e+04 2.612e-10
 64.13056     80.2 1.106e+04 1.909e-10
 64.16968     80.8 1.092e+04 1.502e-10
 64.20146     81.7 1.085e+04 1.464e-10
 64.22102     81.0 1.066e+04 1.200e-10
 64.24793     82.0 1.072e+04 1.242e-10
 64.28705     82.5 1.090e+04 1.410e-10
 64.32617     82.8 1.120e+04 2.106e-10
 64.36529     83.2 1.143e+04 3.624e-10
 64.40442     83.8 1.171e+04 5.736e-10
 64.44354     84.4 1.194e+04 6.883e-10
 64.48266     84.7 1.196e+04 6.707e-10
 64.52178     85.1 1.191e+04 5.711e-10
 64.56090     85.5 1.172e+04 4.163e-10
 64.60003     85.9 1.122e+04 3.213e-10
 64.63915     86.5 1.110e+04 3.111e-10
 64.67827     87.3 1.107e+04 3.219e-10
 64.71739     87.9 1.112e+04 3.705e-10
 64.75652     88.1 1.155e+04 5.299e-10
 64.79564     88.2 1.228e+04 9.056e-10
 64.83476     88.3 1.292e+04 1.505e-09
 64.87388     88.3 1.342e+04 2.165e-09
 64.90313     88.1 1.329e+04 2.023e-09
 64.91681     87.8 1.317e+04 1.855e-09
 64.92669     87.6 1.296e+04 1.525e-09
 64.94225     87.3 1.274e+04 1.243e-09
 64.96171     86.9 1.258e+04 1.106e-09
 64.98127     86.6 1.246e+04 1.078e-09
 65.00083     86.5 1.243e+04 1.072e-09
 65.02040     86.5 1.241e+04 1.071e-09
 65.03996     86.4 1.242e+04 1.083e-09
 65.05952     86.1 1.256e+04 1.136e-09
 65.07908     85.3 1.295e+04 1.310e-09
 65.09864     84.1 1.354e+04 1.669e-09
 65.11820     82.6 1.408e+04 2.255e-09
 65.13776     81.2 1.430e+04 3.002e-09
 65.15732     80.2 1.418e+04 3.538e-09
 65.17688     79.5 1.407e+04 3.533e-09
 65.19645     78.9 1.380e+04 3.340e-09
 65.21601     78.3 1.351e+04 2.850e-09
 65.23557     77.5 1.326e+04 2.248e-09
 65.25513     76.4 1.301e+04 1.695e-09
 65.26969     75.1 1.274e+04 1.281e-09
 65.27947     74.1 1.224e+04 1.025e-09
 65.29425     73.1 1.197e+04 8.698e-10
 65.31381     72.4 1.176e+04 7.923e-10
 65.33337     72.0 1.164e+04 7.545e-10
 65.35293     71.7 1.157e+04 7.291e-10
 65.37250     71.6 1.154e+04 7.171e-10
 65.39206     71.5 1.152e+04 7.189e-10
 65.41162     71.4 1.153e+04 7.362e-10
 65.43118     71.1 1.161e+04 7.812e-10
 65.45074     70.7 1.177e+04 8.657e-10
 65.47030     70.2 1.195e+04 9.938e-10
 65.48986     69.8 1.215e+04 1.144e-09
 65.50942     69.5 1.236e+04 1.235e-09
 65.52898     69.1 1.243e+04 1.226e-09
 65.54855     68.6 1.247e+04 1.155e-09
 65.56811     67.9 1.245e+04 9.897e-10
 65.58767     66.6 1.231e+04 8.391e-10
 65.60723     65.3 1.212e+04 8.196e-10
 65.62258     64.0 1.210e+04 8.499e-10
 65.63236     64.7 1.218e+04 8.934e-10
 65.64635     63.4 1.223e+04 9.949e-10
 65.66591     62.5 1.235e+04 1.206e-09
 65.68547     62.1 1.251e+04 1.457e-09
 65.70503     61.9 1.263e+04 1.576e-09
 65.72460     61.6 1.262e+04 1.555e-09
 65.74416     61.5 1.248e+04 1.434e-09
 65.76372     61.4 1.225e+04 1.202e-09
 65.78328     61.0 1.201e+04 9.605e-10
 65.80284     60.3 1.179e+04 7.786e-10
 65.82240     59.6 1.154e+04 7.017e-10
 65.84196     59.2 1.148e+04 6.995e-10
 65.86152     59.0 1.149e+04 7.137e-10
 65.88108     59.0 1.153e+04 7.563e-10
 65.90065     59.1 1.159e+04 8.022e-10
 65.92021     59.1 1.168e+04 8.425e-10
 65.93977     59.0 1.180e+04 8.750e-10
 65.95933     58.8 1.194e+04 9.083e-10
 65.97546     58.7 1.200e+04 9.217e-10
 65.98524     58.8 1.212e+04 9.636e-10
 66.00833     58.5 1.199e+04 9.197e-10
 66.04755     57.8 1.205e+04 9.903e-10
 66.08667     57.0 1.218e+04 1.192e-09
 66.12579     56.5 1.213e+04 1.281e-09
 66.16492     56.5 1.200e+04 1.225e-09
 66.19416     56.0 1.179e+04 1.174e-09
 66.21362     56.3 1.143e+04 1.010e-09
 66.23318     56.8 1.102e+04 7.990e-10
 66.25275     57.5 1.072e+04 6.147e-10
 66.27231     58.5 1.047e+04 4.424e-10
 66.29187     59.2 1.020e+04 3.635e-10
 66.31866     60.8 9.885e+03 2.867e-10
 66.33822     60.8 1.008e+04 3.285e-10
 66.36043     62.1 1.004e+04 3.080e-10
 66.39965     64.7 1.004e+04 3.096e-10
 66.43877     66.8 1.010e+04 3.400e-10
 66.46802     68.4 1.013e+04 4.133e-10
 66.48748     69.8 1.031e+04 5.264e-10
 66.50704     71.1 1.054e+04 6.750e-10
 66.52660     72.2 1.078e+04 8.341e-10
 66.54616     73.5 1.095e+04 9.931e-10
 66.56572     74.9 1.110e+04 1.108e-09
 66.58528     76.1 1.122e+04 1.124e-09
 66.60485     77.2 1.120e+04 1.111e-09
 66.62441     77.8 1.114e+04 1.024e-09
 66.64397     77.7 1.097e+04 8.702e-10
 66.66353     77.1 1.079e+04 7.289e-10
 66.68122     76.0 1.067e+04 6.744e-10
 66.69100     75.3 9.953e+03 5.135e-10
 66.70265     74.4 9.946e+03 5.268e-10
 66.72221     73.4 1.002e+04 6.062e-10
 66.74177     72.5 1.027e+04 7.551e-10
 66.76133     71.6 1.058e+04 9.469e-10
 66.78090     70.9 1.087e+04 1.116e-09
 66.80046     70.3 1.095e+04 1.141e-09
 66.82002     69.9 1.091e+04 1.118e-09
 66.83958     69.6 1.088e+04 1.030e-09
 66.85914     69.1 1.100e+04 9.346e-10
 66.87870     68.4 1.131e+04 8.547e-10
 66.89826     67.5 1.160e+04 7.814e-10
 66.91782     66.7 1.154e+04 7.446e-10
 66.93738     66.4 1.111e+04 7.490e-10
 66.95695     66.6 1.059e+04 7.608e-10
 66.97651     67.0 1.021e+04 7.748e-10
 66.99607     67.7 1.007e+04 7.965e-10
 67.01563     68.7 1.009e+04 8.100e-10
 67.03411     69.6 1.024e+04 8.139e-10
 67.04389     69.9 9.946e+03 7.168e-10
 67.05475     70.9 1.003e+04 7.194e-10
 67.07431     71.7 1.006e+04 7.139e-10
 67.10375     73.6 1.016e+04 7.057e-10
 67.14297     75.4 1.016e+04 6.731e-10
 67.18209     77.1 1.006e+04 6.055e-10
 67.22122     78.9 1.003e+04 5.813e-10
 67.26034     80.6 1.013e+04 6.025e-10
 67.29946     82.1 1.052e+04 7.100e-10
 67.32870     82.5 1.047e+04 6.938e-10
 67.34817     82.8 1.051e+04 7.118e-10
 67.36773     83.2 1.063e+04 7.689e-10
 67.38699     83.3 1.079e+04 8.490e-10
 67.39677     83.4 1.159e+04 1.170e-09
 67.40685     83.4 1.189e+04 1.301e-09
 67.42641     83.2 1.228e+04 1.480e-09
 67.44597     82.8 1.278e+04 1.744e-09
 67.46553     82.1 1.346e+04 2.143e-09
 67.48510     81.3 1.414e+04 2.819e-09
 67.50466     80.4 1.490e+04 3.878e-09
 67.52422     79.5 1.571e+04 5.428e-09
 67.54378     78.8 1.646e+04 7.620e-09
 67.56334     78.4 1.712e+04 1.036e-08
 67.58290     78.0 1.737e+04 1.191e-08
 67.60246     77.7 1.727e+04 1.169e-08
 67.62202     77.9 1.674e+04 1.014e-08
 67.64158     78.4 1.586e+04 7.330e-09
 67.66114     78.8 1.483e+04 4.758e-09
 67.68071     78.7 1.376e+04 2.915e-09
 67.70027     78.7 1.269e+04 1.789e-09
 67.71983     78.8 1.182e+04 1.126e-09
 67.73939     79.3 1.114e+04 7.064e-10
 67.74975     80.1 1.055e+04 4.013e-10
 67.76941     79.9 1.068e+04 4.599e-10
 67.80805     81.6 1.006e+04 2.700e-10
 67.84065     83.3 9.568e+03 1.838e-10
 67.86022     84.0 9.980e+03 2.510e-10
 67.88629     85.9 9.607e+03 1.880e-10
 67.92542     87.9 9.361e+03 1.729e-10
 67.96454     90.1 9.350e+03 1.747e-10
 68.00366     92.2 9.383e+03 1.880e-10
 68.04278     94.2 9.529e+03 2.280e-10
 68.08190     96.0 9.780e+03 3.015e-10
 68.12103     97.9 1.017e+04 4.279e-10
 68.16015     99.9 1.079e+04 6.363e-10
 68.19927    101.5 1.145e+04 8.960e-10
 68.22851    102.0 1.197e+04 1.165e-09
 68.24798    102.5 1.238e+04 1.457e-09
 68.26754    103.1 1.274e+04 1.775e-09
 68.28710    103.9 1.304e+04 2.027e-09
 68.30666    104.6 1.324e+04 2.086e-09
 68.32622    105.3 1.329e+04 2.006e-09
 68.34578    106.0 1.329e+04 1.751e-09
 68.36534    106.6 1.320e+04 1.393e-09
 68.38491    107.0 1.303e+04 1.037e-09
 68.40447    107.2 1.273e+04 7.715e-10
 68.42403    107.2 1.215e+04 6.547e-10
 68.44359    107.1 1.167e+04 6.620e-10
 68.45542    107.3 1.154e+04 7.130e-10
 68.46520    106.8 1.162e+04 8.042e-10
 68.48271    107.2 1.167e+04 8.753e-10
 68.50227    107.7 1.186e+04 9.654e-10
 68.52183    108.3 1.203e+04 1.084e-09
 68.54139    108.9 1.227e+04 1.255e-09
 68.56096    109.1 1.262e+04 1.533e-09
 68.58052    108.9 1.322e+04 2.104e-09
 68.60008    108.5 1.410e+04 3.268e-09
 68.61964    107.8 1.571e+04 5.541e-09
 68.63181    107.4 1.647e+04 7.243e-09
 68.63665    107.2 1.660e+04 7.332e-09
 68.64399    106.4 1.749e+04 9.302e-09
 68.65377    105.1 1.886e+04 1.264e-08
 68.66355    102.9 2.054e+04 1.822e-08
 68.67333    100.5 2.197e+04 2.700e-08
 68.68312     98.3 2.273e+04 3.929e-08
 68.69290     96.6 2.328e+04 5.045e-08
 68.70268     94.8 2.367e+04 5.257e-08
 68.71246     92.5 2.367e+04 5.103e-08
 68.72224     89.8 2.329e+04 4.299e-08
 68.73202     87.6 2.207e+04 3.070e-08
 68.74180     85.8 2.056e+04 2.125e-08
 68.75652     83.6 1.835e+04 1.173e-08
 68.77613     81.4 1.801e+04 8.026e-09
 68.79569     79.4 1.847e+04 8.275e-09
 68.80830     76.2 2.094e+04 1.015e-08
 68.81808     76.7 1.929e+04 8.503e-09
 68.83481     73.5 2.128e+04 1.151e-08
 68.85437     70.9 2.151e+04 1.606e-08
 68.87393     68.5 2.103e+04 1.671e-08
 68.89349     66.2 1.968e+04 1.539e-08
 68.91306     64.2 1.848e+04 1.131e-08
 68.93262     62.8 1.704e+04 7.587e-09
 68.95218     61.6 1.551e+04 4.850e-09
 68.97174     60.4 1.420e+04 2.942e-09
 68.99130     59.9 1.314e+04 1.884e-09
 69.02074     59.1 1.204e+04 7.994e-10
 69.05996     59.6 1.082e+04 4.532e-10
 69.09908     60.8 1.072e+04 4.525e-10
 69.13820     62.1 1.072e+04 5.354e-10
 69.16138     63.7 1.100e+04 7.680e-10
 69.18094     65.8 1.050e+04 5.055e-10
 69.21645     67.3 1.090e+04 7.723e-10
 69.25557     69.1 1.123e+04 1.007e-09
 69.29469     70.6 1.127e+04 1.033e-09
 69.33381     72.2 1.109e+04 9.185e-10
 69.37294     73.7 1.061e+04 6.384e-10
 69.41206     74.9 1.005e+04 4.034e-10
 69.45118     75.9 9.571e+03 2.681e-10
 69.49030     77.0 9.395e+03 2.175e-10
 69.52943     78.2 9.411e+03 2.190e-10
 69.56855     79.2 9.464e+03 2.348e-10
 69.60767     80.1 9.659e+03 3.028e-10
 69.64679     80.9 9.967e+03 4.376e-10
 69.68591     81.2 1.031e+04 6.015e-10
 69.72504     81.1 1.068e+04 7.494e-10
 69.76416     80.4 1.108e+04 8.742e-10
 69.80328     79.4 1.140e+04 9.847e-10
 69.84240     78.0 1.186e+04 1.186e-09
 69.86715     76.6 1.240e+04 1.617e-09
 69.88671     78.7 1.154e+04 1.040e-09
 69.92065     78.1 1.199e+04 1.334e-09
 69.95977     77.7 1.204e+04 1.344e-09
 69.99889     77.3 1.194e+04 1.241e-09
 70.03801     76.6 1.194e+04 1.200e-09
 70.06726     75.6 1.217e+04 1.297e-09
 70.08672     74.8 1.256e+04 1.488e-09
 70.10628     74.2 1.300e+04 1.709e-09
 70.12584     73.8 1.340e+04 1.836e-09
 70.14541     73.2 1.356e+04 1.826e-09
 70.16497     72.5 1.352e+04 1.732e-09
 70.18453     71.5 1.320e+04 1.523e-09
 70.20409     70.5 1.251e+04 1.271e-09
 70.21983     69.7 1.188e+04 1.097e-09
 70.22961     70.3 1.162e+04 1.048e-09
 70.24321     70.4 1.150e+04 9.796e-10
 70.27265     70.8 1.167e+04 1.043e-09
 70.31187     71.7 1.088e+04 7.162e-10
 70.35099     72.9 1.034e+04 4.626e-10
 70.39011     74.1 1.005e+04 3.082e-10
 70.42924     75.3 9.892e+03 2.372e-10
 70.46836     76.7 9.844e+03 2.319e-10
 70.50748     78.1 9.903e+03 2.459e-10
 70.54660     79.1 1.008e+04 2.949e-10
 70.57291     79.5 1.067e+04 4.469e-10
 70.59247     79.4 1.060e+04 4.660e-10
 70.62485     79.5 1.131e+04 7.501e-10
 70.66397     79.2 1.212e+04 1.195e-09
 70.69321     78.3 1.244e+04 1.383e-09
 70.71268     77.7 1.260e+04 1.491e-09
 70.73224     77.1 1.279e+04 1.635e-09
 70.75180     76.7 1.290e+04 1.737e-09
 70.77136     76.2 1.302e+04 1.801e-09
 70.79092     76.0 1.308e+04 1.812e-09
 70.81048     75.7 1.310e+04 1.789e-09
 70.83004     75.5 1.303e+04 1.741e-09
 70.84961     75.3 1.285e+04 1.601e-09
 70.86917     75.0 1.258e+04 1.444e-09
 70.88873     74.6 1.233e+04 1.292e-09
 70.90829     74.3 1.216e+04 1.194e-09
 70.92560     73.9 1.205e+04 1.133e-09
 70.93538     74.2 1.232e+04 1.386e-09
 70.94741     74.0 1.223e+04 1.340e-09
 70.97685     73.8 1.246e+04 1.483e-09
 71.01607     73.5 1.247e+04 1.476e-09
 71.05519     73.2 1.225e+04 1.264e-09
 71.09431     73.3 1.173e+04 8.250e-10
 71.13344     73.3 1.125e+04 4.832e-10
 71.17256     73.0 1.101e+04 3.001e-10
 71.21168     73.0 1.098e+04 2.567e-10
 71.25080     73.5 1.098e+04 2.578e-10
 71.27868     74.1 1.105e+04 2.718e-10
 71.29824     75.0 1.113e+04 3.295e-10
 71.32905     75.5 1.141e+04 3.773e-10
 71.36817     76.1 1.169e+04 4.948e-10
 71.40729     76.9 1.189e+04 6.432e-10
 71.44641     77.6 1.205e+04 7.041e-10
 71.48554     77.9 1.209e+04 6.946e-10
 71.52466     77.8 1.220e+04 6.693e-10
 71.56378     77.2 1.240e+04 7.165e-10
 71.60290     76.2 1.268e+04 8.575e-10
 71.64203     75.2 1.265e+04 9.311e-10
 71.68115     74.2 1.251e+04 8.825e-10
 71.72027     73.3 1.219e+04 6.832e-10
 71.75939     72.1 1.187e+04 4.869e-10
 71.79851     70.9 1.157e+04 3.873e-10
 71.83764     70.4 1.132e+04 3.569e-10
 71.87676     70.5 1.116e+04 3.413e-10
 71.91588     70.9 1.104e+04 3.006e-10
 71.95500     71.5 1.098e+04 2.456e-10
 71.98444     72.1 1.104e+04 2.055e-10
 72.00400     73.2 1.088e+04 1.863e-10
 72.03325     74.0 1.096e+04 1.898e-10
 72.07237     74.8 1.117e+04 2.051e-10
 72.11149     75.7 1.134e+04 2.366e-10
 72.15061     76.9 1.132e+04 2.841e-10
 72.18974     78.2 1.124e+04 3.377e-10
 72.22886     79.2 1.115e+04 3.670e-10
 72.26798     80.1 1.108e+04 3.545e-10
 72.30710     80.8 1.096e+04 3.030e-10
 72.34623     81.1 1.091e+04 2.336e-10
 72.38535     81.1 1.083e+04 1.821e-10
 72.42447     81.3 1.064e+04 1.556e-10
 72.46359     81.8 1.037e+04 1.419e-10
 72.50271     82.7 1.013e+04 1.265e-10
 72.54184     83.9 9.975e+03 1.039e-10
 72.58096     85.0 9.915e+03 7.918e-11
 72.62008     86.0 9.872e+03 6.421e-11
 72.65920     87.0 9.861e+03 6.352e-11
 72.69021     88.2 9.889e+03 6.831e-11
 72.70977     88.8 9.914e+03 7.959e-11
 72.73745     90.2 1.015e+04 1.019e-10
 72.77657     90.5 1.062e+04 1.465e-10
 72.80581     89.8 1.101e+04 1.894e-10
 72.82528     88.1 1.170e+04 3.187e-10
 72.84484     85.7 1.254e+04 7.610e-10
 72.86440     85.5 1.339e+04 1.754e-09
 72.88396     85.9 1.398e+04 2.968e-09
 72.90352     86.1 1.414e+04 3.195e-09
 72.92308     86.0 1.405e+04 2.971e-09
 72.94264     85.5 1.366e+04 2.123e-09
 72.97208     83.7 1.332e+04 1.135e-09
 73.01130     80.7 1.140e+04 5.952e-10
 73.05043     80.2 1.098e+04 5.993e-10
 73.08955     80.2 1.093e+04 6.865e-10
 73.12867     80.4 1.109e+04 9.691e-10
 73.16779     81.3 1.138e+04 1.428e-09
 73.20691     82.3 1.138e+04 1.595e-09
 73.24604     83.5 1.131e+04 1.514e-09
 73.28516     84.8 1.104e+04 1.221e-09
 73.32428     86.2 1.068e+04 8.695e-10
 73.36340     87.7 1.034e+04 5.895e-10
 73.39598     89.1 1.007e+04 4.101e-10
 73.41554     89.1 1.009e+04 4.098e-10
 73.44165     90.7 9.920e+03 3.115e-10
 73.48077     92.4 9.779e+03 2.595e-10
 73.51989     94.0 9.665e+03 2.376e-10
 73.55901     95.8 9.591e+03 2.233e-10
 73.59814     97.6 9.530e+03 2.019e-10
 73.63726     99.4 9.472e+03 1.710e-10
 73.67638    101.2 9.418e+03 1.368e-10
 73.71550    102.8 9.407e+03 1.042e-10
 73.75463    104.4 9.437e+03 7.834e-11
 73.79375    105.7 9.444e+03 6.236e-11
 73.83287    107.1 9.347e+03 5.932e-11
 73.87199    108.7 9.340e+03 5.974e-11
 73.91111    110.3 9.336e+03 6.201e-11
 73.95024    111.8 9.364e+03 6.958e-11
 73.98936    113.2 9.423e+03 8.303e-11
 74.02848    114.6 9.499e+03 1.014e-10
 74.06760    115.9 9.591e+03 1.237e-10
 74.10174    117.1 9.696e+03 1.466e-10
 74.12130    117.6 9.738e+03 1.637e-10
 74.14585    118.7 9.845e+03 1.915e-10
 74.18497    119.6 9.946e+03 2.150e-10
 74.22409    120.4 1.005e+04 2.357e-10
 74.26321    120.9 1.020e+04 2.577e-10
 74.30234    121.1 1.038e+04 2.861e-10
 74.34146    121.1 1.061e+04 3.256e-10
 74.38058    121.0 1.085e+04 3.730e-10
 74.41970    120.9 1.105e+04 4.114e-10
 74.45882    121.0 1.115e+04 4.346e-10
 74.49795    121.1 1.122e+04 4.501e-10
 74.53707    121.2 1.129e+04 4.653e-10
 74.57619    121.5 1.139e+04 4.827e-10
 74.60544    121.7 1.147e+04 4.656e-10
 74.62490    121.8 1.154e+04 4.639e-10
 74.64446    122.0 1.162e+04 4.781e-10
 74.66402    122.1 1.169e+04 4.973e-10
 74.68358    122.3 1.174e+04 5.137e-10
 74.70314    122.4 1.179e+04 5.278e-10
 74.72270    122.6 1.183e+04 5.402e-10
 74.74227    122.8 1.181e+04 5.476e-10
 74.76183    122.9 1.178e+04 5.455e-10
 74.78139    123.0 1.169e+04 5.367e-10
 74.80095    123.1 1.156e+04 5.182e-10
 74.81709    123.2 1.137e+04 4.899e-10
 74.82687    123.4 1.142e+04 5.256e-10
 74.84007    123.5 1.123e+04 4.964e-10
 74.85963    123.6 1.110e+04 4.686e-10
 74.88907    124.1 1.102e+04 4.757e-10
 74.92829    124.7 1.080e+04 4.435e-10
 74.96741    125.5 1.077e+04 4.481e-10
 75.00654    126.1 1.076e+04 4.647e-10
 75.03578    126.4 1.078e+04 4.927e-10
 75.05524    126.7 1.086e+04 5.353e-10
 75.07480    126.9 1.096e+04 5.842e-10
 75.09437    126.9 1.109e+04 6.382e-10
 75.11393    126.8 1.126e+04 7.135e-10
 75.13349    126.6 1.147e+04 8.290e-10
 75.15305    126.4 1.172e+04 9.955e-10
 75.16998    126.1 1.197e+04 1.204e-09
 75.17976    126.5 1.197e+04 1.238e-09
 75.19217    126.2 1.216e+04 1.467e-09
 75.21173    126.1 1.231e+04 1.659e-09
 75.23129    126.0 1.243e+04 1.795e-09
 75.25085    125.9 1.252e+04 1.877e-09
 75.27042    125.7 1.260e+04 1.938e-09
 75.28998    125.5 1.271e+04 2.005e-09
 75.30954    125.2 1.288e+04 2.108e-09
 75.32910    124.9 1.311e+04 2.269e-09
 75.34866    124.7 1.334e+04 2.480e-09
 75.36822    124.5 1.347e+04 2.667e-09
 75.38778    124.2 1.345e+04 2.684e-09
 75.40734    124.1 1.334e+04 2.631e-09
 75.42690    124.1 1.304e+04 2.426e-09
 75.44647    124.3 1.260e+04 2.033e-09
 75.46603    124.5 1.206e+04 1.578e-09
 75.48559    124.7 1.153e+04 1.161e-09
 75.50515    124.6 1.103e+04 8.368e-10
 75.52286    124.5 1.058e+04 6.218e-10
 75.53264    124.8 1.069e+04 6.865e-10
 75.54427    124.7 1.033e+04 5.423e-10
 75.56383    124.7 9.964e+03 4.724e-10
 75.58339    124.8 9.664e+03 4.575e-10
 75.60295    125.4 9.660e+03 4.576e-10
 75.62252    126.0 9.684e+03 4.674e-10
 75.64208    126.6 9.757e+03 4.948e-10
 75.66164    127.3 9.871e+03 5.350e-10
 75.68120    127.9 1.000e+04 5.832e-10
 75.70076    128.7 1.013e+04 6.355e-10
 75.72032    129.4 1.023e+04 6.851e-10
 75.73988    130.1 1.030e+04 7.283e-10
 75.75944    130.9 1.039e+04 7.766e-10
 75.77900    131.5 1.058e+04 8.548e-10
 75.79857    131.6 1.088e+04 9.855e-10
 75.81813    131.5 1.137e+04 1.219e-09
 75.83769    131.0 1.216e+04 1.662e-09
 75.85725    130.2 1.327e+04 2.473e-09
 75.87574    129.6 1.459e+04 3.818e-09
 75.88552    129.7 1.456e+04 3.797e-09
 75.89637    129.1 1.551e+04 4.777e-09
 75.91593    128.2 1.596e+04 4.901e-09
 75.93549    126.8 1.593e+04 4.561e-09
 75.95505    125.2 1.556e+04 3.538e-09
 75.97462    123.3 1.465e+04 2.376e-09
 75.99418    121.2 1.337e+04 1.510e-09
 76.01374    119.5 1.222e+04 1.077e-09
 76.03330    118.6 1.167e+04 9.707e-10
 76.06274    117.9 1.188e+04 1.174e-09
 76.10196    117.9 1.185e+04 1.225e-09
 76.14108    118.5 1.173e+04 1.227e-09
 76.18020    119.4 1.169e+04 1.225e-09
 76.21904    120.5 1.155e+04 1.193e-09
 76.23860    121.2 1.183e+04 1.236e-09
 76.25845    122.4 1.182e+04 1.238e-09
 76.29757    123.9 1.183e+04 1.222e-09
 76.32681    124.8 1.174e+04 1.169e-09
 76.34628    125.4 1.173e+04 1.159e-09
 76.36584    125.9 1.174e+04 1.171e-09
 76.38540    126.4 1.179e+04 1.222e-09
 76.40496    126.9 1.190e+04 1.319e-09
 76.42452    127.5 1.208e+04 1.461e-09
 76.44408    128.1 1.227e+04 1.605e-09
 76.46364    128.6 1.237e+04 1.623e-09
 76.48320    128.8 1.237e+04 1.591e-09
 76.50277    128.9 1.227e+04 1.476e-09
 76.52233    129.0 1.204e+04 1.329e-09
 76.54189    129.1 1.177e+04 1.195e-09
 76.56145    129.2 1.151e+04 1.086e-09
 76.58101    129.5 1.142e+04 1.053e-09
 76.59129    129.7 1.144e+04 1.056e-09
 76.60107    129.5 1.175e+04 1.200e-09
 76.62013    129.5 1.179e+04 1.217e-09
 76.63969    129.3 1.197e+04 1.296e-09
 76.65925    128.8 1.232e+04 1.452e-09
 76.67882    127.9 1.273e+04 1.671e-09
 76.69838    126.9 1.314e+04 1.978e-09
 76.71794    125.9 1.342e+04 2.290e-09
 76.73750    125.1 1.347e+04 2.436e-09
 76.75706    124.4 1.342e+04 2.419e-09
 76.77662    123.8 1.332e+04 2.360e-09
 76.79618    123.1 1.326e+04 2.312e-09
 76.81574    122.6 1.327e+04 2.310e-09
 76.83530    122.0 1.335e+04 2.396e-09
 76.85487    121.6 1.355e+04 2.624e-09
 76.87443    121.2 1.381e+04 2.986e-09
 76.89399    121.0 1.402e+04 3.382e-09
 76.91355    120.8 1.405e+04 3.481e-09
 76.93311    120.7 1.402e+04 3.440e-09
 76.94417    120.7 1.385e+04 3.217e-09
 76.95395    120.4 1.326e+04 2.781e-09
 76.97223    120.6 1.295e+04 2.452e-09
 76.99179    120.7 1.267e+04 2.073e-09
 77.01135    120.6 1.253e+04 1.739e-09
 77.03092    120.4 1.254e+04 1.484e-09
 77.05048    119.7 1.258e+04 1.301e-09
 77.07004    118.8 1.248e+04 1.160e-09
 77.08960    118.1 1.225e+04 1.031e-09
 77.10916    117.6 1.189e+04 9.187e-10
 77.12872    117.4 1.152e+04 8.463e-10
 77.14828    117.4 1.149e+04 8.716e-10
 77.16784    117.6 1.157e+04 9.530e-10
 77.18740    117.8 1.183e+04 1.117e-09
 77.20697    118.3 1.216e+04 1.373e-09
 77.22653    118.8 1.249e+04 1.720e-09
 77.24609    119.6 1.281e+04 2.151e-09
 77.26565    120.3 1.309e+04 2.652e-09
 77.28521    121.1 1.334e+04 3.160e-09
 77.29705    121.8 1.364e+04 3.648e-09
 77.30683    122.8 1.371e+04 3.469e-09
 77.32433    123.6 1.406e+04 4.152e-09
 77.34389    124.3 1.448e+04 4.876e-09
 77.36345    124.8 1.488e+04 5.674e-09
 77.38301    125.1 1.525e+04 6.513e-09
 77.40258    125.6 1.546e+04 7.211e-09
 77.41720    125.7 1.558e+04 7.717e-09
 77.42693    125.7 1.567e+04 8.193e-09
 77.43671    125.5 1.615e+04 9.231e-09
 77.44649    123.8 1.815e+04 1.190e-08
 77.45627    119.8 2.096e+04 1.797e-08
 77.46605    115.3 2.206e+04 3.184e-08
 77.47340    114.4 2.195e+04 6.755e-08
 77.47829    115.3 2.225e+04 6.537e-08
 77.48561    115.7 2.162e+04 2.126e-07
 77.49539    116.2 2.074e+04 5.777e-07
 77.50270    115.7 2.065e+04 9.189e-07
 77.50757    114.6 2.062e+04 1.146e-06
 77.51246    112.6 2.059e+04 1.124e-06
 77.51735    111.4 2.049e+04 1.057e-06
 77.52471    111.3 2.036e+04 1.003e-06
 77.53452    112.1 2.083e+04 4.371e-07
 77.54430    112.3 2.282e+04 1.051e-07
 77.55408    108.8 3.035e+04 1.433e-08
 77.56386    101.9 2.822e+04 7.216e-09
 77.57858     93.2 2.183e+04 3.776e-09
 77.59819     84.2 1.405e+04 2.589e-09
 77.61775     82.2 1.331e+04 2.624e-09
 77.63731     82.0 1.322e+04 2.787e-09
 77.64994     82.1 1.333e+04 3.002e-09
 77.65972     80.3 1.366e+04 3.367e-09
 77.67643     80.6 1.352e+04 3.012e-09
 77.69599     80.9 1.328e+04 2.554e-09
 77.71555     81.3 1.293e+04 2.017e-09
 77.73511     81.2 1.254e+04 1.563e-09
 77.75468     80.9 1.223e+04 1.257e-09
 77.77424     80.7 1.214e+04 1.195e-09
 77.79380     80.8 1.212e+04 1.209e-09
 77.81336     81.0 1.210e+04 1.272e-09
 77.83292     81.6 1.213e+04 1.376e-09
 77.85248     82.3 1.219e+04 1.481e-09
 77.87204     83.2 1.232e+04 1.536e-09
 77.89160     84.0 1.245e+04 1.510e-09
 77.91116     84.5 1.261e+04 1.401e-09
 77.93073     84.5 1.261e+04 1.231e-09
 77.95029     84.2 1.237e+04 1.056e-09
 77.96985     83.3 1.188e+04 9.462e-10
 77.98941     82.2 1.136e+04 9.411e-10
 78.00282     81.3 1.122e+04 9.839e-10
 78.01260     80.8 1.073e+04 8.357e-10
 78.02853     80.5 1.093e+04 9.150e-10
 78.04809     80.2 1.118e+04 9.769e-10
 78.06765     79.7 1.139e+04 1.010e-09
 78.08721     78.9 1.156e+04 1.038e-09
 78.10678     77.5 1.182e+04 1.118e-09
 78.12634     75.5 1.233e+04 1.346e-09
 78.14590     73.3 1.295e+04 1.812e-09
 78.16546     72.0 1.354e+04 2.573e-09
 78.18502     72.0 1.406e+04 3.455e-09
 78.20458     72.2 1.431e+04 3.783e-09
 78.22414     72.5 1.425e+04 3.681e-09
 78.24370     73.0 1.405e+04 3.170e-09
 78.26326     73.4 1.369e+04 2.429e-09
 78.28283     73.3 1.329e+04 1.713e-09
 78.30239     72.9 1.289e+04 1.211e-09
 78.32195     72.3 1.250e+04 9.207e-10
 78.34151     72.2 1.218e+04 7.735e-10
 78.35570     72.3 1.191e+04 7.223e-10
 78.36548     71.5 1.174e+04 7.318e-10
 78.38063     71.9 1.166e+04 7.289e-10
 78.40019     72.5 1.164e+04 7.387e-10
 78.41975     73.1 1.167e+04 7.751e-10
 78.43931     73.5 1.175e+04 8.386e-10
 78.45888     73.8 1.184e+04 9.288e-10
 78.47844     74.2 1.200e+04 1.046e-09
 78.49800     74.2 1.221e+04 1.167e-09
 78.51756     74.1 1.249e+04 1.291e-09
 78.53712     73.6 1.317e+04 1.525e-09
 78.55668     71.5 1.496e+04 1.946e-09
 78.57624     64.9 1.847e+04 3.252e-09
 78.59580     58.8 1.908e+04 5.965e-09
 78.61536     55.6 1.744e+04 8.511e-09
 78.63493     55.2 1.676e+04 8.162e-09
 78.65449     55.1 1.574e+04 6.338e-09
 78.67405     54.5 1.483e+04 3.922e-09
 78.69361     52.2 1.371e+04 2.044e-09
 78.70858     48.6 1.206e+04 1.053e-09
 78.71837     49.0 1.237e+04 1.239e-09
 78.73273     46.3 1.103e+04 7.687e-10
 78.75229     45.1 1.019e+04 5.768e-10
 78.77185     44.9 9.875e+03 5.013e-10
 78.79141     45.0 9.749e+03 4.600e-10
 78.81098     45.1 9.674e+03 4.368e-10
 78.83054     45.2 9.657e+03 4.352e-10
 78.85010     45.3 9.681e+03 4.408e-10
 78.86966     45.2 9.768e+03 4.649e-10
 78.88922     45.1 9.891e+03 5.113e-10
 78.90878     45.0 1.007e+04 5.857e-10
 78.92834     44.6 1.042e+04 7.127e-10
 78.94790     43.6 1.100e+04 9.463e-10
 78.96746     42.0 1.198e+04 1.436e-09
 78.98703     39.5 1.365e+04 2.474e-09
 79.00659     36.9 1.560e+04 4.466e-09
 79.02615     35.0 1.671e+04 7.007e-09
 79.04571     33.5 1.698e+04 8.030e-09
 79.06147     32.1 1.705e+04 8.547e-09
 79.07125     31.7 1.705e+04 8.556e-09
 79.08483     29.9 1.695e+04 8.148e-09
 79.10439     27.7 1.708e+04 6.802e-09
 79.12395     20.9 2.057e+04 6.832e-09
 79.13858     11.2 2.667e+04 1.097e-08
 79.14831      5.5 2.645e+04 1.582e-08
 79.15809     -0.7 2.405e+04 2.936e-08
 79.16787     -3.4 2.177e+04 4.231e-08
 79.17765     -4.3 2.105e+04 4.840e-08
 79.18743     -4.3 2.080e+04 4.295e-08
 79.19721     -4.0 2.064e+04 2.795e-08
 79.20699     -4.3 2.065e+04 1.632e-08
 79.22171     -8.9 1.986e+04 5.781e-09
 79.24132    -22.4 1.467e+04 9.655e-10
 79.26088    -28.1 1.093e+04 5.116e-10
 79.28044    -28.4 1.059e+04 4.920e-10
 79.30000    -27.5 1.058e+04 5.337e-10
 79.31956    -26.5 1.062e+04 5.602e-10
 79.33913    -25.5 1.063e+04 5.728e-10
 79.35869    -24.6 1.060e+04 5.728e-10
 79.37825    -23.6 1.057e+04 5.685e-10
 79.39781    -22.7 1.055e+04 5.683e-10
 79.41435    -21.9 1.058e+04 5.815e-10
 79.42413    -21.6 1.084e+04 7.088e-10
 79.43693    -20.9 1.098e+04 7.734e-10
 79.45649    -20.0 1.120e+04 8.583e-10
 79.47605    -19.5 1.124e+04 9.036e-10
 79.49561    -18.3 1.146e+04 1.016e-09
 79.51518    -17.8 1.146e+04 1.028e-09
 79.54461    -16.1 1.155e+04 9.939e-10
 79.58383    -14.1 1.163e+04 9.567e-10
 79.62296    -12.2 1.154e+04 8.753e-10
 79.66208    -10.2 1.163e+04 8.802e-10
 79.70120     -8.5 1.198e+04 1.019e-09
 79.74032     -6.5 1.242e+04 1.239e-09
 79.76743     -4.7 1.280e+04 1.400e-09
 79.78699     -4.8 1.253e+04 1.334e-09
 79.81857     -3.4 1.262e+04 1.381e-09
 79.85769     -2.5 1.275e+04 1.416e-09
 79.88693     -1.8 1.279e+04 1.539e-09
 79.90640     -1.8 1.298e+04 1.622e-09
 79.92596     -1.5 1.319e+04 1.753e-09
 79.94552     -1.7 1.365e+04 2.016e-09
 79.96508     -2.2 1.408e+04 2.392e-09
 79.98464     -2.4 1.434e+04 2.865e-09
 80.00420     -2.3 1.439e+04 3.145e-09
 80.02376     -1.9 1.423e+04 3.151e-09
 80.04333     -1.1 1.383e+04 2.932e-09
 80.06289     -0.4 1.326e+04 2.365e-09
 80.08245     -0.1 1.272e+04 1.779e-09
 80.10201     -0.2 1.231e+04 1.308e-09
 80.12012     -0.6 1.184e+04 9.669e-10
 80.12990     -0.4 1.201e+04 1.008e-09
 80.14113     -1.1 1.154e+04 8.274e-10
 80.16069     -1.5 1.131e+04 7.711e-10
 80.18025     -1.6 1.122e+04 7.826e-10
 80.19981     -1.8 1.132e+04 8.643e-10
 80.21938     -1.9 1.142e+04 9.682e-10
 80.23894     -1.9 1.159e+04 1.109e-09
 80.25850     -1.8 1.182e+04 1.226e-09
 80.27806     -1.8 1.206e+04 1.262e-09
 80.29762     -2.4 1.233e+04 1.196e-09
 80.31718     -3.6 1.222e+04 1.053e-09
 80.33674     -5.6 1.133e+04 7.957e-10
 80.36618     -6.9 1.055e+04 6.456e-10
 80.40540     -7.5 9.797e+03 4.393e-10
 80.44452     -7.9 9.222e+03 3.053e-10
 80.47319     -8.3 8.605e+03 2.267e-10
 80.49276     -7.7 8.531e+03 2.103e-10
 80.52277     -7.6 8.258e+03 1.847e-10
 80.56189     -7.4 8.142e+03 1.765e-10
 80.60101     -7.2 8.118e+03 1.781e-10
 80.64013     -7.2 8.156e+03 1.964e-10
 80.67926     -7.3 8.218e+03 2.174e-10
 80.71838     -7.3 8.324e+03 2.436e-10
 80.75750     -9.8 9.848e+03 3.241e-10
 80.78675    -24.5 1.293e+04 8.139e-10
 80.80621    -29.7 1.550e+04 3.570e-09
 80.82577    -31.2 1.753e+04 1.021e-08
 80.83566    -32.5 1.932e+04 1.735e-08
 80.84544    -32.2 1.890e+04 1.494e-08
 80.86489    -35.3 2.019e+04 1.777e-08
 80.88445    -42.8 2.074e+04 1.142e-08
 80.90401    -54.3 1.605e+04 3.416e-09
 80.92358    -60.9 1.308e+04 2.055e-09
 80.94314    -62.7 1.254e+04 1.768e-09
 80.96270    -64.4 1.224e+04 1.555e-09
 80.98226    -65.9 1.186e+04 1.349e-09
 81.00182    -67.0 1.158e+04 1.186e-09
 81.02138    -68.0 1.128e+04 1.009e-09
 81.04094    -68.9 1.096e+04 8.258e-10
 81.06050    -69.7 1.068e+04 6.587e-10
 81.08006    -70.6 1.041e+04 5.243e-10
 81.09963    -71.5 1.014e+04 4.286e-10
 81.11919    -72.0 9.879e+03 3.714e-10
 81.14863    -72.2 9.767e+03 3.400e-10
 81.17896    -72.6 9.487e+03 2.876e-10
 81.19852    -72.6 9.331e+03 2.735e-10
 81.22697    -72.8 9.269e+03 2.596e-10
 81.26609    -72.9 9.281e+03 2.596e-10
 81.30521    -72.8 9.349e+03 2.779e-10
 81.34433    -72.6 9.398e+03 3.112e-10
 81.38346    -72.2 9.458e+03 3.436e-10
 81.42258    -71.7 9.506e+03 3.609e-10
 81.46170    -71.3 9.514e+03 3.643e-10
 81.50082    -70.7 9.349e+03 3.427e-10
 81.53995    -69.8 9.025e+03 2.707e-10
 81.57907    -68.8 8.632e+03 1.900e-10
 81.61819    -67.6 8.264e+03 1.239e-10
 81.65731    -66.4 7.996e+03 8.141e-11
 81.69643    -65.2 7.857e+03 6.115e-11
 81.73556    -63.8 7.809e+03 5.521e-11
 81.77468    -62.2 7.796e+03 5.409e-11
 81.81380    -60.5 7.817e+03 5.410e-11
 81.85292    -59.1 8.020e+03 5.990e-11
 81.88473    -58.0 8.150e+03 8.191e-11
 81.90429    -59.3 8.232e+03 9.500e-11
 81.93117    -58.3 8.692e+03 1.649e-10
 81.97029    -57.5 9.434e+03 3.036e-10
 82.00941    -56.7 1.030e+04 5.197e-10
 82.04853    -56.5 1.105e+04 7.710e-10
 82.08766    -56.5 1.151e+04 9.227e-10
 82.11690    -57.3 1.204e+04 1.052e-09
 82.13636    -57.6 1.204e+04 1.004e-09
 82.16580    -57.9 1.154e+04 8.130e-10
 82.20502    -58.5 1.125e+04 6.733e-10
 82.24415    -58.1 1.128e+04 6.383e-10
 82.27339    -57.1 1.111e+04 5.811e-10
 82.29285    -56.9 1.112e+04 5.725e-10
 82.31241    -57.0 1.123e+04 5.652e-10
 82.33197    -59.2 1.273e+04 1.161e-09
 82.35154    -61.0 1.451e+04 2.441e-09
 82.37110    -61.6 1.594e+04 4.959e-09
 82.39066    -61.4 1.703e+04 8.597e-09
 82.41022    -60.8 1.799e+04 1.218e-08
 82.42978    -60.4 1.841e+04 1.397e-08
 82.44934    -60.1 1.855e+04 1.276e-08
 82.46890    -59.9 1.834e+04 8.552e-09
 82.48846    -60.5 1.782e+04 4.287e-09
 82.50802    -62.3 1.670e+04 1.767e-09
 82.52759    -64.9 1.407e+04 8.692e-10
 82.54715    -66.8 1.173e+04 6.947e-10
 82.56671    -66.5 1.148e+04 6.290e-10
 82.58627    -65.7 1.132e+04 6.040e-10
 82.60008    -64.9 1.129e+04 6.030e-10
 82.60986    -65.1 1.145e+04 6.830e-10
 82.62539    -64.4 1.147e+04 6.973e-10
 82.64495    -63.9 1.152e+04 7.258e-10
 82.67439    -63.6 1.162e+04 7.971e-10
 82.71361    -62.8 1.178e+04 9.466e-10
 82.75273    -62.5 1.203e+04 1.153e-09
 82.79186    -62.5 1.214e+04 1.244e-09
 82.83098    -62.8 1.213e+04 1.247e-09
 82.87010    -63.1 1.187e+04 1.059e-09
 82.90922    -63.4 1.147e+04 8.512e-10
 82.94835    -63.6 1.121e+04 7.446e-10
 82.98747    -63.5 1.110e+04 7.107e-10
 83.02659    -63.1 1.107e+04 6.926e-10
 83.06571    -62.6 1.103e+04 6.564e-10
 83.10483    -61.9 1.094e+04 6.072e-10
 83.14396    -61.1 1.088e+04 5.713e-10
 83.18308    -60.3 1.089e+04 5.645e-10
 83.22220    -59.5 1.105e+04 6.075e-10
 83.26132    -58.9 1.138e+04 7.838e-10
 83.29626    -58.2 1.166e+04 1.010e-09
 83.31582    -60.6 1.192e+04 1.143e-09
 83.33957    -59.9 1.190e+04 1.159e-09
 83.37869    -59.1 1.163e+04 1.027e-09
 83.41781    -58.2 1.120e+04 7.675e-10
 83.45693    -57.7 1.076e+04 5.545e-10
 83.49606    -57.2 1.042e+04 4.335e-10
 83.53518    -56.7 1.017e+04 3.705e-10
 83.57430    -56.2 1.001e+04 3.222e-10
 83.61342    -56.1 9.851e+03 2.697e-10
 83.65254    -56.2 9.636e+03 2.228e-10
 83.69167    -56.7 9.498e+03 2.032e-10
 83.73079    -56.9 9.504e+03 2.067e-10
 83.76991    -57.0 9.567e+03 2.286e-10
 83.80903    -57.1 9.722e+03 2.595e-10
 83.84816    -57.1 9.934e+03 3.120e-10
 83.88728    -56.9 1.014e+04 3.836e-10
 83.92640    -56.8 1.032e+04 4.524e-10
 83.96552    -56.8 1.043e+04 4.921e-10
 84.00202    -57.1 1.058e+04 5.136e-10
 84.02158    -59.8 1.043e+04 3.700e-10
 84.04377    -64.3 1.188e+04 6.360e-10
 84.07301    -68.0 1.297e+04 1.240e-09
 84.09247    -70.4 1.385e+04 1.982e-09
 84.11204    -72.6 1.483e+04 3.297e-09
 84.13160    -75.2 1.552e+04 4.182e-09
 84.15116    -78.5 1.564e+04 4.362e-09
 84.17072    -82.1 1.505e+04 3.826e-09
 84.19028    -85.7 1.382e+04 2.593e-09
 84.20984    -88.8 1.255e+04 1.656e-09
 84.22940    -90.9 1.156e+04 1.062e-09
 84.24896    -92.5 1.078e+04 6.818e-10
 84.26852    -94.0 1.009e+04 4.446e-10
 84.28809    -95.3 9.609e+03 3.251e-10
 84.31752    -96.4 9.319e+03 2.592e-10
 84.35674    -98.2 8.880e+03 1.739e-10
 84.39587   -100.1 8.704e+03 1.410e-10
 84.43499   -102.3 8.692e+03 1.371e-10
 84.47411   -106.4 8.901e+03 1.540e-10
 84.51323   -113.3 1.156e+04 4.681e-10
 84.54248   -119.7 1.321e+04 1.309e-09
 84.56194   -123.0 1.322e+04 2.169e-09
 84.58150   -127.8 1.423e+04 3.192e-09
 84.60106   -137.0 2.116e+04 4.264e-09
 84.62062   -151.6 2.960e+04 7.333e-09
 84.64019   -167.0 2.984e+04 1.405e-08
 84.65975   -181.0 2.751e+04 1.892e-08
 84.67931   -191.2 2.346e+04 1.888e-08
 84.69887   -200.3 2.015e+04 9.644e-09
 84.71737   -209.2 1.607e+04 3.450e-09
 84.72716   -208.1 1.609e+04 3.702e-09
 84.73799   -214.4 1.300e+04 1.699e-09
 84.75755   -216.4 1.213e+04 1.386e-09
 84.77711   -216.6 1.209e+04 1.382e-09
 84.79667   -216.7 1.214e+04 1.445e-09
 84.81624   -216.6 1.214e+04 1.462e-09
 84.83580   -216.3 1.206e+04 1.440e-09
 84.85536   -215.8 1.190e+04 1.318e-09
 84.87492   -215.3 1.171e+04 1.142e-09
 84.89448   -214.9 1.147e+04 9.526e-10
 84.91404   -214.5 1.118e+04 7.977e-10
 84.93360   -214.0 1.097e+04 6.810e-10
 84.95316   -213.6 1.080e+04 6.029e-10
 84.97272   -213.1 1.071e+04 5.611e-10
 84.99229   -212.5 1.068e+04 5.480e-10
 85.01185   -211.8 1.067e+04 5.461e-10
 85.03141   -211.1 1.069e+04 5.515e-10
 85.05097   -210.4 1.078e+04 5.753e-10
 85.07026   -209.7 1.088e+04 6.031e-10
 85.08004   -209.2 1.106e+04 6.928e-10
 85.09009   -208.5 1.115e+04 7.183e-10
 85.10965   -207.9 1.123e+04 7.372e-10
 85.12921   -207.2 1.129e+04 7.446e-10
 85.14877   -206.5 1.130e+04 7.460e-10
 85.16834   -205.9 1.132e+04 7.360e-10
 85.18790   -205.2 1.133e+04 6.927e-10
 85.20746   -204.4 1.131e+04 6.399e-10
 85.22702   -203.7 1.129e+04 5.928e-10
 85.24658   -202.9 1.128e+04 5.577e-10
 85.26614   -202.1 1.127e+04 5.355e-10
 85.28570   -201.2 1.127e+04 5.222e-10
 85.30526   -200.4 1.126e+04 5.151e-10
 85.32482   -199.5 1.126e+04 5.114e-10
 85.34439   -198.7 1.125e+04 5.098e-10
 85.36395   -197.9 1.125e+04 5.100e-10
 85.38351   -197.1 1.124e+04 5.132e-10
 85.40307   -196.3 1.124e+04 5.279e-10
 85.42263   -195.5 1.126e+04 5.607e-10
 85.43292   -194.8 1.132e+04 6.151e-10
 85.44270   -194.4 1.151e+04 7.170e-10
 85.46175   -193.6 1.159e+04 7.850e-10
 85.48131   -192.7 1.174e+04 8.781e-10
 85.50087   -191.9 1.193e+04 9.902e-10
 85.52044   -191.1 1.213e+04 1.107e-09
 85.54000   -190.5 1.233e+04 1.203e-09
 85.55956   -190.0 1.245e+04 1.249e-09
 85.57912   -189.7 1.248e+04 1.258e-09
 85.59868   -189.4 1.249e+04 1.248e-09
 85.61824   -189.2 1.243e+04 1.173e-09
 85.63780   -188.9 1.228e+04 1.059e-09
 85.65736   -188.7 1.210e+04 9.365e-10
 85.67692   -188.4 1.191e+04 8.243e-10
 85.69649   -188.1 1.173e+04 7.274e-10
 85.71605   -187.8 1.156e+04 6.465e-10
 85.73561   -187.5 1.141e+04 5.817e-10
 85.75517   -187.0 1.130e+04 5.315e-10
 85.77473   -186.6 1.122e+04 4.930e-10
 85.78580   -186.2 1.117e+04 4.649e-10
 85.79558   -186.0 1.118e+04 4.684e-10
 85.81385   -185.5 1.116e+04 4.525e-10
 85.83341   -185.1 1.117e+04 4.431e-10
 85.85297   -184.7 1.118e+04 4.342e-10
 85.88241   -184.3 1.120e+04 4.284e-10
 85.92163   -183.2 1.121e+04 4.155e-10
 85.96076   -182.0 1.111e+04 3.723e-10
 85.99988   -180.7 1.095e+04 3.274e-10
 86.03900   -179.1 1.079e+04 2.859e-10
 86.07812   -177.3 1.066e+04 2.551e-10
 86.11724   -175.6 1.058e+04 2.348e-10
 86.13888   -173.7 1.052e+04 2.210e-10
 86.15844   -173.3 1.049e+04 2.053e-10
 86.19549   -171.4 1.046e+04 1.931e-10
 86.23461   -169.5 1.046e+04 1.869e-10
 86.27373   -167.6 1.047e+04 1.858e-10
 86.31286   -165.8 1.052e+04 1.874e-10
 86.35198   -164.2 1.067e+04 2.011e-10
 86.39110   -162.6 1.080e+04 2.295e-10
 86.43022   -161.2 1.091e+04 2.656e-10
 86.46934   -159.9 1.100e+04 3.047e-10
 86.50847   -158.7 1.110e+04 3.450e-10
 86.54759   -157.7 1.121e+04 3.919e-10
 86.58671   -156.7 1.132e+04 4.448e-10
 86.62583   -155.9 1.147e+04 5.044e-10
 86.66496   -155.3 1.168e+04 5.790e-10
 86.70408   -154.9 1.191e+04 6.588e-10
 86.74320   -154.5 1.211e+04 7.219e-10
 86.78232   -154.3 1.222e+04 7.542e-10
 86.82144   -154.0 1.228e+04 7.617e-10
 86.84465   -153.7 1.230e+04 7.582e-10
 86.86421   -152.0 1.233e+04 7.733e-10
 86.89969   -151.7 1.240e+04 8.038e-10
 86.93881   -151.5 1.243e+04 8.068e-10
 86.97793   -151.4 1.241e+04 7.915e-10
 87.01706   -151.4 1.234e+04 7.628e-10
 87.05618   -151.4 1.221e+04 7.219e-10
 87.09530   -151.3 1.206e+04 6.675e-10
 87.13442   -151.0 1.190e+04 5.946e-10
 87.17354   -150.2 1.177e+04 5.045e-10
 87.21267   -149.5 1.164e+04 4.165e-10
 87.25179   -149.0 1.152e+04 3.511e-10
 87.29091   -148.1 1.139e+04 3.008e-10
 87.33003   -147.0 1.130e+04 2.717e-10
 87.36916   -145.7 1.123e+04 2.541e-10
 87.40828   -144.3 1.118e+04 2.403e-10
 87.44740   -142.8 1.114e+04 2.263e-10
 87.48652   -141.2 1.113e+04 2.127e-10
 87.52564   -139.5 1.113e+04 2.029e-10
 87.55041   -137.9 1.115e+04 1.978e-10
 87.56997   -137.7 1.124e+04 2.029e-10
 87.60389   -136.1 1.119e+04 1.913e-10
 87.64301   -134.5 1.120e+04 1.827e-10
 87.68213   -132.9 1.120e+04 1.772e-10
 87.72126   -131.4 1.119e+04 1.711e-10
 87.76038   -130.0 1.118e+04 1.619e-10
 87.79950   -128.6 1.116e+04 1.502e-10
 87.83862   -127.4 1.113e+04 1.387e-10
 87.87774   -126.2 1.109e+04 1.290e-10
 87.91687   -125.0 1.109e+04 1.251e-10
 87.95599   -123.8 1.109e+04 1.249e-10
 87.99511   -122.6 1.111e+04 1.340e-10
 88.03423   -121.5 1.115e+04 1.563e-10
 88.07336   -120.4 1.120e+04 1.833e-10
 88.11248   -119.4 1.125e+04 2.101e-10
 88.15160   -118.4 1.129e+04 2.364e-10
 88.19072   -117.4 1.134e+04 2.655e-10
 88.22984   -116.4 1.140e+04 3.060e-10
 88.25618   -115.5 1.146e+04 3.560e-10
 88.27574   -115.0 1.144e+04 3.583e-10
 88.30809   -114.2 1.151e+04 4.090e-10
 88.34721   -113.4 1.156e+04 4.495e-10
 88.38633   -112.5 1.161e+04 4.809e-10
 88.42545   -111.7 1.167e+04 5.052e-10
 88.46458   -111.0 1.169e+04 5.137e-10
 88.50370   -110.2 1.169e+04 4.999e-10
 88.54282   -109.3 1.161e+04 4.520e-10
 88.58194   -108.2 1.158e+04 4.096e-10
 88.62107   -107.3 1.161e+04 4.011e-10
 88.66019   -107.1 1.182e+04 4.399e-10
 88.69931   -107.5 1.279e+04 8.983e-10
 88.73843   -107.7 1.378e+04 1.925e-09
 88.76768   -108.3 1.419e+04 2.705e-09
 88.78714   -108.7 1.435e+04 3.069e-09
 88.80670   -109.5 1.433e+04 3.117e-09
 88.82626   -109.7 1.421e+04 3.010e-09
 88.84582   -110.1 1.374e+04 2.459e-09
 88.86538   -110.1 1.353e+04 2.220e-09
 88.89482   -110.5 1.312e+04 1.760e-09
 88.93404   -110.0 1.274e+04 1.410e-09
 88.96195   -109.4 1.241e+04 1.165e-09
 88.98151   -108.4 1.228e+04 9.949e-10
 89.01229   -107.8 1.221e+04 9.478e-10
 89.05141   -107.1 1.212e+04 8.974e-10
 89.09053   -106.3 1.197e+04 7.930e-10
 89.12965   -105.3 1.177e+04 6.418e-10
 89.16878   -104.1 1.157e+04 4.816e-10
 89.20790   -102.8 1.139e+04 3.465e-10
 89.24702   -101.5 1.125e+04 2.488e-10
 89.28614   -100.3 1.116e+04 1.869e-10
 89.32527    -99.0 1.111e+04 1.501e-10
 89.36439    -97.7 1.106e+04 1.320e-10
 89.40351    -96.3 1.102e+04 1.271e-10
 89.44263    -95.0 1.101e+04 1.267e-10
 89.48175    -93.7 1.101e+04 1.298e-10
 89.52088    -92.6 1.102e+04 1.437e-10
 89.56000    -91.4 1.105e+04 1.615e-10
 89.59912    -90.4 1.109e+04 1.813e-10
 89.63824    -89.4 1.114e+04 2.041e-10
 89.66771    -88.6 1.120e+04 2.315e-10
 89.68727    -87.7 1.116e+04 1.911e-10
 89.71649    -86.9 1.121e+04 2.140e-10
 89.75561    -86.1 1.124e+04 2.413e-10
 89.79473    -85.3 1.127e+04 2.705e-10
 89.83385    -84.7 1.128e+04 2.934e-10
 89.87298    -84.1 1.128e+04 3.088e-10
 89.91210    -83.6 1.125e+04 3.179e-10
 89.95122    -83.3 1.125e+04 3.291e-10
 89.99034    -83.1 1.126e+04 3.525e-10
 90.02947    -83.0 1.131e+04 3.963e-10
 90.06859    -83.0 1.143e+04 4.784e-10
 90.10771    -83.6 1.170e+04 6.107e-10
 90.14683    -85.1 1.203e+04 8.052e-10
 90.18595    -87.1 1.229e+04 1.023e-09
 90.22508    -89.4 1.237e+04 1.134e-09
 90.26420    -91.4 1.231e+04 1.149e-09
 90.30332    -92.6 1.192e+04 9.249e-10
 90.34244    -93.1 1.151e+04 5.893e-10
 90.37348    -93.3 1.120e+04 3.548e-10
 90.39304    -92.4 1.125e+04 4.145e-10
 90.42069    -92.4 1.102e+04 2.646e-10
 90.45981    -92.2 1.087e+04 2.009e-10
 90.49893    -91.0 1.078e+04 1.743e-10
 90.53805    -89.7 1.076e+04 1.660e-10
 90.57718    -88.4 1.077e+04 1.643e-10
 90.61630    -87.1 1.078e+04 1.647e-10
 90.65542    -85.9 1.091e+04 1.698e-10
 90.69454    -84.8 1.097e+04 1.919e-10
 90.73367    -83.8 1.103e+04 2.255e-10
 90.77279    -82.8 1.117e+04 2.722e-10
 90.81191    -82.0 1.139e+04 3.495e-10
 90.85103    -81.5 1.165e+04 4.671e-10
 90.89015    -81.2 1.187e+04 6.317e-10
 90.92928    -81.1 1.205e+04 8.491e-10
 90.96840    -81.1 1.219e+04 1.107e-09
 91.00752    -81.3 1.230e+04 1.341e-09
 91.04664    -81.6 1.233e+04 1.436e-09
 91.07589    -81.6 1.230e+04 1.360e-09
 91.08883    -81.7 1.226e+04 1.337e-09
 91.09861    -81.5 1.242e+04 1.499e-09
 91.11491    -81.5 1.230e+04 1.464e-09
 91.13447    -81.6 1.216e+04 1.365e-09
 91.15403    -81.6 1.205e+04 1.268e-09
 91.17360    -81.5 1.198e+04 1.190e-09
 91.19316    -81.5 1.192e+04 1.136e-09
 91.21272    -81.4 1.188e+04 1.109e-09
 91.23228    -81.3 1.187e+04 1.105e-09
 91.25184    -81.2 1.187e+04 1.110e-09
 91.27140    -81.2 1.195e+04 1.117e-09
 91.29096    -82.6 1.281e+04 1.250e-09
 91.31052    -85.1 1.390e+04 1.929e-09
 91.33008    -87.3 1.460e+04 3.421e-09
 91.34965    -88.2 1.497e+04 5.526e-09
 91.36921    -88.3 1.523e+04 7.302e-09
 91.38877    -88.2 1.540e+04 8.027e-09
 91.40833    -88.2 1.511e+04 6.240e-09
 91.42789    -89.2 1.493e+04 4.320e-09
 91.44171    -91.3 1.468e+04 2.737e-09
 91.45149    -93.8 1.427e+04 1.727e-09
 91.46701    -96.8 1.339e+04 1.222e-09
 91.48657    -99.4 1.286e+04 1.090e-09
 91.50613   -101.2 1.261e+04 1.138e-09
 91.52570   -102.9 1.271e+04 1.147e-09
 91.54526   -104.5 1.275e+04 1.136e-09
 91.56482   -106.2 1.269e+04 1.091e-09
 91.58438   -107.6 1.255e+04 1.056e-09
 91.60394   -108.7 1.243e+04 1.038e-09
 91.62350   -109.2 1.235e+04 1.035e-09
 91.64306   -109.3 1.227e+04 1.034e-09
 91.66262   -109.2 1.221e+04 9.803e-10
 91.68218   -109.2 1.214e+04 8.371e-10
 91.71162   -109.5 1.197e+04 6.661e-10
 91.75084   -109.4 1.164e+04 4.952e-10
 91.78501   -108.2 1.119e+04 3.430e-10
 91.80457   -108.1 1.115e+04 3.428e-10
 91.82909   -106.6 1.089e+04 2.704e-10
 91.86821   -104.9 1.082e+04 2.504e-10
 91.90733   -103.1 1.082e+04 2.472e-10
 91.94645   -101.6 1.086e+04 2.497e-10
 91.98558   -100.4 1.101e+04 2.856e-10
 92.02470    -99.5 1.116e+04 3.637e-10
 92.06382    -98.8 1.136e+04 4.839e-10
 92.10294    -98.4 1.160e+04 6.422e-10
 92.14207    -98.4 1.186e+04 8.172e-10
 92.18119    -98.7 1.215e+04 9.745e-10
 92.22031    -99.9 1.238e+04 1.081e-09
 92.25943   -101.5 1.243e+04 1.124e-09
 92.29855   -103.3 1.241e+04 1.129e-09
 92.33768   -104.7 1.224e+04 1.114e-09
 92.37680   -105.7 1.191e+04 1.004e-09
 92.41592   -106.1 1.159e+04 8.177e-10
 92.45504   -106.1 1.131e+04 6.137e-10
 92.49077   -106.0 1.101e+04 4.415e-10
 92.51034   -105.7 1.093e+04 4.120e-10
 92.53329   -105.1 1.059e+04 2.744e-10
 92.57241   -104.2 1.041e+04 2.084e-10
 92.61153   -103.0 1.037e+04 1.940e-10
 92.65065   -101.7 1.037e+04 1.927e-10
 92.68978   -100.5 1.047e+04 2.088e-10
 92.72890    -99.4 1.057e+04 2.577e-10
 92.76802    -98.3 1.066e+04 3.198e-10
 92.80714    -97.1 1.076e+04 3.855e-10
 92.84627    -95.9 1.089e+04 4.496e-10
 92.88539    -94.9 1.108e+04 5.216e-10
 92.92451    -94.1 1.136e+04 6.172e-10
 92.95375    -93.6 1.164e+04 7.378e-10
 92.97322    -93.8 1.190e+04 8.896e-10
 93.00266    -94.4 1.213e+04 1.039e-09
 93.04188    -94.7 1.258e+04 1.413e-09
 93.08100    -95.4 1.277e+04 1.586e-09
 93.12012    -96.3 1.262e+04 1.379e-09
 93.15924    -96.8 1.208e+04 8.471e-10
 93.19654    -96.9 1.147e+04 4.478e-10
 93.21610    -96.8 1.131e+04 3.464e-10
 93.23749    -96.7 1.092e+04 1.895e-10
 93.27661    -95.5 1.060e+04 1.357e-10
 93.31573    -93.9 1.052e+04 1.209e-10
 93.35485    -92.1 1.052e+04 1.170e-10
 93.39398    -90.1 1.052e+04 1.169e-10
 93.43310    -88.3 1.060e+04 1.204e-10
 93.47222    -86.5 1.070e+04 1.375e-10
 93.51134    -84.7 1.077e+04 1.645e-10
 93.55046    -82.8 1.085e+04 1.939e-10
 93.58959    -80.8 1.093e+04 2.159e-10
 93.62871    -78.9 1.096e+04 2.234e-10
 93.66783    -77.0 1.095e+04 2.241e-10
 93.70695    -74.9 1.088e+04 2.053e-10
 93.74608    -72.7 1.077e+04 1.785e-10
 93.78520    -70.6 1.070e+04 1.549e-10
 93.82432    -68.6 1.068e+04 1.412e-10
 93.86344    -66.5 1.069e+04 1.382e-10
 93.90231    -64.6 1.073e+04 1.438e-10
 93.92187    -65.0 1.075e+04 1.680e-10
 93.94169    -63.1 1.079e+04 2.037e-10
 93.98081    -61.1 1.082e+04 2.516e-10
 94.01993    -59.1 1.086e+04 2.957e-10
 94.05905    -57.2 1.089e+04 3.192e-10
 94.09818    -55.4 1.089e+04 3.228e-10
 94.13730    -53.6 1.084e+04 3.013e-10
 94.17642    -51.8 1.078e+04 2.642e-10
 94.21554    -50.1 1.074e+04 2.367e-10
 94.25466    -48.5 1.072e+04 2.284e-10
 94.29379    -46.9 1.073e+04 2.349e-10
 94.33291    -45.2 1.075e+04 2.581e-10
 94.37203    -43.6 1.076e+04 2.958e-10
 94.41115    -41.9 1.078e+04 3.382e-10
 94.45028    -40.4 1.078e+04 3.698e-10
 94.48940    -38.9 1.079e+04 3.794e-10
 94.52852    -37.5 1.079e+04 3.693e-10
 94.56764    -36.1 1.076e+04 3.391e-10
 94.60676    -34.8 1.064e+04 3.035e-10
 94.62763    -33.7 1.054e+04 2.779e-10
 94.64719    -33.8 1.054e+04 2.771e-10
 94.68501    -32.6 1.051e+04 2.529e-10
 94.72413    -31.3 1.049e+04 2.233e-10
 94.76325    -29.9 1.042e+04 1.970e-10
 94.80238    -28.6 1.032e+04 1.760e-10
 94.84150    -27.2 1.023e+04 1.608e-10
 94.88062    -25.7 1.021e+04 1.513e-10
 94.91974    -24.1 1.021e+04 1.486e-10
 94.95886    -22.5 1.021e+04 1.503e-10
 94.99799    -20.8 1.023e+04 1.612e-10
 95.03711    -19.0 1.024e+04 1.754e-10
 95.07623    -17.1 1.027e+04 1.867e-10
 95.11535    -15.4 1.031e+04 1.964e-10
 95.15448    -13.7 1.033e+04 2.126e-10
 95.19360    -11.9 1.035e+04 2.380e-10
 95.23272    -10.0 1.045e+04 2.639e-10
 95.27184     -8.4 1.064e+04 2.985e-10
 95.31096     -7.3 1.089e+04 3.844e-10
 95.33340     -6.3 1.116e+04 6.382e-10
 95.35296     -6.2 1.110e+04 5.349e-10
 95.38921     -5.3 1.134e+04 1.057e-09
 95.42833     -4.0 1.247e+04 2.246e-09
 95.45758     -5.2 1.466e+04 3.976e-09
 95.47704     -9.3 1.726e+04 8.754e-09
 95.49660    -12.0 1.745e+04 2.247e-08
 95.51616     -9.6 1.845e+04 4.497e-08
 95.53572     -7.5 1.889e+04 4.882e-08
 95.55528     -6.8 1.895e+04 2.616e-08
 95.57484    -11.0 1.711e+04 8.086e-09
 95.59441    -16.0 1.434e+04 4.143e-09
 95.61397    -17.1 1.345e+04 3.262e-09
 95.63353    -17.0 1.318e+04 2.911e-09
 95.65309    -17.1 1.275e+04 2.497e-09
 95.67265    -16.7 1.267e+04 2.289e-09
 95.68609    -16.8 1.242e+04 1.980e-09
 95.69587    -16.5 1.229e+04 1.865e-09
 95.71177    -16.2 1.222e+04 1.785e-09
 95.74121    -15.7 1.189e+04 1.333e-09
 95.77055    -14.9 1.164e+04 1.007e-09
 95.79002    -14.5 1.163e+04 9.758e-10
 95.81946    -14.4 1.144e+04 8.531e-10
 95.85868    -13.6 1.126e+04 8.117e-10
 95.89780    -12.3 1.123e+04 8.566e-10
 95.93692    -10.8 1.129e+04 8.649e-10
 95.97604     -9.5 1.128e+04 7.864e-10
 96.01516     -8.3 1.120e+04 6.576e-10
 96.03916     -7.1 1.109e+04 5.476e-10
 96.05873     -7.0 1.108e+04 5.037e-10
 96.09341     -5.9 1.097e+04 4.078e-10
 96.13253     -4.7 1.088e+04 3.506e-10
 96.17165     -3.4 1.076e+04 3.215e-10
 96.21078     -1.8 1.071e+04 3.018e-10
 96.24990      0.0 1.075e+04 2.785e-10
 96.28902      1.7 1.080e+04 2.558e-10
 96.32814      3.3 1.086e+04 2.568e-10
 96.36726      4.5 1.097e+04 3.021e-10
 96.40639      5.5 1.110e+04 4.028e-10
 96.44551      6.8 1.135e+04 5.840e-10
 96.47475      7.5 1.130e+04 6.825e-10
 96.49422      7.9 1.145e+04 7.446e-10
 96.51378      8.1 1.176e+04 9.752e-10
 96.53334      8.0 1.226e+04 1.148e-09
 96.55290      7.3 1.270e+04 1.602e-09
 96.57246      5.9 1.314e+04 2.084e-09
 96.59202      5.3 1.332e+04 3.069e-09
 96.61158      5.2 1.363e+04 3.553e-09
 96.63114      6.0 1.325e+04 4.233e-09
 96.65070      6.5 1.375e+04 3.296e-09
 96.67027      5.2 1.390e+04 2.655e-09
 96.68983      3.6 1.344e+04 2.088e-09
 96.70939      2.2 1.248e+04 1.677e-09
 96.72895      3.0 1.206e+04 1.616e-09
 96.74483      3.4 1.231e+04 1.128e-09
 96.76449      2.6 1.245e+04 9.745e-10
 96.79761      1.0 1.240e+04 3.620e-10
 96.83673     -0.8 1.142e+04 2.612e-10
 96.87585     -0.1 1.119e+04 2.793e-10
 96.91498      1.0 1.125e+04 2.973e-10
 96.95410      2.1 1.119e+04 2.983e-10
 96.99322      3.4 1.101e+04 2.799e-10
 97.03234      4.3 1.116e+04 2.235e-10
 97.07146      4.3 1.115e+04 1.906e-10
 97.11059      4.5 1.098e+04 2.009e-10
 97.14971      5.3 1.077e+04 2.372e-10
 97.18883      6.8 1.070e+04 2.592e-10
 97.22795      8.4 1.059e+04 2.454e-10
 97.26708      9.9 1.059e+04 1.871e-10
 97.30620     10.4 1.085e+04 1.330e-10
 97.34532     10.9 1.089e+04 1.327e-10
 97.38444     11.6 1.080e+04 1.876e-10
 97.42356     13.2 1.071e+04 2.684e-10
 97.45070     15.2 1.063e+04 3.096e-10
 97.47026     15.6 1.058e+04 2.590e-10
 97.50181     17.8 1.064e+04 3.186e-10
 97.54093     19.9 1.064e+04 3.311e-10
 97.58005     21.8 1.077e+04 3.736e-10
 97.61918     23.5 1.114e+04 5.159e-10
 97.64842     24.9 1.143e+04 6.746e-10
 97.66788     25.3 1.147e+04 7.049e-10
 97.68744     26.5 1.161e+04 9.024e-10
 97.70700     28.0 1.174e+04 1.096e-09
 97.72657     29.5 1.221e+04 1.410e-09
 97.74613     29.4 1.295e+04 1.875e-09
 97.76569     28.2 1.462e+04 3.276e-09
 97.78525     27.7 1.613e+04 6.368e-09
 97.79987     27.1 1.741e+04 1.030e-08
 97.80818     27.3 1.783e+04 1.213e-08
 97.81307     26.8 1.893e+04 1.762e-08
 97.81938     26.5 1.955e+04 2.381e-08
 97.82916     26.6 1.972e+04 2.994e-08
 97.83894     26.5 1.986e+04 3.472e-08
 97.84873     26.5 1.982e+04 3.612e-08
 97.85851     26.4 1.980e+04 3.486e-08
 97.86829     26.4 1.969e+04 3.126e-08
 97.87807     26.3 1.959e+04 2.473e-08
 97.88785     26.1 1.952e+04 2.357e-08
 97.90257     25.1 1.924e+04 1.762e-08
 97.92218     23.0 1.871e+04 1.399e-08
 97.94174     21.7 1.825e+04 1.343e-08
 97.96130     21.1 1.818e+04 1.419e-08
 97.98086     17.3 2.017e+04 1.635e-08
 97.99548     13.3 2.228e+04 2.026e-08
 98.00521     10.9 2.273e+04 2.734e-08
 98.01499      9.3 2.200e+04 3.692e-08
 98.02478      8.7 2.125e+04 4.865e-08
 98.03456      8.4 2.063e+04 5.754e-08
 98.04434      8.2 2.025e+04 5.960e-08
 98.05412      8.1 2.003e+04 5.722e-08
 98.06390      8.3 2.005e+04 5.083e-08
 98.07368      7.8 2.051e+04 4.119e-08
 98.08346      6.7 2.074e+04 3.273e-08
 98.09818      4.3 1.981e+04 2.163e-08
 98.11779      2.8 1.823e+04 1.023e-08
 98.13735      1.0 1.625e+04 5.416e-09
 98.15627     -0.4 1.429e+04 3.125e-09
 98.16605      1.4 1.699e+04 7.399e-09
 98.17647     -0.9 1.505e+04 4.322e-09
 98.19603     -1.3 1.480e+04 3.610e-09
 98.21559     -1.9 1.412e+04 2.828e-09
 98.23515     -3.1 1.281e+04 1.955e-09
 98.25472     -5.0 1.155e+04 1.374e-09
 98.27428     -5.9 1.131e+04 1.157e-09
 98.29384     -6.9 1.089e+04 9.289e-10
 98.31340     -7.7 1.058e+04 7.635e-10
 98.33296     -8.5 1.046e+04 6.584e-10
 98.35252     -9.6 1.036e+04 6.077e-10
 98.37208    -10.5 1.033e+04 6.011e-10
 98.39164    -11.3 1.026e+04 6.318e-10
 98.41120    -11.7 1.020e+04 6.464e-10
 98.43077    -11.9 1.011e+04 6.435e-10
 98.45033    -11.8 1.003e+04 5.982e-10
 98.46989    -11.8 9.913e+03 5.149e-10
 98.48945    -12.0 9.819e+03 4.310e-10
 98.51889    -12.5 9.751e+03 3.702e-10
 98.55811    -12.6 9.655e+03 3.307e-10
 98.59723    -11.8 9.489e+03 2.972e-10
 98.63635    -10.0 9.423e+03 2.866e-10
 98.67547     -7.9 9.393e+03 2.654e-10
 98.71460     -5.6 9.395e+03 2.242e-10
 98.75372     -3.6 9.388e+03 1.922e-10
 98.79284     -1.9 9.298e+03 1.803e-10
 98.83196      0.2 9.297e+03 1.943e-10
 98.86223      2.4 9.321e+03 2.118e-10
 98.88179      2.0 9.374e+03 2.054e-10
 98.91021      4.2 9.333e+03 2.016e-10
 98.94933      6.5 9.347e+03 1.985e-10
 98.98845      8.9 9.331e+03 1.853e-10
 99.02757     11.3 9.304e+03 1.510e-10
 99.06670     13.2 9.379e+03 1.220e-10
 99.10582     14.7 9.470e+03 1.099e-10
 99.14494     16.4 9.446e+03 1.131e-10
 99.18406     18.3 9.419e+03 1.232e-10
 99.22319     20.4 9.431e+03 1.297e-10
 99.26231     22.6 9.435e+03 1.284e-10
 99.30143     24.6 9.486e+03 1.242e-10
 99.34055     26.4 9.541e+03 1.255e-10
 99.37967     28.0 9.673e+03 1.342e-10
 99.41880     29.6 9.783e+03 1.530e-10
 99.45792     31.1 9.902e+03 1.643e-10
 99.49704     32.5 9.939e+03 1.617e-10
 99.53616     33.8 1.002e+04 1.477e-10
 99.56799     35.1 1.008e+04 1.351e-10
 99.58755     35.3 1.008e+04 1.391e-10
 99.61441     36.7 1.011e+04 1.379e-10
 99.65353     38.0 1.017e+04 1.423e-10
 99.69265     39.3 1.026e+04 1.525e-10
 99.73177     40.7 1.035e+04 1.635e-10
 99.77090     42.0 1.045e+04 1.772e-10
 99.81002     43.2 1.058e+04 1.937e-10
 99.84914     44.4 1.071e+04 2.117e-10
 99.88826     45.7 1.073e+04 2.300e-10
 99.92739     47.0 1.066e+04 2.356e-10
 99.96651     48.4 1.058e+04 2.308e-10
100.00563     49.9 1.043e+04 2.094e-10
