# Columns:
#   distance along LOS (in CHIMPs)
#   peculiar velocity  (in km/s)
#   temperature (K)
#   HI number density
# pos=(201.083,24.7486,210.423), angles=(2.83341,1.98758)
  0.00060    159.7 8.524e+03 9.499e-11
  0.01502    161.7 8.594e+03 9.975e-11
  0.04934    162.4 8.705e+03 1.175e-10
  0.08769    162.7 8.926e+03 1.536e-10
  0.10819    162.0 9.166e+03 1.903e-10
  0.12643    162.3 9.517e+03 2.726e-10
  0.14693    164.3 9.607e+03 2.740e-10
  0.17232    164.5 9.992e+03 3.681e-10
  0.21331    164.6 1.025e+04 4.073e-10
  0.25431    164.5 1.027e+04 3.932e-10
  0.27884    164.1 1.014e+04 3.434e-10
  0.29933    165.2 1.047e+04 4.058e-10
  0.33629    164.3 1.041e+04 3.573e-10
  0.37729    162.8 1.035e+04 3.498e-10
  0.41072    161.2 1.036e+04 3.560e-10
  0.43122    159.9 1.022e+04 3.079e-10
  0.45928    157.6 1.025e+04 3.226e-10
  0.48685    156.2 1.020e+04 3.462e-10
  0.49700    156.7 1.016e+04 3.535e-10
  0.51032    155.8 1.014e+04 4.305e-10
  0.53082    154.6 1.053e+04 5.776e-10
  0.55132    153.3 1.101e+04 7.132e-10
  0.56305    151.5 1.142e+04 7.515e-10
  0.57330    151.2 1.190e+04 9.702e-10
  0.58229    150.3 1.203e+04 9.992e-10
  0.59254    150.4 1.188e+04 9.662e-10
  0.61281    148.1 1.250e+04 1.213e-09
  0.62891    145.2 1.334e+04 1.742e-09
  0.63916    144.3 1.364e+04 2.048e-09
  0.65380    141.9 1.424e+04 2.721e-09
  0.67430    139.4 1.451e+04 2.970e-09
  0.69479    137.7 1.433e+04 2.776e-09
  0.71529    136.1 1.380e+04 1.890e-09
  0.73366    132.6 1.270e+04 8.549e-10
  0.75425    133.6 1.306e+04 1.097e-09
  0.78723    130.8 1.143e+04 4.316e-10
  0.82697    129.6 1.005e+04 2.076e-10
  0.84746    130.0 1.028e+04 2.235e-10
  0.86921    130.1 9.886e+03 1.894e-10
  0.91021    130.6 9.872e+03 1.901e-10
  0.95120    131.4 9.975e+03 2.065e-10
  0.97937    131.6 1.032e+04 2.735e-10
  0.99987    132.1 1.047e+04 3.023e-10
  1.03319    132.1 1.078e+04 4.248e-10
  1.05678    132.1 1.079e+04 5.215e-10
  1.07728    132.4 1.086e+04 5.378e-10
  1.11128    132.3 1.082e+04 5.588e-10
  1.13178    132.6 1.079e+04 5.426e-10
  1.15617    132.6 1.060e+04 5.045e-10
  1.19717    132.8 1.027e+04 4.068e-10
  1.23816    133.2 9.914e+03 3.056e-10
  1.26369    133.9 9.607e+03 2.393e-10
  1.28418    134.4 9.624e+03 2.547e-10
  1.32015    135.5 9.522e+03 2.461e-10
  1.35932    136.9 9.514e+03 2.473e-10
  1.37982    136.8 9.649e+03 2.690e-10
  1.39560    138.3 9.659e+03 2.738e-10
  1.41609    139.1 9.862e+03 3.255e-10
  1.44313    140.6 9.955e+03 3.491e-10
  1.48412    141.8 1.010e+04 3.946e-10
  1.52512    142.7 1.037e+04 4.843e-10
  1.54800    143.7 1.071e+04 6.250e-10
  1.56850    144.0 1.095e+04 7.246e-10
  1.60710    144.7 1.122e+04 8.683e-10
  1.63775    144.4 1.143e+04 9.734e-10
  1.65815    143.9 1.157e+04 1.020e-09
  1.67865    143.3 1.162e+04 1.019e-09
  1.68996    142.6 1.166e+04 9.941e-10
  1.69347    142.4 1.167e+04 9.885e-10
  1.70265    141.7 1.214e+04 1.165e-09
  1.71964    139.9 1.243e+04 1.221e-09
  1.74014    137.4 1.284e+04 1.343e-09
  1.75592    134.6 1.315e+04 1.538e-09
  1.76616    134.3 1.305e+04 1.490e-09
  1.78113    131.7 1.308e+04 1.631e-09
  1.80163    129.6 1.286e+04 1.683e-09
  1.82187    128.1 1.263e+04 1.570e-09
  1.83212    127.9 1.240e+04 1.440e-09
  1.84262    126.7 1.201e+04 1.206e-09
  1.85392    125.7 1.163e+04 9.378e-10
  1.86417    124.6 1.160e+04 8.479e-10
  1.88362    123.2 1.119e+04 6.134e-10
  1.89807    121.8 1.088e+04 4.928e-10
  1.90832    121.7 1.086e+04 5.173e-10
  1.92461    120.7 1.074e+04 5.189e-10
  1.94511    120.1 1.072e+04 5.374e-10
  1.96403    119.9 1.076e+04 5.734e-10
  1.97428    119.9 1.092e+04 6.689e-10
  1.98610    119.8 1.101e+04 7.022e-10
  2.00519    119.8 1.105e+04 7.063e-10
  2.01544    119.2 1.119e+04 7.355e-10
  2.02710    119.3 1.110e+04 6.892e-10
  2.04023    119.5 1.100e+04 6.262e-10
  2.05048    119.2 1.126e+04 7.036e-10
  2.06809    119.3 1.110e+04 6.194e-10
  2.08859    119.2 1.106e+04 5.765e-10
  2.10618    119.2 1.102e+04 5.522e-10
  2.11653    118.8 1.110e+04 5.670e-10
  2.14003    119.1 1.105e+04 5.535e-10
  2.18102    119.7 1.105e+04 5.726e-10
  2.22201    120.4 1.118e+04 6.395e-10
  2.24854    121.0 1.142e+04 7.486e-10
  2.26903    120.3 1.155e+04 8.358e-10
  2.30400    120.4 1.184e+04 9.288e-10
  2.32841    120.3 1.187e+04 9.184e-10
  2.34891    119.6 1.170e+04 8.433e-10
  2.38044    119.5 1.162e+04 7.437e-10
  2.40094    117.9 1.135e+04 6.161e-10
  2.42698    118.0 1.094e+04 3.918e-10
  2.46798    118.0 1.056e+04 2.386e-10
  2.50897    118.1 1.037e+04 1.692e-10
  2.53285    118.3 1.021e+04 1.547e-10
  2.55335    116.6 9.695e+03 1.005e-10
  2.59096    116.7 9.733e+03 1.172e-10
  2.63095    116.7 9.853e+03 1.364e-10
  2.65145    116.6 9.772e+03 1.229e-10
  2.66476    116.8 9.895e+03 1.383e-10
  2.68525    116.3 9.881e+03 1.382e-10
  2.71394    116.5 9.997e+03 1.522e-10
  2.75493    116.6 1.009e+04 1.651e-10
  2.79593    116.7 1.023e+04 1.880e-10
  2.81716    116.7 1.053e+04 2.377e-10
  2.83766    115.5 1.070e+04 3.034e-10
  2.87792    115.1 1.101e+04 3.953e-10
  2.91891    114.7 1.122e+04 4.930e-10
  2.94907    114.0 1.140e+04 5.737e-10
  2.96365    112.1 1.121e+04 5.246e-10
  2.97448    112.5 1.118e+04 5.282e-10
  3.00090    111.7 1.115e+04 5.247e-10
  3.04189    111.1 1.112e+04 5.397e-10
  3.08098    110.5 1.103e+04 5.576e-10
  3.10148    108.7 1.088e+04 4.864e-10
  3.12388    108.3 1.076e+04 4.752e-10
  3.16487    108.2 1.053e+04 4.275e-10
  3.20587    107.1 1.031e+04 3.675e-10
  3.23339    105.8 1.021e+04 3.371e-10
  3.24354    104.6 1.044e+04 3.940e-10
  3.25691    104.0 1.047e+04 4.097e-10
  3.27682    103.1 1.055e+04 4.637e-10
  3.28706    103.0 1.080e+04 6.100e-10
  3.29791    102.3 1.088e+04 6.753e-10
  3.30939    101.6 1.099e+04 7.509e-10
  3.31964    100.9 1.110e+04 7.964e-10
  3.33890    100.2 1.120e+04 8.142e-10
  3.35940     99.4 1.136e+04 8.512e-10
  3.37535     98.3 1.156e+04 8.891e-10
  3.38560     96.8 1.160e+04 7.914e-10
  3.40039     94.7 1.202e+04 8.564e-10
  3.42089     92.4 1.231e+04 1.029e-09
  3.43833     90.6 1.236e+04 1.231e-09
  3.44849     90.6 1.215e+04 1.162e-09
  3.46180     88.3 1.191e+04 1.101e-09
  3.48238     87.5 1.169e+04 9.133e-10
  3.50288     86.7 1.138e+04 6.610e-10
  3.51750     85.4 1.106e+04 4.128e-10
  3.52775     83.6 1.086e+04 2.894e-10
  3.54387     82.1 1.046e+04 2.030e-10
  3.56437     79.8 9.897e+03 1.413e-10
  3.58346     78.6 9.497e+03 1.290e-10
  3.59371     78.3 9.495e+03 1.292e-10
  3.59985     77.5 9.397e+03 1.263e-10
  3.62044     78.2 9.342e+03 1.193e-10
  3.64645     77.6 9.358e+03 1.272e-10
  3.65966     76.4 1.003e+04 1.595e-10
  3.66991     77.1 9.642e+03 1.482e-10
  3.68735     74.6 1.090e+04 2.559e-10
  3.70785     70.7 1.281e+04 7.970e-10
  3.72561     68.5 1.402e+04 2.167e-09
  3.73586     68.7 1.371e+04 1.795e-09
  3.74884     68.2 1.476e+04 3.689e-09
  3.76136     68.0 1.566e+04 4.627e-09
  3.77161     69.0 1.506e+04 4.144e-09
  3.78983     68.4 1.553e+04 4.153e-09
  3.80182     67.3 1.546e+04 3.456e-09
  3.81207     67.9 1.546e+04 3.694e-09
  3.83083     66.0 1.496e+04 2.465e-09
  3.85133     63.4 1.342e+04 1.517e-09
  3.86777     61.5 1.179e+04 1.050e-09
  3.87802     61.3 1.242e+04 1.293e-09
  3.89232     60.8 1.160e+04 1.096e-09
  3.91263     60.8 1.136e+04 9.663e-10
  3.92288     61.4 1.147e+04 1.024e-09
  3.93382     61.9 1.138e+04 8.490e-10
  3.95432     61.0 1.182e+04 1.061e-09
  3.98465     61.2 1.192e+04 1.104e-09
  4.02575     61.7 1.156e+04 9.371e-10
  4.06583     62.7 1.123e+04 8.042e-10
  4.08633     60.2 1.188e+04 1.004e-09
  4.10773     61.1 1.136e+04 7.316e-10
  4.14873     61.5 1.083e+04 5.758e-10
  4.18972     61.6 1.068e+04 5.396e-10
  4.21823     61.5 1.075e+04 5.538e-10
  4.23363     58.4 1.055e+04 4.366e-10
  4.24611     59.4 1.063e+04 4.492e-10
  4.27171     59.3 1.068e+04 4.665e-10
  4.31270     59.1 1.068e+04 4.481e-10
  4.35014     58.6 1.052e+04 3.612e-10
  4.37064     56.7 1.012e+04 1.999e-10
  4.39469     55.7 1.003e+04 1.543e-10
  4.43568     54.1 1.019e+04 1.607e-10
  4.46633     53.2 1.046e+04 1.824e-10
  4.48673     51.9 1.090e+04 2.418e-10
  4.50235     50.7 1.118e+04 3.500e-10
  4.51260     50.2 1.136e+04 3.586e-10
  4.52773     48.9 1.174e+04 5.149e-10
  4.54822     45.9 1.410e+04 9.002e-10
  4.55869     34.9 2.225e+04 3.413e-09
  4.56853     39.5 1.879e+04 2.451e-09
  4.57856     43.5 1.485e+04 1.635e-09
  4.58922     33.0 2.138e+04 5.189e-09
  4.60454     25.5 2.243e+04 1.449e-08
  4.61143     22.6 2.232e+04 2.464e-08
  4.61656     23.4 2.201e+04 1.786e-08
  4.62499     21.1 2.208e+04 3.026e-08
  4.63423     18.6 2.357e+04 4.497e-08
  4.63935     19.2 2.317e+04 4.562e-08
  4.64441     16.8 2.463e+04 6.933e-08
  4.64954     17.9 2.407e+04 5.137e-08
  4.65573     15.2 2.524e+04 7.586e-08
  4.66598     12.4 2.561e+04 8.762e-08
  4.67623      9.5 2.508e+04 8.373e-08
  4.68251      6.8 2.335e+04 5.211e-08
  4.68764      7.3 2.439e+04 7.424e-08
  4.69673      4.3 2.249e+04 4.675e-08
  4.70698      2.9 2.120e+04 3.167e-08
  4.71499      2.5 2.047e+04 2.226e-08
  4.71838      3.2 2.279e+04 2.869e-08
  4.72061      2.3 2.320e+04 5.258e-08
  4.72747      2.1 2.267e+04 3.109e-08
  4.73772      2.1 2.213e+04 1.808e-08
  4.74797     -0.4 2.098e+04 9.353e-09
  4.75359     -0.5 2.056e+04 8.767e-09
  4.75872      0.3 2.076e+04 1.100e-08
  4.77364     -3.0 1.855e+04 5.204e-09
  4.78667     -4.3 1.515e+04 2.237e-09
  4.79691     -2.5 1.675e+04 3.858e-09
  4.81468     -3.8 1.470e+04 2.398e-09
  4.83518     -3.5 1.436e+04 2.129e-09
  4.85262     -2.7 1.428e+04 2.101e-09
  4.86287     -1.6 1.490e+04 2.629e-09
  4.87148     -1.1 1.493e+04 2.575e-09
  4.88173     -0.7 1.507e+04 2.846e-09
  4.89667     -0.4 1.541e+04 2.885e-09
  4.91717     -0.2 1.545e+04 3.221e-09
  4.92882      0.2 1.524e+04 3.651e-09
  4.93907      0.8 1.617e+04 4.443e-09
  4.95816      1.2 1.612e+04 5.345e-09
  4.97866      2.1 1.603e+04 6.023e-09
  4.99478      3.1 1.600e+04 5.895e-09
  5.00503      3.8 1.689e+04 8.923e-09
  5.01965      4.9 1.698e+04 8.978e-09
  5.03299      5.7 1.703e+04 7.380e-09
  5.04324      5.8 1.770e+04 1.047e-08
  5.06065      5.7 1.793e+04 8.382e-09
  5.08114      4.7 1.924e+04 1.293e-08
  5.10164      3.8 1.935e+04 1.162e-08
  5.11370      3.4 1.910e+04 9.680e-09
  5.11878      3.3 1.951e+04 1.271e-08
  5.12716      3.3 1.929e+04 1.153e-08
  5.13684      3.0 1.861e+04 9.437e-09
  5.14196      3.6 1.954e+04 1.595e-08
  5.14766      3.7 1.894e+04 1.288e-08
  5.15791      3.7 1.821e+04 1.035e-08
  5.16816      3.7 1.748e+04 8.499e-09
  5.17494      3.8 1.690e+04 7.307e-09
  5.18006      4.2 1.784e+04 1.019e-08
  5.18865      4.2 1.736e+04 8.328e-09
  5.19441      3.8 1.665e+04 6.894e-09
  5.19953      3.3 1.647e+04 6.106e-09
  5.20791      3.1 1.623e+04 5.732e-09
  5.21309      3.1 1.657e+04 5.816e-09
  5.22462      2.0 1.608e+04 5.069e-09
  5.24512      0.4 1.627e+04 5.039e-09
  5.26562     -2.2 1.724e+04 6.639e-09
  5.27909     -4.1 1.831e+04 9.580e-09
  5.28934     -4.4 1.717e+04 6.651e-09
  5.30661     -5.8 1.791e+04 8.815e-09
  5.32711     -7.3 1.817e+04 9.845e-09
  5.34505     -8.9 1.771e+04 8.956e-09
  5.35347     -8.9 1.671e+04 7.465e-09
  5.35602     -9.2 1.588e+04 6.027e-09
  5.36810    -10.3 1.516e+04 4.269e-09
  5.38860    -12.0 1.406e+04 2.382e-09
  5.40909    -14.2 1.272e+04 1.292e-09
  5.42125    -16.0 1.170e+04 8.195e-10
  5.43150    -15.0 1.180e+04 8.491e-10
  5.45009    -16.2 1.117e+04 6.241e-10
  5.47059    -16.6 1.083e+04 5.084e-10
  5.48720    -16.9 1.056e+04 4.270e-10
  5.49745    -16.3 1.070e+04 4.689e-10
  5.50729    -16.7 1.047e+04 4.110e-10
  5.51754    -17.0 1.032e+04 3.610e-10
  5.53208    -17.3 1.018e+04 3.227e-10
  5.55257    -17.4 1.016e+04 3.166e-10
  5.58342    -17.2 1.021e+04 3.199e-10
  5.61931    -17.4 1.028e+04 3.220e-10
  5.63970    -17.6 1.037e+04 3.753e-10
  5.65506    -18.0 1.046e+04 3.829e-10
  5.66881    -18.3 1.054e+04 3.908e-10
  5.67906    -17.9 1.046e+04 3.436e-10
  5.69531    -18.5 1.060e+04 3.546e-10
  5.70556    -18.9 1.065e+04 3.898e-10
  5.71655    -19.3 1.070e+04 3.970e-10
  5.73705    -19.9 1.081e+04 4.076e-10
  5.75754    -20.2 1.089e+04 4.073e-10
  5.77152    -20.7 1.102e+04 4.034e-10
  5.78176    -21.5 1.102e+04 3.966e-10
  5.79854    -21.9 1.103e+04 3.836e-10
  5.82017    -22.9 1.095e+04 3.650e-10
  5.84077    -22.1 1.071e+04 3.160e-10
  5.87047    -22.6 1.039e+04 2.882e-10
  5.90362    -22.8 1.024e+04 2.817e-10
  5.92412    -23.7 9.824e+03 2.173e-10
  5.95246    -23.5 9.758e+03 2.272e-10
  5.99345    -23.2 9.676e+03 2.391e-10
  6.03445    -22.6 9.513e+03 2.446e-10
  6.05602    -21.8 9.253e+03 2.237e-10
  6.07652    -22.3 9.223e+03 2.247e-10
  6.11643    -21.1 9.053e+03 1.831e-10
  6.14330    -19.8 8.831e+03 1.349e-10
  6.16380    -19.1 8.845e+03 1.364e-10
  6.18793    -18.0 8.693e+03 1.039e-10
  6.20843    -17.9 8.704e+03 1.158e-10
  6.23942    -16.7 8.608e+03 9.453e-11
  6.28041    -15.4 8.531e+03 8.401e-11
  6.31984    -14.0 8.482e+03 7.813e-11
  6.34034    -13.8 8.490e+03 8.051e-11
  6.36240    -12.3 8.451e+03 7.399e-11
  6.40339    -10.8 8.443e+03 7.034e-11
  6.44439     -9.2 8.443e+03 6.969e-11
  6.46633     -7.7 8.395e+03 7.451e-11
  6.47370     -7.0 8.569e+03 7.548e-11
  6.49274     -6.6 8.540e+03 7.976e-11
  6.52637     -4.9 8.591e+03 8.398e-11
  6.56737     -3.2 8.620e+03 9.046e-11
  6.60415     -1.5 8.715e+03 9.609e-11
  6.62465     -0.8 8.703e+03 9.575e-11
  6.64936      0.7 8.843e+03 1.053e-10
  6.69035      2.1 8.995e+03 1.308e-10
  6.73134      3.6 9.158e+03 1.743e-10
  6.75656      5.5 9.339e+03 2.152e-10
  6.77359      5.9 9.507e+03 2.382e-10
  6.78936      6.3 9.553e+03 2.484e-10
  6.81333      8.1 9.706e+03 2.836e-10
  6.85432      9.6 9.691e+03 2.831e-10
  6.88847     11.2 9.399e+03 2.273e-10
  6.90897     11.3 9.501e+03 2.274e-10
  6.93631     12.7 9.209e+03 1.749e-10
  6.97731     14.1 8.984e+03 1.441e-10
  7.01830     15.7 8.916e+03 1.311e-10
  7.04087     17.2 8.911e+03 1.284e-10
  7.06137     17.2 8.930e+03 1.239e-10
  7.09190     18.3 9.061e+03 1.298e-10
  7.11240     18.4 8.961e+03 1.150e-10
  7.14128     18.9 9.173e+03 1.577e-10
  7.17278     19.7 9.402e+03 2.367e-10
  7.19328     18.9 9.559e+03 2.718e-10
  7.22327     20.7 9.993e+03 3.724e-10
  7.26426     21.9 1.020e+04 3.903e-10
  7.30469     22.2 1.034e+04 3.718e-10
  7.32519     21.3 1.037e+04 3.464e-10
  7.34625     21.1 1.018e+04 2.897e-10
  7.38725     21.0 1.024e+04 2.941e-10
  7.41493     20.8 1.046e+04 3.624e-10
  7.43543     20.9 1.033e+04 3.388e-10
  7.45710     21.0 1.054e+04 4.398e-10
  7.47759     19.7 9.980e+03 2.965e-10
  7.51023     20.1 1.009e+04 3.447e-10
  7.55122     20.1 1.013e+04 3.552e-10
  7.58900     19.6 1.013e+04 3.414e-10
  7.60950     18.1 9.517e+03 2.598e-10
  7.63321     16.8 9.714e+03 2.960e-10
  7.66386     15.7 9.945e+03 3.312e-10
  7.67526     14.0 1.011e+04 4.142e-10
  7.68551     13.3 1.012e+04 4.168e-10
  7.70475     11.9 1.055e+04 5.460e-10
  7.72525      9.3 1.150e+04 7.648e-10
  7.73777      5.5 1.277e+04 1.203e-09
  7.74348      5.4 1.273e+04 1.208e-09
  7.75146      3.4 1.295e+04 1.491e-09
  7.76624      0.5 1.355e+04 2.129e-09
  7.78674     -1.9 1.410e+04 2.618e-09
  7.80717     -4.3 1.449e+04 2.793e-09
  7.82767     -9.0 1.391e+04 1.830e-09
  7.84823    -13.3 1.280e+04 1.245e-09
  7.86873    -16.8 1.171e+04 8.619e-10
  7.88337    -19.0 1.124e+04 6.213e-10
  7.89343    -19.9 1.094e+04 4.748e-10
  7.89928    -19.6 1.091e+04 4.583e-10
  7.92007    -22.0 1.034e+04 3.189e-10
  7.96116    -24.8 9.733e+03 2.429e-10
  8.00215    -27.2 9.577e+03 2.203e-10
  8.02572    -28.7 9.527e+03 2.116e-10
  8.04357    -29.9 9.613e+03 2.289e-10
  8.06099    -30.0 9.576e+03 2.240e-10
  8.08414    -32.0 9.822e+03 2.418e-10
  8.12514    -34.2 1.013e+04 2.552e-10
  8.15763    -36.6 1.053e+04 2.733e-10
  8.17813    -38.8 1.107e+04 3.484e-10
  8.19678    -39.6 1.118e+04 3.738e-10
  8.21207    -40.3 1.135e+04 4.290e-10
  8.22231    -40.6 1.137e+04 4.364e-10
  8.23364    -42.0 1.151e+04 5.679e-10
  8.24389    -43.5 1.157e+04 6.621e-10
  8.25817    -44.0 1.153e+04 6.493e-10
  8.27867    -44.4 1.149e+04 6.345e-10
  8.29916    -44.8 1.143e+04 5.836e-10
  8.30984    -45.5 1.133e+04 5.196e-10
  8.32009    -47.4 1.119e+04 4.081e-10
  8.34016    -48.5 1.118e+04 3.852e-10
  8.36066    -49.7 1.124e+04 3.872e-10
  8.37358    -51.4 1.154e+04 4.581e-10
  8.37847    -52.2 1.166e+04 5.253e-10
  8.38604    -54.0 1.152e+04 5.526e-10
  8.40165    -55.3 1.189e+04 7.526e-10
  8.42215    -56.8 1.260e+04 1.149e-09
  8.44175    -58.6 1.355e+04 1.799e-09
  8.45200    -59.7 1.360e+04 1.847e-09
  8.46314    -61.8 1.464e+04 2.874e-09
  8.48364    -63.8 1.545e+04 4.208e-09
  8.50413    -65.6 1.592e+04 5.436e-09
  8.51795    -67.3 1.599e+04 5.947e-09
  8.52820    -68.2 1.601e+04 6.044e-09
  8.53510    -69.7 1.590e+04 6.064e-09
  8.54535    -70.8 1.560e+04 5.631e-09
  8.56562    -71.7 1.479e+04 4.190e-09
  8.58391    -73.0 1.383e+04 2.783e-09
  8.59415    -74.0 1.379e+04 2.633e-09
  8.60662    -75.7 1.272e+04 1.683e-09
  8.62712    -77.2 1.173e+04 1.109e-09
  8.64761    -78.2 1.095e+04 7.682e-10
  8.66011    -78.9 1.041e+04 5.584e-10
  8.67036    -79.4 1.028e+04 5.341e-10
  8.68636    -79.9 9.928e+03 4.130e-10
  8.69661    -80.7 9.934e+03 4.165e-10
  8.70910    -81.2 9.747e+03 3.578e-10
  8.72616    -81.4 9.623e+03 3.180e-10
  8.74676    -81.9 9.649e+03 3.320e-10
  8.78104    -82.1 9.443e+03 2.895e-10
  8.82203    -82.4 9.250e+03 2.595e-10
  8.85817    -82.7 9.131e+03 2.420e-10
  8.87866    -82.8 9.460e+03 3.440e-10
  8.90402    -83.1 9.484e+03 3.524e-10
  8.94501    -84.0 9.654e+03 3.742e-10
  8.97566    -85.8 1.014e+04 4.990e-10
  8.99606    -86.9 1.048e+04 5.993e-10
  9.00940    -88.1 1.082e+04 7.294e-10
  9.01346    -88.8 1.089e+04 7.769e-10
  9.02063    -89.0 1.109e+04 9.337e-10
  9.03705    -90.1 1.136e+04 1.056e-09
  9.05755    -91.5 1.157e+04 1.147e-09
  9.07633    -93.0 1.173e+04 1.207e-09
  9.08658    -92.8 1.170e+04 1.255e-09
  9.09855    -94.0 1.179e+04 1.265e-09
  9.11904    -95.7 1.192e+04 1.288e-09
  9.13954    -97.6 1.209e+04 1.340e-09
  9.15253    -99.8 1.236e+04 1.453e-09
  9.16278   -100.5 1.253e+04 1.509e-09
  9.17091   -103.0 1.300e+04 1.870e-09
  9.18116   -104.0 1.299e+04 1.863e-09
  9.20103   -106.0 1.345e+04 2.293e-09
  9.21849   -107.8 1.387e+04 2.636e-09
  9.22874   -109.1 1.494e+04 4.176e-09
  9.24202   -111.3 1.550e+04 4.879e-09
  9.26252   -113.8 1.598e+04 5.364e-09
  9.28302   -116.6 1.639e+04 5.815e-09
  9.29469   -119.5 1.680e+04 6.373e-09
  9.30494   -121.2 1.795e+04 1.044e-08
  9.32218   -123.7 1.811e+04 1.054e-08
  9.33243   -125.1 1.862e+04 1.282e-08
  9.34451   -127.3 1.850e+04 1.217e-08
  9.36064   -129.2 1.815e+04 1.056e-08
  9.37089   -130.7 1.733e+04 8.259e-09
  9.38550   -132.6 1.659e+04 5.941e-09
  9.40600   -134.9 1.589e+04 4.259e-09
  9.42650   -137.3 1.541e+04 3.183e-09
  9.43685   -139.8 1.513e+04 2.513e-09
  9.44710   -142.2 1.311e+04 1.255e-09
  9.46749   -144.4 1.268e+04 1.077e-09
  9.48369   -146.3 1.251e+04 1.021e-09
  9.49394   -146.0 1.230e+04 9.479e-10
  9.50280   -147.7 1.229e+04 9.275e-10
  9.51305   -147.9 1.174e+04 8.545e-10
  9.52898   -149.1 1.177e+04 8.419e-10
  9.54948   -150.4 1.181e+04 8.404e-10
  9.56876   -151.6 1.207e+04 9.100e-10
  9.57900   -150.8 1.199e+04 8.400e-10
  9.59047   -151.9 1.234e+04 1.035e-09
  9.61097   -152.5 1.270e+04 1.352e-09
  9.63147   -152.8 1.304e+04 1.707e-09
  9.64496   -153.0 1.336e+04 2.004e-09
  9.64845   -153.5 1.396e+04 2.462e-09
  9.65546   -152.3 1.347e+04 1.951e-09
  9.67246   -152.8 1.407e+04 2.503e-09
  9.69296   -153.5 1.469e+04 3.087e-09
  9.71091   -154.6 1.522e+04 3.693e-09
  9.72116   -155.6 1.627e+04 6.082e-09
  9.73395   -156.3 1.659e+04 7.449e-09
  9.75445   -156.8 1.670e+04 8.383e-09
  9.77495   -157.2 1.674e+04 8.680e-09
  9.78711   -157.6 1.645e+04 8.022e-09
  9.79736   -157.2 1.646e+04 7.576e-09
  9.80673   -157.5 1.581e+04 5.773e-09
  9.81697   -156.7 1.645e+04 7.568e-09
  9.83644   -157.1 1.563e+04 5.402e-09
  9.85307   -157.5 1.480e+04 3.628e-09
  9.86332   -158.0 1.458e+04 2.019e-09
  9.87743   -159.0 1.379e+04 1.288e-09
  9.89793   -159.8 1.306e+04 8.948e-10
  9.91842   -160.2 1.240e+04 6.782e-10
  9.92927   -160.4 1.183e+04 5.514e-10
  9.93952   -161.2 1.071e+04 4.311e-10
  9.95799   -160.7 1.053e+04 3.855e-10
  9.96824   -160.3 1.068e+04 4.036e-10
  9.97991   -159.8 1.054e+04 3.616e-10
  9.99523   -159.3 1.045e+04 3.293e-10
 10.01582   -159.2 1.039e+04 3.300e-10
 10.05185   -157.7 1.017e+04 2.762e-10
 10.09284   -155.6 9.870e+03 2.262e-10
 10.12733   -153.5 9.673e+03 1.954e-10
 10.14783   -152.7 9.435e+03 1.531e-10
 10.17483   -150.7 9.370e+03 1.301e-10
 10.21583   -148.8 9.401e+03 1.205e-10
 10.25682   -146.9 9.447e+03 1.172e-10
 10.27973   -145.1 9.469e+03 1.164e-10
 10.28364   -144.1 9.367e+03 8.935e-11
 10.30172   -143.6 9.450e+03 9.531e-11
 10.33881   -141.9 9.535e+03 9.767e-11
 10.37980   -140.3 9.636e+03 1.074e-10
 10.41164   -138.7 9.717e+03 1.237e-10
 10.43214   -137.8 9.660e+03 1.045e-10
 10.46179   -136.2 9.722e+03 1.267e-10
 10.50278   -134.6 9.799e+03 1.528e-10
 10.54355   -133.0 9.892e+03 1.786e-10
 10.56405   -132.0 9.748e+03 1.530e-10
 10.58375   -130.5 9.825e+03 1.761e-10
 10.60425   -130.0 9.817e+03 1.620e-10
 10.62576   -128.7 9.873e+03 1.789e-10
 10.66676   -127.5 9.911e+03 1.888e-10
 10.69596   -126.4 9.928e+03 1.912e-10
 10.71645   -125.6 9.810e+03 1.689e-10
 10.74875   -124.6 9.830e+03 1.762e-10
 10.78974   -123.7 9.825e+03 1.793e-10
 10.82787   -123.0 9.816e+03 1.800e-10
 10.84836   -122.1 9.760e+03 1.801e-10
 10.87173   -121.6 9.794e+03 1.839e-10
 10.90679   -121.3 9.815e+03 1.991e-10
 10.92728   -120.3 9.680e+03 1.517e-10
 10.95372   -120.1 9.739e+03 1.780e-10
 10.98027   -120.2 1.022e+04 2.806e-10
 11.00077   -119.4 1.016e+04 2.858e-10
 11.03570   -119.5 1.080e+04 5.012e-10
 11.07670   -119.7 1.141e+04 8.175e-10
 11.11218   -120.1 1.177e+04 1.071e-09
 11.13268   -119.5 1.185e+04 1.159e-09
 11.15868   -120.2 1.196e+04 1.244e-09
 11.19968   -120.8 1.173e+04 1.115e-09
 11.22982   -121.1 1.103e+04 6.403e-10
 11.25031   -119.8 1.115e+04 7.185e-10
 11.26458   -120.1 1.044e+04 3.944e-10
 11.28508   -119.7 1.073e+04 5.047e-10
 11.32266   -120.4 1.030e+04 3.473e-10
 11.36365   -121.4 1.024e+04 3.263e-10
 11.39649   -122.8 1.050e+04 4.034e-10
 11.41699   -122.7 1.098e+04 5.927e-10
 11.44564   -124.5 1.128e+04 7.849e-10
 11.48664   -126.6 1.133e+04 8.360e-10
 11.52763   -128.5 1.088e+04 7.320e-10
 11.54890   -129.6 1.009e+04 4.415e-10
 11.55362   -129.7 1.006e+04 4.166e-10
 11.56300   -128.3 1.057e+04 5.636e-10
 11.57868   -128.7 1.024e+04 4.292e-10
 11.60952   -129.3 9.512e+03 2.711e-10
 11.65061   -129.3 8.942e+03 1.641e-10
 11.68081   -128.1 8.444e+03 9.393e-11
 11.70130   -127.8 8.468e+03 1.024e-10
 11.73260   -126.0 8.140e+03 6.220e-11
 11.77359   -124.3 8.017e+03 4.221e-11
 11.81271   -122.7 7.999e+03 3.413e-11
 11.83321   -122.2 8.039e+03 3.839e-11
 11.85538   -120.5 8.050e+03 3.651e-11
 11.87588   -119.4 8.064e+03 3.781e-11
 11.89658   -117.7 8.073e+03 3.635e-11
 11.93757   -116.4 8.118e+03 3.664e-11
 11.96512   -116.0 8.255e+03 5.109e-11
 11.98562   -116.0 8.456e+03 7.080e-11
 12.01956   -115.9 9.180e+03 1.750e-10
 12.06055   -115.5 9.974e+03 3.945e-10
 12.09703   -115.3 1.071e+04 6.866e-10
 12.11752   -115.9 1.078e+04 6.982e-10
 12.14254   -116.8 1.140e+04 8.966e-10
 12.17841   -118.4 1.186e+04 9.755e-10
 12.19891   -116.0 1.231e+04 1.348e-09
 12.21418   -118.2 1.247e+04 1.302e-09
 12.23458   -120.3 1.259e+04 1.245e-09
 12.24924   -122.3 1.222e+04 1.113e-09
 12.25949   -123.7 1.176e+04 8.472e-10
 12.27557   -125.2 1.133e+04 7.313e-10
 12.29607   -126.3 1.108e+04 6.427e-10
 12.31519   -127.1 1.093e+04 5.720e-10
 12.32544   -128.6 1.062e+04 4.653e-10
 12.33706   -129.1 1.052e+04 4.551e-10
 12.34998   -129.5 1.047e+04 4.545e-10
 12.36023   -128.6 1.046e+04 4.315e-10
 12.37806   -128.8 1.042e+04 4.316e-10
 12.39139   -129.0 1.039e+04 4.359e-10
 12.40164   -130.1 1.030e+04 4.571e-10
 12.41905   -129.8 1.029e+04 4.905e-10
 12.43955   -129.5 1.033e+04 5.327e-10
 12.45735   -129.1 1.041e+04 5.796e-10
 12.46760   -129.6 1.033e+04 5.674e-10
 12.48054   -129.2 1.035e+04 5.786e-10
 12.50104   -128.9 1.036e+04 5.787e-10
 12.51150   -128.6 1.033e+04 5.535e-10
 12.52175   -127.6 1.039e+04 5.680e-10
 12.53355   -127.1 1.040e+04 5.634e-10
 12.55415   -127.3 9.860e+03 3.903e-10
 12.59347   -126.4 9.641e+03 3.287e-10
 12.63447   -125.6 9.358e+03 2.758e-10
 12.66566   -124.9 9.073e+03 2.379e-10
 12.68615   -125.3 8.482e+03 1.608e-10
 12.71645   -124.4 8.497e+03 1.530e-10
 12.75745   -123.6 8.512e+03 1.529e-10
 12.79756   -122.9 8.624e+03 1.594e-10
 12.81806   -122.1 8.626e+03 1.607e-10
 12.82448   -121.5 8.756e+03 1.721e-10
 12.84497   -120.6 8.657e+03 1.410e-10
 12.88043   -120.2 8.809e+03 1.587e-10
 12.92142   -119.8 8.961e+03 1.798e-10
 12.94997   -119.4 9.109e+03 2.026e-10
 12.97047   -118.4 9.117e+03 2.117e-10
 13.00341   -118.0 9.231e+03 2.254e-10
 13.04440   -117.7 9.304e+03 2.340e-10
 13.08188   -117.3 9.403e+03 2.454e-10
 13.10237   -116.3 9.264e+03 2.306e-10
 13.12639   -115.8 9.265e+03 2.293e-10
 13.14751   -115.1 9.395e+03 2.458e-10
 13.16801   -113.8 9.274e+03 2.038e-10
 13.20838   -113.1 9.585e+03 2.606e-10
 13.23428   -112.3 9.865e+03 3.316e-10
 13.25478   -111.2 9.657e+03 2.838e-10
 13.29037   -110.4 9.866e+03 3.311e-10
 13.33136   -109.5 9.917e+03 3.425e-10
 13.36619   -108.6 9.909e+03 3.353e-10
 13.38669   -107.6 9.739e+03 2.949e-10
 13.41335   -106.3 9.681e+03 2.672e-10
 13.45004   -104.8 9.630e+03 2.353e-10
 13.47054   -103.8 9.680e+03 2.408e-10
 13.49534   -102.2 9.696e+03 2.275e-10
 13.51860   -100.8 9.706e+03 2.260e-10
 13.53909    -99.8 9.492e+03 1.853e-10
 13.57733    -98.7 9.519e+03 1.868e-10
 13.61832    -98.1 9.596e+03 1.894e-10
 13.65050    -97.8 1.008e+04 2.087e-10
 13.67100    -97.1 9.901e+03 2.181e-10
 13.68996    -98.5 9.954e+03 3.938e-10
 13.71036   -100.6 1.156e+04 7.984e-10
 13.72651   -103.6 1.409e+04 1.663e-09
 13.73676   -101.3 1.236e+04 1.147e-09
 13.75135   -104.1 1.510e+04 2.659e-09
 13.77185   -106.6 1.739e+04 5.773e-09
 13.78313   -109.2 1.886e+04 9.904e-09
 13.79338   -108.5 1.833e+04 8.779e-09
 13.80271   -111.4 1.887e+04 1.027e-08
 13.81296   -109.0 1.817e+04 7.445e-09
 13.83334   -112.0 1.848e+04 7.932e-09
 13.85384   -115.3 1.811e+04 7.156e-09
 13.86867   -118.6 1.689e+04 5.050e-09
 13.87892   -116.2 1.745e+04 5.405e-09
 13.89483   -119.3 1.610e+04 4.112e-09
 13.91533   -121.5 1.471e+04 3.191e-09
 13.93440   -122.7 1.371e+04 2.540e-09
 13.94344   -122.2 1.350e+04 1.953e-09
 13.94487   -120.9 1.419e+04 2.375e-09
 13.95632   -121.7 1.354e+04 2.076e-09
 13.97682   -122.0 1.302e+04 1.801e-09
 13.99732   -122.0 1.253e+04 1.534e-09
 14.01083   -121.9 1.207e+04 1.278e-09
 14.02107   -121.4 1.277e+04 1.731e-09
 14.03831   -121.2 1.230e+04 1.419e-09
 14.05881   -120.8 1.191e+04 1.141e-09
 14.07678   -120.3 1.167e+04 9.276e-10
 14.08703   -119.9 1.208e+04 1.200e-09
 14.09591   -119.4 1.188e+04 9.816e-10
 14.10616   -119.0 1.216e+04 9.512e-10
 14.12030   -118.8 1.194e+04 8.291e-10
 14.14080   -118.3 1.184e+04 7.709e-10
 14.15298   -117.9 1.183e+04 7.472e-10
 14.16323   -117.6 1.200e+04 8.218e-10
 14.18179   -117.3 1.197e+04 7.824e-10
 14.20229   -116.9 1.193e+04 7.463e-10
 14.21894   -116.6 1.188e+04 7.067e-10
 14.22918   -116.5 1.190e+04 7.255e-10
 14.24328   -116.3 1.178e+04 6.709e-10
 14.25743   -116.1 1.163e+04 6.175e-10
 14.26768   -115.7 1.163e+04 7.552e-10
 14.28428   -115.6 1.151e+04 6.939e-10
 14.29514   -115.4 1.136e+04 6.310e-10
 14.30539   -115.2 1.126e+04 6.219e-10
 14.32527   -114.9 1.111e+04 5.491e-10
 14.34577   -114.6 1.102e+04 4.804e-10
 14.36109   -114.6 1.095e+04 4.281e-10
 14.37144   -114.5 1.085e+04 3.800e-10
 14.39720   -114.2 1.073e+04 3.386e-10
 14.41914   -113.4 1.054e+04 3.002e-10
 14.43964   -113.1 1.061e+04 3.546e-10
 14.47919   -112.2 1.043e+04 3.312e-10
 14.50345   -111.3 1.030e+04 3.178e-10
 14.52394   -110.4 1.009e+04 2.480e-10
 14.56118   -109.6 1.006e+04 2.459e-10
 14.60217   -108.7 1.003e+04 2.376e-10
 14.63535   -107.9 9.992e+03 2.172e-10
 14.65585   -106.9 9.890e+03 1.792e-10
 14.68416   -106.0 9.838e+03 1.641e-10
 14.72167   -105.2 9.779e+03 1.492e-10
 14.74217   -104.3 9.813e+03 1.515e-10
 14.76615   -103.5 9.766e+03 1.394e-10
 14.78776   -102.5 9.759e+03 1.346e-10
 14.80826   -101.3 9.730e+03 1.406e-10
 14.84814   -100.3 9.721e+03 1.403e-10
 14.88913    -99.2 9.721e+03 1.404e-10
 14.91967    -98.1 9.742e+03 1.411e-10
 14.94016    -96.8 9.737e+03 1.494e-10
 14.97112    -95.7 9.776e+03 1.497e-10
 15.01211    -94.7 9.853e+03 1.540e-10
 15.04470    -93.7 9.919e+03 1.599e-10
 15.06367    -92.6 9.895e+03 1.557e-10
 15.07207    -91.2 9.945e+03 1.642e-10
 15.09410    -90.3 9.980e+03 1.641e-10
 15.13509    -89.5 9.984e+03 1.640e-10
 15.17609    -88.5 9.954e+03 1.562e-10
 15.20398    -87.3 9.844e+03 1.286e-10
 15.22448    -86.0 9.936e+03 1.389e-10
 15.25808    -84.7 9.796e+03 1.055e-10
 15.29907    -83.4 9.655e+03 7.606e-11
 15.33589    -82.0 9.545e+03 5.484e-11
 15.35639    -80.8 9.615e+03 6.676e-11
 15.36774    -79.4 9.526e+03 5.216e-11
 15.38823    -78.5 9.577e+03 5.460e-11
 15.42205    -77.1 9.530e+03 4.569e-11
 15.46305    -75.7 9.535e+03 4.238e-11
 15.48829    -74.2 9.542e+03 4.186e-11
 15.50879    -72.9 9.593e+03 5.612e-11
 15.54503    -71.6 9.634e+03 5.641e-11
 15.58603    -70.4 9.759e+03 6.043e-11
 15.62020    -69.4 9.886e+03 6.752e-11
 15.64070    -67.9 9.898e+03 7.782e-11
 15.66801    -67.0 1.003e+04 8.073e-11
 15.69077    -66.4 1.021e+04 8.822e-11
 15.71126    -65.6 1.023e+04 8.969e-11
 15.75000    -65.2 1.040e+04 1.067e-10
 15.77261    -64.9 1.055e+04 1.373e-10
 15.79310    -63.4 1.053e+04 1.286e-10
 15.83199    -63.3 1.073e+04 1.842e-10
 15.87298    -63.2 1.099e+04 2.589e-10
 15.90452    -63.2 1.131e+04 3.448e-10
 15.92501    -61.6 1.156e+04 3.923e-10
 15.94463    -62.4 1.169e+04 4.299e-10
 15.96503    -62.6 1.175e+04 4.442e-10
 15.98052    -63.1 1.186e+04 4.680e-10
 15.99077    -62.7 1.191e+04 5.181e-10
 16.00336    -63.3 1.194e+04 5.320e-10
 16.01370    -61.7 1.171e+04 4.015e-10
 16.02661    -62.3 1.172e+04 4.222e-10
 16.04648    -62.6 1.169e+04 4.111e-10
 16.05673    -62.3 1.176e+04 4.497e-10
 16.06751    -62.6 1.171e+04 4.270e-10
 16.08801    -62.8 1.168e+04 4.080e-10
 16.10850    -62.8 1.168e+04 3.949e-10
 16.12268    -62.8 1.172e+04 3.928e-10
 16.13293    -62.9 1.199e+04 4.850e-10
 16.14950    -62.8 1.198e+04 4.862e-10
 16.16487    -62.6 1.181e+04 4.624e-10
 16.17512    -61.9 1.164e+04 3.814e-10
 16.18873    -62.0 1.158e+04 3.852e-10
 16.19898    -61.5 1.173e+04 4.546e-10
 16.21099    -61.2 1.166e+04 4.394e-10
 16.23149    -60.9 1.161e+04 4.206e-10
 16.25198    -60.7 1.161e+04 4.115e-10
 16.26484    -60.4 1.161e+04 4.044e-10
 16.27509    -60.6 1.167e+04 4.762e-10
 16.29298    -60.6 1.169e+04 4.910e-10
 16.31347    -60.6 1.169e+04 5.516e-10
 16.32639    -60.7 1.176e+04 6.223e-10
 16.33346    -59.7 1.187e+04 6.733e-10
 16.34104    -59.8 1.192e+04 8.078e-10
 16.35447    -59.7 1.207e+04 8.906e-10
 16.37496    -59.7 1.233e+04 9.385e-10
 16.39546    -60.0 1.257e+04 9.549e-10
 16.40699    -60.6 1.272e+04 9.509e-10
 16.41724    -61.4 1.260e+04 8.129e-10
 16.43646    -62.3 1.247e+04 7.465e-10
 16.45695    -63.1 1.225e+04 6.765e-10
 16.47295    -63.9 1.201e+04 6.111e-10
 16.48320    -64.5 1.174e+04 5.175e-10
 16.48790    -65.1 1.153e+04 4.904e-10
 16.49815    -64.6 1.157e+04 4.924e-10
 16.51844    -65.1 1.129e+04 4.613e-10
 16.53890    -65.3 1.114e+04 4.530e-10
 16.55940    -65.1 1.104e+04 4.514e-10
 16.57993    -64.9 1.095e+04 4.478e-10
 16.60043    -64.4 1.086e+04 4.419e-10
 16.61511    -63.9 1.078e+04 4.306e-10
 16.62535    -63.6 1.088e+04 4.746e-10
 16.63917    -62.9 1.081e+04 4.560e-10
 16.64942    -62.5 1.076e+04 4.250e-10
 16.66192    -61.7 1.073e+04 4.149e-10
 16.68106    -60.9 1.071e+04 4.070e-10
 16.69131    -60.7 1.080e+04 4.443e-10
 16.70292    -59.8 1.078e+04 4.344e-10
 16.72341    -58.9 1.075e+04 4.232e-10
 16.74391    -57.9 1.071e+04 4.119e-10
 16.75726    -56.8 1.067e+04 4.013e-10
 16.76751    -56.5 1.074e+04 4.264e-10
 16.78490    -55.0 1.070e+04 4.120e-10
 16.80069    -53.3 1.069e+04 4.039e-10
 16.81093    -53.2 1.065e+04 3.987e-10
 16.82322    -52.5 1.075e+04 4.022e-10
 16.83346    -52.2 1.084e+04 4.240e-10
 16.84639    -56.4 1.394e+04 4.286e-10
 16.86689    -70.7 2.610e+04 1.106e-09
 16.88739    -79.1 2.340e+04 9.713e-09
 16.89937    -83.2 2.161e+04 3.362e-08
 16.90445    -83.1 2.167e+04 3.293e-08
 16.91291    -84.4 2.212e+04 4.902e-08
 16.92316    -86.8 2.312e+04 5.567e-08
 16.93230    -91.2 2.369e+04 5.522e-08
 16.93742    -92.6 2.425e+04 4.521e-08
 16.94366   -100.8 2.634e+04 2.758e-08
 16.95391   -110.6 2.490e+04 1.526e-08
 16.96210   -118.1 2.228e+04 1.192e-08
 16.96840   -117.3 2.147e+04 1.013e-08
 16.97562   -118.2 2.198e+04 9.481e-09
 16.98470   -124.2 2.140e+04 9.784e-09
 16.99490   -126.2 2.139e+04 1.135e-08
 17.00338   -128.6 2.110e+04 1.489e-08
 17.00850   -129.7 2.114e+04 1.529e-08
 17.01540   -131.4 2.157e+04 2.065e-08
 17.02564   -132.4 2.230e+04 3.039e-08
 17.03589   -133.4 2.287e+04 4.140e-08
 17.04148   -134.7 2.325e+04 5.168e-08
 17.04332   -135.8 2.311e+04 4.979e-08
 17.04799   -136.4 2.294e+04 4.230e-08
 17.05639   -138.3 2.305e+04 4.466e-08
 17.06664   -140.2 2.303e+04 4.490e-08
 17.07445   -141.7 2.276e+04 4.104e-08
 17.07958   -142.4 2.232e+04 3.584e-08
 17.08714   -144.0 2.199e+04 2.700e-08
 17.09738   -146.0 2.148e+04 1.903e-08
 17.10743   -147.9 2.077e+04 1.341e-08
 17.11773   -148.4 2.032e+04 1.177e-08
 17.12372   -152.4 1.894e+04 5.576e-09
 17.13397   -155.8 1.724e+04 3.899e-09
 17.15385   -161.3 1.392e+04 1.734e-09
 17.17348   -164.3 1.234e+04 1.162e-09
 17.18373   -164.6 1.171e+04 8.589e-10
 17.19484   -165.1 1.138e+04 7.722e-10
 17.21534   -165.3 1.125e+04 7.289e-10
 17.23584   -165.5 1.113e+04 6.834e-10
 17.24969   -165.7 1.103e+04 6.504e-10
 17.25993   -165.6 1.072e+04 5.326e-10
 17.27498   -165.8 1.072e+04 5.281e-10
 17.28523   -166.3 1.084e+04 5.653e-10
 17.29733   -166.6 1.084e+04 5.675e-10
 17.31564   -166.8 1.094e+04 6.009e-10
 17.32589   -167.4 1.071e+04 4.861e-10
 17.34867   -167.9 1.082e+04 5.252e-10
 17.38976   -167.6 1.083e+04 5.551e-10
 17.43075   -167.1 1.072e+04 5.445e-10
 17.45799   -166.6 1.040e+04 4.841e-10
 17.47849   -165.8 9.976e+03 3.622e-10
 17.51274   -165.1 9.662e+03 3.045e-10
 17.55373   -164.2 9.335e+03 2.341e-10
 17.58796   -163.1 9.038e+03 1.751e-10
 17.60363   -163.8 8.908e+03 1.493e-10
 17.61040   -162.9 8.780e+03 1.307e-10
 17.63572   -161.5 8.671e+03 1.076e-10
 17.67672   -160.0 8.673e+03 9.637e-11
 17.71771   -158.4 8.687e+03 9.360e-11
 17.74231   -156.9 8.692e+03 9.323e-11
 17.76280   -155.9 8.567e+03 8.660e-11
 17.79970   -154.3 8.628e+03 9.421e-11
 17.84069   -152.8 8.728e+03 1.048e-10
 17.87421   -151.1 8.829e+03 1.139e-10
 17.89471   -150.1 8.758e+03 1.140e-10
 17.91099   -148.4 8.769e+03 1.178e-10
 17.93149   -148.5 8.880e+03 1.263e-10
 17.96367   -146.6 8.876e+03 1.291e-10
 18.00467   -144.6 8.871e+03 1.295e-10
 18.02662   -142.4 8.815e+03 1.264e-10
 18.04712   -141.5 8.748e+03 1.197e-10
 18.08666   -139.2 8.705e+03 1.121e-10
 18.12765   -136.7 8.673e+03 1.048e-10
 18.15853   -134.2 8.665e+03 9.892e-11
 18.17903   -133.4 8.619e+03 9.399e-11
 18.20964   -130.9 8.629e+03 8.968e-11
 18.23403   -128.5 8.651e+03 8.619e-11
 18.25452   -128.1 8.731e+03 1.011e-10
 18.29044   -125.6 8.771e+03 9.999e-11
 18.31093   -124.9 8.709e+03 8.916e-11
 18.33262   -122.5 8.743e+03 8.598e-11
 18.37361   -120.0 8.779e+03 8.280e-11
 18.41461   -117.6 8.810e+03 7.983e-11
 18.44284   -115.1 8.827e+03 7.747e-11
 18.46334   -114.5 8.772e+03 7.103e-11
 18.49659   -112.2 8.869e+03 7.437e-11
 18.53656   -109.9 8.943e+03 8.089e-11
 18.55706   -109.3 9.024e+03 9.038e-11
 18.57475   -107.1 9.111e+03 1.020e-10
 18.59525   -106.5 9.102e+03 1.018e-10
 18.61958   -104.3 9.200e+03 1.170e-10
 18.66057   -102.1 9.305e+03 1.335e-10
 18.70156    -99.9 9.403e+03 1.492e-10
 18.72716    -97.8 9.469e+03 1.602e-10
 18.74765    -97.3 9.348e+03 1.334e-10
 18.78355    -95.2 9.362e+03 1.312e-10
 18.82455    -93.2 9.367e+03 1.270e-10
 18.85906    -91.1 9.352e+03 1.208e-10
 18.87361    -90.5 9.234e+03 8.950e-11
 18.88009    -89.9 9.323e+03 1.183e-10
 18.90653    -87.9 9.317e+03 1.119e-10
 18.94753    -85.8 9.316e+03 1.067e-10
 18.98852    -83.7 9.314e+03 1.028e-10
 19.01147    -81.6 9.319e+03 9.922e-11
 19.03197    -81.1 9.298e+03 9.876e-11
 19.07051    -79.0 9.330e+03 9.841e-11
 19.11150    -76.9 9.371e+03 9.860e-11
 19.14338    -74.9 9.438e+03 1.025e-10
 19.16387    -74.8 9.508e+03 1.224e-10
 19.18262    -73.2 9.679e+03 1.485e-10
 19.20312    -72.5 9.755e+03 1.605e-10
 19.23448    -71.1 9.961e+03 2.006e-10
 19.27529    -69.8 1.023e+04 2.668e-10
 19.31628    -69.3 1.070e+04 4.042e-10
 19.35747    -68.9 1.092e+04 4.566e-10
 19.39846    -68.7 1.100e+04 4.708e-10
 19.42769    -68.8 1.100e+04 4.440e-10
 19.44819    -69.5 1.087e+04 3.967e-10
 19.48045    -69.4 1.070e+04 3.196e-10
 19.50565    -69.3 1.053e+04 2.631e-10
 19.52615    -69.0 1.059e+04 2.883e-10
 19.55960    -69.1 1.054e+04 2.803e-10
 19.58010    -69.4 1.034e+04 2.448e-10
 19.60343    -69.1 1.035e+04 2.687e-10
 19.64442    -68.5 1.045e+04 3.207e-10
 19.68542    -67.7 1.053e+04 3.658e-10
 19.71200    -66.5 1.056e+04 3.859e-10
 19.73250    -66.2 1.048e+04 3.774e-10
 19.76741    -64.7 1.046e+04 3.792e-10
 19.80819    -63.0 1.036e+04 3.340e-10
 19.82869    -63.3 1.047e+04 3.562e-10
 19.84391    -61.6 1.038e+04 2.971e-10
 19.86441    -60.9 1.021e+04 2.807e-10
 19.89039    -59.1 1.016e+04 2.357e-10
 19.93138    -57.4 1.016e+04 2.142e-10
 19.97237    -55.6 1.017e+04 2.100e-10
 19.99632    -53.9 1.021e+04 2.118e-10
 20.01682    -53.1 1.006e+04 2.029e-10
 20.05436    -51.6 1.028e+04 2.273e-10
 20.09536    -50.3 1.046e+04 2.755e-10
 20.12823    -49.1 1.058e+04 3.297e-10
 20.14359    -48.4 1.062e+04 3.638e-10
 20.15172    -48.6 1.085e+04 4.654e-10
 20.17734    -47.7 1.109e+04 5.769e-10
 20.21834    -46.9 1.128e+04 6.524e-10
 20.25933    -46.1 1.142e+04 6.785e-10
 20.28063    -45.2 1.148e+04 6.858e-10
 20.30113    -44.7 1.170e+04 8.362e-10
 20.34132    -43.9 1.181e+04 7.642e-10
 20.38231    -42.8 1.198e+04 7.427e-10
 20.41244    -42.2 1.214e+04 7.641e-10
 20.42259    -42.3 1.234e+04 8.726e-10
 20.43336    -42.3 1.241e+04 8.899e-10
 20.45386    -42.1 1.243e+04 9.109e-10
 20.46431    -42.0 1.242e+04 9.218e-10
 20.47455    -41.9 1.256e+04 9.950e-10
 20.48855    -41.5 1.250e+04 1.001e-09
 20.49880    -41.7 1.263e+04 1.138e-09
 20.51535    -41.2 1.253e+04 1.043e-09
 20.53585    -40.7 1.243e+04 9.081e-10
 20.55450    -40.2 1.231e+04 7.608e-10
 20.56475    -40.5 1.235e+04 7.375e-10
 20.57684    -40.1 1.219e+04 5.931e-10
 20.59734    -39.8 1.200e+04 4.830e-10
 20.61557    -39.5 1.181e+04 4.062e-10
 20.62582    -40.1 1.201e+04 4.871e-10
 20.63070    -39.8 1.187e+04 4.557e-10
 20.64095    -40.2 1.186e+04 4.528e-10
 20.65883    -39.9 1.185e+04 4.535e-10
 20.67932    -39.8 1.191e+04 4.688e-10
 20.69666    -39.9 1.200e+04 5.452e-10
 20.70691    -40.7 1.211e+04 6.306e-10
 20.72032    -40.5 1.217e+04 8.119e-10
 20.74082    -40.0 1.226e+04 9.951e-10
 20.76131    -39.5 1.235e+04 1.111e-09
 20.77286    -39.0 1.239e+04 1.141e-09
 20.77839    -39.2 1.259e+04 1.354e-09
 20.78734    -39.4 1.266e+04 1.296e-09
 20.80231    -39.1 1.254e+04 1.052e-09
 20.82280    -39.1 1.233e+04 8.037e-10
 20.83882    -39.2 1.208e+04 6.238e-10
 20.84906    -40.1 1.209e+04 6.195e-10
 20.86380    -40.3 1.185e+04 5.016e-10
 20.88429    -40.5 1.174e+04 4.366e-10
 20.91514    -40.6 1.171e+04 4.113e-10
 20.95623    -40.1 1.166e+04 3.791e-10
 20.98117    -39.2 1.159e+04 3.508e-10
 21.00166    -39.9 1.167e+04 4.191e-10
 21.03822    -38.9 1.164e+04 3.806e-10
 21.07921    -37.9 1.157e+04 3.341e-10
 21.10032    -36.8 1.147e+04 2.843e-10
 21.11368    -37.2 1.136e+04 2.545e-10
 21.13357    -37.7 1.148e+04 2.985e-10
 21.16120    -36.4 1.135e+04 2.552e-10
 21.20219    -35.2 1.122e+04 2.237e-10
 21.24319    -33.9 1.117e+04 2.110e-10
 21.26548    -32.8 1.118e+04 2.091e-10
 21.28598    -33.1 1.153e+04 2.950e-10
 21.32517    -32.3 1.178e+04 3.616e-10
 21.35582    -32.1 1.202e+04 4.615e-10
 21.37622    -32.5 1.213e+04 5.882e-10
 21.39672    -32.8 1.228e+04 8.381e-10
 21.40744    -32.8 1.248e+04 1.131e-09
 21.41338    -33.1 1.265e+04 1.297e-09
 21.42315    -33.0 1.276e+04 1.389e-09
 21.43771    -32.9 1.300e+04 1.523e-09
 21.45821    -33.1 1.307e+04 1.565e-09
 21.47340    -33.6 1.306e+04 1.468e-09
 21.48365    -34.3 1.291e+04 1.309e-09
 21.49920    -34.7 1.271e+04 1.136e-09
 21.52920    -34.9 1.256e+04 1.005e-09
 21.54979    -35.8 1.211e+04 7.633e-10
 21.57114    -36.6 1.184e+04 6.646e-10
 21.61213    -37.2 1.179e+04 6.697e-10
 21.65313    -37.8 1.189e+04 8.149e-10
 21.68170    -38.4 1.191e+04 9.785e-10
 21.70220    -38.5 1.184e+04 9.467e-10
 21.72588    -38.8 1.182e+04 9.835e-10
 21.74638    -39.0 1.182e+04 9.901e-10
 21.77611    -38.9 1.146e+04 8.789e-10
 21.80675    -38.3 1.107e+04 6.571e-10
 21.82366    -38.4 1.090e+04 5.361e-10
 21.83391    -38.4 1.080e+04 4.999e-10
 21.85800    -38.5 1.051e+04 3.877e-10
 21.89909    -37.8 1.016e+04 2.829e-10
 21.94008    -36.6 9.891e+03 2.181e-10
 21.96602    -35.4 9.750e+03 1.860e-10
 21.98651    -35.0 9.737e+03 1.940e-10
 22.02207    -33.7 9.696e+03 1.874e-10
 22.04891    -32.4 9.664e+03 1.852e-10
 22.06941    -32.4 9.671e+03 1.901e-10
 22.09792    -31.1 9.645e+03 1.926e-10
 22.11842    -30.6 9.729e+03 2.266e-10
 22.14505    -29.3 9.696e+03 2.260e-10
 22.18605    -27.8 9.576e+03 2.170e-10
 22.22704    -26.2 9.477e+03 2.044e-10
 22.25033    -24.7 9.442e+03 1.977e-10
 22.27083    -24.3 9.496e+03 2.256e-10
 22.30903    -22.9 9.477e+03 2.188e-10
 22.35002    -21.7 9.488e+03 2.184e-10
 22.37194    -20.8 9.550e+03 2.312e-10
 22.38366    -21.0 9.453e+03 2.130e-10
 22.40274    -20.6 9.446e+03 2.144e-10
 22.43201    -20.1 9.534e+03 2.260e-10
 22.47300    -20.0 9.831e+03 2.792e-10
 22.51400    -20.0 1.018e+04 3.714e-10
 22.54464    -20.9 1.042e+04 5.174e-10
 22.56504    -21.3 1.051e+04 5.550e-10
 22.58554    -21.8 1.058e+04 5.715e-10
 22.60040    -22.3 1.063e+04 5.745e-10
 22.61065    -23.0 1.085e+04 6.386e-10
 22.62654    -23.8 1.087e+04 6.434e-10
 22.64703    -24.5 1.083e+04 6.624e-10
 22.66636    -24.9 1.076e+04 6.960e-10
 22.67661    -25.7 1.088e+04 7.721e-10
 22.68453    -25.6 1.076e+04 7.768e-10
 22.69478    -25.9 1.054e+04 6.612e-10
 22.70852    -25.8 1.038e+04 5.861e-10
 22.72902    -25.9 1.018e+04 5.141e-10
 22.75986    -25.9 9.990e+03 4.490e-10
 22.79846    -24.9 9.705e+03 3.696e-10
 22.81896    -25.7 9.741e+03 3.774e-10
 22.84195    -24.7 9.645e+03 3.504e-10
 22.88294    -23.6 9.636e+03 3.418e-10
 22.92394    -22.4 9.738e+03 3.482e-10
 22.95087    -21.5 9.826e+03 3.525e-10
 22.96102    -21.6 9.914e+03 3.916e-10
 22.97498    -21.5 9.927e+03 4.028e-10
 22.99548    -21.1 1.001e+04 4.480e-10
 23.00756    -20.7 1.008e+04 4.947e-10
 23.01791    -20.1 1.025e+04 6.087e-10
 23.04692    -18.8 1.035e+04 6.467e-10
 23.08277    -17.6 1.035e+04 6.362e-10
 23.10327    -17.4 1.059e+04 7.479e-10
 23.12891    -16.1 1.040e+04 6.349e-10
 23.16990    -14.8 1.019e+04 5.217e-10
 23.21089    -13.4 9.987e+03 4.283e-10
 23.23518    -11.7 9.815e+03 3.515e-10
 23.25568    -11.6 9.863e+03 3.703e-10
 23.29288     -9.6 9.671e+03 2.952e-10
 23.32054     -7.5 9.486e+03 2.306e-10
 23.34104     -6.7 9.403e+03 2.232e-10
 23.36709     -4.3 9.300e+03 1.782e-10
 23.38758     -4.1 9.235e+03 1.733e-10
 23.41586     -1.7 9.123e+03 1.350e-10
 23.45686      0.7 9.125e+03 1.151e-10
 23.49785      3.1 9.152e+03 1.110e-10
 23.51949      5.5 9.310e+03 1.190e-10
 23.53999      5.6 9.300e+03 1.212e-10
 23.57984      7.8 9.477e+03 1.672e-10
 23.62083     10.2 9.622e+03 2.375e-10
 23.64357     12.7 9.792e+03 3.048e-10
 23.65364     13.4 9.672e+03 2.442e-10
 23.67190     13.6 9.594e+03 2.371e-10
 23.70282     16.2 9.738e+03 2.805e-10
 23.74381     18.6 9.772e+03 2.935e-10
 23.78331     20.9 9.659e+03 2.651e-10
 23.80381     21.0 9.565e+03 2.315e-10
 23.82580     23.1 9.397e+03 1.874e-10
 23.86680     25.0 9.226e+03 1.535e-10
 23.90779     26.9 9.100e+03 1.396e-10
 23.93572     28.8 9.084e+03 1.379e-10
 23.95354     29.1 9.003e+03 1.287e-10
 23.96660     29.9 9.027e+03 1.283e-10
 23.98978     31.6 9.044e+03 1.319e-10
 24.03077     33.0 9.226e+03 1.587e-10
 24.06762     34.2 9.528e+03 2.209e-10
 24.08812     35.0 9.219e+03 1.590e-10
 24.11276     36.0 9.531e+03 2.299e-10
 24.15375     36.9 9.832e+03 3.668e-10
 24.19475     38.1 1.009e+04 5.443e-10
 24.22003     39.6 1.035e+04 6.966e-10
 24.24053     40.3 1.040e+04 7.100e-10
 24.26914     41.9 1.071e+04 8.562e-10
 24.28964     42.9 1.080e+04 8.795e-10
 24.31773     43.8 1.093e+04 8.947e-10
 24.35194     44.3 1.075e+04 7.920e-10
 24.37243     45.4 1.091e+04 8.263e-10
 24.39972     45.8 1.079e+04 8.133e-10
 24.44071     47.0 1.067e+04 8.578e-10
 24.48170     48.6 1.045e+04 7.988e-10
 24.50434     50.0 1.017e+04 6.440e-10
 24.52484     51.2 1.050e+04 7.948e-10
 24.56369     52.5 1.027e+04 6.736e-10
 24.59217     53.6 1.010e+04 6.217e-10
 24.61267     54.5 1.046e+04 7.392e-10
 24.63625     56.1 1.037e+04 7.528e-10
 24.65675     57.4 1.083e+04 9.132e-10
 24.68667     58.9 1.077e+04 9.641e-10
 24.72767     60.5 1.065e+04 9.285e-10
 24.76816     61.6 1.066e+04 8.248e-10
 24.78866     62.6 1.073e+04 8.243e-10
 24.80966     63.3 1.070e+04 7.962e-10
 24.85065     62.4 1.128e+04 1.039e-09
 24.88130     60.4 1.252e+04 1.741e-09
 24.90170     59.1 1.266e+04 2.320e-09
 24.91501     60.0 1.257e+04 2.979e-09
 24.92343     60.4 1.283e+04 3.381e-09
 24.93062     60.9 1.296e+04 3.564e-09
 24.94269     62.0 1.285e+04 3.380e-09
 24.96319     63.6 1.267e+04 2.292e-09
 24.98368     62.5 1.223e+04 1.346e-09
 24.99657     60.0 1.083e+04 6.685e-10
 25.00682     60.3 1.083e+04 6.735e-10
 25.02468     57.8 9.596e+03 3.951e-10
 25.05237     56.8 9.258e+03 2.762e-10
 25.07287     57.1 9.241e+03 2.775e-10
 25.09652     57.6 9.148e+03 2.395e-10
 25.13761     56.4 9.589e+03 2.767e-10
 25.17860     54.5 1.035e+04 4.981e-10
 25.20478     53.3 1.078e+04 7.220e-10
 25.21493     53.8 1.058e+04 6.633e-10
 25.22779     52.6 1.091e+04 7.634e-10
 25.23804     53.6 1.041e+04 5.297e-10
 25.25015     52.5 1.116e+04 8.329e-10
 25.27064     52.0 1.148e+04 8.748e-10
 25.29113     51.4 1.191e+04 8.824e-10
 25.31164     50.0 1.248e+04 9.865e-10
 25.33669     47.5 1.232e+04 1.169e-09
 25.35728     49.0 1.185e+04 7.983e-10
 25.38357     46.7 1.183e+04 1.134e-09
 25.42456     45.8 1.180e+04 1.222e-09
 25.46556     45.6 1.173e+04 1.188e-09
 25.48909     46.9 1.187e+04 1.181e-09
 25.49924     47.8 1.214e+04 1.402e-09
 25.51661     47.5 1.214e+04 1.300e-09
 25.53710     47.1 1.143e+04 1.050e-09
 25.55082     47.2 1.094e+04 9.016e-10
 25.55842     48.9 1.172e+04 1.121e-09
 25.56520     49.5 1.193e+04 1.203e-09
 25.57810     49.5 1.124e+04 1.019e-09
 25.59859     49.9 1.095e+04 9.039e-10
 25.61909     50.4 1.081e+04 7.793e-10
 25.63115     50.8 1.069e+04 6.379e-10
 25.64140     51.2 1.084e+04 7.241e-10
 25.66008     51.3 1.068e+04 6.115e-10
 25.68058     51.5 1.054e+04 5.421e-10
 25.69711     51.6 1.040e+04 5.040e-10
 25.70736     52.1 1.070e+04 6.236e-10
 25.71234     52.5 1.066e+04 6.263e-10
 25.72259     53.9 1.084e+04 6.830e-10
 25.74207     54.3 1.079e+04 6.909e-10
 25.76257     54.8 1.084e+04 7.163e-10
 25.77331     55.3 1.095e+04 7.488e-10
 25.78356     55.5 1.133e+04 9.622e-10
 25.80356     56.0 1.147e+04 1.002e-09
 25.82406     56.3 1.156e+04 1.035e-09
 25.83926     56.7 1.161e+04 1.076e-09
 25.84951     56.9 1.196e+04 1.297e-09
 25.86360     57.3 1.185e+04 1.265e-09
 25.87385     58.6 1.222e+04 1.564e-09
 25.88555     59.2 1.211e+04 1.523e-09
 25.90522     59.8 1.199e+04 1.456e-09
 25.91547     59.8 1.227e+04 1.443e-09
 25.92654     60.3 1.197e+04 1.249e-09
 25.94704     60.6 1.175e+04 1.065e-09
 25.96754     61.0 1.159e+04 9.214e-10
 25.98142     61.2 1.144e+04 8.083e-10
 25.99167     60.6 1.124e+04 6.797e-10
 26.00853     60.9 1.114e+04 6.224e-10
 26.02512     61.3 1.109e+04 5.945e-10
 26.03537     62.7 1.149e+04 7.661e-10
 26.04737     63.0 1.142e+04 7.250e-10
 26.05762     62.4 1.116e+04 6.548e-10
 26.07002     63.0 1.105e+04 6.613e-10
 26.09052     63.3 1.093e+04 6.623e-10
 26.11102     63.8 1.110e+04 7.142e-10
 26.12358     63.9 1.123e+04 7.667e-10
 26.13383     63.8 1.126e+04 7.743e-10
 26.15201     64.1 1.163e+04 9.036e-10
 26.17251     64.1 1.193e+04 1.050e-09
 26.18664     64.3 1.227e+04 1.267e-09
 26.19341     65.4 1.241e+04 1.315e-09
 26.19978     65.3 1.243e+04 1.313e-09
 26.21350     65.2 1.259e+04 1.532e-09
 26.23400     65.6 1.269e+04 1.724e-09
 26.25450     66.1 1.271e+04 1.762e-09
 26.26573     66.8 1.258e+04 1.590e-09
 26.27598     66.6 1.258e+04 1.579e-09
 26.29549     66.8 1.238e+04 1.279e-09
 26.31599     66.4 1.201e+04 9.944e-10
 26.33169     65.7 1.156e+04 8.006e-10
 26.34194     65.4 1.145e+04 7.772e-10
 26.34815     64.8 1.109e+04 7.026e-10
 26.35840     66.0 1.135e+04 7.998e-10
 26.37748     65.7 1.115e+04 7.642e-10
 26.39764     65.6 1.110e+04 7.805e-10
 26.40789     65.5 1.103e+04 7.457e-10
 26.41847     65.2 1.101e+04 7.726e-10
 26.43897     65.1 1.093e+04 7.758e-10
 26.45947     65.0 1.070e+04 7.333e-10
 26.47385     65.0 1.044e+04 6.402e-10
 26.48409     65.0 1.041e+04 6.399e-10
 26.49942     64.8 1.020e+04 5.262e-10
 26.50967     65.7 1.033e+04 5.811e-10
 26.52096     65.1 1.012e+04 4.449e-10
 26.53980     63.8 9.728e+03 3.262e-10
 26.55005     63.9 9.724e+03 3.263e-10
 26.57230     63.7 9.445e+03 2.570e-10
 26.60595     63.3 9.017e+03 2.045e-10
 26.62645     63.7 9.129e+03 2.130e-10
 26.65438     64.0 9.194e+03 2.233e-10
 26.69538     64.7 9.518e+03 2.902e-10
 26.73637     65.1 9.900e+03 3.883e-10
 26.75826     65.8 1.015e+04 5.327e-10
 26.76841     66.0 1.023e+04 5.676e-10
 26.78742     66.0 1.034e+04 6.600e-10
 26.80791     66.9 1.052e+04 7.419e-10
 26.82245     67.6 1.073e+04 7.880e-10
 26.82840     68.4 1.067e+04 7.736e-10
 26.83436     68.9 1.080e+04 8.465e-10
 26.84891     69.4 1.099e+04 8.820e-10
 26.86940     69.6 1.097e+04 8.676e-10
 26.88990     69.9 1.086e+04 8.588e-10
 26.90032     70.3 1.074e+04 7.983e-10
 26.91056     70.9 1.092e+04 9.364e-10
 26.93090     71.4 1.083e+04 8.370e-10
 26.95139     71.6 1.078e+04 7.256e-10
 26.96627     71.5 1.065e+04 6.445e-10
 26.97652     72.3 1.091e+04 7.488e-10
 26.98397     72.2 1.067e+04 6.654e-10
 26.99421     72.5 1.094e+04 7.697e-10
 27.01288     72.5 1.061e+04 6.933e-10
 27.03222     72.8 1.035e+04 6.466e-10
 27.04247     73.5 1.063e+04 7.313e-10
 27.05388     74.0 1.033e+04 6.464e-10
 27.07437     74.5 1.013e+04 5.728e-10
 27.09487     75.0 9.978e+03 5.065e-10
 27.10843     75.2 9.831e+03 4.357e-10
 27.11868     75.6 1.001e+04 4.755e-10
 27.13523     75.7 9.883e+03 4.230e-10
 27.14548     75.8 9.982e+03 4.597e-10
 27.15636     76.0 9.889e+03 4.447e-10
 27.17438     76.4 9.938e+03 4.483e-10
 27.18463     76.8 1.017e+04 5.293e-10
 27.19736     76.7 1.040e+04 5.966e-10
 27.21785     76.5 1.078e+04 7.314e-10
 27.23835     75.8 1.151e+04 1.014e-09
 27.25058     74.8 1.293e+04 1.677e-09
 27.26083     74.5 1.502e+04 3.511e-09
 27.27934     73.7 1.613e+04 5.019e-09
 27.29467     73.0 1.675e+04 6.653e-09
 27.30178     72.1 1.704e+04 7.652e-09
 27.30690     72.5 1.717e+04 7.736e-09
 27.31512     72.0 1.736e+04 1.001e-08
 27.32156     71.8 1.729e+04 1.109e-08
 27.32669     71.7 1.832e+04 1.660e-08
 27.33561     72.4 1.825e+04 1.782e-08
 27.34586     72.9 1.821e+04 1.735e-08
 27.35454     73.6 1.791e+04 1.504e-08
 27.35967     73.6 1.893e+04 1.960e-08
 27.36636     74.2 1.868e+04 1.496e-08
 27.37661     74.4 1.829e+04 1.095e-08
 27.38253     73.5 1.770e+04 7.814e-09
 27.38766     74.1 1.809e+04 9.193e-09
 27.39269     72.6 1.628e+04 5.031e-09
 27.40299     70.8 1.712e+04 6.359e-09
 27.42282     69.2 1.478e+04 3.164e-09
 27.44332     68.2 1.357e+04 2.285e-09
 27.45826     68.2 1.307e+04 1.982e-09
 27.46339     68.5 1.292e+04 1.958e-09
 27.46894     67.9 1.354e+04 2.356e-09
 27.48431     68.6 1.300e+04 2.067e-09
 27.50481     69.6 1.282e+04 1.957e-09
 27.52465     70.4 1.271e+04 1.882e-09
 27.53490     69.9 1.319e+04 2.147e-09
 27.54580     70.7 1.322e+04 2.148e-09
 27.56630     71.2 1.346e+04 2.333e-09
 27.58680     71.4 1.379e+04 2.781e-09
 27.60085     71.8 1.448e+04 3.656e-09
 27.61110     71.1 1.539e+04 4.912e-09
 27.61978     71.7 1.625e+04 7.033e-09
 27.63003     72.7 1.570e+04 5.411e-09
 27.64829     73.5 1.644e+04 7.713e-09
 27.66681     74.9 1.673e+04 9.442e-09
 27.67705     74.4 1.767e+04 1.207e-08
 27.68928     76.0 1.775e+04 1.340e-08
 27.70978     77.3 1.755e+04 1.310e-08
 27.72510     78.6 1.730e+04 1.107e-08
 27.73530     79.0 1.706e+04 1.061e-08
 27.74291     79.6 1.662e+04 7.924e-09
 27.75321     79.3 1.622e+04 7.076e-09
 27.77105     79.8 1.530e+04 4.931e-09
 27.78130     80.7 1.641e+04 7.039e-09
 27.79177     81.3 1.544e+04 4.907e-09
 27.80896     81.6 1.451e+04 3.484e-09
 27.81921     80.9 1.424e+04 3.025e-09
 27.83276     81.1 1.328e+04 2.216e-09
 27.85326     81.6 1.245e+04 1.687e-09
 27.87376     82.4 1.188e+04 1.444e-09
 27.88516     83.5 1.154e+04 1.305e-09
 27.89541     82.9 1.124e+04 1.117e-09
 27.91475     84.3 1.104e+04 1.048e-09
 27.93256     85.2 1.107e+04 1.016e-09
 27.94281     86.3 1.180e+04 1.404e-09
 27.95112     87.1 1.170e+04 1.334e-09
 27.96137     86.4 1.163e+04 1.271e-09
 27.97624     87.2 1.141e+04 1.270e-09
 27.99674     88.4 1.115e+04 1.228e-09
 28.01707     89.5 1.101e+04 1.193e-09
 28.02732     89.0 1.124e+04 1.339e-09
 28.03773     89.7 1.140e+04 1.320e-09
 28.05823     89.3 1.182e+04 1.406e-09
 28.07872     88.1 1.236e+04 1.609e-09
 28.09328     86.4 1.278e+04 1.984e-09
 28.09838     85.2 1.322e+04 2.800e-09
 28.10433     85.7 1.366e+04 3.148e-09
 28.11972     86.0 1.366e+04 3.886e-09
 28.14022     86.0 1.404e+04 4.253e-09
 28.15923     85.0 1.459e+04 4.247e-09
 28.16948     85.7 1.461e+04 4.207e-09
 28.18121     84.4 1.435e+04 3.295e-09
 28.20171     82.0 1.343e+04 2.245e-09
 28.22220     79.1 1.262e+04 1.525e-09
 28.23543     76.3 1.181e+04 1.162e-09
 28.24568     75.6 1.121e+04 9.131e-10
 28.25560     74.1 1.084e+04 8.709e-10
 28.26584     73.0 1.116e+04 1.070e-09
 28.28369     72.2 1.107e+04 1.098e-09
 28.30139     72.2 1.121e+04 1.183e-09
 28.31164     72.6 1.110e+04 1.161e-09
 28.32469     72.7 1.139e+04 1.288e-09
 28.34519     72.6 1.178e+04 1.442e-09
 28.36568     72.3 1.212e+04 1.660e-09
 28.37759     72.0 1.248e+04 1.870e-09
 28.38784     71.9 1.274e+04 2.135e-09
 28.40668     71.8 1.319e+04 2.671e-09
 28.41711     72.2 1.363e+04 3.149e-09
 28.42736     71.0 1.452e+04 4.102e-09
 28.44354     71.6 1.507e+04 4.790e-09
 28.45379     71.6 1.505e+04 4.849e-09
 28.46817     71.7 1.553e+04 5.128e-09
 28.48866     71.2 1.617e+04 5.459e-09
 28.50916     69.9 1.712e+04 6.186e-09
 28.51975     68.2 1.804e+04 7.759e-09
 28.52999     67.4 1.694e+04 5.638e-09
 28.55015     66.0 1.754e+04 6.794e-09
 28.56838     65.7 1.785e+04 8.003e-09
 28.57863     63.6 1.714e+04 6.876e-09
 28.58570     64.2 1.691e+04 6.431e-09
 28.59595     63.2 1.415e+04 2.970e-09
 28.61165     62.9 1.268e+04 2.057e-09
 28.63214     61.3 1.113e+04 1.347e-09
 28.65165     59.9 1.046e+04 9.677e-10
 28.66190     57.4 9.339e+03 5.720e-10
 28.67314     57.7 9.584e+03 5.668e-10
 28.69363     58.6 9.797e+03 5.889e-10
 28.71413     59.4 9.918e+03 6.150e-10
 28.72786     60.1 1.019e+04 7.229e-10
 28.73337     60.2 1.018e+04 7.113e-10
 28.74014     59.6 9.808e+03 6.024e-10
 28.75512     60.2 1.001e+04 6.748e-10
 28.77562     61.0 1.029e+04 7.887e-10
 28.79381     61.8 1.066e+04 9.579e-10
 28.80406     61.7 1.048e+04 8.833e-10
 28.81662     62.6 1.083e+04 1.059e-09
 28.83711     63.3 1.117e+04 1.216e-09
 28.85761     63.9 1.147e+04 1.398e-09
 28.87001     64.3 1.168e+04 1.528e-09
 28.88026     64.1 1.151e+04 1.420e-09
 28.89141     64.4 1.180e+04 1.628e-09
 28.90166     63.8 1.182e+04 1.654e-09
 28.91910     64.3 1.204e+04 1.819e-09
 28.93597     64.8 1.213e+04 1.982e-09
 28.94622     64.5 1.217e+04 2.049e-09
 28.96009     65.3 1.229e+04 2.158e-09
 28.98059     66.1 1.232e+04 2.112e-09
 29.00109     66.8 1.221e+04 1.960e-09
 29.01217     67.2 1.205e+04 1.712e-09
 29.02242     67.2 1.211e+04 1.767e-09
 29.04208     67.4 1.185e+04 1.569e-09
 29.05293     67.3 1.156e+04 1.305e-09
 29.06317     65.9 1.125e+04 1.164e-09
 29.07813     66.0 1.096e+04 1.024e-09
 29.08837     65.7 1.098e+04 1.031e-09
 29.10357     65.4 1.073e+04 8.320e-10
 29.12407     65.0 1.047e+04 7.168e-10
 29.14408     64.1 1.040e+04 5.821e-10
 29.15433     64.0 1.051e+04 6.090e-10
 29.16506     62.9 1.033e+04 5.433e-10
 29.18556     61.5 1.000e+04 4.905e-10
 29.20419     60.4 9.555e+03 4.768e-10
 29.21444     58.8 9.205e+03 3.999e-10
 29.22028     58.5 9.168e+03 4.070e-10
 29.23053     58.8 9.242e+03 3.935e-10
 29.24705     58.7 9.325e+03 3.595e-10
 29.26755     58.5 9.364e+03 3.122e-10
 29.28624     58.4 9.329e+03 2.934e-10
 29.29658     59.0 9.239e+03 2.755e-10
 29.31899     57.8 9.034e+03 2.262e-10
 29.35566     57.3 9.253e+03 2.383e-10
 29.37605     57.0 9.298e+03 2.549e-10
 29.39053     56.9 9.783e+03 3.726e-10
 29.41103     57.0 9.982e+03 4.066e-10
 29.42839     57.8 1.023e+04 5.511e-10
 29.43864     59.5 9.954e+03 4.319e-10
 29.45202     59.7 1.013e+04 4.824e-10
 29.47252     60.3 1.032e+04 6.286e-10
 29.49301     60.7 1.050e+04 6.806e-10
 29.50460     61.1 1.037e+04 7.121e-10
 29.51484     62.4 1.028e+04 6.806e-10
 29.52722     63.0 1.031e+04 6.989e-10
 29.53747     62.4 1.034e+04 7.049e-10
 29.55451     63.1 1.033e+04 7.148e-10
 29.57055     63.8 1.034e+04 7.225e-10
 29.58080     65.0 1.034e+04 7.214e-10
 29.59550     65.9 1.037e+04 7.441e-10
 29.61600     66.6 1.036e+04 7.415e-10
 29.63649     67.5 1.017e+04 7.421e-10
 29.65699     69.5 1.021e+04 7.287e-10
 29.67749     70.5 1.016e+04 7.173e-10
 29.68874     71.3 1.009e+04 7.088e-10
 29.69899     70.7 1.004e+04 6.854e-10
 29.71271     71.5 1.016e+04 6.773e-10
 29.72295     72.4 1.028e+04 7.192e-10
 29.73898     72.9 1.036e+04 7.815e-10
 29.75947     73.4 1.063e+04 8.458e-10
 29.77866     73.9 1.076e+04 9.564e-10
 29.78891     74.4 1.100e+04 1.061e-09
 29.80047     75.0 1.117e+04 1.213e-09
 29.82097     75.7 1.130e+04 1.356e-09
 29.84001     76.7 1.143e+04 1.450e-09
 29.85026     76.1 1.123e+04 1.214e-09
 29.85486     76.5 1.139e+04 1.219e-09
 29.86511     76.9 1.173e+04 1.382e-09
 29.88246     76.7 1.184e+04 1.348e-09
 29.90295     76.2 1.178e+04 1.336e-09
 29.92082     75.8 1.168e+04 1.334e-09
 29.93107     75.5 1.203e+04 1.558e-09
 29.94395     75.4 1.194e+04 1.585e-09
 29.96444     75.9 1.183e+04 1.517e-09
 29.98494     76.6 1.157e+04 1.358e-09
 29.99702     77.1 1.143e+04 1.060e-09
 30.00335     77.1 1.170e+04 1.199e-09
 30.01177     76.5 1.108e+04 7.746e-10
 30.02594     76.4 1.065e+04 6.385e-10
 30.05678     77.6 9.707e+03 3.187e-10
 30.09787     78.0 9.118e+03 1.638e-10
 30.12912     78.8 8.754e+03 1.269e-10
 30.14962     78.6 8.842e+03 1.334e-10
 30.17986     80.1 8.870e+03 1.474e-10
 30.22085     81.8 8.942e+03 1.735e-10
 30.26103     83.7 9.016e+03 1.812e-10
 30.28153     83.7 9.143e+03 1.926e-10
 30.30284     85.3 9.147e+03 1.745e-10
 30.32475     86.4 9.110e+03 1.591e-10
 30.34525     86.7 9.125e+03 1.592e-10
 30.38483     87.8 9.131e+03 1.571e-10
 30.41344     89.1 9.095e+03 1.573e-10
 30.43393     89.1 9.145e+03 1.576e-10
 30.46682     90.6 9.130e+03 1.516e-10
 30.50781     92.1 9.149e+03 1.380e-10
 30.54535     93.4 9.227e+03 1.323e-10
 30.56584     93.5 9.334e+03 1.444e-10
 30.58980     94.4 9.444e+03 1.522e-10
 30.62728     95.2 9.576e+03 1.805e-10
 30.64778     94.8 9.852e+03 2.543e-10
 30.67178     95.7 9.995e+03 3.167e-10
 30.69775     96.8 1.009e+04 3.508e-10
 30.71825     96.8 1.017e+04 3.736e-10
 30.75377     97.7 1.019e+04 3.663e-10
 30.79477     98.4 1.022e+04 3.389e-10
 30.82541     98.6 1.030e+04 3.330e-10
 30.83971     98.4 1.036e+04 3.403e-10
 30.84996     97.9 1.046e+04 3.636e-10
 30.86631     97.3 1.071e+04 4.116e-10
 30.88681     96.5 1.109e+04 5.197e-10
 30.90567     95.5 1.157e+04 7.181e-10
 30.91592     94.5 1.177e+04 8.386e-10
 30.92780     93.6 1.236e+04 1.253e-09
 30.94830     92.7 1.294e+04 1.872e-09
 30.96037     92.1 1.343e+04 2.585e-09
 30.97062     91.3 1.343e+04 2.649e-09
 30.98187     91.0 1.365e+04 2.934e-09
 30.99212     90.1 1.369e+04 2.945e-09
 31.00979     89.5 1.368e+04 2.624e-09
 31.03029     88.0 1.354e+04 2.056e-09
 31.04782     85.5 1.290e+04 1.501e-09
 31.05807     83.8 1.238e+04 1.290e-09
 31.07128     81.3 1.154e+04 1.063e-09
 31.09178     79.9 1.128e+04 9.824e-10
 31.11164     79.6 1.131e+04 9.161e-10
 31.12188     79.9 1.101e+04 8.870e-10
 31.12403     79.6 1.091e+04 7.956e-10
 31.13427     79.3 1.077e+04 7.311e-10
 31.15327     79.2 1.058e+04 6.141e-10
 31.17376     79.0 1.047e+04 5.400e-10
 31.18998     79.1 1.025e+04 4.773e-10
 31.20023     78.9 1.011e+04 4.363e-10
 31.21476     79.0 1.003e+04 4.257e-10
 31.23526     79.5 1.001e+04 4.309e-10
 31.25575     80.0 1.008e+04 4.588e-10
 31.26618     80.6 1.008e+04 4.882e-10
 31.27333     80.7 1.012e+04 4.970e-10
 31.28340     80.6 1.011e+04 5.006e-10
 31.29675     81.4 1.017e+04 5.491e-10
 31.31724     82.4 1.017e+04 5.835e-10
 31.33214     82.9 1.026e+04 6.132e-10
 31.34239     82.9 1.042e+04 6.973e-10
 31.36858     84.7 1.031e+04 6.424e-10
 31.39829     86.6 1.051e+04 6.467e-10
 31.41878     86.4 1.107e+04 9.352e-10
 31.45067     88.1 1.095e+04 8.291e-10
 31.49166     89.7 1.072e+04 6.733e-10
 31.53019     91.2 1.053e+04 5.380e-10
 31.55069     90.1 1.047e+04 5.243e-10
 31.57365     91.9 1.029e+04 4.443e-10
 31.59638     94.2 1.017e+04 4.073e-10
 31.61688     93.9 9.711e+03 3.124e-10
 31.65564     96.5 9.793e+03 3.223e-10
 31.68260     99.2 1.004e+04 3.534e-10
 31.70310     98.3 9.922e+03 3.169e-10
 31.73763    100.4 1.025e+04 3.556e-10
 31.75871    101.1 1.059e+04 4.562e-10
 31.76886    101.1 1.049e+04 4.063e-10
 31.78867    101.6 1.079e+04 5.060e-10
 31.80917    102.4 1.113e+04 6.520e-10
 31.82456    103.2 1.148e+04 8.261e-10
 31.83481    103.2 1.125e+04 6.563e-10
 31.85016    103.9 1.156e+04 8.089e-10
 31.87066    104.7 1.183e+04 9.770e-10
 31.89052    105.5 1.207e+04 1.156e-09
 31.90076    105.3 1.205e+04 1.097e-09
 31.90897    105.9 1.233e+04 1.341e-09
 31.91922    105.9 1.242e+04 1.487e-09
 31.93215    106.3 1.284e+04 1.779e-09
 31.95265    106.5 1.331e+04 2.149e-09
 31.96672    106.9 1.345e+04 2.317e-09
 31.97179    106.6 1.358e+04 2.598e-09
 31.97817    106.6 1.362e+04 2.611e-09
 31.98842    106.6 1.409e+04 2.632e-09
 31.99475    105.2 1.616e+04 3.045e-09
 31.99988    105.8 1.509e+04 2.914e-09
 32.00472    101.9 1.912e+04 4.148e-09
 32.00985     93.9 2.517e+04 1.339e-08
 32.01917     89.1 2.587e+04 3.124e-08
 32.02941     86.4 2.468e+04 5.380e-08
 32.03770     85.1 2.339e+04 6.164e-08
 32.04282     83.6 2.301e+04 6.105e-08
 32.04991     83.7 2.242e+04 5.138e-08
 32.06016     83.7 2.201e+04 3.829e-08
 32.07038     83.4 2.309e+04 2.343e-08
 32.07578     83.1 2.386e+04 1.467e-08
 32.08092     80.5 2.648e+04 5.123e-09
 32.09608     79.6 2.848e+04 3.280e-09
 32.10888     73.6 3.541e+04 6.100e-10
 32.11912     64.6 1.663e+04 4.963e-10
 32.14747     50.5 1.152e+04 4.123e-10
 32.18856     47.8 1.073e+04 3.880e-10
 32.22194     47.7 9.978e+03 3.364e-10
 32.24244     47.0 9.821e+03 2.770e-10
 32.25123     47.0 9.415e+03 2.031e-10
 32.27172     47.4 9.234e+03 1.518e-10
 32.31154     48.0 8.907e+03 1.137e-10
 32.35253     49.1 8.748e+03 8.040e-11
 32.38314     49.8 8.766e+03 6.001e-11
 32.40363     50.5 8.709e+03 6.005e-11
 32.43452     51.3 8.515e+03 5.806e-11
 32.47552     52.2 8.520e+03 6.512e-11
 32.51504     53.2 8.531e+03 8.465e-11
 32.53554     54.1 8.473e+03 8.404e-11
 32.54498     55.7 8.571e+03 1.164e-10
 32.56547     55.4 8.712e+03 1.310e-10
 32.59850     56.9 9.042e+03 1.983e-10
 32.63949     57.8 9.609e+03 3.232e-10
 32.66745     57.9 1.058e+04 6.369e-10
 32.68795     57.8 1.070e+04 7.226e-10
 32.70639     56.5 1.169e+04 1.087e-09
 32.71655     56.4 1.186e+04 1.214e-09
 32.73153     54.3 1.312e+04 2.032e-09
 32.74346     52.6 1.402e+04 3.112e-09
 32.75371     52.9 1.400e+04 3.064e-09
 32.77253     51.5 1.428e+04 3.638e-09
 32.79302     50.3 1.395e+04 3.446e-09
 32.80941     48.9 1.338e+04 2.858e-09
 32.81966     48.2 1.338e+04 2.891e-09
 32.83402     46.6 1.281e+04 2.156e-09
 32.85451     44.9 1.204e+04 1.581e-09
 32.86781     43.3 1.137e+04 1.173e-09
 32.87806     43.1 1.137e+04 1.191e-09
 32.88561     42.3 1.085e+04 9.980e-10
 32.89586     42.6 1.098e+04 1.040e-09
 32.91601     42.3 1.057e+04 8.348e-10
 32.93650     41.8 1.037e+04 7.665e-10
 32.95167     41.5 1.028e+04 7.130e-10
 32.97226     41.9 9.902e+03 5.097e-10
 33.00844     41.7 9.704e+03 4.842e-10
 33.04943     42.1 9.465e+03 5.036e-10
 33.08367     43.3 9.064e+03 4.310e-10
 33.10417     43.7 8.753e+03 3.299e-10
 33.13142     45.5 8.409e+03 2.661e-10
 33.17054     47.3 8.042e+03 1.859e-10
 33.19104     47.5 8.058e+03 1.888e-10
 33.21341     49.2 7.802e+03 1.387e-10
 33.23608     50.8 7.592e+03 1.074e-10
 33.25657     51.4 7.664e+03 1.091e-10
 33.29539     53.1 7.511e+03 9.828e-11
 33.33639     55.3 7.392e+03 9.115e-11
 33.36798     58.0 7.270e+03 7.771e-11
 33.38848     58.4 7.289e+03 7.797e-11
 33.41838     60.8 7.238e+03 6.154e-11
 33.45937     62.7 7.214e+03 4.968e-11
 33.49357     64.5 7.178e+03 4.890e-11
 33.51360     64.6 7.267e+03 5.742e-11
 33.52039     64.7 7.278e+03 5.644e-11
 33.54136     66.6 7.270e+03 6.089e-11
 33.58235     68.9 7.301e+03 6.757e-11
 33.62335     71.3 7.339e+03 6.865e-11
 33.65230     73.7 7.357e+03 6.415e-11
 33.67280     73.7 7.326e+03 5.499e-11
 33.70533     75.6 7.359e+03 4.625e-11
 33.74633     77.3 7.363e+03 4.389e-11
 33.78421     79.0 7.372e+03 4.434e-11
 33.80470     78.9 7.378e+03 4.555e-11
 33.81661     80.6 7.422e+03 5.048e-11
 33.83710     80.6 7.404e+03 4.693e-11
 33.86931     82.4 7.489e+03 5.598e-11
 33.91030     84.2 7.612e+03 6.990e-11
 33.93661     86.0 7.755e+03 8.814e-11
 33.95711     86.1 7.864e+03 1.015e-10
 33.99229     87.9 8.016e+03 1.194e-10
 34.03329     89.6 8.131e+03 1.299e-10
 34.06852     91.2 8.190e+03 1.305e-10
 34.08902     91.0 8.168e+03 1.188e-10
 34.11527     92.5 8.165e+03 1.053e-10
 34.13964     94.0 8.144e+03 8.774e-11
 34.16013     94.3 8.209e+03 9.933e-11
 34.19726     95.6 8.186e+03 8.145e-11
 34.22093     96.9 8.170e+03 7.312e-11
 34.24142     96.3 8.164e+03 7.372e-11
 34.27925     97.7 8.173e+03 7.421e-11
 34.32024     99.1 8.219e+03 7.717e-11
 34.35283    100.4 8.325e+03 8.615e-11
 34.37333     99.9 8.406e+03 9.767e-11
 34.40223    101.1 8.566e+03 1.153e-10
 34.44217    102.2 8.769e+03 1.408e-10
 34.46267    102.3 8.824e+03 1.421e-10
 34.48422    103.2 9.017e+03 1.633e-10
 34.50524    103.7 9.183e+03 1.783e-10
 34.52574    102.7 9.194e+03 1.660e-10
 34.56621    103.0 9.271e+03 1.789e-10
 34.60720    103.5 9.354e+03 1.927e-10
 34.63715    104.1 9.486e+03 1.970e-10
 34.65764    103.4 9.498e+03 1.965e-10
 34.68919    104.1 9.532e+03 1.912e-10
 34.73018    104.8 9.579e+03 1.718e-10
 34.76520    105.4 9.543e+03 1.483e-10
 34.78358    105.4 9.575e+03 1.551e-10
 34.78955    104.8 9.554e+03 1.515e-10
 34.81217    105.4 9.529e+03 1.514e-10
 34.85316    105.8 9.559e+03 1.663e-10
 34.89416    106.2 9.682e+03 2.149e-10
 34.92146    106.6 9.796e+03 2.738e-10
 34.94196    106.3 9.779e+03 2.679e-10
 34.97614    106.5 9.767e+03 2.753e-10
 35.01714    106.8 9.663e+03 2.593e-10
 35.05337    107.3 9.424e+03 2.057e-10
 35.07387    107.2 9.324e+03 1.683e-10
 35.08823    107.7 9.114e+03 1.184e-10
 35.10873    107.8 9.199e+03 1.398e-10
 35.14012    108.3 9.034e+03 9.840e-11
 35.18111    108.7 8.858e+03 7.797e-11
 35.20577    109.4 8.756e+03 7.589e-11
 35.22627    109.7 8.821e+03 8.018e-11
 35.26310    110.8 8.818e+03 8.099e-11
 35.30410    111.9 8.838e+03 8.431e-11
 35.33768    112.9 8.889e+03 8.794e-11
 35.35818    113.2 8.975e+03 9.398e-11
 35.38608    114.2 9.008e+03 9.380e-11
 35.41127    115.1 9.056e+03 9.257e-11
 35.43176    114.9 9.212e+03 1.087e-10
 35.46807    115.6 9.257e+03 1.094e-10
 35.49009    116.1 9.380e+03 1.206e-10
 35.51059    116.6 9.373e+03 1.021e-10
 35.55006    117.2 9.513e+03 1.301e-10
 35.59105    117.9 9.723e+03 1.914e-10
 35.62200    118.7 9.946e+03 2.580e-10
 35.64249    119.4 9.884e+03 2.334e-10
 35.67304    120.1 1.008e+04 2.826e-10
 35.71380    120.6 1.022e+04 2.874e-10
 35.73430    120.2 1.013e+04 2.577e-10
 35.75391    120.7 1.017e+04 2.387e-10
 35.77440    121.5 1.023e+04 2.572e-10
 35.79602    121.9 1.031e+04 2.587e-10
 35.83702    122.4 1.048e+04 2.738e-10
 35.87801    122.8 1.067e+04 3.073e-10
 35.90631    123.4 1.085e+04 3.502e-10
 35.92681    124.0 1.109e+04 4.243e-10
 35.94965    124.2 1.106e+04 4.226e-10
 35.97005    124.4 1.108e+04 4.286e-10
 35.98232    124.8 1.113e+04 4.491e-10
 35.99257    125.1 1.128e+04 5.090e-10
 36.01105    125.5 1.140e+04 5.389e-10
 36.03154    125.7 1.153e+04 5.620e-10
 36.04689    125.9 1.164e+04 5.800e-10
 36.05337    126.2 1.150e+04 5.265e-10
 36.05852    126.4 1.163e+04 5.636e-10
 36.07254    126.6 1.170e+04 5.724e-10
 36.09303    126.8 1.175e+04 5.773e-10
 36.11353    127.0 1.177e+04 5.803e-10
 36.12447    127.3 1.178e+04 5.837e-10
 36.13472    127.5 1.187e+04 6.145e-10
 36.15452    127.8 1.188e+04 6.240e-10
 36.17502    127.9 1.195e+04 6.484e-10
 36.19043    127.9 1.207e+04 7.083e-10
 36.20068    128.1 1.224e+04 8.025e-10
 36.20840    128.0 1.243e+04 9.564e-10
 36.21865    128.5 1.245e+04 9.419e-10
 36.23651    128.3 1.271e+04 1.197e-09
 36.25638    128.2 1.304e+04 1.567e-09
 36.26663    128.0 1.353e+04 2.081e-09
 36.27751    127.9 1.407e+04 2.856e-09
 36.29800    127.9 1.444e+04 3.496e-09
 36.31850    127.7 1.450e+04 3.475e-09
 36.33259    127.4 1.452e+04 3.182e-09
 36.34283    127.4 1.503e+04 3.857e-09
 36.35949    126.7 1.468e+04 2.742e-09
 36.36992    125.5 1.411e+04 1.888e-09
 36.38017    126.0 1.438e+04 2.324e-09
 36.41083    124.4 1.375e+04 1.489e-09
 36.45193    122.5 1.276e+04 7.874e-10
 36.47494    121.9 1.199e+04 5.072e-10
 36.49543    120.7 1.151e+04 3.871e-10
 36.53391    120.9 1.114e+04 3.565e-10
 36.57491    122.0 1.090e+04 3.402e-10
 36.60685    123.6 1.073e+04 3.170e-10
 36.62734    123.3 1.073e+04 3.236e-10
 36.65690    125.2 1.057e+04 2.855e-10
 36.68290    127.1 1.037e+04 2.430e-10
 36.70339    127.9 1.046e+04 2.543e-10
 36.73875    129.9 1.031e+04 2.292e-10
 36.77975    132.0 1.011e+04 1.880e-10
 36.82087    134.1 1.000e+04 1.575e-10
 36.86186    136.2 9.912e+03 1.345e-10
 36.89116    138.2 9.827e+03 1.196e-10
 36.91166    138.2 9.707e+03 1.085e-10
 36.94385    140.3 9.653e+03 1.024e-10
 36.98485    142.3 9.628e+03 9.984e-11
 37.00593    144.2 9.613e+03 1.007e-10
 37.02365    144.7 9.688e+03 1.107e-10
 37.04356    144.9 9.573e+03 1.030e-10
 37.06683    146.9 9.547e+03 1.011e-10
 37.10783    148.8 9.530e+03 1.027e-10
 37.14882    150.8 9.511e+03 1.071e-10
 37.17547    152.8 9.569e+03 1.117e-10
 37.19597    153.2 9.534e+03 1.143e-10
 37.23081    155.3 9.598e+03 1.213e-10
 37.27180    157.3 9.669e+03 1.285e-10
 37.30738    159.2 9.747e+03 1.343e-10
 37.32354    159.7 9.711e+03 1.472e-10
 37.32896    160.0 9.710e+03 1.469e-10
 37.35379    162.0 9.780e+03 1.563e-10
 37.39479    164.0 9.850e+03 1.649e-10
 37.43578    165.9 9.914e+03 1.716e-10
 37.45979    167.8 9.964e+03 1.762e-10
 37.48028    168.6 9.963e+03 1.977e-10
 37.51777    170.5 1.000e+04 1.987e-10
 37.55876    172.4 1.005e+04 2.021e-10
 37.59170    174.3 1.019e+04 2.151e-10
 37.61219    175.1 1.019e+04 2.317e-10
 37.63149    176.9 1.039e+04 2.472e-10
 37.65199    178.0 1.059e+04 3.351e-10
 37.68174    179.1 1.085e+04 3.761e-10
 37.71239    179.2 1.090e+04 3.750e-10
 37.73279    179.4 1.092e+04 3.800e-10
 37.74391    179.9 1.096e+04 4.039e-10
 37.75415    180.6 1.096e+04 4.099e-10
 37.77378    181.1 1.102e+04 4.377e-10
 37.79281    181.8 1.110e+04 4.787e-10
 37.80306    182.6 1.145e+04 6.960e-10
 37.80986    183.1 1.158e+04 7.724e-10
 37.82011    183.6 1.155e+04 7.406e-10
 37.83527    184.1 1.169e+04 8.173e-10
 37.85577    184.4 1.187e+04 9.229e-10
 37.87581    184.6 1.210e+04 1.068e-09
 37.88606    185.3 1.196e+04 9.736e-10
 37.89677    185.4 1.222e+04 1.144e-09
 37.91726    185.4 1.252e+04 1.369e-09
 37.93776    185.4 1.284e+04 1.608e-09
 37.95202    185.4 1.304e+04 1.724e-09
 37.95834    186.2 1.299e+04 1.674e-09
 37.96458    186.3 1.347e+04 2.139e-09
 37.97875    186.0 1.353e+04 2.168e-09
 37.99925    185.7 1.347e+04 2.108e-09
 38.01797    185.6 1.323e+04 1.854e-09
 38.02822    186.2 1.344e+04 2.017e-09
 38.04024    186.0 1.311e+04 1.643e-09
 38.06074    185.6 1.267e+04 1.225e-09
 38.08124    185.0 1.216e+04 9.253e-10
 38.09417    184.6 1.183e+04 7.897e-10
 38.10442    184.8 1.202e+04 8.920e-10
 38.13258    184.7 1.172e+04 7.724e-10
 38.16032    184.6 1.126e+04 6.336e-10
 38.18082    185.0 1.158e+04 8.024e-10
 38.21466    184.6 1.120e+04 6.321e-10
 38.25566    184.1 1.084e+04 4.627e-10
 38.27756    183.5 1.049e+04 3.355e-10
 38.29363    183.2 1.037e+04 3.157e-10
 38.31273    183.5 1.037e+04 3.138e-10
 38.33765    182.8 9.924e+03 2.597e-10
 38.37864    182.7 9.910e+03 2.592e-10
 38.41963    182.8 9.901e+03 2.604e-10
 38.44464    183.1 9.893e+03 2.603e-10
 38.46513    183.7 9.898e+03 2.719e-10
 38.50162    184.0 9.851e+03 2.652e-10
 38.54261    184.5 9.732e+03 2.413e-10
 38.57654    185.1 9.560e+03 2.024e-10
 38.59352    185.6 9.591e+03 2.186e-10
 38.60059    186.2 9.523e+03 1.966e-10
 38.62460    187.1 9.331e+03 1.588e-10
 38.66560    188.1 9.151e+03 1.332e-10
 38.70659    189.4 9.004e+03 1.178e-10
 38.72895    190.9 8.910e+03 1.090e-10
 38.74945    191.2 8.934e+03 1.095e-10
 38.78858    192.7 8.860e+03 1.001e-10
 38.82957    194.3 8.789e+03 9.498e-11
 38.86086    195.9 8.722e+03 9.348e-11
 38.88135    196.0 8.732e+03 8.909e-11
 38.90312    197.6 8.692e+03 8.826e-11
 38.92362    198.6 8.819e+03 1.107e-10
 38.95255    200.1 8.779e+03 1.080e-10
 38.99277    201.7 8.740e+03 1.047e-10
 39.01326    201.8 8.698e+03 9.356e-11
 39.03454    203.3 8.662e+03 9.166e-11
 39.07554    204.9 8.628e+03 8.961e-11
 39.11653    206.4 8.589e+03 8.773e-11
 39.14517    207.9 8.548e+03 8.600e-11
 39.16567    208.0 8.547e+03 8.464e-11
 39.19852    209.6 8.502e+03 8.375e-11
 39.22615    211.1 8.463e+03 8.248e-11
 39.24665    212.0 8.480e+03 8.418e-11
 39.27708    213.6 8.430e+03 8.275e-11
 39.29758    213.9 8.441e+03 8.153e-11
 39.32150    215.5 8.392e+03 8.051e-11
 39.36249    217.1 8.365e+03 7.964e-11
 39.40349    218.7 8.357e+03 7.914e-11
 39.42949    220.1 8.351e+03 7.916e-11
 39.44998    220.5 8.398e+03 8.300e-11
 39.48547    221.9 8.410e+03 8.831e-11
 39.52647    223.2 8.425e+03 9.632e-11
 39.54918    224.5 8.450e+03 1.073e-10
 39.56361    225.7 8.386e+03 9.537e-11
 39.58189    226.0 8.509e+03 1.149e-10
 39.60846    227.3 8.568e+03 1.325e-10
 39.64945    228.6 8.631e+03 1.507e-10
 39.69044    229.8 8.687e+03 1.656e-10
 39.71380    231.0 8.736e+03 1.802e-10
 39.73430    231.0 8.859e+03 1.961e-10
 39.77243    232.0 8.835e+03 1.915e-10
 39.81343    233.0 8.788e+03 1.839e-10
 39.84571    234.0 8.732e+03 1.805e-10
 39.86350    233.5 8.832e+03 1.891e-10
 39.87222    235.2 9.101e+03 2.377e-10
 39.89541    236.1 9.076e+03 2.382e-10
 39.93641    236.8 9.052e+03 2.386e-10
 39.97740    237.5 9.017e+03 2.374e-10
 39.99811    238.2 9.004e+03 2.339e-10
 40.01861    237.7 8.953e+03 2.116e-10
 40.05939    237.9 8.865e+03 1.868e-10
 40.10038    237.7 8.758e+03 1.629e-10
 40.13002    237.3 8.655e+03 1.470e-10
 40.15052    236.4 8.617e+03 1.384e-10
 40.17475    235.8 8.631e+03 1.408e-10
 40.19525    236.8 8.857e+03 1.693e-10
 40.22337    235.6 8.931e+03 1.810e-10
 40.26193    233.9 9.153e+03 2.163e-10
 40.28243    233.0 9.251e+03 2.278e-10
 40.30535    230.7 9.605e+03 2.999e-10
 40.33600    229.8 9.770e+03 3.513e-10
 40.34632    229.0 1.003e+04 4.329e-10
 40.34835    229.1 1.012e+04 4.667e-10
 40.35843    228.9 1.028e+04 5.369e-10
 40.37690    227.7 1.073e+04 7.378e-10
 40.39739    226.4 1.107e+04 8.791e-10
 40.41424    225.2 1.120e+04 8.942e-10
 40.42449    224.4 1.163e+04 1.093e-09
 40.43839    223.3 1.166e+04 1.094e-09
 40.45888    221.1 1.179e+04 1.107e-09
 40.47938    219.6 1.179e+04 1.104e-09
 40.49034    217.2 1.180e+04 1.067e-09
 40.49830    216.6 1.208e+04 1.208e-09
 40.51818    215.2 1.201e+04 1.133e-09
 40.54624    212.3 1.143e+04 8.279e-10
 40.56664    211.3 1.130e+04 8.022e-10
 40.58187    210.7 1.079e+04 5.888e-10
 40.60236    210.4 1.052e+04 5.008e-10
 40.62225    210.2 1.019e+04 3.972e-10
 40.63250    210.3 1.030e+04 4.335e-10
 40.64336    210.1 1.010e+04 3.701e-10
 40.67420    210.1 9.868e+03 3.187e-10
 40.69865    210.5 9.747e+03 3.087e-10
 40.70880    210.1 9.993e+03 3.707e-10
 40.72535    210.3 9.978e+03 3.717e-10
 40.74584    210.8 9.958e+03 3.708e-10
 40.76441    211.1 9.950e+03 3.710e-10
 40.77466    211.9 1.028e+04 4.763e-10
 40.78684    212.3 1.027e+04 4.755e-10
 40.80733    212.7 1.026e+04 4.727e-10
 40.82062    213.1 1.024e+04 4.647e-10
 40.83087    212.8 1.034e+04 4.969e-10
 40.84061    213.2 1.029e+04 4.793e-10
 40.85086    213.5 1.075e+04 6.642e-10
 40.86882    213.7 1.066e+04 6.242e-10
 40.88932    213.8 1.057e+04 5.851e-10
 40.90656    213.9 1.050e+04 5.502e-10
 40.91681    213.8 1.098e+04 7.375e-10
 40.93031    213.9 1.086e+04 6.795e-10
 40.95081    214.0 1.074e+04 6.294e-10
 40.97131    214.2 1.064e+04 5.867e-10
 40.98213    214.4 1.054e+04 5.499e-10
 40.98334    213.8 1.068e+04 5.830e-10
 40.99301    213.3 1.100e+04 6.991e-10
 41.01230    213.5 1.089e+04 6.518e-10
 41.03280    213.7 1.080e+04 6.150e-10
 41.04872    214.0 1.072e+04 5.864e-10
 41.05897    213.5 1.092e+04 6.486e-10
 41.07379    213.9 1.083e+04 6.155e-10
 41.09429    214.2 1.076e+04 5.893e-10
 41.11467    214.6 1.071e+04 5.681e-10
 41.12492    214.2 1.081e+04 5.942e-10
 41.13340    214.7 1.074e+04 5.703e-10
 41.14365    214.2 1.080e+04 6.039e-10
 41.15578    214.7 1.073e+04 5.823e-10
 41.17628    215.4 1.068e+04 5.674e-10
 41.19088    216.0 1.066e+04 5.629e-10
 41.20113    215.6 1.070e+04 5.657e-10
 41.21727    216.3 1.070e+04 5.659e-10
 41.23777    217.0 1.071e+04 5.697e-10
 41.25683    217.6 1.074e+04 5.820e-10
 41.26708    217.2 1.078e+04 5.829e-10
 41.27876    217.9 1.081e+04 6.014e-10
 41.29492    218.5 1.088e+04 6.336e-10
 41.30517    218.3 1.100e+04 7.127e-10
 41.31976    218.9 1.112e+04 7.782e-10
 41.33303    219.5 1.128e+04 8.655e-10
 41.34328    219.3 1.121e+04 8.134e-10
 41.36075    219.9 1.137e+04 9.064e-10
 41.38125    220.3 1.156e+04 1.021e-09
 41.39899    220.7 1.178e+04 1.161e-09
 41.40924    220.8 1.157e+04 9.950e-10
 41.42224    221.1 1.181e+04 1.130e-09
 41.44274    221.4 1.211e+04 1.303e-09
 41.45643    221.6 1.247e+04 1.526e-09
 41.46668    221.2 1.276e+04 1.746e-09
 41.47519    221.2 1.310e+04 2.015e-09
 41.48544    220.8 1.293e+04 1.804e-09
 41.50423    220.7 1.332e+04 2.157e-09
 41.52473    220.5 1.366e+04 2.530e-09
 41.54115    220.4 1.397e+04 2.918e-09
 41.55139    220.0 1.400e+04 2.956e-09
 41.56572    219.8 1.423e+04 3.208e-09
 41.58622    219.4 1.425e+04 3.214e-09
 41.60671    218.9 1.421e+04 3.157e-09
 41.61735    218.4 1.405e+04 2.969e-09
 41.61833    217.7 1.407e+04 2.992e-09
 41.62820    217.6 1.376e+04 2.590e-09
 41.64771    217.0 1.367e+04 2.545e-09
 41.66820    216.3 1.370e+04 2.616e-09
 41.68330    215.4 1.396e+04 2.894e-09
 41.69355    214.0 1.464e+04 3.711e-09
 41.70403    213.4 1.473e+04 3.809e-09
 41.71423    213.1 1.485e+04 3.882e-09
 41.72131    212.2 1.537e+04 4.293e-09
 41.72643    210.6 1.668e+04 5.511e-09
 41.73472    208.2 1.836e+04 7.638e-09
 41.74497    205.5 1.980e+04 1.131e-08
 41.75428    203.2 2.061e+04 1.678e-08
 41.75941    202.2 2.073e+04 2.088e-08
 41.76547    201.1 2.067e+04 2.680e-08
 41.77424    200.5 2.060e+04 3.232e-08
 41.77937    200.6 2.103e+04 5.414e-08
 41.78596    200.3 2.111e+04 6.141e-08
 41.79238    200.0 2.125e+04 6.316e-08
 41.79751    199.4 2.102e+04 5.512e-08
 41.80646    199.2 2.099e+04 4.983e-08
 41.81671    198.9 2.096e+04 3.947e-08
 41.82536    198.3 2.090e+04 2.825e-08
 41.83566    195.9 2.044e+04 1.184e-08
 41.85268    191.8 1.867e+04 4.923e-09
 41.87317    187.9 1.551e+04 2.444e-09
 41.89141    185.2 1.259e+04 1.643e-09
 41.90166    183.5 1.121e+04 1.129e-09
 41.91417    184.0 1.112e+04 1.061e-09
 41.93073    185.1 1.116e+04 1.018e-09
 41.94098    184.9 1.144e+04 1.115e-09
 41.95516    185.9 1.134e+04 1.025e-09
 41.96762    186.7 1.123e+04 9.496e-10
 41.97786    186.4 1.102e+04 8.238e-10
 41.99616    187.2 1.097e+04 8.025e-10
 42.01665    188.1 1.096e+04 7.938e-10
 42.03357    189.0 1.100e+04 8.020e-10
 42.04382    189.0 1.082e+04 7.174e-10
 42.05765    189.9 1.093e+04 7.521e-10
 42.07814    190.8 1.114e+04 8.207e-10
 42.09225    191.6 1.147e+04 9.447e-10
 42.10250    191.4 1.107e+04 8.011e-10
 42.10977    192.2 1.135e+04 8.917e-10
 42.12002    192.6 1.136e+04 8.819e-10
 42.13963    192.9 1.184e+04 1.049e-09
 42.16013    193.1 1.248e+04 1.341e-09
 42.17573    192.9 1.327e+04 1.855e-09
 42.18597    192.6 1.401e+04 2.125e-09
 42.20113    191.7 1.537e+04 3.502e-09
 42.22162    190.7 1.664e+04 5.918e-09
 42.24168    189.5 1.796e+04 1.023e-08
 42.25193    189.6 1.870e+04 1.221e-08
 42.25376    188.9 1.987e+04 1.947e-08
 42.26401    187.6 1.862e+04 1.269e-08
 42.28311    186.6 1.907e+04 1.578e-08
 42.30361    185.1 1.902e+04 1.556e-08
 42.31788    184.1 1.843e+04 1.295e-08
 42.32813    183.8 1.789e+04 1.010e-08
 42.34460    183.5 1.660e+04 5.629e-09
 42.36510    182.4 1.474e+04 2.229e-09
 42.38384    178.6 1.187e+04 7.281e-10
 42.39409    175.7 1.057e+04 5.620e-10
 42.40503    172.1 9.579e+03 4.587e-10
 42.41528    173.1 9.781e+03 5.009e-10
 42.42659    171.3 9.647e+03 4.951e-10
 42.44709    170.7 9.725e+03 5.241e-10
 42.46004    170.1 1.015e+04 6.554e-10
 42.47029    169.1 1.071e+04 8.449e-10
 42.48808    168.2 1.154e+04 1.245e-09
 42.50858    167.7 1.233e+04 1.809e-09
 42.52599    167.4 1.299e+04 2.431e-09
 42.53624    166.6 1.368e+04 3.142e-09
 42.54957    166.3 1.400e+04 3.287e-09
 42.56655    165.7 1.401e+04 3.216e-09
 42.57679    165.1 1.441e+04 3.696e-09
 42.59057    164.3 1.435e+04 3.335e-09
 42.60220    163.3 1.403e+04 2.759e-09
 42.61245    161.6 1.401e+04 2.688e-09
 42.63156    160.2 1.338e+04 2.142e-09
 42.65206    159.0 1.275e+04 1.753e-09
 42.66815    158.1 1.227e+04 1.506e-09
 42.67840    157.0 1.233e+04 1.479e-09
 42.69305    156.1 1.248e+04 1.393e-09
 42.71355    154.9 1.270e+04 1.435e-09
 42.72806    153.2 1.311e+04 1.568e-09
 42.73831    153.7 1.246e+04 1.223e-09
 42.75454    150.1 1.316e+04 1.560e-09
 42.77504    148.7 1.324e+04 1.771e-09
 42.79554    147.6 1.330e+04 1.912e-09
 42.81031    146.3 1.337e+04 1.921e-09
 42.82056    146.2 1.396e+04 2.397e-09
 42.83653    144.5 1.411e+04 2.298e-09
 42.85703    142.4 1.421e+04 2.252e-09
 42.87626    140.0 1.433e+04 2.282e-09
 42.88651    139.9 1.499e+04 2.959e-09
 42.88958    136.6 1.556e+04 3.351e-09
 42.89983    135.9 1.582e+04 3.515e-09
 42.91852    130.4 1.735e+04 5.099e-09
 42.93902    123.5 1.968e+04 8.608e-09
 42.95242    119.0 2.109e+04 1.336e-08
 42.95749    119.6 2.177e+04 1.547e-08
 42.96454    115.3 2.233e+04 2.418e-08
 42.97024    111.9 2.211e+04 3.664e-08
 42.97536    112.4 2.198e+04 2.302e-08
 42.98504    108.7 2.252e+04 2.549e-08
 42.99047    104.6 2.333e+04 2.465e-08
 42.99559    101.4 2.605e+04 2.990e-08
 43.00553     95.7 2.666e+04 2.741e-08
 43.01578     90.9 2.658e+04 1.993e-08
 43.02345     86.2 2.421e+04 1.465e-08
 43.02857     81.9 2.291e+04 1.998e-08
 43.03628     80.4 2.076e+04 1.634e-08
 43.04587     79.0 1.933e+04 1.164e-08
 43.05104     78.6 1.948e+04 1.665e-08
 43.06200     77.3 1.818e+04 8.771e-09
 43.08249     75.0 1.682e+04 4.340e-09
 43.09462     72.0 1.531e+04 2.633e-09
 43.10487     68.5 1.483e+04 2.281e-09
 43.12349     67.4 1.371e+04 1.879e-09
 43.14399     67.2 1.332e+04 1.743e-09
 43.16058     67.0 1.322e+04 1.677e-09
 43.17082     65.5 1.294e+04 1.534e-09
 43.18498     65.7 1.339e+04 1.784e-09
 43.20236     65.6 1.486e+04 2.465e-09
 43.21261     67.9 1.284e+04 1.599e-09
 43.22597     67.6 1.405e+04 1.972e-09
 43.23678     66.5 1.643e+04 3.293e-09
 43.24703     67.1 1.549e+04 2.803e-09
 43.26697     65.7 1.811e+04 5.538e-09
 43.28746     64.1 1.954e+04 1.157e-08
 43.30273     62.9 2.006e+04 2.044e-08
 43.31298     63.2 2.063e+04 1.549e-08
 43.32329     62.6 2.057e+04 2.264e-08
 43.33348     62.4 2.035e+04 2.783e-08
 43.34074     62.5 2.014e+04 2.727e-08
 43.34586     62.0 2.031e+04 2.552e-08
 43.35398     62.2 1.998e+04 2.428e-08
 43.36378     62.7 1.924e+04 2.131e-08
 43.36890     62.3 1.950e+04 2.231e-08
 43.37371     62.6 1.883e+04 1.888e-08
 43.37884     61.2 1.891e+04 1.929e-08
 43.38473     61.6 1.812e+04 1.596e-08
 43.39498     61.8 1.785e+04 1.251e-08
 43.40522     61.4 1.818e+04 8.246e-09
 43.41181     60.6 1.856e+04 5.294e-09
 43.41694     61.3 1.779e+04 6.850e-09
 43.43089     59.4 1.815e+04 3.469e-09
 43.44489     55.3 1.669e+04 1.237e-09
 43.45514     57.8 1.730e+04 2.651e-09
 43.47194     52.3 1.486e+04 8.789e-10
 43.49243     47.1 1.083e+04 5.592e-10
 43.51084     46.7 1.063e+04 6.074e-10
 43.52109     47.2 1.080e+04 6.817e-10
 43.52539     47.7 1.073e+04 6.734e-10
 43.53564     47.2 1.085e+04 7.073e-10
 43.55392     47.4 1.087e+04 6.922e-10
 43.57442     47.6 1.082e+04 6.471e-10
 43.58705     47.9 1.060e+04 5.568e-10
 43.59729     48.2 1.072e+04 5.891e-10
 43.61542     47.9 1.063e+04 5.231e-10
 43.63591     47.3 1.069e+04 5.257e-10
 43.65300     46.3 1.093e+04 5.905e-10
 43.66325     46.9 1.092e+04 5.945e-10
 43.67666     45.8 1.124e+04 7.497e-10
 43.68691     45.0 1.161e+04 9.705e-10
 43.69740     44.9 1.188e+04 1.269e-09
 43.71790     45.3 1.214e+04 1.563e-09
 43.72920     45.7 1.235e+04 1.688e-09
 43.73945     45.9 1.240e+04 1.755e-09
 43.75889     46.2 1.242e+04 1.694e-09
 43.77939     46.1 1.235e+04 1.484e-09
 43.79516     45.3 1.210e+04 1.197e-09
 43.80541     45.4 1.249e+04 1.385e-09
 43.82039     44.0 1.204e+04 1.068e-09
 43.83818     42.6 1.132e+04 8.095e-10
 43.84842     42.3 1.147e+04 9.077e-10
 43.86111     41.8 1.083e+04 7.079e-10
 43.87136     41.7 1.184e+04 1.031e-09
 43.88188     41.8 1.118e+04 7.692e-10
 43.90237     42.1 1.052e+04 5.550e-10
 43.92287     42.1 1.014e+04 4.108e-10
 43.93731     41.8 9.888e+03 3.197e-10
 43.94756     41.5 1.032e+04 4.043e-10
 43.96386     41.2 9.916e+03 3.210e-10
 43.98436     41.0 9.618e+03 3.029e-10
 43.99969     41.6 9.529e+03 3.020e-10
 44.00835     41.1 9.611e+03 3.187e-10
 44.01352     40.3 9.813e+03 3.937e-10
 44.02535     40.4 1.027e+04 5.096e-10
 44.04585     41.1 1.038e+04 5.511e-10
 44.06932     43.0 1.031e+04 5.985e-10
 44.08991     42.3 1.096e+04 8.223e-10
 44.11779     44.7 1.067e+04 6.925e-10
 44.15878     46.4 1.046e+04 5.796e-10
 44.19977     47.6 1.027e+04 5.267e-10
 44.22182     48.7 1.043e+04 5.686e-10
 44.24232     48.7 1.044e+04 5.712e-10
 44.28176     49.8 1.033e+04 5.565e-10
 44.31267     49.5 1.038e+04 5.451e-10
 44.33317     47.7 9.885e+03 4.367e-10
 44.35373     46.5 1.025e+04 4.994e-10
 44.37423     48.3 9.840e+03 4.454e-10
 44.40474     46.2 1.055e+04 5.782e-10
 44.42984     44.4 1.085e+04 6.915e-10
 44.43999     45.2 1.074e+04 6.689e-10
 44.45579     38.3 1.443e+04 1.254e-09
 44.47399     28.7 1.828e+04 3.433e-09
 44.48424     32.7 1.646e+04 1.995e-09
 44.49569     26.3 1.683e+04 5.091e-09
 44.50594     27.8 1.739e+04 4.835e-09
 44.51728     24.2 1.767e+04 1.001e-08
 44.53778     22.2 1.994e+04 1.395e-08
 44.55828     17.0 2.119e+04 1.117e-08
 44.57190      8.8 1.857e+04 5.482e-09
 44.58214     10.7 2.026e+04 7.493e-09
 44.59927      3.4 1.554e+04 4.150e-09
 44.61977      0.8 1.473e+04 3.637e-09
 44.63551     -1.1 1.473e+04 3.593e-09
 44.64334      1.6 1.542e+04 4.045e-09
 44.64810      2.3 1.520e+04 4.248e-09
 44.66076      0.5 1.552e+04 4.683e-09
 44.68126     -1.5 1.567e+04 4.981e-09
 44.69658     -3.5 1.572e+04 5.098e-09
 44.70678     -3.6 1.576e+04 5.137e-09
 44.71400     -4.9 1.583e+04 5.239e-09
 44.72430     -4.0 1.617e+04 5.587e-09
 44.74275     -5.9 1.635e+04 5.504e-09
 44.76324     -8.0 1.639e+04 5.285e-09
 44.78001    -10.2 1.613e+04 4.832e-09
 44.79025     -9.4 1.693e+04 6.217e-09
 44.79702    -11.3 1.670e+04 5.920e-09
 44.80727    -10.6 1.526e+04 3.586e-09
 44.82474    -12.1 1.482e+04 3.154e-09
 44.84523    -13.1 1.432e+04 2.638e-09
 44.85621    -14.1 1.367e+04 2.078e-09
 44.86646    -13.5 1.529e+04 3.449e-09
 44.88623    -15.3 1.491e+04 2.924e-09
 44.90672    -17.8 1.474e+04 2.749e-09
 44.92216    -20.6 1.488e+04 2.899e-09
 44.93241    -20.9 1.664e+04 5.581e-09
 44.94772    -22.9 1.663e+04 6.869e-09
 44.95854    -23.7 1.659e+04 7.774e-09
 44.96879    -22.9 1.653e+04 7.292e-09
 44.98812    -23.1 1.656e+04 7.572e-09
 44.99837    -22.6 1.807e+04 1.323e-08
 45.00921    -22.6 1.720e+04 1.055e-08
 45.02971    -22.2 1.594e+04 5.759e-09
 45.05020    -23.0 1.467e+04 2.846e-09
 45.06432    -27.6 1.327e+04 1.598e-09
 45.07457    -28.2 1.325e+04 1.612e-09
 45.09120    -32.0 1.231e+04 1.294e-09
 45.10980    -33.9 1.214e+04 1.246e-09
 45.12005    -33.4 1.250e+04 1.443e-09
 45.13027    -35.2 1.264e+04 1.576e-09
 45.14052    -35.7 1.285e+04 1.704e-09
 45.15269    -37.6 1.317e+04 1.991e-09
 45.17318    -39.5 1.329e+04 2.118e-09
 45.19368    -41.7 1.331e+04 2.140e-09
 45.20648    -43.8 1.313e+04 2.081e-09
 45.21673    -44.4 1.315e+04 2.146e-09
 45.23467    -46.4 1.279e+04 1.845e-09
 45.25517    -48.5 1.234e+04 1.518e-09
 45.27132    -50.4 1.183e+04 1.205e-09
 45.27833    -50.7 1.206e+04 1.328e-09
 45.28268    -51.4 1.206e+04 1.312e-09
 45.29617    -53.2 1.152e+04 1.029e-09
 45.31666    -54.8 1.104e+04 8.239e-10
 45.33716    -56.3 1.065e+04 6.925e-10
 45.34863    -57.5 1.036e+04 6.108e-10
 45.35888    -58.7 1.030e+04 5.910e-10
 45.37815    -59.7 1.007e+04 5.420e-10
 45.39865    -60.5 9.935e+03 5.150e-10
 45.41459    -61.2 9.892e+03 5.074e-10
 45.42484    -62.5 9.925e+03 5.119e-10
 45.43284    -63.2 9.933e+03 5.128e-10
 45.44308    -63.9 1.020e+04 5.952e-10
 45.46014    -64.7 1.025e+04 6.057e-10
 45.48054    -65.6 1.035e+04 6.326e-10
 45.50104    -68.4 1.054e+04 6.806e-10
 45.52163    -69.8 1.073e+04 7.349e-10
 45.54213    -71.4 1.098e+04 8.129e-10
 45.55674    -73.1 1.129e+04 9.213e-10
 45.56699    -75.1 1.125e+04 9.199e-10
 45.58312    -76.8 1.148e+04 1.028e-09
 45.59435    -78.4 1.168e+04 1.144e-09
 45.60460    -80.5 1.204e+04 1.371e-09
 45.62270    -81.8 1.211e+04 1.443e-09
 45.63295    -83.7 1.189e+04 1.295e-09
 45.64461    -86.2 1.217e+04 1.339e-09
 45.66511    -90.4 1.318e+04 1.486e-09
 45.68561    -96.0 1.459e+04 1.977e-09
 45.69890   -101.4 1.572e+04 3.028e-09
 45.70915   -105.6 1.572e+04 3.484e-09
 45.72660   -109.1 1.598e+04 4.381e-09
 45.74562   -112.1 1.601e+04 4.645e-09
 45.75587   -114.9 1.599e+04 4.659e-09
 45.76486   -117.5 1.568e+04 4.000e-09
 45.77510   -120.8 1.441e+04 2.300e-09
 45.78809   -124.4 1.318e+04 1.442e-09
 45.80859   -128.1 1.185e+04 9.850e-10
 45.82909   -130.8 1.124e+04 8.312e-10
 45.84106   -132.4 1.114e+04 8.049e-10
 45.85131   -133.7 1.059e+04 6.537e-10
 45.87008   -134.5 1.073e+04 7.105e-10
 45.89058   -135.1 1.086e+04 7.712e-10
 45.90701   -135.5 1.097e+04 8.132e-10
 45.91332   -136.0 1.076e+04 7.369e-10
 45.91738   -137.5 1.100e+04 8.096e-10
 45.93157   -137.7 1.112e+04 8.378e-10
 45.95207   -138.0 1.121e+04 8.537e-10
 45.97257   -138.4 1.130e+04 8.716e-10
 45.98321   -139.0 1.144e+04 9.085e-10
 45.99346   -139.6 1.158e+04 9.380e-10
 46.01356   -140.2 1.187e+04 1.070e-09
 46.03406   -140.7 1.216e+04 1.263e-09
 46.04917   -141.0 1.241e+04 1.492e-09
 46.05942   -141.1 1.272e+04 1.721e-09
 46.06865   -140.9 1.287e+04 1.904e-09
 46.07890   -142.2 1.290e+04 1.912e-09
 46.09555   -142.0 1.289e+04 1.913e-09
 46.11512   -141.6 1.274e+04 1.755e-09
 46.12537   -141.8 1.293e+04 1.860e-09
 46.13654   -141.6 1.261e+04 1.512e-09
 46.15704   -141.6 1.215e+04 1.147e-09
 46.17753   -141.8 1.158e+04 8.329e-10
 46.19133   -142.1 1.094e+04 6.097e-10
 46.20157   -142.5 1.106e+04 6.583e-10
 46.21853   -142.7 1.051e+04 5.254e-10
 46.23017   -142.7 1.014e+04 4.498e-10
 46.25076   -144.5 9.698e+03 3.525e-10
 46.29046   -142.7 9.464e+03 3.138e-10
 46.32343   -141.0 9.304e+03 2.788e-10
 46.34393   -141.0 9.395e+03 3.200e-10
 46.37245   -139.1 9.154e+03 2.670e-10
 46.41345   -137.5 8.913e+03 2.143e-10
 46.45444   -135.7 8.659e+03 1.690e-10
 46.47583   -134.0 8.474e+03 1.389e-10
 46.49633   -133.6 8.665e+03 1.763e-10
 46.53290   -131.6 8.499e+03 1.523e-10
 46.55339   -132.8 8.188e+03 1.142e-10
 46.57742   -130.8 8.219e+03 1.186e-10
 46.60774   -128.8 8.312e+03 1.298e-10
 46.62824   -127.8 8.296e+03 1.309e-10
 46.65941   -125.9 8.433e+03 1.469e-10
 46.70040   -124.0 8.560e+03 1.613e-10
 46.73965   -122.3 8.695e+03 1.758e-10
 46.76015   -121.2 8.758e+03 1.861e-10
 46.78239   -119.5 8.939e+03 2.102e-10
 46.82338   -117.8 9.149e+03 2.407e-10
 46.85593   -116.1 9.351e+03 2.737e-10
 46.87642   -117.0 9.602e+03 3.542e-10
 46.89206   -115.2 9.638e+03 3.567e-10
 46.91255   -114.1 9.782e+03 4.256e-10
 46.94637   -112.1 9.701e+03 3.794e-10
 46.98736   -110.1 9.520e+03 3.135e-10
 47.02397   -108.1 9.250e+03 2.336e-10
 47.04446   -106.7 9.438e+03 2.725e-10
 47.06935   -104.9 9.068e+03 1.907e-10
 47.11034   -103.3 8.628e+03 1.351e-10
 47.15134   -101.8 8.219e+03 1.085e-10
 47.17637   -100.2 8.056e+03 9.972e-11
 47.18350    -98.9 7.998e+03 8.416e-11
 47.19946    -99.6 7.757e+03 8.144e-11
 47.23332    -97.7 7.720e+03 8.018e-11
 47.27432    -96.0 7.744e+03 8.026e-11
 47.30828    -94.6 7.932e+03 8.946e-11
 47.32878    -93.8 7.822e+03 6.970e-11
 47.35630    -92.7 8.011e+03 9.586e-11
 47.39730    -91.5 8.169e+03 1.301e-10
 47.43829    -90.3 8.296e+03 1.606e-10
 47.46068    -89.0 8.349e+03 1.750e-10
 47.48118    -88.8 8.452e+03 1.812e-10
 47.50199    -87.5 8.470e+03 1.863e-10
 47.52249    -87.5 8.395e+03 1.808e-10
 47.56127    -86.2 8.331e+03 1.758e-10
 47.59259    -84.5 8.079e+03 1.436e-10
 47.61309    -84.6 8.071e+03 1.416e-10
 47.64326    -83.1 7.753e+03 1.061e-10
 47.68426    -81.8 7.520e+03 8.199e-11
 47.72450    -80.6 7.402e+03 6.980e-11
 47.74500    -81.2 7.517e+03 7.877e-11
 47.76624    -80.0 7.506e+03 7.808e-11
 47.80452    -78.7 7.538e+03 8.416e-11
 47.82502    -79.3 7.680e+03 1.050e-10
 47.84823    -78.0 7.803e+03 1.232e-10
 47.87691    -76.5 7.924e+03 1.399e-10
 47.89740    -77.3 8.173e+03 1.892e-10
 47.93022    -76.0 8.234e+03 1.971e-10
 47.97121    -75.1 8.299e+03 2.019e-10
 48.00881    -74.8 8.501e+03 2.125e-10
 48.02931    -77.3 9.093e+03 2.899e-10
 48.05320    -77.9 9.604e+03 3.781e-10
 48.08385    -78.4 9.880e+03 4.691e-10
 48.09507    -78.4 1.016e+04 5.507e-10
 48.10532    -78.5 1.027e+04 5.714e-10
 48.12475    -78.5 1.043e+04 6.235e-10
 48.13761    -78.6 1.053e+04 6.454e-10
 48.14786    -79.6 1.065e+04 6.782e-10
 48.16102    -80.3 1.110e+04 6.949e-10
 48.17127    -83.9 1.153e+04 7.065e-10
 48.18624    -86.8 1.237e+04 8.198e-10
 48.20673    -89.9 1.267e+04 1.041e-09
 48.22698    -92.1 1.254e+04 1.330e-09
 48.23723    -93.8 1.258e+04 1.651e-09
 48.24773    -94.4 1.254e+04 1.845e-09
 48.26822    -94.6 1.254e+04 1.896e-09
 48.28872    -94.8 1.240e+04 1.820e-09
 48.29913    -95.3 1.219e+04 1.477e-09
 48.30334    -97.6 1.226e+04 1.372e-09
 48.31343   -100.4 1.205e+04 1.216e-09
 48.32971   -102.4 1.149e+04 9.856e-10
 48.35021   -104.0 1.112e+04 8.779e-10
 48.36914   -105.3 1.100e+04 8.528e-10
 48.37938   -107.8 1.138e+04 9.657e-10
 48.39121   -109.3 1.191e+04 1.115e-09
 48.41170   -110.7 1.250e+04 1.344e-09
 48.43220   -111.8 1.297e+04 1.620e-09
 48.44534   -112.6 1.325e+04 1.885e-09
 48.45328   -115.1 1.352e+04 2.308e-09
 48.46064   -117.0 1.340e+04 2.513e-09
 48.47319   -116.9 1.318e+04 2.440e-09
 48.49369   -116.7 1.286e+04 2.246e-09
 48.51129   -116.4 1.244e+04 1.968e-09
 48.52154   -117.8 1.179e+04 1.621e-09
 48.53468   -117.2 1.127e+04 1.265e-09
 48.55518   -116.6 1.076e+04 9.618e-10
 48.57568   -116.6 1.059e+04 7.447e-10
 48.58749   -117.8 1.083e+04 6.770e-10
 48.59774   -124.4 1.388e+04 6.284e-10
 48.61191   -130.5 1.652e+04 9.599e-10
 48.62216   -137.6 1.665e+04 2.028e-09
 48.63717   -139.9 1.590e+04 3.384e-09
 48.65345   -140.9 1.561e+04 4.469e-09
 48.66370   -143.3 1.548e+04 4.366e-09
 48.67816   -144.2 1.563e+04 4.018e-09
 48.69866   -146.0 1.563e+04 2.728e-09
 48.71916   -150.1 1.477e+04 1.494e-09
 48.72965   -155.2 1.258e+04 7.917e-10
 48.73990   -159.5 1.082e+04 5.708e-10
 48.76015   -160.9 1.042e+04 4.919e-10
 48.77342   -161.5 1.030e+04 4.743e-10
 48.78367   -163.0 1.063e+04 6.177e-10
 48.79561   -163.2 1.056e+04 6.184e-10
 48.80585   -164.2 1.065e+04 6.614e-10
 48.82164   -164.5 1.063e+04 6.584e-10
 48.84214   -164.7 1.064e+04 6.629e-10
 48.86156   -165.0 1.073e+04 6.917e-10
 48.87181   -166.1 1.088e+04 7.645e-10
 48.88313   -166.3 1.099e+04 8.117e-10
 48.90363   -166.4 1.106e+04 8.510e-10
 48.92413   -166.4 1.108e+04 8.674e-10
 48.93494   -166.3 1.108e+04 8.687e-10
 48.93833   -166.5 1.103e+04 8.704e-10
 48.94801   -167.0 1.079e+04 7.950e-10
 48.96512   -166.5 1.054e+04 6.699e-10
 48.98562   -166.1 1.025e+04 5.364e-10
 49.00372   -165.6 9.960e+03 4.296e-10
 49.01397   -166.1 9.759e+03 3.695e-10
 49.03696   -165.7 9.651e+03 3.286e-10
 49.07615   -165.0 9.364e+03 2.667e-10
 49.09665   -165.5 9.098e+03 2.162e-10
 49.11904   -164.2 8.772e+03 1.670e-10
 49.14607   -162.7 8.570e+03 1.367e-10
 49.16657   -163.1 8.389e+03 1.113e-10
 49.20103   -161.5 8.384e+03 1.022e-10
 49.24202   -159.8 8.394e+03 9.969e-11
 49.27798   -158.2 8.401e+03 9.926e-11
 49.29847   -158.4 8.316e+03 8.652e-11
 49.32401   -156.9 8.424e+03 9.141e-11
 49.36501   -155.4 8.508e+03 1.020e-10
 49.39919   -153.9 8.581e+03 1.135e-10
 49.41968   -154.6 8.648e+03 1.173e-10
 49.43038   -153.1 8.712e+03 1.268e-10
 49.45088   -153.2 8.703e+03 1.262e-10
 49.48799   -151.8 8.720e+03 1.284e-10
 49.52898   -150.5 8.713e+03 1.278e-10
 49.56229   -149.2 8.657e+03 1.196e-10
 49.58279   -149.1 8.615e+03 1.151e-10
 49.61097   -147.7 8.565e+03 1.049e-10
 49.65196   -146.5 8.560e+03 1.000e-10
 49.69296   -145.3 8.565e+03 9.902e-11
 49.71470   -144.5 8.634e+03 9.956e-11
 49.72346   -144.2 8.656e+03 9.918e-11
 49.74271   -144.7 8.655e+03 1.027e-10
 49.77495   -144.3 8.873e+03 1.194e-10
 49.81594   -144.2 9.097e+03 1.465e-10
 49.84660   -144.4 9.319e+03 1.807e-10
 49.86710   -144.3 9.458e+03 1.903e-10
 49.89793   -145.1 9.772e+03 2.387e-10
 49.93892   -146.2 9.986e+03 2.836e-10
 49.97851   -147.4 1.003e+04 3.036e-10
 49.99901   -148.0 1.066e+04 4.760e-10
 50.02091   -148.9 1.054e+04 4.627e-10
 50.04525   -149.5 1.022e+04 3.901e-10
 50.06575   -149.8 1.030e+04 4.046e-10
 50.10290   -150.5 9.980e+03 3.154e-10
 50.13092   -151.0 9.902e+03 2.967e-10
 50.15141   -151.4 1.007e+04 3.374e-10
 50.18488   -151.8 1.006e+04 3.348e-10
 50.22588   -152.2 1.019e+04 3.650e-10
 50.26283   -152.6 1.038e+04 4.202e-10
 50.28332   -153.0 1.039e+04 4.315e-10
 50.30787   -153.3 1.051e+04 4.634e-10
 50.34778   -153.6 1.054e+04 4.701e-10
 50.36828   -154.1 1.042e+04 4.376e-10
 50.38985   -154.1 1.041e+04 4.270e-10
 50.41523   -154.1 1.027e+04 3.823e-10
 50.43573   -154.6 1.009e+04 3.697e-10
 50.47184   -154.4 9.926e+03 3.100e-10
 50.51284   -154.2 9.702e+03 2.555e-10
 50.54714   -153.8 9.481e+03 2.142e-10
 50.56764   -153.7 9.360e+03 1.994e-10
 50.59482   -153.0 9.234e+03 1.774e-10
 50.63582   -152.3 9.169e+03 1.685e-10
 50.67081   -151.6 9.150e+03 1.671e-10
 50.69131   -151.8 9.192e+03 1.722e-10
 50.69955   -151.3 9.183e+03 1.777e-10
 50.72004   -151.1 9.072e+03 1.549e-10
 50.75880   -150.6 9.027e+03 1.594e-10
 50.79979   -150.1 8.982e+03 1.646e-10
 50.83145   -149.6 8.965e+03 1.677e-10
 50.85195   -149.1 8.870e+03 1.521e-10
 50.88178   -148.5 8.899e+03 1.597e-10
 50.92277   -148.0 8.924e+03 1.624e-10
 50.96336   -147.5 8.886e+03 1.614e-10
 50.98386   -146.9 8.926e+03 1.674e-10
 50.99385   -146.4 8.907e+03 1.655e-10
 51.01434   -146.8 8.976e+03 1.713e-10
 51.04576   -146.2 8.926e+03 1.639e-10
 51.08675   -145.6 8.803e+03 1.465e-10
 51.11577   -144.9 8.673e+03 1.276e-10
 51.13626   -144.5 8.907e+03 1.636e-10
 51.16874   -143.9 8.859e+03 1.519e-10
 51.20973   -143.4 8.849e+03 1.493e-10
 51.24768   -143.1 8.992e+03 1.670e-10
 51.26817   -142.9 9.230e+03 2.275e-10
 51.29172   -142.6 9.438e+03 2.878e-10
 51.31688   -142.2 9.607e+03 3.624e-10
 51.33737   -141.9 9.654e+03 3.531e-10
 51.37371   -141.5 9.757e+03 4.152e-10
 51.40008   -141.2 9.772e+03 4.319e-10
 51.42058   -140.9 9.909e+03 4.687e-10
 51.45570   -140.5 9.811e+03 4.610e-10
 51.49669   -140.0 9.673e+03 4.203e-10
 51.53199   -139.6 9.617e+03 3.910e-10
 51.55249   -139.8 1.001e+04 5.062e-10
 51.57868   -139.4 1.011e+04 5.302e-10
 51.61941   -139.0 1.014e+04 5.392e-10
 51.63991   -139.3 1.074e+04 7.730e-10
 51.66067   -138.8 1.063e+04 7.238e-10
 51.68439   -138.4 1.044e+04 6.338e-10
 51.70489   -138.6 1.061e+04 6.864e-10
 51.74265   -138.1 1.056e+04 6.335e-10
 51.78365   -138.0 1.057e+04 6.276e-10
 51.81630   -138.7 1.088e+04 7.055e-10
 51.83680   -138.2 1.091e+04 7.042e-10
 51.85529   -140.5 1.181e+04 1.090e-09
 51.87569   -141.8 1.249e+04 1.485e-09
 51.89231   -143.1 1.308e+04 2.040e-09
 51.90256   -143.2 1.326e+04 2.044e-09
 51.91668   -146.1 1.471e+04 3.177e-09
 51.93718   -149.1 1.612e+04 4.856e-09
 51.95250   -152.2 1.706e+04 6.375e-09
 51.96275   -153.1 1.676e+04 6.410e-09
 51.96851   -156.1 1.701e+04 6.875e-09
 51.97876   -158.2 1.797e+04 9.632e-09
 51.99867   -161.1 1.771e+04 9.105e-09
 52.01917   -163.6 1.672e+04 6.049e-09
 52.03447   -166.2 1.536e+04 3.482e-09
 52.04472   -167.7 1.538e+04 3.951e-09
 52.06016   -169.3 1.409e+04 2.485e-09
 52.08066   -170.1 1.331e+04 1.786e-09
 52.10042   -170.3 1.281e+04 1.409e-09
 52.11067   -170.9 1.283e+04 1.423e-09
 52.11401   -170.8 1.247e+04 1.165e-09
 52.12426   -170.8 1.259e+04 1.271e-09
 52.14215   -170.8 1.223e+04 1.036e-09
 52.16265   -170.5 1.195e+04 8.645e-10
 52.17662   -170.3 1.172e+04 7.373e-10
 52.18687   -170.6 1.188e+04 8.272e-10
 52.20364   -170.2 1.177e+04 7.728e-10
 52.22414   -169.8 1.170e+04 7.399e-10
 52.24258   -169.3 1.167e+04 7.239e-10
 52.25283   -169.3 1.200e+04 9.172e-10
 52.26513   -168.8 1.202e+04 9.249e-10
 52.27553   -168.3 1.202e+04 9.259e-10
 52.28578   -168.7 1.196e+04 8.925e-10
 52.30612   -168.3 1.189e+04 8.507e-10
 52.31878   -167.8 1.182e+04 8.011e-10
 52.32903   -168.0 1.205e+04 9.231e-10
 52.34712   -167.5 1.196e+04 8.750e-10
 52.36761   -167.1 1.189e+04 8.322e-10
 52.38473   -166.7 1.183e+04 7.917e-10
 52.39498   -166.7 1.210e+04 9.413e-10
 52.40861   -166.3 1.209e+04 9.439e-10
 52.42680   -165.8 1.212e+04 9.613e-10
 52.43704   -166.2 1.190e+04 8.300e-10
 52.44960   -165.7 1.207e+04 9.263e-10
 52.48045   -165.1 1.235e+04 1.083e-09
 52.51684   -163.9 1.245e+04 1.164e-09
 52.53734   -164.1 1.295e+04 1.531e-09
 52.56253   -163.3 1.303e+04 1.652e-09
 52.58851   -162.6 1.304e+04 1.680e-09
 52.60900   -163.0 1.279e+04 1.510e-09
 52.64452   -162.2 1.265e+04 1.473e-09
 52.66924   -161.2 1.217e+04 1.186e-09
 52.68974   -161.4 1.229e+04 1.269e-09
 52.72651   -160.0 1.169e+04 9.001e-10
 52.76750   -158.3 1.108e+04 6.081e-10
 52.80115   -156.3 1.058e+04 4.177e-10
 52.82165   -156.0 1.059e+04 4.183e-10
 52.84949   -153.9 1.027e+04 3.090e-10
 52.89048   -151.8 1.009e+04 2.496e-10
 52.91154   -149.4 9.980e+03 2.194e-10
 52.93204   -149.3 9.900e+03 1.889e-10
 52.95356   -146.9 9.893e+03 1.828e-10
 52.97405   -146.8 9.831e+03 1.543e-10
 53.01346   -144.5 9.833e+03 1.514e-10
 53.05446   -142.4 9.883e+03 1.515e-10
 53.08547   -140.6 1.007e+04 1.760e-10
 53.10596   -140.3 9.850e+03 1.261e-10
 53.13645   -138.6 1.001e+04 1.542e-10
 53.17744   -137.0 1.017e+04 2.067e-10
 53.21407   -135.3 1.037e+04 2.800e-10
 53.23351   -135.5 1.040e+04 2.871e-10
 53.23787   -135.0 1.009e+04 1.895e-10
 53.25943   -133.4 1.027e+04 2.478e-10
 53.30042   -131.8 1.047e+04 3.119e-10
 53.34142   -130.1 1.063e+04 3.695e-10
 53.36978   -128.5 1.074e+04 4.111e-10
 53.39028   -127.7 1.042e+04 2.803e-10
 53.42340   -126.0 1.048e+04 3.073e-10
 53.46440   -124.4 1.046e+04 3.277e-10
 53.50169   -122.6 1.040e+04 3.373e-10
 53.52218   -121.7 1.025e+04 2.630e-10
 53.53710   -119.9 1.025e+04 2.824e-10
 53.55760   -120.0 1.031e+04 3.033e-10
 53.58738   -118.1 1.021e+04 2.760e-10
 53.62837   -116.3 1.012e+04 2.435e-10
 53.65409   -114.4 9.974e+03 1.971e-10
 53.67459   -113.6 1.006e+04 2.144e-10
 53.71036   -111.7 9.902e+03 1.680e-10
 53.75135   -109.7 9.710e+03 1.264e-10
 53.78600   -107.7 9.578e+03 9.889e-11
 53.80650   -107.1 9.644e+03 1.067e-10
 53.83334   -105.2 9.548e+03 8.890e-11
 53.86014   -103.2 9.481e+03 8.466e-11
 53.88063   -103.7 9.614e+03 9.754e-11
 53.91533   -101.7 9.614e+03 9.977e-11
 53.93841    -99.8 9.638e+03 1.170e-10
 53.95890    -99.4 9.610e+03 1.035e-10
 53.99732    -97.5 9.604e+03 1.212e-10
 54.03831    -95.6 9.600e+03 1.481e-10
 54.07031    -93.6 9.605e+03 1.794e-10
 54.09081    -93.1 9.476e+03 1.440e-10
 54.12030    -91.0 9.475e+03 1.681e-10
 54.16129    -89.0 9.475e+03 1.857e-10
 54.18317    -87.0 9.456e+03 1.980e-10
 54.20360    -87.3 9.481e+03 1.901e-10
 54.24322    -84.7 9.357e+03 1.781e-10
 54.28428    -82.9 9.345e+03 1.899e-10
 54.32527    -81.1 9.365e+03 2.136e-10
 54.35463    -79.4 9.371e+03 2.436e-10
 54.37513    -78.5 9.293e+03 2.346e-10
 54.40726    -76.7 9.277e+03 2.530e-10
 54.44825    -74.9 9.246e+03 2.566e-10
 54.48570    -73.1 9.100e+03 2.434e-10
 54.50349    -73.4 9.110e+03 2.261e-10
 54.50703    -72.3 9.099e+03 2.101e-10
 54.53024    -70.6 9.024e+03 2.000e-10
 54.57123    -68.9 8.933e+03 1.902e-10
 54.61223    -67.0 8.831e+03 1.781e-10
 54.63894    -65.0 8.749e+03 1.588e-10
 54.65944    -64.4 8.757e+03 1.569e-10
 54.69421    -62.5 8.719e+03 1.365e-10
 54.73521    -60.7 8.631e+03 1.270e-10
 54.77085    -58.9 8.606e+03 1.262e-10
 54.79135    -58.2 8.669e+03 1.304e-10
 54.80873    -56.2 8.626e+03 1.338e-10
 54.82923    -56.7 8.746e+03 1.415e-10
 54.85819    -54.7 8.759e+03 1.711e-10
 54.89918    -52.2 8.866e+03 2.067e-10
 54.92326    -49.8 8.948e+03 2.284e-10
 54.94375    -49.2 8.959e+03 2.243e-10
 54.98117    -47.0 9.010e+03 2.330e-10
 55.02217    -45.0 9.038e+03 2.368e-10
 55.05516    -43.4 9.207e+03 2.564e-10
 55.07566    -42.8 9.172e+03 2.463e-10
 55.10415    -41.8 9.460e+03 3.000e-10
 55.13176    -40.6 9.760e+03 4.252e-10
 55.15226    -41.6 9.863e+03 4.515e-10
 55.18614    -39.5 1.009e+04 5.923e-10
 55.20757    -37.9 1.025e+04 5.865e-10
 55.22807    -37.5 1.004e+04 4.572e-10
 55.26813    -36.9 1.030e+04 3.925e-10
 55.30912    -37.2 1.044e+04 4.091e-10
 55.33938    -36.8 1.040e+04 4.846e-10
 55.35988    -36.0 1.045e+04 4.716e-10
 55.38076    -35.6 1.079e+04 5.295e-10
 55.40116    -36.0 1.138e+04 6.058e-10
 55.41548    -36.6 1.172e+04 7.574e-10
 55.42573    -36.4 1.174e+04 6.545e-10
 55.44216    -36.7 1.167e+04 8.445e-10
 55.45460    -36.0 1.148e+04 1.031e-09
 55.46485    -35.9 1.144e+04 1.060e-09
 55.48144    -35.1 1.177e+04 1.084e-09
 55.49169    -34.6 1.144e+04 1.014e-09
 55.50365    -34.2 1.188e+04 9.465e-10
 55.52415    -34.8 1.217e+04 9.089e-10
 55.54464    -35.7 1.212e+04 9.238e-10
 55.55764    -36.4 1.206e+04 9.637e-10
 55.56789    -35.5 1.187e+04 7.948e-10
 55.58564    -35.5 1.155e+04 9.336e-10
 55.60587    -35.3 1.162e+04 9.574e-10
 55.61612    -35.6 1.160e+04 9.659e-10
 55.62369    -35.5 1.162e+04 9.919e-10
 55.64429    -34.6 1.136e+04 8.810e-10
 55.67807    -34.1 1.150e+04 8.701e-10
 55.71906    -35.1 1.185e+04 8.651e-10
 55.74971    -36.6 1.180e+04 8.884e-10
 55.76575    -37.1 1.170e+04 8.893e-10
 55.77328    -36.8 1.179e+04 9.145e-10
 55.77763    -37.0 1.169e+04 8.321e-10
 55.79061    -37.3 1.128e+04 1.014e-09
 55.81110    -36.8 1.119e+04 9.660e-10
 55.83160    -37.3 1.177e+04 6.900e-10
 55.84196    -38.5 1.171e+04 6.347e-10
 55.85220    -39.2 1.185e+04 7.683e-10
 55.87259    -40.9 1.179e+04 6.579e-10
 55.89309    -42.3 1.167e+04 6.481e-10
 55.90801    -43.6 1.169e+04 7.501e-10
 55.92860    -44.9 1.204e+04 1.039e-09
 55.96503    -45.8 1.217e+04 1.317e-09
 55.99567    -46.0 1.228e+04 1.526e-09
 56.01607    -45.9 1.232e+04 1.549e-09
 56.03657    -46.2 1.225e+04 1.580e-09
 56.05007    -45.9 1.210e+04 1.453e-09
 56.06031    -46.6 1.183e+04 1.244e-09
 56.07756    -46.7 1.172e+04 1.135e-09
 56.09042    -46.5 1.156e+04 1.069e-09
 56.10066    -46.5 1.139e+04 1.014e-09
 56.12890    -46.1 1.096e+04 7.307e-10
 56.16999    -45.0 1.044e+04 4.682e-10
 56.19242    -44.1 1.002e+04 2.883e-10
 56.21292    -44.6 1.008e+04 2.901e-10
 56.25198    -43.9 9.791e+03 2.009e-10
 56.29298    -43.0 9.574e+03 1.759e-10
 56.32433    -41.2 9.466e+03 1.823e-10
 56.34482    -41.7 9.580e+03 2.309e-10
 56.37496    -39.5 9.498e+03 2.199e-10
 56.40339    -37.5 9.484e+03 1.879e-10
 56.42389    -37.4 9.417e+03 1.511e-10
 56.45623    -36.0 9.527e+03 1.523e-10
 56.47673    -36.3 9.633e+03 1.669e-10
 56.49795    -35.7 9.805e+03 2.037e-10
 56.53894    -34.4 9.915e+03 3.003e-10
 56.57993    -32.5 1.007e+04 3.788e-10
 56.60864    -30.9 1.013e+04 3.660e-10
 56.62914    -31.0 1.015e+04 3.581e-10
 56.66192    -30.1 1.021e+04 2.884e-10
 56.70292    -29.8 1.016e+04 2.507e-10
 56.72643    -29.3 1.001e+04 2.332e-10
 56.74356    -29.7 1.010e+04 2.597e-10
 56.76105    -29.8 1.008e+04 2.620e-10
 56.78490    -28.9 1.010e+04 2.455e-10
 56.82590    -28.3 1.016e+04 2.227e-10
 56.86689    -27.9 1.020e+04 2.067e-10
 56.89295    -27.6 1.018e+04 2.065e-10
 56.91345    -27.2 1.024e+04 2.195e-10
 56.94888    -26.7 1.023e+04 2.244e-10
 56.98987    -26.6 1.030e+04 2.444e-10
 57.02486    -26.7 1.034e+04 2.786e-10
 57.04345    -26.1 1.048e+04 3.165e-10
 57.04946    -26.8 1.051e+04 3.801e-10
 57.07186    -26.3 1.035e+04 3.615e-10
 57.11285    -25.4 1.008e+04 2.800e-10
 57.15385    -24.9 9.805e+03 1.814e-10
 57.17727    -24.7 9.560e+03 1.240e-10
 57.19776    -23.6 9.603e+03 1.241e-10
 57.23584    -23.4 9.384e+03 9.157e-11
 57.27683    -22.9 9.196e+03 8.032e-11
 57.30918    -22.2 9.226e+03 7.804e-11
 57.32967    -21.6 9.318e+03 8.309e-11
 57.35199    -20.9 9.372e+03 8.762e-11
 57.37249    -21.4 9.418e+03 1.041e-10
 57.39981    -20.4 9.362e+03 1.026e-10
 57.44081    -19.1 9.248e+03 8.769e-11
 57.46158    -17.9 9.183e+03 7.190e-11
 57.48208    -17.1 9.236e+03 7.265e-11
 57.52279    -16.1 9.167e+03 5.337e-11
 57.56379    -15.2 9.092e+03 4.383e-11
 57.59349    -14.1 9.118e+03 4.205e-11
 57.61399    -13.8 9.131e+03 4.156e-11
 57.64578    -12.9 9.213e+03 4.460e-11
 57.67502    -12.2 9.416e+03 5.217e-11
 57.69552    -12.9 9.414e+03 6.226e-11
 57.72540    -11.8 9.460e+03 8.843e-11
 57.74589    -11.5 9.488e+03 9.453e-11
 57.76876    -10.2 9.527e+03 1.166e-10
 57.80975     -8.9 9.595e+03 1.329e-10
 57.85075     -7.7 9.602e+03 1.396e-10
 57.87780     -6.6 9.601e+03 1.424e-10
 57.89830     -6.5 9.598e+03 1.459e-10
 57.93273     -5.5 9.591e+03 1.489e-10
 57.97373     -4.4 9.608e+03 1.499e-10
 57.99805     -3.4 9.647e+03 1.527e-10
 58.01354     -3.6 9.522e+03 1.344e-10
 58.03021     -3.6 9.615e+03 1.529e-10
 58.05571     -2.6 9.721e+03 1.667e-10
 58.09671     -1.8 9.909e+03 1.899e-10
 58.13770     -1.4 1.022e+04 2.284e-10
 58.16212     -1.6 1.054e+04 2.798e-10
 58.18261     -1.7 1.077e+04 3.610e-10
 58.20934     -2.2 1.090e+04 4.263e-10
 58.22788     -2.5 1.096e+04 5.158e-10
 58.23812     -2.4 1.107e+04 5.966e-10
 58.25024     -2.5 1.106e+04 6.113e-10
 58.27074     -2.6 1.098e+04 5.901e-10
 58.29123     -2.9 1.081e+04 4.816e-10
 58.30408     -3.2 1.072e+04 4.360e-10
 58.31324     -3.1 1.077e+04 4.528e-10
 58.32089     -3.4 1.067e+04 4.105e-10
 58.34257     -3.5 1.027e+04 2.996e-10
 58.38367     -3.6 9.778e+03 1.758e-10
 58.42466     -4.3 9.458e+03 1.041e-10
 58.44643     -5.2 9.305e+03 9.366e-11
 58.46693     -5.1 9.481e+03 9.706e-11
 58.50665     -6.2 9.559e+03 1.060e-10
 58.54764     -7.9 1.016e+04 1.677e-10
 58.57824     -9.5 1.070e+04 2.556e-10
 58.59864    -11.9 1.114e+04 5.052e-10
 58.61919    -14.1 1.190e+04 8.227e-10
 58.63367    -17.0 1.295e+04 1.423e-09
 58.64392    -16.8 1.290e+04 1.306e-09
 58.65435    -19.0 1.357e+04 2.205e-09
 58.66459    -19.6 1.355e+04 2.248e-09
 58.68068    -20.2 1.335e+04 2.208e-09
 58.70117    -20.8 1.310e+04 1.785e-09
 58.72030    -22.4 1.294e+04 1.160e-09
 58.73055    -23.3 1.266e+04 9.394e-10
 58.74217    -26.1 1.219e+04 6.186e-10
 58.76266    -28.7 1.157e+04 4.716e-10
 58.78316    -30.4 1.125e+04 4.247e-10
 58.79519    -31.4 1.120e+04 4.313e-10
 58.79828    -30.8 1.115e+04 4.271e-10
 58.80675    -30.7 1.117e+04 4.524e-10
 58.82416    -31.3 1.116e+04 4.593e-10
 58.84465    -31.9 1.118e+04 4.644e-10
 58.86246    -32.5 1.122e+04 4.785e-10
 58.87271    -32.0 1.118e+04 4.845e-10
 58.88565    -32.8 1.134e+04 5.075e-10
 58.90614    -34.1 1.178e+04 5.790e-10
 58.92664    -35.7 1.214e+04 7.345e-10
 58.93866    -37.0 1.223e+04 1.021e-09
 58.94823    -36.9 1.242e+04 1.071e-09
 58.95670    -35.9 1.195e+04 8.255e-10
 58.96763    -37.1 1.237e+04 1.090e-09
 58.99446    -38.2 1.248e+04 1.198e-09
 59.01496    -39.1 1.317e+04 1.610e-09
 59.02912    -40.2 1.304e+04 1.748e-09
 59.04962    -41.1 1.289e+04 1.665e-09
 59.08046    -42.2 1.254e+04 1.374e-09
 59.12156    -44.2 1.200e+04 9.950e-10
 59.14697    -46.6 1.169e+04 8.604e-10
 59.16746    -47.5 1.088e+04 5.663e-10
 59.20354    -48.4 1.080e+04 6.125e-10
 59.24454    -49.2 1.099e+04 7.010e-10
 59.26968    -50.0 1.105e+04 7.776e-10
 59.28352    -49.9 1.112e+04 8.303e-10
 59.29937    -50.0 1.074e+04 6.731e-10
 59.32653    -49.8 1.079e+04 7.201e-10
 59.36752    -49.8 1.075e+04 5.636e-10
 59.40851    -51.7 1.087e+04 4.712e-10
 59.43128    -55.2 1.145e+04 6.601e-10
 59.45178    -54.9 1.126e+04 7.093e-10
 59.49050    -57.2 1.207e+04 1.156e-09
 59.52115    -58.1 1.252e+04 1.190e-09
 59.54155    -59.3 1.314e+04 1.303e-09
 59.56205    -62.6 1.297e+04 1.314e-09
 59.57324    -63.8 1.237e+04 1.433e-09
 59.58322    -62.7 1.208e+04 1.036e-09
 59.59252    -62.6 1.208e+04 1.099e-09
 59.60304    -63.0 1.155e+04 1.168e-09
 59.62354    -62.2 1.139e+04 1.103e-09
 59.63920    -61.5 1.135e+04 7.932e-10
 59.64944    -61.0 1.096e+04 7.454e-10
 59.66453    -60.8 1.096e+04 5.014e-10
 59.69500    -62.0 1.076e+04 3.376e-10
 59.71559    -60.5 1.069e+04 3.478e-10
 59.73646    -60.7 1.043e+04 2.870e-10
 59.77746    -60.3 1.039e+04 2.818e-10
 59.81845    -59.6 1.042e+04 3.084e-10
 59.84750    -58.7 1.045e+04 3.315e-10
 59.86800    -57.2 1.050e+04 3.546e-10
 59.89525    -56.3 1.055e+04 3.789e-10
 59.91575    -55.5 1.036e+04 3.369e-10
 59.94143    -54.6 1.044e+04 3.130e-10
 59.97941    -54.2 1.053e+04 3.009e-10
 59.99991    -52.6 1.080e+04 4.205e-10
 60.01308    -52.4 1.093e+04 4.268e-10
 60.03348    -52.4 1.093e+04 4.409e-10
 60.05397    -52.2 1.092e+04 4.706e-10
 60.06567    -52.1 1.092e+04 4.796e-10
 60.06826    -51.3 1.111e+04 5.458e-10
 60.07707    -51.3 1.092e+04 4.658e-10
 60.09497    -51.1 1.076e+04 4.565e-10
 60.11546    -51.1 1.075e+04 4.566e-10
 60.13172    -51.4 1.046e+04 4.025e-10
 60.15231    -50.2 1.090e+04 5.168e-10
 60.18740    -50.7 1.054e+04 3.931e-10
 60.21828    -50.8 1.038e+04 3.179e-10
 60.23878    -50.4 1.025e+04 2.696e-10
 60.26372    -50.5 1.023e+04 2.395e-10
 60.28422    -50.5 1.056e+04 3.430e-10
 60.31038    -50.9 1.047e+04 3.104e-10
 60.35137    -50.9 1.052e+04 3.384e-10
 60.39237    -50.6 1.061e+04 4.314e-10
 60.41613    -49.6 1.070e+04 5.203e-10
 60.43663    -49.5 1.053e+04 4.382e-10
 60.47436    -48.1 1.040e+04 4.352e-10
 60.51535    -46.4 1.013e+04 3.622e-10
 60.54131    -44.6 9.998e+03 2.743e-10
 60.55350    -43.7 9.641e+03 1.812e-10
 60.56853    -43.3 9.409e+03 1.440e-10
 60.59734    -41.4 9.411e+03 1.238e-10
 60.63833    -39.6 9.441e+03 1.150e-10
 60.67932    -37.7 9.497e+03 1.150e-10
 60.70044    -35.8 9.495e+03 1.267e-10
 60.72094    -34.9 9.320e+03 1.040e-10
 60.76131    -32.7 9.379e+03 1.141e-10
 60.80231    -30.6 9.504e+03 1.210e-10
 60.83235    -28.9 9.650e+03 1.355e-10
 60.85285    -27.8 9.569e+03 1.192e-10
 60.86434    -26.1 9.740e+03 1.411e-10
 60.88484    -25.2 9.684e+03 1.287e-10
 60.92529    -23.5 9.883e+03 1.823e-10
 60.96426    -21.9 1.012e+04 2.451e-10
 60.98476    -21.6 1.047e+04 2.771e-10
 61.00728    -20.1 1.068e+04 3.871e-10
 61.04827    -18.7 1.103e+04 5.272e-10
 61.08926    -18.0 1.159e+04 7.382e-10
 61.11657    -18.0 1.237e+04 9.684e-10
 61.12672    -19.2 1.366e+04 1.355e-09
 61.14031    -23.4 1.591e+04 3.050e-09
 61.16081    -25.3 1.641e+04 6.284e-09
 61.17693    -24.5 1.670e+04 1.026e-08
 61.18718    -26.2 1.770e+04 1.193e-08
 61.19267    -25.7 1.797e+04 1.474e-08
 61.20292    -24.3 1.876e+04 2.077e-08
 61.22230    -24.3 1.940e+04 1.233e-08
 61.24280    -28.2 1.833e+04 5.535e-09
 61.25863    -34.6 1.402e+04 2.651e-09
 61.26887    -34.9 1.364e+04 2.394e-09
 61.28379    -35.9 1.298e+04 2.093e-09
 61.30429    -36.1 1.312e+04 1.949e-09
 61.32458    -36.7 1.317e+04 1.883e-09
 61.33483    -37.0 1.322e+04 2.067e-09
 61.33845    -37.5 1.297e+04 2.183e-09
 61.34870    -37.5 1.268e+04 1.856e-09
 61.36578    -37.3 1.253e+04 1.892e-09
 61.38627    -36.7 1.229e+04 1.731e-09
 61.40078    -36.2 1.205e+04 1.336e-09
 61.41103    -35.8 1.266e+04 1.830e-09
 61.42727    -36.1 1.213e+04 1.213e-09
 61.44777    -36.7 1.132e+04 8.116e-10
 61.46674    -36.9 1.085e+04 5.941e-10
 61.47699    -37.4 1.095e+04 6.935e-10
 61.48876    -37.0 1.046e+04 5.084e-10
 61.49996    -36.2 1.022e+04 3.919e-10
 61.51021    -36.2 1.011e+04 3.308e-10
 61.53279    -35.5 9.874e+03 2.670e-10
 61.55338    -36.4 9.838e+03 2.738e-10
 61.58119    -35.4 9.748e+03 2.495e-10
 61.62218    -34.4 9.971e+03 3.353e-10
 61.65133    -33.7 9.863e+03 4.417e-10
 61.66148    -33.8 9.913e+03 4.620e-10
 61.67323    -32.7 9.946e+03 5.488e-10
 61.68510    -31.2 1.024e+04 6.385e-10
 61.69534    -31.6 1.006e+04 5.357e-10
 61.71423    -30.6 1.031e+04 5.577e-10
 61.73472    -30.2 1.040e+04 5.374e-10
 61.75105    -30.1 1.037e+04 5.203e-10
 61.76130    -30.3 1.014e+04 4.777e-10
 61.77572    -30.0 1.019e+04 4.947e-10
 61.79621    -29.5 1.029e+04 5.076e-10
 61.81275    -28.8 1.032e+04 5.533e-10
 61.82299    -28.7 1.006e+04 4.443e-10
 61.82725    -28.0 1.014e+04 4.319e-10
 61.83750    -28.0 1.005e+04 4.266e-10
 61.85770    -26.9 1.004e+04 4.395e-10
 61.87820    -26.2 1.001e+04 4.341e-10
 61.89321    -24.8 1.012e+04 3.953e-10
 61.90346    -24.9 1.009e+04 4.141e-10
 61.91920    -24.2 1.004e+04 4.183e-10
 61.93969    -23.1 1.017e+04 4.148e-10
 61.95916    -22.6 1.023e+04 4.204e-10
 61.96941    -22.7 1.031e+04 4.678e-10
 61.97426    -21.9 1.034e+04 5.134e-10
 61.98451    -22.0 1.012e+04 4.138e-10
 62.00118    -21.0 1.034e+04 4.699e-10
 62.02168    -20.3 1.052e+04 5.754e-10
 62.03536    -19.3 1.066e+04 6.760e-10
 62.04561    -19.4 1.072e+04 7.267e-10
 62.06267    -18.4 1.103e+04 8.428e-10
 62.08317    -17.7 1.136e+04 9.847e-10
 62.10132    -17.1 1.165e+04 1.168e-09
 62.11157    -17.2 1.164e+04 1.176e-09
 62.12416    -16.4 1.192e+04 1.398e-09
 62.13578    -15.6 1.219e+04 1.640e-09
 62.14603    -15.7 1.223e+04 1.692e-09
 62.16516    -14.6 1.242e+04 1.896e-09
 62.17752    -13.6 1.262e+04 2.009e-09
 62.18777    -13.7 1.236e+04 1.718e-09
 62.20615    -13.1 1.241e+04 1.719e-09
 62.22665    -12.5 1.235e+04 1.666e-09
 62.24347    -12.1 1.228e+04 1.569e-09
 62.25372    -12.2 1.201e+04 1.401e-09
 62.26764    -11.6 1.186e+04 1.287e-09
 62.28704    -11.3 1.178e+04 1.196e-09
 62.29729    -11.5 1.167e+04 1.124e-09
 62.30864    -11.1 1.155e+04 1.063e-09
 62.31968    -10.7 1.150e+04 1.020e-09
 62.32993    -10.5 1.130e+04 9.061e-10
 62.34963     -9.9 1.123e+04 8.630e-10
 62.37013     -9.4 1.118e+04 8.402e-10
 62.38563     -8.8 1.115e+04 8.270e-10
 62.39588     -8.4 1.102e+04 7.598e-10
 62.41112     -7.9 1.104e+04 7.688e-10
 62.43162     -7.4 1.108e+04 7.882e-10
 62.44856     -6.9 1.116e+04 8.302e-10
 62.45828     -6.9 1.118e+04 8.442e-10
 62.46183     -6.6 1.115e+04 8.363e-10
 62.47261     -6.1 1.125e+04 9.038e-10
 62.49311     -5.5 1.137e+04 9.914e-10
 62.51361     -4.7 1.147e+04 1.064e-09
 62.52779     -4.1 1.161e+04 1.117e-09
 62.53804     -3.8 1.154e+04 1.063e-09
 62.55460     -2.8 1.141e+04 1.007e-09
 62.57510     -2.2 1.132e+04 9.319e-10
 62.59374     -1.1 1.106e+04 7.701e-10
 62.60399     -0.9 1.089e+04 6.845e-10
 62.61008     -0.9 1.079e+04 6.016e-10
 62.62032     -0.8 1.085e+04 6.281e-10
 62.64693     -0.2 1.061e+04 5.140e-10
 62.67014      0.6 1.033e+04 4.205e-10
 62.69064      1.0 1.020e+04 3.833e-10
 62.72902      1.9 1.015e+04 3.635e-10
 62.76154      2.7 1.019e+04 3.648e-10
 62.78204      3.4 1.022e+04 3.824e-10
 62.80205      4.2 1.032e+04 3.901e-10
 62.82255      4.4 1.033e+04 3.896e-10
 62.85200      5.4 1.024e+04 3.370e-10
 62.89300      6.4 1.011e+04 2.911e-10
 62.93396      7.1 9.912e+03 2.476e-10
 62.97495      7.7 9.189e+03 1.411e-10
 63.01598      8.4 9.013e+03 1.309e-10
 63.05697      9.3 9.020e+03 1.334e-10
 63.08457      9.9 9.128e+03 1.496e-10
 63.09346     11.0 9.394e+03 1.782e-10
 63.10686     11.7 9.132e+03 1.365e-10
 63.13896     12.4 9.468e+03 1.817e-10
 63.16247     12.1 9.740e+03 2.269e-10
 63.17262     12.8 9.648e+03 2.103e-10
 63.19001     12.9 9.787e+03 2.279e-10
 63.21050     12.7 9.951e+03 2.758e-10
 63.22832     12.1 1.032e+04 3.475e-10
 63.23857     13.1 1.006e+04 2.832e-10
 63.24589     10.4 1.176e+04 5.131e-10
 63.25614     10.4 1.216e+04 6.120e-10
 63.27199      3.1 1.494e+04 2.360e-09
 63.29249      3.7 1.493e+04 4.760e-09
 63.30453      4.5 1.475e+04 4.889e-09
 63.31478      5.3 1.497e+04 5.719e-09
 63.33348      5.6 1.519e+04 5.280e-09
 63.35398      4.4 1.627e+04 3.487e-09
 63.37048      0.6 1.540e+04 1.732e-09
 63.38073      3.8 1.634e+04 2.658e-09
 63.39498     -1.7 1.379e+04 1.341e-09
 63.40741     -3.0 1.189e+04 1.081e-09
 63.42800     -3.1 1.170e+04 1.001e-09
 63.46691     -3.8 1.066e+04 8.070e-10
 63.50258     -2.9 1.027e+04 6.007e-10
 63.52308     -1.4 1.111e+04 1.124e-09
 63.54890      0.4 1.021e+04 6.850e-10
 63.58989      2.9 9.233e+03 2.898e-10
 63.63089      3.7 8.746e+03 9.186e-11
 63.65499      3.7 8.229e+03 4.378e-11
 63.67549      5.2 8.563e+03 6.598e-11
 63.71014      6.0 8.004e+03 5.210e-11
 63.73063      7.6 8.371e+03 8.802e-11
 63.75387      9.0 8.100e+03 8.751e-11
 63.78690     10.7 8.033e+03 9.773e-11
 63.80740     11.9 8.151e+03 1.097e-10
 63.83586     13.4 8.124e+03 1.183e-10
 63.87685     14.5 8.197e+03 1.397e-10
 63.91784     15.4 8.425e+03 1.780e-10
 63.93930     15.7 8.746e+03 2.370e-10
 63.95980     16.5 8.588e+03 1.966e-10
 63.99983     16.2 9.040e+03 2.965e-10
 64.03317     16.0 9.432e+03 4.197e-10
 64.05366     15.9 9.374e+03 3.995e-10
 64.07121     14.9 9.493e+03 4.206e-10
 64.09171     16.1 9.605e+03 4.364e-10
 64.12281     14.0 9.887e+03 4.658e-10
 64.16381     11.2 9.947e+03 5.006e-10
 64.20312      7.1 1.032e+04 6.105e-10
 64.22362      8.0 1.055e+04 5.852e-10
 64.24579      2.7 1.110e+04 1.031e-09
 64.28679      0.3 1.139e+04 1.532e-09
 64.32778     -1.9 1.154e+04 1.675e-09
 64.35553     -3.0 1.103e+04 1.196e-09
 64.36345     -2.8 1.096e+04 1.205e-09
 64.37670     -3.8 1.080e+04 1.190e-09
 64.40977     -3.9 9.982e+03 7.375e-10
 64.45076     -5.4 9.352e+03 4.170e-10
 64.48743     -7.9 8.891e+03 3.055e-10
 64.50793     -7.4 8.950e+03 2.925e-10
 64.53275     -8.2 8.730e+03 3.595e-10
 64.57375     -7.1 8.570e+03 3.674e-10
 64.61474     -5.0 8.329e+03 2.381e-10
 64.63984     -4.2 7.989e+03 1.157e-10
 64.66034     -3.1 7.989e+03 1.015e-10
 64.67923     -4.0 7.550e+03 5.521e-11
 64.69973     -4.1 7.533e+03 5.387e-11
 64.73772     -3.9 7.269e+03 4.382e-11
 64.77175     -2.9 7.144e+03 4.831e-11
 64.79224     -1.7 7.139e+03 4.434e-11
 64.81971     -0.2 7.220e+03 5.022e-11
 64.86070      1.4 7.315e+03 5.841e-11
 64.90170      2.9 7.390e+03 6.610e-11
 64.92415      3.6 7.933e+03 8.524e-11
 64.94465      4.9 7.428e+03 6.302e-11
 64.98177      4.7 8.101e+03 9.042e-11
 65.00226      4.2 8.681e+03 1.133e-10
 65.02468      4.4 9.263e+03 3.022e-10
 65.05606      6.3 9.415e+03 5.368e-10
 65.07656      6.8 8.888e+03 2.823e-10
 65.10667      8.8 8.973e+03 3.616e-10
 65.14766     10.9 8.906e+03 3.233e-10
 65.18797     12.2 8.966e+03 2.518e-10
 65.20847     12.7 8.708e+03 2.342e-10
 65.22965     13.6 8.923e+03 2.472e-10
 65.27064     14.2 9.320e+03 3.104e-10
 65.30480     15.6 9.960e+03 4.981e-10
 65.32529     15.8 9.617e+03 3.865e-10
 65.34028     16.6 9.931e+03 4.955e-10
 65.36077     17.6 1.058e+04 7.635e-10
 65.38328     18.5 1.075e+04 7.774e-10
 65.40368     18.6 1.091e+04 7.726e-10
 65.41638     18.7 1.112e+04 7.625e-10
 65.42663     18.9 1.105e+04 8.049e-10
 65.44467     18.7 1.132e+04 8.224e-10
 65.46517     17.3 1.193e+04 9.441e-10
 65.47637     16.9 1.208e+04 1.126e-09
 65.48329     17.3 1.156e+04 8.027e-10
 65.49258     18.1 1.149e+04 8.700e-10
 65.50616     16.8 1.185e+04 1.075e-09
 65.52666     17.4 1.178e+04 1.250e-09
 65.54716     17.8 1.218e+04 1.598e-09
 65.55854     17.9 1.224e+04 1.630e-09
 65.56879     17.8 1.216e+04 1.501e-09
 65.58815     18.4 1.204e+04 1.454e-09
 65.60865     18.4 1.205e+04 1.433e-09
 65.62449     19.8 1.150e+04 1.073e-09
 65.63323     20.0 1.097e+04 8.193e-10
 65.63788     20.0 1.087e+04 7.409e-10
 65.64964     20.0 1.081e+04 7.023e-10
 65.68048     20.9 1.014e+04 3.884e-10
 65.72158     21.1 9.915e+03 2.418e-10
 65.75660     21.0 1.015e+04 2.428e-10
 65.77709     22.5 9.692e+03 1.911e-10
 65.80356     22.1 1.029e+04 2.371e-10
 65.83270     19.8 1.138e+04 4.361e-10
 65.84285     21.2 1.103e+04 3.346e-10
 65.85461     20.1 1.155e+04 5.821e-10
 65.87511     20.0 1.176e+04 9.542e-10
 65.89560     20.3 1.181e+04 1.129e-09
 65.90881     19.5 1.272e+04 1.255e-09
 65.91905     20.4 1.236e+04 1.203e-09
 65.93660     18.4 1.362e+04 1.366e-09
 65.95066     15.5 1.434e+04 1.593e-09
 65.96091     16.7 1.409e+04 1.566e-09
 65.97476     14.4 1.381e+04 1.704e-09
 65.98501     16.5 1.397e+04 1.685e-09
 65.99809     14.9 1.330e+04 1.710e-09
 66.01859     14.5 1.242e+04 1.531e-09
 66.04081     14.0 1.189e+04 1.072e-09
 66.06131     14.4 1.170e+04 1.020e-09
 66.09042     14.7 1.108e+04 6.596e-10
 66.11228     13.3 1.074e+04 3.610e-10
 66.11828     13.3 1.069e+04 3.623e-10
 66.12717     14.3 1.071e+04 4.434e-10
 66.14157     13.9 1.042e+04 3.637e-10
 66.17241     13.1 1.022e+04 2.523e-10
 66.19332     11.6 1.011e+04 1.881e-10
 66.21381     13.3 1.063e+04 2.327e-10
 66.25339     11.2 1.012e+04 2.446e-10
 66.27379     10.2 1.046e+04 2.892e-10
 66.28505      9.8 1.008e+04 3.475e-10
 66.30554      9.9 1.011e+04 3.608e-10
 66.32503     10.0 1.025e+04 3.262e-10
 66.33528     10.5 1.037e+04 3.962e-10
 66.34654     10.4 1.026e+04 3.509e-10
 66.36703      9.4 1.021e+04 2.809e-10
 66.38753      9.2 1.008e+04 2.689e-10
 66.40123      8.4 9.980e+03 2.328e-10
 66.41148      8.2 1.004e+04 2.501e-10
 66.42496      7.8 1.015e+04 2.556e-10
 66.43521      6.8 1.046e+04 3.196e-10
 66.45703      6.8 1.028e+04 2.900e-10
 66.47753      5.8 1.062e+04 4.050e-10
 66.50036      6.0 1.032e+04 4.032e-10
 66.54145      7.0 9.905e+03 3.814e-10
 66.57643      8.5 9.734e+03 3.232e-10
 66.59692      7.5 9.786e+03 3.205e-10
 66.60954      8.4 9.572e+03 2.583e-10
 66.63003      7.3 9.298e+03 2.097e-10
 66.66444      8.4 9.218e+03 2.161e-10
 66.70543      9.4 9.255e+03 2.795e-10
 66.74145     11.1 9.422e+03 3.623e-10
 66.76194     10.3 9.330e+03 3.064e-10
 66.78742     11.5 9.467e+03 3.451e-10
 66.82841     12.2 9.639e+03 3.903e-10
 66.86940     12.4 9.931e+03 4.978e-10
 66.89385     12.9 1.029e+04 6.948e-10
 66.90341     13.4 1.028e+04 7.005e-10
 66.91995     12.2 1.020e+04 6.902e-10
 66.95139     12.9 1.078e+04 9.731e-10
 66.99239     14.1 1.139e+04 1.387e-09
 67.02303     14.8 1.169e+04 1.697e-09
 67.03581     15.9 1.154e+04 1.657e-09
 67.04616     15.5 1.163e+04 1.649e-09
 67.06088     16.4 1.186e+04 1.874e-09
 67.07103     16.6 1.147e+04 1.551e-09
 67.08443     16.6 1.156e+04 1.450e-09
 67.10177     15.2 1.225e+04 1.635e-09
 67.11202     15.6 1.231e+04 1.846e-09
 67.12542     13.1 1.333e+04 2.418e-09
 67.14592     11.4 1.332e+04 2.906e-09
 67.16642     12.0 1.309e+04 3.500e-09
 67.17797     13.3 1.277e+04 3.309e-09
 67.18822     13.9 1.268e+04 3.196e-09
 67.20741     15.5 1.222e+04 2.597e-09
 67.22229     16.4 1.176e+04 1.651e-09
 67.23254     16.8 1.198e+04 1.965e-09
 67.24392     16.0 1.160e+04 1.156e-09
 67.25417     16.2 1.127e+04 1.030e-09
 67.27925     11.9 1.063e+04 5.479e-10
 67.31007      7.5 9.929e+03 4.948e-10
 67.33057      9.7 9.114e+03 3.026e-10
 67.36133      6.9 9.828e+03 5.497e-10
 67.38391      6.4 1.022e+04 9.725e-10
 67.38826      6.0 1.033e+04 1.016e-09
 67.39633      6.6 1.013e+04 8.929e-10
 67.41238      6.5 1.074e+04 1.126e-09
 67.43288      5.9 1.135e+04 1.429e-09
 67.45203      5.0 1.174e+04 1.599e-09
 67.46228      5.5 1.205e+04 1.801e-09
 67.47387      4.8 1.207e+04 1.912e-09
 67.49437      3.8 1.179e+04 1.846e-09
 67.51486      2.3 1.197e+04 1.757e-09
 67.52824     -0.0 1.253e+04 1.747e-09
 67.53820      0.1 1.311e+04 2.234e-09
 67.54533     -1.1 1.289e+04 1.950e-09
 67.55586     -3.5 1.228e+04 1.774e-09
 67.57635     -4.9 1.162e+04 1.611e-09
 67.59419     -5.1 1.139e+04 1.454e-09
 67.60444     -4.2 1.149e+04 1.426e-09
 67.61735     -4.7 1.121e+04 1.076e-09
 67.63785     -6.1 1.067e+04 7.385e-10
 67.65834     -7.5 1.008e+04 5.055e-10
 67.68919     -9.0 9.468e+03 3.231e-10
 67.72629     -9.2 9.022e+03 2.404e-10
 67.74679     -9.0 8.721e+03 1.815e-10
 67.77127     -8.3 8.547e+03 1.474e-10
 67.81226     -7.8 8.526e+03 1.390e-10
 67.84806     -7.1 8.635e+03 1.501e-10
 67.86855     -6.8 8.463e+03 1.130e-10
 67.87870     -6.1 8.542e+03 1.529e-10
 67.89920     -5.7 8.534e+03 1.489e-10
 67.93525     -4.0 8.782e+03 2.127e-10
 67.97624     -2.2 9.048e+03 2.616e-10
 68.01061     -0.9 9.200e+03 2.751e-10
 68.03111     -0.5 9.431e+03 3.076e-10
 68.05823      0.2 9.674e+03 3.538e-10
 68.09922      0.7 9.996e+03 4.304e-10
 68.12987      1.1 1.013e+04 5.477e-10
 68.15027      1.4 1.033e+04 6.055e-10
 68.16282      2.0 1.056e+04 6.879e-10
 68.17307      2.2 1.066e+04 7.216e-10
 68.18114      2.5 1.077e+04 7.338e-10
 68.19139      2.6 1.058e+04 6.613e-10
 68.21176      2.8 1.054e+04 6.295e-10
 68.22877      3.3 1.038e+04 5.784e-10
 68.23902      3.6 1.025e+04 5.251e-10
 68.26310      3.9 1.006e+04 3.951e-10
 68.29492      4.6 9.630e+03 2.402e-10
 68.31542      3.9 9.267e+03 1.736e-10
 68.34519      4.1 8.881e+03 1.291e-10
 68.38618      4.7 8.808e+03 1.196e-10
 68.42683      5.4 8.836e+03 1.432e-10
 68.44733      5.3 8.874e+03 1.765e-10
 68.46817      6.6 9.075e+03 2.392e-10
 68.49412      7.8 9.364e+03 3.168e-10
 68.51462      7.6 9.353e+03 3.131e-10
 68.55015      8.2 9.657e+03 4.127e-10
 68.57914      8.2 9.718e+03 4.910e-10
 68.59964      8.5 9.678e+03 4.569e-10
 68.62180      8.6 9.774e+03 5.088e-10
 68.64220      8.6 9.788e+03 5.121e-10
 68.65524      8.5 9.749e+03 4.966e-10
 68.65824      8.5 9.595e+03 4.307e-10
 68.66569      8.2 9.524e+03 4.044e-10
 68.68319      8.1 9.466e+03 3.974e-10
 68.70369      7.8 9.339e+03 3.784e-10
 68.72120      7.7 9.307e+03 3.741e-10
 68.73154      7.7 9.355e+03 3.924e-10
 68.74478      7.5 9.239e+03 3.778e-10
 68.76518      7.5 9.221e+03 3.786e-10
 68.78567      7.4 9.130e+03 3.579e-10
 68.79740      7.4 9.130e+03 3.600e-10
 68.80765      7.9 9.221e+03 4.134e-10
 68.81695      7.1 9.563e+03 4.652e-10
 68.82720      6.8 9.309e+03 4.064e-10
 68.84717      5.9 9.600e+03 4.627e-10
 68.86335      5.2 9.890e+03 5.729e-10
 68.87360      5.2 9.795e+03 5.818e-10
 68.88816      5.1 9.922e+03 6.559e-10
 68.90866      5.3 1.003e+04 7.448e-10
 68.92915      5.7 1.020e+04 7.765e-10
 68.93956      5.7 1.027e+04 7.468e-10
 68.94981      5.7 9.935e+03 6.265e-10
 68.96822      5.3 9.897e+03 5.759e-10
 68.97847      5.4 9.433e+03 4.748e-10
 68.99064      5.0 9.280e+03 4.398e-10
 69.00551      5.0 9.196e+03 4.303e-10
 69.01576      5.1 8.989e+03 3.791e-10
 69.04198      5.5 8.919e+03 3.703e-10
 69.08308      6.7 8.864e+03 3.684e-10
 69.11968      8.3 8.696e+03 3.152e-10
 69.14018      8.3 8.364e+03 2.399e-10
 69.14786      8.8 8.218e+03 2.025e-10
 69.16836      9.3 7.917e+03 1.687e-10
 69.20606     10.3 7.840e+03 1.669e-10
 69.23671     11.6 7.860e+03 1.728e-10
 69.25710     11.7 8.040e+03 1.844e-10
 69.27760     11.7 9.010e+03 2.299e-10
 69.28982     11.0 1.022e+04 3.587e-10
 69.29323     12.8 8.947e+03 2.252e-10
 69.30150     13.4 8.185e+03 1.817e-10
 69.31860     13.2 8.823e+03 2.516e-10
 69.33909     12.9 9.523e+03 3.297e-10
 69.35578     13.1 1.011e+04 5.662e-10
 69.36603     13.9 9.518e+03 4.368e-10
 69.38009     14.1 1.003e+04 5.215e-10
 69.40058     14.9 1.042e+04 8.833e-10
 69.42108     15.8 1.093e+04 1.100e-09
 69.43198     16.8 1.115e+04 1.347e-09
 69.44223     17.8 1.088e+04 1.173e-09
 69.45277     18.6 1.135e+04 1.388e-09
 69.46302     19.0 1.040e+04 8.972e-10
 69.48257     19.9 1.072e+04 9.883e-10
 69.49794     20.2 1.110e+04 1.077e-09
 69.50818     21.3 1.081e+04 9.577e-10
 69.52356     21.5 1.136e+04 1.088e-09
 69.54406     21.5 1.165e+04 1.250e-09
 69.56389     21.6 1.183e+04 1.417e-09
 69.57414     22.8 1.185e+04 1.357e-09
 69.58506     22.8 1.217e+04 1.595e-09
 69.60404     23.0 1.205e+04 1.968e-09
 69.61428     23.7 1.166e+04 1.264e-09
 69.62605     24.2 1.156e+04 1.569e-09
 69.64009     24.8 1.157e+04 1.788e-09
 69.65034     25.0 1.207e+04 2.011e-09
 69.66704     25.8 1.203e+04 2.284e-09
 69.68754     26.9 1.220e+04 2.408e-09
 69.70605     27.8 1.255e+04 2.420e-09
 69.71629     28.1 1.289e+04 3.066e-09
 69.72853     28.7 1.329e+04 2.822e-09
 69.74903     28.9 1.317e+04 2.365e-09
 69.76555     29.0 1.247e+04 1.689e-09
 69.77580     30.1 1.276e+04 1.990e-09
 69.78225     30.3 1.178e+04 1.364e-09
 69.79250     31.3 1.251e+04 1.679e-09
 69.82087     31.2 1.125e+04 9.570e-10
 69.84840     31.0 1.001e+04 4.778e-10
 69.86890     31.2 1.015e+04 4.092e-10
 69.90295     31.0 9.672e+03 2.968e-10
 69.94395     32.2 9.478e+03 3.185e-10
 69.98031     34.4 9.392e+03 3.373e-10
 70.00080     34.4 9.305e+03 3.170e-10
 70.02594     36.8 9.410e+03 3.296e-10
 70.06693     39.1 9.435e+03 3.248e-10
 70.08878     41.3 9.423e+03 3.111e-10
 70.10928     41.4 9.525e+03 3.252e-10
 70.13271     43.8 9.481e+03 3.055e-10
 70.15321     44.1 9.330e+03 2.611e-10
 70.18991     46.5 9.256e+03 2.358e-10
 70.23091     49.0 9.180e+03 2.160e-10
 70.26462     51.4 9.134e+03 2.061e-10
 70.28512     51.9 8.983e+03 1.772e-10
 70.31289     54.4 9.002e+03 1.773e-10
 70.35389     56.8 9.044e+03 1.838e-10
 70.39131     59.2 9.118e+03 2.019e-10
 70.41181     59.7 9.333e+03 2.519e-10
 70.41703     62.2 9.464e+03 3.012e-10
 70.43752     62.8 9.236e+03 2.379e-10
 70.47687     65.3 9.334e+03 2.767e-10
 70.51786     67.7 9.415e+03 3.107e-10
 70.54893     70.0 9.444e+03 3.255e-10
 70.56943     70.6 9.231e+03 2.758e-10
 70.59985     72.8 9.269e+03 2.931e-10
 70.64084     75.0 9.308e+03 3.069e-10
 70.68084     76.9 9.393e+03 3.320e-10
 70.70134     77.6 9.409e+03 3.313e-10
 70.71434     79.4 9.673e+03 4.151e-10
 70.73484     80.8 9.128e+03 2.258e-10
 70.76383     82.7 9.518e+03 3.065e-10
 70.80482     83.5 1.054e+04 5.258e-10
 70.83315     82.9 1.139e+04 8.800e-10
 70.85365     83.5 1.169e+04 1.033e-09
 70.87576     81.8 1.287e+04 2.142e-09
 70.88591     82.2 1.256e+04 1.749e-09
 70.89686     82.1 1.339e+04 2.967e-09
 70.90926     82.4 1.413e+04 4.358e-09
 70.91950     82.6 1.382e+04 3.728e-09
 70.93785     82.7 1.426e+04 4.251e-09
 70.95835     82.6 1.425e+04 4.083e-09
 70.97521     82.4 1.397e+04 3.323e-09
 70.98546     82.5 1.376e+04 3.025e-09
 70.99935     82.0 1.319e+04 2.154e-09
 71.01984     81.3 1.261e+04 1.557e-09
 71.03728     79.5 1.159e+04 8.926e-10
 71.05787     81.5 1.236e+04 1.345e-09
 71.09178     80.0 1.126e+04 8.096e-10
 71.11756     80.1 1.078e+04 5.647e-10
 71.13806     80.8 1.080e+04 5.561e-10
 71.17376     81.3 1.057e+04 3.807e-10
 71.21476     81.9 1.045e+04 3.250e-10
 71.24947     82.9 1.042e+04 3.358e-10
 71.26997     83.7 1.021e+04 2.407e-10
 71.29675     84.9 1.023e+04 2.602e-10
 71.33774     86.4 1.023e+04 2.912e-10
 71.36041     88.0 1.015e+04 2.993e-10
 71.38090     88.4 1.029e+04 3.216e-10
 71.40187     90.3 1.022e+04 3.163e-10
 71.42237     91.0 1.027e+04 2.930e-10
 71.46072     93.1 1.037e+04 3.012e-10
 71.50172     95.2 1.052e+04 3.050e-10
 71.53378     96.5 1.055e+04 3.056e-10
 71.55418     97.3 1.056e+04 3.052e-10
 71.57326     98.8 1.060e+04 3.078e-10
 71.59376    100.1 1.083e+04 3.282e-10
 71.60979    100.8 1.124e+04 4.063e-10
 71.62004    101.5 1.102e+04 3.691e-10
 71.63475    103.0 1.221e+04 6.024e-10
 71.64784    102.6 1.354e+04 9.652e-10
 71.65292    103.5 1.310e+04 7.846e-10
 71.66027    102.3 1.514e+04 1.079e-09
 71.67052     94.0 2.131e+04 2.745e-09
 71.67802     88.5 2.524e+04 1.780e-08
 71.68315     88.7 2.468e+04 2.758e-08
 71.69102     89.6 2.534e+04 1.745e-07
 71.69868     91.2 2.515e+04 3.299e-07
 71.70234     93.3 2.301e+04 9.225e-07
 71.70490     93.1 2.135e+04 2.096e-06
 71.70891     96.1 1.885e+04 8.749e-06
 71.71185     94.2 1.943e+04 1.124e-05
 71.71312     95.4 1.814e+04 1.893e-05
 71.71529     94.0 1.765e+04 2.477e-05
 71.71785     88.3 1.772e+04 2.881e-05
 71.71961     80.5 1.770e+04 2.990e-05
 71.72057     85.1 1.831e+04 1.158e-05
 71.72139     82.4 1.727e+04 2.983e-05
 71.72428     76.5 1.791e+04 1.836e-05
 71.72940     74.9 1.919e+04 6.690e-06
 71.73453     76.9 2.127e+04 1.713e-06
 71.74224     80.1 3.042e+04 1.375e-07
 71.75185     76.9 3.480e+04 1.806e-08
 71.76215     75.3 3.463e+04 6.213e-09
 71.77823     59.0 1.833e+04 1.103e-09
 71.79873     51.9 1.146e+04 8.019e-10
 71.81790     52.8 1.104e+04 7.636e-10
 71.82815     52.4 1.101e+04 7.344e-10
 71.83451     53.8 1.100e+04 7.742e-10
 71.84476     54.0 1.119e+04 8.147e-10
 71.86022     55.0 1.125e+04 8.632e-10
 71.88071     55.7 1.133e+04 9.209e-10
 71.89410     56.2 1.148e+04 9.997e-10
 71.90435     55.5 1.161e+04 1.032e-09
 71.92171     55.3 1.191e+04 1.173e-09
 71.94221     54.8 1.238e+04 1.421e-09
 71.96006     53.9 1.289e+04 1.798e-09
 71.97031     52.3 1.333e+04 2.137e-09
 71.98320     52.0 1.374e+04 2.778e-09
 71.99603     52.1 1.402e+04 3.233e-09
 72.00628     51.8 1.392e+04 2.914e-09
 72.02419     51.7 1.386e+04 2.842e-09
 72.03626     51.7 1.355e+04 2.512e-09
 72.04651     50.1 1.370e+04 2.766e-09
 72.06519     49.9 1.313e+04 2.217e-09
 72.08568     49.7 1.258e+04 1.739e-09
 72.10222     49.2 1.213e+04 1.398e-09
 72.11246     47.3 1.282e+04 1.885e-09
 72.12668     46.9 1.281e+04 1.719e-09
 72.14717     46.3 1.309e+04 1.701e-09
 72.15754     45.6 1.353e+04 1.787e-09
 72.16779     43.9 1.533e+04 3.198e-09
 72.17842     43.0 1.590e+04 3.732e-09
 72.18867     40.5 1.765e+04 8.856e-09
 72.20867     39.7 1.811e+04 1.089e-08
 72.22916     38.9 1.866e+04 1.425e-08
 72.24437     38.4 1.893e+04 1.785e-08
 72.25462     38.0 1.905e+04 1.984e-08
 72.27016     38.1 1.866e+04 1.854e-08
 72.29065     38.8 1.795e+04 1.499e-08
 72.30881     39.5 1.750e+04 1.158e-08
 72.31823     39.3 1.738e+04 1.089e-08
 72.32057     38.3 1.673e+04 7.736e-09
 72.33165     37.2 1.601e+04 5.154e-09
 72.35214     35.6 1.505e+04 3.571e-09
 72.37264     34.2 1.407e+04 2.721e-09
 72.38653     33.5 1.347e+04 2.316e-09
 72.39678     32.6 1.291e+04 1.880e-09
 72.41364     32.8 1.282e+04 1.766e-09
 72.43413     33.0 1.271e+04 1.647e-09
 72.45248     33.3 1.254e+04 1.456e-09
 72.46273     32.4 1.226e+04 1.308e-09
 72.48547     33.0 1.176e+04 9.413e-10
 72.51863     33.5 1.092e+04 5.078e-10
 72.53913     32.5 1.018e+04 3.685e-10
 72.56756     32.2 9.649e+03 1.926e-10
 72.60855     32.2 9.227e+03 1.373e-10
 72.63204     33.4 9.003e+03 1.299e-10
 72.65253     33.2 9.105e+03 1.387e-10
 72.67104     35.1 8.984e+03 1.388e-10
 72.69153     35.1 9.021e+03 1.520e-10
 72.73153     37.2 9.016e+03 1.519e-10
 72.77253     39.2 9.020e+03 1.492e-10
 72.80295     41.1 9.018e+03 1.435e-10
 72.82344     41.2 9.068e+03 1.633e-10
 72.85452     43.0 9.032e+03 1.533e-10
 72.89551     44.8 8.983e+03 1.500e-10
 72.93457     46.7 8.941e+03 1.502e-10
 72.95342     46.5 8.996e+03 1.604e-10
 72.95535     47.0 9.002e+03 1.654e-10
 72.97750     48.9 9.001e+03 1.645e-10
 73.01849     50.8 9.013e+03 1.637e-10
 73.05948     52.7 9.058e+03 1.643e-10
 73.08726     54.4 9.139e+03 1.683e-10
 73.10776     54.9 9.418e+03 2.284e-10
 73.14147     56.4 9.595e+03 2.393e-10
 73.18247     57.5 9.794e+03 2.569e-10
 73.21917     58.0 9.951e+03 2.849e-10
 73.23966     58.4 1.008e+04 3.260e-10
 73.25411     58.4 1.008e+04 3.283e-10
 73.26766     58.6 1.009e+04 3.361e-10
 73.27790     58.6 1.026e+04 3.427e-10
 73.29500     58.8 1.029e+04 3.546e-10
 73.30542     59.2 1.028e+04 3.528e-10
 73.31567     59.6 1.049e+04 3.924e-10
 73.33600     59.9 1.044e+04 3.795e-10
 73.35650     59.9 1.036e+04 3.454e-10
 73.37138     59.9 1.051e+04 3.307e-10
 73.38163     60.0 1.074e+04 3.984e-10
 73.39749     59.5 1.102e+04 4.190e-10
 73.41799     58.7 1.145e+04 4.962e-10
 73.42917     58.2 1.187e+04 6.347e-10
 73.43827     57.6 1.246e+04 1.109e-09
 73.44758     57.5 1.277e+04 1.635e-09
 73.45898     57.7 1.331e+04 2.110e-09
 73.47948     57.9 1.392e+04 2.340e-09
 73.49997     57.6 1.441e+04 2.328e-09
 73.51353     56.4 1.451e+04 2.170e-09
 73.52378     56.5 1.566e+04 3.524e-09
 73.54097     55.4 1.550e+04 2.560e-09
 73.56146     53.9 1.416e+04 1.653e-09
 73.57949     52.7 1.279e+04 1.096e-09
 73.58821     53.6 1.399e+04 1.211e-09
 73.59069     55.6 1.540e+04 1.768e-09
 73.60246     53.0 1.294e+04 8.738e-10
 73.63330     51.8 1.179e+04 5.743e-10
 73.65589     51.0 1.049e+04 3.153e-10
 73.67638     50.5 1.068e+04 3.582e-10
 73.71539     51.4 1.022e+04 2.900e-10
 73.75638     53.0 1.015e+04 2.961e-10
 73.78780     54.9 1.011e+04 3.258e-10
 73.80829     55.2 1.045e+04 3.877e-10
 73.83837     57.2 1.035e+04 3.832e-10
 73.87936     59.5 1.027e+04 3.661e-10
 73.90367     61.8 1.019e+04 3.219e-10
 73.92351     62.7 1.011e+04 3.020e-10
 73.94020     62.4 1.032e+04 3.353e-10
 73.96135     64.6 1.028e+04 3.087e-10
 74.00234     66.7 1.023e+04 2.742e-10
 74.04334     68.6 1.016e+04 2.449e-10
 74.07211     70.6 1.002e+04 2.373e-10
 74.09261     70.3 1.049e+04 4.168e-10
 74.12533     72.6 1.035e+04 3.924e-10
 74.16632     74.9 1.019e+04 3.725e-10
 74.20402     77.2 1.001e+04 3.450e-10
 74.22340     77.3 1.010e+04 3.923e-10
 74.22670     78.4 1.018e+04 3.979e-10
 74.24831     80.6 9.922e+03 3.121e-10
 74.28930     82.8 9.644e+03 2.299e-10
 74.33030     85.1 9.367e+03 1.536e-10
 74.35642     87.1 9.172e+03 9.483e-11
 74.37692     86.6 9.105e+03 9.040e-11
 74.41228     88.2 9.006e+03 6.303e-11
 74.45328     89.8 8.768e+03 5.359e-11
 74.48833     91.8 8.696e+03 5.362e-11
 74.50883     91.9 8.738e+03 7.521e-11
 74.52923     94.0 8.794e+03 7.836e-11
 74.54973     94.7 8.866e+03 7.912e-11
 74.57626     96.7 8.893e+03 8.236e-11
 74.61725     98.5 8.999e+03 8.836e-11
 74.64074    100.3 9.139e+03 9.739e-11
 74.66123    100.4 9.229e+03 1.235e-10
 74.69924    102.1 9.399e+03 1.380e-10
 74.74023    103.7 9.606e+03 1.630e-10
 74.77264    105.1 9.874e+03 2.072e-10
 74.79314    104.9 9.990e+03 2.342e-10
 74.82222    106.2 1.030e+04 3.007e-10
 74.85226    107.5 1.062e+04 3.888e-10
 74.87276    108.9 1.049e+04 3.556e-10
 74.90421    110.1 1.085e+04 4.181e-10
 74.92505    110.8 1.094e+04 4.166e-10
 74.94555    110.1 1.066e+04 3.283e-10
 74.98620    110.5 1.052e+04 3.173e-10
 75.02719    111.2 1.047e+04 3.181e-10
 75.05696    111.9 1.048e+04 3.343e-10
 75.07745    111.5 1.051e+04 3.447e-10
 75.10918    112.2 1.071e+04 4.379e-10
 75.15017    112.9 1.116e+04 6.443e-10
 75.17529    113.7 1.172e+04 9.853e-10
 75.19349    113.9 1.187e+04 1.186e-09
 75.20936    113.7 1.206e+04 1.450e-09
 75.23216    114.5 1.247e+04 1.771e-09
 75.27316    115.1 1.260e+04 1.844e-09
 75.31415    115.7 1.250e+04 1.752e-09
 75.34127    116.4 1.219e+04 1.472e-09
 75.36177    116.8 1.173e+04 1.134e-09
 75.39614    117.8 1.135e+04 8.522e-10
 75.43713    118.7 1.104e+04 6.520e-10
 75.47318    119.6 1.078e+04 5.327e-10
 75.49338    120.1 1.084e+04 4.514e-10
 75.49833    119.9 1.137e+04 4.557e-10
 75.51912    121.2 1.122e+04 4.462e-10
 75.56011    122.7 1.115e+04 4.461e-10
 75.59076    123.4 1.112e+04 4.603e-10
 75.61116    124.0 1.108e+04 4.756e-10
 75.62539    124.7 1.104e+04 4.937e-10
 75.64598    125.1 1.128e+04 6.324e-10
 75.67275    125.7 1.129e+04 6.312e-10
 75.69134    126.3 1.130e+04 6.278e-10
 75.70159    126.1 1.146e+04 7.441e-10
 75.71364    126.5 1.154e+04 7.841e-10
 75.73414    127.0 1.164e+04 8.278e-10
 75.75464    127.3 1.174e+04 8.790e-10
 75.76755    127.6 1.189e+04 9.651e-10
 75.77789    127.3 1.225e+04 1.288e-09
 75.79573    127.5 1.232e+04 1.386e-09
 75.81091    127.7 1.242e+04 1.505e-09
 75.82116    127.9 1.263e+04 1.434e-09
 75.83350    127.9 1.289e+04 1.682e-09
 75.84375    127.7 1.296e+04 1.720e-09
 75.85712    127.5 1.319e+04 1.990e-09
 75.87762    127.0 1.344e+04 2.375e-09
 75.89812    126.4 1.367e+04 2.872e-09
 75.90970    125.9 1.390e+04 3.500e-09
 75.91995    126.0 1.357e+04 2.752e-09
 75.93911    125.5 1.368e+04 3.240e-09
 75.95961    124.9 1.371e+04 3.669e-09
 75.97243    124.1 1.369e+04 3.713e-09
 75.97823    124.2 1.383e+04 3.472e-09
 75.98591    124.0 1.331e+04 2.286e-09
 76.00060    123.1 1.322e+04 2.275e-09
 76.02110    122.3 1.299e+04 2.212e-09
 76.04160    121.6 1.278e+04 2.130e-09
 76.06219    121.7 1.241e+04 1.558e-09
 76.09303    120.9 1.203e+04 1.413e-09
 76.12389    121.0 1.172e+04 1.253e-09
 76.14439    120.5 1.156e+04 6.073e-10
 76.17372    120.9 1.127e+04 5.513e-10
 76.19421    121.5 1.067e+04 3.086e-10
 76.21602    122.2 1.040e+04 3.041e-10
 76.25701    123.4 1.039e+04 3.147e-10
 76.29800    125.0 1.041e+04 3.578e-10
 76.32602    125.8 1.040e+04 3.768e-10
 76.34652    127.3 1.016e+04 3.195e-10
 76.37999    128.4 1.037e+04 4.071e-10
 76.40223    128.9 1.063e+04 5.446e-10
 76.41238    129.2 1.050e+04 4.821e-10
 76.43104    130.0 1.074e+04 6.030e-10
 76.44673    130.7 1.106e+04 7.546e-10
 76.45698    130.9 1.109e+04 8.809e-10
 76.46808    131.6 1.146e+04 1.096e-09
 76.47833    132.0 1.128e+04 9.708e-10
 76.49253    132.6 1.167e+04 1.174e-09
 76.51303    132.7 1.198e+04 1.266e-09
 76.53352    132.8 1.206e+04 1.265e-09
 76.54428    132.8 1.204e+04 1.250e-09
 76.55453    133.5 1.216e+04 1.283e-09
 76.57452    133.3 1.216e+04 1.280e-09
 76.59501    132.9 1.216e+04 1.283e-09
 76.60824    132.3 1.218e+04 1.312e-09
 76.61322    132.1 1.260e+04 1.391e-09
 76.62049    132.3 1.320e+04 1.626e-09
 76.63601    131.2 1.343e+04 1.766e-09
 76.65650    130.2 1.355e+04 1.942e-09
 76.67619    129.2 1.349e+04 2.008e-09
 76.68644    129.3 1.398e+04 2.391e-09
 76.69750    128.5 1.380e+04 2.351e-09
 76.71800    127.7 1.343e+04 2.167e-09
 76.73849    127.0 1.299e+04 1.852e-09
 76.75240    126.3 1.258e+04 1.573e-09
 76.76264    126.4 1.267e+04 1.634e-09
 76.76986    125.7 1.206e+04 1.232e-09
 76.79045    124.5 1.216e+04 1.394e-09
 76.83092    123.6 1.115e+04 9.067e-10
 76.87192    123.3 1.024e+04 5.745e-10
 76.89475    123.2 9.541e+03 3.608e-10
 76.91525    123.8 9.768e+03 4.055e-10
 76.95391    123.6 9.126e+03 2.352e-10
 76.99490    122.8 8.640e+03 1.507e-10
 77.02666    122.2 8.302e+03 1.331e-10
 77.04715    122.5 8.379e+03 1.349e-10
 77.07249    122.3 8.274e+03 1.338e-10
 77.09299    122.9 8.246e+03 1.197e-10
 77.11788    122.9 8.249e+03 1.251e-10
 77.15856    122.8 8.318e+03 1.447e-10
 77.17906    123.3 8.334e+03 1.396e-10
 77.19987    123.1 8.446e+03 1.655e-10
 77.24086    122.8 8.657e+03 2.078e-10
 77.28186    122.6 8.942e+03 2.663e-10
 77.31097    122.5 9.287e+03 3.381e-10
 77.33147    122.3 9.255e+03 3.123e-10
 77.35350    122.2 9.405e+03 3.491e-10
 77.37390    122.4 9.487e+03 3.682e-10
 77.38698    123.0 9.526e+03 3.812e-10
 77.39723    122.8 9.553e+03 3.821e-10
 77.40557    123.7 9.659e+03 4.095e-10
 77.41582    125.9 9.855e+03 4.632e-10
 77.43539    127.5 1.039e+04 5.012e-10
 77.45071    125.7 1.298e+04 5.547e-10
 77.45796    111.0 3.019e+04 1.358e-09
 77.46308    109.4 3.162e+04 1.462e-09
 77.47116     86.0 3.688e+04 2.470e-08
 77.48111     72.3 2.660e+04 1.194e-07
 77.48623     74.1 2.955e+04 1.615e-07
 77.49094     66.0 2.649e+04 1.849e-07
 77.49606     66.4 2.500e+04 4.452e-07
 77.50191     63.9 2.372e+04 2.263e-07
 77.51215     61.0 2.771e+04 4.462e-08
 77.52240     55.2 4.446e+04 3.139e-09
 77.52909     27.6 3.340e+04 1.084e-09
 77.53938     27.9 3.000e+04 1.111e-09
 77.55684      8.6 1.003e+04 4.777e-10
 77.56709      8.1 1.063e+04 4.772e-10
 77.57887      8.9 9.060e+03 3.963e-10
 77.59509     10.3 9.065e+03 3.263e-10
 77.60534     11.5 9.142e+03 3.559e-10
 77.61986     11.8 9.039e+03 3.281e-10
 77.64036     12.0 9.017e+03 3.138e-10
 77.66086     11.5 9.243e+03 3.488e-10
 77.67129     11.0 9.489e+03 4.265e-10
 77.68154     10.8 9.879e+03 5.388e-10
 77.70185     10.2 1.040e+04 6.946e-10
 77.71836      9.6 1.100e+04 9.152e-10
 77.72861     11.6 1.038e+04 6.853e-10
 77.73725     10.9 1.088e+04 8.114e-10
 77.74749     10.6 1.139e+04 1.091e-09
 77.76334      9.8 1.185e+04 1.244e-09
 77.78384      8.2 1.238e+04 1.373e-09
 77.80320      5.5 1.306e+04 1.567e-09
 77.81345      3.5 1.415e+04 2.193e-09
 77.82483      0.1 1.395e+04 2.693e-09
 77.84533     -1.6 1.369e+04 3.381e-09
 77.86582     -2.0 1.372e+04 3.994e-09
 77.87940     -1.6 1.385e+04 4.194e-09
 77.88320     -1.9 1.446e+04 4.570e-09
 77.89012     -2.1 1.537e+04 7.290e-09
 77.90682     -1.2 1.550e+04 7.308e-09
 77.92732     -0.7 1.560e+04 6.112e-09
 77.94536     -1.9 1.610e+04 4.541e-09
 77.95560     -6.0 1.587e+04 3.961e-09
 77.96831    -10.9 1.487e+04 3.255e-09
 77.98881    -14.4 1.425e+04 3.172e-09
 78.00930    -15.6 1.427e+04 3.702e-09
 78.02156    -15.9 1.501e+04 4.497e-09
 78.03181    -16.5 1.506e+04 4.253e-09
 78.04139    -16.9 1.571e+04 4.234e-09
 78.05164    -18.0 1.489e+04 3.203e-09
 78.07079    -19.8 1.426e+04 2.631e-09
 78.08751    -21.4 1.326e+04 2.219e-09
 78.09776    -23.3 1.205e+04 1.620e-09
 78.11179    -23.5 1.188e+04 1.533e-09
 78.13229    -23.4 1.187e+04 1.467e-09
 78.15278    -23.3 1.181e+04 1.395e-09
 78.16372    -23.4 1.169e+04 1.291e-09
 78.18431    -25.3 1.048e+04 7.978e-10
 78.22472    -25.3 9.934e+03 6.736e-10
 78.26571    -24.9 9.503e+03 5.462e-10
 78.29582    -24.2 9.070e+03 4.225e-10
 78.31632    -24.8 8.698e+03 3.507e-10
 78.34412    -23.8 8.459e+03 2.984e-10
 78.36462    -23.0 8.077e+03 1.974e-10
 78.38869    -21.9 7.900e+03 1.749e-10
 78.42773    -20.6 7.766e+03 1.604e-10
 78.44822    -20.6 7.619e+03 1.397e-10
 78.47068    -19.5 7.642e+03 1.432e-10
 78.51167    -18.4 7.704e+03 1.547e-10
 78.55267    -17.2 7.780e+03 1.761e-10
 78.58013    -15.7 7.811e+03 1.950e-10
 78.60063    -15.8 8.013e+03 2.154e-10
 78.63466    -14.3 8.030e+03 2.176e-10
 78.66715    -12.8 7.906e+03 1.886e-10
 78.68765    -11.5 8.107e+03 2.348e-10
 78.71204    -10.0 7.875e+03 1.804e-10
 78.73254    -10.3 7.901e+03 1.667e-10
 78.75764     -9.2 7.671e+03 1.222e-10
 78.79863     -8.2 7.523e+03 9.997e-11
 78.83963     -7.0 7.467e+03 9.322e-11
 78.86445     -5.6 7.509e+03 9.289e-11
 78.88494     -6.1 7.480e+03 9.401e-11
 78.92161     -6.1 8.052e+03 1.391e-10
 78.96261     -7.9 9.286e+03 3.260e-10
 78.99018     -9.3 1.060e+04 8.878e-10
 79.00343     -8.5 1.042e+04 7.272e-10
 79.01685     -9.3 1.025e+04 8.362e-10
 79.03425     -7.9 1.151e+04 1.449e-09
 79.05465     -8.1 1.154e+04 1.474e-09
 79.07236     -7.8 1.199e+04 1.692e-09
 79.08261     -7.7 1.131e+04 1.392e-09
 79.09564     -7.7 1.166e+04 1.168e-09
 79.11614    -10.9 1.101e+04 7.498e-10
 79.13664    -11.8 1.110e+04 6.408e-10
 79.14856    -15.8 1.017e+04 4.383e-10
 79.15318    -19.1 9.581e+03 3.067e-10
 79.16175    -18.6 9.677e+03 3.087e-10
 79.17763    -19.7 9.782e+03 3.351e-10
 79.20847    -22.3 9.746e+03 3.379e-10
 79.24956    -25.9 1.050e+04 5.035e-10
 79.28021    -28.4 1.067e+04 7.337e-10
 79.29072    -28.7 1.065e+04 8.073e-10
 79.30097    -29.2 1.048e+04 7.635e-10
 79.31302    -29.1 1.035e+04 6.569e-10
 79.32327    -28.7 1.054e+04 6.966e-10
 79.34161    -29.3 1.047e+04 4.745e-10
 79.37245    -31.3 1.011e+04 3.109e-10
 79.41258    -32.2 9.653e+03 2.305e-10
 79.43307    -33.4 9.178e+03 1.499e-10
 79.45453    -32.7 9.108e+03 1.356e-10
 79.49553    -32.2 9.156e+03 1.345e-10
 79.53652    -32.0 9.343e+03 1.629e-10
 79.56498    -31.3 9.485e+03 2.263e-10
 79.58548    -31.7 9.467e+03 2.240e-10
 79.61575    -30.5 9.642e+03 2.913e-10
 79.63624    -30.7 9.605e+03 2.739e-10
 79.65950    -29.4 9.643e+03 2.784e-10
 79.69689    -28.1 9.545e+03 2.215e-10
 79.71739    -28.8 9.722e+03 2.672e-10
 79.74149    -27.5 9.520e+03 1.779e-10
 79.78249    -26.5 9.319e+03 1.076e-10
 79.82348    -25.6 9.047e+03 7.481e-11
 79.84930    -24.6 8.805e+03 6.683e-11
 79.86979    -25.0 8.828e+03 6.860e-11
 79.90547    -23.7 8.724e+03 6.569e-11
 79.93878    -22.0 8.710e+03 6.570e-11
 79.95928    -21.8 8.706e+03 6.776e-11
 79.98120    -20.1 8.726e+03 6.958e-11
 80.00170    -20.6 8.868e+03 8.206e-11
 80.02845    -19.1 8.939e+03 8.502e-11
 80.06944    -17.8 9.085e+03 9.116e-11
 80.11044    -16.9 9.235e+03 1.077e-10
 80.13361    -16.1 9.286e+03 1.399e-10
 80.15411    -16.1 9.422e+03 1.938e-10
 80.19242    -14.6 9.461e+03 2.226e-10
 80.23342    -12.8 9.450e+03 2.289e-10
 80.26181    -11.2 9.356e+03 2.033e-10
 80.27341    -10.4 9.323e+03 1.997e-10
 80.28601    -10.3 9.294e+03 1.672e-10
 80.31541     -9.2 9.209e+03 1.138e-10
 80.35640     -8.7 9.083e+03 8.946e-11
 80.39739     -8.0 9.074e+03 8.489e-11
 80.43839     -9.0 9.404e+03 1.239e-10
 80.47938     -9.3 9.793e+03 2.536e-10
 80.52038     -8.5 1.024e+04 5.039e-10
 80.54983     -7.8 1.062e+04 6.861e-10
 80.57033     -8.1 1.062e+04 6.382e-10
 80.58484     -8.2 1.068e+04 6.278e-10
 80.60534     -7.4 1.081e+04 7.353e-10
 80.64336     -7.2 1.081e+04 7.692e-10
 80.67401     -7.8 1.040e+04 5.098e-10
 80.69179     -7.6 1.018e+04 4.251e-10
 80.70204     -7.9 1.017e+04 4.694e-10
 80.72525     -7.6 1.005e+04 3.992e-10
 80.76634     -7.3 9.743e+03 3.185e-10
 80.80733     -6.2 9.425e+03 2.609e-10
 80.83414     -5.0 9.287e+03 2.223e-10
 80.85464     -5.4 9.248e+03 2.328e-10
 80.88738     -3.8 9.186e+03 2.369e-10
 80.90787     -3.2 9.180e+03 2.481e-10
 80.93031     -1.2 9.193e+03 2.646e-10
 80.96605      0.9 9.315e+03 2.771e-10
 80.98655      1.2 9.400e+03 3.124e-10
 81.01230      3.0 9.562e+03 3.265e-10
 81.05330      4.7 9.661e+03 3.536e-10
 81.09429      6.5 9.782e+03 3.969e-10
 81.11846      8.2 9.896e+03 4.361e-10
 81.13896      8.4 9.936e+03 4.634e-10
 81.17628     10.1 9.972e+03 4.737e-10
 81.21041     12.1 9.898e+03 4.381e-10
 81.23091     12.8 9.717e+03 3.681e-10
 81.25037     14.6 9.668e+03 3.078e-10
 81.27086     14.4 9.694e+03 3.501e-10
 81.29926     15.7 9.711e+03 3.016e-10
 81.34025     17.0 9.738e+03 2.938e-10
 81.38125     17.9 9.957e+03 3.242e-10
 81.40277     18.7 1.052e+04 4.587e-10
 81.41292     18.0 1.048e+04 4.548e-10
 81.43229     18.5 1.068e+04 5.438e-10
 81.45279     18.4 1.112e+04 7.287e-10
 81.46853     18.5 1.145e+04 9.785e-10
 81.47878     18.2 1.145e+04 1.078e-09
 81.49379     19.0 1.170e+04 1.354e-09
 81.51428     19.9 1.203e+04 1.606e-09
 81.53324     20.9 1.211e+04 1.649e-09
 81.54320     20.9 1.246e+04 2.009e-09
 81.54473     21.3 1.229e+04 1.824e-09
 81.55528     22.2 1.221e+04 1.664e-09
 81.57577     22.8 1.197e+04 1.369e-09
 81.59627     22.9 1.170e+04 1.102e-09
 81.61069     22.8 1.146e+04 9.187e-10
 81.62094     22.4 1.101e+04 6.432e-10
 81.63726     22.2 1.080e+04 5.936e-10
 81.65776     22.5 1.071e+04 5.925e-10
 81.67664     23.1 1.076e+04 6.179e-10
 81.68689     22.8 1.047e+04 4.708e-10
 81.69476     23.2 1.060e+04 5.417e-10
 81.70501     23.0 1.080e+04 6.818e-10
 81.71925     23.8 1.085e+04 7.557e-10
 81.73975     24.8 1.096e+04 8.105e-10
 81.75284     25.7 1.114e+04 8.584e-10
 81.76309     25.3 1.093e+04 7.694e-10
 81.79109     26.6 1.117e+04 8.607e-10
 81.81899     27.7 1.151e+04 1.014e-09
 81.83949     26.5 1.141e+04 9.559e-10
 81.85647     26.9 1.177e+04 1.084e-09
 81.87697     26.5 1.115e+04 7.011e-10
 81.91417     26.5 1.152e+04 8.106e-10
 81.95090     26.5 1.200e+04 1.121e-09
 81.97140     25.4 1.250e+04 1.605e-09
 81.99616     26.1 1.280e+04 1.853e-09
 82.01789     26.6 1.287e+04 1.910e-09
 82.02804     26.7 1.286e+04 1.908e-09
 82.03716     27.3 1.292e+04 1.961e-09
 82.04741     27.2 1.300e+04 1.991e-09
 82.06770     27.8 1.308e+04 1.935e-09
 82.08820     28.0 1.331e+04 1.877e-09
 82.10311     27.8 1.355e+04 1.906e-09
 82.11336     27.3 1.331e+04 1.689e-09
 82.12919     27.0 1.359e+04 1.787e-09
 82.14969     26.5 1.396e+04 2.085e-09
 82.16906     26.1 1.443e+04 2.645e-09
 82.17931     26.0 1.492e+04 3.298e-09
 82.19068     24.8 1.569e+04 4.565e-09
 82.21118     24.0 1.620e+04 6.469e-09
 82.23168     24.3 1.646e+04 8.612e-09
 82.24527     24.8 1.641e+04 9.012e-09
 82.25552     24.9 1.553e+04 5.884e-09
 82.27267     25.8 1.522e+04 5.263e-09
 82.29317     25.9 1.488e+04 4.047e-09
 82.31122     25.3 1.448e+04 2.903e-09
 82.32147     24.2 1.347e+04 1.657e-09
 82.33058     23.0 1.283e+04 1.281e-09
 82.34082     22.8 1.360e+04 1.924e-09
 82.35466     22.0 1.274e+04 1.496e-09
 82.37515     21.8 1.227e+04 1.296e-09
 82.38743     22.2 1.195e+04 1.122e-09
 82.40802     22.5 1.122e+04 7.382e-10
 82.44709     23.5 1.118e+04 7.319e-10
 82.48204     25.1 1.082e+04 6.662e-10
 82.50244     25.4 1.095e+04 7.382e-10
 82.51863     26.5 1.087e+04 7.303e-10
 82.52958     26.8 1.089e+04 7.384e-10
 82.53983     27.3 1.059e+04 6.401e-10
 82.55963     28.2 1.064e+04 6.861e-10
 82.58012     29.0 1.074e+04 7.393e-10
 82.59554     29.8 1.089e+04 8.153e-10
 82.60579     30.3 1.072e+04 7.778e-10
 82.62112     31.1 1.086e+04 8.464e-10
 82.64162     31.9 1.098e+04 9.088e-10
 82.65361     32.7 1.107e+04 9.651e-10
 82.66323     33.0 1.098e+04 9.259e-10
 82.67174     33.5 1.082e+04 8.890e-10
 82.68261     34.3 1.090e+04 9.406e-10
 82.70311     35.1 1.095e+04 9.820e-10
 82.72360     35.9 1.098e+04 1.021e-09
 82.73769     36.8 1.103e+04 1.058e-09
 82.74794     37.1 1.079e+04 9.431e-10
 82.76460     37.8 1.077e+04 9.391e-10
 82.78509     38.6 1.071e+04 9.172e-10
 82.80365     39.4 1.058e+04 8.567e-10
 82.81318     39.7 1.023e+04 7.150e-10
 82.81512     40.1 1.033e+04 7.742e-10
 82.82609     40.9 1.014e+04 6.963e-10
 82.84658     41.8 9.936e+03 6.035e-10
 82.86708     42.5 9.742e+03 5.105e-10
 82.87985     43.1 9.568e+03 4.269e-10
 82.89010     43.3 9.377e+03 3.807e-10
 82.90808     43.5 9.316e+03 3.522e-10
 82.92857     44.0 9.259e+03 3.359e-10
 82.94580     44.1 9.221e+03 3.314e-10
 82.95615     44.9 9.208e+03 3.308e-10
 82.98001     46.2 9.158e+03 3.279e-10
 83.02100     47.7 9.182e+03 3.420e-10
 83.06200     49.2 9.241e+03 3.645e-10
 83.08816     50.9 9.302e+03 3.699e-10
 83.10865     52.4 9.276e+03 3.717e-10
 83.12810     53.9 9.331e+03 3.630e-10
 83.13825     53.8 9.586e+03 4.496e-10
 83.15392     54.2 9.616e+03 4.488e-10
 83.16416     54.7 9.682e+03 4.747e-10
 83.17454     55.5 9.694e+03 4.632e-10
 83.19503     55.9 9.681e+03 4.491e-10
 83.21553     56.7 9.642e+03 4.267e-10
 83.23012     57.2 9.600e+03 4.122e-10
 83.24037     58.1 9.740e+03 4.783e-10
 83.25652     58.7 9.762e+03 4.810e-10
 83.27702     59.2 9.845e+03 4.998e-10
 83.28942     59.7 9.952e+03 5.400e-10
 83.29822     60.1 1.012e+04 6.131e-10
 83.30632     60.4 1.024e+04 6.677e-10
 83.31801     60.8 1.035e+04 7.210e-10
 83.33851     61.3 1.044e+04 7.888e-10
 83.35901     61.9 1.052e+04 8.559e-10
 83.37228     62.6 1.059e+04 9.054e-10
 83.38252     62.6 1.068e+04 9.427e-10
 83.40000     63.3 1.070e+04 9.500e-10
 83.42050     64.0 1.070e+04 9.400e-10
 83.43823     64.7 1.067e+04 9.084e-10
 83.44817     64.4 1.066e+04 9.030e-10
 83.45094     64.6 1.087e+04 1.002e-09
 83.46149     65.2 1.082e+04 9.663e-10
 83.48199     65.8 1.071e+04 9.005e-10
 83.50249     66.5 1.055e+04 8.186e-10
 83.51443     67.0 1.038e+04 7.376e-10
 83.52468     66.9 1.023e+04 6.675e-10
 83.54348     67.6 1.009e+04 5.981e-10
 83.56398     68.2 9.950e+03 5.410e-10
 83.58039     68.8 9.817e+03 4.988e-10
 83.59063     68.9 9.754e+03 4.746e-10
 83.60220     69.6 9.682e+03 4.549e-10
 83.61245     69.8 9.792e+03 4.799e-10
 83.62547     70.5 9.677e+03 4.516e-10
 83.64597     71.3 9.610e+03 4.284e-10
 83.65659     72.1 9.550e+03 4.104e-10
 83.66684     72.2 9.687e+03 4.448e-10
 83.68696     73.0 9.687e+03 4.446e-10
 83.70746     73.8 9.712e+03 4.441e-10
 83.72254     74.5 9.724e+03 4.390e-10
 83.73279     74.8 1.003e+04 5.534e-10
 83.74845     75.5 1.004e+04 5.508e-10
 83.76372     76.2 1.004e+04 5.374e-10
 83.77397     76.4 9.882e+03 4.881e-10
 83.78850     77.0 9.843e+03 4.711e-10
 83.79875     77.4 1.033e+04 6.498e-10
 83.80994     78.0 1.029e+04 6.174e-10
 83.83044     78.4 1.018e+04 5.836e-10
 83.85094     78.7 1.003e+04 5.679e-10
 83.86470     78.8 9.991e+03 5.707e-10
 83.87495     79.2 1.067e+04 7.884e-10
 83.89193     79.2 1.067e+04 8.024e-10
 83.91243     78.9 1.075e+04 8.808e-10
 83.92524     78.5 1.101e+04 1.064e-09
 83.93321     78.9 1.084e+04 1.040e-09
 83.94090     79.1 1.160e+04 1.344e-09
 83.95342     78.9 1.189e+04 1.630e-09
 83.97392     79.0 1.229e+04 2.039e-09
 83.99441     79.2 1.271e+04 2.501e-09
 84.00686     79.5 1.306e+04 2.890e-09
 84.01710     79.7 1.337e+04 3.018e-09
 84.03541     79.8 1.356e+04 3.166e-09
 84.05590     79.9 1.368e+04 3.219e-09
 84.07281     79.8 1.373e+04 3.257e-09
 84.08306     79.7 1.382e+04 3.310e-09
 84.08675     79.6 1.390e+04 3.437e-09
 84.09700     80.3 1.377e+04 3.213e-09
 84.11740     80.2 1.390e+04 3.428e-09
 84.13789     80.3 1.400e+04 3.763e-09
 84.14901     80.7 1.407e+04 4.156e-09
 84.15926     81.1 1.424e+04 4.272e-09
 84.17889     81.7 1.424e+04 4.502e-09
 84.19938     82.5 1.417e+04 4.460e-09
 84.21497     83.6 1.397e+04 4.241e-09
 84.22522     84.3 1.424e+04 3.975e-09
 84.23802     85.5 1.381e+04 3.554e-09
 84.24827     86.0 1.395e+04 3.744e-09
 84.26087     87.2 1.361e+04 3.381e-09
 84.28092     88.2 1.329e+04 2.960e-09
 84.29117     87.9 1.288e+04 1.980e-09
 84.30187     88.6 1.251e+04 1.758e-09
 84.32237     89.2 1.241e+04 1.713e-09
 84.34286     89.5 1.245e+04 1.744e-09
 84.35712     89.6 1.277e+04 1.950e-09
 84.36737     89.5 1.175e+04 1.295e-09
 84.38386     89.6 1.241e+04 1.575e-09
 84.39953     89.4 1.341e+04 2.095e-09
 84.40978     90.7 1.367e+04 2.236e-09
 84.42308     90.6 1.485e+04 3.185e-09
 84.43333     90.2 1.289e+04 1.826e-09
 84.44535     89.8 1.350e+04 2.193e-09
 84.46584     89.3 1.390e+04 2.433e-09
 84.48634     88.7 1.386e+04 2.406e-09
 84.49928     88.3 1.347e+04 2.168e-09
 84.50953     87.9 1.226e+04 1.650e-09
 84.52733     87.6 1.165e+04 1.353e-09
 84.54783     87.6 1.097e+04 1.061e-09
 84.56105     87.7 1.037e+04 8.161e-10
 84.56821     88.2 1.088e+04 1.008e-09
 84.57548     89.5 1.090e+04 9.665e-10
 84.58883     89.3 1.011e+04 7.092e-10
 84.60932     89.5 9.597e+03 5.343e-10
 84.62982     89.7 9.352e+03 4.246e-10
 84.64144     90.3 9.176e+03 3.557e-10
 84.66203     91.7 9.119e+03 3.206e-10
 84.70175     93.7 9.144e+03 3.169e-10
 84.72276     96.1 9.204e+03 3.242e-10
 84.73291     96.0 9.280e+03 3.531e-10
 84.75280     96.7 9.325e+03 3.594e-10
 84.77330     97.9 9.382e+03 3.746e-10
 84.79380     99.3 9.526e+03 3.804e-10
 84.81429    100.2 9.730e+03 4.472e-10
 84.83479    101.1 1.003e+04 5.498e-10
 84.84955    102.0 1.043e+04 6.979e-10
 84.85980    102.2 1.047e+04 6.922e-10
 84.87383    103.0 1.089e+04 8.825e-10
 84.88408    103.2 1.144e+04 1.167e-09
 84.89628    104.0 1.190e+04 1.466e-09
 84.91550    104.7 1.242e+04 1.820e-09
 84.92575    104.8 1.301e+04 1.786e-09
 84.93727    104.0 1.532e+04 2.339e-09
 84.95777    102.1 2.001e+04 3.144e-09
 84.97827     99.8 2.339e+04 5.106e-09
 84.99171     97.6 2.538e+04 8.201e-09
 84.99678     94.9 2.518e+04 1.064e-08
 85.00379     94.5 2.539e+04 1.271e-08
 85.01404     93.9 2.489e+04 1.605e-08
 85.02429     93.5 2.430e+04 2.025e-08
 85.02971     93.2 2.358e+04 2.645e-08
 85.03483     92.5 2.187e+04 3.245e-08
 85.04038     92.5 2.162e+04 3.943e-08
 85.04550     93.2 2.244e+04 3.378e-08
 85.05503     93.2 2.202e+04 4.202e-08
 85.06269     93.2 2.194e+04 5.156e-08
 85.06781     91.8 2.247e+04 5.600e-08
 85.07553     91.4 2.381e+04 6.555e-08
 85.08578     90.6 2.500e+04 7.555e-08
 85.09566     89.4 2.683e+04 7.936e-08
 85.10079     83.2 3.332e+04 3.098e-08
 85.10628     78.9 3.448e+04 1.811e-08
 85.11601     73.2 3.229e+04 9.789e-09
 85.12113     79.5 3.529e+04 2.436e-08
 85.12677     73.6 3.415e+04 1.293e-08
 85.13376     67.5 2.974e+04 7.712e-09
 85.13889     59.0 1.712e+04 3.590e-09
 85.14727     57.6 1.593e+04 3.300e-09
 85.15752     56.4 1.532e+04 3.024e-09
 85.16674     55.3 1.469e+04 2.800e-09
 85.17187     54.2 1.393e+04 2.406e-09
 85.17802     53.2 1.370e+04 2.118e-09
 85.18826     52.7 1.359e+04 2.014e-09
 85.19682     52.0 1.363e+04 1.875e-09
 85.20194     51.5 1.371e+04 1.916e-09
 85.20484     51.2 1.367e+04 1.853e-09
 85.21002     49.8 1.311e+04 1.390e-09
 85.22423     47.0 1.235e+04 9.476e-10
 85.24473     44.1 1.142e+04 7.284e-10
 85.26523     42.4 1.079e+04 6.715e-10
 85.27602     42.0 1.074e+04 7.021e-10
 85.28627     41.0 1.021e+04 5.349e-10
 85.30622     41.4 1.038e+04 5.886e-10
 85.32672     41.8 1.056e+04 6.378e-10
 85.34197     42.2 1.069e+04 6.650e-10
 85.35222     41.2 1.028e+04 5.317e-10
 85.35838     41.3 1.039e+04 5.541e-10
 85.36863     41.1 1.045e+04 5.652e-10
 85.38821     40.8 1.051e+04 5.755e-10
 85.40793     40.4 1.064e+04 6.092e-10
 85.41818     39.6 1.047e+04 5.694e-10
 85.42920     39.3 1.081e+04 6.780e-10
 85.44970     39.1 1.126e+04 8.522e-10
 85.47019     39.0 1.186e+04 1.126e-09
 85.48413     38.9 1.259e+04 1.528e-09
 85.49438     38.9 1.239e+04 1.450e-09
 85.50965     38.5 1.341e+04 2.081e-09
 85.51990     38.0 1.316e+04 1.921e-09
 85.53169     37.4 1.431e+04 2.707e-09
 85.55008     36.3 1.587e+04 3.927e-09
 85.56033     34.8 1.712e+04 4.937e-09
 85.57268     33.2 1.865e+04 7.679e-09
 85.59318     31.8 1.928e+04 1.019e-08
 85.61367     30.6 1.904e+04 1.110e-08
 85.62629     30.0 1.850e+04 1.030e-08
 85.63654     29.4 1.882e+04 1.204e-08
 85.65467     29.2 1.773e+04 8.822e-09
 85.67116     29.0 1.671e+04 6.533e-09
 85.68141     28.7 1.668e+04 6.587e-09
 85.69224     29.0 1.593e+04 5.148e-09
 85.70249     28.7 1.565e+04 4.542e-09
 85.71616     28.8 1.481e+04 3.031e-09
 85.73666     28.5 1.406e+04 2.131e-09
 85.75715     28.1 1.339e+04 1.651e-09
 85.76844     28.2 1.287e+04 1.434e-09
 85.77869     27.3 1.239e+04 1.181e-09
 85.79815     27.9 1.222e+04 1.169e-09
 85.81864     28.7 1.216e+04 1.180e-09
 85.83268     29.4 1.212e+04 1.193e-09
 85.83819     30.0 1.215e+04 1.161e-09
 85.84465     29.1 1.188e+04 1.031e-09
 85.85964     29.6 1.188e+04 1.042e-09
 85.88013     29.9 1.189e+04 1.063e-09
 85.90035     29.9 1.193e+04 1.105e-09
 85.91060     28.8 1.172e+04 1.013e-09
 85.92113     28.6 1.169e+04 1.048e-09
 85.94162     28.6 1.163e+04 1.066e-09
 85.96212     28.5 1.152e+04 1.042e-09
 85.97655     28.0 1.164e+04 1.046e-09
 85.98680     26.0 1.163e+04 1.000e-09
 85.99419     20.1 1.380e+04 1.381e-09
 86.00444     18.6 1.482e+04 1.947e-09
 86.02361     12.9 1.588e+04 3.615e-09
 86.04251     10.8 1.584e+04 4.995e-09
 86.05276      9.8 1.570e+04 5.329e-09
 86.06461      9.3 1.583e+04 5.259e-09
 86.08510      9.0 1.554e+04 4.161e-09
 86.10560      7.6 1.490e+04 2.581e-09
 86.11871      4.2 1.356e+04 1.479e-09
 86.12896      1.8 1.239e+04 1.026e-09
 86.14546     -0.1 1.117e+04 7.224e-10
 86.15571     -0.9 1.118e+04 7.261e-10
 86.16709     -0.5 1.105e+04 6.494e-10
 86.18467      0.4 1.110e+04 6.527e-10
 86.19491     -0.6 1.074e+04 5.291e-10
 86.20809      0.2 1.082e+04 5.430e-10
 86.22858      1.0 1.101e+04 5.921e-10
 86.24908      1.9 1.122e+04 6.708e-10
 86.26087      2.9 1.141e+04 7.691e-10
 86.27112      1.3 1.094e+04 6.346e-10
 86.29007      2.1 1.130e+04 7.536e-10
 86.30698      1.9 1.193e+04 9.614e-10
 86.31723      2.5 1.215e+04 1.069e-09
 86.32682      1.6 1.295e+04 1.455e-09
 86.33707     -0.8 1.249e+04 1.252e-09
 86.35156     -1.0 1.281e+04 1.649e-09
 86.37206     -0.3 1.288e+04 1.883e-09
 86.39256      0.8 1.293e+04 1.864e-09
 86.40303      2.0 1.290e+04 1.665e-09
 86.41327     -0.2 1.188e+04 1.081e-09
 86.43355     -0.4 1.168e+04 7.778e-10
 86.45405     -1.7 1.143e+04 5.368e-10
 86.46849     -3.4 1.089e+04 4.039e-10
 86.47318     -3.0 1.108e+04 4.516e-10
 86.47923     -6.4 1.084e+04 4.290e-10
 86.49504     -9.5 1.209e+04 5.010e-10
 86.51554    -14.7 1.481e+04 8.788e-10
 86.53493    -18.5 1.673e+04 1.505e-09
 86.54513    -21.7 1.678e+04 1.902e-09
 86.54915    -24.1 1.798e+04 3.080e-09
 86.55428    -27.4 1.961e+04 5.308e-09
 86.56156    -28.9 1.935e+04 7.803e-09
 86.57181    -31.1 2.015e+04 1.142e-08
 86.57806    -36.1 2.387e+04 2.023e-08
 86.58319    -39.6 2.506e+04 2.838e-08
 86.59231    -49.5 3.241e+04 6.527e-08
 86.60255    -60.3 3.501e+04 1.239e-07
 86.61104    -71.8 3.466e+04 1.272e-07
 86.61616    -74.5 3.499e+04 9.543e-08
 86.62305    -84.3 3.240e+04 7.695e-08
 86.62991    -91.8 2.962e+04 4.678e-08
 86.63504    -99.2 2.677e+04 2.517e-08
 86.64355   -105.4 2.474e+04 1.226e-08
 86.65897   -111.1 2.232e+04 6.353e-09
 86.67709   -118.8 1.843e+04 2.754e-09
 86.68734   -115.0 1.896e+04 2.890e-09
 86.70001   -122.1 1.443e+04 1.604e-09
 86.72051   -125.5 1.301e+04 1.405e-09
 86.74101   -126.9 1.296e+04 1.396e-09
 86.75329   -127.9 1.322e+04 1.582e-09
 86.76354   -125.1 1.290e+04 1.426e-09
 86.78128   -125.8 1.318e+04 1.682e-09
 86.79153   -126.0 1.309e+04 1.640e-09
 86.80250   -126.2 1.333e+04 1.857e-09
 86.81925   -126.3 1.352e+04 1.987e-09
 86.82950   -124.2 1.327e+04 1.844e-09
 86.84349   -124.4 1.344e+04 1.901e-09
 86.86399   -124.9 1.366e+04 1.918e-09
 86.88448   -125.8 1.406e+04 1.938e-09
 86.89545   -127.0 1.448e+04 2.051e-09
 86.90570   -124.7 1.397e+04 1.793e-09
 86.92548   -126.0 1.422e+04 1.922e-09
 86.94279   -127.2 1.428e+04 2.160e-09
 86.95304   -127.9 1.346e+04 1.633e-09
 86.96140   -129.2 1.381e+04 1.950e-09
 86.97165   -127.3 1.336e+04 1.701e-09
 86.98697   -128.9 1.402e+04 2.160e-09
 87.00747   -130.9 1.504e+04 2.994e-09
 87.02736   -132.9 1.606e+04 4.317e-09
 87.03761   -131.0 1.554e+04 3.717e-09
 87.04846   -132.6 1.637e+04 5.132e-09
 87.06896   -134.1 1.681e+04 6.238e-09
 87.08945   -135.6 1.688e+04 6.509e-09
 87.10356   -136.8 1.644e+04 6.108e-09
 87.10817   -135.3 1.606e+04 5.400e-09
 87.11456   -136.6 1.573e+04 4.836e-09
 87.13045   -137.5 1.476e+04 3.632e-09
 87.15094   -138.6 1.360e+04 2.284e-09
 87.16951   -140.0 1.249e+04 1.487e-09
 87.17976   -138.6 1.246e+04 1.517e-09
 87.19194   -139.8 1.174e+04 1.114e-09
 87.21244   -140.7 1.129e+04 9.003e-10
 87.23293   -141.1 1.101e+04 7.813e-10
 87.24572   -141.3 1.082e+04 7.067e-10
 87.25597   -140.1 1.084e+04 7.237e-10
 87.26582   -140.2 1.071e+04 6.670e-10
 87.27607   -140.5 1.067e+04 6.393e-10
 87.29442   -140.6 1.060e+04 5.974e-10
 87.31167   -140.6 1.056e+04 5.561e-10
 87.32192   -139.5 1.054e+04 5.656e-10
 87.33542   -139.6 1.050e+04 5.215e-10
 87.35591   -139.7 1.043e+04 4.687e-10
 87.37641   -139.8 1.028e+04 4.160e-10
 87.40725   -139.5 1.012e+04 3.715e-10
 87.44378   -139.3 9.718e+03 2.927e-10
 87.46427   -137.3 9.944e+03 3.356e-10
 87.48934   -137.0 9.559e+03 2.575e-10
 87.53033   -136.8 9.088e+03 1.882e-10
 87.56855   -136.5 8.615e+03 1.493e-10
 87.58905   -136.5 8.648e+03 1.584e-10
 87.59618   -135.7 8.468e+03 1.382e-10
 87.61668   -134.0 8.553e+03 1.385e-10
 87.65332   -132.9 8.351e+03 1.234e-10
 87.69431   -131.8 8.255e+03 1.121e-10
 87.72809   -130.5 8.189e+03 1.042e-10
 87.74859   -129.1 8.223e+03 1.042e-10
 87.77630   -127.8 8.181e+03 9.986e-11
 87.81729   -126.5 8.180e+03 9.875e-11
 87.85829   -125.3 8.210e+03 9.892e-11
 87.88049   -124.4 8.440e+03 1.089e-10
 87.89330   -123.3 8.449e+03 1.074e-10
 87.91208   -123.1 8.412e+03 1.047e-10
 87.94027   -122.5 8.638e+03 1.288e-10
 87.98127   -122.1 9.005e+03 1.846e-10
 88.01240   -121.6 9.509e+03 2.800e-10
 88.03290   -121.0 9.497e+03 2.621e-10
 88.06325   -121.0 1.012e+04 4.333e-10
 88.10425   -121.2 1.096e+04 7.161e-10
 88.14431   -122.4 1.208e+04 1.217e-09
 88.16481   -122.4 1.203e+04 1.212e-09
 88.18624   -124.2 1.292e+04 1.859e-09
 88.21452   -125.9 1.350e+04 2.585e-09
 88.22467   -125.9 1.337e+04 2.368e-09
 88.23057   -127.3 1.344e+04 2.489e-09
 88.24082   -126.9 1.303e+04 2.098e-09
 88.25778   -128.1 1.295e+04 2.089e-09
 88.27828   -129.0 1.257e+04 1.808e-09
 88.29652   -130.0 1.212e+04 1.396e-09
 88.30677   -129.7 1.176e+04 1.177e-09
 88.31927   -130.8 1.132e+04 9.119e-10
 88.33977   -132.0 1.096e+04 7.455e-10
 88.36027   -132.8 1.069e+04 6.535e-10
 88.37272   -133.3 1.050e+04 6.014e-10
 88.37815   -132.7 1.041e+04 5.680e-10
 88.38619   -132.8 1.051e+04 6.122e-10
 88.40126   -133.1 1.035e+04 5.514e-10
 88.42176   -133.2 1.022e+04 4.973e-10
 88.43868   -133.3 1.016e+04 4.604e-10
 88.44893   -132.8 1.012e+04 4.503e-10
 88.46275   -132.9 1.012e+04 4.302e-10
 88.48325   -133.2 1.016e+04 4.282e-10
 88.50374   -135.2 1.114e+04 4.771e-10
 88.51488   -138.3 1.300e+04 8.991e-10
 88.52513   -135.9 1.174e+04 5.559e-10
 88.53745   -138.3 1.321e+04 1.177e-09
 88.54770   -139.0 1.361e+04 1.662e-09
 88.56523   -139.0 1.466e+04 3.466e-09
 88.58083   -138.4 1.566e+04 6.052e-09
 88.59108   -137.7 1.461e+04 3.739e-09
 88.60623   -136.9 1.554e+04 5.804e-09
 88.62673   -136.2 1.644e+04 7.593e-09
 88.64679   -135.8 1.712e+04 8.516e-09
 88.65704   -135.0 1.556e+04 5.667e-09
 88.66772   -134.6 1.629e+04 6.382e-09
 88.68822   -134.6 1.691e+04 6.870e-09
 88.69897   -134.6 1.764e+04 7.948e-09
 88.70922   -135.2 1.753e+04 7.266e-09
 88.72299   -135.1 1.795e+04 9.179e-09
 88.73324   -133.6 1.625e+04 4.358e-09
 88.74971   -133.3 1.673e+04 5.631e-09
 88.77020   -132.9 1.744e+04 7.520e-09
 88.78895   -132.6 1.888e+04 1.045e-08
 88.79919   -131.1 1.599e+04 4.100e-09
 88.81120   -130.8 1.834e+04 6.640e-09
 88.83170   -131.0 2.111e+04 1.101e-08
 88.84702   -130.6 2.298e+04 1.227e-08
 88.85526   -131.0 2.415e+04 1.667e-08
 88.86039   -132.4 2.458e+04 2.271e-08
 88.86505   -131.9 2.451e+04 3.694e-08
 88.87017   -131.2 2.627e+04 2.154e-08
 88.87772   -130.8 2.520e+04 4.265e-08
 88.88796   -129.9 2.380e+04 7.403e-08
 88.89803   -128.8 2.345e+04 1.042e-07
 88.90315   -128.1 2.393e+04 1.101e-07
 88.90846   -127.0 2.330e+04 1.759e-07
 88.91871   -126.6 2.303e+04 2.440e-07
 88.92896   -126.7 2.327e+04 2.583e-07
 88.93602   -128.6 2.564e+04 1.704e-07
 88.93807   -132.7 2.544e+04 1.598e-07
 88.94125   -130.5 2.225e+04 5.279e-07
 88.94945   -134.4 2.410e+04 2.972e-07
 88.95970   -141.7 2.873e+04 7.349e-08
 88.96911   -153.2 3.815e+04 6.248e-09
 88.97423   -150.3 3.102e+04 5.147e-08
 88.98020   -162.2 4.285e+04 3.707e-09
 88.99045   -173.9 3.636e+04 6.421e-10
 89.00070   -179.7 2.036e+04 5.420e-10
 89.00726   -181.5 1.687e+04 4.846e-10
 89.01238   -183.5 2.197e+04 4.014e-10
 89.01678   -184.9 1.330e+04 4.610e-10
 89.02190   -183.0 1.078e+04 4.643e-10
 89.03662   -183.6 1.052e+04 4.375e-10
 89.05716   -183.6 1.010e+04 4.185e-10
 89.07326   -182.9 1.007e+04 4.186e-10
 89.08351   -183.5 1.006e+04 4.211e-10
 89.09816   -182.7 1.003e+04 4.196e-10
 89.11865   -182.2 9.970e+03 4.212e-10
 89.13915   -181.6 9.917e+03 4.140e-10
 89.15965   -181.4 9.777e+03 3.893e-10
 89.17327   -181.3 9.685e+03 3.688e-10
 89.18361   -181.5 9.529e+03 3.223e-10
 89.21108   -181.1 9.232e+03 2.610e-10
 89.25208   -180.0 8.821e+03 1.908e-10
 89.28157   -178.7 8.488e+03 1.413e-10
 89.30206   -179.0 8.449e+03 1.394e-10
 89.33407   -177.3 8.202e+03 1.076e-10
 89.37506   -175.3 8.024e+03 8.852e-11
 89.41347   -173.2 7.958e+03 7.957e-11
 89.43397   -173.1 7.914e+03 7.831e-11
 89.45705   -170.9 7.898e+03 7.598e-11
 89.48625   -169.2 7.903e+03 7.581e-11
 89.50674   -168.9 7.829e+03 7.371e-11
 89.53904   -168.0 7.867e+03 7.626e-11
 89.56588   -167.8 8.188e+03 1.169e-10
 89.58638   -167.6 8.112e+03 1.008e-10
 89.62102   -167.6 8.567e+03 1.817e-10
 89.66202   -167.7 9.330e+03 3.392e-10
 89.69779   -168.7 1.061e+04 6.310e-10
 89.71828   -168.8 1.013e+04 4.890e-10
 89.74400   -170.6 1.142e+04 8.610e-10
 89.77389   -171.4 1.199e+04 1.081e-09
 89.78404   -171.2 1.159e+04 9.435e-10
 89.79505   -172.5 1.225e+04 1.260e-09
 89.80908   -173.8 1.281e+04 1.697e-09
 89.81933   -172.3 1.205e+04 1.098e-09
 89.83605   -172.8 1.226e+04 1.257e-09
 89.85000   -173.3 1.240e+04 1.444e-09
 89.87059   -173.1 1.190e+04 1.243e-09
 89.90798   -173.3 1.187e+04 1.342e-09
 89.94897   -172.9 1.153e+04 1.255e-09
 89.97070   -172.1 1.096e+04 9.715e-10
 89.98085   -171.6 1.101e+04 9.860e-10
 89.99215   -171.2 1.085e+04 8.856e-10
 90.00250   -171.5 1.081e+04 8.614e-10
 90.03096   -170.2 1.034e+04 6.018e-10
 90.07196   -168.7 9.905e+03 4.152e-10
 90.11181   -167.1 9.561e+03 3.062e-10
 90.13231   -165.4 9.765e+03 4.243e-10
 90.13451   -163.7 9.432e+03 3.141e-10
 90.15500   -162.5 9.455e+03 3.232e-10
 90.19494   -160.7 9.182e+03 2.421e-10
 90.23593   -158.7 8.928e+03 1.808e-10
 90.26641   -156.5 8.723e+03 1.366e-10
 90.28691   -155.4 8.846e+03 1.548e-10
 90.31792   -153.1 8.700e+03 1.204e-10
 90.35891   -150.7 8.612e+03 9.736e-11
 90.39832   -148.3 8.572e+03 8.124e-11
 90.41882   -147.2 8.646e+03 9.352e-11
 90.43484   -144.8 8.620e+03 7.765e-11
 90.45534   -143.7 8.621e+03 8.441e-11
 90.48190   -141.4 8.608e+03 7.159e-11
 90.52289   -139.1 8.599e+03 6.279e-11
 90.55073   -136.9 8.598e+03 5.828e-11
 90.57123   -136.1 8.680e+03 7.317e-11
 90.60488   -134.1 8.681e+03 7.194e-11
 90.64587   -132.3 8.691e+03 7.228e-11
 90.68264   -130.8 8.771e+03 8.498e-11
 90.70313   -130.2 8.871e+03 1.125e-10
 90.72786   -128.8 8.956e+03 1.378e-10
 90.75787   -127.4 9.036e+03 1.625e-10
 90.77837   -126.4 9.095e+03 1.801e-10
 90.80985   -125.1 9.147e+03 1.968e-10
 90.83504   -123.8 9.189e+03 2.059e-10
 90.85554   -123.2 9.062e+03 1.693e-10
 90.89183   -121.9 9.063e+03 1.660e-10
 90.93283   -120.7 9.098e+03 1.662e-10
 90.96695   -119.8 9.262e+03 1.789e-10
 90.98745   -119.0 9.031e+03 1.266e-10
 91.01482   -118.3 9.261e+03 1.576e-10
 91.05581   -117.6 9.467e+03 2.081e-10
 91.08091   -116.9 9.650e+03 2.610e-10
 91.10140   -116.8 9.646e+03 2.514e-10
 91.11936   -116.3 9.781e+03 2.933e-10
 91.13985   -115.5 9.703e+03 2.770e-10
 91.17879   -115.0 9.850e+03 3.088e-10
 91.21979   -114.6 9.941e+03 3.163e-10
 91.25126   -114.1 9.997e+03 3.160e-10
 91.27176   -113.3 1.004e+04 3.614e-10
 91.30177   -112.7 1.014e+04 3.748e-10
 91.34277   -112.3 1.025e+04 4.020e-10
 91.37341   -112.2 1.039e+04 4.749e-10
 91.39323   -112.0 1.047e+04 5.249e-10
 91.40315   -111.6 1.063e+04 6.271e-10
 91.40374   -111.8 1.071e+04 6.901e-10
 91.41431   -111.4 1.083e+04 7.651e-10
 91.43481   -111.1 1.096e+04 8.203e-10
 91.45531   -110.8 1.106e+04 8.439e-10
 91.46943   -110.5 1.109e+04 8.465e-10
 91.47968   -110.2 1.131e+04 1.033e-09
 91.49630   -110.0 1.133e+04 1.035e-09
 91.51680   -109.8 1.130e+04 9.849e-10
 91.53538   -109.7 1.127e+04 9.211e-10
 91.54563   -109.3 1.148e+04 1.154e-09
 91.55501   -109.2 1.145e+04 1.097e-09
 91.56526   -109.0 1.118e+04 9.075e-10
 91.57829   -109.0 1.113e+04 8.308e-10
 91.59878   -108.9 1.109e+04 7.669e-10
 91.61158   -108.9 1.103e+04 7.151e-10
 91.62183   -108.4 1.119e+04 8.816e-10
 91.63978   -108.3 1.114e+04 8.236e-10
 91.66027   -108.2 1.108e+04 7.713e-10
 91.67754   -108.0 1.101e+04 7.197e-10
 91.68779   -107.6 1.119e+04 8.645e-10
 91.70127   -107.4 1.111e+04 8.028e-10
 91.71653   -107.1 1.099e+04 7.343e-10
 91.72677   -106.5 1.075e+04 5.883e-10
 91.74226   -106.0 1.066e+04 5.356e-10
 91.75374   -105.5 1.055e+04 4.879e-10
 91.76399   -105.2 1.060e+04 5.239e-10
 91.79360   -104.9 1.045e+04 4.433e-10
 91.81989   -103.6 1.027e+04 3.647e-10
 91.84039   -103.0 1.054e+04 4.776e-10
 91.87569   -101.8 1.041e+04 4.132e-10
 91.91668   -100.7 1.028e+04 3.736e-10
 91.95180    -99.1 1.012e+04 3.285e-10
 91.97230    -98.9 1.045e+04 5.227e-10
 91.99867    -97.2 1.019e+04 4.450e-10
 92.02950    -95.4 9.932e+03 3.580e-10
 92.05000    -94.8 9.880e+03 2.999e-10
 92.08066    -93.0 9.687e+03 2.500e-10
 92.10420    -91.2 9.528e+03 2.083e-10
 92.12470    -90.8 9.655e+03 2.404e-10
 92.16265    -89.0 9.494e+03 1.962e-10
 92.20364    -87.3 9.412e+03 1.712e-10
 92.23611    -85.6 9.377e+03 1.592e-10
 92.25661    -85.6 9.402e+03 1.386e-10
 92.28563    -84.0 9.337e+03 1.272e-10
 92.32662    -82.4 9.278e+03 1.193e-10
 92.35254    -80.9 9.237e+03 1.141e-10
 92.37303    -80.4 9.444e+03 1.545e-10
 92.38852    -79.0 9.449e+03 1.589e-10
 92.40902    -79.2 9.385e+03 1.471e-10
 92.44960    -77.8 9.367e+03 1.504e-10
 92.49060    -76.2 9.355e+03 1.516e-10
 92.52043    -74.4 9.326e+03 1.450e-10
 92.54092    -74.3 9.360e+03 1.374e-10
 92.57258    -72.4 9.407e+03 1.277e-10
 92.61358    -70.5 9.506e+03 1.231e-10
 92.65233    -68.7 9.680e+03 1.236e-10
 92.67283    -69.1 1.017e+04 1.719e-10
 92.67557    -67.6 1.050e+04 2.604e-10
 92.69606    -67.1 1.030e+04 1.477e-10
 92.73656    -65.8 1.070e+04 2.356e-10
 92.77755    -64.5 1.117e+04 4.577e-10
 92.80474    -63.0 1.185e+04 8.634e-10
 92.82524    -62.3 1.223e+04 1.161e-09
 92.84920    -61.2 1.257e+04 1.357e-09
 92.86959    -60.9 1.283e+04 1.556e-09
 92.88075    -60.5 1.317e+04 1.818e-09
 92.89100    -60.3 1.337e+04 1.940e-09
 92.91059    -60.1 1.349e+04 2.037e-09
 92.93109    -59.9 1.350e+04 2.057e-09
 92.94670    -59.6 1.342e+04 1.987e-09
 92.95695    -59.2 1.329e+04 1.904e-09
 92.97208    -58.9 1.309e+04 1.684e-09
 92.98815    -58.6 1.291e+04 1.486e-09
 92.99840    -58.5 1.283e+04 1.486e-09
 93.01266    -58.2 1.266e+04 1.322e-09
 93.02290    -57.6 1.251e+04 1.180e-09
 93.03357    -57.3 1.231e+04 1.023e-09
 93.05407    -57.0 1.211e+04 8.974e-10
 93.07456    -56.6 1.189e+04 8.020e-10
 93.08886    -56.0 1.167e+04 7.399e-10
 93.09911    -55.5 1.158e+04 6.768e-10
 93.11556    -54.9 1.146e+04 6.546e-10
 93.13606    -54.1 1.142e+04 6.495e-10
 93.14967    -53.1 1.140e+04 6.566e-10
 93.15818    -52.8 1.141e+04 6.644e-10
 93.16506    -52.6 1.144e+04 6.576e-10
 93.18740    -51.9 1.140e+04 6.764e-10
 93.21814    -50.5 1.111e+04 6.596e-10
 93.23102    -49.6 1.097e+04 6.545e-10
 93.24126    -48.9 1.081e+04 5.050e-10
 93.25904    -47.9 1.076e+04 4.799e-10
 93.27953    -46.9 1.075e+04 4.559e-10
 93.29697    -45.9 1.076e+04 4.362e-10
 93.30722    -45.6 1.062e+04 2.972e-10
 93.31119    -44.8 1.062e+04 2.826e-10
 93.32143    -44.8 1.056e+04 3.189e-10
 93.34102    -44.0 1.057e+04 3.149e-10
 93.36152    -43.5 1.070e+04 3.179e-10
 93.37317    -43.6 1.109e+04 3.474e-10
 93.38342    -44.1 1.107e+04 2.681e-10
 93.40252    -44.9 1.120e+04 3.989e-10
 93.42301    -45.5 1.149e+04 6.912e-10
 93.43913    -45.8 1.219e+04 1.242e-09
 93.44937    -45.3 1.176e+04 1.019e-09
 93.46245    -45.2 1.262e+04 1.627e-09
 93.47270    -45.1 1.269e+04 1.610e-09
 93.48450    -45.6 1.362e+04 2.378e-09
 93.50500    -46.5 1.432e+04 3.069e-09
 93.52550    -47.4 1.394e+04 2.830e-09
 93.54599    -48.2 1.393e+04 2.889e-09
 93.56649    -48.4 1.362e+04 2.806e-09
 93.58128    -48.4 1.318e+04 2.472e-09
 93.59153    -47.8 1.304e+04 2.330e-09
 93.60749    -47.4 1.260e+04 1.846e-09
 93.62397    -46.9 1.212e+04 1.386e-09
 93.63422    -47.0 1.233e+04 1.509e-09
 93.64724    -46.8 1.185e+04 1.121e-09
 93.65749    -46.3 1.175e+04 1.049e-09
 93.66898    -46.1 1.134e+04 8.033e-10
 93.68947    -45.6 1.103e+04 6.832e-10
 93.70997    -45.1 1.092e+04 6.482e-10
 93.72344    -44.4 1.088e+04 6.411e-10
 93.73369    -44.0 1.080e+04 6.015e-10
 93.75096    -43.4 1.083e+04 6.105e-10
 93.77146    -42.8 1.099e+04 6.876e-10
 93.78548    -42.2 1.115e+04 8.073e-10
 93.79317    -42.4 1.086e+04 7.606e-10
 93.79964    -41.8 1.096e+04 6.567e-10
 93.81245    -41.3 1.108e+04 7.490e-10
 93.83295    -40.7 1.128e+04 8.560e-10
 93.85345    -40.3 1.158e+04 9.759e-10
 93.86560    -40.2 1.198e+04 1.106e-09
 93.87585    -41.3 1.302e+04 1.363e-09
 93.89444    -41.5 1.355e+04 1.659e-09
 93.91494    -41.6 1.392e+04 1.944e-09
 93.93155    -41.7 1.403e+04 2.147e-09
 93.94180    -42.2 1.377e+04 3.222e-09
 93.94700    -41.9 1.373e+04 3.276e-09
 93.95725    -42.1 1.363e+04 2.401e-09
 93.97643    -41.7 1.328e+04 2.318e-09
 93.99693    -41.0 1.272e+04 1.961e-09
 94.00775    -40.4 1.213e+04 1.570e-09
 94.01800    -39.8 1.194e+04 1.725e-09
 94.03792    -39.5 1.153e+04 1.242e-09
 94.05842    -39.2 1.120e+04 9.251e-10
 94.07371    -38.7 1.088e+04 7.256e-10
 94.08396    -39.2 1.089e+04 6.971e-10
 94.09827    -38.6 1.051e+04 5.593e-10
 94.10852    -38.5 1.058e+04 5.947e-10
 94.11991    -37.5 1.027e+04 4.915e-10
 94.13966    -36.6 1.001e+04 4.102e-10
 94.14991    -36.7 9.970e+03 4.071e-10
 94.17125    -35.6 9.777e+03 3.474e-10
 94.20581    -33.8 9.460e+03 2.855e-10
 94.22631    -33.9 9.399e+03 3.254e-10
 94.24973    -31.3 8.901e+03 2.370e-10
 94.27023    -31.1 9.118e+03 2.572e-10
 94.29433    -28.4 8.731e+03 1.933e-10
 94.33532    -25.8 8.526e+03 1.522e-10
 94.35822    -23.3 8.359e+03 1.204e-10
 94.37871    -23.1 8.322e+03 1.014e-10
 94.41731    -20.8 8.186e+03 7.983e-11
 94.45830    -18.7 8.099e+03 7.140e-11
 94.49013    -16.7 8.083e+03 7.000e-11
 94.51062    -16.6 8.175e+03 6.464e-11
 94.54029    -15.6 8.308e+03 9.302e-11
 94.57276    -14.6 8.687e+03 1.785e-10
 94.59326    -14.5 9.290e+03 2.736e-10
 94.62203    -14.0 1.046e+04 6.183e-10
 94.64243    -14.2 1.053e+04 6.837e-10
 94.65283    -14.1 1.107e+04 1.022e-09
 94.67333    -14.2 1.134e+04 1.285e-09
 94.69382    -13.7 1.176e+04 1.487e-09
 94.70829    -13.8 1.196e+04 1.536e-09
 94.71854    -14.1 1.210e+04 1.446e-09
 94.73408    -14.8 1.195e+04 1.320e-09
 94.74433    -15.3 1.215e+04 1.476e-09
 94.75531    -16.0 1.171e+04 1.281e-09
 94.77434    -16.0 1.140e+04 1.097e-09
 94.79494    -16.5 1.135e+04 1.041e-09
 94.82725    -16.0 1.087e+04 7.853e-10
 94.86824    -15.5 1.042e+04 5.945e-10
 94.89579    -14.8 1.017e+04 5.223e-10
 94.90594    -15.3 1.033e+04 5.944e-10
 94.91640    -15.2 1.031e+04 5.913e-10
 94.92675    -15.6 1.029e+04 4.535e-10
 94.95023    -14.8 1.039e+04 5.318e-10
 94.99122    -13.4 1.049e+04 6.186e-10
 95.02187    -11.8 1.033e+04 5.177e-10
 95.04227    -11.9 1.039e+04 5.531e-10
 95.05865    -10.1 1.095e+04 7.155e-10
 95.07925    -10.2 1.002e+04 4.352e-10
 95.11421     -9.0 1.015e+04 4.370e-10
 95.13486     -8.9 1.020e+04 4.773e-10
 95.14501     -8.7 9.926e+03 4.168e-10
 95.16525     -9.1 9.919e+03 5.211e-10
 95.18575     -9.4 1.041e+04 7.175e-10
 95.20071    -10.9 1.139e+04 1.117e-09
 95.21096    -10.6 1.133e+04 1.121e-09
 95.21863    -11.8 1.239e+04 1.943e-09
 95.22888    -13.8 1.291e+04 2.378e-09
 95.24724    -13.7 1.367e+04 3.819e-09
 95.26667    -13.5 1.434e+04 4.737e-09
 95.27692    -13.6 1.463e+04 4.188e-09
 95.28824    -15.2 1.586e+04 4.739e-09
 95.30873    -19.7 1.691e+04 5.069e-09
 95.32923    -25.6 1.577e+04 4.785e-09
 95.34287    -28.7 1.486e+04 4.738e-09
 95.35312    -29.7 1.518e+04 4.974e-09
 95.36990    -31.2 1.530e+04 5.119e-09
 95.38015    -32.7 1.466e+04 4.046e-09
 95.39072    -34.1 1.482e+04 4.248e-09
 95.40882    -36.0 1.469e+04 4.166e-09
 95.41907    -37.1 1.435e+04 4.226e-09
 95.43171    -37.6 1.401e+04 3.931e-09
 95.45221    -37.7 1.374e+04 3.407e-09
 95.47271    -38.0 1.352e+04 2.637e-09
 95.48503    -39.1 1.311e+04 1.896e-09
 95.49528    -40.1 1.246e+04 1.460e-09
 95.51370    -41.6 1.173e+04 1.076e-09
 95.53141    -42.5 1.124e+04 8.749e-10
 95.54166    -42.3 1.102e+04 7.746e-10
 95.55098    -42.3 1.086e+04 7.048e-10
 95.56123    -42.4 1.080e+04 6.519e-10
 95.57519    -42.3 1.072e+04 6.188e-10
 95.60604    -42.3 1.066e+04 5.922e-10
 95.62738    -41.9 1.052e+04 5.663e-10
 95.64788    -42.5 1.076e+04 6.554e-10
 95.67778    -41.9 1.073e+04 6.542e-10
 95.69293    -41.7 1.071e+04 6.452e-10
 95.69814    -41.7 1.073e+04 6.363e-10
 95.70339    -42.1 1.076e+04 6.888e-10
 95.71867    -42.1 1.075e+04 6.831e-10
 95.73917    -42.1 1.076e+04 6.828e-10
 95.75909    -42.6 1.109e+04 7.072e-10
 95.76934    -43.2 1.148e+04 8.620e-10
 95.78016    -44.7 1.189e+04 1.009e-09
 95.80066    -45.9 1.218e+04 1.317e-09
 95.82116    -46.3 1.236e+04 1.712e-09
 95.83530    -46.2 1.250e+04 2.024e-09
 95.84554    -45.5 1.231e+04 1.679e-09
 95.85444    -45.3 1.233e+04 1.689e-09
 95.86469    -45.3 1.233e+04 1.612e-09
 95.88265    -45.4 1.210e+04 1.327e-09
 95.90125    -46.1 1.166e+04 1.018e-09
 95.91150    -46.4 1.121e+04 7.687e-10
 95.92364    -46.9 1.078e+04 6.422e-10
 95.94414    -47.0 1.045e+04 5.665e-10
 95.97498    -46.7 1.028e+04 5.204e-10
 96.01607    -45.5 1.013e+04 5.378e-10
 96.04360    -44.2 1.009e+04 5.890e-10
 96.06410    -43.3 1.040e+04 6.357e-10
 96.09806    -42.0 1.070e+04 8.758e-10
 96.13905    -40.9 1.102e+04 1.133e-09
 96.16742    -40.1 1.131e+04 1.295e-09
 96.18338    -40.1 1.117e+04 1.158e-09
 96.19601    -39.4 1.234e+04 2.353e-09
 96.21070    -38.9 1.236e+04 2.498e-09
 96.23110    -38.5 1.241e+04 2.510e-09
 96.25152    -37.8 1.248e+04 2.279e-09
 96.27201    -37.0 1.241e+04 2.111e-09
 96.30293    -37.2 1.175e+04 1.450e-09
 96.32792    -36.7 1.081e+04 7.818e-10
 96.34841    -36.2 1.132e+04 1.002e-09
 96.38502    -35.4 1.020e+04 4.560e-10
 96.42601    -34.5 9.633e+03 2.396e-10
 96.45982    -34.1 9.390e+03 1.631e-10
 96.48032    -33.3 9.529e+03 1.687e-10
 96.49045    -32.6 9.450e+03 1.492e-10
 96.51095    -32.5 9.443e+03 1.530e-10
 96.54899    -31.5 9.420e+03 1.524e-10
 96.58999    -30.5 9.485e+03 1.680e-10
 96.61223    -29.4 9.609e+03 1.825e-10
 96.63273    -29.3 9.824e+03 2.484e-10
 96.67198    -28.6 9.927e+03 2.625e-10
 96.71297    -28.5 9.981e+03 2.649e-10
 96.74414    -28.6 1.004e+04 2.586e-10
 96.76463    -28.3 9.857e+03 3.556e-10
 96.79299    -28.4 9.794e+03 3.369e-10
 96.81349    -29.0 9.903e+03 3.495e-10
 96.83595    -29.0 9.905e+03 3.555e-10
 96.87605    -28.9 9.767e+03 3.383e-10
 96.89654    -28.6 9.472e+03 2.348e-10
 96.91794    -28.9 9.305e+03 2.067e-10
 96.95893    -29.2 9.267e+03 2.010e-10
 96.99993    -29.7 9.365e+03 2.160e-10
 97.02845    -30.5 9.500e+03 2.623e-10
 97.04895    -31.2 9.475e+03 3.288e-10
 97.08191    -31.4 9.572e+03 4.247e-10
 97.11602    -31.5 9.591e+03 4.568e-10
 97.13652    -32.0 9.787e+03 4.632e-10
 97.16036    -32.9 9.659e+03 3.800e-10
 97.18086    -32.3 9.661e+03 3.818e-10
 97.20490    -34.9 9.637e+03 3.164e-10
 97.24589    -38.7 1.013e+04 3.555e-10
 97.27654    -40.8 1.069e+04 6.112e-10
 97.28759    -42.2 1.115e+04 9.659e-10
 97.29784    -43.2 1.133e+04 1.114e-09
 97.31257    -43.8 1.161e+04 1.335e-09
 97.32282    -43.8 1.177e+04 1.388e-09
 97.33793    -44.7 1.184e+04 1.439e-09
 97.35843    -45.8 1.164e+04 1.244e-09
 97.37852    -47.3 1.107e+04 8.550e-10
 97.38877    -47.3 1.120e+04 9.198e-10
 97.39942    -49.1 1.054e+04 6.310e-10
 97.41992    -50.7 1.001e+04 4.783e-10
 97.43895    -51.9 9.592e+03 3.711e-10
 97.45336    -53.7 9.626e+03 3.828e-10
 97.46517    -52.6 9.545e+03 3.637e-10
 97.49185    -53.1 9.216e+03 2.791e-10
 97.53285    -53.6 8.969e+03 2.160e-10
 97.57384    -54.2 8.905e+03 2.002e-10
 97.59708    -54.8 8.931e+03 2.061e-10
 97.61757    -53.7 8.741e+03 1.442e-10
 97.65583    -54.6 8.947e+03 1.929e-10
 97.69682    -55.6 9.672e+03 3.689e-10
 97.72899    -56.6 1.086e+04 7.198e-10
 97.74948    -56.8 1.136e+04 9.427e-10
 97.76199    -57.4 1.196e+04 1.313e-09
 97.78248    -56.6 1.170e+04 1.088e-09
 97.80509    -58.6 1.260e+04 1.608e-09
 97.81524    -58.7 1.267e+04 1.864e-09
 97.82986    -59.7 1.281e+04 2.034e-09
 97.85035    -60.5 1.286e+04 2.148e-09
 97.87085    -61.5 1.299e+04 2.264e-09
 97.89135    -63.0 1.278e+04 1.759e-09
 97.91185    -66.5 1.381e+04 2.014e-09
 97.92340    -70.9 1.503e+04 2.858e-09
 97.93365    -72.5 1.565e+04 3.942e-09
 97.94715    -75.4 1.608e+04 5.498e-09
 97.95740    -74.5 1.530e+04 4.186e-09
 97.97334    -75.9 1.556e+04 5.173e-09
 97.99383    -76.9 1.560e+04 5.271e-09
 98.01310    -77.8 1.532e+04 3.735e-09
 98.02335    -76.1 1.536e+04 4.494e-09
 98.03483    -77.6 1.485e+04 2.436e-09
 98.05532    -81.0 1.338e+04 1.015e-09
 98.07467    -84.9 1.155e+04 5.669e-10
 98.08492    -86.1 1.122e+04 5.022e-10
 98.08931    -87.5 1.091e+04 4.657e-10
 98.09956    -86.7 1.133e+04 5.821e-10
 98.11682    -87.8 1.124e+04 5.721e-10
 98.13731    -88.6 1.126e+04 6.344e-10
 98.15526    -89.2 1.127e+04 7.289e-10
 98.16551    -89.1 1.158e+04 9.407e-10
 98.17831    -89.4 1.151e+04 9.796e-10
 98.19880    -89.4 1.140e+04 9.887e-10
 98.21930    -89.4 1.122e+04 9.412e-10
 98.23146    -89.3 1.100e+04 8.414e-10
 98.23810    -89.0 1.114e+04 9.165e-10
 98.24644    -89.4 1.101e+04 7.883e-10
 98.26029    -89.5 1.069e+04 6.150e-10
 98.28079    -89.4 1.035e+04 4.653e-10
 98.29742    -89.4 1.005e+04 3.628e-10
 98.30767    -89.5 1.008e+04 3.872e-10
 98.32178    -89.5 9.904e+03 3.342e-10
 98.35263    -89.4 9.800e+03 3.059e-10
 98.38765    -88.7 9.590e+03 2.689e-10
 98.40815    -88.6 9.564e+03 2.707e-10
 98.42952    -87.4 9.504e+03 2.656e-10
 98.45002    -87.6 9.618e+03 3.230e-10
 98.47571    -86.3 9.480e+03 2.997e-10
 98.51670    -85.0 9.335e+03 2.690e-10
 98.55769    -83.9 9.203e+03 2.372e-10
 98.58193    -82.9 9.141e+03 2.143e-10
 98.60242    -82.9 8.915e+03 1.695e-10
 98.63968    -82.4 8.914e+03 1.639e-10
 98.68068    -82.4 8.943e+03 1.645e-10
 98.71068    -83.3 9.247e+03 2.330e-10
 98.72334    -83.6 9.599e+03 3.426e-10
 98.73433    -83.7 9.434e+03 3.352e-10
 98.76266    -84.9 9.826e+03 5.093e-10
 98.80366    -86.1 1.021e+04 7.156e-10
 98.84465    -87.4 1.042e+04 8.495e-10
 98.86624    -89.0 1.046e+04 8.751e-10
 98.88674    -88.3 1.015e+04 7.537e-10
 98.92664    -89.7 1.003e+04 7.234e-10
 98.96763    -91.3 9.987e+03 7.041e-10
 98.99815    -92.9 1.015e+04 7.517e-10
 99.01865    -92.0 9.947e+03 6.376e-10
 99.03371    -93.3 1.039e+04 8.162e-10
 99.05421    -92.1 9.718e+03 5.852e-10
 99.09062    -93.3 1.005e+04 7.098e-10
 99.13006    -94.4 1.016e+04 7.766e-10
 99.15055    -93.5 9.900e+03 6.601e-10
 99.17260    -94.4 9.952e+03 6.862e-10
 99.21360    -94.9 9.670e+03 6.213e-10
 99.25459    -95.0 9.036e+03 4.109e-10
 99.28246    -95.1 8.362e+03 2.466e-10
 99.30296    -94.3 8.721e+03 3.467e-10
 99.33625    -94.4 8.239e+03 2.369e-10
 99.35674    -93.9 8.560e+03 3.211e-10
 99.37757    -94.1 8.439e+03 2.839e-10
 99.41437    -94.1 8.415e+03 2.765e-10
 99.43487    -93.7 8.910e+03 4.048e-10
 99.45956    -93.5 8.971e+03 4.087e-10
 99.50055    -92.9 9.025e+03 4.097e-10
 99.54155    -92.2 9.002e+03 3.765e-10
 99.56678    -91.8 8.897e+03 3.386e-10
 99.58727    -91.3 9.038e+03 3.887e-10
 99.62354    -91.0 8.944e+03 3.449e-10
 99.65928    -90.5 8.881e+03 3.193e-10
 99.67968    -90.8 8.943e+03 3.366e-10
 99.69508    -90.5 8.943e+03 3.350e-10
 99.70874    -90.4 9.022e+03 3.443e-10
 99.71899    -90.3 9.052e+03 3.478e-10
 99.73607    -90.2 9.193e+03 3.743e-10
 99.75657    -90.2 9.334e+03 4.092e-10
 99.77469    -90.2 9.487e+03 4.565e-10
 99.78494    -90.6 9.637e+03 5.127e-10
 99.79757    -90.4 9.777e+03 5.686e-10
 99.81806    -90.2 9.888e+03 6.119e-10
 99.83085    -89.9 9.950e+03 6.343e-10
 99.84110    -90.3 1.005e+04 6.869e-10
 99.85089    -90.2 1.004e+04 6.854e-10
 99.86114    -90.3 1.039e+04 8.335e-10
 99.87955    -90.4 1.050e+04 8.403e-10
 99.90005    -90.6 1.073e+04 8.555e-10
 99.91685    -91.5 1.121e+04 9.079e-10
 99.92710    -92.6 1.214e+04 1.340e-09
 99.94104    -93.9 1.259e+04 1.567e-09
 99.96154    -95.0 1.288e+04 1.892e-09
 99.98204    -95.6 1.309e+04 2.321e-09
 99.99305    -95.6 1.330e+04 3.318e-09
100.00330    -94.9 1.348e+04 3.673e-09
