# Columns:
#   distance along LOS (in CHIMPs)
#   peculiar velocity  (in km/s)
#   temperature (K)
#   HI number density
# pos=(81.7227,198.814,113.49), angles=(1.89283,6.18664)
  0.00245    -57.9 9.792e+03 9.618e-11
  0.02559    -56.4 9.697e+03 6.948e-11
  0.06696    -55.1 9.596e+03 5.646e-11
  0.09880    -53.6 9.522e+03 5.357e-11
  0.11447    -53.3 9.521e+03 5.229e-11
  0.12400    -52.8 9.501e+03 4.965e-11
  0.14970    -51.2 9.497e+03 5.208e-11
  0.19108    -49.9 9.486e+03 6.311e-11
  0.22709    -48.5 9.459e+03 8.077e-11
  0.24777    -48.0 9.398e+03 7.897e-11
  0.27382    -46.2 9.328e+03 9.871e-11
  0.31519    -44.4 9.325e+03 1.114e-10
  0.35086    -42.9 9.350e+03 1.115e-10
  0.37154    -42.5 9.347e+03 1.102e-10
  0.39794    -41.2 9.366e+03 1.017e-10
  0.43931    -39.9 9.294e+03 9.272e-11
  0.47462    -38.4 9.201e+03 8.560e-11
  0.49531    -38.1 9.224e+03 8.942e-11
  0.51926    -36.9 9.204e+03 8.307e-11
  0.53994    -36.5 9.180e+03 7.309e-11
  0.56342    -35.2 9.204e+03 7.323e-11
  0.59839    -34.3 9.293e+03 8.337e-11
  0.61908    -34.4 9.308e+03 9.835e-11
  0.64617    -33.4 9.349e+03 1.367e-10
  0.68754    -32.2 9.445e+03 1.863e-10
  0.72216    -31.1 9.523e+03 2.222e-10
  0.74285    -31.1 9.532e+03 2.224e-10
  0.77028    -30.4 9.557e+03 2.173e-10
  0.81166    -29.8 9.504e+03 2.056e-10
  0.84593    -29.3 9.445e+03 2.025e-10
  0.86662    -29.2 9.326e+03 1.846e-10
  0.89440    -28.4 9.191e+03 1.719e-10
  0.93577    -27.5 9.103e+03 1.596e-10
  0.96040    -26.6 9.047e+03 1.436e-10
  0.97365    -25.9 9.344e+03 2.069e-10
  0.99039    -25.6 9.064e+03 1.457e-10
  1.01852    -24.7 9.012e+03 1.343e-10
  1.05989    -24.3 9.086e+03 1.434e-10
  1.09347    -24.3 9.345e+03 1.879e-10
  1.11416    -23.8 9.164e+03 1.640e-10
  1.14263    -24.5 9.871e+03 2.823e-10
  1.16560    -25.8 1.022e+04 3.825e-10
  1.17282    -25.5 1.029e+04 3.845e-10
  1.18078    -25.6 1.041e+04 4.349e-10
  1.19415    -27.2 1.107e+04 6.311e-10
  1.21484    -29.3 1.175e+04 9.285e-10
  1.22739    -31.8 1.242e+04 1.233e-09
  1.23773    -30.3 1.209e+04 1.168e-09
  1.25621    -32.9 1.274e+04 1.300e-09
  1.27690    -35.6 1.244e+04 1.324e-09
  1.28928    -37.2 1.145e+04 1.115e-09
  1.29962    -36.5 1.142e+04 1.103e-09
  1.31827    -36.9 1.078e+04 9.448e-10
  1.33895    -36.9 1.114e+04 5.022e-10
  1.35116    -38.5 1.056e+04 4.030e-10
  1.36150    -37.5 1.064e+04 4.720e-10
  1.38076    -39.0 1.030e+04 2.817e-10
  1.40154    -39.1 1.050e+04 3.340e-10
  1.43224    -40.3 9.431e+03 2.236e-10
  1.46478    -40.0 9.154e+03 1.785e-10
  1.48547    -39.0 9.798e+03 4.021e-10
  1.51498    -38.8 9.660e+03 3.091e-10
  1.55635    -39.0 9.396e+03 2.443e-10
  1.58855    -38.8 9.113e+03 2.321e-10
  1.60924    -37.7 9.378e+03 3.090e-10
  1.63910    -37.2 9.000e+03 2.324e-10
  1.68047    -36.3 8.785e+03 1.913e-10
  1.71232    -36.0 8.881e+03 1.604e-10
  1.73301    -36.0 8.849e+03 1.479e-10
  1.76321    -37.3 9.388e+03 1.759e-10
  1.80132    -39.1 9.510e+03 3.480e-10
  1.82200    -39.1 9.875e+03 4.840e-10
  1.83609    -37.0 1.033e+04 9.220e-10
  1.85678    -36.7 1.004e+04 7.647e-10
  1.88733    -36.8 1.037e+04 5.515e-10
  1.92870    -39.3 1.028e+04 4.741e-10
  1.95986    -40.7 1.020e+04 5.171e-10
  1.98055    -40.9 9.866e+03 4.380e-10
  2.01144    -40.8 9.985e+03 5.300e-10
  2.05282    -40.0 1.006e+04 5.595e-10
  2.08363    -39.6 1.026e+04 5.386e-10
  2.10432    -39.9 9.625e+03 3.207e-10
  2.13556    -39.9 9.802e+03 3.470e-10
  2.17693    -39.2 9.763e+03 4.234e-10
  2.20730    -38.1 9.838e+03 4.336e-10
  2.22799    -37.8 9.906e+03 4.527e-10
  2.24236    -37.1 1.009e+04 4.460e-10
  2.25261    -37.2 9.976e+03 4.029e-10
  2.26909    -36.8 1.008e+04 3.834e-10
  2.27943    -36.8 1.012e+04 4.012e-10
  2.29051    -36.6 1.021e+04 4.406e-10
  2.31120    -37.2 1.087e+04 5.062e-10
  2.33097    -39.5 1.225e+04 8.353e-10
  2.34132    -39.8 1.199e+04 9.079e-10
  2.35257    -42.2 1.324e+04 1.783e-09
  2.37325    -43.7 1.427e+04 3.801e-09
  2.39286    -44.1 1.541e+04 7.097e-09
  2.40320    -44.1 1.514e+04 5.398e-09
  2.41463    -44.5 1.612e+04 7.776e-09
  2.43531    -45.2 1.638e+04 8.443e-09
  2.45249    -46.1 1.566e+04 6.710e-09
  2.46158    -45.6 1.647e+04 8.564e-09
  2.46509    -45.9 1.517e+04 5.539e-09
  2.47668    -46.8 1.457e+04 3.176e-09
  2.49737    -49.2 1.348e+04 1.819e-09
  2.51663    -50.8 1.233e+04 1.179e-09
  2.52697    -50.9 1.168e+04 8.165e-10
  2.53874    -51.1 1.124e+04 6.591e-10
  2.55943    -50.4 1.100e+04 5.404e-10
  2.57851    -49.8 1.090e+04 4.329e-10
  2.59930    -49.1 1.065e+04 3.252e-10
  2.63202    -48.9 1.076e+04 2.838e-10
  2.66292    -48.4 1.059e+04 2.613e-10
  2.68360    -49.2 1.072e+04 3.017e-10
  2.70248    -47.9 1.055e+04 3.014e-10
  2.72316    -47.1 1.044e+04 2.919e-10
  2.75614    -45.7 1.035e+04 2.778e-10
  2.79751    -44.2 1.034e+04 2.448e-10
  2.82625    -43.1 1.030e+04 2.042e-10
  2.84693    -42.5 1.029e+04 2.124e-10
  2.88026    -41.6 1.024e+04 1.943e-10
  2.92163    -40.6 1.014e+04 1.978e-10
  2.95002    -39.4 1.002e+04 2.209e-10
  2.97070    -38.6 1.023e+04 2.481e-10
  3.00437    -37.4 1.028e+04 2.665e-10
  3.04574    -36.4 1.027e+04 2.985e-10
  3.07379    -35.1 1.017e+04 3.318e-10
  3.09073    -34.4 1.029e+04 3.786e-10
  3.10406    -34.8 1.010e+04 3.472e-10
  3.12849    -33.0 9.979e+03 3.202e-10
  3.16986    -31.5 9.806e+03 2.693e-10
  3.19756    -30.3 9.713e+03 2.344e-10
  3.21824    -29.8 1.002e+04 2.921e-10
  3.25260    -28.8 9.911e+03 2.961e-10
  3.29398    -27.7 9.780e+03 2.949e-10
  3.32133    -26.6 9.693e+03 2.759e-10
  3.33157    -26.4 9.876e+03 3.484e-10
  3.34549    -26.3 9.885e+03 3.469e-10
  3.37662    -25.2 1.009e+04 3.989e-10
  3.41809    -24.6 9.948e+03 3.702e-10
  3.44510    -23.9 9.785e+03 3.598e-10
  3.46578    -23.4 9.959e+03 4.254e-10
  3.50084    -22.2 9.764e+03 3.921e-10
  3.52452    -20.9 9.615e+03 3.538e-10
  3.54520    -21.5 9.183e+03 2.405e-10
  3.56887    -20.8 9.271e+03 2.595e-10
  3.58955    -20.2 9.404e+03 2.859e-10
  3.61451    -20.7 9.635e+03 3.539e-10
  3.63055    -21.4 9.821e+03 4.268e-10
  3.64090    -20.9 9.813e+03 4.313e-10
  3.65578    -21.6 1.012e+04 6.657e-10
  3.67647    -21.1 1.026e+04 9.332e-10
  3.69244    -20.0 1.056e+04 1.140e-09
  3.70278    -19.4 1.046e+04 1.088e-09
  3.71784    -19.3 1.071e+04 1.143e-09
  3.73455    -19.9 1.110e+04 1.212e-09
  3.74489    -20.2 1.105e+04 1.077e-09
  3.75432    -21.4 1.108e+04 1.032e-09
  3.76467    -20.8 1.119e+04 1.173e-09
  3.77990    -21.7 1.106e+04 1.085e-09
  3.80059    -23.3 1.082e+04 8.941e-10
  3.81621    -25.9 1.035e+04 7.336e-10
  3.82655    -24.6 1.150e+04 1.012e-09
  3.84196    -27.4 1.046e+04 8.071e-10
  3.86264    -29.7 9.828e+03 7.064e-10
  3.87809    -31.6 1.046e+04 6.989e-10
  3.88844    -32.1 1.136e+04 1.014e-09
  3.90402    -35.0 1.223e+04 1.207e-09
  3.92470    -37.0 1.215e+04 1.516e-09
  3.93998    -37.7 1.158e+04 1.796e-09
  3.94971    -37.1 1.233e+04 2.536e-09
  3.95512    -36.1 1.174e+04 1.843e-09
  3.96607    -35.5 1.174e+04 2.008e-09
  3.98676    -34.7 1.195e+04 2.071e-09
  4.00186    -34.5 1.193e+04 1.794e-09
  4.01221    -34.1 1.231e+04 2.057e-09
  4.02813    -35.1 1.195e+04 1.676e-09
  4.04882    -36.1 1.102e+04 1.254e-09
  4.06375    -36.4 1.025e+04 9.680e-10
  4.07409    -35.8 1.044e+04 1.022e-09
  4.09019    -35.5 9.917e+03 7.896e-10
  4.11088    -35.1 9.459e+03 5.837e-10
  4.12563    -34.9 9.136e+03 4.267e-10
  4.13598    -34.3 9.148e+03 4.276e-10
  4.16269    -34.6 8.828e+03 3.146e-10
  4.18771    -34.6 8.404e+03 2.397e-10
  4.20840    -33.2 8.413e+03 2.392e-10
  4.24553    -32.5 8.290e+03 2.165e-10
  4.28690    -31.9 8.557e+03 2.576e-10
  4.31148    -31.3 8.844e+03 3.680e-10
  4.33217    -30.1 9.042e+03 3.984e-10
  4.36543    -28.6 9.426e+03 5.826e-10
  4.38612    -27.5 9.151e+03 4.936e-10
  4.41102    -25.6 9.602e+03 6.308e-10
  4.43525    -24.8 9.845e+03 5.920e-10
  4.45594    -23.1 9.989e+03 6.778e-10
  4.49376    -22.7 9.968e+03 5.860e-10
  4.53513    -22.6 9.935e+03 5.594e-10
  4.55902    -21.9 9.882e+03 5.781e-10
  4.57971    -20.5 9.823e+03 5.151e-10
  4.61788    -19.8 9.842e+03 5.549e-10
  4.65925    -19.0 9.979e+03 6.073e-10
  4.68279    -18.1 1.011e+04 7.197e-10
  4.70348    -16.7 1.018e+04 7.697e-10
  4.74199    -15.7 1.047e+04 9.034e-10
  4.78337    -15.0 1.078e+04 1.027e-09
  4.80656    -15.4 1.130e+04 1.196e-09
  4.82725    -12.9 1.099e+04 1.065e-09
  4.85567    -14.7 1.168e+04 1.318e-09
  4.86825    -16.1 1.243e+04 1.605e-09
  4.87859    -14.6 1.206e+04 1.426e-09
  4.89694    -16.1 1.241e+04 1.862e-09
  4.91763    -16.4 1.250e+04 2.151e-09
  4.93014    -17.2 1.236e+04 2.138e-09
  4.94048    -16.2 1.221e+04 2.029e-09
  4.95900    -16.3 1.206e+04 1.811e-09
  4.97969    -16.6 1.188e+04 1.397e-09
  4.99202    -17.9 1.182e+04 1.048e-09
  5.00236    -16.7 1.193e+04 1.139e-09
  5.01661    -19.0 1.249e+04 9.616e-10
  5.02695    -17.7 1.121e+04 6.854e-10
  5.04175    -19.6 1.106e+04 5.781e-10
  5.05391    -21.4 1.172e+04 5.981e-10
  5.06425    -20.8 1.244e+04 7.169e-10
  5.08312    -22.7 1.335e+04 9.716e-10
  5.10380    -24.3 1.355e+04 1.325e-09
  5.11579    -25.0 1.372e+04 1.850e-09
  5.12613    -23.7 1.397e+04 2.282e-09
  5.14518    -24.4 1.389e+04 2.783e-09
  5.16586    -25.1 1.356e+04 3.063e-09
  5.17768    -25.5 1.307e+04 2.871e-09
  5.18802    -25.0 1.335e+04 3.223e-09
  5.20723    -25.5 1.310e+04 2.694e-09
  5.22684    -25.6 1.307e+04 2.055e-09
  5.23718    -25.1 1.297e+04 2.215e-09
  5.23956    -25.6 1.320e+04 1.652e-09
  5.24990    -25.3 1.345e+04 1.737e-09
  5.26929    -28.6 1.287e+04 1.071e-09
  5.28998    -31.2 1.185e+04 8.231e-10
  5.30144    -31.6 1.194e+04 8.827e-10
  5.31179    -31.9 1.181e+04 9.153e-10
  5.33135    -32.8 1.174e+04 1.031e-09
  5.35204    -33.2 1.203e+04 1.274e-09
  5.36333    -33.7 1.253e+04 1.651e-09
  5.37367    -33.3 1.259e+04 1.459e-09
  5.39341    -34.5 1.383e+04 1.945e-09
  5.41409    -36.3 1.545e+04 2.776e-09
  5.42521    -38.2 1.674e+04 3.961e-09
  5.43556    -39.2 1.700e+04 3.656e-09
  5.44741    -40.5 1.733e+04 4.905e-09
  5.45775    -40.7 1.858e+04 1.331e-08
  5.47615    -41.5 1.837e+04 1.489e-08
  5.48710    -41.8 1.774e+04 1.488e-08
  5.49744    -42.0 1.773e+04 1.391e-08
  5.51752    -42.1 1.692e+04 1.156e-08
  5.53821    -42.2 1.596e+04 8.350e-09
  5.54898    -42.3 1.496e+04 5.747e-09
  5.55933    -43.3 1.492e+04 5.800e-09
  5.57958    -42.6 1.419e+04 4.253e-09
  5.60027    -42.0 1.363e+04 3.101e-09
  5.61087    -41.3 1.322e+04 2.280e-09
  5.62121    -41.3 1.327e+04 2.409e-09
  5.64164    -40.8 1.302e+04 1.844e-09
  5.65764    -40.5 1.271e+04 1.468e-09
  5.66798    -40.0 1.238e+04 1.389e-09
  5.68301    -39.1 1.208e+04 1.119e-09
  5.70370    -38.3 1.177e+04 8.960e-10
  5.73482    -37.2 1.144e+04 6.963e-10
  5.77603    -35.3 1.097e+04 5.057e-10
  5.79672    -35.0 1.107e+04 4.862e-10
  5.81767    -33.0 1.083e+04 3.454e-10
  5.85904    -31.5 1.051e+04 2.659e-10
  5.89980    -30.2 1.015e+04 2.352e-10
  5.92049    -29.7 1.002e+04 1.980e-10
  5.94178    -28.5 9.716e+03 1.836e-10
  5.98315    -27.2 9.513e+03 1.899e-10
  6.02357    -25.7 9.547e+03 1.935e-10
  6.04426    -25.3 9.526e+03 1.786e-10
  6.06590    -24.0 9.458e+03 1.710e-10
  6.08863    -22.4 9.294e+03 1.532e-10
  6.10932    -21.3 9.491e+03 1.480e-10
  6.14734    -20.4 9.252e+03 1.062e-10
  6.16803    -19.8 9.124e+03 1.322e-10
  6.19001    -18.8 8.959e+03 1.094e-10
  6.23139    -18.0 8.895e+03 1.055e-10
  6.27111    -16.9 8.755e+03 1.340e-10
  6.29180    -15.5 8.740e+03 1.535e-10
  6.31413    -13.5 8.692e+03 1.888e-10
  6.35550    -11.3 8.739e+03 1.999e-10
  6.39488     -9.3 8.797e+03 1.795e-10
  6.41557     -8.8 8.725e+03 1.488e-10
  6.43825     -7.3 8.732e+03 1.293e-10
  6.47962     -6.2 8.595e+03 1.179e-10
  6.50909     -4.9 8.658e+03 1.256e-10
  6.52744     -5.2 8.813e+03 1.182e-10
  6.53934     -4.1 8.663e+03 1.106e-10
  6.56236     -3.6 8.921e+03 1.438e-10
  6.60373     -2.4 8.861e+03 2.237e-10
  6.64242     -0.5 9.071e+03 3.032e-10
  6.66311     -0.1 9.259e+03 2.543e-10
  6.68648      0.1 9.675e+03 3.335e-10
  6.72785     -0.5 1.009e+04 4.811e-10
  6.76619     -1.0 1.056e+04 7.376e-10
  6.78688      0.1 1.050e+04 6.980e-10
  6.81059      0.1 1.086e+04 8.864e-10
  6.85197     -0.1 1.077e+04 8.499e-10
  6.88996      1.0 1.027e+04 5.600e-10
  6.91065      1.5 1.020e+04 5.745e-10
  6.92955      2.1 9.895e+03 2.991e-10
  6.95024      1.2 9.888e+03 2.355e-10
  6.97608     -0.4 9.735e+03 1.561e-10
  7.01373     -1.1 9.458e+03 1.720e-10
  7.03441     -0.7 9.661e+03 2.186e-10
  7.05883     -1.1 9.718e+03 3.352e-10
  7.10020     -0.8 9.975e+03 4.712e-10
  7.13750     -0.6 1.032e+04 6.355e-10
  7.15818     -0.7 1.074e+04 7.281e-10
  7.18294     -1.4 1.098e+04 8.386e-10
  7.22431     -2.5 1.115e+04 9.956e-10
  7.26127     -4.4 1.156e+04 1.259e-09
  7.28195     -5.7 1.189e+04 1.140e-09
  7.29662     -7.0 1.239e+04 1.708e-09
  7.31720     -8.3 1.303e+04 2.127e-09
  7.33330     -9.9 1.318e+04 2.535e-09
  7.34364    -10.0 1.297e+04 2.322e-09
  7.35858    -10.0 1.294e+04 2.463e-09
  7.37050    -10.2 1.304e+04 2.372e-09
  7.38084     -9.1 1.318e+04 3.067e-09
  7.39519     -8.9 1.384e+04 2.683e-09
  7.40553     -8.8 1.338e+04 2.074e-09
  7.42063    -11.5 1.341e+04 1.819e-09
  7.44132    -15.6 1.317e+04 1.756e-09
  7.45707    -18.5 1.331e+04 2.275e-09
  7.46741    -18.4 1.334e+04 2.227e-09
  7.48269    -19.2 1.316e+04 2.948e-09
  7.50338    -18.9 1.314e+04 3.431e-09
  7.51896    -18.5 1.304e+04 3.450e-09
  7.52930    -17.9 1.306e+04 3.588e-09
  7.54475    -17.6 1.323e+04 2.891e-09
  7.56544    -20.2 1.348e+04 1.877e-09
  7.58073    -24.1 1.259e+04 1.191e-09
  7.58579    -21.6 1.309e+04 1.779e-09
  7.59118    -21.4 1.373e+04 1.860e-09
  7.60681    -25.3 1.223e+04 1.171e-09
  7.62749    -27.3 1.105e+04 8.710e-10
  7.64272    -27.9 1.051e+04 7.071e-10
  7.65307    -28.3 1.043e+04 8.149e-10
  7.66887    -28.4 1.000e+04 6.609e-10
  7.68955    -28.4 9.517e+03 4.920e-10
  7.72068    -28.5 8.997e+03 3.320e-10
  7.75635    -28.6 8.188e+03 1.522e-10
  7.77703    -27.6 8.146e+03 1.466e-10
  7.79115    -27.8 7.989e+03 1.019e-10
  7.81184    -27.5 8.024e+03 9.628e-11
  7.84489    -27.5 7.946e+03 8.188e-11
  7.88012    -27.5 8.054e+03 8.308e-11
  7.90080    -27.1 8.059e+03 7.284e-11
  7.92764    -27.4 8.322e+03 9.875e-11
  7.96901    -27.5 8.478e+03 1.549e-10
  8.00389    -27.2 8.665e+03 2.123e-10
  8.02457    -26.6 8.587e+03 1.867e-10
  8.05175    -26.5 8.710e+03 2.100e-10
  8.09312    -26.5 8.721e+03 2.127e-10
  8.12766    -26.4 8.638e+03 1.919e-10
  8.14834    -25.7 8.650e+03 1.703e-10
  8.17587    -25.3 8.500e+03 1.455e-10
  8.21161    -24.7 8.418e+03 1.247e-10
  8.23229    -24.6 8.429e+03 1.308e-10
  8.25143    -23.7 8.439e+03 1.187e-10
  8.27211    -23.2 8.447e+03 1.138e-10
  8.29998    -22.1 8.409e+03 1.070e-10
  8.34136    -20.6 8.363e+03 9.908e-11
  8.37519    -18.8 8.330e+03 8.913e-11
  8.39588    -18.2 8.243e+03 7.595e-11
  8.42410    -16.4 8.238e+03 5.916e-11
  8.46547    -14.5 8.247e+03 4.612e-11
  8.49896    -12.7 8.272e+03 3.635e-11
  8.51965    -12.6 8.049e+03 3.205e-11
  8.54822    -10.8 8.160e+03 2.802e-11
  8.58959     -9.2 8.305e+03 2.734e-11
  8.62273     -7.9 8.511e+03 3.202e-11
  8.64342     -7.6 8.539e+03 3.345e-11
  8.65275     -5.9 8.433e+03 4.915e-11
  8.67344     -5.6 8.439e+03 4.632e-11
  8.71370     -3.6 8.674e+03 7.415e-11
  8.74650     -2.7 9.259e+03 1.188e-10
  8.76719     -4.1 9.750e+03 1.859e-10
  8.79645     -4.0 1.015e+04 4.810e-10
  8.83782     -1.6 1.071e+04 1.124e-09
  8.87027      0.6 1.160e+04 1.645e-09
  8.89096      0.3 1.137e+04 1.469e-09
  8.92056      0.7 1.144e+04 1.267e-09
  8.96194     -0.4 1.129e+04 1.099e-09
  8.99404     -0.9 1.135e+04 1.055e-09
  9.01473     -2.6 1.022e+04 4.893e-10
  9.04468     -3.2 1.021e+04 4.631e-10
  9.07321     -4.0 1.004e+04 5.505e-10
  9.09389     -4.0 1.024e+04 6.911e-10
  9.11781     -2.5 1.006e+04 8.310e-10
  9.13850     -2.7 1.012e+04 8.332e-10
  9.16880     -0.8 1.043e+04 9.677e-10
  9.21017      0.1 1.067e+04 9.107e-10
  9.24158     -0.3 1.063e+04 8.075e-10
  9.26227      0.4 1.045e+04 8.761e-10
  9.29291      1.2 1.037e+04 9.081e-10
  9.33428      2.0 1.059e+04 9.739e-10
  9.36535      2.8 1.062e+04 1.051e-09
  9.38604      3.1 1.055e+04 9.184e-10
  9.41703      3.9 1.053e+04 9.756e-10
  9.45840      5.0 1.018e+04 8.181e-10
  9.48912      5.5 9.637e+03 5.806e-10
  9.50370      6.1 9.994e+03 7.731e-10
  9.51425      6.2 9.897e+03 7.541e-10
  9.53061      6.5 9.646e+03 5.614e-10
  9.55081      6.4 9.356e+03 4.977e-10
  9.56115      6.8 9.496e+03 5.499e-10
  9.57198      6.6 9.351e+03 4.114e-10
  9.59266      6.4 9.214e+03 3.898e-10
  9.61279      5.0 9.184e+03 3.018e-10
  9.63358      3.8 9.790e+03 4.425e-10
  9.66526      3.0 9.594e+03 4.799e-10
  9.70663      2.9 9.555e+03 4.146e-10
  9.73666      2.9 9.350e+03 4.064e-10
  9.75735      3.5 9.138e+03 2.761e-10
  9.78938      3.0 9.248e+03 2.366e-10
  9.83075     -0.2 1.027e+04 4.155e-10
  9.86043     -1.2 1.116e+04 1.135e-09
  9.88112     -0.9 1.090e+04 9.093e-10
  9.90305      1.0 1.120e+04 1.647e-09
  9.92212      2.8 1.166e+04 1.875e-09
  9.93246      2.3 1.192e+04 1.897e-09
  9.93461      2.5 1.357e+04 1.601e-09
  9.94496      3.1 1.350e+04 1.941e-09
  9.96501      1.5 1.467e+04 1.920e-09
  9.98400     -0.8 1.358e+04 1.918e-09
  9.99435     -0.8 1.357e+04 2.371e-09
 10.00638     -1.6 1.248e+04 2.050e-09
 10.02707     -1.5 1.240e+04 1.939e-09
 10.04589     -1.9 1.307e+04 1.881e-09
 10.05623     -2.2 1.296e+04 1.481e-09
 10.06844     -3.9 1.255e+04 1.328e-09
 10.08913     -5.6 1.208e+04 1.264e-09
 10.10777     -6.4 1.216e+04 1.376e-09
 10.11812     -6.8 1.147e+04 7.595e-10
 10.13050     -7.6 1.189e+04 8.307e-10
 10.14484     -8.5 1.241e+04 1.067e-09
 10.15519     -9.2 1.297e+04 1.142e-09
 10.16966    -10.3 1.279e+04 1.411e-09
 10.18000    -10.1 1.225e+04 1.001e-09
 10.19256    -10.1 1.233e+04 1.264e-09
 10.21324    -10.0 1.209e+04 1.463e-09
 10.23154     -9.0 1.191e+04 1.564e-09
 10.24189     -8.7 1.151e+04 9.450e-10
 10.25462     -8.2 1.141e+04 9.186e-10
 10.27530     -7.4 1.143e+04 8.482e-10
 10.29343     -7.3 1.153e+04 7.414e-10
 10.30377     -7.5 1.108e+04 5.849e-10
 10.31667     -8.4 1.120e+04 5.135e-10
 10.33736     -9.1 1.124e+04 5.101e-10
 10.35507     -9.5 1.133e+04 5.696e-10
 10.36268     -9.7 1.075e+04 4.752e-10
 10.37610     -8.8 1.021e+04 3.666e-10
 10.40996     -7.8 1.041e+04 5.456e-10
 10.45133     -6.3 1.096e+04 6.776e-10
 10.47918     -5.8 1.135e+04 6.324e-10
 10.48943     -5.9 1.123e+04 6.649e-10
 10.50285     -6.2 1.136e+04 6.780e-10
 10.52353     -6.4 1.178e+04 7.215e-10
 10.54097     -7.5 1.194e+04 8.471e-10
 10.55131     -7.1 1.201e+04 9.337e-10
 10.56491     -7.9 1.231e+04 1.205e-09
 10.57564     -8.7 1.263e+04 1.576e-09
 10.58599     -8.7 1.292e+04 1.798e-09
 10.60285     -9.3 1.317e+04 2.109e-09
 10.61320    -10.0 1.339e+04 2.322e-09
 10.62696    -10.4 1.350e+04 2.536e-09
 10.64765    -11.1 1.373e+04 2.599e-09
 10.66474    -13.4 1.455e+04 2.632e-09
 10.67508    -13.3 1.417e+04 2.547e-09
 10.68902    -17.2 1.543e+04 2.575e-09
 10.70971    -21.3 1.612e+04 3.042e-09
 10.72662    -24.2 1.579e+04 3.741e-09
 10.73697    -23.6 1.518e+04 2.901e-09
 10.75108    -25.4 1.463e+04 3.154e-09
 10.77176    -26.7 1.408e+04 3.067e-09
 10.78587    -27.7 1.358e+04 2.611e-09
 10.79227    -25.7 1.358e+04 2.207e-09
 10.79885    -25.4 1.326e+04 1.847e-09
 10.82358    -26.2 1.283e+04 1.701e-09
 10.85059    -26.7 1.207e+04 1.435e-09
 10.87127    -25.3 1.188e+04 1.339e-09
 10.90642    -25.1 1.146e+04 1.156e-09
 10.94779    -24.7 1.088e+04 7.870e-10
 10.97436    -24.4 1.017e+04 4.615e-10
 10.99504    -23.9 1.052e+04 6.184e-10
 11.03054    -23.7 9.956e+03 4.178e-10
 11.07191    -23.0 9.728e+03 3.613e-10
 11.09813    -22.2 9.644e+03 3.526e-10
 11.11881    -21.7 9.780e+03 4.069e-10
 11.15465    -20.8 9.723e+03 4.107e-10
 11.19602    -19.7 9.728e+03 4.267e-10
 11.22190    -18.7 9.679e+03 4.237e-10
 11.24258    -18.1 9.679e+03 3.697e-10
 11.27877    -16.7 9.472e+03 3.150e-10
 11.32014    -15.4 9.241e+03 2.577e-10
 11.34567    -14.2 9.145e+03 2.249e-10
 11.36635    -13.8 9.300e+03 2.277e-10
 11.40288    -13.1 9.356e+03 2.256e-10
 11.44425    -13.3 9.813e+03 3.046e-10
 11.46944    -13.8 1.066e+04 6.285e-10
 11.49012    -12.9 1.112e+04 8.677e-10
 11.52700    -12.1 1.196e+04 1.377e-09
 11.56837    -11.0 1.244e+04 1.756e-09
 11.59320    -10.0 1.251e+04 1.585e-09
 11.61389    -10.0 1.212e+04 8.773e-10
 11.63733    -10.3 1.146e+04 6.499e-10
 11.65801    -10.9 1.048e+04 4.283e-10
 11.69249     -9.9 1.046e+04 3.919e-10
 11.71697     -9.0 1.061e+04 4.023e-10
 11.72722     -8.9 1.081e+04 4.374e-10
 11.74401     -9.6 1.127e+04 5.335e-10
 11.77513    -10.2 1.246e+04 9.784e-10
 11.80616    -10.6 1.411e+04 2.332e-09
 11.82675    -10.3 1.400e+04 3.096e-09
 11.84055     -7.6 1.408e+04 3.952e-09
 11.85081     -7.2 1.471e+04 5.550e-09
 11.86804     -6.1 1.452e+04 4.476e-09
 11.88881     -7.2 1.722e+04 4.395e-09
 11.90243    -18.5 2.776e+04 7.699e-09
 11.91278    -18.8 2.341e+04 6.837e-09
 11.92496    -24.1 2.778e+04 1.350e-08
 11.93328    -26.3 2.698e+04 2.113e-08
 11.93845    -26.4 2.147e+04 1.771e-08
 11.94560    -29.1 2.087e+04 2.557e-08
 11.95594    -31.2 2.119e+04 3.212e-08
 11.96272    -32.6 2.162e+04 3.518e-08
 11.96583    -31.3 2.095e+04 3.132e-08
 11.96939    -30.3 2.074e+04 2.705e-08
 11.97663    -31.3 2.117e+04 2.566e-08
 11.99219    -33.6 2.080e+04 1.554e-08
 12.01292    -38.5 1.755e+04 4.861e-09
 12.02620    -43.0 1.417e+04 1.490e-09
 12.03655    -43.7 1.300e+04 1.452e-09
 12.05430    -45.1 1.227e+04 8.728e-10
 12.06793    -47.6 1.261e+04 7.445e-10
 12.07827    -45.0 1.208e+04 7.489e-10
 12.08809    -47.5 1.247e+04 6.716e-10
 12.09843    -46.1 1.192e+04 7.067e-10
 12.11635    -50.0 1.291e+04 6.780e-10
 12.13704    -55.7 1.737e+04 7.462e-10
 12.14997    -60.2 1.888e+04 1.629e-09
 12.16032    -59.3 1.621e+04 1.458e-09
 12.17841    -61.3 1.628e+04 2.670e-09
 12.19910    -61.7 1.597e+04 3.315e-09
 12.21186    -61.7 1.511e+04 3.257e-09
 12.22220    -61.5 1.489e+04 2.983e-09
 12.24047    -61.6 1.400e+04 2.486e-09
 12.26116    -61.6 1.311e+04 1.730e-09
 12.27374    -61.8 1.233e+04 1.163e-09
 12.28040    -61.4 1.238e+04 1.426e-09
 12.28850    -60.4 1.206e+04 1.185e-09
 12.30253    -60.4 1.153e+04 9.294e-10
 12.32321    -60.2 1.112e+04 7.606e-10
 12.33563    -59.6 1.076e+04 6.410e-10
 12.34597    -59.0 1.087e+04 7.117e-10
 12.36459    -58.1 1.058e+04 6.082e-10
 12.38527    -57.1 1.035e+04 5.160e-10
 12.39751    -56.2 1.022e+04 4.563e-10
 12.40786    -56.0 1.026e+04 4.665e-10
 12.43708    -55.4 1.014e+04 4.159e-10
 12.45959    -53.4 9.891e+03 3.565e-10
 12.47996    -52.9 9.845e+03 3.367e-10
 12.49893    -51.7 9.815e+03 3.261e-10
 12.51993    -49.8 9.731e+03 3.297e-10
 12.56130    -48.0 9.770e+03 3.626e-10
 12.58336    -46.2 9.773e+03 3.866e-10
 12.60405    -45.7 9.750e+03 3.823e-10
 12.64404    -43.9 9.783e+03 4.147e-10
 12.68541    -42.1 9.770e+03 4.188e-10
 12.70713    -40.3 9.719e+03 4.095e-10
 12.72782    -39.8 9.868e+03 4.541e-10
 12.76816    -38.1 9.801e+03 4.444e-10
 12.80953    -36.4 9.701e+03 4.130e-10
 12.83090    -34.7 9.569e+03 3.700e-10
 12.85159    -34.1 9.572e+03 3.659e-10
 12.89227    -32.5 9.423e+03 3.193e-10
 12.91938    -30.8 9.261e+03 2.701e-10
 12.94007    -30.2 9.372e+03 2.978e-10
 12.95467    -28.5 9.250e+03 2.686e-10
 12.97536    -28.2 9.323e+03 2.799e-10
 13.01639    -26.5 9.245e+03 2.650e-10
 13.05775    -24.8 9.139e+03 2.392e-10
 13.09913    -22.6 9.132e+03 2.568e-10
 13.14051    -20.6 8.973e+03 2.060e-10
 13.18152    -18.7 8.842e+03 1.542e-10
 13.20221    -18.1 8.935e+03 1.577e-10
 13.22325    -16.4 8.815e+03 1.107e-10
 13.26462    -14.9 8.771e+03 8.377e-11
 13.30529    -13.4 8.727e+03 7.264e-11
 13.32598    -13.2 8.738e+03 7.174e-11
 13.33984    -11.4 8.725e+03 6.929e-11
 13.36053    -10.7 8.784e+03 8.508e-11
 13.38874     -8.9 8.802e+03 8.189e-11
 13.42906     -7.2 8.852e+03 8.227e-11
 13.44975     -7.1 8.954e+03 8.973e-11
 13.47148     -5.5 9.015e+03 9.958e-11
 13.51285     -4.2 9.020e+03 1.229e-10
 13.55283     -2.8 9.021e+03 1.662e-10
 13.57352     -2.4 9.120e+03 1.942e-10
 13.59560     -1.1 9.325e+03 2.598e-10
 13.63697      0.0 9.630e+03 3.623e-10
 13.66790      1.1 1.003e+04 5.084e-10
 13.68675      0.9 9.991e+03 5.451e-10
 13.69709      0.7 1.014e+04 5.951e-10
 13.70918      1.6 1.046e+04 6.792e-10
 13.72986      1.5 1.041e+04 6.770e-10
 13.74863      2.0 1.048e+04 6.935e-10
 13.75898      1.7 1.063e+04 7.549e-10
 13.77045      2.1 1.047e+04 6.722e-10
 13.78079      2.4 1.047e+04 6.702e-10
 13.79192      2.4 1.035e+04 6.075e-10
 13.81052      2.7 1.019e+04 5.580e-10
 13.82086      2.4 1.023e+04 5.696e-10
 13.84373      3.0 9.918e+03 4.400e-10
 13.88520      3.7 9.547e+03 3.390e-10
 13.92414      4.8 9.283e+03 2.764e-10
 13.94483      4.6 9.094e+03 2.034e-10
 13.96795      5.8 8.975e+03 1.703e-10
 14.00932      6.7 8.950e+03 1.546e-10
 14.04791      7.6 8.931e+03 1.565e-10
 14.06860      7.1 8.811e+03 1.419e-10
 14.09206      8.1 8.820e+03 1.698e-10
 14.13343      9.3 8.837e+03 2.103e-10
 14.17168     10.7 8.874e+03 2.384e-10
 14.19237     10.7 8.779e+03 2.164e-10
 14.20144     11.8 8.761e+03 2.141e-10
 14.22213     12.8 8.911e+03 2.184e-10
 14.25755     13.5 8.862e+03 1.879e-10
 14.29545     13.5 8.816e+03 1.672e-10
 14.31614     13.5 8.788e+03 1.610e-10
 14.34029     13.3 8.793e+03 1.913e-10
 14.38167     14.0 8.773e+03 2.353e-10
 14.41922     14.7 8.728e+03 2.481e-10
 14.43991     14.8 8.862e+03 2.729e-10
 14.46441     15.3 8.816e+03 2.262e-10
 14.50578     14.7 8.733e+03 1.655e-10
 14.54299     14.4 8.555e+03 1.634e-10
 14.56368     14.0 8.736e+03 1.781e-10
 14.58853     13.6 8.806e+03 1.908e-10
 14.62190     13.1 8.809e+03 2.224e-10
 14.64259     14.1 9.073e+03 2.221e-10
 14.66676     14.1 8.917e+03 2.986e-10
 14.68745     14.1 9.212e+03 3.935e-10
 14.71264     13.7 9.463e+03 3.104e-10
 14.75401     11.2 9.584e+03 2.862e-10
 14.79053      9.4 9.322e+03 3.549e-10
 14.81122      8.8 9.437e+03 4.014e-10
 14.83676      8.7 9.533e+03 3.803e-10
 14.87813      7.2 9.433e+03 2.292e-10
 14.91430      4.8 8.984e+03 1.705e-10
 14.93498      4.0 8.854e+03 1.505e-10
 14.96087      3.2 8.785e+03 1.492e-10
 15.00224      3.0 8.859e+03 1.572e-10
 15.03807      3.0 8.924e+03 1.612e-10
 15.05749      3.2 8.923e+03 1.374e-10
 15.06304      4.3 8.834e+03 1.339e-10
 15.08499      4.3 8.994e+03 1.306e-10
 15.12636      3.5 9.373e+03 1.389e-10
 15.16184      1.8 9.557e+03 2.179e-10
 15.18252      1.9 9.452e+03 2.224e-10
 15.20910      1.6 9.896e+03 3.781e-10
 15.25048      1.4 1.047e+04 5.373e-10
 15.28561      0.4 1.078e+04 5.904e-10
 15.30629      0.6 1.059e+04 4.800e-10
 15.33322     -0.9 1.043e+04 4.538e-10
 15.37459     -1.6 1.006e+04 4.116e-10
 15.40938     -1.8 9.804e+03 3.190e-10
 15.43006     -1.2 9.897e+03 3.784e-10
 15.45734     -1.2 9.660e+03 2.864e-10
 15.48350     -0.9 9.383e+03 2.259e-10
 15.50419      0.3 9.417e+03 2.188e-10
 15.53315      1.1 9.177e+03 2.026e-10
 15.55383      1.7 9.372e+03 2.398e-10
 15.58145      2.7 9.239e+03 2.213e-10
 15.62282      3.5 9.256e+03 2.090e-10
 15.65692      3.5 9.502e+03 2.227e-10
 15.67760      3.4 9.612e+03 2.664e-10
 15.70557      3.3 9.887e+03 3.606e-10
 15.74694      3.9 1.012e+04 5.056e-10
 15.77787      5.5 1.038e+04 6.267e-10
 15.79083      5.3 1.044e+04 6.209e-10
 15.80118      5.0 1.017e+04 4.238e-10
 15.81915      4.7 1.042e+04 4.525e-10
 15.83983      2.9 1.092e+04 5.050e-10
 15.85272      0.9 1.140e+04 7.113e-10
 15.86306      0.4 1.115e+04 5.840e-10
 15.88120     -1.1 1.105e+04 8.237e-10
 15.90189     -1.5 1.093e+04 1.062e-09
 15.91411     -1.3 1.092e+04 1.158e-09
 15.91648     -0.2 1.120e+04 1.343e-09
 15.92495     -0.7 1.110e+04 1.230e-09
 15.94326     -0.1 1.103e+04 1.184e-09
 15.96395      0.0 1.078e+04 8.709e-10
 15.97649     -1.1 1.042e+04 5.680e-10
 15.98683     -1.6 1.051e+04 6.266e-10
 16.00532     -3.1 1.004e+04 4.562e-10
 16.02813     -4.1 9.693e+03 3.584e-10
 16.04881     -4.5 9.637e+03 4.328e-10
 16.06738     -4.3 9.657e+03 4.352e-10
 16.08806     -4.2 9.675e+03 4.441e-10
 16.11919     -3.5 9.785e+03 4.649e-10
 16.15199     -2.8 9.932e+03 4.132e-10
 16.17268     -3.4 1.001e+04 4.132e-10
 16.20203     -3.1 9.842e+03 3.396e-10
 16.24340     -2.6 9.624e+03 2.924e-10
 16.27576     -1.9 9.837e+03 2.959e-10
 16.29645     -1.1 9.844e+03 3.074e-10
 16.32442     -0.9 1.052e+04 3.917e-10
 16.34510     -0.9 9.707e+03 2.294e-10
 16.36752     -0.8 1.007e+04 2.615e-10
 16.39953     -1.1 1.041e+04 3.753e-10
 16.42022      1.2 1.076e+04 4.827e-10
 16.45026      2.1 1.115e+04 6.555e-10
 16.49164      2.9 1.137e+04 7.181e-10
 16.52330      0.7 1.188e+04 6.782e-10
 16.54389      2.1 1.240e+04 9.290e-10
 16.55513     -3.5 1.367e+04 9.044e-10
 16.56548     -3.0 1.278e+04 7.479e-10
 16.58453     -8.1 1.364e+04 1.111e-09
 16.59534    -14.0 1.401e+04 1.824e-09
 16.60568    -18.3 1.711e+04 3.918e-09
 16.62590    -22.6 1.859e+04 6.569e-09
 16.64659    -26.1 1.993e+04 8.309e-09
 16.65722    -30.3 2.026e+04 8.684e-09
 16.66756    -35.9 1.981e+04 1.307e-08
 16.68796    -38.7 1.830e+04 1.139e-08
 16.70864    -39.9 1.736e+04 1.037e-08
 16.71911    -40.2 1.681e+04 9.509e-09
 16.72945    -40.8 1.630e+04 7.215e-09
 16.75002    -40.2 1.595e+04 5.527e-09
 16.76536    -39.9 1.568e+04 4.079e-09
 16.77565    -38.7 1.628e+04 4.531e-09
 16.79133    -42.1 1.293e+04 1.189e-09
 16.81207    -42.9 1.159e+04 6.624e-10
 16.83253    -43.3 1.068e+04 4.221e-10
 16.84288    -43.4 1.036e+04 3.760e-10
 16.85345    -43.3 1.023e+04 2.853e-10
 16.87413    -43.2 1.015e+04 2.367e-10
 16.89451    -42.7 1.006e+04 2.068e-10
 16.91530    -41.7 9.870e+03 2.064e-10
 16.94673    -40.2 9.790e+03 1.832e-10
 16.98810    -39.1 9.819e+03 1.814e-10
 17.01838    -38.5 1.010e+04 2.210e-10
 17.03907    -38.0 1.001e+04 2.275e-10
 17.07084    -37.2 1.022e+04 3.173e-10
 17.11222    -36.3 1.058e+04 4.560e-10
 17.14215    -35.8 1.095e+04 5.987e-10
 17.16284    -35.4 1.068e+04 4.037e-10
 17.18602    -35.0 1.076e+04 4.539e-10
 17.20534    -34.4 1.078e+04 4.678e-10
 17.21418    -34.4 1.074e+04 4.620e-10
 17.22579    -33.9 1.087e+04 4.910e-10
 17.24648    -33.8 1.090e+04 4.944e-10
 17.26582    -32.8 1.111e+04 5.151e-10
 17.28661    -32.6 1.044e+04 3.497e-10
 17.31908    -31.9 1.044e+04 3.293e-10
 17.36045    -31.0 1.053e+04 3.231e-10
 17.38959    -30.4 1.077e+04 3.196e-10
 17.41028    -30.5 1.063e+04 2.133e-10
 17.43275    -30.3 1.116e+04 2.768e-10
 17.45138    -31.6 1.147e+04 3.921e-10
 17.46172    -31.2 1.116e+04 3.591e-10
 17.47403    -31.7 1.139e+04 5.743e-10
 17.49471    -32.1 1.192e+04 8.787e-10
 17.51327    -32.2 1.283e+04 1.372e-09
 17.52361    -31.6 1.238e+04 9.671e-10
 17.53608    -31.9 1.308e+04 1.355e-09
 17.55677    -32.2 1.353e+04 1.783e-09
 17.57515    -32.3 1.376e+04 2.136e-09
 17.58549    -32.6 1.300e+04 1.346e-09
 17.59814    -32.9 1.313e+04 1.653e-09
 17.61662    -33.6 1.345e+04 2.127e-09
 17.62696    -32.9 1.315e+04 1.758e-09
 17.63704    -34.3 1.406e+04 2.659e-09
 17.64738    -34.2 1.358e+04 1.737e-09
 17.66020    -35.4 1.462e+04 3.154e-09
 17.68089    -35.9 1.599e+04 5.956e-09
 17.69892    -35.8 1.743e+04 1.014e-08
 17.70926    -35.7 1.617e+04 6.234e-09
 17.72226    -36.0 1.709e+04 8.730e-09
 17.74294    -37.3 1.757e+04 9.611e-09
 17.76080    -39.4 1.779e+04 9.313e-09
 17.77115    -39.8 1.683e+04 7.456e-09
 17.78432    -42.6 1.698e+04 7.383e-09
 17.80500    -45.5 1.691e+04 7.174e-09
 17.82269    -48.0 1.674e+04 7.056e-09
 17.83303    -48.8 1.739e+04 9.312e-09
 17.83719    -50.9 1.717e+04 9.479e-09
 17.84754    -50.5 1.760e+04 1.140e-08
 17.86706    -52.3 1.675e+04 8.764e-09
 17.88457    -54.0 1.595e+04 6.449e-09
 17.89492    -54.8 1.650e+04 8.716e-09
 17.90843    -56.2 1.563e+04 6.832e-09
 17.92912    -57.0 1.481e+04 5.374e-09
 17.94646    -57.3 1.413e+04 4.277e-09
 17.95680    -57.4 1.447e+04 4.924e-09
 17.97049    -57.3 1.391e+04 3.928e-09
 17.99118    -56.8 1.345e+04 3.185e-09
 18.00834    -56.3 1.307e+04 2.592e-09
 18.01869    -56.4 1.307e+04 2.239e-09
 18.03255    -56.1 1.270e+04 1.686e-09
 18.04742    -55.9 1.226e+04 1.300e-09
 18.05776    -56.4 1.166e+04 9.906e-10
 18.07023    -55.9 1.136e+04 8.413e-10
 18.08057    -56.0 1.110e+04 7.259e-10
 18.09461    -55.4 1.090e+04 6.211e-10
 18.11529    -55.1 1.075e+04 5.483e-10
 18.13221    -54.7 1.072e+04 5.149e-10
 18.15299    -54.7 1.044e+04 3.867e-10
 18.18789    -53.7 1.058e+04 4.459e-10
 18.22926    -52.8 1.081e+04 5.363e-10
 18.25608    -52.0 1.099e+04 5.992e-10
 18.27676    -52.5 1.110e+04 5.498e-10
 18.30156    -51.6 1.121e+04 5.885e-10
 18.31777    -51.6 1.123e+04 6.016e-10
 18.32811    -51.9 1.121e+04 5.791e-10
 18.34284    -52.0 1.128e+04 5.919e-10
 18.36352    -51.8 1.133e+04 6.105e-10
 18.37965    -51.8 1.147e+04 6.313e-10
 18.39000    -52.2 1.133e+04 5.807e-10
 18.40489    -52.3 1.150e+04 5.918e-10
 18.42558    -52.6 1.179e+04 6.133e-10
 18.44154    -53.9 1.278e+04 6.968e-10
 18.45188    -54.4 1.275e+04 6.643e-10
 18.46695    -57.4 1.443e+04 1.138e-09
 18.47822    -60.4 1.578e+04 2.586e-09
 18.48856    -59.8 1.584e+04 3.192e-09
 18.50342    -61.1 1.689e+04 6.441e-09
 18.51377    -62.0 1.694e+04 6.777e-09
 18.52901    -62.3 1.778e+04 1.156e-08
 18.54970    -62.5 1.838e+04 1.597e-08
 18.56531    -63.4 1.855e+04 1.730e-08
 18.57565    -63.4 1.850e+04 1.636e-08
 18.59107    -64.4 1.817e+04 1.519e-08
 18.61175    -65.2 1.742e+04 1.051e-08
 18.62719    -66.6 1.660e+04 6.532e-09
 18.63753    -66.8 1.645e+04 5.986e-09
 18.65313    -68.1 1.561e+04 4.280e-09
 18.67381    -69.0 1.490e+04 3.297e-09
 18.68845    -69.3 1.440e+04 2.762e-09
 18.69337    -70.2 1.508e+04 3.571e-09
 18.69942    -69.9 1.507e+04 3.362e-09
 18.71518    -69.8 1.473e+04 2.984e-09
 18.73587    -69.6 1.445e+04 2.661e-09
 18.75096    -69.2 1.424e+04 2.402e-09
 18.76130    -68.8 1.400e+04 1.938e-09
 18.77724    -68.5 1.382e+04 1.741e-09
 18.79793    -68.2 1.374e+04 1.622e-09
 18.81285    -67.8 1.373e+04 1.581e-09
 18.82319    -67.7 1.324e+04 1.280e-09
 18.83930    -67.3 1.325e+04 1.266e-09
 18.85999    -67.2 1.362e+04 1.374e-09
 18.87473    -67.3 1.412e+04 1.640e-09
 18.88507    -67.0 1.401e+04 1.380e-09
 18.89868    -66.9 1.448e+04 1.763e-09
 18.90912    -68.2 1.411e+04 1.446e-09
 18.92214    -68.1 1.474e+04 2.292e-09
 18.93662    -68.2 1.507e+04 2.845e-09
 18.94696    -67.4 1.496e+04 2.556e-09
 18.96342    -67.5 1.529e+04 2.855e-09
 18.98410    -68.0 1.536e+04 2.861e-09
 18.99850    -68.7 1.523e+04 2.636e-09
 19.00884    -67.8 1.495e+04 2.204e-09
 19.02547    -69.1 1.457e+04 1.922e-09
 19.04616    -70.6 1.407e+04 1.732e-09
 19.06039    -72.4 1.376e+04 1.658e-09
 19.07073    -72.0 1.386e+04 1.692e-09
 19.08753    -74.4 1.452e+04 2.235e-09
 19.10822    -76.9 1.542e+04 3.283e-09
 19.11925    -79.1 1.616e+04 4.821e-09
 19.12296    -81.1 1.646e+04 5.928e-09
 19.13261    -80.9 1.678e+04 7.535e-09
 19.14959    -82.6 1.680e+04 8.233e-09
 19.17028    -84.2 1.640e+04 7.323e-09
 19.18416    -85.5 1.549e+04 4.275e-09
 19.19450    -85.7 1.554e+04 4.048e-09
 19.21165    -87.8 1.414e+04 1.518e-09
 19.23233    -90.1 1.286e+04 6.538e-10
 19.24614    -90.9 1.249e+04 5.147e-10
 19.26692    -92.1 1.235e+04 3.728e-10
 19.30493    -93.5 1.112e+04 2.157e-10
 19.32968    -94.4 1.049e+04 1.770e-10
 19.35036    -96.2 1.018e+04 1.680e-10
 19.37001    -96.1 1.036e+04 2.346e-10
 19.39069    -96.0 1.030e+04 3.340e-10
 19.42905    -95.6 1.048e+04 4.310e-10
 19.47042    -95.4 1.066e+04 4.948e-10
 19.49377    -95.5 1.072e+04 5.025e-10
 19.51446    -95.1 1.037e+04 4.916e-10
 19.55316    -95.9 1.031e+04 4.244e-10
 19.59453    -97.3 1.018e+04 3.544e-10
 19.61754    -98.6 1.011e+04 3.352e-10
 19.63823    -97.7 9.995e+03 2.589e-10
 19.67728    -98.4 9.942e+03 2.693e-10
 19.71865    -98.6 9.941e+03 3.228e-10
 19.74131    -98.5 1.002e+04 3.840e-10
 19.75211    -97.4 9.926e+03 3.680e-10
 19.77082    -96.5 9.963e+03 3.727e-10
 19.80139    -96.3 1.013e+04 4.710e-10
 19.84277    -95.9 1.020e+04 5.042e-10
 19.86508    -95.5 1.019e+04 5.047e-10
 19.88577    -94.4 1.031e+04 4.811e-10
 19.92551    -93.9 1.026e+04 4.552e-10
 19.96688    -93.1 1.011e+04 3.468e-10
 19.98885    -92.4 9.926e+03 2.437e-10
 20.00954    -92.0 1.011e+04 3.651e-10
 20.04963    -91.2 9.887e+03 2.708e-10
 20.09100    -90.1 9.763e+03 2.229e-10
 20.11262    -88.9 9.745e+03 2.120e-10
 20.13331    -89.1 1.011e+04 3.404e-10
 20.17059    -88.2 1.012e+04 3.412e-10
 20.19128    -87.4 1.019e+04 3.435e-10
 20.21511    -86.8 1.074e+04 4.472e-10
 20.23629    -86.8 1.126e+04 6.589e-10
 20.24654    -87.7 1.132e+04 9.976e-10
 20.26663    -87.9 1.150e+04 1.107e-09
 20.28732    -88.3 1.193e+04 1.583e-09
 20.29808    -89.3 1.257e+04 2.292e-09
 20.30842    -89.4 1.260e+04 2.289e-09
 20.32869    -90.7 1.363e+04 3.491e-09
 20.34938    -92.3 1.471e+04 5.105e-09
 20.35997    -94.1 1.562e+04 7.055e-09
 20.37031    -94.8 1.548e+04 6.180e-09
 20.39075    -96.6 1.587e+04 7.401e-09
 20.40131    -98.3 1.594e+04 7.691e-09
 20.41165    -97.5 1.598e+04 7.406e-09
 20.43212    -99.6 1.519e+04 5.112e-09
 20.45281   -100.4 1.455e+04 4.179e-09
 20.47339   -101.1 1.382e+04 2.891e-09
 20.48374   -102.2 1.317e+04 2.131e-09
 20.49418   -103.0 1.260e+04 1.515e-09
 20.51487   -103.7 1.208e+04 1.079e-09
 20.53528   -104.3 1.169e+04 7.894e-10
 20.54562   -105.0 1.173e+04 8.292e-10
 20.55624   -105.2 1.150e+04 6.864e-10
 20.57692   -105.3 1.128e+04 5.746e-10
 20.59716   -105.1 1.107e+04 4.795e-10
 20.60751   -105.1 1.103e+04 6.479e-10
 20.61154   -104.5 1.080e+04 5.287e-10
 20.62188   -103.6 1.072e+04 4.990e-10
 20.63898   -103.2 1.057e+04 4.324e-10
 20.67011   -102.6 1.041e+04 3.736e-10
 20.71078   -101.2 1.001e+04 2.610e-10
 20.73147   -101.3 1.015e+04 2.752e-10
 20.75295    -99.5 9.746e+03 1.779e-10
 20.79432    -97.7 9.565e+03 1.268e-10
 20.83455    -96.0 9.651e+03 1.035e-10
 20.85524    -96.6 9.687e+03 1.520e-10
 20.87707    -95.0 9.694e+03 1.502e-10
 20.91844    -93.6 9.754e+03 1.506e-10
 20.95832    -92.3 9.829e+03 1.609e-10
 20.97901    -92.0 9.744e+03 2.527e-10
 21.00118    -90.6 9.775e+03 2.460e-10
 21.03219    -89.2 9.798e+03 2.266e-10
 21.05288    -88.5 9.825e+03 2.306e-10
 21.08209    -87.2 9.848e+03 2.131e-10
 21.10278    -87.1 9.857e+03 1.909e-10
 21.12530    -86.1 9.893e+03 1.663e-10
 21.16667    -85.1 9.954e+03 1.568e-10
 21.20586    -84.3 1.001e+04 1.554e-10
 21.22655    -84.5 9.958e+03 1.383e-10
 21.24941    -83.8 1.017e+04 1.568e-10
 21.29079    -82.9 1.043e+04 1.938e-10
 21.32963    -81.9 1.066e+04 2.469e-10
 21.35032    -82.0 1.085e+04 2.920e-10
 21.37353    -80.8 1.097e+04 3.511e-10
 21.41490    -79.6 1.103e+04 4.007e-10
 21.45265    -78.4 1.102e+04 4.358e-10
 21.47037    -78.7 1.104e+04 4.748e-10
 21.47389    -78.9 1.098e+04 5.324e-10
 21.48711    -78.1 1.094e+04 5.341e-10
 21.50779    -77.4 1.092e+04 5.350e-10
 21.52544    -76.6 1.089e+04 5.370e-10
 21.53578    -76.4 1.090e+04 5.473e-10
 21.54917    -75.6 1.088e+04 5.568e-10
 21.56985    -74.6 1.089e+04 5.666e-10
 21.58732    -73.8 1.092e+04 5.738e-10
 21.59766    -73.4 1.089e+04 6.114e-10
 21.61122    -72.4 1.088e+04 6.254e-10
 21.63191    -71.2 1.088e+04 6.262e-10
 21.66304    -69.8 1.091e+04 5.939e-10
 21.70094    -67.6 1.072e+04 5.348e-10
 21.72163    -66.1 1.088e+04 4.619e-10
 21.74588    -63.8 1.077e+04 4.473e-10
 21.78725    -61.5 1.074e+04 4.429e-10
 21.82471    -59.6 1.086e+04 5.069e-10
 21.84530    -58.5 1.106e+04 5.740e-10
 21.85945    -57.6 1.128e+04 6.946e-10
 21.88014    -56.8 1.157e+04 8.484e-10
 21.89360    -56.2 1.190e+04 1.033e-09
 21.89986    -55.9 1.179e+04 9.217e-10
 21.90709    -55.7 1.185e+04 1.022e-09
 21.92151    -55.0 1.207e+04 1.212e-09
 21.94220    -54.3 1.230e+04 1.406e-09
 21.95863    -53.7 1.251e+04 1.584e-09
 21.96897    -53.4 1.265e+04 1.711e-09
 21.98357    -52.9 1.284e+04 1.805e-09
 22.00426    -52.5 1.293e+04 1.834e-09
 22.02051    -52.1 1.295e+04 1.815e-09
 22.03086    -52.2 1.317e+04 2.100e-09
 22.04563    -52.1 1.314e+04 1.919e-09
 22.06631    -52.1 1.301e+04 1.697e-09
 22.08240    -52.2 1.285e+04 1.516e-09
 22.09274    -53.0 1.366e+04 2.076e-09
 22.10383    -53.2 1.343e+04 1.945e-09
 22.11417    -52.1 1.353e+04 1.695e-09
 22.12837    -52.4 1.358e+04 1.708e-09
 22.14428    -52.8 1.355e+04 1.797e-09
 22.15463    -53.5 1.395e+04 2.927e-09
 22.16974    -53.5 1.365e+04 3.084e-09
 22.19043    -53.3 1.350e+04 3.323e-09
 22.20617    -52.8 1.346e+04 3.471e-09
 22.21651    -52.2 1.384e+04 4.255e-09
 22.23180    -51.9 1.379e+04 3.919e-09
 22.25249    -51.7 1.363e+04 3.391e-09
 22.26805    -51.8 1.338e+04 2.829e-09
 22.27840    -52.2 1.355e+04 2.631e-09
 22.29386    -52.9 1.322e+04 2.202e-09
 22.31405    -53.7 1.292e+04 1.954e-09
 22.32440    -52.8 1.386e+04 2.969e-09
 22.32994    -53.5 1.360e+04 2.743e-09
 22.34028    -54.1 1.349e+04 2.746e-09
 22.35592    -54.6 1.331e+04 2.642e-09
 22.37660    -55.0 1.310e+04 2.574e-09
 22.39182    -55.4 1.295e+04 2.522e-09
 22.40217    -55.8 1.315e+04 2.767e-09
 22.41798    -56.4 1.320e+04 2.797e-09
 22.43866    -57.3 1.326e+04 2.817e-09
 22.45371    -58.3 1.333e+04 2.809e-09
 22.46405    -58.7 1.375e+04 3.412e-09
 22.48003    -59.7 1.358e+04 3.274e-09
 22.50072    -60.5 1.324e+04 2.925e-09
 22.51559    -61.0 1.273e+04 2.387e-09
 22.52594    -60.7 1.293e+04 2.690e-09
 22.53463    -60.9 1.218e+04 1.950e-09
 22.54497    -61.0 1.213e+04 1.814e-09
 22.56278    -61.4 1.126e+04 1.185e-09
 22.57748    -61.7 1.048e+04 7.441e-10
 22.58782    -61.5 1.055e+04 7.887e-10
 22.60415    -62.1 9.994e+03 5.191e-10
 22.62484    -62.8 9.611e+03 3.593e-10
 22.65596    -63.3 9.318e+03 2.679e-10
 22.69110    -63.5 8.928e+03 2.041e-10
 22.71178    -62.3 9.246e+03 2.854e-10
 22.73471    -61.9 8.909e+03 2.133e-10
 22.75539    -62.3 9.047e+03 2.310e-10
 22.78018    -61.9 8.886e+03 1.924e-10
 22.81487    -61.3 8.858e+03 1.840e-10
 22.83555    -60.4 9.025e+03 1.962e-10
 22.85248    -59.7 8.956e+03 1.855e-10
 22.87307    -59.7 9.020e+03 1.947e-10
 22.88690    -59.3 9.145e+03 2.223e-10
 22.89724    -59.3 9.137e+03 2.258e-10
 22.91444    -59.3 9.251e+03 2.472e-10
 22.93513    -58.5 9.429e+03 3.056e-10
 22.94879    -58.3 9.538e+03 3.308e-10
 22.95840    -58.3 9.725e+03 3.812e-10
 22.96543    -59.7 1.034e+04 6.201e-10
 22.97650    -59.0 1.046e+04 6.915e-10
 22.99718    -58.2 1.051e+04 7.261e-10
 23.01067    -57.3 1.052e+04 7.400e-10
 23.02101    -57.4 1.052e+04 8.080e-10
 23.03856    -56.5 1.052e+04 7.893e-10
 23.05924    -55.5 1.051e+04 7.382e-10
 23.07256    -54.6 1.049e+04 6.732e-10
 23.08290    -55.0 1.060e+04 7.809e-10
 23.10061    -54.3 1.056e+04 7.297e-10
 23.12130    -53.5 1.052e+04 6.936e-10
 23.13444    -52.8 1.049e+04 6.692e-10
 23.14478    -53.1 1.067e+04 8.155e-10
 23.16267    -52.1 1.069e+04 8.047e-10
 23.17565    -51.1 1.069e+04 7.877e-10
 23.18600    -51.8 1.116e+04 9.940e-10
 23.19632    -50.6 1.109e+04 9.544e-10
 23.20667    -50.4 1.135e+04 1.164e-09
 23.22473    -49.2 1.118e+04 1.038e-09
 23.24542    -47.9 1.098e+04 9.131e-10
 23.25821    -46.6 1.077e+04 7.920e-10
 23.26855    -46.5 1.086e+04 8.020e-10
 23.28679    -45.2 1.058e+04 6.562e-10
 23.30747    -43.9 1.029e+04 5.285e-10
 23.32009    -42.5 1.005e+04 4.294e-10
 23.33044    -42.7 9.989e+03 4.097e-10
 23.34885    -41.3 9.860e+03 3.539e-10
 23.36953    -40.6 9.822e+03 3.355e-10
 23.40066    -39.1 9.823e+03 3.216e-10
 23.43372    -36.8 9.701e+03 3.018e-10
 23.45440    -36.6 9.750e+03 3.158e-10
 23.48350    -34.3 9.709e+03 3.068e-10
 23.52487    -32.1 9.622e+03 2.925e-10
 23.55749    -29.8 9.477e+03 2.703e-10
 23.57817    -29.6 9.833e+03 3.325e-10
 23.59631    -27.3 9.714e+03 3.205e-10
 23.60655    -27.8 9.782e+03 3.609e-10
 23.61776    -27.2 9.770e+03 3.593e-10
 23.62952    -25.9 9.860e+03 3.719e-10
 23.63986    -26.4 1.017e+04 4.164e-10
 23.65914    -26.2 1.033e+04 4.730e-10
 23.67982    -25.8 1.054e+04 5.844e-10
 23.69140    -25.4 1.070e+04 7.166e-10
 23.70175    -25.5 1.099e+04 1.009e-09
 23.72119    -24.3 1.124e+04 1.200e-09
 23.74188    -23.0 1.147e+04 1.348e-09
 23.75329    -21.6 1.156e+04 1.392e-09
 23.76363    -21.4 1.166e+04 1.535e-09
 23.78325    -20.4 1.167e+04 1.407e-09
 23.80493    -19.8 1.159e+04 1.266e-09
 23.82571    -20.3 1.131e+04 1.118e-09
 23.84541    -19.0 1.078e+04 8.584e-10
 23.86600    -18.4 1.062e+04 7.927e-10
 23.87706    -16.8 1.038e+04 6.429e-10
 23.88740    -17.0 1.029e+04 6.307e-10
 23.90737    -16.4 1.023e+04 5.833e-10
 23.92805    -15.5 1.015e+04 5.388e-10
 23.93894    -14.7 1.007e+04 5.211e-10
 23.94929    -14.5 1.004e+04 5.210e-10
 23.97987    -12.9 1.000e+04 5.019e-10
 24.01677    -11.3 1.010e+04 5.816e-10
 24.03745    -12.8 1.037e+04 7.515e-10
 24.05256    -11.1 1.046e+04 8.477e-10
 24.07315    -10.0 1.024e+04 6.460e-10
 24.10398     -9.1 1.009e+04 5.980e-10
 24.14545     -7.4 9.914e+03 5.485e-10
 24.17633     -5.7 9.613e+03 4.511e-10
 24.19702     -5.7 9.236e+03 3.917e-10
 24.22820     -3.9 9.039e+03 3.336e-10
 24.26957     -2.2 8.856e+03 2.912e-10
 24.30010     -0.4 8.689e+03 2.718e-10
 24.32079      0.7 8.893e+03 2.984e-10
 24.35231      2.7 8.813e+03 2.865e-10
 24.39368      4.7 8.750e+03 2.745e-10
 24.42387      6.8 8.754e+03 2.593e-10
 24.44456      7.3 8.766e+03 2.612e-10
 24.45791      9.4 8.766e+03 2.610e-10
 24.47859      8.3 8.547e+03 2.025e-10
 24.51780     10.1 8.678e+03 2.026e-10
 24.54764     11.6 8.655e+03 2.335e-10
 24.56833     12.3 8.461e+03 2.051e-10
 24.60054     14.6 8.433e+03 2.296e-10
 24.64192     16.8 8.468e+03 2.265e-10
 24.67141     19.0 8.437e+03 2.090e-10
 24.69210     19.6 8.306e+03 1.723e-10
 24.72466     21.4 8.331e+03 1.750e-10
 24.76603     23.3 8.392e+03 1.855e-10
 24.79518     25.2 8.497e+03 2.026e-10
 24.81587     26.1 8.400e+03 1.791e-10
 24.84878     28.4 8.458e+03 1.902e-10
 24.87837     30.8 8.486e+03 1.889e-10
 24.89905     30.0 8.397e+03 1.737e-10
 24.91895     32.3 8.410e+03 1.543e-10
 24.93964     33.4 8.312e+03 1.039e-10
 24.97289     35.4 8.386e+03 8.755e-11
 25.01426     37.5 8.395e+03 8.733e-11
 25.04272     39.4 8.432e+03 9.357e-11
 25.06341     40.0 8.310e+03 6.700e-11
 25.09701     42.0 8.399e+03 8.427e-11
 25.13838     44.3 8.814e+03 1.338e-10
 25.16649     46.0 9.326e+03 2.101e-10
 25.18718     47.0 9.050e+03 1.817e-10
 25.21068     46.5 9.641e+03 2.783e-10
 25.22818     45.5 1.050e+04 5.448e-10
 25.23852     46.6 1.030e+04 4.347e-10
 25.25196     45.7 1.131e+04 9.246e-10
 25.27264     45.7 1.218e+04 1.814e-09
 25.29007     46.4 1.278e+04 2.830e-09
 25.30041     46.4 1.263e+04 2.378e-09
 25.30897     47.3 1.298e+04 3.087e-09
 25.31931     46.6 1.348e+04 3.813e-09
 25.33470     47.7 1.352e+04 3.307e-09
 25.35195     47.8 1.322e+04 2.343e-09
 25.36229     47.9 1.342e+04 2.817e-09
 25.38651     46.5 1.300e+04 1.113e-09
 25.41403     44.5 1.210e+04 3.621e-10
 25.43472     45.7 1.280e+04 6.808e-10
 25.46936     44.0 1.143e+04 3.482e-10
 25.51073     43.3 1.064e+04 3.113e-10
 25.53780     43.3 1.053e+04 3.735e-10
 25.55849     44.9 1.140e+04 6.979e-10
 25.59347     44.9 1.112e+04 7.050e-10
 25.63484     45.2 1.070e+04 6.473e-10
 25.66157     46.2 1.023e+04 4.773e-10
 25.68226     47.4 1.061e+04 6.754e-10
 25.71759     48.5 9.944e+03 3.595e-10
 25.73997     49.0 9.538e+03 1.865e-10
 25.76065     47.9 9.671e+03 2.479e-10
 25.78534     48.7 9.385e+03 1.673e-10
 25.80603     49.8 9.481e+03 1.849e-10
 25.84170     50.9 9.305e+03 1.533e-10
 25.88308     52.5 9.222e+03 1.452e-10
 25.90911     54.2 9.187e+03 1.419e-10
 25.92979     55.6 9.386e+03 1.871e-10
 25.96582     57.3 9.379e+03 1.805e-10
 26.00719     58.9 9.357e+03 1.755e-10
 26.03288     60.6 9.355e+03 1.757e-10
 26.05356     61.7 9.520e+03 2.261e-10
 26.08994     63.2 9.548e+03 2.345e-10
 26.13131     64.6 9.726e+03 2.729e-10
 26.15665     65.8 9.986e+03 3.271e-10
 26.16508     66.1 1.012e+04 3.998e-10
 26.17067     65.3 1.009e+04 3.779e-10
 26.18283     65.5 1.019e+04 4.012e-10
 26.20351     66.0 1.029e+04 4.441e-10
 26.21834     66.4 1.041e+04 4.984e-10
 26.22868     66.7 1.062e+04 6.114e-10
 26.24488     67.2 1.072e+04 6.673e-10
 26.26557     67.7 1.077e+04 6.939e-10
 26.28022     68.1 1.080e+04 7.005e-10
 26.29057     68.1 1.083e+04 7.431e-10
 26.30694     68.6 1.077e+04 7.000e-10
 26.32763     68.9 1.075e+04 6.395e-10
 26.34211     69.0 1.074e+04 5.759e-10
 26.35245     69.0 1.057e+04 5.282e-10
 26.36900     68.8 1.057e+04 4.936e-10
 26.38080     68.6 1.063e+04 5.055e-10
 26.39114     67.6 1.130e+04 7.387e-10
 26.40399     66.7 1.182e+04 9.674e-10
 26.41434     66.6 1.169e+04 9.184e-10
 26.43106     65.8 1.225e+04 1.350e-09
 26.45174     65.3 1.291e+04 2.157e-09
 26.46588     64.9 1.383e+04 3.613e-09
 26.47622     65.1 1.354e+04 3.213e-09
 26.49312     65.1 1.466e+04 5.298e-09
 26.51380     65.3 1.572e+04 7.524e-09
 26.52776     65.2 1.609e+04 8.238e-09
 26.53810     65.3 1.525e+04 5.679e-09
 26.55517     65.1 1.515e+04 5.361e-09
 26.57586     64.7 1.474e+04 4.059e-09
 26.58965     63.5 1.432e+04 2.702e-09
 26.59447     62.5 1.364e+04 2.286e-09
 26.60137     61.0 1.397e+04 2.728e-09
 26.61723     59.6 1.349e+04 2.236e-09
 26.63792     58.4 1.297e+04 1.951e-09
 26.65153     58.3 1.253e+04 1.747e-09
 26.66187     58.6 1.242e+04 1.680e-09
 26.67929     58.4 1.219e+04 1.517e-09
 26.69998     58.4 1.181e+04 1.271e-09
 26.71342     58.4 1.174e+04 1.226e-09
 26.72376     58.6 1.171e+04 1.204e-09
 26.75179     58.6 1.122e+04 9.190e-10
 26.77550     58.9 1.073e+04 6.657e-10
 26.79618     58.0 1.087e+04 7.660e-10
 26.83463     57.9 1.061e+04 6.638e-10
 26.87600     58.1 1.040e+04 6.046e-10
 26.89927     58.7 1.018e+04 5.555e-10
 26.91995     57.7 1.015e+04 5.808e-10
 26.95875     58.7 9.810e+03 4.564e-10
 27.00012     59.7 9.496e+03 3.558e-10
 27.02203     60.7 9.273e+03 2.814e-10
 27.02426     60.4 9.507e+03 3.451e-10
 27.04372     59.6 9.078e+03 1.839e-10
 27.08286     60.5 8.931e+03 1.618e-10
 27.12423     61.8 8.946e+03 1.659e-10
 27.14681     62.6 9.080e+03 1.949e-10
 27.16749     62.1 8.850e+03 1.386e-10
 27.20698     62.6 9.211e+03 2.226e-10
 27.24835     62.8 9.737e+03 3.808e-10
 27.27057     62.7 1.016e+04 5.295e-10
 27.29126     62.1 9.897e+03 4.739e-10
 27.33109     61.9 1.018e+04 5.595e-10
 27.37247     61.8 1.015e+04 5.302e-10
 27.39434     61.7 1.003e+04 4.338e-10
 27.41503     61.8 1.027e+04 5.687e-10
 27.44248     62.0 1.019e+04 5.004e-10
 27.46317     61.3 1.019e+04 4.970e-10
 27.49658     61.8 1.012e+04 4.534e-10
 27.51811     62.5 1.014e+04 4.433e-10
 27.53880     62.8 9.875e+03 3.503e-10
 27.57933     63.5 9.788e+03 3.063e-10
 27.62070     64.3 9.674e+03 2.538e-10
 27.64188     65.1 9.532e+03 1.954e-10
 27.66257     65.3 9.310e+03 1.387e-10
 27.70344     66.4 9.229e+03 1.108e-10
 27.74481     67.6 9.211e+03 8.146e-11
 27.78619     69.5 9.218e+03 4.404e-11
 27.82756     70.3 9.351e+03 3.186e-11
 27.86294     70.9 9.345e+03 3.105e-11
 27.88343     71.1 9.233e+03 2.666e-11
 27.91011     72.7 9.206e+03 2.337e-11
 27.95167     73.6 9.170e+03 3.130e-11
 27.99251     74.8 9.126e+03 4.540e-11
 28.01319     75.8 9.121e+03 3.917e-11
 28.03442     77.3 9.170e+03 5.360e-11
 28.07579     78.6 9.285e+03 6.428e-11
 28.11628     79.7 9.414e+03 6.946e-11
 28.13696     80.7 9.396e+03 7.275e-11
 28.15853     81.6 9.521e+03 8.068e-11
 28.19991     82.3 9.638e+03 9.209e-11
 28.24005     83.0 9.743e+03 1.110e-10
 28.26073     83.9 9.796e+03 1.292e-10
 28.28265     84.8 9.911e+03 1.536e-10
 28.30408     85.6 1.003e+04 1.619e-10
 28.32477     86.1 9.972e+03 1.471e-10
 28.36382     86.9 9.984e+03 1.470e-10
 28.38450     87.6 1.006e+04 1.629e-10
 28.40677     88.3 1.005e+04 1.589e-10
 28.44814     89.0 1.002e+04 1.475e-10
 28.48759     89.8 9.976e+03 1.401e-10
 28.50827     90.5 1.004e+04 1.690e-10
 28.53088     91.4 1.002e+04 1.696e-10
 28.57225     92.4 1.001e+04 1.768e-10
 28.61135     93.5 1.001e+04 1.977e-10
 28.63204     94.4 1.007e+04 2.192e-10
 28.65500     95.7 1.007e+04 2.316e-10
 28.69637     96.9 1.005e+04 2.335e-10
 28.72454     98.1 9.997e+03 2.288e-10
 28.74261     98.7 1.017e+04 2.710e-10
 28.75581     99.7 1.023e+04 2.928e-10
 28.77911    100.8 1.011e+04 2.705e-10
 28.82049    102.1 9.959e+03 2.502e-10
 28.85889    103.6 9.855e+03 2.392e-10
 28.87958    104.5 9.935e+03 2.750e-10
 28.90323    106.1 9.918e+03 2.815e-10
 28.94460    107.8 9.953e+03 2.810e-10
 28.98266    109.4 9.962e+03 2.736e-10
 29.00335    110.3 1.018e+04 3.187e-10
 29.02735    111.9 1.012e+04 2.821e-10
 29.06872    113.4 9.973e+03 2.286e-10
 29.10643    114.9 9.848e+03 2.003e-10
 29.12712    115.6 9.905e+03 1.953e-10
 29.14500    117.1 9.900e+03 1.877e-10
 29.16568    116.6 9.962e+03 2.108e-10
 29.19283    117.9 1.001e+04 2.216e-10
 29.23020    119.1 1.017e+04 2.552e-10
 29.25089    119.8 1.010e+04 1.884e-10
 29.27558    120.8 1.018e+04 1.981e-10
 29.31695    121.6 1.019e+04 1.976e-10
 29.35397    122.3 1.016e+04 1.905e-10
 29.37466    122.9 1.005e+04 1.265e-10
 29.39969    123.5 9.969e+03 1.247e-10
 29.44107    124.2 9.919e+03 1.261e-10
 29.47774    124.9 9.861e+03 1.350e-10
 29.49843    125.4 9.852e+03 1.101e-10
 29.52381    126.2 9.861e+03 1.333e-10
 29.56518    127.0 9.917e+03 1.624e-10
 29.58614    127.8 1.003e+04 1.866e-10
 29.60179    127.3 1.000e+04 1.785e-10
 29.62220    127.6 1.005e+04 1.854e-10
 29.64793    128.2 1.020e+04 2.034e-10
 29.68930    128.7 1.022e+04 2.019e-10
 29.72528    129.1 1.020e+04 1.891e-10
 29.74597    129.3 1.030e+04 2.186e-10
 29.77204    129.7 1.022e+04 1.851e-10
 29.81341    130.2 1.012e+04 1.370e-10
 29.84905    130.6 1.001e+04 9.469e-11
 29.86974    130.7 1.009e+04 1.210e-10
 29.89616    131.1 9.912e+03 8.581e-11
 29.93753    131.8 9.641e+03 7.834e-11
 29.97282    132.9 9.623e+03 7.898e-11
 29.99351    133.2 9.641e+03 8.674e-11
 30.00660    134.6 9.618e+03 8.892e-11
 30.02729    135.0 9.582e+03 8.169e-11
 30.06164    136.6 9.590e+03 9.462e-11
 30.09659    138.3 9.631e+03 1.106e-10
 30.11728    138.7 9.667e+03 1.066e-10
 30.14439    140.3 9.703e+03 1.150e-10
 30.18576    141.8 9.700e+03 1.179e-10
 30.22036    143.4 9.691e+03 1.181e-10
 30.24105    143.7 9.697e+03 1.104e-10
 30.26850    145.4 9.653e+03 1.138e-10
 30.30988    147.1 9.622e+03 1.205e-10
 30.34413    149.0 9.594e+03 1.312e-10
 30.36482    149.5 9.609e+03 1.353e-10
 30.39262    151.5 9.631e+03 1.557e-10
 30.42706    153.6 9.691e+03 1.780e-10
 30.44774    153.8 9.719e+03 1.689e-10
 30.46790    155.9 9.786e+03 1.951e-10
 30.48858    156.5 9.823e+03 2.003e-10
 30.51674    158.5 9.895e+03 2.189e-10
 30.55811    160.5 9.952e+03 2.293e-10
 30.59167    162.4 9.997e+03 2.339e-10
 30.61235    162.8 1.000e+04 2.306e-10
 30.64085    164.6 1.004e+04 2.321e-10
 30.68222    166.3 1.008e+04 2.330e-10
 30.71544    167.9 1.011e+04 2.330e-10
 30.73612    168.3 1.010e+04 2.154e-10
 30.76497    169.9 1.008e+04 2.076e-10
 30.80634    171.5 1.005e+04 2.011e-10
 30.83921    173.2 1.004e+04 2.002e-10
 30.85970    173.8 9.998e+03 1.803e-10
 30.86820    173.7 1.000e+04 1.735e-10
 30.88908    175.5 1.001e+04 1.785e-10
 30.93046    177.2 1.005e+04 1.976e-10
 30.96298    178.9 1.019e+04 2.388e-10
 30.98366    179.6 1.026e+04 2.627e-10
 31.01320    181.3 1.055e+04 3.349e-10
 31.05457    182.7 1.089e+04 4.133e-10
 31.08675    183.6 1.120e+04 4.730e-10
 31.10734    184.1 1.128e+04 5.101e-10
 31.12678    184.6 1.143e+04 5.368e-10
 31.14746    185.1 1.159e+04 5.465e-10
 31.15878    185.4 1.164e+04 5.443e-10
 31.16912    185.9 1.176e+04 6.178e-10
 31.18884    186.1 1.180e+04 6.039e-10
 31.20952    186.3 1.180e+04 5.693e-10
 31.22066    186.6 1.175e+04 5.237e-10
 31.23101    186.9 1.184e+04 5.602e-10
 31.25089    187.2 1.176e+04 4.995e-10
 31.27158    187.4 1.165e+04 4.555e-10
 31.28255    187.5 1.153e+04 4.464e-10
 31.28909    187.8 1.159e+04 4.334e-10
 31.29881    187.5 1.153e+04 4.391e-10
 31.31295    187.5 1.151e+04 4.563e-10
 31.33364    187.4 1.152e+04 5.010e-10
 31.34443    187.2 1.159e+04 5.772e-10
 31.35478    187.5 1.159e+04 5.116e-10
 31.37501    187.2 1.170e+04 5.919e-10
 31.39570    186.9 1.183e+04 6.814e-10
 31.40632    186.5 1.192e+04 7.372e-10
 31.41666    186.7 1.180e+04 6.276e-10
 31.43707    186.2 1.179e+04 6.300e-10
 31.45775    185.7 1.172e+04 6.260e-10
 31.46820    185.4 1.163e+04 6.234e-10
 31.47855    185.7 1.156e+04 5.395e-10
 31.49869    185.5 1.156e+04 5.438e-10
 31.50903    185.3 1.185e+04 7.665e-10
 31.51975    184.9 1.193e+04 8.349e-10
 31.54043    184.3 1.215e+04 9.016e-10
 31.56118    183.6 1.259e+04 1.223e-09
 31.58163    183.0 1.317e+04 1.769e-09
 31.59197    182.8 1.333e+04 1.771e-09
 31.60256    182.3 1.396e+04 2.540e-09
 31.62324    181.7 1.441e+04 3.187e-09
 31.64352    180.7 1.453e+04 3.288e-09
 31.65386    180.4 1.446e+04 3.130e-09
 31.66461    179.3 1.435e+04 2.936e-09
 31.68530    178.1 1.398e+04 2.453e-09
 31.70540    177.0 1.360e+04 2.059e-09
 31.71877    176.2 1.328e+04 1.636e-09
 31.72980    174.6 1.324e+04 1.698e-09
 31.75790    171.6 1.285e+04 1.513e-09
 31.79927    169.5 1.254e+04 1.386e-09
 31.82936    168.7 1.225e+04 1.211e-09
 31.85005    168.6 1.219e+04 1.186e-09
 31.88201    168.5 1.180e+04 9.373e-10
 31.92338    168.2 1.124e+04 6.457e-10
 31.95304    167.9 1.091e+04 5.167e-10
 31.96328    168.3 1.094e+04 5.331e-10
 31.97490    168.1 1.077e+04 4.657e-10
 31.99559    167.7 1.065e+04 4.347e-10
 32.01482    167.6 1.064e+04 4.345e-10
 32.02517    168.0 1.068e+04 4.488e-10
 32.03696    168.0 1.068e+04 4.554e-10
 32.05765    168.0 1.072e+04 4.856e-10
 32.07671    168.1 1.080e+04 5.386e-10
 32.08705    168.6 1.080e+04 5.381e-10
 32.09902    168.7 1.087e+04 5.953e-10
 32.11971    168.9 1.088e+04 6.413e-10
 32.13859    169.2 1.085e+04 6.487e-10
 32.14827    169.7 1.085e+04 6.457e-10
 32.15016    169.8 1.050e+04 4.467e-10
 32.17162    170.4 1.052e+04 4.823e-10
 32.20067    170.9 1.046e+04 4.648e-10
 32.21092    171.5 1.053e+04 4.944e-10
 32.22314    171.6 1.052e+04 5.026e-10
 32.24382    171.9 1.047e+04 4.941e-10
 32.26236    172.2 1.045e+04 4.910e-10
 32.27271    173.0 1.058e+04 5.648e-10
 32.28519    173.5 1.060e+04 5.832e-10
 32.30588    174.0 1.064e+04 6.043e-10
 32.32425    174.5 1.072e+04 6.290e-10
 32.33459    175.0 1.100e+04 7.583e-10
 32.34725    174.8 1.138e+04 8.713e-10
 32.36029    173.8 1.233e+04 1.200e-09
 32.37064    175.7 1.142e+04 9.135e-10
 32.38613    174.2 1.272e+04 1.356e-09
 32.39648    173.1 1.412e+04 2.137e-09
 32.40931    170.6 1.592e+04 4.580e-09
 32.43000    169.2 1.718e+04 9.115e-09
 32.44802    168.5 1.818e+04 1.531e-08
 32.45836    168.1 1.919e+04 2.122e-08
 32.47137    167.6 1.952e+04 2.111e-08
 32.49205    166.8 1.956e+04 1.802e-08
 32.50990    165.4 1.950e+04 1.174e-08
 32.52025    163.6 1.908e+04 7.152e-09
 32.53343    159.9 1.718e+04 3.279e-09
 32.55411    155.8 1.390e+04 1.911e-09
 32.57052    153.9 1.248e+04 1.712e-09
 32.57785    155.9 1.349e+04 1.932e-09
 32.58213    154.9 1.264e+04 1.793e-09
 32.59548    154.7 1.257e+04 1.765e-09
 32.61617    154.7 1.253e+04 1.739e-09
 32.63367    154.7 1.248e+04 1.700e-09
 32.64402    155.0 1.250e+04 1.661e-09
 32.66798    155.3 1.241e+04 1.581e-09
 32.69575    155.2 1.185e+04 1.144e-09
 32.71644    155.5 1.151e+04 8.770e-10
 32.75082    155.7 1.071e+04 5.002e-10
 32.79220    156.0 1.000e+04 2.635e-10
 32.81952    156.3 9.485e+03 1.377e-10
 32.84021    156.7 9.470e+03 1.218e-10
 32.87494    157.5 9.153e+03 9.884e-11
 32.91631    158.8 9.101e+03 9.801e-11
 32.94329    160.5 9.097e+03 9.835e-11
 32.96398    161.4 9.126e+03 1.003e-10
 32.99117    163.2 9.128e+03 1.032e-10
 33.01186    163.3 9.251e+03 1.283e-10
 33.04043    165.0 9.313e+03 1.429e-10
 33.06706    166.6 9.495e+03 1.760e-10
 33.08775    167.6 9.605e+03 1.960e-10
 33.12317    169.3 9.986e+03 2.690e-10
 33.16454    170.6 1.039e+04 3.700e-10
 33.19083    171.1 1.059e+04 4.633e-10
 33.20108    171.3 1.062e+04 4.831e-10
 33.21155    171.7 1.077e+04 5.814e-10
 33.22189    171.6 1.079e+04 5.797e-10
 33.23675    172.2 1.110e+04 7.775e-10
 33.25252    173.0 1.152e+04 1.038e-09
 33.26286    173.4 1.186e+04 1.231e-09
 33.27812    173.8 1.235e+04 1.563e-09
 33.29881    174.0 1.277e+04 1.845e-09
 33.31440    173.9 1.308e+04 1.957e-09
 33.32475    174.0 1.325e+04 2.111e-09
 33.34018    173.8 1.339e+04 2.125e-09
 33.36086    173.4 1.338e+04 2.045e-09
 33.37629    172.9 1.328e+04 1.776e-09
 33.38663    172.9 1.339e+04 1.888e-09
 33.40224    172.2 1.320e+04 1.552e-09
 33.42178    171.1 1.291e+04 1.217e-09
 33.43212    170.7 1.244e+04 1.021e-09
 33.43817    169.5 1.231e+04 9.980e-10
 33.44852    169.9 1.255e+04 1.168e-09
 33.46429    168.7 1.260e+04 1.211e-09
 33.48498    166.7 1.297e+04 1.468e-09
 33.50006    163.8 1.405e+04 2.310e-09
 33.51040    163.9 1.472e+04 3.147e-09
 33.52635    161.1 1.606e+04 5.680e-09
 33.54704    158.6 1.684e+04 7.698e-09
 33.56194    156.1 1.688e+04 7.564e-09
 33.57229    156.3 1.745e+04 9.495e-09
 33.58841    154.4 1.694e+04 6.989e-09
 33.60910    152.5 1.605e+04 3.230e-09
 33.62383    149.4 1.487e+04 1.018e-09
 33.63417    149.4 1.480e+04 9.069e-10
 33.66091    141.5 1.271e+04 4.400e-10
 33.68591    135.6 1.083e+04 2.379e-10
 33.70660    136.4 1.079e+04 2.439e-10
 33.74375    135.5 1.072e+04 2.109e-10
 33.78512    135.2 1.074e+04 2.046e-10
 33.80968    135.0 1.074e+04 2.047e-10
 33.83036    135.8 1.074e+04 2.063e-10
 33.85277    135.6 1.072e+04 2.163e-10
 33.87346    133.8 1.100e+04 3.376e-10
 33.90924    133.8 1.096e+04 3.789e-10
 33.93345    134.0 1.096e+04 4.188e-10
 33.95413    134.5 1.093e+04 4.179e-10
 33.99198    134.7 1.091e+04 4.453e-10
 34.03335    134.9 1.089e+04 4.504e-10
 34.05722    135.0 1.085e+04 4.395e-10
 34.07790    135.3 1.085e+04 4.403e-10
 34.11610    135.2 1.072e+04 4.043e-10
 34.15747    135.0 1.059e+04 3.927e-10
 34.18099    134.7 1.057e+04 4.056e-10
 34.20167    134.6 1.047e+04 3.919e-10
 34.24021    134.2 1.047e+04 4.596e-10
 34.27323    133.9 1.074e+04 5.930e-10
 34.29392    133.0 1.028e+04 3.844e-10
 34.30476    132.8 1.026e+04 3.353e-10
 34.32544    132.6 9.646e+03 1.853e-10
 34.36433    131.6 9.303e+03 1.313e-10
 34.40570    130.3 8.906e+03 1.172e-10
 34.42853    129.5 8.841e+03 1.167e-10
 34.44921    130.4 8.832e+03 1.168e-10
 34.48845    130.4 8.823e+03 1.216e-10
 34.52982    130.4 8.871e+03 1.409e-10
 34.55230    130.3 9.047e+03 1.826e-10
 34.57298    131.0 9.138e+03 2.089e-10
 34.61256    130.7 9.432e+03 2.993e-10
 34.65393    130.4 9.753e+03 4.091e-10
 34.67607    129.9 1.003e+04 4.881e-10
 34.69513    130.5 1.019e+04 5.736e-10
 34.71438    129.9 1.059e+04 7.233e-10
 34.73668    129.1 1.053e+04 6.613e-10
 34.77805    128.3 1.023e+04 4.912e-10
 34.79984    127.2 9.842e+03 3.499e-10
 34.82052    127.8 9.720e+03 3.210e-10
 34.86079    126.9 9.653e+03 2.989e-10
 34.90217    125.9 9.745e+03 3.095e-10
 34.92361    124.8 1.019e+04 3.738e-10
 34.94429    125.7 9.904e+03 3.288e-10
 34.98491    123.8 1.040e+04 4.338e-10
 35.02628    120.6 1.154e+04 8.129e-10
 35.04737    118.0 1.265e+04 1.725e-09
 35.06806    119.4 1.245e+04 1.634e-09
 35.10903    117.4 1.279e+04 2.014e-09
 35.13483    115.7 1.257e+04 1.746e-09
 35.15552    115.5 1.236e+04 1.480e-09
 35.19177    115.3 1.135e+04 8.045e-10
 35.23314    113.5 1.037e+04 4.477e-10
 35.27423    112.2 9.821e+03 3.452e-10
 35.29491    113.6 9.687e+03 3.296e-10
 35.31589    113.3 9.611e+03 3.186e-10
 35.35726    113.3 9.603e+03 3.108e-10
 35.39800    113.2 9.626e+03 2.906e-10
 35.41868    114.6 9.595e+03 3.035e-10
 35.44000    114.3 9.734e+03 3.137e-10
 35.48137    114.1 9.997e+03 3.603e-10
 35.51231    114.1 1.012e+04 3.985e-10
 35.53192    113.9 1.013e+04 4.154e-10
 35.54226    114.7 1.015e+04 4.400e-10
 35.55358    114.8 1.013e+04 4.751e-10
 35.56544    114.8 1.011e+04 5.035e-10
 35.57578    115.4 9.992e+03 3.903e-10
 35.59380    115.2 9.978e+03 4.091e-10
 35.60414    116.0 1.010e+04 4.758e-10
 35.61564    115.9 1.011e+04 4.999e-10
 35.63632    115.7 1.012e+04 5.285e-10
 35.65568    115.4 1.013e+04 5.548e-10
 35.66603    116.3 1.028e+04 6.079e-10
 35.67770    115.9 1.032e+04 6.295e-10
 35.69838    115.2 1.039e+04 6.539e-10
 35.71757    114.5 1.048e+04 6.812e-10
 35.72791    115.4 1.060e+04 7.310e-10
 35.73975    114.5 1.071e+04 7.630e-10
 35.76044    113.1 1.087e+04 8.175e-10
 35.77567    112.3 1.073e+04 8.327e-10
 35.78434    113.2 1.120e+04 9.999e-10
 35.78980    114.2 1.134e+04 1.067e-09
 35.80181    113.1 1.132e+04 1.107e-09
 35.82250    111.9 1.127e+04 1.097e-09
 35.85362    111.3 1.094e+04 9.510e-10
 35.89308    110.3 1.027e+04 7.091e-10
 35.91376    112.0 1.023e+04 7.044e-10
 35.93647    110.9 9.353e+03 4.247e-10
 35.97575    109.7 8.575e+03 2.665e-10
 35.99643    110.2 9.586e+03 5.164e-10
 36.01685    109.3 8.874e+03 3.760e-10
 36.03753    111.2 8.867e+03 3.610e-10
 36.06058    111.2 8.602e+03 3.336e-10
 36.10195    111.7 8.601e+03 3.405e-10
 36.14062    112.2 8.548e+03 3.453e-10
 36.16130    114.1 8.539e+03 3.358e-10
 36.18470    114.5 8.501e+03 3.355e-10
 36.22607    114.9 8.383e+03 3.180e-10
 36.26439    115.2 8.202e+03 2.865e-10
 36.28507    116.9 8.285e+03 3.031e-10
 36.30881    117.2 8.092e+03 2.706e-10
 36.35019    117.5 7.908e+03 2.413e-10
 36.38815    118.0 7.753e+03 2.171e-10
 36.40884    119.8 7.788e+03 2.231e-10
 36.41689    120.3 7.622e+03 2.006e-10
 36.43758    120.2 7.593e+03 1.979e-10
 36.47430    121.0 7.532e+03 1.921e-10
 36.51192    122.0 7.542e+03 1.943e-10
 36.53261    123.6 7.561e+03 1.965e-10
 36.55705    124.6 7.637e+03 2.072e-10
 36.59842    125.6 7.806e+03 2.310e-10
 36.63569    126.6 8.103e+03 2.722e-10
 36.65638    128.1 8.079e+03 2.692e-10
 36.68116    128.7 8.451e+03 3.245e-10
 36.70782    128.5 8.720e+03 3.714e-10
 36.71807    129.3 8.640e+03 3.608e-10
 36.73268    129.1 9.030e+03 4.215e-10
 36.75337    127.9 9.721e+03 5.661e-10
 36.76961    126.2 1.050e+04 8.472e-10
 36.77995    127.4 1.035e+04 7.440e-10
 36.79474    125.9 1.101e+04 1.138e-09
 36.81542    125.3 1.132e+04 1.475e-09
 36.83150    125.1 1.129e+04 1.496e-09
 36.84184    125.8 1.136e+04 1.547e-09
 36.84750    125.7 1.125e+04 1.464e-09
 36.85784    125.6 1.154e+04 1.598e-09
 36.87748    125.4 1.123e+04 1.251e-09
 36.89338    124.3 1.088e+04 8.386e-10
 36.90372    125.6 1.102e+04 9.600e-10
 36.91885    123.4 1.055e+04 6.409e-10
 36.93954    121.0 9.817e+03 5.066e-10
 36.95527    120.0 9.532e+03 4.995e-10
 36.96561    121.0 9.591e+03 5.172e-10
 36.98091    120.5 9.612e+03 5.343e-10
 37.00160    120.1 9.845e+03 6.135e-10
 37.01715    119.9 1.022e+04 7.401e-10
 37.02749    120.8 1.018e+04 7.289e-10
 37.04297    120.7 1.041e+04 8.095e-10
 37.05772    120.6 1.042e+04 8.049e-10
 37.06807    120.1 1.042e+04 7.921e-10
 37.09478    120.5 1.054e+04 6.989e-10
 37.13077    117.8 1.093e+04 7.639e-10
 37.15136    118.6 1.058e+04 6.677e-10
 37.17753    116.6 1.110e+04 8.824e-10
 37.21900    114.5 1.212e+04 1.605e-09
 37.25454    113.1 1.258e+04 1.833e-09
 37.27267    114.8 1.226e+04 1.703e-09
 37.27849    113.7 1.204e+04 1.579e-09
 37.30174    112.7 1.223e+04 1.570e-09
 37.32667    111.7 1.229e+04 1.501e-09
 37.33692    112.8 1.215e+04 1.467e-09
 37.35326    111.9 1.197e+04 1.277e-09
 37.37395    110.8 1.143e+04 1.034e-09
 37.38846    110.0 1.096e+04 8.616e-10
 37.39880    111.0 1.099e+04 8.661e-10
 37.41532    110.3 1.066e+04 7.644e-10
 37.43600    110.1 1.048e+04 6.949e-10
 37.45034    110.0 1.042e+04 6.337e-10
 37.46069    110.8 1.037e+04 6.539e-10
 37.47738    110.7 1.042e+04 6.053e-10
 37.48853    110.3 1.059e+04 6.060e-10
 37.49887    110.0 1.095e+04 7.120e-10
 37.51223    108.7 1.143e+04 7.714e-10
 37.52257    109.7 1.134e+04 7.520e-10
 37.53943    107.8 1.185e+04 9.139e-10
 37.56012    106.2 1.213e+04 1.213e-09
 37.57411    105.5 1.235e+04 1.609e-09
 37.58446    105.7 1.237e+04 1.599e-09
 37.60149    105.6 1.232e+04 1.766e-09
 37.62218    105.8 1.219e+04 1.703e-09
 37.63600    105.6 1.196e+04 1.417e-09
 37.64634    105.8 1.200e+04 1.453e-09
 37.66355    104.4 1.218e+04 1.163e-09
 37.68424    101.6 1.215e+04 9.739e-10
 37.69788     99.0 1.173e+04 9.153e-10
 37.70206     99.4 1.172e+04 9.035e-10
 37.70910     98.1 1.206e+04 1.309e-09
 37.72561     97.3 1.154e+04 1.190e-09
 37.74629     97.2 1.117e+04 1.045e-09
 37.75977     96.4 1.101e+04 8.885e-10
 37.77011     96.9 1.084e+04 7.894e-10
 37.79811     96.7 1.009e+04 4.778e-10
 37.83958     95.8 9.454e+03 2.963e-10
 37.87339     95.0 9.069e+03 2.436e-10
 37.89408     96.9 9.064e+03 2.447e-10
 37.92232     97.1 8.979e+03 2.415e-10
 37.96369     97.8 8.899e+03 2.291e-10
 37.99716     98.7 8.827e+03 2.009e-10
 38.01785    100.5 8.926e+03 2.251e-10
 38.04644    101.1 8.920e+03 2.054e-10
 38.08781    101.8 8.863e+03 2.024e-10
 38.11941    102.9 8.876e+03 2.095e-10
 38.13184    103.5 8.712e+03 1.912e-10
 38.14162    105.0 8.901e+03 2.291e-10
 38.17055    106.4 8.920e+03 2.291e-10
 38.21192    107.8 8.983e+03 2.281e-10
 38.24470    109.0 9.120e+03 2.328e-10
 38.26539    110.4 9.325e+03 2.631e-10
 38.29467    111.0 9.640e+03 2.870e-10
 38.33604    111.0 1.004e+04 3.550e-10
 38.36697    111.8 1.017e+04 4.566e-10
 38.37862    112.3 1.028e+04 5.407e-10
 38.38896    113.0 1.028e+04 5.364e-10
 38.40825    113.7 1.043e+04 5.561e-10
 38.42893    114.0 1.045e+04 5.482e-10
 38.44050    114.0 1.061e+04 5.224e-10
 38.45084    114.6 1.055e+04 5.025e-10
 38.47030    113.9 1.080e+04 5.187e-10
 38.49099    112.5 1.129e+04 5.830e-10
 38.50239    110.8 1.164e+04 7.309e-10
 38.51273    111.1 1.187e+04 7.919e-10
 38.53236    110.2 1.212e+04 1.133e-09
 38.54783    109.7 1.257e+04 1.520e-09
 38.55509    107.6 1.481e+04 1.933e-09
 38.56026     99.9 2.162e+04 4.674e-09
 38.56417     92.2 2.589e+04 1.106e-08
 38.56934     91.8 2.607e+04 1.359e-08
 38.57881     89.4 2.506e+04 2.314e-08
 38.58915     87.6 2.391e+04 3.512e-08
 38.59512     85.5 2.387e+04 4.179e-08
 38.60029     84.5 2.474e+04 5.005e-08
 38.60984     81.5 2.514e+04 5.104e-08
 38.62018     79.2 2.597e+04 4.287e-08
 38.62606     76.9 2.631e+04 2.930e-08
 38.63123     75.6 2.628e+04 2.933e-08
 38.64087     69.9 2.247e+04 1.847e-08
 38.65121     63.9 1.707e+04 1.138e-08
 38.65700     61.9 1.553e+04 8.598e-09
 38.66082     61.7 1.564e+04 9.305e-09
 38.66537     61.7 1.639e+04 8.019e-09
 38.67189     61.7 1.614e+04 7.781e-09
 38.68224     62.1 1.597e+04 7.346e-09
 38.68794     62.2 1.581e+04 6.837e-09
 38.69311     61.8 1.594e+04 7.270e-09
 38.70292     62.0 1.599e+04 6.988e-09
 38.71327     61.7 1.584e+04 6.633e-09
 38.71889     61.7 1.614e+04 6.797e-09
 38.72406     61.0 1.646e+04 7.712e-09
 38.73395     60.5 1.652e+04 7.936e-09
 38.74430     60.2 1.649e+04 8.260e-09
 38.74983     60.1 1.635e+04 8.591e-09
 38.75500     59.7 1.679e+04 1.012e-08
 38.76498     59.6 1.679e+04 1.084e-08
 38.77053     60.1 1.762e+04 1.150e-08
 38.77571     60.1 1.739e+04 1.487e-08
 38.78077     60.3 1.741e+04 1.627e-08
 38.78594     60.5 1.797e+04 1.978e-08
 38.79601     61.1 1.837e+04 2.137e-08
 38.80635     61.2 1.842e+04 2.144e-08
 38.81176     62.6 1.898e+04 2.315e-08
 38.82215     62.2 1.988e+04 2.425e-08
 38.84265     62.7 1.943e+04 1.999e-08
 38.86334     63.7 1.955e+04 1.290e-08
 38.88402     62.4 1.941e+04 4.957e-09
 38.90471     61.2 1.821e+04 2.652e-09
 38.92524     59.6 1.657e+04 1.607e-09
 38.93558     57.3 1.493e+04 1.377e-09
 38.94608     56.8 1.357e+04 1.074e-09
 38.96677     57.4 1.273e+04 9.301e-10
 38.98081     58.3 1.226e+04 8.442e-10
 38.99082     58.1 1.477e+04 1.694e-09
 38.99746     57.4 1.299e+04 1.420e-09
 39.00814     58.3 1.225e+04 1.200e-09
 39.02883     59.5 1.172e+04 1.036e-09
 39.04901     60.4 1.139e+04 9.274e-10
 39.05935     60.5 1.117e+04 8.367e-10
 39.07020     61.7 1.148e+04 8.342e-10
 39.09088     62.3 1.116e+04 7.781e-10
 39.11089     64.4 1.109e+04 7.746e-10
 39.12123     64.5 1.098e+04 7.077e-10
 39.13226     65.5 1.098e+04 6.970e-10
 39.15294     66.9 1.119e+04 7.215e-10
 39.17278     67.7 1.105e+04 6.815e-10
 39.18312     67.8 1.097e+04 6.278e-10
 39.19104     69.0 1.084e+04 5.942e-10
 39.20138     68.8 1.022e+04 4.438e-10
 39.21500     70.1 1.016e+04 4.570e-10
 39.23466     71.0 1.027e+04 5.192e-10
 39.24500     70.9 1.030e+04 4.881e-10
 39.25637     71.6 1.037e+04 5.723e-10
 39.27706     72.5 1.051e+04 7.461e-10
 39.29655     73.3 1.070e+04 8.117e-10
 39.30689     73.3 1.074e+04 8.014e-10
 39.32887     75.9 1.117e+04 1.144e-09
 39.35863     78.8 1.151e+04 1.291e-09
 39.37931     78.5 1.152e+04 1.288e-09
 39.40147     80.5 1.180e+04 1.325e-09
 39.42215     79.4 1.240e+04 1.422e-09
 39.45308     81.7 1.250e+04 1.781e-09
 39.48240     83.4 1.250e+04 1.783e-09
 39.50308     82.5 1.244e+04 1.634e-09
 39.53583     83.8 1.237e+04 1.669e-09
 39.57720     85.1 1.231e+04 1.838e-09
 39.60616     86.7 1.238e+04 2.068e-09
 39.62685     85.9 1.231e+04 1.819e-09
 39.65994     87.3 1.268e+04 2.021e-09
 39.70132     88.1 1.300e+04 2.157e-09
 39.72984     87.7 1.342e+04 2.038e-09
 39.75052     86.8 1.333e+04 1.775e-09
 39.78406     87.2 1.322e+04 1.672e-09
 39.82192     87.6 1.252e+04 1.295e-09
 39.84251     85.4 1.144e+04 7.542e-10
 39.85361     85.1 1.123e+04 6.050e-10
 39.87439     83.4 1.090e+04 4.951e-10
 39.90818     82.8 1.047e+04 4.233e-10
 39.94955     82.9 1.008e+04 4.102e-10
 39.97747     83.5 9.989e+03 4.075e-10
 39.99816     82.3 9.901e+03 3.446e-10
 40.03229     83.1 9.915e+03 3.400e-10
 40.07366     83.3 1.011e+04 3.703e-10
 40.10124     83.3 1.036e+04 4.256e-10
 40.12193     81.6 1.041e+04 4.334e-10
 40.15641     81.5 1.058e+04 4.769e-10
 40.19778     81.8 1.051e+04 4.311e-10
 40.22501     82.3 1.037e+04 3.201e-10
 40.24570     80.2 1.037e+04 2.694e-10
 40.26307     79.4 1.027e+04 1.832e-10
 40.28375     78.6 1.002e+04 1.504e-10
 40.32190     78.3 9.849e+03 1.314e-10
 40.34878     78.4 9.901e+03 1.359e-10
 40.36947     76.9 9.890e+03 1.383e-10
 40.40464     76.8 1.011e+04 1.789e-10
 40.44601     76.9 1.024e+04 2.723e-10
 40.47255     77.2 1.036e+04 3.498e-10
 40.49324     76.6 1.028e+04 3.410e-10
 40.51831     75.9 1.060e+04 4.218e-10
 40.53424     75.9 1.063e+04 4.323e-10
 40.54458     75.6 1.061e+04 4.326e-10
 40.55959     74.3 1.095e+04 6.442e-10
 40.58027     74.4 1.093e+04 6.860e-10
 40.59613     73.7 1.114e+04 8.561e-10
 40.60647     73.5 1.109e+04 8.409e-10
 40.62165     73.4 1.119e+04 9.403e-10
 40.64233     73.0 1.128e+04 9.680e-10
 40.65801     72.4 1.126e+04 9.511e-10
 40.66835     72.1 1.131e+04 9.604e-10
 40.68333     70.9 1.134e+04 9.409e-10
 40.69367     70.5 1.203e+04 1.298e-09
 40.70439     68.7 1.197e+04 1.252e-09
 40.71990     66.8 1.179e+04 1.206e-09
 40.73024     66.5 1.180e+04 1.220e-09
 40.74576     65.2 1.144e+04 1.105e-09
 40.76645     64.1 1.107e+04 9.676e-10
 40.78178     63.2 1.072e+04 8.393e-10
 40.79212     63.1 1.063e+04 8.011e-10
 40.80782     61.9 1.060e+04 6.836e-10
 40.82851     60.3 1.067e+04 6.300e-10
 40.84367     58.7 1.053e+04 6.237e-10
 40.85401     58.6 1.055e+04 6.251e-10
 40.86988     57.5 1.031e+04 6.258e-10
 40.89056     57.1 1.013e+04 6.448e-10
 40.90390     57.1 1.023e+04 6.469e-10
 40.90854     56.9 9.891e+03 4.831e-10
 40.91589     57.1 1.000e+04 5.067e-10
 40.93194     56.7 1.016e+04 4.221e-10
 40.95262     56.4 1.004e+04 3.879e-10
 40.96744     55.6 9.974e+03 3.346e-10
 40.97778     55.7 1.004e+04 3.565e-10
 40.99399     55.3 9.910e+03 3.393e-10
 41.01468     55.0 9.932e+03 3.414e-10
 41.02932     54.9 9.931e+03 3.406e-10
 41.03966     55.0 9.978e+03 3.513e-10
 41.06649     55.2 9.974e+03 3.655e-10
 41.09140     55.6 9.898e+03 3.714e-10
 41.10810     56.3 1.023e+04 4.783e-10
 41.12467     56.3 9.793e+03 3.265e-10
 41.14933     56.8 9.701e+03 2.856e-10
 41.19071     56.8 9.760e+03 2.308e-10
 41.21517     56.5 9.720e+03 2.400e-10
 41.23586     56.5 9.871e+03 2.860e-10
 41.27345     57.0 9.940e+03 4.004e-10
 41.31482     58.3 1.025e+04 5.057e-10
 41.33894     58.7 1.064e+04 5.874e-10
 41.35963     58.6 1.077e+04 6.187e-10
 41.39757     58.1 1.120e+04 7.488e-10
 41.43894     57.8 1.161e+04 1.040e-09
 41.46271     59.2 1.161e+04 1.327e-09
 41.48340     58.7 1.180e+04 1.332e-09
 41.51124     59.3 1.185e+04 1.349e-09
 41.52440     59.4 1.185e+04 1.330e-09
 41.53474     59.0 1.214e+04 1.432e-09
 41.54493     59.2 1.206e+04 1.626e-09
 41.55527     59.6 1.186e+04 1.477e-09
 41.57320     60.0 1.195e+04 1.529e-09
 41.58628     60.4 1.207e+04 1.533e-09
 41.59663     60.2 1.236e+04 1.894e-09
 41.61457     61.2 1.239e+04 1.946e-09
 41.64570     62.6 1.249e+04 1.858e-09
 41.68717     63.3 1.207e+04 1.454e-09
 41.71025     64.2 1.137e+04 1.069e-09
 41.73093     63.3 1.172e+04 1.237e-09
 41.76991     63.9 1.128e+04 9.469e-10
 41.81129     64.7 1.135e+04 9.065e-10
 41.83402     64.8 1.169e+04 1.067e-09
 41.85470     63.0 1.196e+04 1.279e-09
 41.89403     63.4 1.228e+04 1.540e-09
 41.93540     64.0 1.272e+04 1.744e-09
 41.95769     61.8 1.282e+04 1.815e-09
 41.96709     60.2 1.277e+04 1.755e-09
 41.97573     58.3 1.262e+04 1.622e-09
 41.98692     57.2 1.244e+04 1.483e-09
 42.00761     55.0 1.217e+04 1.325e-09
 42.01948     52.1 1.202e+04 1.222e-09
 42.02982     50.0 1.203e+04 1.208e-09
 42.04898     44.6 1.306e+04 1.525e-09
 42.06967     37.1 1.408e+04 2.272e-09
 42.08136     29.0 1.496e+04 3.377e-09
 42.09171     30.7 1.409e+04 2.979e-09
 42.11104     24.4 1.557e+04 3.923e-09
 42.13172     18.5 1.717e+04 4.776e-09
 42.14325     10.8 1.687e+04 4.606e-09
 42.15359     12.7 1.648e+04 3.691e-09
 42.17310      5.5 1.497e+04 3.166e-09
 42.18596      1.3 1.433e+04 3.077e-09
 42.19630      1.5 1.386e+04 2.912e-09
 42.20513     -0.2 1.364e+04 2.781e-09
 42.21547      1.3 1.416e+04 3.348e-09
 42.23515      0.4 1.413e+04 3.409e-09
 42.25584     -0.7 1.422e+04 3.205e-09
 42.26702     -2.3 1.441e+04 3.011e-09
 42.27736     -0.6 1.485e+04 3.868e-09
 42.29721     -2.6 1.520e+04 3.773e-09
 42.31790     -5.2 1.564e+04 4.014e-09
 42.32890     -7.2 1.586e+04 4.894e-09
 42.33924     -5.9 1.663e+04 5.685e-09
 42.35927     -7.2 1.675e+04 6.813e-09
 42.37996     -7.7 1.665e+04 7.277e-09
 42.39074     -7.2 1.666e+04 7.222e-09
 42.39586     -6.7 1.715e+04 7.908e-09
 42.40126     -6.9 1.691e+04 7.775e-09
 42.40643     -6.5 1.660e+04 6.993e-09
 42.41606     -6.6 1.614e+04 6.434e-09
 42.42163     -6.7 1.571e+04 5.726e-09
 42.42680     -6.1 1.629e+04 6.518e-09
 42.43674     -6.7 1.603e+04 5.841e-09
 42.44709     -7.8 1.604e+04 5.463e-09
 42.45257     -9.2 1.643e+04 5.290e-09
 42.45774    -10.7 1.913e+04 7.388e-09
 42.46777    -12.6 1.972e+04 7.911e-09
 42.47812    -14.4 1.996e+04 8.733e-09
 42.48352    -15.9 1.992e+04 9.682e-09
 42.48869    -17.2 2.120e+04 1.611e-08
 42.49880    -17.9 2.071e+04 1.712e-08
 42.50638    -18.3 2.025e+04 1.834e-08
 42.51155    -17.5 2.034e+04 1.470e-08
 42.51446    -17.9 1.998e+04 1.628e-08
 42.51963    -18.3 2.066e+04 2.391e-08
 42.52983    -18.3 2.041e+04 2.520e-08
 42.54017    -18.3 2.037e+04 2.675e-08
 42.54540    -18.1 2.046e+04 2.839e-08
 42.55057    -18.1 2.119e+04 3.158e-08
 42.56086    -18.0 2.127e+04 3.134e-08
 42.57117    -17.9 2.122e+04 3.078e-08
 42.58151    -17.8 2.123e+04 2.800e-08
 42.59189    -17.4 2.115e+04 2.425e-08
 42.60211    -17.1 2.106e+04 2.213e-08
 42.60729    -17.5 2.109e+04 1.868e-08
 42.61149    -17.4 2.090e+04 1.661e-08
 42.61666    -16.6 2.101e+04 2.051e-08
 42.62292    -16.5 2.082e+04 1.740e-08
 42.63306    -16.5 2.045e+04 1.452e-08
 42.63828    -17.1 2.071e+04 1.133e-08
 42.64887    -17.5 1.992e+04 7.330e-09
 42.66956    -17.8 1.870e+04 4.417e-09
 42.68987    -18.5 1.699e+04 2.695e-09
 42.70021    -21.9 1.421e+04 1.947e-09
 42.71093    -21.4 1.331e+04 1.962e-09
 42.73162    -20.6 1.320e+04 1.811e-09
 42.75175    -19.6 1.298e+04 1.741e-09
 42.76210    -20.5 1.347e+04 2.313e-09
 42.77299    -19.4 1.370e+04 2.413e-09
 42.79368    -18.4 1.389e+04 2.474e-09
 42.81364    -17.4 1.405e+04 2.518e-09
 42.82398    -18.8 1.472e+04 3.423e-09
 42.82699    -18.2 1.496e+04 3.531e-09
 42.83733    -17.8 1.461e+04 3.056e-09
 42.85573    -17.2 1.483e+04 3.094e-09
 42.87552    -16.9 1.519e+04 3.258e-09
 42.88586    -18.8 1.522e+04 3.331e-09
 42.89711    -19.2 1.563e+04 3.599e-09
 42.91779    -19.9 1.632e+04 4.245e-09
 42.93741    -21.6 1.770e+04 5.787e-09
 42.94775    -23.3 1.716e+04 5.020e-09
 42.95916    -25.9 1.912e+04 7.660e-09
 42.97985    -28.7 2.081e+04 1.182e-08
 42.99929    -31.5 2.178e+04 1.608e-08
 43.00963    -33.5 2.050e+04 8.196e-09
 43.02122    -36.0 2.059e+04 8.476e-09
 43.03722    -38.5 2.036e+04 8.251e-09
 43.04756    -35.0 2.068e+04 1.220e-08
 43.06118    -37.3 2.079e+04 1.202e-08
 43.07152    -38.6 1.869e+04 7.022e-09
 43.08328    -41.2 1.832e+04 5.521e-09
 43.10397    -44.7 1.751e+04 3.641e-09
 43.12306    -48.9 1.533e+04 2.198e-09
 43.13340    -48.4 1.400e+04 1.590e-09
 43.14534    -51.0 1.269e+04 1.175e-09
 43.16602    -52.2 1.218e+04 9.788e-10
 43.18495    -53.0 1.196e+04 8.289e-10
 43.19529    -51.6 1.175e+04 7.650e-10
 43.20740    -52.5 1.162e+04 6.635e-10
 43.22808    -53.5 1.146e+04 5.625e-10
 43.24683    -54.5 1.131e+04 4.926e-10
 43.25585    -52.9 1.121e+04 4.856e-10
 43.25779    -50.8 1.142e+04 5.816e-10
 43.26945    -51.8 1.127e+04 5.020e-10
 43.29014    -52.8 1.120e+04 4.540e-10
 43.30872    -53.9 1.121e+04 4.426e-10
 43.31916    -50.2 1.131e+04 4.666e-10
 43.34205    -52.3 1.130e+04 4.495e-10
 43.37070    -54.7 1.150e+04 6.119e-10
 43.38094    -53.4 1.152e+04 5.642e-10
 43.39357    -53.7 1.176e+04 7.149e-10
 43.42224    -54.4 1.197e+04 9.126e-10
 43.44302    -51.5 1.205e+04 9.042e-10
 43.46617    -52.0 1.229e+04 1.249e-09
 43.50754    -52.5 1.237e+04 1.352e-09
 43.53847    -52.8 1.260e+04 1.551e-09
 43.55625    -53.5 1.260e+04 1.563e-09
 43.56660    -52.5 1.296e+04 1.885e-09
 43.57974    -52.9 1.288e+04 1.880e-09
 43.60043    -53.2 1.263e+04 1.757e-09
 43.61814    -53.3 1.234e+04 1.568e-09
 43.62848    -52.4 1.263e+04 1.744e-09
 43.64180    -52.6 1.224e+04 1.449e-09
 43.66249    -52.7 1.178e+04 1.169e-09
 43.67825    -52.7 1.130e+04 9.272e-10
 43.68544    -52.6 1.146e+04 9.643e-10
 43.69037    -52.2 1.146e+04 9.630e-10
 43.70386    -52.1 1.095e+04 7.429e-10
 43.72455    -51.8 1.049e+04 5.723e-10
 43.74191    -51.1 1.007e+04 4.425e-10
 43.75225    -50.5 1.007e+04 4.406e-10
 43.76592    -49.9 9.847e+03 3.672e-10
 43.79355    -49.7 9.763e+03 3.267e-10
 43.81433    -48.4 9.791e+03 3.291e-10
 43.83851    -47.4 9.681e+03 2.904e-10
 43.87989    -46.0 9.630e+03 2.773e-10
 43.91742    -44.7 9.629e+03 2.824e-10
 43.93810    -44.3 9.804e+03 3.290e-10
 43.96263    -42.9 9.873e+03 3.519e-10
 44.00400    -41.4 9.986e+03 3.774e-10
 44.04119    -40.0 1.014e+04 4.002e-10
 44.06187    -40.1 9.982e+03 3.409e-10
 44.08675    -38.7 9.985e+03 3.177e-10
 44.10924    -37.3 9.990e+03 3.101e-10
 44.12993    -38.4 9.971e+03 3.060e-10
 44.16495    -36.9 9.931e+03 3.061e-10
 44.18564    -36.5 9.781e+03 2.808e-10
 44.21086    -34.7 1.005e+04 3.536e-10
 44.25223    -32.5 1.034e+04 4.628e-10
 44.28872    -30.0 1.068e+04 6.063e-10
 44.30941    -29.1 1.111e+04 7.434e-10
 44.31937    -27.4 1.135e+04 8.271e-10
 44.32962    -27.6 1.140e+04 8.530e-10
 44.34512    -27.4 1.138e+04 8.746e-10
 44.36076    -27.8 1.213e+04 1.022e-09
 44.37110    -28.5 1.245e+04 1.179e-09
 44.38650    -36.0 1.696e+04 1.949e-09
 44.40718    -43.1 2.131e+04 1.269e-08
 44.42259    -44.9 2.218e+04 4.282e-08
 44.42772    -44.5 2.195e+04 3.935e-08
 44.42946    -44.8 2.249e+04 7.349e-08
 44.43463    -44.6 2.225e+04 6.478e-08
 44.44329    -45.2 2.264e+04 8.654e-08
 44.45349    -46.2 2.274e+04 9.129e-08
 44.45866    -45.6 2.228e+04 5.990e-08
 44.46397    -46.4 2.229e+04 4.836e-08
 44.47431    -47.6 2.178e+04 2.649e-08
 44.48443    -50.0 2.055e+04 1.300e-08
 44.49482    -51.8 1.961e+04 9.544e-09
 44.51061    -55.9 1.717e+04 4.611e-09
 44.52950    -59.9 1.414e+04 2.077e-09
 44.53985    -59.6 1.380e+04 1.855e-09
 44.54641    -61.0 1.263e+04 1.334e-09
 44.55675    -61.5 1.268e+04 1.477e-09
 44.57267    -61.5 1.243e+04 1.379e-09
 44.59336    -61.1 1.224e+04 1.283e-09
 44.60830    -60.3 1.200e+04 1.162e-09
 44.61864    -60.7 1.209e+04 1.229e-09
 44.63473    -60.0 1.180e+04 1.066e-09
 44.65541    -59.3 1.150e+04 9.009e-10
 44.67018    -58.5 1.122e+04 7.583e-10
 44.68052    -59.0 1.116e+04 7.407e-10
 44.69679    -58.2 1.086e+04 6.050e-10
 44.71747    -57.3 1.061e+04 4.928e-10
 44.74860    -56.4 1.034e+04 3.782e-10
 44.78380    -55.1 1.014e+04 3.167e-10
 44.80449    -55.7 9.890e+03 2.805e-10
 44.83144    -53.3 9.545e+03 2.254e-10
 44.87281    -51.1 9.465e+03 2.118e-10
 44.90757    -49.2 9.466e+03 2.103e-10
 44.92826    -50.0 9.480e+03 2.152e-10
 44.95016    -48.7 9.610e+03 2.405e-10
 44.97084    -48.6 9.427e+03 1.997e-10
 44.99693    -47.5 9.578e+03 2.271e-10
 45.03134    -46.4 9.669e+03 2.492e-10
 45.05203    -47.5 9.673e+03 2.574e-10
 45.07967    -46.6 9.671e+03 2.583e-10
 45.12104    -45.6 9.525e+03 2.236e-10
 45.15511    -44.6 9.295e+03 1.742e-10
 45.17580    -45.5 9.256e+03 1.689e-10
 45.20379    -44.3 9.099e+03 1.323e-10
 45.24516    -43.0 9.077e+03 1.122e-10
 45.27888    -41.7 9.105e+03 1.069e-10
 45.29957    -42.5 9.084e+03 9.711e-11
 45.32790    -41.5 9.107e+03 9.631e-11
 45.36928    -40.7 9.371e+03 1.052e-10
 45.39130    -40.1 9.520e+03 1.409e-10
 45.40399    -41.2 9.451e+03 1.378e-10
 45.42334    -42.1 9.441e+03 1.398e-10
 45.45202    -41.5 9.488e+03 1.739e-10
 45.49339    -40.9 9.487e+03 1.902e-10
 45.52642    -40.4 9.480e+03 1.931e-10
 45.54711    -40.8 9.560e+03 2.159e-10
 45.57614    -40.1 9.547e+03 2.129e-10
 45.61751    -39.3 9.580e+03 1.975e-10
 45.65019    -38.4 9.590e+03 1.805e-10
 45.67088    -38.8 9.601e+03 1.666e-10
 45.70025    -37.9 9.599e+03 1.448e-10
 45.74162    -37.1 9.613e+03 1.280e-10
 45.77396    -36.3 9.629e+03 1.197e-10
 45.79465    -36.4 9.593e+03 1.092e-10
 45.81176    -35.4 9.624e+03 1.115e-10
 45.83244    -35.7 9.576e+03 1.073e-10
 45.86574    -34.7 9.574e+03 1.163e-10
 45.89773    -33.6 9.541e+03 1.240e-10
 45.91842    -33.1 9.581e+03 1.224e-10
 45.94848    -32.1 9.578e+03 1.236e-10
 45.98986    -31.1 9.514e+03 1.234e-10
 46.02150    -30.1 9.450e+03 1.213e-10
 46.04219    -29.7 9.485e+03 1.181e-10
 46.07260    -28.8 9.485e+03 1.133e-10
 46.11397    -27.9 9.526e+03 1.102e-10
 46.14527    -27.2 9.623e+03 1.102e-10
 46.16595    -27.1 9.574e+03 1.070e-10
 46.19672    -26.7 9.669e+03 1.083e-10
 46.23221    -26.2 9.752e+03 1.222e-10
 46.25290    -27.0 1.034e+04 2.292e-10
 46.26904    -26.0 1.046e+04 2.851e-10
 46.28972    -26.5 1.040e+04 2.575e-10
 46.32083    -25.8 1.046e+04 2.864e-10
 46.36220    -25.2 1.056e+04 3.237e-10
 46.39281    -24.6 1.072e+04 3.906e-10
 46.41349    -25.3 1.048e+04 2.847e-10
 46.44495    -24.7 1.064e+04 3.034e-10
 46.48632    -24.2 1.081e+04 3.307e-10
 46.51648    -24.6 1.091e+04 3.346e-10
 46.52673    -25.4 1.081e+04 2.802e-10
 46.53784    -25.6 1.096e+04 3.343e-10
 46.55853    -25.6 1.110e+04 4.117e-10
 46.57827    -25.5 1.135e+04 5.101e-10
 46.58861    -26.8 1.191e+04 5.803e-10
 46.59990    -26.8 1.228e+04 7.796e-10
 46.62058    -26.7 1.259e+04 1.040e-09
 46.64015    -26.5 1.285e+04 1.360e-09
 46.65050    -27.7 1.299e+04 1.828e-09
 46.66196    -27.4 1.320e+04 2.303e-09
 46.67316    -27.0 1.343e+04 2.760e-09
 46.68351    -27.5 1.355e+04 3.203e-09
 46.70204    -27.1 1.378e+04 3.236e-09
 46.71238    -27.8 1.387e+04 3.151e-09
 46.72401    -27.8 1.395e+04 2.893e-09
 46.74470    -28.0 1.402e+04 2.516e-09
 46.76392    -28.5 1.402e+04 2.068e-09
 46.77426    -30.6 1.352e+04 1.545e-09
 46.78607    -32.0 1.286e+04 1.191e-09
 46.80676    -33.4 1.198e+04 9.577e-10
 46.82581    -34.4 1.122e+04 8.272e-10
 46.83615    -35.4 1.099e+04 7.823e-10
 46.84813    -35.5 1.090e+04 7.376e-10
 46.86882    -35.5 1.086e+04 6.929e-10
 46.88779    -35.7 1.082e+04 6.433e-10
 46.90857    -36.2 1.072e+04 5.884e-10
 46.94141    -36.4 1.057e+04 4.965e-10
 46.98278    -37.1 1.034e+04 4.369e-10
 47.01166    -37.7 1.021e+04 4.252e-10
 47.03234    -37.8 1.016e+04 4.091e-10
 47.06553    -37.8 1.009e+04 3.990e-10
 47.09382    -37.8 9.995e+03 3.822e-10
 47.11450    -39.4 9.579e+03 2.287e-10
 47.13543    -39.5 9.494e+03 2.020e-10
 47.15611    -39.4 9.539e+03 1.987e-10
 47.18964    -39.9 9.617e+03 2.022e-10
 47.23102    -40.6 9.921e+03 2.676e-10
 47.25920    -41.1 1.021e+04 3.929e-10
 47.27988    -41.2 1.075e+04 6.123e-10
 47.31376    -41.6 1.092e+04 7.427e-10
 47.35513    -42.1 1.095e+04 7.760e-10
 47.38297    -42.2 1.077e+04 6.859e-10
 47.40365    -42.9 1.084e+04 6.754e-10
 47.43788    -43.4 1.038e+04 4.859e-10
 47.47925    -43.4 1.002e+04 3.858e-10
 47.50673    -43.0 9.808e+03 3.386e-10
 47.52107    -43.6 9.856e+03 3.708e-10
 47.53496    -44.5 9.858e+03 3.727e-10
 47.56199    -43.4 9.753e+03 3.458e-10
 47.60336    -42.0 9.673e+03 3.160e-10
 47.63050    -40.6 9.518e+03 2.753e-10
 47.65119    -41.2 9.509e+03 2.670e-10
 47.68611    -39.7 9.342e+03 2.244e-10
 47.72748    -38.2 9.207e+03 1.892e-10
 47.75427    -36.8 9.097e+03 1.617e-10
 47.77496    -37.4 9.001e+03 1.458e-10
 47.81022    -35.8 8.907e+03 1.297e-10
 47.85160    -34.1 8.812e+03 1.168e-10
 47.87804    -32.3 8.735e+03 1.077e-10
 47.89873    -32.6 8.713e+03 1.085e-10
 47.93434    -30.6 8.695e+03 1.045e-10
 47.95542    -28.6 8.702e+03 1.038e-10
 47.97610    -28.9 8.687e+03 9.530e-11
 48.00181    -26.8 8.690e+03 9.402e-11
 48.02250    -26.8 8.679e+03 8.657e-11
 48.05846    -24.7 8.709e+03 8.557e-11
 48.09983    -22.6 8.793e+03 8.731e-11
 48.12558    -20.8 8.928e+03 9.534e-11
 48.14627    -20.8 8.857e+03 8.043e-11
 48.18257    -19.0 8.956e+03 1.050e-10
 48.22394    -17.1 9.120e+03 1.460e-10
 48.24935    -15.1 9.356e+03 1.968e-10
 48.27004    -14.5 9.403e+03 2.006e-10
 48.30669    -12.4 9.698e+03 2.599e-10
 48.34806    -10.7 9.996e+03 3.197e-10
 48.37312     -9.1 1.032e+04 3.921e-10
 48.38025     -7.7 1.052e+04 4.610e-10
 48.39656     -7.4 1.116e+04 6.517e-10
 48.43080     -5.4 1.189e+04 8.946e-10
 48.46173     -4.0 1.196e+04 8.877e-10
 48.48232     -3.5 1.219e+04 1.123e-09
 48.49670     -2.6 1.222e+04 1.537e-09
 48.50704     -2.6 1.441e+04 2.642e-09
 48.52369     -2.7 1.678e+04 3.937e-09
 48.53916     -7.3 2.339e+04 6.234e-09
 48.54945    -13.4 2.681e+04 1.732e-08
 48.55848    -17.1 2.479e+04 6.961e-08
 48.56366    -16.5 2.359e+04 1.710e-07
 48.57014    -17.1 2.144e+04 4.922e-07
 48.58048    -17.7 2.090e+04 6.931e-07
 48.58822    -18.6 2.069e+04 8.149e-07
 48.59196    -19.1 2.100e+04 6.876e-07
 48.59455    -18.0 2.037e+04 1.114e-06
 48.59610    -19.2 2.139e+04 7.328e-07
 48.59869    -20.1 2.216e+04 5.433e-07
 48.60371    -22.8 2.402e+04 3.076e-07
 48.61149    -26.6 2.689e+04 1.575e-07
 48.62037    -35.9 3.304e+04 3.481e-08
 48.62554    -41.6 3.623e+04 1.631e-08
 48.63220    -54.1 2.678e+04 5.767e-09
 48.64254    -60.9 1.762e+04 4.555e-09
 48.65131    -62.8 1.580e+04 4.387e-09
 48.65648    -63.2 1.592e+04 4.299e-09
 48.66323    -63.4 1.605e+04 4.425e-09
 48.67357    -63.6 1.622e+04 4.549e-09
 48.68225    -64.0 1.640e+04 4.685e-09
 48.68742    -64.8 1.662e+04 4.412e-09
 48.69426    -65.5 1.680e+04 4.554e-09
 48.70127    -66.2 1.692e+04 4.754e-09
 48.70644    -65.5 1.643e+04 3.929e-09
 48.71320    -65.9 1.651e+04 4.108e-09
 48.71837    -66.6 1.652e+04 3.924e-09
 48.72529    -67.3 1.641e+04 4.266e-09
 48.73563    -67.5 1.637e+04 4.532e-09
 48.74414    -67.8 1.622e+04 5.043e-09
 48.74931    -68.8 1.606e+04 4.876e-09
 48.75631    -68.8 1.601e+04 5.116e-09
 48.76666    -68.6 1.588e+04 5.484e-09
 48.77508    -68.5 1.588e+04 5.508e-09
 48.78025    -68.8 1.576e+04 5.403e-09
 48.79256    -68.5 1.568e+04 5.392e-09
 48.80612    -68.0 1.512e+04 4.465e-09
 48.80964    -68.4 1.492e+04 4.084e-09
 48.81682    -67.5 1.499e+04 4.332e-09
 48.83398    -67.0 1.451e+04 3.533e-09
 48.85467    -66.5 1.391e+04 2.643e-09
 48.86801    -66.1 1.327e+04 1.843e-09
 48.87835    -66.7 1.357e+04 1.998e-09
 48.89604    -66.2 1.305e+04 1.410e-09
 48.91673    -65.8 1.258e+04 1.005e-09
 48.92989    -65.2 1.217e+04 7.481e-10
 48.94023    -65.8 1.269e+04 9.702e-10
 48.95810    -65.2 1.226e+04 7.758e-10
 48.97879    -64.4 1.188e+04 6.569e-10
 48.99177    -63.5 1.154e+04 5.804e-10
 49.00212    -63.9 1.175e+04 7.423e-10
 49.01671    -62.8 1.140e+04 6.626e-10
 49.02705    -62.3 1.210e+04 1.056e-09
 49.04084    -61.3 1.174e+04 9.056e-10
 49.05366    -60.3 1.145e+04 7.999e-10
 49.06400    -60.4 1.137e+04 8.089e-10
 49.08222    -59.2 1.114e+04 7.176e-10
 49.10290    -58.1 1.097e+04 6.568e-10
 49.11554    -57.0 1.082e+04 6.038e-10
 49.12589    -57.1 1.073e+04 5.558e-10
 49.14427    -56.0 1.063e+04 5.163e-10
 49.17540    -54.9 1.055e+04 4.790e-10
 49.21679    -52.7 1.039e+04 4.441e-10
 49.23943    -50.9 1.027e+04 4.087e-10
 49.26020    -50.8 1.010e+04 3.643e-10
 49.29961    -48.6 1.010e+04 3.753e-10
 49.34099    -46.3 1.011e+04 3.944e-10
 49.36328    -44.0 1.010e+04 4.035e-10
 49.38397    -43.9 9.866e+03 3.402e-10
 49.42373    -41.4 9.751e+03 3.170e-10
 49.46510    -39.0 9.636e+03 2.902e-10
 49.48705    -36.6 9.542e+03 2.719e-10
 49.50773    -36.5 9.370e+03 2.284e-10
 49.54785    -34.0 9.330e+03 2.244e-10
 49.58922    -31.5 9.315e+03 2.238e-10
 49.61082    -29.0 9.303e+03 2.276e-10
 49.63150    -28.8 9.277e+03 2.011e-10
 49.65793    -26.4 9.350e+03 2.174e-10
 49.67862    -26.9 9.430e+03 2.369e-10
 49.71333    -24.6 9.479e+03 2.636e-10
 49.73459    -22.4 9.586e+03 3.025e-10
 49.75527    -23.3 9.933e+03 3.753e-10
 49.79608    -21.3 1.020e+04 4.844e-10
 49.83745    -19.5 1.053e+04 6.276e-10
 49.85836    -17.8 1.094e+04 8.111e-10
 49.87904    -18.7 1.112e+04 8.592e-10
 49.92019    -17.2 1.139e+04 9.877e-10
 49.96144    -15.8 1.158e+04 1.093e-09
 50.00281    -15.3 1.128e+04 8.920e-10
 50.04431    -13.9 1.113e+04 7.983e-10
 50.07839    -13.1 1.098e+04 7.032e-10
 50.09860    -15.0 1.053e+04 5.062e-10
 50.10590    -15.3 1.038e+04 4.434e-10
 50.12705    -15.3 1.079e+04 5.802e-10
 50.16843    -15.1 1.143e+04 1.008e-09
 50.20898    -13.6 1.198e+04 1.552e-09
 50.22967    -14.0 1.199e+04 1.579e-09
 50.24073    -13.1 1.222e+04 1.862e-09
 50.26132    -12.6 1.197e+04 1.640e-09
 50.28101    -12.6 1.195e+04 1.327e-09
 50.29136    -13.2 1.166e+04 1.171e-09
 50.29877    -15.1 1.173e+04 9.376e-10
 50.30911    -15.1 1.124e+04 8.296e-10
 50.32338    -17.7 1.133e+04 7.549e-10
 50.34290    -20.1 1.166e+04 8.028e-10
 50.35324    -19.6 1.085e+04 6.219e-10
 50.36475    -21.0 1.094e+04 7.431e-10
 50.38543    -21.3 1.105e+04 9.273e-10
 50.40478    -21.1 1.118e+04 1.053e-09
 50.41513    -20.5 1.072e+04 7.661e-10
 50.42681    -20.4 1.079e+04 7.984e-10
 50.44749    -20.3 1.076e+04 8.033e-10
 50.46667    -20.2 1.063e+04 7.784e-10
 50.47701    -19.6 1.028e+04 5.933e-10
 50.48886    -19.4 1.017e+04 5.923e-10
 50.50899    -18.8 1.010e+04 5.876e-10
 50.51934    -18.2 1.002e+04 5.512e-10
 50.52855    -17.6 1.002e+04 5.727e-10
 50.53890    -17.2 9.864e+03 4.961e-10
 50.55092    -16.6 9.918e+03 5.285e-10
 50.57161    -16.1 9.964e+03 5.489e-10
 50.59044    -15.4 9.980e+03 5.732e-10
 50.60078    -15.2 9.940e+03 5.701e-10
 50.61298    -14.4 9.993e+03 6.258e-10
 50.63367    -13.4 1.005e+04 6.614e-10
 50.65232    -12.4 1.005e+04 6.691e-10
 50.66266    -12.0 1.007e+04 6.922e-10
 50.67504    -10.9 1.005e+04 6.896e-10
 50.69572     -9.7 9.954e+03 6.361e-10
 50.71421     -8.6 9.882e+03 5.686e-10
 50.72455     -8.4 9.905e+03 5.722e-10
 50.72957     -7.6 9.795e+03 5.084e-10
 50.73991     -7.6 9.697e+03 4.804e-10
 50.75778     -6.8 9.548e+03 4.286e-10
 50.77609     -6.0 9.437e+03 4.075e-10
 50.78643     -6.1 9.473e+03 4.116e-10
 50.79915     -5.1 9.468e+03 4.111e-10
 50.81984     -4.2 9.586e+03 4.357e-10
 50.83798     -3.1 9.736e+03 4.768e-10
 50.84832     -3.6 9.935e+03 5.504e-10
 50.86121     -2.5 1.009e+04 6.394e-10
 50.88190     -1.2 1.028e+04 7.705e-10
 50.89986      0.4 1.051e+04 9.274e-10
 50.91020      0.2 1.054e+04 1.055e-09
 50.92327      1.8 1.084e+04 1.253e-09
 50.93979      2.8 1.144e+04 1.584e-09
 50.95014      2.9 1.090e+04 1.281e-09
 50.96175      3.6 1.168e+04 1.719e-09
 50.97209      3.6 1.127e+04 1.355e-09
 50.98533      4.3 1.224e+04 1.831e-09
 51.00601      5.1 1.335e+04 2.739e-09
 51.02363      5.9 1.457e+04 4.099e-09
 51.03397      5.7 1.289e+04 1.929e-09
 51.04739      4.1 1.685e+04 3.654e-09
 51.05970     -1.1 2.122e+04 4.564e-09
 51.06482     -1.6 2.026e+04 3.488e-09
 51.07315     -4.1 2.274e+04 4.523e-09
 51.08349     -9.6 2.474e+04 1.015e-08
 51.09059    -12.7 2.332e+04 2.314e-08
 51.09576    -12.4 2.322e+04 1.306e-08
 51.10417    -14.6 2.175e+04 3.677e-08
 51.11452    -15.2 2.074e+04 6.889e-08
 51.12153    -14.6 2.064e+04 1.064e-07
 51.12670    -15.2 2.064e+04 1.041e-07
 51.13520    -14.3 2.070e+04 1.369e-07
 51.14555    -13.5 2.106e+04 1.503e-07
 51.15247    -13.8 2.152e+04 1.279e-07
 51.15685    -14.5 2.137e+04 1.511e-07
 51.16027    -15.5 2.080e+04 9.924e-08
 51.16623    -15.2 2.132e+04 8.608e-08
 51.17658    -15.8 2.233e+04 5.857e-08
 51.18342    -16.8 2.381e+04 3.308e-08
 51.18859    -16.6 2.299e+04 4.053e-08
 51.19726    -18.9 2.330e+04 2.091e-08
 51.20760    -23.0 2.182e+04 9.877e-09
 51.21436    -26.4 1.843e+04 5.769e-09
 51.21953    -25.9 1.943e+04 6.317e-09
 51.23351    -27.4 1.760e+04 4.459e-09
 51.25425    -30.6 1.288e+04 2.120e-09
 51.27117    -30.6 1.170e+04 1.672e-09
 51.28151    -31.8 1.132e+04 1.449e-09
 51.29562    -30.4 1.089e+04 1.194e-09
 51.31630    -29.0 1.053e+04 9.989e-10
 51.33305    -27.9 1.018e+04 8.115e-10
 51.34340    -28.1 1.002e+04 7.728e-10
 51.35768    -27.0 9.700e+03 6.296e-10
 51.37060    -26.1 9.413e+03 5.208e-10
 51.38094    -25.5 9.605e+03 5.879e-10
 51.39494    -24.5 9.322e+03 4.808e-10
 51.40528    -24.4 9.231e+03 4.696e-10
 51.41973    -23.4 9.060e+03 4.052e-10
 51.44042    -22.5 8.948e+03 3.676e-10
 51.45682    -21.4 8.917e+03 3.541e-10
 51.46726    -21.3 8.938e+03 3.594e-10
 51.49233    -19.7 8.913e+03 3.472e-10
 51.53370    -17.7 9.015e+03 3.839e-10
 51.56463    -16.0 9.171e+03 4.454e-10
 51.58059    -15.1 9.223e+03 4.768e-10
 51.59103    -14.6 9.133e+03 4.167e-10
 51.60600    -13.1 9.254e+03 4.784e-10
 51.62659    -11.7 9.329e+03 4.988e-10
 51.65772    -10.3 9.322e+03 4.677e-10
 51.69422     -8.7 9.263e+03 4.196e-10
 51.71490     -7.7 9.322e+03 4.244e-10
 51.74056     -6.3 9.130e+03 3.580e-10
 51.78091     -4.7 8.885e+03 3.022e-10
 51.80159     -3.4 9.749e+03 5.101e-10
 51.81799     -2.0 9.491e+03 4.461e-10
 51.83867     -1.1 9.783e+03 5.095e-10
 51.86468      0.3 9.457e+03 4.447e-10
 51.90605      2.3 9.180e+03 3.837e-10
 51.94176      4.4 8.916e+03 2.901e-10
 51.96244      4.9 8.954e+03 3.006e-10
 51.98879      6.7 8.573e+03 1.996e-10
 52.03017      8.3 8.166e+03 1.351e-10
 52.06552     10.0 7.979e+03 1.134e-10
 52.08621     10.7 8.195e+03 1.456e-10
 52.11291     12.8 8.132e+03 1.353e-10
 52.15428     14.8 8.212e+03 1.407e-10
 52.18929     16.8 8.374e+03 1.645e-10
 52.20998     17.7 8.515e+03 1.840e-10
 52.22205     19.7 8.655e+03 2.256e-10
 52.24273     20.1 8.806e+03 2.419e-10
 52.27840     22.3 9.062e+03 3.019e-10
 52.31306     24.5 9.311e+03 3.556e-10
 52.33375     25.3 9.370e+03 3.763e-10
 52.36114     27.2 9.562e+03 3.756e-10
 52.40251     28.6 9.877e+03 3.839e-10
 52.43683     28.5 1.047e+04 4.704e-10
 52.45752     29.6 1.031e+04 4.611e-10
 52.48526     29.8 1.093e+04 6.999e-10
 52.52663     30.8 1.167e+04 1.203e-09
 52.56060     32.3 1.221e+04 1.684e-09
 52.58129     33.1 1.214e+04 1.541e-09
 52.60937     34.3 1.241e+04 1.790e-09
 52.64251     36.1 1.209e+04 1.613e-09
 52.66319     36.1 1.219e+04 1.688e-09
 52.68437     38.8 1.120e+04 1.073e-09
 52.70506     39.4 1.135e+04 1.130e-09
 52.73349     41.9 1.042e+04 5.603e-10
 52.77486     42.7 9.768e+03 2.829e-10
 52.80814     43.9 9.171e+03 2.070e-10
 52.82883     44.5 9.247e+03 2.024e-10
 52.85760     47.0 9.114e+03 2.000e-10
 52.89898     49.5 9.168e+03 2.179e-10
 52.93191     52.1 9.320e+03 2.595e-10
 52.95260     52.7 9.262e+03 2.358e-10
 52.98172     55.3 9.382e+03 2.740e-10
 53.02309     57.7 9.495e+03 3.149e-10
 53.05568     60.1 9.587e+03 3.539e-10
 53.07487     60.6 9.365e+03 2.974e-10
 53.08365     59.9 9.497e+03 3.362e-10
 53.10584     62.2 9.508e+03 3.546e-10
 53.14721     64.5 9.483e+03 3.553e-10
 53.17945     66.9 9.428e+03 3.514e-10
 53.20014     67.6 9.148e+03 2.870e-10
 53.22995     70.1 9.064e+03 2.775e-10
 53.27132     72.6 8.985e+03 2.711e-10
 53.30322     75.2 8.922e+03 2.677e-10
 53.32391     76.1 8.695e+03 2.216e-10
 53.35407     78.8 8.676e+03 2.221e-10
 53.39544     81.6 8.660e+03 2.253e-10
 53.42699     84.4 8.655e+03 2.303e-10
 53.44768     85.4 8.591e+03 2.123e-10
 53.47818     88.3 8.620e+03 2.218e-10
 53.50411     91.3 8.627e+03 2.247e-10
 53.52479     90.8 8.317e+03 1.747e-10
 53.55076     93.7 8.257e+03 1.656e-10
 53.57145     94.8 8.222e+03 1.532e-10
 53.60230     97.7 8.138e+03 1.428e-10
 53.64367    100.7 8.138e+03 1.402e-10
 53.67453    103.7 8.178e+03 1.437e-10
 53.69522    104.7 8.169e+03 1.328e-10
 53.72642    107.5 8.340e+03 1.498e-10
 53.76779    110.2 8.661e+03 1.998e-10
 53.79830    113.1 9.231e+03 2.980e-10
 53.81899    114.0 9.211e+03 2.820e-10
 53.85053    117.1 9.913e+03 4.247e-10
 53.89190    120.2 1.057e+04 5.994e-10
 53.92207    123.1 1.116e+04 7.860e-10
 53.93404    124.0 1.113e+04 7.609e-10
 53.94525    123.5 1.064e+04 6.056e-10
 53.97465    126.3 1.103e+04 6.883e-10
 54.01602    128.8 1.117e+04 6.854e-10
 54.04584    131.4 1.118e+04 6.588e-10
 54.06652    132.6 1.112e+04 6.312e-10
 54.09876    135.9 1.110e+04 5.776e-10
 54.12970    137.7 1.105e+04 5.485e-10
 54.14494    139.6 1.101e+04 5.228e-10
 54.15528    139.1 1.102e+04 5.267e-10
 54.16941    140.8 1.102e+04 5.189e-10
 54.17976    141.5 1.106e+04 5.048e-10
 54.19166    143.2 1.113e+04 5.207e-10
 54.21234    145.1 1.115e+04 5.353e-10
 54.23130    147.0 1.123e+04 5.295e-10
 54.24164    147.7 1.136e+04 5.776e-10
 54.25371    149.8 1.152e+04 5.942e-10
 54.27440    151.6 1.164e+04 6.047e-10
 54.29318    154.4 1.187e+04 6.132e-10
 54.30353    154.5 1.218e+04 7.108e-10
 54.31577    149.1 2.570e+04 5.430e-10
 54.32925     90.1 9.961e+04 1.053e-09
 54.33437     95.2 9.700e+04 1.057e-09
 54.34153     55.1 4.799e+04 5.720e-08
 54.35187     39.2 1.973e+04 1.025e-06
 54.35961     35.6 1.935e+04 1.549e-06
 54.36268     32.6 1.928e+04 1.854e-06
 54.36331     42.4 2.000e+04 8.258e-07
 54.36539     33.4 1.935e+04 1.474e-06
 54.36993     32.7 1.901e+04 1.857e-06
 54.37510     35.4 1.883e+04 1.700e-06
 54.37815     34.5 2.045e+04 1.162e-06
 54.38074     33.6 2.177e+04 2.052e-07
 54.38544     30.9 1.957e+04 1.173e-06
 54.39061     27.8 2.076e+04 2.500e-06
 54.39362     15.0 3.439e+04 6.368e-07
 54.39621     16.2 3.494e+04 6.686e-07
 54.40095    -12.5 7.264e+04 1.373e-08
 54.40613    -21.8 7.488e+04 9.440e-09
 54.41391    -68.2 3.263e+04 5.577e-09
 54.42203    -75.6 1.883e+04 6.520e-09
 54.42720    -75.7 1.916e+04 5.812e-09
 54.43984    -76.3 1.831e+04 6.246e-09
 54.46057    -76.9 1.835e+04 6.748e-09
 54.47884    -77.0 1.829e+04 6.793e-09
 54.48918    -77.8 1.774e+04 5.555e-09
 54.50195    -77.5 1.740e+04 5.242e-09
 54.52263    -76.9 1.687e+04 4.615e-09
 54.54072    -76.2 1.627e+04 3.844e-09
 54.55106    -76.8 1.576e+04 2.997e-09
 54.56400    -76.0 1.520e+04 2.437e-09
 54.57574    -75.1 1.459e+04 1.938e-09
 54.58608    -74.6 1.540e+04 2.599e-09
 54.60261    -73.8 1.472e+04 2.027e-09
 54.61295    -74.9 1.432e+04 1.482e-09
 54.62606    -74.3 1.368e+04 1.237e-09
 54.64675    -73.5 1.320e+04 1.117e-09
 54.66449    -72.5 1.302e+04 1.087e-09
 54.67483    -73.6 1.275e+04 9.393e-10
 54.68812    -72.4 1.269e+04 9.816e-10
 54.70881    -71.2 1.280e+04 1.077e-09
 54.72638    -69.9 1.292e+04 1.200e-09
 54.73672    -70.5 1.259e+04 9.859e-10
 54.75018    -69.2 1.271e+04 1.085e-09
 54.77086    -67.9 1.286e+04 1.202e-09
 54.78597    -66.8 1.304e+04 1.330e-09
 54.79302    -67.0 1.305e+04 1.317e-09
 54.79860    -67.8 1.259e+04 9.564e-10
 54.81224    -66.8 1.278e+04 1.052e-09
 54.83292    -66.1 1.300e+04 1.172e-09
 54.85015    -65.5 1.325e+04 1.321e-09
 54.86049    -66.6 1.270e+04 9.390e-10
 54.87429    -66.3 1.291e+04 1.085e-09
 54.89498    -66.1 1.309e+04 1.240e-09
 54.91203    -66.2 1.328e+04 1.393e-09
 54.92237    -67.5 1.331e+04 1.364e-09
 54.93635    -67.9 1.378e+04 1.650e-09
 54.95704    -68.6 1.430e+04 1.956e-09
 54.97392    -69.5 1.472e+04 2.209e-09
 54.98426    -71.3 1.556e+04 2.846e-09
 54.99620    -71.6 1.566e+04 2.943e-09
 55.00654    -71.6 1.607e+04 3.853e-09
 55.01910    -71.5 1.608e+04 3.851e-09
 55.03580    -71.6 1.587e+04 3.241e-09
 55.04614    -71.6 1.651e+04 3.966e-09
 55.06047    -72.8 1.553e+04 2.426e-09
 55.08115    -74.9 1.416e+04 1.466e-09
 55.09769    -76.8 1.266e+04 9.505e-10
 55.10803    -78.2 1.268e+04 9.588e-10
 55.12253    -79.2 1.176e+04 7.703e-10
 55.14321    -79.4 1.153e+04 7.246e-10
 55.15957    -79.2 1.147e+04 7.037e-10
 55.16991    -80.0 1.170e+04 7.810e-10
 55.18458    -79.6 1.170e+04 7.804e-10
 55.20527    -79.4 1.169e+04 7.716e-10
 55.21677    -79.2 1.170e+04 7.567e-10
 55.22261    -79.2 1.169e+04 7.775e-10
 55.23180    -80.7 1.275e+04 1.104e-09
 55.24664    -80.8 1.291e+04 1.143e-09
 55.26733    -81.1 1.317e+04 1.210e-09
 55.28334    -82.1 1.371e+04 1.387e-09
 55.29368    -83.9 1.495e+04 2.374e-09
 55.30870    -85.1 1.551e+04 2.918e-09
 55.32938    -86.4 1.629e+04 3.815e-09
 55.34522    -87.4 1.711e+04 5.170e-09
 55.35557    -88.2 1.758e+04 5.843e-09
 55.37076    -88.9 1.819e+04 7.070e-09
 55.39144    -89.5 1.853e+04 7.925e-09
 55.40711    -90.2 1.860e+04 8.091e-09
 55.41745    -92.0 1.862e+04 7.010e-09
 55.42700    -92.4 1.832e+04 6.397e-09
 55.43734    -91.1 1.834e+04 6.365e-09
 55.45350    -91.4 1.800e+04 5.681e-09
 55.46899    -92.0 1.753e+04 4.995e-09
 55.47934    -93.9 1.631e+04 2.998e-09
 55.49487    -94.1 1.579e+04 2.738e-09
 55.51556    -94.0 1.540e+04 2.618e-09
 55.53088    -93.6 1.526e+04 2.595e-09
 55.54122    -95.4 1.398e+04 1.298e-09
 55.55693    -94.9 1.421e+04 1.307e-09
 55.57762    -94.3 1.452e+04 1.365e-09
 55.59276    -93.5 1.480e+04 1.440e-09
 55.60311    -97.2 1.410e+04 6.037e-10
 55.61899    -96.7 1.527e+04 6.575e-10
 55.63723    -96.4 1.628e+04 7.178e-10
 55.64757    -95.3 1.581e+04 8.116e-10
 55.65465    -95.3 1.664e+04 8.874e-10
 55.66499   -102.8 1.438e+04 9.299e-10
 55.68105   -102.8 1.433e+04 9.197e-10
 55.70173   -104.8 1.553e+04 9.858e-10
 55.71653   -109.6 2.726e+04 1.917e-09
 55.72688   -109.8 1.353e+04 1.387e-09
 55.74310   -112.9 1.857e+04 1.881e-09
 55.76379   -116.6 2.130e+04 3.266e-09
 55.77842   -120.8 2.068e+04 5.661e-09
 55.78876   -121.4 1.633e+04 4.682e-09
 55.80516   -123.3 1.697e+04 6.802e-09
 55.82585   -124.7 1.737e+04 7.595e-09
 55.84030   -125.7 1.751e+04 7.619e-09
 55.85065   -124.1 1.699e+04 8.010e-09
 55.85780   -124.7 1.654e+04 6.287e-09
 55.86814   -123.5 1.698e+04 7.142e-09
 55.88791   -124.3 1.595e+04 3.907e-09
 55.90219   -126.0 1.410e+04 1.673e-09
 55.91253   -123.8 1.475e+04 2.543e-09
 55.92928   -126.4 1.240e+04 1.038e-09
 55.94996   -128.6 1.063e+04 5.519e-10
 55.96407   -129.0 1.006e+04 4.418e-10
 55.97442   -128.4 1.034e+04 5.513e-10
 55.99134   -128.5 1.007e+04 5.017e-10
 56.01202   -128.3 9.992e+03 4.880e-10
 56.02596   -127.9 9.949e+03 4.842e-10
 56.03630   -127.8 1.015e+04 5.859e-10
 56.05339   -127.4 1.012e+04 5.802e-10
 56.06803   -127.0 1.012e+04 5.790e-10
 56.07837   -125.8 9.736e+03 4.565e-10
 56.08784   -125.4 9.723e+03 4.574e-10
 56.09819   -125.2 9.963e+03 5.467e-10
 56.11545   -124.8 9.955e+03 5.427e-10
 56.13614   -124.3 9.950e+03 5.348e-10
 56.14973   -123.8 9.964e+03 5.230e-10
 56.16007   -124.0 1.067e+04 7.048e-10
 56.17751   -123.3 1.071e+04 6.951e-10
 56.19820   -122.4 1.086e+04 6.552e-10
 56.21161   -121.9 1.112e+04 6.379e-10
 56.22195   -122.2 1.249e+04 9.957e-10
 56.23957   -123.0 1.725e+04 1.054e-09
 56.26025   -124.5 2.277e+04 1.645e-09
 56.27350   -125.5 2.446e+04 3.028e-09
 56.28116   -125.2 2.289e+04 4.927e-09
 56.28860   -119.6 1.707e+04 7.854e-10
 56.30163   -120.8 2.163e+04 1.273e-09
 56.32231   -121.5 2.287e+04 2.378e-09
 56.33538   -121.4 2.192e+04 4.362e-09
 56.34572   -121.0 2.098e+04 6.549e-09
 56.36368   -120.2 1.979e+04 9.758e-09
 56.38437   -119.2 1.909e+04 1.311e-08
 56.39727   -118.1 1.901e+04 1.589e-08
 56.40761   -117.4 1.929e+04 1.660e-08
 56.42574   -116.1 1.936e+04 1.732e-08
 56.44643   -114.7 1.933e+04 1.752e-08
 56.45915   -113.1 1.950e+04 1.722e-08
 56.46949   -112.6 2.076e+04 1.558e-08
 56.48780   -111.2 2.230e+04 1.184e-08
 56.49883   -110.0 2.297e+04 8.184e-09
 56.50917   -108.3 1.984e+04 1.817e-08
 56.52104   -106.8 2.056e+04 1.659e-08
 56.53138   -106.5 2.247e+04 1.444e-08
 56.54986   -105.2 2.350e+04 1.047e-08
 56.57054   -104.2 2.364e+04 6.822e-09
 56.58292   -103.7 2.291e+04 4.036e-09
 56.59326   -104.9 2.027e+04 3.317e-09
 56.61192   -105.3 1.720e+04 2.428e-09
 56.63260   -105.6 1.481e+04 1.947e-09
 56.64481   -105.5 1.347e+04 1.643e-09
 56.65515   -105.0 1.358e+04 2.084e-09
 56.67397   -104.5 1.311e+04 1.876e-09
 56.69466   -104.0 1.279e+04 1.717e-09
 56.70669   -103.6 1.256e+04 1.608e-09
 56.71074   -103.9 1.402e+04 2.366e-09
 56.71940   -101.5 1.498e+04 2.766e-09
 56.73603   -101.4 1.428e+04 2.442e-09
 56.75672   -101.2 1.370e+04 2.222e-09
 56.76858   -101.0 1.329e+04 2.099e-09
 56.77892   -100.9 1.397e+04 2.610e-09
 56.79809   -100.7 1.350e+04 2.332e-09
 56.81878   -100.4 1.312e+04 2.132e-09
 56.83046    -99.9 1.294e+04 2.010e-09
 56.84080    -99.9 1.328e+04 2.069e-09
 56.86015    -99.4 1.319e+04 1.988e-09
 56.88083    -99.1 1.304e+04 1.867e-09
 56.89234    -99.0 1.281e+04 1.652e-09
 56.90269    -99.2 1.359e+04 2.034e-09
 56.91929    -99.1 1.342e+04 1.858e-09
 56.92963    -98.0 1.370e+04 1.949e-09
 56.94289    -98.6 1.335e+04 1.607e-09
 56.95423    -99.7 1.282e+04 1.249e-09
 56.96457    -98.9 1.405e+04 1.933e-09
 56.98426   -100.6 1.412e+04 1.583e-09
 57.00495   -106.5 1.681e+04 1.407e-09
 57.01611   -120.0 3.053e+04 1.722e-09
 57.02124   -119.8 3.112e+04 4.235e-09
 57.02947   -126.9 3.481e+04 7.142e-09
 57.03465   -130.2 3.527e+04 7.340e-09
 57.04105   -135.2 3.360e+04 1.519e-08
 57.04696   -139.1 3.024e+04 3.200e-08
 57.05213   -140.5 2.790e+04 9.784e-08
 57.06174   -144.6 2.770e+04 1.034e-07
 57.07208   -148.6 2.686e+04 9.905e-08
 57.07790   -151.8 2.600e+04 8.568e-08
 57.08307   -155.6 2.815e+04 6.002e-08
 57.09277   -159.0 2.902e+04 3.318e-08
 57.10311   -163.0 2.748e+04 1.733e-08
 57.10884   -167.4 2.279e+04 9.339e-09
 57.11402   -173.8 1.677e+04 5.422e-09
 57.12380   -174.5 1.557e+04 3.924e-09
 57.13414   -174.3 1.497e+04 3.276e-09
 57.13976   -173.4 1.469e+04 2.908e-09
 57.15015   -174.6 1.465e+04 2.865e-09
 57.17044   -173.2 1.365e+04 2.087e-09
 57.19112   -171.8 1.273e+04 1.581e-09
 57.20177   -170.5 1.231e+04 1.385e-09
 57.21211   -171.3 1.270e+04 1.533e-09
 57.23250   -169.6 1.267e+04 1.524e-09
 57.25318   -168.1 1.269e+04 1.591e-09
 57.26365   -166.8 1.304e+04 1.831e-09
 57.27400   -167.6 1.408e+04 2.366e-09
 57.29455   -166.5 1.449e+04 2.822e-09
 57.31520   -165.5 1.495e+04 3.411e-09
 57.33588   -165.4 1.605e+04 4.789e-09
 57.35009   -164.6 1.636e+04 5.595e-09
 57.36043   -165.1 1.657e+04 6.379e-09
 57.37708   -164.3 1.683e+04 7.320e-09
 57.38742   -164.6 1.630e+04 6.352e-09
 57.39798   -163.7 1.638e+04 6.671e-09
 57.41867   -163.0 1.637e+04 6.803e-09
 57.43896   -162.3 1.621e+04 6.737e-09
 57.44931   -162.4 1.518e+04 4.340e-09
 57.46004   -161.6 1.485e+04 3.922e-09
 57.48073   -160.7 1.438e+04 3.322e-09
 57.50085   -159.8 1.382e+04 2.661e-09
 57.51119   -160.3 1.307e+04 1.720e-09
 57.52210   -159.4 1.257e+04 1.387e-09
 57.54279   -158.5 1.206e+04 1.103e-09
 57.56032   -157.7 1.159e+04 8.766e-10
 57.56992   -158.0 1.102e+04 7.010e-10
 57.57308   -157.9 1.056e+04 5.640e-10
 57.58416   -156.7 1.031e+04 4.880e-10
 57.60484   -155.3 1.011e+04 4.262e-10
 57.62462   -154.0 9.980e+03 3.778e-10
 57.63496   -153.4 9.951e+03 3.391e-10
 57.65666   -152.2 9.983e+03 3.182e-10
 57.69813   -150.3 1.001e+04 3.107e-10
 57.73824   -148.0 1.020e+04 3.305e-10
 57.75893   -147.5 9.963e+03 3.107e-10
 57.77074   -145.7 1.029e+04 3.910e-10
 57.79143   -144.0 9.801e+03 2.857e-10
 57.82224   -142.3 1.023e+04 3.837e-10
 57.86201   -140.7 1.069e+04 5.460e-10
 57.88270   -139.4 1.045e+04 4.798e-10
 57.90499   -137.8 1.077e+04 6.126e-10
 57.94636   -136.3 1.108e+04 7.743e-10
 57.98578   -135.0 1.136e+04 9.579e-10
 58.00647   -133.9 1.129e+04 8.387e-10
 58.02910   -133.3 1.183e+04 1.081e-09
 58.05791   -132.7 1.236e+04 1.492e-09
 58.06816   -132.7 1.253e+04 1.442e-09
 58.08062   -133.3 1.323e+04 1.902e-09
 58.10131   -134.1 1.406e+04 2.701e-09
 58.11970   -134.7 1.475e+04 3.763e-09
 58.13004   -135.4 1.513e+04 4.484e-09
 58.14268   -135.5 1.554e+04 5.815e-09
 58.16337   -135.8 1.562e+04 6.292e-09
 58.18158   -136.1 1.554e+04 6.301e-09
 58.19193   -136.1 1.571e+04 6.897e-09
 58.20134   -135.9 1.507e+04 5.976e-09
 58.21169   -135.4 1.533e+04 6.390e-09
 58.22542   -134.7 1.439e+04 4.490e-09
 58.24347   -134.5 1.345e+04 2.984e-09
 58.25381   -134.5 1.351e+04 3.145e-09
 58.26680   -134.5 1.267e+04 2.166e-09
 58.28748   -134.4 1.198e+04 1.577e-09
 58.30535   -134.1 1.144e+04 1.199e-09
 58.31570   -133.9 1.152e+04 1.281e-09
 58.32885   -133.2 1.118e+04 1.068e-09
 58.34954   -132.4 1.095e+04 9.300e-10
 58.36724   -131.6 1.080e+04 8.318e-10
 58.37758   -131.2 1.085e+04 8.698e-10
 58.39091   -130.4 1.077e+04 8.117e-10
 58.41157   -129.7 1.074e+04 7.797e-10
 58.42910   -129.1 1.084e+04 8.155e-10
 58.43946   -128.4 1.081e+04 8.030e-10
 58.45297   -127.8 1.087e+04 8.174e-10
 58.47366   -127.4 1.099e+04 8.555e-10
 58.49101   -127.1 1.110e+04 9.031e-10
 58.50135   -126.4 1.102e+04 7.683e-10
 58.51503   -126.2 1.114e+04 8.400e-10
 58.53571   -125.9 1.123e+04 9.132e-10
 58.55289   -125.6 1.127e+04 9.621e-10
 58.56323   -125.2 1.127e+04 9.099e-10
 58.57709   -124.9 1.128e+04 9.653e-10
 58.59777   -124.5 1.127e+04 9.758e-10
 58.61478   -123.9 1.106e+04 9.459e-10
 58.62512   -123.5 1.126e+04 1.002e-09
 58.63214   -122.8 1.098e+04 9.262e-10
 58.64249   -122.7 1.095e+04 9.091e-10
 58.65983   -121.9 1.060e+04 7.004e-10
 58.67666   -121.1 1.027e+04 5.122e-10
 58.68700   -120.7 1.042e+04 6.006e-10
 58.70120   -120.3 1.007e+04 4.342e-10
 58.72830   -120.1 9.787e+03 3.361e-10
 58.74908   -118.1 9.943e+03 4.155e-10
 58.77380   -117.6 9.682e+03 3.314e-10
 58.81517   -116.4 9.386e+03 2.621e-10
 58.85217   -115.1 9.201e+03 2.266e-10
 58.87285   -113.5 9.376e+03 2.754e-10
 58.89791   -112.2 9.231e+03 2.529e-10
 58.93929   -110.9 9.158e+03 2.400e-10
 58.97594   -109.5 9.108e+03 2.252e-10
 58.99662   -108.0 9.154e+03 2.396e-10
 59.02203   -106.6 9.085e+03 2.181e-10
 59.05280   -105.3 9.018e+03 1.903e-10
 59.07348   -104.9 9.232e+03 2.345e-10
 59.09971   -103.6 9.147e+03 1.963e-10
 59.12039   -102.3 9.252e+03 2.165e-10
 59.14615   -101.3 9.264e+03 1.968e-10
 59.18752   -100.4 9.291e+03 1.881e-10
 59.22348    -99.6 9.311e+03 1.843e-10
 59.24416    -98.7 9.532e+03 2.473e-10
 59.27026    -97.9 9.547e+03 2.433e-10
 59.31163    -96.9 9.473e+03 2.201e-10
 59.34725    -95.7 9.360e+03 1.781e-10
 59.36793    -95.1 9.621e+03 2.686e-10
 59.39438    -93.7 9.423e+03 2.093e-10
 59.43575    -92.1 9.398e+03 1.831e-10
 59.47102    -91.1 9.440e+03 1.813e-10
 59.48784    -90.6 9.519e+03 2.660e-10
 59.49394    -89.4 9.552e+03 2.637e-10
 59.51849    -89.7 9.914e+03 2.821e-10
 59.55987    -92.8 1.284e+04 8.534e-10
 59.59080    -92.4 1.392e+04 1.928e-09
 59.60493    -92.3 1.538e+04 3.323e-09
 59.61528    -92.5 1.306e+04 1.540e-09
 59.63207    -93.7 1.362e+04 2.112e-09
 59.65276    -95.1 1.371e+04 2.218e-09
 59.66682    -96.5 1.356e+04 2.099e-09
 59.67716    -96.7 1.253e+04 1.686e-09
 59.69363    -97.9 1.231e+04 1.452e-09
 59.70397    -98.6 1.231e+04 1.432e-09
 59.71481   -100.0 1.195e+04 1.038e-09
 59.72870   -101.2 1.154e+04 8.031e-10
 59.73905    -99.9 1.134e+04 9.601e-10
 59.75619   -100.7 1.111e+04 8.348e-10
 59.77687   -101.2 1.095e+04 7.900e-10
 59.79059   -101.2 1.090e+04 7.811e-10
 59.80093   -100.4 1.097e+04 7.839e-10
 59.81824   -100.4 1.090e+04 7.814e-10
 59.83893   -100.2 1.084e+04 7.900e-10
 59.85247   -100.0 1.081e+04 7.959e-10
 59.86282    -99.3 1.074e+04 7.363e-10
 59.88030    -98.9 1.062e+04 7.008e-10
 59.90099    -98.3 1.049e+04 6.426e-10
 59.91420    -97.6 1.035e+04 5.675e-10
 59.91723    -97.2 1.034e+04 5.787e-10
 59.92470    -96.7 1.007e+04 5.149e-10
 59.94236    -96.1 9.929e+03 4.289e-10
 59.96305    -95.4 9.840e+03 3.657e-10
 59.97624    -94.7 9.816e+03 3.341e-10
 59.98668    -94.7 9.664e+03 3.158e-10
 60.01496    -93.5 9.512e+03 2.610e-10
 60.05633    -92.2 9.482e+03 2.485e-10
 60.08986    -91.7 9.610e+03 2.531e-10
 60.11055    -92.6 9.887e+03 3.020e-10
 60.13907    -93.0 1.081e+04 5.785e-10
 60.18044    -93.1 1.143e+04 1.061e-09
 60.21363    -93.0 1.173e+04 1.420e-09
 60.23432    -92.9 1.131e+04 1.134e-09
 60.26319    -92.6 1.123e+04 1.117e-09
 60.30456    -92.4 1.079e+04 8.457e-10
 60.33486    -92.3 1.034e+04 5.758e-10
 60.34701    -90.0 1.042e+04 6.442e-10
 60.35809    -90.6 1.013e+04 4.385e-10
 60.38730    -90.4 9.960e+03 3.996e-10
 60.42868    -89.9 9.806e+03 3.659e-10
 60.46117    -89.2 9.721e+03 3.384e-10
 60.48186    -89.1 9.702e+03 3.558e-10
 60.51142    -88.5 9.743e+03 3.314e-10
 60.55279    -88.0 9.812e+03 3.272e-10
 60.58494    -87.6 1.014e+04 3.718e-10
 60.60563    -87.7 1.019e+04 4.023e-10
 60.63554    -87.2 1.054e+04 5.015e-10
 60.67691    -86.7 1.084e+04 6.192e-10
 60.70784    -86.4 1.096e+04 6.877e-10
 60.71886    -86.5 1.098e+04 7.166e-10
 60.72920    -86.9 1.082e+04 7.112e-10
 60.74911    -86.8 1.080e+04 7.243e-10
 60.76546    -86.8 1.076e+04 7.203e-10
 60.77580    -86.3 1.089e+04 7.978e-10
 60.78074    -86.3 1.087e+04 7.973e-10
 60.79109    -86.2 1.084e+04 7.889e-10
 60.81117    -86.3 1.080e+04 7.783e-10
 60.83186    -86.4 1.079e+04 7.747e-10
 60.84263    -86.9 1.084e+04 7.801e-10
 60.85297    -87.1 1.090e+04 7.361e-10
 60.87323    -87.8 1.118e+04 8.064e-10
 60.89392    -88.7 1.158e+04 9.679e-10
 60.90451    -89.5 1.196e+04 1.181e-09
 60.91486    -89.2 1.174e+04 1.096e-09
 60.93529    -90.3 1.197e+04 1.269e-09
 60.95597    -91.4 1.201e+04 1.356e-09
 60.97569    -92.3 1.188e+04 1.178e-09
 60.98603    -91.7 1.193e+04 1.198e-09
 60.99735    -92.6 1.174e+04 1.176e-09
 61.01794    -93.5 1.153e+04 1.080e-09
 61.03863    -94.5 1.131e+04 9.889e-10
 61.05940    -95.8 1.127e+04 9.491e-10
 61.07983    -97.2 1.128e+04 9.461e-10
 61.09017    -97.3 1.143e+04 9.216e-10
 61.10078    -99.4 1.177e+04 9.825e-10
 61.12146   -101.4 1.257e+04 1.387e-09
 61.14171   -102.6 1.351e+04 2.246e-09
 61.15205   -102.6 1.339e+04 2.229e-09
 61.16283   -103.5 1.436e+04 3.193e-09
 61.18352   -104.6 1.523e+04 4.133e-09
 61.19626   -106.2 1.581e+04 4.805e-09
 61.20599   -106.1 1.588e+04 4.762e-09
 61.21394   -107.5 1.519e+04 4.151e-09
 61.22489   -110.1 1.541e+04 4.590e-09
 61.24558   -112.8 1.542e+04 4.980e-09
 61.26548   -115.4 1.533e+04 5.095e-09
 61.27582   -115.4 1.511e+04 4.630e-09
 61.28695   -117.3 1.479e+04 4.530e-09
 61.30764   -118.6 1.414e+04 3.844e-09
 61.32737   -119.5 1.336e+04 2.843e-09
 61.33771   -119.4 1.310e+04 2.470e-09
 61.34901   -120.2 1.223e+04 1.636e-09
 61.36969   -121.1 1.143e+04 1.051e-09
 61.38925   -122.3 1.084e+04 7.139e-10
 61.39959   -122.0 1.069e+04 6.407e-10
 61.40649   -123.2 1.045e+04 4.942e-10
 61.41683   -124.1 1.063e+04 5.565e-10
 61.43175   -125.3 1.060e+04 5.376e-10
 61.45113   -126.3 1.064e+04 5.516e-10
 61.46148   -125.8 1.026e+04 5.388e-10
 61.47312   -126.7 1.064e+04 6.607e-10
 61.49381   -127.3 1.104e+04 8.757e-10
 61.51302   -127.5 1.136e+04 1.101e-09
 61.52336   -127.3 1.126e+04 9.324e-10
 61.53518   -127.6 1.147e+04 1.067e-09
 61.55587   -128.0 1.157e+04 1.109e-09
 61.57490   -128.5 1.158e+04 1.110e-09
 61.58525   -128.9 1.144e+04 1.053e-09
 61.59724   -129.8 1.148e+04 1.058e-09
 61.61672   -130.8 1.153e+04 1.058e-09
 61.62706   -131.4 1.138e+04 1.032e-09
 61.63679   -132.4 1.145e+04 1.043e-09
 61.64713   -132.9 1.157e+04 1.210e-09
 61.65930   -133.6 1.172e+04 1.369e-09
 61.67998   -134.0 1.191e+04 1.555e-09
 61.69867   -134.1 1.213e+04 1.751e-09
 61.70902   -134.2 1.221e+04 1.627e-09
 61.72136   -134.2 1.231e+04 1.643e-09
 61.74204   -134.3 1.234e+04 1.633e-09
 61.76056   -134.3 1.236e+04 1.514e-09
 61.77090   -135.1 1.164e+04 9.925e-10
 61.78341   -135.3 1.138e+04 8.337e-10
 61.80410   -135.5 1.109e+04 7.005e-10
 61.82244   -135.6 1.083e+04 5.994e-10
 61.83279   -136.1 1.030e+04 4.145e-10
 61.83729   -135.7 1.015e+04 3.657e-10
 61.84763   -135.6 1.010e+04 3.666e-10
 61.86616   -134.9 1.000e+04 3.416e-10
 61.88433   -134.1 9.972e+03 3.285e-10
 61.89467   -134.1 9.888e+03 3.164e-10
 61.91797   -133.4 9.987e+03 3.218e-10
 61.94641   -131.8 9.991e+03 3.217e-10
 61.96709   -131.0 9.536e+03 2.477e-10
 62.00081   -129.0 9.676e+03 2.706e-10
 62.03737   -126.9 9.857e+03 3.052e-10
 62.05806   -126.6 1.010e+04 3.831e-10
 62.07018   -124.6 1.030e+04 4.304e-10
 62.09086   -124.2 1.049e+04 5.125e-10
 62.11449   -122.7 1.046e+04 5.023e-10
 62.13187   -122.3 1.051e+04 5.479e-10
 62.14221   -122.1 1.067e+04 5.758e-10
 62.15576   -121.1 1.082e+04 6.572e-10
 62.17645   -120.1 1.090e+04 7.069e-10
 62.19375   -119.2 1.095e+04 7.484e-10
 62.20410   -118.9 1.099e+04 7.992e-10
 62.21782   -118.0 1.099e+04 8.286e-10
 62.23851   -117.0 1.098e+04 8.433e-10
 62.25564   -116.0 1.097e+04 8.468e-10
 62.26454   -115.6 1.082e+04 7.819e-10
 62.26809   -115.9 1.125e+04 1.010e-09
 62.27988   -114.8 1.121e+04 9.755e-10
 62.30056   -113.7 1.120e+04 9.432e-10
 62.31752   -112.7 1.120e+04 9.125e-10
 62.32787   -113.0 1.113e+04 6.972e-10
 62.34194   -111.9 1.102e+04 6.633e-10
 62.36262   -110.7 1.090e+04 6.289e-10
 62.37941   -109.5 1.080e+04 5.983e-10
 62.38975   -109.6 1.037e+04 5.325e-10
 62.40399   -108.4 1.034e+04 5.188e-10
 62.42468   -107.1 1.033e+04 5.040e-10
 62.44129   -105.7 1.031e+04 4.944e-10
 62.46208   -104.8 1.027e+04 3.858e-10
 62.47852   -102.4 1.009e+04 3.623e-10
 62.49920   -103.1 9.910e+03 3.276e-10
 62.53865    -99.9 9.728e+03 2.972e-10
 62.56526    -96.9 9.610e+03 2.737e-10
 62.58594    -96.3 9.347e+03 2.029e-10
 62.62139    -93.2 9.343e+03 1.955e-10
 62.66276    -90.1 9.349e+03 1.944e-10
 62.68903    -87.3 9.477e+03 2.067e-10
 62.70971    -86.8 9.540e+03 1.773e-10
 62.74551    -84.2 9.762e+03 2.282e-10
 62.78688    -81.4 9.983e+03 3.083e-10
 62.81280    -78.6 1.023e+04 4.066e-10
 62.83348    -78.5 1.029e+04 4.662e-10
 62.86962    -75.7 1.053e+04 5.998e-10
 62.89897    -72.9 1.073e+04 7.153e-10
 62.91966    -73.4 1.067e+04 6.997e-10
 62.93657    -70.6 1.081e+04 7.754e-10
 62.95725    -70.3 1.085e+04 7.996e-10
 62.99374    -67.5 1.102e+04 8.931e-10
 63.03511    -64.6 1.117e+04 9.871e-10
 63.06034    -61.8 1.136e+04 1.088e-09
 63.08102    -61.0 1.090e+04 8.125e-10
 63.11786    -58.4 1.120e+04 9.411e-10
 63.15923    -56.1 1.175e+04 1.158e-09
 63.18410    -54.5 1.261e+04 1.570e-09
 63.20479    -54.4 1.187e+04 1.056e-09
 63.23153    -53.9 1.282e+04 1.796e-09
 63.24579    -53.5 1.330e+04 2.327e-09
 63.25614    -53.2 1.296e+04 1.982e-09
 63.27280    -52.9 1.342e+04 2.629e-09
 63.29349    -52.2 1.380e+04 3.348e-09
 63.30768    -51.2 1.413e+04 3.950e-09
 63.31802    -50.9 1.369e+04 3.286e-09
 63.32958    -50.0 1.383e+04 3.509e-09
 63.33992    -50.3 1.361e+04 3.153e-09
 63.35555    -49.5 1.354e+04 3.010e-09
 63.36956    -48.8 1.316e+04 2.384e-09
 63.37991    -48.7 1.291e+04 2.188e-09
 63.40736    -48.7 1.230e+04 1.548e-09
 63.43164    -47.9 1.147e+04 1.043e-09
 63.45233    -47.2 1.128e+04 9.757e-10
 63.49020    -45.7 1.057e+04 6.652e-10
 63.52113    -44.2 1.035e+04 5.887e-10
 63.53981    -43.3 1.007e+04 4.483e-10
 63.55015    -43.3 9.854e+03 3.725e-10
 63.55532    -42.5 9.700e+03 3.191e-10
 63.57610    -42.8 9.750e+03 3.297e-10
 63.61432    -41.6 9.490e+03 2.614e-10
 63.65569    -40.0 9.424e+03 2.453e-10
 63.67918    -38.2 9.344e+03 2.496e-10
 63.69987    -38.6 9.339e+03 3.161e-10
 63.73843    -36.4 9.375e+03 3.412e-10
 63.76057    -34.2 9.477e+03 3.720e-10
 63.78126    -34.3 9.562e+03 3.972e-10
 63.80295    -31.9 9.701e+03 4.191e-10
 63.82364    -32.0 9.448e+03 3.620e-10
 63.86255    -29.6 9.511e+03 3.812e-10
 63.90392    -27.0 9.676e+03 4.265e-10
 63.92662    -25.0 9.739e+03 4.288e-10
 63.94731    -24.6 9.190e+03 2.976e-10
 63.98667    -21.9 9.401e+03 3.303e-10
 64.01760    -20.0 9.519e+03 3.441e-10
 64.03819    -19.3 9.428e+03 3.365e-10
 64.05030    -17.7 9.462e+03 3.402e-10
 64.06064    -18.0 9.450e+03 3.071e-10
 64.07956    -17.1 9.331e+03 3.022e-10
 64.10024    -15.2 9.442e+03 3.194e-10
 64.11218    -14.6 9.746e+03 3.297e-10
 64.12252    -14.7 9.528e+03 3.288e-10
 64.14162    -15.8 1.309e+04 4.373e-10
 64.16230    -24.9 2.383e+04 1.355e-09
 64.17407    -31.4 2.543e+04 8.071e-09
 64.18226    -24.4 2.158e+04 3.872e-09
 64.19118    -29.3 2.066e+04 1.277e-08
 64.19845    -29.6 2.252e+04 2.288e-08
 64.20491    -29.3 2.232e+04 3.960e-08
 64.21008    -27.9 2.077e+04 2.540e-08
 64.21909    -27.1 2.093e+04 3.631e-08
 64.22943    -26.0 2.132e+04 4.175e-08
 64.23585    -24.5 2.144e+04 4.614e-08
 64.24102    -24.4 2.059e+04 3.387e-08
 64.25012    -23.1 2.118e+04 3.023e-08
 64.26046    -21.3 2.225e+04 2.417e-08
 64.26680    -20.2 2.362e+04 1.466e-08
 64.27197    -21.2 2.300e+04 1.240e-08
 64.28637    -23.8 2.504e+04 4.744e-09
 64.29784    -28.7 2.558e+04 1.028e-09
 64.30818    -28.5 3.309e+04 1.050e-09
 64.32779    -30.6 4.011e+04 5.117e-10
 64.34848    -29.8 4.163e+04 3.973e-10
 64.35972    -38.8 2.493e+04 2.699e-10
 64.37006    -33.1 4.925e+04 4.340e-10
 64.38985    -41.3 2.858e+04 3.346e-10
 64.40141    -41.8 2.629e+04 2.982e-10
 64.41175    -39.6 1.008e+04 3.120e-10
 64.42161    -38.0 1.000e+04 3.060e-10
 64.43195    -38.8 1.144e+04 4.432e-10
 64.45191    -37.1 1.121e+04 4.368e-10
 64.47259    -35.4 1.098e+04 4.339e-10
 64.48349    -33.7 1.074e+04 4.301e-10
 64.49383    -34.1 1.310e+04 7.442e-10
 64.51396    -32.3 1.232e+04 7.336e-10
 64.53465    -30.5 1.175e+04 7.345e-10
 64.54538    -28.9 1.155e+04 7.365e-10
 64.55572    -30.1 1.429e+04 2.230e-09
 64.57602    -28.6 1.424e+04 2.355e-09
 64.59671    -27.3 1.443e+04 2.467e-09
 64.60726    -25.7 1.468e+04 2.597e-09
 64.61185    -26.5 1.813e+04 9.014e-09
 64.62198    -25.5 1.536e+04 3.129e-09
 64.63808    -23.7 1.554e+04 3.225e-09
 64.65877    -22.3 1.554e+04 3.227e-09
 64.67945    -21.6 1.849e+04 9.369e-09
 64.70014    -20.1 1.813e+04 8.537e-09
 64.72069    -18.3 1.819e+04 8.036e-09
 64.73098    -18.3 1.925e+04 1.289e-08
 64.73624    -17.6 1.936e+04 1.252e-08
 64.74658    -16.7 1.960e+04 1.242e-08
 64.75670    -16.1 1.981e+04 1.175e-08
 64.76187    -16.3 2.057e+04 2.004e-08
 64.76727    -15.7 2.089e+04 2.016e-08
 64.77761    -15.1 2.124e+04 2.064e-08
 64.78765    -14.7 2.145e+04 2.041e-08
 64.79282    -15.1 2.132e+04 3.500e-08
 64.79830    -14.8 2.104e+04 3.438e-08
 64.80864    -14.1 2.072e+04 3.377e-08
 64.81859    -13.5 2.048e+04 3.389e-08
 64.82376    -13.3 2.023e+04 4.731e-08
 64.82694    -12.0 2.014e+04 5.358e-08
 64.83211    -12.1 2.077e+04 3.318e-08
 64.83967    -11.2 2.087e+04 3.819e-08
 64.84953    -10.9 2.096e+04 4.054e-08
 64.85470    -10.7 2.028e+04 5.908e-08
 64.86036    -10.3 2.016e+04 6.076e-08
 64.87070    -10.3 2.002e+04 6.141e-08
 64.88047    -10.2 1.993e+04 6.719e-08
 64.88564    -10.0 1.990e+04 8.482e-08
 64.89139     -9.5 2.006e+04 9.565e-08
 64.90173     -9.5 1.985e+04 9.336e-08
 64.91141     -8.6 1.894e+04 6.407e-08
 64.91659     -8.2 1.914e+04 7.796e-08
 64.92241     -7.5 1.911e+04 5.829e-08
 64.93205     -7.4 1.912e+04 5.244e-08
 64.93722     -7.7 1.946e+04 5.247e-08
 64.94236     -7.9 1.891e+04 4.433e-08
 64.94753     -7.4 1.892e+04 4.809e-08
 64.95344     -6.5 1.788e+04 3.635e-08
 64.96379     -5.4 1.752e+04 2.827e-08
 64.97330     -4.0 1.784e+04 2.341e-08
 64.97847     -4.4 1.789e+04 2.426e-08
 64.98969     -4.1 1.800e+04 1.892e-08
 65.01043     -2.8 1.761e+04 1.523e-08
 65.03011     -1.5 1.715e+04 1.283e-08
 65.04045     -0.8 1.685e+04 8.584e-09
 65.04244      0.6 1.647e+04 7.040e-09
 65.05278      0.7 1.654e+04 8.065e-09
 65.07249      2.1 1.642e+04 7.032e-09
 65.09200      3.2 1.630e+04 6.643e-09
 65.10234      2.6 1.566e+04 4.422e-09
 65.11386      3.7 1.498e+04 4.178e-09
 65.13454      5.2 1.451e+04 3.833e-09
 65.15388      7.0 1.415e+04 3.465e-09
 65.16422      6.3 1.337e+04 2.399e-09
 65.17592      8.3 1.329e+04 2.269e-09
 65.19660     10.1 1.320e+04 2.134e-09
 65.22773     12.2 1.265e+04 1.595e-09
 65.26750     15.8 1.203e+04 1.194e-09
 65.28819     16.0 1.155e+04 7.149e-10
 65.31057     18.8 1.134e+04 5.547e-10
 65.35194     21.8 1.092e+04 4.748e-10
 65.39127     25.3 1.083e+04 4.845e-10
 65.41196     25.3 1.047e+04 3.490e-10
 65.43469     28.7 1.053e+04 3.975e-10
 65.46309     32.2 1.067e+04 4.843e-10
 65.48378     32.4 1.085e+04 6.688e-10
 65.51504     35.9 1.108e+04 8.725e-10
 65.53573     36.3 1.109e+04 8.067e-10
 65.55880     39.7 1.140e+04 1.043e-09
 65.60017     43.0 1.161e+04 1.259e-09
 65.63881     46.2 1.179e+04 1.421e-09
 65.65950     47.3 1.182e+04 1.330e-09
 65.68292     50.6 1.201e+04 1.399e-09
 65.72429     54.0 1.215e+04 1.466e-09
 65.76258     56.8 1.212e+04 1.455e-09
 65.78317     57.9 1.151e+04 1.122e-09
 65.79650     59.1 1.137e+04 1.069e-09
 65.81718     60.1 1.124e+04 1.008e-09
 65.83461     60.9 1.105e+04 9.324e-10
 65.84496     61.7 1.085e+04 8.671e-10
 65.85855     62.2 1.065e+04 8.238e-10
 65.87924     62.1 1.042e+04 8.152e-10
 65.89369     61.8 1.042e+04 8.341e-10
 65.90061     60.6 1.017e+04 6.369e-10
 65.90684     60.1 1.029e+04 6.876e-10
 65.92061     60.3 1.091e+04 9.333e-10
 65.94130     60.5 1.154e+04 1.251e-09
 65.95838     60.9 1.200e+04 1.577e-09
 65.96873     60.1 1.265e+04 2.196e-09
 65.98267     61.3 1.283e+04 2.522e-09
 66.00336     62.5 1.282e+04 2.575e-09
 66.02027     63.7 1.275e+04 2.528e-09
 66.03061     63.9 1.317e+04 3.005e-09
 66.04473     65.1 1.284e+04 2.589e-09
 66.06541     66.4 1.240e+04 2.132e-09
 66.08215     67.6 1.195e+04 1.734e-09
 66.09250     67.2 1.206e+04 1.616e-09
 66.10392     67.9 1.178e+04 1.332e-09
 66.11427     67.3 1.171e+04 1.392e-09
 66.12747     68.1 1.150e+04 1.187e-09
 66.14404     68.8 1.185e+04 1.194e-09
 66.15438     61.4 2.196e+04 2.480e-09
 66.16884     59.2 2.643e+04 4.045e-09
 66.18010     59.1 2.651e+04 4.432e-09
 66.18523     54.5 3.183e+04 7.157e-09
 66.19460     52.3 3.027e+04 1.607e-08
 66.20495     51.7 2.740e+04 3.574e-08
 66.21100     52.1 2.618e+04 5.461e-08
 66.21499     50.8 2.290e+04 2.227e-07
 66.21928     52.0 2.612e+04 5.095e-08
 66.22563     52.0 2.651e+04 4.122e-08
 66.23597     51.7 2.637e+04 3.229e-08
 66.24194     51.1 2.530e+04 2.872e-08
 66.24711     49.9 2.638e+04 4.550e-08
 66.25666     49.5 2.594e+04 3.543e-08
 66.26700     49.4 2.538e+04 2.885e-08
 66.27288     49.4 2.470e+04 2.445e-08
 66.27805     47.5 2.686e+04 1.984e-08
 66.29291     44.3 2.542e+04 1.171e-08
 66.31365     40.5 2.250e+04 6.387e-09
 66.32449     35.5 1.872e+04 3.834e-09
 66.33020     36.5 1.662e+04 2.520e-09
 66.34003     32.2 1.562e+04 2.302e-09
 66.35502     30.8 1.447e+04 1.883e-09
 66.37570     29.0 1.388e+04 1.783e-09
 66.39158     26.6 1.358e+04 1.804e-09
 66.40192     25.4 1.324e+04 1.766e-09
 66.41708     22.6 1.292e+04 1.754e-09
 66.43776     20.5 1.277e+04 1.805e-09
 66.45346     19.1 1.265e+04 1.754e-09
 66.46380     19.1 1.221e+04 1.454e-09
 66.47913     18.4 1.182e+04 1.220e-09
 66.49982     17.4 1.129e+04 8.965e-10
 66.51535     15.8 1.072e+04 6.012e-10
 66.52569     16.0 1.035e+04 5.164e-10
 66.53472     14.2 9.972e+03 3.650e-10
 66.54507     14.9 1.027e+04 4.358e-10
 66.56188     12.7 9.803e+03 3.400e-10
 66.57723     11.3 9.641e+03 3.351e-10
 66.58757     12.8 9.600e+03 3.284e-10
 66.60325     12.0 9.755e+03 3.589e-10
 66.62393     10.6 1.034e+04 5.032e-10
 66.63912      8.2 1.184e+04 9.686e-10
 66.64946     10.1 1.163e+04 7.705e-10
 66.66531      6.7 1.473e+04 1.579e-09
 66.68599      4.2 1.784e+04 4.849e-09
 66.70100      3.2 1.946e+04 1.081e-08
 66.71134      4.0 2.063e+04 1.224e-08
 66.72736      4.0 2.134e+04 1.832e-08
 66.74495      3.6 2.172e+04 1.846e-08
 66.75530      6.3 2.037e+04 1.206e-08
 66.76289      4.8 2.012e+04 1.145e-08
 66.77323      6.4 2.162e+04 1.479e-08
 66.78942      4.9 2.031e+04 1.149e-08
 66.81011      2.9 1.760e+04 7.886e-09
 66.82477      2.3 1.515e+04 5.405e-09
 66.83511      4.1 1.678e+04 7.054e-09
 66.85148      3.7 1.473e+04 4.869e-09
 66.87217      4.1 1.388e+04 3.699e-09
 66.88666      4.9 1.340e+04 2.944e-09
 66.89700      5.1 1.375e+04 3.436e-09
 66.91354      5.7 1.342e+04 2.952e-09
 66.93422      6.5 1.312e+04 2.517e-09
 66.94854      7.4 1.280e+04 2.121e-09
 66.95888      7.6 1.323e+04 2.779e-09
 66.96552      8.4 1.316e+04 2.519e-09
 66.97587      9.5 1.287e+04 2.004e-09
 66.99628     10.0 1.272e+04 1.728e-09
 67.01042     10.4 1.251e+04 1.521e-09
 67.02077     10.6 1.312e+04 2.167e-09
 67.03765     11.0 1.290e+04 2.002e-09
 67.05834     11.4 1.262e+04 1.902e-09
 67.07231     12.2 1.245e+04 1.867e-09
 67.08265     12.0 1.275e+04 2.236e-09
 67.09971     12.8 1.270e+04 2.176e-09
 67.12040     13.0 1.314e+04 2.325e-09
 67.13419     12.3 1.422e+04 2.984e-09
 67.14454     11.4 1.421e+04 2.982e-09
 67.16177      8.5 1.623e+04 4.725e-09
 67.17575      6.4 1.737e+04 7.535e-09
 67.18610      7.3 1.888e+04 9.146e-09
 67.19608      7.5 1.969e+04 1.628e-08
 67.20642      7.6 1.818e+04 1.414e-08
 67.22383      8.7 1.842e+04 1.802e-08
 67.24451      9.7 1.856e+04 1.817e-08
 67.25796     11.1 1.848e+04 1.496e-08
 67.26831     12.4 1.750e+04 8.148e-09
 67.28589     12.0 1.754e+04 5.215e-09
 67.30657     10.4 1.641e+04 3.117e-09
 67.31985      8.4 1.479e+04 1.980e-09
 67.33019      7.7 1.252e+04 8.836e-10
 67.34794      7.2 1.159e+04 7.858e-10
 67.36863      7.5 1.136e+04 7.940e-10
 67.38173      7.5 1.156e+04 8.554e-10
 67.38874      8.1 1.061e+04 6.119e-10
 67.39632      8.6 1.222e+04 1.153e-09
 67.41000      8.7 1.239e+04 1.360e-09
 67.43069      9.1 1.244e+04 1.596e-09
 67.44362      9.9 1.248e+04 1.795e-09
 67.45396     10.4 1.203e+04 1.429e-09
 67.47206     11.5 1.189e+04 1.529e-09
 67.49275     12.8 1.176e+04 1.424e-09
 67.50550     14.0 1.156e+04 1.212e-09
 67.51585     14.6 1.146e+04 1.195e-09
 67.53412     16.2 1.120e+04 9.049e-10
 67.55480     17.0 1.108e+04 6.653e-10
 67.56739     17.7 1.068e+04 4.348e-10
 67.57773     18.7 1.077e+04 4.668e-10
 67.59618     18.4 1.068e+04 3.643e-10
 67.61903     19.1 1.047e+04 2.881e-10
 67.63981     20.7 1.059e+04 3.262e-10
 67.66877     22.7 1.033e+04 2.893e-10
 67.71014     25.0 1.008e+04 2.748e-10
 67.74289     27.5 1.007e+04 2.772e-10
 67.76358     28.9 1.025e+04 3.508e-10
 67.79289     31.5 1.018e+04 3.341e-10
 67.83426     34.0 1.019e+04 3.338e-10
 67.86666     36.5 1.026e+04 3.528e-10
 67.88735     38.0 1.027e+04 3.384e-10
 67.91700     40.3 1.032e+04 3.515e-10
 67.95838     42.7 1.044e+04 3.937e-10
 67.99043     45.2 1.068e+04 4.727e-10
 68.01112     46.2 1.049e+04 4.197e-10
 68.02721     48.8 1.089e+04 5.600e-10
 68.04789     49.4 1.092e+04 5.578e-10
 68.08249     51.8 1.150e+04 7.711e-10
 68.11342     52.7 1.163e+04 8.736e-10
 68.12435     53.7 1.177e+04 9.702e-10
 68.13469     54.7 1.184e+04 9.897e-10
 68.15470     55.6 1.194e+04 1.036e-09
 68.17538     56.6 1.199e+04 1.054e-09
 68.18624     57.5 1.202e+04 1.035e-09
 68.19658     58.3 1.209e+04 9.848e-10
 68.21676     58.9 1.209e+04 9.481e-10
 68.23724     59.3 1.202e+04 9.143e-10
 68.24758     59.5 1.278e+04 1.468e-09
 68.24812     59.8 1.272e+04 1.412e-09
 68.25846     60.2 1.271e+04 1.363e-09
 68.27881     60.2 1.253e+04 1.353e-09
 68.29950     60.3 1.234e+04 1.337e-09
 68.31001     60.6 1.213e+04 1.260e-09
 68.32035     61.3 1.218e+04 1.395e-09
 68.34087     61.4 1.209e+04 1.283e-09
 68.36165     61.5 1.164e+04 9.884e-10
 68.38233     63.2 1.183e+04 1.169e-09
 68.41337     64.2 1.136e+04 8.486e-10
 68.44766     65.3 1.067e+04 4.822e-10
 68.46835     64.3 1.072e+04 4.479e-10
 68.48551     65.2 1.000e+04 2.437e-10
 68.50620     66.4 1.029e+04 3.255e-10
 68.53758     67.6 9.737e+03 1.889e-10
 68.57896     69.2 9.386e+03 1.629e-10
 68.60928     71.5 9.232e+03 1.605e-10
 68.62997     72.4 9.392e+03 1.790e-10
 68.66170     74.7 9.298e+03 1.779e-10
 68.70307     76.9 9.250e+03 1.779e-10
 68.73305     79.0 9.199e+03 1.767e-10
 68.75374     79.9 9.341e+03 2.071e-10
 68.78582     81.8 9.252e+03 1.984e-10
 68.82719     83.8 9.138e+03 1.869e-10
 68.85682     85.7 9.038e+03 1.687e-10
 68.87707     86.8 9.100e+03 1.816e-10
 68.88881     86.4 8.985e+03 1.750e-10
 68.90993     88.3 8.863e+03 1.532e-10
 68.95130     90.2 8.754e+03 1.332e-10
 68.98059     92.1 8.663e+03 1.188e-10
 69.00128     93.0 8.620e+03 1.060e-10
 69.03405     94.8 8.588e+03 9.998e-11
 69.07542     96.6 8.559e+03 9.599e-11
 69.10436     98.5 8.581e+03 9.305e-11
 69.12505     99.2 8.679e+03 9.016e-11
 69.15816    101.0 8.681e+03 8.933e-11
 69.19954    102.8 8.674e+03 8.749e-11
 69.22813    104.6 8.656e+03 8.637e-11
 69.24882    105.3 8.749e+03 8.462e-11
 69.28228    107.2 8.713e+03 7.901e-11
 69.30926    109.1 8.705e+03 7.553e-11
 69.32995    109.0 8.544e+03 6.316e-11
 69.35190    111.0 8.512e+03 6.627e-11
 69.37259    111.6 8.512e+03 5.590e-11
 69.40640    113.6 8.507e+03 6.058e-11
 69.44777    115.5 8.598e+03 6.978e-11
 69.47567    117.3 8.723e+03 8.450e-11
 69.49636    117.8 8.674e+03 8.193e-11
 69.53051    119.5 8.850e+03 1.014e-10
 69.57188    121.1 9.038e+03 1.328e-10
 69.59944    122.6 9.269e+03 1.818e-10
 69.62012    122.9 9.341e+03 1.911e-10
 69.65463    124.3 9.661e+03 2.713e-10
 69.69600    125.7 1.009e+04 3.964e-10
 69.72321    126.8 1.068e+04 5.944e-10
 69.73624    127.0 1.054e+04 5.599e-10
 69.75041    127.0 1.050e+04 5.561e-10
 69.77874    127.9 1.107e+04 8.178e-10
 69.82012    128.3 1.165e+04 1.157e-09
 69.84688    128.0 1.198e+04 1.402e-09
 69.85713    127.9 1.209e+04 1.472e-09
 69.87164    127.6 1.247e+04 1.784e-09
 69.89232    127.3 1.285e+04 2.199e-09
 69.90867    127.1 1.312e+04 2.565e-09
 69.91901    127.1 1.336e+04 2.989e-09
 69.93369    127.0 1.344e+04 3.117e-09
 69.95010    126.7 1.341e+04 3.077e-09
 69.96044    126.4 1.334e+04 3.004e-09
 69.97055    126.4 1.314e+04 2.770e-09
 69.98090    126.5 1.336e+04 3.114e-09
 69.99575    126.5 1.299e+04 2.595e-09
 70.02688    126.3 1.235e+04 1.804e-09
 70.06835    125.0 1.139e+04 1.098e-09
 70.09442    123.8 1.094e+04 8.695e-10
 70.10467    123.9 1.042e+04 6.493e-10
 70.11987    123.2 1.027e+04 6.181e-10
 70.14055    122.6 1.025e+04 6.184e-10
 70.15621    122.1 1.024e+04 6.260e-10
 70.16564    122.1 1.018e+04 5.900e-10
 70.17067    122.0 9.980e+03 5.081e-10
 70.18192    121.2 1.012e+04 5.769e-10
 70.20261    120.8 1.022e+04 6.337e-10
 70.21819    120.2 1.040e+04 7.219e-10
 70.23897    121.0 1.036e+04 7.304e-10
 70.27521    120.1 1.066e+04 8.964e-10
 70.31658    119.4 1.061e+04 8.645e-10
 70.34206    119.0 1.028e+04 6.824e-10
 70.36274    119.0 1.094e+04 1.025e-09
 70.39932    118.1 1.064e+04 8.315e-10
 70.44070    117.3 1.050e+04 7.835e-10
 70.46583    117.0 1.052e+04 8.143e-10
 70.48651    116.3 1.070e+04 9.506e-10
 70.52344    116.2 1.047e+04 8.511e-10
 70.56481    116.4 1.022e+04 7.368e-10
 70.58960    116.8 9.962e+03 6.000e-10
 70.59542    115.4 9.528e+03 4.314e-10
 70.61201    116.5 9.609e+03 4.971e-10
 70.64756    116.7 9.425e+03 4.229e-10
 70.68893    116.9 9.207e+03 3.569e-10
 70.71337    117.1 8.980e+03 3.036e-10
 70.73405    115.8 8.992e+03 3.158e-10
 70.77167    116.3 8.792e+03 2.761e-10
 70.81304    117.0 8.642e+03 2.512e-10
 70.83714    118.0 8.539e+03 2.444e-10
 70.85782    117.5 8.604e+03 2.980e-10
 70.89579    119.1 8.532e+03 2.903e-10
 70.93716    120.8 8.465e+03 2.748e-10
 70.96090    122.7 8.371e+03 2.490e-10
 70.98159    123.0 8.177e+03 2.062e-10
 71.01178    124.8 8.037e+03 1.666e-10
 71.03247    125.0 8.060e+03 1.710e-10
 71.06127    126.7 7.921e+03 1.370e-10
 71.08467    128.4 7.854e+03 1.228e-10
 71.10536    128.3 7.720e+03 9.191e-11
 71.14402    130.2 7.719e+03 9.795e-11
 71.18539    132.1 7.799e+03 1.146e-10
 71.20844    134.1 7.952e+03 1.413e-10
 71.22913    134.1 8.015e+03 1.459e-10
 71.26813    136.0 8.273e+03 1.931e-10
 71.30951    137.6 8.529e+03 2.421e-10
 71.33221    139.1 8.754e+03 2.694e-10
 71.35290    138.9 8.909e+03 2.979e-10
 71.39225    140.1 8.897e+03 2.933e-10
 71.43224    141.4 8.819e+03 2.695e-10
 71.45292    141.4 8.623e+03 2.225e-10
 71.45598    142.8 8.543e+03 2.035e-10
 71.47667    142.6 8.471e+03 1.874e-10
 71.51637    144.1 8.396e+03 1.647e-10
 71.55774    145.7 8.398e+03 1.621e-10
 71.57975    147.4 8.425e+03 1.647e-10
 71.60044    147.2 8.378e+03 1.477e-10
 71.64048    148.9 8.479e+03 1.629e-10
 71.68185    150.6 8.665e+03 1.924e-10
 71.70352    152.2 8.946e+03 2.383e-10
 71.72421    152.2 8.805e+03 2.140e-10
 71.76460    153.9 9.163e+03 2.708e-10
 71.80597    155.1 9.546e+03 3.489e-10
 71.82719    155.6 9.721e+03 3.916e-10
 71.84788    156.7 9.727e+03 3.822e-10
 71.87328    157.2 9.964e+03 4.598e-10
 71.88353    157.4 9.897e+03 4.094e-10
 71.88898    157.9 1.021e+04 5.269e-10
 71.89932    158.0 1.013e+04 4.747e-10
 71.91955    158.6 1.044e+04 6.134e-10
 71.94023    159.3 1.079e+04 7.931e-10
 71.95087    159.9 1.117e+04 9.945e-10
 71.96121    160.1 1.077e+04 7.837e-10
 71.98161    160.6 1.114e+04 9.796e-10
 72.00229    160.9 1.148e+04 1.164e-09
 72.01275    161.2 1.176e+04 1.310e-09
 72.02309    161.5 1.147e+04 1.141e-09
 72.04366    161.7 1.173e+04 1.265e-09
 72.06429    161.9 1.190e+04 1.334e-09
 72.08336    162.5 1.183e+04 1.285e-09
 72.09376    162.7 1.160e+04 1.154e-09
 72.10572    163.0 1.175e+04 1.218e-09
 72.12618    163.3 1.182e+04 1.243e-09
 72.13652    163.5 1.183e+04 1.220e-09
 72.14709    163.8 1.190e+04 1.241e-09
 72.16778    164.1 1.188e+04 1.220e-09
 72.18806    164.3 1.182e+04 1.158e-09
 72.19841    164.6 1.183e+04 1.184e-09
 72.20915    164.8 1.171e+04 1.088e-09
 72.22984    165.1 1.154e+04 9.577e-10
 72.24995    165.4 1.133e+04 8.091e-10
 72.26029    165.6 1.139e+04 8.412e-10
 72.27121    165.8 1.116e+04 6.792e-10
 72.29190    166.0 1.094e+04 5.259e-10
 72.30399    166.0 1.075e+04 4.130e-10
 72.31358    166.7 1.091e+04 5.194e-10
 72.32218    166.7 1.100e+04 5.630e-10
 72.33327    166.8 1.079e+04 4.443e-10
 72.35395    166.9 1.060e+04 3.647e-10
 72.37372    167.1 1.041e+04 3.375e-10
 72.38406    167.3 1.052e+04 3.629e-10
 72.39533    167.4 1.042e+04 3.445e-10
 72.42536    168.4 1.039e+04 3.523e-10
 72.44604    168.3 1.044e+04 3.810e-10
 72.46782    169.5 1.047e+04 4.005e-10
 72.50929    170.6 1.032e+04 3.786e-10
 72.54922    171.6 1.013e+04 3.390e-10
 72.56991    171.7 1.006e+04 3.155e-10
 72.59204    172.7 9.730e+03 2.569e-10
 72.63341    173.8 9.652e+03 2.494e-10
 72.67299    175.2 9.694e+03 2.584e-10
 72.69368    175.3 9.761e+03 2.696e-10
 72.71430    176.3 9.957e+03 3.202e-10
 72.73498    176.4 1.001e+04 3.454e-10
 72.74512    176.9 1.010e+04 3.816e-10
 72.75537    177.0 1.015e+04 3.927e-10
 72.76767    177.5 1.036e+04 4.627e-10
 72.78836    177.5 1.072e+04 6.038e-10
 72.80691    177.4 1.087e+04 6.828e-10
 72.81725    177.5 1.099e+04 7.477e-10
 72.84017    178.0 1.120e+04 8.428e-10
 72.88164    177.8 1.139e+04 8.829e-10
 72.92053    177.2 1.141e+04 8.581e-10
 72.94122    177.2 1.104e+04 6.814e-10
 72.96439    176.6 1.076e+04 5.118e-10
 73.00576    175.9 1.036e+04 3.797e-10
 73.04430    175.5 9.880e+03 3.269e-10
 73.06499    176.7 9.775e+03 3.281e-10
 73.08850    176.9 9.751e+03 3.286e-10
 73.12987    177.4 9.748e+03 3.394e-10
 73.15544    178.1 9.791e+03 3.641e-10
 73.17295    178.2 9.700e+03 3.410e-10
 73.18876    179.5 9.862e+03 3.993e-10
 73.21262    180.0 9.881e+03 4.119e-10
 73.25399    180.5 9.861e+03 4.060e-10
 73.29184    181.0 9.742e+03 3.723e-10
 73.31253    182.3 9.902e+03 4.503e-10
 73.33673    182.9 9.726e+03 3.915e-10
 73.37811    183.7 9.479e+03 3.159e-10
 73.41561    184.7 9.244e+03 2.540e-10
 73.43630    185.9 9.420e+03 3.173e-10
 73.46085    186.9 9.235e+03 2.585e-10
 73.50222    188.0 9.063e+03 2.135e-10
 73.53938    189.4 8.923e+03 1.781e-10
 73.56007    190.3 9.066e+03 2.065e-10
 73.57590    191.6 8.959e+03 1.762e-10
 73.59658    191.3 8.982e+03 1.782e-10
 73.62634    192.7 8.870e+03 1.502e-10
 73.66315    194.0 8.759e+03 1.285e-10
 73.68384    194.6 8.961e+03 1.622e-10
 73.70908    195.9 8.875e+03 1.448e-10
 73.75045    197.2 8.775e+03 1.322e-10
 73.78692    198.6 8.679e+03 1.251e-10
 73.80761    199.2 9.011e+03 1.759e-10
 73.83320    200.7 8.926e+03 1.674e-10
 73.87457    202.3 8.886e+03 1.663e-10
 73.91069    203.8 8.883e+03 1.688e-10
 73.93138    204.5 9.329e+03 2.425e-10
 73.95731    205.9 9.351e+03 2.507e-10
 73.99635    207.2 9.429e+03 2.717e-10
 74.01704    206.6 9.349e+03 2.572e-10
 74.03446    207.7 9.432e+03 2.759e-10
 74.05515    207.7 1.000e+04 3.936e-10
 74.08143    208.7 1.006e+04 4.083e-10
 74.12280    209.6 1.008e+04 4.100e-10
 74.15823    210.1 1.006e+04 4.042e-10
 74.17882    209.9 1.033e+04 5.046e-10
 74.19501    210.0 1.036e+04 5.171e-10
 74.21569    210.0 1.042e+04 5.399e-10
 74.22707    209.9 1.053e+04 5.832e-10
 74.23130    209.7 1.038e+04 5.223e-10
 74.24060    209.5 1.067e+04 6.398e-10
 74.25706    209.3 1.082e+04 7.022e-10
 74.27775    209.0 1.101e+04 7.881e-10
 74.29215    208.8 1.120e+04 8.913e-10
 74.30249    208.4 1.151e+04 1.001e-09
 74.31912    208.2 1.167e+04 1.096e-09
 74.33981    208.1 1.183e+04 1.191e-09
 74.35403    208.1 1.199e+04 1.286e-09
 74.36437    207.4 1.210e+04 1.324e-09
 74.38118    207.3 1.220e+04 1.394e-09
 74.40187    207.2 1.230e+04 1.452e-09
 74.41592    207.2 1.237e+04 1.487e-09
 74.42636    206.0 1.248e+04 1.477e-09
 74.43750    206.2 1.243e+04 1.441e-09
 74.44774    205.6 1.250e+04 1.455e-09
 74.46392    205.7 1.253e+04 1.460e-09
 74.47780    205.9 1.249e+04 1.429e-09
 74.48814    205.5 1.243e+04 1.380e-09
 74.50530    205.6 1.239e+04 1.341e-09
 74.52598    206.0 1.224e+04 1.219e-09
 74.53969    206.3 1.208e+04 1.121e-09
 74.55013    205.6 1.191e+04 8.604e-10
 74.57789    206.6 1.141e+04 6.008e-10
 74.61926    208.0 1.090e+04 4.164e-10
 74.65331    209.6 1.053e+04 3.081e-10
 74.67399    209.1 1.026e+04 2.175e-10
 74.70201    210.9 1.023e+04 2.129e-10
 74.74338    212.9 1.024e+04 2.166e-10
 74.77708    214.8 1.030e+04 2.282e-10
 74.79776    214.9 1.020e+04 2.298e-10
 74.82612    216.8 1.032e+04 2.490e-10
 74.85796    218.6 1.043e+04 2.698e-10
 74.87864    217.8 1.048e+04 3.016e-10
 74.90085    219.4 1.051e+04 3.237e-10
 74.92153    220.1 1.041e+04 3.005e-10
 74.95024    221.6 1.042e+04 3.119e-10
 74.99161    223.1 1.041e+04 3.171e-10
 75.02462    224.7 1.040e+04 3.193e-10
 75.04530    225.5 1.038e+04 3.163e-10
 75.07436    227.1 1.039e+04 3.145e-10
 75.11573    228.7 1.038e+04 3.067e-10
 75.14839    230.5 1.032e+04 2.878e-10
 75.16907    230.9 1.042e+04 3.120e-10
 75.19847    232.6 1.037e+04 2.925e-10
 75.23984    234.4 1.027e+04 2.669e-10
 75.27216    236.1 1.016e+04 2.415e-10
 75.29004    236.2 1.046e+04 3.116e-10
 75.29910    236.3 1.064e+04 3.664e-10
 75.32259    238.3 1.048e+04 3.171e-10
 75.36396    240.2 1.028e+04 2.734e-10
 75.39593    241.8 1.009e+04 2.377e-10
 75.41661    242.1 1.042e+04 3.035e-10
 75.44670    243.7 1.027e+04 2.785e-10
 75.48808    245.0 1.022e+04 2.759e-10
 75.51969    246.1 1.024e+04 2.785e-10
 75.54028    246.3 1.039e+04 3.233e-10
 75.56028    246.7 1.040e+04 3.261e-10
 75.58097    247.1 1.043e+04 3.288e-10
 75.59173    247.4 1.044e+04 3.308e-10
 75.60207    247.4 1.062e+04 3.892e-10
 75.62234    247.7 1.059e+04 3.827e-10
 75.64303    248.0 1.056e+04 3.729e-10
 75.65361    248.3 1.053e+04 3.644e-10
 75.66396    248.2 1.069e+04 4.268e-10
 75.68440    248.4 1.063e+04 4.114e-10
 75.70508    248.8 1.061e+04 4.045e-10
 75.71936    248.7 1.084e+04 4.775e-10
 75.72970    248.8 1.093e+04 5.066e-10
 75.74646    249.1 1.099e+04 5.197e-10
 75.76704    249.5 1.107e+04 5.388e-10
 75.77738    248.2 1.192e+04 7.460e-10
 75.78783    248.4 1.213e+04 8.003e-10
 75.80851    248.6 1.235e+04 8.671e-10
 75.82892    248.7 1.257e+04 9.466e-10
 75.83927    246.8 1.403e+04 1.928e-09
 75.84989    247.1 1.423e+04 2.111e-09
 75.87057    247.2 1.437e+04 2.242e-09
 75.89081    247.3 1.443e+04 2.295e-09
 75.90115    246.3 1.493e+04 3.809e-09
 75.91194    246.3 1.497e+04 3.730e-09
 75.92959    246.3 1.500e+04 3.522e-09
 75.93993    246.1 1.513e+04 3.751e-09
 75.95269    246.0 1.504e+04 3.361e-09
 75.96304    244.7 1.498e+04 4.076e-09
 75.97400    244.5 1.498e+04 3.895e-09
 75.99469    244.3 1.492e+04 3.631e-09
 76.01458    244.2 1.479e+04 3.340e-09
 76.02492    243.5 1.495e+04 4.248e-09
 76.03606    243.4 1.495e+04 4.105e-09
 76.05675    243.3 1.502e+04 3.931e-09
 76.07646    243.0 1.507e+04 3.918e-09
 76.08681    242.1 1.529e+04 4.488e-09
 76.09812    241.1 1.553e+04 4.770e-09
 76.11880    239.9 1.570e+04 5.088e-09
 76.13427    238.9 1.613e+04 6.030e-09
 76.14342    238.1 1.654e+04 7.098e-09
 76.14859    237.9 1.644e+04 6.901e-09
 76.15006    237.2 1.689e+04 8.291e-09
 76.15524    236.7 1.737e+04 9.640e-09
 76.16525    235.9 1.793e+04 1.176e-08
 76.17436    234.9 1.856e+04 1.442e-08
 76.17954    234.2 1.854e+04 1.374e-08
 76.18594    232.6 1.916e+04 1.638e-08
 76.19628    230.6 1.979e+04 1.932e-08
 76.20531    228.2 2.049e+04 2.276e-08
 76.21048    226.8 2.037e+04 1.791e-08
 76.21696    223.7 2.116e+04 2.102e-08
 76.22731    220.4 2.186e+04 2.400e-08
 76.23625    216.8 2.234e+04 2.475e-08
 76.24142    215.3 2.196e+04 2.001e-08
 76.24799    211.6 2.191e+04 1.976e-08
 76.25518    207.8 2.172e+04 1.851e-08
 76.26035    206.8 2.170e+04 1.986e-08
 76.26719    203.4 2.126e+04 1.651e-08
 76.27241    203.3 2.064e+04 1.287e-08
 76.28429    197.3 1.917e+04 8.261e-09
 76.30498    192.5 1.705e+04 4.258e-09
 76.32400    188.1 1.442e+04 1.909e-09
 76.33435    187.5 1.386e+04 1.722e-09
 76.34635    184.4 1.266e+04 9.775e-10
 76.36039    180.5 1.133e+04 5.752e-10
 76.37073    179.7 1.085e+04 4.267e-10
 76.38598    176.2 1.071e+04 4.070e-10
 76.40677    177.5 1.082e+04 4.229e-10
 76.43963    174.9 1.043e+04 3.686e-10
 76.48100    173.8 1.031e+04 3.492e-10
 76.50985    173.4 1.025e+04 3.236e-10
 76.53054    173.9 1.032e+04 3.520e-10
 76.56047    173.7 1.017e+04 2.924e-10
 76.58116    174.1 1.005e+04 2.750e-10
 76.60512    174.1 9.927e+03 2.238e-10
 76.63362    174.1 9.772e+03 1.750e-10
 76.65431    174.3 9.824e+03 1.836e-10
 76.68786    174.2 9.566e+03 1.544e-10
 76.72924    174.2 9.474e+03 1.531e-10
 76.75739    174.8 9.457e+03 1.547e-10
 76.77808    174.7 9.477e+03 1.818e-10
 76.81198    175.3 9.449e+03 1.896e-10
 76.85335    176.0 9.440e+03 1.937e-10
 76.88116    176.6 9.421e+03 1.916e-10
 76.90185    176.6 9.431e+03 1.959e-10
 76.93610    177.4 9.300e+03 1.756e-10
 76.97747    178.4 9.133e+03 1.431e-10
 77.00161    179.4 8.943e+03 1.105e-10
 77.00839    179.1 8.933e+03 1.111e-10
 77.02562    179.1 8.876e+03 9.422e-11
 77.06021    180.1 8.746e+03 8.556e-11
 77.10158    181.3 8.732e+03 8.545e-11
 77.12870    182.5 8.728e+03 8.666e-11
 77.14939    182.7 8.759e+03 7.927e-11
 77.18433    183.8 8.740e+03 8.823e-11
 77.22570    185.0 8.757e+03 1.042e-10
 77.25247    186.1 8.916e+03 1.366e-10
 77.27316    186.1 9.052e+03 1.402e-10
 77.30844    187.3 9.463e+03 2.207e-10
 77.34982    188.1 9.900e+03 3.382e-10
 77.37614    188.0 1.012e+04 4.118e-10
 77.38639    188.0 1.008e+04 3.991e-10
 77.40134    188.1 1.028e+04 4.724e-10
 77.42188    188.3 1.056e+04 5.841e-10
 77.43222    188.0 1.049e+04 5.701e-10
 77.43793    188.3 1.081e+04 7.184e-10
 77.44827    188.3 1.088e+04 7.436e-10
 77.46339    188.4 1.120e+04 9.115e-10
 77.48408    188.4 1.140e+04 9.685e-10
 77.49981    188.2 1.145e+04 9.833e-10
 77.51016    188.1 1.149e+04 1.014e-09
 77.52545    188.0 1.157e+04 1.057e-09
 77.55658    187.9 1.181e+04 1.152e-09
 77.59805    187.8 1.182e+04 1.150e-09
 77.62368    187.6 1.184e+04 1.167e-09
 77.64437    187.3 1.211e+04 1.267e-09
 77.67035    187.0 1.209e+04 1.266e-09
 77.68547    187.0 1.207e+04 1.256e-09
 77.69581    186.8 1.211e+04 1.261e-09
 77.71162    186.8 1.210e+04 1.262e-09
 77.73231    186.9 1.210e+04 1.267e-09
 77.74735    186.9 1.214e+04 1.287e-09
 77.75770    186.4 1.210e+04 1.236e-09
 77.77368    186.2 1.221e+04 1.282e-09
 77.79437    185.9 1.238e+04 1.355e-09
 77.80924    185.4 1.258e+04 1.451e-09
 77.81958    184.5 1.247e+04 1.379e-09
 77.83574    183.7 1.263e+04 1.483e-09
 77.85268    182.8 1.275e+04 1.582e-09
 77.86302    182.7 1.265e+04 1.491e-09
 77.87112    181.8 1.280e+04 1.605e-09
 77.88147    181.3 1.265e+04 1.523e-09
 77.89780    180.4 1.280e+04 1.616e-09
 77.91848    179.3 1.295e+04 1.689e-09
 77.93301    178.0 1.303e+04 1.701e-09
 77.94335    177.9 1.263e+04 1.460e-09
 77.95986    176.7 1.257e+04 1.405e-09
 77.98054    175.6 1.244e+04 1.300e-09
 77.99489    174.5 1.228e+04 1.158e-09
 78.00523    174.7 1.212e+04 8.399e-10
 78.02191    173.7 1.198e+04 7.061e-10
 78.04260    172.7 1.182e+04 5.854e-10
 78.05678    171.9 1.165e+04 4.887e-10
 78.06674    171.9 1.128e+04 3.856e-10
 78.07325    172.3 1.136e+04 3.453e-10
 78.08397    171.7 1.114e+04 3.170e-10
 78.10466    171.2 1.096e+04 2.996e-10
 78.11866    170.9 1.084e+04 2.829e-10
 78.13945    171.6 1.065e+04 2.473e-10
 78.17726    171.5 1.068e+04 2.481e-10
 78.21863    171.4 1.075e+04 2.550e-10
 78.24253    172.0 1.077e+04 2.619e-10
 78.26321    173.8 1.066e+04 2.536e-10
 78.28358    173.9 1.085e+04 2.975e-10
 78.29382    174.2 1.106e+04 3.315e-10
 78.30432    174.1 1.153e+04 4.775e-10
 78.31466    175.2 1.100e+04 3.670e-10
 78.33220    174.8 1.174e+04 5.742e-10
 78.35289    173.6 1.297e+04 1.135e-09
 78.36620    172.0 1.437e+04 2.490e-09
 78.37654    173.5 1.395e+04 1.744e-09
 78.39426    171.9 1.539e+04 3.960e-09
 78.41495    170.7 1.658e+04 7.294e-09
 78.42809    169.2 1.756e+04 9.160e-09
 78.43843    170.4 1.729e+04 8.631e-09
 78.45632    168.2 1.771e+04 8.812e-09
 78.47701    165.4 1.772e+04 7.994e-09
 78.48997    162.3 1.730e+04 5.373e-09
 78.49633    163.4 1.742e+04 6.074e-09
 78.50405    163.1 1.765e+04 6.393e-09
 78.51838    159.4 1.651e+04 3.693e-09
 78.53906    155.2 1.450e+04 1.966e-09
 78.55186    151.7 1.229e+04 1.164e-09
 78.56220    152.3 1.334e+04 1.673e-09
 78.58044    149.9 1.189e+04 1.176e-09
 78.60112    148.9 1.133e+04 8.902e-10
 78.61374    148.5 1.109e+04 6.890e-10
 78.62408    148.7 1.161e+04 1.004e-09
 78.64249    148.6 1.127e+04 7.697e-10
 78.66318    148.3 1.089e+04 5.789e-10
 78.67562    148.1 1.053e+04 4.419e-10
 78.68597    148.5 1.096e+04 6.253e-10
 78.70393    148.4 1.060e+04 4.622e-10
 78.71428    147.9 1.059e+04 4.806e-10
 78.72524    147.9 1.033e+04 3.830e-10
 78.73751    147.9 1.015e+04 3.146e-10
 78.74785    148.1 1.049e+04 4.156e-10
 78.76661    148.2 1.032e+04 3.434e-10
 78.78730    148.4 1.020e+04 3.084e-10
 78.79939    148.5 1.013e+04 2.996e-10
 78.80974    148.8 1.023e+04 3.161e-10
 78.82867    149.1 1.003e+04 2.930e-10
 78.84935    149.4 9.976e+03 2.919e-10
 78.86128    150.0 9.958e+03 2.934e-10
 78.87162    150.2 1.005e+04 3.193e-10
 78.89073    150.6 1.005e+04 3.226e-10
 78.91141    151.1 1.008e+04 3.390e-10
 78.92316    151.5 1.020e+04 3.847e-10
 78.92592    151.6 1.042e+04 4.392e-10
 78.93485    151.0 1.058e+04 5.006e-10
 78.95278    151.2 1.075e+04 5.770e-10
 78.97347    151.4 1.096e+04 6.820e-10
 78.98505    151.3 1.118e+04 8.076e-10
 78.99539    151.0 1.139e+04 8.907e-10
 79.01484    150.8 1.161e+04 1.037e-09
 79.03553    150.3 1.189e+04 1.230e-09
 79.04693    149.4 1.225e+04 1.503e-09
 79.05728    149.1 1.240e+04 1.623e-09
 79.07690    148.0 1.278e+04 2.034e-09
 79.09759    147.0 1.328e+04 2.577e-09
 79.10882    146.0 1.376e+04 3.019e-09
 79.11916    145.8 1.375e+04 2.893e-09
 79.13474    144.4 1.389e+04 2.909e-09
 79.14508    143.8 1.405e+04 3.202e-09
 79.15964    142.1 1.404e+04 3.089e-09
 79.17070    140.5 1.385e+04 2.575e-09
 79.18105    140.0 1.368e+04 2.242e-09
 79.20102    137.8 1.317e+04 1.591e-09
 79.22170    135.9 1.260e+04 1.164e-09
 79.23269    132.8 1.186e+04 7.242e-10
 79.25347    132.5 1.176e+04 7.557e-10
 79.29430    130.0 1.042e+04 3.524e-10
 79.33567    128.0 9.295e+03 1.709e-10
 79.35655    127.6 9.218e+03 1.499e-10
 79.37724    129.0 9.430e+03 1.838e-10
 79.41841    129.3 9.428e+03 1.846e-10
 79.45964    130.0 9.446e+03 1.911e-10
 79.50101    131.4 9.889e+03 2.775e-10
 79.54253    131.5 9.962e+03 3.154e-10
 79.56573    131.3 1.003e+04 3.599e-10
 79.57598    131.8 9.985e+03 3.508e-10
 79.59355    132.1 1.001e+04 3.854e-10
 79.60390    133.0 1.003e+04 4.001e-10
 79.61474    133.3 1.023e+04 4.718e-10
 79.63542    133.5 1.050e+04 5.597e-10
 79.65544    133.6 1.078e+04 6.519e-10
 79.66578    134.1 1.077e+04 6.383e-10
 79.67679    133.8 1.099e+04 6.959e-10
 79.69748    133.4 1.116e+04 7.166e-10
 79.71732    132.6 1.126e+04 7.203e-10
 79.72767    133.1 1.109e+04 6.662e-10
 79.73885    132.0 1.117e+04 6.381e-10
 79.75954    130.7 1.122e+04 6.404e-10
 79.77576    129.0 1.134e+04 6.726e-10
 79.78509    130.5 1.134e+04 7.092e-10
 79.78955    131.2 1.113e+04 5.963e-10
 79.80091    129.5 1.117e+04 6.151e-10
 79.82160    127.8 1.126e+04 7.008e-10
 79.84109    126.4 1.141e+04 8.792e-10
 79.85144    126.9 1.112e+04 6.800e-10
 79.86297    125.7 1.141e+04 9.118e-10
 79.88365    124.6 1.187e+04 1.228e-09
 79.90298    123.2 1.250e+04 1.606e-09
 79.91332    123.5 1.239e+04 1.485e-09
 79.92503    121.7 1.311e+04 2.003e-09
 79.94571    119.6 1.354e+04 2.327e-09
 79.96486    117.4 1.354e+04 2.321e-09
 79.97521    117.7 1.379e+04 2.614e-09
 79.98599    115.6 1.368e+04 2.493e-09
 79.99634    116.6 1.374e+04 2.529e-09
 80.00777    114.4 1.339e+04 2.215e-09
 80.02675    112.3 1.288e+04 1.686e-09
 80.03709    112.6 1.313e+04 1.982e-09
 80.04914    110.0 1.256e+04 1.431e-09
 80.06983    106.9 1.198e+04 1.121e-09
 80.08863    104.0 1.158e+04 1.091e-09
 80.09898    103.9 1.182e+04 1.266e-09
 80.11120    101.7 1.177e+04 1.294e-09
 80.13189    100.3 1.176e+04 1.399e-09
 80.15052     99.4 1.185e+04 1.520e-09
 80.16086     99.1 1.211e+04 1.691e-09
 80.17326     98.4 1.219e+04 1.748e-09
 80.19394     97.8 1.218e+04 1.719e-09
 80.20656     97.3 1.208e+04 1.605e-09
 80.21468     97.0 1.223e+04 1.747e-09
 80.22275     96.2 1.247e+04 1.940e-09
 80.23532     95.6 1.242e+04 1.888e-09
 80.25600     95.1 1.237e+04 1.855e-09
 80.27429     94.6 1.237e+04 1.858e-09
 80.28463     94.0 1.262e+04 2.075e-09
 80.29737     93.7 1.261e+04 2.040e-09
 80.31806     93.3 1.259e+04 1.994e-09
 80.33617     92.8 1.263e+04 1.974e-09
 80.34651     92.2 1.260e+04 1.941e-09
 80.35943     91.5 1.270e+04 1.986e-09
 80.38012     90.8 1.291e+04 2.089e-09
 80.39806     90.0 1.306e+04 2.126e-09
 80.40840     88.7 1.337e+04 2.395e-09
 80.41679     87.8 1.336e+04 2.376e-09
 80.42714     87.8 1.296e+04 2.000e-09
 80.44218     86.9 1.286e+04 1.909e-09
 80.45994     86.2 1.266e+04 1.772e-09
 80.47028     85.5 1.291e+04 2.001e-09
 80.48355     85.0 1.260e+04 1.796e-09
 80.50423     84.6 1.232e+04 1.648e-09
 80.52183     84.4 1.215e+04 1.570e-09
 80.53217     83.9 1.218e+04 1.570e-09
 80.54561     83.8 1.200e+04 1.477e-09
 80.56629     83.9 1.185e+04 1.393e-09
 80.58371     84.0 1.170e+04 1.303e-09
 80.59405     83.7 1.136e+04 1.121e-09
 80.60766     83.9 1.115e+04 1.003e-09
 80.62702     83.9 1.099e+04 9.089e-10
 80.63737     83.9 1.141e+04 1.113e-09
 80.64560     83.7 1.130e+04 1.030e-09
 80.65594     83.7 1.086e+04 8.211e-10
 80.66972     83.6 1.085e+04 8.102e-10
 80.69041     83.4 1.091e+04 8.268e-10
 80.70748     83.0 1.108e+04 8.912e-10
 80.71782     83.4 1.081e+04 7.629e-10
 80.73178     82.9 1.119e+04 9.212e-10
 80.75247     82.4 1.160e+04 1.171e-09
 80.76937     81.9 1.215e+04 1.540e-09
 80.77971     82.5 1.200e+04 1.449e-09
 80.79384     82.4 1.255e+04 1.936e-09
 80.81452     82.3 1.303e+04 2.256e-09
 80.83125     82.0 1.309e+04 2.238e-09
 80.84159     82.8 1.325e+04 2.426e-09
 80.84759     82.1 1.314e+04 2.192e-09
 80.85794     82.0 1.298e+04 2.035e-09
 80.87658     81.4 1.269e+04 1.642e-09
 80.90771     80.0 1.175e+04 9.030e-10
 80.94487     77.2 1.030e+04 4.033e-10
 80.96556     77.9 1.038e+04 4.459e-10
 80.99055     75.3 9.331e+03 2.745e-10
 81.03192     74.4 9.285e+03 2.194e-10
 81.06864     74.2 9.275e+03 2.115e-10
 81.08933     74.7 9.765e+03 3.219e-10
 81.11467     74.6 9.788e+03 3.155e-10
 81.15604     74.6 9.769e+03 2.972e-10
 81.19241     74.3 9.622e+03 2.619e-10
 81.21310     74.8 1.004e+04 3.569e-10
 81.23878     74.1 9.857e+03 3.132e-10
 81.26825     73.1 9.815e+03 3.188e-10
 81.28893     71.5 9.860e+03 3.452e-10
 81.31618     70.6 9.798e+03 3.814e-10
 81.33677     70.9 9.848e+03 4.150e-10
 81.35236     70.5 1.009e+04 5.228e-10
 81.37304     70.3 1.043e+04 6.713e-10
 81.38821     70.0 1.081e+04 8.399e-10
 81.39856     69.7 1.108e+04 9.472e-10
 81.41442     69.3 1.148e+04 1.173e-09
 81.43510     68.9 1.182e+04 1.383e-09
 81.45010     68.6 1.203e+04 1.507e-09
 81.46044     68.1 1.246e+04 1.840e-09
 81.47647     67.7 1.262e+04 1.894e-09
 81.48862     66.9 1.271e+04 1.911e-09
 81.49897     66.3 1.269e+04 1.876e-09
 81.51198     65.0 1.284e+04 1.916e-09
 81.52233     64.6 1.297e+04 2.064e-09
 81.53853     63.3 1.296e+04 2.087e-09
 81.55922     62.2 1.293e+04 2.137e-09
 81.57387     61.4 1.288e+04 2.127e-09
 81.58421     61.1 1.287e+04 1.905e-09
 81.60059     59.8 1.300e+04 1.915e-09
 81.62128     58.8 1.301e+04 1.869e-09
 81.63575     56.9 1.313e+04 1.844e-09
 81.64610     56.5 1.311e+04 1.784e-09
 81.66265     55.3 1.288e+04 1.679e-09
 81.68739     54.1 1.267e+04 1.571e-09
 81.70301     54.4 1.251e+04 1.493e-09
 81.70939     53.6 1.202e+04 1.170e-09
 81.73525     52.1 1.109e+04 6.807e-10
 81.77662     50.7 1.008e+04 3.593e-10
 81.81126     50.1 9.281e+03 2.076e-10
 81.83195     50.5 9.297e+03 2.079e-10
 81.85936     50.6 8.762e+03 1.395e-10
 81.90073     51.4 8.499e+03 1.001e-10
 81.93503     52.5 8.389e+03 7.111e-11
 81.95572     53.2 8.397e+03 7.216e-11
 81.98348     54.1 8.329e+03 5.347e-11
 82.02485     55.0 8.261e+03 4.725e-11
 82.05880     56.0 8.259e+03 4.740e-11
 82.07948     56.8 8.275e+03 4.832e-11
 82.10759     57.9 8.320e+03 5.021e-11
 82.12985     58.6 8.469e+03 5.812e-11
 82.15053     58.7 8.477e+03 6.185e-11
 82.18257     59.1 8.709e+03 8.591e-11
 82.20325     59.9 8.707e+03 7.928e-11
 82.23171     59.8 8.973e+03 1.168e-10
 82.27308     59.3 9.318e+03 1.877e-10
 82.30634     58.5 9.697e+03 2.697e-10
 82.32702     59.3 9.685e+03 2.410e-10
 82.35582     57.4 1.010e+04 3.120e-10
 82.39720     54.7 1.039e+04 3.658e-10
 82.42813     52.2 1.063e+04 4.751e-10
 82.44026     51.0 1.076e+04 5.410e-10
 82.45060     50.9 1.112e+04 7.018e-10
 82.46940     49.6 1.126e+04 7.089e-10
 82.49009     48.6 1.118e+04 6.668e-10
 82.50214     46.5 1.124e+04 6.164e-10
 82.51248     46.0 1.152e+04 6.988e-10
 82.53146     44.3 1.115e+04 6.011e-10
 82.55011     41.6 1.104e+04 5.709e-10
 82.56045     41.3 1.101e+04 5.817e-10
 82.56402     40.4 1.073e+04 5.495e-10
 82.57437     39.5 1.074e+04 5.546e-10
 82.59352     36.8 1.102e+04 6.295e-10
 82.61420     36.3 1.091e+04 6.295e-10
 82.62591     34.1 1.105e+04 7.614e-10
 82.63625     33.9 1.083e+04 6.621e-10
 82.65558     34.0 1.069e+04 6.585e-10
 82.67755     33.9 1.041e+04 6.219e-10
 82.69833     33.6 1.009e+04 4.771e-10
 82.72817     34.5 9.264e+03 2.814e-10
 82.76954     33.4 8.957e+03 1.531e-10
 82.80142     32.2 8.600e+03 1.245e-10
 82.82210     32.6 8.648e+03 1.402e-10
 82.85229     32.1 8.660e+03 1.610e-10
 82.89366     32.4 8.741e+03 2.056e-10
 82.92519     32.7 8.805e+03 2.331e-10
 82.94587     33.2 8.840e+03 2.350e-10
 82.97076     33.4 8.780e+03 2.234e-10
 82.99145     33.2 9.177e+03 2.862e-10
 83.01778     33.1 9.151e+03 2.697e-10
 83.04896     32.5 9.119e+03 2.477e-10
 83.06964     32.1 9.415e+03 3.105e-10
 83.10052     31.0 9.468e+03 3.208e-10
 83.13145     29.5 9.611e+03 3.749e-10
 83.15204     28.9 9.837e+03 4.258e-10
 83.17253     27.9 1.033e+04 5.987e-10
 83.18287     27.4 1.102e+04 8.786e-10
 83.19114     27.1 1.175e+04 1.078e-09
 83.20148     27.0 1.176e+04 1.154e-09
 83.21410     25.0 1.240e+04 1.408e-09
 83.23441     24.7 1.246e+04 1.424e-09
 83.24476     24.2 1.276e+04 1.703e-09
 83.26591     21.5 1.276e+04 1.703e-09
 83.29649     19.3 1.233e+04 1.676e-09
 83.31718     18.0 1.156e+04 9.587e-10
 83.34875     14.9 1.080e+04 5.455e-10
 83.39012     10.3 1.053e+04 4.374e-10
 83.41191      5.7 1.109e+04 7.213e-10
 83.42136      7.2 1.075e+04 5.861e-10
 83.44095      4.7 1.064e+04 5.906e-10
 83.47287      3.4 1.163e+04 1.252e-09
 83.50380      3.9 1.194e+04 1.647e-09
 83.52439      4.7 1.195e+04 1.440e-09
 83.54384      4.7 1.179e+04 1.016e-09
 83.55418      3.0 1.177e+04 9.210e-10
 83.56576     -0.3 1.129e+04 6.279e-10
 83.58645     -5.5 1.104e+04 5.004e-10
 83.60572    -12.1 1.340e+04 7.812e-10
 83.61607    -17.9 1.441e+04 1.857e-09
 83.62194    -19.6 1.420e+04 3.047e-09
 83.63228    -19.3 1.444e+04 3.730e-09
 83.64850    -19.2 1.428e+04 4.827e-09
 83.66761    -19.1 1.446e+04 5.501e-09
 83.67795    -20.1 1.528e+04 4.742e-09
 83.68988    -27.8 2.217e+04 5.357e-09
 83.71056    -40.0 2.724e+04 7.239e-09
 83.72949    -52.4 2.469e+04 1.008e-08
 83.73984    -63.0 2.078e+04 1.594e-08
 83.75193    -65.1 2.070e+04 1.645e-08
 83.77262    -67.5 1.994e+04 1.306e-08
 83.79138    -70.8 1.824e+04 7.318e-09
 83.80172    -77.0 1.640e+04 2.559e-09
 83.81399    -81.7 1.357e+04 1.088e-09
 83.83217    -84.7 1.159e+04 6.167e-10
 83.84251    -85.1 1.123e+04 5.633e-10
 83.85326    -86.5 1.017e+04 4.239e-10
 83.86361    -89.3 9.291e+03 2.848e-10
 83.87605    -88.8 9.253e+03 2.840e-10
 83.89674    -88.5 9.237e+03 2.830e-10
 83.91515    -88.2 9.283e+03 2.888e-10
 83.93593    -89.9 9.098e+03 2.577e-10
 83.96933    -90.2 8.988e+03 2.536e-10
 84.01070    -90.9 8.821e+03 2.415e-10
 84.03911    -91.5 8.644e+03 2.234e-10
 84.05980    -93.6 8.529e+03 2.079e-10
 84.09345    -93.7 8.501e+03 2.043e-10
 84.13482    -94.1 8.517e+03 2.053e-10
 84.16288    -94.6 8.638e+03 2.257e-10
 84.18357    -96.1 8.605e+03 2.225e-10
 84.21756    -96.4 8.746e+03 2.514e-10
 84.25282    -96.6 8.833e+03 2.705e-10
 84.27351    -95.3 8.694e+03 2.392e-10
 84.28665    -95.6 8.699e+03 2.409e-10
 84.30734    -96.8 8.587e+03 2.178e-10
 84.34168    -97.0 8.555e+03 2.122e-10
 84.38305    -97.3 8.470e+03 2.009e-10
 84.41042    -97.6 8.352e+03 1.868e-10
 84.43111    -99.0 8.424e+03 1.930e-10
 84.46580    -99.3 8.383e+03 1.897e-10
 84.50717    -99.3 8.315e+03 1.870e-10
 84.53419    -99.0 8.221e+03 1.794e-10
 84.55488   -100.2 8.259e+03 1.857e-10
 84.58991    -99.6 8.068e+03 1.590e-10
 84.63128    -98.9 7.925e+03 1.389e-10
 84.65796    -98.1 7.853e+03 1.282e-10
 84.67865    -99.5 7.867e+03 1.278e-10
 84.69396    -98.7 7.887e+03 1.266e-10
 84.71465    -98.7 8.657e+03 2.124e-10
 84.75540    -98.0 8.930e+03 2.504e-10
 84.78173    -97.2 9.227e+03 3.105e-10
 84.80242    -98.9 9.265e+03 3.275e-10
 84.83814    -97.8 9.467e+03 3.809e-10
 84.87952    -96.6 9.617e+03 4.201e-10
 84.90550    -95.6 9.686e+03 4.320e-10
 84.92619    -97.1 9.436e+03 3.470e-10
 84.96226    -96.3 9.530e+03 3.506e-10
 85.00363    -95.8 9.599e+03 3.667e-10
 85.02917    -96.1 9.596e+03 3.881e-10
 85.04986    -96.5 9.598e+03 3.848e-10
 85.07593    -96.1 9.643e+03 4.442e-10
 85.09096    -95.6 9.745e+03 4.873e-10
 85.10130    -96.0 9.699e+03 4.785e-10
 85.11423    -95.4 9.784e+03 5.225e-10
 85.12457    -95.7 9.940e+03 5.804e-10
 85.13789    -94.9 9.984e+03 5.893e-10
 85.15284    -94.2 1.003e+04 5.857e-10
 85.16319    -94.6 1.002e+04 5.834e-10
 85.17927    -93.9 1.002e+04 5.733e-10
 85.19995    -93.2 1.004e+04 5.684e-10
 85.21473    -92.5 1.006e+04 5.674e-10
 85.22507    -92.9 1.002e+04 5.548e-10
 85.24132    -92.0 1.003e+04 5.548e-10
 85.26201    -91.3 1.013e+04 5.705e-10
 85.27661    -90.6 1.026e+04 6.014e-10
 85.28696    -90.9 1.014e+04 5.621e-10
 85.30338    -90.1 1.025e+04 5.929e-10
 85.32407    -89.3 1.044e+04 6.460e-10
 85.33480    -88.7 1.061e+04 7.040e-10
 85.33888    -89.1 1.039e+04 6.337e-10
 85.34884    -89.3 1.024e+04 5.958e-10
 85.36544    -88.3 1.055e+04 7.033e-10
 85.38613    -88.1 1.062e+04 7.439e-10
 85.40038    -87.4 1.099e+04 9.038e-10
 85.41073    -87.4 1.096e+04 8.845e-10
 85.42750    -87.1 1.116e+04 9.926e-10
 85.44818    -86.5 1.157e+04 1.231e-09
 85.46227    -86.3 1.187e+04 1.438e-09
 85.47261    -86.3 1.174e+04 1.362e-09
 85.48956    -86.0 1.208e+04 1.606e-09
 85.51024    -85.8 1.239e+04 1.823e-09
 85.52415    -85.7 1.274e+04 2.054e-09
 85.53450    -85.6 1.255e+04 1.929e-09
 85.54503    -85.5 1.273e+04 2.031e-09
 85.55537    -85.8 1.176e+04 1.390e-09
 85.58274    -85.9 1.145e+04 1.180e-09
 85.62421    -85.5 1.101e+04 9.491e-10
 85.64812    -85.1 1.049e+04 7.518e-10
 85.66880    -85.0 1.019e+04 6.924e-10
 85.70695    -84.2 9.864e+03 5.700e-10
 85.74833    -82.8 9.643e+03 4.855e-10
 85.77189    -80.9 9.400e+03 4.251e-10
 85.79257    -80.9 9.595e+03 4.765e-10
 85.83107    -78.8 9.515e+03 4.560e-10
 85.87244    -76.4 9.492e+03 4.505e-10
 85.89566    -74.1 9.599e+03 4.733e-10
 85.91634    -74.7 9.945e+03 5.645e-10
 85.95519    -73.1 1.045e+04 7.241e-10
 85.99656    -72.3 1.051e+04 6.679e-10
 86.01933    -71.2 1.113e+04 9.761e-10
 86.02957    -71.9 1.124e+04 9.734e-10
 86.04808    -71.2 1.122e+04 1.000e-09
 86.06876    -69.2 1.135e+04 1.120e-09
 86.08112    -68.2 1.155e+04 1.176e-09
 86.09146    -69.7 1.130e+04 1.040e-09
 86.11014    -69.2 1.134e+04 1.040e-09
 86.13082    -69.0 1.129e+04 1.022e-09
 86.14300    -68.9 1.115e+04 9.999e-10
 86.15334    -70.4 1.081e+04 9.414e-10
 86.17219    -70.3 1.072e+04 9.525e-10
 86.18606    -70.8 1.122e+04 1.085e-09
 86.19640    -75.3 1.316e+04 1.526e-09
 86.20489    -78.6 1.540e+04 2.606e-09
 86.21523    -80.9 1.554e+04 3.263e-09
 86.23425    -83.3 1.649e+04 4.979e-09
 86.25494    -84.7 1.648e+04 7.306e-09
 86.26677    -85.3 1.679e+04 8.893e-09
 86.27711    -85.7 1.611e+04 6.643e-09
 86.29631    -86.4 1.676e+04 6.518e-09
 86.31700    -89.0 1.904e+04 4.571e-09
 86.32866    -95.3 2.046e+04 2.289e-09
 86.33900    -99.2 1.869e+04 1.361e-09
 86.35837   -107.2 1.467e+04 8.940e-10
 86.37905   -111.9 1.135e+04 8.808e-10
 86.39054   -113.1 1.104e+04 8.866e-10
 86.39743   -112.5 1.095e+04 8.686e-10
 86.40663   -113.1 1.078e+04 8.337e-10
 86.42043   -113.2 1.051e+04 7.379e-10
 86.44111   -113.4 1.013e+04 5.546e-10
 86.45243   -113.8 9.766e+03 4.185e-10
 86.46277   -113.4 9.687e+03 3.989e-10
 86.49292   -114.4 9.354e+03 3.124e-10
 86.51451   -114.8 8.702e+03 1.950e-10
 86.53519   -113.6 8.500e+03 1.681e-10
 86.57577   -113.1 8.031e+03 1.094e-10
 86.61714   -112.5 7.845e+03 8.584e-11
 86.63827   -111.7 7.803e+03 8.043e-11
 86.65896   -110.2 7.644e+03 6.724e-11
 86.69988   -109.2 7.637e+03 6.646e-11
 86.74125   -108.2 7.702e+03 7.020e-11
 86.78263   -105.6 7.662e+03 6.672e-11
 86.81694   -104.4 7.790e+03 7.606e-11
 86.83762   -104.7 7.785e+03 7.664e-11
 86.86513   -103.3 7.886e+03 8.319e-11
 86.88581   -101.6 7.758e+03 7.113e-11
 86.90674   -100.1 7.851e+03 7.453e-11
 86.94811    -98.5 7.912e+03 7.519e-11
 86.98890    -96.7 7.936e+03 7.491e-11
 87.00958    -95.1 7.832e+03 6.585e-11
 87.03086    -93.2 7.871e+03 6.457e-11
 87.07223    -91.2 7.900e+03 6.385e-11
 87.11267    -89.2 8.061e+03 6.621e-11
 87.13335    -88.0 7.995e+03 6.260e-11
 87.15497    -86.2 8.141e+03 6.888e-11
 87.19635    -84.4 8.296e+03 8.127e-11
 87.23644    -82.7 8.497e+03 1.043e-10
 87.25680    -82.4 8.441e+03 9.813e-11
 87.25808    -82.7 8.376e+03 8.488e-11
 87.27909    -81.5 8.635e+03 1.135e-10
 87.32046    -80.8 9.132e+03 1.736e-10
 87.35139    -80.2 9.390e+03 2.170e-10
 87.37035    -80.9 9.750e+03 2.833e-10
 87.38070    -80.2 9.510e+03 2.429e-10
 87.39267    -81.8 1.060e+04 4.378e-10
 87.41335    -84.2 1.195e+04 8.805e-10
 87.43224    -86.1 1.328e+04 1.724e-09
 87.44258    -85.3 1.274e+04 1.260e-09
 87.45473    -87.0 1.388e+04 2.238e-09
 87.46811    -88.2 1.466e+04 3.204e-09
 87.47846    -87.8 1.437e+04 2.798e-09
 87.49412    -89.4 1.462e+04 3.035e-09
 87.50447    -89.0 1.475e+04 3.255e-09
 87.51678    -91.1 1.482e+04 3.340e-09
 87.53747    -93.4 1.419e+04 2.608e-09
 87.55601    -95.6 1.321e+04 1.775e-09
 87.56635    -95.1 1.426e+04 2.733e-09
 87.57884    -97.2 1.333e+04 1.728e-09
 87.59953    -99.5 1.276e+04 1.145e-09
 87.61789   -101.8 1.276e+04 9.152e-10
 87.62824   -104.4 1.386e+04 1.326e-09
 87.64090   -107.6 1.372e+04 1.283e-09
 87.66159   -110.5 1.343e+04 1.476e-09
 87.67834   -113.7 1.455e+04 2.113e-09
 87.68619   -111.2 1.441e+04 1.955e-09
 87.69012   -115.3 1.607e+04 3.234e-09
 87.70296   -119.9 1.773e+04 4.205e-09
 87.72364   -125.3 1.913e+04 5.863e-09
 87.74166   -130.1 1.970e+04 8.365e-09
 87.75201   -134.3 1.957e+04 8.915e-09
 87.76502   -137.3 1.912e+04 1.117e-08
 87.78570   -139.1 1.859e+04 1.255e-08
 87.80355   -140.1 1.827e+04 1.284e-08
 87.81389   -142.3 1.709e+04 8.947e-09
 87.82707   -142.8 1.674e+04 8.637e-09
 87.84776   -143.0 1.647e+04 8.208e-09
 87.86323   -143.9 1.565e+04 6.520e-09
 87.87051   -144.0 1.548e+04 6.234e-09
 87.87573   -144.8 1.508e+04 5.415e-09
 87.88857   -145.1 1.474e+04 4.949e-09
 87.89892   -144.9 1.485e+04 4.926e-09
 87.90982   -145.4 1.464e+04 4.583e-09
 87.92732   -146.0 1.452e+04 4.351e-09
 87.93766   -146.2 1.402e+04 3.676e-09
 87.95119   -146.4 1.403e+04 3.638e-09
 87.97188   -147.0 1.417e+04 3.656e-09
 87.98920   -148.2 1.462e+04 3.989e-09
 87.99955   -147.7 1.409e+04 3.219e-09
 88.01325   -149.2 1.473e+04 3.844e-09
 88.03393   -150.5 1.537e+04 4.912e-09
 88.05109   -151.2 1.586e+04 6.096e-09
 88.06143   -151.1 1.547e+04 5.191e-09
 88.07531   -151.6 1.577e+04 5.911e-09
 88.09599   -152.2 1.583e+04 6.038e-09
 88.10914   -152.6 1.555e+04 5.203e-09
 88.11578   -152.5 1.534e+04 4.563e-09
 88.12331   -152.1 1.498e+04 4.420e-09
 88.13736   -152.5 1.428e+04 2.856e-09
 88.15805   -153.9 1.309e+04 1.589e-09
 88.17486   -156.2 1.168e+04 8.432e-10
 88.18520   -155.5 1.197e+04 1.011e-09
 88.19942   -157.8 1.086e+04 6.144e-10
 88.22011   -159.4 1.013e+04 4.466e-10
 88.23674   -160.3 9.860e+03 3.987e-10
 88.24708   -160.0 1.038e+04 5.179e-10
 88.26148   -160.6 1.023e+04 4.878e-10
 88.28217   -161.0 1.017e+04 4.797e-10
 88.29863   -161.3 1.017e+04 4.909e-10
 88.30897   -161.1 1.040e+04 5.722e-10
 88.31937   -161.2 1.032e+04 5.577e-10
 88.32972   -161.2 1.033e+04 5.588e-10
 88.34422   -161.3 1.026e+04 5.471e-10
 88.36051   -161.3 1.022e+04 5.456e-10
 88.37085   -161.2 1.018e+04 5.260e-10
 88.38560   -161.1 1.010e+04 5.140e-10
 88.40628   -160.8 1.007e+04 5.112e-10
 88.42240   -160.5 1.005e+04 5.127e-10
 88.43274   -160.3 9.950e+03 4.815e-10
 88.44765   -159.9 9.960e+03 4.920e-10
 88.46834   -159.4 1.001e+04 5.071e-10
 88.48428   -158.8 1.003e+04 5.147e-10
 88.49462   -158.7 1.004e+04 5.149e-10
 88.50971   -158.2 1.007e+04 5.217e-10
 88.52960   -157.7 1.005e+04 5.158e-10
 88.54004   -157.7 9.917e+03 4.424e-10
 88.56162   -157.1 9.878e+03 4.307e-10
 88.59790   -156.6 9.738e+03 4.007e-10
 88.61859   -156.7 9.926e+03 4.446e-10
 88.64437   -156.1 9.884e+03 4.354e-10
 88.67003   -155.4 9.962e+03 4.657e-10
 88.68028   -155.5 1.008e+04 4.974e-10
 88.69589   -155.3 1.015e+04 5.166e-10
 88.71657   -155.1 1.019e+04 5.403e-10
 88.73182   -154.9 1.019e+04 5.505e-10
 88.74216   -154.9 1.020e+04 5.405e-10
 88.75017   -154.5 1.008e+04 5.198e-10
 88.76052   -154.4 9.930e+03 4.806e-10
 88.77863   -153.7 9.833e+03 4.536e-10
 88.80976   -153.2 9.763e+03 4.217e-10
 88.84544   -152.8 9.635e+03 3.773e-10
 88.86613   -153.2 9.657e+03 3.775e-10
 88.89260   -152.6 9.656e+03 3.729e-10
 88.93397   -151.9 9.788e+03 4.034e-10
 88.96060   -151.4 9.934e+03 4.523e-10
 88.97515   -150.8 9.655e+03 3.613e-10
 88.98990   -151.1 9.924e+03 4.522e-10
 89.01671   -150.6 9.905e+03 4.546e-10
 89.05809   -149.7 9.711e+03 4.174e-10
 89.09298   -148.5 9.503e+03 3.649e-10
 89.11367   -148.5 9.369e+03 3.357e-10
 89.14083   -147.0 9.125e+03 2.677e-10
 89.18220   -145.5 9.001e+03 2.260e-10
 89.21675   -143.9 8.945e+03 1.997e-10
 89.23744   -144.0 8.785e+03 1.631e-10
 89.26495   -142.4 8.763e+03 1.497e-10
 89.30632   -140.9 8.747e+03 1.387e-10
 89.34052   -139.4 8.749e+03 1.308e-10
 89.36121   -139.7 8.735e+03 1.235e-10
 89.38105   -138.4 8.779e+03 1.256e-10
 89.40174   -137.7 8.776e+03 1.228e-10
 89.43043   -136.8 8.891e+03 1.331e-10
 89.46429   -136.1 9.089e+03 1.568e-10
 89.48498   -136.7 9.079e+03 1.675e-10
 89.51318   -136.1 9.242e+03 2.013e-10
 89.55455   -135.5 9.416e+03 2.320e-10
 89.58806   -134.9 9.477e+03 2.404e-10
 89.60875   -135.6 9.459e+03 2.371e-10
 89.63729   -135.2 9.453e+03 2.175e-10
 89.67866   -134.8 9.389e+03 1.865e-10
 89.71183   -134.5 9.349e+03 1.642e-10
 89.73252   -135.3 9.341e+03 1.563e-10
 89.76141   -135.0 9.340e+03 1.518e-10
 89.80151   -134.8 9.384e+03 1.537e-10
 89.82220   -134.2 9.371e+03 1.521e-10
 89.83560   -134.0 9.490e+03 1.687e-10
 89.85628   -134.9 9.536e+03 1.720e-10
 89.88552   -134.4 9.596e+03 1.930e-10
 89.92690   -133.7 9.628e+03 2.025e-10
 89.95937   -132.8 9.647e+03 2.040e-10
 89.98005   -133.6 9.622e+03 1.892e-10
 90.00964   -132.8 9.633e+03 1.880e-10
 90.05101   -132.7 9.756e+03 1.901e-10
 90.08314   -133.1 1.037e+04 2.485e-10
 90.10382   -134.4 1.038e+04 2.499e-10
 90.13376   -135.0 1.102e+04 4.633e-10
 90.17513   -135.7 1.175e+04 8.221e-10
 90.20606   -136.5 1.231e+04 1.207e-09
 90.21706   -137.0 1.242e+04 1.289e-09
 90.22740   -137.6 1.242e+04 1.291e-09
 90.24246   -137.9 1.237e+04 1.274e-09
 90.25280   -138.3 1.241e+04 1.332e-09
 90.26802   -138.3 1.200e+04 9.600e-10
 90.27894   -138.4 1.159e+04 6.004e-10
 90.28928   -139.0 1.159e+04 6.260e-10
 90.30939   -139.4 1.126e+04 3.952e-10
 90.33058   -140.3 1.091e+04 2.597e-10
 90.35136   -141.0 1.103e+04 3.023e-10
 90.38199   -141.4 1.072e+04 2.239e-10
 90.42336   -141.3 1.041e+04 1.735e-10
 90.45445   -140.7 1.032e+04 1.625e-10
 90.47513   -141.5 1.059e+04 2.181e-10
 90.50610   -141.2 1.057e+04 2.140e-10
 90.54748   -141.0 1.058e+04 2.305e-10
 90.57822   -140.8 1.070e+04 3.061e-10
 90.59890   -141.7 1.078e+04 3.396e-10
 90.63022   -141.4 1.096e+04 4.553e-10
 90.66311   -141.1 1.113e+04 5.673e-10
 90.68380   -140.9 1.135e+04 7.228e-10
 90.70199   -140.9 1.140e+04 7.722e-10
 90.72267   -141.9 1.127e+04 7.067e-10
 90.74390   -141.4 1.115e+04 6.877e-10
 90.76368   -141.3 1.098e+04 6.497e-10
 90.77402   -141.7 1.092e+04 6.184e-10
 90.78517   -141.6 1.073e+04 5.477e-10
 90.80586   -141.4 1.053e+04 4.684e-10
 90.82566   -141.0 1.037e+04 4.012e-10
 90.84644   -141.5 1.039e+04 4.023e-10
 90.87845   -141.7 1.015e+04 3.268e-10
 90.91982   -141.3 9.756e+03 2.388e-10
 90.94953   -140.5 9.356e+03 1.674e-10
 90.97021   -140.6 9.258e+03 1.499e-10
 91.00257   -139.5 9.028e+03 1.090e-10
 91.04394   -138.3 8.940e+03 9.003e-11
 91.07330   -136.9 8.900e+03 8.185e-11
 91.09224   -136.9 8.829e+03 7.219e-11
 91.10426   -136.8 8.713e+03 6.848e-11
 91.12668   -135.3 8.673e+03 6.666e-11
 91.16806   -133.8 8.669e+03 6.642e-11
 91.19706   -132.5 8.699e+03 6.766e-11
 91.21775   -132.3 8.662e+03 6.153e-11
 91.25080   -131.2 8.741e+03 7.348e-11
 91.29217   -130.2 8.858e+03 1.015e-10
 91.32083   -129.2 9.069e+03 1.474e-10
 91.34152   -129.0 9.062e+03 1.457e-10
 91.37492   -128.1 9.356e+03 2.172e-10
 91.41629   -127.4 9.667e+03 3.127e-10
 91.44460   -126.7 9.901e+03 4.111e-10
 91.46529   -126.4 9.874e+03 3.973e-10
 91.49903   -125.8 9.933e+03 4.198e-10
 91.52471   -125.4 9.952e+03 4.161e-10
 91.54540   -125.6 9.930e+03 4.112e-10
 91.56837   -125.5 9.764e+03 3.646e-10
 91.58906   -125.5 9.712e+03 3.339e-10
 91.62315   -125.6 9.600e+03 3.050e-10
 91.66452   -125.7 9.532e+03 2.904e-10
 91.69214   -125.8 9.493e+03 2.851e-10
 91.71283   -125.9 9.426e+03 2.600e-10
 91.74726   -125.8 9.332e+03 2.494e-10
 91.78864   -125.5 9.235e+03 2.405e-10
 91.81591   -124.9 9.180e+03 2.322e-10
 91.83660   -125.0 9.138e+03 2.075e-10
 91.87138   -124.5 9.187e+03 2.121e-10
 91.91275   -123.9 9.239e+03 2.189e-10
 91.93968   -123.4 9.287e+03 2.154e-10
 91.95142   -123.5 9.283e+03 2.156e-10
 91.96586   -123.4 9.346e+03 2.371e-10
 91.99550   -122.8 9.395e+03 2.572e-10
 92.03687   -122.1 9.395e+03 2.619e-10
 92.06345   -121.4 9.293e+03 2.532e-10
 92.08414   -121.1 9.217e+03 2.329e-10
 92.11961   -120.2 9.107e+03 2.048e-10
 92.16098   -119.1 9.026e+03 1.741e-10
 92.18722   -118.1 8.938e+03 1.491e-10
 92.20791   -117.7 8.953e+03 1.489e-10
 92.24373   -116.7 8.935e+03 1.298e-10
 92.28510   -115.7 8.973e+03 1.211e-10
 92.31099   -114.7 9.003e+03 1.198e-10
 92.33168   -114.6 9.183e+03 1.345e-10
 92.36563   -113.7 9.338e+03 1.545e-10
 92.38631   -114.1 9.705e+03 2.472e-10
 92.40922   -113.2 9.822e+03 2.783e-10
 92.43476   -112.3 9.885e+03 2.913e-10
 92.45545   -112.3 9.954e+03 3.261e-10
 92.49196   -111.5 9.976e+03 3.218e-10
 92.53333   -110.8 9.969e+03 3.060e-10
 92.55853   -110.5 1.007e+04 3.096e-10
 92.57922   -110.4 1.005e+04 3.101e-10
 92.61608   -110.4 1.032e+04 3.631e-10
 92.65745   -110.2 1.062e+04 4.553e-10
 92.68230   -110.1 1.081e+04 5.110e-10
 92.70299   -110.0 1.053e+04 3.801e-10
 92.74019   -109.8 1.058e+04 3.909e-10
 92.78156   -109.4 1.052e+04 3.515e-10
 92.80607   -109.0 1.035e+04 2.703e-10
 92.81059   -108.6 1.034e+04 2.620e-10
 92.82746   -108.2 1.014e+04 2.123e-10
 92.86431   -107.6 9.982e+03 1.657e-10
 92.90568   -107.0 9.952e+03 1.445e-10
 92.92984   -106.3 9.968e+03 1.388e-10
 92.95053   -106.1 1.018e+04 1.646e-10
 92.98842   -105.4 1.018e+04 1.627e-10
 93.02980   -104.4 1.006e+04 1.406e-10
 93.05361   -103.5 9.904e+03 1.043e-10
 93.07430   -103.2 9.950e+03 1.297e-10
 93.11254   -102.2 9.793e+03 9.031e-11
 93.15391   -101.3 9.634e+03 6.808e-11
 93.17738   -100.2 9.478e+03 5.927e-11
 93.19806    -99.9 9.499e+03 6.142e-11
 93.22723    -98.6 9.392e+03 5.793e-11
 93.24792    -98.1 9.371e+03 5.577e-11
 93.27803    -96.6 9.345e+03 5.476e-11
 93.30115    -95.0 9.323e+03 5.512e-11
 93.32183    -94.5 9.296e+03 5.406e-11
 93.36077    -92.8 9.298e+03 5.581e-11
 93.40214    -91.1 9.309e+03 5.751e-11
 93.42492    -89.4 9.312e+03 5.779e-11
 93.44560    -88.9 9.305e+03 5.746e-11
 93.48489    -87.2 9.341e+03 5.394e-11
 93.52626    -85.6 9.407e+03 4.630e-11
 93.54869    -84.5 9.472e+03 4.186e-11
 93.56937    -84.0 9.507e+03 4.877e-11
 93.60900    -83.0 9.537e+03 4.709e-11
 93.64769    -82.1 9.527e+03 4.963e-11
 93.66837    -81.8 9.492e+03 5.277e-11
 93.67246    -80.7 9.416e+03 6.274e-11
 93.69314    -80.1 9.426e+03 6.242e-11
 93.73312    -78.8 9.360e+03 6.866e-11
 93.77449    -77.4 9.357e+03 7.204e-11
 93.79623    -75.8 9.373e+03 7.213e-11
 93.81691    -75.4 9.387e+03 7.248e-11
 93.85723    -74.0 9.490e+03 6.526e-11
 93.89861    -72.9 9.648e+03 5.210e-11
 93.92000    -72.3 9.647e+03 4.678e-11
 93.94068    -71.9 9.608e+03 5.353e-11
 93.98135    -71.0 9.553e+03 5.316e-11
 94.02272    -69.6 9.523e+03 6.057e-11
 94.04377    -68.0 9.632e+03 7.048e-11
 94.06445    -67.8 9.649e+03 7.028e-11
 94.08883    -66.5 9.816e+03 7.857e-11
 94.10952    -65.5 9.784e+03 8.100e-11
 94.14684    -64.4 9.907e+03 9.043e-11
 94.18821    -62.9 9.785e+03 1.025e-10
 94.22958    -61.0 9.768e+03 1.195e-10
 94.27062    -58.9 9.863e+03 1.255e-10
 94.29131    -58.5 9.765e+03 1.108e-10
 94.31233    -56.6 9.853e+03 1.037e-10
 94.35370    -54.8 9.890e+03 9.984e-11
 94.39439    -53.0 9.941e+03 1.047e-10
 94.41507    -52.5 9.889e+03 9.064e-11
 94.43644    -50.8 1.004e+04 1.064e-10
 94.47781    -49.3 1.043e+04 1.426e-10
 94.50929    -48.2 1.084e+04 2.379e-10
 94.52895    -46.3 1.065e+04 1.966e-10
 94.53884    -46.3 1.081e+04 2.021e-10
 94.56056    -45.2 1.148e+04 5.322e-10
 94.60193    -44.2 1.284e+04 1.223e-09
 94.63286    -44.5 1.324e+04 1.927e-09
 94.65208    -44.1 1.359e+04 2.200e-09
 94.66242    -44.1 1.363e+04 2.277e-09
 94.67414    -44.1 1.412e+04 2.398e-09
 94.69482    -44.6 1.427e+04 2.166e-09
 94.71396    -45.3 1.361e+04 1.899e-09
 94.72430    -45.7 1.313e+04 1.439e-09
 94.72966    -46.0 1.247e+04 1.265e-09
 94.74001    -44.7 1.332e+04 1.810e-09
 94.75688    -44.7 1.261e+04 1.336e-09
 94.77585    -44.1 1.202e+04 1.009e-09
 94.78619    -44.3 1.167e+04 8.299e-10
 94.79825    -44.1 1.169e+04 5.498e-10
 94.81894    -44.1 1.127e+04 4.683e-10
 94.85006    -43.7 1.070e+04 2.649e-10
 94.88947    -42.5 1.028e+04 2.029e-10
 94.91015    -42.1 1.011e+04 1.740e-10
 94.92975    -40.5 1.000e+04 1.533e-10
 94.95043    -40.0 1.025e+04 2.223e-10
 94.97428    -38.1 1.024e+04 2.154e-10
 95.01324    -36.2 1.028e+04 2.194e-10
 95.03392    -35.7 1.015e+04 1.894e-10
 95.05702    -33.9 1.016e+04 1.905e-10
 95.09839    -31.9 1.016e+04 2.004e-10
 95.13701    -29.9 1.022e+04 2.103e-10
 95.15769    -29.1 9.970e+03 1.467e-10
 95.18114    -27.0 9.986e+03 1.458e-10
 95.22251    -25.0 9.995e+03 1.414e-10
 95.26078    -23.0 1.006e+04 1.335e-10
 95.28146    -22.1 9.969e+03 9.879e-11
 95.30525    -20.2 1.010e+04 9.813e-11
 95.34663    -18.6 1.021e+04 1.032e-10
 95.37089    -17.0 1.035e+04 1.137e-10
 95.38812    -16.9 1.039e+04 1.242e-10
 95.40523    -15.5 1.038e+04 1.214e-10
 95.42937    -13.7 1.047e+04 1.399e-10
 95.47074    -11.8 1.058e+04 1.607e-10
 95.50832     -9.9 1.079e+04 1.905e-10
 95.52900     -8.4 1.080e+04 1.903e-10
 95.55349     -6.7 1.126e+04 2.399e-10
 95.58045     -6.7 1.152e+04 2.740e-10
 95.58729     -6.2 1.159e+04 2.884e-10
 95.59127     -6.4 1.157e+04 3.170e-10
 95.60501     -6.2 1.176e+04 4.345e-10
 95.62569     -5.6 1.230e+04 6.497e-10
 95.64223     -5.3 1.302e+04 9.743e-10
 95.65258     -4.9 1.320e+04 1.163e-09
 95.66706     -6.1 1.449e+04 2.007e-09
 95.68775     -8.9 1.619e+04 4.100e-09
 95.70412     -9.7 1.715e+04 8.074e-09
 95.71446     -9.0 1.770e+04 1.055e-08
 95.72912     -8.5 1.771e+04 1.225e-08
 95.74981     -7.7 1.720e+04 1.065e-08
 95.76600     -6.7 1.624e+04 7.068e-09
 95.77635     -6.4 1.652e+04 6.698e-09
 95.79115     -7.5 1.589e+04 3.618e-09
 95.81184     -9.9 1.489e+04 2.063e-09
 95.82789    -12.0 1.374e+04 1.565e-09
 95.83823    -12.2 1.359e+04 1.533e-09
 95.85324    -12.3 1.317e+04 1.458e-09
 95.87392    -12.2 1.297e+04 1.379e-09
 95.88977    -12.1 1.281e+04 1.289e-09
 95.90012    -11.9 1.305e+04 1.393e-09
 95.91530    -12.0 1.291e+04 1.322e-09
 95.93598    -12.1 1.269e+04 1.230e-09
 95.95166    -12.1 1.240e+04 1.127e-09
 95.96200    -11.9 1.270e+04 1.265e-09
 95.97735    -11.9 1.229e+04 1.087e-09
 95.99804    -11.9 1.174e+04 8.949e-10
 96.01172    -11.9 1.119e+04 7.189e-10
 96.01688    -11.0 1.187e+04 9.316e-10
 96.02388    -10.6 1.214e+04 1.009e-09
 96.03941    -10.8 1.137e+04 7.209e-10
 96.06010    -10.9 1.078e+04 5.313e-10
 96.07543    -10.9 1.037e+04 4.057e-10
 96.08577    -10.6 1.052e+04 4.075e-10
 96.10147    -10.7 1.028e+04 3.470e-10
 96.12707    -10.1 9.962e+03 2.897e-10
 96.14785     -9.8 1.003e+04 2.888e-10
 96.17407     -8.4 9.608e+03 2.370e-10
 96.21180     -6.4 9.445e+03 1.975e-10
 96.23249     -6.3 9.485e+03 1.986e-10
 96.25093     -4.3 9.259e+03 1.654e-10
 96.27162     -4.1 9.519e+03 2.016e-10
 96.29818     -1.9 9.374e+03 1.737e-10
 96.33955      0.4 9.287e+03 1.577e-10
 96.37470      2.7 9.244e+03 1.496e-10
 96.39539      3.1 9.469e+03 1.858e-10
 96.42230      5.5 9.423e+03 1.749e-10
 96.46367      7.9 9.398e+03 1.648e-10
 96.49847     10.2 9.360e+03 1.549e-10
 96.51916     10.8 9.526e+03 1.859e-10
 96.54641     13.0 9.483e+03 1.779e-10
 96.58779     15.1 9.441e+03 1.739e-10
 96.62224     17.2 9.355e+03 1.741e-10
 96.64293     17.9 9.602e+03 2.244e-10
 96.65295     19.9 9.492e+03 2.166e-10
 96.67363     19.8 9.398e+03 2.061e-10
 96.71190     21.9 9.318e+03 1.986e-10
 96.74601     24.0 9.199e+03 1.789e-10
 96.76670     25.1 9.339e+03 1.982e-10
 96.79464     27.2 9.172e+03 1.625e-10
 96.83602     29.3 8.995e+03 1.317e-10
 96.86978     31.2 8.822e+03 1.178e-10
 96.89047     32.4 8.888e+03 1.174e-10
 96.91876     34.4 8.842e+03 1.173e-10
 96.96013     36.3 8.865e+03 1.225e-10
 96.99355     37.9 9.041e+03 1.448e-10
 97.01424     39.1 9.351e+03 1.744e-10
 97.04288     40.5 9.624e+03 2.329e-10
 97.07340     41.8 9.840e+03 3.106e-10
 97.09409     41.4 1.030e+04 4.511e-10
 97.11732     42.7 1.064e+04 6.241e-10
 97.13801     43.7 1.081e+04 6.744e-10
 97.16699     44.8 1.109e+04 8.521e-10
 97.20836     45.8 1.141e+04 1.054e-09
 97.24109     46.4 1.177e+04 1.284e-09
 97.26178     47.4 1.166e+04 1.154e-09
 97.29111     47.9 1.192e+04 1.332e-09
 97.33248     48.1 1.196e+04 1.382e-09
 97.36486     48.6 1.190e+04 1.339e-09
 97.38555     49.2 1.212e+04 1.432e-09
 97.41522     50.0 1.193e+04 1.347e-09
 97.45660     51.1 1.156e+04 1.150e-09
 97.48863     52.5 1.123e+04 9.877e-10
 97.50521     53.0 1.154e+04 1.118e-09
 97.51455     52.5 1.155e+04 1.114e-09
 97.53934     54.2 1.127e+04 9.892e-10
 97.58071     56.0 1.107e+04 9.014e-10
 97.61240     58.1 1.086e+04 8.088e-10
 97.63309     58.9 1.064e+04 6.817e-10
 97.66346     61.1 1.039e+04 5.784e-10
 97.70483     63.3 1.011e+04 4.645e-10
 97.73617     65.4 9.842e+03 3.730e-10
 97.75685     66.5 9.815e+03 3.598e-10
 97.78757     68.6 9.616e+03 3.076e-10
 97.82894     70.7 9.582e+03 2.895e-10
 97.85994     72.9 9.610e+03 2.933e-10
 97.88062     74.1 9.997e+03 3.618e-10
 97.91169     76.2 1.012e+04 3.912e-10
 97.93491     77.1 1.016e+04 4.257e-10
 97.94515     76.9 1.019e+04 4.386e-10
 97.96321     77.7 1.026e+04 4.714e-10
 97.98351     78.6 1.038e+04 5.220e-10
 97.99386     79.2 1.065e+04 6.243e-10
 98.00458     80.1 1.079e+04 6.861e-10
 98.02527     80.9 1.094e+04 7.475e-10
 98.04540     81.7 1.107e+04 7.851e-10
 98.05574     82.0 1.134e+04 8.896e-10
 98.06664     82.5 1.135e+04 8.875e-10
 98.08732     83.0 1.134e+04 8.677e-10
 98.10728     83.5 1.124e+04 8.133e-10
 98.11763     83.5 1.150e+04 9.150e-10
 98.12870     84.0 1.132e+04 8.277e-10
 98.14504     84.6 1.110e+04 7.311e-10
 98.15538     83.8 1.133e+04 8.634e-10
 98.16917     84.6 1.104e+04 7.218e-10
 98.17951     84.4 1.129e+04 8.534e-10
 98.19075     85.1 1.098e+04 6.918e-10
 98.21144     85.6 1.070e+04 5.819e-10
 98.23105     86.1 1.052e+04 5.536e-10
 98.24139     85.7 1.068e+04 6.260e-10
 98.25281     86.3 1.067e+04 6.256e-10
 98.27350     87.0 1.067e+04 6.289e-10
 98.29294     87.7 1.070e+04 6.484e-10
 98.30328     87.3 1.087e+04 7.376e-10
 98.31487     88.1 1.095e+04 7.870e-10
 98.33556     88.8 1.106e+04 8.522e-10
 98.35482     89.6 1.113e+04 9.194e-10
 98.36419     89.1 1.119e+04 9.491e-10
 98.36561     88.6 1.122e+04 9.451e-10
 98.37693     89.4 1.134e+04 1.026e-09
 98.39761     90.2 1.144e+04 1.104e-09
 98.41671     91.0 1.152e+04 1.172e-09
 98.42705     90.6 1.130e+04 1.055e-09
 98.43899     91.5 1.133e+04 1.073e-09
 98.45967     92.3 1.135e+04 1.083e-09
 98.47859     93.1 1.137e+04 1.087e-09
 98.48893     92.6 1.103e+04 8.898e-10
 98.50104     93.4 1.102e+04 8.805e-10
 98.52173     94.0 1.102e+04 8.724e-10
 98.54048     94.7 1.105e+04 8.714e-10
 98.55082     94.1 1.073e+04 7.261e-10
 98.56310     94.7 1.079e+04 7.398e-10
 98.57584     95.3 1.091e+04 7.716e-10
 98.58618     94.1 1.092e+04 7.687e-10
 98.60236     94.4 1.108e+04 8.222e-10
 98.61270     93.7 1.088e+04 7.420e-10
 98.62516     93.9 1.116e+04 8.443e-10
 98.64585     93.9 1.150e+04 9.804e-10
 98.66425     93.9 1.184e+04 1.137e-09
 98.67459     93.3 1.174e+04 1.093e-09
 98.68722     93.2 1.207e+04 1.257e-09
 98.70790     92.9 1.234e+04 1.401e-09
 98.72613     92.4 1.249e+04 1.486e-09
 98.73647     91.8 1.226e+04 1.375e-09
 98.74928     91.1 1.229e+04 1.390e-09
 98.76996     90.2 1.239e+04 1.436e-09
 98.78607     87.5 1.330e+04 1.721e-09
 98.79378     83.6 1.387e+04 1.734e-09
 98.79836     84.4 1.283e+04 1.297e-09
 98.81133     79.4 1.530e+04 2.189e-09
 98.82408     75.5 1.789e+04 4.000e-09
 98.82920     75.4 1.756e+04 3.975e-09
 98.83709     73.5 1.843e+04 5.676e-09
 98.84744     69.9 2.044e+04 1.102e-08
 98.85497     68.6 2.102e+04 1.500e-08
 98.86019     70.7 1.974e+04 1.040e-08
 98.87339     67.0 2.172e+04 1.726e-08
 98.89408     62.2 2.278e+04 1.700e-08
 98.91178     57.2 2.290e+04 1.172e-08
 98.92213     60.1 2.241e+04 1.337e-08
 98.93545     55.0 2.183e+04 7.280e-09
 98.95614     49.2 1.801e+04 2.768e-09
 98.97367     43.5 1.207e+04 1.164e-09
 98.98401     47.9 1.453e+04 1.711e-09
 98.99630     43.6 1.110e+04 8.119e-10
 99.00664     42.3 1.105e+04 6.310e-10
 99.01819     41.5 1.061e+04 5.999e-10
 99.03555     41.7 1.053e+04 5.984e-10
 99.04590     42.8 1.045e+04 5.921e-10
 99.05957     43.1 1.040e+04 5.986e-10
 99.08025     43.4 1.032e+04 6.258e-10
 99.09744     44.2 1.028e+04 6.473e-10
 99.10778     45.2 1.005e+04 5.734e-10
 99.12162     46.1 1.002e+04 5.769e-10
 99.14231     47.1 1.002e+04 5.825e-10
 99.15932     47.8 1.011e+04 6.168e-10
 99.16967     48.6 9.702e+03 4.241e-10
 99.18368     49.2 9.681e+03 4.220e-10
 99.20437     49.5 9.748e+03 4.556e-10
 99.21687     49.6 1.028e+04 5.652e-10
 99.22337     48.3 1.003e+04 5.060e-10
 99.23155     49.0 9.168e+03 2.995e-10
 99.24574     49.4 9.291e+03 3.151e-10
 99.26643     49.7 9.682e+03 3.614e-10
 99.28309     49.9 1.040e+04 4.552e-10
 99.29344     50.7 9.202e+03 3.143e-10
 99.30780     51.1 9.560e+03 3.834e-10
 99.32848     51.5 1.021e+04 5.086e-10
 99.34498     51.8 1.137e+04 7.532e-10
 99.35532     53.0 9.882e+03 4.972e-10
 99.36986     53.7 1.059e+04 6.952e-10
 99.39054     54.2 1.165e+04 1.017e-09
 99.40686     54.8 1.319e+04 1.537e-09
 99.41721     55.9 1.147e+04 1.061e-09
 99.42710     56.4 1.220e+04 1.433e-09
 99.43744     55.2 1.220e+04 1.451e-09
 99.45260     55.8 1.308e+04 1.887e-09
 99.46875     56.8 1.425e+04 2.409e-09
 99.47909     56.9 1.278e+04 1.920e-09
 99.49397     57.7 1.311e+04 2.176e-09
 99.51466     58.6 1.332e+04 2.210e-09
 99.53012     59.2 1.316e+04 2.129e-09
 99.53571     59.5 1.301e+04 2.076e-09
 99.54093     58.9 1.272e+04 1.933e-09
 99.55603     59.7 1.269e+04 1.835e-09
 99.56670     60.1 1.255e+04 1.685e-09
 99.57182     59.8 1.249e+04 1.647e-09
 99.58179     59.7 1.229e+04 1.511e-09
 99.59213     59.4 1.261e+04 1.393e-09
 99.59759     58.0 1.706e+04 1.306e-09
 99.60276     58.6 1.229e+04 1.233e-09
 99.61282     57.1 1.535e+04 1.157e-09
 99.62316     54.6 2.921e+04 1.243e-09
 99.62853     55.3 4.164e+04 1.823e-09
 99.63371     54.9 1.422e+04 1.120e-09
 99.64240     53.8 1.563e+04 1.155e-09
 99.64757     51.4 1.280e+04 1.086e-09
 99.65419     49.0 1.381e+04 1.248e-09
 99.65948     45.4 1.607e+04 1.703e-09
 99.66465     47.2 1.325e+04 1.378e-09
 99.67488     44.4 1.465e+04 1.808e-09
 99.68522     40.7 1.784e+04 3.063e-09
 99.69556     40.2 1.679e+04 3.212e-09
 99.70590     36.8 1.930e+04 6.311e-09
 99.71619     34.4 2.072e+04 1.225e-08
 99.72136     36.7 1.837e+04 6.547e-09
 99.72659     34.7 1.966e+04 1.177e-08
 99.73693     33.8 2.057e+04 2.001e-08
 99.74713     34.1 2.161e+04 3.213e-08
 99.75230     34.3 2.028e+04 1.880e-08
 99.75269     34.2 2.155e+04 2.735e-08
 99.75786     34.2 2.128e+04 2.973e-08
 99.76796     34.0 2.207e+04 3.437e-08
 99.77807     33.6 2.194e+04 3.145e-08
 99.78847     33.8 2.074e+04 2.050e-08
 99.80426     33.3 2.062e+04 1.777e-08
 99.82495     32.3 1.955e+04 1.162e-08
 99.84006     30.6 1.787e+04 7.386e-09
 99.85040     31.8 1.820e+04 8.020e-09
 99.85790     30.2 1.677e+04 5.712e-09
 99.86824     29.9 1.641e+04 4.922e-09
 99.88701     28.7 1.517e+04 3.741e-09
 99.90194     28.2 1.451e+04 3.145e-09
 99.91228     28.6 1.473e+04 3.244e-09
 99.92838     28.2 1.443e+04 2.924e-09
 99.94906     27.7 1.416e+04 2.648e-09
 99.96383     27.3 1.376e+04 2.317e-09
 99.97417     27.0 1.374e+04 2.240e-09
 99.99043     26.3 1.325e+04 1.911e-09
