# Columns:
#   distance along LOS (in CHIMPs)
#   peculiar velocity  (in km/s)
#   temperature (K)
#   HI number density
# pos=(159.158,155.702,3.21089), angles=(1.47023,4.67365)
  0.00115    -23.6 2.591e+04 4.113e-08
  0.00722    -23.7 2.342e+04 6.441e-08
  0.01704    -23.8 2.209e+04 8.764e-08
  0.02686    -23.6 2.197e+04 1.001e-07
  0.03668    -23.7 2.198e+04 1.014e-07
  0.04651    -23.6 2.195e+04 9.459e-08
  0.05619    -23.1 2.274e+04 7.192e-08
  0.06111    -22.6 2.351e+04 5.214e-08
  0.06615    -22.5 2.739e+04 2.610e-08
  0.07597    -23.3 3.357e+04 9.839e-09
  0.08580    -26.5 3.700e+04 3.399e-09
  0.09562    -33.7 3.058e+04 1.135e-09
  0.10544    -41.2 1.752e+04 5.438e-10
  0.11526    -43.8 1.130e+04 4.324e-10
  0.12509    -44.4 9.989e+03 3.959e-10
  0.13112    -42.6 1.023e+04 3.486e-10
  0.14099    -45.0 8.672e+03 3.005e-10
  0.15956    -43.8 8.520e+03 2.767e-10
  0.17921    -42.4 8.476e+03 2.691e-10
  0.19885    -41.0 8.488e+03 2.667e-10
  0.21850    -40.0 8.374e+03 2.521e-10
  0.24806    -36.5 8.351e+03 2.443e-10
  0.28745    -33.9 8.307e+03 2.405e-10
  0.32674    -31.1 8.226e+03 2.314e-10
  0.36603    -28.5 8.244e+03 2.318e-10
  0.40532    -25.9 8.377e+03 2.521e-10
  0.43766    -23.3 8.545e+03 2.813e-10
  0.45730    -22.7 8.416e+03 2.553e-10
  0.48390    -20.2 8.550e+03 2.857e-10
  0.52319    -17.6 8.660e+03 3.050e-10
  0.56248    -15.1 8.688e+03 3.070e-10
  0.60177    -12.6 8.648e+03 2.849e-10
  0.63037    -10.5 8.582e+03 2.573e-10
  0.65002    -11.2 8.674e+03 2.855e-10
  0.68036     -9.2 8.623e+03 2.713e-10
  0.71965     -7.2 8.624e+03 2.680e-10
  0.75894     -5.0 8.696e+03 2.796e-10
  0.79823     -2.6 8.615e+03 2.644e-10
  0.82865     -0.3 8.575e+03 2.307e-10
  0.84829     -0.5 8.468e+03 2.135e-10
  0.87681      1.0 8.688e+03 2.361e-10
  0.91610      2.1 9.285e+03 3.439e-10
  0.94547      1.9 9.856e+03 5.160e-10
  0.96501      2.9 1.008e+04 6.784e-10
  0.98466      3.9 1.060e+04 9.149e-10
  1.00431      5.1 1.096e+04 1.104e-09
  1.02395      6.3 1.123e+04 1.213e-09
  1.04359      6.9 1.104e+04 1.021e-09
  1.06324      7.4 1.104e+04 9.528e-10
  1.08289      7.4 1.101e+04 8.882e-10
  1.10253      7.2 1.100e+04 8.397e-10
  1.12218      6.9 1.102e+04 8.380e-10
  1.13901      6.6 1.115e+04 8.829e-10
  1.14883      6.6 1.146e+04 1.079e-09
  1.16147      6.8 1.167e+04 1.192e-09
  1.18111      6.7 1.204e+04 1.335e-09
  1.20076      6.0 1.263e+04 1.559e-09
  1.21944      4.4 1.323e+04 1.898e-09
  1.22927      4.0 1.276e+04 1.522e-09
  1.24005      2.5 1.309e+04 1.912e-09
  1.25969      1.8 1.319e+04 2.262e-09
  1.27934      1.5 1.320e+04 2.323e-09
  1.29898      1.3 1.306e+04 2.125e-09
  1.31863      0.5 1.299e+04 1.737e-09
  1.33827     -1.0 1.269e+04 1.378e-09
  1.35792     -2.7 1.219e+04 1.140e-09
  1.37756     -3.9 1.186e+04 1.019e-09
  1.39721     -4.8 1.182e+04 9.672e-10
  1.41494     -5.7 1.187e+04 1.011e-09
  1.42476     -6.9 1.185e+04 1.041e-09
  1.43650     -7.6 1.186e+04 1.122e-09
  1.45614     -7.8 1.194e+04 1.312e-09
  1.47579     -7.7 1.209e+04 1.433e-09
  1.49543     -7.4 1.231e+04 1.565e-09
  1.51508     -7.3 1.239e+04 1.561e-09
  1.53472     -7.9 1.252e+04 1.583e-09
  1.55437    -10.8 1.376e+04 1.957e-09
  1.57402    -17.1 1.680e+04 3.588e-09
  1.59366    -22.8 1.872e+04 7.576e-09
  1.61044    -26.7 1.961e+04 1.275e-08
  1.62026    -28.6 1.973e+04 1.284e-08
  1.63295    -31.8 2.042e+04 1.354e-08
  1.64784    -35.6 2.043e+04 1.021e-08
  1.65767    -41.7 1.959e+04 8.160e-09
  1.67224    -46.8 1.668e+04 4.857e-09
  1.69189    -50.3 1.472e+04 3.232e-09
  1.71153    -52.4 1.373e+04 2.405e-09
  1.73118    -53.6 1.298e+04 1.906e-09
  1.75082    -54.1 1.239e+04 1.534e-09
  1.77047    -54.3 1.186e+04 1.208e-09
  1.79011    -54.4 1.134e+04 9.203e-10
  1.80593    -54.6 1.086e+04 6.935e-10
  1.81575    -55.1 1.079e+04 6.781e-10
  1.82940    -55.3 1.051e+04 5.425e-10
  1.84905    -55.9 1.042e+04 4.735e-10
  1.86869    -56.5 1.041e+04 4.572e-10
  1.88834    -57.2 1.053e+04 4.716e-10
  1.90798    -57.9 1.070e+04 5.346e-10
  1.92763    -58.3 1.083e+04 6.197e-10
  1.94727    -58.5 1.095e+04 6.954e-10
  1.96692    -58.6 1.105e+04 7.338e-10
  1.98656    -58.9 1.109e+04 7.419e-10
  2.00143    -59.3 1.102e+04 6.991e-10
  2.01125    -59.8 1.124e+04 8.262e-10
  2.02585    -60.4 1.098e+04 7.240e-10
  2.04550    -61.0 1.069e+04 6.280e-10
  2.06514    -61.5 1.044e+04 5.343e-10
  2.08479    -62.0 1.023e+04 4.459e-10
  2.10443    -62.4 1.011e+04 3.913e-10
  2.13400    -63.1 9.963e+03 3.277e-10
  2.17339    -63.7 9.864e+03 2.857e-10
  2.21268    -64.4 9.834e+03 2.594e-10
  2.25197    -65.1 9.808e+03 2.455e-10
  2.29126    -65.9 9.786e+03 2.407e-10
  2.33055    -66.7 9.825e+03 2.407e-10
  2.36984    -68.2 1.018e+04 2.717e-10
  2.39252    -69.4 1.047e+04 3.579e-10
  2.41216    -70.2 1.047e+04 3.404e-10
  2.43850    -71.6 1.064e+04 4.746e-10
  2.45805    -72.5 1.074e+04 5.779e-10
  2.47769    -72.9 1.081e+04 6.289e-10
  2.49734    -73.3 1.082e+04 6.381e-10
  2.51698    -73.8 1.072e+04 5.966e-10
  2.53663    -74.3 1.055e+04 4.996e-10
  2.55627    -74.8 1.044e+04 4.122e-10
  2.57592    -75.2 1.039e+04 3.698e-10
  2.58792    -75.6 1.035e+04 3.343e-10
  2.59774    -75.6 1.037e+04 3.463e-10
  2.61521    -75.7 1.038e+04 3.320e-10
  2.64477    -76.2 1.037e+04 3.038e-10
  2.66571    -76.2 1.017e+04 2.480e-10
  2.68535    -75.2 9.873e+03 2.153e-10
  2.72345    -74.7 9.615e+03 1.822e-10
  2.76274    -74.1 9.463e+03 1.672e-10
  2.78361    -73.2 9.449e+03 1.631e-10
  2.80325    -73.1 9.574e+03 1.640e-10
  2.84132    -72.2 9.551e+03 1.642e-10
  2.88061    -71.4 9.626e+03 1.808e-10
  2.91990    -70.4 9.737e+03 2.067e-10
  2.95920    -69.2 9.778e+03 2.277e-10
  2.99849    -68.2 9.844e+03 2.421e-10
  3.03778    -67.8 1.003e+04 2.639e-10
  3.07707    -68.0 1.043e+04 3.362e-10
  3.10644    -69.4 1.072e+04 4.684e-10
  3.12598    -69.9 1.101e+04 6.559e-10
  3.14563    -70.0 1.135e+04 8.728e-10
  3.16452    -69.9 1.164e+04 1.029e-09
  3.17434    -69.4 1.178e+04 1.103e-09
  3.18492    -69.4 1.199e+04 1.199e-09
  3.20456    -69.7 1.202e+04 1.209e-09
  3.22421    -70.0 1.191e+04 1.069e-09
  3.24385    -70.4 1.164e+04 8.579e-10
  3.26350    -71.0 1.139e+04 7.097e-10
  3.28315    -71.6 1.122e+04 6.324e-10
  3.30279    -72.0 1.114e+04 6.096e-10
  3.32244    -72.1 1.107e+04 6.175e-10
  3.34208    -72.2 1.103e+04 6.399e-10
  3.36008    -72.0 1.100e+04 6.532e-10
  3.36990    -72.0 1.107e+04 6.557e-10
  3.38137    -71.6 1.098e+04 6.569e-10
  3.40102    -71.0 1.077e+04 6.027e-10
  3.42066    -70.3 1.058e+04 5.000e-10
  3.44031    -70.0 1.042e+04 4.030e-10
  3.46987    -70.2 1.023e+04 3.317e-10
  3.50926    -69.5 9.968e+03 2.878e-10
  3.54594    -68.0 9.671e+03 2.494e-10
  3.56559    -67.8 9.662e+03 2.386e-10
  3.58784    -66.1 9.488e+03 2.214e-10
  3.62713    -64.1 9.412e+03 2.129e-10
  3.66373    -62.1 9.364e+03 2.053e-10
  3.68337    -61.1 9.401e+03 1.977e-10
  3.70571    -59.2 9.342e+03 1.887e-10
  3.74500    -57.3 9.282e+03 1.778e-10
  3.78429    -55.5 9.265e+03 1.693e-10
  3.82358    -53.7 9.317e+03 1.701e-10
  3.86287    -52.2 9.414e+03 1.922e-10
  3.90216    -50.7 9.544e+03 2.463e-10
  3.93694    -48.9 9.700e+03 3.273e-10
  3.95658    -48.8 9.333e+03 2.294e-10
  3.98074    -46.8 9.431e+03 2.832e-10
  4.02003    -44.8 9.540e+03 3.254e-10
  4.05932    -42.9 9.630e+03 3.477e-10
  4.09862    -41.3 9.770e+03 3.694e-10
  4.13791    -40.1 1.001e+04 4.318e-10
  4.17720    -38.9 1.033e+04 5.684e-10
  4.21649    -37.2 1.065e+04 7.366e-10
  4.25578    -35.5 1.081e+04 8.045e-10
  4.29507    -34.1 1.067e+04 7.316e-10
  4.32793    -32.8 1.034e+04 5.816e-10
  4.34757    -32.1 1.016e+04 4.698e-10
  4.37365    -31.0 9.983e+03 4.220e-10
  4.41294    -29.6 9.820e+03 4.215e-10
  4.45223    -27.8 9.759e+03 4.299e-10
  4.49152    -26.0 9.794e+03 4.208e-10
  4.53081    -24.4 9.871e+03 4.403e-10
  4.57010    -22.8 9.987e+03 4.901e-10
  4.60939    -21.2 1.009e+04 5.681e-10
  4.64868    -19.5 1.023e+04 6.348e-10
  4.68139    -17.9 1.037e+04 6.764e-10
  4.70104    -17.0 9.850e+03 4.794e-10
  4.71892    -15.2 9.871e+03 4.983e-10
  4.73857    -15.3 1.012e+04 5.342e-10
  4.76655    -13.9 1.017e+04 5.500e-10
  4.80584    -12.9 1.033e+04 5.806e-10
  4.84513    -11.9 1.043e+04 6.306e-10
  4.88442    -10.6 1.030e+04 6.026e-10
  4.92371     -8.7 1.000e+04 4.801e-10
  4.96300     -7.0 9.773e+03 3.561e-10
  5.00229     -5.4 9.556e+03 2.793e-10
  5.04158     -3.6 9.428e+03 2.372e-10
  5.08087     -1.4 9.333e+03 2.121e-10
  5.10991      0.8 9.323e+03 1.815e-10
  5.12956      0.3 9.492e+03 2.057e-10
  5.15945      2.6 9.485e+03 2.086e-10
  5.19874      4.8 9.520e+03 2.152e-10
  5.23803      6.6 9.687e+03 2.370e-10
  5.27733      7.9 1.004e+04 3.089e-10
  5.31662      9.1 1.049e+04 4.618e-10
  5.35591     10.6 1.106e+04 7.209e-10
  5.39520     12.4 1.147e+04 9.587e-10
  5.42457     12.9 1.156e+04 1.040e-09
  5.44411     13.4 1.165e+04 1.088e-09
  5.46376     13.8 1.180e+04 1.140e-09
  5.48340     13.9 1.193e+04 1.175e-09
  5.50071     13.8 1.203e+04 1.205e-09
  5.51053     13.1 1.213e+04 1.203e-09
  5.52269     12.1 1.255e+04 1.294e-09
  5.54234      9.9 1.333e+04 1.525e-09
  5.56198      6.2 1.439e+04 2.187e-09
  5.58163      3.3 1.480e+04 3.348e-09
  5.60128      2.4 1.463e+04 4.167e-09
  5.62092      2.8 1.438e+04 3.993e-09
  5.64057      2.9 1.401e+04 3.180e-09
  5.66021      2.5 1.365e+04 2.114e-09
  5.67986      1.2 1.315e+04 1.320e-09
  5.69620      0.1 1.233e+04 8.506e-10
  5.70539     -0.7 1.232e+04 8.459e-10
  5.70869      0.2 1.251e+04 9.630e-10
  5.71915     -0.7 1.202e+04 7.278e-10
  5.73879     -0.7 1.162e+04 5.717e-10
  5.75844     -0.8 1.150e+04 5.271e-10
  5.78800      0.6 1.108e+04 4.490e-10
  5.82739      1.6 1.111e+04 4.713e-10
  5.86668      2.9 1.108e+04 4.966e-10
  5.89189      4.3 1.109e+04 5.163e-10
  5.91154      3.1 1.106e+04 4.706e-10
  5.94526      4.4 1.112e+04 4.752e-10
  5.98455      5.1 1.135e+04 5.340e-10
  6.02384      5.1 1.174e+04 7.168e-10
  6.06313      4.6 1.227e+04 1.082e-09
  6.10242      4.0 1.276e+04 1.609e-09
  6.14171      3.7 1.264e+04 1.646e-09
  6.18100      4.5 1.193e+04 1.287e-09
  6.22029      5.2 1.110e+04 7.278e-10
  6.25958      5.2 1.037e+04 3.938e-10
  6.28289      5.4 9.823e+03 2.631e-10
  6.30253      4.7 9.562e+03 2.147e-10
  6.33816      6.1 9.282e+03 1.827e-10
  6.37745      8.0 9.112e+03 1.608e-10
  6.41675      9.8 9.008e+03 1.392e-10
  6.45604     11.5 8.910e+03 1.207e-10
  6.49533     13.0 8.879e+03 1.154e-10
  6.53462     14.2 8.928e+03 1.225e-10
  6.57391     15.3 9.054e+03 1.532e-10
  6.61320     16.7 9.244e+03 2.029e-10
  6.65249     18.1 9.306e+03 2.211e-10
  6.67388     19.8 9.224e+03 2.059e-10
  6.69352     19.3 9.302e+03 2.254e-10
  6.71673     21.1 9.046e+03 1.582e-10
  6.73637     20.9 8.943e+03 1.253e-10
  6.77036     21.9 8.820e+03 7.436e-11
  6.80965     22.5 8.568e+03 5.340e-11
  6.84894     23.7 8.374e+03 5.142e-11
  6.88823     25.4 8.359e+03 5.222e-11
  6.92752     27.1 8.354e+03 5.649e-11
  6.96681     28.9 8.380e+03 6.363e-11
  7.00610     30.6 8.420e+03 7.260e-11
  7.04522     32.2 8.477e+03 8.425e-11
  7.08452     32.9 8.644e+03 1.067e-10
  7.12397     34.2 8.870e+03 1.401e-10
  7.16326     35.3 9.159e+03 1.884e-10
  7.20255     36.2 9.464e+03 2.501e-10
  7.24184     37.1 9.746e+03 3.159e-10
  7.28113     37.8 9.968e+03 3.745e-10
  7.32042     38.4 1.015e+04 4.314e-10
  7.35971     39.3 1.033e+04 4.883e-10
  7.38908     39.6 1.031e+04 4.737e-10
  7.40863     39.6 1.031e+04 4.712e-10
  7.43612     40.5 1.033e+04 4.717e-10
  7.45586     40.0 1.009e+04 3.735e-10
  7.47758     41.0 9.893e+03 3.064e-10
  7.51687     41.9 9.614e+03 2.265e-10
  7.55617     42.6 9.357e+03 1.628e-10
  7.59546     43.0 9.162e+03 1.246e-10
  7.63475     43.6 9.019e+03 1.147e-10
  7.67404     44.5 9.017e+03 1.163e-10
  7.71333     45.5 9.059e+03 1.258e-10
  7.73439     46.4 9.230e+03 1.559e-10
  7.75404     46.6 9.077e+03 1.254e-10
  7.79191     47.2 9.385e+03 1.778e-10
  7.82721     47.5 9.863e+03 2.869e-10
  7.84685     47.7 9.582e+03 2.347e-10
  7.87049     48.1 1.005e+04 3.695e-10
  7.90978     48.7 1.030e+04 4.880e-10
  7.94907     48.8 1.049e+04 5.179e-10
  7.98836     48.6 1.047e+04 5.008e-10
  8.02765     48.2 1.033e+04 4.340e-10
  8.05702     47.8 1.032e+04 4.279e-10
  8.07657     47.2 1.027e+04 4.166e-10
  8.09621     46.7 1.025e+04 4.161e-10
  8.11586     46.4 1.025e+04 4.202e-10
  8.13550     46.2 1.027e+04 4.358e-10
  8.15515     46.2 1.033e+04 4.607e-10
  8.17479     46.4 1.038e+04 4.918e-10
  8.19444     46.6 1.044e+04 5.250e-10
  8.21408     47.0 1.051e+04 5.480e-10
  8.22783     47.4 1.055e+04 5.512e-10
  8.23713     47.2 1.035e+04 4.878e-10
  8.24303     47.1 1.025e+04 4.574e-10
  8.26329     47.6 1.027e+04 4.411e-10
  8.30268     48.3 1.023e+04 4.126e-10
  8.34197     49.3 1.002e+04 3.548e-10
  8.38126     50.5 9.682e+03 2.824e-10
  8.42055     51.8 9.324e+03 2.207e-10
  8.45984     53.1 9.030e+03 1.783e-10
  8.49913     54.6 8.853e+03 1.545e-10
  8.53842     56.2 8.781e+03 1.429e-10
  8.57771     57.8 8.759e+03 1.357e-10
  8.60919     59.2 8.733e+03 1.283e-10
  8.62884     59.8 8.820e+03 1.375e-10
  8.65629     61.2 8.886e+03 1.401e-10
  8.69559     62.6 8.974e+03 1.422e-10
  8.73241     63.7 9.061e+03 1.461e-10
  8.75206     61.9 9.187e+03 1.649e-10
  8.77417     62.3 9.663e+03 2.090e-10
  8.81346     61.9 1.025e+04 2.759e-10
  8.84283     61.4 1.068e+04 3.374e-10
  8.86237     60.2 1.131e+04 4.723e-10
  8.88202     59.0 1.178e+04 6.833e-10
  8.90166     58.0 1.213e+04 9.537e-10
  8.92131     55.0 1.407e+04 1.567e-09
  8.94095     48.4 1.748e+04 3.011e-09
  8.96060     42.4 1.898e+04 4.787e-09
  8.97528     39.3 1.955e+04 6.132e-09
  8.98506     36.9 1.899e+04 7.290e-09
  8.99488     34.1 1.863e+04 7.589e-09
  9.00127     32.7 1.837e+04 7.462e-09
  9.00618     32.2 1.808e+04 7.060e-09
  9.00976     29.7 1.808e+04 6.945e-09
  9.01963     28.9 1.823e+04 7.206e-09
  9.03918     23.8 1.774e+04 5.415e-09
  9.05883     16.4 1.729e+04 3.540e-09
  9.07847      7.5 1.608e+04 2.722e-09
  9.09812     -0.0 1.560e+04 2.832e-09
  9.11776     -6.6 1.592e+04 3.370e-09
  9.13741    -11.6 1.565e+04 3.436e-09
  9.15705    -15.6 1.509e+04 2.807e-09
  9.17670    -19.4 1.433e+04 1.904e-09
  9.19548    -23.3 1.315e+04 1.022e-09
  9.20531    -21.3 1.364e+04 1.421e-09
  9.21599    -25.1 1.257e+04 8.187e-10
  9.23563    -29.6 1.188e+04 5.670e-10
  9.25087    -35.8 1.395e+04 7.854e-10
  9.26070    -29.4 1.077e+04 4.482e-10
  9.27492    -33.9 1.240e+04 5.986e-10
  9.28961    -37.3 1.446e+04 1.102e-09
  9.29805    -46.7 3.962e+04 9.837e-10
  9.30296    -37.7 1.615e+04 1.122e-09
  9.30920    -52.6 4.712e+04 1.856e-09
  9.31903    -76.0 4.845e+04 3.021e-08
  9.32637    -93.5 2.584e+04 1.016e-06
  9.33126    -96.2 2.279e+04 2.215e-06
  9.33617   -100.5 2.144e+04 3.783e-06
  9.34108   -109.6 2.324e+04 3.678e-06
  9.34599   -122.0 3.201e+04 1.257e-06
  9.34933   -133.7 5.123e+04 1.577e-07
  9.35178   -128.1 4.122e+04 4.699e-07
  9.35829   -142.7 5.533e+04 8.679e-08
  9.36814   -165.8 4.164e+04 7.037e-08
  9.37796   -173.8 2.592e+04 8.790e-08
  9.38778   -175.3 2.398e+04 8.454e-08
  9.39579   -176.1 2.287e+04 7.067e-08
  9.40070   -175.6 2.365e+04 5.866e-08
  9.40743   -176.1 2.251e+04 4.566e-08
  9.41725   -176.2 2.211e+04 3.516e-08
  9.42707   -176.4 2.214e+04 2.625e-08
  9.43690   -176.8 2.217e+04 1.880e-08
  9.44672   -177.4 2.187e+04 1.308e-08
  9.45654   -178.1 2.105e+04 8.957e-09
  9.46637   -178.9 1.967e+04 6.241e-09
  9.47619   -179.2 1.812e+04 4.729e-09
  9.48601   -179.1 1.712e+04 4.097e-09
  9.49354   -178.4 1.674e+04 3.916e-09
  9.49845   -178.3 1.680e+04 4.045e-09
  9.51062   -177.3 1.622e+04 3.667e-09
  9.53031   -176.2 1.503e+04 2.906e-09
  9.54995   -174.6 1.432e+04 2.466e-09
  9.56960   -172.9 1.425e+04 2.379e-09
  9.58648   -171.2 1.432e+04 2.435e-09
  9.59630   -171.0 1.333e+04 2.034e-09
  9.60889   -169.4 1.321e+04 1.970e-09
  9.62854   -168.1 1.319e+04 1.940e-09
  9.64818   -167.1 1.369e+04 1.919e-09
  9.66783   -166.4 1.495e+04 2.110e-09
  9.68747   -165.9 1.642e+04 2.569e-09
  9.70712   -165.2 1.759e+04 3.255e-09
  9.72676   -164.5 1.826e+04 4.142e-09
  9.74641   -163.8 1.855e+04 5.116e-09
  9.75971   -163.0 1.860e+04 6.108e-09
  9.76953   -161.1 1.676e+04 4.320e-09
  9.78197   -160.4 1.720e+04 5.138e-09
  9.79179   -158.8 1.509e+04 3.076e-09
  9.80534   -158.1 1.577e+04 3.781e-09
  9.82499   -157.5 1.629e+04 4.546e-09
  9.84463   -156.9 1.664e+04 5.263e-09
  9.86428   -156.3 1.680e+04 5.810e-09
  9.88392   -155.6 1.679e+04 6.051e-09
  9.90357   -155.0 1.658e+04 6.041e-09
  9.92321   -154.4 1.620e+04 5.591e-09
  9.94286   -153.9 1.577e+04 4.867e-09
  9.96250   -153.4 1.523e+04 3.941e-09
  9.97747   -152.9 1.458e+04 3.003e-09
  9.98729   -152.6 1.529e+04 4.636e-09
 10.00179   -152.2 1.457e+04 3.528e-09
 10.02144   -151.8 1.389e+04 2.673e-09
 10.04108   -151.4 1.332e+04 2.093e-09
 10.06073   -151.1 1.287e+04 1.721e-09
 10.08037   -150.6 1.253e+04 1.492e-09
 10.10002   -150.1 1.228e+04 1.357e-09
 10.11966   -149.5 1.213e+04 1.271e-09
 10.13931   -149.0 1.202e+04 1.209e-09
 10.15896   -148.4 1.191e+04 1.150e-09
 10.17296   -148.0 1.181e+04 1.091e-09
 10.18279   -148.1 1.204e+04 1.301e-09
 10.19825   -147.7 1.190e+04 1.204e-09
 10.21789   -147.5 1.177e+04 1.117e-09
 10.23754   -147.3 1.164e+04 1.039e-09
 10.25718   -147.1 1.153e+04 9.643e-10
 10.26854   -146.9 1.142e+04 8.817e-10
 10.27836   -146.6 1.142e+04 9.093e-10
 10.29647   -146.4 1.128e+04 8.168e-10
 10.31612   -146.2 1.110e+04 7.017e-10
 10.33576   -146.0 1.086e+04 5.707e-10
 10.35541   -145.8 1.059e+04 4.430e-10
 10.36846   -145.5 1.034e+04 3.454e-10
 10.37828   -145.8 1.031e+04 3.736e-10
 10.39470   -145.5 1.017e+04 3.087e-10
 10.42426   -145.2 1.010e+04 2.726e-10
 10.46365   -144.6 9.917e+03 2.412e-10
 10.50294   -143.4 9.708e+03 2.184e-10
 10.54223   -141.9 9.536e+03 2.042e-10
 10.56415   -140.1 9.437e+03 1.959e-10
 10.58379   -140.7 9.700e+03 2.964e-10
 10.62081   -138.9 9.632e+03 2.887e-10
 10.66010   -137.1 9.612e+03 2.899e-10
 10.69939   -135.4 9.631e+03 2.929e-10
 10.73868   -133.9 9.681e+03 2.969e-10
 10.76774   -132.6 9.767e+03 3.006e-10
 10.78739   -131.9 9.693e+03 2.846e-10
 10.81726   -130.6 9.728e+03 2.825e-10
 10.85655   -129.5 9.793e+03 2.811e-10
 10.89584   -128.7 9.890e+03 2.860e-10
 10.93513   -128.2 9.971e+03 2.901e-10
 10.95514   -127.8 1.000e+04 2.852e-10
 10.97479   -128.4 1.016e+04 3.153e-10
 11.01372   -127.9 1.015e+04 2.961e-10
 11.05301   -127.6 1.013e+04 2.771e-10
 11.09230   -127.4 1.011e+04 2.666e-10
 11.13159   -127.2 1.012e+04 2.640e-10
 11.17088   -127.2 1.041e+04 2.863e-10
 11.21017   -127.1 1.075e+04 3.473e-10
 11.24946   -127.1 1.127e+04 4.538e-10
 11.27648   -127.5 1.174e+04 6.035e-10
 11.28621   -127.2 1.182e+04 6.160e-10
 11.29837   -128.1 1.235e+04 8.521e-10
 11.31802   -128.7 1.301e+04 1.386e-09
 11.33612   -129.0 1.358e+04 2.151e-09
 11.34594   -129.7 1.402e+04 2.644e-09
 11.35731   -129.6 1.466e+04 4.202e-09
 11.37696   -129.4 1.510e+04 5.520e-09
 11.39660   -129.4 1.521e+04 5.973e-09
 11.41625   -129.8 1.515e+04 5.976e-09
 11.43589   -130.2 1.483e+04 5.107e-09
 11.45554   -130.9 1.468e+04 4.076e-09
 11.47518   -132.4 1.481e+04 3.684e-09
 11.49483   -134.2 1.497e+04 3.657e-09
 11.51447   -135.9 1.542e+04 4.184e-09
 11.53161   -136.8 1.568e+04 5.250e-09
 11.54143   -137.4 1.672e+04 9.000e-09
 11.55376   -137.7 1.678e+04 9.417e-09
 11.57341   -137.8 1.657e+04 9.085e-09
 11.59305   -137.6 1.585e+04 6.974e-09
 11.61270   -137.0 1.495e+04 4.676e-09
 11.63234   -136.7 1.411e+04 2.914e-09
 11.65199   -136.8 1.329e+04 1.814e-09
 11.67163   -136.9 1.258e+04 1.229e-09
 11.69128   -137.0 1.200e+04 9.503e-10
 11.71092   -136.3 1.158e+04 8.253e-10
 11.72711   -135.3 1.138e+04 7.811e-10
 11.73693   -136.0 1.132e+04 7.294e-10
 11.75021   -134.8 1.130e+04 7.255e-10
 11.76986   -133.8 1.132e+04 7.271e-10
 11.78522   -132.8 1.136e+04 7.449e-10
 11.79504   -132.7 1.159e+04 8.349e-10
 11.80915   -131.8 1.167e+04 8.829e-10
 11.82879   -131.0 1.174e+04 9.377e-10
 11.84844   -130.2 1.178e+04 9.936e-10
 11.86808   -129.3 1.181e+04 1.044e-09
 11.88773   -128.5 1.182e+04 1.085e-09
 11.90738   -127.5 1.181e+04 1.116e-09
 11.92260   -126.5 1.181e+04 1.135e-09
 11.93243   -126.7 1.169e+04 1.077e-09
 11.94667   -125.7 1.170e+04 1.091e-09
 11.96631   -124.7 1.169e+04 1.075e-09
 11.98596   -123.7 1.164e+04 1.049e-09
 12.00560   -122.6 1.158e+04 1.022e-09
 12.02525   -121.6 1.150e+04 9.864e-10
 12.04489   -120.6 1.139e+04 9.407e-10
 12.06454   -119.4 1.127e+04 8.945e-10
 12.08418   -118.4 1.117e+04 8.421e-10
 12.10383   -117.4 1.103e+04 7.774e-10
 12.11810   -116.5 1.088e+04 7.017e-10
 12.12792   -116.2 1.094e+04 7.270e-10
 12.15304   -115.3 1.081e+04 6.608e-10
 12.19243   -113.3 1.067e+04 6.048e-10
 12.23172   -111.5 1.061e+04 5.893e-10
 12.27101   -110.1 1.068e+04 5.901e-10
 12.29415   -109.2 1.072e+04 5.942e-10
 12.30387   -109.5 1.068e+04 5.640e-10
 12.31359   -109.5 1.074e+04 5.694e-10
 12.32342   -109.5 1.088e+04 6.672e-10
 12.33957   -109.5 1.103e+04 7.185e-10
 12.35921   -109.9 1.125e+04 7.956e-10
 12.37886   -110.6 1.158e+04 9.321e-10
 12.39850   -111.5 1.198e+04 1.147e-09
 12.41815   -112.4 1.244e+04 1.452e-09
 12.43779   -113.0 1.288e+04 1.819e-09
 12.45744   -113.5 1.323e+04 2.148e-09
 12.47709   -113.9 1.339e+04 2.287e-09
 12.49673   -114.2 1.341e+04 2.294e-09
 12.50909   -114.4 1.326e+04 1.997e-09
 12.51891   -114.8 1.335e+04 2.403e-09
 12.53602   -115.0 1.291e+04 1.619e-09
 12.55567   -115.9 1.238e+04 1.002e-09
 12.57531   -117.2 1.182e+04 6.188e-10
 12.59496   -118.4 1.130e+04 4.158e-10
 12.61460   -119.3 1.089e+04 3.201e-10
 12.63425   -119.8 1.059e+04 2.813e-10
 12.65389   -120.0 1.047e+04 2.648e-10
 12.67354   -120.1 1.040e+04 2.563e-10
 12.70310   -120.4 1.032e+04 2.497e-10
 12.74249   -119.2 1.007e+04 2.309e-10
 12.78178   -117.8 9.896e+03 2.177e-10
 12.80308   -116.1 9.738e+03 2.062e-10
 12.82272   -114.7 9.547e+03 1.871e-10
 12.86036   -112.8 9.475e+03 1.826e-10
 12.89045   -110.8 9.462e+03 1.824e-10
 12.91010   -110.8 9.416e+03 1.664e-10
 12.93894   -108.8 9.465e+03 1.907e-10
 12.97823   -106.7 9.547e+03 2.264e-10
 13.01752   -104.5 9.659e+03 2.725e-10
 13.05681   -102.4 9.771e+03 3.251e-10
 13.09610   -100.3 9.872e+03 3.793e-10
 13.13539    -98.2 9.959e+03 4.308e-10
 13.17468    -96.2 1.003e+04 4.714e-10
 13.21397    -94.2 1.005e+04 4.912e-10
 13.25326    -92.4 1.004e+04 4.912e-10
 13.28145    -90.6 9.938e+03 4.645e-10
 13.30109    -90.8 9.716e+03 3.987e-10
 13.33185    -88.9 9.624e+03 3.732e-10
 13.37114    -86.9 9.581e+03 3.622e-10
 13.41043    -84.8 9.574e+03 3.653e-10
 13.44972    -82.7 9.605e+03 3.775e-10
 13.48901    -80.6 9.672e+03 4.014e-10
 13.52830    -78.6 9.734e+03 4.359e-10
 13.56759    -76.3 9.826e+03 4.809e-10
 13.60688    -74.2 9.993e+03 5.476e-10
 13.64617    -72.5 1.041e+04 6.918e-10
 13.67244    -71.4 1.112e+04 9.718e-10
 13.69208    -72.3 1.070e+04 8.032e-10
 13.72475    -71.8 1.132e+04 1.095e-09
 13.75412    -70.5 1.187e+04 1.388e-09
 13.77367    -70.9 1.234e+04 1.717e-09
 13.79331    -70.9 1.292e+04 2.257e-09
 13.81073    -70.8 1.338e+04 2.827e-09
 13.82055    -69.1 1.375e+04 3.019e-09
 13.83260    -69.0 1.435e+04 3.851e-09
 13.85225    -68.8 1.480e+04 4.495e-09
 13.86774    -68.6 1.508e+04 4.849e-09
 13.87756    -68.7 1.381e+04 3.002e-09
 13.89154    -68.9 1.393e+04 3.124e-09
 13.91118    -69.6 1.390e+04 3.166e-09
 13.93083    -70.5 1.376e+04 3.142e-09
 13.95047    -71.4 1.368e+04 3.182e-09
 13.97012    -72.2 1.367e+04 3.240e-09
 13.98976    -72.8 1.364e+04 3.282e-09
 14.00941    -73.1 1.341e+04 3.144e-09
 14.02905    -73.2 1.304e+04 2.760e-09
 14.04870    -73.3 1.256e+04 2.162e-09
 14.06323    -73.7 1.201e+04 1.571e-09
 14.07306    -73.8 1.166e+04 1.405e-09
 14.08799    -74.6 1.124e+04 1.065e-09
 14.10763    -75.7 1.084e+04 8.373e-10
 14.12728    -76.6 1.052e+04 7.172e-10
 14.14692    -77.2 1.035e+04 6.704e-10
 14.16657    -77.4 1.028e+04 6.487e-10
 14.18622    -77.4 1.022e+04 6.213e-10
 14.20586    -77.5 1.013e+04 5.777e-10
 14.22551    -77.5 9.987e+03 5.190e-10
 14.24515    -77.6 9.826e+03 4.602e-10
 14.25873    -77.7 9.698e+03 4.084e-10
 14.26855    -77.9 9.750e+03 4.179e-10
 14.28444    -77.9 9.679e+03 3.901e-10
 14.30409    -77.8 9.639e+03 3.624e-10
 14.31956    -77.8 9.625e+03 3.501e-10
 14.32938    -77.2 9.702e+03 3.870e-10
 14.35330    -77.4 9.673e+03 3.319e-10
 14.38276    -78.0 9.716e+03 3.232e-10
 14.40231    -78.8 9.788e+03 3.225e-10
 14.42196    -80.8 1.003e+04 3.608e-10
 14.44160    -82.5 1.027e+04 4.784e-10
 14.45423    -83.8 1.044e+04 6.499e-10
 14.46405    -84.1 1.036e+04 6.337e-10
 14.48089    -84.7 1.041e+04 6.895e-10
 14.50054    -85.2 1.038e+04 6.930e-10
 14.52018    -85.7 1.020e+04 5.914e-10
 14.53983    -86.6 9.953e+03 4.363e-10
 14.55947    -87.7 9.752e+03 3.379e-10
 14.58904    -88.8 9.718e+03 2.996e-10
 14.62843    -89.8 9.749e+03 2.995e-10
 14.66772    -90.5 9.865e+03 3.183e-10
 14.70701    -90.9 9.971e+03 3.332e-10
 14.74630    -91.3 1.002e+04 3.365e-10
 14.78559    -91.7 1.006e+04 3.412e-10
 14.81876    -91.9 1.008e+04 3.488e-10
 14.83831    -91.7 1.013e+04 3.753e-10
 14.84522    -91.8 1.014e+04 3.845e-10
 14.86496    -91.6 1.012e+04 3.492e-10
 14.90346    -91.3 1.013e+04 3.485e-10
 14.94275    -91.2 1.016e+04 3.319e-10
 14.98204    -91.4 1.017e+04 3.068e-10
 15.02133    -91.8 1.016e+04 2.967e-10
 15.06062    -92.3 1.030e+04 3.143e-10
 15.09991    -92.9 1.063e+04 4.009e-10
 15.12928    -94.0 1.075e+04 4.470e-10
 15.14883    -94.6 1.090e+04 4.850e-10
 15.17839    -96.1 1.118e+04 5.696e-10
 15.21676    -98.6 1.139e+04 6.115e-10
 15.23640    -98.7 1.134e+04 5.953e-10
 15.25707   -102.7 1.192e+04 7.971e-10
 15.29636   -107.1 1.255e+04 1.191e-09
 15.33565   -111.7 1.305e+04 1.552e-09
 15.36502   -115.5 1.320e+04 1.643e-09
 15.38457   -118.4 1.297e+04 1.616e-09
 15.41414   -121.1 1.261e+04 1.466e-09
 15.45352   -125.7 1.182e+04 1.042e-09
 15.48289   -128.8 1.123e+04 6.900e-10
 15.50244   -130.7 1.084e+04 5.441e-10
 15.52209   -133.4 1.012e+04 4.276e-10
 15.54173   -134.5 9.904e+03 4.072e-10
 15.57130   -135.1 9.863e+03 3.976e-10
 15.60775   -135.5 9.827e+03 4.021e-10
 15.62740   -136.0 9.918e+03 4.418e-10
 15.64998   -136.4 9.713e+03 3.951e-10
 15.68927   -136.6 9.336e+03 2.980e-10
 15.72856   -136.7 8.867e+03 2.023e-10
 15.76785   -136.3 8.387e+03 1.296e-10
 15.80714   -135.5 8.026e+03 8.617e-11
 15.83643   -134.7 7.831e+03 6.468e-11
 15.85608   -135.1 7.790e+03 6.147e-11
 15.88572   -134.4 7.710e+03 5.612e-11
 15.92501   -133.4 7.687e+03 5.478e-11
 15.96430   -132.4 7.680e+03 5.465e-11
 15.99874   -131.4 7.673e+03 5.665e-11
 16.01839   -131.3 7.624e+03 5.364e-11
 16.04288   -130.2 7.661e+03 5.823e-11
 16.08217   -129.2 7.688e+03 6.148e-11
 16.12146   -128.2 7.700e+03 6.266e-11
 16.16075   -127.2 7.705e+03 6.295e-11
 16.20004   -126.3 7.707e+03 6.312e-11
 16.23933   -125.5 7.713e+03 6.339e-11
 16.27862   -124.8 7.777e+03 6.559e-11
 16.31791   -124.3 7.889e+03 7.515e-11
 16.35720   -123.8 8.041e+03 9.276e-11
 16.38973   -123.4 8.230e+03 1.184e-10
 16.40938   -123.6 8.279e+03 1.237e-10
 16.43578   -123.3 8.435e+03 1.473e-10
 16.47507   -123.2 8.539e+03 1.614e-10
 16.51436   -123.2 8.573e+03 1.653e-10
 16.55365   -123.7 8.647e+03 1.764e-10
 16.59294   -124.7 8.902e+03 2.038e-10
 16.63223   -125.7 9.488e+03 2.869e-10
 16.67152   -126.6 1.023e+04 4.447e-10
 16.71081   -127.9 1.093e+04 6.329e-10
 16.75011   -129.8 1.139e+04 7.732e-10
 16.78073   -131.7 1.136e+04 8.140e-10
 16.80037   -135.6 1.172e+04 8.882e-10
 16.82869   -136.8 1.152e+04 8.523e-10
 16.85410   -138.2 1.122e+04 8.407e-10
 16.87374   -140.9 1.122e+04 8.595e-10
 16.90727   -141.5 1.097e+04 7.875e-10
 16.94656   -141.7 1.074e+04 6.267e-10
 16.98585   -141.4 1.061e+04 5.031e-10
 17.01522   -140.3 1.059e+04 4.649e-10
 17.03476   -140.8 1.067e+04 4.894e-10
 17.05441   -141.3 1.073e+04 5.550e-10
 17.07406   -141.2 1.097e+04 6.500e-10
 17.09370   -140.7 1.126e+04 7.639e-10
 17.11335   -140.5 1.147e+04 8.554e-10
 17.13299   -140.2 1.176e+04 1.016e-09
 17.15264   -140.1 1.185e+04 1.043e-09
 17.17152   -139.9 1.189e+04 1.069e-09
 17.18135   -141.6 1.196e+04 1.178e-09
 17.19193   -141.5 1.190e+04 1.073e-09
 17.21157   -141.6 1.175e+04 8.838e-10
 17.23122   -141.7 1.155e+04 6.729e-10
 17.25086   -141.8 1.127e+04 5.008e-10
 17.27051   -142.2 1.085e+04 3.626e-10
 17.30007   -142.5 1.035e+04 2.675e-10
 17.33946   -140.9 9.891e+03 1.949e-10
 17.37875   -139.4 9.608e+03 1.483e-10
 17.41804   -138.0 9.573e+03 1.349e-10
 17.45733   -136.6 9.599e+03 1.347e-10
 17.49662   -135.4 9.824e+03 1.477e-10
 17.53591   -134.4 1.002e+04 1.819e-10
 17.56271   -133.3 1.015e+04 2.186e-10
 17.58235   -133.7 1.014e+04 2.204e-10
 17.61449   -132.7 1.017e+04 2.341e-10
 17.65378   -131.8 1.013e+04 2.337e-10
 17.69307   -130.7 9.915e+03 1.927e-10
 17.73236   -129.4 9.713e+03 1.415e-10
 17.77165   -128.2 9.587e+03 1.087e-10
 17.81094   -127.0 9.541e+03 9.588e-11
 17.85023   -125.6 9.532e+03 9.387e-11
 17.87176   -124.1 9.539e+03 9.466e-11
 17.89141   -124.4 9.420e+03 7.863e-11
 17.92882   -122.9 9.511e+03 8.532e-11
 17.95370   -121.4 9.608e+03 1.027e-10
 17.97335   -121.0 9.566e+03 9.014e-11
 18.00740   -119.5 9.644e+03 1.090e-10
 18.04669   -117.9 9.738e+03 1.336e-10
 18.08598   -116.3 9.867e+03 1.633e-10
 18.12527   -114.8 1.002e+04 1.988e-10
 18.16456   -113.5 1.022e+04 2.426e-10
 18.20385   -112.2 1.044e+04 2.956e-10
 18.24314   -111.2 1.069e+04 3.499e-10
 18.28243   -110.2 1.087e+04 3.851e-10
 18.32172   -109.3 1.092e+04 3.950e-10
 18.34469   -108.1 1.094e+04 3.609e-10
 18.36434   -107.4 1.089e+04 3.724e-10
 18.40030   -105.9 1.085e+04 2.946e-10
 18.43959   -104.1 1.075e+04 2.034e-10
 18.47888   -102.3 1.070e+04 1.377e-10
 18.51817   -100.6 1.070e+04 1.019e-10
 18.55746    -98.9 1.072e+04 8.892e-11
 18.59675    -97.0 1.073e+04 8.615e-11
 18.63604    -95.2 1.083e+04 8.660e-11
 18.67533    -93.5 1.090e+04 9.959e-11
 18.71462    -91.7 1.088e+04 1.224e-10
 18.73568    -89.9 1.085e+04 1.504e-10
 18.75533    -89.3 1.076e+04 1.133e-10
 18.79320    -87.5 1.071e+04 1.344e-10
 18.83249    -85.7 1.062e+04 1.500e-10
 18.86978    -84.0 1.057e+04 1.551e-10
 18.88943    -84.3 1.053e+04 1.341e-10
 18.91107    -82.5 1.035e+04 1.332e-10
 18.95036    -80.7 1.018e+04 1.208e-10
 18.98965    -78.8 1.005e+04 1.026e-10
 19.02895    -76.7 9.921e+03 8.546e-11
 19.06824    -74.6 9.835e+03 6.965e-11
 19.10703    -72.6 9.788e+03 5.682e-11
 19.12668    -71.9 9.816e+03 6.375e-11
 19.14682    -70.0 9.802e+03 5.431e-11
 19.18611    -68.2 9.794e+03 4.929e-11
 19.22540    -66.5 9.788e+03 4.812e-11
 19.26469    -64.8 9.768e+03 4.967e-11
 19.30398    -63.2 9.699e+03 5.892e-11
 19.34327    -61.3 9.634e+03 7.124e-11
 19.38256    -59.4 9.589e+03 8.385e-11
 19.42185    -57.6 9.569e+03 9.617e-11
 19.46114    -55.9 9.565e+03 1.127e-10
 19.49802    -54.4 9.578e+03 1.398e-10
 19.51767    -54.3 9.587e+03 1.344e-10
 19.53972    -52.8 9.608e+03 1.675e-10
 19.57901    -51.4 9.647e+03 2.082e-10
 19.61830    -50.0 9.660e+03 2.353e-10
 19.65759    -48.7 9.636e+03 2.387e-10
 19.69688    -47.3 9.431e+03 2.112e-10
 19.73617    -45.9 9.249e+03 1.571e-10
 19.77546    -44.5 9.110e+03 1.103e-10
 19.81475    -43.3 8.962e+03 8.178e-11
 19.85404    -42.1 8.828e+03 7.136e-11
 19.88745    -40.6 8.800e+03 6.964e-11
 19.90278    -40.7 8.693e+03 6.516e-11
 19.90866    -40.6 8.673e+03 6.450e-11
 19.93262    -38.9 8.656e+03 6.377e-11
 19.97191    -37.1 8.609e+03 6.577e-11
 20.01120    -35.3 8.573e+03 6.640e-11
 20.05049    -33.5 8.506e+03 6.468e-11
 20.08978    -31.6 8.428e+03 6.055e-11
 20.12907    -29.6 8.364e+03 5.645e-11
 20.16837    -27.6 8.302e+03 5.350e-11
 20.20766    -25.6 8.259e+03 5.089e-11
 20.24695    -23.5 8.225e+03 4.760e-11
 20.28001    -21.5 8.206e+03 4.349e-11
 20.29965    -21.4 8.170e+03 4.212e-11
 20.32553    -19.4 8.166e+03 3.832e-11
 20.36482    -17.7 8.156e+03 3.634e-11
 20.40411    -16.1 8.138e+03 3.702e-11
 20.44340    -14.5 8.017e+03 4.262e-11
 20.48269    -12.3 7.902e+03 5.017e-11
 20.52198     -9.8 7.880e+03 5.371e-11
 20.56127     -7.4 7.880e+03 4.862e-11
 20.60056     -5.3 7.852e+03 3.975e-11
 20.63985     -3.8 7.867e+03 3.172e-11
 20.67100     -2.1 7.785e+03 3.144e-11
 20.69064     -1.7 7.792e+03 3.012e-11
 20.71843     -0.1 7.794e+03 3.354e-11
 20.75772      1.6 7.797e+03 4.251e-11
 20.79701      3.5 7.843e+03 5.714e-11
 20.83630      5.5 7.908e+03 7.404e-11
 20.87559      7.5 7.987e+03 8.824e-11
 20.90512      9.3 8.058e+03 9.538e-11
 20.92476      9.6 8.063e+03 9.422e-11
 20.95417     11.3 8.074e+03 9.596e-11
 20.99346     12.8 8.067e+03 9.470e-11
 21.03275     14.2 8.061e+03 9.368e-11
 21.06199     15.6 8.036e+03 9.509e-11
 21.08163     15.8 8.138e+03 1.109e-10
 21.11133     17.4 8.106e+03 1.156e-10
 21.15062     19.1 8.062e+03 1.127e-10
 21.18991     20.9 7.985e+03 1.039e-10
 21.22920     22.6 7.909e+03 9.213e-11
 21.26849     24.2 7.869e+03 8.671e-11
 21.30778     25.8 7.880e+03 8.847e-11
 21.34708     27.3 7.919e+03 9.723e-11
 21.38637     29.0 7.968e+03 1.145e-10
 21.42566     30.9 8.052e+03 1.355e-10
 21.45298     32.9 8.082e+03 1.489e-10
 21.47263     33.4 8.044e+03 1.385e-10
 21.50424     35.3 8.061e+03 1.377e-10
 21.54353     37.0 8.079e+03 1.338e-10
 21.58282     38.7 8.104e+03 1.294e-10
 21.62211     40.4 8.137e+03 1.296e-10
 21.66140     41.9 8.199e+03 1.322e-10
 21.70069     43.3 8.314e+03 1.411e-10
 21.73998     44.5 8.446e+03 1.595e-10
 21.77927     45.6 8.638e+03 2.082e-10
 21.81856     45.8 9.171e+03 3.213e-10
 21.84397     44.1 1.074e+04 6.080e-10
 21.86362     43.5 1.132e+04 7.524e-10
 21.88722     42.4 1.204e+04 1.111e-09
 21.90677     41.4 1.300e+04 1.989e-09
 21.92259     41.6 1.368e+04 3.251e-09
 21.93241     42.5 1.292e+04 2.059e-09
 21.94606     42.8 1.335e+04 2.954e-09
 21.96570     43.3 1.344e+04 3.253e-09
 21.98535     43.5 1.333e+04 3.085e-09
 22.01491     43.6 1.256e+04 1.986e-09
 22.05430     43.3 1.180e+04 1.278e-09
 22.09359     43.2 1.096e+04 7.451e-10
 22.13288     43.5 1.037e+04 4.491e-10
 22.17217     44.0 9.986e+03 2.908e-10
 22.21146     44.7 9.802e+03 2.202e-10
 22.23496     45.8 9.829e+03 2.261e-10
 22.25461     46.5 1.021e+04 3.306e-10
 22.29004     47.6 1.030e+04 3.550e-10
 22.32933     48.9 1.041e+04 3.874e-10
 22.36862     50.3 1.055e+04 4.108e-10
 22.40791     51.5 1.076e+04 4.222e-10
 22.44720     52.3 1.118e+04 4.607e-10
 22.48650     53.0 1.168e+04 5.844e-10
 22.52579     54.0 1.213e+04 8.383e-10
 22.56508     54.9 1.268e+04 1.261e-09
 22.59445     55.3 1.318e+04 1.635e-09
 22.61399     54.6 1.427e+04 2.665e-09
 22.62576     53.7 1.566e+04 4.938e-09
 22.63558     53.9 1.570e+04 5.031e-09
 22.65328     53.8 1.697e+04 8.896e-09
 22.67293     53.8 1.770e+04 1.179e-08
 22.69257     53.5 1.766e+04 1.160e-08
 22.71222     53.6 1.713e+04 9.657e-09
 22.73186     53.6 1.638e+04 6.564e-09
 22.75151     52.7 1.554e+04 4.043e-09
 22.77115     50.8 1.455e+04 2.534e-09
 22.79080     49.5 1.360e+04 1.718e-09
 22.81045     48.9 1.299e+04 1.354e-09
 22.84001     48.7 1.256e+04 1.104e-09
 22.86948     49.2 1.216e+04 9.187e-10
 22.88903     49.7 1.185e+04 7.350e-10
 22.90867     50.0 1.161e+04 5.828e-10
 22.92832     50.1 1.145e+04 4.935e-10
 22.94025     50.3 1.129e+04 4.503e-10
 22.95008     50.7 1.150e+04 5.279e-10
 22.96761     50.9 1.137e+04 5.118e-10
 22.98725     51.3 1.127e+04 5.079e-10
 23.00690     51.7 1.122e+04 5.097e-10
 23.02654     52.0 1.119e+04 5.061e-10
 23.04619     52.3 1.112e+04 4.992e-10
 23.06583     52.5 1.104e+04 4.861e-10
 23.08548     52.8 1.094e+04 4.683e-10
 23.10512     53.0 1.081e+04 4.417e-10
 23.12477     53.2 1.074e+04 4.227e-10
 23.14441     53.4 1.067e+04 3.975e-10
 23.16406     53.4 1.067e+04 3.937e-10
 23.18370     53.4 1.071e+04 4.022e-10
 23.20243     53.1 1.081e+04 4.387e-10
 23.21225     53.1 1.092e+04 4.415e-10
 23.22299     52.6 1.108e+04 5.269e-10
 23.24264     52.3 1.119e+04 6.480e-10
 23.26228     52.4 1.131e+04 7.870e-10
 23.28193     52.6 1.144e+04 8.976e-10
 23.30157     52.7 1.155e+04 9.246e-10
 23.32122     52.8 1.155e+04 9.184e-10
 23.34086     53.0 1.150e+04 8.813e-10
 23.36051     53.2 1.140e+04 8.115e-10
 23.38016     53.4 1.125e+04 7.143e-10
 23.39792     53.7 1.111e+04 6.219e-10
 23.40774     53.7 1.104e+04 5.717e-10
 23.41945     54.1 1.086e+04 4.825e-10
 23.43909     54.2 1.078e+04 4.388e-10
 23.46866     55.0 1.060e+04 3.755e-10
 23.50804     56.5 1.045e+04 3.249e-10
 23.54733     58.0 1.047e+04 3.229e-10
 23.58662     59.4 1.059e+04 3.565e-10
 23.62592     60.5 1.091e+04 4.706e-10
 23.66521     61.6 1.146e+04 7.274e-10
 23.70450     62.6 1.216e+04 1.173e-09
 23.74379     63.2 1.284e+04 1.716e-09
 23.77929     63.5 1.339e+04 2.214e-09
 23.79893     64.0 1.315e+04 2.024e-09
 23.82237     64.0 1.355e+04 2.257e-09
 23.86166     63.4 1.347e+04 2.058e-09
 23.90095     62.4 1.332e+04 1.970e-09
 23.93032     62.5 1.333e+04 2.060e-09
 23.94810     62.1 1.346e+04 2.232e-09
 23.95802     64.4 1.335e+04 2.029e-09
 23.96961     63.5 1.357e+04 2.369e-09
 23.98441     63.6 1.336e+04 2.474e-09
 23.99423     63.8 1.337e+04 2.412e-09
 24.00880     64.3 1.299e+04 2.193e-09
 24.02845     64.6 1.259e+04 1.631e-09
 24.04809     64.2 1.228e+04 1.119e-09
 24.06774     62.9 1.202e+04 8.163e-10
 24.08738     61.2 1.170e+04 7.316e-10
 24.10703     60.1 1.159e+04 7.957e-10
 24.12667     59.6 1.171e+04 9.394e-10
 24.14632     59.5 1.189e+04 1.142e-09
 24.16596     59.5 1.218e+04 1.394e-09
 24.17990     59.6 1.244e+04 1.637e-09
 24.18973     59.8 1.226e+04 1.566e-09
 24.20525     60.0 1.244e+04 1.705e-09
 24.22490     60.1 1.260e+04 1.828e-09
 24.24454     60.1 1.272e+04 1.944e-09
 24.26419     60.2 1.281e+04 2.040e-09
 24.28383     60.2 1.294e+04 2.159e-09
 24.30348     60.1 1.304e+04 2.265e-09
 24.32312     60.0 1.312e+04 2.346e-09
 24.34277     59.9 1.319e+04 2.375e-09
 24.36241     59.7 1.315e+04 2.288e-09
 24.37540     59.5 1.303e+04 2.143e-09
 24.38522     59.7 1.405e+04 3.627e-09
 24.40170     59.7 1.377e+04 3.243e-09
 24.42135     59.9 1.336e+04 2.709e-09
 24.44099     60.0 1.291e+04 2.215e-09
 24.45693     60.1 1.253e+04 1.842e-09
 24.46675     60.5 1.269e+04 1.972e-09
 24.48028     60.5 1.241e+04 1.644e-09
 24.49993     60.6 1.223e+04 1.425e-09
 24.51958     60.7 1.213e+04 1.340e-09
 24.53922     61.0 1.212e+04 1.307e-09
 24.55887     61.5 1.209e+04 1.275e-09
 24.57090     62.0 1.204e+04 1.239e-09
 24.58072     61.9 1.184e+04 1.070e-09
 24.59816     62.5 1.176e+04 1.040e-09
 24.61780     62.9 1.171e+04 1.024e-09
 24.63745     63.6 1.164e+04 1.008e-09
 24.65709     64.0 1.164e+04 1.010e-09
 24.67674     64.7 1.160e+04 9.956e-10
 24.69638     65.1 1.162e+04 9.956e-10
 24.71603     66.1 1.158e+04 9.704e-10
 24.73567     66.4 1.159e+04 9.681e-10
 24.76524     68.1 1.151e+04 9.180e-10
 24.79471     69.0 1.160e+04 9.861e-10
 24.81425     69.6 1.167e+04 1.021e-09
 24.83390     70.2 1.170e+04 1.045e-09
 24.85354     70.8 1.169e+04 1.047e-09
 24.87319     71.5 1.169e+04 1.041e-09
 24.89283     72.1 1.168e+04 1.029e-09
 24.91248     72.8 1.166e+04 9.931e-10
 24.93212     73.3 1.160e+04 9.361e-10
 24.95177     74.0 1.147e+04 8.591e-10
 24.96189     74.6 1.129e+04 7.771e-10
 24.96606     74.7 1.122e+04 7.715e-10
 24.97559     74.7 1.142e+04 7.902e-10
 24.99106     75.4 1.118e+04 6.968e-10
 25.01070     76.0 1.100e+04 6.276e-10
 25.03035     76.9 1.077e+04 5.405e-10
 25.04999     77.3 1.070e+04 5.058e-10
 25.07956     78.8 1.053e+04 4.452e-10
 25.11895     80.7 1.037e+04 3.748e-10
 25.15824     82.5 1.032e+04 3.344e-10
 25.19753     84.3 1.036e+04 3.267e-10
 25.23682     85.9 1.048e+04 3.433e-10
 25.27611     87.0 1.074e+04 3.907e-10
 25.30548     86.7 1.105e+04 5.378e-10
 25.32503     86.8 1.128e+04 7.538e-10
 25.34306     87.1 1.153e+04 1.036e-09
 25.35288     87.2 1.163e+04 1.167e-09
 25.36432     87.9 1.190e+04 1.456e-09
 25.38396     88.5 1.195e+04 1.570e-09
 25.40361     89.1 1.185e+04 1.512e-09
 25.42325     89.8 1.159e+04 1.290e-09
 25.44290     90.3 1.127e+04 9.475e-10
 25.46254     90.2 1.088e+04 5.960e-10
 25.47460     89.6 1.053e+04 4.070e-10
 25.48442     90.4 1.078e+04 4.947e-10
 25.51175     90.3 1.029e+04 3.219e-10
 25.55114     91.2 9.742e+03 2.398e-10
 25.59043     92.9 9.517e+03 2.291e-10
 25.62972     95.0 9.537e+03 2.343e-10
 25.66901     97.1 9.665e+03 2.640e-10
 25.70830     98.8 9.994e+03 3.247e-10
 25.73424    100.2 1.034e+04 3.902e-10
 25.75389    100.9 1.013e+04 3.304e-10
 25.78688    102.3 1.035e+04 3.620e-10
 25.82617    103.7 1.047e+04 3.769e-10
 25.86546    105.2 1.054e+04 3.819e-10
 25.90476    106.8 1.059e+04 3.902e-10
 25.94405    108.4 1.066e+04 4.036e-10
 25.97380    109.9 1.077e+04 4.228e-10
 25.99345    110.4 1.034e+04 3.082e-10
 26.02263    112.0 1.040e+04 3.104e-10
 26.06192    113.8 1.048e+04 3.123e-10
 26.10121    115.7 1.074e+04 3.210e-10
 26.12524    117.4 1.116e+04 3.497e-10
 26.14488    118.8 1.106e+04 3.615e-10
 26.16987    118.9 1.142e+04 4.387e-10
 26.18941    119.1 1.164e+04 5.166e-10
 26.20906    119.3 1.178e+04 6.417e-10
 26.22871    119.7 1.188e+04 7.835e-10
 26.24835    120.2 1.198e+04 9.128e-10
 26.26800    120.5 1.202e+04 1.003e-09
 26.28764    120.9 1.199e+04 1.027e-09
 26.30729    121.3 1.192e+04 9.974e-10
 26.32054    121.6 1.175e+04 9.256e-10
 26.33036    122.0 1.172e+04 8.586e-10
 26.34658    122.4 1.150e+04 7.707e-10
 26.36622    122.8 1.126e+04 6.742e-10
 26.38587    123.4 1.103e+04 5.847e-10
 26.40551    123.9 1.083e+04 5.087e-10
 26.42516    124.6 1.071e+04 4.484e-10
 26.44480    125.2 1.062e+04 4.074e-10
 26.46445    125.8 1.055e+04 3.938e-10
 26.48244    126.4 1.056e+04 3.956e-10
 26.49226    127.2 1.055e+04 4.020e-10
 26.50374    128.0 1.059e+04 4.083e-10
 26.51603    128.0 1.071e+04 4.344e-10
 26.52585    128.3 1.066e+04 4.227e-10
 26.54303    127.3 1.109e+04 4.965e-10
 26.56267    123.7 1.294e+04 9.383e-10
 26.58232    120.2 1.511e+04 2.633e-09
 26.60196    119.1 1.615e+04 5.070e-09
 26.61373    117.6 1.699e+04 8.336e-09
 26.61859    117.5 1.708e+04 8.110e-09
 26.62642    116.6 1.762e+04 1.127e-08
 26.63624    116.0 1.820e+04 1.292e-08
 26.64607    115.5 1.831e+04 1.268e-08
 26.65589    114.4 1.853e+04 1.154e-08
 26.66571    112.7 1.850e+04 9.283e-09
 26.67554    110.3 1.812e+04 7.598e-09
 26.68536    109.4 1.778e+04 7.026e-09
 26.70014    107.5 1.759e+04 6.279e-09
 26.71153    103.2 1.590e+04 3.976e-09
 26.72135    103.4 1.561e+04 3.044e-09
 26.73948     99.5 1.300e+04 1.922e-09
 26.75912     98.2 1.177e+04 1.473e-09
 26.77877     98.2 1.154e+04 1.253e-09
 26.79841     98.2 1.143e+04 1.040e-09
 26.81806     98.1 1.124e+04 8.344e-10
 26.83771     97.7 1.102e+04 6.881e-10
 26.85735     97.2 1.079e+04 6.137e-10
 26.87700     97.0 1.069e+04 6.108e-10
 26.89664     97.0 1.069e+04 6.163e-10
 26.90712     97.5 1.061e+04 6.160e-10
 26.91694     97.9 1.058e+04 5.932e-10
 26.93593     98.0 1.062e+04 6.276e-10
 26.95558     98.2 1.069e+04 6.763e-10
 26.97522     98.4 1.080e+04 7.379e-10
 26.99127     98.6 1.089e+04 7.904e-10
 27.00110     98.8 1.114e+04 9.444e-10
 27.01451     99.0 1.125e+04 1.001e-09
 27.03416     99.2 1.131e+04 1.008e-09
 27.05380     99.3 1.131e+04 1.003e-09
 27.07345     99.5 1.126e+04 9.742e-10
 27.09270     99.9 1.113e+04 9.073e-10
 27.10252     99.8 1.110e+04 8.495e-10
 27.11274    100.2 1.093e+04 7.346e-10
 27.13238    100.3 1.078e+04 5.941e-10
 27.15203    100.3 1.053e+04 4.362e-10
 27.17167    100.2 1.044e+04 3.958e-10
 27.20124    101.3 1.029e+04 3.288e-10
 27.24063    102.7 9.902e+03 2.283e-10
 27.27857    104.5 9.563e+03 1.679e-10
 27.29821    104.3 9.451e+03 1.370e-10
 27.31921    106.3 9.260e+03 1.202e-10
 27.35850    108.7 9.263e+03 1.217e-10
 27.39779    111.1 9.265e+03 1.287e-10
 27.43708    113.7 9.298e+03 1.503e-10
 27.47637    116.5 9.450e+03 1.948e-10
 27.51566    119.3 9.867e+03 2.634e-10
 27.55495    121.6 1.034e+04 3.492e-10
 27.58432    122.1 1.061e+04 4.203e-10
 27.60387    122.3 1.095e+04 5.512e-10
 27.62351    122.7 1.127e+04 7.481e-10
 27.64316    123.3 1.161e+04 1.002e-09
 27.66280    123.8 1.202e+04 1.331e-09
 27.67918    124.2 1.248e+04 1.754e-09
 27.68901    124.1 1.260e+04 1.858e-09
 27.70209    124.4 1.304e+04 2.348e-09
 27.72174    124.7 1.345e+04 2.809e-09
 27.74138    124.8 1.368e+04 2.905e-09
 27.76103    124.7 1.368e+04 2.861e-09
 27.78067    124.6 1.358e+04 2.649e-09
 27.80032    124.6 1.327e+04 2.209e-09
 27.81996    124.7 1.280e+04 1.615e-09
 27.83961    124.7 1.228e+04 1.072e-09
 27.85925    124.6 1.182e+04 6.907e-10
 27.87468    124.1 1.144e+04 4.661e-10
 27.88450    123.8 1.129e+04 4.448e-10
 27.90846    124.4 1.109e+04 3.878e-10
 27.94785    125.3 1.102e+04 3.767e-10
 27.98714    126.4 1.107e+04 3.832e-10
 28.00913    127.3 1.120e+04 3.948e-10
 28.02878    127.0 1.086e+04 3.200e-10
 28.06055    127.6 1.089e+04 3.204e-10
 28.08019    127.5 1.065e+04 2.804e-10
 28.10501    128.4 1.065e+04 2.859e-10
 28.14430    129.3 1.063e+04 2.837e-10
 28.18359    130.2 1.057e+04 2.795e-10
 28.22289    131.2 1.047e+04 2.772e-10
 28.26218    132.5 1.040e+04 2.773e-10
 28.30147    133.9 1.034e+04 2.803e-10
 28.34076    135.5 1.028e+04 2.808e-10
 28.38005    137.2 1.023e+04 2.734e-10
 28.41934    138.9 1.015e+04 2.585e-10
 28.45154    140.7 1.004e+04 2.364e-10
 28.47119    140.8 1.008e+04 2.541e-10
 28.49792    142.5 9.942e+03 2.282e-10
 28.53721    144.3 9.817e+03 2.079e-10
 28.57650    146.0 9.813e+03 2.033e-10
 28.61579    147.7 9.862e+03 2.082e-10
 28.65508    149.0 1.002e+04 2.281e-10
 28.69437    150.0 1.017e+04 2.605e-10
 28.73366    150.8 1.021e+04 2.770e-10
 28.77295    151.8 1.021e+04 2.874e-10
 28.81224    152.7 1.023e+04 3.051e-10
 28.84253    153.6 1.032e+04 3.353e-10
 28.86218    154.0 1.030e+04 3.475e-10
 28.89082    155.6 1.024e+04 3.553e-10
 28.93011    156.8 1.022e+04 3.620e-10
 28.96940    157.7 1.024e+04 3.787e-10
 29.00716    158.4 1.034e+04 4.099e-10
 29.02680    156.8 1.096e+04 6.197e-10
 29.04798    157.3 1.115e+04 6.734e-10
 29.08727    157.5 1.144e+04 7.653e-10
 29.12656    157.7 1.182e+04 8.563e-10
 29.16585    157.6 1.215e+04 9.064e-10
 29.20514    157.2 1.230e+04 9.429e-10
 29.23352    156.5 1.237e+04 9.905e-10
 29.25317    158.2 1.245e+04 1.180e-09
 29.28372    157.3 1.270e+04 1.290e-09
 29.32301    156.0 1.301e+04 1.386e-09
 29.36231    154.5 1.312e+04 1.344e-09
 29.40160    152.4 1.279e+04 9.964e-10
 29.44089    149.5 1.138e+04 4.406e-10
 29.48018    145.4 9.981e+03 2.257e-10
 29.51947    142.2 9.795e+03 2.222e-10
 29.55876    141.8 9.996e+03 2.699e-10
 29.58813    141.0 1.038e+04 3.395e-10
 29.60767    139.9 1.097e+04 4.814e-10
 29.62432    138.4 1.160e+04 7.821e-10
 29.63414    137.9 1.173e+04 8.877e-10
 29.64696    137.1 1.212e+04 1.273e-09
 29.66661    136.4 1.245e+04 1.529e-09
 29.68626    135.5 1.262e+04 1.543e-09
 29.70590    134.0 1.268e+04 1.548e-09
 29.72555    131.8 1.278e+04 1.568e-09
 29.74519    128.5 1.302e+04 1.652e-09
 29.76484    124.2 1.362e+04 2.037e-09
 29.78448    120.2 1.431e+04 3.019e-09
 29.80413    117.5 1.474e+04 4.029e-09
 29.81982    115.2 1.473e+04 4.043e-09
 29.82964    115.3 1.423e+04 3.430e-09
 29.84342    113.4 1.392e+04 3.040e-09
 29.86306    112.0 1.329e+04 1.915e-09
 29.88271    110.4 1.252e+04 1.078e-09
 29.91227    107.1 1.092e+04 3.261e-10
 29.95166    100.9 8.282e+03 8.826e-11
 29.99095     99.2 7.893e+03 8.203e-11
 30.01551     99.2 7.879e+03 8.367e-11
 30.02973     99.4 7.875e+03 8.316e-11
 30.04447     98.3 7.943e+03 9.471e-11
 30.06953     98.3 7.996e+03 1.107e-10
 30.10882     98.2 8.129e+03 1.370e-10
 30.14811     98.1 8.280e+03 1.676e-10
 30.18740     97.8 8.421e+03 1.890e-10
 30.22669     97.2 8.451e+03 1.908e-10
 30.26598     96.5 8.432e+03 1.897e-10
 30.30527     95.9 8.439e+03 1.918e-10
 30.34456     95.0 8.529e+03 2.101e-10
 30.38385     93.7 8.903e+03 2.929e-10
 30.40650     92.5 9.657e+03 4.976e-10
 30.42614     92.5 9.407e+03 4.223e-10
 30.46243     91.5 1.005e+04 6.653e-10
 30.50173     90.3 1.027e+04 7.483e-10
 30.54102     89.1 1.020e+04 7.194e-10
 30.58031     88.3 9.885e+03 5.892e-10
 30.61960     88.0 9.362e+03 4.251e-10
 30.65889     87.9 8.896e+03 3.019e-10
 30.69818     87.9 8.565e+03 2.270e-10
 30.73747     88.1 8.371e+03 1.896e-10
 30.77676     88.6 8.277e+03 1.776e-10
 30.79749     89.4 8.233e+03 1.746e-10
 30.81714     89.8 8.373e+03 2.129e-10
 30.85534     90.6 8.333e+03 2.065e-10
 30.89463     91.6 8.269e+03 1.942e-10
 30.93392     92.6 8.183e+03 1.752e-10
 30.97321     93.5 8.096e+03 1.557e-10
 31.01250     94.5 8.068e+03 1.475e-10
 31.04249     95.4 8.076e+03 1.484e-10
 31.06213     94.3 8.180e+03 1.690e-10
 31.09108     95.2 8.249e+03 1.788e-10
 31.13037     96.1 8.357e+03 2.003e-10
 31.16884     96.8 8.518e+03 2.317e-10
 31.18848     97.1 8.455e+03 2.153e-10
 31.20895     97.8 8.595e+03 2.431e-10
 31.24824     98.2 8.800e+03 2.829e-10
 31.28753     98.1 9.140e+03 3.585e-10
 31.32682     97.4 9.825e+03 5.383e-10
 31.36611     96.0 1.087e+04 9.170e-10
 31.40540     93.8 1.194e+04 1.432e-09
 31.44469     91.0 1.251e+04 1.674e-09
 31.48398     87.8 1.245e+04 1.582e-09
 31.52327     85.4 1.192e+04 1.172e-09
 31.55983     84.0 1.106e+04 7.047e-10
 31.57947     83.7 1.077e+04 5.650e-10
 31.60185     83.0 9.950e+03 3.018e-10
 31.64114     82.5 9.477e+03 1.854e-10
 31.68044     82.4 9.266e+03 1.578e-10
 31.71973     82.8 9.211e+03 1.606e-10
 31.75902     83.8 9.222e+03 1.701e-10
 31.79831     84.8 9.262e+03 1.791e-10
 31.83760     85.9 9.271e+03 1.793e-10
 31.87689     87.1 9.272e+03 1.728e-10
 31.91618     88.3 9.270e+03 1.579e-10
 31.95082     89.5 9.261e+03 1.443e-10
 31.97047     89.6 9.328e+03 1.614e-10
 31.99476     90.7 9.317e+03 1.551e-10
 32.03405     91.8 9.264e+03 1.492e-10
 32.06015     92.9 9.183e+03 1.398e-10
 32.07980     91.9 9.084e+03 1.341e-10
 32.11263     93.2 8.920e+03 1.104e-10
 32.15192     94.7 8.772e+03 8.855e-11
 32.19121     96.2 8.646e+03 7.052e-11
 32.23050     97.8 8.526e+03 5.769e-11
 32.26979     99.4 8.399e+03 5.057e-11
 32.30908    101.1 8.295e+03 4.840e-11
 32.34181    103.0 8.278e+03 4.871e-11
 32.36146    103.2 8.158e+03 3.887e-11
 32.38766    105.1 8.132e+03 4.207e-11
 32.42695    107.1 8.130e+03 4.697e-11
 32.46624    109.1 8.155e+03 5.336e-11
 32.50553    111.0 8.198e+03 6.067e-11
 32.54482    112.9 8.248e+03 6.685e-11
 32.58411    114.5 8.273e+03 6.966e-11
 32.62340    116.0 8.270e+03 6.987e-11
 32.66269    117.5 8.246e+03 7.003e-11
 32.70198    118.8 8.228e+03 7.076e-11
 32.73280    120.1 8.200e+03 7.377e-11
 32.75245    120.6 8.178e+03 7.132e-11
 32.78056    121.9 8.197e+03 7.937e-11
 32.81986    123.1 8.253e+03 9.012e-11
 32.85915    124.1 8.318e+03 1.042e-10
 32.89844    125.0 8.426e+03 1.253e-10
 32.93773    125.7 8.615e+03 1.599e-10
 32.97702    126.2 8.922e+03 2.162e-10
 33.01631    126.3 9.315e+03 2.966e-10
 33.05560    126.3 9.669e+03 3.774e-10
 33.07772    126.2 9.847e+03 4.272e-10
 33.08745    126.2 9.772e+03 4.124e-10
 33.10451    126.1 1.002e+04 4.809e-10
 33.12360    125.8 1.034e+04 6.020e-10
 33.13342    126.7 1.017e+04 5.252e-10
 33.14381    126.3 1.048e+04 6.844e-10
 33.16345    126.0 1.077e+04 8.470e-10
 33.18310    125.9 1.106e+04 9.901e-10
 33.20274    125.7 1.134e+04 1.134e-09
 33.22239    125.3 1.162e+04 1.303e-09
 33.24203    124.9 1.187e+04 1.507e-09
 33.26168    124.6 1.211e+04 1.749e-09
 33.28132    124.5 1.234e+04 2.000e-09
 33.30097    124.5 1.241e+04 2.047e-09
 33.31910    124.5 1.239e+04 2.008e-09
 33.32892    125.2 1.268e+04 2.259e-09
 33.34026    125.1 1.264e+04 2.170e-09
 33.35990    125.0 1.244e+04 1.865e-09
 33.37955    124.7 1.205e+04 1.421e-09
 33.39919    124.1 1.151e+04 9.765e-10
 33.41884    123.0 1.082e+04 6.338e-10
 33.43848    121.7 1.008e+04 4.220e-10
 33.45813    120.5 9.462e+03 3.102e-10
 33.47777    119.6 9.096e+03 2.572e-10
 33.49742    119.0 9.084e+03 2.504e-10
 33.51459    117.8 9.511e+03 2.802e-10
 33.52441    118.6 9.315e+03 2.566e-10
 33.53671    114.7 1.097e+04 3.854e-10
 33.55635    105.5 1.480e+04 1.231e-09
 33.57600     97.5 1.781e+04 5.020e-09
 33.58646     92.4 1.931e+04 1.081e-08
 33.59628     89.3 2.084e+04 1.589e-08
 33.61529     84.5 2.092e+04 1.480e-08
 33.63493     79.4 1.998e+04 8.436e-09
 33.65458     73.6 1.675e+04 2.978e-09
 33.67422     69.8 1.259e+04 1.211e-09
 33.69387     65.8 9.727e+03 5.523e-10
 33.72344     62.8 9.008e+03 1.978e-10
 33.76282     60.2 9.094e+03 1.074e-10
 33.80211     60.3 9.039e+03 1.079e-10
 33.84140     60.2 9.004e+03 1.184e-10
 33.88069     59.9 9.107e+03 1.654e-10
 33.90578     59.4 9.701e+03 2.911e-10
 33.92542     59.4 1.002e+04 3.568e-10
 33.94935     58.8 1.025e+04 4.572e-10
 33.96890     58.1 1.061e+04 5.813e-10
 33.98855     57.4 1.096e+04 7.187e-10
 34.00819     56.5 1.124e+04 8.314e-10
 34.02784     55.4 1.155e+04 9.413e-10
 34.04748     53.5 1.210e+04 1.143e-09
 34.06713     51.1 1.273e+04 1.530e-09
 34.08547     49.3 1.324e+04 2.099e-09
 34.09529     48.7 1.348e+04 2.390e-09
 34.10108     47.6 1.369e+04 2.760e-09
 34.11090     47.5 1.350e+04 2.365e-09
 34.12606     46.8 1.335e+04 2.249e-09
 34.14571     46.9 1.273e+04 1.573e-09
 34.16535     46.1 1.215e+04 1.029e-09
 34.19492     44.2 1.138e+04 4.431e-10
 34.23431     40.4 9.976e+03 1.558e-10
 34.27360     38.9 9.628e+03 1.404e-10
 34.29677     38.3 9.623e+03 1.554e-10
 34.31642     38.5 9.760e+03 1.634e-10
 34.35218     38.2 9.783e+03 2.047e-10
 34.39147     38.0 9.763e+03 2.332e-10
 34.43076     37.8 9.697e+03 2.264e-10
 34.47005     37.8 9.504e+03 1.988e-10
 34.50934     38.0 9.249e+03 1.603e-10
 34.54863     38.5 9.027e+03 1.306e-10
 34.58792     39.3 8.838e+03 1.158e-10
 34.62721     40.3 8.796e+03 1.170e-10
 34.66650     41.5 8.825e+03 1.277e-10
 34.68776     42.6 8.965e+03 1.570e-10
 34.70741     43.1 9.143e+03 1.590e-10
 34.74508     44.1 9.353e+03 2.082e-10
 34.78437     44.9 9.725e+03 2.998e-10
 34.82366     45.6 1.010e+04 4.071e-10
 34.86295     46.3 1.034e+04 4.724e-10
 34.90224     47.1 1.047e+04 4.548e-10
 34.94153     47.9 1.050e+04 3.617e-10
 34.98082     48.3 1.043e+04 2.407e-10
 35.02011     48.3 1.022e+04 1.999e-10
 35.05911     48.4 1.028e+04 2.244e-10
 35.07875     48.1 1.061e+04 3.401e-10
 35.08877     47.5 1.075e+04 3.943e-10
 35.10314     47.4 1.087e+04 4.586e-10
 35.11306     45.4 1.147e+04 6.592e-10
 35.12807     45.3 1.179e+04 8.831e-10
 35.14761     44.5 1.244e+04 1.320e-09
 35.16726     43.9 1.314e+04 2.100e-09
 35.18690     44.1 1.382e+04 3.153e-09
 35.20655     44.6 1.436e+04 3.893e-09
 35.22619     44.6 1.446e+04 3.809e-09
 35.24584     43.9 1.452e+04 3.308e-09
 35.26423     41.6 1.437e+04 2.559e-09
 35.27405     41.1 1.456e+04 2.430e-09
 35.28513     37.6 1.389e+04 1.952e-09
 35.30477     34.5 1.318e+04 1.807e-09
 35.32442     32.5 1.296e+04 1.862e-09
 35.34406     31.1 1.285e+04 1.886e-09
 35.36371     29.5 1.285e+04 1.857e-09
 35.38335     28.3 1.269e+04 1.704e-09
 35.40300     25.8 1.272e+04 1.478e-09
 35.42265     25.0 1.254e+04 1.358e-09
 35.44229     21.3 1.251e+04 1.182e-09
 35.45973     20.2 1.224e+04 1.093e-09
 35.46955     19.6 1.201e+04 1.022e-09
 35.49150     14.7 1.205e+04 1.221e-09
 35.52097     13.0 1.199e+04 1.330e-09
 35.54052     12.3 1.188e+04 1.301e-09
 35.56016     10.8 1.204e+04 1.371e-09
 35.57981      6.6 1.347e+04 1.791e-09
 35.59945      0.6 1.554e+04 2.987e-09
 35.61197     -2.8 1.549e+04 4.382e-09
 35.61683     -3.5 1.581e+04 5.015e-09
 35.62391     -3.8 1.588e+04 5.258e-09
 35.63373     -4.5 1.537e+04 5.996e-09
 35.64356     -4.8 1.551e+04 6.158e-09
 35.65517     -5.3 1.557e+04 6.462e-09
 35.66505     -4.3 1.619e+04 6.458e-09
 35.67803     -5.8 1.602e+04 4.411e-09
 35.69768     -9.7 1.424e+04 2.466e-09
 35.71732    -13.1 1.211e+04 1.477e-09
 35.73697    -13.6 1.157e+04 1.215e-09
 35.76653    -13.7 1.112e+04 9.419e-10
 35.80592    -15.3 1.062e+04 5.976e-10
 35.83529    -18.2 1.001e+04 4.552e-10
 35.85072    -17.9 1.008e+04 4.484e-10
 35.86054    -19.4 1.019e+04 5.682e-10
 35.87448    -19.8 1.007e+04 5.046e-10
 35.89413    -20.3 1.015e+04 4.874e-10
 35.91377    -21.2 1.014e+04 4.725e-10
 35.93342    -21.8 1.024e+04 4.847e-10
 35.95306    -22.5 1.025e+04 5.042e-10
 35.97271    -23.0 1.037e+04 5.676e-10
 35.99236    -23.6 1.041e+04 6.236e-10
 36.01200    -23.6 1.070e+04 7.356e-10
 36.04157    -24.4 1.086e+04 8.433e-10
 36.08095    -24.4 1.143e+04 1.123e-09
 36.11117    -24.4 1.211e+04 1.397e-09
 36.13072    -27.0 1.291e+04 1.676e-09
 36.14952    -27.3 1.320e+04 1.869e-09
 36.16916    -27.7 1.331e+04 2.020e-09
 36.18881    -28.0 1.312e+04 2.176e-09
 36.20845    -28.1 1.301e+04 2.247e-09
 36.22810    -28.0 1.269e+04 2.216e-09
 36.24171    -27.2 1.256e+04 2.135e-09
 36.25153    -27.8 1.261e+04 2.058e-09
 36.26739    -27.2 1.282e+04 1.836e-09
 36.28703    -27.1 1.287e+04 1.546e-09
 36.30668    -27.8 1.246e+04 1.223e-09
 36.32632    -29.2 1.164e+04 9.462e-10
 36.34597    -30.3 1.093e+04 8.004e-10
 36.36561    -30.7 1.072e+04 7.722e-10
 36.38526    -30.7 1.059e+04 8.121e-10
 36.40490    -30.5 1.057e+04 8.789e-10
 36.42455    -29.7 1.073e+04 9.650e-10
 36.43721    -29.0 1.087e+04 1.025e-09
 36.44703    -29.5 1.064e+04 9.475e-10
 36.46384    -28.8 1.074e+04 9.798e-10
 36.48348    -28.3 1.078e+04 9.891e-10
 36.50313    -27.9 1.079e+04 9.699e-10
 36.52277    -27.7 1.074e+04 9.399e-10
 36.54242    -27.4 1.081e+04 9.493e-10
 36.56207    -27.5 1.074e+04 9.332e-10
 36.58171    -27.5 1.083e+04 9.738e-10
 36.60136    -27.7 1.096e+04 1.043e-09
 36.61981    -27.9 1.106e+04 1.110e-09
 36.62963    -27.9 1.101e+04 1.095e-09
 36.63270    -27.8 1.094e+04 1.080e-09
 36.64262    -29.2 1.106e+04 1.112e-09
 36.67031    -30.0 1.100e+04 1.113e-09
 36.70960    -30.8 1.072e+04 8.875e-10
 36.74889    -32.2 9.990e+03 5.997e-10
 36.78818    -33.0 9.154e+03 3.958e-10
 36.82747    -33.1 8.536e+03 2.622e-10
 36.86676    -33.0 8.123e+03 1.751e-10
 36.90605    -33.5 7.945e+03 1.383e-10
 36.94534    -34.1 7.896e+03 1.312e-10
 36.98463    -34.9 7.939e+03 1.410e-10
 37.01407    -35.8 8.074e+03 1.801e-10
 37.03371    -37.4 7.988e+03 1.668e-10
 37.06321    -40.3 8.888e+03 2.264e-10
 37.09258    -44.3 1.017e+04 3.748e-10
 37.11213    -47.6 1.104e+04 5.468e-10
 37.12864    -52.3 1.167e+04 1.204e-09
 37.13847    -53.0 1.165e+04 1.264e-09
 37.15142    -54.2 1.221e+04 1.865e-09
 37.17107    -55.2 1.258e+04 2.035e-09
 37.19071    -57.2 1.289e+04 1.843e-09
 37.20937    -61.3 1.244e+04 1.019e-09
 37.21919    -61.3 1.193e+04 8.105e-10
 37.23000    -67.1 1.064e+04 5.135e-10
 37.24965    -70.6 1.024e+04 4.671e-10
 37.26929    -72.1 1.018e+04 5.042e-10
 37.28894    -72.8 1.042e+04 6.442e-10
 37.30858    -73.0 1.060e+04 7.520e-10
 37.32823    -73.1 1.069e+04 7.972e-10
 37.34787    -73.3 1.069e+04 8.028e-10
 37.36752    -73.4 1.051e+04 7.424e-10
 37.38716    -73.5 1.021e+04 6.254e-10
 37.40486    -73.6 9.902e+03 5.113e-10
 37.41469    -73.2 1.013e+04 5.918e-10
 37.42645    -73.2 9.833e+03 4.908e-10
 37.44610    -73.1 9.653e+03 4.233e-10
 37.46574    -72.9 9.602e+03 4.018e-10
 37.49531    -72.6 9.617e+03 3.993e-10
 37.53470    -72.0 9.555e+03 3.822e-10
 37.57399    -71.3 9.620e+03 3.895e-10
 37.61328    -70.7 9.791e+03 4.211e-10
 37.65257    -70.3 9.988e+03 4.461e-10
 37.69186    -70.3 1.031e+04 4.656e-10
 37.73115    -72.5 1.115e+04 5.523e-10
 37.77044    -75.5 1.196e+04 8.747e-10
 37.79605    -77.1 1.229e+04 1.306e-09
 37.81570    -76.2 1.263e+04 1.494e-09
 37.83910    -76.9 1.300e+04 1.973e-09
 37.85865    -76.9 1.299e+04 1.962e-09
 37.87829    -76.7 1.274e+04 1.478e-09
 37.89794    -77.2 1.220e+04 8.609e-10
 37.91758    -78.6 1.126e+04 4.856e-10
 37.93723    -79.9 1.021e+04 3.115e-10
 37.95687    -80.2 9.802e+03 2.572e-10
 37.97652    -79.8 9.703e+03 2.425e-10
 38.00608    -79.1 9.673e+03 2.355e-10
 38.04547    -77.8 9.545e+03 2.233e-10
 38.08476    -76.9 1.006e+04 2.339e-10
 38.12405    -77.5 1.307e+04 3.659e-10
 38.14641    -77.7 1.521e+04 5.950e-10
 38.15613    -81.5 1.672e+04 1.678e-09
 38.17297    -81.6 1.600e+04 2.979e-09
 38.18685    -81.1 1.566e+04 4.581e-09
 38.19667    -80.2 1.617e+04 2.821e-09
 38.21226    -79.8 1.592e+04 4.537e-09
 38.23190    -79.1 1.582e+04 6.460e-09
 38.25155    -78.3 1.622e+04 8.294e-09
 38.27119    -77.6 1.715e+04 9.687e-09
 38.29084    -77.4 1.807e+04 1.101e-08
 38.31049    -77.8 1.908e+04 1.143e-08
 38.33013    -79.3 1.993e+04 9.937e-09
 38.34978    -81.6 1.918e+04 6.596e-09
 38.36942    -84.1 1.677e+04 4.286e-09
 38.38234    -86.1 1.451e+04 3.126e-09
 38.39217    -84.5 1.663e+04 4.473e-09
 38.40871    -86.5 1.444e+04 3.049e-09
 38.42836    -87.4 1.352e+04 2.391e-09
 38.44800    -87.7 1.311e+04 1.991e-09
 38.46765    -87.8 1.281e+04 1.699e-09
 38.48729    -87.6 1.254e+04 1.458e-09
 38.50694    -87.2 1.231e+04 1.253e-09
 38.52658    -86.8 1.207e+04 1.092e-09
 38.54623    -86.3 1.186e+04 9.686e-10
 38.56587    -85.7 1.166e+04 8.690e-10
 38.57784    -85.0 1.146e+04 7.857e-10
 38.58766    -85.6 1.109e+04 5.621e-10
 38.60516    -84.9 1.094e+04 5.124e-10
 38.62481    -84.1 1.080e+04 4.769e-10
 38.64445    -83.2 1.069e+04 4.543e-10
 38.65514    -82.3 1.064e+04 4.428e-10
 38.66497    -82.4 1.063e+04 4.412e-10
 38.68374    -81.7 1.062e+04 4.433e-10
 38.70339    -81.1 1.061e+04 4.618e-10
 38.72303    -80.4 1.061e+04 4.953e-10
 38.74268    -79.8 1.064e+04 5.404e-10
 38.76232    -79.2 1.069e+04 5.898e-10
 38.77333    -78.6 1.075e+04 6.362e-10
 38.78316    -79.1 1.085e+04 6.549e-10
 38.80161    -78.6 1.091e+04 6.956e-10
 38.82126    -78.2 1.093e+04 7.111e-10
 38.84090    -77.8 1.086e+04 7.081e-10
 38.86055    -77.3 1.067e+04 6.606e-10
 38.88020    -76.9 1.045e+04 5.894e-10
 38.89984    -76.5 1.023e+04 5.153e-10
 38.91949    -76.1 1.003e+04 4.524e-10
 38.93913    -75.8 9.883e+03 4.087e-10
 38.95878    -75.4 9.840e+03 3.909e-10
 38.96883    -75.1 9.842e+03 3.885e-10
 38.97865    -75.1 9.696e+03 3.527e-10
 38.99807    -74.9 9.792e+03 3.652e-10
 39.01771    -75.0 1.002e+04 4.153e-10
 39.03736    -75.0 1.038e+04 5.284e-10
 39.05700    -74.9 1.078e+04 6.972e-10
 39.07665    -74.7 1.119e+04 9.030e-10
 39.09629    -74.4 1.160e+04 1.138e-09
 39.11594    -74.1 1.188e+04 1.319e-09
 39.13558    -73.9 1.196e+04 1.386e-09
 39.15415    -73.5 1.194e+04 1.387e-09
 39.16325    -74.2 1.262e+04 1.882e-09
 39.16433    -73.7 1.267e+04 1.995e-09
 39.17487    -72.9 1.246e+04 1.860e-09
 39.19452    -72.1 1.210e+04 1.492e-09
 39.21416    -71.6 1.167e+04 1.130e-09
 39.23381    -71.1 1.116e+04 8.239e-10
 39.25345    -70.6 1.066e+04 5.927e-10
 39.27310    -70.1 1.028e+04 4.453e-10
 39.30266    -69.9 9.906e+03 3.411e-10
 39.34037    -68.1 9.437e+03 2.447e-10
 39.36002    -67.3 9.883e+03 3.529e-10
 39.38134    -65.0 9.318e+03 2.428e-10
 39.42063    -62.8 8.976e+03 1.770e-10
 39.45992    -60.6 8.745e+03 1.346e-10
 39.49921    -58.6 8.605e+03 1.095e-10
 39.53850    -56.6 8.514e+03 9.508e-11
 39.57779    -54.5 8.493e+03 8.950e-11
 39.61708    -52.5 8.505e+03 8.884e-11
 39.65637    -51.1 8.658e+03 1.013e-10
 39.69567    -50.2 9.048e+03 1.652e-10
 39.73136    -49.3 9.653e+03 3.092e-10
 39.75101    -49.6 1.003e+04 4.724e-10
 39.77425    -48.4 1.070e+04 7.348e-10
 39.81354    -47.4 1.130e+04 1.002e-09
 39.85283    -46.5 1.162e+04 1.137e-09
 39.88220    -45.8 1.158e+04 1.108e-09
 39.90174    -45.7 1.155e+04 1.083e-09
 39.92139    -45.7 1.142e+04 9.698e-10
 39.93649    -45.6 1.133e+04 8.995e-10
 39.94631    -46.0 1.098e+04 7.058e-10
 39.96068    -46.0 1.083e+04 6.294e-10
 39.98032    -45.8 1.073e+04 5.901e-10
 39.99997    -45.6 1.063e+04 5.329e-10
 40.01962    -45.5 1.055e+04 5.004e-10
 40.03926    -45.4 1.049e+04 4.703e-10
 40.05891    -45.3 1.047e+04 4.658e-10
 40.07855    -45.3 1.062e+04 4.865e-10
 40.09820    -45.4 1.078e+04 5.233e-10
 40.11784    -45.4 1.116e+04 6.461e-10
 40.13198    -45.3 1.138e+04 7.568e-10
 40.14190    -46.7 1.131e+04 7.275e-10
 40.15723    -46.0 1.177e+04 1.032e-09
 40.17182    -45.7 1.195e+04 1.228e-09
 40.18164    -45.8 1.198e+04 1.258e-09
 40.19642    -45.8 1.263e+04 1.546e-09
 40.21607    -52.9 1.916e+04 2.309e-09
 40.22968    -64.4 2.604e+04 6.752e-09
 40.23454    -63.8 2.468e+04 6.896e-09
 40.24053    -68.6 2.505e+04 1.426e-08
 40.25035    -73.3 2.410e+04 3.683e-08
 40.26017    -76.3 2.333e+04 8.726e-08
 40.26999    -79.1 2.342e+04 1.550e-07
 40.27982    -82.8 2.425e+04 1.875e-07
 40.28964    -88.5 2.497e+04 1.795e-07
 40.29946    -96.4 2.732e+04 7.831e-08
 40.30928   -106.9 2.628e+04 2.034e-08
 40.31911   -115.3 2.110e+04 8.772e-09
 40.32738   -118.0 1.876e+04 6.313e-09
 40.33229   -116.7 2.083e+04 1.265e-08
 40.33875   -117.8 1.996e+04 9.153e-09
 40.34857   -119.2 1.849e+04 6.363e-09
 40.35840   -120.7 1.667e+04 4.680e-09
 40.36822   -121.6 1.547e+04 3.910e-09
 40.37804   -121.8 1.503e+04 3.690e-09
 40.39282   -121.9 1.475e+04 3.604e-09
 40.41252   -122.0 1.390e+04 2.906e-09
 40.43216   -121.9 1.329e+04 2.378e-09
 40.45181   -121.8 1.281e+04 1.961e-09
 40.47145   -121.7 1.240e+04 1.604e-09
 40.49110   -121.6 1.197e+04 1.284e-09
 40.51074   -121.6 1.151e+04 1.005e-09
 40.52297   -121.7 1.104e+04 7.843e-10
 40.53280   -121.9 1.069e+04 6.439e-10
 40.55003   -121.8 1.032e+04 5.026e-10
 40.56968   -121.6 1.005e+04 4.126e-10
 40.58933   -121.3 9.887e+03 3.635e-10
 40.60897   -120.8 9.815e+03 3.402e-10
 40.63854   -120.4 9.746e+03 3.208e-10
 40.67792   -119.3 9.630e+03 3.029e-10
 40.71721   -118.1 9.468e+03 2.772e-10
 40.75650   -116.5 9.281e+03 2.433e-10
 40.79579   -114.8 9.164e+03 2.128e-10
 40.83509   -112.7 9.162e+03 1.960e-10
 40.87438   -110.5 9.190e+03 1.922e-10
 40.90434   -108.9 9.305e+03 1.943e-10
 40.92398   -107.8 9.234e+03 1.923e-10
 40.95296   -106.8 9.604e+03 2.080e-10
 40.99225   -106.9 1.043e+04 3.478e-10
 41.02162   -109.4 1.155e+04 1.071e-09
 41.04116   -112.3 1.626e+04 3.515e-09
 41.05585   -114.5 2.027e+04 1.148e-08
 41.06562   -114.6 2.120e+04 1.920e-08
 41.07545   -115.4 2.230e+04 4.976e-08
 41.08527   -115.4 2.275e+04 8.749e-08
 41.09509   -116.2 2.285e+04 1.146e-07
 41.10445   -117.8 2.277e+04 1.192e-07
 41.10936   -118.8 2.224e+04 2.777e-07
 41.11474   -119.4 2.191e+04 1.894e-07
 41.12456   -118.8 2.191e+04 8.804e-08
 41.13438   -118.1 2.177e+04 3.862e-08
 41.14420   -118.2 2.115e+04 1.911e-08
 41.15403   -119.9 2.000e+04 1.090e-08
 41.16385   -121.8 1.824e+04 6.757e-09
 41.17367   -123.3 1.652e+04 4.540e-09
 41.18349   -124.0 1.559e+04 3.434e-09
 41.18944   -124.4 1.489e+04 2.595e-09
 41.19931   -125.6 1.496e+04 3.042e-09
 41.21797   -125.0 1.360e+04 1.829e-09
 41.23762   -124.5 1.217e+04 1.074e-09
 41.25726   -124.3 1.167e+04 7.951e-10
 41.27691   -123.9 1.150e+04 6.753e-10
 41.29514   -123.2 1.137e+04 6.046e-10
 41.30496   -124.0 1.137e+04 5.929e-10
 41.31620   -123.4 1.129e+04 5.432e-10
 41.33584   -122.8 1.123e+04 5.041e-10
 41.35549   -122.3 1.117e+04 4.786e-10
 41.37513   -121.8 1.113e+04 4.634e-10
 41.39478   -121.3 1.107e+04 4.560e-10
 41.41442   -120.8 1.099e+04 4.494e-10
 41.43407   -120.3 1.089e+04 4.387e-10
 41.45371   -119.7 1.077e+04 4.217e-10
 41.47336   -119.2 1.066e+04 3.998e-10
 41.49063   -118.7 1.057e+04 3.737e-10
 41.50045   -118.8 1.040e+04 3.078e-10
 41.51265   -118.4 1.036e+04 2.911e-10
 41.53229   -117.9 1.033e+04 2.714e-10
 41.55194   -117.4 1.030e+04 2.619e-10
 41.58150   -116.6 1.030e+04 2.606e-10
 41.62089   -115.8 1.031e+04 2.567e-10
 41.66018   -114.7 1.037e+04 2.636e-10
 41.68632   -113.7 1.044e+04 2.911e-10
 41.70597   -114.0 1.029e+04 2.600e-10
 41.73876   -112.8 1.037e+04 2.930e-10
 41.77805   -111.4 1.042e+04 3.228e-10
 41.81734   -110.0 1.044e+04 3.386e-10
 41.85663   -108.4 1.044e+04 3.423e-10
 41.89592   -106.7 1.041e+04 3.359e-10
 41.93521   -105.0 1.035e+04 3.149e-10
 41.97450   -103.2 1.024e+04 2.869e-10
 42.01380   -101.3 1.009e+04 2.611e-10
 42.05309    -99.3 9.956e+03 2.433e-10
 42.07731    -97.1 9.867e+03 2.364e-10
 42.09696    -96.7 9.584e+03 1.677e-10
 42.13167    -94.4 9.592e+03 1.681e-10
 42.17096    -92.4 9.695e+03 1.831e-10
 42.19753    -90.5 9.883e+03 2.273e-10
 42.21717    -90.4 9.869e+03 2.459e-10
 42.24954    -88.6 1.018e+04 3.301e-10
 42.28883    -86.9 1.064e+04 4.784e-10
 42.32812    -85.3 1.122e+04 7.332e-10
 42.35749    -84.1 1.177e+04 1.111e-09
 42.37704    -83.4 1.210e+04 1.337e-09
 42.40660    -82.9 1.244e+04 1.619e-09
 42.44599    -81.8 1.295e+04 2.269e-09
 42.46821    -80.9 1.312e+04 2.695e-09
 42.47793    -80.8 1.290e+04 2.370e-09
 42.49491    -79.9 1.283e+04 2.344e-09
 42.51455    -79.1 1.271e+04 2.183e-09
 42.53420    -78.3 1.255e+04 1.927e-09
 42.55384    -77.8 1.235e+04 1.666e-09
 42.57349    -77.3 1.214e+04 1.432e-09
 42.60305    -77.0 1.183e+04 1.189e-09
 42.64244    -75.8 1.153e+04 9.934e-10
 42.68173    -74.7 1.145e+04 9.447e-10
 42.72102    -73.6 1.136e+04 9.019e-10
 42.76031    -72.3 1.120e+04 8.247e-10
 42.79960    -71.0 1.092e+04 6.915e-10
 42.83889    -69.6 1.055e+04 5.368e-10
 42.85930    -68.0 1.020e+04 4.059e-10
 42.87894    -67.2 1.035e+04 4.642e-10
 42.91747    -65.6 1.010e+04 3.714e-10
 42.95676    -64.1 9.907e+03 3.108e-10
 42.99605    -62.6 9.795e+03 2.788e-10
 43.03534    -61.1 9.722e+03 2.589e-10
 43.07463    -59.7 9.643e+03 2.395e-10
 43.11392    -58.2 9.550e+03 2.161e-10
 43.15322    -56.8 9.474e+03 1.948e-10
 43.19251    -55.6 9.425e+03 1.856e-10
 43.21519    -54.5 9.480e+03 2.007e-10
 43.23369    -54.0 9.266e+03 1.518e-10
 43.25029    -52.7 9.440e+03 1.639e-10
 43.27109    -51.8 9.441e+03 1.609e-10
 43.31038    -51.3 9.740e+03 2.151e-10
 43.34967    -50.5 9.970e+03 3.400e-10
 43.38896    -49.2 1.019e+04 4.502e-10
 43.42825    -48.1 1.027e+04 4.706e-10
 43.46754    -47.1 1.012e+04 3.759e-10
 43.50683    -46.4 9.784e+03 2.218e-10
 43.54612    -46.2 9.424e+03 1.436e-10
 43.58541    -45.5 9.186e+03 1.209e-10
 43.62164    -44.0 9.091e+03 1.093e-10
 43.64128    -43.8 9.383e+03 1.503e-10
 43.66399    -42.3 9.206e+03 1.357e-10
 43.70328    -40.7 9.051e+03 1.175e-10
 43.74257    -39.3 8.966e+03 1.010e-10
 43.78186    -38.0 8.908e+03 9.344e-11
 43.82115    -36.7 8.890e+03 9.253e-11
 43.86044    -35.4 8.873e+03 9.950e-11
 43.89973    -34.0 8.855e+03 1.071e-10
 43.93902    -32.8 8.909e+03 1.096e-10
 43.97831    -31.9 8.944e+03 1.096e-10
 44.01263    -31.1 8.920e+03 1.166e-10
 44.03227    -31.8 8.940e+03 1.164e-10
 44.05689    -30.4 8.863e+03 1.390e-10
 44.09618    -28.5 8.813e+03 1.471e-10
 44.13547    -26.2 8.648e+03 1.271e-10
 44.17476    -24.0 8.604e+03 8.712e-11
 44.21321    -22.7 8.573e+03 6.455e-11
 44.23286    -22.2 8.520e+03 5.203e-11
 44.25334    -21.0 8.466e+03 4.698e-11
 44.29264    -19.4 8.522e+03 5.485e-11
 44.33193    -17.4 8.404e+03 8.292e-11
 44.37122    -14.6 8.476e+03 1.135e-10
 44.40362    -12.0 8.718e+03 1.351e-10
 44.42326    -11.8 8.843e+03 1.521e-10
 44.44980    -10.0 9.072e+03 1.683e-10
 44.48909     -8.7 9.066e+03 2.061e-10
 44.52838     -6.6 9.098e+03 2.840e-10
 44.56767     -4.1 9.193e+03 3.287e-10
 44.60696     -1.7 9.179e+03 2.968e-10
 44.64625      0.1 9.097e+03 2.348e-10
 44.68554      1.2 9.042e+03 2.104e-10
 44.72483      1.8 9.172e+03 2.413e-10
 44.76412      2.4 9.537e+03 3.641e-10
 44.79461      2.8 1.015e+04 5.721e-10
 44.81426      2.3 1.033e+04 6.954e-10
 44.84270      3.5 1.077e+04 9.994e-10
 44.88199      5.0 1.058e+04 8.867e-10
 44.92128      6.8 9.983e+03 5.359e-10
 44.96057      7.3 9.303e+03 2.600e-10
 44.99986      6.7 8.745e+03 1.468e-10
 45.03915      7.1 8.293e+03 1.178e-10
 45.07844      8.2 8.274e+03 1.257e-10
 45.11773      9.6 8.347e+03 1.467e-10
 45.15702     11.1 8.443e+03 1.657e-10
 45.18560     12.1 8.526e+03 1.694e-10
 45.20525     12.6 8.733e+03 1.878e-10
 45.23088     13.0 8.854e+03 2.083e-10
 45.25052     13.4 9.078e+03 2.390e-10
 45.27489     13.6 9.243e+03 2.548e-10
 45.31418     13.6 9.362e+03 2.477e-10
 45.35347     12.7 9.518e+03 2.694e-10
 45.39276     11.1 9.672e+03 3.660e-10
 45.43206     10.7 9.746e+03 5.028e-10
 45.47135     10.5 9.883e+03 5.423e-10
 45.51064      9.9 9.956e+03 5.361e-10
 45.54993      8.7 9.959e+03 4.796e-10
 45.57659      7.2 1.003e+04 4.647e-10
 45.59624      6.7 1.031e+04 5.799e-10
 45.62851      3.8 1.078e+04 7.085e-10
 45.65788     -0.4 1.164e+04 1.270e-09
 45.67742     -0.2 1.159e+04 1.719e-09
 45.69707      1.0 1.127e+04 2.011e-09
 45.71671      2.9 1.137e+04 1.956e-09
 45.74628      1.8 1.145e+04 1.218e-09
 45.78567     -0.9 1.161e+04 6.146e-10
 45.82496     -3.8 1.035e+04 5.449e-10
 45.86425     -3.0 9.761e+03 5.501e-10
 45.90354     -1.6 9.807e+03 4.453e-10
 45.94283     -1.9 9.880e+03 3.420e-10
 45.96759     -2.0 9.733e+03 3.685e-10
 45.98723     -2.3 9.555e+03 3.501e-10
 46.02141     -0.9 9.399e+03 3.904e-10
 46.06070      1.1 9.406e+03 3.336e-10
 46.09999      1.7 9.561e+03 2.452e-10
 46.13928      1.3 9.748e+03 2.371e-10
 46.17857      0.4 9.957e+03 3.560e-10
 46.21786      1.0 1.027e+04 6.398e-10
 46.24855      2.2 1.062e+04 9.113e-10
 46.26819      2.7 1.032e+04 5.545e-10
 46.29644      3.2 1.056e+04 7.605e-10
 46.33573      3.7 1.063e+04 8.057e-10
 46.35858      4.3 1.060e+04 6.524e-10
 46.37822      4.5 1.029e+04 4.921e-10
 46.41431      3.8 1.032e+04 3.762e-10
 46.45360      3.4 9.961e+03 3.708e-10
 46.49289      4.2 9.633e+03 3.297e-10
 46.53218      5.2 9.610e+03 2.488e-10
 46.57148      5.4 9.623e+03 2.162e-10
 46.61077      4.9 9.687e+03 2.525e-10
 46.65006      5.1 9.874e+03 3.807e-10
 46.68935      6.3 1.005e+04 5.250e-10
 46.72864      7.5 1.005e+04 4.990e-10
 46.74957      9.0 9.990e+03 3.487e-10
 46.76921      9.6 9.920e+03 3.047e-10
 46.80722      9.6 9.988e+03 1.862e-10
 46.84651      9.1 9.710e+03 1.366e-10
 46.88580      9.5 9.377e+03 1.129e-10
 46.92509     10.3 9.412e+03 9.041e-11
 46.96438     10.9 9.573e+03 8.731e-11
 47.00367     11.2 9.613e+03 9.665e-11
 47.04296     11.9 9.321e+03 1.109e-10
 47.08225     13.6 9.071e+03 1.057e-10
 47.12092     15.4 8.800e+03 8.611e-11
 47.14056     15.7 9.015e+03 1.133e-10
 47.16083     17.7 8.795e+03 8.138e-11
 47.20012     19.3 8.763e+03 5.330e-11
 47.23941     20.4 8.892e+03 3.614e-11
 47.26621     21.5 8.756e+03 3.051e-11
 47.28586     21.4 8.829e+03 3.433e-11
 47.31799     22.9 8.732e+03 3.442e-11
 47.35728     24.4 8.697e+03 3.618e-11
 47.39657     26.1 8.654e+03 4.192e-11
 47.43586     27.7 8.641e+03 5.148e-11
 47.47515     29.5 8.638e+03 6.373e-11
 47.51191     31.3 8.663e+03 7.670e-11
 47.53155     31.6 8.686e+03 7.260e-11
 47.55373     33.4 8.704e+03 7.850e-11
 47.59302     35.0 8.713e+03 7.867e-11
 47.63231     36.6 8.699e+03 7.670e-11
 47.67160     38.1 8.670e+03 7.223e-11
 47.71089     39.5 8.634e+03 6.797e-11
 47.75019     41.0 8.613e+03 6.708e-11
 47.78948     42.3 8.620e+03 6.838e-11
 47.82877     43.7 8.641e+03 7.490e-11
 47.86806     45.0 8.667e+03 8.918e-11
 47.90290     46.4 8.670e+03 1.086e-10
 47.92254     46.4 8.716e+03 1.082e-10
 47.94664     48.0 8.715e+03 1.245e-10
 47.98593     49.4 8.731e+03 1.246e-10
 48.02522     50.7 8.723e+03 1.192e-10
 48.06451     51.8 8.665e+03 1.118e-10
 48.10380     52.8 8.631e+03 1.105e-10
 48.14309     53.7 8.642e+03 1.136e-10
 48.18238     54.4 8.703e+03 1.326e-10
 48.22167     54.9 8.955e+03 2.013e-10
 48.26096     55.3 9.535e+03 3.639e-10
 48.28388     55.5 1.026e+04 6.305e-10
 48.29716     56.1 9.702e+03 3.987e-10
 48.31354     56.1 9.639e+03 3.857e-10
 48.33954     55.4 1.089e+04 7.949e-10
 48.37883     54.5 1.223e+04 1.480e-09
 48.40820     53.9 1.205e+04 1.244e-09
 48.42775     53.1 1.190e+04 1.053e-09
 48.45731     52.0 1.223e+04 1.082e-09
 48.48678     50.6 1.143e+04 7.532e-10
 48.49901     49.3 1.074e+04 5.904e-10
 48.50884     48.6 1.079e+04 5.864e-10
 48.52597     47.2 1.046e+04 5.296e-10
 48.54562     46.5 1.039e+04 5.188e-10
 48.56526     46.2 1.041e+04 5.212e-10
 48.58491     46.0 1.049e+04 5.289e-10
 48.60455     45.7 1.062e+04 5.517e-10
 48.62420     45.3 1.073e+04 5.871e-10
 48.64385     45.0 1.090e+04 6.506e-10
 48.66349     44.7 1.102e+04 7.450e-10
 48.68314     44.6 1.121e+04 8.744e-10
 48.69451     44.6 1.145e+04 1.029e-09
 48.70433     43.9 1.145e+04 9.480e-10
 48.72243     44.0 1.165e+04 1.065e-09
 48.74207     43.9 1.176e+04 1.162e-09
 48.76172     43.9 1.172e+04 1.202e-09
 48.78136     43.4 1.181e+04 1.271e-09
 48.79252     41.1 1.268e+04 1.619e-09
 48.80234     40.4 1.294e+04 1.816e-09
 48.82065     36.2 1.485e+04 3.750e-09
 48.84030     34.6 1.566e+04 6.407e-09
 48.85994     34.1 1.563e+04 6.672e-09
 48.87959     34.3 1.520e+04 5.706e-09
 48.89001     34.3 1.420e+04 3.378e-09
 48.89983     34.8 1.469e+04 3.383e-09
 48.91888     32.7 1.342e+04 1.305e-09
 48.93852     30.4 1.219e+04 6.382e-10
 48.96809     25.4 9.791e+03 2.504e-10
 49.00748     23.6 8.564e+03 1.603e-10
 49.04677     24.6 8.386e+03 1.554e-10
 49.07587     26.3 8.443e+03 1.675e-10
 49.09552     26.2 8.429e+03 1.682e-10
 49.12535     27.9 8.593e+03 1.996e-10
 49.16464     29.7 8.908e+03 2.519e-10
 49.20393     31.1 9.360e+03 3.406e-10
 49.23330     31.8 9.483e+03 3.806e-10
 49.25285     32.4 9.682e+03 4.394e-10
 49.27117     33.0 1.006e+04 5.434e-10
 49.28100     32.6 1.024e+04 6.008e-10
 49.29153     32.8 1.066e+04 7.580e-10
 49.30135     32.6 1.043e+04 6.971e-10
 49.31178     32.8 1.075e+04 8.829e-10
 49.33143     33.1 1.116e+04 1.132e-09
 49.35107     33.6 1.150e+04 1.449e-09
 49.37072     34.3 1.186e+04 1.785e-09
 49.39036     35.1 1.210e+04 1.963e-09
 49.41001     35.5 1.212e+04 1.954e-09
 49.42965     35.9 1.201e+04 1.831e-09
 49.44930     36.3 1.169e+04 1.564e-09
 49.46667     36.7 1.123e+04 1.227e-09
 49.47649     36.6 1.084e+04 1.016e-09
 49.48859     36.5 1.046e+04 8.052e-10
 49.50823     36.7 1.006e+04 6.211e-10
 49.52788     36.7 9.751e+03 4.921e-10
 49.55744     36.7 9.355e+03 3.895e-10
 49.59683     37.1 9.271e+03 3.823e-10
 49.63612     37.9 9.379e+03 4.128e-10
 49.67541     38.6 1.002e+04 5.973e-10
 49.70478     38.3 1.099e+04 8.939e-10
 49.72433     37.7 1.262e+04 1.488e-09
 49.74397     36.6 1.429e+04 2.638e-09
 49.76362     35.7 1.514e+04 4.142e-09
 49.78327     35.9 1.563e+04 5.973e-09
 49.80036     36.4 1.593e+04 7.608e-09
 49.81018     37.0 1.429e+04 3.704e-09
 49.82256     37.4 1.446e+04 4.264e-09
 49.84220     37.5 1.465e+04 4.420e-09
 49.85766     37.3 1.494e+04 4.442e-09
 49.86748     37.9 1.485e+04 4.496e-09
 49.88149     37.4 1.525e+04 4.543e-09
 49.90114     36.3 1.580e+04 4.720e-09
 49.92078     34.8 1.581e+04 4.741e-09
 49.94043     33.6 1.541e+04 4.570e-09
 49.96007     32.5 1.473e+04 4.285e-09
 49.97972     30.9 1.471e+04 4.317e-09
 49.99936     27.7 1.557e+04 4.935e-09
 50.01901     23.7 1.858e+04 6.175e-09
 50.03865     19.2 2.085e+04 8.833e-09
 50.05316     15.0 2.195e+04 1.152e-08
 50.06298     16.9 2.132e+04 1.351e-08
 50.07794     14.0 2.268e+04 1.594e-08
 50.09759     11.4 2.204e+04 1.848e-08
 50.11227     10.1 2.130e+04 1.905e-08
 50.12205      8.9 2.145e+04 2.044e-08
 50.13187      7.0 2.185e+04 2.559e-08
 50.14169      5.2 2.187e+04 3.289e-08
 50.15081      4.0 2.152e+04 4.039e-08
 50.15572      4.5 2.165e+04 3.202e-08
 50.16134      3.7 2.122e+04 3.800e-08
 50.17116      3.6 2.100e+04 4.295e-08
 50.18098      3.6 2.099e+04 4.477e-08
 50.19080      3.5 2.109e+04 4.605e-08
 50.20063      3.2 2.128e+04 4.498e-08
 50.21045      3.2 2.154e+04 4.066e-08
 50.22027      3.1 2.178e+04 3.636e-08
 50.23010      3.0 2.220e+04 3.166e-08
 50.23992      2.9 2.256e+04 2.891e-08
 50.24856      2.4 2.300e+04 2.610e-08
 50.25347      2.6 2.305e+04 2.577e-08
 50.25956      1.7 2.352e+04 2.358e-08
 50.26939     -0.4 2.430e+04 2.171e-08
 50.27921     -3.4 2.466e+04 2.179e-08
 50.28903     -7.2 2.538e+04 2.367e-08
 50.29885    -11.3 2.473e+04 2.831e-08
 50.30868    -13.6 2.322e+04 3.440e-08
 50.31401    -14.5 2.192e+04 4.169e-08
 50.31892    -13.9 2.258e+04 3.609e-08
 50.32832    -14.5 2.134e+04 3.756e-08
 50.33814    -14.4 2.042e+04 3.529e-08
 50.34630    -13.5 1.959e+04 2.882e-08
 50.35122    -13.5 1.931e+04 2.682e-08
 50.35779    -12.3 1.901e+04 1.998e-08
 50.37257    -11.9 1.869e+04 1.291e-08
 50.39227    -11.9 1.772e+04 4.249e-09
 50.41191    -20.3 1.380e+04 9.861e-10
 50.43156    -25.2 1.007e+04 4.228e-10
 50.44415    -25.6 9.462e+03 3.307e-10
 50.45397    -26.0 9.438e+03 3.260e-10
 50.47085    -25.7 9.270e+03 2.919e-10
 50.50041    -25.2 9.115e+03 2.712e-10
 50.53980    -25.0 8.809e+03 2.388e-10
 50.57909    -24.8 8.751e+03 2.526e-10
 50.61838    -24.7 8.788e+03 2.975e-10
 50.63984    -24.9 9.217e+03 3.961e-10
 50.65949    -25.0 9.281e+03 4.167e-10
 50.68704    -27.3 1.010e+04 6.026e-10
 50.70659    -30.7 1.121e+04 9.992e-10
 50.72623    -34.0 1.248e+04 1.767e-09
 50.74588    -36.6 1.367e+04 2.868e-09
 50.76552    -38.7 1.469e+04 3.763e-09
 50.78517    -41.6 1.509e+04 3.966e-09
 50.80481    -45.8 1.499e+04 3.082e-09
 50.81803    -51.5 1.334e+04 1.931e-09
 50.82785    -51.5 1.285e+04 1.525e-09
 50.83514    -56.6 1.157e+04 1.212e-09
 50.84496    -57.7 1.153e+04 1.260e-09
 50.86375    -59.1 1.129e+04 1.205e-09
 50.88339    -59.9 1.121e+04 1.184e-09
 50.90304    -60.6 1.101e+04 1.072e-09
 50.93261    -61.5 1.068e+04 8.815e-10
 50.97199    -63.3 1.012e+04 6.259e-10
 51.01119    -65.6 9.747e+03 4.881e-10
 51.05048    -68.3 9.910e+03 5.570e-10
 51.08986    -69.4 9.696e+03 4.675e-10
 51.12915    -70.2 9.361e+03 3.511e-10
 51.16845    -71.1 9.104e+03 2.705e-10
 51.20774    -71.8 9.037e+03 2.515e-10
 51.24703    -72.5 9.070e+03 2.577e-10
 51.28632    -73.1 9.408e+03 3.391e-10
 51.31723    -73.5 9.816e+03 4.641e-10
 51.33678    -73.3 9.890e+03 5.138e-10
 51.35488    -73.6 1.021e+04 6.647e-10
 51.37452    -73.8 1.048e+04 7.767e-10
 51.39417    -73.9 1.081e+04 9.420e-10
 51.41181    -74.0 1.102e+04 1.019e-09
 51.42163    -74.2 1.093e+04 9.882e-10
 51.43346    -74.5 1.102e+04 1.015e-09
 51.45310    -74.7 1.101e+04 1.010e-09
 51.48267    -74.8 1.084e+04 8.712e-10
 51.51214    -74.6 1.031e+04 5.965e-10
 51.53169    -74.5 1.011e+04 4.862e-10
 51.56125    -74.7 9.697e+03 3.350e-10
 51.60064    -74.9 9.358e+03 2.549e-10
 51.63993    -74.1 9.126e+03 2.234e-10
 51.67922    -72.9 9.106e+03 2.234e-10
 51.71851    -72.0 9.414e+03 2.850e-10
 51.75780    -70.8 9.764e+03 3.871e-10
 51.78717    -70.0 9.752e+03 3.852e-10
 51.80280    -69.6 9.830e+03 4.116e-10
 51.81272    -69.6 9.868e+03 4.517e-10
 51.82597    -68.8 9.892e+03 4.445e-10
 51.83569    -68.8 1.022e+04 5.892e-10
 51.84601    -68.4 1.029e+04 6.243e-10
 51.86565    -67.9 1.035e+04 6.599e-10
 51.88530    -67.5 1.038e+04 6.869e-10
 51.90494    -67.1 1.044e+04 7.262e-10
 51.92459    -66.7 1.048e+04 7.606e-10
 51.94423    -66.2 1.053e+04 7.836e-10
 51.96388    -65.7 1.056e+04 7.851e-10
 51.98352    -65.3 1.053e+04 7.649e-10
 51.99829    -64.9 1.047e+04 7.269e-10
 52.00812    -64.7 1.036e+04 6.884e-10
 52.03273    -64.4 1.029e+04 6.269e-10
 52.07212    -63.2 1.002e+04 4.762e-10
 52.11141    -62.2 9.686e+03 3.242e-10
 52.15070    -61.2 9.356e+03 2.061e-10
 52.18416    -60.4 9.088e+03 1.364e-10
 52.20381    -59.8 9.294e+03 1.969e-10
 52.22928    -59.4 9.084e+03 1.388e-10
 52.26857    -59.4 9.045e+03 1.204e-10
 52.30787    -60.4 9.416e+03 1.463e-10
 52.33490    -61.0 1.006e+04 3.150e-10
 52.35454    -60.2 9.307e+03 1.733e-10
 52.38645    -60.5 9.764e+03 3.101e-10
 52.42574    -60.6 1.003e+04 3.983e-10
 52.46503    -61.0 1.006e+04 4.022e-10
 52.50432    -61.6 9.875e+03 3.007e-10
 52.54361    -62.5 9.761e+03 2.623e-10
 52.57515    -64.9 9.935e+03 3.116e-10
 52.59480    -65.0 1.036e+04 4.967e-10
 52.62219    -68.2 1.196e+04 9.765e-10
 52.65156    -72.9 1.362e+04 1.893e-09
 52.67111    -75.9 1.494e+04 3.568e-09
 52.69075    -78.1 1.572e+04 5.828e-09
 52.71040    -79.8 1.609e+04 7.328e-09
 52.73004    -81.7 1.616e+04 7.623e-09
 52.74969    -83.9 1.590e+04 6.682e-09
 52.76933    -86.9 1.506e+04 4.709e-09
 52.78028    -90.2 1.404e+04 3.508e-09
 52.79010    -89.9 1.425e+04 3.892e-09
 52.80862    -92.0 1.351e+04 3.272e-09
 52.82827    -93.1 1.301e+04 2.861e-09
 52.84354    -93.4 1.261e+04 2.464e-09
 52.85336    -93.0 1.263e+04 2.452e-09
 52.86756    -93.1 1.219e+04 2.040e-09
 52.88720    -93.1 1.171e+04 1.643e-09
 52.90685    -92.9 1.118e+04 1.291e-09
 52.92649    -92.7 1.068e+04 1.008e-09
 52.94614    -92.4 1.026e+04 8.020e-10
 52.96578    -92.0 9.928e+03 6.634e-10
 52.97577    -91.6 9.677e+03 5.692e-10
 52.98560    -91.2 9.419e+03 4.821e-10
 53.01499    -90.8 9.196e+03 4.036e-10
 53.05438    -90.1 9.087e+03 3.757e-10
 53.09367    -88.7 8.970e+03 3.575e-10
 53.13296    -87.0 8.904e+03 3.497e-10
 53.17225    -85.4 8.851e+03 3.383e-10
 53.21154    -83.7 8.741e+03 3.121e-10
 53.25083    -82.0 8.611e+03 2.807e-10
 53.29012    -80.1 8.555e+03 2.621e-10
 53.32941    -78.4 8.557e+03 2.589e-10
 53.35256    -77.1 8.650e+03 2.698e-10
 53.36064    -75.7 8.722e+03 3.081e-10
 53.37678    -75.7 8.495e+03 2.509e-10
 53.40799    -75.0 9.230e+03 3.911e-10
 53.44728    -74.0 1.016e+04 6.961e-10
 53.48658    -73.0 1.095e+04 1.099e-09
 53.52587    -72.4 1.144e+04 1.398e-09
 53.56516    -72.1 1.153e+04 1.457e-09
 53.60445    -71.6 1.125e+04 1.234e-09
 53.64374    -71.0 1.055e+04 8.298e-10
 53.68303    -70.4 9.870e+03 5.584e-10
 53.72232    -69.8 9.374e+03 4.168e-10
 53.74813    -68.9 9.052e+03 3.412e-10
 53.76777    -68.9 9.420e+03 4.601e-10
 53.80090    -67.9 9.171e+03 3.981e-10
 53.84019    -66.8 8.900e+03 3.319e-10
 53.87948    -65.7 8.618e+03 2.682e-10
 53.91877    -64.7 8.341e+03 2.147e-10
 53.95806    -63.6 8.120e+03 1.791e-10
 53.99735    -62.5 7.966e+03 1.593e-10
 54.03664    -61.2 7.853e+03 1.491e-10
 54.07593    -59.9 7.760e+03 1.441e-10
 54.11522    -58.5 7.695e+03 1.421e-10
 54.13912    -57.0 7.661e+03 1.413e-10
 54.15877    -56.8 7.528e+03 1.202e-10
 54.19380    -55.2 7.506e+03 1.237e-10
 54.23309    -53.4 7.560e+03 1.361e-10
 54.27238    -51.5 7.647e+03 1.523e-10
 54.31167    -49.3 7.742e+03 1.668e-10
 54.35058    -47.1 7.852e+03 1.823e-10
 54.37023    -45.8 7.909e+03 1.981e-10
 54.39025    -43.2 7.988e+03 2.063e-10
 54.42954    -41.0 8.144e+03 2.211e-10
 54.46883    -42.2 9.122e+03 3.006e-10
 54.49820    -50.9 1.219e+04 8.996e-10
 54.51775    -56.8 1.813e+04 3.412e-09
 54.52992    -60.4 2.027e+04 1.150e-08
 54.53974    -59.8 1.933e+04 8.297e-09
 54.55704    -63.1 2.011e+04 1.684e-08
 54.57173    -65.8 2.048e+04 2.084e-08
 54.58150    -67.7 2.070e+04 2.106e-08
 54.59132    -70.5 2.160e+04 1.681e-08
 54.60115    -75.1 2.165e+04 8.944e-09
 54.61097    -81.9 1.874e+04 3.903e-09
 54.61944    -86.2 1.580e+04 2.454e-09
 54.62435    -85.2 1.674e+04 2.647e-09
 54.63557    -89.1 1.426e+04 1.784e-09
 54.65527    -95.3 1.091e+04 9.144e-10
 54.67491    -98.3 9.981e+03 5.742e-10
 54.69456    -99.6 9.717e+03 4.822e-10
 54.71420   -100.7 9.625e+03 4.630e-10
 54.72541   -101.5 9.625e+03 4.640e-10
 54.73524   -100.9 9.741e+03 4.873e-10
 54.75349   -102.0 9.979e+03 5.327e-10
 54.77314   -102.9 1.046e+04 6.835e-10
 54.79278   -103.6 1.096e+04 9.001e-10
 54.81243   -104.1 1.145e+04 1.178e-09
 54.83207   -104.4 1.188e+04 1.500e-09
 54.85172   -104.5 1.226e+04 1.828e-09
 54.86905   -104.7 1.254e+04 2.110e-09
 54.87887   -104.8 1.312e+04 2.705e-09
 54.89101   -104.9 1.327e+04 2.889e-09
 54.91065   -104.9 1.331e+04 2.945e-09
 54.92091   -104.9 1.331e+04 2.926e-09
 54.93073   -104.5 1.310e+04 2.679e-09
 54.94995   -104.4 1.299e+04 2.471e-09
 54.96959   -104.4 1.291e+04 2.316e-09
 54.98924   -104.5 1.286e+04 2.217e-09
 55.00888   -104.4 1.281e+04 2.139e-09
 55.02853   -104.3 1.270e+04 2.032e-09
 55.04817   -104.1 1.251e+04 1.878e-09
 55.06782   -103.8 1.224e+04 1.677e-09
 55.08746   -103.5 1.189e+04 1.448e-09
 55.10658   -103.0 1.149e+04 1.214e-09
 55.11640   -102.8 1.147e+04 1.217e-09
 55.12675   -102.2 1.106e+04 1.003e-09
 55.14640   -101.4 1.062e+04 7.879e-10
 55.16604   -100.6 1.020e+04 5.953e-10
 55.18569   -100.1 9.868e+03 4.593e-10
 55.21525    -99.7 9.604e+03 3.725e-10
 55.25464    -98.3 9.267e+03 2.989e-10
 55.29245    -96.4 9.115e+03 2.713e-10
 55.31210    -95.9 9.316e+03 3.116e-10
 55.33322    -94.8 9.325e+03 3.111e-10
 55.36825    -94.6 1.007e+04 4.542e-10
 55.38790    -93.3 9.759e+03 3.877e-10
 55.41180    -92.9 1.070e+04 6.220e-10
 55.45109    -92.5 1.137e+04 8.960e-10
 55.49038    -92.4 1.163e+04 1.023e-09
 55.52967    -92.4 1.165e+04 1.039e-09
 55.56896    -91.8 1.120e+04 8.537e-10
 55.60825    -90.8 1.049e+04 6.152e-10
 55.64754    -89.8 1.005e+04 4.924e-10
 55.68344    -88.7 9.885e+03 4.485e-10
 55.70309    -88.2 1.070e+04 7.651e-10
 55.72612    -86.9 1.056e+04 7.074e-10
 55.76542    -85.5 1.032e+04 6.093e-10
 55.80471    -84.0 9.931e+03 4.793e-10
 55.84400    -82.5 9.431e+03 3.525e-10
 55.88329    -81.1 8.998e+03 2.615e-10
 55.92258    -79.9 8.970e+03 2.312e-10
 55.96187    -79.8 9.545e+03 2.331e-10
 55.99124    -83.8 1.363e+04 3.027e-10
 56.01078    -86.0 1.476e+04 4.471e-10
 56.03043    -88.7 1.565e+04 9.042e-10
 56.05007    -90.4 1.700e+04 2.892e-09
 56.06972    -90.5 1.788e+04 7.591e-09
 56.08406    -90.3 1.885e+04 1.435e-08
 56.09388    -90.3 1.987e+04 1.917e-08
 56.10901    -91.1 2.115e+04 2.214e-08
 56.12866    -95.3 2.213e+04 2.248e-08
 56.14830   -101.9 2.338e+04 1.587e-08
 56.16795   -110.3 2.177e+04 9.320e-09
 56.18759   -118.0 1.844e+04 6.509e-09
 56.20228   -120.8 1.722e+04 5.456e-09
 56.21205   -122.0 1.678e+04 5.024e-09
 56.22187   -124.0 1.632e+04 4.579e-09
 56.23169   -124.9 1.625e+04 4.495e-09
 56.24648   -126.7 1.596e+04 4.117e-09
 56.26617   -129.6 1.511e+04 3.096e-09
 56.27956   -132.3 1.412e+04 2.247e-09
 56.28938   -133.1 1.340e+04 1.733e-09
 56.30546   -135.0 1.297e+04 1.525e-09
 56.32511   -136.3 1.268e+04 1.366e-09
 56.34475   -137.3 1.244e+04 1.213e-09
 56.36440   -138.1 1.216e+04 1.088e-09
 56.38404   -138.7 1.198e+04 9.820e-10
 56.39554   -139.2 1.198e+04 9.326e-10
 56.40537   -139.2 1.226e+04 9.704e-10
 56.42333   -140.4 1.247e+04 9.771e-10
 56.44298   -143.5 1.420e+04 1.180e-09
 56.46262   -147.7 1.695e+04 2.275e-09
 56.47505   -151.2 1.870e+04 4.837e-09
 56.48488   -152.8 1.771e+04 6.374e-09
 56.50191   -155.0 1.864e+04 8.845e-09
 56.51660   -155.3 1.858e+04 9.211e-09
 56.52637   -155.9 1.889e+04 9.727e-09
 56.53620   -157.1 1.951e+04 1.082e-08
 56.54602   -158.9 2.015e+04 1.176e-08
 56.55584   -161.1 2.040e+04 1.207e-08
 56.56566   -163.6 2.047e+04 1.157e-08
 56.57270   -166.4 1.985e+04 9.811e-09
 56.57761   -168.7 1.874e+04 8.320e-09
 56.58531   -171.0 1.790e+04 7.482e-09
 56.59513   -172.7 1.738e+04 6.974e-09
 56.60495   -173.8 1.712e+04 6.664e-09
 56.61478   -174.5 1.696e+04 6.461e-09
 56.62460   -175.2 1.686e+04 6.250e-09
 56.63442   -175.8 1.683e+04 6.012e-09
 56.64424   -176.5 1.687e+04 5.791e-09
 56.65903   -178.0 1.717e+04 5.635e-09
 56.67055   -182.9 2.054e+04 6.842e-09
 56.68037   -184.5 2.263e+04 9.002e-09
 56.69341   -191.0 2.521e+04 1.151e-08
 56.70318   -194.6 2.680e+04 1.472e-08
 56.71300   -198.1 2.789e+04 1.740e-08
 56.72282   -202.5 2.812e+04 1.840e-08
 56.73265   -206.9 2.757e+04 1.837e-08
 56.74247   -211.2 2.559e+04 1.467e-08
 56.75229   -215.0 2.267e+04 1.109e-08
 56.76211   -218.1 1.955e+04 9.464e-09
 56.76820   -220.2 1.783e+04 7.848e-09
 56.77311   -221.3 1.787e+04 8.183e-09
 56.78176   -222.4 1.696e+04 6.631e-09
 56.79158   -223.1 1.615e+04 5.358e-09
 56.80140   -223.6 1.543e+04 4.560e-09
 56.81619   -223.7 1.496e+04 4.086e-09
 56.83588   -223.6 1.414e+04 3.356e-09
 56.85553   -223.3 1.352e+04 2.924e-09
 56.86604   -222.0 1.330e+04 2.746e-09
 56.87587   -222.0 1.308e+04 2.660e-09
 56.89456   -220.5 1.286e+04 2.405e-09
 56.90438   -221.3 1.273e+04 2.232e-09
 56.91446   -219.7 1.249e+04 1.985e-09
 56.93411   -218.2 1.220e+04 1.717e-09
 56.95375   -216.8 1.188e+04 1.445e-09
 56.97340   -215.4 1.154e+04 1.195e-09
 56.99304   -214.1 1.120e+04 9.839e-10
 57.01269   -212.8 1.088e+04 8.189e-10
 57.03233   -211.3 1.062e+04 7.037e-10
 57.05172   -209.9 1.045e+04 6.271e-10
 57.06154   -209.9 1.040e+04 6.212e-10
 57.07162   -208.6 1.035e+04 5.924e-10
 57.09127   -207.3 1.038e+04 5.867e-10
 57.11091   -206.1 1.055e+04 6.360e-10
 57.13056   -204.8 1.091e+04 7.152e-10
 57.15020   -203.5 1.131e+04 8.307e-10
 57.16985   -202.3 1.167e+04 9.695e-10
 57.18949   -201.0 1.200e+04 1.127e-09
 57.20914   -199.8 1.228e+04 1.314e-09
 57.22879   -198.7 1.254e+04 1.542e-09
 57.24721   -197.6 1.277e+04 1.821e-09
 57.25704   -197.7 1.290e+04 2.005e-09
 57.26808   -196.5 1.308e+04 2.334e-09
 57.28772   -195.2 1.320e+04 2.636e-09
 57.30737   -193.9 1.325e+04 2.785e-09
 57.32701   -192.7 1.329e+04 2.781e-09
 57.34666   -191.5 1.315e+04 2.593e-09
 57.36630   -190.5 1.296e+04 2.338e-09
 57.38595   -189.4 1.275e+04 2.097e-09
 57.40339   -188.4 1.252e+04 1.792e-09
 57.41321   -189.3 1.246e+04 1.573e-09
 57.42524   -188.3 1.220e+04 1.306e-09
 57.44271   -187.4 1.195e+04 1.105e-09
 57.45253   -187.2 1.206e+04 1.138e-09
 57.46453   -186.2 1.179e+04 9.674e-10
 57.48417   -185.0 1.153e+04 8.576e-10
 57.50382   -183.8 1.132e+04 7.763e-10
 57.52346   -182.6 1.115e+04 7.117e-10
 57.54311   -181.2 1.105e+04 6.711e-10
 57.56275   -179.8 1.105e+04 6.567e-10
 57.58240   -178.4 1.105e+04 6.555e-10
 57.60204   -177.3 1.121e+04 6.674e-10
 57.62169   -176.3 1.140e+04 7.411e-10
 57.63820   -175.1 1.160e+04 8.638e-10
 57.64803   -175.4 1.183e+04 1.017e-09
 57.66098   -174.1 1.207e+04 1.242e-09
 57.68062   -172.8 1.231e+04 1.482e-09
 57.70027   -171.5 1.251e+04 1.692e-09
 57.71991   -170.2 1.261e+04 1.835e-09
 57.73956   -169.1 1.263e+04 1.877e-09
 57.75920   -167.9 1.259e+04 1.867e-09
 57.77885   -166.6 1.243e+04 1.716e-09
 57.79850   -165.3 1.220e+04 1.518e-09
 57.81814   -164.0 1.197e+04 1.309e-09
 57.83370   -162.7 1.174e+04 1.117e-09
 57.84352   -162.9 1.167e+04 1.097e-09
 57.85743   -161.6 1.144e+04 9.148e-10
 57.87708   -160.3 1.125e+04 7.585e-10
 57.89672   -159.2 1.106e+04 6.246e-10
 57.91222   -158.0 1.086e+04 5.127e-10
 57.92204   -158.3 1.072e+04 4.546e-10
 57.93601   -157.2 1.064e+04 4.145e-10
 57.96558   -155.9 1.057e+04 3.930e-10
 58.00496   -152.9 1.029e+04 3.346e-10
 58.02939   -149.8 1.005e+04 2.732e-10
 58.04904   -150.2 1.009e+04 2.607e-10
 58.08355   -147.6 9.995e+03 2.224e-10
 58.12284   -145.2 9.937e+03 1.935e-10
 58.16213   -143.0 9.860e+03 1.702e-10
 58.20142   -140.6 9.782e+03 1.523e-10
 58.24071   -138.3 9.712e+03 1.395e-10
 58.28000   -135.9 9.639e+03 1.311e-10
 58.31929   -133.6 9.552e+03 1.256e-10
 58.35858   -131.2 9.436e+03 1.214e-10
 58.39787   -129.0 9.276e+03 1.175e-10
 58.42038   -126.7 9.109e+03 1.124e-10
 58.42412   -126.7 9.129e+03 1.030e-10
 58.44089   -126.1 9.121e+03 1.035e-10
 58.47645   -123.9 9.002e+03 9.738e-11
 58.51574   -121.8 8.916e+03 9.110e-11
 58.55503   -119.6 8.838e+03 8.558e-11
 58.59432   -117.5 8.744e+03 8.094e-11
 58.63361   -115.3 8.697e+03 7.744e-11
 58.67290   -113.1 8.700e+03 7.626e-11
 58.71219   -110.9 8.709e+03 7.644e-11
 58.75148   -108.6 8.781e+03 7.774e-11
 58.79077   -106.4 8.843e+03 8.150e-11
 58.81138   -104.2 8.921e+03 8.514e-11
 58.83102   -103.9 9.059e+03 8.901e-11
 58.86935   -101.6 9.129e+03 9.180e-11
 58.90864    -99.4 9.187e+03 9.403e-11
 58.94793    -97.2 9.252e+03 9.583e-11
 58.98722    -94.9 9.337e+03 9.726e-11
 59.02651    -92.6 9.396e+03 9.945e-11
 59.06580    -90.3 9.444e+03 9.924e-11
 59.10509    -88.1 9.533e+03 9.732e-11
 59.14438    -85.9 9.663e+03 9.722e-11
 59.18272    -83.8 9.835e+03 1.028e-10
 59.20237    -83.0 9.817e+03 9.197e-11
 59.22297    -80.9 9.973e+03 1.001e-10
 59.26226    -78.6 1.008e+04 1.163e-10
 59.30155    -76.3 1.016e+04 1.357e-10
 59.34084    -74.0 1.026e+04 1.502e-10
 59.38013    -71.6 1.035e+04 1.549e-10
 59.41927    -69.2 1.041e+04 1.542e-10
 59.45856    -66.6 1.049e+04 1.600e-10
 59.49800    -64.2 1.064e+04 1.536e-10
 59.53729    -61.8 1.079e+04 1.477e-10
 59.57371    -59.3 1.092e+04 1.437e-10
 59.59336    -58.8 1.097e+04 1.517e-10
 59.61587    -56.5 1.107e+04 1.608e-10
 59.65516    -54.2 1.111e+04 1.730e-10
 59.69445    -51.8 1.111e+04 1.817e-10
 59.73374    -49.5 1.106e+04 1.827e-10
 59.77303    -47.1 1.099e+04 1.722e-10
 59.81232    -44.7 1.091e+04 1.540e-10
 59.85161    -42.2 1.084e+04 1.337e-10
 59.89090    -39.6 1.078e+04 1.171e-10
 59.93019    -37.1 1.070e+04 1.070e-10
 59.96471    -34.3 1.060e+04 1.036e-10
 59.98435    -34.2 1.061e+04 1.058e-10
 60.00877    -31.4 1.058e+04 1.050e-10
 60.04806    -29.3 1.082e+04 1.102e-10
 60.08735    -28.5 1.125e+04 1.830e-10
 60.12664    -27.5 1.140e+04 4.472e-10
 60.16593    -25.2 1.191e+04 9.143e-10
 60.20522    -23.0 1.237e+04 1.241e-09
 60.24451    -21.8 1.242e+04 1.130e-09
 60.28380    -21.1 1.205e+04 7.667e-10
 60.32309    -20.7 1.164e+04 5.849e-10
 60.35570    -19.5 1.144e+04 5.539e-10
 60.37534    -20.2 1.116e+04 4.371e-10
 60.40168    -18.6 1.097e+04 4.798e-10
 60.43694    -16.6 1.092e+04 4.919e-10
 60.45658    -15.5 1.112e+04 6.457e-10
 60.48026    -13.4 1.100e+04 5.986e-10
 60.51955    -11.6 1.095e+04 4.689e-10
 60.55884    -10.2 1.096e+04 4.000e-10
 60.59813     -8.6 1.095e+04 3.966e-10
 60.63742     -6.8 1.102e+04 4.164e-10
 60.67671     -5.0 1.129e+04 4.979e-10
 60.70608     -4.5 1.117e+04 6.289e-10
 60.72563     -3.8 1.152e+04 7.254e-10
 60.74527     -2.8 1.147e+04 8.770e-10
 60.75632     -1.9 1.160e+04 9.696e-10
 60.76614     -2.0 1.160e+04 9.941e-10
 60.78456     -0.9 1.175e+04 1.149e-09
 60.80421     -0.2 1.178e+04 1.169e-09
 60.83377      1.1 1.183e+04 1.150e-09
 60.87316      1.9 1.208e+04 1.187e-09
 60.91245      1.8 1.230e+04 1.372e-09
 60.95174      2.3 1.242e+04 1.690e-09
 60.99103      3.5 1.239e+04 1.703e-09
 61.03032      5.1 1.183e+04 1.181e-09
 61.06961      6.4 1.117e+04 6.458e-10
 61.10890      7.1 1.082e+04 3.892e-10
 61.13768      7.9 1.072e+04 2.991e-10
 61.15733      7.0 1.022e+04 2.108e-10
 61.18748      8.7 1.009e+04 2.073e-10
 61.22677     10.4 1.009e+04 2.189e-10
 61.26606     12.2 1.011e+04 2.389e-10
 61.30535     13.8 1.015e+04 2.586e-10
 61.34464     15.5 1.018e+04 2.776e-10
 61.38393     17.1 1.020e+04 2.976e-10
 61.42322     18.8 1.023e+04 3.202e-10
 61.45460     20.4 1.024e+04 3.401e-10
 61.47425     20.3 1.035e+04 3.769e-10
 61.50181     22.0 1.031e+04 3.713e-10
 61.52867     23.9 1.014e+04 3.487e-10
 61.54832     23.7 9.965e+03 2.833e-10
 61.58039     25.5 9.850e+03 2.239e-10
 61.61968     27.1 9.806e+03 1.773e-10
 61.65897     28.6 9.774e+03 1.555e-10
 61.69826     30.2 9.769e+03 1.565e-10
 61.73755     31.9 9.800e+03 1.644e-10
 61.77684     33.4 9.870e+03 1.848e-10
 61.81613     35.1 9.936e+03 2.157e-10
 61.85542     36.8 1.002e+04 2.456e-10
 61.89471     38.5 1.006e+04 2.515e-10
 61.91966     40.3 1.004e+04 2.466e-10
 61.93931     40.5 9.993e+03 2.318e-10
 61.97329     42.5 9.969e+03 2.156e-10
 62.01258     44.5 9.943e+03 1.908e-10
 62.05187     46.5 9.954e+03 1.663e-10
 62.09116     48.5 9.981e+03 1.502e-10
 62.13045     50.5 9.998e+03 1.483e-10
 62.16974     52.7 9.999e+03 1.507e-10
 62.20903     55.0 1.002e+04 1.544e-10
 62.24832     57.3 1.003e+04 1.602e-10
 62.28761     59.7 1.007e+04 1.701e-10
 62.31066     62.1 1.013e+04 1.853e-10
 62.33030     62.2 1.016e+04 1.855e-10
 62.36619     64.6 1.021e+04 2.007e-10
 62.40548     66.9 1.029e+04 2.226e-10
 62.44477     69.3 1.042e+04 2.545e-10
 62.47227     71.6 1.062e+04 3.035e-10
 62.49191     71.5 1.067e+04 3.226e-10
 62.52335     73.7 1.106e+04 4.196e-10
 62.56264     75.5 1.140e+04 5.400e-10
 62.59201     76.6 1.154e+04 6.426e-10
 62.61156     77.1 1.162e+04 7.256e-10
 62.63121     78.4 1.186e+04 8.982e-10
 62.65085     79.3 1.204e+04 1.030e-09
 62.67050     80.5 1.224e+04 1.174e-09
 62.69014     81.6 1.244e+04 1.319e-09
 62.70145     82.5 1.265e+04 1.504e-09
 62.71127     82.2 1.268e+04 1.485e-09
 62.72943     82.9 1.299e+04 1.749e-09
 62.74908     83.6 1.339e+04 2.141e-09
 62.76872     84.2 1.385e+04 2.678e-09
 62.78837     84.9 1.432e+04 3.318e-09
 62.80801     85.5 1.470e+04 3.943e-09
 62.82766     86.2 1.495e+04 4.421e-09
 62.84730     86.8 1.508e+04 4.708e-09
 62.86695     87.5 1.515e+04 4.879e-09
 62.88659     88.1 1.518e+04 5.012e-09
 62.89695     88.8 1.520e+04 5.120e-09
 62.90677     88.5 1.493e+04 4.433e-09
 62.92588     89.2 1.499e+04 4.692e-09
 62.94553     90.0 1.505e+04 4.924e-09
 62.96518     90.8 1.507e+04 4.970e-09
 62.98091     91.7 1.502e+04 4.873e-09
 62.99073     91.6 1.488e+04 4.311e-09
 63.00447     92.5 1.479e+04 4.226e-09
 63.02411     93.4 1.466e+04 4.028e-09
 63.04376     94.4 1.449e+04 3.730e-09
 63.06340     95.4 1.434e+04 3.386e-09
 63.08262     96.2 1.428e+04 3.059e-09
 63.09244     96.1 1.418e+04 2.870e-09
 63.10269     96.8 1.411e+04 2.648e-09
 63.12234     97.5 1.397e+04 2.492e-09
 63.14198     98.4 1.383e+04 2.286e-09
 63.16163     99.2 1.367e+04 2.074e-09
 63.18127    100.2 1.352e+04 1.870e-09
 63.20092    101.2 1.342e+04 1.687e-09
 63.22056    102.1 1.334e+04 1.530e-09
 63.24021    103.0 1.327e+04 1.401e-09
 63.25985    103.8 1.323e+04 1.305e-09
 63.27812    104.7 1.321e+04 1.238e-09
 63.28794    104.8 1.339e+04 1.412e-09
 63.29914    105.6 1.339e+04 1.382e-09
 63.31879    106.5 1.342e+04 1.389e-09
 63.33843    107.3 1.347e+04 1.429e-09
 63.35808    108.1 1.351e+04 1.498e-09
 63.37772    108.9 1.357e+04 1.582e-09
 63.39737    109.7 1.363e+04 1.670e-09
 63.41701    110.6 1.369e+04 1.758e-09
 63.43666    111.5 1.377e+04 1.853e-09
 63.45630    112.3 1.388e+04 1.963e-09
 63.47361    113.2 1.402e+04 2.067e-09
 63.48343    113.6 1.396e+04 1.974e-09
 63.48974    114.5 1.405e+04 2.048e-09
 63.49956    113.6 1.401e+04 2.001e-09
 63.51524    114.5 1.414e+04 2.104e-09
 63.53489    115.3 1.434e+04 2.306e-09
 63.55453    116.0 1.462e+04 2.656e-09
 63.57418    116.5 1.502e+04 3.295e-09
 63.59382    116.8 1.563e+04 4.487e-09
 63.61347    117.1 1.652e+04 6.749e-09
 63.63311    117.4 1.759e+04 1.044e-08
 63.65276    117.6 1.885e+04 1.628e-08
 63.66911    117.6 1.977e+04 2.257e-08
 63.67893    117.8 1.982e+04 2.343e-08
 63.68709    117.2 2.124e+04 3.727e-08
 63.69686    116.7 2.154e+04 4.195e-08
 63.70668    115.9 2.203e+04 5.242e-08
 63.71651    115.3 2.204e+04 5.967e-08
 63.72633    114.6 2.183e+04 5.896e-08
 63.73615    114.3 2.167e+04 5.908e-08
 63.74406    114.3 2.148e+04 5.715e-08
 63.74897    114.9 2.064e+04 3.312e-08
 63.75580    114.6 2.051e+04 3.172e-08
 63.76562    114.5 2.039e+04 3.066e-08
 63.77167    114.3 2.021e+04 2.865e-08
 63.77658    114.3 1.961e+04 2.231e-08
 63.78526    114.1 1.938e+04 1.981e-08
 63.79509    113.9 1.909e+04 1.724e-08
 63.80987    113.7 1.944e+04 2.045e-08
 63.82956    113.9 1.874e+04 1.541e-08
 63.84921    114.5 1.775e+04 1.017e-08
 63.86460    115.0 1.658e+04 6.353e-09
 63.87443    114.6 1.552e+04 4.115e-09
 63.88850    114.8 1.490e+04 3.012e-09
 63.90814    114.7 1.435e+04 2.293e-09
 63.93771    115.9 1.395e+04 1.881e-09
 63.97710    117.5 1.332e+04 1.353e-09
 64.01639    119.3 1.270e+04 9.522e-10
 64.05568    121.3 1.220e+04 7.213e-10
 64.09497    123.5 1.197e+04 6.826e-10
 64.13426    125.6 1.199e+04 7.063e-10
 64.17355    127.4 1.200e+04 7.736e-10
 64.21284    129.8 1.205e+04 8.357e-10
 64.24597    132.2 1.213e+04 8.863e-10
 64.26561    133.0 1.215e+04 9.124e-10
 64.28150    133.8 1.225e+04 9.346e-10
 64.30105    133.8 1.225e+04 9.311e-10
 64.33061    134.8 1.207e+04 8.871e-10
 64.37000    136.6 1.184e+04 8.154e-10
 64.40929    138.6 1.174e+04 7.870e-10
 64.44858    140.5 1.184e+04 8.183e-10
 64.48787    141.8 1.211e+04 9.688e-10
 64.51724    142.9 1.249e+04 1.232e-09
 64.53679    142.9 1.276e+04 1.606e-09
 64.55643    143.3 1.296e+04 2.010e-09
 64.57608    143.8 1.291e+04 2.194e-09
 64.59572    144.5 1.281e+04 2.115e-09
 64.61537    145.3 1.252e+04 1.859e-09
 64.63501    146.2 1.215e+04 1.468e-09
 64.64659    147.0 1.178e+04 1.063e-09
 64.65641    146.6 1.180e+04 1.034e-09
 64.67430    146.5 1.141e+04 6.638e-10
 64.69395    146.1 1.106e+04 4.365e-10
 64.72352    146.1 1.074e+04 3.505e-10
 64.76290    146.6 1.044e+04 3.182e-10
 64.80219    147.5 1.045e+04 3.267e-10
 64.84148    148.3 1.057e+04 3.854e-10
 64.88077    148.3 1.081e+04 4.725e-10
 64.91014    148.1 1.099e+04 5.898e-10
 64.92969    148.1 1.104e+04 6.207e-10
 64.95926    149.1 1.090e+04 6.358e-10
 64.99865    149.9 1.084e+04 6.389e-10
 65.02795    150.2 1.076e+04 6.207e-10
 65.04760    149.7 1.053e+04 5.287e-10
 65.07723    150.4 1.053e+04 5.077e-10
 65.11652    150.9 1.057e+04 5.094e-10
 65.15581    151.7 1.066e+04 5.192e-10
 65.19510    152.2 1.076e+04 5.304e-10
 65.23439    152.6 1.077e+04 5.286e-10
 65.27368    153.0 1.076e+04 5.059e-10
 65.31297    153.4 1.068e+04 4.666e-10
 65.35226    154.0 1.058e+04 4.329e-10
 65.39155    154.6 1.055e+04 4.271e-10
 65.41894    155.3 1.058e+04 4.347e-10
 65.43859    155.6 1.058e+04 4.290e-10
 65.47013    156.3 1.068e+04 4.464e-10
 65.50562    156.5 1.084e+04 4.760e-10
 65.52527    156.4 1.085e+04 4.641e-10
 65.54871    156.3 1.104e+04 4.951e-10
 65.58800    156.0 1.128e+04 5.390e-10
 65.62729    155.1 1.157e+04 6.165e-10
 65.66658    153.9 1.197e+04 7.618e-10
 65.70587    152.6 1.250e+04 9.900e-10
 65.74516    151.0 1.297e+04 1.172e-09
 65.78445    149.0 1.303e+04 1.158e-09
 65.80994    147.0 1.292e+04 1.023e-09
 65.82958    147.9 1.295e+04 1.027e-09
 65.86303    145.9 1.250e+04 7.903e-10
 65.90232    144.4 1.188e+04 6.101e-10
 65.94161    143.3 1.169e+04 5.697e-10
 65.98090    142.7 1.180e+04 6.007e-10
 66.00533    141.5 1.242e+04 7.311e-10
 66.01506    141.8 1.209e+04 6.756e-10
 66.02408    141.2 1.246e+04 7.590e-10
 66.03391    141.6 1.220e+04 7.546e-10
 66.04947    140.6 1.269e+04 9.313e-10
 66.06911    139.9 1.314e+04 1.103e-09
 66.08876    138.9 1.365e+04 1.515e-09
 66.10840    138.3 1.382e+04 1.836e-09
 66.12805    137.8 1.379e+04 2.076e-09
 66.14769    137.5 1.370e+04 2.034e-09
 66.17726    136.5 1.322e+04 1.530e-09
 66.20093    135.8 1.227e+04 7.292e-10
 66.22057    136.8 1.269e+04 1.207e-09
 66.25594    136.7 1.191e+04 6.629e-10
 66.29523    136.8 1.108e+04 3.473e-10
 66.33452    137.1 1.038e+04 2.346e-10
 66.37381    138.0 1.011e+04 2.203e-10
 66.41310    139.6 1.007e+04 2.282e-10
 66.45239    141.4 1.009e+04 2.597e-10
 66.49168    143.1 1.026e+04 3.137e-10
 66.52329    144.5 1.048e+04 3.741e-10
 66.54293    145.9 1.041e+04 3.337e-10
 66.57026    147.2 1.063e+04 3.992e-10
 66.59192    148.4 1.071e+04 4.259e-10
 66.61156    148.8 1.086e+04 4.729e-10
 66.63892    148.6 1.075e+04 4.606e-10
 66.65847    148.7 1.069e+04 4.519e-10
 66.67811    149.3 1.057e+04 4.198e-10
 66.69776    149.6 1.052e+04 4.036e-10
 66.72732    150.8 1.054e+04 3.951e-10
 66.76671    151.4 1.056e+04 3.947e-10
 66.78732    151.5 1.058e+04 4.024e-10
 66.79704    151.6 1.053e+04 4.047e-10
 66.81563    152.0 1.059e+04 4.393e-10
 66.83527    152.4 1.072e+04 4.902e-10
 66.85492    152.6 1.084e+04 5.330e-10
 66.87456    152.7 1.091e+04 5.399e-10
 66.89421    152.5 1.091e+04 5.347e-10
 66.91385    152.5 1.084e+04 4.925e-10
 66.93350    152.4 1.079e+04 4.709e-10
 66.96307    153.3 1.054e+04 3.987e-10
 67.00245    153.8 1.023e+04 3.180e-10
 67.04174    155.0 9.724e+03 2.253e-10
 67.08103    156.4 9.295e+03 1.672e-10
 67.12032    157.9 9.050e+03 1.446e-10
 67.15961    159.8 9.051e+03 1.441e-10
 67.19890    161.8 9.062e+03 1.446e-10
 67.23820    163.8 9.088e+03 1.475e-10
 67.27749    165.9 9.139e+03 1.542e-10
 67.31678    167.9 9.211e+03 1.653e-10
 67.35426    169.9 9.310e+03 1.806e-10
 67.37390    169.2 9.320e+03 1.672e-10
 67.39536    171.2 9.411e+03 1.866e-10
 67.43465    173.3 9.559e+03 2.106e-10
 67.47394    175.4 9.790e+03 2.401e-10
 67.51323    177.4 1.010e+04 2.794e-10
 67.54096    178.7 1.032e+04 3.185e-10
 67.56060    178.7 1.022e+04 3.045e-10
 67.58189    179.2 1.038e+04 3.291e-10
 67.60144    179.9 1.058e+04 3.755e-10
 67.62108    180.4 1.087e+04 4.570e-10
 67.64073    180.3 1.118e+04 5.620e-10
 67.66037    180.2 1.149e+04 6.898e-10
 67.68002    179.9 1.181e+04 8.537e-10
 67.69966    179.6 1.214e+04 1.074e-09
 67.71931    179.4 1.247e+04 1.312e-09
 67.73895    179.3 1.254e+04 1.377e-09
 67.75488    179.2 1.261e+04 1.348e-09
 67.76470    178.1 1.261e+04 1.322e-09
 67.77824    175.4 1.446e+04 1.346e-09
 67.79789    168.9 1.934e+04 1.794e-09
 67.81753    162.0 2.208e+04 3.357e-09
 67.83222    159.0 2.219e+04 4.450e-09
 67.84199    157.4 2.180e+04 5.721e-09
 67.85181    156.3 2.124e+04 6.864e-09
 67.85744    154.4 2.137e+04 9.548e-09
 67.86235    149.7 2.311e+04 1.843e-08
 67.87146    143.7 2.706e+04 3.658e-08
 67.88128    136.5 2.997e+04 6.866e-08
 67.89110    128.6 3.107e+04 1.004e-07
 67.90093    120.2 3.145e+04 1.151e-07
 67.91075    111.8 3.000e+04 9.725e-08
 67.92057    103.9 2.700e+04 6.544e-08
 67.93039     97.6 2.366e+04 4.287e-08
 67.94022     93.2 2.216e+04 2.952e-08
 67.95004     89.4 2.210e+04 2.115e-08
 67.95519     85.8 2.195e+04 1.556e-08
 67.96010     84.4 2.127e+04 1.194e-08
 67.97464     79.0 2.036e+04 9.831e-09
 67.99434     71.7 1.898e+04 7.419e-09
 68.00902     67.2 1.832e+04 6.923e-09
 68.01880     64.1 1.765e+04 6.667e-09
 68.02862     60.8 1.750e+04 6.917e-09
 68.03844     58.0 1.730e+04 7.179e-09
 68.04802     55.8 1.701e+04 7.206e-09
 68.05293     55.8 1.637e+04 6.058e-09
 68.05441     54.5 1.623e+04 5.993e-09
 68.05932     54.9 1.638e+04 6.202e-09
 68.06791     53.3 1.614e+04 5.968e-09
 68.07773     52.6 1.594e+04 5.720e-09
 68.08756     51.1 1.568e+04 5.068e-09
 68.09738     51.0 1.557e+04 4.954e-09
 68.11216     50.3 1.498e+04 3.868e-09
 68.13186     49.4 1.391e+04 2.482e-09
 68.14587     47.9 1.288e+04 1.568e-09
 68.15569     49.7 1.277e+04 1.619e-09
 68.17115     48.3 1.200e+04 1.106e-09
 68.19079     47.5 1.137e+04 8.367e-10
 68.21044     47.4 1.094e+04 7.041e-10
 68.23008     47.8 1.062e+04 6.149e-10
 68.24973     48.4 1.038e+04 5.374e-10
 68.26937     49.0 1.020e+04 4.744e-10
 68.28902     49.6 1.007e+04 4.227e-10
 68.30866     50.1 1.001e+04 4.117e-10
 68.32831     50.8 1.002e+04 4.161e-10
 68.34136     51.3 1.006e+04 4.349e-10
 68.35119     51.6 1.026e+04 5.013e-10
 68.36760     52.1 1.044e+04 5.798e-10
 68.38724     52.6 1.064e+04 6.815e-10
 68.40689     53.3 1.086e+04 8.000e-10
 68.42653     53.9 1.109e+04 9.168e-10
 68.44618     54.5 1.127e+04 9.931e-10
 68.46582     54.9 1.130e+04 1.003e-09
 68.48547     55.3 1.126e+04 9.830e-10
 68.50511     55.8 1.114e+04 9.302e-10
 68.52476     56.5 1.091e+04 8.176e-10
 68.53686     56.8 1.078e+04 7.494e-10
 68.54668     56.8 1.092e+04 8.075e-10
 68.55843     57.4 1.070e+04 6.950e-10
 68.56825     56.9 1.114e+04 8.836e-10
 68.58369     57.2 1.105e+04 8.238e-10
 68.60334     57.8 1.092e+04 7.401e-10
 68.62298     57.9 1.089e+04 7.221e-10
 68.65255     58.5 1.084e+04 6.960e-10
 68.69194     59.6 1.056e+04 6.071e-10
 68.73123     61.1 1.026e+04 5.261e-10
 68.77052     62.7 9.998e+03 4.621e-10
 68.80981     64.3 9.764e+03 4.025e-10
 68.84910     65.8 9.593e+03 3.558e-10
 68.88839     67.4 9.586e+03 3.438e-10
 68.91822     69.0 9.626e+03 3.510e-10
 68.93787     68.7 9.584e+03 3.299e-10
 68.96697     70.1 9.775e+03 3.833e-10
 69.00626     71.3 1.035e+04 5.379e-10
 69.04555     71.5 1.118e+04 7.870e-10
 69.06736     71.5 1.181e+04 1.021e-09
 69.07708     71.8 1.144e+04 9.114e-10
 69.09447     70.8 1.263e+04 1.352e-09
 69.11352     69.4 1.436e+04 2.327e-09
 69.12335     67.5 1.592e+04 4.007e-09
 69.13376     66.2 1.707e+04 6.499e-09
 69.15340     64.8 1.771e+04 8.244e-09
 69.17305     63.1 1.789e+04 8.450e-09
 69.19269     61.3 1.767e+04 7.657e-09
 69.21234     59.4 1.718e+04 6.454e-09
 69.23198     57.7 1.631e+04 4.879e-09
 69.25163     56.8 1.514e+04 3.441e-09
 69.27127     56.7 1.402e+04 2.329e-09
 69.29092     56.7 1.307e+04 1.515e-09
 69.30902     56.8 1.232e+04 9.465e-10
 69.31884     55.1 1.179e+04 6.500e-10
 69.33021     54.8 1.148e+04 4.248e-10
 69.34986     54.6 1.122e+04 2.933e-10
 69.36950     54.3 1.107e+04 2.461e-10
 69.39907     55.5 1.095e+04 2.304e-10
 69.43845     58.0 1.090e+04 2.292e-10
 69.47774     60.4 1.090e+04 2.318e-10
 69.51703     62.7 1.093e+04 2.421e-10
 69.55633     64.9 1.102e+04 2.591e-10
 69.57629     66.9 1.115e+04 2.806e-10
 69.59593     67.8 1.129e+04 3.212e-10
 69.63491     69.4 1.133e+04 3.272e-10
 69.66428     70.2 1.131e+04 3.261e-10
 69.68382     70.6 1.133e+04 3.344e-10
 69.70001     71.4 1.148e+04 3.770e-10
 69.70983     71.0 1.141e+04 3.650e-10
 69.72311     71.8 1.161e+04 4.322e-10
 69.74276     72.4 1.180e+04 5.160e-10
 69.76240     72.8 1.194e+04 6.082e-10
 69.78205     73.1 1.207e+04 7.152e-10
 69.80169     73.3 1.221e+04 8.434e-10
 69.82134     73.4 1.237e+04 9.914e-10
 69.84098     73.4 1.253e+04 1.152e-09
 69.86063     73.3 1.272e+04 1.321e-09
 69.88028     73.1 1.295e+04 1.500e-09
 69.89551     72.4 1.318e+04 1.698e-09
 69.90533     72.4 1.324e+04 1.785e-09
 69.91957     71.6 1.345e+04 2.011e-09
 69.93921     70.8 1.361e+04 2.250e-09
 69.95886     69.9 1.359e+04 2.336e-09
 69.97850     69.1 1.351e+04 2.290e-09
 69.99815     68.6 1.320e+04 2.076e-09
 70.01779     68.3 1.274e+04 1.655e-09
 70.03744     68.1 1.219e+04 1.187e-09
 70.05708     67.9 1.165e+04 7.880e-10
 70.07510     67.1 1.118e+04 5.085e-10
 70.08493     66.9 1.114e+04 4.759e-10
 70.09100     66.4 1.069e+04 3.184e-10
 70.11075     66.9 1.067e+04 3.050e-10
 70.14568     67.8 1.006e+04 1.939e-10
 70.18497     69.4 9.506e+03 1.545e-10
 70.22426     71.4 9.370e+03 1.546e-10
 70.26355     73.5 9.356e+03 1.563e-10
 70.30284     75.5 9.316e+03 1.617e-10
 70.34213     77.4 9.272e+03 1.657e-10
 70.38142     79.3 9.247e+03 1.657e-10
 70.42071     81.2 9.177e+03 1.645e-10
 70.46000     83.1 9.108e+03 1.636e-10
 70.48219     85.1 9.094e+03 1.645e-10
 70.50184     85.8 9.003e+03 1.464e-10
 70.53858     87.8 9.001e+03 1.478e-10
 70.57431     89.8 9.004e+03 1.506e-10
 70.59395     89.4 9.154e+03 1.775e-10
 70.61716     91.4 9.107e+03 1.764e-10
 70.65645     93.3 9.017e+03 1.709e-10
 70.69575     95.2 8.950e+03 1.658e-10
 70.73504     97.1 8.933e+03 1.678e-10
 70.77433     99.0 8.954e+03 1.731e-10
 70.81362    100.7 9.105e+03 1.932e-10
 70.85291    102.3 9.370e+03 2.321e-10
 70.87318    103.7 9.669e+03 2.856e-10
 70.89283    103.9 9.856e+03 3.105e-10
 70.93149    105.1 1.008e+04 3.699e-10
 70.97078    105.9 1.009e+04 3.788e-10
 71.01007    106.8 1.001e+04 3.680e-10
 71.04936    107.9 9.762e+03 3.285e-10
 71.08865    109.3 9.463e+03 2.762e-10
 71.12794    110.9 9.169e+03 2.272e-10
 71.16723    112.5 8.927e+03 1.865e-10
 71.20652    114.2 8.741e+03 1.544e-10
 71.24453    115.9 8.603e+03 1.287e-10
 71.26417    115.8 8.683e+03 1.371e-10
 71.28510    117.4 8.592e+03 1.152e-10
 71.32439    118.9 8.497e+03 9.709e-11
 71.36368    120.4 8.373e+03 8.419e-11
 71.40297    122.0 8.261e+03 8.184e-11
 71.44226    123.7 8.260e+03 8.204e-11
 71.48155    125.5 8.257e+03 8.401e-11
 71.52084    127.3 8.269e+03 9.122e-11
 71.56013    129.0 8.334e+03 1.041e-10
 71.59197    130.7 8.434e+03 1.210e-10
 71.61162    130.1 8.494e+03 1.311e-10
 71.63552    131.6 8.648e+03 1.522e-10
 71.65516    131.1 8.702e+03 1.575e-10
 71.67800    132.5 8.851e+03 1.741e-10
 71.71729    133.6 9.026e+03 1.913e-10
 71.75658    134.4 9.233e+03 2.121e-10
 71.79587    135.2 9.485e+03 2.410e-10
 71.83517    135.3 9.827e+03 2.853e-10
 71.87446    135.0 1.022e+04 3.570e-10
 71.90383    135.0 1.051e+04 4.703e-10
 71.92337    134.9 1.056e+04 4.965e-10
 71.95294    134.9 1.089e+04 6.663e-10
 71.99233    134.2 1.109e+04 7.428e-10
 72.02651    133.2 1.104e+04 7.017e-10
 72.04616    133.3 1.100e+04 6.965e-10
 72.07091    132.5 1.064e+04 5.229e-10
 72.11020    131.8 1.001e+04 3.349e-10
 72.14949    131.2 9.359e+03 2.300e-10
 72.18878    131.1 9.101e+03 2.116e-10
 72.22807    131.2 9.090e+03 2.198e-10
 72.26736    131.5 9.098e+03 2.318e-10
 72.30665    131.7 9.060e+03 2.301e-10
 72.34594    131.8 8.971e+03 2.182e-10
 72.38523    131.9 8.925e+03 2.117e-10
 72.41750    132.0 8.949e+03 2.150e-10
 72.43715    132.8 9.076e+03 2.329e-10
 72.46381    132.7 9.204e+03 2.503e-10
 72.50310    132.3 9.469e+03 2.908e-10
 72.53247    131.7 9.564e+03 3.183e-10
 72.55202    131.4 9.702e+03 3.667e-10
 72.57166    131.0 1.002e+04 4.785e-10
 72.59131    130.2 1.063e+04 7.001e-10
 72.60945    128.5 1.184e+04 1.162e-09
 72.61927    126.3 1.265e+04 1.474e-09
 72.62263    123.5 1.455e+04 2.875e-09
 72.63245    124.2 1.393e+04 2.356e-09
 72.65024    121.3 1.561e+04 4.200e-09
 72.66989    118.2 1.703e+04 6.568e-09
 72.68953    114.6 1.816e+04 8.451e-09
 72.70918    110.3 1.842e+04 8.245e-09
 72.72883    105.8 1.827e+04 6.585e-09
 72.74847    101.1 1.716e+04 3.832e-09
 72.76812     96.1 1.479e+04 1.702e-09
 72.78776     90.1 1.235e+04 9.714e-10
 72.80741     84.3 1.241e+04 9.890e-10
 72.81812     76.7 1.486e+04 1.688e-09
 72.82794     78.6 1.432e+04 1.441e-09
 72.84670     69.8 1.774e+04 3.857e-09
 72.86634     64.3 1.914e+04 9.473e-09
 72.88599     61.9 1.890e+04 1.555e-08
 72.90563     61.4 1.869e+04 1.580e-08
 72.92528     61.6 1.818e+04 1.324e-08
 72.94492     61.5 1.764e+04 6.784e-09
 72.96457     59.3 1.740e+04 2.048e-09
 72.98421     51.9 1.503e+04 5.070e-10
 73.00380     44.4 9.941e+03 3.723e-10
 73.02344     42.6 9.714e+03 3.567e-10
 73.04315     40.6 1.055e+04 5.226e-10
 73.06279     34.8 1.346e+04 1.386e-09
 73.08244     27.6 1.633e+04 3.786e-09
 73.09712     22.0 1.847e+04 7.716e-09
 73.10636     21.3 1.840e+04 8.856e-09
 73.11127     22.0 1.806e+04 8.138e-09
 73.11823     18.2 1.953e+04 1.117e-08
 73.12810     13.9 1.976e+04 9.461e-09
 73.14137      8.0 1.897e+04 5.658e-09
 73.16102     -0.8 1.571e+04 2.181e-09
 73.18066    -10.4 1.134e+04 9.774e-10
 73.19939    -12.9 1.080e+04 7.306e-10
 73.21913    -12.5 1.088e+04 7.778e-10
 73.24962    -16.6 1.017e+04 6.532e-10
 73.28891    -17.8 9.801e+03 5.423e-10
 73.32820    -18.7 9.360e+03 3.695e-10
 73.36749    -20.6 8.955e+03 2.359e-10
 73.40678    -23.0 8.844e+03 2.297e-10
 73.43615    -24.7 9.169e+03 3.259e-10
 73.45570    -27.4 1.000e+04 5.026e-10
 73.47534    -31.1 1.166e+04 1.042e-09
 73.49499    -35.2 1.318e+04 2.167e-09
 73.51463    -37.2 1.453e+04 3.882e-09
 73.53428    -38.3 1.544e+04 4.957e-09
 73.55392    -40.6 1.547e+04 4.779e-09
 73.57357    -43.5 1.436e+04 2.715e-09
 73.59028    -48.1 1.257e+04 1.257e-09
 73.60011    -47.2 1.307e+04 1.473e-09
 73.61286    -52.8 1.067e+04 6.635e-10
 73.62711    -55.3 9.814e+03 4.965e-10
 73.63693    -55.8 9.728e+03 4.855e-10
 73.65215    -56.1 9.658e+03 4.674e-10
 73.67179    -56.7 9.636e+03 4.599e-10
 73.69144    -57.5 9.762e+03 4.831e-10
 73.71108    -58.2 9.908e+03 5.590e-10
 73.73073    -58.5 1.007e+04 6.631e-10
 73.75037    -58.4 1.023e+04 7.631e-10
 73.77002    -57.9 1.027e+04 8.012e-10
 73.78578    -57.4 1.021e+04 7.889e-10
 73.79560    -56.9 1.001e+04 6.926e-10
 73.80931    -56.5 9.782e+03 5.761e-10
 73.83887    -56.9 9.413e+03 4.133e-10
 73.87826    -57.3 8.671e+03 2.563e-10
 73.91755    -57.0 7.936e+03 1.562e-10
 73.95684    -55.7 7.486e+03 1.087e-10
 73.98147    -54.4 7.330e+03 9.057e-11
 74.00112    -53.2 7.291e+03 8.941e-11
 74.03542    -51.7 7.250e+03 8.271e-11
 74.07471    -50.0 7.254e+03 8.205e-11
 74.11400    -48.4 7.379e+03 8.780e-11
 74.15330    -47.0 7.583e+03 1.037e-10
 74.19259    -45.7 7.841e+03 1.326e-10
 74.23188    -44.5 8.125e+03 1.763e-10
 74.27117    -43.2 8.403e+03 2.318e-10
 74.31046    -41.7 8.738e+03 2.953e-10
 74.34975    -40.3 9.161e+03 3.593e-10
 74.37246    -39.6 9.575e+03 4.330e-10
 74.39211    -38.1 9.249e+03 3.641e-10
 74.42833    -37.8 9.706e+03 4.671e-10
 74.46762    -37.5 1.029e+04 7.004e-10
 74.49699    -36.9 1.086e+04 9.564e-10
 74.51654    -36.7 1.095e+04 1.014e-09
 74.53618    -35.9 1.123e+04 1.121e-09
 74.55583    -35.8 1.130e+04 1.128e-09
 74.56776    -35.9 1.143e+04 1.114e-09
 74.57758    -35.0 1.150e+04 1.201e-09
 74.59512    -36.1 1.190e+04 1.264e-09
 74.61476    -38.0 1.223e+04 1.386e-09
 74.63441    -39.6 1.242e+04 1.563e-09
 74.64478    -41.2 1.262e+04 1.775e-09
 74.65460    -44.5 1.574e+04 2.080e-09
 74.67370    -58.6 2.730e+04 4.810e-09
 74.68838    -67.5 2.917e+04 1.112e-08
 74.69816    -72.6 2.636e+04 2.601e-08
 74.70798    -76.9 2.252e+04 5.859e-08
 74.71780    -77.8 2.105e+04 8.451e-08
 74.72762    -78.1 2.084e+04 9.104e-08
 74.73745    -78.0 2.083e+04 8.829e-08
 74.74727    -77.9 2.241e+04 6.450e-08
 74.75709    -78.8 2.652e+04 3.844e-08
 74.76316    -87.3 3.091e+04 2.135e-08
 74.76807    -86.5 3.005e+04 2.167e-08
 74.77674   -100.2 2.963e+04 1.251e-08
 74.78656   -112.7 2.655e+04 1.116e-08
 74.79638   -118.5 2.536e+04 1.372e-08
 74.80620   -121.0 2.546e+04 2.321e-08
 74.81603   -122.9 2.424e+04 3.403e-08
 74.82585   -124.4 2.308e+04 4.216e-08
 74.83567   -125.7 2.271e+04 4.374e-08
 74.84549   -126.6 2.192e+04 4.166e-08
 74.85532   -127.0 2.125e+04 3.541e-08
 74.86091   -127.6 2.090e+04 2.724e-08
 74.86582   -126.9 2.101e+04 2.887e-08
 74.87496   -127.8 2.066e+04 2.035e-08
 74.88478   -128.9 2.015e+04 1.330e-08
 74.89419   -130.4 1.931e+04 8.176e-09
 74.89910   -134.6 1.776e+04 4.389e-09
 74.90443   -135.9 1.589e+04 3.174e-09
 74.91425   -136.3 1.506e+04 2.710e-09
 74.92904   -137.0 1.455e+04 2.262e-09
 74.94873   -139.2 1.288e+04 1.463e-09
 74.95875   -140.9 1.137e+04 1.020e-09
 74.96858   -139.1 1.125e+04 9.175e-10
 74.98802   -139.6 1.075e+04 7.820e-10
 75.00766   -139.6 1.057e+04 7.492e-10
 75.02731   -139.3 1.043e+04 7.369e-10
 75.04696   -138.7 1.030e+04 7.257e-10
 75.06660   -138.0 1.018e+04 7.028e-10
 75.08625   -137.3 1.007e+04 6.512e-10
 75.10589   -136.5 9.961e+03 5.967e-10
 75.12554   -136.0 9.895e+03 5.401e-10
 75.14379   -135.6 9.826e+03 4.882e-10
 75.15286   -136.1 9.742e+03 4.523e-10
 75.15425   -134.7 9.740e+03 4.887e-10
 75.16483   -134.0 9.752e+03 4.793e-10
 75.18447   -133.4 9.753e+03 4.735e-10
 75.20412   -132.7 9.801e+03 4.792e-10
 75.22376   -132.0 9.845e+03 4.845e-10
 75.25333   -131.0 9.997e+03 5.211e-10
 75.29272   -130.0 1.018e+04 5.760e-10
 75.33201   -129.2 1.026e+04 6.061e-10
 75.37130   -128.3 1.025e+04 6.061e-10
 75.41059   -127.3 1.003e+04 5.147e-10
 75.44988   -126.1 9.580e+03 3.706e-10
 75.48917   -125.1 9.108e+03 2.617e-10
 75.52579   -124.2 8.766e+03 2.064e-10
 75.54544   -122.5 9.019e+03 2.434e-10
 75.56775   -121.4 8.657e+03 1.924e-10
 75.60704   -120.0 8.555e+03 1.813e-10
 75.64299   -118.5 8.539e+03 1.799e-10
 75.66264   -118.6 8.724e+03 1.910e-10
 75.68562   -117.1 8.847e+03 2.135e-10
 75.72491   -115.6 8.925e+03 2.335e-10
 75.76420   -114.1 8.935e+03 2.385e-10
 75.80349   -112.4 8.871e+03 2.267e-10
 75.84278   -110.8 8.749e+03 1.997e-10
 75.88207   -109.1 8.661e+03 1.765e-10
 75.91678   -107.5 8.640e+03 1.647e-10
 75.93643   -106.2 8.694e+03 1.827e-10
 75.96065   -104.6 8.699e+03 1.784e-10
 75.99994   -103.2 8.710e+03 1.769e-10
 76.03923   -101.8 8.737e+03 1.756e-10
 76.07852   -100.4 8.757e+03 1.741e-10
 76.11781    -99.0 8.767e+03 1.720e-10
 76.15710    -97.6 8.774e+03 1.709e-10
 76.19639    -96.3 8.855e+03 1.733e-10
 76.23568    -95.1 8.976e+03 1.873e-10
 76.27497    -94.1 9.178e+03 2.136e-10
 76.30777    -93.1 9.360e+03 2.505e-10
 76.32742    -91.9 9.198e+03 2.183e-10
 76.35355    -90.9 9.282e+03 2.334e-10
 76.39284    -89.7 9.289e+03 2.412e-10
 76.43214    -88.2 9.257e+03 2.407e-10
 76.47143    -86.4 9.180e+03 2.224e-10
 76.51072    -84.5 9.122e+03 1.924e-10
 76.55001    -82.6 9.106e+03 1.683e-10
 76.58930    -80.7 9.124e+03 1.519e-10
 76.62859    -78.8 9.161e+03 1.442e-10
 76.66066    -76.9 9.178e+03 1.424e-10
 76.68031    -77.1 9.110e+03 1.233e-10
 76.69877    -75.1 9.144e+03 1.229e-10
 76.71841    -73.9 9.218e+03 1.420e-10
 76.74646    -71.8 9.226e+03 1.392e-10
 76.78575    -69.7 9.223e+03 1.380e-10
 76.82504    -67.5 9.269e+03 1.380e-10
 76.86433    -65.5 9.311e+03 1.432e-10
 76.90362    -63.5 9.380e+03 1.515e-10
 76.94291    -61.6 9.441e+03 1.604e-10
 76.98220    -59.7 9.501e+03 1.659e-10
 77.02149    -57.8 9.547e+03 1.665e-10
 77.06078    -56.1 9.563e+03 1.601e-10
 77.08976    -54.6 9.572e+03 1.489e-10
 77.10940    -53.4 9.725e+03 1.964e-10
 77.13936    -52.1 9.749e+03 1.800e-10
 77.17865    -51.2 9.784e+03 1.753e-10
 77.21794    -50.9 1.014e+04 1.895e-10
 77.25723    -50.8 1.050e+04 2.936e-10
 77.29652    -50.4 1.082e+04 4.458e-10
 77.33581    -49.8 1.109e+04 5.869e-10
 77.37510    -49.3 1.124e+04 6.699e-10
 77.41439    -48.8 1.136e+04 7.133e-10
 77.45368    -48.2 1.144e+04 7.253e-10
 77.48075    -47.4 1.161e+04 7.867e-10
 77.50039    -47.2 1.197e+04 1.002e-09
 77.52234    -46.4 1.186e+04 9.740e-10
 77.54189    -46.0 1.184e+04 9.862e-10
 77.56154    -45.0 1.186e+04 1.009e-09
 77.58118    -44.5 1.174e+04 9.677e-10
 77.60083    -43.2 1.157e+04 8.681e-10
 77.62047    -42.7 1.144e+04 7.932e-10
 77.64012    -41.4 1.122e+04 6.304e-10
 77.65976    -40.9 1.110e+04 5.782e-10
 77.67605    -39.6 1.090e+04 4.525e-10
 77.68460    -39.5 1.092e+04 4.667e-10
 77.69787    -39.2 1.070e+04 3.728e-10
 77.72872    -37.6 1.056e+04 3.154e-10
 77.76801    -35.5 1.036e+04 2.831e-10
 77.80730    -33.1 1.020e+04 2.563e-10
 77.84659    -30.5 1.009e+04 2.121e-10
 77.87174    -27.9 1.013e+04 1.662e-10
 77.89139    -27.8 1.017e+04 2.302e-10
 77.92517    -25.5 1.018e+04 1.870e-10
 77.96446    -23.4 1.016e+04 1.616e-10
 78.00375    -21.2 1.015e+04 1.572e-10
 78.04304    -19.0 1.011e+04 1.714e-10
 78.08233    -16.2 1.004e+04 1.946e-10
 78.12162    -13.5 1.009e+04 2.038e-10
 78.16091    -11.2 1.018e+04 1.944e-10
 78.20020     -9.2 1.010e+04 2.114e-10
 78.23949     -6.6 1.002e+04 2.470e-10
 78.26273     -4.0 1.009e+04 2.561e-10
 78.28238     -4.0 1.007e+04 2.655e-10
 78.31807     -1.6 1.009e+04 2.741e-10
 78.35736      0.6 1.008e+04 2.891e-10
 78.39665      3.0 1.009e+04 3.028e-10
 78.43594      5.2 1.012e+04 3.071e-10
 78.47523      7.5 1.013e+04 3.058e-10
 78.51452      9.7 1.018e+04 3.156e-10
 78.55381     11.2 1.042e+04 3.722e-10
 78.59310     13.1 1.113e+04 5.974e-10
 78.62247     13.1 1.154e+04 7.670e-10
 78.64202     12.5 1.216e+04 1.112e-09
 78.65353     11.6 1.291e+04 1.830e-09
 78.66335     11.9 1.279e+04 1.817e-09
 78.68131     11.8 1.379e+04 3.307e-09
 78.69580     12.8 1.447e+04 4.725e-09
 78.70562     13.0 1.429e+04 4.327e-09
 78.72060     13.9 1.496e+04 4.373e-09
 78.74025     14.0 1.561e+04 3.587e-09
 78.75989     12.5 1.630e+04 2.432e-09
 78.77954      9.3 1.522e+04 1.644e-09
 78.79918      6.5 1.334e+04 1.391e-09
 78.81883      5.5 1.295e+04 1.448e-09
 78.83847      5.7 1.296e+04 1.677e-09
 78.84903      6.1 1.321e+04 1.947e-09
 78.85885      7.0 1.310e+04 2.089e-09
 78.87776      7.6 1.332e+04 2.143e-09
 78.89741      8.1 1.339e+04 2.103e-09
 78.91705      8.6 1.335e+04 1.959e-09
 78.93670      9.0 1.308e+04 1.715e-09
 78.95634      9.5 1.267e+04 1.461e-09
 78.98591     10.1 1.204e+04 1.081e-09
 79.02507     10.9 1.157e+04 6.883e-10
 79.04472     11.9 1.186e+04 8.827e-10
 79.06459     12.4 1.143e+04 6.583e-10
 79.10388     12.6 1.124e+04 5.827e-10
 79.14317     12.4 1.141e+04 6.996e-10
 79.17254     11.2 1.170e+04 8.949e-10
 79.19209     11.4 1.171e+04 1.120e-09
 79.20463     12.0 1.179e+04 1.328e-09
 79.21445     12.0 1.165e+04 1.096e-09
 79.23019     12.0 1.175e+04 1.154e-09
 79.24002     12.0 1.207e+04 1.492e-09
 79.25102     11.1 1.249e+04 1.676e-09
 79.27067      9.9 1.283e+04 1.948e-09
 79.29031      9.2 1.272e+04 2.066e-09
 79.30996      9.6 1.258e+04 1.966e-09
 79.32960      9.7 1.255e+04 1.654e-09
 79.34925      9.1 1.263e+04 1.300e-09
 79.37881      7.0 1.180e+04 9.142e-10
 79.41606      5.6 1.116e+04 5.575e-10
 79.43571      6.3 1.138e+04 7.994e-10
 79.45749      6.5 1.129e+04 7.913e-10
 79.49678      5.9 1.180e+04 1.039e-09
 79.52615      5.1 1.209e+04 1.309e-09
 79.54570      4.5 1.226e+04 1.713e-09
 79.56534      4.6 1.261e+04 2.370e-09
 79.58499      5.7 1.286e+04 2.956e-09
 79.60463      6.7 1.291e+04 2.953e-09
 79.62119      8.0 1.281e+04 2.540e-09
 79.63101      8.9 1.278e+04 3.590e-09
 79.64393      9.9 1.268e+04 2.547e-09
 79.66357      9.6 1.246e+04 1.612e-09
 79.68322      8.4 1.172e+04 9.463e-10
 79.70286      7.3 1.075e+04 6.355e-10
 79.71356      7.2 1.030e+04 4.317e-10
 79.73330      8.6 1.018e+04 4.063e-10
 79.77181      9.3 9.802e+03 2.604e-10
 79.80705     10.6 9.518e+03 1.737e-10
 79.82670     11.0 9.698e+03 2.368e-10
 79.85039     12.5 9.535e+03 1.844e-10
 79.88969     13.6 9.543e+03 1.472e-10
 79.92898     14.0 9.603e+03 1.482e-10
 79.96827     14.3 9.611e+03 1.598e-10
 80.00756     13.1 1.027e+04 3.064e-10
 80.03693     11.0 1.166e+04 6.324e-10
 80.05647      8.3 1.272e+04 1.153e-09
 80.07612      6.7 1.293e+04 2.177e-09
 80.09576      7.8 1.306e+04 3.316e-09
 80.11541      9.2 1.327e+04 3.578e-09
 80.13505     10.5 1.329e+04 3.254e-09
 80.15470     10.5 1.311e+04 2.340e-09
 80.17434      9.3 1.243e+04 1.490e-09
 80.19795      6.9 1.096e+04 7.664e-10
 80.21769      8.0 1.146e+04 8.681e-10
 80.24330      6.9 1.050e+04 6.311e-10
 80.28259      6.8 1.078e+04 7.063e-10
 80.32188      6.5 1.143e+04 9.650e-10
 80.36117      6.8 1.154e+04 1.228e-09
 80.40046      8.1 1.104e+04 9.801e-10
 80.43975      9.2 1.049e+04 5.124e-10
 80.47904      7.9 1.032e+04 2.384e-10
 80.51833      6.9 9.374e+03 2.007e-10
 80.55762      7.7 8.944e+03 1.855e-10
 80.58904      9.2 8.860e+03 1.671e-10
 80.60868     10.2 8.886e+03 1.595e-10
 80.63620     11.3 8.931e+03 1.606e-10
 80.67549     11.6 9.097e+03 1.847e-10
 80.71168     11.3 9.393e+03 2.548e-10
 80.73133     10.9 9.253e+03 2.148e-10
 80.75407     10.7 9.399e+03 2.848e-10
 80.79336     10.1 9.437e+03 3.072e-10
 80.83265      9.9 9.219e+03 2.735e-10
 80.87194      9.3 8.983e+03 1.960e-10
 80.91123      7.6 9.021e+03 1.673e-10
 80.95052      4.9 9.471e+03 2.117e-10
 80.97989      2.1 9.938e+03 3.437e-10
 80.99944      0.5 1.017e+04 5.040e-10
 81.01909      0.4 9.984e+03 6.762e-10
 81.03873     -0.3 1.050e+04 7.092e-10
 81.05838     -3.2 1.205e+04 7.290e-10
 81.07802     -7.3 1.189e+04 8.757e-10
 81.09767    -10.1 1.117e+04 9.983e-10
 81.11731    -11.0 1.093e+04 1.106e-09
 81.13696    -10.9 1.104e+04 1.178e-09
 81.15660    -10.8 1.107e+04 1.119e-09
 81.18617    -11.7 1.052e+04 7.776e-10
 81.22556    -13.1 9.458e+03 3.345e-10
 81.26485    -14.7 9.017e+03 2.186e-10
 81.30414    -15.7 8.974e+03 1.937e-10
 81.34343    -17.3 9.390e+03 2.671e-10
 81.37102    -18.0 9.835e+03 4.935e-10
 81.39067    -17.6 9.839e+03 4.790e-10
 81.42201    -17.4 1.037e+04 7.007e-10
 81.46130    -17.4 1.074e+04 7.930e-10
 81.50059    -18.7 1.082e+04 7.861e-10
 81.53988    -19.5 1.067e+04 7.489e-10
 81.57917    -19.5 1.068e+04 7.987e-10
 81.61846    -18.6 1.060e+04 7.630e-10
 81.65775    -18.2 1.054e+04 6.490e-10
 81.69704    -18.7 1.071e+04 6.199e-10
 81.72935    -22.1 1.230e+04 1.009e-09
 81.74889    -21.9 1.263e+04 1.434e-09
 81.76182    -23.3 1.291e+04 1.988e-09
 81.77164    -23.9 1.253e+04 1.762e-09
 81.78525    -24.7 1.281e+04 2.137e-09
 81.80489    -26.0 1.330e+04 2.343e-09
 81.82454    -28.7 1.389e+04 2.386e-09
 81.84418    -32.9 1.426e+04 2.392e-09
 81.86383    -36.7 1.398e+04 2.549e-09
 81.88347    -37.9 1.367e+04 3.095e-09
 81.90312    -38.1 1.368e+04 3.335e-09
 81.92277    -37.8 1.342e+04 3.173e-09
 81.94241    -37.3 1.288e+04 2.256e-09
 81.95731    -37.5 1.229e+04 1.391e-09
 81.96714    -37.9 1.161e+04 1.089e-09
 81.98170    -39.7 1.092e+04 6.738e-10
 82.00135    -41.1 1.051e+04 5.005e-10
 82.02099    -42.2 1.047e+04 4.228e-10
 82.05056    -43.3 1.086e+04 4.045e-10
 82.08994    -44.8 1.078e+04 3.557e-10
 82.12923    -45.2 1.060e+04 3.437e-10
 82.15300    -44.9 1.034e+04 3.733e-10
 82.17265    -42.6 9.417e+03 2.462e-10
 82.20782    -41.8 9.671e+03 2.701e-10
 82.24711    -40.9 9.932e+03 3.584e-10
 82.28640    -39.5 1.015e+04 5.189e-10
 82.32569    -37.8 1.039e+04 6.959e-10
 82.36498    -36.1 1.056e+04 7.930e-10
 82.40427    -34.7 1.061e+04 8.096e-10
 82.44356    -33.5 1.062e+04 8.019e-10
 82.48285    -32.3 1.061e+04 8.032e-10
 82.52214    -30.9 1.060e+04 8.229e-10
 82.54400    -29.3 1.034e+04 7.602e-10
 82.56364    -28.4 1.013e+04 6.716e-10
 82.60072    -26.7 9.689e+03 4.708e-10
 82.64001    -25.1 9.274e+03 3.045e-10
 82.67930    -23.6 8.906e+03 2.169e-10
 82.71859    -22.0 8.641e+03 1.852e-10
 82.74701    -20.1 8.530e+03 1.765e-10
 82.76666    -19.4 8.620e+03 1.736e-10
 82.79717    -17.5 8.567e+03 1.918e-10
 82.83646    -15.7 8.697e+03 2.376e-10
 82.87575    -13.8 8.965e+03 3.091e-10
 82.91504    -11.8 9.323e+03 3.911e-10
 82.93499     -9.7 9.589e+03 4.307e-10
 82.95463     -9.3 9.134e+03 2.942e-10
 82.99362     -8.0 9.289e+03 3.092e-10
 83.03291     -7.3 9.467e+03 3.310e-10
 83.07220     -7.2 9.501e+03 3.594e-10
 83.11149     -6.6 9.493e+03 4.545e-10
 83.15078     -4.7 9.635e+03 5.405e-10
 83.18015     -3.7 9.933e+03 6.459e-10
 83.19970     -2.6 1.003e+04 6.018e-10
 83.22927     -2.8 9.892e+03 4.486e-10
 83.26865     -3.9 1.022e+04 4.639e-10
 83.30633     -5.6 1.070e+04 8.355e-10
 83.32598     -6.0 1.064e+04 8.598e-10
 83.34724     -6.0 1.122e+04 1.151e-09
 83.38653     -5.0 1.189e+04 1.381e-09
 83.42582     -5.4 1.199e+04 1.067e-09
 83.46511     -6.7 1.091e+04 7.243e-10
 83.50440     -7.3 9.901e+03 5.430e-10
 83.54369     -6.2 9.437e+03 3.862e-10
 83.58298     -5.2 9.527e+03 3.059e-10
 83.62227     -4.9 9.848e+03 2.982e-10
 83.66156     -5.2 1.026e+04 3.854e-10
 83.69733     -4.8 1.017e+04 5.920e-10
 83.71697     -5.5 1.027e+04 8.547e-10
 83.74014     -3.6 1.014e+04 8.097e-10
 83.76468     -1.6 9.899e+03 5.890e-10
 83.78432     -1.1 9.855e+03 5.571e-10
 83.81872      0.7 9.596e+03 4.450e-10
 83.85801      1.6 9.912e+03 2.678e-10
 83.89730      0.6 1.005e+04 1.696e-10
 83.93659     -0.6 9.171e+03 1.684e-10
 83.97588     -0.1 9.092e+03 2.380e-10
 84.01517      1.0 9.738e+03 3.850e-10
 84.04454     -0.6 1.035e+04 3.992e-10
 84.06409     -8.1 1.341e+04 8.503e-10
 84.08373    -13.1 1.391e+04 2.350e-09
 84.09795    -14.2 1.383e+04 4.295e-09
 84.10777    -14.0 1.390e+04 3.765e-09
 84.12302    -13.5 1.487e+04 5.203e-09
 84.14267    -13.2 1.573e+04 5.521e-09
 84.16231    -20.3 1.829e+04 3.843e-09
 84.18196    -34.1 1.476e+04 2.474e-09
 84.20161    -38.8 1.391e+04 2.552e-09
 84.22125    -40.3 1.431e+04 3.269e-09
 84.24090    -41.8 1.420e+04 3.284e-09
 84.26054    -42.7 1.330e+04 2.590e-09
 84.27332    -43.6 1.227e+04 1.742e-09
 84.28314    -42.9 1.227e+04 1.786e-09
 84.29344    -43.7 1.130e+04 1.132e-09
 84.30326    -43.1 1.181e+04 1.366e-09
 84.31948    -44.2 1.092e+04 8.774e-10
 84.33912    -44.8 1.026e+04 6.054e-10
 84.35877    -45.0 9.828e+03 4.464e-10
 84.37841    -45.1 9.539e+03 3.534e-10
 84.40798    -45.3 9.246e+03 2.869e-10
 84.44736    -44.2 8.797e+03 2.120e-10
 84.47931    -42.5 8.391e+03 1.578e-10
 84.49895    -42.3 9.051e+03 2.973e-10
 84.52595    -40.4 8.625e+03 2.153e-10
 84.56524    -38.5 8.340e+03 1.617e-10
 84.60453    -36.8 8.231e+03 1.378e-10
 84.64382    -35.0 8.217e+03 1.336e-10
 84.68311    -33.3 8.358e+03 1.429e-10
 84.72240    -31.6 8.601e+03 1.834e-10
 84.76169    -29.6 8.872e+03 2.419e-10
 84.78235    -27.6 9.196e+03 3.066e-10
 84.80199    -27.2 8.983e+03 2.743e-10
 84.84027    -25.4 9.156e+03 2.941e-10
 84.87030    -24.1 9.307e+03 3.094e-10
 84.88995    -24.2 9.413e+03 3.250e-10
 84.91885    -23.1 9.742e+03 4.322e-10
 84.95814    -21.7 1.004e+04 5.699e-10
 84.99743    -20.1 1.019e+04 6.443e-10
 85.03672    -18.5 1.012e+04 6.325e-10
 85.07601    -16.6 9.735e+03 4.602e-10
 85.11530    -15.1 9.298e+03 3.000e-10
 85.15459    -13.8 8.969e+03 2.175e-10
 85.19388    -12.2 8.750e+03 1.731e-10
 85.23317    -10.3 8.669e+03 1.413e-10
 85.26129     -8.4 8.627e+03 1.119e-10
 85.28094     -8.4 8.520e+03 8.657e-11
 85.31175     -6.6 8.436e+03 7.880e-11
 85.35104     -4.9 8.416e+03 7.700e-11
 85.39033     -3.4 8.566e+03 8.387e-11
 85.42962     -1.9 8.672e+03 1.063e-10
 85.46891     -0.0 8.761e+03 1.405e-10
 85.50820      2.3 8.960e+03 1.740e-10
 85.54749      4.3 9.204e+03 1.849e-10
 85.58678      5.8 9.395e+03 1.762e-10
 85.62608      7.2 9.405e+03 1.873e-10
 85.65228      8.2 9.522e+03 2.138e-10
 85.67193      8.8 9.536e+03 1.593e-10
 85.70466      9.7 9.611e+03 2.289e-10
 85.74395     11.3 9.726e+03 3.349e-10
 85.78037     13.4 9.799e+03 3.657e-10
 85.80001     13.5 9.556e+03 2.921e-10
 85.82253     16.0 9.451e+03 2.353e-10
 85.86182     16.5 9.445e+03 1.551e-10
 85.90111     16.3 9.427e+03 1.488e-10
 85.94040     17.1 9.115e+03 1.790e-10
 85.97969     18.8 8.889e+03 1.911e-10
 86.01898     21.0 8.735e+03 1.694e-10
 86.04328     22.5 8.704e+03 1.307e-10
 86.06292     23.6 8.846e+03 1.726e-10
 86.09756     24.7 8.767e+03 1.390e-10
 86.13685     25.7 8.673e+03 1.280e-10
 86.17614     26.9 8.666e+03 1.358e-10
 86.21543     28.4 8.638e+03 1.485e-10
 86.25472     30.1 8.640e+03 1.512e-10
 86.29401     31.7 8.613e+03 1.429e-10
 86.33330     33.1 8.568e+03 1.292e-10
 86.37259     34.3 8.600e+03 1.288e-10
 86.41188     35.2 8.744e+03 1.506e-10
 86.43427     36.0 9.060e+03 2.131e-10
 86.45391     37.4 9.143e+03 2.167e-10
 86.49046     38.2 9.552e+03 3.294e-10
 86.52975     39.3 9.979e+03 5.023e-10
 86.56904     40.4 1.007e+04 5.384e-10
 86.60833     41.6 9.982e+03 4.934e-10
 86.64762     42.8 9.752e+03 3.637e-10
 86.68691     43.3 9.460e+03 2.421e-10
 86.72620     43.5 9.215e+03 1.946e-10
 86.76550     44.0 9.189e+03 2.005e-10
 86.79803     45.0 9.222e+03 2.273e-10
 86.81768     45.1 8.980e+03 1.816e-10
 86.82526     46.2 8.980e+03 1.875e-10
 86.84490     46.7 9.220e+03 2.285e-10
 86.88337     47.8 9.210e+03 2.289e-10
 86.92266     49.0 9.162e+03 2.186e-10
 86.96195     50.0 9.050e+03 1.939e-10
 87.00124     51.0 8.921e+03 1.696e-10
 87.04053     52.0 8.828e+03 1.564e-10
 87.07982     53.2 8.812e+03 1.530e-10
 87.11911     54.5 8.806e+03 1.514e-10
 87.15840     56.0 8.783e+03 1.451e-10
 87.19661     57.5 8.703e+03 1.287e-10
 87.21625     57.7 8.854e+03 1.551e-10
 87.23698     59.2 8.667e+03 1.231e-10
 87.27627     60.6 8.485e+03 9.270e-11
 87.31556     61.9 8.336e+03 6.970e-11
 87.35485     63.1 8.188e+03 5.695e-11
 87.39414     64.6 8.007e+03 5.372e-11
 87.43343     66.3 7.995e+03 5.405e-11
 87.47272     68.1 7.981e+03 5.607e-11
 87.51201     69.9 7.977e+03 6.017e-11
 87.55130     71.8 7.979e+03 6.526e-11
 87.58760     73.6 7.984e+03 7.098e-11
 87.60724     73.7 8.114e+03 9.494e-11
 87.62988     75.5 8.133e+03 9.990e-11
 87.66917     77.4 8.161e+03 1.016e-10
 87.70846     79.2 8.165e+03 1.005e-10
 87.74775     80.9 8.177e+03 9.859e-11
 87.78704     82.6 8.192e+03 9.855e-11
 87.81570     84.3 8.214e+03 9.934e-11
 87.83534     84.8 8.317e+03 1.185e-10
 87.86562     86.5 8.354e+03 1.213e-10
 87.90492     88.0 8.456e+03 1.293e-10
 87.94421     89.5 8.683e+03 1.514e-10
 87.97859     91.0 9.083e+03 2.014e-10
 87.99823     91.1 9.283e+03 2.390e-10
 88.01287     91.5 9.439e+03 2.770e-10
 88.03241     91.8 9.541e+03 3.001e-10
 88.05206     92.1 9.766e+03 3.700e-10
 88.07170     92.0 1.011e+04 5.138e-10
 88.09135     91.1 1.117e+04 8.529e-10
 88.11099     89.0 1.305e+04 1.723e-09
 88.13064     87.3 1.472e+04 3.545e-09
 88.15028     86.7 1.570e+04 5.779e-09
 88.16993     86.1 1.591e+04 6.195e-09
 88.18371     85.6 1.574e+04 5.675e-09
 88.19354     85.4 1.646e+04 7.455e-09
 88.20922     85.0 1.571e+04 4.610e-09
 88.22887     83.2 1.459e+04 2.024e-09
 88.24851     78.5 1.254e+04 7.443e-10
 88.26816     73.8 1.012e+04 4.306e-10
 88.28780     73.4 9.852e+03 4.134e-10
 88.30745     73.9 9.827e+03 4.119e-10
 88.32434     74.8 9.851e+03 4.174e-10
 88.33416     75.1 9.750e+03 4.032e-10
 88.34674     76.1 9.868e+03 4.280e-10
 88.36638     77.0 1.005e+04 4.785e-10
 88.37921     77.9 1.030e+04 5.594e-10
 88.38903     78.4 1.058e+04 5.872e-10
 88.40567     79.6 1.095e+04 7.241e-10
 88.42532     81.3 1.147e+04 9.455e-10
 88.44496     83.0 1.266e+04 1.331e-09
 88.45965     84.4 1.300e+04 1.540e-09
 88.46942     83.7 1.535e+04 1.737e-09
 88.47686     72.9 3.539e+04 2.606e-09
 88.48177     54.6 5.202e+04 7.523e-09
 88.48659     49.0 4.597e+04 1.847e-08
 88.49147     47.2 4.065e+04 3.370e-08
 88.49638     46.7 3.235e+04 9.295e-08
 88.50130     47.9 3.011e+04 1.197e-07
 88.50621     48.4 3.004e+04 1.625e-07
 88.51112     49.1 2.948e+04 1.678e-07
 88.51603     48.6 2.962e+04 2.641e-07
 88.52094     48.2 2.834e+04 3.565e-07
 88.52568     44.8 2.635e+04 7.266e-07
 88.52814     41.0 2.092e+04 3.857e-06
 88.53076     41.2 2.007e+04 5.260e-06
 88.53567     43.0 1.979e+04 4.513e-06
 88.54059     44.9 1.982e+04 2.923e-06
 88.54798     47.4 2.098e+04 1.388e-06
 88.55782     44.6 3.324e+04 1.024e-07
 88.56765     35.6 6.650e+04 2.741e-09
 88.57466      3.1 3.183e+04 1.424e-09
 88.58453     -5.2 2.057e+04 1.314e-09
 88.60212     -7.4 1.262e+04 1.256e-09
 88.62177     -4.9 1.225e+04 1.152e-09
 88.64141     -3.0 1.206e+04 1.080e-09
 88.66106     -1.6 1.192e+04 1.049e-09
 88.68070     -0.5 1.172e+04 1.029e-09
 88.70035      0.2 1.182e+04 1.130e-09
 88.71999      0.2 1.195e+04 1.294e-09
 88.73964     -2.2 1.511e+04 1.703e-09
 88.75928    -13.6 2.459e+04 4.933e-09
 88.77015    -22.6 2.437e+04 1.939e-08
 88.77501    -24.9 2.225e+04 3.222e-08
 88.78374    -25.0 2.105e+04 4.843e-08
 88.79357    -25.0 2.079e+04 5.492e-08
 88.80339    -24.7 2.125e+04 5.549e-08
 88.81321    -25.0 2.256e+04 4.842e-08
 88.82303    -26.6 2.505e+04 2.902e-08
 88.83286    -29.9 2.687e+04 1.545e-08
 88.83798    -36.7 2.422e+04 6.537e-09
 88.84289    -36.8 2.577e+04 6.652e-09
 88.85250    -46.1 1.724e+04 2.845e-09
 88.86232    -49.5 1.366e+04 2.143e-09
 88.87711    -50.2 1.286e+04 1.939e-09
 88.89680    -49.5 1.230e+04 1.773e-09
 88.91645    -48.3 1.209e+04 1.665e-09
 88.93609    -47.3 1.190e+04 1.569e-09
 88.95574    -46.2 1.185e+04 1.529e-09
 88.96570    -45.1 1.186e+04 1.519e-09
 88.97552    -45.2 1.172e+04 1.525e-09
 88.99503    -44.1 1.171e+04 1.489e-09
 89.01467    -43.0 1.175e+04 1.462e-09
 89.03432    -42.1 1.184e+04 1.434e-09
 89.05396    -41.0 1.201e+04 1.416e-09
 89.07361    -40.0 1.224e+04 1.416e-09
 89.09325    -38.7 1.254e+04 1.425e-09
 89.12282    -36.8 1.285e+04 1.457e-09
 89.15147    -35.0 1.212e+04 1.337e-09
 89.17111    -35.2 1.202e+04 1.280e-09
 89.19158    -33.0 1.160e+04 1.221e-09
 89.21112    -31.6 1.153e+04 1.193e-09
 89.23077    -29.8 1.153e+04 1.195e-09
 89.25041    -28.2 1.155e+04 1.150e-09
 89.27006    -26.4 1.164e+04 1.129e-09
 89.28970    -24.6 1.177e+04 1.123e-09
 89.30935    -22.7 1.202e+04 1.158e-09
 89.32899    -21.1 1.199e+04 1.112e-09
 89.34200    -19.0 1.210e+04 1.153e-09
 89.35005    -18.0 1.223e+04 1.215e-09
 89.35669    -19.3 1.245e+04 1.450e-09
 89.36829    -17.7 1.251e+04 1.484e-09
 89.38793    -15.6 1.305e+04 1.729e-09
 89.40758    -13.9 1.334e+04 1.871e-09
 89.42722    -11.7 1.351e+04 2.028e-09
 89.44687     -8.9 1.376e+04 2.167e-09
 89.46651     -7.0 1.465e+04 2.628e-09
 89.48616    -13.1 2.590e+04 3.564e-09
 89.50084    -26.7 3.766e+04 8.801e-09
 89.51061    -31.4 3.427e+04 2.520e-08
 89.52044    -33.4 2.737e+04 7.506e-08
 89.53026    -33.9 2.376e+04 1.526e-07
 89.54008    -33.2 2.195e+04 2.561e-07
 89.54717    -32.1 2.140e+04 3.660e-07
 89.55209    -32.5 2.094e+04 2.523e-07
 89.55973    -32.0 2.128e+04 2.375e-07
 89.56955    -31.8 2.264e+04 1.339e-07
 89.57937    -32.6 2.630e+04 5.361e-08
 89.58920    -37.8 3.130e+04 1.904e-08
 89.59632    -50.2 2.795e+04 5.670e-09
 89.60123    -53.2 2.495e+04 6.315e-09
 89.60884    -62.3 1.623e+04 2.944e-09
 89.61866    -65.4 1.378e+04 2.308e-09
 89.62849    -66.0 1.354e+04 2.202e-09
 89.64327    -67.3 1.335e+04 1.986e-09
 89.66296    -69.2 1.289e+04 1.692e-09
 89.68261    -71.4 1.261e+04 1.484e-09
 89.70225    -73.3 1.292e+04 1.437e-09
 89.72190    -74.7 1.408e+04 1.537e-09
 89.73786    -75.8 1.554e+04 1.757e-09
 89.74768    -75.7 1.253e+04 1.097e-09
 89.76119    -76.4 1.368e+04 1.246e-09
 89.78083    -77.6 1.472e+04 1.408e-09
 89.80048    -79.5 1.612e+04 1.645e-09
 89.81516    -82.2 2.027e+04 2.926e-09
 89.82494    -83.6 2.149e+04 4.001e-09
 89.83476    -85.3 2.205e+04 5.794e-09
 89.84042    -86.6 2.205e+04 7.561e-09
 89.84533    -85.2 1.950e+04 3.524e-09
 89.85074    -86.9 1.986e+04 4.909e-09
 89.85565    -87.3 2.158e+04 1.024e-08
 89.86423    -88.3 2.117e+04 1.178e-08
 89.87405    -89.0 2.066e+04 1.300e-08
 89.88387    -89.6 2.025e+04 1.383e-08
 89.89370    -90.0 1.991e+04 1.437e-08
 89.90352    -90.2 1.960e+04 1.458e-08
 89.91334    -90.3 1.941e+04 1.432e-08
 89.92316    -90.3 1.924e+04 1.364e-08
 89.93299    -90.4 1.902e+04 1.247e-08
 89.93817    -90.4 1.883e+04 1.110e-08
 89.94308    -90.0 1.794e+04 9.294e-09
 89.95759    -89.6 1.762e+04 8.000e-09
 89.97729    -89.3 1.693e+04 6.123e-09
 89.99693    -89.6 1.564e+04 4.017e-09
 90.01658    -90.0 1.446e+04 2.922e-09
 90.03622    -90.0 1.360e+04 2.250e-09
 90.05587    -89.9 1.297e+04 1.849e-09
 90.07551    -89.3 1.254e+04 1.616e-09
 90.09516    -88.4 1.230e+04 1.489e-09
 90.11480    -87.4 1.218e+04 1.418e-09
 90.12885    -86.5 1.211e+04 1.373e-09
 90.13867    -85.7 1.215e+04 1.395e-09
 90.15409    -84.9 1.217e+04 1.396e-09
 90.17374    -84.0 1.226e+04 1.427e-09
 90.19338    -83.3 1.237e+04 1.477e-09
 90.21303    -82.6 1.246e+04 1.534e-09
 90.23267    -81.9 1.254e+04 1.595e-09
 90.25232    -81.3 1.260e+04 1.658e-09
 90.27196    -80.6 1.263e+04 1.714e-09
 90.29161    -79.9 1.263e+04 1.736e-09
 90.31125    -79.1 1.262e+04 1.710e-09
 90.32434    -78.5 1.262e+04 1.636e-09
 90.33417    -78.6 1.244e+04 1.435e-09
 90.34985    -78.4 1.239e+04 1.293e-09
 90.35967    -78.2 1.323e+04 1.731e-09
 90.37019    -78.1 1.335e+04 1.662e-09
 90.38983    -78.2 1.337e+04 1.545e-09
 90.40948    -78.6 1.314e+04 1.396e-09
 90.42912    -79.2 1.275e+04 1.259e-09
 90.44877    -79.8 1.245e+04 1.192e-09
 90.46841    -80.6 1.238e+04 1.194e-09
 90.48806    -83.4 1.351e+04 1.506e-09
 90.50770    -88.6 1.609e+04 2.848e-09
 90.51979    -91.7 1.731e+04 4.934e-09
 90.52961    -91.5 1.717e+04 5.251e-09
 90.54204    -93.4 1.796e+04 8.184e-09
 90.55181    -94.4 1.864e+04 1.075e-08
 90.56163    -95.4 1.933e+04 1.563e-08
 90.57145    -95.7 1.975e+04 2.018e-08
 90.58128    -95.8 1.988e+04 2.313e-08
 90.59110    -95.9 1.989e+04 2.376e-08
 90.60092    -95.9 1.972e+04 2.362e-08
 90.60908    -95.6 1.965e+04 1.947e-08
 90.61399    -95.4 1.984e+04 2.075e-08
 90.61749    -95.6 1.998e+04 1.468e-08
 90.62240    -94.8 1.925e+04 1.345e-08
 90.63039    -96.4 1.902e+04 1.021e-08
 90.64021    -98.4 1.818e+04 7.658e-09
 90.65003   -100.0 1.722e+04 6.251e-09
 90.66482   -101.3 1.656e+04 5.344e-09
 90.68451   -102.1 1.563e+04 4.269e-09
 90.70416   -102.9 1.507e+04 3.847e-09
 90.71534   -103.3 1.490e+04 3.763e-09
 90.72516   -102.6 1.478e+04 3.701e-09
 90.74345   -102.9 1.469e+04 3.768e-09
 90.76309   -103.1 1.481e+04 4.029e-09
 90.78274   -103.1 1.506e+04 4.331e-09
 90.80238   -103.0 1.532e+04 4.647e-09
 90.82203   -102.9 1.551e+04 4.858e-09
 90.84167   -102.9 1.555e+04 4.890e-09
 90.85868   -102.9 1.544e+04 4.697e-09
 90.86850   -102.1 1.574e+04 5.351e-09
 90.88096   -102.1 1.568e+04 5.175e-09
 90.90061   -102.3 1.550e+04 4.769e-09
 90.91083   -102.9 1.531e+04 4.433e-09
 90.92065   -103.1 1.499e+04 4.125e-09
 90.93990   -103.9 1.481e+04 3.941e-09
 90.95954   -104.7 1.460e+04 3.813e-09
 90.97919   -105.2 1.430e+04 3.631e-09
 90.99883   -105.3 1.390e+04 3.332e-09
 91.01848   -105.2 1.344e+04 2.881e-09
 91.03812   -104.9 1.292e+04 2.324e-09
 91.05777   -104.6 1.239e+04 1.780e-09
 91.07741   -104.6 1.187e+04 1.326e-09
 91.09650   -104.7 1.138e+04 9.852e-10
 91.10633   -105.2 1.081e+04 6.753e-10
 91.11671   -105.3 1.048e+04 5.565e-10
 91.13635   -105.3 1.026e+04 4.905e-10
 91.15600   -105.0 1.018e+04 4.667e-10
 91.17564   -104.8 1.017e+04 4.624e-10
 91.19529   -104.7 1.023e+04 4.670e-10
 91.21493   -104.8 1.041e+04 5.267e-10
 91.23458   -105.0 1.064e+04 6.350e-10
 91.25422   -105.2 1.096e+04 7.867e-10
 91.28379   -105.5 1.144e+04 1.018e-09
 91.32317   -105.7 1.216e+04 1.509e-09
 91.36247   -106.4 1.240e+04 1.689e-09
 91.40176   -107.2 1.233e+04 1.658e-09
 91.44105   -107.8 1.164e+04 1.214e-09
 91.47787   -108.5 1.080e+04 7.798e-10
 91.49751   -109.9 1.052e+04 6.622e-10
 91.51963   -111.1 1.020e+04 5.388e-10
 91.55892   -111.9 1.014e+04 5.248e-10
 91.59821   -112.4 1.027e+04 5.867e-10
 91.63750   -112.5 1.043e+04 6.796e-10
 91.67679   -112.4 1.049e+04 7.214e-10
 91.70616   -112.4 1.007e+04 6.049e-10
 91.72571   -112.1 9.733e+03 4.915e-10
 91.74535   -111.9 9.498e+03 4.091e-10
 91.76500   -111.7 9.412e+03 3.758e-10
 91.79456   -111.6 9.296e+03 3.295e-10
 91.83395   -111.5 9.162e+03 3.022e-10
 91.86672   -111.2 9.150e+03 3.033e-10
 91.88198   -110.5 9.182e+03 3.206e-10
 91.88851   -111.0 8.952e+03 2.852e-10
 91.91253   -110.5 8.954e+03 2.927e-10
 91.95182   -110.0 9.020e+03 3.157e-10
 91.99111   -109.3 9.039e+03 3.244e-10
 92.03040   -108.6 8.978e+03 3.194e-10
 92.06969   -107.7 8.740e+03 2.753e-10
 92.10898   -106.6 8.481e+03 2.234e-10
 92.14827   -105.3 8.272e+03 1.843e-10
 92.18756   -103.8 8.172e+03 1.666e-10
 92.22685   -102.1 8.154e+03 1.635e-10
 92.25985   -100.3 8.164e+03 1.644e-10
 92.27950    -99.8 7.850e+03 1.201e-10
 92.30543    -98.0 8.077e+03 1.380e-10
 92.34472    -96.3 8.550e+03 1.962e-10
 92.38401    -94.9 9.179e+03 3.166e-10
 92.41338    -94.1 9.582e+03 4.689e-10
 92.43293    -94.4 1.046e+04 7.611e-10
 92.45258    -94.5 1.170e+04 1.335e-09
 92.46498    -94.4 1.294e+04 2.228e-09
 92.47480    -94.0 1.231e+04 1.782e-09
 92.49187    -93.7 1.326e+04 2.677e-09
 92.51151    -93.4 1.397e+04 3.534e-09
 92.53116    -93.1 1.436e+04 4.030e-09
 92.55080    -93.0 1.445e+04 4.132e-09
 92.57045    -92.9 1.439e+04 4.008e-09
 92.59009    -92.7 1.404e+04 3.383e-09
 92.60974    -92.6 1.368e+04 2.810e-09
 92.62938    -92.6 1.359e+04 2.564e-09
 92.64903    -92.7 1.361e+04 2.535e-09
 92.66047    -94.3 1.512e+04 2.702e-09
 92.67029    -92.7 1.350e+04 2.417e-09
 92.68832    -95.7 1.767e+04 3.739e-09
 92.70796    -98.5 2.118e+04 1.179e-08
 92.72265   -100.3 2.240e+04 4.608e-08
 92.73242   -100.2 2.239e+04 1.227e-07
 92.74225   -100.4 2.239e+04 2.247e-07
 92.75207   -102.2 2.234e+04 2.750e-07
 92.75812   -103.5 2.206e+04 2.730e-07
 92.76303   -102.2 2.234e+04 2.464e-07
 92.77171   -102.2 2.203e+04 1.968e-07
 92.78154   -101.7 2.234e+04 1.248e-07
 92.79136   -101.4 2.274e+04 7.604e-08
 92.80118   -101.9 2.325e+04 4.523e-08
 92.81100   -103.1 2.348e+04 2.828e-08
 92.82083   -103.7 2.380e+04 1.847e-08
 92.83065   -104.8 2.460e+04 1.049e-08
 92.84543   -108.6 2.378e+04 5.280e-09
 92.85597   -115.0 2.394e+04 2.154e-09
 92.86083   -112.7 3.272e+04 4.727e-09
 92.86994   -120.3 3.647e+04 3.105e-09
 92.87976   -127.4 3.786e+04 3.237e-09
 92.88900   -130.1 2.834e+04 1.017e-08
 92.89391   -131.5 2.978e+04 7.386e-09
 92.89941   -131.0 2.499e+04 1.265e-08
 92.90923   -128.5 2.301e+04 1.431e-08
 92.91905   -125.4 2.216e+04 1.506e-08
 92.92887   -122.5 2.193e+04 1.499e-08
 92.93870   -119.7 2.206e+04 1.550e-08
 92.94852   -117.4 2.262e+04 1.405e-08
 92.95362   -115.1 2.307e+04 1.460e-08
 92.95853   -114.4 2.375e+04 2.094e-08
 92.96816   -113.2 2.428e+04 1.947e-08
 92.98295   -112.3 2.592e+04 8.885e-09
 93.00264   -111.3 2.676e+04 6.005e-09
 93.02229   -111.4 2.610e+04 3.901e-09
 93.04164   -112.8 2.388e+04 2.476e-09
 93.05141   -105.1 2.774e+04 8.818e-09
 93.06153   -109.1 2.718e+04 4.292e-09
 93.08122   -112.4 2.410e+04 2.466e-09
 93.10087   -118.1 2.001e+04 1.512e-09
 93.12051   -124.1 1.658e+04 1.328e-09
 93.14016   -128.7 1.314e+04 1.324e-09
 93.15980   -131.3 1.188e+04 1.209e-09
 93.17945   -132.3 1.149e+04 1.125e-09
 93.19909   -132.5 1.138e+04 1.015e-09
 93.21874   -132.5 1.126e+04 9.345e-10
 93.24830   -132.4 1.123e+04 8.706e-10
 93.28769   -130.5 1.071e+04 7.207e-10
 93.32698   -128.5 1.046e+04 6.363e-10
 93.36627   -126.1 1.041e+04 6.229e-10
 93.39312   -124.7 1.043e+04 6.291e-10
 93.40284   -124.6 1.040e+04 6.223e-10
 93.41519   -123.9 1.037e+04 6.206e-10
 93.43263   -122.5 1.038e+04 6.378e-10
 93.45238   -122.3 1.035e+04 6.369e-10
 93.47422   -120.7 1.041e+04 7.005e-10
 93.49377   -119.8 1.046e+04 7.499e-10
 93.51342   -118.9 1.053e+04 8.018e-10
 93.53306   -118.3 1.054e+04 8.274e-10
 93.55271   -117.5 1.054e+04 8.364e-10
 93.57235   -116.9 1.041e+04 8.151e-10
 93.60192   -116.1 1.020e+04 7.427e-10
 93.64131   -114.3 9.838e+03 6.268e-10
 93.68060   -112.7 9.456e+03 4.965e-10
 93.71989   -111.1 9.191e+03 4.115e-10
 93.75918   -109.7 9.126e+03 3.865e-10
 93.79847   -108.5 9.155e+03 3.915e-10
 93.82382   -107.7 9.580e+03 4.891e-10
 93.84346   -107.7 1.013e+04 6.644e-10
 93.87705   -106.9 1.074e+04 9.321e-10
 93.90205   -106.3 1.111e+04 1.126e-09
 93.92170   -106.1 1.069e+04 9.026e-10
 93.95563   -105.5 1.093e+04 1.022e-09
 93.99492   -104.7 1.110e+04 1.068e-09
 94.03421   -103.6 1.123e+04 1.058e-09
 94.06358   -102.7 1.103e+04 9.486e-10
 94.08313   -102.4 1.112e+04 9.489e-10
 94.10277   -101.7 1.133e+04 9.822e-10
 94.12242   -101.2 1.171e+04 1.138e-09
 94.14206   -100.9 1.222e+04 1.431e-09
 94.16171   -100.8 1.292e+04 1.957e-09
 94.18135   -101.0 1.393e+04 2.908e-09
 94.20100   -101.6 1.525e+04 4.637e-09
 94.21462   -102.1 1.676e+04 7.499e-09
 94.22444   -102.2 1.597e+04 5.860e-09
 94.24029   -102.3 1.769e+04 1.040e-08
 94.25993   -102.4 1.921e+04 1.687e-08
 94.27462   -102.6 2.012e+04 2.260e-08
 94.28439   -102.6 2.052e+04 2.491e-08
 94.29421   -102.7 2.072e+04 2.573e-08
 94.30404   -103.0 2.080e+04 2.588e-08
 94.31227   -103.4 2.078e+04 2.474e-08
 94.31718   -103.2 2.069e+04 2.467e-08
 94.32368   -103.8 2.072e+04 2.308e-08
 94.33350   -104.5 2.049e+04 2.102e-08
 94.34333   -105.2 2.008e+04 1.855e-08
 94.35315   -105.6 1.960e+04 1.616e-08
 94.36297   -105.8 1.919e+04 1.392e-08
 94.37775   -106.2 1.846e+04 1.095e-08
 94.39745   -106.7 1.633e+04 6.159e-09
 94.41011   -106.7 1.514e+04 4.076e-09
 94.41353   -106.6 1.574e+04 5.186e-09
 94.42051   -107.1 1.435e+04 3.333e-09
 94.43674   -107.1 1.354e+04 2.483e-09
 94.45638   -106.6 1.298e+04 2.037e-09
 94.47603   -105.7 1.271e+04 1.837e-09
 94.49567   -104.8 1.258e+04 1.725e-09
 94.51532   -103.9 1.248e+04 1.623e-09
 94.54489   -103.2 1.241e+04 1.521e-09
 94.58427   -102.0 1.234e+04 1.460e-09
 94.60580   -100.9 1.228e+04 1.408e-09
 94.62545   -101.6 1.230e+04 1.448e-09
 94.66285   -100.5 1.220e+04 1.370e-09
 94.70214    -99.3 1.194e+04 1.211e-09
 94.74143    -97.6 1.148e+04 9.496e-10
 94.78073    -95.7 1.089e+04 6.658e-10
 94.82002    -93.6 1.040e+04 4.660e-10
 94.85931    -91.6 1.005e+04 3.533e-10
 94.89860    -89.3 9.869e+03 3.068e-10
 94.91972    -86.9 9.820e+03 2.956e-10
 94.93936    -88.2 1.009e+04 3.403e-10
 94.97715    -85.8 1.008e+04 3.454e-10
 95.01644    -83.9 9.832e+03 3.384e-10
 95.05576    -81.5 9.836e+03 3.533e-10
 95.09505    -79.1 9.830e+03 3.562e-10
 95.13434    -76.7 9.771e+03 3.505e-10
 95.17363    -74.4 9.698e+03 3.323e-10
 95.21292    -72.2 9.658e+03 3.187e-10
 95.25221    -70.1 9.725e+03 3.237e-10
 95.29150    -68.3 1.002e+04 3.678e-10
 95.32087    -68.1 1.024e+04 4.012e-10
 95.34042    -68.1 1.042e+04 4.876e-10
 95.36006    -67.9 1.079e+04 6.444e-10
 95.37777    -68.0 1.121e+04 8.169e-10
 95.38759    -68.8 1.101e+04 7.253e-10
 95.39935    -69.0 1.142e+04 9.047e-10
 95.41853    -69.4 1.173e+04 1.053e-09
 95.42835    -69.6 1.107e+04 7.611e-10
 95.43864    -70.1 1.126e+04 8.477e-10
 95.45829    -70.7 1.128e+04 8.645e-10
 95.47793    -70.9 1.112e+04 8.267e-10
 95.49758    -70.9 1.082e+04 6.856e-10
 95.51722    -71.1 1.052e+04 5.305e-10
 95.53687    -71.4 1.026e+04 4.053e-10
 95.56643    -72.0 1.005e+04 3.158e-10
 95.60582    -72.2 9.626e+03 2.262e-10
 95.64511    -72.0 9.309e+03 1.868e-10
 95.68440    -71.2 9.247e+03 1.820e-10
 95.72369    -70.4 9.341e+03 2.050e-10
 95.75913    -69.5 9.625e+03 2.607e-10
 95.77878    -71.0 9.143e+03 1.792e-10
 95.80227    -69.9 9.380e+03 2.198e-10
 95.84156    -68.9 9.640e+03 2.600e-10
 95.88085    -68.2 9.818e+03 2.918e-10
 95.91774    -67.8 9.995e+03 3.311e-10
 95.93738    -67.4 9.739e+03 2.450e-10
 95.95944    -67.2 9.953e+03 2.720e-10
 95.99873    -66.8 1.021e+04 3.055e-10
 96.03802    -66.7 1.032e+04 3.311e-10
 96.06739    -66.7 1.042e+04 3.496e-10
 96.08693    -66.9 1.045e+04 3.549e-10
 96.10658    -67.2 1.056e+04 3.756e-10
 96.12622    -67.4 1.069e+04 3.945e-10
 96.14587    -67.6 1.086e+04 4.197e-10
 96.15975    -67.8 1.105e+04 4.443e-10
 96.16957    -67.8 1.086e+04 3.884e-10
 96.18516    -68.2 1.098e+04 4.148e-10
 96.20480    -68.6 1.105e+04 4.535e-10
 96.22445    -68.9 1.104e+04 5.108e-10
 96.24409    -69.1 1.098e+04 5.824e-10
 96.26374    -69.1 1.093e+04 6.627e-10
 96.28339    -68.9 1.088e+04 7.274e-10
 96.30303    -68.5 1.083e+04 7.546e-10
 96.32268    -68.1 1.082e+04 7.588e-10
 96.34232    -67.7 1.074e+04 7.289e-10
 96.35525    -67.4 1.072e+04 6.411e-10
 96.36507    -67.3 1.067e+04 6.401e-10
 96.38161    -67.3 1.063e+04 5.447e-10
 96.40126    -67.5 1.053e+04 4.649e-10
 96.42090    -67.9 1.034e+04 4.050e-10
 96.43620    -68.3 1.011e+04 3.645e-10
 96.44602    -68.8 9.783e+03 2.791e-10
 96.46019    -68.9 9.700e+03 2.706e-10
 96.47984    -68.8 9.681e+03 2.693e-10
 96.49948    -68.8 9.671e+03 2.758e-10
 96.51913    -68.8 9.761e+03 2.969e-10
 96.53877    -68.8 9.898e+03 3.331e-10
 96.55074    -68.9 1.006e+04 3.827e-10
 96.56057    -68.7 9.991e+03 3.732e-10
 96.57806    -68.9 1.020e+04 4.581e-10
 96.59771    -69.4 1.050e+04 5.843e-10
 96.61735    -70.1 1.109e+04 8.348e-10
 96.63700    -71.2 1.195e+04 1.272e-09
 96.65664    -72.3 1.297e+04 2.025e-09
 96.67629    -73.1 1.382e+04 2.931e-09
 96.69593    -73.6 1.427e+04 3.634e-09
 96.71558    -74.0 1.435e+04 3.810e-09
 96.73522    -74.0 1.407e+04 3.588e-09
 96.74624    -74.0 1.330e+04 2.511e-09
 96.75606    -73.9 1.306e+04 2.281e-09
 96.77451    -74.4 1.224e+04 1.432e-09
 96.79416    -75.1 1.141e+04 8.909e-10
 96.81380    -75.4 1.076e+04 6.020e-10
 96.83345    -75.5 1.031e+04 4.492e-10
 96.85310    -75.2 1.008e+04 3.678e-10
 96.87274    -74.5 1.007e+04 3.484e-10
 96.89239    -73.7 1.010e+04 3.436e-10
 96.91203    -73.2 1.009e+04 3.404e-10
 96.93168    -71.9 1.017e+04 3.456e-10
 96.94173    -71.6 1.014e+04 3.484e-10
 96.94537    -72.0 1.019e+04 3.318e-10
 96.95505    -72.3 9.637e+03 2.628e-10
 96.98098    -70.3 9.800e+03 2.750e-10
 97.01035    -69.0 1.005e+04 3.095e-10
 97.02990    -68.7 1.017e+04 3.424e-10
 97.04955    -71.4 1.198e+04 4.639e-10
 97.06919    -81.9 1.861e+04 1.635e-09
 97.08884    -86.0 2.024e+04 1.004e-08
 97.10352    -86.5 2.064e+04 3.446e-08
 97.11330    -85.6 2.085e+04 4.784e-08
 97.12312    -85.1 2.104e+04 5.371e-08
 97.13222    -85.1 2.108e+04 5.314e-08
 97.13713    -85.4 2.091e+04 4.423e-08
 97.14276    -85.4 2.069e+04 3.240e-08
 97.15259    -86.9 2.069e+04 2.002e-08
 97.16241    -90.1 2.028e+04 1.138e-08
 97.17223    -93.6 1.882e+04 6.582e-09
 97.18205    -96.5 1.660e+04 4.348e-09
 97.19188    -97.6 1.542e+04 3.471e-09
 97.20666    -97.9 1.471e+04 2.852e-09
 97.22635    -98.8 1.303e+04 1.933e-09
 97.24600    -98.9 1.236e+04 1.559e-09
 97.26564    -98.3 1.217e+04 1.387e-09
 97.28529    -97.6 1.199e+04 1.204e-09
 97.30493    -97.2 1.179e+04 1.022e-09
 97.32290    -96.9 1.159e+04 8.624e-10
 97.33273    -97.2 1.134e+04 7.556e-10
 97.34422    -96.9 1.117e+04 6.530e-10
 97.36387    -96.7 1.104e+04 5.672e-10
 97.38351    -96.5 1.096e+04 4.971e-10
 97.40316    -96.4 1.094e+04 4.496e-10
 97.42281    -96.8 1.096e+04 4.322e-10
 97.44245    -98.6 1.201e+04 4.757e-10
 97.45386   -101.7 1.329e+04 8.226e-10
 97.46369   -100.4 1.298e+04 6.299e-10
 97.48174   -103.3 1.388e+04 1.319e-09
 97.50139   -104.0 1.428e+04 2.541e-09
 97.51840   -104.0 1.460e+04 3.700e-09
 97.52822   -103.4 1.401e+04 2.504e-09
 97.54068   -103.4 1.448e+04 3.488e-09
 97.56032   -104.2 1.504e+04 3.827e-09
 97.57997   -105.8 1.552e+04 3.772e-09
 97.59465   -107.8 1.611e+04 3.780e-09
 97.60443   -109.4 1.674e+04 3.871e-09
 97.61425   -111.2 1.732e+04 3.994e-09
 97.62096   -112.2 1.780e+04 4.437e-09
 97.62587   -110.5 1.655e+04 3.752e-09
 97.63389   -111.9 1.661e+04 3.980e-09
 97.64372   -112.1 1.674e+04 4.300e-09
 97.65354   -112.5 1.662e+04 4.821e-09
 97.66336   -112.4 1.672e+04 5.168e-09
 97.67318   -112.2 1.668e+04 5.659e-09
 97.68301   -112.0 1.671e+04 5.791e-09
 97.69283   -111.7 1.670e+04 5.952e-09
 97.70265   -111.3 1.663e+04 5.840e-09
 97.70818   -111.0 1.654e+04 5.682e-09
 97.71309   -111.0 1.649e+04 5.610e-09
 97.71871   -110.8 1.644e+04 5.502e-09
 97.72367   -110.1 1.627e+04 5.400e-09
 97.73713   -109.0 1.595e+04 4.946e-09
 97.75677   -108.1 1.555e+04 4.219e-09
 97.77642   -107.3 1.516e+04 3.652e-09
 97.79606   -106.3 1.485e+04 3.251e-09
 97.81571   -105.2 1.461e+04 3.026e-09
 97.83535   -103.9 1.441e+04 2.928e-09
 97.85500   -102.5 1.434e+04 2.901e-09
 97.87464   -101.1 1.445e+04 2.982e-09
 97.89429    -99.7 1.463e+04 3.108e-09
 97.90939    -98.3 1.488e+04 3.294e-09
 97.91921    -98.4 1.393e+04 2.003e-09
 97.93358    -97.0 1.417e+04 2.106e-09
 97.95287    -95.9 1.444e+04 2.305e-09
 97.96270    -96.5 1.403e+04 2.213e-09
 97.97287    -95.4 1.420e+04 2.487e-09
 97.99252    -94.3 1.448e+04 2.896e-09
 98.01216    -93.7 1.509e+04 3.618e-09
 98.03181    -93.5 1.612e+04 4.943e-09
 98.05145    -93.6 1.752e+04 7.409e-09
 98.07110    -93.6 1.896e+04 1.154e-08
 98.09074    -93.5 1.996e+04 1.646e-08
 98.10484    -93.3 1.989e+04 1.650e-08
 98.11466    -93.4 1.911e+04 1.182e-08
 98.12507    -93.9 2.007e+04 1.669e-08
 98.13485    -94.8 2.051e+04 2.044e-08
 98.14467    -95.6 2.093e+04 2.504e-08
 98.15449    -96.7 2.130e+04 3.012e-08
 98.16431    -97.7 2.165e+04 3.416e-08
 98.17414    -98.8 2.182e+04 3.490e-08
 98.18396    -99.7 2.178e+04 3.263e-08
 98.19378   -100.0 2.125e+04 2.889e-08
 98.20254   -100.0 2.078e+04 2.377e-08
 98.20745    -99.5 2.045e+04 2.243e-08
 98.21211    -99.7 2.026e+04 1.930e-08
 98.21702    -99.8 1.983e+04 1.825e-08
 98.22821   -100.2 1.933e+04 1.582e-08
 98.24790    -99.9 1.841e+04 1.080e-08
 98.26755    -99.6 1.752e+04 6.700e-09
 98.28719    -99.6 1.653e+04 4.104e-09
 98.30038    -99.8 1.544e+04 2.785e-09
 98.31021    -97.4 1.664e+04 4.917e-09
 98.32648    -97.6 1.584e+04 3.548e-09
 98.34613    -97.9 1.493e+04 2.852e-09
 98.36577    -97.9 1.411e+04 2.556e-09
 98.38542    -97.6 1.359e+04 2.459e-09
 98.40506    -97.1 1.334e+04 2.416e-09
 98.42471    -96.6 1.315e+04 2.301e-09
 98.44435    -96.3 1.289e+04 1.878e-09
 98.47392    -96.2 1.237e+04 1.325e-09
 98.49607    -96.0 1.144e+04 7.685e-10
 98.50580    -93.9 1.265e+04 1.431e-09
 98.52293    -94.6 1.228e+04 1.099e-09
 98.54258    -94.7 1.185e+04 9.126e-10
 98.56223    -95.7 1.143e+04 7.421e-10
 98.59179    -97.1 1.144e+04 7.055e-10
 98.63118    -97.6 1.094e+04 5.876e-10
 98.67047    -97.8 1.089e+04 5.176e-10
 98.70976    -97.4 1.086e+04 4.374e-10
 98.74905    -96.6 1.073e+04 3.514e-10
 98.78834    -95.7 1.069e+04 3.071e-10
 98.82763    -94.6 1.068e+04 3.017e-10
 98.86692    -93.4 1.073e+04 3.170e-10
 98.88707    -92.0 1.079e+04 3.470e-10
 98.90671    -90.9 1.047e+04 2.762e-10
 98.94550    -89.3 1.051e+04 3.075e-10
 98.97074    -87.8 1.056e+04 3.311e-10
 98.99038    -86.6 1.051e+04 2.793e-10
 99.02408    -85.1 1.057e+04 2.890e-10
 99.06337    -83.6 1.061e+04 2.948e-10
 99.10266    -82.2 1.067e+04 3.105e-10
 99.14195    -80.9 1.075e+04 3.488e-10
 99.18124    -79.6 1.084e+04 4.235e-10
 99.22053    -78.6 1.101e+04 5.271e-10
 99.25841    -77.5 1.128e+04 6.595e-10
 99.27806    -75.7 1.129e+04 6.988e-10
 99.29911    -74.7 1.174e+04 9.535e-10
 99.33840    -74.1 1.209e+04 1.190e-09
 99.37770    -73.7 1.215e+04 1.260e-09
 99.41699    -73.2 1.182e+04 1.091e-09
 99.45628    -72.2 1.106e+04 6.323e-10
 99.49557    -70.7 1.018e+04 2.716e-10
 99.53486    -69.3 9.607e+03 1.140e-10
 99.57415    -68.1 9.339e+03 6.676e-11
 99.61344    -66.6 9.226e+03 5.688e-11
 99.64940    -64.9 9.317e+03 5.606e-11
 99.66905    -63.6 9.344e+03 7.194e-11
 99.69202    -62.1 9.594e+03 7.496e-11
 99.73131    -60.9 9.824e+03 1.268e-10
 99.77060    -59.5 9.953e+03 2.527e-10
 99.80989    -57.9 1.028e+04 4.578e-10
 99.84918    -56.2 1.070e+04 7.079e-10
 99.88847    -55.0 1.089e+04 8.289e-10
 99.92776    -54.5 1.084e+04 8.184e-10
 99.96705    -53.9 1.035e+04 6.233e-10
 99.98840    -53.4 9.750e+03 4.288e-10
100.00805    -52.2 1.006e+04 5.354e-10
