# Columns:
#   distance along LOS (in CHIMPs)
#   peculiar velocity  (in km/s)
#   temperature (K)
#   HI number density
# pos=(53.1917,176.289,3.04163), angles=(1.7787,3.02609)
  0.00546   -140.3 1.431e+04 2.204e-09
  0.02097   -141.8 1.468e+04 2.656e-09
  0.03136   -143.4 1.508e+04 3.044e-09
  0.04141   -141.7 1.523e+04 3.051e-09
  0.06116   -143.4 1.560e+04 3.622e-09
  0.08125   -145.3 1.568e+04 3.924e-09
  0.10135   -147.3 1.567e+04 3.975e-09
  0.11527   -149.3 1.539e+04 3.848e-09
  0.12274   -150.5 1.567e+04 4.152e-09
  0.12891   -148.8 1.629e+04 4.869e-09
  0.14154   -151.8 1.612e+04 4.498e-09
  0.16163   -155.9 1.607e+04 3.707e-09
  0.18173   -161.3 1.599e+04 3.165e-09
  0.20182   -166.9 1.568e+04 2.985e-09
  0.21641   -171.6 1.531e+04 2.960e-09
  0.22646   -169.9 1.565e+04 3.316e-09
  0.24201   -173.6 1.500e+04 3.241e-09
  0.26211   -175.8 1.453e+04 3.110e-09
  0.28220   -177.1 1.413e+04 2.873e-09
  0.30230   -179.6 1.331e+04 2.241e-09
  0.31396   -180.3 1.276e+04 1.726e-09
  0.32401   -179.7 1.290e+04 1.856e-09
  0.34249   -181.0 1.292e+04 1.641e-09
  0.36258   -183.0 1.298e+04 1.602e-09
  0.38268   -185.4 1.343e+04 1.662e-09
  0.40146   -187.8 1.404e+04 1.994e-09
  0.41151   -188.3 1.505e+04 3.094e-09
  0.42287   -189.8 1.566e+04 4.130e-09
  0.44296   -191.0 1.632e+04 5.405e-09
  0.45928   -192.1 1.694e+04 6.804e-09
  0.46932   -193.4 1.694e+04 6.641e-09
  0.48315   -194.5 1.737e+04 7.567e-09
  0.49901   -195.2 1.771e+04 8.505e-09
  0.50901   -195.1 1.755e+04 7.828e-09
  0.51822   -195.6 1.762e+04 8.062e-09
  0.52827   -195.9 1.768e+04 8.178e-09
  0.53832   -196.3 1.768e+04 8.281e-09
  0.54769   -196.5 1.769e+04 8.310e-09
  0.55271   -197.7 1.753e+04 6.710e-09
  0.55841   -197.9 1.739e+04 6.417e-09
  0.56846   -198.2 1.718e+04 6.009e-09
  0.57851   -198.5 1.688e+04 5.513e-09
  0.58855   -198.6 1.654e+04 5.010e-09
  0.59647   -198.6 1.628e+04 4.641e-09
  0.60656   -199.9 1.586e+04 3.685e-09
  0.62382   -200.1 1.518e+04 2.923e-09
  0.63630   -200.7 1.408e+04 2.058e-09
  0.64635   -203.1 1.344e+04 1.937e-09
  0.66401   -203.4 1.235e+04 1.402e-09
  0.68406   -203.5 1.159e+04 1.050e-09
  0.70416   -203.6 1.102e+04 8.210e-10
  0.72429   -203.7 1.061e+04 6.772e-10
  0.74439   -203.7 1.039e+04 5.989e-10
  0.76448   -203.9 1.030e+04 5.616e-10
  0.78161   -204.0 1.026e+04 5.475e-10
  0.79166   -204.4 1.066e+04 6.514e-10
  0.80328   -204.5 1.065e+04 6.523e-10
  0.81333   -205.2 1.071e+04 7.343e-10
  0.82477   -205.3 1.066e+04 7.423e-10
  0.84486   -205.4 1.060e+04 7.475e-10
  0.86496   -205.2 1.051e+04 7.511e-10
  0.87916   -204.8 1.039e+04 7.499e-10
  0.88921   -204.7 1.070e+04 8.958e-10
  0.90515   -204.2 1.064e+04 8.809e-10
  0.92524   -203.7 1.058e+04 8.474e-10
  0.94534   -203.1 1.049e+04 8.037e-10
  0.96543   -202.4 1.038e+04 7.528e-10
  0.97671   -201.5 1.029e+04 7.015e-10
  0.98154   -202.6 1.245e+04 1.037e-09
  0.99036   -205.7 1.618e+04 2.330e-09
  1.00562   -204.9 1.552e+04 2.165e-09
  1.02572   -204.2 1.494e+04 2.107e-09
  1.04581   -203.7 1.471e+04 2.107e-09
  1.06421   -203.4 1.466e+04 2.116e-09
  1.07426   -203.9 1.474e+04 3.353e-09
  1.08600   -203.7 1.463e+04 3.405e-09
  1.10610   -203.5 1.460e+04 4.043e-09
  1.12619   -203.2 1.513e+04 5.047e-09
  1.14629   -202.8 1.572e+04 6.074e-09
  1.15734   -202.4 1.623e+04 6.850e-09
  1.16231   -204.4 1.733e+04 7.590e-09
  1.16669   -204.3 1.739e+04 7.611e-09
  1.17171   -204.4 1.791e+04 8.346e-09
  1.18136   -204.1 1.794e+04 7.622e-09
  1.19140   -204.0 1.795e+04 6.868e-09
  1.20145   -204.0 1.780e+04 6.072e-09
  1.21044   -204.1 1.761e+04 5.387e-09
  1.21546   -204.3 1.771e+04 5.430e-09
  1.22662   -204.7 1.720e+04 4.558e-09
  1.24676   -205.3 1.667e+04 3.839e-09
  1.25931   -206.2 1.548e+04 2.906e-09
  1.26936   -205.7 1.556e+04 2.346e-09
  1.28695   -206.4 1.443e+04 1.838e-09
  1.30705   -206.7 1.389e+04 1.652e-09
  1.32432   -206.7 1.368e+04 1.586e-09
  1.33436   -208.4 1.388e+04 1.500e-09
  1.34682   -208.1 1.388e+04 1.495e-09
  1.35686   -207.9 1.341e+04 1.311e-09
  1.36733   -207.5 1.334e+04 1.277e-09
  1.38743   -206.9 1.324e+04 1.228e-09
  1.40752   -206.3 1.305e+04 1.160e-09
  1.42762   -205.6 1.276e+04 1.079e-09
  1.44436   -204.8 1.245e+04 9.956e-10
  1.45441   -204.5 1.209e+04 9.023e-10
  1.46781   -203.5 1.179e+04 8.300e-10
  1.48790   -202.4 1.153e+04 7.700e-10
  1.50134   -201.1 1.131e+04 7.208e-10
  1.51139   -201.9 1.118e+04 7.135e-10
  1.52809   -200.5 1.103e+04 6.721e-10
  1.54191   -199.0 1.089e+04 6.283e-10
  1.55196   -198.6 1.067e+04 5.196e-10
  1.56828   -196.8 1.060e+04 4.583e-10
  1.58838   -194.8 1.057e+04 4.044e-10
  1.60847   -192.8 1.054e+04 3.752e-10
  1.62857   -191.2 1.049e+04 3.678e-10
  1.65837   -190.0 1.046e+04 3.614e-10
  1.67857   -192.3 1.051e+04 2.929e-10
  1.69909   -189.6 1.031e+04 2.757e-10
  1.72716   -186.5 1.011e+04 2.650e-10
  1.74726   -186.8 9.968e+03 2.469e-10
  1.77947   -183.6 9.797e+03 2.347e-10
  1.81966   -180.4 9.675e+03 2.246e-10
  1.85985   -177.1 9.596e+03 2.166e-10
  1.90004   -173.8 9.559e+03 2.107e-10
  1.92226   -170.5 9.567e+03 2.062e-10
  1.94235   -171.0 9.426e+03 1.753e-10
  1.98042   -167.8 9.473e+03 1.764e-10
  2.01253   -164.8 9.612e+03 1.858e-10
  2.03262   -166.2 9.749e+03 2.944e-10
  2.06080   -163.3 9.893e+03 3.382e-10
  2.09726   -160.6 1.013e+04 4.072e-10
  2.11736   -161.2 1.036e+04 4.246e-10
  2.14118   -158.8 1.093e+04 5.500e-10
  2.18137   -156.8 1.158e+04 7.192e-10
  2.22156   -155.1 1.214e+04 8.973e-10
  2.26175   -153.7 1.250e+04 1.028e-09
  2.29236   -152.3 1.258e+04 1.063e-09
  2.31246   -153.6 1.221e+04 1.120e-09
  2.34213   -151.7 1.181e+04 1.002e-09
  2.36658   -149.4 1.125e+04 7.773e-10
  2.38668   -151.2 1.165e+04 1.053e-09
  2.42251   -149.0 1.118e+04 7.925e-10
  2.46270   -146.5 1.076e+04 6.054e-10
  2.48746   -143.9 1.045e+04 4.965e-10
  2.50756   -142.5 1.043e+04 5.114e-10
  2.54308   -140.4 1.062e+04 5.065e-10
  2.57313   -141.2 1.182e+04 6.915e-10
  2.58481   -141.2 1.226e+04 7.922e-10
  2.59486   -141.7 1.324e+04 1.009e-09
  2.61322   -143.2 1.490e+04 1.450e-09
  2.63332   -143.8 1.577e+04 2.055e-09
  2.65341   -144.3 1.625e+04 2.873e-09
  2.67232   -144.4 1.644e+04 3.681e-09
  2.68236   -145.3 1.785e+04 6.527e-09
  2.69360   -145.1 1.777e+04 6.880e-09
  2.71039   -144.8 1.757e+04 6.612e-09
  2.72044   -146.8 1.753e+04 6.799e-09
  2.73379   -146.4 1.697e+04 5.515e-09
  2.75389   -146.0 1.627e+04 4.128e-09
  2.76987   -145.8 1.547e+04 3.002e-09
  2.77991   -147.5 1.484e+04 2.947e-09
  2.79408   -147.5 1.394e+04 2.209e-09
  2.81417   -147.4 1.325e+04 1.783e-09
  2.83427   -147.1 1.279e+04 1.541e-09
  2.85436   -146.6 1.252e+04 1.413e-09
  2.86742   -145.8 1.239e+04 1.366e-09
  2.87746   -146.9 1.229e+04 1.693e-09
  2.88742   -145.8 1.229e+04 1.708e-09
  2.89747   -146.5 1.220e+04 1.696e-09
  2.91465   -145.4 1.221e+04 1.735e-09
  2.93474   -144.3 1.217e+04 1.753e-09
  2.95484   -143.0 1.206e+04 1.763e-09
  2.97493   -142.1 1.239e+04 1.661e-09
  2.99503   -140.9 1.238e+04 1.508e-09
  3.01512   -140.1 1.242e+04 1.353e-09
  3.03522   -139.6 1.240e+04 1.264e-09
  3.05247   -139.6 1.240e+04 1.234e-09
  3.06160   -142.5 1.088e+04 6.759e-10
  3.06445   -145.0 1.101e+04 6.777e-10
  3.07541   -145.8 1.165e+04 8.237e-10
  3.09550   -146.5 1.239e+04 1.159e-09
  3.11560   -147.1 1.307e+04 1.632e-09
  3.13569   -147.7 1.361e+04 2.168e-09
  3.15002   -148.2 1.395e+04 2.657e-09
  3.16006   -149.2 1.362e+04 2.366e-09
  3.17588   -149.6 1.383e+04 2.713e-09
  3.19598   -150.1 1.390e+04 2.859e-09
  3.21607   -150.6 1.384e+04 2.839e-09
  3.23143   -151.2 1.359e+04 2.574e-09
  3.24147   -152.3 1.365e+04 2.597e-09
  3.24757   -152.9 1.321e+04 2.150e-09
  3.25761   -153.0 1.293e+04 1.953e-09
  3.27636   -153.6 1.235e+04 1.543e-09
  3.29645   -154.1 1.179e+04 1.222e-09
  3.31655   -154.5 1.130e+04 9.950e-10
  3.33507   -154.9 1.095e+04 8.536e-10
  3.34511   -154.4 1.069e+04 7.729e-10
  3.35674   -154.6 1.060e+04 7.213e-10
  3.37683   -154.8 1.059e+04 7.140e-10
  3.39693   -155.4 1.075e+04 7.265e-10
  3.40845   -156.6 1.147e+04 8.936e-10
  3.41850   -156.6 1.141e+04 8.784e-10
  3.43262   -157.8 1.208e+04 1.169e-09
  3.44266   -156.8 1.162e+04 9.528e-10
  3.45721   -157.8 1.218e+04 1.254e-09
  3.47731   -158.5 1.252e+04 1.534e-09
  3.49740   -159.1 1.262e+04 1.658e-09
  3.51750   -159.7 1.260e+04 1.673e-09
  3.53017   -160.1 1.234e+04 1.518e-09
  3.54021   -159.4 1.230e+04 1.469e-09
  3.55769   -159.6 1.195e+04 1.236e-09
  3.57543   -159.9 1.162e+04 9.744e-10
  3.58548   -159.3 1.153e+04 9.332e-10
  3.59788   -159.7 1.130e+04 7.517e-10
  3.61767   -160.1 1.119e+04 6.562e-10
  3.62772   -158.9 1.108e+04 6.778e-10
  3.63807   -159.1 1.099e+04 6.094e-10
  3.65816   -159.2 1.097e+04 5.927e-10
  3.67826   -159.2 1.098e+04 5.904e-10
  3.69835   -159.0 1.109e+04 6.136e-10
  3.71522   -158.7 1.120e+04 6.542e-10
  3.72526   -157.3 1.086e+04 5.770e-10
  3.73854   -156.9 1.092e+04 5.948e-10
  3.75246   -156.3 1.095e+04 6.065e-10
  3.76251   -156.0 1.111e+04 6.138e-10
  3.77873   -155.3 1.114e+04 6.284e-10
  3.79883   -154.5 1.113e+04 6.339e-10
  3.81277   -153.6 1.104e+04 6.369e-10
  3.82281   -152.5 1.082e+04 5.442e-10
  3.83902   -151.6 1.083e+04 5.584e-10
  3.85911   -150.7 1.081e+04 5.798e-10
  3.87921   -149.8 1.079e+04 6.053e-10
  3.89930   -148.9 1.076e+04 6.317e-10
  3.91032   -147.9 1.076e+04 6.641e-10
  3.92036   -146.9 1.090e+04 6.475e-10
  3.93949   -145.6 1.075e+04 6.669e-10
  3.95959   -144.6 1.083e+04 7.292e-10
  3.97968   -143.7 1.095e+04 7.991e-10
  3.99782   -142.7 1.108e+04 8.678e-10
  4.00787   -141.5 1.127e+04 8.988e-10
  4.01987   -140.5 1.145e+04 9.909e-10
  4.03997   -139.6 1.159e+04 1.045e-09
  4.06006   -138.9 1.165e+04 1.075e-09
  4.08016   -138.5 1.173e+04 1.097e-09
  4.09537   -138.2 1.192e+04 1.137e-09
  4.10163   -136.8 1.183e+04 1.131e-09
  4.10652   -136.7 1.173e+04 1.107e-09
  4.12035   -136.6 1.191e+04 1.139e-09
  4.14044   -138.7 1.318e+04 1.385e-09
  4.16054   -141.6 1.497e+04 2.561e-09
  4.18063   -143.4 1.655e+04 5.004e-09
  4.19292   -144.7 1.790e+04 7.946e-09
  4.20296   -145.5 1.867e+04 9.978e-09
  4.22082   -147.1 2.017e+04 1.446e-08
  4.23584   -149.4 2.028e+04 1.262e-08
  4.24159   -151.4 2.022e+04 1.170e-08
  4.24662   -150.8 2.258e+04 1.792e-08
  4.25589   -153.4 2.359e+04 1.580e-08
  4.26594   -157.6 2.426e+04 8.922e-09
  4.27340   -162.9 2.190e+04 4.199e-09
  4.27842   -164.3 1.936e+04 3.358e-09
  4.28534   -169.7 1.499e+04 1.780e-09
  4.29037   -166.7 2.285e+04 3.505e-09
  4.29608   -172.5 1.605e+04 1.892e-09
  4.30613   -175.3 1.378e+04 1.586e-09
  4.32125   -176.6 1.318e+04 1.471e-09
  4.34139   -178.2 1.254e+04 1.373e-09
  4.36149   -179.1 1.232e+04 1.358e-09
  4.37797   -179.4 1.221e+04 1.393e-09
  4.38802   -179.9 1.440e+04 2.442e-09
  4.40168   -180.0 1.396e+04 2.266e-09
  4.42177   -180.0 1.351e+04 2.058e-09
  4.44047   -180.0 1.296e+04 1.785e-09
  4.45052   -180.2 1.241e+04 1.535e-09
  4.46196   -180.2 1.190e+04 1.300e-09
  4.47552   -179.9 1.139e+04 1.070e-09
  4.48556   -180.2 1.246e+04 1.488e-09
  4.50215   -179.8 1.178e+04 1.189e-09
  4.52225   -179.3 1.125e+04 9.772e-10
  4.54234   -178.8 1.086e+04 8.282e-10
  4.56244   -178.2 1.057e+04 7.179e-10
  4.57307   -177.6 1.034e+04 6.341e-10
  4.58311   -177.9 1.108e+04 8.566e-10
  4.60263   -177.3 1.094e+04 7.857e-10
  4.61750   -176.7 1.092e+04 7.644e-10
  4.62755   -176.3 1.076e+04 7.091e-10
  4.64282   -176.0 1.077e+04 7.076e-10
  4.66057   -176.0 1.086e+04 7.136e-10
  4.67062   -177.3 1.201e+04 1.095e-09
  4.68301   -177.8 1.236e+04 1.285e-09
  4.70310   -178.2 1.275e+04 1.612e-09
  4.72320   -178.4 1.312e+04 2.014e-09
  4.74329   -178.5 1.339e+04 2.365e-09
  4.75812   -178.6 1.351e+04 2.521e-09
  4.76817   -178.9 1.367e+04 2.858e-09
  4.78348   -179.1 1.356e+04 2.732e-09
  4.79453   -179.4 1.309e+04 2.150e-09
  4.80458   -178.6 1.298e+04 2.057e-09
  4.82367   -179.1 1.233e+04 1.461e-09
  4.84377   -180.1 1.151e+04 9.947e-10
  4.85567   -181.2 1.066e+04 6.951e-10
  4.86571   -181.4 1.049e+04 6.580e-10
  4.88396   -182.0 9.858e+03 4.831e-10
  4.90405   -182.3 9.436e+03 3.786e-10
  4.92415   -182.5 9.300e+03 3.280e-10
  4.94317   -182.8 9.298e+03 3.178e-10
  4.95322   -184.7 9.650e+03 3.355e-10
  4.96151   -188.2 1.111e+04 3.847e-10
  4.97156   -187.2 1.063e+04 3.446e-10
  4.98443   -190.4 1.183e+04 5.988e-10
  5.00453   -192.2 1.238e+04 1.108e-09
  5.02462   -192.9 1.265e+04 1.732e-09
  5.04072   -193.2 1.271e+04 2.155e-09
  5.05077   -193.7 1.268e+04 2.369e-09
  5.06481   -193.8 1.264e+04 2.388e-09
  5.08491   -193.8 1.231e+04 2.157e-09
  5.10500   -193.9 1.188e+04 1.628e-09
  5.12510   -194.5 1.140e+04 1.149e-09
  5.13827   -195.9 1.088e+04 8.184e-10
  5.14166   -196.7 1.061e+04 5.908e-10
  5.14858   -196.7 1.045e+04 5.518e-10
  5.16529   -197.6 1.004e+04 4.467e-10
  5.18538   -198.1 9.852e+03 4.113e-10
  5.20548   -198.3 9.808e+03 4.044e-10
  5.22557   -198.5 9.801e+03 4.044e-10
  5.23582   -198.8 9.832e+03 4.466e-10
  5.24586   -198.5 9.741e+03 3.670e-10
  5.26576   -198.5 1.006e+04 4.606e-10
  5.28586   -198.5 1.040e+04 5.851e-10
  5.30552   -198.3 1.075e+04 7.291e-10
  5.31556   -198.3 1.087e+04 8.088e-10
  5.32332   -198.1 1.120e+04 9.718e-10
  5.33337   -197.9 1.108e+04 7.846e-10
  5.34614   -197.9 1.143e+04 9.805e-10
  5.36624   -197.9 1.156e+04 1.039e-09
  5.38633   -197.9 1.158e+04 1.050e-09
  5.40643   -197.9 1.151e+04 1.027e-09
  5.42087   -198.0 1.128e+04 9.187e-10
  5.43092   -198.1 1.150e+04 1.020e-09
  5.44662   -198.1 1.134e+04 9.348e-10
  5.46671   -198.2 1.118e+04 8.422e-10
  5.48254   -198.4 1.104e+04 7.551e-10
  5.49259   -198.5 1.120e+04 8.201e-10
  5.50690   -198.8 1.109e+04 7.376e-10
  5.51842   -199.1 1.106e+04 6.842e-10
  5.52847   -199.9 1.181e+04 1.038e-09
  5.54709   -200.5 1.178e+04 1.007e-09
  5.56719   -201.1 1.178e+04 1.002e-09
  5.58728   -201.9 1.179e+04 1.003e-09
  5.60592   -202.9 1.197e+04 1.050e-09
  5.61597   -204.1 1.250e+04 1.542e-09
  5.62747   -204.9 1.272e+04 1.709e-09
  5.64757   -205.6 1.303e+04 1.946e-09
  5.65957   -206.3 1.333e+04 2.193e-09
  5.66962   -206.8 1.358e+04 2.413e-09
  5.68776   -207.8 1.385e+04 2.653e-09
  5.70347   -209.0 1.412e+04 2.862e-09
  5.71352   -209.9 1.454e+04 3.230e-09
  5.72795   -211.3 1.486e+04 3.577e-09
  5.74804   -212.7 1.516e+04 3.960e-09
  5.76814   -214.2 1.535e+04 4.270e-09
  5.78823   -215.6 1.538e+04 4.391e-09
  5.80102   -216.9 1.532e+04 4.382e-09
  5.81107   -217.2 1.488e+04 4.049e-09
  5.82655   -217.9 1.430e+04 3.291e-09
  5.83660   -217.6 1.421e+04 3.220e-09
  5.84852   -218.2 1.350e+04 2.402e-09
  5.86861   -218.8 1.282e+04 1.776e-09
  5.88852   -219.3 1.220e+04 1.342e-09
  5.89857   -219.7 1.138e+04 8.566e-10
  5.90880   -220.1 1.089e+04 6.668e-10
  5.92890   -220.2 1.053e+04 5.495e-10
  5.94899   -220.2 1.026e+04 4.759e-10
  5.96909   -220.0 1.005e+04 4.254e-10
  5.98607   -219.4 9.879e+03 3.855e-10
  5.99612   -219.2 9.672e+03 3.196e-10
  6.00358   -218.7 9.675e+03 3.346e-10
  6.01363   -218.3 9.685e+03 3.363e-10
  6.03952   -218.3 9.702e+03 3.421e-10
  6.07377   -218.1 9.606e+03 3.307e-10
  6.09386   -218.4 9.200e+03 2.339e-10
  6.11999   -218.3 9.110e+03 2.270e-10
  6.16018   -218.4 8.989e+03 2.146e-10
  6.18080   -218.6 8.865e+03 2.018e-10
  6.20090   -217.5 8.846e+03 1.957e-10
  6.24056   -217.7 8.734e+03 1.818e-10
  6.26887   -217.6 8.650e+03 1.756e-10
  6.28896   -217.9 8.551e+03 1.517e-10
  6.32094   -217.4 8.531e+03 1.507e-10
  6.36113   -216.8 8.582e+03 1.592e-10
  6.40132   -216.3 8.737e+03 1.757e-10
  6.44151   -216.0 9.104e+03 2.130e-10
  6.46396   -216.1 9.712e+03 2.886e-10
  6.48406   -217.8 9.996e+03 3.233e-10
  6.51175   -216.9 1.024e+04 3.843e-10
  6.52461   -217.2 1.072e+04 5.144e-10
  6.53476   -216.6 1.015e+04 3.562e-10
  6.56208   -216.6 1.113e+04 6.319e-10
  6.59213   -217.0 1.193e+04 1.114e-09
  6.61213   -217.2 1.238e+04 1.457e-09
  6.63222   -217.5 1.268e+04 1.724e-09
  6.64882   -218.1 1.287e+04 1.854e-09
  6.65887   -218.6 1.262e+04 1.560e-09
  6.67241   -219.2 1.268e+04 1.544e-09
  6.69159   -219.9 1.267e+04 1.340e-09
  6.70164   -218.3 1.290e+04 1.683e-09
  6.71260   -218.9 1.282e+04 1.487e-09
  6.73270   -219.6 1.264e+04 1.261e-09
  6.74637   -220.3 1.236e+04 1.079e-09
  6.75642   -221.2 1.209e+04 9.641e-10
  6.77289   -221.4 1.181e+04 8.939e-10
  6.79298   -221.4 1.158e+04 8.441e-10
  6.81308   -221.2 1.140e+04 8.152e-10
  6.83317   -220.8 1.136e+04 8.064e-10
  6.84392   -220.5 1.143e+04 8.117e-10
  6.85397   -220.2 1.126e+04 7.998e-10
  6.86862   -219.7 1.130e+04 8.253e-10
  6.87867   -218.4 1.123e+04 8.177e-10
  6.89346   -217.9 1.124e+04 8.331e-10
  6.91355   -217.4 1.166e+04 9.149e-10
  6.93142   -217.5 1.245e+04 1.138e-09
  6.94147   -216.4 1.176e+04 9.867e-10
  6.95374   -216.5 1.271e+04 1.325e-09
  6.97384   -216.5 1.363e+04 1.934e-09
  6.99393   -216.1 1.428e+04 2.739e-09
  7.01403   -215.5 1.468e+04 3.471e-09
  7.02897   -214.9 1.483e+04 3.801e-09
  7.03902   -213.6 1.580e+04 4.912e-09
  7.04565   -213.0 1.584e+04 5.227e-09
  7.05569   -212.1 1.598e+04 5.504e-09
  7.07431   -211.6 1.599e+04 5.711e-09
  7.09441   -211.2 1.576e+04 5.471e-09
  7.11450   -210.7 1.523e+04 4.089e-09
  7.12652   -210.5 1.458e+04 2.544e-09
  7.13657   -209.1 1.590e+04 5.018e-09
  7.15469   -208.5 1.526e+04 3.213e-09
  7.17479   -209.8 1.459e+04 1.938e-09
  7.19488   -212.0 1.342e+04 1.264e-09
  7.21263   -214.3 1.218e+04 1.070e-09
  7.22172   -211.7 1.328e+04 1.225e-09
  7.22407   -208.2 1.685e+04 2.959e-09
  7.23507   -210.4 1.589e+04 1.887e-09
  7.25517   -212.9 1.392e+04 1.381e-09
  7.27526   -215.1 1.227e+04 1.258e-09
  7.29536   -216.5 1.191e+04 1.231e-09
  7.31157   -217.5 1.192e+04 1.222e-09
  7.32162   -222.6 3.045e+04 1.565e-09
  7.33555   -230.1 4.462e+04 1.731e-09
  7.35057   -227.1 4.730e+04 1.018e-09
  7.36025   -230.1 4.582e+04 1.603e-09
  7.36527   -236.5 4.168e+04 5.790e-09
  7.37062   -237.9 3.705e+04 8.759e-09
  7.38066   -238.9 3.221e+04 1.347e-08
  7.38956   -240.1 2.729e+04 2.177e-08
  7.39458   -237.2 3.121e+04 1.487e-08
  7.40076   -238.1 2.746e+04 2.286e-08
  7.40902   -239.1 2.452e+04 3.604e-08
  7.41405   -241.1 2.188e+04 6.599e-08
  7.42085   -240.8 2.174e+04 7.743e-08
  7.43090   -240.5 2.175e+04 8.572e-08
  7.44095   -240.2 2.184e+04 8.810e-08
  7.45100   -239.8 2.185e+04 8.839e-08
  7.45780   -239.4 2.162e+04 8.245e-08
  7.46282   -239.3 2.194e+04 6.225e-08
  7.47109   -238.9 2.205e+04 4.410e-08
  7.47807   -238.9 2.201e+04 2.939e-08
  7.48309   -237.4 2.167e+04 3.865e-08
  7.49119   -237.5 2.158e+04 2.626e-08
  7.50123   -237.8 2.101e+04 1.743e-08
  7.50657   -238.5 1.995e+04 1.163e-08
  7.51160   -240.8 1.878e+04 6.624e-09
  7.52133   -241.5 1.702e+04 4.974e-09
  7.53138   -241.8 1.584e+04 4.128e-09
  7.54142   -241.8 1.524e+04 3.761e-09
  7.55654   -241.6 1.474e+04 3.488e-09
  7.57669   -239.0 1.480e+04 3.777e-09
  7.59417   -238.3 1.408e+04 3.183e-09
  7.60422   -238.4 1.393e+04 2.567e-09
  7.61688   -237.3 1.345e+04 2.502e-09
  7.63697   -236.3 1.303e+04 2.276e-09
  7.65707   -235.4 1.264e+04 1.983e-09
  7.67716   -234.5 1.218e+04 1.727e-09
  7.69172   -233.6 1.171e+04 1.426e-09
  7.70177   -232.9 1.223e+04 1.690e-09
  7.71735   -232.0 1.183e+04 1.488e-09
  7.73366   -231.1 1.135e+04 1.232e-09
  7.74371   -230.6 1.146e+04 1.301e-09
  7.75754   -229.7 1.101e+04 1.044e-09
  7.77764   -228.7 1.057e+04 8.386e-10
  7.78927   -227.7 1.020e+04 6.673e-10
  7.79932   -227.0 1.063e+04 8.980e-10
  7.81783   -226.0 1.028e+04 7.252e-10
  7.83792   -224.9 9.977e+03 5.832e-10
  7.85802   -223.8 9.732e+03 4.859e-10
  7.88826   -222.7 9.548e+03 4.252e-10
  7.91088   -221.6 9.280e+03 3.694e-10
  7.92083   -220.5 9.375e+03 3.955e-10
  7.93840   -219.7 9.320e+03 3.671e-10
  7.96437   -219.4 9.236e+03 3.450e-10
  7.98456   -217.9 9.452e+03 4.126e-10
  8.00892   -216.9 9.220e+03 3.638e-10
  8.04911   -215.8 8.946e+03 3.216e-10
  8.08930   -214.6 8.785e+03 2.955e-10
  8.12949   -213.3 8.694e+03 2.799e-10
  8.15957   -212.1 8.637e+03 2.689e-10
  8.17966   -211.3 8.738e+03 2.763e-10
  8.20987   -210.0 8.655e+03 2.591e-10
  8.24484   -208.5 8.616e+03 2.488e-10
  8.26494   -208.8 8.740e+03 2.760e-10
  8.29025   -207.2 8.734e+03 2.690e-10
  8.33044   -205.5 8.740e+03 2.685e-10
  8.35467   -203.7 8.812e+03 2.728e-10
  8.37476   -202.7 8.790e+03 2.684e-10
  8.41082   -200.7 8.857e+03 2.718e-10
  8.45101   -198.7 9.281e+03 3.224e-10
  8.49120   -196.6 9.962e+03 4.499e-10
  8.52967   -194.3 1.071e+04 6.861e-10
  8.54977   -193.1 9.384e+03 3.035e-10
  8.57158   -190.8 1.015e+04 4.418e-10
  8.59890   -188.4 1.093e+04 7.025e-10
  8.61899   -189.0 1.113e+04 8.500e-10
  8.65196   -186.5 1.179e+04 1.267e-09
  8.69215   -183.9 1.229e+04 1.711e-09
  8.72220   -181.5 1.248e+04 1.847e-09
  8.73462   -180.0 1.270e+04 2.103e-09
  8.74477   -181.1 1.209e+04 1.256e-09
  8.76239   -178.9 1.266e+04 1.865e-09
  8.77573   -177.5 1.310e+04 2.330e-09
  8.78578   -177.9 1.355e+04 2.788e-09
  8.80248   -176.7 1.417e+04 3.506e-09
  8.82212   -175.6 1.482e+04 4.351e-09
  8.83217   -175.9 1.380e+04 2.504e-09
  8.84267   -174.8 1.419e+04 3.060e-09
  8.86277   -173.9 1.447e+04 3.621e-09
  8.88286   -173.0 1.463e+04 4.211e-09
  8.90296   -172.1 1.473e+04 4.813e-09
  8.91967   -171.2 1.479e+04 5.375e-09
  8.92972   -171.9 1.369e+04 2.754e-09
  8.94271   -171.1 1.385e+04 3.050e-09
  8.95276   -171.3 1.412e+04 2.440e-09
  8.96324   -170.6 1.419e+04 2.553e-09
  8.98334   -170.0 1.421e+04 2.582e-09
  9.00343   -169.3 1.420e+04 2.581e-09
  9.01722   -168.6 1.404e+04 2.485e-09
  9.02727   -170.7 1.213e+04 1.317e-09
  9.04362   -170.0 1.210e+04 1.352e-09
  9.06372   -169.3 1.208e+04 1.365e-09
  9.08381   -168.4 1.196e+04 1.372e-09
  9.10391   -167.6 1.186e+04 1.340e-09
  9.11477   -166.6 1.175e+04 1.291e-09
  9.12055   -167.8 1.172e+04 1.248e-09
  9.12978   -167.9 1.136e+04 1.019e-09
  9.14410   -166.8 1.128e+04 9.948e-10
  9.16419   -165.6 1.113e+04 9.304e-10
  9.18429   -164.3 1.096e+04 8.546e-10
  9.20227   -163.1 1.080e+04 7.790e-10
  9.21232   -164.0 1.125e+04 9.364e-10
  9.22448   -162.6 1.104e+04 8.471e-10
  9.24457   -161.2 1.088e+04 7.744e-10
  9.26467   -160.0 1.075e+04 7.154e-10
  9.28476   -158.8 1.064e+04 6.676e-10
  9.29676   -157.6 1.056e+04 6.327e-10
  9.30178   -157.3 1.055e+04 6.246e-10
  9.30987   -157.8 1.084e+04 7.491e-10
  9.32495   -156.5 1.079e+04 7.208e-10
  9.34505   -155.3 1.076e+04 7.030e-10
  9.36514   -154.1 1.076e+04 6.908e-10
  9.38524   -152.8 1.077e+04 6.814e-10
  9.39737   -151.6 1.077e+04 6.729e-10
  9.40742   -151.9 1.101e+04 7.842e-10
  9.42543   -150.7 1.101e+04 7.720e-10
  9.44552   -149.6 1.101e+04 7.564e-10
  9.46374   -148.4 1.100e+04 7.382e-10
  9.47379   -148.3 1.103e+04 7.469e-10
  9.48487   -146.9 1.101e+04 7.245e-10
  9.50507   -146.6 1.114e+04 7.853e-10
  9.53614   -144.1 1.120e+04 7.710e-10
  9.57633   -141.3 1.124e+04 7.670e-10
  9.61652   -138.6 1.140e+04 7.759e-10
  9.64097   -135.8 1.152e+04 8.570e-10
  9.66106   -135.1 1.212e+04 1.048e-09
  9.68017   -132.3 1.250e+04 1.244e-09
  9.70026   -132.1 1.261e+04 1.382e-09
  9.73709   -129.2 1.326e+04 1.728e-09
  9.76714   -127.3 1.343e+04 1.988e-09
  9.77752   -125.5 1.357e+04 2.314e-09
  9.78757   -125.5 1.399e+04 2.536e-09
  9.80723   -123.7 1.438e+04 3.060e-09
  9.81780   -121.8 1.475e+04 3.599e-09
  9.82784   -121.3 1.516e+04 4.019e-09
  9.84742   -119.6 1.562e+04 4.723e-09
  9.86502   -118.0 1.595e+04 5.308e-09
  9.87507   -117.9 1.609e+04 5.309e-09
  9.88761   -116.4 1.646e+04 6.104e-09
  9.90771   -114.9 1.688e+04 6.955e-09
  9.92780   -113.6 1.735e+04 7.892e-09
  9.94790   -112.5 1.796e+04 8.725e-09
  9.96257   -111.3 1.879e+04 9.517e-09
  9.96755   -113.0 2.098e+04 1.440e-08
  9.97292   -112.3 2.110e+04 1.679e-08
  9.98297   -111.5 2.098e+04 1.903e-08
  9.98970   -110.8 2.103e+04 2.165e-08
  9.99473   -111.0 2.214e+04 2.341e-08
 10.00306   -110.5 2.213e+04 2.669e-08
 10.01125   -109.6 2.219e+04 3.031e-08
 10.01627   -111.6 2.365e+04 4.134e-08
 10.02316   -110.8 2.372e+04 4.725e-08
 10.03320   -110.1 2.379e+04 5.283e-08
 10.04325   -109.5 2.385e+04 5.738e-08
 10.05330   -108.6 2.401e+04 6.008e-08
 10.06003   -107.8 2.414e+04 6.065e-08
 10.06505   -110.5 2.581e+04 6.602e-08
 10.07319   -110.1 2.608e+04 6.232e-08
 10.07822   -112.5 2.706e+04 5.780e-08
 10.08344   -112.5 2.752e+04 5.477e-08
 10.09349   -112.8 2.797e+04 5.357e-08
 10.10354   -113.7 2.965e+04 5.157e-08
 10.10880   -116.0 3.195e+04 5.325e-08
 10.11382   -121.6 2.784e+04 3.425e-08
 10.12363   -124.5 2.677e+04 3.802e-08
 10.13368   -127.3 2.548e+04 4.454e-08
 10.14373   -129.4 2.542e+04 5.613e-08
 10.15255   -131.4 2.628e+04 7.515e-08
 10.15757   -132.8 2.273e+04 5.371e-08
 10.16171   -135.5 2.407e+04 6.873e-08
 10.16673   -135.1 2.269e+04 4.996e-08
 10.17387   -138.0 2.439e+04 5.416e-08
 10.18392   -141.7 2.661e+04 6.293e-08
 10.19396   -145.9 2.774e+04 7.788e-08
 10.20133   -150.2 2.712e+04 9.627e-08
 10.20635   -148.9 2.823e+04 6.574e-08
 10.21406   -152.5 2.799e+04 6.835e-08
 10.22411   -155.5 2.666e+04 6.832e-08
 10.23415   -157.8 2.527e+04 6.428e-08
 10.24420   -159.5 2.452e+04 6.281e-08
 10.25010   -160.6 2.409e+04 6.502e-08
 10.25110   -160.3 2.322e+04 3.324e-08
 10.25524   -160.3 2.340e+04 2.803e-08
 10.26430   -161.1 2.291e+04 2.891e-08
 10.27434   -161.2 2.312e+04 3.046e-08
 10.28439   -161.0 2.303e+04 3.304e-08
 10.29385   -160.7 2.297e+04 3.505e-08
 10.29888   -160.4 2.143e+04 2.220e-08
 10.30449   -159.9 2.167e+04 2.219e-08
 10.31453   -159.2 2.179e+04 2.206e-08
 10.32458   -158.5 2.237e+04 2.036e-08
 10.33371   -157.9 2.255e+04 1.780e-08
 10.33873   -157.7 2.176e+04 2.285e-08
 10.34263   -157.3 2.203e+04 2.025e-08
 10.34765   -157.1 2.085e+04 1.574e-08
 10.35472   -156.7 2.108e+04 1.381e-08
 10.36477   -156.3 2.127e+04 1.198e-08
 10.37482   -156.3 2.131e+04 1.035e-08
 10.38487   -156.4 2.114e+04 8.996e-09
 10.39140   -156.8 2.080e+04 8.010e-09
 10.39642   -156.7 1.932e+04 6.154e-09
 10.40496   -157.1 1.908e+04 5.594e-09
 10.41501   -157.5 1.892e+04 5.311e-09
 10.42222   -158.0 1.880e+04 5.240e-09
 10.42725   -157.4 2.043e+04 7.132e-09
 10.43510   -158.1 2.021e+04 7.090e-09
 10.44018   -158.6 2.009e+04 7.099e-09
 10.44520   -158.5 1.945e+04 5.328e-09
 10.45520   -159.0 1.968e+04 5.533e-09
 10.46525   -159.4 1.977e+04 6.016e-09
 10.47529   -159.7 1.983e+04 6.666e-09
 10.48393   -159.7 1.987e+04 7.474e-09
 10.48895   -160.2 2.040e+04 5.681e-09
 10.49539   -160.3 2.069e+04 6.430e-09
 10.50544   -160.2 2.089e+04 7.314e-09
 10.51074   -160.1 2.100e+04 8.296e-09
 10.51576   -160.7 2.182e+04 1.102e-08
 10.52553   -160.4 2.181e+04 1.204e-08
 10.53270   -160.3 2.168e+04 1.291e-08
 10.53772   -161.4 2.210e+04 1.200e-08
 10.54563   -161.2 2.187e+04 1.295e-08
 10.55567   -161.0 2.160e+04 1.381e-08
 10.56572   -160.9 2.142e+04 1.466e-08
 10.57577   -160.9 2.136e+04 1.561e-08
 10.58148   -160.8 2.135e+04 1.664e-08
 10.58650   -161.6 2.100e+04 1.645e-08
 10.59423   -161.5 2.096e+04 1.733e-08
 10.59925   -161.6 2.102e+04 1.885e-08
 10.60591   -161.4 2.096e+04 2.004e-08
 10.61596   -161.1 2.084e+04 2.132e-08
 10.62523   -160.6 2.068e+04 2.271e-08
 10.63025   -161.3 2.050e+04 2.106e-08
 10.63605   -160.8 2.050e+04 2.152e-08
 10.64610   -160.4 2.049e+04 2.164e-08
 10.65615   -160.1 2.032e+04 2.147e-08
 10.66620   -159.7 2.022e+04 2.099e-08
 10.67400   -159.3 2.015e+04 2.038e-08
 10.67903   -159.6 1.998e+04 1.753e-08
 10.68274   -159.1 1.988e+04 1.747e-08
 10.68776   -159.5 2.048e+04 1.887e-08
 10.69634   -159.1 2.038e+04 1.763e-08
 10.70639   -158.7 2.025e+04 1.645e-08
 10.71643   -158.2 2.005e+04 1.524e-08
 10.72278   -157.6 1.985e+04 1.403e-08
 10.72780   -158.4 1.958e+04 1.232e-08
 10.73653   -157.8 1.930e+04 1.186e-08
 10.74658   -157.1 1.905e+04 1.128e-08
 10.75662   -156.4 1.887e+04 1.045e-08
 10.76623   -155.7 1.856e+04 9.583e-09
 10.77111   -156.9 1.885e+04 1.043e-08
 10.77155   -157.3 1.802e+04 9.250e-09
 10.77672   -156.6 1.789e+04 8.994e-09
 10.78677   -155.7 1.786e+04 8.667e-09
 10.79681   -154.8 1.767e+04 8.072e-09
 10.81033   -153.6 1.714e+04 7.325e-09
 10.82037   -153.8 1.671e+04 7.023e-09
 10.83203   -152.9 1.654e+04 6.556e-09
 10.84982   -151.6 1.694e+04 6.170e-09
 10.85982   -153.3 2.083e+04 9.342e-09
 10.86408   -153.0 2.112e+04 1.026e-08
 10.86910   -153.7 2.075e+04 1.080e-08
 10.87719   -153.6 2.107e+04 1.147e-08
 10.88724   -153.4 2.147e+04 1.223e-08
 10.89729   -153.5 2.172e+04 1.360e-08
 10.90733   -153.6 2.185e+04 1.514e-08
 10.91285   -153.6 2.187e+04 1.708e-08
 10.91787   -153.7 2.166e+04 1.722e-08
 10.92743   -153.7 2.186e+04 1.909e-08
 10.93748   -153.6 2.204e+04 2.109e-08
 10.94326   -153.6 2.227e+04 2.307e-08
 10.94828   -155.3 2.349e+04 3.998e-08
 10.95660   -155.4 2.398e+04 4.297e-08
 10.96163   -154.9 2.356e+04 4.308e-08
 10.96762   -155.2 2.411e+04 4.579e-08
 10.97767   -155.8 2.462e+04 4.763e-08
 10.98771   -156.5 2.510e+04 4.879e-08
 10.99776   -157.2 2.557e+04 4.972e-08
 11.00538   -158.1 2.596e+04 4.998e-08
 11.01040   -157.3 2.566e+04 4.792e-08
 11.01786   -158.2 2.593e+04 4.752e-08
 11.02675   -159.3 2.603e+04 4.620e-08
 11.03177   -161.4 2.582e+04 4.867e-08
 11.03795   -162.4 2.537e+04 4.526e-08
 11.04800   -163.4 2.471e+04 4.188e-08
 11.05415   -164.2 2.399e+04 3.847e-08
 11.05918   -163.7 2.405e+04 3.803e-08
 11.06809   -164.6 2.332e+04 3.421e-08
 11.07814   -165.3 2.264e+04 3.063e-08
 11.08819   -165.7 2.203e+04 2.780e-08
 11.09790   -166.0 2.163e+04 2.577e-08
 11.10293   -165.8 2.159e+04 2.572e-08
 11.10828   -165.9 2.133e+04 2.412e-08
 11.11526   -166.0 2.114e+04 2.254e-08
 11.12029   -167.1 2.005e+04 1.174e-08
 11.12838   -167.0 1.998e+04 1.012e-08
 11.13843   -167.0 1.988e+04 8.542e-09
 11.14668   -167.0 1.969e+04 7.060e-09
 11.15170   -166.6 1.949e+04 7.761e-09
 11.15852   -166.5 1.921e+04 6.340e-09
 11.16857   -166.5 1.876e+04 5.105e-09
 11.17862   -166.6 1.812e+04 4.055e-09
 11.18866   -166.7 1.736e+04 3.254e-09
 11.19545   -166.9 1.649e+04 2.737e-09
 11.20048   -166.0 1.678e+04 3.021e-09
 11.21383   -167.4 1.374e+04 1.619e-09
 11.23398   -167.0 1.301e+04 1.451e-09
 11.25407   -166.5 1.246e+04 1.326e-09
 11.27417   -165.9 1.206e+04 1.239e-09
 11.28808   -165.2 1.183e+04 1.174e-09
 11.29812   -164.4 1.156e+04 1.054e-09
 11.31436   -163.8 1.143e+04 9.960e-10
 11.33445   -163.2 1.136e+04 9.510e-10
 11.35455   -162.5 1.132e+04 9.137e-10
 11.37085   -162.0 1.131e+04 8.838e-10
 11.38090   -162.0 1.016e+04 5.280e-10
 11.38562   -161.3 1.011e+04 4.966e-10
 11.39567   -160.5 9.963e+03 4.823e-10
 11.41483   -159.7 9.915e+03 4.537e-10
 11.43493   -159.0 9.897e+03 4.300e-10
 11.45502   -158.2 9.927e+03 4.153e-10
 11.47313   -157.3 9.988e+03 4.095e-10
 11.48317   -156.5 9.853e+03 3.969e-10
 11.49521   -155.5 9.870e+03 3.910e-10
 11.51531   -154.4 9.917e+03 3.927e-10
 11.53540   -153.3 1.003e+04 4.125e-10
 11.54788   -152.4 1.042e+04 4.911e-10
 11.55793   -151.8 9.806e+03 3.395e-10
 11.57068   -150.7 1.013e+04 3.832e-10
 11.58072   -149.7 9.855e+03 3.428e-10
 11.59569   -148.5 1.015e+04 3.819e-10
 11.61578   -147.7 1.097e+04 4.997e-10
 11.63588   -147.3 1.239e+04 8.244e-10
 11.65597   -147.3 1.377e+04 1.600e-09
 11.66823   -147.1 1.489e+04 3.165e-09
 11.67827   -145.3 1.396e+04 1.750e-09
 11.69616   -145.1 1.527e+04 3.596e-09
 11.71486   -144.3 1.651e+04 6.647e-09
 11.72491   -144.6 1.632e+04 4.898e-09
 11.73635   -143.6 1.783e+04 1.016e-08
 11.75573   -142.6 1.913e+04 1.630e-08
 11.76577   -141.8 1.825e+04 1.158e-08
 11.77654   -140.9 1.944e+04 1.823e-08
 11.79156   -140.5 2.027e+04 2.385e-08
 11.80156   -140.0 2.057e+04 2.605e-08
 11.80830   -139.7 2.072e+04 2.572e-08
 11.81114   -139.9 2.104e+04 3.354e-08
 11.81445   -139.3 2.102e+04 3.395e-08
 11.82166   -138.9 2.126e+04 3.554e-08
 11.83170   -138.5 2.138e+04 3.535e-08
 11.84175   -138.4 2.139e+04 2.762e-08
 11.85180   -138.6 2.121e+04 2.315e-08
 11.85820   -138.7 2.090e+04 1.731e-08
 11.86323   -137.8 2.106e+04 2.281e-08
 11.87189   -137.9 2.069e+04 1.772e-08
 11.88194   -138.1 2.016e+04 1.301e-08
 11.89184   -138.4 1.937e+04 9.178e-09
 11.89686   -138.5 2.022e+04 1.433e-08
 11.90195   -138.6 1.963e+04 1.183e-08
 11.90698   -138.0 2.006e+04 1.418e-08
 11.91716   -138.3 1.953e+04 1.169e-08
 11.93730   -137.8 1.796e+04 6.554e-09
 11.95083   -137.3 1.585e+04 3.484e-09
 11.96087   -135.6 1.807e+04 7.862e-09
 11.97749   -135.2 1.618e+04 4.427e-09
 11.99759   -134.9 1.421e+04 2.620e-09
 12.01768   -133.8 1.307e+04 1.655e-09
 12.03778   -132.3 1.249e+04 1.103e-09
 12.04838   -131.0 1.228e+04 9.326e-10
 12.05842   -129.8 1.298e+04 1.414e-09
 12.06891   -128.9 1.270e+04 1.058e-09
 12.07896   -128.7 1.336e+04 1.991e-09
 12.09806   -127.2 1.293e+04 1.489e-09
 12.11816   -125.9 1.264e+04 1.093e-09
 12.13588   -124.4 1.260e+04 9.583e-10
 12.14592   -123.7 1.300e+04 1.453e-09
 12.15835   -122.3 1.288e+04 1.139e-09
 12.17844   -121.1 1.287e+04 9.324e-10
 12.19854   -119.8 1.295e+04 7.371e-10
 12.21863   -118.7 1.303e+04 6.279e-10
 12.23343   -117.8 1.286e+04 5.320e-10
 12.24064   -117.7 1.360e+04 1.019e-09
 12.24594   -118.1 1.499e+04 2.886e-09
 12.25882   -117.4 1.505e+04 2.474e-09
 12.27892   -116.7 1.480e+04 2.005e-09
 12.29901   -116.0 1.420e+04 1.638e-09
 12.31911   -115.7 1.337e+04 1.249e-09
 12.33098   -114.7 1.240e+04 1.127e-09
 12.34102   -115.8 1.428e+04 2.030e-09
 12.35930   -115.2 1.319e+04 1.590e-09
 12.37939   -114.3 1.220e+04 1.293e-09
 12.39949   -113.3 1.149e+04 1.084e-09
 12.41302   -112.1 1.123e+04 9.749e-10
 12.42196   -112.2 1.190e+04 1.177e-09
 12.42853   -111.8 1.330e+04 1.908e-09
 12.43968   -110.5 1.242e+04 1.427e-09
 12.45977   -109.2 1.182e+04 1.161e-09
 12.47987   -108.0 1.133e+04 9.036e-10
 12.50608   -106.6 1.103e+04 7.340e-10
 12.52617   -104.8 1.150e+04 8.789e-10
 12.55030   -103.3 1.185e+04 9.144e-10
 12.59058   -100.5 1.121e+04 6.483e-10
 12.63077    -97.7 1.050e+04 4.884e-10
 12.67096    -95.0 9.889e+03 3.989e-10
 12.70127    -92.4 9.521e+03 3.514e-10
 12.72137    -91.7 1.142e+04 8.482e-10
 12.74708    -89.0 1.115e+04 7.659e-10
 12.76717    -88.5 1.181e+04 1.002e-09
 12.79153    -86.0 1.153e+04 8.626e-10
 12.83172    -83.5 1.109e+04 6.979e-10
 12.87191    -81.1 1.046e+04 5.286e-10
 12.89637    -78.8 9.747e+03 3.812e-10
 12.91647    -77.9 1.205e+04 1.297e-09
 12.95229    -75.4 1.096e+04 8.231e-10
 12.99248    -73.1 1.020e+04 5.631e-10
 13.03267    -70.8 9.695e+03 4.070e-10
 13.07138    -68.5 9.318e+03 3.037e-10
 13.09147    -67.9 1.098e+04 8.946e-10
 13.10113    -65.4 1.048e+04 6.400e-10
 13.12123    -64.1 1.061e+04 7.059e-10
 13.15324    -61.9 1.016e+04 5.116e-10
 13.19343    -59.5 9.692e+03 3.429e-10
 13.23362    -57.2 9.295e+03 2.437e-10
 13.26647    -55.0 9.138e+03 2.013e-10
 13.28657    -54.3 1.185e+04 5.109e-10
 13.31400    -52.0 1.080e+04 3.291e-10
 13.35419    -49.9 9.888e+03 2.792e-10
 13.39438    -47.5 9.755e+03 2.686e-10
 13.43457    -44.9 9.938e+03 2.797e-10
 13.45518    -42.4 1.007e+04 3.274e-10
 13.46209    -42.2 1.008e+04 3.175e-10
 13.48167    -42.1 1.095e+04 8.893e-10
 13.51495    -39.0 1.107e+04 9.615e-10
 13.55514    -35.9 1.122e+04 1.012e-09
 13.58519    -33.9 1.146e+04 1.101e-09
 13.60519    -32.9 1.146e+04 1.123e-09
 13.62197    -31.7 1.184e+04 1.290e-09
 13.63202    -31.5 1.144e+04 1.096e-09
 13.64538    -30.8 1.163e+04 1.147e-09
 13.65648    -29.9 1.203e+04 1.244e-09
 13.66652    -29.8 1.214e+04 1.463e-09
 13.68557    -29.1 1.239e+04 1.589e-09
 13.70566    -28.4 1.279e+04 1.728e-09
 13.72576    -28.0 1.325e+04 1.842e-09
 13.74398    -27.7 1.372e+04 1.916e-09
 13.75403    -27.3 1.380e+04 2.736e-09
 13.76595    -27.1 1.442e+04 2.850e-09
 13.78604    -27.9 1.474e+04 2.724e-09
 13.79900    -28.6 1.417e+04 2.613e-09
 13.80904    -29.7 1.273e+04 1.870e-09
 13.82623    -29.6 1.249e+04 2.077e-09
 13.84153    -28.5 1.245e+04 2.127e-09
 13.85158    -29.3 1.380e+04 3.599e-09
 13.86642    -27.8 1.353e+04 3.516e-09
 13.88652    -26.7 1.325e+04 2.805e-09
 13.90661    -26.1 1.302e+04 1.796e-09
 13.92671    -26.7 1.256e+04 1.057e-09
 13.93908    -28.1 1.129e+04 6.525e-10
 13.94913    -27.2 1.228e+04 1.248e-09
 13.96598    -27.4 1.127e+04 8.582e-10
 13.97602    -26.8 1.130e+04 8.180e-10
 13.98699    -26.3 1.064e+04 6.135e-10
 14.00709    -24.8 1.030e+04 4.778e-10
 14.02668    -23.5 1.018e+04 2.954e-10
 14.03672    -23.4 1.054e+04 5.545e-10
 14.04728    -22.2 1.042e+04 4.061e-10
 14.07752    -21.1 1.053e+04 3.004e-10
 14.11780    -20.2 1.028e+04 2.008e-10
 14.14320    -18.1 9.989e+03 1.574e-10
 14.16329    -17.5 9.798e+03 1.420e-10
 14.19818    -15.7 9.727e+03 1.228e-10
 14.22187    -13.7 9.712e+03 1.379e-10
 14.24197    -13.8 1.026e+04 2.663e-10
 14.27856    -11.1 1.071e+04 3.633e-10
 14.31875     -8.6 1.112e+04 3.944e-10
 14.35894     -6.4 1.112e+04 3.231e-10
 14.39688     -4.8 1.081e+04 2.714e-10
 14.41687     -3.4 1.038e+04 4.586e-10
 14.43923     -2.0 1.070e+04 3.749e-10
 14.47716     -0.7 1.080e+04 2.914e-10
 14.49725     -0.0 1.067e+04 2.310e-10
 14.51970      1.3 1.064e+04 2.336e-10
 14.55989      2.8 1.056e+04 2.882e-10
 14.59198      5.1 1.042e+04 3.313e-10
 14.61207      5.7 1.046e+04 3.281e-10
 14.64027      8.5 1.031e+04 2.942e-10
 14.68046     11.3 1.012e+04 2.078e-10
 14.72065     13.7 1.007e+04 1.325e-10
 14.76084     15.3 1.010e+04 8.946e-11
 14.78707     17.0 9.787e+03 8.005e-11
 14.80717     17.6 9.768e+03 6.695e-11
 14.83121     19.8 9.748e+03 6.829e-11
 14.85131     20.4 9.747e+03 7.910e-11
 14.88141     22.6 9.733e+03 8.972e-11
 14.92160     24.9 9.746e+03 1.031e-10
 14.96179     27.1 9.771e+03 1.121e-10
 14.98217     29.2 9.765e+03 1.161e-10
 15.00227     29.6 9.726e+03 1.053e-10
 15.04217     31.6 9.684e+03 1.080e-10
 15.08236     33.5 9.609e+03 1.091e-10
 15.12255     35.4 9.524e+03 1.075e-10
 15.15718     37.4 9.405e+03 1.019e-10
 15.17727     37.9 9.445e+03 1.046e-10
 15.18527     40.1 9.337e+03 9.899e-11
 15.20536     40.6 9.311e+03 9.911e-11
 15.24312     42.9 9.211e+03 8.519e-11
 15.28331     45.2 9.160e+03 6.737e-11
 15.32350     47.5 9.184e+03 5.024e-11
 15.35228     49.4 9.229e+03 3.730e-11
 15.37237     49.9 9.284e+03 3.918e-11
 15.40388     51.8 9.176e+03 3.204e-11
 15.44407     53.8 9.006e+03 3.165e-11
 15.48426     56.0 8.977e+03 3.208e-11
 15.51923     58.3 8.913e+03 3.425e-11
 15.53932     58.7 8.921e+03 3.386e-11
 15.54737     61.0 8.871e+03 3.651e-11
 15.56747     61.7 8.869e+03 3.874e-11
 15.60483     64.1 8.837e+03 4.064e-11
 15.64502     66.5 8.839e+03 4.336e-11
 15.68521     68.8 8.859e+03 4.703e-11
 15.72238     71.1 8.884e+03 5.196e-11
 15.74247     71.7 8.865e+03 5.749e-11
 15.76559     73.9 8.898e+03 6.771e-11
 15.80578     76.1 8.937e+03 8.346e-11
 15.84597     78.3 8.995e+03 1.070e-10
 15.87328     80.5 9.088e+03 1.412e-10
 15.89338     80.7 9.040e+03 1.331e-10
 15.91748     82.9 9.151e+03 1.721e-10
 15.93757     83.4 9.242e+03 2.238e-10
 15.96654     85.4 9.369e+03 2.663e-10
 16.00673     87.4 9.494e+03 2.840e-10
 16.04692     89.2 9.523e+03 2.817e-10
 16.08711     90.8 9.535e+03 2.708e-10
 16.11258     92.3 9.516e+03 2.548e-10
 16.13267     92.0 9.476e+03 2.641e-10
 16.16749     93.4 9.482e+03 2.583e-10
 16.20724     94.7 9.498e+03 2.600e-10
 16.22734     95.3 9.241e+03 1.942e-10
 16.24787     96.8 9.336e+03 2.204e-10
 16.28758     98.3 9.456e+03 2.568e-10
 16.30767     98.0 9.459e+03 2.559e-10
 16.32825     99.5 9.550e+03 2.672e-10
 16.36844    100.8 9.642e+03 2.737e-10
 16.40863    102.0 9.755e+03 2.820e-10
 16.44882    102.7 9.938e+03 3.077e-10
 16.48268    103.1 1.028e+04 4.002e-10
 16.50277    101.5 1.032e+04 4.073e-10
 16.52920    101.7 1.081e+04 6.249e-10
 16.56130    101.7 1.125e+04 8.739e-10
 16.58139    100.2 1.144e+04 9.722e-10
 16.60958     99.6 1.152e+04 9.709e-10
 16.64977     98.8 1.153e+04 9.079e-10
 16.67768     98.7 1.140e+04 8.580e-10
 16.68763     98.4 1.093e+04 6.862e-10
 16.69982     98.3 1.095e+04 6.816e-10
 16.71991     97.9 1.115e+04 6.946e-10
 16.73813     97.3 1.173e+04 7.596e-10
 16.74817     94.5 1.270e+04 1.094e-09
 16.76010     93.9 1.304e+04 1.425e-09
 16.77513     93.5 1.331e+04 1.847e-09
 16.78518     93.6 1.330e+04 1.877e-09
 16.80029     93.5 1.357e+04 2.390e-09
 16.82039     93.5 1.392e+04 3.056e-09
 16.84048     93.5 1.446e+04 4.044e-09
 16.86058     93.5 1.523e+04 5.565e-09
 16.87268     93.6 1.619e+04 7.880e-09
 16.88273     94.4 1.617e+04 7.785e-09
 16.90077     94.4 1.723e+04 1.126e-08
 16.91515     94.4 1.809e+04 1.541e-08
 16.92520     92.3 1.798e+04 1.492e-08
 16.94096     92.3 1.835e+04 1.676e-08
 16.96018     92.1 1.827e+04 1.652e-08
 16.97018     93.5 1.902e+04 1.786e-08
 16.97602     93.0 1.891e+04 1.652e-08
 16.98607     92.5 1.868e+04 1.507e-08
 17.00119     91.4 1.825e+04 1.123e-08
 17.01393     90.9 1.741e+04 8.532e-09
 17.01891     91.0 1.776e+04 8.681e-09
 17.02626     90.1 1.716e+04 6.370e-09
 17.03631     88.8 1.631e+04 4.362e-09
 17.04636     87.9 1.556e+04 3.482e-09
 17.05640     87.0 1.499e+04 2.747e-09
 17.06266     86.4 1.453e+04 2.377e-09
 17.06768     82.5 1.608e+04 3.342e-09
 17.07650     82.2 1.569e+04 3.101e-09
 17.08655     82.0 1.552e+04 2.973e-09
 17.09213     82.2 1.528e+04 2.991e-09
 17.10223     81.2 1.394e+04 2.324e-09
 17.12181     81.6 1.339e+04 2.116e-09
 17.14191     82.2 1.306e+04 1.994e-09
 17.15528     82.9 1.287e+04 1.962e-09
 17.16533     82.6 1.306e+04 3.194e-09
 17.18210     83.4 1.291e+04 3.010e-09
 17.20219     84.2 1.279e+04 2.900e-09
 17.22229     85.0 1.271e+04 2.872e-09
 17.24238     85.8 1.267e+04 2.866e-09
 17.25283     86.5 1.268e+04 2.853e-09
 17.25956     86.1 1.299e+04 2.716e-09
 17.26921     86.0 1.300e+04 2.632e-09
 17.28257     86.4 1.317e+04 2.738e-09
 17.30267     86.7 1.335e+04 2.896e-09
 17.32276     87.1 1.349e+04 3.140e-09
 17.34033     87.5 1.360e+04 3.503e-09
 17.35038     87.2 1.403e+04 3.330e-09
 17.36295     87.8 1.409e+04 3.439e-09
 17.38305     88.4 1.409e+04 3.425e-09
 17.40314     89.0 1.410e+04 3.326e-09
 17.42324     89.5 1.410e+04 3.066e-09
 17.43619     90.0 1.407e+04 2.732e-09
 17.44079     90.0 1.429e+04 2.996e-09
 17.44793     88.8 1.402e+04 2.245e-09
 17.46343     88.9 1.355e+04 1.964e-09
 17.48352     89.0 1.301e+04 1.747e-09
 17.50362     89.2 1.255e+04 1.638e-09
 17.52371     89.8 1.228e+04 1.599e-09
 17.53543     90.5 1.225e+04 1.627e-09
 17.54548     90.1 1.173e+04 1.337e-09
 17.57405     91.6 1.202e+04 1.527e-09
 17.60327     92.2 1.193e+04 1.503e-09
 17.61322     92.1 1.194e+04 1.664e-09
 17.62293     92.9 1.195e+04 1.661e-09
 17.63298     92.4 1.125e+04 1.113e-09
 17.64428     93.3 1.115e+04 1.046e-09
 17.66438     94.2 1.100e+04 9.572e-10
 17.68447     95.1 1.081e+04 8.271e-10
 17.70457     95.8 1.065e+04 7.109e-10
 17.72048     96.5 1.049e+04 5.971e-10
 17.73053     96.3 1.008e+04 5.091e-10
 17.74476     96.8 9.877e+03 4.381e-10
 17.77500     97.7 9.863e+03 4.031e-10
 17.80818     98.6 9.754e+03 3.999e-10
 17.82827     97.4 8.908e+03 2.417e-10
 17.85547     97.5 9.310e+03 3.569e-10
 17.89566     97.8 1.034e+04 6.889e-10
 17.92571     97.5 1.084e+04 9.472e-10
 17.94571     97.2 1.134e+04 1.223e-09
 17.95722     96.9 1.179e+04 1.511e-09
 17.96727     96.5 1.183e+04 1.533e-09
 17.98590     95.9 1.185e+04 1.529e-09
 18.00308     95.5 1.172e+04 1.418e-09
 18.01313     95.1 1.151e+04 1.268e-09
 18.02609     94.9 1.110e+04 8.850e-10
 18.04618     93.9 1.062e+04 5.410e-10
 18.06628     92.4 1.010e+04 3.364e-10
 18.09652     91.0 9.467e+03 2.707e-10
 18.13680     90.6 9.420e+03 2.758e-10
 18.17699     90.2 9.501e+03 3.201e-10
 18.19838     89.7 9.892e+03 4.356e-10
 18.21847     89.1 1.011e+04 5.006e-10
 18.25737     87.9 1.086e+04 7.850e-10
 18.29138     86.0 1.133e+04 9.528e-10
 18.31147     85.7 1.211e+04 1.385e-09
 18.33775     83.6 1.214e+04 1.368e-09
 18.37338     81.5 1.178e+04 1.088e-09
 18.39348     80.6 1.211e+04 1.252e-09
 18.41813     78.9 1.123e+04 7.211e-10
 18.45832     77.8 1.041e+04 4.136e-10
 18.49851     77.5 9.943e+03 2.995e-10
 18.53870     77.8 9.895e+03 2.943e-10
 18.56848     78.6 9.941e+03 3.095e-10
 18.58857     78.4 9.916e+03 3.125e-10
 18.61908     79.4 1.017e+04 3.979e-10
 18.64543     80.4 1.055e+04 5.499e-10
 18.66553     80.8 1.044e+04 4.888e-10
 18.69946     81.5 1.073e+04 5.950e-10
 18.73965     81.6 1.084e+04 6.144e-10
 18.76358     81.6 1.081e+04 5.937e-10
 18.78367     81.8 1.035e+04 4.156e-10
 18.82003     82.0 1.026e+04 3.834e-10
 18.86022     82.4 1.010e+04 3.308e-10
 18.90041     83.1 9.911e+03 2.689e-10
 18.93858     83.9 9.722e+03 2.102e-10
 18.95868     84.7 9.661e+03 2.137e-10
 18.97939     85.8 9.496e+03 1.649e-10
 18.99949     86.6 9.577e+03 1.863e-10
 19.02098     87.8 9.443e+03 1.446e-10
 19.06117     89.2 9.315e+03 1.192e-10
 19.10136     90.8 9.217e+03 1.153e-10
 19.13368     92.6 9.200e+03 1.175e-10
 19.15378     93.1 9.154e+03 1.101e-10
 19.18174     94.8 9.171e+03 1.183e-10
 19.22193     96.4 9.263e+03 1.375e-10
 19.26212     98.0 9.399e+03 1.682e-10
 19.30231     99.4 9.574e+03 2.101e-10
 19.32878    100.6 9.787e+03 2.601e-10
 19.33982    100.7 9.549e+03 1.949e-10
 19.35354    101.3 9.561e+03 1.854e-10
 19.38269    102.2 9.679e+03 2.088e-10
 19.42288    103.1 9.773e+03 2.276e-10
 19.46307    104.0 9.885e+03 2.493e-10
 19.50326    104.7 1.012e+04 2.923e-10
 19.52388    104.4 1.045e+04 3.859e-10
 19.54397    102.9 1.035e+04 3.537e-10
 19.58364    102.4 1.091e+04 5.663e-10
 19.62383    101.8 1.144e+04 8.340e-10
 19.66402    101.0 1.168e+04 9.092e-10
 19.68750    100.2 1.164e+04 8.531e-10
 19.70226    101.2 1.150e+04 7.868e-10
 19.71898    100.4 1.149e+04 7.760e-10
 19.74440     99.8 1.127e+04 5.906e-10
 19.78459     99.2 1.099e+04 4.440e-10
 19.82478     99.1 1.092e+04 4.229e-10
 19.86497     99.0 1.098e+04 4.377e-10
 19.89398     99.0 1.116e+04 4.878e-10
 19.91408     98.5 1.090e+04 4.085e-10
 19.94535     98.3 1.123e+04 5.552e-10
 19.98554     97.8 1.176e+04 8.301e-10
 20.02146     97.0 1.222e+04 1.152e-09
 20.04156     98.3 1.191e+04 9.125e-10
 20.06592     97.2 1.209e+04 1.032e-09
 20.08908     95.6 1.206e+04 1.021e-09
 20.10918     96.6 1.204e+04 9.767e-10
 20.13616     95.3 1.201e+04 9.577e-10
 20.15616     94.7 1.185e+04 8.749e-10
 20.17625     94.3 1.158e+04 7.693e-10
 20.18643     94.1 1.134e+04 6.769e-10
 20.19648     94.3 1.129e+04 6.359e-10
 20.20834     94.3 1.113e+04 5.655e-10
 20.21839     94.8 1.117e+04 6.172e-10
 20.23654     94.9 1.107e+04 5.875e-10
 20.26399     95.1 1.094e+04 5.410e-10
 20.28418     95.3 1.077e+04 4.368e-10
 20.30706     96.1 1.053e+04 3.854e-10
 20.34725     97.5 1.031e+04 3.472e-10
 20.37551     99.2 1.013e+04 3.173e-10
 20.39561    100.1 1.024e+04 3.390e-10
 20.42763    101.6 1.001e+04 2.731e-10
 20.45918    103.2 9.845e+03 2.392e-10
 20.47928    103.6 9.691e+03 1.999e-10
 20.50801    105.4 9.672e+03 2.028e-10
 20.54820    107.4 9.674e+03 2.167e-10
 20.58839    109.3 9.760e+03 2.452e-10
 20.62858    111.2 9.917e+03 2.872e-10
 20.65428    113.0 1.015e+04 3.440e-10
 20.67438    113.7 9.987e+03 3.022e-10
 20.70896    115.4 1.027e+04 3.802e-10
 20.72957    117.0 1.060e+04 4.944e-10
 20.74966    118.4 1.048e+04 4.841e-10
 20.78934    120.0 1.101e+04 6.809e-10
 20.82929    121.4 1.157e+04 9.519e-10
 20.84938    122.2 1.121e+04 7.151e-10
 20.86972    123.0 1.179e+04 9.983e-10
 20.90991    123.6 1.229e+04 1.281e-09
 20.95010    123.8 1.274e+04 1.463e-09
 20.99029    123.3 1.288e+04 1.409e-09
 21.02034    122.9 1.281e+04 1.250e-09
 21.03424    122.5 1.263e+04 1.049e-09
 21.04428    122.5 1.259e+04 1.030e-09
 21.06043    121.6 1.239e+04 9.390e-10
 21.07338    120.5 1.224e+04 9.340e-10
 21.08343    122.0 1.250e+04 9.888e-10
 21.10062    120.5 1.244e+04 1.010e-09
 21.12072    118.8 1.235e+04 1.150e-09
 21.13179    117.4 1.250e+04 1.544e-09
 21.14183    117.3 1.255e+04 1.792e-09
 21.16091    116.7 1.297e+04 2.362e-09
 21.18100    116.3 1.352e+04 2.803e-09
 21.20110    115.6 1.398e+04 2.808e-09
 21.21929    114.1 1.408e+04 2.729e-09
 21.22933    112.9 1.347e+04 1.673e-09
 21.24036    110.5 1.316e+04 1.508e-09
 21.25041    111.9 1.392e+04 1.984e-09
 21.26138    109.1 1.348e+04 1.835e-09
 21.28148    106.4 1.322e+04 1.845e-09
 21.30157    103.9 1.318e+04 1.902e-09
 21.31684    101.3 1.331e+04 2.003e-09
 21.32688    100.9 1.247e+04 1.446e-09
 21.34176     98.2 1.268e+04 1.467e-09
 21.36186     95.6 1.269e+04 1.466e-09
 21.38195     92.6 1.268e+04 1.453e-09
 21.40205     90.1 1.251e+04 1.385e-09
 21.41439     88.1 1.230e+04 1.364e-09
 21.41978     87.7 1.150e+04 9.227e-10
 21.43768     87.3 1.154e+04 9.186e-10
 21.47257     84.0 1.080e+04 7.121e-10
 21.51276     82.8 1.008e+04 5.175e-10
 21.55295     82.6 9.573e+03 3.762e-10
 21.58959     82.7 9.303e+03 3.089e-10
 21.60968     83.6 8.886e+03 2.153e-10
 21.63333     83.8 8.690e+03 1.846e-10
 21.67352     84.3 8.620e+03 1.818e-10
 21.71371     85.0 8.614e+03 1.852e-10
 21.75154     85.8 8.624e+03 1.955e-10
 21.77164     85.8 8.756e+03 2.293e-10
 21.78468     86.7 8.793e+03 2.443e-10
 21.80478     87.2 8.495e+03 1.998e-10
 21.83428     88.1 8.579e+03 2.228e-10
 21.87447     89.1 8.625e+03 2.252e-10
 21.91466     90.1 8.643e+03 2.177e-10
 21.95485     90.9 8.689e+03 2.080e-10
 21.97978     91.7 8.716e+03 2.086e-10
 21.99988     93.2 8.732e+03 2.428e-10
 22.03523     94.0 8.877e+03 2.468e-10
 22.07542     94.6 9.104e+03 2.674e-10
 22.10560     94.9 9.304e+03 3.039e-10
 22.12569     95.1 9.387e+03 3.675e-10
 22.15479     95.4 9.563e+03 3.944e-10
 22.17488     96.5 1.010e+04 6.342e-10
 22.19599     96.5 1.047e+04 6.851e-10
 22.23618     95.8 1.066e+04 6.920e-10
 22.27637     94.5 1.073e+04 7.096e-10
 22.31656     92.5 1.090e+04 7.942e-10
 22.34989     90.6 1.126e+04 9.828e-10
 22.36998     90.4 1.185e+04 1.188e-09
 22.39694     88.1 1.174e+04 1.139e-09
 22.43713     86.5 1.144e+04 9.654e-10
 22.45965     85.4 1.104e+04 6.297e-10
 22.47975     84.7 1.156e+04 8.494e-10
 22.51751     83.0 1.105e+04 5.246e-10
 22.54498     81.5 1.047e+04 3.832e-10
 22.56508     82.9 1.024e+04 3.127e-10
 22.59789     82.4 1.011e+04 3.064e-10
 22.63808     82.5 1.008e+04 3.110e-10
 22.67827     82.8 1.007e+04 3.344e-10
 22.71846     83.2 1.011e+04 3.559e-10
 22.74008     83.6 1.019e+04 3.754e-10
 22.76018     84.1 1.039e+04 4.481e-10
 22.79361     84.2 1.040e+04 4.456e-10
 22.81371     84.4 9.904e+03 2.520e-10
 22.83903     84.7 9.914e+03 2.459e-10
 22.87922     85.1 9.921e+03 2.493e-10
 22.91509     85.7 9.942e+03 2.645e-10
 22.93518     86.5 9.918e+03 2.233e-10
 22.95960     87.2 9.914e+03 2.320e-10
 22.99979     88.2 9.917e+03 2.675e-10
 23.03998     89.5 9.969e+03 3.172e-10
 23.08017     90.8 9.979e+03 3.319e-10
 23.11019     92.1 9.941e+03 3.237e-10
 23.13028     92.8 9.839e+03 2.914e-10
 23.14767     94.3 9.731e+03 2.693e-10
 23.16776     94.7 9.748e+03 2.761e-10
 23.20074     96.4 9.570e+03 2.211e-10
 23.24093     98.2 9.411e+03 1.594e-10
 23.28112     99.8 9.282e+03 1.124e-10
 23.30528    101.5 9.052e+03 9.057e-11
 23.32538    102.3 9.115e+03 8.550e-11
 23.36150    103.9 8.909e+03 7.634e-11
 23.40169    105.8 8.874e+03 7.636e-11
 23.44188    107.7 8.863e+03 7.744e-11
 23.48029    109.6 8.840e+03 8.269e-11
 23.49993    110.1 8.807e+03 7.274e-11
 23.50172    110.7 8.812e+03 6.755e-11
 23.52226    112.6 8.815e+03 7.376e-11
 23.56245    114.4 8.827e+03 8.598e-11
 23.60264    116.2 8.849e+03 1.041e-10
 23.64283    118.0 8.885e+03 1.279e-10
 23.67539    119.9 8.939e+03 1.574e-10
 23.69548    120.3 8.959e+03 1.648e-10
 23.72321    122.2 9.059e+03 2.023e-10
 23.76340    124.1 9.161e+03 2.399e-10
 23.80359    126.0 9.233e+03 2.671e-10
 23.83568    127.7 9.252e+03 2.707e-10
 23.85577    128.3 9.154e+03 2.246e-10
 23.87049    130.0 9.180e+03 2.305e-10
 23.89058    130.2 9.132e+03 2.174e-10
 23.92416    131.7 9.111e+03 2.064e-10
 23.96435    133.2 9.044e+03 1.828e-10
 24.00454    134.5 8.952e+03 1.557e-10
 24.04473    135.8 8.831e+03 1.339e-10
 24.06558    136.9 8.683e+03 1.213e-10
 24.08568    136.9 8.665e+03 1.342e-10
 24.12511    138.2 8.631e+03 1.366e-10
 24.16530    139.4 8.608e+03 1.439e-10
 24.18973    140.7 8.624e+03 1.539e-10
 24.20983    141.4 8.609e+03 1.331e-10
 24.24059    142.6 8.595e+03 1.478e-10
 24.26068    142.4 8.824e+03 2.052e-10
 24.28587    143.7 8.875e+03 2.371e-10
 24.32606    145.1 8.954e+03 2.718e-10
 24.36625    146.6 9.063e+03 3.083e-10
 24.40644    147.9 9.196e+03 3.479e-10
 24.43569    149.1 9.343e+03 3.926e-10
 24.45578    148.9 9.400e+03 3.799e-10
 24.48682    149.8 9.458e+03 3.941e-10
 24.52369    150.8 9.561e+03 4.209e-10
 24.54379    151.5 9.516e+03 3.755e-10
 24.56720    152.1 9.590e+03 4.007e-10
 24.59725    152.2 9.631e+03 4.142e-10
 24.61725    152.4 9.697e+03 4.269e-10
 24.63059    152.5 9.760e+03 4.430e-10
 24.64064    152.3 9.632e+03 4.103e-10
 24.65744    152.4 9.731e+03 4.330e-10
 24.67753    152.6 9.781e+03 4.547e-10
 24.69763    152.7 9.704e+03 4.690e-10
 24.71057    152.8 9.690e+03 4.696e-10
 24.72062    153.0 9.705e+03 4.692e-10
 24.72814    153.2 9.648e+03 4.673e-10
 24.73819    153.2 9.706e+03 4.761e-10
 24.75791    153.4 9.652e+03 4.772e-10
 24.77801    153.6 9.625e+03 4.793e-10
 24.79810    153.8 9.589e+03 4.864e-10
 24.81564    154.0 9.568e+03 4.997e-10
 24.82569    154.1 9.642e+03 5.218e-10
 24.83829    154.3 9.678e+03 5.508e-10
 24.85839    154.4 9.777e+03 5.942e-10
 24.87755    154.4 9.932e+03 6.533e-10
 24.88760    154.7 1.005e+04 6.722e-10
 24.89858    154.7 1.031e+04 7.845e-10
 24.91319    154.7 1.063e+04 9.270e-10
 24.92324    154.6 1.084e+04 9.981e-10
 24.93877    154.5 1.115e+04 1.137e-09
 24.95886    154.3 1.136e+04 1.182e-09
 24.97896    153.7 1.137e+04 1.175e-09
 24.99905    153.2 1.133e+04 1.128e-09
 25.01074    152.7 1.118e+04 1.019e-09
 25.02079    152.5 1.112e+04 9.743e-10
 25.03924    152.1 1.091e+04 8.646e-10
 25.05458    151.6 1.071e+04 7.765e-10
 25.06463    151.8 1.105e+04 8.796e-10
 25.07943    151.4 1.082e+04 7.860e-10
 25.09824    151.1 1.062e+04 7.239e-10
 25.10829    151.3 1.082e+04 8.221e-10
 25.11962    151.5 1.073e+04 7.961e-10
 25.13972    151.8 1.068e+04 7.762e-10
 25.15981    152.3 1.065e+04 7.573e-10
 25.17991    152.8 1.062e+04 7.356e-10
 25.19579    153.3 1.058e+04 7.054e-10
 25.20584    154.2 1.084e+04 7.886e-10
 25.22010    154.6 1.073e+04 7.083e-10
 25.23161    155.0 1.055e+04 6.134e-10
 25.24166    156.5 1.101e+04 8.169e-10
 25.26029    157.0 1.079e+04 6.935e-10
 25.28038    157.4 1.057e+04 6.032e-10
 25.29334    157.4 1.054e+04 5.922e-10
 25.30339    158.9 1.060e+04 5.678e-10
 25.32057    158.2 1.070e+04 5.973e-10
 25.34067    154.0 1.200e+04 8.328e-10
 25.36076    147.7 1.391e+04 1.459e-09
 25.37578    143.1 1.550e+04 2.362e-09
 25.38577    136.8 1.768e+04 4.532e-09
 25.39582    128.7 2.005e+04 1.070e-08
 25.40351    122.8 2.114e+04 2.102e-08
 25.40854    119.3 2.301e+04 2.883e-08
 25.41592    113.9 2.474e+04 4.946e-08
 25.42597    109.8 2.690e+04 5.978e-08
 25.43454    106.1 2.759e+04 5.732e-08
 25.43957    104.9 2.685e+04 6.814e-08
 25.44607    102.0 2.815e+04 4.754e-08
 25.45611     97.9 2.856e+04 2.555e-08
 25.46616     93.1 2.676e+04 1.326e-08
 25.47834     85.5 1.970e+04 7.358e-09
 25.48844     83.7 1.817e+04 6.618e-09
 25.50143     82.7 1.441e+04 4.743e-09
 25.52152     83.8 1.362e+04 3.924e-09
 25.54162     85.7 1.327e+04 3.065e-09
 25.56171     86.6 1.273e+04 2.130e-09
 25.57561     86.5 1.204e+04 1.429e-09
 25.57980     85.4 1.143e+04 9.303e-10
 25.58599     85.8 1.159e+04 9.057e-10
 25.61205     83.5 1.033e+04 5.296e-10
 25.65233     81.7 9.778e+03 4.946e-10
 25.69252     80.6 9.871e+03 5.566e-10
 25.73271     79.8 1.032e+04 7.506e-10
 25.76119     79.2 1.063e+04 8.759e-10
 25.78128     77.5 1.063e+04 9.247e-10
 25.81309     77.2 1.050e+04 8.723e-10
 25.85328     77.2 1.007e+04 6.874e-10
 25.89347     77.5 9.516e+03 4.630e-10
 25.91982     77.7 8.989e+03 2.947e-10
 25.93991     78.1 8.811e+03 2.707e-10
 25.95629     78.5 8.749e+03 2.412e-10
 25.97638     78.4 8.584e+03 2.350e-10
 26.01404     79.1 8.786e+03 2.672e-10
 26.05423     79.8 9.215e+03 3.713e-10
 26.09442     80.9 9.705e+03 5.432e-10
 26.13129     81.8 1.009e+04 6.920e-10
 26.15139     82.1 1.010e+04 6.851e-10
 26.17480     82.2 1.009e+04 6.568e-10
 26.21499     82.2 9.992e+03 5.653e-10
 26.25378     81.9 9.850e+03 4.686e-10
 26.27387     82.2 9.520e+03 3.966e-10
 26.29537     82.0 9.358e+03 3.426e-10
 26.32639     82.1 9.230e+03 3.114e-10
 26.34648     82.1 9.185e+03 2.957e-10
 26.37575     82.7 9.041e+03 2.339e-10
 26.41594     83.5 8.903e+03 1.830e-10
 26.45613     84.4 8.754e+03 1.524e-10
 26.49632     85.5 8.622e+03 1.376e-10
 26.52149     86.8 8.538e+03 1.329e-10
 26.54158     86.5 8.525e+03 1.077e-10
 26.57670     88.1 8.530e+03 1.083e-10
 26.60783     89.8 8.553e+03 1.115e-10
 26.62793     90.3 8.448e+03 1.195e-10
 26.65708     92.0 8.509e+03 1.300e-10
 26.69649     93.6 8.621e+03 1.426e-10
 26.71659     93.1 8.875e+03 1.669e-10
 26.73746     94.4 9.166e+03 2.120e-10
 26.77765     95.5 9.572e+03 2.918e-10
 26.81784     96.4 1.007e+04 4.247e-10
 26.85803     97.3 1.054e+04 6.030e-10
 26.89159     97.9 1.074e+04 7.169e-10
 26.91169     97.6 1.079e+04 7.836e-10
 26.93841     98.2 1.071e+04 7.444e-10
 26.96189     98.8 1.050e+04 6.485e-10
 26.98198     99.5 1.060e+04 7.161e-10
 27.01879    100.2 1.022e+04 5.218e-10
 27.05898    101.0 9.871e+03 3.798e-10
 27.08669    101.9 9.596e+03 2.795e-10
 27.10678    101.9 9.805e+03 4.023e-10
 27.13936    103.1 9.743e+03 3.704e-10
 27.17955    104.2 9.695e+03 3.356e-10
 27.21974    105.4 9.650e+03 3.027e-10
 27.25993    106.6 9.576e+03 2.720e-10
 27.28179    107.8 9.468e+03 2.405e-10
 27.29760    108.2 9.738e+03 3.747e-10
 27.31594    109.3 9.781e+03 4.112e-10
 27.34031    110.4 9.652e+03 3.271e-10
 27.38050    111.3 9.507e+03 2.631e-10
 27.42069    112.1 9.399e+03 2.467e-10
 27.45679    113.0 9.401e+03 2.498e-10
 27.47689    113.0 9.623e+03 3.172e-10
 27.50107    114.0 9.744e+03 3.500e-10
 27.54126    114.8 9.846e+03 3.616e-10
 27.58145    115.6 9.843e+03 3.533e-10
 27.62164    116.5 9.770e+03 3.096e-10
 27.64990    117.6 9.629e+03 2.353e-10
 27.66005    117.6 9.581e+03 2.786e-10
 27.67199    117.6 9.556e+03 1.755e-10
 27.70202    118.7 9.380e+03 1.109e-10
 27.74221    119.8 9.236e+03 6.977e-11
 27.78240    120.9 9.095e+03 4.908e-11
 27.82259    122.1 8.900e+03 4.336e-11
 27.84699    123.7 8.851e+03 4.240e-11
 27.86708    123.5 8.721e+03 3.539e-11
 27.90297    125.4 8.683e+03 3.624e-11
 27.94316    127.4 8.662e+03 3.825e-11
 27.98335    129.5 8.703e+03 3.964e-11
 28.00395    131.5 8.723e+03 3.957e-11
 28.02250    132.2 8.589e+03 4.198e-11
 28.04209    132.5 8.547e+03 4.366e-11
 28.06373    134.6 8.579e+03 4.368e-11
 28.10392    136.7 8.597e+03 4.273e-11
 28.14411    138.6 8.631e+03 3.938e-11
 28.18430    140.6 8.656e+03 3.488e-11
 28.21709    142.5 8.659e+03 3.189e-11
 28.23719    143.2 8.622e+03 3.824e-11
 28.26468    145.2 8.648e+03 3.612e-11
 28.30487    147.2 8.658e+03 3.620e-11
 28.33791    149.3 8.698e+03 3.728e-11
 28.35801    149.9 8.707e+03 3.913e-11
 28.38525    151.8 8.777e+03 4.306e-11
 28.41219    153.7 8.863e+03 5.000e-11
 28.43229    154.4 8.925e+03 5.127e-11
 28.46563    156.2 9.026e+03 5.922e-11
 28.50582    158.0 9.111e+03 6.912e-11
 28.54601    159.7 9.187e+03 8.007e-11
 28.58620    161.3 9.261e+03 9.107e-11
 28.60729    162.8 9.346e+03 1.004e-10
 28.62738    163.4 9.341e+03 9.855e-11
 28.66658    164.8 9.435e+03 1.057e-10
 28.69197    166.1 9.537e+03 1.110e-10
 28.71206    166.4 9.509e+03 1.003e-10
 28.74696    167.6 9.554e+03 9.939e-11
 28.78229    168.7 9.585e+03 1.001e-10
 28.80239    169.4 9.557e+03 8.990e-11
 28.82734    170.6 9.567e+03 9.096e-11
 28.86753    171.6 9.579e+03 9.693e-11
 28.90772    172.7 9.564e+03 1.120e-10
 28.94791    173.8 9.548e+03 1.326e-10
 28.97739    174.9 9.522e+03 1.440e-10
 28.99749    176.0 9.479e+03 1.265e-10
 29.02593    177.2 9.444e+03 1.344e-10
 29.04602    177.8 9.438e+03 1.351e-10
 29.06848    179.1 9.432e+03 1.373e-10
 29.10867    180.4 9.406e+03 1.327e-10
 29.14886    181.8 9.332e+03 1.137e-10
 29.17249    183.2 9.245e+03 8.631e-11
 29.19259    184.4 9.289e+03 1.075e-10
 29.22924    185.8 9.208e+03 8.269e-11
 29.26943    187.3 9.101e+03 6.348e-11
 29.30962    188.8 8.943e+03 5.774e-11
 29.34749    190.5 8.928e+03 5.795e-11
 29.36759    191.5 8.943e+03 5.975e-11
 29.37998    193.2 8.934e+03 6.016e-11
 29.40008    193.5 9.035e+03 8.190e-11
 29.43019    195.3 9.028e+03 8.281e-11
 29.47038    197.0 9.009e+03 8.795e-11
 29.51057    198.8 9.010e+03 9.925e-11
 29.54259    200.5 9.035e+03 1.149e-10
 29.56269    201.3 9.066e+03 1.093e-10
 29.59095    203.0 9.116e+03 1.283e-10
 29.63114    204.7 9.176e+03 1.506e-10
 29.67133    206.4 9.255e+03 1.755e-10
 29.71152    208.0 9.331e+03 2.005e-10
 29.73404    209.7 9.353e+03 2.217e-10
 29.74011    209.6 9.292e+03 1.871e-10
 29.75779    210.1 9.396e+03 1.914e-10
 29.79190    211.7 9.440e+03 2.058e-10
 29.83209    213.4 9.481e+03 2.195e-10
 29.87228    215.0 9.519e+03 2.308e-10
 29.91247    216.7 9.554e+03 2.345e-10
 29.93279    218.2 9.554e+03 2.341e-10
 29.95289    218.3 9.748e+03 2.395e-10
 29.99285    219.9 9.738e+03 2.352e-10
 30.03304    221.6 9.682e+03 2.262e-10
 30.06800    223.5 9.610e+03 2.159e-10
 30.08809    223.4 9.484e+03 1.712e-10
 30.10779    225.3 9.435e+03 1.643e-10
 30.12789    224.9 9.626e+03 1.911e-10
 30.15361    226.7 9.711e+03 2.058e-10
 30.19380    228.5 9.902e+03 2.371e-10
 30.23399    230.2 1.014e+04 2.835e-10
 30.27418    231.8 1.034e+04 3.366e-10
 30.30280    232.5 1.045e+04 3.846e-10
 30.31275    232.4 1.079e+04 5.486e-10
 30.32423    233.6 1.088e+04 6.441e-10
 30.34432    234.8 1.100e+04 7.522e-10
 30.36442    236.0 1.118e+04 8.577e-10
 30.38451    237.1 1.141e+04 9.547e-10
 30.40025    238.1 1.164e+04 1.055e-09
 30.41029    237.6 1.167e+04 1.018e-09
 30.42186    238.6 1.184e+04 1.106e-09
 30.43190    238.8 1.149e+04 9.157e-10
 30.44480    239.7 1.164e+04 9.949e-10
 30.46489    240.6 1.183e+04 1.092e-09
 30.48499    241.3 1.203e+04 1.208e-09
 30.49780    242.0 1.223e+04 1.337e-09
 30.50784    241.3 1.174e+04 7.625e-10
 30.52518    241.9 1.187e+04 7.940e-10
 30.54527    242.3 1.199e+04 7.977e-10
 30.56537    242.7 1.201e+04 7.929e-10
 30.58530    243.1 1.206e+04 7.791e-10
 30.59535    241.3 1.125e+04 3.800e-10
 30.59888    241.6 1.105e+04 4.046e-10
 30.60893    242.4 1.106e+04 4.143e-10
 30.62565    242.7 1.093e+04 4.552e-10
 30.64575    243.0 1.085e+04 5.158e-10
 30.66584    243.5 1.087e+04 6.004e-10
 30.68285    244.1 1.099e+04 7.118e-10
 30.69290    243.7 1.049e+04 6.447e-10
 30.70603    244.4 1.066e+04 7.598e-10
 30.72613    245.2 1.087e+04 8.807e-10
 30.74622    245.9 1.109e+04 9.986e-10
 30.76586    246.5 1.128e+04 1.108e-09
 30.77591    247.0 1.126e+04 1.065e-09
 30.78040    247.6 1.143e+04 1.165e-09
 30.79044    247.2 1.116e+04 9.805e-10
 30.80651    247.6 1.122e+04 1.008e-09
 30.82660    248.0 1.126e+04 1.015e-09
 30.84670    248.3 1.126e+04 1.014e-09
 30.86679    248.7 1.127e+04 1.002e-09
 30.87795    249.0 1.128e+04 9.670e-10
 30.88799    248.3 1.036e+04 4.720e-10
 30.90698    248.4 1.035e+04 4.453e-10
 30.92708    248.5 1.030e+04 4.134e-10
 30.94289    248.6 1.018e+04 3.767e-10
 30.95294    248.6 1.001e+04 3.325e-10
 30.96545    248.7 9.835e+03 3.017e-10
 30.97550    248.3 9.615e+03 2.786e-10
 30.98736    248.4 9.458e+03 2.611e-10
 31.00746    248.6 9.350e+03 2.568e-10
 31.02755    248.9 9.345e+03 2.568e-10
 31.04765    249.3 9.330e+03 2.590e-10
 31.06300    249.8 9.301e+03 2.709e-10
 31.08319    250.1 9.099e+03 2.582e-10
 31.11006    250.8 9.286e+03 3.056e-10
 31.13016    250.8 9.229e+03 3.068e-10
 31.15836    251.2 9.410e+03 3.626e-10
 31.18841    251.7 9.470e+03 3.907e-10
 31.20841    252.5 9.550e+03 4.163e-10
 31.22850    253.1 9.637e+03 4.359e-10
 31.24805    253.5 9.656e+03 4.374e-10
 31.25819    253.0 9.296e+03 3.088e-10
 31.27893    253.4 9.289e+03 2.882e-10
 31.31912    253.8 9.185e+03 2.548e-10
 31.35931    254.4 9.065e+03 2.369e-10
 31.39950    255.1 9.058e+03 2.377e-10
 31.43330    255.9 9.147e+03 2.541e-10
 31.45339    256.4 8.755e+03 2.051e-10
 31.46412    257.5 9.079e+03 2.499e-10
 31.48421    258.6 8.938e+03 2.412e-10
 31.52007    259.6 9.237e+03 2.932e-10
 31.54079    259.8 9.446e+03 3.322e-10
 31.55074    259.8 9.382e+03 3.248e-10
 31.57012    260.3 9.616e+03 3.677e-10
 31.59021    260.8 9.983e+03 4.429e-10
 31.61031    261.1 1.036e+04 5.367e-10
 31.62820    261.3 1.070e+04 6.293e-10
 31.63825    261.5 1.039e+04 5.703e-10
 31.64095    261.6 1.063e+04 6.173e-10
 31.65100    262.4 1.039e+04 6.060e-10
 31.67059    262.3 1.058e+04 6.353e-10
 31.69069    261.9 1.074e+04 6.424e-10
 31.71078    261.3 1.085e+04 6.438e-10
 31.72575    260.7 1.092e+04 6.514e-10
 31.73580    260.9 1.080e+04 6.412e-10
 31.75097    260.3 1.082e+04 6.427e-10
 31.77107    259.6 1.090e+04 6.551e-10
 31.79116    259.0 1.103e+04 6.923e-10
 31.80793    258.3 1.118e+04 7.569e-10
 31.81798    259.6 1.089e+04 6.540e-10
 31.82330    259.0 1.101e+04 7.035e-10
 31.83335    259.3 1.102e+04 7.312e-10
 31.85145    258.7 1.118e+04 8.080e-10
 31.87154    258.3 1.139e+04 9.291e-10
 31.89164    258.0 1.167e+04 1.102e-09
 31.91080    257.7 1.202e+04 1.338e-09
 31.92085    257.9 1.205e+04 1.386e-09
 31.93183    257.5 1.247e+04 1.681e-09
 31.95192    256.8 1.295e+04 2.072e-09
 31.97202    256.0 1.348e+04 2.586e-09
 31.98496    255.1 1.406e+04 3.231e-09
 31.99501    255.5 1.380e+04 2.931e-09
 32.00835    254.6 1.443e+04 3.742e-09
 32.01840    254.6 1.446e+04 3.824e-09
 32.03230    253.4 1.501e+04 4.460e-09
 32.05240    251.7 1.519e+04 4.550e-09
 32.07249    249.9 1.518e+04 4.489e-09
 32.09259    248.0 1.504e+04 4.176e-09
 32.10590    245.9 1.478e+04 3.692e-09
 32.11595    244.6 1.477e+04 3.420e-09
 32.13278    241.6 1.483e+04 3.383e-09
 32.15194    237.9 1.504e+04 3.449e-09
 32.16199    236.4 1.558e+04 3.894e-09
 32.17297    232.3 1.589e+04 4.251e-09
 32.19306    228.4 1.600e+04 4.550e-09
 32.20345    224.7 1.597e+04 4.545e-09
 32.21350    222.7 1.577e+04 4.572e-09
 32.23325    219.3 1.538e+04 4.013e-09
 32.25335    215.9 1.475e+04 2.976e-09
 32.27344    212.6 1.382e+04 1.869e-09
 32.29095    209.1 1.258e+04 1.032e-09
 32.30100    207.7 1.194e+04 6.946e-10
 32.31363    204.1 1.044e+04 4.042e-10
 32.32896    201.4 9.712e+03 3.245e-10
 32.33901    201.6 9.674e+03 3.252e-10
 32.35382    200.8 9.649e+03 3.238e-10
 32.37392    200.8 9.652e+03 3.243e-10
 32.38850    200.8 9.674e+03 3.268e-10
 32.40869    200.4 9.718e+03 3.085e-10
 32.44444    200.5 9.794e+03 3.249e-10
 32.47449    200.8 9.878e+03 3.485e-10
 32.48605    201.5 1.002e+04 3.894e-10
 32.49610    201.5 9.989e+03 3.838e-10
 32.50599    201.9 1.017e+04 4.461e-10
 32.51604    203.3 1.022e+04 4.492e-10
 32.53468    203.5 1.044e+04 5.226e-10
 32.55477    203.7 1.064e+04 6.002e-10
 32.57355    203.8 1.080e+04 6.803e-10
 32.58360    203.9 1.080e+04 6.897e-10
 32.59496    203.6 1.108e+04 8.126e-10
 32.61506    202.1 1.186e+04 1.115e-09
 32.63515    199.4 1.333e+04 1.850e-09
 32.65525    196.1 1.499e+04 3.372e-09
 32.67110    192.8 1.641e+04 5.676e-09
 32.67878    191.2 1.714e+04 7.059e-09
 32.68302    192.9 1.730e+04 7.348e-09
 32.69544    189.4 1.845e+04 8.945e-09
 32.71553    184.7 1.892e+04 8.857e-09
 32.73563    179.1 1.914e+04 8.162e-09
 32.75572    173.2 1.889e+04 6.579e-09
 32.76865    167.6 1.769e+04 5.080e-09
 32.77870    164.3 1.635e+04 3.915e-09
 32.79591    160.5 1.440e+04 2.782e-09
 32.81601    158.1 1.316e+04 1.947e-09
 32.83610    156.2 1.252e+04 1.306e-09
 32.85000    154.7 1.198e+04 8.596e-10
 32.86000    155.0 1.211e+04 9.329e-10
 32.88639    152.1 1.137e+04 5.331e-10
 32.92672    149.5 1.029e+04 3.209e-10
 32.95390    148.4 9.348e+03 2.164e-10
 32.97399    147.8 9.066e+03 1.855e-10
 33.00710    148.3 8.893e+03 1.561e-10
 33.04729    149.2 8.729e+03 1.290e-10
 33.08748    150.4 8.554e+03 1.075e-10
 33.12767    151.9 8.398e+03 9.272e-11
 33.14899    153.5 8.256e+03 8.621e-11
 33.16909    153.7 8.365e+03 9.510e-11
 33.19420    155.5 8.269e+03 9.269e-11
 33.21430    155.7 8.235e+03 9.159e-11
 33.24824    157.6 8.244e+03 9.329e-11
 33.28843    159.5 8.283e+03 9.787e-11
 33.32400    161.5 8.353e+03 1.061e-10
 33.34409    160.9 8.431e+03 1.080e-10
 33.36881    162.5 8.640e+03 1.245e-10
 33.40900    164.1 8.917e+03 1.514e-10
 33.44919    165.7 9.217e+03 1.858e-10
 33.47924    166.4 9.289e+03 1.999e-10
 33.49924    166.8 9.357e+03 2.075e-10
 33.51890    166.4 9.583e+03 2.339e-10
 33.52895    163.2 1.073e+04 4.265e-10
 33.53801    160.1 1.301e+04 9.633e-10
 33.54806    158.8 1.360e+04 1.160e-09
 33.55952    155.5 1.576e+04 3.052e-09
 33.57962    153.4 1.720e+04 6.536e-09
 33.59971    152.1 1.807e+04 9.910e-09
 33.61645    150.6 1.829e+04 1.007e-08
 33.62650    148.1 1.875e+04 1.051e-08
 33.63990    146.1 1.823e+04 6.982e-09
 33.66000    143.4 1.716e+04 3.105e-09
 33.68009    138.7 1.553e+04 9.915e-10
 33.70019    131.8 1.325e+04 3.542e-10
 33.71400    125.3 1.069e+04 3.154e-10
 33.71881    122.0 1.083e+04 3.678e-10
 33.72509    120.5 1.083e+04 3.455e-10
 33.74038    117.6 1.034e+04 3.557e-10
 33.76047    115.2 1.026e+04 3.683e-10
 33.78057    113.2 1.017e+04 4.268e-10
 33.80066    111.5 1.040e+04 5.438e-10
 33.81155    109.8 1.088e+04 7.299e-10
 33.82160    108.8 1.129e+04 8.689e-10
 33.84085    107.2 1.190e+04 1.142e-09
 33.86095    105.5 1.251e+04 1.472e-09
 33.88104    103.8 1.296e+04 1.756e-09
 33.89207    101.8 1.306e+04 1.786e-09
 33.90013    101.8 1.285e+04 1.527e-09
 33.90920     99.5 1.312e+04 1.856e-09
 33.92123     97.7 1.304e+04 1.801e-09
 33.94133     95.9 1.285e+04 1.616e-09
 33.96142     93.9 1.254e+04 1.319e-09
 33.98152     92.0 1.219e+04 1.079e-09
 34.01176     88.0 1.161e+04 8.294e-10
 34.05204     84.1 1.084e+04 5.952e-10
 34.08209     81.9 1.084e+04 6.268e-10
 34.09415     80.5 1.107e+04 7.049e-10
 34.10420     79.2 1.183e+04 1.119e-09
 34.12218     78.1 1.229e+04 1.325e-09
 34.14228     77.2 1.272e+04 1.580e-09
 34.16237     76.4 1.311e+04 1.868e-09
 34.18165     75.7 1.339e+04 2.153e-09
 34.19170     75.0 1.383e+04 2.585e-09
 34.20256     74.3 1.391e+04 2.644e-09
 34.22266     73.7 1.400e+04 2.712e-09
 34.23607     72.8 1.397e+04 2.604e-09
 34.24612     71.3 1.333e+04 1.858e-09
 34.26285     69.8 1.301e+04 1.527e-09
 34.27920     68.1 1.251e+04 1.243e-09
 34.28925     66.6 1.164e+04 8.524e-10
 34.30304     65.3 1.110e+04 7.300e-10
 34.32313     64.4 1.070e+04 6.165e-10
 34.34323     63.8 1.048e+04 5.500e-10
 34.36332     63.3 1.025e+04 4.605e-10
 34.37675     63.2 1.008e+04 4.038e-10
 34.38680     63.4 9.898e+03 3.460e-10
 34.41366     63.0 9.720e+03 2.844e-10
 34.45394     62.6 9.423e+03 2.190e-10
 34.47450     62.7 9.432e+03 2.211e-10
 34.49459     63.4 9.246e+03 1.892e-10
 34.53432     63.5 9.506e+03 2.420e-10
 34.57023     63.4 9.767e+03 3.127e-10
 34.59032     64.4 9.801e+03 3.181e-10
 34.60456     64.2 1.009e+04 4.176e-10
 34.62456     64.2 1.035e+04 5.178e-10
 34.64465     64.5 1.068e+04 6.564e-10
 34.65935     64.7 1.093e+04 7.665e-10
 34.66940     64.5 1.111e+04 8.419e-10
 34.68484     64.4 1.139e+04 9.695e-10
 34.70494     64.1 1.171e+04 1.116e-09
 34.72503     63.6 1.207e+04 1.298e-09
 34.74513     63.1 1.244e+04 1.523e-09
 34.75690     62.6 1.282e+04 1.807e-09
 34.75884     61.5 1.319e+04 2.160e-09
 34.76716     62.0 1.301e+04 1.987e-09
 34.78532     61.8 1.330e+04 2.259e-09
 34.80541     61.6 1.355e+04 2.505e-09
 34.82551     61.6 1.374e+04 2.687e-09
 34.84440     61.6 1.389e+04 2.817e-09
 34.85445     60.4 1.383e+04 2.680e-09
 34.86570     60.4 1.381e+04 2.547e-09
 34.88579     60.5 1.375e+04 2.380e-09
 34.90589     60.5 1.364e+04 2.203e-09
 34.92409     60.5 1.348e+04 2.039e-09
 34.93414     60.8 1.374e+04 2.473e-09
 34.94195     61.0 1.357e+04 2.276e-09
 34.95200     60.1 1.293e+04 1.713e-09
 34.96617     60.3 1.273e+04 1.582e-09
 34.98627     60.4 1.257e+04 1.513e-09
 35.00636     60.6 1.257e+04 1.527e-09
 35.02646     60.6 1.267e+04 1.604e-09
 35.03950     60.5 1.298e+04 1.786e-09
 35.04955     59.7 1.239e+04 1.454e-09
 35.06665     59.4 1.290e+04 1.707e-09
 35.08674     58.9 1.350e+04 2.078e-09
 35.10112     58.6 1.403e+04 2.545e-09
 35.11116     59.2 1.309e+04 1.952e-09
 35.12693     59.1 1.350e+04 2.289e-09
 35.14703     58.8 1.346e+04 2.359e-09
 35.16712     59.1 1.351e+04 2.523e-09
 35.18722     59.5 1.343e+04 2.551e-09
 35.20731     60.0 1.331e+04 2.490e-09
 35.22455     60.5 1.313e+04 2.352e-09
 35.23460     60.4 1.246e+04 1.781e-09
 35.24750     60.8 1.225e+04 1.630e-09
 35.26760     61.2 1.208e+04 1.505e-09
 35.27814     61.5 1.193e+04 1.407e-09
 35.28819     61.5 1.146e+04 1.236e-09
 35.30779     61.9 1.141e+04 1.225e-09
 35.32210     62.5 1.141e+04 1.231e-09
 35.33215     62.9 1.087e+04 9.637e-10
 35.34798     63.7 1.098e+04 1.014e-09
 35.36807     64.6 1.109e+04 1.075e-09
 35.38817     65.6 1.119e+04 1.138e-09
 35.40826     66.6 1.127e+04 1.204e-09
 35.41965     67.8 1.139e+04 1.283e-09
 35.42970     68.2 1.121e+04 1.185e-09
 35.44512     69.4 1.144e+04 1.321e-09
 35.45517     69.1 1.136e+04 1.287e-09
 35.46855     69.9 1.172e+04 1.503e-09
 35.48864     70.3 1.237e+04 1.899e-09
 35.50715     70.7 1.339e+04 2.627e-09
 35.51720     71.9 1.274e+04 2.231e-09
 35.52883     72.6 1.362e+04 3.016e-09
 35.54893     72.6 1.471e+04 4.237e-09
 35.56090     72.1 1.566e+04 5.712e-09
 35.56588     72.6 1.529e+04 5.233e-09
 35.57395     72.7 1.552e+04 5.660e-09
 35.58399     72.7 1.631e+04 7.334e-09
 35.59404     72.9 1.665e+04 8.200e-09
 35.60465     72.9 1.779e+04 1.204e-08
 35.61475     74.1 1.660e+04 8.034e-09
 35.62215     74.5 1.716e+04 8.958e-09
 35.63220     73.6 1.704e+04 7.419e-09
 35.64940     73.1 1.709e+04 7.299e-09
 35.66950     72.5 1.697e+04 6.515e-09
 35.68959     71.8 1.631e+04 5.032e-09
 35.70225     70.8 1.517e+04 3.585e-09
 35.71230     71.5 1.489e+04 3.323e-09
 35.72978     70.6 1.375e+04 2.380e-09
 35.74988     69.8 1.284e+04 1.781e-09
 35.76997     69.1 1.237e+04 1.412e-09
 35.78913     68.5 1.215e+04 1.198e-09
 35.79887     67.7 1.267e+04 1.381e-09
 35.79980     66.5 1.289e+04 1.559e-09
 35.81016     65.5 1.300e+04 1.618e-09
 35.83026     64.9 1.312e+04 1.737e-09
 35.85035     64.5 1.324e+04 1.875e-09
 35.87045     64.3 1.335e+04 2.009e-09
 35.88730     64.1 1.348e+04 2.141e-09
 35.89735     63.5 1.349e+04 2.456e-09
 35.91064     63.2 1.350e+04 2.448e-09
 35.93073     62.4 1.364e+04 2.467e-09
 35.95083     61.1 1.387e+04 2.572e-09
 35.96616     59.3 1.420e+04 2.783e-09
 35.97620     59.3 1.468e+04 3.303e-09
 35.98485     57.2 1.497e+04 3.445e-09
 35.99490     55.5 1.432e+04 2.737e-09
 36.01111     53.1 1.415e+04 2.649e-09
 36.03121     51.4 1.354e+04 2.258e-09
 36.05130     50.0 1.262e+04 1.620e-09
 36.07140     48.6 1.159e+04 1.004e-09
 36.08240     46.5 1.065e+04 5.644e-10
 36.09245     46.5 1.051e+04 5.148e-10
 36.11159     44.0 9.784e+03 3.224e-10
 36.13168     40.9 9.500e+03 2.864e-10
 36.14318     40.2 9.440e+03 2.837e-10
 36.15323     40.2 9.491e+03 2.873e-10
 36.16990     38.5 9.487e+03 2.939e-10
 36.19010     38.5 9.419e+03 2.878e-10
 36.21216     37.0 9.522e+03 3.161e-10
 36.23216     35.8 9.845e+03 3.921e-10
 36.25225     34.1 1.048e+04 5.669e-10
 36.26745     32.2 1.132e+04 8.816e-10
 36.27750     32.6 1.119e+04 8.238e-10
 36.29244     30.1 1.226e+04 1.359e-09
 36.31016     26.7 1.384e+04 2.253e-09
 36.32021     27.3 1.400e+04 2.325e-09
 36.33263     21.7 1.601e+04 4.061e-09
 36.34765     18.7 1.676e+04 5.177e-09
 36.35765     16.5 1.720e+04 6.087e-09
 36.36491     14.0 1.755e+04 7.112e-09
 36.36993     13.8 1.761e+04 7.584e-09
 36.37775     11.0 1.807e+04 8.879e-09
 36.38779      7.6 1.849e+04 1.022e-08
 36.39784      4.2 1.872e+04 1.145e-08
 36.40360      0.8 1.885e+04 1.359e-08
 36.40863      0.9 1.933e+04 1.570e-08
 36.41368     -1.9 1.994e+04 2.126e-08
 36.41870     -1.5 1.930e+04 1.861e-08
 36.42798     -4.3 2.010e+04 2.299e-08
 36.43803     -7.0 2.034e+04 2.369e-08
 36.44808     -9.3 2.061e+04 2.338e-08
 36.45743    -12.2 2.146e+04 2.460e-08
 36.46245    -10.2 2.019e+04 1.750e-08
 36.46817    -13.1 2.134e+04 1.895e-08
 36.47822    -16.1 2.183e+04 1.991e-08
 36.48709    -19.0 2.151e+04 2.024e-08
 36.49212    -19.1 2.140e+04 1.844e-08
 36.49832    -20.9 2.084e+04 1.755e-08
 36.51344    -22.6 1.974e+04 1.560e-08
 36.53358    -24.2 1.884e+04 1.225e-08
 36.55005    -24.8 1.790e+04 8.385e-09
 36.56010    -23.2 1.752e+04 8.215e-09
 36.57377    -24.0 1.696e+04 5.939e-09
 36.59387    -25.1 1.571e+04 4.072e-09
 36.61396    -26.7 1.442e+04 2.547e-09
 36.63406    -28.1 1.320e+04 1.502e-09
 36.64760    -29.5 1.246e+04 9.518e-10
 36.65765    -27.0 1.287e+04 1.430e-09
 36.67425    -27.5 1.212e+04 8.518e-10
 36.69434    -29.1 1.128e+04 5.801e-10
 36.71444    -30.4 1.040e+04 5.275e-10
 36.73453    -30.9 1.031e+04 5.093e-10
 36.74515    -31.2 1.054e+04 5.883e-10
 36.75520    -29.9 1.036e+04 4.970e-10
 36.77472    -30.9 1.060e+04 5.911e-10
 36.79482    -31.9 1.105e+04 7.800e-10
 36.81491    -32.5 1.152e+04 1.045e-09
 36.83120    -32.6 1.190e+04 1.342e-09
 36.83890    -31.9 1.198e+04 1.430e-09
 36.84270    -31.3 1.178e+04 1.303e-09
 36.85510    -31.2 1.217e+04 1.614e-09
 36.87520    -31.8 1.256e+04 1.836e-09
 36.89529    -33.8 1.341e+04 2.261e-09
 36.91539    -37.0 1.486e+04 3.268e-09
 36.93016    -39.0 1.531e+04 3.988e-09
 36.94020    -38.6 1.520e+04 3.808e-09
 36.95050    -41.1 1.675e+04 5.659e-09
 36.96050    -43.1 1.803e+04 7.693e-09
 36.97055    -45.0 1.910e+04 1.082e-08
 36.97888    -46.6 2.010e+04 1.443e-08
 36.98390    -45.3 1.920e+04 1.105e-08
 36.99064    -46.7 1.997e+04 1.418e-08
 37.00069    -48.2 2.072e+04 1.745e-08
 37.00813    -49.9 2.147e+04 2.103e-08
 37.01315    -50.8 2.144e+04 2.130e-08
 37.02079    -53.4 2.250e+04 2.544e-08
 37.02766    -56.6 2.380e+04 3.033e-08
 37.03268    -54.5 2.279e+04 2.324e-08
 37.04088    -57.9 2.410e+04 2.713e-08
 37.05093    -61.0 2.506e+04 3.138e-08
 37.06098    -63.8 2.517e+04 3.520e-08
 37.07102    -66.3 2.492e+04 3.643e-08
 37.07643    -69.0 2.352e+04 3.079e-08
 37.08145    -67.2 2.399e+04 3.213e-08
 37.09112    -69.8 2.245e+04 2.686e-08
 37.09664    -71.4 2.116e+04 2.127e-08
 37.10167    -72.2 2.044e+04 1.986e-08
 37.11521    -73.6 1.924e+04 1.383e-08
 37.12525    -72.2 1.909e+04 1.478e-08
 37.13638    -72.3 1.885e+04 1.136e-08
 37.15653    -73.7 1.765e+04 5.100e-09
 37.17521    -76.6 1.524e+04 2.132e-09
 37.18525    -79.1 1.371e+04 1.583e-09
 37.19672    -81.6 1.140e+04 8.410e-10
 37.21280    -81.9 1.091e+04 6.625e-10
 37.22285    -80.7 1.118e+04 7.368e-10
 37.23691    -80.6 1.091e+04 6.434e-10
 37.25700    -80.3 1.083e+04 6.016e-10
 37.27710    -80.0 1.065e+04 5.522e-10
 37.29719    -79.9 1.045e+04 5.077e-10
 37.31035    -79.8 1.034e+04 4.678e-10
 37.32040    -78.6 1.059e+04 5.308e-10
 37.33738    -78.8 1.051e+04 5.010e-10
 37.35223    -79.2 1.041e+04 4.564e-10
 37.36228    -79.8 1.060e+04 5.006e-10
 37.37757    -80.5 1.033e+04 4.265e-10
 37.39767    -81.2 1.000e+04 3.523e-10
 37.40790    -81.7 9.711e+03 2.968e-10
 37.41795    -80.7 9.995e+03 3.506e-10
 37.43786    -81.6 9.564e+03 2.740e-10
 37.46810    -82.8 9.125e+03 2.076e-10
 37.49560    -83.9 8.357e+03 1.215e-10
 37.51570    -82.6 9.150e+03 2.207e-10
 37.54857    -83.5 8.383e+03 1.323e-10
 37.58876    -83.6 8.357e+03 1.127e-10
 37.62895    -83.1 8.359e+03 1.103e-10
 37.66914    -82.2 8.413e+03 1.178e-10
 37.69070    -81.2 8.691e+03 1.613e-10
 37.69790    -80.6 9.029e+03 2.195e-10
 37.71653    -80.1 9.021e+03 2.120e-10
 37.74952    -79.0 9.386e+03 3.104e-10
 37.78971    -77.9 9.721e+03 3.982e-10
 37.82990    -77.1 9.979e+03 4.462e-10
 37.86570    -76.7 1.015e+04 4.690e-10
 37.88580    -77.0 1.046e+04 5.357e-10
 37.91028    -76.8 1.047e+04 5.385e-10
 37.95047    -76.3 1.036e+04 5.185e-10
 37.99066    -75.3 1.012e+04 4.551e-10
 38.03039    -73.9 9.828e+03 3.473e-10
 38.05049    -73.6 1.008e+04 3.923e-10
 38.06080    -72.4 9.843e+03 2.967e-10
 38.08090    -71.7 9.499e+03 2.589e-10
 38.11123    -70.3 9.376e+03 2.022e-10
 38.15142    -68.7 9.370e+03 1.706e-10
 38.19161    -66.9 9.383e+03 1.525e-10
 38.23180    -65.0 9.408e+03 1.419e-10
 38.25590    -63.0 9.436e+03 1.381e-10
 38.27600    -61.8 9.213e+03 1.305e-10
 38.31218    -59.7 9.221e+03 1.293e-10
 38.35237    -57.6 9.294e+03 1.302e-10
 38.38445    -55.9 9.466e+03 1.435e-10
 38.40454    -55.4 9.642e+03 1.636e-10
 38.43090    -53.9 9.744e+03 1.935e-10
 38.45100    -52.9 9.732e+03 1.718e-10
 38.47294    -51.6 9.935e+03 2.512e-10
 38.51313    -50.1 1.016e+04 3.714e-10
 38.55332    -48.9 1.046e+04 5.166e-10
 38.59351    -48.3 1.080e+04 6.712e-10
 38.62600    -48.0 1.118e+04 8.395e-10
 38.64610    -46.7 1.141e+04 7.728e-10
 38.67389    -47.8 1.204e+04 8.715e-10
 38.71408    -49.8 1.266e+04 1.030e-09
 38.73850    -52.0 1.294e+04 1.307e-09
 38.75860    -48.8 1.214e+04 9.104e-10
 38.79446    -50.2 1.225e+04 1.031e-09
 38.82110    -51.5 1.218e+04 1.072e-09
 38.84120    -52.8 1.265e+04 1.392e-09
 38.87484    -53.8 1.200e+04 1.144e-09
 38.91503    -54.7 1.128e+04 7.796e-10
 38.95522    -55.2 1.055e+04 5.047e-10
 38.99541    -55.5 1.001e+04 3.597e-10
 39.01620    -55.6 9.642e+03 2.930e-10
 39.03630    -56.3 8.951e+03 1.600e-10
 39.07246    -55.9 8.845e+03 1.528e-10
 39.09256    -54.2 8.941e+03 1.702e-10
 39.11598    -53.8 8.895e+03 1.693e-10
 39.15617    -53.6 8.930e+03 2.002e-10
 39.19120    -53.4 9.105e+03 2.527e-10
 39.21130    -53.5 8.995e+03 2.077e-10
 39.23655    -53.6 9.398e+03 3.069e-10
 39.27674    -54.0 1.015e+04 4.897e-10
 39.31693    -55.3 1.112e+04 8.134e-10
 39.34698    -56.2 1.179e+04 1.205e-09
 39.36698    -57.0 1.233e+04 1.589e-09
 39.38611    -58.3 1.317e+04 2.261e-09
 39.39616    -58.7 1.354e+04 2.328e-09
 39.40717    -60.8 1.506e+04 3.584e-09
 39.42632    -63.6 1.698e+04 5.804e-09
 39.43637    -63.3 1.730e+04 5.943e-09
 39.44736    -66.9 1.894e+04 9.761e-09
 39.46745    -70.5 2.006e+04 1.593e-08
 39.48247    -73.6 2.065e+04 2.106e-08
 39.48858    -75.4 2.108e+04 2.440e-08
 39.49366    -75.2 2.080e+04 1.891e-08
 39.50257    -78.2 2.124e+04 2.388e-08
 39.51257    -81.1 2.147e+04 2.520e-08
 39.51976    -85.0 2.195e+04 2.630e-08
 39.52479    -85.0 2.211e+04 2.774e-08
 39.53233    -90.3 2.323e+04 2.898e-08
 39.53736    -89.6 2.278e+04 2.623e-08
 39.54271    -96.7 2.471e+04 2.832e-08
 39.55276   -106.1 2.663e+04 3.290e-08
 39.56280   -116.4 2.690e+04 4.010e-08
 39.57285   -125.9 2.629e+04 4.470e-08
 39.58111   -133.9 2.549e+04 4.582e-08
 39.58613   -134.2 2.617e+04 4.738e-08
 39.59295   -141.2 2.445e+04 4.051e-08
 39.60299   -148.4 2.312e+04 2.167e-08
 39.60828   -156.2 2.100e+04 8.462e-09
 39.61330   -156.7 2.071e+04 7.591e-09
 39.62309   -163.7 1.753e+04 2.922e-09
 39.62988   -168.2 1.543e+04 1.645e-09
 39.63491   -168.2 1.537e+04 1.658e-09
 39.64826   -172.0 1.420e+04 1.072e-09
 39.66840   -178.8 1.148e+04 4.698e-10
 39.67876   -182.8 9.801e+03 2.776e-10
 39.68880   -182.8 9.931e+03 2.844e-10
 39.70859   -184.1 9.427e+03 2.336e-10
 39.72869   -184.6 9.305e+03 2.185e-10
 39.75631   -185.3 9.218e+03 1.985e-10
 39.77650   -186.2 9.220e+03 1.958e-10
 39.78057   -187.2 8.955e+03 1.545e-10
 39.80067   -187.6 8.723e+03 1.341e-10
 39.83940   -188.1 8.508e+03 1.134e-10
 39.87959   -188.3 8.408e+03 1.041e-10
 39.91978   -187.8 8.335e+03 9.900e-11
 39.95150   -186.9 8.272e+03 9.508e-11
 39.97160   -186.9 8.260e+03 9.789e-11
 40.00016   -185.7 8.164e+03 8.866e-11
 40.04035   -184.3 8.081e+03 8.080e-11
 40.08054   -182.6 8.019e+03 7.430e-11
 40.11453   -180.8 7.987e+03 6.957e-11
 40.13463   -180.2 8.014e+03 7.039e-11
 40.14660   -178.4 8.013e+03 6.851e-11
 40.16670   -178.3 8.005e+03 6.816e-11
 40.20111   -176.8 8.007e+03 6.799e-11
 40.24130   -176.0 8.030e+03 6.848e-11
 40.28149   -175.9 8.116e+03 7.078e-11
 40.32161   -177.4 8.777e+03 1.047e-10
 40.36180   -180.2 1.077e+04 3.063e-10
 40.40206   -184.3 1.200e+04 6.955e-10
 40.44225   -189.5 1.262e+04 1.137e-09
 40.46859   -195.1 1.274e+04 1.335e-09
 40.47854   -193.2 1.290e+04 1.427e-09
 40.49230   -195.7 1.303e+04 1.502e-09
 40.51239   -198.7 1.302e+04 1.539e-09
 40.52656   -200.7 1.302e+04 1.547e-09
 40.53661   -200.2 1.275e+04 1.334e-09
 40.55258   -202.2 1.258e+04 1.314e-09
 40.57268   -203.4 1.244e+04 1.265e-09
 40.59277   -204.4 1.218e+04 1.165e-09
 40.61287   -204.8 1.198e+04 1.057e-09
 40.62411   -205.2 1.173e+04 9.226e-10
 40.63415   -205.0 1.169e+04 8.687e-10
 40.64542   -205.1 1.156e+04 7.617e-10
 40.65547   -205.5 1.150e+04 7.322e-10
 40.67315   -205.7 1.142e+04 6.261e-10
 40.69325   -205.9 1.138e+04 5.491e-10
 40.71161   -206.1 1.135e+04 5.003e-10
 40.72166   -205.8 1.128e+04 4.710e-10
 40.73344   -205.9 1.126e+04 4.480e-10
 40.75353   -206.0 1.126e+04 4.425e-10
 40.77363   -206.0 1.127e+04 4.428e-10
 40.79372   -206.1 1.133e+04 4.730e-10
 40.80916   -206.1 1.137e+04 5.403e-10
 40.81779   -205.7 1.143e+04 5.229e-10
 40.82245   -205.7 1.148e+04 6.030e-10
 40.83391   -205.6 1.154e+04 6.865e-10
 40.85401   -205.6 1.156e+04 7.464e-10
 40.87410   -205.7 1.154e+04 7.685e-10
 40.89420   -205.7 1.154e+04 7.717e-10
 40.90671   -205.7 1.143e+04 7.715e-10
 40.91676   -205.3 1.156e+04 8.329e-10
 40.93439   -205.2 1.130e+04 8.039e-10
 40.95448   -205.1 1.108e+04 7.252e-10
 40.97458   -205.0 1.083e+04 6.223e-10
 40.98943   -204.9 1.056e+04 5.162e-10
 40.99901   -204.9 1.078e+04 6.160e-10
 41.00426   -204.5 1.098e+04 5.864e-10
 41.01477   -204.4 1.067e+04 4.837e-10
 41.03486   -204.2 1.037e+04 4.079e-10
 41.05496   -204.1 1.021e+04 3.689e-10
 41.08181   -204.3 1.013e+04 3.408e-10
 41.10200   -203.8 1.010e+04 3.240e-10
 41.12548   -203.8 9.863e+03 2.743e-10
 41.15660   -203.8 9.603e+03 2.301e-10
 41.17670   -203.6 9.813e+03 2.716e-10
 41.20586   -203.5 9.556e+03 2.264e-10
 41.24605   -203.1 9.308e+03 1.884e-10
 41.27701   -202.5 9.092e+03 1.585e-10
 41.29710   -202.0 9.090e+03 1.490e-10
 41.32643   -201.0 8.931e+03 1.327e-10
 41.36662   -199.9 8.802e+03 1.217e-10
 41.40681   -198.6 8.697e+03 1.159e-10
 41.44700   -197.1 8.630e+03 1.144e-10
 41.47210   -195.6 8.612e+03 1.142e-10
 41.49220   -194.7 8.584e+03 9.873e-11
 41.51065   -193.1 8.558e+03 9.647e-11
 41.53075   -193.2 8.582e+03 1.009e-10
 41.56757   -191.5 8.559e+03 1.007e-10
 41.60776   -189.9 8.540e+03 1.009e-10
 41.64711   -188.2 8.527e+03 1.012e-10
 41.66720   -187.4 8.625e+03 7.515e-11
 41.68814   -185.7 8.625e+03 7.535e-11
 41.72833   -184.3 8.624e+03 7.647e-11
 41.76852   -183.1 8.597e+03 8.705e-11
 41.80871   -182.2 8.798e+03 1.143e-10
 41.84221   -181.5 9.135e+03 1.652e-10
 41.85801   -180.8 9.065e+03 1.457e-10
 41.86471   -180.7 8.743e+03 1.234e-10
 41.88909   -180.2 9.268e+03 2.038e-10
 41.92928   -179.7 9.747e+03 3.276e-10
 41.96947   -179.4 1.012e+04 4.600e-10
 42.00966   -179.3 1.031e+04 5.350e-10
 42.03731   -179.7 1.035e+04 5.490e-10
 42.05740   -178.4 1.093e+04 8.348e-10
 42.09004   -178.8 1.093e+04 8.424e-10
 42.13023   -179.2 1.077e+04 7.847e-10
 42.17042   -179.6 1.059e+04 6.832e-10
 42.19867   -180.3 1.052e+04 6.302e-10
 42.21876   -180.5 1.035e+04 5.376e-10
 42.23240   -181.5 1.039e+04 5.430e-10
 42.25250   -180.6 1.073e+04 7.044e-10
 42.29099   -181.8 1.083e+04 7.114e-10
 42.33118   -183.3 1.110e+04 7.702e-10
 42.37137   -184.8 1.125e+04 8.216e-10
 42.40741   -186.3 1.128e+04 8.311e-10
 42.42750   -185.8 1.109e+04 6.676e-10
 42.45175   -186.5 1.089e+04 5.698e-10
 42.49194   -186.8 1.057e+04 4.363e-10
 42.53213   -186.8 1.025e+04 3.129e-10
 42.55272   -186.7 9.985e+03 2.198e-10
 42.57282   -186.7 1.011e+04 2.634e-10
 42.60251   -186.1 9.813e+03 1.780e-10
 42.62260   -184.7 9.724e+03 1.467e-10
 42.65270   -183.8 9.633e+03 1.166e-10
 42.69289   -182.9 9.633e+03 1.030e-10
 42.73308   -182.0 9.644e+03 1.001e-10
 42.77327   -181.0 9.646e+03 9.993e-11
 42.79761   -180.2 9.707e+03 1.035e-10
 42.81770   -178.5 9.578e+03 9.039e-11
 42.85365   -177.9 9.775e+03 9.962e-11
 42.88668   -177.4 9.945e+03 1.274e-10
 42.90678   -177.5 1.003e+04 1.564e-10
 42.93403   -177.1 1.017e+04 2.071e-10
 42.97261   -176.7 1.029e+04 2.527e-10
 42.99270   -175.1 1.024e+04 2.195e-10
 43.01441   -174.8 1.027e+04 2.474e-10
 43.05460   -174.6 1.027e+04 2.542e-10
 43.09479   -174.4 1.022e+04 2.529e-10
 43.13498   -173.8 1.003e+04 2.226e-10
 43.16771   -172.8 9.831e+03 1.793e-10
 43.18780   -171.2 9.844e+03 1.810e-10
 43.21536   -170.2 9.700e+03 1.459e-10
 43.24074   -169.0 9.662e+03 1.278e-10
 43.26083   -169.0 9.724e+03 1.422e-10
 43.29574   -167.8 9.722e+03 1.389e-10
 43.33593   -166.9 9.772e+03 1.397e-10
 43.36281   -166.5 1.010e+04 1.713e-10
 43.38290   -165.0 9.994e+03 1.369e-10
 43.41631   -164.8 1.035e+04 1.949e-10
 43.45650   -164.6 1.061e+04 2.852e-10
 43.49669   -164.5 1.078e+04 3.705e-10
 43.53688   -165.2 1.081e+04 4.034e-10
 43.55791   -165.8 1.076e+04 4.041e-10
 43.57562   -164.2 1.082e+04 4.074e-10
 43.59479   -164.1 1.077e+04 3.942e-10
 43.61726   -164.4 1.054e+04 3.741e-10
 43.65745   -164.3 1.026e+04 3.045e-10
 43.69764   -164.2 1.004e+04 2.393e-10
 43.73291   -163.9 9.881e+03 1.947e-10
 43.75300   -162.7 1.003e+04 2.443e-10
 43.77802   -162.1 9.864e+03 2.045e-10
 43.81821   -161.1 9.744e+03 1.756e-10
 43.85840   -160.1 9.652e+03 1.500e-10
 43.89859   -159.0 9.562e+03 1.263e-10
 43.92801   -157.9 9.465e+03 1.070e-10
 43.93807   -156.8 9.493e+03 1.021e-10
 43.94885   -156.3 9.512e+03 1.272e-10
 43.97897   -155.2 9.459e+03 1.147e-10
 44.01916   -154.1 9.456e+03 1.106e-10
 44.05935   -153.0 9.460e+03 1.100e-10
 44.09954   -152.2 9.565e+03 1.127e-10
 44.12311   -151.8 9.702e+03 1.254e-10
 44.14320   -151.1 9.798e+03 1.233e-10
 44.17992   -151.0 9.916e+03 1.613e-10
 44.22011   -151.0 1.009e+04 2.200e-10
 44.26030   -151.3 1.036e+04 3.095e-10
 44.28281   -151.7 1.071e+04 4.337e-10
 44.30052   -151.7 1.066e+04 4.176e-10
 44.31821   -150.9 1.083e+04 4.801e-10
 44.34068   -151.8 1.107e+04 5.695e-10
 44.38087   -153.1 1.123e+04 6.325e-10
 44.42106   -154.5 1.132e+04 6.694e-10
 44.46125   -156.3 1.138e+04 6.851e-10
 44.49321   -158.9 1.155e+04 7.076e-10
 44.51330   -157.7 1.141e+04 5.972e-10
 44.54163   -161.8 1.232e+04 7.877e-10
 44.57168   -166.5 1.363e+04 1.434e-09
 44.59056   -168.9 1.451e+04 2.332e-09
 44.60061   -167.9 1.441e+04 2.304e-09
 44.61177   -169.8 1.517e+04 3.660e-09
 44.62662   -171.4 1.565e+04 5.044e-09
 44.63666   -171.9 1.515e+04 4.236e-09
 44.65196   -173.6 1.517e+04 4.358e-09
 44.67206   -174.9 1.471e+04 3.969e-09
 44.68811   -175.7 1.380e+04 2.525e-09
 44.69816   -174.9 1.398e+04 2.792e-09
 44.71225   -175.8 1.285e+04 1.455e-09
 44.73234   -176.7 1.159e+04 6.932e-10
 44.75244   -177.6 1.055e+04 3.646e-10
 44.77253   -178.0 1.007e+04 2.467e-10
 44.78566   -178.0 9.913e+03 2.159e-10
 44.79571   -177.6 9.947e+03 2.235e-10
 44.82287   -177.7 9.797e+03 1.918e-10
 44.86315   -176.3 9.492e+03 1.451e-10
 44.90334   -173.6 9.516e+03 1.539e-10
 44.94353   -172.1 9.506e+03 1.452e-10
 44.97082   -171.0 9.523e+03 1.445e-10
 44.99091   -172.2 9.816e+03 1.744e-10
 45.02391   -171.7 1.054e+04 3.122e-10
 45.05841   -171.0 1.115e+04 5.561e-10
 45.07841   -170.5 1.138e+04 6.570e-10
 45.09405   -170.3 1.170e+04 8.768e-10
 45.11415   -170.2 1.194e+04 1.082e-09
 45.14439   -170.3 1.210e+04 1.259e-09
 45.18467   -170.0 1.217e+04 1.376e-09
 45.22486   -170.1 1.203e+04 1.334e-09
 45.25351   -170.4 1.193e+04 1.152e-09
 45.27360   -169.5 1.214e+04 1.304e-09
 45.29510   -170.6 1.195e+04 1.078e-09
 45.31463   -171.6 1.202e+04 1.070e-09
 45.32468   -175.8 1.244e+04 9.206e-10
 45.33519   -180.3 1.433e+04 1.169e-09
 45.35086   -185.3 1.725e+04 3.053e-09
 45.36091   -185.1 1.732e+04 3.340e-09
 45.37538   -188.3 1.860e+04 8.058e-09
 45.39548   -190.7 1.917e+04 1.356e-08
 45.41557   -193.2 1.924e+04 1.570e-08
 45.43567   -195.3 1.905e+04 1.573e-08
 45.44841   -196.7 1.806e+04 1.166e-08
 45.45846   -195.7 1.825e+04 1.127e-08
 45.47586   -197.6 1.685e+04 5.677e-09
 45.49166   -200.0 1.504e+04 2.755e-09
 45.50171   -202.3 1.360e+04 1.818e-09
 45.51605   -203.7 1.268e+04 1.271e-09
 45.53592   -204.1 1.236e+04 1.127e-09
 45.54596   -204.2 1.219e+04 9.995e-10
 45.55624   -204.2 1.210e+04 9.585e-10
 45.57633   -203.9 1.211e+04 9.329e-10
 45.59643   -203.6 1.213e+04 9.245e-10
 45.61652   -203.6 1.213e+04 9.247e-10
 45.63346   -203.6 1.215e+04 9.255e-10
 45.64351   -203.6 1.218e+04 8.558e-10
 45.65671   -203.9 1.233e+04 8.775e-10
 45.66869   -204.2 1.247e+04 9.367e-10
 45.67873   -204.1 1.237e+04 9.801e-10
 45.69690   -204.4 1.254e+04 1.080e-09
 45.71700   -204.8 1.268e+04 1.194e-09
 45.73101   -205.2 1.277e+04 1.306e-09
 45.74106   -205.5 1.266e+04 1.222e-09
 45.75719   -205.9 1.266e+04 1.317e-09
 45.77728   -206.3 1.261e+04 1.376e-09
 45.79738   -206.7 1.259e+04 1.392e-09
 45.81747   -207.1 1.251e+04 1.398e-09
 45.82856   -207.4 1.226e+04 1.371e-09
 45.83671   -207.7 1.228e+04 1.360e-09
 45.84571   -207.6 1.216e+04 1.304e-09
 45.85766   -207.9 1.192e+04 1.222e-09
 45.87776   -208.1 1.170e+04 1.104e-09
 45.89785   -208.2 1.148e+04 9.849e-10
 45.91607   -208.3 1.126e+04 8.736e-10
 45.92611   -208.4 1.123e+04 8.529e-10
 45.93804   -208.4 1.103e+04 7.522e-10
 45.95814   -208.4 1.085e+04 6.663e-10
 45.97823   -208.3 1.068e+04 5.966e-10
 45.99833   -208.2 1.055e+04 5.486e-10
 46.01279   -208.1 1.044e+04 5.045e-10
 46.01813   -207.5 1.031e+04 4.781e-10
 46.03390   -207.8 1.009e+04 3.809e-10
 46.06885   -207.3 9.867e+03 3.164e-10
 46.10904   -206.9 9.761e+03 2.890e-10
 46.14923   -206.4 9.710e+03 2.774e-10
 46.18881   -206.0 9.692e+03 2.730e-10
 46.20891   -205.9 9.857e+03 3.104e-10
 46.22961   -205.8 9.914e+03 3.304e-10
 46.26980   -205.7 9.939e+03 3.527e-10
 46.30999   -205.7 9.904e+03 3.631e-10
 46.34685   -205.5 9.861e+03 3.637e-10
 46.36694   -205.0 9.511e+03 2.866e-10
 46.38391   -204.2 9.376e+03 2.790e-10
 46.40401   -204.4 9.473e+03 2.958e-10
 46.43056   -203.4 9.372e+03 2.636e-10
 46.47075   -202.0 9.300e+03 2.438e-10
 46.51094   -200.5 9.286e+03 2.345e-10
 46.55113   -198.6 9.288e+03 2.317e-10
 46.57901   -196.5 9.301e+03 2.308e-10
 46.59911   -196.6 9.220e+03 2.195e-10
 46.63151   -194.3 9.236e+03 2.191e-10
 46.67170   -192.2 9.311e+03 2.219e-10
 46.70090   -190.9 9.476e+03 2.462e-10
 46.72100   -189.9 9.039e+03 1.621e-10
 46.75208   -189.0 9.394e+03 1.939e-10
 46.77411   -188.9 1.051e+04 3.383e-10
 46.79420   -189.5 1.048e+04 3.930e-10
 46.83246   -189.8 1.174e+04 7.693e-10
 46.86151   -190.1 1.282e+04 1.483e-09
 46.87146   -190.4 1.277e+04 1.518e-09
 46.87773   -190.6 1.342e+04 2.165e-09
 46.88778   -190.2 1.306e+04 1.632e-09
 46.90260   -190.3 1.379e+04 2.320e-09
 46.92270   -190.7 1.456e+04 3.296e-09
 46.94279   -191.4 1.506e+04 4.167e-09
 46.95897   -192.2 1.522e+04 4.577e-09
 46.96901   -192.9 1.521e+04 4.605e-09
 46.98298   -193.9 1.519e+04 4.644e-09
 47.00308   -194.5 1.474e+04 4.225e-09
 47.02317   -194.9 1.402e+04 3.252e-09
 47.04327   -195.4 1.319e+04 2.345e-09
 47.05476   -196.2 1.241e+04 1.692e-09
 47.05796   -195.6 1.286e+04 1.871e-09
 47.06656   -196.1 1.257e+04 1.680e-09
 47.08346   -196.8 1.189e+04 1.294e-09
 47.10355   -197.3 1.137e+04 1.051e-09
 47.12365   -197.8 1.101e+04 9.037e-10
 47.14374   -198.1 1.077e+04 8.091e-10
 47.15406   -198.5 1.062e+04 7.376e-10
 47.16411   -198.6 1.043e+04 6.389e-10
 47.18393   -199.1 1.032e+04 5.771e-10
 47.20403   -199.9 1.025e+04 5.239e-10
 47.22174   -201.1 1.023e+04 4.851e-10
 47.23179   -200.9 1.049e+04 5.380e-10
 47.24157   -202.4 1.050e+04 5.229e-10
 47.25161   -202.3 1.039e+04 4.921e-10
 47.26431   -204.0 1.040e+04 4.916e-10
 47.28441   -205.9 1.050e+04 5.083e-10
 47.30450   -207.8 1.068e+04 5.504e-10
 47.32460   -209.8 1.083e+04 6.023e-10
 47.33912   -211.7 1.096e+04 6.444e-10
 47.35931   -211.4 1.078e+04 5.921e-10
 47.38892   -214.7 1.075e+04 6.191e-10
 47.40901   -214.7 1.099e+04 7.188e-10
 47.43531   -217.8 1.078e+04 7.161e-10
 47.47550   -219.8 1.040e+04 6.471e-10
 47.51431   -220.8 1.014e+04 5.754e-10
 47.53441   -219.4 1.001e+04 4.980e-10
 47.55588   -220.1 9.971e+03 4.807e-10
 47.59607   -220.5 9.970e+03 4.787e-10
 47.63626   -220.8 9.985e+03 4.809e-10
 47.67645   -220.9 9.989e+03 4.829e-10
 47.70941   -220.9 9.956e+03 4.804e-10
 47.72951   -219.8 9.719e+03 3.988e-10
 47.74297   -219.2 9.602e+03 3.763e-10
 47.76307   -218.8 9.723e+03 3.815e-10
 47.79702   -218.0 9.592e+03 3.590e-10
 47.83721   -217.0 9.452e+03 3.332e-10
 47.87740   -215.7 9.306e+03 3.039e-10
 47.90451   -214.3 9.161e+03 2.729e-10
 47.92461   -213.3 9.131e+03 2.651e-10
 47.95778   -211.7 9.028e+03 2.427e-10
 47.99797   -210.0 8.934e+03 2.220e-10
 48.03816   -208.3 8.866e+03 2.074e-10
 48.07693   -206.4 8.840e+03 2.013e-10
 48.09703   -207.1 8.929e+03 2.234e-10
 48.09961   -205.4 8.931e+03 2.233e-10
 48.11971   -204.7 8.951e+03 2.161e-10
 48.15873   -203.2 8.984e+03 2.172e-10
 48.19892   -201.8 9.059e+03 2.237e-10
 48.23911   -200.6 9.140e+03 2.325e-10
 48.27461   -199.5 9.226e+03 2.435e-10
 48.29471   -198.7 9.147e+03 2.124e-10
 48.31949   -197.6 9.258e+03 2.287e-10
 48.35968   -196.5 9.414e+03 2.583e-10
 48.39987   -195.3 9.596e+03 3.048e-10
 48.43098   -194.1 9.776e+03 3.625e-10
 48.45108   -195.8 9.682e+03 3.341e-10
 48.46971   -194.3 9.730e+03 3.501e-10
 48.48981   -193.1 9.719e+03 3.543e-10
 48.52044   -191.4 9.749e+03 3.578e-10
 48.56063   -189.6 9.768e+03 3.584e-10
 48.60082   -187.7 9.818e+03 3.604e-10
 48.64101   -185.7 9.905e+03 3.703e-10
 48.66481   -183.9 1.003e+04 3.914e-10
 48.68491   -183.1 1.002e+04 3.885e-10
 48.72139   -181.6 1.012e+04 4.131e-10
 48.76158   -180.2 1.020e+04 4.426e-10
 48.78504   -178.7 1.029e+04 4.761e-10
 48.80513   -178.9 1.004e+04 3.368e-10
 48.83982   -177.6 1.023e+04 4.083e-10
 48.85991   -177.3 1.021e+04 4.074e-10
 48.88215   -176.1 1.043e+04 4.921e-10
 48.92234   -175.0 1.067e+04 5.881e-10
 48.96253   -173.9 1.095e+04 6.965e-10
 49.00272   -172.9 1.127e+04 8.163e-10
 49.03491   -171.9 1.157e+04 9.327e-10
 49.05501   -171.9 1.157e+04 9.322e-10
 49.07296   -171.1 1.180e+04 1.022e-09
 49.09296   -171.0 1.189e+04 1.049e-09
 49.11305   -170.8 1.197e+04 1.073e-09
 49.12885   -170.7 1.195e+04 1.064e-09
 49.13802   -170.6 1.224e+04 1.270e-09
 49.14232   -170.9 1.209e+04 1.185e-09
 49.15324   -170.4 1.194e+04 1.088e-09
 49.17334   -169.9 1.175e+04 9.589e-10
 49.19343   -169.3 1.150e+04 8.273e-10
 49.21353   -168.5 1.127e+04 7.144e-10
 49.22982   -167.6 1.107e+04 6.178e-10
 49.23987   -167.7 1.099e+04 5.735e-10
 49.25372   -166.7 1.087e+04 4.974e-10
 49.27381   -165.7 1.081e+04 4.401e-10
 49.29391   -164.8 1.080e+04 4.104e-10
 49.32415   -163.9 1.079e+04 3.964e-10
 49.36443   -161.2 1.069e+04 3.579e-10
 49.40462   -158.6 1.065e+04 3.275e-10
 49.42511   -156.3 1.066e+04 3.209e-10
 49.44521   -156.4 1.069e+04 3.247e-10
 49.47305   -154.6 1.082e+04 3.573e-10
 49.49315   -154.9 1.121e+04 5.714e-10
 49.52519   -153.1 1.132e+04 6.315e-10
 49.56538   -151.5 1.141e+04 6.791e-10
 49.60012   -150.1 1.146e+04 7.028e-10
 49.62021   -150.4 1.156e+04 7.477e-10
 49.64576   -148.9 1.150e+04 7.288e-10
 49.68595   -147.3 1.140e+04 6.651e-10
 49.72614   -145.7 1.128e+04 5.798e-10
 49.76633   -144.0 1.117e+04 4.895e-10
 49.79521   -142.2 1.107e+04 4.045e-10
 49.81531   -142.3 1.111e+04 4.528e-10
 49.82711   -140.5 1.102e+04 3.869e-10
 49.84720   -140.5 1.104e+04 3.869e-10
 49.88690   -138.5 1.098e+04 3.352e-10
 49.92709   -136.4 1.096e+04 2.947e-10
 49.96728   -134.2 1.096e+04 2.658e-10
 49.99031   -131.9 1.099e+04 2.488e-10
 50.01041   -131.8 1.097e+04 2.658e-10
 50.04766   -129.4 1.102e+04 2.566e-10
 50.08785   -127.0 1.104e+04 2.558e-10
 50.12804   -124.6 1.108e+04 2.576e-10
 50.16107   -122.5 1.132e+04 2.648e-10
 50.17825   -122.8 1.143e+04 2.849e-10
 50.18541   -122.9 1.135e+04 2.794e-10
 50.20842   -121.0 1.145e+04 3.244e-10
 50.24861   -119.3 1.159e+04 4.014e-10
 50.28880   -117.9 1.178e+04 5.174e-10
 50.32899   -116.7 1.200e+04 6.609e-10
 50.36042   -115.7 1.219e+04 7.885e-10
 50.38051   -116.2 1.220e+04 8.047e-10
 50.40937   -115.6 1.228e+04 8.648e-10
 50.44956   -114.8 1.228e+04 8.762e-10
 50.48975   -113.7 1.215e+04 8.006e-10
 50.51502   -112.7 1.193e+04 6.187e-10
 50.53512   -112.5 1.163e+04 4.442e-10
 50.55551   -110.8 1.150e+04 3.807e-10
 50.57561   -111.0 1.149e+04 3.930e-10
 50.61032   -109.3 1.138e+04 3.496e-10
 50.65051   -107.8 1.127e+04 3.319e-10
 50.69070   -106.1 1.123e+04 3.283e-10
 50.73052   -104.4 1.124e+04 3.353e-10
 50.75061   -104.5 1.120e+04 3.188e-10
 50.77108   -102.8 1.124e+04 3.162e-10
 50.81127   -101.2 1.134e+04 3.188e-10
 50.84908    -99.9 1.143e+04 3.320e-10
 50.86918   -100.2 1.120e+04 2.927e-10
 50.89165    -99.1 1.123e+04 3.296e-10
 50.92562    -98.0 1.127e+04 3.687e-10
 50.94571    -98.2 1.119e+04 3.633e-10
 50.97203    -97.2 1.119e+04 3.820e-10
 51.01222    -96.2 1.119e+04 3.877e-10
 51.05241    -95.1 1.104e+04 3.795e-10
 51.09260    -93.7 1.088e+04 3.168e-10
 51.12072    -92.1 1.073e+04 2.392e-10
 51.14081    -92.0 1.066e+04 2.009e-10
 51.17298    -90.3 1.055e+04 1.528e-10
 51.20314    -88.6 1.051e+04 1.307e-10
 51.22323    -88.4 1.046e+04 1.233e-10
 51.25336    -86.6 1.045e+04 1.178e-10
 51.29355    -84.8 1.047e+04 1.183e-10
 51.31582    -83.1 1.057e+04 1.388e-10
 51.33591    -82.8 1.062e+04 1.506e-10
 51.37393    -81.2 1.072e+04 2.002e-10
 51.41412    -79.4 1.082e+04 2.488e-10
 51.45431    -77.7 1.089e+04 2.748e-10
 51.49082    -76.1 1.091e+04 2.795e-10
 51.51091    -75.8 1.108e+04 3.074e-10
 51.53469    -74.2 1.106e+04 3.007e-10
 51.55719    -72.5 1.101e+04 2.783e-10
 51.57729    -71.7 1.096e+04 2.592e-10
 51.61507    -70.2 1.097e+04 2.532e-10
 51.65526    -68.9 1.103e+04 2.556e-10
 51.68592    -67.8 1.122e+04 2.881e-10
 51.70601    -68.0 1.121e+04 2.878e-10
 51.73564    -67.0 1.128e+04 3.060e-10
 51.77583    -66.1 1.129e+04 3.097e-10
 51.81602    -65.1 1.128e+04 2.782e-10
 51.85621    -63.9 1.122e+04 2.097e-10
 51.88102    -62.6 1.119e+04 1.420e-10
 51.89586    -62.7 1.090e+04 1.321e-10
 51.91124    -63.1 1.113e+04 1.278e-10
 51.93659    -62.1 1.113e+04 8.901e-11
 51.97678    -61.1 1.108e+04 7.635e-11
 52.01697    -60.0 1.108e+04 7.392e-11
 52.05602    -58.8 1.120e+04 7.659e-11
 52.07612    -58.6 1.109e+04 7.433e-11
 52.09735    -57.5 1.111e+04 9.559e-11
 52.13754    -56.2 1.107e+04 1.293e-10
 52.17773    -54.6 1.110e+04 1.609e-10
 52.21792    -53.2 1.117e+04 1.767e-10
 52.24520    -52.0 1.120e+04 1.786e-10
 52.25831    -53.2 1.119e+04 1.571e-10
 52.27121    -52.9 1.115e+04 1.548e-10
 52.29830    -51.8 1.112e+04 1.553e-10
 52.33849    -50.7 1.102e+04 1.518e-10
 52.37868    -49.5 1.091e+04 1.416e-10
 52.41887    -48.1 1.084e+04 1.256e-10
 52.44622    -46.6 1.079e+04 1.073e-10
 52.46631    -46.4 1.077e+04 1.053e-10
 52.49925    -44.9 1.078e+04 8.622e-11
 52.53944    -43.6 1.080e+04 7.464e-11
 52.57916    -42.4 1.081e+04 7.143e-11
 52.59926    -43.4 1.075e+04 8.430e-11
 52.61982    -42.1 1.066e+04 9.264e-11
 52.64132    -40.7 1.057e+04 1.088e-10
 52.66141    -40.4 1.057e+04 1.056e-10
 52.70020    -38.8 1.053e+04 1.248e-10
 52.74039    -37.1 1.055e+04 1.406e-10
 52.78058    -35.6 1.055e+04 1.543e-10
 52.81632    -34.2 1.057e+04 1.624e-10
 52.83642    -33.9 1.065e+04 1.755e-10
 52.86096    -32.9 1.067e+04 1.792e-10
 52.90115    -32.1 1.070e+04 1.824e-10
 52.93322    -31.8 1.089e+04 1.967e-10
 52.95331    -32.3 1.067e+04 1.285e-10
 52.98153    -32.4 1.091e+04 1.720e-10
 53.01142    -32.5 1.120e+04 2.722e-10
 53.03151    -32.2 1.126e+04 2.814e-10
 53.05177    -32.2 1.148e+04 3.931e-10
 53.07177    -32.5 1.163e+04 5.049e-10
 53.09186    -32.5 1.184e+04 7.189e-10
 53.10877    -32.3 1.206e+04 9.186e-10
 53.11692    -32.3 1.225e+04 1.027e-09
 53.12010    -32.3 1.208e+04 9.130e-10
 53.13205    -32.1 1.236e+04 1.206e-09
 53.15215    -32.2 1.251e+04 1.347e-09
 53.17224    -32.2 1.274e+04 1.611e-09
 53.19234    -32.5 1.286e+04 1.751e-09
 53.20632    -33.0 1.302e+04 2.086e-09
 53.21637    -33.1 1.331e+04 2.446e-09
 53.23253    -33.3 1.341e+04 2.742e-09
 53.25262    -33.4 1.343e+04 2.842e-09
 53.27272    -33.6 1.337e+04 2.833e-09
 53.28708    -33.7 1.305e+04 2.538e-09
 53.29712    -34.1 1.315e+04 2.469e-09
 53.30387    -34.4 1.277e+04 2.111e-09
 53.31392    -35.1 1.276e+04 2.091e-09
 53.33300    -35.4 1.234e+04 1.759e-09
 53.35310    -35.6 1.202e+04 1.532e-09
 53.38142    -35.6 1.172e+04 1.297e-09
 53.40162    -36.3 1.164e+04 1.258e-09
 53.42362    -35.7 1.093e+04 8.205e-10
 53.46381    -34.7 1.030e+04 5.133e-10
 53.50400    -33.5 9.877e+03 3.352e-10
 53.54419    -32.1 9.599e+03 2.486e-10
 53.57662    -30.5 9.414e+03 2.149e-10
 53.59672    -31.0 9.234e+03 1.822e-10
 53.62123    -29.1 9.196e+03 1.799e-10
 53.64133    -29.7 9.008e+03 1.650e-10
 53.66476    -27.9 9.053e+03 1.824e-10
 53.70495    -26.3 9.169e+03 2.278e-10
 53.74514    -24.9 9.445e+03 3.239e-10
 53.77172    -23.6 9.878e+03 4.917e-10
 53.79181    -24.8 9.843e+03 4.942e-10
 53.82552    -24.0 1.027e+04 6.735e-10
 53.86571    -23.5 1.066e+04 8.492e-10
 53.90590    -23.1 1.090e+04 9.399e-10
 53.94609    -23.0 1.094e+04 9.215e-10
 53.96682    -23.3 1.079e+04 8.561e-10
 53.97592    -24.5 9.773e+03 4.447e-10
 53.99538    -25.6 9.562e+03 3.617e-10
 54.02647    -26.4 9.778e+03 4.521e-10
 54.06666    -26.7 1.036e+04 7.726e-10
 54.10685    -26.2 1.095e+04 1.164e-09
 54.14182    -25.8 1.125e+04 1.376e-09
 54.16192    -26.1 1.070e+04 1.061e-09
 54.18723    -26.0 1.060e+04 1.001e-09
 54.22742    -25.8 9.970e+03 6.346e-10
 54.26761    -26.2 9.298e+03 3.815e-10
 54.30780    -26.7 8.945e+03 3.014e-10
 54.32934    -26.5 8.839e+03 2.898e-10
 54.33836    -27.2 8.859e+03 3.010e-10
 54.35702    -27.3 8.490e+03 2.237e-10
 54.38818    -26.1 8.660e+03 3.012e-10
 54.42837    -24.4 8.781e+03 3.499e-10
 54.46856    -22.6 8.789e+03 3.567e-10
 54.50875    -20.8 8.655e+03 3.161e-10
 54.53202    -19.1 8.471e+03 2.616e-10
 54.55211    -19.3 8.547e+03 2.873e-10
 54.58913    -18.1 8.527e+03 2.760e-10
 54.62932    -17.2 8.758e+03 3.295e-10
 54.66330    -16.1 9.295e+03 5.127e-10
 54.68340    -16.2 9.101e+03 4.472e-10
 54.70702    -14.6 9.650e+03 6.657e-10
 54.72712    -15.1 9.720e+03 7.032e-10
 54.74989    -13.9 1.012e+04 8.473e-10
 54.79008    -13.4 1.032e+04 9.310e-10
 54.83027    -12.9 1.030e+04 9.291e-10
 54.87046    -12.3 1.015e+04 8.622e-10
 54.90212    -11.5 9.923e+03 7.586e-10
 54.92222    -11.8 9.282e+03 5.229e-10
 54.95084    -11.0 9.110e+03 4.765e-10
 54.99103    -10.1 9.022e+03 4.607e-10
 55.01736     -9.2 9.008e+03 4.627e-10
 55.03745     -9.3 9.230e+03 5.317e-10
 55.07141     -8.5 9.230e+03 5.252e-10
 55.09722     -8.0 9.251e+03 5.215e-10
 55.11732     -8.0 9.348e+03 5.651e-10
 55.15179     -7.8 9.544e+03 6.387e-10
 55.18184     -7.3 9.590e+03 6.591e-10
 55.19419     -7.3 9.588e+03 6.589e-10
 55.19697     -7.6 9.718e+03 7.055e-10
 55.20462     -7.8 9.952e+03 8.009e-10
 55.22193     -7.9 1.012e+04 8.906e-10
 55.24203     -7.9 1.016e+04 9.144e-10
 55.26212     -7.7 1.014e+04 9.122e-10
 55.28208     -7.6 1.001e+04 8.409e-10
 55.29212     -7.8 1.002e+04 8.413e-10
 55.30231     -8.0 9.700e+03 7.031e-10
 55.32241     -8.1 9.423e+03 5.867e-10
 55.34250     -8.4 9.199e+03 4.893e-10
 55.36117     -8.8 9.122e+03 4.322e-10
 55.37121     -9.4 9.091e+03 4.101e-10
 55.37963    -10.0 8.925e+03 3.775e-10
 55.38967    -10.8 8.816e+03 3.434e-10
 55.40279    -10.8 8.771e+03 3.405e-10
 55.42288    -10.7 8.832e+03 3.648e-10
 55.44298    -10.8 8.927e+03 4.036e-10
 55.46307    -10.5 9.193e+03 4.979e-10
 55.47717    -10.3 9.414e+03 5.739e-10
 55.48722    -11.1 9.457e+03 6.055e-10
 55.50326    -10.8 9.642e+03 7.238e-10
 55.52336    -10.7 1.004e+04 9.092e-10
 55.53819    -11.9 1.144e+04 1.320e-09
 55.54824    -12.2 1.153e+04 1.232e-09
 55.56355    -15.3 1.413e+04 2.325e-09
 55.57472    -18.1 1.617e+04 4.762e-09
 55.58477    -21.2 1.668e+04 7.838e-09
 55.60374    -21.7 1.703e+04 1.009e-08
 55.62383    -21.4 1.730e+04 1.154e-08
 55.64393    -20.7 1.723e+04 1.166e-08
 55.66223    -20.1 1.691e+04 9.394e-09
 55.67227    -21.3 1.541e+04 4.317e-09
 55.68412    -22.3 1.444e+04 2.166e-09
 55.70421    -23.8 1.275e+04 1.127e-09
 55.71522    -25.4 1.189e+04 7.959e-10
 55.72537    -28.3 1.142e+04 5.418e-10
 55.75464    -31.4 9.643e+03 3.556e-10
 55.79483    -32.4 9.433e+03 4.056e-10
 55.83502    -31.4 9.737e+03 5.621e-10
 55.85752    -30.3 1.007e+04 7.278e-10
 55.87762    -31.3 1.023e+04 7.809e-10
 55.91540    -30.3 1.065e+04 9.971e-10
 55.95559    -29.6 1.079e+04 1.059e-09
 55.99578    -29.4 1.071e+04 9.811e-10
 56.03252    -29.6 1.043e+04 8.227e-10
 56.05262    -30.7 1.024e+04 7.287e-10
 56.05942    -31.1 9.849e+03 5.693e-10
 56.07952    -30.3 1.022e+04 6.860e-10
 56.11635    -30.6 9.681e+03 4.852e-10
 56.15654    -30.9 9.084e+03 3.187e-10
 56.19673    -31.1 8.661e+03 2.110e-10
 56.22762    -31.1 8.366e+03 1.516e-10
 56.24772    -30.8 8.353e+03 1.553e-10
 56.27711    -29.8 8.240e+03 1.392e-10
 56.31730    -28.2 8.231e+03 1.371e-10
 56.35749    -26.4 8.275e+03 1.390e-10
 56.39338    -24.5 8.315e+03 1.345e-10
 56.41348    -24.1 8.246e+03 1.217e-10
 56.42272    -22.1 8.299e+03 1.159e-10
 56.44282    -21.8 8.226e+03 1.057e-10
 56.47806    -20.0 8.251e+03 1.006e-10
 56.51825    -18.2 8.329e+03 1.072e-10
 56.55844    -16.5 8.466e+03 1.373e-10
 56.59773    -14.5 8.686e+03 1.921e-10
 56.61782    -14.6 8.516e+03 1.534e-10
 56.63882    -12.7 8.799e+03 2.100e-10
 56.67901    -10.7 9.134e+03 2.762e-10
 56.71920     -9.1 9.416e+03 3.421e-10
 56.74744     -7.4 9.718e+03 4.009e-10
 56.76753     -7.4 9.509e+03 3.077e-10
 56.79282     -6.5 9.853e+03 3.584e-10
 56.81292     -7.1 9.606e+03 3.056e-10
 56.83977     -6.5 9.786e+03 3.633e-10
 56.87996     -5.4 9.922e+03 4.350e-10
 56.92015     -4.2 1.003e+04 4.834e-10
 56.96034     -3.3 1.014e+04 5.056e-10
 56.98792     -2.6 1.040e+04 5.680e-10
 57.00802     -3.0 1.005e+04 4.325e-10
 57.04072     -2.2 1.012e+04 4.187e-10
 57.08091     -1.5 1.010e+04 3.988e-10
 57.10149     -0.1 9.983e+03 4.001e-10
 57.12159      0.9 9.925e+03 3.658e-10
 57.16129      2.2 1.013e+04 3.189e-10
 57.18302      3.0 1.025e+04 3.057e-10
 57.20312      2.0 1.033e+04 3.134e-10
 57.24167      1.8 1.047e+04 4.002e-10
 57.28186      2.2 1.097e+04 6.056e-10
 57.32205      2.2 1.178e+04 1.008e-09
 57.35803      2.8 1.234e+04 1.505e-09
 57.37812      2.9 1.109e+04 5.856e-10
 57.40243      3.0 1.077e+04 5.256e-10
 57.43545      4.1 1.036e+04 3.898e-10
 57.45555      4.8 1.043e+04 4.008e-10
 57.48281      6.0 1.026e+04 2.577e-10
 57.52300      6.8 9.968e+03 1.971e-10
 57.55312      8.3 9.642e+03 1.796e-10
 57.57322      8.9 9.739e+03 2.080e-10
 57.60338     10.8 9.664e+03 2.164e-10
 57.64357     12.7 9.683e+03 2.042e-10
 57.68376     14.2 9.752e+03 2.050e-10
 57.72395     15.2 9.897e+03 2.432e-10
 57.74822     16.1 9.801e+03 3.062e-10
 57.76832     16.3 1.054e+04 5.470e-10
 57.78951     17.4 1.040e+04 5.926e-10
 57.80960     17.5 1.040e+04 5.706e-10
 57.84452     18.8 1.012e+04 4.886e-10
 57.88471     20.1 9.675e+03 3.435e-10
 57.92323     21.4 9.296e+03 2.194e-10
 57.94332     21.3 9.651e+03 2.588e-10
 57.96509     21.9 9.355e+03 1.688e-10
 58.00528     23.0 9.075e+03 1.512e-10
 58.04547     24.6 9.109e+03 1.595e-10
 58.08566     26.2 9.381e+03 2.044e-10
 58.11833     27.9 9.576e+03 2.580e-10
 58.13594     27.6 1.024e+04 3.832e-10
 58.14337     27.6 1.043e+04 4.131e-10
 58.15580     28.3 1.066e+04 5.198e-10
 58.17589     29.1 1.091e+04 6.277e-10
 58.19599     29.9 1.122e+04 7.267e-10
 58.21568     30.2 1.169e+04 8.605e-10
 58.22573     29.1 1.247e+04 1.586e-09
 58.23618     28.8 1.302e+04 2.044e-09
 58.25627     28.8 1.352e+04 2.727e-09
 58.27637     29.3 1.388e+04 3.470e-09
 58.29646     30.2 1.410e+04 3.924e-09
 58.31035     31.4 1.405e+04 3.706e-09
 58.31706     31.3 1.445e+04 5.005e-09
 58.32328     31.3 1.459e+04 5.534e-09
 58.33665     32.3 1.433e+04 4.807e-09
 58.35675     33.2 1.396e+04 3.742e-09
 58.37684     33.6 1.359e+04 2.806e-09
 58.40709     33.3 1.277e+04 1.275e-09
 58.44737     33.0 1.248e+04 7.636e-10
 58.47752     33.1 1.240e+04 6.708e-10
 58.49752     32.4 1.318e+04 1.587e-09
 58.50833     32.5 1.328e+04 1.653e-09
 58.51837     31.7 1.290e+04 1.342e-09
 58.53760     31.9 1.297e+04 1.464e-09
 58.55770     32.0 1.305e+04 1.599e-09
 58.57779     32.4 1.308e+04 1.791e-09
 58.59583     32.9 1.316e+04 1.970e-09
 58.60588     32.6 1.286e+04 1.695e-09
 58.61798     33.2 1.287e+04 1.782e-09
 58.63808     34.2 1.295e+04 1.833e-09
 58.65435     34.6 1.327e+04 1.953e-09
 58.66440     34.2 1.400e+04 2.937e-09
 58.67827     33.3 1.498e+04 3.461e-09
 58.69338     30.9 1.662e+04 5.599e-09
 58.70343     31.5 1.560e+04 2.745e-09
 58.71846     29.5 1.684e+04 4.239e-09
 58.73855     27.9 1.746e+04 6.300e-09
 58.75865     26.6 1.750e+04 8.293e-09
 58.77874     25.9 1.713e+04 9.092e-09
 58.79093     25.3 1.670e+04 8.273e-09
 58.80098     23.6 1.603e+04 7.368e-09
 58.81893     23.8 1.586e+04 6.977e-09
 58.83138     24.1 1.555e+04 6.225e-09
 58.84143     23.3 1.534e+04 5.762e-09
 58.85912     23.1 1.503e+04 4.988e-09
 58.87843     23.0 1.470e+04 4.500e-09
 58.88848     23.0 1.441e+04 3.874e-09
 58.89931     22.8 1.429e+04 3.778e-09
 58.91941     22.9 1.427e+04 3.830e-09
 58.93950     23.3 1.434e+04 4.015e-09
 58.95960     23.7 1.457e+04 4.263e-09
 58.97598     23.8 1.492e+04 4.571e-09
 58.98603     22.8 1.430e+04 2.997e-09
 58.99836     22.4 1.447e+04 3.331e-09
 59.00841     21.6 1.442e+04 3.702e-09
 59.01988     21.5 1.435e+04 3.880e-09
 59.03998     21.9 1.412e+04 3.877e-09
 59.06007     22.6 1.381e+04 3.673e-09
 59.07353     23.9 1.340e+04 2.981e-09
 59.09372     23.1 1.256e+04 1.493e-09
 59.13060     24.0 1.171e+04 7.523e-10
 59.16553     23.6 1.071e+04 3.454e-10
 59.18563     21.7 1.018e+04 2.524e-10
 59.21098     21.7 1.013e+04 2.546e-10
 59.24873     22.2 1.033e+04 3.370e-10
 59.26882     21.7 1.024e+04 3.420e-10
 59.29136     22.7 1.043e+04 4.689e-10
 59.33155     23.7 1.071e+04 5.911e-10
 59.37174     24.7 1.092e+04 7.313e-10
 59.40179     25.1 1.088e+04 6.758e-10
 59.42178     25.1 1.092e+04 6.599e-10
 59.44188     25.2 1.093e+04 6.591e-10
 59.45368     25.3 1.095e+04 6.582e-10
 59.46373     24.7 1.061e+04 5.113e-10
 59.48207     24.6 1.060e+04 5.109e-10
 59.50216     24.5 1.056e+04 5.118e-10
 59.51939     24.5 1.047e+04 5.105e-10
 59.52944     23.9 1.026e+04 4.307e-10
 59.54118     23.9 1.022e+04 4.359e-10
 59.55123     23.3 1.011e+04 4.258e-10
 59.57260     23.9 1.001e+04 4.240e-10
 59.61288     24.2 9.895e+03 4.459e-10
 59.63893     24.4 9.847e+03 4.634e-10
 59.65902     22.5 9.919e+03 4.300e-10
 59.69326     22.5 1.010e+04 4.467e-10
 59.72331     22.5 1.019e+04 4.773e-10
 59.73628     22.2 1.033e+04 5.002e-10
 59.74633     21.4 1.031e+04 5.181e-10
 59.77355     22.1 1.021e+04 4.693e-10
 59.81383     22.3 1.012e+04 4.655e-10
 59.85355     21.0 9.940e+03 5.139e-10
 59.87364     20.5 9.957e+03 5.255e-10
 59.89421     21.3 9.699e+03 4.900e-10
 59.93440     22.4 9.535e+03 4.627e-10
 59.97459     23.5 9.587e+03 4.667e-10
 60.00903     24.1 9.867e+03 5.089e-10
 60.02912     22.2 9.502e+03 3.689e-10
 60.05497     22.3 9.888e+03 5.301e-10
 60.08502     21.9 1.031e+04 7.547e-10
 60.10501     21.5 1.074e+04 1.001e-09
 60.11643     21.0 1.119e+04 1.297e-09
 60.12648     19.9 1.173e+04 1.610e-09
 60.14520     18.7 1.266e+04 2.262e-09
 60.16530     17.6 1.346e+04 2.964e-09
 60.18539     16.8 1.392e+04 3.325e-09
 60.20393     16.1 1.378e+04 3.213e-09
 60.21398     15.2 1.374e+04 3.359e-09
 60.21745     14.5 1.307e+04 2.613e-09
 60.22750     14.7 1.328e+04 2.719e-09
 60.24568     13.2 1.254e+04 1.950e-09
 60.26577     11.5 1.185e+04 1.444e-09
 60.29602      8.3 1.111e+04 9.698e-10
 60.33630      6.6 9.946e+03 6.003e-10
 60.37649      6.3 8.983e+03 3.600e-10
 60.39923      6.0 8.345e+03 2.302e-10
 60.41932      4.7 8.497e+03 2.546e-10
 60.45687      4.6 7.890e+03 1.664e-10
 60.49706      5.3 7.435e+03 1.211e-10
 60.53725      6.7 7.124e+03 8.891e-11
 60.56166      8.0 6.938e+03 6.585e-11
 60.57854      7.7 6.960e+03 6.591e-11
 60.59432      6.7 6.943e+03 6.403e-11
 60.61763      7.6 6.843e+03 5.324e-11
 60.65782      8.5 6.863e+03 5.345e-11
 60.69801      9.4 6.909e+03 5.741e-11
 60.73820     10.4 6.981e+03 6.565e-11
 60.76933     11.5 7.061e+03 7.444e-11
 60.78942     10.5 7.384e+03 1.089e-10
 60.81858     11.5 7.446e+03 1.186e-10
 60.85877     12.3 7.550e+03 1.340e-10
 60.89562     13.4 7.951e+03 1.764e-10
 60.91571     13.7 7.981e+03 1.839e-10
 60.93915     14.1 8.437e+03 2.450e-10
 60.96433     12.7 9.193e+03 3.904e-10
 60.97428     11.2 9.603e+03 4.926e-10
 60.98919      8.4 1.124e+04 9.730e-10
 61.00929      5.7 1.276e+04 2.073e-09
 61.02938      5.9 1.359e+04 3.616e-09
 61.04948      6.1 1.436e+04 4.782e-09
 61.06178      3.3 1.728e+04 5.906e-09
 61.07183     -3.2 1.975e+04 9.607e-09
 61.08245     -7.0 2.047e+04 1.113e-08
 61.09249     -7.0 2.000e+04 1.140e-08
 61.10469    -11.1 2.106e+04 1.416e-08
 61.11046    -17.0 2.301e+04 2.123e-08
 61.11548    -19.0 2.281e+04 2.410e-08
 61.12474    -23.6 2.327e+04 3.796e-08
 61.13479    -25.8 2.228e+04 5.693e-08
 61.14483    -26.7 2.147e+04 7.622e-08
 61.15421    -27.3 2.109e+04 8.328e-08
 61.15923    -28.2 2.020e+04 5.573e-08
 61.16493    -28.3 1.988e+04 5.104e-08
 61.17091    -28.7 2.006e+04 4.161e-08
 61.17594    -29.2 1.963e+04 4.007e-08
 61.18502    -29.7 1.991e+04 3.166e-08
 61.19507    -30.2 1.948e+04 2.406e-08
 61.21019    -32.6 1.778e+04 1.264e-08
 61.23033    -34.0 1.563e+04 6.001e-09
 61.24683    -35.1 1.384e+04 3.176e-09
 61.25593    -34.6 1.340e+04 2.595e-09
 61.25952    -33.3 1.430e+04 4.009e-09
 61.27052    -34.0 1.315e+04 2.438e-09
 61.29062    -34.8 1.219e+04 1.529e-09
 61.31071    -35.0 1.154e+04 1.189e-09
 61.33443    -34.9 1.104e+04 9.559e-10
 61.35462    -33.3 1.096e+04 9.506e-10
 61.38124    -32.2 1.045e+04 7.697e-10
 61.42143    -30.9 1.022e+04 7.018e-10
 61.46162    -29.2 1.006e+04 6.740e-10
 61.50181    -27.0 9.840e+03 6.126e-10
 61.52963    -24.7 9.504e+03 4.960e-10
 61.54972    -24.4 9.829e+03 6.220e-10
 61.58219    -22.1 9.490e+03 4.906e-10
 61.60373    -20.1 9.217e+03 3.714e-10
 61.62382    -19.3 9.554e+03 4.466e-10
 61.66257    -17.8 9.306e+03 3.361e-10
 61.70276    -16.3 9.253e+03 3.228e-10
 61.72473    -14.5 9.305e+03 3.707e-10
 61.74482    -14.3 9.367e+03 3.791e-10
 61.78314    -12.1 9.410e+03 4.072e-10
 61.82333    -10.1 9.616e+03 4.542e-10
 61.86352     -8.4 9.922e+03 5.280e-10
 61.89973     -6.9 1.029e+04 6.440e-10
 61.91983     -6.7 1.007e+04 5.887e-10
 61.93769     -5.2 1.050e+04 7.353e-10
 61.95778     -4.2 1.051e+04 7.341e-10
 61.98409     -2.8 1.106e+04 9.756e-10
 62.02428     -1.4 1.160e+04 1.258e-09
 62.06447      0.0 1.184e+04 1.342e-09
 62.09483      1.6 1.172e+04 1.243e-09
 62.11492      1.5 1.157e+04 1.231e-09
 62.14485      3.1 1.123e+04 9.918e-10
 62.18504      4.4 1.087e+04 7.544e-10
 62.22523      5.5 1.076e+04 7.053e-10
 62.26542      6.7 1.092e+04 7.829e-10
 62.28993      8.0 1.125e+04 9.780e-10
 62.29615      8.1 1.044e+04 5.591e-10
 62.31183      8.6 1.061e+04 6.034e-10
 62.34580      9.8 1.097e+04 7.933e-10
 62.38599     11.0 1.135e+04 9.880e-10
 62.42618     12.1 1.148e+04 9.959e-10
 62.46493     13.2 1.136e+04 8.639e-10
 62.48503     14.1 1.141e+04 9.529e-10
 62.50656     15.1 1.134e+04 8.233e-10
 62.54675     16.0 1.120e+04 6.470e-10
 62.58694     16.7 1.107e+04 5.340e-10
 62.62570     17.6 1.105e+04 5.176e-10
 62.64579     17.8 1.112e+04 5.267e-10
 62.66003     18.6 1.131e+04 5.602e-10
 62.68013     19.6 1.178e+04 8.826e-10
 62.70751     20.1 1.186e+04 8.907e-10
 62.74770     20.6 1.176e+04 8.352e-10
 62.78789     20.9 1.152e+04 7.367e-10
 62.82808     21.4 1.126e+04 6.151e-10
 62.85513     22.0 1.098e+04 5.125e-10
 62.87522     22.6 1.102e+04 5.007e-10
 62.90846     23.3 1.097e+04 5.180e-10
 62.94865     24.3 1.100e+04 5.811e-10
 62.97975     25.4 1.114e+04 6.680e-10
 62.99985     25.6 1.114e+04 6.409e-10
 63.02903     26.8 1.127e+04 7.058e-10
 63.05023     27.8 1.127e+04 6.982e-10
 63.07032     27.9 1.135e+04 7.459e-10
 63.10941     29.0 1.124e+04 6.957e-10
 63.14960     30.2 1.109e+04 6.314e-10
 63.18979     31.5 1.097e+04 5.956e-10
 63.22523     33.0 1.096e+04 5.963e-10
 63.24523     33.2 1.087e+04 6.041e-10
 63.25993     34.0 1.089e+04 6.297e-10
 63.28002     34.8 1.099e+04 6.731e-10
 63.30012     35.5 1.112e+04 7.306e-10
 63.32021     36.2 1.124e+04 8.039e-10
 63.33263     36.9 1.140e+04 9.086e-10
 63.33598     37.0 1.145e+04 9.888e-10
 63.34366     37.0 1.147e+04 9.589e-10
 63.36040     37.8 1.167e+04 1.130e-09
 63.38050     38.5 1.190e+04 1.324e-09
 63.40059     39.2 1.216e+04 1.509e-09
 63.42014     39.8 1.246e+04 1.672e-09
 63.43018     39.9 1.265e+04 1.968e-09
 63.44078     40.3 1.304e+04 2.282e-09
 63.46088     40.6 1.342e+04 2.539e-09
 63.48097     40.7 1.376e+04 2.706e-09
 63.50059     40.6 1.410e+04 2.738e-09
 63.51064     40.2 1.383e+04 2.227e-09
 63.51768     39.9 1.404e+04 2.117e-09
 63.52773     39.6 1.514e+04 4.454e-09
 63.54126     39.1 1.541e+04 4.493e-09
 63.56135     38.5 1.540e+04 3.950e-09
 63.58145     37.6 1.512e+04 2.938e-09
 63.60154     36.6 1.445e+04 1.959e-09
 63.61523     35.2 1.329e+04 1.338e-09
 63.62528     37.1 1.482e+04 2.584e-09
 63.64173     34.8 1.339e+04 1.570e-09
 63.66183     33.4 1.251e+04 1.345e-09
 63.67762     33.3 1.249e+04 1.310e-09
 63.68767     33.8 1.244e+04 1.191e-09
 63.71216     33.9 1.255e+04 1.257e-09
 63.75245     34.2 1.239e+04 1.171e-09
 63.79043     34.3 1.220e+04 1.103e-09
 63.81053     33.9 1.225e+04 1.210e-09
 63.83283     34.1 1.196e+04 1.023e-09
 63.87302     34.5 1.163e+04 8.316e-10
 63.91321     35.3 1.127e+04 6.165e-10
 63.95340     36.3 1.093e+04 4.344e-10
 63.98553     37.4 1.066e+04 3.298e-10
 64.00563     36.8 1.045e+04 2.396e-10
 64.02182     38.1 1.046e+04 2.531e-10
 64.04192     38.7 1.046e+04 2.516e-10
 64.07397     40.1 1.049e+04 2.993e-10
 64.11416     41.8 1.072e+04 3.998e-10
 64.15435     43.1 1.100e+04 5.061e-10
 64.18053     43.4 1.115e+04 5.758e-10
 64.19048     43.1 1.111e+04 5.602e-10
 64.19865     43.7 1.119e+04 5.934e-10
 64.20870     43.8 1.130e+04 6.621e-10
 64.22449     44.4 1.138e+04 6.961e-10
 64.24458     45.0 1.137e+04 6.897e-10
 64.27482     45.8 1.124e+04 4.738e-10
 64.31511     46.9 1.116e+04 3.651e-10
 64.35530     47.9 1.101e+04 2.705e-10
 64.37573     48.7 1.077e+04 1.974e-10
 64.39582     48.0 1.032e+04 1.126e-10
 64.43568     49.1 1.008e+04 1.044e-10
 64.47587     50.6 1.008e+04 1.098e-10
 64.51606     52.3 1.011e+04 1.234e-10
 64.55073     54.1 1.018e+04 1.401e-10
 64.57083     53.7 1.020e+04 1.373e-10
 64.59644     55.4 1.030e+04 1.518e-10
 64.63663     57.0 1.043e+04 1.614e-10
 64.67682     58.6 1.058e+04 1.720e-10
 64.70984     60.1 1.074e+04 1.898e-10
 64.72993     60.4 1.056e+04 1.458e-10
 64.74583     61.8 1.074e+04 1.710e-10
 64.76593     60.7 1.095e+04 2.388e-10
 64.79739     62.1 1.114e+04 3.399e-10
 64.83758     63.4 1.140e+04 5.006e-10
 64.87777     64.9 1.168e+04 7.139e-10
 64.91796     66.5 1.194e+04 9.141e-10
 64.94093     68.1 1.213e+04 9.709e-10
 64.95088     67.0 1.208e+04 9.543e-10
 64.96800     67.5 1.205e+04 9.429e-10
 64.98810     68.5 1.195e+04 8.806e-10
 65.00819     69.1 1.190e+04 8.175e-10
 65.03843     70.2 1.166e+04 6.126e-10
 65.06389     71.8 1.151e+04 4.986e-10
 65.08399     72.2 1.149e+04 5.113e-10
 65.11593     73.9 1.150e+04 4.496e-10
 65.13603     72.9 1.106e+04 2.948e-10
 65.15910     74.8 1.112e+04 3.155e-10
 65.19929     76.8 1.133e+04 3.757e-10
 65.23948     78.6 1.159e+04 4.657e-10
 65.27967     79.8 1.170e+04 5.462e-10
 65.30972     80.5 1.168e+04 6.056e-10
 65.32089     81.4 1.179e+04 7.127e-10
 65.33103     80.2 1.162e+04 5.828e-10
 65.34991     81.5 1.177e+04 7.702e-10
 65.36990     82.4 1.195e+04 9.227e-10
 65.39000     83.1 1.214e+04 1.078e-09
 65.40770     83.7 1.228e+04 1.216e-09
 65.41604     83.8 1.245e+04 1.405e-09
 65.41843     83.3 1.204e+04 1.129e-09
 65.43019     83.8 1.208e+04 1.189e-09
 65.45028     84.3 1.209e+04 1.218e-09
 65.47038     84.8 1.206e+04 1.222e-09
 65.49047     85.3 1.205e+04 1.212e-09
 65.50594     85.8 1.206e+04 1.208e-09
 65.51598     85.1 1.158e+04 7.366e-10
 65.53066     85.6 1.157e+04 7.364e-10
 65.55076     86.0 1.159e+04 7.484e-10
 65.57085     86.4 1.165e+04 7.936e-10
 65.58473     86.7 1.180e+04 8.996e-10
 65.59478     86.5 1.170e+04 7.879e-10
 65.60349     86.6 1.183e+04 9.202e-10
 65.61353     86.2 1.127e+04 5.805e-10
 65.63114     86.4 1.141e+04 7.261e-10
 65.65123     86.7 1.167e+04 9.638e-10
 65.67133     86.8 1.209e+04 1.332e-09
 65.69099     86.9 1.270e+04 1.890e-09
 65.70104     87.3 1.186e+04 1.143e-09
 65.71152     87.4 1.244e+04 1.545e-09
 65.73161     87.5 1.301e+04 2.000e-09
 65.75171     87.5 1.347e+04 2.418e-09
 65.77180     88.2 1.334e+04 2.203e-09
 65.80204     88.9 1.332e+04 2.172e-09
 65.84233     89.1 1.349e+04 2.293e-09
 65.87623     89.2 1.333e+04 2.045e-09
 65.89633     90.1 1.318e+04 1.930e-09
 65.92271     90.4 1.309e+04 1.775e-09
 65.96290     90.8 1.278e+04 1.411e-09
 66.00309     91.4 1.238e+04 1.001e-09
 66.04328     92.2 1.198e+04 6.795e-10
 66.07133     93.3 1.168e+04 5.132e-10
 66.09143     93.9 1.187e+04 6.333e-10
 66.10596     95.4 1.168e+04 5.197e-10
 66.12605     96.6 1.204e+04 7.648e-10
 66.16385     98.2 1.192e+04 6.780e-10
 66.20404    100.0 1.189e+04 6.239e-10
 66.24423    101.9 1.185e+04 5.847e-10
 66.26643    104.0 1.180e+04 5.581e-10
 66.28653    104.1 1.175e+04 5.108e-10
 66.32461    106.3 1.177e+04 5.407e-10
 66.36480    108.6 1.185e+04 6.013e-10
 66.40499    110.9 1.199e+04 6.918e-10
 66.43992    113.1 1.215e+04 7.989e-10
 66.45627    114.0 1.214e+04 8.136e-10
 66.46143    113.8 1.247e+04 1.002e-09
 66.48527    115.7 1.269e+04 1.241e-09
 66.52556    117.8 1.293e+04 1.518e-09
 66.56575    119.8 1.296e+04 1.563e-09
 66.60594    121.9 1.289e+04 1.490e-09
 66.63653    124.4 1.278e+04 1.292e-09
 66.65653    124.3 1.261e+04 1.068e-09
 66.67608    125.4 1.254e+04 9.145e-10
 66.69617    126.4 1.248e+04 7.974e-10
 66.71627    127.4 1.240e+04 7.239e-10
 66.73389    128.5 1.235e+04 6.940e-10
 66.74394    128.0 1.228e+04 5.070e-10
 66.75646    129.2 1.228e+04 5.126e-10
 66.77655    130.4 1.233e+04 5.330e-10
 66.79378    131.6 1.239e+04 5.655e-10
 66.80383    131.8 1.241e+04 5.525e-10
 66.81674    133.0 1.248e+04 5.829e-10
 66.83144    134.3 1.256e+04 6.219e-10
 66.84149    133.8 1.241e+04 5.572e-10
 66.85693    135.1 1.250e+04 6.286e-10
 66.87703    136.3 1.263e+04 7.099e-10
 66.89712    137.6 1.274e+04 7.890e-10
 66.91722    138.8 1.284e+04 8.665e-10
 66.92899    140.1 1.295e+04 9.432e-10
 66.93903    139.6 1.305e+04 1.054e-09
 66.95741    140.7 1.318e+04 1.168e-09
 66.97081    141.9 1.329e+04 1.267e-09
 66.98085    142.0 1.308e+04 1.094e-09
 66.99760    143.2 1.318e+04 1.180e-09
 67.01649    144.2 1.325e+04 1.256e-09
 67.02654    143.8 1.336e+04 1.388e-09
 67.03779    144.9 1.344e+04 1.461e-09
 67.05788    146.1 1.352e+04 1.536e-09
 67.07798    147.2 1.360e+04 1.618e-09
 67.09807    148.3 1.370e+04 1.694e-09
 67.11404    149.4 1.378e+04 1.762e-09
 67.12409    148.9 1.391e+04 1.724e-09
 67.13779    149.9 1.394e+04 1.716e-09
 67.14783    150.4 1.377e+04 1.562e-09
 67.15836    151.4 1.384e+04 1.546e-09
 67.17845    152.2 1.394e+04 1.556e-09
 67.19855    152.0 1.414e+04 1.604e-09
 67.21159    151.5 1.457e+04 1.805e-09
 67.22164    150.1 1.446e+04 2.190e-09
 67.23874    149.5 1.505e+04 3.421e-09
 67.25883    148.9 1.558e+04 4.908e-09
 67.27386    148.1 1.598e+04 6.501e-09
 67.28386    147.5 1.639e+04 9.240e-09
 67.29390    147.5 1.698e+04 1.369e-08
 67.30395    148.2 1.773e+04 2.076e-08
 67.30904    149.2 1.864e+04 2.955e-08
 67.31406    149.3 1.811e+04 2.326e-08
 67.31974    149.5 1.886e+04 2.392e-08
 67.32476    149.6 1.872e+04 1.911e-08
 67.33917    149.2 1.828e+04 1.538e-08
 67.35931    149.2 1.842e+04 1.191e-08
 67.37940    148.9 1.818e+04 6.208e-09
 67.39664    147.2 1.749e+04 2.454e-09
 67.40669    146.1 1.599e+04 1.102e-09
 67.41959    142.2 1.354e+04 6.692e-10
 67.43969    140.5 1.228e+04 6.474e-10
 67.45978    140.6 1.212e+04 6.453e-10
 67.47988    141.2 1.210e+04 6.460e-10
 67.49184    142.1 1.204e+04 6.574e-10
 67.49610    142.5 1.196e+04 6.338e-10
 67.50424    143.3 1.182e+04 5.486e-10
 67.52007    144.0 1.183e+04 5.648e-10
 67.54016    144.8 1.182e+04 5.796e-10
 67.56026    145.4 1.181e+04 5.928e-10
 67.58035    146.1 1.179e+04 6.039e-10
 67.59174    146.8 1.176e+04 6.136e-10
 67.60179    147.2 1.173e+04 6.029e-10
 67.62054    147.7 1.170e+04 6.187e-10
 67.65078    149.1 1.167e+04 6.080e-10
 67.67934    149.7 1.161e+04 6.044e-10
 67.68929    149.7 1.156e+04 5.935e-10
 67.70092    150.4 1.145e+04 5.674e-10
 67.72102    151.2 1.133e+04 5.234e-10
 67.74111    151.6 1.126e+04 4.944e-10
 67.76121    152.5 1.115e+04 4.423e-10
 67.77679    153.0 1.109e+04 4.015e-10
 67.78693    152.8 1.106e+04 3.871e-10
 67.81164    154.6 1.085e+04 2.851e-10
 67.83604    156.5 1.062e+04 2.203e-10
 67.85614    157.6 1.055e+04 1.891e-10
 67.89202    159.6 1.045e+04 1.726e-10
 67.93221    161.7 1.036e+04 1.704e-10
 67.96204    163.9 1.036e+04 1.741e-10
 67.98213    164.0 1.032e+04 1.783e-10
 68.01259    166.2 1.037e+04 2.132e-10
 68.05278    168.5 1.050e+04 2.608e-10
 68.09297    170.8 1.066e+04 3.162e-10
 68.13316    173.2 1.084e+04 3.706e-10
 68.15713    175.1 1.095e+04 4.195e-10
 68.16708    174.2 1.090e+04 4.389e-10
 68.17985    175.3 1.087e+04 4.764e-10
 68.18990    175.6 1.095e+04 4.212e-10
 68.20330    176.5 1.099e+04 4.720e-10
 68.22339    177.6 1.107e+04 5.357e-10
 68.24349    178.6 1.119e+04 5.990e-10
 68.25449    179.5 1.133e+04 6.498e-10
 68.26454    179.3 1.143e+04 6.646e-10
 68.28368    179.9 1.158e+04 6.841e-10
 68.30377    180.4 1.168e+04 6.903e-10
 68.32387    180.9 1.176e+04 6.931e-10
 68.34199    181.3 1.186e+04 7.031e-10
 68.35204    180.2 1.234e+04 7.140e-10
 68.35688    180.4 1.243e+04 7.620e-10
 68.36693    181.6 1.214e+04 7.446e-10
 68.38415    181.8 1.224e+04 7.869e-10
 68.40425    182.1 1.230e+04 8.718e-10
 68.42434    182.5 1.234e+04 1.005e-09
 68.43954    183.1 1.240e+04 1.172e-09
 68.44959    182.3 1.237e+04 1.208e-09
 68.46453    183.2 1.259e+04 1.319e-09
 68.48463    184.0 1.275e+04 1.391e-09
 68.50472    184.7 1.302e+04 1.366e-09
 68.52386    185.1 1.307e+04 1.328e-09
 68.53391    186.0 1.310e+04 1.525e-09
 68.53709    186.6 1.340e+04 1.491e-09
 68.54714    185.5 1.291e+04 1.107e-09
 68.56501    185.7 1.279e+04 1.044e-09
 68.58510    185.8 1.255e+04 1.002e-09
 68.60520    185.7 1.230e+04 9.751e-10
 68.62459    185.5 1.212e+04 9.831e-10
 68.63464    184.4 1.160e+04 7.691e-10
 68.64539    184.3 1.165e+04 8.269e-10
 68.66548    184.0 1.181e+04 9.066e-10
 68.68558    183.4 1.208e+04 1.032e-09
 68.70089    182.0 1.261e+04 1.296e-09
 68.71094    183.0 1.303e+04 1.602e-09
 68.72214    180.3 1.424e+04 2.416e-09
 68.73219    180.3 1.328e+04 1.792e-09
 68.74586    177.3 1.451e+04 2.849e-09
 68.76596    174.0 1.567e+04 4.367e-09
 68.78605    170.5 1.642e+04 5.129e-09
 68.80615    166.6 1.648e+04 5.004e-09
 68.81969    162.9 1.630e+04 4.146e-09
 68.82974    163.3 1.538e+04 3.139e-09
 68.84634    160.4 1.493e+04 2.125e-09
 68.86643    157.4 1.408e+04 1.142e-09
 68.87792    154.2 1.269e+04 6.144e-10
 68.88796    154.9 1.280e+04 6.299e-10
 68.90662    152.8 1.176e+04 5.127e-10
 68.91724    152.6 1.149e+04 4.895e-10
 68.93743    154.1 1.159e+04 4.845e-10
 68.97715    154.4 1.122e+04 4.602e-10
 69.01734    154.9 1.109e+04 4.380e-10
 69.05753    155.5 1.095e+04 3.892e-10
 69.09244    156.0 1.072e+04 3.176e-10
 69.11253    156.9 1.087e+04 3.935e-10
 69.13791    157.4 1.072e+04 3.560e-10
 69.17810    158.0 1.059e+04 3.403e-10
 69.21207    158.8 1.060e+04 3.479e-10
 69.23216    159.6 1.058e+04 3.352e-10
 69.25848    160.3 1.065e+04 3.856e-10
 69.28744    160.2 1.073e+04 4.430e-10
 69.29739    160.1 1.099e+04 6.127e-10
 69.30852    160.2 1.099e+04 6.167e-10
 69.32862    160.4 1.095e+04 6.015e-10
 69.34871    160.5 1.085e+04 5.702e-10
 69.37895    161.4 1.074e+04 5.333e-10
 69.41924    162.1 1.032e+04 4.014e-10
 69.45943    162.8 9.857e+03 2.878e-10
 69.48264    163.5 9.475e+03 2.100e-10
 69.50273    163.8 9.321e+03 1.842e-10
 69.53981    164.6 9.090e+03 1.475e-10
 69.56612    165.6 8.895e+03 1.400e-10
 69.58622    166.9 8.940e+03 1.479e-10
 69.62019    168.1 8.924e+03 1.474e-10
 69.65764    169.2 8.922e+03 1.476e-10
 69.67773    169.7 8.937e+03 1.476e-10
 69.70057    170.6 8.939e+03 1.494e-10
 69.74076    171.4 8.951e+03 1.556e-10
 69.78095    172.2 8.993e+03 1.679e-10
 69.82114    173.1 9.060e+03 1.852e-10
 69.85274    174.0 9.180e+03 2.099e-10
 69.87283    173.9 9.471e+03 2.311e-10
 69.90008    174.7 9.642e+03 2.579e-10
 69.92018    175.8 1.003e+04 3.391e-10
 69.93157    175.8 1.003e+04 3.559e-10
 69.95009    175.8 1.003e+04 3.625e-10
 69.96014    175.6 1.009e+04 3.664e-10
 69.97166    175.5 1.017e+04 4.019e-10
 69.99175    175.6 1.030e+04 4.629e-10
 70.01185    175.8 1.048e+04 5.512e-10
 70.03194    176.0 1.067e+04 6.497e-10
 70.04764    176.3 1.085e+04 7.501e-10
 70.05769    175.7 1.112e+04 8.612e-10
 70.07213    175.7 1.130e+04 9.678e-10
 70.08696    175.5 1.151e+04 1.083e-09
 70.09701    175.8 1.155e+04 1.099e-09
 70.11232    175.4 1.184e+04 1.241e-09
 70.13242    174.4 1.232e+04 1.481e-09
 70.14519    173.0 1.297e+04 1.867e-09
 70.15524    171.0 1.328e+04 2.038e-09
 70.17261    168.9 1.380e+04 2.534e-09
 70.19270    166.8 1.417e+04 3.037e-09
 70.21280    164.7 1.436e+04 3.217e-09
 70.23269    162.6 1.434e+04 3.148e-09
 70.24274    161.3 1.377e+04 2.405e-09
 70.25299    159.3 1.361e+04 2.027e-09
 70.26399    157.3 1.339e+04 1.606e-09
 70.27404    155.5 1.355e+04 1.412e-09
 70.29318    152.9 1.316e+04 1.105e-09
 70.31327    150.6 1.273e+04 9.509e-10
 70.33024    148.7 1.237e+04 8.988e-10
 70.34029    148.5 1.177e+04 6.975e-10
 70.35346    147.6 1.172e+04 7.042e-10
 70.37356    147.2 1.174e+04 7.360e-10
 70.39365    147.0 1.185e+04 7.936e-10
 70.41375    146.8 1.197e+04 8.691e-10
 70.42779    146.8 1.206e+04 9.485e-10
 70.43496    147.0 1.166e+04 7.346e-10
 70.44102    145.7 1.206e+04 9.617e-10
 70.45394    145.9 1.204e+04 9.752e-10
 70.47403    146.2 1.202e+04 9.723e-10
 70.49413    146.5 1.194e+04 9.502e-10
 70.51422    147.0 1.185e+04 8.941e-10
 70.52534    147.4 1.180e+04 8.249e-10
 70.53539    147.3 1.164e+04 6.895e-10
 70.55441    147.6 1.175e+04 6.695e-10
 70.57451    147.3 1.204e+04 6.823e-10
 70.59460    146.6 1.300e+04 7.973e-10
 70.60800    145.5 1.413e+04 1.142e-09
 70.61619    143.1 1.528e+04 3.812e-09
 70.62289    143.0 1.525e+04 3.907e-09
 70.63479    143.5 1.580e+04 5.883e-09
 70.65489    144.6 1.626e+04 8.296e-09
 70.67498    145.4 1.655e+04 1.002e-08
 70.69508    145.9 1.655e+04 1.012e-08
 70.71039    146.3 1.634e+04 9.402e-09
 70.72044    146.7 1.609e+04 9.101e-09
 70.73527    147.3 1.569e+04 7.555e-09
 70.75536    148.1 1.505e+04 5.616e-09
 70.77498    148.7 1.438e+04 3.562e-09
 70.78502    147.4 1.467e+04 1.663e-09
 70.79555    146.8 1.393e+04 9.063e-10
 70.80804    147.0 1.299e+04 7.626e-10
 70.82823    148.0 1.302e+04 7.516e-10
 70.86608    147.5 1.154e+04 3.526e-10
 70.90627    147.5 9.975e+03 2.081e-10
 70.94215    148.5 9.348e+03 1.575e-10
 70.96225    148.2 9.472e+03 1.542e-10
 70.98314    150.0 9.361e+03 1.408e-10
 71.00324    150.5 9.106e+03 1.184e-10
 71.02684    152.5 9.108e+03 1.191e-10
 71.06703    154.5 9.104e+03 1.235e-10
 71.10722    156.4 9.126e+03 1.350e-10
 71.14741    158.4 9.196e+03 1.505e-10
 71.17824    160.2 9.275e+03 1.640e-10
 71.19833    160.7 9.232e+03 1.727e-10
 71.22779    162.4 9.325e+03 1.906e-10
 71.26798    164.1 9.414e+03 1.980e-10
 71.29621    165.7 9.473e+03 1.995e-10
 71.31630    165.9 9.373e+03 1.975e-10
 71.34836    167.4 9.416e+03 2.010e-10
 71.37334    168.8 9.480e+03 2.088e-10
 71.39343    169.2 9.537e+03 2.445e-10
 71.42874    170.3 9.660e+03 2.598e-10
 71.46893    171.2 9.803e+03 2.830e-10
 71.50912    171.7 9.944e+03 3.140e-10
 71.54834    171.8 1.005e+04 3.434e-10
 71.56844    172.0 1.000e+04 3.581e-10
 71.58950    171.8 9.991e+03 3.545e-10
 71.62969    171.6 9.914e+03 3.377e-10
 71.65026    171.1 9.740e+03 2.975e-10
 71.67036    171.1 9.547e+03 2.730e-10
 71.71007    170.3 9.311e+03 2.232e-10
 71.74344    169.3 9.050e+03 1.922e-10
 71.76354    168.9 8.975e+03 1.887e-10
 71.79045    168.0 8.946e+03 1.882e-10
 71.83064    167.2 8.967e+03 1.930e-10
 71.87083    166.4 9.120e+03 2.127e-10
 71.91102    165.9 9.344e+03 2.383e-10
 71.93844    164.6 9.824e+03 2.899e-10
 71.94839    163.3 1.017e+04 3.267e-10
 71.96106    160.6 1.115e+04 5.562e-10
 71.98116    157.6 1.205e+04 1.064e-09
 71.99407    155.0 1.275e+04 1.858e-09
 72.00412    156.5 1.246e+04 1.305e-09
 72.02135    153.9 1.305e+04 2.106e-09
 72.03589    151.7 1.341e+04 2.434e-09
 72.04594    150.5 1.323e+04 2.212e-09
 72.06154    147.6 1.329e+04 1.966e-09
 72.08163    145.4 1.307e+04 1.604e-09
 72.11187    142.6 1.288e+04 1.122e-09
 72.13364    136.9 1.131e+04 5.023e-10
 72.15373    136.2 1.055e+04 4.188e-10
 72.19235    131.3 9.835e+03 3.779e-10
 72.23254    128.2 9.840e+03 3.922e-10
 72.27273    126.1 1.002e+04 4.621e-10
 72.30864    124.6 1.030e+04 5.767e-10
 72.32874    124.2 1.043e+04 6.446e-10
 72.33828    123.4 1.054e+04 7.019e-10
 72.35837    124.7 1.045e+04 6.425e-10
 72.39330    124.6 1.050e+04 6.571e-10
 72.43349    124.5 1.051e+04 6.485e-10
 72.47368    124.6 1.046e+04 6.156e-10
 72.50374    125.1 1.035e+04 5.620e-10
 72.52384    124.9 1.009e+04 4.642e-10
 72.55406    125.7 9.901e+03 3.931e-10
 72.59425    126.8 9.742e+03 3.430e-10
 72.63444    128.1 9.699e+03 3.211e-10
 72.67223    129.5 9.726e+03 3.119e-10
 72.69233    131.0 9.576e+03 2.807e-10
 72.69884    132.7 9.619e+03 2.814e-10
 72.71893    132.8 9.204e+03 1.912e-10
 72.75501    134.7 9.221e+03 1.915e-10
 72.79520    136.5 9.291e+03 1.960e-10
 72.83539    138.1 9.406e+03 2.116e-10
 72.87384    139.7 9.582e+03 2.469e-10
 72.89394    139.7 9.335e+03 2.019e-10
 72.91577    141.2 9.653e+03 2.714e-10
 72.95596    142.7 1.000e+04 3.625e-10
 72.99615    144.2 1.030e+04 4.409e-10
 73.02629    145.5 1.044e+04 4.503e-10
 73.04638    147.1 1.009e+04 3.670e-10
 73.06894    148.5 1.025e+04 3.738e-10
 73.08904    148.7 1.014e+04 3.470e-10
 73.11672    150.0 1.014e+04 3.369e-10
 73.15691    151.3 1.012e+04 3.067e-10
 73.19710    152.7 1.004e+04 2.688e-10
 73.23729    154.2 9.962e+03 2.338e-10
 73.26404    155.8 9.896e+03 2.057e-10
 73.28414    156.3 9.877e+03 1.971e-10
 73.31767    157.9 9.852e+03 1.776e-10
 73.35786    159.7 9.834e+03 1.585e-10
 73.38034    161.5 9.822e+03 1.365e-10
 73.40044    162.2 9.809e+03 1.436e-10
 73.43824    164.0 9.784e+03 1.224e-10
 73.45914    165.7 9.774e+03 1.034e-10
 73.47923    165.9 9.890e+03 1.313e-10
 73.51862    167.6 9.914e+03 1.250e-10
 73.55881    169.2 9.931e+03 1.216e-10
 73.59900    170.8 9.941e+03 1.196e-10
 73.63414    172.4 9.934e+03 1.185e-10
 73.65424    172.1 1.010e+04 1.583e-10
 73.67938    173.5 1.009e+04 1.515e-10
 73.71430    174.9 1.009e+04 1.529e-10
 73.73440    175.8 1.036e+04 1.864e-10
 73.75976    177.2 1.037e+04 1.857e-10
 73.79995    178.7 1.043e+04 1.934e-10
 73.82924    180.0 1.067e+04 2.206e-10
 73.84934    178.9 1.100e+04 2.417e-10
 73.88033    179.4 1.123e+04 2.782e-10
 73.90128    179.8 1.136e+04 3.203e-10
 73.91123    180.0 1.138e+04 3.273e-10
 73.92660    180.2 1.161e+04 4.133e-10
 73.93664    179.0 1.184e+04 5.018e-10
 73.95047    178.9 1.208e+04 6.658e-10
 73.97056    178.8 1.233e+04 8.773e-10
 73.99066    178.7 1.260e+04 1.139e-09
 74.01075    178.6 1.288e+04 1.436e-09
 74.02415    178.4 1.311e+04 1.698e-09
 74.03419    177.6 1.326e+04 1.807e-09
 74.05094    177.3 1.330e+04 1.809e-09
 74.06816    176.7 1.329e+04 1.748e-09
 74.07821    177.0 1.383e+04 2.326e-09
 74.09113    176.3 1.371e+04 2.100e-09
 74.11123    175.6 1.338e+04 1.638e-09
 74.12169    174.9 1.288e+04 1.138e-09
 74.13174    174.3 1.270e+04 1.023e-09
 74.15142    173.4 1.203e+04 6.996e-10
 74.17151    172.8 1.140e+04 5.713e-10
 74.19161    172.7 1.124e+04 5.585e-10
 74.20920    172.9 1.121e+04 5.585e-10
 74.21924    172.9 1.123e+04 5.687e-10
 74.23180    173.5 1.123e+04 5.760e-10
 74.24519    174.3 1.128e+04 6.032e-10
 74.25524    174.0 1.133e+04 6.692e-10
 74.27199    174.9 1.140e+04 7.072e-10
 74.29208    175.7 1.148e+04 7.468e-10
 74.30675    176.5 1.151e+04 7.542e-10
 74.31679    176.6 1.153e+04 7.587e-10
 74.33227    177.3 1.152e+04 7.560e-10
 74.35237    178.1 1.150e+04 7.432e-10
 74.37246    178.9 1.146e+04 7.203e-10
 74.39256    179.8 1.144e+04 6.944e-10
 74.40430    180.6 1.146e+04 6.703e-10
 74.41386    180.7 1.146e+04 6.696e-10
 74.42222    180.9 1.154e+04 7.090e-10
 74.43275    181.6 1.156e+04 6.742e-10
 74.45284    182.3 1.158e+04 6.359e-10
 74.47294    182.8 1.158e+04 6.001e-10
 74.49180    183.3 1.157e+04 5.680e-10
 74.50184    183.3 1.158e+04 5.619e-10
 74.51313    183.7 1.154e+04 5.320e-10
 74.53322    184.2 1.149e+04 5.002e-10
 74.55332    184.6 1.141e+04 4.771e-10
 74.57341    185.1 1.123e+04 4.794e-10
 74.58920    185.6 1.120e+04 4.811e-10
 74.59508    185.8 1.119e+04 4.827e-10
 74.59939    185.8 1.132e+04 5.294e-10
 74.61360    186.4 1.122e+04 5.318e-10
 74.63370    187.1 1.118e+04 5.374e-10
 74.65379    187.8 1.113e+04 5.495e-10
 74.67389    188.5 1.110e+04 5.658e-10
 74.68690    189.1 1.109e+04 5.829e-10
 74.69694    189.2 1.114e+04 6.239e-10
 74.71408    189.9 1.113e+04 6.403e-10
 74.73417    190.6 1.112e+04 6.553e-10
 74.75427    191.2 1.111e+04 6.664e-10
 74.76622    191.9 1.107e+04 6.734e-10
 74.77627    191.8 1.112e+04 7.351e-10
 74.79446    192.5 1.112e+04 7.566e-10
 74.81455    193.0 1.111e+04 7.573e-10
 74.83465    193.5 1.108e+04 7.556e-10
 74.85474    194.0 1.105e+04 7.456e-10
 74.87195    194.4 1.100e+04 7.277e-10
 74.88199    194.5 1.100e+04 7.138e-10
 74.89493    195.0 1.096e+04 6.909e-10
 74.91503    195.4 1.091e+04 6.660e-10
 74.93320    195.8 1.087e+04 6.425e-10
 74.94325    195.1 1.102e+04 7.306e-10
 74.95522    195.5 1.097e+04 7.236e-10
 74.96950    195.9 1.094e+04 7.239e-10
 74.97954    196.0 1.096e+04 7.217e-10
 74.99541    196.5 1.094e+04 7.266e-10
 75.01550    197.0 1.093e+04 7.366e-10
 75.03560    197.6 1.093e+04 7.534e-10
 75.05569    198.2 1.096e+04 7.755e-10
 75.06705    198.8 1.099e+04 7.998e-10
 75.07709    198.9 1.097e+04 7.735e-10
 75.09588    199.5 1.100e+04 7.818e-10
 75.11023    200.1 1.105e+04 7.933e-10
 75.12028    199.9 1.130e+04 9.472e-10
 75.13607    200.6 1.134e+04 9.476e-10
 75.15455    200.9 1.150e+04 9.737e-10
 75.16460    201.0 1.151e+04 9.407e-10
 75.17626    201.0 1.194e+04 1.055e-09
 75.19636    200.9 1.265e+04 1.305e-09
 75.21645    200.5 1.370e+04 1.790e-09
 75.23655    199.9 1.458e+04 2.449e-09
 75.25157    199.6 1.495e+04 2.906e-09
 75.25702    199.4 1.512e+04 3.299e-09
 75.26205    200.2 1.533e+04 3.533e-09
 75.27162    200.1 1.542e+04 3.980e-09
 75.28167    199.7 1.610e+04 4.460e-09
 75.28716    197.4 1.917e+04 5.729e-09
 75.29218    192.6 2.654e+04 1.304e-08
 75.30077    183.6 3.017e+04 4.821e-08
 75.30580    183.6 2.847e+04 9.796e-08
 75.31181    174.5 2.606e+04 2.708e-07
 75.32186    166.3 2.389e+04 3.738e-07
 75.33190    159.3 2.345e+04 3.594e-07
 75.34195    154.8 2.249e+04 2.883e-07
 75.34955    153.0 2.192e+04 1.786e-07
 75.35457    152.3 2.293e+04 1.517e-07
 75.36205    151.2 2.417e+04 5.329e-08
 75.37065    149.8 2.927e+04 1.413e-08
 75.37567    149.0 3.102e+04 7.815e-09
 75.38214    146.1 3.305e+04 3.101e-09
 75.39726    135.5 3.547e+04 8.225e-10
 75.41740    121.3 1.781e+04 4.946e-10
 75.43715    120.8 1.315e+04 5.769e-10
 75.44720    118.3 1.141e+04 6.470e-10
 75.45424    116.7 8.630e+03 6.981e-10
 75.46438    116.8 1.040e+04 5.020e-10
 75.48793    117.2 1.007e+04 4.486e-10
 75.52485    117.6 9.877e+03 3.761e-10
 75.54494    117.4 9.980e+03 4.235e-10
 75.56831    117.7 9.638e+03 3.356e-10
 75.60850    118.1 9.246e+03 2.661e-10
 75.64869    118.9 8.910e+03 2.242e-10
 75.68888    120.1 8.708e+03 2.020e-10
 75.71994    121.5 8.587e+03 1.908e-10
 75.74004    121.2 8.506e+03 1.833e-10
 75.76926    122.9 8.393e+03 1.735e-10
 75.79844    124.7 8.293e+03 1.695e-10
 75.81854    125.0 8.543e+03 2.072e-10
 75.84964    126.8 8.532e+03 2.090e-10
 75.88983    128.6 8.545e+03 2.149e-10
 75.91504    130.2 8.650e+03 2.333e-10
 75.93514    130.1 8.649e+03 2.327e-10
 75.97021    131.4 8.906e+03 2.756e-10
 76.01040    132.6 9.209e+03 3.364e-10
 76.05059    133.4 9.450e+03 3.963e-10
 76.08064    133.1 9.650e+03 4.580e-10
 76.09990    133.1 9.812e+03 5.089e-10
 76.10995    132.8 9.889e+03 5.207e-10
 76.13087    133.3 9.977e+03 5.174e-10
 76.15249    133.8 9.977e+03 5.240e-10
 76.17259    132.3 1.003e+04 5.351e-10
 76.19755    132.4 9.999e+03 5.152e-10
 76.20750    131.7 9.959e+03 4.953e-10
 76.22120    131.2 9.914e+03 4.743e-10
 76.25144    131.3 9.853e+03 4.580e-10
 76.28515    131.1 9.625e+03 4.062e-10
 76.30524    130.5 9.218e+03 3.090e-10
 76.33192    130.9 8.835e+03 2.397e-10
 76.37211    131.5 8.546e+03 1.941e-10
 76.41230    132.2 8.478e+03 1.797e-10
 76.45249    133.0 8.499e+03 1.821e-10
 76.48024    133.7 8.608e+03 1.970e-10
 76.49411    134.1 8.521e+03 1.828e-10
 76.50655    134.2 8.518e+03 1.778e-10
 76.53287    135.2 8.704e+03 2.053e-10
 76.57306    136.0 8.921e+03 2.453e-10
 76.61325    136.7 9.112e+03 2.896e-10
 76.65344    137.4 9.258e+03 3.311e-10
 76.67534    138.2 9.345e+03 3.613e-10
 76.69544    139.1 9.392e+03 3.662e-10
 76.73382    140.1 9.529e+03 4.007e-10
 76.77401    140.9 9.649e+03 4.196e-10
 76.81420    141.7 9.763e+03 4.309e-10
 76.84041    141.8 9.842e+03 4.383e-10
 76.85646    143.2 9.681e+03 3.609e-10
 76.87034    142.8 1.006e+04 4.334e-10
 76.88434    142.2 1.033e+04 4.928e-10
 76.90443    141.6 1.066e+04 5.920e-10
 76.92453    140.8 1.099e+04 7.442e-10
 76.94462    140.2 1.128e+04 9.546e-10
 76.95775    140.2 1.156e+04 1.203e-09
 76.96780    140.3 1.181e+04 1.389e-09
 76.98481    140.5 1.197e+04 1.496e-09
 77.00491    140.5 1.198e+04 1.475e-09
 77.01734    140.5 1.195e+04 1.366e-09
 77.02739    141.3 1.217e+04 1.643e-09
 77.04510    141.3 1.216e+04 1.502e-09
 77.05530    141.1 1.200e+04 1.232e-09
 77.06535    140.9 1.172e+04 1.032e-09
 77.08529    140.1 1.133e+04 7.692e-10
 77.10538    139.2 1.080e+04 5.573e-10
 77.13562    138.2 1.012e+04 3.636e-10
 77.17447    137.9 9.926e+03 2.989e-10
 77.19447    138.5 1.011e+04 3.799e-10
 77.20586    138.3 1.015e+04 3.773e-10
 77.22595    138.1 1.017e+04 3.769e-10
 77.24035    137.7 1.027e+04 3.851e-10
 77.25040    138.3 1.039e+04 4.369e-10
 77.26614    137.7 1.061e+04 4.903e-10
 77.28624    136.7 1.096e+04 5.939e-10
 77.30633    135.9 1.113e+04 6.611e-10
 77.32643    134.8 1.135e+04 7.534e-10
 77.33790    133.9 1.144e+04 8.086e-10
 77.34795    134.5 1.184e+04 9.912e-10
 77.37676    132.7 1.195e+04 1.024e-09
 77.41555    130.0 1.207e+04 1.093e-09
 77.43555    129.6 1.258e+04 1.362e-09
 77.44700    128.1 1.255e+04 1.334e-09
 77.46709    126.6 1.248e+04 1.281e-09
 77.49733    124.8 1.254e+04 1.330e-09
 77.52305    123.3 1.226e+04 1.178e-09
 77.53300    123.2 1.237e+04 1.232e-09
 77.53838    122.2 1.217e+04 1.132e-09
 77.54852    121.9 1.200e+04 1.011e-09
 77.56767    121.0 1.180e+04 9.487e-10
 77.58766    120.5 1.160e+04 8.857e-10
 77.60776    120.1 1.146e+04 8.387e-10
 77.62050    119.6 1.145e+04 8.370e-10
 77.63055    119.7 1.142e+04 7.888e-10
 77.64795    119.2 1.143e+04 7.937e-10
 77.66804    118.8 1.149e+04 8.203e-10
 77.68814    118.2 1.163e+04 8.787e-10
 77.70535    117.6 1.181e+04 9.613e-10
 77.71517    117.4 1.168e+04 8.639e-10
 77.71805    117.7 1.157e+04 7.929e-10
 77.72833    117.0 1.170e+04 8.372e-10
 77.74842    116.1 1.184e+04 8.824e-10
 77.76852    114.9 1.188e+04 8.942e-10
 77.78861    113.6 1.186e+04 8.879e-10
 77.80555    112.1 1.176e+04 8.450e-10
 77.81560    112.2 1.173e+04 8.249e-10
 77.82880    110.6 1.150e+04 7.369e-10
 77.85904    108.7 1.109e+04 5.854e-10
 77.88258    105.8 1.034e+04 4.026e-10
 77.90267    106.0 1.059e+04 4.441e-10
 77.93952    103.4 9.877e+03 3.174e-10
 77.97971    101.4 9.584e+03 2.730e-10
 78.00084    100.1 9.593e+03 2.750e-10
 78.02094     99.7 9.614e+03 2.760e-10
 78.06009     98.7 9.687e+03 2.941e-10
 78.10028     97.2 9.949e+03 3.427e-10
 78.14047     95.9 1.029e+04 4.186e-10
 78.17585     93.6 1.104e+04 6.085e-10
 78.19594     90.4 1.207e+04 8.743e-10
 78.21654     86.9 1.318e+04 1.398e-09
 78.23663     86.2 1.306e+04 1.382e-09
 78.26104     82.7 1.339e+04 1.661e-09
 78.30123     79.4 1.319e+04 1.627e-09
 78.34142     77.3 1.268e+04 1.482e-09
 78.37095     76.3 1.231e+04 1.385e-09
 78.39104     71.3 1.203e+04 1.198e-09
 78.42180     70.6 1.138e+04 9.063e-10
 78.46199     70.4 1.085e+04 6.904e-10
 78.50218     70.5 1.060e+04 5.887e-10
 78.54237     70.5 1.079e+04 6.220e-10
 78.56605     70.3 1.134e+04 7.662e-10
 78.57417     66.5 1.132e+04 7.817e-10
 78.58054     67.0 1.125e+04 7.532e-10
 78.59241     66.9 1.156e+04 8.980e-10
 78.61251     66.6 1.187e+04 1.115e-09
 78.63260     66.6 1.196e+04 1.320e-09
 78.65270     66.8 1.177e+04 1.284e-09
 78.66340     67.2 1.151e+04 1.124e-09
 78.67345     65.4 1.122e+04 8.389e-10
 78.69289     64.6 1.102e+04 6.117e-10
 78.71298     63.2 1.070e+04 4.356e-10
 78.73308     61.2 1.017e+04 3.262e-10
 78.74742     60.1 9.815e+03 2.933e-10
 78.75520     59.9 9.797e+03 2.949e-10
 78.76105     59.0 9.747e+03 2.890e-10
 78.78351     59.1 9.515e+03 2.840e-10
 78.82370     59.2 9.495e+03 2.931e-10
 78.86389     59.1 9.515e+03 3.192e-10
 78.90408     59.1 9.586e+03 3.461e-10
 78.92465     59.1 9.533e+03 3.467e-10
 78.93662     58.8 9.586e+03 3.603e-10
 78.95624     57.6 9.385e+03 3.130e-10
 78.98446     57.9 9.186e+03 2.800e-10
 79.02465     58.2 9.017e+03 2.544e-10
 79.06484     58.4 8.932e+03 2.439e-10
 79.10503     58.6 8.910e+03 2.438e-10
 79.13125     59.0 8.907e+03 2.470e-10
 79.15134     58.2 8.842e+03 2.275e-10
 79.18541     58.8 8.859e+03 2.322e-10
 79.22560     59.5 8.894e+03 2.356e-10
 79.25861     60.3 8.930e+03 2.380e-10
 79.27870     60.8 9.015e+03 2.528e-10
 79.30598     61.8 9.057e+03 2.490e-10
 79.32635     62.7 9.154e+03 2.520e-10
 79.34644     62.1 8.949e+03 2.068e-10
 79.38636     62.5 9.212e+03 2.269e-10
 79.42655     62.4 9.550e+03 2.731e-10
 79.46674     61.6 9.827e+03 3.316e-10
 79.50135     60.8 1.046e+04 5.036e-10
 79.52135     60.9 1.027e+04 4.866e-10
 79.54702     59.9 1.095e+04 6.806e-10
 79.57717     58.6 1.164e+04 9.793e-10
 79.59716     57.4 1.204e+04 1.207e-09
 79.60875     56.2 1.229e+04 1.382e-09
 79.61400     56.6 1.222e+04 1.319e-09
 79.62251     56.4 1.278e+04 1.667e-09
 79.63735     55.4 1.283e+04 1.778e-09
 79.65745     54.0 1.288e+04 1.800e-09
 79.67754     52.7 1.285e+04 1.784e-09
 79.69635     50.8 1.267e+04 1.609e-09
 79.71654     51.8 1.275e+04 1.695e-09
 79.74807     49.2 1.241e+04 1.417e-09
 79.78826     47.2 1.176e+04 1.002e-09
 79.82845     45.6 1.078e+04 5.912e-10
 79.86864     44.5 9.657e+03 3.196e-10
 79.89155     43.9 8.833e+03 1.907e-10
 79.91164     44.2 8.874e+03 1.923e-10
 79.94662     43.7 8.353e+03 1.274e-10
 79.96671     44.0 8.367e+03 1.307e-10
 79.98921     43.2 8.150e+03 8.215e-11
 80.02940     42.9 8.207e+03 7.556e-11
 80.06655     42.6 8.216e+03 7.669e-11
 80.08665     41.1 8.191e+03 1.073e-10
 80.10978     40.8 8.724e+03 1.469e-10
 80.14997     40.8 9.028e+03 1.702e-10
 80.19016     40.9 9.071e+03 1.653e-10
 80.23035     41.0 9.047e+03 1.513e-10
 80.26165     41.0 9.043e+03 1.465e-10
 80.28174     38.4 9.674e+03 2.175e-10
 80.30067     38.3 9.896e+03 2.518e-10
 80.32077     37.4 1.047e+04 3.474e-10
 80.35092     37.3 1.090e+04 4.670e-10
 80.39111     37.2 1.116e+04 5.998e-10
 80.43130     37.4 1.135e+04 7.032e-10
 80.45665     36.6 1.169e+04 7.881e-10
 80.46660     34.5 1.236e+04 9.713e-10
 80.47751     32.2 1.359e+04 1.291e-09
 80.48755     30.3 1.466e+04 1.867e-09
 80.50144     27.6 1.569e+04 3.167e-09
 80.52153     26.0 1.585e+04 4.357e-09
 80.54163     24.8 1.570e+04 4.390e-09
 80.55410     24.4 1.522e+04 3.953e-09
 80.56415     23.6 1.498e+04 3.877e-09
 80.58182     23.6 1.405e+04 2.587e-09
 80.60191     23.1 1.303e+04 1.477e-09
 80.62201     21.3 1.201e+04 7.892e-10
 80.64160     18.7 1.106e+04 4.713e-10
 80.65165     17.1 1.092e+04 4.582e-10
 80.65463     16.5 1.056e+04 4.003e-10
 80.67482     15.8 1.027e+04 3.384e-10
 80.71263     15.8 1.018e+04 3.165e-10
 80.75282     15.5 1.026e+04 3.341e-10
 80.79301     15.1 1.046e+04 3.781e-10
 80.82685     14.3 1.089e+04 4.828e-10
 80.84695     11.5 1.164e+04 7.428e-10
 80.87339     10.2 1.201e+04 9.076e-10
 80.90344     10.1 1.212e+04 9.859e-10
 80.92343      8.2 1.291e+04 1.320e-09
 80.93425      5.5 1.437e+04 2.102e-09
 80.94430      3.3 1.498e+04 2.704e-09
 80.96362      0.6 1.590e+04 4.145e-09
 80.98372     -1.3 1.647e+04 5.398e-09
 80.99854     -2.5 1.616e+04 5.657e-09
 81.00859     -3.3 1.604e+04 5.678e-09
 81.02175     -3.3 1.539e+04 4.785e-09
 81.03180     -4.1 1.449e+04 3.308e-09
 81.04400     -4.6 1.365e+04 2.087e-09
 81.06410     -5.9 1.276e+04 1.143e-09
 81.08419     -8.1 1.177e+04 6.024e-10
 81.10429    -10.6 1.072e+04 3.295e-10
 81.11930    -12.3 1.019e+04 2.575e-10
 81.12935    -12.7 1.016e+04 2.567e-10
 81.15462    -12.1 9.918e+03 2.125e-10
 81.19491    -11.7 9.676e+03 1.790e-10
 81.21705    -11.2 9.559e+03 1.655e-10
 81.23714    -11.9 9.377e+03 1.365e-10
 81.27529    -11.0 9.259e+03 1.282e-10
 81.31548     -9.9 9.210e+03 1.206e-10
 81.34274     -8.8 9.245e+03 1.133e-10
 81.36284     -8.7 9.301e+03 1.233e-10
 81.39205     -7.6 9.366e+03 1.310e-10
 81.41215     -8.0 9.364e+03 1.304e-10
 81.43605     -7.0 9.517e+03 1.461e-10
 81.47624     -5.8 9.862e+03 1.778e-10
 81.51643     -4.9 1.030e+04 2.257e-10
 81.54648     -4.8 1.053e+04 2.620e-10
 81.56647     -5.2 1.081e+04 3.237e-10
 81.58657     -6.5 1.163e+04 5.237e-10
 81.59700     -8.6 1.290e+04 1.088e-09
 81.60705     -9.0 1.295e+04 1.118e-09
 81.62676    -10.1 1.430e+04 2.372e-09
 81.64685    -10.4 1.513e+04 4.147e-09
 81.66695    -12.7 1.781e+04 7.154e-09
 81.68451    -21.6 2.340e+04 1.395e-08
 81.69406    -24.7 2.378e+04 1.754e-08
 81.69655    -25.2 2.429e+04 2.109e-08
 81.70202    -33.0 2.610e+04 2.347e-08
 81.71207    -37.1 2.542e+04 2.130e-08
 81.72211    -44.9 2.597e+04 1.747e-08
 81.73216    -51.2 2.484e+04 1.349e-08
 81.73821    -57.0 2.249e+04 1.018e-08
 81.74323    -58.0 2.197e+04 9.203e-09
 81.75226    -64.3 1.757e+04 5.488e-09
 81.76738    -67.8 1.528e+04 3.179e-09
 81.78205    -71.8 1.336e+04 1.154e-09
 81.79210    -72.8 1.306e+04 1.017e-09
 81.80761    -77.2 1.152e+04 4.048e-10
 81.82771    -80.5 1.011e+04 2.262e-10
 81.84780    -81.3 9.743e+03 1.843e-10
 81.87804    -82.0 9.498e+03 1.546e-10
 81.91833    -82.3 9.331e+03 1.398e-10
 81.95725    -82.1 9.437e+03 1.712e-10
 81.97735    -81.9 9.424e+03 1.772e-10
 81.99871    -81.6 9.648e+03 2.552e-10
 82.03076    -80.7 9.898e+03 3.303e-10
 82.05085    -80.9 9.825e+03 3.145e-10
 82.07909    -79.9 9.913e+03 3.319e-10
 82.11928    -79.1 9.727e+03 2.790e-10
 82.15235    -78.5 9.335e+03 2.000e-10
 82.17245    -78.2 9.290e+03 1.931e-10
 82.19966    -78.0 8.956e+03 1.337e-10
 82.23985    -77.8 8.821e+03 1.140e-10
 82.28004    -77.3 8.932e+03 1.140e-10
 82.32023    -77.2 9.142e+03 1.356e-10
 82.34745    -76.9 9.279e+03 1.750e-10
 82.36755    -76.8 9.307e+03 2.061e-10
 82.38481    -76.2 9.436e+03 2.384e-10
 82.40491    -75.9 9.151e+03 1.364e-10
 82.44080    -75.9 9.145e+03 1.305e-10
 82.48099    -76.3 9.031e+03 1.201e-10
 82.52118    -76.5 8.894e+03 1.258e-10
 82.54255    -75.9 8.775e+03 1.413e-10
 82.56264    -75.6 8.693e+03 1.284e-10
 82.60156    -75.0 8.715e+03 1.360e-10
 82.64175    -74.6 8.739e+03 1.490e-10
 82.68194    -74.4 8.869e+03 1.720e-10
 82.71755    -74.4 9.007e+03 2.095e-10
 82.73429    -74.0 8.933e+03 1.935e-10
 82.73887    -73.2 8.813e+03 1.812e-10
 82.76232    -73.1 9.068e+03 2.261e-10
 82.80251    -73.1 9.252e+03 2.708e-10
 82.84270    -73.1 9.352e+03 3.070e-10
 82.88289    -73.3 9.392e+03 3.173e-10
 82.91265    -74.3 9.614e+03 3.223e-10
 82.93275    -74.4 9.742e+03 3.544e-10
 82.96327    -76.4 9.914e+03 4.142e-10
 83.00346    -77.2 9.945e+03 5.477e-10
 83.04365    -76.5 1.003e+04 6.150e-10
 83.07283    -75.6 9.588e+03 4.258e-10
 83.09292    -75.3 9.410e+03 3.548e-10
 83.10775    -75.4 8.868e+03 1.943e-10
 83.12785    -75.3 8.802e+03 1.720e-10
 83.16422    -75.9 8.474e+03 1.376e-10
 83.20441    -75.2 8.398e+03 1.329e-10
 83.24460    -74.6 8.477e+03 1.527e-10
 83.28276    -73.8 8.638e+03 1.905e-10
 83.30285    -73.3 8.575e+03 1.749e-10
 83.32498    -72.3 8.764e+03 2.122e-10
 83.36517    -71.5 8.955e+03 2.403e-10
 83.40536    -70.8 9.112e+03 2.559e-10
 83.42688    -70.0 9.211e+03 2.624e-10
 83.44697    -69.0 8.999e+03 2.154e-10
 83.47785    -68.5 9.067e+03 2.213e-10
 83.49795    -67.6 9.000e+03 2.026e-10
 83.52593    -66.9 9.007e+03 2.368e-10
 83.56612    -65.6 9.054e+03 2.612e-10
 83.60631    -64.5 9.118e+03 2.557e-10
 83.64650    -63.9 9.169e+03 2.328e-10
 83.67295    -63.9 9.261e+03 2.318e-10
 83.69305    -63.3 9.542e+03 2.873e-10
 83.72688    -63.3 9.752e+03 3.593e-10
 83.76084    -62.8 9.792e+03 4.062e-10
 83.78093    -61.4 9.882e+03 3.988e-10
 83.80726    -60.2 9.476e+03 3.410e-10
 83.84745    -58.7 9.123e+03 2.593e-10
 83.86805    -57.8 8.991e+03 1.861e-10
 83.88815    -56.7 9.009e+03 1.841e-10
 83.92783    -55.9 8.829e+03 1.630e-10
 83.96802    -54.5 8.738e+03 1.698e-10
 84.00821    -52.6 8.655e+03 1.668e-10
 84.04306    -50.6 8.586e+03 1.457e-10
 84.06315    -49.2 8.618e+03 1.492e-10
 84.08859    -47.5 8.546e+03 1.189e-10
 84.11489    -46.5 8.500e+03 9.987e-11
 84.13499    -45.4 8.615e+03 1.229e-10
 84.16897    -44.5 8.561e+03 1.056e-10
 84.20916    -43.7 8.621e+03 1.095e-10
 84.23815    -43.1 8.729e+03 1.222e-10
 84.25825    -41.9 8.737e+03 1.204e-10
 84.28954    -41.7 9.109e+03 1.743e-10
 84.32973    -41.0 9.468e+03 2.697e-10
 84.36992    -40.0 9.777e+03 3.636e-10
 84.41011    -38.8 1.004e+04 4.006e-10
 84.43325    -38.3 1.023e+04 3.778e-10
 84.45190    -37.3 1.041e+04 3.899e-10
 84.46895    -34.6 9.931e+03 3.482e-10
 84.49049    -33.8 1.018e+04 3.532e-10
 84.53068    -33.8 1.050e+04 3.595e-10
 84.56073    -35.4 1.192e+04 4.642e-10
 84.58072    -37.0 1.257e+04 6.417e-10
 84.60082    -38.1 1.271e+04 9.772e-10
 84.61811    -38.0 1.262e+04 1.369e-09
 84.62816    -37.3 1.269e+04 1.469e-09
 84.63573    -36.6 1.267e+04 1.648e-09
 84.64578    -35.4 1.269e+04 1.418e-09
 84.66110    -34.8 1.265e+04 1.566e-09
 84.68120    -34.2 1.260e+04 1.496e-09
 84.70129    -33.9 1.251e+04 1.381e-09
 84.71566    -34.1 1.239e+04 1.101e-09
 84.72571    -33.4 1.239e+04 1.091e-09
 84.74148    -34.0 1.206e+04 8.593e-10
 84.76158    -34.5 1.165e+04 7.147e-10
 84.78167    -34.9 1.130e+04 6.491e-10
 84.80177    -34.4 1.101e+04 5.895e-10
 84.81276    -34.4 1.101e+04 5.894e-10
 84.81415    -33.6 1.112e+04 6.275e-10
 84.82325    -32.9 1.112e+04 6.204e-10
 84.84196    -32.0 1.073e+04 5.200e-10
 84.86205    -32.0 1.065e+04 4.949e-10
 84.88215    -30.7 1.032e+04 3.989e-10
 84.90071    -30.8 1.031e+04 3.936e-10
 84.91076    -30.1 1.033e+04 3.942e-10
 84.93248    -29.4 1.014e+04 3.401e-10
 84.97277    -28.8 1.007e+04 3.321e-10
 84.99845    -28.5 1.019e+04 3.535e-10
 85.01855    -26.9 1.024e+04 3.552e-10
 85.05315    -27.2 1.066e+04 4.555e-10
 85.08320    -27.7 1.082e+04 5.211e-10
 85.09581    -28.2 1.111e+04 6.161e-10
 85.10586    -27.3 1.110e+04 6.112e-10
 85.12329    -27.6 1.133e+04 7.242e-10
 85.14338    -27.8 1.151e+04 8.553e-10
 85.15677    -27.6 1.164e+04 9.795e-10
 85.16681    -27.1 1.151e+04 9.057e-10
 85.18331    -26.7 1.166e+04 1.032e-09
 85.19336    -25.9 1.162e+04 9.889e-10
 85.21381    -24.2 1.165e+04 9.985e-10
 85.25410    -23.1 1.141e+04 8.913e-10
 85.29429    -22.5 1.130e+04 7.563e-10
 85.33448    -21.8 1.141e+04 7.310e-10
 85.36856    -21.1 1.168e+04 7.953e-10
 85.38865    -19.9 1.199e+04 9.853e-10
 85.41486    -19.0 1.247e+04 1.243e-09
 85.45505    -18.0 1.271e+04 1.433e-09
 85.49092    -17.2 1.291e+04 1.539e-09
 85.51102    -16.0 1.299e+04 1.528e-09
 85.53543    -15.5 1.320e+04 1.618e-09
 85.56356    -15.6 1.335e+04 1.846e-09
 85.57351    -15.6 1.353e+04 2.070e-09
 85.58547    -15.3 1.355e+04 2.079e-09
 85.60557    -15.1 1.359e+04 2.023e-09
 85.62566    -15.1 1.375e+04 2.031e-09
 85.64576    -15.3 1.395e+04 2.126e-09
 85.66101    -15.6 1.408e+04 2.230e-09
 85.67106    -15.4 1.336e+04 1.675e-09
 85.67780    -15.5 1.323e+04 1.574e-09
 85.68785    -14.3 1.313e+04 1.466e-09
 85.70604    -14.3 1.299e+04 1.386e-09
 85.72614    -14.0 1.288e+04 1.338e-09
 85.74623    -13.6 1.277e+04 1.293e-09
 85.75856    -13.1 1.271e+04 1.243e-09
 85.76861    -13.1 1.176e+04 8.207e-10
 85.78642    -12.5 1.175e+04 7.924e-10
 85.80652    -11.9 1.178e+04 7.907e-10
 85.82661    -12.3 1.260e+04 9.107e-10
 85.84478    -14.4 1.514e+04 1.479e-09
 85.85418    -12.6 1.536e+04 1.502e-09
 85.85611    -13.8 1.493e+04 1.279e-09
 85.86680    -15.2 1.711e+04 2.326e-09
 85.88690    -14.3 1.904e+04 5.134e-09
 85.89981    -13.6 2.080e+04 7.681e-09
 85.90478    -13.1 1.891e+04 5.258e-09
 85.91192    -14.2 2.172e+04 6.427e-09
 85.92197    -31.7 4.117e+04 2.083e-08
 85.93202    -45.2 2.808e+04 4.718e-07
 85.93820    -52.2 2.034e+04 3.263e-06
 85.94068    -51.7 2.009e+04 3.717e-06
 85.94453    -55.4 1.885e+04 6.437e-06
 85.94849    -58.6 1.857e+04 7.272e-06
 85.95100    -59.2 1.848e+04 7.521e-06
 85.95457    -61.7 1.875e+04 5.459e-06
 85.95960    -62.9 1.956e+04 3.329e-06
 85.96462    -65.6 2.176e+04 1.661e-06
 85.97218    -73.6 2.771e+04 4.508e-07
 85.98225    -91.4 4.479e+04 2.760e-08
 85.99229   -114.4 2.457e+04 7.076e-09
 86.00233   -119.7 1.732e+04 5.053e-09
 86.01240   -119.9 1.680e+04 4.978e-09
 86.02171   -119.5 1.672e+04 5.104e-09
 86.02673   -120.3 1.669e+04 4.962e-09
 86.03249   -119.9 1.662e+04 4.986e-09
 86.04111   -119.6 1.644e+04 4.779e-09
 86.05121   -120.3 1.563e+04 3.802e-09
 86.06775   -120.0 1.509e+04 3.119e-09
 86.08785   -120.4 1.447e+04 2.236e-09
 86.10794   -121.5 1.366e+04 1.633e-09
 86.12804   -122.3 1.306e+04 1.260e-09
 86.13871   -122.6 1.259e+04 1.009e-09
 86.14876   -122.3 1.300e+04 1.351e-09
 86.16823   -122.4 1.272e+04 1.173e-09
 86.18832   -122.3 1.242e+04 1.016e-09
 86.19884   -122.1 1.209e+04 8.729e-10
 86.20888   -122.7 1.217e+04 8.914e-10
 86.22621   -122.4 1.181e+04 7.589e-10
 86.23626   -122.1 1.210e+04 9.339e-10
 86.24861   -121.9 1.171e+04 7.739e-10
 86.26870   -121.5 1.139e+04 6.653e-10
 86.28880   -121.0 1.120e+04 6.010e-10
 86.30889   -120.5 1.109e+04 5.629e-10
 86.32376   -119.7 1.102e+04 5.432e-10
 86.33381   -120.1 1.102e+04 5.490e-10
 86.34908   -119.1 1.101e+04 5.431e-10
 86.36581   -118.1 1.106e+04 5.447e-10
 86.37586   -118.8 1.108e+04 5.513e-10
 86.38927   -118.0 1.123e+04 5.732e-10
 86.40937   -117.1 1.139e+04 6.178e-10
 86.42131   -116.2 1.159e+04 6.817e-10
 86.43136   -116.3 1.144e+04 6.682e-10
 86.44956   -115.3 1.170e+04 7.507e-10
 86.46965   -114.2 1.201e+04 8.495e-10
 86.48975   -113.3 1.244e+04 9.950e-10
 86.50881   -113.1 1.304e+04 1.254e-09
 86.51886   -112.6 1.259e+04 1.045e-09
 86.52994   -112.4 1.332e+04 1.416e-09
 86.54284   -112.0 1.424e+04 2.144e-09
 86.55289   -112.3 1.408e+04 2.071e-09
 86.57013   -111.7 1.483e+04 2.942e-09
 86.59022   -111.2 1.536e+04 3.726e-09
 86.60636   -110.4 1.585e+04 4.544e-09
 86.61641   -110.2 1.586e+04 4.520e-09
 86.63041   -109.4 1.645e+04 5.635e-09
 86.65051   -108.4 1.702e+04 6.947e-09
 86.67060   -107.5 1.751e+04 8.005e-09
 86.69070   -106.8 1.782e+04 8.244e-09
 86.70391   -106.1 1.791e+04 7.205e-09
 86.71299   -105.5 1.849e+04 1.049e-08
 86.71987   -106.0 1.864e+04 1.067e-08
 86.73089   -105.6 1.880e+04 9.946e-09
 86.75098   -105.4 1.866e+04 7.847e-09
 86.77108   -105.6 1.820e+04 5.470e-09
 86.79117   -106.0 1.736e+04 3.682e-09
 86.80146   -106.2 1.634e+04 2.644e-09
 86.81151   -105.3 1.794e+04 5.366e-09
 86.83136   -105.2 1.725e+04 4.228e-09
 86.85146   -104.8 1.660e+04 3.600e-09
 86.87155   -104.2 1.619e+04 3.370e-09
 86.88685   -103.2 1.598e+04 3.453e-09
 86.89421   -103.8 1.660e+04 4.726e-09
 86.89901   -103.6 1.776e+04 6.071e-09
 86.91174   -102.8 1.808e+04 7.404e-09
 86.93184   -102.1 1.929e+04 1.035e-08
 86.95193   -101.0 2.077e+04 1.521e-08
 86.96696    -99.4 2.131e+04 1.925e-08
 86.97527    -98.8 2.194e+04 2.389e-08
 86.98029    -99.2 2.249e+04 2.885e-08
 86.98641    -98.1 2.341e+04 4.136e-08
 86.99144    -98.9 2.332e+04 4.080e-08
 86.99705    -98.1 2.394e+04 5.462e-08
 87.00710    -97.0 2.432e+04 7.252e-08
 87.01715    -95.7 2.458e+04 9.647e-08
 87.02719    -94.2 2.502e+04 1.306e-07
 87.03519    -93.2 2.567e+04 1.753e-07
 87.04021    -94.9 2.639e+04 1.506e-07
 87.04729    -94.8 2.689e+04 2.139e-07
 87.05734    -95.2 2.632e+04 3.375e-07
 87.06378    -95.8 2.489e+04 6.032e-07
 87.06880   -101.9 2.423e+04 5.409e-07
 87.07743   -103.7 2.285e+04 7.915e-07
 87.08396   -108.1 2.269e+04 8.592e-07
 87.08899   -113.1 2.347e+04 2.886e-07
 87.09753   -118.0 2.379e+04 2.326e-07
 87.10757   -123.2 2.366e+04 1.680e-07
 87.11762   -126.7 2.355e+04 1.240e-07
 87.12767   -127.9 2.412e+04 9.701e-08
 87.13772   -126.5 2.255e+04 3.216e-08
 87.14727   -126.6 2.272e+04 3.035e-08
 87.15229   -125.8 2.249e+04 2.505e-08
 87.15781   -126.0 2.243e+04 2.432e-08
 87.16786   -126.2 2.257e+04 2.435e-08
 87.17649   -126.6 2.295e+04 2.620e-08
 87.18151   -126.8 2.117e+04 1.466e-08
 87.18795   -127.4 2.157e+04 1.747e-08
 87.19800   -127.4 2.176e+04 2.183e-08
 87.20805   -127.3 2.182e+04 2.803e-08
 87.21810   -126.7 2.191e+04 3.605e-08
 87.22526   -126.0 2.213e+04 4.504e-08
 87.23029   -126.3 2.076e+04 1.964e-08
 87.23578   -125.9 2.076e+04 2.181e-08
 87.24081   -125.3 2.028e+04 1.939e-08
 87.24824   -125.2 2.027e+04 2.067e-08
 87.25829   -125.0 2.027e+04 2.122e-08
 87.26833   -124.3 2.013e+04 2.054e-08
 87.27404   -123.4 1.992e+04 1.841e-08
 87.27906   -123.3 1.854e+04 1.079e-08
 87.28843   -122.4 1.846e+04 1.030e-08
 87.29848   -121.6 1.838e+04 9.611e-09
 87.30852   -120.9 1.820e+04 8.759e-09
 87.31779   -120.4 1.788e+04 7.850e-09
 87.32281   -120.4 1.696e+04 6.223e-09
 87.33369   -119.7 1.717e+04 6.322e-09
 87.35383   -118.0 1.666e+04 5.081e-09
 87.36666   -116.5 1.611e+04 3.835e-09
 87.37671   -116.2 1.446e+04 2.860e-09
 87.39402   -115.0 1.416e+04 2.319e-09
 87.40788   -113.9 1.352e+04 1.859e-09
 87.41793   -113.3 1.289e+04 1.701e-09
 87.43421   -112.3 1.225e+04 1.367e-09
 87.45416   -111.0 1.179e+04 1.146e-09
 87.46421   -109.8 1.158e+04 1.101e-09
 87.47440   -108.6 1.122e+04 9.413e-10
 87.49450   -107.1 1.099e+04 8.486e-10
 87.51459   -105.7 1.090e+04 8.195e-10
 87.53469   -104.2 1.103e+04 8.591e-10
 87.55171   -102.7 1.141e+04 9.758e-10
 87.56176   -101.4 1.079e+04 7.575e-10
 87.57486    -99.9 1.097e+04 8.452e-10
 87.59496    -96.8 1.070e+04 7.107e-10
 87.61507    -95.5 1.122e+04 8.718e-10
 87.63516    -95.0 1.272e+04 1.175e-09
 87.64926    -95.2 1.504e+04 1.692e-09
 87.65931    -91.9 1.181e+04 1.001e-09
 87.67535    -92.0 1.434e+04 1.459e-09
 87.69545    -93.0 1.712e+04 2.264e-09
 87.71554    -93.2 1.874e+04 3.175e-09
 87.73057    -92.1 1.962e+04 3.704e-09
 87.74057    -92.7 2.059e+04 4.330e-09
 87.74671    -93.5 2.195e+04 6.696e-09
 87.75174    -91.0 2.052e+04 4.557e-09
 87.75682    -92.1 2.179e+04 6.139e-09
 87.76184    -90.1 2.195e+04 5.148e-09
 87.77071    -91.8 2.321e+04 8.792e-09
 87.78076    -93.4 2.454e+04 1.217e-08
 87.79046    -95.0 2.527e+04 1.441e-08
 87.79549    -92.2 2.462e+04 1.224e-08
 87.80085    -93.9 2.572e+04 1.384e-08
 87.81090    -96.2 2.615e+04 1.319e-08
 87.82095    -97.9 2.639e+04 1.279e-08
 87.83426   -100.7 2.775e+04 1.137e-08
 87.84358    -97.2 2.627e+04 1.221e-08
 87.84533    -96.8 2.765e+04 1.378e-08
 87.85616    -98.2 2.806e+04 1.188e-08
 87.87630   -103.8 2.710e+04 7.118e-09
 87.89640   -109.8 2.094e+04 3.857e-09
 87.91649   -114.0 1.665e+04 2.758e-09
 87.92892   -116.1 1.631e+04 2.483e-09
 87.93424   -117.8 1.755e+04 3.283e-09
 87.94191   -111.6 2.047e+04 3.967e-09
 87.95668   -114.3 1.918e+04 3.525e-09
 87.97678   -115.6 1.844e+04 3.521e-09
 87.99687   -116.1 1.743e+04 3.741e-09
 88.01697   -116.1 1.664e+04 3.924e-09
 88.02941   -115.8 1.632e+04 4.001e-09
 88.03946   -112.6 1.919e+04 3.761e-09
 88.05716   -112.5 1.775e+04 3.798e-09
 88.07725   -112.5 1.709e+04 3.860e-09
 88.09590   -117.7 2.532e+04 3.385e-09
 88.10594   -124.6 4.322e+04 2.844e-09
 88.11237   -141.6 5.351e+04 3.971e-09
 88.12184   -154.5 3.629e+04 4.227e-08
 88.12686   -147.5 4.044e+04 2.037e-08
 88.13242   -160.0 3.135e+04 1.309e-07
 88.14247   -171.7 2.686e+04 3.875e-07
 88.15251   -181.4 2.566e+04 5.010e-07
 88.16002   -188.0 2.638e+04 4.529e-07
 88.16502   -192.8 2.811e+04 2.989e-07
 88.17059   -198.3 2.905e+04 1.703e-07
 88.17564   -196.8 2.871e+04 2.001e-07
 88.18266   -210.6 2.973e+04 5.184e-08
 88.18934   -227.0 2.590e+04 7.107e-09
 88.19436   -230.7 2.424e+04 4.350e-09
 88.20275   -237.3 1.679e+04 2.305e-09
 88.21280   -238.7 1.542e+04 2.065e-09
 88.21939   -238.9 1.524e+04 1.992e-09
 88.22441   -240.2 1.621e+04 2.139e-09
 88.23797   -240.4 1.659e+04 2.116e-09
 88.25811   -240.0 1.530e+04 1.771e-09
 88.27292   -239.8 1.351e+04 1.458e-09
 88.28297   -240.9 1.316e+04 1.405e-09
 88.29830   -239.8 1.299e+04 1.310e-09
 88.31201   -238.4 1.276e+04 1.234e-09
 88.32206   -240.6 1.277e+04 1.121e-09
 88.33849   -238.7 1.244e+04 1.024e-09
 88.35858   -236.7 1.210e+04 9.365e-10
 88.37868   -234.7 1.178e+04 8.569e-10
 88.39877   -232.6 1.148e+04 7.875e-10
 88.40956   -230.5 1.121e+04 7.290e-10
 88.41961   -231.7 1.113e+04 6.544e-10
 88.43896   -229.6 1.082e+04 5.937e-10
 88.44995   -227.6 1.054e+04 5.411e-10
 88.46000   -228.3 1.018e+04 4.485e-10
 88.47915   -226.2 9.980e+03 4.233e-10
 88.49706   -224.1 9.828e+03 4.083e-10
 88.50711   -224.8 9.602e+03 3.469e-10
 88.51934   -222.7 9.459e+03 3.344e-10
 88.53944   -220.7 9.363e+03 3.274e-10
 88.55953   -218.8 9.318e+03 3.247e-10
 88.57963   -216.8 9.258e+03 3.297e-10
 88.59461   -214.9 9.278e+03 3.441e-10
 88.60466   -215.2 9.174e+03 3.135e-10
 88.61693   -213.4 9.253e+03 3.306e-10
 88.62698   -214.1 9.251e+03 3.311e-10
 88.63991   -212.3 9.332e+03 3.561e-10
 88.66001   -210.6 9.418e+03 3.847e-10
 88.68010   -208.8 9.508e+03 4.158e-10
 88.69216   -207.2 9.591e+03 4.475e-10
 88.70221   -207.8 9.602e+03 4.458e-10
 88.72029   -206.2 9.687e+03 4.770e-10
 88.74039   -204.6 9.785e+03 5.097e-10
 88.76048   -203.0 9.895e+03 5.464e-10
 88.77966   -201.6 1.001e+04 5.880e-10
 88.78971   -202.2 1.053e+04 7.334e-10
 88.79396   -200.7 1.062e+04 7.862e-10
 88.80401   -201.3 1.047e+04 7.349e-10
 88.82077   -199.9 1.054e+04 7.780e-10
 88.84086   -198.6 1.061e+04 8.183e-10
 88.86096   -197.4 1.069e+04 8.597e-10
 88.87721   -196.3 1.078e+04 9.090e-10
 88.88726   -197.0 1.102e+04 1.016e-09
 88.90115   -195.9 1.112e+04 1.074e-09
 88.92124   -194.9 1.127e+04 1.153e-09
 88.94134   -194.1 1.145e+04 1.251e-09
 88.96094   -193.2 1.166e+04 1.360e-09
 88.97099   -194.2 1.195e+04 1.413e-09
 88.97486   -194.0 1.224e+04 1.549e-09
 88.98491   -193.8 1.215e+04 1.615e-09
 89.00162   -193.2 1.231e+04 1.747e-09
 89.02172   -192.4 1.252e+04 1.913e-09
 89.04181   -191.7 1.279e+04 2.143e-09
 89.06191   -191.0 1.312e+04 2.432e-09
 89.07231   -190.4 1.349e+04 2.786e-09
 89.08236   -190.4 1.302e+04 2.416e-09
 89.10210   -189.7 1.337e+04 2.741e-09
 89.12219   -189.1 1.373e+04 3.125e-09
 89.13797   -188.4 1.408e+04 3.539e-09
 89.14801   -189.3 1.467e+04 4.191e-09
 89.15981   -188.5 1.494e+04 4.513e-09
 89.16986   -188.5 1.437e+04 3.940e-09
 89.18248   -187.7 1.464e+04 4.304e-09
 89.20257   -186.9 1.483e+04 4.548e-09
 89.22267   -186.1 1.495e+04 4.646e-09
 89.24276   -185.3 1.500e+04 4.666e-09
 89.25736   -184.6 1.499e+04 4.565e-09
 89.26741   -184.6 1.468e+04 4.368e-09
 89.28295   -183.9 1.476e+04 4.427e-09
 89.30305   -183.3 1.481e+04 4.444e-09
 89.31499   -182.6 1.484e+04 4.451e-09
 89.32504   -183.2 1.465e+04 4.204e-09
 89.34324   -182.5 1.463e+04 4.149e-09
 89.35491   -181.7 1.461e+04 4.072e-09
 89.36496   -181.5 1.460e+04 4.296e-09
 89.38343   -180.6 1.458e+04 4.251e-09
 89.40352   -179.7 1.456e+04 4.155e-09
 89.42362   -178.9 1.451e+04 3.956e-09
 89.44241   -178.2 1.438e+04 3.635e-09
 89.45246   -177.7 1.436e+04 3.807e-09
 89.46381   -176.9 1.419e+04 3.555e-09
 89.48197   -176.3 1.410e+04 3.323e-09
 89.49202   -176.9 1.365e+04 2.475e-09
 89.50400   -176.3 1.364e+04 2.433e-09
 89.52409   -175.7 1.371e+04 2.462e-09
 89.53996   -174.9 1.386e+04 2.618e-09
 89.55001   -174.5 1.431e+04 3.304e-09
 89.56428   -173.5 1.453e+04 3.598e-09
 89.58438   -172.4 1.471e+04 3.838e-09
 89.60447   -171.3 1.480e+04 3.964e-09
 89.62457   -170.2 1.482e+04 3.986e-09
 89.63751   -169.0 1.471e+04 3.803e-09
 89.64756   -169.0 1.492e+04 4.209e-09
 89.65900   -167.8 1.458e+04 3.641e-09
 89.66905   -167.6 1.446e+04 3.419e-09
 89.68485   -166.4 1.414e+04 3.012e-09
 89.70495   -165.1 1.381e+04 2.639e-09
 89.72501   -163.7 1.353e+04 2.344e-09
 89.74511   -162.5 1.325e+04 2.098e-09
 89.76523   -161.3 1.304e+04 1.918e-09
 89.78533   -160.0 1.285e+04 1.768e-09
 89.80542   -158.6 1.271e+04 1.662e-09
 89.82256   -157.3 1.261e+04 1.587e-09
 89.83261   -157.5 1.254e+04 1.569e-09
 89.83603   -156.1 1.245e+04 1.509e-09
 89.84608   -156.0 1.247e+04 1.523e-09
 89.86571   -154.4 1.237e+04 1.467e-09
 89.88580   -152.9 1.227e+04 1.418e-09
 89.90590   -151.5 1.223e+04 1.385e-09
 89.92011   -150.4 1.229e+04 1.385e-09
 89.93016   -152.0 1.287e+04 1.577e-09
 89.94609   -151.3 1.341e+04 1.832e-09
 89.96618   -150.7 1.398e+04 2.230e-09
 89.98628   -149.8 1.448e+04 2.744e-09
 90.00301   -148.8 1.488e+04 3.301e-09
 90.01305   -148.1 1.431e+04 2.713e-09
 90.01766   -147.1 1.460e+04 3.075e-09
 90.02771   -149.2 1.480e+04 3.414e-09
 90.04656   -148.7 1.496e+04 3.525e-09
 90.06666   -148.6 1.534e+04 3.713e-09
 90.08675   -148.9 1.578e+04 3.917e-09
 90.10516   -149.7 1.624e+04 4.009e-09
 90.11521   -153.1 1.558e+04 3.059e-09
 90.12694   -154.4 1.557e+04 3.114e-09
 90.14704   -155.8 1.540e+04 3.144e-09
 90.16713   -157.3 1.509e+04 3.223e-09
 90.18003   -158.7 1.479e+04 3.357e-09
 90.19008   -157.8 1.450e+04 3.590e-09
 90.20271   -159.0 1.441e+04 3.019e-09
 90.21276   -161.2 1.341e+04 2.094e-09
 90.22742   -162.9 1.356e+04 1.801e-09
 90.24751   -164.8 1.389e+04 1.671e-09
 90.26761   -167.3 1.436e+04 1.610e-09
 90.28770   -171.4 1.523e+04 1.577e-09
 90.30021   -177.0 1.590e+04 1.361e-09
 90.31026   -178.1 1.642e+04 1.274e-09
 90.32789   -186.2 1.923e+04 2.147e-09
 90.34292   -192.0 1.999e+04 3.759e-09
 90.34894   -194.9 2.052e+04 6.732e-09
 90.35299   -193.2 2.039e+04 5.152e-09
 90.35696   -195.0 2.030e+04 4.640e-09
 90.36296   -197.7 2.101e+04 8.244e-09
 90.37301   -198.8 2.125e+04 1.158e-08
 90.38306   -200.6 2.120e+04 2.024e-08
 90.39269   -201.6 2.109e+04 2.844e-08
 90.39772   -201.1 2.107e+04 2.430e-08
 90.40315   -202.0 2.098e+04 3.376e-08
 90.41320   -202.6 2.145e+04 3.826e-08
 90.42325   -203.7 2.244e+04 3.842e-08
 90.43330   -205.8 2.337e+04 3.702e-08
 90.44045   -209.6 2.597e+04 2.819e-08
 90.44360   -209.7 2.347e+04 2.816e-08
 90.44649   -208.4 2.174e+04 3.852e-08
 90.45339   -211.6 2.379e+04 3.023e-08
 90.46344   -216.6 2.599e+04 2.010e-08
 90.47349   -223.0 2.577e+04 1.311e-08
 90.48353   -229.5 2.254e+04 9.589e-09
 90.49024   -234.7 1.963e+04 8.727e-09
 90.49526   -232.8 2.079e+04 9.104e-09
 90.50363   -237.2 1.905e+04 8.599e-09
 90.51368   -239.5 1.889e+04 8.686e-09
 90.52372   -241.1 1.921e+04 9.884e-09
 90.52897   -242.5 1.972e+04 1.113e-08
 90.53399   -240.8 1.876e+04 9.081e-09
 90.53902   -241.9 1.910e+04 9.901e-09
 90.54404   -241.8 1.867e+04 8.859e-09
 90.55387   -242.8 1.877e+04 9.164e-09
 90.56391   -243.5 1.879e+04 9.234e-09
 90.57396   -244.0 1.869e+04 9.155e-09
 90.58277   -244.3 1.847e+04 8.708e-09
 90.58779   -244.0 1.777e+04 7.342e-09
 90.59406   -244.2 1.752e+04 6.754e-09
 90.60410   -244.3 1.728e+04 6.217e-09
 90.61246   -244.4 1.706e+04 5.757e-09
 90.61748   -243.5 1.689e+04 5.601e-09
 90.62420   -243.7 1.671e+04 5.246e-09
 90.63154   -243.9 1.654e+04 4.958e-09
 90.63657   -243.8 1.623e+04 4.569e-09
 90.64429   -244.1 1.605e+04 4.321e-09
 90.65434   -244.3 1.604e+04 4.288e-09
 90.66946   -244.7 1.589e+04 4.170e-09
 90.68041   -244.7 1.536e+04 3.747e-09
 90.69046   -244.4 1.417e+04 2.705e-09
 90.70107   -244.0 1.363e+04 2.367e-09
 90.71112   -242.8 1.344e+04 2.164e-09
 90.72979   -242.4 1.301e+04 1.906e-09
 90.74989   -241.3 1.258e+04 1.668e-09
 90.76792   -239.9 1.221e+04 1.465e-09
 90.77796   -239.2 1.192e+04 1.254e-09
 90.79008   -237.9 1.162e+04 1.095e-09
 90.81017   -236.5 1.137e+04 9.638e-10
 90.83027   -235.0 1.115e+04 8.625e-10
 90.85036   -233.5 1.099e+04 7.903e-10
 90.86547   -232.0 1.087e+04 7.402e-10
 90.87310   -231.5 1.060e+04 6.211e-10
 90.87810   -231.4 1.058e+04 6.273e-10
 90.89055   -229.9 1.049e+04 5.949e-10
 90.91065   -228.3 1.042e+04 5.734e-10
 90.93074   -226.6 1.038e+04 5.609e-10
 90.95084   -224.9 1.036e+04 5.563e-10
 90.96301   -223.2 1.035e+04 5.552e-10
 90.97306   -222.9 1.021e+04 4.976e-10
 90.99103   -221.2 1.022e+04 4.991e-10
 91.01112   -219.6 1.024e+04 5.070e-10
 91.03122   -217.9 1.028e+04 5.232e-10
 91.04508   -216.3 1.033e+04 5.458e-10
 91.05433   -216.4 1.041e+04 5.795e-10
 91.06056   -216.0 1.039e+04 5.624e-10
 91.07141   -214.5 1.044e+04 5.854e-10
 91.09150   -213.0 1.049e+04 6.110e-10
 91.11160   -211.4 1.054e+04 6.402e-10
 91.13169   -209.9 1.061e+04 6.690e-10
 91.14807   -208.4 1.068e+04 6.956e-10
 91.15811   -208.1 1.063e+04 6.735e-10
 91.17188   -206.6 1.068e+04 6.964e-10
 91.19198   -205.2 1.071e+04 7.160e-10
 91.21206   -203.9 1.074e+04 7.258e-10
 91.23215   -202.8 1.067e+04 6.777e-10
 91.24562   -201.5 1.061e+04 6.509e-10
 91.25566   -201.1 1.060e+04 6.476e-10
 91.27236   -199.8 1.050e+04 6.085e-10
 91.29245   -198.5 1.040e+04 5.674e-10
 91.31255   -197.3 1.029e+04 5.287e-10
 91.33264   -196.1 1.019e+04 4.955e-10
 91.34316   -194.9 1.010e+04 4.709e-10
 91.35321   -194.5 1.009e+04 4.674e-10
 91.37283   -193.2 1.002e+04 4.510e-10
 91.38908   -192.1 9.983e+03 4.417e-10
 91.39913   -192.4 9.976e+03 4.459e-10
 91.41302   -191.2 9.965e+03 4.446e-10
 91.43067   -189.9 9.965e+03 4.456e-10
 91.44071   -189.5 9.963e+03 4.433e-10
 91.45321   -188.3 9.968e+03 4.433e-10
 91.47331   -187.0 1.000e+04 4.368e-10
 91.49340   -185.7 1.002e+04 4.260e-10
 91.52364   -184.3 1.002e+04 4.072e-10
 91.56393   -182.0 9.980e+03 3.766e-10
 91.60412   -179.6 9.912e+03 3.394e-10
 91.62596   -177.4 9.881e+03 3.091e-10
 91.64606   -177.0 9.832e+03 2.984e-10
 91.68450   -174.8 9.853e+03 2.884e-10
 91.72324   -173.0 1.004e+04 2.871e-10
 91.74333   -174.8 1.018e+04 3.071e-10
 91.75474   -173.4 1.042e+04 3.241e-10
 91.77473   -173.5 1.064e+04 3.637e-10
 91.79483   -173.6 1.082e+04 4.292e-10
 91.81082   -174.0 1.110e+04 5.439e-10
 91.82086   -175.1 1.127e+04 6.528e-10
 91.83502   -175.7 1.171e+04 8.738e-10
 91.85511   -176.0 1.222e+04 1.181e-09
 91.87521   -176.2 1.279e+04 1.588e-09
 91.89530   -176.1 1.340e+04 2.105e-09
 91.90837   -175.8 1.399e+04 2.729e-09
 91.91313   -177.2 1.405e+04 2.693e-09
 91.92016   -176.6 1.357e+04 2.425e-09
 91.93549   -176.3 1.396e+04 2.871e-09
 91.95559   -175.8 1.427e+04 3.263e-09
 91.97568   -175.1 1.447e+04 3.553e-09
 91.99578   -174.2 1.458e+04 3.746e-09
 92.01587   -174.7 1.393e+04 2.737e-09
 92.03597   -174.7 1.446e+04 3.025e-09
 92.05606   -175.5 1.562e+04 3.795e-09
 92.07616   -177.1 1.732e+04 5.622e-09
 92.08714   -178.9 1.915e+04 9.472e-09
 92.09435   -178.5 1.955e+04 9.756e-09
 92.10346   -181.4 1.919e+04 1.028e-08
 92.11635   -182.4 2.009e+04 1.589e-08
 92.13137   -182.5 2.077e+04 2.062e-08
 92.14137   -183.0 2.097e+04 2.226e-08
 92.14712   -183.6 2.105e+04 2.290e-08
 92.15214   -184.5 2.011e+04 1.602e-08
 92.16147   -185.0 1.999e+04 1.499e-08
 92.17054   -185.7 1.963e+04 1.203e-08
 92.17556   -185.5 1.974e+04 1.187e-08
 92.18156   -187.2 1.899e+04 8.293e-09
 92.19087   -189.8 1.773e+04 5.587e-09
 92.19589   -191.0 1.644e+04 4.434e-09
 92.20166   -192.8 1.568e+04 3.537e-09
 92.21678   -194.2 1.520e+04 2.969e-09
 92.23692   -196.2 1.435e+04 2.209e-09
 92.25412   -197.7 1.331e+04 1.624e-09
 92.26417   -198.4 1.258e+04 1.355e-09
 92.27711   -199.1 1.209e+04 1.149e-09
 92.28852   -199.4 1.199e+04 1.084e-09
 92.29856   -198.9 1.176e+04 9.360e-10
 92.31730   -199.0 1.175e+04 9.324e-10
 92.33739   -199.3 1.178e+04 9.323e-10
 92.35749   -200.1 1.209e+04 9.612e-10
 92.37602   -201.2 1.259e+04 1.057e-09
 92.38607   -200.5 1.243e+04 9.993e-10
 92.39768   -201.9 1.289e+04 1.170e-09
 92.41777   -203.2 1.324e+04 1.413e-09
 92.43115   -204.4 1.335e+04 1.650e-09
 92.44120   -205.0 1.299e+04 1.550e-09
 92.45796   -205.9 1.296e+04 1.590e-09
 92.47357   -206.3 1.278e+04 1.588e-09
 92.48361   -206.0 1.276e+04 1.567e-09
 92.49815   -206.0 1.229e+04 1.410e-09
 92.51825   -206.0 1.183e+04 1.142e-09
 92.53834   -205.8 1.135e+04 8.814e-10
 92.55844   -205.4 1.090e+04 6.739e-10
 92.57112   -204.9 1.050e+04 5.278e-10
 92.58116   -204.5 1.052e+04 5.616e-10
 92.59813   -203.9 1.022e+04 4.585e-10
 92.60818   -204.3 1.012e+04 3.948e-10
 92.61872   -203.5 9.945e+03 3.499e-10
 92.63882   -202.6 9.873e+03 3.363e-10
 92.65862   -201.6 9.877e+03 3.363e-10
 92.66867   -201.5 1.005e+04 3.492e-10
 92.68915   -200.5 9.999e+03 3.495e-10
 92.72944   -198.3 1.000e+04 3.583e-10
 92.75636   -196.3 1.047e+04 4.906e-10
 92.77213   -197.5 1.157e+04 7.446e-10
 92.78540   -197.7 1.105e+04 5.556e-10
 92.80982   -195.8 1.144e+04 7.641e-10
 92.83987   -193.9 1.186e+04 1.074e-09
 92.85372   -192.9 1.215e+04 1.317e-09
 92.86376   -193.7 1.218e+04 1.316e-09
 92.87996   -192.6 1.243e+04 1.544e-09
 92.90005   -191.4 1.260e+04 1.725e-09
 92.92015   -190.2 1.266e+04 1.821e-09
 92.94024   -188.9 1.265e+04 1.838e-09
 92.95127   -187.5 1.257e+04 1.808e-09
 92.95316   -188.3 1.194e+04 1.295e-09
 92.96223   -188.1 1.164e+04 1.081e-09
 92.98043   -186.5 1.155e+04 1.052e-09
 93.00053   -184.9 1.146e+04 1.018e-09
 93.02062   -183.2 1.136e+04 9.818e-10
 93.03877   -181.4 1.124e+04 9.441e-10
 93.04882   -182.6 1.081e+04 7.598e-10
 93.06081   -180.3 1.072e+04 7.400e-10
 93.08091   -177.6 1.066e+04 7.249e-10
 93.10100   -174.9 1.066e+04 7.232e-10
 93.11917   -174.1 1.092e+04 7.579e-10
 93.12921   -173.7 1.083e+04 7.668e-10
 93.13632   -175.4 1.226e+04 8.422e-10
 93.14637   -181.9 1.528e+04 9.649e-10
 93.16129   -189.2 1.973e+04 3.064e-09
 93.18138   -194.0 2.027e+04 1.008e-08
 93.19641   -196.8 2.022e+04 1.806e-08
 93.20641   -197.5 2.026e+04 2.176e-08
 93.21261   -198.3 2.036e+04 2.315e-08
 93.21763   -198.5 2.031e+04 2.427e-08
 93.22650   -199.5 2.053e+04 2.525e-08
 93.23377   -201.0 2.070e+04 2.507e-08
 93.23879   -201.8 2.035e+04 2.008e-08
 93.24660   -204.2 2.055e+04 1.347e-08
 93.25664   -208.2 1.954e+04 6.882e-09
 93.26669   -213.1 1.736e+04 3.577e-09
 93.28181   -217.3 1.515e+04 2.354e-09
 93.29619   -221.8 1.297e+04 1.686e-09
 93.30624   -220.3 1.408e+04 2.176e-09
 93.32137   -222.7 1.248e+04 1.724e-09
 93.33142   -221.8 1.205e+04 1.452e-09
 93.34214   -222.0 1.179e+04 1.412e-09
 93.36224   -221.8 1.168e+04 1.405e-09
 93.38233   -221.0 1.150e+04 1.320e-09
 93.40243   -219.5 1.116e+04 1.082e-09
 93.41892   -218.0 1.069e+04 8.074e-10
 93.42897   -217.2 1.029e+04 6.451e-10
 93.44262   -215.9 9.930e+03 4.630e-10
 93.46271   -215.3 9.795e+03 3.935e-10
 93.47332   -214.9 9.774e+03 3.503e-10
 93.49351   -213.8 9.656e+03 3.437e-10
 93.51666   -213.0 9.601e+03 3.124e-10
 93.53676   -213.5 9.373e+03 2.940e-10
 93.57343   -212.4 9.430e+03 3.022e-10
 93.61362   -211.3 1.002e+04 4.102e-10
 93.65381   -210.1 1.060e+04 5.993e-10
 93.68386   -209.4 1.080e+04 7.283e-10
 93.70152   -209.4 1.087e+04 7.786e-10
 93.71166   -209.8 1.051e+04 6.247e-10
 93.72405   -209.1 1.060e+04 7.246e-10
 93.74404   -208.6 1.058e+04 7.372e-10
 93.76414   -207.9 1.050e+04 7.206e-10
 93.78423   -207.3 1.042e+04 6.743e-10
 93.79907   -206.7 1.036e+04 6.239e-10
 93.80912   -206.8 1.019e+04 5.840e-10
 93.81723   -206.2 1.023e+04 5.824e-10
 93.82727   -206.3 1.017e+04 5.704e-10
 93.84452   -205.6 1.024e+04 5.932e-10
 93.86461   -205.0 1.034e+04 6.039e-10
 93.88471   -204.4 1.041e+04 6.194e-10
 93.89662   -203.8 1.048e+04 6.416e-10
 93.90667   -203.9 1.034e+04 6.319e-10
 93.92490   -203.3 1.037e+04 6.422e-10
 93.94499   -202.8 1.038e+04 6.414e-10
 93.96509   -202.3 1.039e+04 6.315e-10
 93.98412   -201.9 1.039e+04 6.148e-10
 93.99417   -202.4 1.035e+04 6.255e-10
 94.00528   -202.1 1.038e+04 6.194e-10
 94.02537   -201.8 1.040e+04 6.041e-10
 94.04547   -201.6 1.037e+04 5.781e-10
 94.06556   -201.4 1.030e+04 5.430e-10
 94.08167   -201.2 1.022e+04 5.047e-10
 94.09172   -201.2 1.009e+04 4.861e-10
 94.10575   -201.0 1.006e+04 4.639e-10
 94.12585   -200.9 1.008e+04 4.483e-10
 94.14594   -200.9 1.010e+04 4.434e-10
 94.16123   -201.0 1.013e+04 4.428e-10
 94.17128   -201.4 1.022e+04 4.711e-10
 94.17922   -201.7 1.033e+04 4.719e-10
 94.18927   -201.8 1.023e+04 4.599e-10
 94.20623   -202.2 1.033e+04 4.641e-10
 94.22632   -202.7 1.043e+04 4.791e-10
 94.24642   -203.1 1.052e+04 5.103e-10
 94.26651   -203.6 1.061e+04 5.598e-10
 94.27677   -203.9 1.072e+04 6.261e-10
 94.28682   -203.8 1.044e+04 5.153e-10
 94.30670   -204.1 1.056e+04 5.752e-10
 94.32680   -204.3 1.070e+04 6.418e-10
 94.33826   -204.5 1.083e+04 7.052e-10
 94.34831   -204.8 1.073e+04 6.606e-10
 94.36427   -205.1 1.085e+04 6.976e-10
 94.37432   -204.7 1.063e+04 6.021e-10
 94.38708   -205.0 1.078e+04 6.416e-10
 94.40718   -205.3 1.099e+04 6.907e-10
 94.42727   -205.9 1.128e+04 7.646e-10
 94.44737   -206.7 1.164e+04 8.758e-10
 94.46182   -207.6 1.200e+04 1.022e-09
 94.47187   -206.6 1.165e+04 8.513e-10
 94.48756   -207.4 1.198e+04 9.951e-10
 94.50524   -208.2 1.225e+04 1.149e-09
 94.51529   -208.4 1.240e+04 1.253e-09
 94.52775   -209.0 1.253e+04 1.387e-09
 94.54784   -209.3 1.256e+04 1.428e-09
 94.55937   -209.5 1.247e+04 1.424e-09
 94.56942   -208.5 1.246e+04 1.376e-09
 94.58803   -208.4 1.231e+04 1.328e-09
 94.60813   -208.3 1.203e+04 1.179e-09
 94.62822   -208.1 1.168e+04 9.841e-10
 94.64687   -207.9 1.131e+04 7.978e-10
 94.65692   -206.9 1.158e+04 8.942e-10
 94.66841   -206.7 1.121e+04 7.005e-10
 94.68227   -206.5 1.085e+04 5.500e-10
 94.69232   -207.0 1.076e+04 5.088e-10
 94.70860   -206.9 1.048e+04 4.393e-10
 94.72870   -206.6 1.032e+04 3.990e-10
 94.74442   -206.1 1.026e+04 3.815e-10
 94.75447   -205.8 1.035e+04 3.844e-10
 94.77903   -205.4 1.024e+04 3.732e-10
 94.81932   -203.8 1.013e+04 3.654e-10
 94.84216   -201.9 1.000e+04 3.543e-10
 94.85219   -201.8 1.022e+04 3.624e-10
 94.86954   -202.2 1.031e+04 3.748e-10
 94.89970   -200.5 1.008e+04 3.304e-10
 94.93989   -198.8 9.915e+03 2.885e-10
 94.98008   -197.2 9.898e+03 2.636e-10
 95.01717   -195.7 9.911e+03 2.585e-10
 95.03726   -195.7 9.945e+03 2.491e-10
 95.06046   -194.5 1.001e+04 2.498e-10
 95.10065   -193.9 1.063e+04 3.021e-10
 95.12467   -193.2 1.124e+04 4.013e-10
 95.13462   -192.9 1.122e+04 3.877e-10
 95.15069   -192.9 1.148e+04 4.407e-10
 95.17079   -192.9 1.199e+04 6.316e-10
 95.19088   -193.3 1.243e+04 9.338e-10
 95.20330   -193.4 1.288e+04 1.403e-09
 95.21335   -192.3 1.238e+04 9.298e-10
 95.22212   -192.3 1.281e+04 1.324e-09
 95.23217   -192.2 1.292e+04 1.322e-09
 95.25117   -192.2 1.340e+04 1.898e-09
 95.27126   -192.2 1.382e+04 2.532e-09
 95.29136   -192.3 1.413e+04 3.035e-09
 95.30962   -192.7 1.427e+04 3.233e-09
 95.31967   -192.5 1.434e+04 3.434e-09
 95.33155   -193.0 1.434e+04 3.438e-09
 95.35164   -193.6 1.409e+04 3.103e-09
 95.37028   -194.3 1.360e+04 2.482e-09
 95.38033   -193.3 1.403e+04 2.864e-09
 95.39183   -194.2 1.355e+04 2.356e-09
 95.40717   -195.1 1.303e+04 1.949e-09
 95.41722   -194.8 1.313e+04 2.039e-09
 95.43202   -195.5 1.273e+04 1.773e-09
 95.45212   -196.0 1.242e+04 1.611e-09
 95.47221   -196.3 1.217e+04 1.504e-09
 95.49231   -196.3 1.196e+04 1.418e-09
 95.50472   -196.2 1.177e+04 1.337e-09
 95.51477   -196.2 1.185e+04 1.364e-09
 95.53250   -196.1 1.163e+04 1.270e-09
 95.54731   -195.9 1.141e+04 1.186e-09
 95.55736   -195.6 1.177e+04 1.357e-09
 95.57269   -195.3 1.150e+04 1.226e-09
 95.59222   -194.9 1.129e+04 1.123e-09
 95.60227   -195.0 1.126e+04 1.102e-09
 95.61288   -194.5 1.108e+04 1.011e-09
 95.63297   -194.0 1.093e+04 9.385e-10
 95.65307   -193.4 1.081e+04 8.726e-10
 95.67316   -192.8 1.067e+04 8.020e-10
 95.68977   -192.1 1.049e+04 7.220e-10
 95.69982   -192.2 1.036e+04 6.641e-10
 95.71335   -191.3 1.017e+04 5.865e-10
 95.72434   -190.3 9.986e+03 5.093e-10
 95.73438   -190.4 1.018e+04 5.827e-10
 95.75354   -189.4 1.002e+04 5.161e-10
 95.77364   -188.3 9.866e+03 4.565e-10
 95.78732   -187.0 9.731e+03 4.096e-10
 95.79737   -187.2 9.680e+03 3.917e-10
 95.82397   -186.0 9.622e+03 3.688e-10
 95.86426   -184.1 9.515e+03 3.521e-10
 95.89151   -181.9 9.388e+03 3.382e-10
 95.90146   -182.1 9.588e+03 3.880e-10
 95.91430   -181.0 9.588e+03 3.890e-10
 95.94454   -179.6 9.615e+03 3.959e-10
 95.97257   -177.5 9.580e+03 3.834e-10
 95.99266   -178.3 9.631e+03 3.869e-10
 96.02502   -176.1 9.612e+03 3.837e-10
 96.06521   -173.9 9.682e+03 4.013e-10
 96.10540   -172.0 9.909e+03 4.393e-10
 96.14559   -170.6 1.014e+04 4.837e-10
 96.16767   -169.1 1.027e+04 5.038e-10
 96.18776   -170.3 1.020e+04 4.779e-10
 96.22547   -168.5 1.014e+04 4.410e-10
 96.24557   -168.0 1.009e+04 4.161e-10
 96.26616   -166.8 1.007e+04 3.947e-10
 96.30635   -165.6 9.998e+03 3.645e-10
 96.34267   -164.5 9.921e+03 3.361e-10
 96.36276   -165.0 9.949e+03 3.367e-10
 96.38673   -163.5 9.870e+03 3.146e-10
 96.42692   -162.0 9.836e+03 3.024e-10
 96.46711   -160.5 9.833e+03 2.962e-10
 96.50730   -159.0 9.858e+03 2.925e-10
 96.53777   -157.5 9.908e+03 2.903e-10
 96.55786   -157.5 1.010e+04 3.052e-10
 96.57953   -156.2 1.012e+04 2.982e-10
 96.59962   -156.5 1.004e+04 2.863e-10
 96.62787   -155.1 1.010e+04 2.796e-10
 96.66806   -153.7 1.016e+04 2.701e-10
 96.70825   -152.4 1.020e+04 2.630e-10
 96.73287   -151.0 1.028e+04 2.674e-10
 96.75296   -150.6 1.021e+04 2.422e-10
 96.78863   -149.0 1.027e+04 2.417e-10
 96.82882   -147.4 1.046e+04 2.614e-10
 96.86901   -145.7 1.073e+04 3.113e-10
 96.90787   -144.0 1.098e+04 3.820e-10
 96.92797   -143.0 1.090e+04 3.406e-10
 96.93358   -141.4 1.113e+04 4.219e-10
 96.94353   -142.1 1.113e+04 4.335e-10
 96.95924   -141.8 1.117e+04 4.729e-10
 96.97934   -141.2 1.119e+04 5.150e-10
 96.99943   -140.6 1.120e+04 5.272e-10
 97.01527   -139.9 1.119e+04 5.336e-10
 97.02532   -139.2 1.122e+04 5.298e-10
 97.03962   -138.5 1.121e+04 5.324e-10
 97.05972   -137.8 1.112e+04 5.286e-10
 97.07981   -137.1 1.111e+04 4.950e-10
 97.10287   -136.7 1.100e+04 4.380e-10
 97.12297   -135.2 1.112e+04 4.385e-10
 97.15024   -134.1 1.115e+04 4.419e-10
 97.19053   -132.3 1.099e+04 4.011e-10
 97.23072   -130.3 1.083e+04 3.539e-10
 97.26754   -128.4 1.078e+04 3.082e-10
 97.28763   -128.2 1.037e+04 2.234e-10
 97.29807   -126.2 1.026e+04 1.786e-10
 97.31816   -125.7 1.098e+04 3.116e-10
 97.35129   -123.5 1.086e+04 2.558e-10
 97.39148   -121.1 1.070e+04 2.183e-10
 97.43167   -118.7 1.061e+04 1.981e-10
 97.47186   -116.1 1.058e+04 1.904e-10
 97.49317   -113.4 1.062e+04 1.995e-10
 97.51326   -113.2 1.108e+04 2.864e-10
 97.55224   -110.5 1.113e+04 3.002e-10
 97.59243   -107.9 1.124e+04 3.463e-10
 97.62159   -105.4 1.143e+04 4.298e-10
 97.64169   -104.7 1.121e+04 3.890e-10
 97.66817   -102.2 1.141e+04 4.867e-10
 97.68827   -102.3 1.186e+04 6.060e-10
 97.71300   -100.0 1.216e+04 7.666e-10
 97.75319    -97.8 1.260e+04 1.004e-09
 97.79338    -96.2 1.322e+04 1.415e-09
 97.82343    -94.7 1.349e+04 1.699e-09
 97.84342    -94.0 1.383e+04 2.084e-09
 97.86307    -93.3 1.415e+04 2.532e-09
 97.87312    -93.3 1.445e+04 2.858e-09
 97.88361    -92.5 1.483e+04 3.534e-09
 97.90371    -91.6 1.509e+04 4.032e-09
 97.92380    -90.7 1.518e+04 4.192e-09
 97.94390    -89.8 1.509e+04 4.019e-09
 97.96062    -88.7 1.471e+04 3.294e-09
 97.97067    -88.6 1.519e+04 4.302e-09
 97.97545    -87.5 1.472e+04 3.192e-09
 97.98550    -87.5 1.413e+04 2.412e-09
 98.00418    -86.6 1.377e+04 1.948e-09
 98.03442    -85.2 1.302e+04 1.280e-09
 98.05837    -82.7 1.232e+04 8.526e-10
 98.07846    -82.8 1.270e+04 1.143e-09
 98.11490    -79.7 1.204e+04 7.670e-10
 98.15509    -76.7 1.170e+04 5.540e-10
 98.19528    -73.9 1.149e+04 4.246e-10
 98.23337    -70.9 1.127e+04 3.385e-10
 98.25347    -70.7 1.133e+04 4.129e-10
 98.27566    -67.7 1.115e+04 3.408e-10
 98.30961    -64.8 1.103e+04 2.913e-10
 98.32970    -63.9 1.121e+04 3.487e-10
 98.35604    -60.9 1.118e+04 3.303e-10
 98.39623    -58.2 1.122e+04 3.343e-10
 98.42847    -55.6 1.128e+04 3.798e-10
 98.44857    -55.9 1.123e+04 4.045e-10
 98.47661    -53.3 1.131e+04 4.801e-10
 98.51680    -50.6 1.134e+04 5.866e-10
 98.55699    -47.9 1.134e+04 6.525e-10
 98.59718    -45.4 1.139e+04 6.533e-10
 98.62357    -43.7 1.138e+04 6.077e-10
 98.64366    -43.7 1.068e+04 3.518e-10
 98.66356    -41.6 1.113e+04 3.981e-10
 98.67351    -41.4 1.130e+04 4.474e-10
 98.68741    -41.5 1.119e+04 4.350e-10
 98.70751    -40.8 1.151e+04 4.739e-10
 98.72092    -41.1 1.166e+04 5.213e-10
 98.73097    -40.6 1.121e+04 4.140e-10
 98.74770    -40.1 1.131e+04 5.298e-10
 98.76779    -39.3 1.144e+04 6.564e-10
 98.78789    -38.1 1.174e+04 8.219e-10
 98.80798    -37.2 1.200e+04 9.286e-10
 98.81847    -36.4 1.213e+04 1.043e-09
 98.82852    -35.9 1.195e+04 8.187e-10
 98.84049    -35.4 1.216e+04 9.352e-10
 98.85054    -35.7 1.219e+04 9.217e-10
 98.86827    -35.1 1.233e+04 1.036e-09
 98.88836    -34.6 1.235e+04 1.052e-09
 98.90597    -33.8 1.220e+04 1.078e-09
 98.91602    -33.3 1.226e+04 1.166e-09
 98.92855    -32.4 1.232e+04 1.186e-09
 98.94865    -31.6 1.241e+04 1.042e-09
 98.96874    -31.3 1.251e+04 8.285e-10
 98.99357    -31.7 1.252e+04 5.947e-10
 99.01231    -29.3 1.270e+04 9.965e-10
 99.01772    -29.4 1.223e+04 6.269e-10
 99.03927    -29.2 1.204e+04 3.836e-10
 99.07946    -28.5 1.139e+04 3.101e-10
 99.11965    -27.0 1.091e+04 2.840e-10
 99.15984    -25.4 1.084e+04 2.746e-10
 99.18877    -23.4 1.082e+04 3.138e-10
 99.20887    -21.7 1.097e+04 3.196e-10
 99.24022    -19.6 1.098e+04 3.132e-10
 99.28041    -17.8 1.090e+04 3.148e-10
 99.32060    -16.0 1.087e+04 3.261e-10
 99.35168    -14.4 1.103e+04 3.688e-10
 99.37177    -14.4 1.106e+04 3.404e-10
 99.38377    -12.7 1.121e+04 4.217e-10
 99.40387    -11.2 1.157e+04 4.545e-10
 99.43103    -10.5 1.152e+04 5.991e-10
 99.45102    -10.3 1.161e+04 6.306e-10
 99.47112     -9.5 1.156e+04 7.949e-10
 99.49121     -8.2 1.176e+04 8.503e-10
 99.52145     -7.3 1.175e+04 9.399e-10
 99.55160     -5.4 1.185e+04 9.435e-10
 99.56873     -5.3 1.195e+04 9.560e-10
 99.57887     -4.2 1.208e+04 9.679e-10
 99.59179     -3.2 1.192e+04 8.952e-10
 99.61178     -3.1 1.200e+04 8.893e-10
 99.63188     -2.3 1.189e+04 8.159e-10
 99.65197     -2.1 1.195e+04 7.944e-10
 99.66627     -1.3 1.188e+04 7.258e-10
 99.67632     -0.8 1.176e+04 7.258e-10
 99.69216     -0.6 1.174e+04 6.882e-10
 99.70554      0.3 1.179e+04 6.387e-10
 99.71558      0.3 1.154e+04 5.894e-10
 99.73235      0.4 1.162e+04 5.877e-10
 99.75245      1.7 1.152e+04 5.604e-10
 99.76382      2.0 1.157e+04 5.656e-10
 99.77387      2.2 1.157e+04 5.601e-10
 99.79264      3.3 1.136e+04 5.346e-10
 99.81273      4.3 1.143e+04 5.479e-10
 99.83283      4.4 1.186e+04 6.203e-10
 99.85133      3.6 1.296e+04 9.068e-10
 99.86137      4.3 1.227e+04 7.649e-10
 99.87252      3.9 1.299e+04 1.186e-09
 99.88256      4.9 1.275e+04 1.015e-09
 99.89311      4.5 1.360e+04 1.666e-09
 99.91321      4.6 1.423e+04 2.735e-09
 99.93330      5.1 1.468e+04 4.007e-09
 99.94888      6.1 1.488e+04 5.159e-09
 99.95892      6.9 1.413e+04 3.371e-09
 99.97349      7.8 1.429e+04 3.867e-09
 99.99359      9.0 1.422e+04 3.867e-09
