# Columns:
#   distance along LOS (in CHIMPs)
#   peculiar velocity  (in km/s)
#   temperature (K)
#   HI number density
# pos=(124.428,107.797,140.037), angles=(2.91586,5.05657)
  0.00316   -162.3 8.001e+03 1.460e-10
  0.02070   -160.4 7.859e+03 1.289e-10
  0.04074   -160.0 7.937e+03 1.345e-10
  0.06644   -158.2 7.918e+03 1.311e-10
  0.10652   -156.5 7.942e+03 1.315e-10
  0.13776   -155.0 8.100e+03 1.434e-10
  0.15780   -155.4 8.096e+03 1.374e-10
  0.18668   -153.7 8.230e+03 1.580e-10
  0.21360   -151.8 8.332e+03 1.771e-10
  0.23364   -152.4 8.568e+03 2.184e-10
  0.26684   -150.3 8.553e+03 2.180e-10
  0.30691   -148.1 8.440e+03 1.958e-10
  0.34699   -145.9 8.324e+03 1.646e-10
  0.38646   -143.7 8.202e+03 1.335e-10
  0.40650   -144.0 8.163e+03 1.270e-10
  0.42715   -141.8 8.094e+03 1.073e-10
  0.46723   -139.7 8.075e+03 9.623e-11
  0.50731   -137.5 8.096e+03 9.207e-11
  0.54739   -135.4 8.107e+03 9.150e-11
  0.57935   -133.6 8.258e+03 9.568e-11
  0.59939   -134.7 8.823e+03 1.682e-10
  0.62755   -133.0 9.213e+03 2.507e-10
  0.65688   -131.2 9.554e+03 3.598e-10
  0.67692   -131.5 9.577e+03 3.716e-10
  0.70771   -129.8 9.752e+03 4.463e-10
  0.74779   -128.3 9.789e+03 4.678e-10
  0.77225   -126.7 9.743e+03 4.632e-10
  0.79229   -127.1 9.619e+03 4.392e-10
  0.82795   -125.2 9.314e+03 3.446e-10
  0.86802   -123.3 9.020e+03 2.590e-10
  0.90810   -121.6 8.798e+03 2.002e-10
  0.94511   -119.7 8.632e+03 1.628e-10
  0.96515   -119.9 8.462e+03 1.297e-10
  0.98826   -117.8 8.372e+03 1.171e-10
  1.02834   -115.5 8.303e+03 1.086e-10
  1.06842   -113.1 8.248e+03 1.021e-10
  1.10850   -110.6 8.217e+03 9.772e-11
  1.13801   -108.0 8.215e+03 9.605e-11
  1.15805   -107.8 8.303e+03 1.030e-10
  1.17601   -105.4 8.318e+03 1.031e-10
  1.19605   -105.3 8.330e+03 1.052e-10
  1.22874   -103.1 8.452e+03 1.077e-10
  1.26882   -101.2 8.738e+03 1.334e-10
  1.30890    -99.3 9.087e+03 1.970e-10
  1.33091    -97.2 9.514e+03 3.195e-10
  1.35095    -98.0 1.054e+04 7.548e-10
  1.38906    -95.7 1.089e+04 9.871e-10
  1.42913    -93.6 1.109e+04 1.106e-09
  1.46921    -91.5 1.113e+04 1.124e-09
  1.50377    -89.5 1.101e+04 1.011e-09
  1.52381    -91.0 1.056e+04 7.692e-10
  1.54937    -89.3 1.017e+04 5.887e-10
  1.58945    -87.6 9.798e+03 4.583e-10
  1.62953    -86.0 9.557e+03 3.710e-10
  1.66961    -84.4 9.531e+03 3.209e-10
  1.69514    -83.3 9.578e+03 3.069e-10
  1.70216    -84.1 9.695e+03 3.513e-10
  1.71671    -87.8 9.950e+03 3.622e-10
  1.74977    -88.0 1.024e+04 5.240e-10
  1.78985    -88.4 1.081e+04 8.163e-10
  1.82993    -88.7 1.157e+04 1.258e-09
  1.86953    -89.3 1.241e+04 1.744e-09
  1.88957    -90.7 1.166e+04 1.102e-09
  1.91009    -92.3 1.182e+04 1.141e-09
  1.95017    -93.7 1.175e+04 1.128e-09
  1.99024    -94.4 1.148e+04 1.045e-09
  2.03032    -94.5 1.118e+04 9.396e-10
  2.06243    -93.9 1.081e+04 7.740e-10
  2.08247    -93.4 1.103e+04 8.941e-10
  2.11048    -92.1 1.072e+04 7.938e-10
  2.15056    -90.2 1.033e+04 6.172e-10
  2.19064    -88.0 9.963e+03 4.535e-10
  2.21427    -85.5 9.669e+03 3.343e-10
  2.23431    -85.4 9.573e+03 3.335e-10
  2.25533    -82.8 9.434e+03 2.627e-10
  2.27537    -82.3 9.258e+03 2.565e-10
  2.31088    -79.8 9.134e+03 2.022e-10
  2.35096    -77.1 9.070e+03 1.676e-10
  2.39104    -74.5 9.059e+03 1.462e-10
  2.42818    -71.8 9.073e+03 1.371e-10
  2.44822    -71.5 8.952e+03 1.330e-10
  2.47120    -68.7 8.965e+03 1.317e-10
  2.51128    -66.1 9.123e+03 1.340e-10
  2.55135    -63.3 9.153e+03 1.550e-10
  2.59143    -60.5 9.164e+03 1.870e-10
  2.62108    -57.6 9.202e+03 2.275e-10
  2.64112    -57.3 9.181e+03 1.943e-10
  2.67159    -54.4 9.297e+03 2.395e-10
  2.71167    -51.7 9.448e+03 2.973e-10
  2.73340    -48.9 9.620e+03 3.699e-10
  2.75344    -49.0 9.715e+03 3.932e-10
  2.79183    -46.3 9.868e+03 4.733e-10
  2.81398    -43.6 1.004e+04 5.594e-10
  2.83402    -43.6 1.015e+04 5.281e-10
  2.87199    -40.9 1.033e+04 6.000e-10
  2.91207    -38.3 1.044e+04 6.476e-10
  2.95215    -35.8 1.047e+04 6.732e-10
  2.98684    -33.4 1.049e+04 6.848e-10
  3.00688    -34.0 1.048e+04 3.572e-10
  3.03231    -32.2 1.059e+04 3.615e-10
  3.07238    -30.4 1.059e+04 3.701e-10
  3.11246    -28.5 1.021e+04 3.795e-10
  3.15254    -26.2 9.816e+03 3.463e-10
  3.17974    -23.6 9.328e+03 2.785e-10
  3.19978    -23.8 9.479e+03 2.772e-10
  3.23249    -21.6 9.264e+03 1.869e-10
  3.25253    -21.3 8.913e+03 1.101e-10
  3.27278    -19.4 8.740e+03 9.579e-11
  3.31286    -17.3 8.714e+03 9.473e-11
  3.35260    -15.2 8.728e+03 1.223e-10
  3.37264    -15.5 8.514e+03 1.398e-10
  3.39302    -12.8 8.533e+03 1.758e-10
  3.43310    -10.2 8.650e+03 2.159e-10
  3.47318     -7.7 8.696e+03 2.497e-10
  3.51326     -5.1 8.735e+03 2.700e-10
  3.54550     -2.8 8.762e+03 2.607e-10
  3.56554     -3.5 8.739e+03 1.902e-10
  3.59342     -2.1 8.647e+03 1.749e-10
  3.63349     -0.4 8.359e+03 1.907e-10
  3.67357      1.6 8.312e+03 2.204e-10
  3.71365      3.9 8.502e+03 2.735e-10
  3.73840      6.2 8.731e+03 3.331e-10
  3.75632      5.9 8.403e+03 2.288e-10
  3.77166      6.1 8.193e+03 1.548e-10
  3.79381      8.0 8.228e+03 1.817e-10
  3.83389     10.2 8.225e+03 2.091e-10
  3.87397     12.5 8.186e+03 2.169e-10
  3.91126     14.9 8.097e+03 2.029e-10
  3.93130     14.6 7.800e+03 1.697e-10
  3.95413     17.0 7.746e+03 1.519e-10
  3.99421     18.8 7.732e+03 1.282e-10
  4.03429     20.3 7.669e+03 1.112e-10
  4.07437     21.6 7.676e+03 1.118e-10
  4.10416     22.6 7.811e+03 1.276e-10
  4.12420     23.1 7.748e+03 1.198e-10
  4.15453     22.9 8.192e+03 1.678e-10
  4.19460     21.7 9.209e+03 3.815e-10
  4.23468     20.6 1.091e+04 1.066e-09
  4.27074     20.2 1.158e+04 1.512e-09
  4.29078     21.4 1.201e+04 1.725e-09
  4.29705     20.8 1.203e+04 1.611e-09
  4.30698     20.5 1.222e+04 1.849e-09
  4.32467     19.3 1.249e+04 1.631e-09
  4.34471     16.4 1.251e+04 1.407e-09
  4.36475     13.9 1.180e+04 1.138e-09
  4.38329     11.4 1.164e+04 1.135e-09
  4.39331      9.2 1.237e+04 1.464e-09
  4.40483      7.7 1.175e+04 1.427e-09
  4.42487      7.4 1.168e+04 1.485e-09
  4.44490      7.6 1.151e+04 1.450e-09
  4.46494      8.3 1.131e+04 1.332e-09
  4.47974      8.7 1.120e+04 1.133e-09
  4.48976      6.7 1.124e+04 9.542e-10
  4.50502      6.1 1.102e+04 7.527e-10
  4.52506      5.6 1.056e+04 6.047e-10
  4.54013      5.3 1.014e+04 4.961e-10
  4.55015      5.3 1.025e+04 5.202e-10
  4.56514      5.4 9.802e+03 4.382e-10
  4.59530      6.1 9.591e+03 3.526e-10
  4.63548      7.6 9.116e+03 2.488e-10
  4.66281      8.4 8.803e+03 1.753e-10
  4.68285      6.6 8.579e+03 1.395e-10
  4.71564      7.3 8.465e+03 1.279e-10
  4.75571      7.9 8.443e+03 1.308e-10
  4.78987      8.2 8.481e+03 1.493e-10
  4.80991      8.1 9.000e+03 2.390e-10
  4.83567      8.6 9.114e+03 2.975e-10
  4.85571      7.6 9.511e+03 4.068e-10
  4.87595      7.5 9.576e+03 4.172e-10
  4.90591      7.5 9.591e+03 4.033e-10
  4.92586      6.7 9.940e+03 4.544e-10
  4.94195      5.5 1.030e+04 5.653e-10
  4.95197      4.2 1.045e+04 6.679e-10
  4.96594      3.8 1.055e+04 7.671e-10
  4.98597      3.4 1.075e+04 8.693e-10
  5.00601      3.4 1.082e+04 9.143e-10
  5.02605      3.0 1.087e+04 8.312e-10
  5.03840      2.9 1.075e+04 7.698e-10
  5.04851      1.3 1.080e+04 7.353e-10
  5.07635      0.5 1.035e+04 5.429e-10
  5.11643     -0.2 9.645e+03 3.482e-10
  5.15651     -0.8 9.247e+03 2.444e-10
  5.19659     -1.1 8.931e+03 1.879e-10
  5.22147     -1.4 8.888e+03 1.891e-10
  5.24151     -4.8 9.827e+03 3.227e-10
  5.27675     -8.1 1.128e+04 7.182e-10
  5.30671     -8.6 1.151e+04 1.041e-09
  5.31772     -9.6 1.216e+04 1.502e-09
  5.31992    -11.1 1.284e+04 1.991e-09
  5.32885    -11.4 1.274e+04 1.851e-09
  5.34669    -12.0 1.325e+04 2.269e-09
  5.36673    -12.8 1.369e+04 2.630e-09
  5.38677    -13.6 1.383e+04 2.760e-09
  5.40415    -14.5 1.398e+04 2.430e-09
  5.41417    -16.9 1.442e+04 2.118e-09
  5.42685    -19.5 1.427e+04 1.683e-09
  5.44689    -23.3 1.412e+04 1.443e-09
  5.46693    -31.3 1.775e+04 2.116e-09
  5.48697    -39.9 2.052e+04 6.430e-09
  5.50060    -43.6 2.011e+04 1.715e-08
  5.50556    -44.8 2.052e+04 2.267e-08
  5.51192    -45.2 2.010e+04 3.294e-08
  5.52194    -44.7 1.985e+04 4.029e-08
  5.53196    -43.6 1.971e+04 4.093e-08
  5.54198    -42.0 1.954e+04 3.502e-08
  5.54873    -40.7 1.926e+04 2.360e-08
  5.55374    -40.6 1.895e+04 2.164e-08
  5.56708    -40.4 1.906e+04 1.326e-08
  5.57839    -43.5 1.820e+04 3.797e-09
  5.58828    -47.5 1.666e+04 1.842e-09
  5.59705    -49.6 1.553e+04 1.096e-09
  5.60720    -56.9 1.132e+04 3.177e-10
  5.62724    -58.4 1.012e+04 2.323e-10
  5.64728    -57.8 9.991e+03 2.153e-10
  5.67744    -57.1 9.931e+03 2.055e-10
  5.71762    -56.1 9.966e+03 2.181e-10
  5.75770    -55.4 1.004e+04 2.491e-10
  5.78013    -54.9 1.017e+04 3.118e-10
  5.80017    -55.9 9.912e+03 2.348e-10
  5.82813    -55.2 1.003e+04 3.000e-10
  5.84817    -54.9 1.013e+04 3.242e-10
  5.87793    -54.0 1.027e+04 3.867e-10
  5.91801    -53.3 1.035e+04 4.105e-10
  5.95299    -52.9 1.036e+04 4.129e-10
  5.97303    -53.7 1.016e+04 3.343e-10
  5.99817    -53.2 1.012e+04 3.173e-10
  6.03825    -52.4 1.007e+04 2.890e-10
  6.07833    -51.3 9.990e+03 2.409e-10
  6.11841    -50.0 9.904e+03 1.796e-10
  6.14589    -49.0 9.783e+03 1.317e-10
  6.16592    -49.5 9.771e+03 1.307e-10
  6.19857    -48.5 9.690e+03 1.123e-10
  6.23865    -47.4 9.671e+03 1.094e-10
  6.27873    -46.3 9.736e+03 1.225e-10
  6.31874    -45.2 9.750e+03 1.650e-10
  6.34720    -43.5 9.507e+03 1.982e-10
  6.36730    -42.8 9.308e+03 1.509e-10
  6.39896    -41.3 9.394e+03 1.782e-10
  6.43904    -40.9 9.834e+03 2.394e-10
  6.47912    -43.2 1.117e+04 4.927e-10
  6.51164    -46.1 1.236e+04 1.419e-09
  6.53168    -46.6 1.237e+04 1.491e-09
  6.54916    -47.2 1.314e+04 3.057e-09
  6.56911    -46.0 1.330e+04 3.492e-09
  6.58915    -44.7 1.330e+04 3.305e-09
  6.60663    -44.0 1.285e+04 1.838e-09
  6.61536    -43.1 1.254e+04 1.338e-09
  6.61792    -43.4 1.247e+04 1.300e-09
  6.62923    -48.3 1.153e+04 5.495e-10
  6.64926    -52.1 1.015e+04 3.526e-10
  6.66930    -52.9 9.873e+03 3.236e-10
  6.68934    -53.1 9.786e+03 3.367e-10
  6.70444    -53.1 9.845e+03 3.778e-10
  6.72458    -53.2 9.769e+03 3.154e-10
  6.75968    -53.2 9.735e+03 3.128e-10
  6.79976    -53.7 9.780e+03 3.183e-10
  6.83984    -55.2 1.026e+04 4.340e-10
  6.86639    -56.5 1.089e+04 6.833e-10
  6.88391    -55.0 1.126e+04 8.435e-10
  6.89744    -55.7 1.110e+04 7.315e-10
  6.92000    -56.5 1.145e+04 9.550e-10
  6.96007    -57.3 1.150e+04 9.965e-10
  7.00015    -58.1 1.095e+04 7.399e-10
  7.04023    -58.5 1.019e+04 4.301e-10
  7.07030    -58.7 9.599e+03 2.628e-10
  7.09034    -58.7 9.619e+03 2.595e-10
  7.12039    -58.2 9.221e+03 1.758e-10
  7.16047    -57.1 8.971e+03 1.291e-10
  7.20055    -56.0 8.820e+03 1.008e-10
  7.24063    -54.7 8.716e+03 8.265e-11
  7.26320    -53.3 8.600e+03 7.301e-11
  7.28324    -53.2 8.629e+03 7.272e-11
  7.32079    -51.6 8.532e+03 6.723e-11
  7.36087    -50.0 8.466e+03 6.309e-11
  7.38552    -48.4 8.477e+03 5.993e-11
  7.40556    -48.3 8.500e+03 6.130e-11
  7.43606    -46.7 8.530e+03 6.048e-11
  7.45610    -46.5 8.535e+03 6.028e-11
  7.48111    -45.0 8.726e+03 6.115e-11
  7.52118    -43.5 8.783e+03 7.359e-11
  7.56126    -41.8 8.818e+03 9.464e-11
  7.60134    -40.0 8.960e+03 1.178e-10
  7.62896    -39.2 9.282e+03 1.422e-10
  7.64900    -40.0 9.593e+03 1.695e-10
  7.67138    -40.3 1.013e+04 2.199e-10
  7.69133    -42.7 1.118e+04 3.182e-10
  7.71137    -45.1 1.205e+04 5.998e-10
  7.72521    -46.4 1.231e+04 1.041e-09
  7.73523    -46.7 1.235e+04 1.164e-09
  7.75144    -45.9 1.235e+04 1.537e-09
  7.77148    -44.7 1.235e+04 1.679e-09
  7.79152    -44.0 1.237e+04 1.651e-09
  7.81156    -43.9 1.206e+04 1.326e-09
  7.83160    -44.9 1.147e+04 9.695e-10
  7.85164    -45.2 1.106e+04 7.899e-10
  7.87168    -45.1 1.073e+04 6.711e-10
  7.89172    -44.9 1.046e+04 5.893e-10
  7.90445    -44.7 1.034e+04 5.511e-10
  7.91080    -45.6 1.095e+04 6.655e-10
  7.91811    -45.6 1.066e+04 6.195e-10
  7.93180    -46.5 1.176e+04 7.518e-10
  7.95184    -48.9 1.397e+04 1.204e-09
  7.97188    -50.8 1.609e+04 2.377e-09
  7.99192    -51.6 1.691e+04 4.473e-09
  8.00454    -50.8 1.675e+04 6.934e-09
  8.01456    -50.6 1.644e+04 5.237e-09
  8.03200    -49.4 1.635e+04 7.371e-09
  8.05204    -48.5 1.617e+04 8.609e-09
  8.07208    -48.0 1.575e+04 8.556e-09
  8.09097    -47.4 1.546e+04 8.734e-09
  8.10099    -47.1 1.521e+04 7.621e-09
  8.11216    -46.5 1.494e+04 7.313e-09
  8.13220    -45.9 1.491e+04 5.996e-09
  8.15224    -45.8 1.554e+04 4.472e-09
  8.16401    -46.5 1.619e+04 3.102e-09
  8.17403    -50.2 1.491e+04 1.418e-09
  8.18742    -52.2 1.254e+04 1.055e-09
  8.19744    -51.1 1.292e+04 1.179e-09
  8.21236    -52.0 1.188e+04 1.054e-09
  8.23240    -51.8 1.151e+04 1.111e-09
  8.25244    -51.3 1.172e+04 1.188e-09
  8.27248    -50.8 1.184e+04 1.223e-09
  8.28387    -50.4 1.175e+04 1.146e-09
  8.29389    -49.7 1.203e+04 1.372e-09
  8.31255    -49.3 1.166e+04 1.090e-09
  8.33259    -49.4 1.090e+04 7.436e-10
  8.35263    -50.1 1.001e+04 4.849e-10
  8.37030    -50.6 9.423e+03 3.433e-10
  8.38032    -49.9 9.498e+03 3.466e-10
  8.39271    -50.4 9.106e+03 2.583e-10
  8.41275    -50.7 8.828e+03 2.096e-10
  8.42368    -50.5 8.592e+03 1.754e-10
  8.44381    -50.6 8.688e+03 1.774e-10
  8.48309    -50.4 8.363e+03 1.472e-10
  8.52317    -49.4 8.278e+03 1.437e-10
  8.55337    -48.2 8.254e+03 1.528e-10
  8.57341    -47.1 8.236e+03 1.454e-10
  8.60332    -45.7 8.232e+03 1.564e-10
  8.64340    -44.1 8.243e+03 1.632e-10
  8.68348    -42.7 8.267e+03 1.682e-10
  8.72356    -41.3 8.287e+03 1.760e-10
  8.74627    -39.6 8.284e+03 1.887e-10
  8.76631    -38.4 8.257e+03 1.830e-10
  8.80372    -36.5 8.262e+03 1.925e-10
  8.84380    -34.3 8.177e+03 1.861e-10
  8.88388    -32.1 8.057e+03 1.503e-10
  8.91913    -30.4 7.998e+03 1.122e-10
  8.93807    -29.1 8.106e+03 1.329e-10
  8.94290    -28.8 8.109e+03 1.458e-10
  8.96404    -27.5 8.077e+03 1.132e-10
  9.00412    -26.4 8.016e+03 1.054e-10
  9.04420    -25.0 8.063e+03 1.207e-10
  9.08428    -23.6 8.435e+03 1.584e-10
  9.11203    -24.4 9.480e+03 2.471e-10
  9.13207    -23.3 9.690e+03 2.506e-10
  9.16443    -27.4 1.176e+04 7.365e-10
  9.20451    -27.7 1.225e+04 1.936e-09
  9.24459    -24.3 1.239e+04 2.130e-09
  9.28467    -26.2 1.243e+04 7.470e-10
  9.30483    -34.2 1.160e+04 4.974e-10
  9.31475    -34.3 1.192e+04 6.160e-10
  9.33458    -37.4 1.191e+04 7.100e-10
  9.36473    -40.2 1.176e+04 1.191e-09
  9.39126    -40.2 1.232e+04 1.911e-09
  9.40118    -40.2 1.259e+04 2.012e-09
  9.41473    -39.9 1.302e+04 2.098e-09
  9.43477    -40.0 1.333e+04 2.036e-09
  9.45182    -42.0 1.315e+04 1.575e-09
  9.46184    -43.1 1.173e+04 8.844e-10
  9.47485    -45.3 1.094e+04 7.166e-10
  9.48761    -46.0 1.076e+04 6.759e-10
  9.49763    -46.4 1.089e+04 7.854e-10
  9.51493    -46.5 1.084e+04 7.534e-10
  9.53497    -46.4 1.072e+04 7.079e-10
  9.55501    -46.1 1.051e+04 6.546e-10
  9.57404    -45.5 1.029e+04 6.093e-10
  9.58406    -45.9 1.034e+04 6.359e-10
  9.59509    -45.1 1.022e+04 6.041e-10
  9.61513    -44.1 1.017e+04 5.786e-10
  9.64529    -42.7 1.014e+04 5.510e-10
  9.67069    -40.4 9.920e+03 5.217e-10
  9.69073    -41.1 1.003e+04 5.448e-10
  9.72554    -38.4 9.894e+03 5.292e-10
  9.76562    -35.6 9.880e+03 5.376e-10
  9.80570    -32.9 1.002e+04 5.526e-10
  9.84355    -30.3 1.018e+04 5.592e-10
  9.86359    -30.4 1.016e+04 5.656e-10
  9.88586    -27.9 1.026e+04 5.602e-10
  9.92594    -25.5 1.022e+04 5.400e-10
  9.96112    -23.0 1.007e+04 5.059e-10
  9.98116    -22.3 1.029e+04 5.722e-10
 10.00610    -20.0 1.021e+04 5.595e-10
 10.03645    -17.3 9.968e+03 5.107e-10
 10.05648    -16.7 9.801e+03 4.170e-10
 10.08626    -14.1 9.424e+03 3.605e-10
 10.12634    -11.0 8.919e+03 2.763e-10
 10.16642     -7.8 8.634e+03 1.848e-10
 10.20650     -5.2 8.649e+03 1.164e-10
 10.22934     -3.3 8.633e+03 8.604e-11
 10.24938     -2.5 8.614e+03 9.024e-11
 10.28665     -0.1 8.537e+03 8.599e-11
 10.32673      2.4 8.542e+03 9.049e-11
 10.36681      4.9 8.632e+03 1.054e-10
 10.40220      7.3 8.782e+03 1.326e-10
 10.42224      8.1 8.766e+03 1.257e-10
 10.44697     10.2 8.932e+03 1.725e-10
 10.48025     12.3 9.275e+03 2.755e-10
 10.50029     12.4 9.452e+03 2.585e-10
 10.52713     14.0 1.035e+04 5.283e-10
 10.56721     15.9 1.118e+04 9.664e-10
 10.59510     17.6 1.132e+04 1.079e-09
 10.61514     18.7 1.108e+04 9.530e-10
 10.64737     20.4 1.109e+04 1.004e-09
 10.68745     22.3 1.077e+04 8.790e-10
 10.72753     24.1 1.026e+04 5.823e-10
 10.76761     25.4 9.594e+03 3.174e-10
 10.78800     26.1 8.671e+03 1.792e-10
 10.80804     27.9 9.785e+03 4.199e-10
 10.84776     28.6 8.951e+03 2.466e-10
 10.88784     29.4 8.255e+03 1.924e-10
 10.92792     30.9 8.148e+03 1.962e-10
 10.96086     32.9 8.226e+03 2.200e-10
 10.98090     33.3 8.358e+03 2.573e-10
 10.99938     35.4 8.314e+03 2.695e-10
 11.01942     35.4 8.523e+03 3.091e-10
 11.04816     37.7 8.506e+03 3.129e-10
 11.08824     39.9 8.462e+03 3.084e-10
 11.12832     42.2 8.397e+03 2.968e-10
 11.15376     44.5 8.341e+03 2.842e-10
 11.17380     45.1 8.337e+03 2.876e-10
 11.20848     47.5 8.355e+03 2.861e-10
 11.24856     49.9 8.445e+03 2.937e-10
 11.28864     52.1 8.646e+03 3.123e-10
 11.32662     54.2 8.990e+03 3.435e-10
 11.34666     54.9 9.246e+03 4.202e-10
 11.35868     55.6 9.507e+03 4.564e-10
 11.37862     56.1 9.790e+03 5.067e-10
 11.39866     56.8 1.007e+04 5.710e-10
 11.41870     57.5 1.029e+04 6.278e-10
 11.43289     58.1 1.049e+04 6.637e-10
 11.44291     58.3 1.069e+04 7.544e-10
 11.45878     58.7 1.067e+04 7.495e-10
 11.47882     59.2 1.058e+04 7.229e-10
 11.49886     59.8 1.040e+04 6.735e-10
 11.51831     60.4 1.020e+04 6.144e-10
 11.52833     60.5 1.043e+04 7.807e-10
 11.52934     61.3 1.021e+04 6.706e-10
 11.53936     61.2 1.019e+04 6.849e-10
 11.55898     61.8 9.981e+03 5.709e-10
 11.57902     62.4 9.807e+03 4.806e-10
 11.59906     62.9 9.696e+03 4.118e-10
 11.61577     63.2 9.628e+03 3.572e-10
 11.62579     62.5 9.711e+03 3.631e-10
 11.64925     63.6 9.651e+03 3.439e-10
 11.68943     65.0 9.624e+03 3.462e-10
 11.71242     66.5 9.600e+03 3.537e-10
 11.73246     66.2 9.460e+03 3.341e-10
 11.76959     68.0 9.296e+03 3.154e-10
 11.80967     69.8 9.038e+03 2.902e-10
 11.84975     71.5 8.795e+03 2.757e-10
 11.88528     73.1 8.688e+03 2.758e-10
 11.90532     73.6 8.263e+03 2.049e-10
 11.92990     75.4 8.260e+03 2.167e-10
 11.96998     77.2 8.343e+03 2.340e-10
 12.01006     78.9 8.478e+03 2.451e-10
 12.03763     80.4 8.553e+03 2.427e-10
 12.05767     81.2 8.480e+03 2.249e-10
 12.07817     82.6 8.542e+03 2.216e-10
 12.09821     83.7 8.617e+03 2.506e-10
 12.13030     84.9 8.731e+03 2.513e-10
 12.17038     85.9 8.763e+03 2.510e-10
 12.21046     86.8 8.801e+03 2.532e-10
 12.25054     87.8 8.894e+03 2.712e-10
 12.27107     88.8 9.085e+03 3.135e-10
 12.29111     89.9 9.014e+03 2.997e-10
 12.33070     90.8 9.177e+03 3.424e-10
 12.37078     91.6 9.378e+03 4.037e-10
 12.40074     92.2 9.450e+03 4.415e-10
 12.42068     92.8 9.529e+03 4.755e-10
 12.44072     93.4 9.674e+03 5.284e-10
 12.45376     93.9 9.863e+03 5.841e-10
 12.46378     94.2 9.826e+03 5.542e-10
 12.48080     94.6 1.002e+04 6.090e-10
 12.50084     94.9 1.020e+04 6.564e-10
 12.52088     95.0 1.039e+04 7.092e-10
 12.54019     95.0 1.057e+04 7.716e-10
 12.55021     95.8 1.049e+04 7.530e-10
 12.55657     95.8 1.070e+04 8.362e-10
 12.56659     95.5 1.080e+04 8.183e-10
 12.58100     95.5 1.098e+04 9.040e-10
 12.60104     95.2 1.122e+04 1.024e-09
 12.62108     94.8 1.155e+04 1.196e-09
 12.63664     94.3 1.195e+04 1.427e-09
 12.64666     95.3 1.195e+04 1.435e-09
 12.66116     94.7 1.235e+04 1.702e-09
 12.68120     94.0 1.265e+04 1.836e-09
 12.70124     93.1 1.267e+04 1.810e-09
 12.72128     92.2 1.260e+04 1.642e-09
 12.73309     91.3 1.237e+04 1.261e-09
 12.74311     92.9 1.255e+04 1.547e-09
 12.76135     91.8 1.214e+04 1.071e-09
 12.78139     90.3 1.212e+04 9.114e-10
 12.80143     86.4 1.283e+04 1.044e-09
 12.81613     78.5 1.574e+04 2.255e-09
 12.82419     76.7 1.598e+04 2.196e-09
 12.82954     79.6 1.574e+04 1.999e-09
 12.84151     73.1 1.814e+04 7.554e-09
 12.86155     70.3 1.831e+04 1.401e-08
 12.88159     69.9 1.805e+04 1.379e-08
 12.90163     70.3 1.722e+04 9.578e-09
 12.91596     70.0 1.645e+04 3.754e-09
 12.92598     70.7 1.696e+04 4.191e-09
 12.94171     67.4 1.693e+04 8.357e-10
 12.97187     57.0 1.279e+04 2.880e-10
 13.00259     51.8 1.038e+04 2.468e-10
 13.02263     52.2 1.055e+04 2.465e-10
 13.05212     51.7 1.034e+04 2.343e-10
 13.07589     51.4 1.024e+04 2.150e-10
 13.09593     50.4 1.021e+04 2.065e-10
 13.13228     50.3 1.002e+04 1.854e-10
 13.17236     50.4 9.994e+03 1.889e-10
 13.19549     50.6 1.009e+04 2.243e-10
 13.21553     51.0 1.016e+04 2.175e-10
 13.25252     51.2 1.049e+04 3.290e-10
 13.28182     51.2 1.067e+04 4.063e-10
 13.29174     51.2 1.061e+04 4.213e-10
 13.30242     51.4 1.076e+04 5.484e-10
 13.32246     52.1 1.096e+04 7.215e-10
 13.33526     52.9 1.117e+04 8.813e-10
 13.34528     52.7 1.120e+04 8.916e-10
 13.36254     53.3 1.131e+04 9.313e-10
 13.37817     53.7 1.128e+04 9.187e-10
 13.38819     54.1 1.141e+04 1.048e-09
 13.40262     54.6 1.128e+04 9.643e-10
 13.42266     55.0 1.115e+04 8.381e-10
 13.44270     55.0 1.108e+04 7.028e-10
 13.46274     54.6 1.107e+04 6.067e-10
 13.47462     54.1 1.109e+04 5.942e-10
 13.48464     53.9 1.124e+04 6.945e-10
 13.50282     53.3 1.130e+04 7.183e-10
 13.52286     52.6 1.145e+04 8.034e-10
 13.54290     51.7 1.189e+04 9.832e-10
 13.56105     49.7 1.321e+04 1.490e-09
 13.57107     51.1 1.245e+04 1.441e-09
 13.58298     48.1 1.432e+04 2.392e-09
 13.59482     42.7 1.710e+04 5.549e-09
 13.60484     42.5 1.576e+04 4.013e-09
 13.62306     38.2 1.799e+04 9.406e-09
 13.64310     35.3 1.929e+04 1.517e-08
 13.65750     32.7 1.937e+04 1.502e-08
 13.66752     32.2 1.968e+04 1.552e-08
 13.68318     30.3 1.903e+04 1.254e-08
 13.70322     28.1 1.734e+04 6.682e-09
 13.72326     25.0 1.456e+04 2.887e-09
 13.74330     21.7 1.167e+04 1.278e-09
 13.75405     19.5 1.007e+04 5.503e-10
 13.77419     19.2 1.049e+04 7.602e-10
 13.81363     16.9 8.985e+03 3.088e-10
 13.85371     17.2 8.825e+03 2.830e-10
 13.89379     17.9 8.942e+03 3.152e-10
 13.92700     18.6 9.363e+03 4.252e-10
 13.94704     17.9 8.810e+03 2.846e-10
 13.97395     18.4 9.052e+03 3.467e-10
 14.01403     18.9 9.156e+03 4.003e-10
 14.05411     19.5 9.108e+03 3.939e-10
 14.09411     20.3 8.922e+03 3.387e-10
 14.11983     21.7 8.434e+03 2.127e-10
 14.13994     21.5 8.361e+03 1.975e-10
 14.17434     22.1 8.310e+03 1.605e-10
 14.21442     22.4 8.360e+03 1.512e-10
 14.25450     22.8 8.400e+03 1.598e-10
 14.29276     23.4 8.544e+03 1.957e-10
 14.31280     22.9 8.573e+03 1.768e-10
 14.33466     23.4 8.955e+03 2.498e-10
 14.37474     23.4 9.296e+03 3.384e-10
 14.39913     23.8 9.379e+03 4.053e-10
 14.40906     23.3 9.472e+03 4.455e-10
 14.42464     23.7 9.633e+03 5.443e-10
 14.44468     24.2 9.846e+03 6.464e-10
 14.46472     24.9 9.985e+03 7.152e-10
 14.48476     25.4 1.025e+04 7.754e-10
 14.49549     25.7 1.041e+04 8.028e-10
 14.50560     25.0 1.043e+04 7.836e-10
 14.53506     25.6 1.055e+04 7.937e-10
 14.56502     25.8 1.071e+04 8.358e-10
 14.58192     26.1 1.090e+04 8.954e-10
 14.59194     25.3 1.116e+04 9.577e-10
 14.60500     25.3 1.211e+04 1.208e-09
 14.62306     24.0 1.444e+04 1.891e-09
 14.63308     21.6 1.745e+04 5.208e-09
 14.64508     20.2 1.928e+04 1.018e-08
 14.66006     18.8 2.043e+04 1.390e-08
 14.67003     17.4 2.125e+04 1.980e-08
 14.67827     16.4 2.159e+04 3.079e-08
 14.68328     16.2 2.132e+04 3.237e-08
 14.69007     15.2 2.207e+04 6.079e-08
 14.70009     14.8 2.211e+04 1.470e-07
 14.71011     14.6 2.132e+04 5.679e-07
 14.72013     11.1 2.159e+04 8.216e-07
 14.72649     10.0 2.151e+04 5.017e-07
 14.73150      8.4 2.152e+04 6.055e-07
 14.74017     11.7 2.054e+04 1.720e-07
 14.75019     11.6 2.047e+04 5.530e-08
 14.75776     11.3 1.972e+04 2.069e-08
 14.76277     11.1 1.938e+04 1.872e-08
 14.76971     10.1 1.849e+04 1.463e-08
 14.77477     10.7 1.824e+04 1.488e-08
 14.78536      8.2 1.586e+04 5.275e-09
 14.80540      5.0 1.335e+04 2.421e-09
 14.82544      3.1 1.206e+04 1.576e-09
 14.84548      3.6 1.191e+04 1.549e-09
 14.86124      4.2 1.207e+04 1.679e-09
 14.87126      4.6 1.129e+04 1.284e-09
 14.88263      5.5 1.161e+04 1.457e-09
 14.89265      5.6 1.140e+04 1.095e-09
 14.90560      6.5 1.188e+04 1.338e-09
 14.92564      7.1 1.263e+04 1.787e-09
 14.94567      7.6 1.325e+04 2.399e-09
 14.95769      8.4 1.370e+04 3.113e-09
 14.96771      9.1 1.314e+04 2.418e-09
 14.98575      9.2 1.392e+04 3.233e-09
 15.00579      5.9 1.691e+04 5.979e-09
 15.02583     -0.2 2.008e+04 1.375e-08
 15.04081     -3.2 1.992e+04 2.735e-08
 15.04904     -3.6 1.964e+04 3.203e-08
 15.05405     -4.0 1.887e+04 4.390e-08
 15.06081     -3.6 1.933e+04 4.449e-08
 15.07083     -3.6 1.982e+04 3.959e-08
 15.08084     -4.3 2.144e+04 2.612e-08
 15.09086     -6.8 2.247e+04 1.575e-08
 15.10594    -13.1 1.996e+04 7.197e-09
 15.12603    -20.9 1.410e+04 3.510e-09
 15.14057    -21.3 1.346e+04 3.022e-09
 15.14671    -22.1 1.320e+04 2.510e-09
 15.15221    -22.1 1.308e+04 2.255e-09
 15.16611    -21.0 1.280e+04 2.012e-09
 15.18615    -19.9 1.259e+04 1.843e-09
 15.20619    -18.6 1.258e+04 1.782e-09
 15.22623    -17.7 1.317e+04 1.835e-09
 15.23702    -17.2 1.429e+04 2.274e-09
 15.24704    -16.3 1.219e+04 1.230e-09
 15.26631    -16.0 1.349e+04 1.471e-09
 15.28635    -16.1 1.583e+04 2.226e-09
 15.30639    -16.2 1.721e+04 3.663e-09
 15.32345    -15.3 1.755e+04 5.726e-09
 15.33347    -14.8 1.649e+04 2.412e-09
 15.34647    -14.3 1.731e+04 3.986e-09
 15.36651    -13.0 1.697e+04 5.941e-09
 15.38655    -11.2 1.654e+04 7.864e-09
 15.40175     -9.9 1.627e+04 9.457e-09
 15.41177    -10.3 1.580e+04 4.872e-09
 15.41990     -8.9 1.533e+04 6.343e-09
 15.42992     -8.8 1.533e+04 3.135e-09
 15.44667     -7.7 1.493e+04 4.504e-09
 15.46671     -6.4 1.513e+04 6.392e-09
 15.48675     -5.0 1.556e+04 8.522e-09
 15.50633     -3.5 1.599e+04 9.794e-09
 15.51635     -4.0 1.513e+04 6.198e-09
 15.52682     -2.1 1.543e+04 7.726e-09
 15.54686     -0.0 1.571e+04 8.353e-09
 15.56690      1.9 1.587e+04 7.913e-09
 15.58694      3.4 1.595e+04 7.283e-09
 15.60278      4.4 1.627e+04 6.462e-09
 15.61280      3.9 1.636e+04 8.156e-09
 15.62702      4.2 1.701e+04 8.867e-09
 15.64706      4.0 1.746e+04 9.130e-09
 15.66132      3.6 1.752e+04 9.523e-09
 15.67134      4.7 1.769e+04 1.189e-08
 15.68714      4.9 1.760e+04 1.323e-08
 15.69923      5.3 1.774e+04 1.383e-08
 15.70925      5.8 1.766e+04 1.778e-08
 15.72722      6.1 1.771e+04 1.706e-08
 15.74726      6.1 1.792e+04 1.503e-08
 15.76730      5.4 1.855e+04 1.357e-08
 15.78566      4.2 1.861e+04 1.306e-08
 15.79568      4.9 1.815e+04 1.385e-08
 15.80738      4.1 1.839e+04 1.475e-08
 15.82742      3.8 1.846e+04 1.483e-08
 15.84746      4.7 1.816e+04 1.344e-08
 15.86750      5.7 1.793e+04 1.137e-08
 15.88211      6.1 1.760e+04 9.249e-09
 15.89213      5.8 1.738e+04 9.163e-09
 15.90758      5.5 1.729e+04 8.128e-09
 15.92088      5.0 1.716e+04 7.468e-09
 15.93090      4.1 1.765e+04 8.383e-09
 15.94766      3.3 1.753e+04 8.559e-09
 15.96770      3.1 1.711e+04 8.890e-09
 15.97856      3.5 1.660e+04 9.162e-09
 15.98858      3.8 1.701e+04 1.024e-08
 16.00778      4.3 1.687e+04 1.105e-08
 16.02782      4.5 1.663e+04 1.140e-08
 16.04786      4.7 1.636e+04 1.114e-08
 16.06499      5.0 1.627e+04 1.023e-08
 16.07501      5.7 1.665e+04 1.166e-08
 16.08793      5.9 1.640e+04 9.972e-09
 16.10797      5.7 1.596e+04 7.649e-09
 16.12801      5.4 1.522e+04 5.260e-09
 16.14805      5.2 1.415e+04 3.381e-09
 16.16144      5.3 1.291e+04 2.096e-09
 16.17146      6.3 1.413e+04 3.299e-09
 16.18045      7.0 1.291e+04 2.132e-09
 16.19047      6.8 1.298e+04 2.222e-09
 16.21829      8.7 1.219e+04 1.504e-09
 16.25847     10.5 1.065e+04 6.884e-10
 16.29855     11.7 9.564e+03 3.476e-10
 16.33449     13.2 8.881e+03 2.338e-10
 16.35453     14.7 9.875e+03 3.698e-10
 16.37870     16.5 9.404e+03 3.325e-10
 16.41878     18.4 9.454e+03 3.598e-10
 16.45886     20.3 9.763e+03 4.639e-10
 16.49894     22.2 1.008e+04 6.124e-10
 16.52739     24.0 1.037e+04 7.755e-10
 16.54743     25.5 1.100e+04 9.537e-10
 16.57910     26.9 1.121e+04 1.087e-09
 16.61918     28.3 1.111e+04 1.177e-09
 16.65926     29.5 1.110e+04 1.247e-09
 16.68975     29.3 1.153e+04 1.511e-09
 16.70969     27.1 1.199e+04 2.262e-09
 16.72009     27.2 1.203e+04 2.934e-09
 16.73011     27.1 1.241e+04 3.284e-09
 16.74924     28.0 1.268e+04 4.247e-09
 16.76928     29.3 1.319e+04 5.140e-09
 16.78932     30.5 1.377e+04 5.588e-09
 16.80652     31.1 1.431e+04 5.470e-09
 16.81654     29.7 1.469e+04 6.597e-09
 16.82940     29.8 1.486e+04 6.394e-09
 16.84944     29.5 1.502e+04 6.012e-09
 16.86948     28.5 1.515e+04 5.854e-09
 16.88952     27.2 1.482e+04 5.620e-09
 16.90297     26.7 1.388e+04 5.369e-09
 16.91299     28.6 1.569e+04 6.099e-09
 16.92960     28.7 1.487e+04 5.772e-09
 16.94912     29.2 1.403e+04 5.233e-09
 16.95914     29.0 1.355e+04 4.466e-09
 16.96968     29.9 1.320e+04 3.469e-09
 16.98940     30.2 1.294e+04 2.479e-09
 16.99942     29.5 1.289e+04 1.697e-09
 17.01988     30.3 1.221e+04 1.525e-09
 17.06005     30.3 1.104e+04 9.383e-10
 17.08605     31.2 1.041e+04 6.499e-10
 17.10609     30.7 1.005e+04 5.076e-10
 17.14021     32.7 9.761e+03 5.206e-10
 17.18029     35.3 9.660e+03 4.972e-10
 17.20888     38.0 9.651e+03 4.236e-10
 17.22892     37.3 9.726e+03 4.110e-10
 17.25891     39.3 9.923e+03 3.337e-10
 17.27895     39.3 9.798e+03 3.947e-10
 17.30053     41.5 1.006e+04 4.712e-10
 17.34061     43.7 1.051e+04 5.989e-10
 17.38069     46.1 1.089e+04 7.231e-10
 17.42077     48.4 1.094e+04 7.282e-10
 17.45181     50.7 1.084e+04 6.725e-10
 17.47185     51.6 1.110e+04 1.122e-09
 17.50092     54.1 1.084e+04 9.690e-10
 17.54100     56.6 1.051e+04 7.469e-10
 17.58108     58.9 1.025e+04 5.697e-10
 17.62116     61.1 1.004e+04 4.817e-10
 17.64471     63.3 9.833e+03 4.467e-10
 17.66475     64.3 1.009e+04 4.711e-10
 17.70132     66.7 1.005e+04 4.701e-10
 17.72801     69.3 9.916e+03 4.593e-10
 17.74805     69.4 1.005e+04 5.990e-10
 17.78148     72.1 9.806e+03 5.186e-10
 17.81756     74.6 9.530e+03 4.280e-10
 17.83760     75.9 1.010e+04 5.783e-10
 17.86164     78.2 9.923e+03 5.157e-10
 17.90172     80.3 9.669e+03 4.321e-10
 17.94180     82.1 9.407e+03 3.549e-10
 17.98188     83.7 9.267e+03 3.174e-10
 18.01046     85.1 9.288e+03 3.202e-10
 18.03050     86.0 9.836e+03 4.392e-10
 18.06203     86.5 9.929e+03 4.679e-10
 18.10211     86.9 1.026e+04 5.876e-10
 18.14219     87.4 1.067e+04 7.723e-10
 18.18227     88.0 1.095e+04 8.970e-10
 18.20336     88.3 1.098e+04 9.001e-10
 18.22340     86.9 1.114e+04 9.481e-10
 18.24714     87.1 1.110e+04 9.214e-10
 18.26718     87.9 1.110e+04 9.705e-10
 18.30251     88.7 1.106e+04 9.302e-10
 18.34259     89.6 1.113e+04 9.432e-10
 18.37622     90.6 1.146e+04 1.031e-09
 18.39616     89.1 1.275e+04 1.770e-09
 18.41253     89.7 1.285e+04 1.953e-09
 18.43257     90.4 1.293e+04 2.107e-09
 18.45261     91.3 1.287e+04 2.181e-09
 18.47248     92.2 1.285e+04 2.178e-09
 18.48250     91.8 1.292e+04 2.495e-09
 18.50281     93.6 1.271e+04 2.124e-09
 18.54299     94.9 1.225e+04 1.693e-09
 18.56912     96.3 1.172e+04 1.328e-09
 18.58916     95.4 1.087e+04 6.719e-10
 18.62314     96.8 1.034e+04 5.251e-10
 18.66322     98.6 1.030e+04 5.186e-10
 18.70330    100.8 1.031e+04 5.293e-10
 18.74198    103.1 1.037e+04 5.741e-10
 18.76202    102.4 9.620e+03 3.865e-10
 18.76617    103.7 9.728e+03 4.268e-10
 18.77609    103.5 9.963e+03 4.258e-10
 18.79329    104.7 1.000e+04 4.582e-10
 18.81333    105.8 9.992e+03 4.850e-10
 18.83336    106.9 9.880e+03 5.123e-10
 18.84825    108.1 9.806e+03 5.190e-10
 18.85827    108.0 9.470e+03 4.685e-10
 18.87344    109.2 9.458e+03 4.691e-10
 18.90360    110.8 9.464e+03 4.626e-10
 18.93488    113.1 9.327e+03 4.440e-10
 18.95492    113.5 9.103e+03 3.727e-10
 18.98386    115.9 8.965e+03 3.457e-10
 19.02394    118.2 8.807e+03 3.158e-10
 19.06402    120.5 8.631e+03 2.837e-10
 19.10410    122.6 8.449e+03 2.516e-10
 19.12778    124.7 8.286e+03 2.228e-10
 19.14782    125.2 8.344e+03 2.047e-10
 19.18425    127.3 8.283e+03 2.049e-10
 19.22433    129.4 8.283e+03 2.074e-10
 19.26441    131.5 8.314e+03 2.168e-10
 19.28539    133.9 8.497e+03 2.339e-10
 19.30158    133.7 8.314e+03 2.357e-10
 19.32068    134.6 8.538e+03 2.953e-10
 19.34457    137.2 8.797e+03 3.516e-10
 19.38465    139.3 8.987e+03 4.035e-10
 19.40701    140.2 8.995e+03 4.240e-10
 19.41693    140.3 9.034e+03 4.466e-10
 19.43455    141.8 9.141e+03 5.203e-10
 19.45459    143.6 9.441e+03 6.487e-10
 19.47463    145.1 9.923e+03 8.291e-10
 19.49334    146.0 1.053e+04 1.081e-09
 19.50336    146.8 1.073e+04 1.226e-09
 19.51471    147.6 1.136e+04 1.590e-09
 19.53474    148.3 1.227e+04 2.204e-09
 19.55478    148.5 1.309e+04 3.043e-09
 19.57483    148.7 1.427e+04 4.777e-09
 19.58979    149.2 1.563e+04 7.773e-09
 19.59981    149.4 1.545e+04 6.559e-09
 19.61491    149.7 1.665e+04 1.008e-08
 19.63495    149.6 1.777e+04 1.448e-08
 19.65499    149.1 1.870e+04 1.688e-08
 19.67503    147.5 1.891e+04 1.676e-08
 19.68624    145.4 1.910e+04 1.602e-08
 19.69626    144.8 1.858e+04 1.234e-08
 19.71511    142.6 1.863e+04 1.223e-08
 19.73515    140.2 1.901e+04 1.262e-08
 19.75519    137.8 1.963e+04 1.426e-08
 19.77267    135.6 2.000e+04 1.610e-08
 19.78269    134.5 1.974e+04 1.164e-08
 19.79431    132.5 2.025e+04 1.301e-08
 19.80428    131.1 2.061e+04 8.921e-09
 19.81020    130.2 2.063e+04 1.031e-08
 19.82022    129.5 2.056e+04 1.189e-08
 19.82581    128.9 2.037e+04 1.355e-08
 19.83082    127.3 2.130e+04 1.441e-08
 19.84026    127.1 2.128e+04 1.710e-08
 19.85028    127.1 2.124e+04 2.025e-08
 19.86030    127.2 2.126e+04 2.428e-08
 19.86902    127.4 2.133e+04 2.982e-08
 19.87403    126.9 2.144e+04 3.071e-08
 19.88034    127.1 2.136e+04 3.587e-08
 19.89036    127.0 2.131e+04 3.617e-08
 19.90038    126.9 2.118e+04 3.494e-08
 19.91040    127.0 2.092e+04 3.198e-08
 19.91725    127.0 2.064e+04 2.966e-08
 19.92226    126.9 2.065e+04 2.352e-08
 19.93550    127.5 2.034e+04 2.004e-08
 19.95555    128.0 1.986e+04 1.604e-08
 19.97559    127.3 2.116e+04 4.527e-09
 19.99566    127.1 2.124e+04 3.414e-09
 20.01570    127.0 2.101e+04 2.816e-09
 20.03574    127.1 2.030e+04 2.613e-09
 20.05200    127.4 1.943e+04 2.695e-09
 20.06011    124.7 1.497e+04 1.235e-09
 20.06389    124.5 1.310e+04 8.500e-10
 20.07582    125.3 1.364e+04 9.764e-10
 20.09586    125.4 1.438e+04 1.202e-09
 20.11590    125.4 1.521e+04 1.613e-09
 20.13594    125.3 1.597e+04 2.247e-09
 20.14845    124.9 1.654e+04 3.108e-09
 20.15847    124.5 1.513e+04 2.926e-09
 20.17602    124.4 1.533e+04 3.700e-09
 20.19606    124.5 1.546e+04 4.422e-09
 20.21610    124.7 1.556e+04 4.957e-09
 20.23488    124.8 1.566e+04 5.163e-09
 20.24490    124.9 1.533e+04 3.778e-09
 20.25618    124.5 1.558e+04 3.607e-09
 20.27622    123.6 1.571e+04 3.585e-09
 20.29626    122.4 1.600e+04 3.592e-09
 20.31344    120.6 1.651e+04 3.751e-09
 20.32346    118.3 1.733e+04 3.042e-09
 20.33133    114.6 1.859e+04 4.234e-09
 20.34135    113.0 1.679e+04 3.155e-09
 20.35638    110.2 1.792e+04 5.683e-09
 20.37642    108.5 1.859e+04 8.676e-09
 20.39646    107.1 1.848e+04 9.365e-09
 20.41650    105.7 1.817e+04 8.966e-09
 20.42778    104.8 1.725e+04 7.199e-09
 20.43780    105.8 1.754e+04 8.347e-09
 20.45658    104.9 1.641e+04 5.238e-09
 20.47661    103.6 1.482e+04 2.853e-09
 20.49665    101.8 1.319e+04 1.629e-09
 20.51421    100.3 1.205e+04 1.082e-09
 20.52423    100.1 1.179e+04 9.455e-10
 20.53673     99.7 1.145e+04 7.641e-10
 20.55677     99.8 1.129e+04 6.976e-10
 20.57300    100.2 1.114e+04 6.415e-10
 20.58302     98.8 1.096e+04 5.686e-10
 20.59685     99.2 1.082e+04 5.314e-10
 20.61065     99.6 1.068e+04 5.038e-10
 20.62067     99.3 1.067e+04 5.061e-10
 20.63693     99.6 1.053e+04 4.976e-10
 20.65697    100.1 1.045e+04 4.973e-10
 20.67701    100.6 1.040e+04 4.978e-10
 20.69705    101.1 1.034e+04 4.876e-10
 20.71709    101.1 1.023e+04 4.533e-10
 20.73713    102.0 1.015e+04 4.346e-10
 20.75717    102.4 1.008e+04 4.233e-10
 20.77721    103.3 1.001e+04 4.159e-10
 20.79353    103.7 9.959e+03 4.133e-10
 20.80365    103.3 1.001e+04 3.920e-10
 20.81739    104.1 9.980e+03 4.022e-10
 20.83256    104.4 9.961e+03 4.135e-10
 20.84268    103.7 9.857e+03 3.839e-10
 20.86758    105.1 1.006e+04 4.613e-10
 20.90766    106.2 1.027e+04 5.402e-10
 20.94774    106.9 1.031e+04 5.495e-10
 20.97661    107.4 1.025e+04 5.257e-10
 20.99665    106.9 1.033e+04 5.559e-10
 21.02790    107.6 1.008e+04 4.469e-10
 21.06798    108.4 9.709e+03 3.056e-10
 21.10806    108.9 9.372e+03 2.102e-10
 21.14814    109.4 9.284e+03 1.879e-10
 21.16951    109.8 9.285e+03 1.884e-10
 21.18955    109.1 9.354e+03 2.056e-10
 21.22830    109.4 9.386e+03 2.116e-10
 21.26838    109.6 9.396e+03 2.138e-10
 21.30846    109.7 9.352e+03 2.030e-10
 21.34187    109.6 9.300e+03 1.760e-10
 21.35574    108.5 9.436e+03 1.929e-10
 21.36241    107.8 9.499e+03 1.939e-10
 21.38861    106.7 9.638e+03 1.716e-10
 21.42869    105.4 9.730e+03 1.808e-10
 21.46877    104.7 9.871e+03 2.249e-10
 21.50885    104.5 9.858e+03 2.680e-10
 21.53527    104.7 9.807e+03 2.671e-10
 21.55530    103.6 9.746e+03 2.734e-10
 21.58901    104.1 9.563e+03 2.235e-10
 21.62909    104.7 9.434e+03 1.890e-10
 21.66917    105.4 9.376e+03 1.826e-10
 21.70812    106.3 9.396e+03 1.906e-10
 21.72816    105.1 9.339e+03 1.852e-10
 21.74933    106.2 9.470e+03 2.270e-10
 21.78941    107.4 9.619e+03 2.752e-10
 21.82949    108.6 9.757e+03 3.202e-10
 21.86100    109.7 9.867e+03 3.505e-10
 21.88104    108.5 9.972e+03 3.712e-10
 21.90102    109.4 1.005e+04 3.860e-10
 21.92106    107.8 9.918e+03 3.460e-10
 21.94972    108.5 9.908e+03 3.271e-10
 21.98980    109.0 9.910e+03 3.078e-10
 22.02988    109.4 9.921e+03 2.929e-10
 22.06996    109.8 9.929e+03 2.907e-10
 22.09392    110.0 9.993e+03 3.006e-10
 22.11396    108.1 9.691e+03 2.575e-10
 22.15012    108.1 9.988e+03 3.139e-10
 22.19020    107.8 1.030e+04 3.804e-10
 22.22016    106.9 1.044e+04 4.285e-10
 22.24010    106.3 1.042e+04 4.639e-10
 22.26014    106.1 1.048e+04 5.134e-10
 22.27661    106.1 1.051e+04 5.322e-10
 22.28672    105.7 1.043e+04 4.752e-10
 22.31044    105.0 1.042e+04 4.732e-10
 22.35052    103.7 1.036e+04 4.432e-10
 22.38013    102.3 1.041e+04 4.615e-10
 22.40016    100.0 1.078e+04 6.350e-10
 22.43067     98.6 1.093e+04 6.921e-10
 22.45968     97.1 1.101e+04 7.206e-10
 22.47972     96.7 1.063e+04 5.704e-10
 22.51083     95.8 1.060e+04 5.611e-10
 22.55091     95.5 1.043e+04 4.964e-10
 22.59099     95.6 1.014e+04 3.664e-10
 22.63107     95.8 9.797e+03 2.270e-10
 22.65258     96.2 9.445e+03 1.365e-10
 22.67262     96.8 9.271e+03 1.247e-10
 22.71123     97.5 9.057e+03 9.701e-11
 22.75131     98.6 8.995e+03 9.535e-11
 22.79139    100.1 8.989e+03 9.609e-11
 22.82544    101.7 9.013e+03 9.849e-11
 22.84548    102.3 8.996e+03 9.823e-11
 22.87155    103.8 9.070e+03 1.008e-10
 22.89925    105.2 9.121e+03 1.007e-10
 22.91929    103.9 9.125e+03 1.003e-10
 22.95171    105.1 9.147e+03 1.001e-10
 22.99178    106.4 9.190e+03 9.995e-11
 23.01834    107.5 9.295e+03 1.043e-10
 23.03838    107.9 9.230e+03 9.962e-11
 23.07194    108.9 9.347e+03 1.044e-10
 23.11202    109.9 9.537e+03 1.231e-10
 23.15210    110.8 9.737e+03 1.572e-10
 23.19120    111.6 9.940e+03 2.001e-10
 23.21124    111.9 9.867e+03 1.868e-10
 23.23226    112.8 1.003e+04 2.318e-10
 23.27234    113.5 1.014e+04 2.428e-10
 23.31242    114.2 1.013e+04 2.332e-10
 23.35250    115.1 1.004e+04 2.002e-10
 23.38410    116.2 9.902e+03 1.527e-10
 23.40414    116.7 9.865e+03 1.388e-10
 23.41838    117.8 9.737e+03 9.590e-11
 23.43842    116.7 9.691e+03 8.238e-11
 23.47274    117.9 9.495e+03 6.007e-11
 23.51282    119.2 9.262e+03 5.579e-11
 23.55289    120.9 9.245e+03 5.580e-11
 23.57699    122.8 9.228e+03 5.690e-11
 23.59703    123.2 9.196e+03 5.290e-11
 23.63305    125.1 9.183e+03 5.763e-11
 23.67313    126.9 9.212e+03 6.658e-11
 23.71321    128.6 9.265e+03 7.913e-11
 23.74985    130.2 9.329e+03 9.401e-11
 23.76989    130.6 9.278e+03 8.995e-11
 23.79337    132.2 9.335e+03 1.033e-10
 23.83345    133.6 9.389e+03 1.130e-10
 23.87353    134.8 9.429e+03 1.182e-10
 23.91361    136.0 9.445e+03 1.191e-10
 23.93751    137.1 9.445e+03 1.183e-10
 23.94662    136.5 9.497e+03 1.384e-10
 23.96279    136.6 9.406e+03 1.140e-10
 23.99377    137.6 9.404e+03 1.142e-10
 24.03385    138.7 9.398e+03 1.155e-10
 24.07393    139.8 9.393e+03 1.195e-10
 24.11400    140.9 9.402e+03 1.260e-10
 24.13565    142.0 9.428e+03 1.348e-10
 24.15569    142.1 9.350e+03 1.267e-10
 24.19416    143.2 9.387e+03 1.380e-10
 24.23424    144.1 9.446e+03 1.512e-10
 24.27432    144.9 9.548e+03 1.673e-10
 24.30851    145.4 9.687e+03 1.856e-10
 24.32855    145.5 9.673e+03 1.831e-10
 24.35448    145.7 9.839e+03 2.024e-10
 24.39456    145.7 9.995e+03 2.192e-10
 24.43464    145.6 1.012e+04 2.367e-10
 24.45664    145.7 1.021e+04 2.499e-10
 24.47668    144.6 1.024e+04 2.665e-10
 24.50141    144.9 1.027e+04 2.663e-10
 24.52145    145.0 1.041e+04 2.772e-10
 24.55488    145.4 1.041e+04 2.654e-10
 24.59496    145.9 1.036e+04 2.470e-10
 24.63504    146.4 1.029e+04 2.303e-10
 24.67427    147.2 1.029e+04 2.275e-10
 24.69431    146.7 1.052e+04 2.380e-10
 24.71519    147.5 1.062e+04 2.500e-10
 24.75527    148.1 1.085e+04 2.865e-10
 24.78064    147.8 1.108e+04 3.452e-10
 24.79056    147.3 1.119e+04 3.833e-10
 24.80518    146.7 1.142e+04 5.110e-10
 24.82522    146.6 1.162e+04 6.608e-10
 24.84526    146.6 1.185e+04 8.163e-10
 24.86530    146.4 1.213e+04 9.788e-10
 24.87699    146.2 1.246e+04 1.156e-09
 24.88701    145.5 1.267e+04 1.257e-09
 24.90537    144.9 1.307e+04 1.438e-09
 24.92541    144.2 1.334e+04 1.504e-09
 24.95557    143.2 1.332e+04 1.437e-09
 24.99575    142.0 1.294e+04 1.165e-09
 25.03583    142.0 1.288e+04 1.013e-09
 25.05997    142.0 1.287e+04 9.552e-10
 25.06989    141.6 1.284e+04 8.199e-10
 25.08573    141.6 1.291e+04 7.620e-10
 25.10577    141.2 1.312e+04 7.820e-10
 25.12581    140.7 1.343e+04 8.597e-10
 25.14585    140.2 1.372e+04 9.999e-10
 25.15632    139.8 1.398e+04 1.206e-09
 25.16634    139.3 1.365e+04 8.104e-10
 25.18593    138.9 1.387e+04 9.878e-10
 25.20597    138.7 1.409e+04 1.242e-09
 25.22512    138.6 1.430e+04 1.566e-09
 25.23514    138.1 1.479e+04 2.250e-09
 25.24275    138.1 1.492e+04 2.571e-09
 25.25277    137.4 1.445e+04 1.885e-09
 25.26609    137.6 1.461e+04 2.156e-09
 25.28613    137.8 1.480e+04 2.441e-09
 25.30617    138.0 1.500e+04 2.740e-09
 25.32621    138.1 1.517e+04 3.070e-09
 25.33920    138.2 1.533e+04 3.440e-09
 25.34922    138.0 1.487e+04 2.360e-09
 25.36629    138.2 1.507e+04 2.643e-09
 25.38633    138.5 1.525e+04 2.963e-09
 25.40637    138.9 1.540e+04 3.310e-09
 25.42563    139.3 1.550e+04 3.612e-09
 25.43565    138.9 1.462e+04 2.205e-09
 25.44645    139.3 1.475e+04 2.377e-09
 25.46648    139.5 1.495e+04 2.547e-09
 25.48468    139.3 1.536e+04 2.795e-09
 25.49470    138.4 1.640e+04 3.896e-09
 25.50656    137.1 1.735e+04 4.956e-09
 25.52208    135.4 1.840e+04 7.054e-09
 25.53210    133.4 1.855e+04 7.494e-09
 25.54664    132.6 1.939e+04 1.124e-08
 25.56668    132.3 2.015e+04 1.546e-08
 25.58166    131.9 2.013e+04 1.590e-08
 25.59163    131.4 2.019e+04 1.713e-08
 25.60165    131.2 2.044e+04 1.953e-08
 25.61167    131.2 2.083e+04 2.267e-08
 25.61843    131.0 2.130e+04 2.531e-08
 25.62112    129.9 1.986e+04 1.447e-08
 25.62439    128.9 2.021e+04 1.551e-08
 25.63171    127.8 2.042e+04 1.420e-08
 25.64173    126.1 2.033e+04 1.235e-08
 25.65175    123.9 2.006e+04 1.015e-08
 25.66165    121.3 1.930e+04 8.108e-09
 25.66666    119.4 1.608e+04 5.327e-09
 25.67179    117.5 1.563e+04 4.612e-09
 25.68181    115.9 1.543e+04 4.135e-09
 25.69183    115.1 1.549e+04 4.125e-09
 25.70185    113.7 1.634e+04 4.494e-09
 25.70987    113.4 1.671e+04 4.739e-09
 25.71493    114.8 1.432e+04 2.618e-09
 25.72700    113.2 1.323e+04 1.829e-09
 25.74425    111.3 1.233e+04 1.210e-09
 25.75427    111.5 1.283e+04 1.304e-09
 25.76708    109.7 1.200e+04 1.003e-09
 25.78712    108.6 1.148e+04 8.842e-10
 25.80141    107.9 1.127e+04 8.970e-10
 25.81143    108.8 1.096e+04 8.330e-10
 25.82720    109.1 1.110e+04 8.946e-10
 25.84724    109.4 1.123e+04 9.580e-10
 25.86728    109.7 1.129e+04 1.009e-09
 25.88732    109.9 1.127e+04 1.016e-09
 25.89786    110.1 1.124e+04 1.011e-09
 25.90788    110.6 1.108e+04 9.477e-10
 25.92740    110.8 1.098e+04 9.162e-10
 25.94744    111.0 1.082e+04 8.634e-10
 25.96748    111.3 1.064e+04 7.979e-10
 25.98429    111.7 1.045e+04 7.278e-10
 25.99431    112.0 1.028e+04 6.551e-10
 26.00381    112.3 1.010e+04 5.953e-10
 26.01383    111.9 1.012e+04 5.975e-10
 26.02759    112.2 9.990e+03 5.574e-10
 26.04763    112.5 9.900e+03 5.405e-10
 26.06767    112.8 9.881e+03 5.419e-10
 26.08074    113.3 9.874e+03 5.498e-10
 26.09076    113.5 9.944e+03 5.561e-10
 26.10775    113.8 1.002e+04 5.926e-10
 26.12779    114.2 1.014e+04 6.473e-10
 26.14783    114.6 1.026e+04 7.169e-10
 26.16717    115.1 1.037e+04 7.919e-10
 26.17719    115.1 1.056e+04 8.518e-10
 26.18791    115.5 1.067e+04 9.328e-10
 26.20795    115.8 1.075e+04 9.995e-10
 26.22799    116.3 1.083e+04 1.051e-09
 26.24803    116.7 1.090e+04 1.079e-09
 26.26337    117.2 1.097e+04 1.083e-09
 26.26894    117.0 1.063e+04 8.755e-10
 26.27364    116.9 1.062e+04 8.683e-10
 26.28811    117.2 1.063e+04 8.239e-10
 26.30815    117.1 1.066e+04 7.987e-10
 26.32819    117.0 1.070e+04 8.015e-10
 26.34823    116.4 1.088e+04 8.365e-10
 26.36006    115.4 1.133e+04 9.782e-10
 26.37008    115.4 1.126e+04 9.658e-10
 26.38831    114.1 1.186e+04 1.287e-09
 26.40835    112.9 1.249e+04 1.823e-09
 26.42839    112.1 1.311e+04 2.599e-09
 26.44649    112.0 1.363e+04 3.465e-09
 26.45651    112.0 1.371e+04 3.519e-09
 26.46847    111.9 1.418e+04 4.237e-09
 26.48851    111.7 1.457e+04 4.493e-09
 26.50855    111.2 1.467e+04 4.448e-09
 26.52294    110.6 1.471e+04 4.050e-09
 26.53296    110.7 1.387e+04 2.766e-09
 26.54294    109.2 1.375e+04 2.345e-09
 26.55296    108.9 1.387e+04 2.315e-09
 26.56866    106.8 1.374e+04 2.169e-09
 26.58870    104.6 1.378e+04 2.231e-09
 26.60874    102.6 1.397e+04 2.616e-09
 26.62878    101.3 1.438e+04 3.474e-09
 26.63939    100.6 1.477e+04 4.245e-09
 26.64941    100.6 1.433e+04 3.610e-09
 26.66886     99.7 1.439e+04 3.617e-09
 26.68890     98.7 1.430e+04 3.370e-09
 26.70894     97.7 1.386e+04 2.587e-09
 26.72582     96.6 1.318e+04 1.810e-09
 26.73584     96.7 1.288e+04 1.591e-09
 26.75914     95.4 1.209e+04 1.052e-09
 26.79932     94.1 1.132e+04 7.146e-10
 26.83940     94.0 1.124e+04 6.041e-10
 26.87947     94.1 1.123e+04 5.683e-10
 26.90890     94.1 1.122e+04 5.309e-10
 26.92894     94.7 1.073e+04 3.737e-10
 26.95963     94.8 1.072e+04 3.316e-10
 26.99971     94.9 1.065e+04 2.825e-10
 27.03224     94.9 1.057e+04 2.421e-10
 27.05228     95.9 1.086e+04 2.748e-10
 27.07987     96.0 1.064e+04 2.146e-10
 27.10180     96.2 1.049e+04 1.831e-10
 27.12184     97.1 1.039e+04 1.654e-10
 27.16003     97.4 1.034e+04 1.515e-10
 27.20011     97.8 1.024e+04 1.372e-10
 27.24019     98.4 1.016e+04 1.212e-10
 27.27466     99.1 1.008e+04 1.071e-10
 27.29470     99.8 1.012e+04 1.148e-10
 27.32035    100.6 1.004e+04 1.052e-10
 27.36043    101.6 9.956e+03 9.751e-11
 27.40051    102.8 9.889e+03 9.161e-11
 27.44058    104.0 9.851e+03 8.695e-11
 27.46755    105.3 9.849e+03 8.434e-11
 27.48759    105.6 9.783e+03 7.406e-11
 27.52074    106.8 9.793e+03 7.322e-11
 27.55137    108.0 9.801e+03 7.368e-11
 27.57141    108.3 9.815e+03 7.378e-11
 27.60090    109.3 9.877e+03 7.713e-11
 27.64041    110.1 1.002e+04 9.609e-11
 27.66045    110.6 9.944e+03 8.005e-11
 27.68106    111.4 1.011e+04 1.076e-10
 27.72114    112.0 1.033e+04 1.537e-10
 27.76122    112.0 1.058e+04 2.144e-10
 27.80130    111.5 1.093e+04 3.013e-10
 27.83331    110.6 1.137e+04 4.586e-10
 27.85335    111.8 1.099e+04 3.832e-10
 27.88146    110.2 1.166e+04 6.348e-10
 27.92154    107.8 1.221e+04 9.461e-10
 27.96161    105.0 1.235e+04 1.097e-09
 28.00169    101.9 1.224e+04 1.077e-09
 28.02621     99.0 1.192e+04 1.003e-09
 28.04625    100.6 1.187e+04 9.898e-10
 28.07050     97.9 1.177e+04 1.021e-09
 28.09054     97.9 1.150e+04 9.340e-10
 28.12193     95.7 1.144e+04 9.462e-10
 28.16201     93.9 1.145e+04 1.006e-09
 28.19907     92.0 1.158e+04 1.050e-09
 28.21911     93.0 1.163e+04 1.129e-09
 28.24217     90.9 1.177e+04 1.183e-09
 28.28225     88.6 1.172e+04 1.143e-09
 28.32233     86.6 1.143e+04 9.640e-10
 28.36241     84.5 1.097e+04 7.065e-10
 28.39197     82.4 1.046e+04 4.880e-10
 28.41201     83.3 1.044e+04 4.663e-10
 28.44257     81.1 9.844e+03 2.942e-10
 28.48265     79.2 9.403e+03 2.029e-10
 28.52272     78.0 9.131e+03 1.488e-10
 28.56280     77.3 8.958e+03 1.108e-10
 28.58487     77.0 8.829e+03 8.450e-11
 28.59165     77.5 8.818e+03 8.437e-11
 28.60967     77.8 8.821e+03 8.409e-11
 28.64296     77.7 8.717e+03 6.740e-11
 28.68304     77.6 8.651e+03 5.873e-11
 28.72312     77.7 8.626e+03 5.702e-11
 28.75773     78.0 8.624e+03 5.703e-11
 28.77777     78.4 8.618e+03 5.691e-11
 28.80328     79.0 8.631e+03 5.723e-11
 28.84336     79.5 8.693e+03 5.857e-11
 28.88344     79.9 8.810e+03 6.438e-11
 28.92352     80.3 8.940e+03 8.175e-11
 28.95063     80.5 9.154e+03 1.202e-10
 28.97067     80.9 9.190e+03 1.199e-10
 29.00368     80.8 9.487e+03 1.917e-10
 29.04376     80.6 9.888e+03 3.129e-10
 29.08383     80.2 1.042e+04 4.590e-10
 29.10876     79.2 1.087e+04 5.150e-10
 29.12837     79.3 1.085e+04 4.923e-10
 29.14353     79.5 1.107e+04 6.072e-10
 29.16399     78.1 1.112e+04 5.950e-10
 29.20407     76.8 1.106e+04 5.107e-10
 29.24415     75.9 1.084e+04 3.653e-10
 29.28423     75.1 1.053e+04 2.502e-10
 29.31638     74.6 1.020e+04 2.138e-10
 29.33642     74.4 1.042e+04 2.691e-10
 29.36439     74.2 1.035e+04 2.662e-10
 29.40447     74.2 1.036e+04 2.698e-10
 29.44455     74.0 1.046e+04 2.872e-10
 29.48463     73.6 1.071e+04 3.327e-10
 29.50919     73.0 1.095e+04 3.870e-10
 29.51911     72.3 1.118e+04 4.276e-10
 29.53453     71.4 1.144e+04 5.620e-10
 29.56469     69.8 1.183e+04 8.092e-10
 29.60487     68.8 1.186e+04 8.945e-10
 29.62789     67.4 1.177e+04 8.604e-10
 29.64792     68.4 1.178e+04 8.606e-10
 29.68214     66.9 1.147e+04 7.133e-10
 29.70218     65.8 1.130e+04 5.881e-10
 29.72510     64.5 1.077e+04 3.793e-10
 29.76518     63.3 1.038e+04 2.646e-10
 29.80526     62.5 1.019e+04 2.410e-10
 29.84534     62.1 1.019e+04 2.462e-10
 29.87504     61.8 1.022e+04 2.574e-10
 29.89508     61.5 1.018e+04 2.489e-10
 29.92550     61.3 1.018e+04 2.496e-10
 29.96558     60.9 1.018e+04 2.510e-10
 30.00566     60.2 1.020e+04 2.610e-10
 30.04574     59.2 1.028e+04 2.881e-10
 30.06794     57.8 1.039e+04 3.197e-10
 30.08798     57.9 1.040e+04 3.124e-10
 30.11578     56.7 1.052e+04 3.303e-10
 30.13572     56.3 1.054e+04 3.352e-10
 30.14682     54.9 1.067e+04 3.693e-10
 30.15525     55.3 1.067e+04 3.523e-10
 30.16419     55.2 1.069e+04 3.596e-10
 30.17580     53.5 1.082e+04 4.136e-10
 30.19584     51.6 1.090e+04 4.885e-10
 30.21588     49.1 1.124e+04 6.048e-10
 30.23592     45.5 1.224e+04 8.518e-10
 30.25062     41.2 1.342e+04 1.355e-09
 30.26064     39.6 1.420e+04 1.938e-09
 30.27600     36.4 1.458e+04 2.770e-09
 30.29604     34.0 1.450e+04 2.846e-09
 30.31608     32.2 1.416e+04 2.502e-09
 30.33612     30.4 1.355e+04 1.737e-09
 30.34707     28.1 1.287e+04 1.028e-09
 30.35709     26.6 1.282e+04 8.752e-10
 30.37620     22.7 1.183e+04 4.843e-10
 30.40635     21.4 1.130e+04 4.098e-10
 30.43370     19.0 1.038e+04 3.075e-10
 30.45374     17.5 1.021e+04 2.931e-10
 30.48661     16.1 1.005e+04 2.856e-10
 30.52669     14.9 1.001e+04 2.782e-10
 30.56677     14.3 1.004e+04 2.758e-10
 30.60656     13.8 1.015e+04 2.827e-10
 30.62660     12.4 1.041e+04 3.319e-10
 30.64610     11.7 1.083e+04 4.426e-10
 30.66614     11.1 1.106e+04 5.108e-10
 30.68701     10.8 1.138e+04 6.666e-10
 30.72708     10.7 1.157e+04 7.911e-10
 30.76716     10.5 1.156e+04 7.875e-10
 30.79946     10.3 1.147e+04 7.376e-10
 30.81950      9.2 1.153e+04 7.509e-10
 30.84732      8.4 1.140e+04 6.727e-10
 30.88740      7.7 1.107e+04 5.467e-10
 30.92748      7.5 1.066e+04 4.195e-10
 30.96756      7.4 1.029e+04 3.058e-10
 30.99236      7.0 9.979e+03 2.283e-10
 31.01240      5.5 1.013e+04 2.336e-10
 31.04772      5.1 9.819e+03 2.120e-10
 31.08780      5.3 9.729e+03 2.116e-10
 31.12788      5.9 9.669e+03 2.134e-10
 31.16522      6.6 9.654e+03 2.192e-10
 31.18525      4.9 9.829e+03 2.595e-10
 31.20804      5.4 9.987e+03 2.724e-10
 31.24812      5.4 1.035e+04 3.372e-10
 31.27159      5.7 1.087e+04 4.482e-10
 31.28151      4.0 1.137e+04 5.126e-10
 31.29802      2.6 1.256e+04 8.405e-10
 31.31806      1.0 1.378e+04 1.709e-09
 31.33810      0.2 1.459e+04 2.875e-09
 31.35792      0.1 1.518e+04 4.161e-09
 31.36794     -0.6 1.577e+04 5.401e-09
 31.37818     -0.4 1.580e+04 5.426e-09
 31.39822     -0.2 1.554e+04 4.716e-09
 31.41826     -0.5 1.510e+04 3.258e-09
 31.43462     -1.9 1.438e+04 1.812e-09
 31.44464     -0.7 1.588e+04 3.631e-09
 31.45437     -2.6 1.490e+04 2.042e-09
 31.46439     -4.7 1.397e+04 1.416e-09
 31.47838     -7.5 1.224e+04 8.208e-10
 31.49842     -8.8 1.153e+04 7.139e-10
 31.51846     -9.1 1.165e+04 7.505e-10
 31.53849     -9.8 1.221e+04 8.854e-10
 31.55082    -11.3 1.324e+04 1.307e-09
 31.56084    -10.9 1.221e+04 9.755e-10
 31.57857    -12.3 1.306e+04 1.473e-09
 31.59861    -13.5 1.393e+04 2.364e-09
 31.61865    -14.0 1.478e+04 3.666e-09
 31.63725    -14.0 1.564e+04 5.238e-09
 31.64727    -13.9 1.483e+04 3.939e-09
 31.65873    -13.8 1.557e+04 4.855e-09
 31.67877    -14.0 1.629e+04 5.479e-09
 31.69418    -14.7 1.694e+04 6.007e-09
 31.70420    -15.4 1.783e+04 7.947e-09
 31.71885    -16.8 1.819e+04 8.980e-09
 31.73370    -18.2 1.855e+04 9.876e-09
 31.74372    -19.3 1.888e+04 8.606e-09
 31.75893    -20.7 1.909e+04 1.041e-08
 31.77897    -21.5 1.909e+04 1.296e-08
 31.79901    -21.2 1.902e+04 1.483e-08
 31.81905    -20.4 1.870e+04 1.419e-08
 31.83015    -19.5 1.830e+04 1.244e-08
 31.84017    -19.5 1.816e+04 1.161e-08
 31.85913    -19.0 1.765e+04 9.773e-09
 31.87917    -18.5 1.701e+04 8.002e-09
 31.89921    -18.1 1.642e+04 6.673e-09
 31.91658    -17.7 1.583e+04 5.569e-09
 31.92660    -17.8 1.543e+04 4.996e-09
 31.93929    -17.2 1.513e+04 4.597e-09
 31.95375    -16.4 1.482e+04 4.167e-09
 31.96377    -16.2 1.475e+04 4.147e-09
 31.97937    -15.2 1.440e+04 3.746e-09
 31.99941    -14.1 1.406e+04 3.335e-09
 32.01303    -13.0 1.378e+04 2.985e-09
 32.02305    -12.8 1.381e+04 3.046e-09
 32.03949    -11.8 1.361e+04 2.782e-09
 32.05953    -10.7 1.338e+04 2.518e-09
 32.07957     -9.5 1.319e+04 2.283e-09
 32.09945     -8.4 1.303e+04 2.082e-09
 32.10947     -8.3 1.317e+04 2.286e-09
 32.11964     -7.2 1.306e+04 2.150e-09
 32.13968     -6.1 1.308e+04 2.077e-09
 32.15972     -5.1 1.316e+04 2.066e-09
 32.17976     -4.1 1.328e+04 2.087e-09
 32.19590     -3.0 1.347e+04 2.140e-09
 32.20592     -2.8 1.354e+04 2.485e-09
 32.21331     -1.7 1.391e+04 2.723e-09
 32.22333     -1.6 1.363e+04 2.526e-09
 32.23988     -0.6 1.410e+04 2.842e-09
 32.25992     -0.3 1.472e+04 3.330e-09
 32.27996     -0.7 1.621e+04 4.576e-09
 32.29235     -2.0 1.833e+04 7.922e-09
 32.30237     -0.8 1.822e+04 9.332e-09
 32.31498     -2.1 1.952e+04 1.345e-08
 32.32495     -3.3 2.059e+04 1.784e-08
 32.33497     -4.2 2.131e+04 2.333e-08
 32.34048     -6.4 2.278e+04 3.084e-08
 32.34350     -6.8 2.369e+04 4.955e-08
 32.34801     -8.3 2.418e+04 5.676e-08
 32.35501    -12.0 2.435e+04 1.157e-07
 32.36503    -16.2 2.458e+04 1.632e-07
 32.37505    -21.1 2.505e+04 1.578e-07
 32.38370    -26.5 2.644e+04 1.133e-07
 32.38871    -26.5 2.563e+04 2.044e-07
 32.39509    -32.7 2.847e+04 7.574e-08
 32.40511    -39.4 2.636e+04 3.737e-08
 32.41513    -45.0 2.295e+04 2.328e-08
 32.42515    -47.9 2.141e+04 1.676e-08
 32.43192    -49.4 2.047e+04 1.287e-08
 32.43693    -52.1 1.852e+04 9.748e-09
 32.44519    -52.5 1.776e+04 7.933e-09
 32.45521    -53.2 1.693e+04 6.173e-09
 32.46523    -53.7 1.625e+04 5.155e-09
 32.47278    -54.1 1.567e+04 3.893e-09
 32.47772    -52.8 1.541e+04 3.717e-09
 32.48525    -53.1 1.510e+04 3.479e-09
 32.50040    -52.8 1.378e+04 2.272e-09
 32.52044    -52.8 1.272e+04 1.473e-09
 32.54048    -52.3 1.214e+04 1.082e-09
 32.56052    -51.6 1.152e+04 8.234e-10
 32.57168    -50.8 1.100e+04 6.836e-10
 32.58170    -51.2 1.056e+04 5.762e-10
 32.60060    -50.1 1.036e+04 5.114e-10
 32.62064    -49.0 1.013e+04 4.712e-10
 32.64068    -47.4 1.001e+04 4.496e-10
 32.65811    -45.8 1.001e+04 4.450e-10
 32.66813    -46.1 9.854e+03 4.050e-10
 32.69087    -44.1 9.800e+03 3.779e-10
 32.72262    -41.6 9.847e+03 3.683e-10
 32.74266    -41.5 9.827e+03 3.665e-10
 32.77113    -39.8 9.926e+03 3.829e-10
 32.80109    -38.9 1.003e+04 4.002e-10
 32.82103    -38.8 1.015e+04 4.244e-10
 32.84099    -39.2 1.045e+04 5.222e-10
 32.86103    -38.6 1.036e+04 5.019e-10
 32.88115    -38.5 1.069e+04 6.401e-10
 32.90119    -38.0 1.092e+04 7.614e-10
 32.92123    -37.4 1.115e+04 8.590e-10
 32.93744    -36.8 1.132e+04 9.242e-10
 32.94746    -35.9 1.106e+04 8.291e-10
 32.96131    -35.1 1.119e+04 8.783e-10
 32.98135    -34.4 1.127e+04 8.915e-10
 32.99201    -33.7 1.125e+04 8.676e-10
 33.00203    -33.2 1.130e+04 9.023e-10
 33.02143    -32.3 1.127e+04 8.666e-10
 33.03389    -31.6 1.122e+04 8.171e-10
 33.04391    -30.7 1.114e+04 8.062e-10
 33.06151    -30.1 1.107e+04 7.646e-10
 33.08155    -29.5 1.107e+04 7.656e-10
 33.10159    -29.3 1.118e+04 8.000e-10
 33.12032    -29.0 1.141e+04 8.826e-10
 33.13034    -27.8 1.115e+04 8.048e-10
 33.14167    -27.6 1.147e+04 9.291e-10
 33.15665    -27.4 1.202e+04 1.098e-09
 33.16662    -28.5 1.446e+04 1.245e-09
 33.17346    -34.2 2.378e+04 2.217e-09
 33.17847    -27.8 1.399e+04 1.385e-09
 33.18666    -32.8 2.260e+04 2.276e-09
 33.19668    -40.4 2.979e+04 8.557e-09
 33.20670    -45.4 2.817e+04 2.939e-08
 33.21667    -47.1 2.456e+04 6.963e-08
 33.22669    -47.0 2.367e+04 8.384e-08
 33.23676    -46.7 2.253e+04 1.089e-07
 33.24646    -46.4 2.217e+04 1.167e-07
 33.25147    -46.3 2.183e+04 1.248e-07
 33.25680    -45.9 2.274e+04 1.017e-07
 33.26490    -46.3 2.578e+04 5.725e-08
 33.26991    -45.8 2.305e+04 1.020e-07
 33.27684    -46.6 2.620e+04 5.652e-08
 33.28686    -47.9 2.991e+04 2.541e-08
 33.29688    -49.5 3.053e+04 1.240e-08
 33.30690    -52.6 2.858e+04 7.049e-09
 33.31317    -60.7 1.965e+04 3.807e-09
 33.31818    -52.1 2.689e+04 8.188e-09
 33.32693    -56.7 2.326e+04 5.494e-09
 33.34201    -61.0 1.893e+04 5.320e-09
 33.36210    -63.1 1.491e+04 4.808e-09
 33.38214    -62.9 1.616e+04 4.996e-09
 33.39965    -63.2 1.692e+04 5.208e-09
 33.40967    -63.3 1.732e+04 8.080e-09
 33.42222    -64.6 1.834e+04 9.711e-09
 33.44226    -66.5 1.929e+04 1.276e-08
 33.46230    -68.2 2.004e+04 1.865e-08
 33.47728    -69.3 2.021e+04 2.326e-08
 33.48725    -69.6 2.015e+04 2.628e-08
 33.49600    -69.8 2.033e+04 3.070e-08
 33.50101    -69.9 2.025e+04 3.107e-08
 33.50603    -70.2 2.048e+04 3.356e-08
 33.51104    -70.7 2.012e+04 2.655e-08
 33.51731    -71.3 2.018e+04 2.695e-08
 33.52733    -72.2 2.016e+04 2.568e-08
 33.53735    -73.3 2.019e+04 2.343e-08
 33.54422    -74.6 2.018e+04 2.104e-08
 33.54923    -74.8 1.985e+04 1.771e-08
 33.55739    -76.3 1.967e+04 1.583e-08
 33.56741    -77.9 1.926e+04 1.399e-08
 33.57743    -79.4 1.867e+04 1.219e-08
 33.58744    -80.5 1.806e+04 1.058e-08
 33.59746    -81.7 1.697e+04 8.052e-09
 33.60749    -82.4 1.636e+04 6.759e-09
 33.62257    -83.1 1.571e+04 5.322e-09
 33.64266    -84.7 1.477e+04 3.115e-09
 33.66270    -87.4 1.359e+04 1.777e-09
 33.67898    -90.6 1.227e+04 1.116e-09
 33.68900    -89.9 1.236e+04 1.100e-09
 33.70278    -92.2 1.140e+04 8.377e-10
 33.72282    -93.0 1.106e+04 7.467e-10
 33.74286    -93.0 1.101e+04 7.299e-10
 33.76068    -92.9 1.112e+04 7.793e-10
 33.77070    -93.1 1.130e+04 8.310e-10
 33.77543    -92.6 1.137e+04 8.948e-10
 33.78545    -92.5 1.104e+04 7.183e-10
 33.80297    -91.8 1.118e+04 7.895e-10
 33.82301    -90.9 1.136e+04 8.972e-10
 33.84305    -90.0 1.152e+04 1.014e-09
 33.86186    -88.9 1.162e+04 1.118e-09
 33.87188    -88.8 1.155e+04 9.802e-10
 33.88313    -87.6 1.174e+04 1.122e-09
 33.90317    -86.4 1.190e+04 1.269e-09
 33.92321    -85.2 1.203e+04 1.384e-09
 33.94325    -84.0 1.211e+04 1.479e-09
 33.95831    -82.7 1.225e+04 1.589e-09
 33.96833    -82.6 1.232e+04 1.594e-09
 33.98333    -81.4 1.247e+04 1.757e-09
 34.00337    -80.3 1.265e+04 1.931e-09
 34.02024    -79.0 1.278e+04 2.119e-09
 34.03026    -79.7 1.279e+04 2.133e-09
 34.04345    -78.4 1.281e+04 2.260e-09
 34.05475    -77.0 1.272e+04 2.215e-09
 34.06477    -77.0 1.315e+04 2.577e-09
 34.08353    -75.6 1.301e+04 2.518e-09
 34.10357    -74.0 1.275e+04 2.193e-09
 34.12361    -72.5 1.243e+04 1.728e-09
 34.14118    -71.1 1.211e+04 1.266e-09
 34.15120    -71.1 1.258e+04 1.789e-09
 34.16369    -69.9 1.225e+04 1.296e-09
 34.18373    -69.1 1.181e+04 8.752e-10
 34.20377    -68.5 1.127e+04 5.883e-10
 34.22381    -68.0 1.077e+04 4.301e-10
 34.23763    -67.4 1.038e+04 3.498e-10
 34.24765    -67.1 1.095e+04 4.900e-10
 34.26389    -66.2 1.064e+04 4.204e-10
 34.27981    -65.1 1.044e+04 3.831e-10
 34.28983    -65.5 1.032e+04 3.466e-10
 34.30396    -64.4 1.027e+04 3.412e-10
 34.32416    -62.5 1.022e+04 3.289e-10
 34.34420    -61.8 1.053e+04 4.445e-10
 34.36408    -60.6 1.056e+04 4.694e-10
 34.38412    -59.4 1.055e+04 4.963e-10
 34.40416    -58.0 1.069e+04 5.547e-10
 34.42051    -56.8 1.080e+04 5.954e-10
 34.43053    -56.8 1.104e+04 6.999e-10
 34.44424    -55.8 1.118e+04 7.520e-10
 34.46428    -54.9 1.136e+04 8.250e-10
 34.48432    -54.1 1.154e+04 9.165e-10
 34.50436    -53.4 1.163e+04 9.979e-10
 34.51696    -52.4 1.182e+04 1.087e-09
 34.52698    -52.6 1.196e+04 1.324e-09
 34.53937    -51.7 1.209e+04 1.427e-09
 34.54939    -52.3 1.191e+04 1.285e-09
 34.56448    -51.3 1.220e+04 1.397e-09
 34.58452    -50.7 1.243e+04 1.453e-09
 34.60339    -50.5 1.273e+04 1.503e-09
 34.61341    -50.1 1.271e+04 1.611e-09
 34.62460    -50.6 1.327e+04 1.735e-09
 34.64464    -52.4 1.419e+04 2.160e-09
 34.66468    -54.4 1.496e+04 2.881e-09
 34.68472    -56.0 1.531e+04 3.783e-09
 34.69984    -57.0 1.543e+04 4.454e-09
 34.70986    -56.2 1.554e+04 4.072e-09
 34.72480    -57.5 1.565e+04 4.263e-09
 34.74484    -59.3 1.541e+04 3.629e-09
 34.76488    -61.2 1.495e+04 2.717e-09
 34.78492    -63.9 1.337e+04 1.732e-09
 34.79629    -65.8 1.227e+04 1.260e-09
 34.80029    -66.3 1.235e+04 1.259e-09
 34.80896    -66.7 1.199e+04 1.065e-09
 34.82500    -67.0 1.178e+04 9.437e-10
 34.84504    -67.0 1.160e+04 8.105e-10
 34.86507    -67.2 1.136e+04 6.742e-10
 34.88272    -67.4 1.106e+04 5.619e-10
 34.89274    -67.5 1.110e+04 5.683e-10
 34.90515    -67.5 1.073e+04 4.684e-10
 34.92519    -67.6 1.055e+04 4.055e-10
 34.94523    -68.1 1.055e+04 3.849e-10
 34.96527    -69.3 1.072e+04 3.862e-10
 34.97917    -71.3 1.108e+04 4.374e-10
 34.98919    -72.9 1.170e+04 5.158e-10
 35.00535    -73.7 1.180e+04 7.158e-10
 35.02539    -73.8 1.197e+04 9.533e-10
 35.04543    -73.6 1.219e+04 1.108e-09
 35.05850    -73.4 1.231e+04 1.151e-09
 35.06852    -73.2 1.232e+04 1.147e-09
 35.07562    -73.3 1.234e+04 1.130e-09
 35.08564    -74.1 1.319e+04 1.586e-09
 35.10555    -74.7 1.302e+04 1.435e-09
 35.12559    -75.5 1.276e+04 1.297e-09
 35.14563    -76.4 1.246e+04 1.195e-09
 35.16205    -77.0 1.216e+04 1.110e-09
 35.17207    -77.1 1.257e+04 1.343e-09
 35.18571    -77.6 1.217e+04 1.170e-09
 35.20575    -77.9 1.181e+04 1.012e-09
 35.22579    -78.2 1.146e+04 8.557e-10
 35.24583    -78.4 1.116e+04 7.070e-10
 35.25850    -78.9 1.089e+04 5.700e-10
 35.26852    -79.3 1.093e+04 6.183e-10
 35.28591    -80.0 1.076e+04 5.132e-10
 35.30595    -81.3 1.062e+04 4.368e-10
 35.31816    -83.1 1.059e+04 4.092e-10
 35.33830    -82.8 1.057e+04 4.272e-10
 35.37628    -85.2 1.088e+04 4.538e-10
 35.41636    -88.6 1.169e+04 7.005e-10
 35.44148    -90.4 1.228e+04 9.524e-10
 35.45140    -91.6 1.188e+04 7.968e-10
 35.46626    -94.1 1.209e+04 8.878e-10
 35.48630    -96.7 1.222e+04 1.006e-09
 35.50634    -98.9 1.244e+04 1.182e-09
 35.52638   -101.0 1.271e+04 1.393e-09
 35.53783   -103.1 1.308e+04 1.624e-09
 35.54785   -104.5 1.278e+04 1.404e-09
 35.56646   -107.4 1.329e+04 1.635e-09
 35.57763   -110.9 1.381e+04 1.903e-09
 35.58765   -110.9 1.392e+04 2.004e-09
 35.60654   -114.4 1.437e+04 2.398e-09
 35.62426   -117.6 1.468e+04 2.786e-09
 35.63428   -118.8 1.425e+04 2.410e-09
 35.64662   -121.6 1.433e+04 2.507e-09
 35.66666   -124.6 1.429e+04 2.457e-09
 35.68670   -127.7 1.392e+04 2.024e-09
 35.70674   -131.5 1.335e+04 1.552e-09
 35.72071   -135.3 1.269e+04 1.274e-09
 35.73073   -135.9 1.229e+04 1.104e-09
 35.74682   -138.7 1.192e+04 1.025e-09
 35.76686   -140.6 1.167e+04 9.760e-10
 35.78690   -141.7 1.139e+04 8.865e-10
 35.80694   -142.5 1.106e+04 7.306e-10
 35.81716   -143.4 1.073e+04 5.378e-10
 35.82718   -143.1 1.062e+04 5.282e-10
 35.83719   -143.8 1.036e+04 3.865e-10
 35.85733   -142.5 1.027e+04 3.625e-10
 35.89731   -144.2 9.894e+03 2.849e-10
 35.93739   -145.4 9.617e+03 2.468e-10
 35.97747   -145.6 9.558e+03 2.412e-10
 36.00023   -145.3 9.635e+03 2.499e-10
 36.02027   -144.0 9.702e+03 2.593e-10
 36.05763   -143.5 9.863e+03 2.925e-10
 36.08656   -144.2 1.012e+04 3.519e-10
 36.09573   -143.0 1.006e+04 3.468e-10
 36.09676   -142.0 9.957e+03 3.170e-10
 36.10753   -142.6 1.015e+04 3.517e-10
 36.12757   -143.4 1.050e+04 4.501e-10
 36.14761   -145.0 1.098e+04 6.058e-10
 36.16765   -146.1 1.150e+04 8.267e-10
 36.18291   -146.6 1.194e+04 1.067e-09
 36.19293   -145.1 1.170e+04 9.478e-10
 36.20773   -145.5 1.204e+04 1.169e-09
 36.22777   -145.7 1.202e+04 1.301e-09
 36.24781   -145.8 1.194e+04 1.335e-09
 36.26785   -146.1 1.190e+04 1.345e-09
 36.27936   -148.4 1.419e+04 1.353e-09
 36.28938   -144.7 1.189e+04 1.273e-09
 36.30793   -147.3 1.454e+04 1.307e-09
 36.32797   -152.1 1.928e+04 1.681e-09
 36.34295   -153.2 1.994e+04 1.919e-09
 36.35121   -153.7 2.061e+04 2.148e-09
 36.35627   -151.6 1.931e+04 1.662e-09
 36.36299   -153.5 2.042e+04 2.329e-09
 36.37070   -154.7 2.141e+04 3.205e-09
 36.37576   -150.4 1.914e+04 1.861e-09
 36.38303   -154.2 2.089e+04 3.447e-09
 36.39300   -155.7 2.123e+04 5.904e-09
 36.40302   -157.1 2.095e+04 1.069e-08
 36.41304   -157.8 2.094e+04 1.607e-08
 36.41893   -158.3 2.144e+04 2.032e-08
 36.42394   -156.8 2.112e+04 1.642e-08
 36.43308   -157.5 2.182e+04 2.028e-08
 36.44310   -158.5 2.317e+04 2.260e-08
 36.45312   -159.9 2.506e+04 2.404e-08
 36.46214   -161.7 2.704e+04 2.506e-08
 36.46715   -159.3 2.536e+04 2.461e-08
 36.47316   -161.4 2.729e+04 2.576e-08
 36.48100   -163.6 2.866e+04 2.558e-08
 36.48601   -161.5 2.801e+04 2.537e-08
 36.49320   -164.0 2.905e+04 2.555e-08
 36.50322   -167.2 2.915e+04 2.476e-08
 36.51037   -170.5 2.764e+04 2.249e-08
 36.51538   -167.2 2.882e+04 2.413e-08
 36.52326   -170.7 2.733e+04 2.175e-08
 36.53328   -173.6 2.490e+04 1.971e-08
 36.54330   -175.6 2.286e+04 1.847e-08
 36.55332   -177.6 2.136e+04 1.658e-08
 36.55864   -180.2 1.959e+04 1.404e-08
 36.56365   -176.0 2.193e+04 1.690e-08
 36.57336   -177.4 2.079e+04 1.563e-08
 36.58843   -179.2 1.927e+04 1.273e-08
 36.60587   -180.8 1.830e+04 8.995e-09
 36.61589   -178.7 1.912e+04 1.260e-08
 36.62856   -180.2 1.804e+04 8.641e-09
 36.64512   -181.7 1.699e+04 5.565e-09
 36.65514   -178.9 1.767e+04 7.830e-09
 36.66864   -180.3 1.677e+04 5.296e-09
 36.68868   -181.9 1.556e+04 3.607e-09
 36.70872   -183.4 1.435e+04 2.664e-09
 36.72876   -184.7 1.381e+04 2.269e-09
 36.74157   -185.8 1.371e+04 2.159e-09
 36.75159   -183.3 1.342e+04 2.023e-09
 36.76884   -184.3 1.309e+04 1.809e-09
 36.78888   -185.0 1.298e+04 1.718e-09
 36.80892   -185.4 1.289e+04 1.645e-09
 36.82800   -185.6 1.266e+04 1.540e-09
 36.83802   -184.6 1.236e+04 1.438e-09
 36.84900   -184.6 1.221e+04 1.386e-09
 36.86543   -184.4 1.197e+04 1.297e-09
 36.87545   -182.9 1.246e+04 1.509e-09
 36.88908   -182.6 1.218e+04 1.395e-09
 36.90912   -182.3 1.188e+04 1.262e-09
 36.92445   -181.8 1.165e+04 1.129e-09
 36.93447   -178.9 1.197e+04 1.230e-09
 36.94920   -178.2 1.195e+04 1.225e-09
 36.97935   -177.5 1.194e+04 1.217e-09
 37.01953   -177.0 1.144e+04 1.007e-09
 37.05961   -176.9 1.102e+04 7.873e-10
 37.09750   -177.2 1.064e+04 6.246e-10
 37.11754   -174.5 1.189e+04 1.143e-09
 37.13977   -175.1 1.147e+04 9.565e-10
 37.17985   -175.5 1.100e+04 7.652e-10
 37.21993   -175.7 1.057e+04 5.946e-10
 37.26001   -175.7 1.020e+04 4.572e-10
 37.29040   -175.6 9.898e+03 3.530e-10
 37.31035   -174.2 1.010e+04 3.720e-10
 37.34007   -174.2 1.004e+04 3.348e-10
 37.37473   -174.1 9.798e+03 2.683e-10
 37.39477   -172.6 9.859e+03 2.732e-10
 37.42032   -172.5 9.650e+03 2.274e-10
 37.46040   -171.7 9.487e+03 1.983e-10
 37.48330   -170.4 9.435e+03 1.859e-10
 37.50334   -169.8 9.695e+03 2.383e-10
 37.53044   -169.2 9.595e+03 2.233e-10
 37.55039   -168.6 9.645e+03 2.259e-10
 37.56954   -168.2 9.697e+03 2.301e-10
 37.57956   -168.6 9.967e+03 2.786e-10
 37.59047   -169.0 1.032e+04 2.972e-10
 37.61051   -173.8 1.332e+04 3.731e-10
 37.63054   -180.9 1.837e+04 1.426e-09
 37.64412   -185.0 1.982e+04 5.678e-09
 37.65414   -184.3 1.994e+04 3.683e-09
 37.66599   -186.3 2.058e+04 1.168e-08
 37.67596   -188.5 2.086e+04 2.699e-08
 37.68556   -188.8 2.084e+04 3.125e-08
 37.69558   -189.1 2.079e+04 3.214e-08
 37.70560   -189.3 2.055e+04 3.121e-08
 37.71411   -189.7 2.038e+04 2.248e-08
 37.71912   -190.9 2.015e+04 1.745e-08
 37.72564   -194.0 1.942e+04 8.486e-09
 37.73566   -197.7 1.752e+04 4.016e-09
 37.74568   -200.9 1.537e+04 2.377e-09
 37.75569   -202.7 1.439e+04 1.832e-09
 37.76239   -204.7 1.356e+04 1.362e-09
 37.77246   -208.5 1.194e+04 7.668e-10
 37.79086   -211.9 1.026e+04 3.884e-10
 37.81090   -213.4 9.783e+03 2.871e-10
 37.83094   -214.0 9.699e+03 2.690e-10
 37.84896   -214.4 9.768e+03 2.682e-10
 37.86910   -215.7 9.406e+03 1.989e-10
 37.89386   -217.3 9.290e+03 1.834e-10
 37.91390   -217.7 9.412e+03 2.098e-10
 37.94135   -218.9 9.372e+03 2.091e-10
 37.98143   -219.5 9.337e+03 2.135e-10
 38.02151   -219.8 9.356e+03 2.209e-10
 38.04196   -219.9 9.358e+03 2.236e-10
 38.06200   -220.5 9.227e+03 2.080e-10
 38.10167   -219.9 9.165e+03 2.074e-10
 38.14175   -219.1 9.103e+03 1.983e-10
 38.18183   -218.2 9.042e+03 1.828e-10
 38.21482   -217.1 8.951e+03 1.655e-10
 38.23486   -217.2 8.827e+03 1.440e-10
 38.26199   -216.0 8.717e+03 1.282e-10
 38.30207   -214.7 8.621e+03 1.152e-10
 38.34215   -213.2 8.540e+03 1.044e-10
 38.38223   -211.6 8.468e+03 9.529e-11
 38.40772   -209.9 8.408e+03 8.747e-11
 38.41844   -209.8 8.671e+03 8.876e-11
 38.43303   -210.7 9.068e+03 1.431e-10
 38.46239   -208.7 8.967e+03 1.311e-10
 38.50246   -206.5 8.905e+03 1.239e-10
 38.54254   -204.2 8.888e+03 1.221e-10
 38.58058   -201.8 8.884e+03 1.220e-10
 38.60062   -202.0 9.079e+03 1.842e-10
 38.62270   -199.6 9.096e+03 1.885e-10
 38.66278   -197.3 9.243e+03 2.117e-10
 38.70286   -195.1 9.427e+03 2.458e-10
 38.74294   -193.0 9.595e+03 2.874e-10
 38.77348   -190.9 9.742e+03 3.299e-10
 38.79352   -190.8 9.953e+03 4.083e-10
 38.82310   -188.8 1.009e+04 4.537e-10
 38.86318   -186.8 1.020e+04 4.914e-10
 38.90326   -184.7 1.026e+04 5.157e-10
 38.93212   -182.7 1.029e+04 5.273e-10
 38.95216   -183.0 1.104e+04 9.463e-10
 38.96637   -181.0 1.103e+04 9.457e-10
 38.98641   -181.2 1.122e+04 1.016e-09
 39.02349   -179.1 1.112e+04 9.661e-10
 39.06357   -177.1 1.102e+04 9.091e-10
 39.10365   -175.2 1.095e+04 8.646e-10
 39.13923   -173.4 1.093e+04 8.318e-10
 39.15927   -173.6 1.101e+04 8.736e-10
 39.18381   -172.0 1.104e+04 8.672e-10
 39.22389   -170.4 1.105e+04 8.491e-10
 39.26397   -169.0 1.106e+04 8.241e-10
 39.30405   -167.7 1.109e+04 8.123e-10
 39.33213   -166.6 1.116e+04 8.092e-10
 39.35217   -167.0 1.129e+04 8.172e-10
 39.38421   -166.3 1.152e+04 8.679e-10
 39.42429   -165.6 1.188e+04 9.496e-10
 39.45125   -164.9 1.240e+04 1.087e-09
 39.47129   -164.9 1.078e+04 6.035e-10
 39.50445   -163.9 1.093e+04 6.355e-10
 39.52503   -162.9 1.106e+04 6.509e-10
 39.54507   -164.1 1.094e+04 5.546e-10
 39.58460   -163.1 1.125e+04 6.157e-10
 39.62468   -162.2 1.169e+04 7.246e-10
 39.66476   -161.4 1.233e+04 9.522e-10
 39.69473   -161.5 1.325e+04 1.835e-09
 39.70772   -160.7 1.371e+04 2.422e-09
 39.71369   -161.3 1.360e+04 2.557e-09
 39.72064   -161.3 1.286e+04 1.493e-09
 39.73471   -160.9 1.323e+04 1.820e-09
 39.75475   -160.5 1.354e+04 2.220e-09
 39.77479   -160.0 1.378e+04 2.731e-09
 39.79414   -159.4 1.392e+04 3.225e-09
 39.80416   -159.9 1.357e+04 2.596e-09
 39.81487   -159.4 1.358e+04 2.726e-09
 39.83490   -158.7 1.356e+04 2.733e-09
 39.85494   -158.0 1.339e+04 2.516e-09
 39.87498   -157.5 1.313e+04 2.009e-09
 39.89059   -157.0 1.273e+04 1.501e-09
 39.90061   -158.1 1.182e+04 8.515e-10
 39.91506   -157.8 1.139e+04 5.967e-10
 39.93510   -157.7 1.098e+04 4.129e-10
 39.95514   -157.6 1.063e+04 2.912e-10
 39.97018   -157.4 1.036e+04 2.204e-10
 39.99032   -156.9 1.016e+04 1.899e-10
 40.02548   -156.4 1.000e+04 1.463e-10
 40.06365   -155.6 9.852e+03 1.195e-10
 40.08369   -155.9 9.402e+03 7.062e-11
 40.10564   -154.9 9.414e+03 6.931e-11
 40.14571   -154.0 9.630e+03 7.409e-11
 40.18579   -153.4 9.903e+03 1.109e-10
 40.22587   -152.6 1.008e+04 1.753e-10
 40.25655   -151.7 1.022e+04 2.446e-10
 40.27659   -152.1 1.016e+04 2.289e-10
 40.30603   -151.3 1.018e+04 2.511e-10
 40.34611   -150.5 1.017e+04 2.535e-10
 40.38619   -149.5 9.984e+03 2.295e-10
 40.42627   -148.3 9.758e+03 1.780e-10
 40.44945   -147.2 9.567e+03 1.339e-10
 40.46949   -147.8 9.500e+03 1.176e-10
 40.48951   -146.9 9.432e+03 9.690e-11
 40.50955   -147.2 9.388e+03 9.373e-11
 40.54651   -146.3 9.392e+03 8.711e-11
 40.58659   -145.7 9.401e+03 8.620e-11
 40.62231   -145.7 9.465e+03 8.798e-11
 40.64235   -146.2 9.601e+03 9.120e-11
 40.66675   -146.6 9.854e+03 1.232e-10
 40.70682   -147.3 1.020e+04 1.926e-10
 40.74690   -148.5 1.055e+04 2.724e-10
 40.78698   -150.1 1.077e+04 3.164e-10
 40.81520   -152.0 1.081e+04 3.245e-10
 40.83524   -152.7 1.080e+04 3.194e-10
 40.86714   -154.3 1.070e+04 3.033e-10
 40.90722   -155.5 1.050e+04 2.508e-10
 40.94730   -156.7 1.034e+04 2.061e-10
 40.98738   -157.6 1.023e+04 1.784e-10
 41.00810   -158.4 1.014e+04 1.644e-10
 41.00932   -157.7 1.004e+04 1.386e-10
 41.02867   -157.5 1.005e+04 1.373e-10
 41.06754   -158.0 1.003e+04 1.277e-10
 41.10762   -158.4 1.003e+04 1.262e-10
 41.14770   -158.7 1.004e+04 1.334e-10
 41.18096   -158.9 1.002e+04 1.546e-10
 41.20100   -157.7 1.003e+04 1.252e-10
 41.22786   -157.7 1.006e+04 1.557e-10
 41.26793   -157.6 1.008e+04 1.731e-10
 41.30801   -157.4 1.009e+04 1.756e-10
 41.34809   -157.0 1.003e+04 1.659e-10
 41.37386   -156.5 9.975e+03 1.484e-10
 41.39390   -155.7 1.013e+04 1.875e-10
 41.42825   -155.2 1.013e+04 1.787e-10
 41.46833   -154.8 1.014e+04 1.776e-10
 41.50772   -154.7 1.032e+04 1.872e-10
 41.52776   -155.5 1.026e+04 1.772e-10
 41.54672   -155.4 1.036e+04 2.123e-10
 41.56676   -154.4 1.042e+04 2.607e-10
 41.58857   -154.2 1.054e+04 2.894e-10
 41.62865   -154.3 1.067e+04 3.235e-10
 41.66873   -154.6 1.079e+04 3.671e-10
 41.70881   -155.1 1.090e+04 4.174e-10
 41.73962   -155.8 1.098e+04 4.671e-10
 41.75966   -154.2 1.101e+04 4.887e-10
 41.78896   -155.1 1.105e+04 5.440e-10
 41.82904   -156.0 1.106e+04 5.902e-10
 41.86912   -156.7 1.107e+04 6.403e-10
 41.90920   -157.0 1.110e+04 7.008e-10
 41.93252   -157.0 1.110e+04 7.506e-10
 41.95256   -155.0 1.106e+04 6.713e-10
 41.98936   -154.6 1.085e+04 6.836e-10
 42.02685   -154.1 1.064e+04 6.326e-10
 42.04689   -153.4 1.031e+04 4.889e-10
 42.06952   -152.8 1.008e+04 4.744e-10
 42.10538   -151.5 9.666e+03 3.866e-10
 42.12542   -149.7 9.737e+03 3.677e-10
 42.14968   -148.3 9.473e+03 3.113e-10
 42.18976   -146.9 9.224e+03 2.605e-10
 42.22984   -145.2 9.006e+03 2.130e-10
 42.26992   -143.4 8.799e+03 1.670e-10
 42.29828   -141.6 8.613e+03 1.255e-10
 42.31832   -140.2 8.750e+03 1.837e-10
 42.35007   -138.3 8.574e+03 1.452e-10
 42.39015   -136.6 8.405e+03 1.147e-10
 42.43023   -134.8 8.283e+03 9.605e-11
 42.47031   -133.1 8.240e+03 8.864e-11
 42.49118   -131.4 8.233e+03 8.733e-11
 42.51122   -130.2 8.425e+03 1.308e-10
 42.54598   -128.7 8.431e+03 1.300e-10
 42.56602   -128.2 8.454e+03 1.287e-10
 42.59055   -126.9 8.479e+03 1.347e-10
 42.63063   -125.6 8.608e+03 1.715e-10
 42.66404   -124.2 8.771e+03 2.300e-10
 42.68407   -123.1 8.857e+03 2.563e-10
 42.71079   -121.6 8.925e+03 2.937e-10
 42.75087   -119.9 8.985e+03 3.268e-10
 42.79095   -118.1 9.047e+03 3.554e-10
 42.83103   -116.1 9.113e+03 3.787e-10
 42.85693   -113.9 9.168e+03 3.921e-10
 42.87697   -113.5 9.107e+03 3.500e-10
 42.91118   -111.3 9.133e+03 3.542e-10
 42.95126   -108.9 9.161e+03 3.577e-10
 42.99134   -106.4 9.228e+03 3.670e-10
 43.02979   -103.9 9.387e+03 4.072e-10
 43.04983   -103.3 8.903e+03 3.298e-10
 43.06511   -100.4 8.959e+03 3.360e-10
 43.08515   -100.3 9.778e+03 5.584e-10
 43.11158    -97.6 1.033e+04 7.210e-10
 43.15166    -95.0 1.104e+04 9.951e-10
 43.19174    -92.4 1.182e+04 1.435e-09
 43.22170    -89.8 1.155e+04 1.241e-09
 43.23252    -88.5 1.193e+04 1.578e-09
 43.24263    -87.8 1.116e+04 7.432e-10
 43.26178    -85.9 1.174e+04 1.035e-09
 43.28172    -84.4 1.207e+04 1.335e-09
 43.30176    -83.0 1.245e+04 1.810e-09
 43.31895    -81.9 1.302e+04 2.466e-09
 43.32897    -80.0 1.251e+04 1.109e-09
 43.33450    -79.5 1.347e+04 1.689e-09
 43.34452    -80.0 1.446e+04 2.612e-09
 43.36188    -80.0 1.569e+04 4.251e-09
 43.38192    -80.7 1.711e+04 7.434e-09
 43.40196    -81.1 1.858e+04 1.325e-08
 43.41535    -81.1 1.956e+04 2.039e-08
 43.42031    -80.6 1.973e+04 2.039e-08
 43.42691    -80.3 2.041e+04 3.250e-08
 43.43693    -79.7 2.096e+04 5.027e-08
 43.44695    -79.3 2.172e+04 6.696e-08
 43.45697    -79.6 2.254e+04 7.349e-08
 43.46352    -81.7 2.292e+04 7.364e-08
 43.46572    -80.0 2.373e+04 1.366e-07
 43.46919    -80.1 2.345e+04 1.460e-07
 43.47701    -83.3 2.434e+04 1.344e-07
 43.48703    -89.1 2.772e+04 8.674e-08
 43.49705    -98.1 2.972e+04 4.833e-08
 43.50674   -108.9 2.793e+04 2.819e-08
 43.51175   -107.0 3.006e+04 7.327e-08
 43.51709   -120.6 2.651e+04 2.805e-08
 43.52711   -129.3 2.167e+04 1.669e-08
 43.53713   -133.3 2.007e+04 1.292e-08
 43.54715   -136.0 1.929e+04 9.331e-09
 43.55496   -138.8 1.774e+04 6.279e-09
 43.55997   -141.4 1.720e+04 5.728e-09
 43.56719   -142.3 1.567e+04 4.219e-09
 43.58227   -142.5 1.492e+04 3.408e-09
 43.59406   -143.3 1.365e+04 2.154e-09
 43.60000   -143.7 1.358e+04 2.083e-09
 43.60829   -146.1 1.283e+04 1.558e-09
 43.62240   -146.7 1.110e+04 8.266e-10
 43.64244   -148.2 9.953e+03 5.260e-10
 43.66248   -149.1 9.438e+03 4.125e-10
 43.68252   -149.4 9.228e+03 3.784e-10
 43.69472   -149.6 9.175e+03 3.718e-10
 43.70474   -149.5 9.232e+03 3.860e-10
 43.72259   -149.6 9.222e+03 3.959e-10
 43.74263   -150.2 9.418e+03 4.667e-10
 43.76267   -150.8 9.731e+03 5.735e-10
 43.78115   -151.3 1.002e+04 6.818e-10
 43.79117   -150.7 1.009e+04 6.803e-10
 43.80275   -151.3 1.034e+04 7.808e-10
 43.82279   -152.0 1.049e+04 8.403e-10
 43.84283   -152.9 1.053e+04 8.533e-10
 43.85363   -153.9 1.051e+04 8.462e-10
 43.86365   -153.9 1.055e+04 8.089e-10
 43.87760   -154.8 1.032e+04 7.123e-10
 43.88762   -154.7 1.043e+04 7.287e-10
 43.90295   -155.6 1.012e+04 6.345e-10
 43.92299   -156.4 9.842e+03 5.685e-10
 43.94303   -157.0 9.637e+03 5.337e-10
 43.96307   -157.3 9.521e+03 5.224e-10
 43.97405   -157.5 9.470e+03 5.200e-10
 43.98407   -157.3 9.471e+03 5.205e-10
 44.00315   -157.3 9.446e+03 5.214e-10
 44.02319   -157.3 9.391e+03 5.246e-10
 44.04323   -157.2 9.328e+03 5.161e-10
 44.06048   -157.1 9.253e+03 4.901e-10
 44.07050   -157.0 9.473e+03 5.357e-10
 44.08331   -157.0 9.330e+03 4.961e-10
 44.10317   -157.0 9.147e+03 4.482e-10
 44.11319   -156.0 9.504e+03 5.413e-10
 44.12339   -156.0 9.326e+03 4.944e-10
 44.14343   -156.1 9.183e+03 4.567e-10
 44.15693   -156.2 9.147e+03 4.424e-10
 44.16695   -156.6 9.648e+03 5.359e-10
 44.18351   -159.0 1.008e+04 5.525e-10
 44.20355   -163.0 1.207e+04 8.602e-10
 44.22359   -166.3 1.371e+04 1.726e-09
 44.24336   -168.2 1.459e+04 3.024e-09
 44.25338   -169.3 1.570e+04 4.987e-09
 44.26366   -170.1 1.577e+04 5.604e-09
 44.28370   -170.8 1.569e+04 5.663e-09
 44.30374   -171.2 1.493e+04 4.662e-09
 44.32378   -171.7 1.379e+04 2.815e-09
 44.33981   -173.0 1.233e+04 1.436e-09
 44.34983   -174.2 1.163e+04 1.113e-09
 44.36273   -176.5 9.904e+03 5.531e-10
 44.37275   -175.8 1.007e+04 5.711e-10
 44.38390   -177.9 8.903e+03 3.106e-10
 44.40394   -178.5 8.570e+03 2.426e-10
 44.43410   -178.7 8.467e+03 2.181e-10
 44.47428   -177.9 8.295e+03 1.813e-10
 44.51287   -176.2 8.075e+03 1.450e-10
 44.53291   -176.9 8.302e+03 1.678e-10
 44.55443   -174.9 8.299e+03 1.527e-10
 44.59451   -172.9 8.447e+03 1.514e-10
 44.62249   -171.5 9.443e+03 1.624e-10
 44.64253   -171.9 1.032e+04 2.101e-10
 44.67467   -170.7 1.088e+04 3.228e-10
 44.70576   -169.2 1.114e+04 5.399e-10
 44.72571   -170.4 1.143e+04 1.403e-09
 44.74462   -169.0 1.167e+04 1.572e-09
 44.76466   -167.6 1.194e+04 1.744e-09
 44.78470   -166.3 1.220e+04 1.907e-09
 44.80202   -165.1 1.236e+04 1.989e-09
 44.81204   -165.3 1.179e+04 1.417e-09
 44.82477   -164.4 1.166e+04 1.215e-09
 44.84481   -163.5 1.145e+04 1.012e-09
 44.86485   -163.0 1.114e+04 8.300e-10
 44.88186   -162.6 1.076e+04 6.838e-10
 44.89188   -162.3 1.067e+04 6.145e-10
 44.89847   -162.0 1.028e+04 5.163e-10
 44.90849   -164.0 9.340e+03 2.342e-10
 44.92497   -163.3 9.324e+03 2.384e-10
 44.94501   -162.6 9.404e+03 2.557e-10
 44.96505   -162.0 9.534e+03 2.848e-10
 44.98490   -161.3 9.691e+03 3.230e-10
 44.99492   -162.5 9.472e+03 2.830e-10
 45.00513   -161.7 9.651e+03 3.332e-10
 45.02517   -160.8 9.914e+03 4.084e-10
 45.04521   -160.0 1.012e+04 4.787e-10
 45.06525   -159.1 1.040e+04 5.765e-10
 45.08135   -158.4 1.063e+04 6.589e-10
 45.09146   -159.9 1.019e+04 5.540e-10
 45.11554   -158.4 1.044e+04 6.018e-10
 45.14162   -157.2 1.066e+04 6.100e-10
 45.16166   -158.4 1.069e+04 6.491e-10
 45.19570   -158.2 1.116e+04 6.528e-10
 45.23578   -158.6 1.201e+04 6.510e-10
 45.26432   -159.8 1.300e+04 6.829e-10
 45.27425   -163.2 1.344e+04 1.250e-09
 45.28569   -163.6 1.353e+04 1.747e-09
 45.30573   -163.5 1.361e+04 2.226e-09
 45.32577   -163.1 1.371e+04 2.606e-09
 45.34581   -162.6 1.382e+04 2.840e-09
 45.36068   -162.2 1.401e+04 2.975e-09
 45.37070   -165.0 1.481e+04 3.119e-09
 45.38588   -166.1 1.540e+04 3.173e-09
 45.40099   -168.4 1.680e+04 3.515e-09
 45.41101   -172.6 1.808e+04 4.586e-09
 45.42596   -174.9 1.895e+04 7.583e-09
 45.44600   -176.3 1.994e+04 1.282e-08
 45.45713   -177.5 2.083e+04 2.031e-08
 45.46715   -180.8 1.981e+04 1.729e-08
 45.48608   -181.7 1.996e+04 1.863e-08
 45.50612   -183.5 1.975e+04 1.803e-08
 45.52110   -185.1 1.870e+04 1.356e-08
 45.53068   -185.6 1.837e+04 1.243e-08
 45.53569   -186.2 1.831e+04 1.245e-08
 45.54109   -186.9 1.772e+04 1.055e-08
 45.54847   -187.3 1.734e+04 9.530e-09
 45.55353   -188.1 1.687e+04 7.976e-09
 45.56624   -188.9 1.609e+04 6.301e-09
 45.58122   -189.2 1.576e+04 5.525e-09
 45.59119   -189.3 1.557e+04 5.194e-09
 45.60627   -189.5 1.540e+04 4.843e-09
 45.62636   -190.0 1.529e+04 4.408e-09
 45.64000   -190.7 1.533e+04 4.065e-09
 45.65002   -191.8 1.526e+04 4.088e-09
 45.66056   -192.6 1.585e+04 4.565e-09
 45.67058   -195.0 1.622e+04 4.524e-09
 45.68648   -196.1 1.700e+04 5.523e-09
 45.70652   -197.4 1.790e+04 6.909e-09
 45.72643   -199.0 1.889e+04 9.085e-09
 45.73645   -199.6 1.998e+04 1.410e-08
 45.74154   -200.7 2.058e+04 1.748e-08
 45.75151   -201.7 2.087e+04 2.146e-08
 45.76153   -202.6 2.113e+04 2.799e-08
 45.77155   -203.5 2.149e+04 4.152e-08
 45.77957   -204.2 2.187e+04 6.217e-08
 45.78458   -204.5 2.186e+04 6.663e-08
 45.79024   -205.8 2.210e+04 8.547e-08
 45.79525   -205.8 2.161e+04 3.529e-08
 45.80161   -207.4 2.161e+04 3.644e-08
 45.81163   -208.9 2.147e+04 3.638e-08
 45.82165   -210.1 2.099e+04 3.299e-08
 45.82780   -210.8 2.033e+04 2.750e-08
 45.83281   -210.7 1.974e+04 2.717e-08
 45.84169   -211.0 1.906e+04 2.118e-08
 45.85171   -211.1 1.834e+04 1.638e-08
 45.86173   -211.1 1.761e+04 1.262e-08
 45.87101   -211.3 1.687e+04 9.650e-09
 45.87602   -211.1 1.670e+04 9.272e-09
 45.88177   -211.5 1.597e+04 7.049e-09
 45.89179   -211.9 1.531e+04 5.634e-09
 45.90687   -212.3 1.481e+04 4.691e-09
 45.91933   -212.3 1.397e+04 3.367e-09
 45.92252   -211.4 1.371e+04 3.057e-09
 45.93014   -211.2 1.352e+04 3.124e-09
 45.94699   -210.6 1.249e+04 2.040e-09
 45.96703   -210.4 1.169e+04 1.387e-09
 45.98707   -210.6 1.115e+04 1.018e-09
 46.00576   -210.8 1.079e+04 8.313e-10
 46.01578   -210.2 1.069e+04 7.632e-10
 46.02715   -210.3 1.046e+04 6.909e-10
 46.04719   -210.3 1.036e+04 6.720e-10
 46.06723   -210.2 1.034e+04 6.690e-10
 46.08727   -210.2 1.033e+04 6.775e-10
 46.10221   -210.2 1.038e+04 7.049e-10
 46.11223   -209.6 1.036e+04 6.876e-10
 46.12735   -209.7 1.047e+04 7.348e-10
 46.14739   -209.8 1.059e+04 7.799e-10
 46.16743   -210.0 1.068e+04 8.121e-10
 46.17968   -210.4 1.071e+04 8.220e-10
 46.18970   -209.6 1.075e+04 8.350e-10
 46.19866   -210.0 1.075e+04 8.368e-10
 46.20868   -209.6 1.076e+04 8.289e-10
 46.22755   -210.0 1.069e+04 7.922e-10
 46.24759   -210.4 1.053e+04 7.242e-10
 46.26763   -210.6 1.039e+04 6.719e-10
 46.28509   -210.7 1.035e+04 6.554e-10
 46.29511   -210.4 1.024e+04 6.049e-10
 46.30771   -210.6 1.023e+04 6.030e-10
 46.32775   -211.6 1.057e+04 6.274e-10
 46.34779   -213.9 1.276e+04 9.354e-10
 46.36783   -216.4 1.501e+04 2.085e-09
 46.38154   -218.1 1.635e+04 4.475e-09
 46.39156   -218.0 1.659e+04 4.406e-09
 46.40791   -219.1 1.746e+04 8.013e-09
 46.42795   -219.9 1.800e+04 1.133e-08
 46.43925   -220.9 1.825e+04 1.279e-08
 46.44927   -219.6 1.913e+04 1.374e-08
 46.46797   -221.2 1.932e+04 1.616e-08
 46.48295   -222.8 1.959e+04 2.002e-08
 46.49298   -223.3 1.933e+04 1.879e-08
 46.50806   -224.0 1.907e+04 1.613e-08
 46.52814   -225.4 1.757e+04 1.001e-08
 46.54818   -226.2 1.646e+04 6.984e-09
 46.56442   -227.1 1.526e+04 5.000e-09
 46.57444   -227.9 1.520e+04 4.867e-09
 46.58826   -228.1 1.442e+04 3.887e-09
 46.60830   -227.9 1.378e+04 3.240e-09
 46.62834   -227.1 1.330e+04 2.762e-09
 46.64838   -226.3 1.292e+04 2.387e-09
 46.66087   -225.5 1.265e+04 2.106e-09
 46.67089   -225.7 1.272e+04 2.163e-09
 46.68846   -224.9 1.257e+04 1.989e-09
 46.69881   -224.0 1.243e+04 1.843e-09
 46.70883   -223.5 1.227e+04 1.645e-09
 46.72854   -222.6 1.209e+04 1.464e-09
 46.74730   -221.7 1.191e+04 1.306e-09
 46.75732   -221.8 1.193e+04 1.315e-09
 46.76862   -220.9 1.174e+04 1.162e-09
 46.78866   -219.9 1.151e+04 1.009e-09
 46.80870   -218.9 1.127e+04 8.640e-10
 46.82874   -217.8 1.102e+04 7.292e-10
 46.84375   -216.5 1.077e+04 6.064e-10
 46.85377   -216.2 1.063e+04 5.787e-10
 46.86882   -214.6 1.052e+04 4.874e-10
 46.88886   -213.5 1.049e+04 4.461e-10
 46.91901   -212.5 1.047e+04 4.203e-10
 46.94039   -210.5 1.037e+04 3.979e-10
 46.96043   -210.1 1.035e+04 4.155e-10
 46.99927   -207.7 1.032e+04 4.175e-10
 47.03935   -205.3 1.033e+04 4.238e-10
 47.07943   -203.3 1.034e+04 4.264e-10
 47.11325   -201.4 1.030e+04 4.169e-10
 47.13329   -201.0 1.032e+04 4.167e-10
 47.15959   -199.2 1.023e+04 3.946e-10
 47.19810   -197.4 1.012e+04 3.670e-10
 47.21814   -196.9 1.042e+04 4.844e-10
 47.23975   -195.3 1.031e+04 4.668e-10
 47.27983   -193.9 1.015e+04 4.305e-10
 47.30615   -192.2 9.987e+03 3.824e-10
 47.32619   -192.0 9.997e+03 3.821e-10
 47.35998   -190.1 9.845e+03 3.341e-10
 47.40006   -188.0 9.709e+03 2.862e-10
 47.44014   -185.8 9.623e+03 2.448e-10
 47.47901   -183.5 9.580e+03 2.134e-10
 47.49905   -183.7 9.713e+03 2.303e-10
 47.52030   -181.3 9.653e+03 2.005e-10
 47.56038   -179.0 9.604e+03 1.788e-10
 47.60046   -176.5 9.558e+03 1.620e-10
 47.64054   -174.0 9.524e+03 1.490e-10
 47.67191   -171.4 9.496e+03 1.396e-10
 47.69195   -171.5 9.673e+03 1.774e-10
 47.71723   -168.9 9.627e+03 1.648e-10
 47.73727   -169.2 9.587e+03 1.598e-10
 47.76078   -166.5 9.571e+03 1.497e-10
 47.80086   -163.7 9.573e+03 1.436e-10
 47.84094   -161.0 9.593e+03 1.397e-10
 47.86481   -158.2 9.627e+03 1.369e-10
 47.88485   -158.3 9.702e+03 1.489e-10
 47.92109   -155.7 9.730e+03 1.430e-10
 47.96117   -153.0 9.746e+03 1.378e-10
 48.00125   -150.5 9.777e+03 1.329e-10
 48.03767   -148.0 9.810e+03 1.306e-10
 48.05771   -148.0 9.818e+03 1.355e-10
 48.08141   -145.7 9.890e+03 1.406e-10
 48.12149   -143.6 9.999e+03 1.586e-10
 48.16157   -141.6 1.015e+04 1.951e-10
 48.20165   -139.7 1.034e+04 2.538e-10
 48.23057   -137.9 1.054e+04 3.341e-10
 48.24523   -138.3 1.062e+04 3.982e-10
 48.25639   -138.6 1.104e+04 6.890e-10
 48.28181   -136.9 1.121e+04 7.935e-10
 48.32189   -135.4 1.126e+04 8.206e-10
 48.36197   -133.9 1.120e+04 7.868e-10
 48.40205   -132.2 1.102e+04 6.681e-10
 48.42347   -130.5 1.080e+04 5.424e-10
 48.44350   -130.5 1.053e+04 3.956e-10
 48.48220   -128.8 1.045e+04 3.366e-10
 48.52228   -127.1 1.042e+04 3.025e-10
 48.56236   -125.4 1.039e+04 2.775e-10
 48.59632   -123.5 1.033e+04 2.498e-10
 48.61636   -123.2 1.028e+04 2.127e-10
 48.64252   -121.3 1.018e+04 1.864e-10
 48.68260   -119.3 1.004e+04 1.575e-10
 48.72268   -117.2 9.889e+03 1.313e-10
 48.75548   -115.2 9.751e+03 1.113e-10
 48.77552   -115.7 9.770e+03 1.025e-10
 48.78922   -113.7 9.648e+03 9.283e-11
 48.80926   -113.1 9.640e+03 8.527e-11
 48.84292   -111.0 9.580e+03 8.312e-11
 48.88300   -108.8 9.573e+03 8.285e-11
 48.92308   -106.7 9.575e+03 8.879e-11
 48.96208   -104.6 9.572e+03 9.986e-11
 48.98212   -104.4 9.624e+03 9.968e-11
 49.00323   -102.5 9.785e+03 1.124e-10
 49.04331   -100.6 9.943e+03 1.309e-10
 49.08339    -98.6 9.972e+03 1.556e-10
 49.12347    -96.5 9.985e+03 1.813e-10
 49.15498    -94.3 1.000e+04 2.053e-10
 49.17502    -94.3 1.003e+04 2.192e-10
 49.20363    -92.0 1.000e+04 2.239e-10
 49.24371    -89.8 9.961e+03 2.243e-10
 49.27461    -87.4 9.916e+03 2.223e-10
 49.29465    -87.9 1.006e+04 2.806e-10
 49.32387    -85.5 1.004e+04 2.789e-10
 49.34788    -83.1 1.004e+04 2.797e-10
 49.36792    -83.0 9.860e+03 2.064e-10
 49.40403    -80.7 9.906e+03 2.256e-10
 49.44411    -78.5 9.963e+03 2.576e-10
 49.48419    -76.3 1.002e+04 2.906e-10
 49.52074    -74.2 1.007e+04 3.158e-10
 49.54078    -74.0 9.996e+03 2.910e-10
 49.56434    -72.1 1.006e+04 3.171e-10
 49.60442    -70.4 1.009e+04 3.280e-10
 49.64450    -68.8 1.006e+04 3.193e-10
 49.68458    -67.3 9.953e+03 2.954e-10
 49.71364    -65.9 9.763e+03 2.616e-10
 49.73368    -65.9 9.822e+03 3.087e-10
 49.76474    -64.3 9.550e+03 2.471e-10
 49.79374    -62.4 9.261e+03 1.840e-10
 49.81378    -63.3 9.266e+03 1.840e-10
 49.84490    -61.3 9.009e+03 1.319e-10
 49.88498    -59.0 8.781e+03 9.495e-11
 49.90654    -56.6 8.594e+03 6.786e-11
 49.92658    -56.5 8.546e+03 6.356e-11
 49.96514    -54.0 8.432e+03 4.675e-11
 50.00522    -51.6 8.378e+03 3.487e-11
 50.04530    -49.3 8.382e+03 2.734e-11
 50.07940    -47.3 8.386e+03 2.485e-11
 50.09944    -47.2 8.446e+03 2.541e-11
 50.12545    -45.6 8.656e+03 2.849e-11
 50.16553    -44.5 8.668e+03 4.294e-11
 50.20561    -42.9 8.804e+03 7.362e-11
 50.24569    -40.7 9.111e+03 1.295e-10
 50.27230    -38.7 9.443e+03 1.896e-10
 50.29234    -38.7 9.691e+03 2.689e-10
 50.31287    -37.1 9.891e+03 2.947e-10
 50.33291    -38.6 1.036e+04 5.079e-10
 50.36593    -37.8 1.024e+04 4.643e-10
 50.40601    -36.4 1.003e+04 4.548e-10
 50.44515    -34.5 9.866e+03 4.141e-10
 50.46519    -34.3 9.697e+03 3.586e-10
 50.48617    -32.5 9.565e+03 2.930e-10
 50.52625    -30.6 9.366e+03 2.442e-10
 50.56633    -28.7 9.208e+03 2.022e-10
 50.60641    -27.2 9.134e+03 1.646e-10
 50.63805    -26.0 9.126e+03 1.563e-10
 50.65809    -26.0 9.124e+03 1.654e-10
 50.68656    -25.3 9.161e+03 2.138e-10
 50.72664    -24.2 9.233e+03 2.934e-10
 50.76672    -23.1 9.413e+03 3.742e-10
 50.80680    -22.6 9.587e+03 4.215e-10
 50.83095    -22.2 9.717e+03 3.970e-10
 50.83611    -22.8 9.895e+03 3.807e-10
 50.84192    -24.9 1.052e+04 5.427e-10
 50.85671    -24.7 1.044e+04 5.391e-10
 50.88686    -26.0 1.074e+04 6.406e-10
 50.92704    -26.5 1.063e+04 7.036e-10
 50.96712    -26.3 1.043e+04 7.336e-10
 50.99708    -25.8 1.026e+04 6.878e-10
 51.01364    -25.9 1.026e+04 6.857e-10
 51.02375    -26.7 1.027e+04 6.762e-10
 51.03716    -27.1 1.055e+04 8.179e-10
 51.05710    -28.2 1.078e+04 9.166e-10
 51.07714    -29.0 1.068e+04 1.105e-09
 51.09137    -28.9 1.082e+04 1.222e-09
 51.10139    -30.3 1.059e+04 1.039e-09
 51.11009    -29.9 1.058e+04 1.175e-09
 51.12011    -30.2 1.051e+04 1.123e-09
 51.13726    -29.7 1.047e+04 1.104e-09
 51.15730    -29.4 1.040e+04 9.424e-10
 51.17734    -29.4 1.002e+04 7.782e-10
 51.19652    -29.6 9.663e+03 5.845e-10
 51.20654    -30.1 9.550e+03 5.504e-10
 51.21742    -30.4 9.092e+03 4.331e-10
 51.24758    -30.6 8.795e+03 3.134e-10
 51.28775    -29.6 8.292e+03 2.497e-10
 51.32783    -27.8 8.104e+03 2.301e-10
 51.35113    -25.7 7.973e+03 2.075e-10
 51.37117    -26.0 8.342e+03 2.797e-10
 51.38961    -24.0 8.392e+03 2.649e-10
 51.40965    -25.0 8.224e+03 2.313e-10
 51.44807    -24.0 8.569e+03 2.723e-10
 51.48815    -24.8 9.622e+03 4.322e-10
 51.52823    -26.8 1.134e+04 9.695e-10
 51.55819    -28.1 1.159e+04 1.287e-09
 51.57229    -29.1 1.218e+04 1.699e-09
 51.58231    -29.8 1.222e+04 1.775e-09
 51.59817    -31.0 1.283e+04 2.084e-09
 51.61049    -32.4 1.320e+04 2.486e-09
 51.62051    -32.9 1.396e+04 3.519e-09
 51.63825    -34.5 1.377e+04 3.719e-09
 51.65829    -35.6 1.371e+04 3.771e-09
 51.66874    -36.2 1.367e+04 3.752e-09
 51.67876    -36.5 1.328e+04 3.283e-09
 51.69837    -36.8 1.310e+04 3.059e-09
 51.71841    -37.0 1.270e+04 2.613e-09
 51.73845    -37.3 1.220e+04 2.115e-09
 51.75517    -37.5 1.164e+04 1.617e-09
 51.76519    -37.6 1.146e+04 1.489e-09
 51.77853    -37.8 1.091e+04 1.134e-09
 51.79857    -37.9 1.045e+04 8.670e-10
 51.81861    -38.1 1.018e+04 6.888e-10
 51.83865    -38.4 1.003e+04 5.651e-10
 51.85162    -38.9 9.944e+03 5.064e-10
 51.86164    -38.5 9.835e+03 4.929e-10
 51.87006    -39.0 9.863e+03 4.829e-10
 51.88008    -38.4 9.970e+03 5.738e-10
 51.89877    -38.9 9.999e+03 5.819e-10
 51.91881    -39.8 1.034e+04 7.275e-10
 51.93805    -40.8 1.096e+04 1.006e-09
 51.94807    -40.6 1.095e+04 9.849e-10
 51.95889    -41.2 1.156e+04 1.469e-09
 51.97893    -41.2 1.200e+04 2.023e-09
 51.99897    -40.0 1.220e+04 2.462e-09
 52.01900    -39.2 1.240e+04 2.476e-09
 52.03450    -38.6 1.223e+04 2.034e-09
 52.04452    -38.3 1.210e+04 1.919e-09
 52.05908    -39.3 1.163e+04 1.358e-09
 52.08924    -40.2 1.128e+04 1.058e-09
 52.12113    -40.3 1.040e+04 6.828e-10
 52.14117    -40.0 1.003e+04 5.986e-10
 52.16950    -39.1 9.680e+03 5.046e-10
 52.20958    -37.7 9.474e+03 4.185e-10
 52.24966    -36.4 9.302e+03 3.208e-10
 52.28974    -35.6 9.198e+03 2.675e-10
 52.31403    -34.6 9.141e+03 2.622e-10
 52.33406    -34.4 9.153e+03 2.643e-10
 52.36934    -33.4 9.226e+03 2.881e-10
 52.38938    -34.0 9.409e+03 3.403e-10
 52.40997    -33.0 9.576e+03 3.982e-10
 52.45005    -31.8 9.850e+03 4.769e-10
 52.48001    -30.5 9.903e+03 4.565e-10
 52.49671    -30.4 9.921e+03 4.597e-10
 52.50683    -30.6 9.761e+03 3.993e-10
 52.53021    -29.6 9.890e+03 3.892e-10
 52.56017    -29.5 9.926e+03 4.041e-10
 52.58011    -31.0 1.054e+04 4.986e-10
 52.59316    -32.8 1.107e+04 8.262e-10
 52.60318    -32.5 1.080e+04 6.881e-10
 52.62019    -33.2 1.119e+04 9.644e-10
 52.63873    -32.6 1.114e+04 1.466e-09
 52.64875    -32.9 1.091e+04 1.196e-09
 52.66027    -31.8 1.125e+04 1.410e-09
 52.67959    -31.5 1.155e+04 1.310e-09
 52.68961    -31.1 1.126e+04 1.064e-09
 52.70035    -30.9 1.108e+04 9.909e-10
 52.72039    -31.1 1.125e+04 7.249e-10
 52.74043    -31.5 1.083e+04 6.323e-10
 52.76047    -31.6 1.088e+04 4.433e-10
 52.77604    -32.0 1.075e+04 4.230e-10
 52.78606    -31.4 1.070e+04 4.119e-10
 52.81067    -32.0 1.059e+04 3.801e-10
 52.85085    -31.1 1.022e+04 3.669e-10
 52.87268    -29.9 1.008e+04 3.288e-10
 52.89027    -28.8 1.004e+04 3.113e-10
 52.90851    -28.3 1.008e+04 3.410e-10
 52.93100    -27.6 1.007e+04 3.345e-10
 52.97108    -27.0 1.001e+04 3.398e-10
 53.01116    -26.4 9.918e+03 3.802e-10
 53.04554    -25.5 9.858e+03 4.332e-10
 53.06558    -24.8 9.941e+03 4.431e-10
 53.09132    -23.9 9.809e+03 4.835e-10
 53.13140    -22.4 9.590e+03 4.241e-10
 53.17148    -21.4 9.454e+03 2.916e-10
 53.21156    -21.2 9.284e+03 2.011e-10
 53.23844    -20.7 8.920e+03 1.493e-10
 53.25848    -20.1 8.944e+03 1.786e-10
 53.29172    -19.2 8.550e+03 1.234e-10
 53.33180    -18.6 8.412e+03 1.014e-10
 53.37188    -17.6 8.387e+03 1.026e-10
 53.40760    -16.6 8.514e+03 1.217e-10
 53.42698    -17.5 9.101e+03 2.554e-10
 53.43134    -17.3 8.922e+03 2.396e-10
 53.45203    -15.9 8.863e+03 2.876e-10
 53.49211    -14.5 8.945e+03 3.440e-10
 53.53219    -13.4 9.252e+03 4.551e-10
 53.57227    -12.6 9.922e+03 7.160e-10
 53.60420    -13.3 1.128e+04 1.432e-09
 53.62424    -13.0 1.098e+04 1.282e-09
 53.64231    -14.4 1.229e+04 2.415e-09
 53.66226    -14.0 1.278e+04 3.478e-09
 53.67699    -13.3 1.315e+04 4.134e-09
 53.68701    -13.4 1.270e+04 3.591e-09
 53.70045    -13.0 1.272e+04 3.558e-09
 53.71047    -13.0 1.253e+04 3.254e-09
 53.72237    -12.8 1.243e+04 3.002e-09
 53.74241    -13.3 1.227e+04 2.609e-09
 53.77257    -14.1 1.180e+04 1.800e-09
 53.79710    -14.9 1.093e+04 1.118e-09
 53.81714    -13.9 1.106e+04 1.227e-09
 53.85283    -14.4 1.052e+04 8.941e-10
 53.89291    -14.7 1.054e+04 9.345e-10
 53.92673    -14.9 1.091e+04 1.198e-09
 53.94677    -15.0 1.091e+04 1.214e-09
 53.96996    -14.8 1.133e+04 1.534e-09
 53.99000    -13.9 1.122e+04 1.490e-09
 54.00303    -14.1 1.167e+04 1.766e-09
 54.02297    -13.9 1.167e+04 1.786e-09
 54.04301    -14.2 1.194e+04 1.913e-09
 54.06305    -14.4 1.192e+04 1.891e-09
 54.07623    -14.5 1.183e+04 1.808e-09
 54.08625    -14.1 1.189e+04 1.800e-09
 54.10313    -13.9 1.173e+04 1.655e-09
 54.12317    -13.5 1.138e+04 1.383e-09
 54.14321    -13.2 1.111e+04 1.079e-09
 54.16266    -13.2 1.091e+04 8.050e-10
 54.17268    -12.8 1.122e+04 9.687e-10
 54.18329    -13.1 1.116e+04 8.116e-10
 54.21344    -13.5 1.124e+04 6.861e-10
 54.25362    -13.6 1.096e+04 5.430e-10
 54.29370    -12.8 1.070e+04 4.819e-10
 54.33378    -11.4 1.060e+04 4.393e-10
 54.35575     -9.8 1.065e+04 4.284e-10
 54.37579     -9.8 1.080e+04 4.549e-10
 54.41394     -8.1 1.078e+04 4.384e-10
 54.44586     -6.1 1.082e+04 4.454e-10
 54.46590     -6.3 1.038e+04 2.355e-10
 54.49410     -4.1 1.037e+04 2.220e-10
 54.52861     -1.9 1.042e+04 2.213e-10
 54.54865     -1.8 1.023e+04 1.549e-10
 54.57425      0.3 1.029e+04 1.607e-10
 54.61433      2.1 1.045e+04 1.848e-10
 54.65441      4.1 1.063e+04 2.393e-10
 54.69449      6.2 1.081e+04 3.164e-10
 54.72151      8.4 1.099e+04 3.826e-10
 54.74155      9.1 1.072e+04 2.888e-10
 54.77465     11.5 1.086e+04 2.988e-10
 54.81473     13.8 1.098e+04 2.902e-10
 54.85481     16.0 1.108e+04 2.877e-10
 54.89437     17.9 1.114e+04 2.992e-10
 54.91441     18.9 1.093e+04 2.074e-10
 54.93497     20.6 1.111e+04 2.359e-10
 54.96499     21.8 1.147e+04 3.864e-10
 54.98503     21.7 1.230e+04 6.682e-10
 55.01513     22.4 1.333e+04 1.493e-09
 55.04509     22.9 1.353e+04 2.036e-09
 55.06503     23.4 1.395e+04 3.096e-09
 55.08507     24.1 1.424e+04 3.916e-09
 55.09710     24.8 1.435e+04 4.099e-09
 55.10712     25.1 1.443e+04 4.350e-09
 55.12515     25.6 1.441e+04 4.180e-09
 55.14519     25.8 1.429e+04 3.472e-09
 55.16523     25.5 1.416e+04 2.704e-09
 55.18352     25.1 1.396e+04 2.007e-09
 55.19354     25.4 1.420e+04 2.332e-09
 55.20531     24.8 1.400e+04 1.895e-09
 55.22435     24.4 1.383e+04 1.645e-09
 55.23437     23.5 1.405e+04 2.215e-09
 55.25550     24.1 1.379e+04 1.785e-09
 55.28017     24.5 1.354e+04 1.729e-09
 55.30021     24.3 1.367e+04 1.947e-09
 55.33576     25.1 1.337e+04 1.827e-09
 55.37584     25.9 1.327e+04 1.834e-09
 55.41592     26.3 1.323e+04 1.793e-09
 55.45303     26.7 1.312e+04 1.637e-09
 55.47307     27.4 1.287e+04 1.341e-09
 55.48411     27.9 1.251e+04 1.017e-09
 55.50415     27.5 1.353e+04 1.910e-09
 55.53616     28.0 1.337e+04 1.767e-09
 55.57624     28.7 1.288e+04 1.177e-09
 55.61632     29.5 1.233e+04 5.709e-10
 55.64593     30.3 1.208e+04 2.374e-10
 55.66597     31.1 1.215e+04 2.532e-10
 55.69647     31.9 1.193e+04 1.253e-10
 55.73655     33.0 1.130e+04 1.045e-10
 55.77663     34.7 1.124e+04 1.070e-10
 55.81671     36.7 1.123e+04 1.202e-10
 55.83883     38.5 1.119e+04 1.657e-10
 55.85887     39.6 1.121e+04 1.647e-10
 55.89687     41.3 1.128e+04 2.539e-10
 55.93695     42.9 1.151e+04 4.380e-10
 55.97703     44.6 1.184e+04 7.364e-10
 56.00324     46.1 1.212e+04 1.001e-09
 56.01786     45.2 1.215e+04 1.009e-09
 56.03173     46.4 1.212e+04 9.424e-10
 56.05719     47.6 1.205e+04 8.878e-10
 56.09727     48.9 1.185e+04 7.197e-10
 56.13735     50.2 1.161e+04 5.238e-10
 56.17742     51.4 1.140e+04 3.953e-10
 56.20458     52.7 1.126e+04 3.298e-10
 56.22462     53.6 1.136e+04 3.600e-10
 56.25758     55.0 1.129e+04 3.420e-10
 56.29766     56.5 1.126e+04 3.329e-10
 56.33774     58.1 1.123e+04 3.186e-10
 56.37744     59.8 1.121e+04 2.961e-10
 56.39748     60.5 1.128e+04 3.291e-10
 56.41790     62.0 1.127e+04 2.991e-10
 56.45798     63.6 1.128e+04 2.883e-10
 56.49806     65.1 1.130e+04 2.987e-10
 56.52237     66.3 1.138e+04 3.318e-10
 56.54241     65.4 1.181e+04 3.859e-10
 56.57034     66.2 1.210e+04 5.707e-10
 56.59028     66.9 1.196e+04 4.681e-10
 56.60808     67.0 1.206e+04 6.032e-10
 56.62812     67.3 1.216e+04 7.914e-10
 56.64816     67.7 1.231e+04 1.009e-09
 56.66660     68.3 1.249e+04 1.240e-09
 56.67662     68.6 1.237e+04 1.111e-09
 56.69836     68.9 1.268e+04 1.347e-09
 56.73853     69.5 1.291e+04 1.487e-09
 56.76324     69.5 1.296e+04 1.495e-09
 56.78328     70.5 1.270e+04 1.223e-09
 56.81869     70.8 1.270e+04 1.204e-09
 56.85877     71.3 1.261e+04 1.117e-09
 56.89885     72.0 1.244e+04 9.665e-10
 56.93610     73.0 1.224e+04 8.038e-10
 56.95614     74.0 1.239e+04 9.478e-10
 56.97901     75.2 1.229e+04 8.763e-10
 57.01909     76.5 1.220e+04 8.083e-10
 57.04150     77.9 1.212e+04 7.594e-10
 57.06154     77.5 1.217e+04 8.834e-10
 57.09925     79.0 1.210e+04 8.415e-10
 57.12900     80.5 1.207e+04 7.946e-10
 57.14904     81.3 1.244e+04 1.147e-09
 57.17941     82.7 1.247e+04 1.157e-09
 57.21949     84.0 1.252e+04 1.160e-09
 57.25957     85.1 1.257e+04 1.164e-09
 57.29964     86.0 1.256e+04 1.191e-09
 57.32190     86.8 1.252e+04 1.246e-09
 57.34194     87.0 1.329e+04 2.032e-09
 57.37980     87.6 1.309e+04 1.832e-09
 57.41988     88.4 1.284e+04 1.519e-09
 57.45996     89.0 1.277e+04 1.283e-09
 57.48992     88.7 1.284e+04 1.175e-09
 57.50458     88.4 1.289e+04 1.179e-09
 57.51460     88.3 1.271e+04 1.139e-09
 57.52991     88.1 1.275e+04 1.174e-09
 57.54994     87.9 1.286e+04 1.257e-09
 57.56043     87.5 1.298e+04 1.345e-09
 57.57045     87.1 1.312e+04 1.558e-09
 57.59002     86.7 1.308e+04 1.547e-09
 57.60103     86.6 1.291e+04 1.452e-09
 57.61105     86.8 1.283e+04 1.380e-09
 57.63010     86.7 1.268e+04 1.300e-09
 57.66026     86.8 1.245e+04 1.098e-09
 57.68766     87.3 1.207e+04 7.462e-10
 57.70770     88.1 1.221e+04 8.669e-10
 57.74052     88.4 1.193e+04 6.400e-10
 57.78060     88.9 1.168e+04 4.435e-10
 57.82068     89.4 1.149e+04 3.060e-10
 57.86052     90.1 1.130e+04 2.642e-10
 57.88056     90.9 1.159e+04 3.779e-10
 57.90083     91.7 1.161e+04 3.949e-10
 57.94091     92.4 1.182e+04 4.656e-10
 57.96689     92.1 1.201e+04 5.328e-10
 57.97681     92.1 1.201e+04 5.466e-10
 57.99082     91.6 1.220e+04 6.530e-10
 58.01086     90.7 1.243e+04 8.608e-10
 58.03090     89.8 1.270e+04 1.235e-09
 58.05094     89.1 1.302e+04 1.853e-09
 58.06324     89.0 1.341e+04 2.679e-09
 58.07183     89.2 1.336e+04 2.445e-09
 58.07956     88.5 1.347e+04 2.686e-09
 58.09101     88.3 1.375e+04 2.861e-09
 58.11105     87.9 1.375e+04 2.794e-09
 58.13109     87.1 1.359e+04 2.305e-09
 58.14967     86.1 1.326e+04 1.789e-09
 58.15969     85.9 1.308e+04 1.666e-09
 58.18129     85.5 1.254e+04 1.164e-09
 58.22147     84.8 1.185e+04 7.417e-10
 58.24631     84.6 1.159e+04 5.641e-10
 58.26635     85.1 1.154e+04 5.353e-10
 58.30163     85.2 1.153e+04 4.959e-10
 58.34171     85.5 1.155e+04 4.965e-10
 58.38179     85.8 1.164e+04 5.292e-10
 58.41917     86.2 1.181e+04 5.696e-10
 58.43912     86.6 1.194e+04 6.392e-10
 58.45173     86.2 1.213e+04 7.223e-10
 58.47177     85.6 1.229e+04 8.442e-10
 58.49181     85.0 1.242e+04 1.022e-09
 58.51185     84.4 1.255e+04 1.255e-09
 58.52545     84.0 1.270e+04 1.477e-09
 58.53547     84.6 1.299e+04 1.821e-09
 58.55193     84.3 1.321e+04 1.961e-09
 58.57197     83.7 1.325e+04 1.921e-09
 58.58867     82.6 1.336e+04 1.779e-09
 58.59869     82.1 1.345e+04 1.778e-09
 58.61188     80.3 1.352e+04 1.539e-09
 58.62190     80.6 1.433e+04 2.097e-09
 58.63209     78.2 1.414e+04 1.959e-09
 58.65212     76.0 1.404e+04 2.013e-09
 58.67216     74.4 1.394e+04 2.281e-09
 58.69220     73.5 1.394e+04 2.536e-09
 58.70833     72.7 1.395e+04 2.530e-09
 58.71835     72.9 1.410e+04 2.904e-09
 58.73228     72.1 1.402e+04 2.744e-09
 58.75232     71.1 1.401e+04 2.573e-09
 58.77236     69.8 1.409e+04 2.586e-09
 58.79240     68.1 1.432e+04 2.754e-09
 58.80478     66.2 1.459e+04 3.163e-09
 58.81480     65.9 1.498e+04 3.876e-09
 58.83248     64.2 1.521e+04 4.428e-09
 58.84823     62.5 1.519e+04 4.378e-09
 58.85825     62.4 1.606e+04 6.429e-09
 58.87256     60.6 1.590e+04 6.001e-09
 58.89121     59.0 1.546e+04 4.795e-09
 58.90123     58.9 1.547e+04 4.732e-09
 58.91264     57.3 1.473e+04 3.238e-09
 58.93268     56.4 1.400e+04 2.218e-09
 58.95272     55.4 1.344e+04 1.649e-09
 58.97773     54.6 1.276e+04 1.089e-09
 58.99787     53.9 1.228e+04 8.444e-10
 59.02305     53.8 1.148e+04 4.781e-10
 59.06313     54.0 1.093e+04 2.903e-10
 59.09797     54.4 1.059e+04 2.078e-10
 59.11801     54.1 1.053e+04 1.592e-10
 59.14329     55.3 1.038e+04 1.396e-10
 59.17073     56.9 1.030e+04 1.278e-10
 59.19077     57.3 1.015e+04 1.320e-10
 59.22345     59.0 1.012e+04 1.217e-10
 59.26353     60.7 1.015e+04 1.078e-10
 59.30361     62.2 1.022e+04 9.336e-11
 59.34359     63.6 1.035e+04 8.241e-11
 59.38367     65.2 1.036e+04 9.262e-11
 59.42385     66.5 1.041e+04 9.352e-11
 59.46393     67.7 1.047e+04 1.002e-10
 59.50400     68.8 1.057e+04 1.149e-10
 59.53649     70.0 1.063e+04 1.380e-10
 59.55653     70.3 1.062e+04 1.665e-10
 59.58416     71.3 1.066e+04 1.711e-10
 59.61710     72.3 1.065e+04 1.660e-10
 59.63714     73.1 1.073e+04 1.782e-10
 59.66432     74.0 1.064e+04 1.570e-10
 59.70440     74.8 1.048e+04 1.325e-10
 59.72939     75.2 1.047e+04 1.296e-10
 59.74943     75.7 1.035e+04 1.213e-10
 59.78456     75.6 1.039e+04 1.296e-10
 59.82464     75.1 1.055e+04 1.791e-10
 59.86472     74.3 1.073e+04 2.988e-10
 59.90225     73.6 1.082e+04 4.687e-10
 59.92229     73.9 1.068e+04 4.182e-10
 59.94488     73.0 1.059e+04 4.600e-10
 59.98496     72.2 1.049e+04 4.439e-10
 60.02504     71.5 1.023e+04 3.688e-10
 60.06511     70.9 9.925e+03 2.688e-10
 60.09514     70.5 9.629e+03 1.991e-10
 60.11518     70.5 9.592e+03 2.127e-10
 60.13623     70.6 9.380e+03 1.807e-10
 60.15627     71.7 9.433e+03 1.903e-10
 60.18535     72.2 9.263e+03 1.675e-10
 60.22543     73.0 9.090e+03 1.346e-10
 60.26551     73.9 8.948e+03 9.656e-11
 60.28804     74.7 8.862e+03 6.521e-11
 60.30808     74.7 8.858e+03 5.460e-11
 60.34567     75.4 8.508e+03 4.400e-11
 60.38575     76.5 8.302e+03 4.401e-11
 60.42583     78.1 8.241e+03 4.410e-11
 60.46090     80.0 8.215e+03 4.452e-11
 60.48094     80.4 8.141e+03 4.384e-11
 60.50599     82.4 8.131e+03 4.538e-11
 60.54607     84.3 8.132e+03 4.717e-11
 60.58615     86.3 8.135e+03 4.880e-11
 60.62622     88.3 8.137e+03 4.925e-11
 60.65380     90.3 8.134e+03 4.911e-11
 60.66290     90.8 8.065e+03 4.823e-11
 60.67540     91.2 8.038e+03 4.391e-11
 60.70638     93.3 8.048e+03 4.314e-11
 60.74646     95.4 8.068e+03 4.110e-11
 60.78654     97.4 8.099e+03 3.828e-11
 60.82662     99.4 8.123e+03 3.555e-11
 60.86670    101.6 8.016e+03 4.147e-11
 60.90678    103.5 8.023e+03 4.271e-11
 60.94686    105.4 8.045e+03 4.559e-11
 60.98694    107.4 8.077e+03 5.053e-11
 61.01956    109.3 8.115e+03 5.778e-11
 61.03960    109.9 8.055e+03 6.541e-11
 61.06710    111.8 8.124e+03 7.247e-11
 61.10718    113.7 8.185e+03 8.039e-11
 61.14726    115.6 8.240e+03 8.782e-11
 61.17449    117.4 8.303e+03 9.349e-11
 61.19453    117.5 8.311e+03 9.749e-11
 61.21246    119.2 8.405e+03 1.007e-10
 61.23250    119.4 8.384e+03 8.905e-11
 61.26749    121.0 8.456e+03 9.667e-11
 61.30757    122.4 8.530e+03 1.045e-10
 61.34765    123.8 8.603e+03 1.118e-10
 61.38532    125.1 8.672e+03 1.193e-10
 61.40536    125.4 8.700e+03 1.424e-10
 61.42781    126.7 8.862e+03 1.606e-10
 61.46789    127.8 9.057e+03 1.860e-10
 61.50797    128.9 9.290e+03 2.229e-10
 61.54805    129.8 9.536e+03 2.734e-10
 61.57822    130.5 9.820e+03 3.384e-10
 61.59826    130.5 9.882e+03 3.826e-10
 61.62821    130.9 1.014e+04 4.196e-10
 61.66829    130.7 1.038e+04 4.767e-10
 61.69362    130.4 1.066e+04 5.810e-10
 61.71366    129.4 1.073e+04 5.995e-10
 61.74844    128.6 1.110e+04 8.101e-10
 61.77112    127.6 1.152e+04 1.070e-09
 61.79116    127.8 1.136e+04 9.707e-10
 61.82860    126.7 1.165e+04 1.122e-09
 61.86868    125.3 1.167e+04 1.122e-09
 61.90876    123.8 1.157e+04 1.045e-09
 61.94398    122.4 1.117e+04 8.316e-10
 61.96401    122.8 1.096e+04 7.674e-10
 61.98892    121.8 1.035e+04 5.400e-10
 62.02900    121.2 9.697e+03 3.452e-10
 62.06908    120.8 8.954e+03 2.332e-10
 62.10916    120.8 8.820e+03 2.165e-10
 62.13687    121.0 8.807e+03 2.175e-10
 62.15691    121.5 8.742e+03 1.563e-10
 62.18932    122.0 8.705e+03 1.650e-10
 62.21275    122.7 8.690e+03 1.853e-10
 62.23279    122.0 8.849e+03 2.202e-10
 62.26947    122.7 8.823e+03 2.199e-10
 62.30955    123.5 8.757e+03 2.083e-10
 62.34963    124.7 8.517e+03 1.764e-10
 62.38971    125.5 8.393e+03 1.507e-10
 62.42979    126.2 8.277e+03 1.280e-10
 62.46987    126.9 8.222e+03 1.132e-10
 62.50263    127.7 8.209e+03 1.061e-10
 62.52267    128.0 8.210e+03 1.156e-10
 62.55003    128.8 8.197e+03 1.127e-10
 62.59011    129.7 8.190e+03 1.106e-10
 62.63019    130.7 8.167e+03 1.072e-10
 62.67027    131.9 8.131e+03 1.038e-10
 62.69553    133.1 8.117e+03 1.031e-10
 62.71557    133.4 8.136e+03 1.121e-10
 62.73187    134.7 8.147e+03 1.128e-10
 62.75191    133.8 8.239e+03 1.131e-10
 62.79051    135.0 8.317e+03 1.221e-10
 62.83058    136.1 8.462e+03 1.470e-10
 62.86839    137.2 8.661e+03 1.898e-10
 62.88843    137.2 8.761e+03 2.228e-10
 62.91074    138.4 9.054e+03 3.012e-10
 62.95082    139.5 9.387e+03 3.935e-10
 62.99090    140.1 9.644e+03 4.752e-10
 63.02086    140.2 9.785e+03 5.386e-10
 63.04081    140.5 9.943e+03 6.262e-10
 63.06085    140.8 1.015e+04 7.238e-10
 63.07111    141.0 1.037e+04 7.872e-10
 63.08113    140.5 1.025e+04 6.191e-10
 63.10092    140.4 1.043e+04 6.180e-10
 63.12096    140.0 1.056e+04 6.188e-10
 63.14100    139.2 1.073e+04 6.297e-10
 63.15754    138.1 1.096e+04 6.610e-10
 63.16756    136.5 1.076e+04 6.225e-10
 63.18108    135.3 1.106e+04 7.342e-10
 63.20112    134.3 1.137e+04 8.967e-10
 63.22116    133.7 1.163e+04 1.077e-09
 63.24079    133.4 1.173e+04 1.142e-09
 63.25081    133.1 1.153e+04 9.845e-10
 63.25399    132.5 1.153e+04 9.654e-10
 63.26401    131.9 1.144e+04 9.702e-10
 63.28128    131.2 1.139e+04 7.964e-10
 63.30132    130.2 1.116e+04 5.513e-10
 63.32136    129.2 1.085e+04 3.965e-10
 63.35152    128.8 1.038e+04 2.774e-10
 63.39169    128.0 9.863e+03 2.121e-10
 63.42705    127.8 9.678e+03 2.077e-10
 63.44709    127.3 9.782e+03 2.511e-10
 63.47185    127.6 9.800e+03 2.582e-10
 63.51193    128.1 9.862e+03 2.717e-10
 63.55201    128.5 9.965e+03 2.902e-10
 63.59209    128.8 1.010e+04 3.148e-10
 63.61995    129.1 1.023e+04 3.476e-10
 63.63999    128.1 1.051e+04 4.245e-10
 63.67225    128.3 1.062e+04 4.429e-10
 63.71233    128.6 1.061e+04 4.373e-10
 63.75009    129.3 1.051e+04 4.049e-10
 63.77013    129.9 1.056e+04 4.271e-10
 63.79249    130.9 1.040e+04 3.526e-10
 63.81285    132.1 1.021e+04 2.686e-10
 63.83288    130.9 1.005e+04 1.756e-10
 63.87265    132.0 9.860e+03 1.374e-10
 63.91273    133.4 9.753e+03 1.345e-10
 63.95280    135.1 9.738e+03 1.353e-10
 63.98570    137.0 9.704e+03 1.410e-10
 64.00574    136.2 9.615e+03 1.411e-10
 64.03296    138.1 9.666e+03 1.639e-10
 64.07304    139.9 9.808e+03 1.996e-10
 64.11312    141.5 1.005e+04 2.535e-10
 64.15320    142.9 1.034e+04 3.281e-10
 64.17860    144.0 1.055e+04 4.042e-10
 64.19864    142.4 1.055e+04 4.415e-10
 64.22324    143.2 1.054e+04 4.741e-10
 64.24318    144.0 1.050e+04 5.011e-10
 64.26322    144.9 1.047e+04 5.117e-10
 64.27486    145.5 1.048e+04 4.998e-10
 64.28066    144.4 1.040e+04 4.564e-10
 64.28906    144.0 1.039e+04 4.323e-10
 64.31342    144.9 1.034e+04 3.932e-10
 64.35146    145.9 1.020e+04 3.507e-10
 64.37150    144.4 1.005e+04 3.418e-10
 64.39368    145.1 9.986e+03 3.358e-10
 64.42364    146.4 1.010e+04 3.798e-10
 64.44358    147.0 1.033e+04 4.441e-10
 64.45774    147.0 1.068e+04 5.623e-10
 64.46776    145.6 1.098e+04 6.732e-10
 64.48366    145.1 1.154e+04 9.288e-10
 64.50370    144.4 1.219e+04 1.319e-09
 64.52374    143.7 1.284e+04 1.883e-09
 64.53861    143.1 1.342e+04 2.585e-09
 64.54863    143.2 1.313e+04 2.375e-09
 64.55419    142.8 1.367e+04 3.011e-09
 64.56421    141.8 1.369e+04 2.794e-09
 64.58386    140.8 1.375e+04 2.764e-09
 64.60390    139.4 1.375e+04 2.546e-09
 64.62394    137.8 1.344e+04 2.076e-09
 64.64062    136.2 1.280e+04 1.562e-09
 64.65064    135.0 1.214e+04 1.214e-09
 64.67413    134.3 1.205e+04 1.158e-09
 64.71431    134.0 1.191e+04 1.127e-09
 64.73726    134.3 1.203e+04 1.162e-09
 64.75730    134.6 1.150e+04 9.416e-10
 64.78835    136.2 1.174e+04 9.774e-10
 64.80829    136.2 1.178e+04 1.002e-09
 64.82349    136.8 1.189e+04 1.014e-09
 64.83351    137.5 1.166e+04 9.091e-10
 64.84437    138.5 1.201e+04 9.543e-10
 64.86441    137.8 1.343e+04 1.151e-09
 64.88445    135.2 1.694e+04 1.982e-09
 64.90449    131.3 1.991e+04 4.032e-09
 64.91947    129.6 2.142e+04 5.289e-09
 64.92486    126.6 2.259e+04 9.588e-09
 64.92828    126.8 2.285e+04 9.807e-09
 64.93287    125.0 2.232e+04 1.407e-08
 64.93946    123.0 2.168e+04 2.570e-08
 64.94948    122.9 2.099e+04 4.167e-08
 64.95950    123.3 2.047e+04 5.978e-08
 64.96807    124.2 2.081e+04 6.277e-08
 64.97308    124.6 2.087e+04 7.016e-08
 64.97954    125.0 2.126e+04 6.344e-08
 64.98956    124.9 2.215e+04 4.744e-08
 64.99958    124.0 2.332e+04 2.714e-08
 65.00960    120.2 2.500e+04 1.080e-08
 65.01630    112.6 2.592e+04 2.978e-09
 65.02131    111.6 2.626e+04 2.849e-09
 65.02964    101.0 1.844e+04 1.125e-09
 65.03966     93.0 1.170e+04 1.163e-09
 65.04968     91.8 1.139e+04 1.157e-09
 65.05769     90.3 1.151e+04 1.193e-09
 65.06776     90.2 1.117e+04 1.147e-09
 65.08485     89.5 1.121e+04 1.181e-09
 65.10282     89.1 1.128e+04 1.249e-09
 65.11284     88.6 1.100e+04 1.132e-09
 65.12493     88.4 1.102e+04 1.158e-09
 65.14497     88.1 1.102e+04 1.146e-09
 65.16501     87.9 1.095e+04 1.105e-09
 65.18505     87.5 1.077e+04 1.025e-09
 65.19927     87.2 1.051e+04 9.289e-10
 65.20929     87.2 1.033e+04 8.429e-10
 65.22513     87.0 1.009e+04 7.545e-10
 65.24517     86.7 9.854e+03 6.688e-10
 65.26521     86.5 9.621e+03 5.828e-10
 65.28524     86.3 9.442e+03 5.216e-10
 65.29572     86.2 9.290e+03 4.649e-10
 65.30574     86.0 9.201e+03 4.464e-10
 65.31730     86.0 9.142e+03 4.308e-10
 65.32742     85.9 9.000e+03 3.775e-10
 65.35558     86.1 8.976e+03 3.713e-10
 65.38225     86.3 9.067e+03 3.957e-10
 65.39217     85.7 9.200e+03 4.286e-10
 65.40548     85.2 9.586e+03 5.222e-10
 65.42552     84.3 1.012e+04 6.839e-10
 65.44556     83.5 1.071e+04 9.364e-10
 65.46560     83.1 1.131e+04 1.295e-09
 65.47860     83.1 1.185e+04 1.738e-09
 65.48862     83.0 1.211e+04 1.964e-09
 65.50568     83.3 1.247e+04 2.210e-09
 65.52572     83.6 1.252e+04 2.192e-09
 65.54576     83.6 1.251e+04 2.045e-09
 65.56503     83.4 1.237e+04 1.676e-09
 65.57505     82.4 1.172e+04 1.187e-09
 65.57687     81.6 1.115e+04 8.552e-10
 65.58689     82.9 1.113e+04 8.722e-10
 65.60588     82.0 1.055e+04 6.442e-10
 65.62592     81.4 1.002e+04 4.908e-10
 65.64596     81.2 9.664e+03 4.085e-10
 65.66148     81.3 9.513e+03 3.635e-10
 65.68162     80.7 9.454e+03 3.278e-10
 65.71629     82.2 9.436e+03 3.287e-10
 65.75637     83.8 9.478e+03 3.476e-10
 65.79645     85.3 9.638e+03 3.970e-10
 65.82661     87.3 9.652e+03 4.221e-10
 65.84465     88.9 9.424e+03 3.504e-10
 65.85457     89.0 9.411e+03 3.251e-10
 65.87661     91.0 9.537e+03 3.639e-10
 65.91669     92.8 9.641e+03 3.996e-10
 65.95677     94.9 9.869e+03 4.285e-10
 65.98673     95.6 9.837e+03 4.178e-10
 66.00667     96.6 9.813e+03 4.079e-10
 66.02671     97.7 9.775e+03 4.031e-10
 66.03726     98.8 9.757e+03 4.056e-10
 66.04728     99.5 9.842e+03 4.480e-10
 66.06679    100.7 9.960e+03 4.774e-10
 66.08597    101.9 1.022e+04 5.391e-10
 66.09599    103.2 1.023e+04 5.636e-10
 66.10687    104.4 1.058e+04 6.524e-10
 66.12369    105.3 1.114e+04 8.135e-10
 66.13371    105.5 1.186e+04 1.062e-09
 66.14695    105.7 1.329e+04 1.562e-09
 66.16699    105.6 1.539e+04 2.515e-09
 66.18703    105.4 1.738e+04 4.161e-09
 66.20707    105.3 1.911e+04 6.531e-09
 66.22014    105.0 2.059e+04 8.864e-09
 66.23016    105.1 2.228e+04 1.265e-08
 66.24715    104.2 2.252e+04 1.094e-08
 66.26719    101.6 2.273e+04 5.260e-09
 66.28723     96.5 2.118e+04 1.655e-09
 66.30657     87.9 1.897e+04 9.562e-10
 66.31659     80.0 1.795e+04 8.862e-10
 66.32731     72.8 1.621e+04 7.631e-10
 66.34554     68.2 1.478e+04 7.112e-10
 66.35556     64.6 1.515e+04 9.186e-10
 66.36739     60.3 1.272e+04 1.015e-09
 66.38742     59.4 1.274e+04 1.215e-09
 66.40302     59.1 1.266e+04 1.457e-09
 66.41304     57.8 1.295e+04 1.832e-09
 66.42750     57.7 1.294e+04 1.883e-09
 66.44754     57.4 1.274e+04 1.786e-09
 66.46758     56.8 1.241e+04 1.573e-09
 66.48762     55.7 1.196e+04 1.282e-09
 66.49947     54.5 1.136e+04 9.746e-10
 66.50949     52.8 1.072e+04 7.435e-10
 66.52770     51.8 1.016e+04 5.858e-10
 66.54774     51.0 9.935e+03 5.014e-10
 66.56778     50.8 9.902e+03 4.804e-10
 66.58590     50.8 9.953e+03 4.848e-10
 66.59592     50.8 9.937e+03 4.660e-10
 66.60510     50.6 9.977e+03 4.642e-10
 66.61512     49.7 9.906e+03 4.568e-10
 66.63802     49.9 1.001e+04 4.696e-10
 66.67820     49.7 1.022e+04 5.243e-10
 66.71827     50.0 1.041e+04 5.826e-10
 66.75835     50.4 1.059e+04 6.468e-10
 66.77899     50.9 1.075e+04 7.226e-10
 66.79903     50.8 1.102e+04 8.765e-10
 66.83851     51.9 1.144e+04 1.081e-09
 66.86477     52.4 1.159e+04 1.153e-09
 66.87154     51.5 1.152e+04 1.148e-09
 66.87524     51.0 1.164e+04 1.218e-09
 66.88842     50.3 1.219e+04 1.490e-09
 66.90846     48.2 1.343e+04 2.270e-09
 66.92850     45.7 1.498e+04 4.107e-09
 66.94853     44.5 1.641e+04 7.559e-09
 66.96167     44.1 1.740e+04 1.139e-08
 66.97169     44.0 1.682e+04 9.746e-09
 66.98861     43.3 1.675e+04 9.525e-09
 67.00865     43.3 1.622e+04 7.680e-09
 67.02869     43.0 1.525e+04 4.539e-09
 67.04810     41.5 1.399e+04 2.081e-09
 67.05812     40.7 1.337e+04 1.711e-09
 67.06877     37.5 1.183e+04 8.046e-10
 67.08881     34.5 1.053e+04 4.862e-10
 67.10885     33.8 1.031e+04 4.571e-10
 67.12423     33.8 1.032e+04 4.597e-10
 67.13425     33.1 1.028e+04 4.647e-10
 67.14455     33.0 1.035e+04 4.993e-10
 67.15457     33.6 1.031e+04 4.700e-10
 67.16897     33.4 1.040e+04 5.225e-10
 67.18901     33.3 1.053e+04 5.946e-10
 67.20905     33.2 1.068e+04 6.743e-10
 67.22909     33.1 1.085e+04 7.452e-10
 67.24100     32.9 1.102e+04 7.928e-10
 67.25102     33.5 1.085e+04 7.208e-10
 67.26917     33.2 1.100e+04 7.292e-10
 67.28921     32.7 1.107e+04 7.289e-10
 67.30925     32.0 1.109e+04 7.277e-10
 67.32743     31.2 1.109e+04 7.270e-10
 67.33745     32.0 1.099e+04 6.842e-10
 67.34933     31.2 1.099e+04 6.948e-10
 67.36937     30.5 1.098e+04 7.195e-10
 67.38380     30.1 1.094e+04 7.346e-10
 67.39382     30.0 1.092e+04 6.948e-10
 67.40945     29.8 1.083e+04 6.669e-10
 67.42388     29.7 1.074e+04 6.186e-10
 67.43390     30.5 1.077e+04 6.339e-10
 67.44953     30.5 1.066e+04 5.747e-10
 67.46957     30.6 1.055e+04 5.060e-10
 67.48961     30.7 1.044e+04 4.371e-10
 67.50964     30.8 1.033e+04 3.729e-10
 67.52033     30.7 1.028e+04 3.341e-10
 67.53035     31.5 1.032e+04 3.400e-10
 67.54972     31.4 1.029e+04 3.294e-10
 67.56976     31.4 1.035e+04 3.370e-10
 67.58980     31.3 1.083e+04 3.749e-10
 67.60676     29.3 1.384e+04 5.659e-10
 67.61678     31.8 1.092e+04 4.094e-10
 67.62988     28.4 1.548e+04 6.654e-10
 67.64336     18.8 2.353e+04 3.215e-09
 67.64832     18.3 2.633e+04 2.475e-09
 67.65483     14.1 2.665e+04 8.418e-09
 67.65990     13.1 2.406e+04 2.308e-08
 67.66491     13.5 2.699e+04 7.506e-09
 67.67487     12.2 2.332e+04 2.133e-08
 67.68489     12.2 2.112e+04 4.241e-08
 67.69491     13.0 1.999e+04 6.196e-08
 67.70311     14.3 1.959e+04 6.598e-08
 67.70812     13.5 1.946e+04 5.676e-08
 67.71495     15.3 1.936e+04 5.764e-08
 67.72497     17.0 1.951e+04 5.292e-08
 67.73499     18.4 1.966e+04 3.941e-08
 67.75007     18.7 1.980e+04 1.766e-08
 67.77016     17.3 2.074e+04 3.990e-09
 67.78964     10.1 1.716e+04 9.285e-10
 67.79966     15.0 1.949e+04 1.629e-09
 67.81024      7.5 1.352e+04 6.136e-10
 67.83028      6.0 1.148e+04 4.864e-10
 67.85032      6.7 1.168e+04 4.350e-10
 67.87036      7.2 1.179e+04 4.404e-10
 67.88609      7.1 1.196e+04 4.549e-10
 67.89611      6.9 1.177e+04 4.253e-10
 67.90292      6.6 1.196e+04 4.858e-10
 67.91294      6.7 1.205e+04 4.838e-10
 67.93048      6.3 1.219e+04 5.810e-10
 67.95052      6.0 1.233e+04 6.934e-10
 67.97056      5.2 1.275e+04 8.642e-10
 67.98254      3.3 1.355e+04 1.179e-09
 67.99256      3.2 1.363e+04 1.425e-09
 68.01064      1.0 1.429e+04 2.155e-09
 68.03068     -0.5 1.429e+04 2.965e-09
 68.05071     -1.4 1.400e+04 2.958e-09
 68.06897     -1.3 1.334e+04 2.553e-09
 68.07899     -1.2 1.344e+04 2.423e-09
 68.09079     -2.0 1.299e+04 1.769e-09
 68.11083     -3.6 1.272e+04 1.253e-09
 68.13087     -5.3 1.235e+04 9.925e-10
 68.15091     -6.7 1.199e+04 9.248e-10
 68.16249     -7.2 1.182e+04 9.248e-10
 68.16697     -6.9 1.162e+04 8.059e-10
 68.17544     -6.4 1.187e+04 9.983e-10
 68.19099     -6.8 1.181e+04 1.035e-09
 68.21103     -7.0 1.171e+04 1.014e-09
 68.23107     -6.8 1.145e+04 9.330e-10
 68.25111     -6.8 1.125e+04 8.311e-10
 68.26187     -6.4 1.083e+04 6.368e-10
 68.27189     -6.4 1.096e+04 6.810e-10
 68.29119     -6.9 1.076e+04 5.399e-10
 68.32135     -7.0 1.048e+04 4.007e-10
 68.36152     -6.4 1.001e+04 2.530e-10
 68.40160     -5.8 9.684e+03 2.215e-10
 68.42225     -4.8 9.674e+03 2.333e-10
 68.43553     -4.2 9.508e+03 2.049e-10
 68.45496     -4.2 9.515e+03 2.265e-10
 68.48176     -3.1 9.521e+03 2.554e-10
 68.52184     -1.8 9.698e+03 3.036e-10
 68.56192     -0.6 9.887e+03 3.749e-10
 68.60200      0.7 1.000e+04 4.444e-10
 68.62782      2.2 1.013e+04 5.107e-10
 68.64786      2.8 9.505e+03 3.204e-10
 68.68216      4.6 9.460e+03 3.134e-10
 68.72224      6.4 9.398e+03 3.018e-10
 68.76232      8.3 9.341e+03 2.852e-10
 68.80068     10.2 9.367e+03 2.887e-10
 68.82072     11.2 9.248e+03 2.748e-10
 68.84248     13.5 9.390e+03 3.013e-10
 68.88256     16.2 9.631e+03 3.372e-10
 68.92134     18.8 9.747e+03 3.590e-10
 68.94138     19.5 9.843e+03 4.051e-10
 68.95260     21.0 9.835e+03 4.178e-10
 68.97254     22.4 9.927e+03 4.580e-10
 68.99258     23.9 1.014e+04 5.170e-10
 69.00340     25.4 1.051e+04 5.974e-10
 69.01342     26.2 1.063e+04 7.164e-10
 69.03266     27.0 1.134e+04 8.688e-10
 69.05270     26.3 1.304e+04 1.364e-09
 69.07274     24.5 1.501e+04 2.777e-09
 69.08983     24.4 1.652e+04 5.995e-09
 69.09985     26.3 1.730e+04 6.568e-09
 69.11282     26.8 1.897e+04 1.233e-08
 69.12780     26.1 1.962e+04 1.938e-08
 69.13777     26.0 2.012e+04 2.937e-08
 69.14297     26.2 2.053e+04 4.237e-08
 69.14798     27.0 2.078e+04 4.709e-08
 69.15781     27.5 2.099e+04 6.873e-08
 69.16783     27.8 2.120e+04 8.997e-08
 69.17785     28.0 2.176e+04 9.248e-08
 69.18618     27.7 2.230e+04 8.730e-08
 69.19119     28.9 2.229e+04 1.294e-07
 69.19564     28.0 2.279e+04 1.151e-07
 69.20065     26.4 2.287e+04 8.345e-08
 69.20791     25.1 2.398e+04 6.274e-08
 69.21793     23.0 2.447e+04 4.132e-08
 69.22795     20.6 2.367e+04 2.593e-08
 69.23441     17.7 2.213e+04 1.672e-08
 69.23942     19.5 2.316e+04 2.812e-08
 69.24799     17.2 2.210e+04 1.868e-08
 69.25801     14.7 2.140e+04 1.333e-08
 69.27266      7.4 2.010e+04 6.943e-09
 69.28268      9.6 2.204e+04 1.011e-08
 69.29312      3.1 2.158e+04 8.745e-09
 69.31321     -8.0 1.789e+04 5.816e-09
 69.33325    -14.5 1.587e+04 5.281e-09
 69.35329    -17.4 1.517e+04 5.096e-09
 69.36916    -18.9 1.461e+04 4.700e-09
 69.37918    -20.4 1.567e+04 5.795e-09
 69.39337    -21.5 1.540e+04 4.627e-09
 69.41341    -22.7 1.479e+04 3.373e-09
 69.43345    -24.4 1.371e+04 2.365e-09
 69.45029    -25.8 1.241e+04 1.691e-09
 69.46031    -25.3 1.166e+04 1.316e-09
 69.46561    -25.6 1.112e+04 1.109e-09
 69.47563    -27.1 1.137e+04 1.172e-09
 69.49357    -26.6 1.122e+04 1.068e-09
 69.51361    -26.0 1.107e+04 9.881e-10
 69.53365    -25.4 1.084e+04 9.310e-10
 69.55204    -24.4 1.059e+04 9.120e-10
 69.56206    -25.5 1.078e+04 9.904e-10
 69.57373    -24.2 1.062e+04 9.170e-10
 69.59377    -22.3 1.057e+04 8.974e-10
 69.61381    -22.1 1.053e+04 8.826e-10
 69.64396    -19.6 1.001e+04 6.916e-10
 69.68414    -17.3 9.404e+03 4.632e-10
 69.72422    -15.6 9.017e+03 3.255e-10
 69.74513    -14.1 8.769e+03 2.564e-10
 69.76517    -15.2 9.434e+03 3.356e-10
 69.80438    -14.0 8.972e+03 3.709e-10
 69.84446    -12.5 9.245e+03 4.506e-10
 69.88454    -10.5 9.454e+03 4.761e-10
 69.91799     -8.7 9.560e+03 4.653e-10
 69.93803    -10.1 1.098e+04 7.595e-10
 69.95959     -9.2 1.108e+04 6.903e-10
 69.97963     -9.3 1.172e+04 9.683e-10
 70.00477     -9.1 1.184e+04 1.046e-09
 70.04485     -9.1 1.217e+04 1.375e-09
 70.08493     -7.9 1.233e+04 1.693e-09
 70.11089     -6.3 1.218e+04 1.576e-09
 70.12081     -6.4 1.315e+04 3.339e-09
 70.13484     -5.8 1.305e+04 2.919e-09
 70.16499     -4.9 1.260e+04 2.041e-09
 70.20517     -4.1 1.175e+04 1.277e-09
 70.24525     -2.8 1.100e+04 8.303e-10
 70.28375     -1.3 1.047e+04 5.752e-10
 70.30379     -1.5 1.057e+04 5.749e-10
 70.32541     -0.1 1.030e+04 4.338e-10
 70.36549      1.7 1.035e+04 4.037e-10
 70.39012      2.9 1.034e+04 3.564e-10
 70.40005      2.8 1.035e+04 3.630e-10
 70.41539      2.9 1.037e+04 3.598e-10
 70.43543      3.1 1.058e+04 3.863e-10
 70.45547      3.0 1.085e+04 4.481e-10
 70.47551      3.1 1.099e+04 5.480e-10
 70.48648      3.5 1.112e+04 6.645e-10
 70.48949      3.3 1.146e+04 8.398e-10
 70.49857      3.0 1.141e+04 8.120e-10
 70.51559      3.7 1.161e+04 8.882e-10
 70.53563      4.2 1.175e+04 8.925e-10
 70.55567      4.4 1.181e+04 8.761e-10
 70.57290      4.6 1.192e+04 8.373e-10
 70.58292      4.3 1.236e+04 1.038e-09
 70.59575      4.6 1.246e+04 9.604e-10
 70.61579      4.7 1.250e+04 9.208e-10
 70.63583      5.1 1.241e+04 8.044e-10
 70.65587      5.2 1.243e+04 7.902e-10
 70.66935      5.8 1.235e+04 7.042e-10
 70.68949      5.8 1.286e+04 9.119e-10
 70.72620      6.7 1.270e+04 7.857e-10
 70.76628      8.1 1.236e+04 6.350e-10
 70.80636      9.7 1.200e+04 4.749e-10
 70.84241     11.3 1.159e+04 3.424e-10
 70.86245     11.3 1.270e+04 5.675e-10
 70.88652     12.9 1.224e+04 4.046e-10
 70.92660     14.4 1.182e+04 2.930e-10
 70.96668     16.0 1.146e+04 2.484e-10
 70.99785     17.7 1.124e+04 2.462e-10
 71.01789     17.7 1.208e+04 2.762e-10
 71.03531     19.2 1.170e+04 2.723e-10
 71.05535     19.0 1.431e+04 6.258e-10
 71.08692     20.3 1.455e+04 4.865e-10
 71.12699     21.5 1.434e+04 3.925e-10
 71.16707     22.8 1.358e+04 3.466e-10
 71.20715     24.3 1.261e+04 3.429e-10
 71.22821     26.0 1.241e+04 3.777e-10
 71.23813     25.3 1.425e+04 5.002e-10
 71.25706     26.3 1.303e+04 4.525e-10
 71.26724     26.9 1.267e+04 4.413e-10
 71.27726     26.5 1.345e+04 4.319e-10
 71.29714     27.2 1.295e+04 4.478e-10
 71.31444     27.7 1.273e+04 4.780e-10
 71.32446     27.0 1.415e+04 7.402e-10
 71.33722     27.6 1.358e+04 7.666e-10
 71.36737     28.9 1.298e+04 7.931e-10
 71.40107     30.1 1.309e+04 9.706e-10
 71.42101     29.6 1.401e+04 1.429e-09
 71.43741     29.5 1.420e+04 1.635e-09
 71.45745     29.5 1.440e+04 1.949e-09
 71.47749     29.5 1.452e+04 2.331e-09
 71.49732     29.7 1.460e+04 2.658e-09
 71.50734     28.8 1.547e+04 3.903e-09
 71.51679     28.6 1.551e+04 3.825e-09
 71.52680     29.1 1.588e+04 4.502e-09
 71.53761     28.4 1.591e+04 4.418e-09
 71.55765     26.7 1.605e+04 4.556e-09
 71.57769     24.7 1.616e+04 5.085e-09
 71.59377     23.2 1.627e+04 5.981e-09
 71.60379     22.0 1.601e+04 6.046e-09
 71.61777     22.0 1.586e+04 5.726e-09
 71.63781     21.9 1.575e+04 4.952e-09
 71.65785     21.4 1.566e+04 3.904e-09
 71.67789     20.1 1.531e+04 3.020e-09
 71.69022     18.8 1.468e+04 2.516e-09
 71.70024     18.0 1.398e+04 1.703e-09
 71.71797     17.9 1.368e+04 1.727e-09
 71.73801     18.1 1.353e+04 1.751e-09
 71.75805     18.7 1.341e+04 1.765e-09
 71.77635     19.5 1.324e+04 1.719e-09
 71.78493     19.4 1.303e+04 1.535e-09
 71.78667     19.6 1.291e+04 1.199e-09
 71.79813     20.5 1.288e+04 1.070e-09
 71.81817     21.2 1.290e+04 9.204e-10
 71.83821     21.8 1.292e+04 7.768e-10
 71.85825     22.2 1.291e+04 6.543e-10
 71.87310     22.5 1.281e+04 5.582e-10
 71.88312     22.9 1.263e+04 5.199e-10
 71.89833     23.1 1.249e+04 4.731e-10
 71.91836     23.1 1.245e+04 4.730e-10
 71.93840     22.8 1.255e+04 4.958e-10
 71.95844     21.7 1.284e+04 5.882e-10
 71.96955     20.4 1.309e+04 8.324e-10
 71.97957     20.2 1.323e+04 9.415e-10
 71.99852     20.0 1.333e+04 1.465e-09
 72.01856     20.1 1.354e+04 1.935e-09
 72.03591     20.1 1.376e+04 2.007e-09
 72.04593     20.1 1.342e+04 1.536e-09
 72.05598     19.2 1.394e+04 1.487e-09
 72.06600     16.8 1.596e+04 2.323e-09
 72.07868     13.4 1.673e+04 3.023e-09
 72.09872     10.9 1.632e+04 3.726e-09
 72.11876      9.1 1.569e+04 4.080e-09
 72.13880      7.2 1.576e+04 3.946e-09
 72.15243      4.7 1.637e+04 3.707e-09
 72.16245      2.8 1.859e+04 6.692e-09
 72.17888     -0.5 1.781e+04 5.767e-09
 72.19892     -2.9 1.652e+04 5.308e-09
 72.21896     -4.3 1.565e+04 4.700e-09
 72.23886     -5.5 1.557e+04 4.476e-09
 72.24888     -7.6 1.554e+04 4.528e-09
 72.25904     -9.5 1.576e+04 4.727e-09
 72.27908    -12.3 1.614e+04 5.744e-09
 72.29548    -13.5 1.618e+04 8.017e-09
 72.30550    -13.4 1.581e+04 6.403e-09
 72.31916    -12.9 1.590e+04 8.859e-09
 72.33531    -11.7 1.558e+04 8.834e-09
 72.34533    -11.2 1.501e+04 6.950e-09
 72.35924     -9.5 1.454e+04 5.160e-09
 72.37928     -8.7 1.422e+04 3.013e-09
 72.39932     -9.3 1.391e+04 1.279e-09
 72.41936    -11.6 1.341e+04 7.067e-10
 72.44951    -13.4 1.181e+04 3.725e-10
 72.48969    -12.5 1.129e+04 3.427e-10
 72.51838    -10.8 1.139e+04 3.957e-10
 72.53842     -9.9 1.135e+04 3.869e-10
 72.55524     -8.8 1.157e+04 4.862e-10
 72.56516     -8.9 1.154e+04 4.641e-10
 72.57967     -8.5 1.162e+04 5.307e-10
 72.60983     -7.2 1.175e+04 7.000e-10
 72.65001     -5.4 1.209e+04 9.787e-10
 72.69009     -3.6 1.237e+04 1.143e-09
 72.71118     -2.7 1.247e+04 1.183e-09
 72.72110     -2.7 1.237e+04 1.093e-09
 72.73999     -2.1 1.234e+04 1.021e-09
 72.76003     -1.5 1.228e+04 9.352e-10
 72.78007     -0.9 1.223e+04 8.460e-10
 72.79751     -0.4 1.221e+04 7.640e-10
 72.80753     -0.1 1.199e+04 6.411e-10
 72.81461      0.3 1.199e+04 5.710e-10
 72.82463      0.6 1.189e+04 4.913e-10
 72.84019      1.2 1.176e+04 4.442e-10
 72.86023      1.5 1.176e+04 4.415e-10
 72.88027      1.9 1.178e+04 4.561e-10
 72.89396      2.2 1.185e+04 4.993e-10
 72.90398      2.7 1.156e+04 3.824e-10
 72.92035      3.1 1.166e+04 4.410e-10
 72.94039      3.3 1.190e+04 5.417e-10
 72.96043      3.2 1.227e+04 7.435e-10
 72.98039      3.4 1.265e+04 1.056e-09
 73.00043      4.9 1.240e+04 9.272e-10
 73.02055      5.5 1.268e+04 1.196e-09
 73.04058      6.3 1.279e+04 1.328e-09
 73.06062      7.3 1.280e+04 1.330e-09
 73.07417      8.3 1.283e+04 1.184e-09
 73.08037      8.6 1.287e+04 1.326e-09
 73.08686      9.4 1.266e+04 1.176e-09
 73.10070     10.0 1.280e+04 1.127e-09
 73.12074     10.8 1.282e+04 9.677e-10
 73.14078     10.9 1.282e+04 9.225e-10
 73.16082     11.4 1.282e+04 8.289e-10
 73.17329     11.5 1.281e+04 7.986e-10
 73.18331     12.4 1.282e+04 8.952e-10
 73.20090     12.9 1.289e+04 9.399e-10
 73.22094     13.2 1.295e+04 9.932e-10
 73.24098     13.3 1.305e+04 1.111e-09
 73.25972     13.5 1.307e+04 1.176e-09
 73.26974     14.4 1.337e+04 1.353e-09
 73.28106     14.2 1.333e+04 1.425e-09
 73.30110     13.9 1.339e+04 1.557e-09
 73.32114     13.8 1.331e+04 1.635e-09
 73.33373     13.2 1.318e+04 1.574e-09
 73.34375     13.6 1.345e+04 1.748e-09
 73.35617     13.0 1.324e+04 1.586e-09
 73.36619     13.5 1.424e+04 2.927e-09
 73.38126     13.1 1.386e+04 2.365e-09
 73.41142     11.4 1.254e+04 9.575e-10
 73.44280      9.3 1.129e+04 4.010e-10
 73.46283     12.1 1.286e+04 6.098e-10
 73.49167      7.6 1.048e+04 2.462e-10
 73.53175      7.5 1.006e+04 2.206e-10
 73.57183      8.6 9.994e+03 2.197e-10
 73.59349     10.1 1.004e+04 2.504e-10
 73.61353     10.4 9.931e+03 2.271e-10
 73.63569     12.1 9.987e+03 2.810e-10
 73.65573     12.1 9.910e+03 2.772e-10
 73.69207     14.1 1.008e+04 3.578e-10
 73.73215     15.8 1.027e+04 4.403e-10
 73.76211     16.7 1.061e+04 5.667e-10
 73.78205     17.1 1.076e+04 6.350e-10
 73.80846     18.0 1.120e+04 7.999e-10
 73.82850     18.5 1.092e+04 7.081e-10
 73.85229     19.8 1.071e+04 6.458e-10
 73.89246     21.3 1.090e+04 7.384e-10
 73.93254     22.5 1.103e+04 7.772e-10
 73.97262     23.7 1.122e+04 8.384e-10
 74.00145     24.9 1.176e+04 1.033e-09
 74.02149     25.9 1.152e+04 8.813e-10
 74.04266     26.2 1.184e+04 1.001e-09
 74.06261     25.8 1.240e+04 1.285e-09
 74.08265     24.9 1.327e+04 1.987e-09
 74.09771     24.0 1.431e+04 3.401e-09
 74.10745     24.1 1.466e+04 3.670e-09
 74.11243     25.9 1.341e+04 2.123e-09
 74.12273     25.4 1.466e+04 3.849e-09
 74.14276     24.4 1.643e+04 7.400e-09
 74.16280     22.5 1.863e+04 1.401e-08
 74.17779     20.6 2.018e+04 2.376e-08
 74.18776     19.8 2.087e+04 3.434e-08
 74.19406     19.7 2.145e+04 4.692e-08
 74.19907     20.4 2.183e+04 5.773e-08
 74.20780     20.0 2.295e+04 7.137e-08
 74.21782     18.4 2.283e+04 6.568e-08
 74.22784     18.0 2.196e+04 4.247e-08
 74.23710     17.5 2.113e+04 2.314e-08
 74.24153     18.0 2.166e+04 2.994e-08
 74.24228     18.3 2.178e+04 3.077e-08
 74.24788     17.4 2.125e+04 1.687e-08
 74.26295     12.1 1.939e+04 6.139e-09
 74.28059      5.9 1.496e+04 3.381e-09
 74.29061      7.9 1.625e+04 2.834e-09
 74.30308      5.5 1.323e+04 2.097e-09
 74.32312      5.8 1.272e+04 1.806e-09
 74.34316      6.3 1.268e+04 1.667e-09
 74.36197      7.0 1.226e+04 1.404e-09
 74.37199      6.8 1.231e+04 1.447e-09
 74.37703      6.7 1.210e+04 1.330e-09
 74.38715      6.7 1.164e+04 1.054e-09
 74.41350      8.4 1.107e+04 8.311e-10
 74.45357      9.6 1.066e+04 6.451e-10
 74.49365     10.7 1.043e+04 5.387e-10
 74.52362     11.3 1.032e+04 5.070e-10
 74.54356     11.3 1.033e+04 5.107e-10
 74.55991     10.9 1.041e+04 5.427e-10
 74.56993     11.2 1.042e+04 5.283e-10
 74.58364     10.1 1.075e+04 6.540e-10
 74.60368      8.6 1.132e+04 9.347e-10
 74.62154      7.5 1.183e+04 1.405e-09
 74.63156      7.7 1.140e+04 1.142e-09
 74.64376      8.0 1.168e+04 1.554e-09
 74.65636      8.3 1.176e+04 1.663e-09
 74.66638      8.6 1.160e+04 1.563e-09
 74.68384      9.2 1.150e+04 1.466e-09
 74.70387      9.1 1.133e+04 1.187e-09
 74.73287      8.1 1.098e+04 8.092e-10
 74.75291      7.6 1.069e+04 6.850e-10
 74.77411      7.2 1.020e+04 5.409e-10
 74.81429      7.1 1.004e+04 5.236e-10
 74.85437      7.3 1.008e+04 5.501e-10
 74.89445      7.7 1.013e+04 5.761e-10
 74.92587      8.3 1.016e+04 5.845e-10
 74.94591      8.0 1.091e+04 9.054e-10
 74.97461      8.8 1.082e+04 8.722e-10
 75.01468      9.1 1.105e+04 8.837e-10
 75.05476      9.3 1.134e+04 9.228e-10
 75.09484      9.5 1.186e+04 1.100e-09
 75.11867      8.9 1.243e+04 1.403e-09
 75.12859      7.7 1.288e+04 1.936e-09
 75.14067      8.0 1.295e+04 2.155e-09
 75.15068      8.8 1.225e+04 1.721e-09
 75.16479      9.4 1.227e+04 1.731e-09
 75.18483     10.1 1.240e+04 1.830e-09
 75.20487     10.9 1.256e+04 1.843e-09
 75.21502     11.5 1.268e+04 1.773e-09
 75.22504     10.7 1.203e+04 1.271e-09
 75.24494     10.9 1.204e+04 1.267e-09
 75.26498     11.1 1.205e+04 1.296e-09
 75.28502     11.4 1.211e+04 1.404e-09
 75.30145     11.9 1.234e+04 1.638e-09
 75.31147     11.1 1.164e+04 1.229e-09
 75.32510     12.0 1.202e+04 1.533e-09
 75.34514     13.1 1.240e+04 1.881e-09
 75.36518     14.4 1.276e+04 2.216e-09
 75.38522     15.5 1.331e+04 2.575e-09
 75.39790     15.9 1.407e+04 3.108e-09
 75.40289     14.6 1.442e+04 2.693e-09
 75.41025     16.5 1.183e+04 1.232e-09
 75.42530     16.3 1.316e+04 1.557e-09
 75.44028     16.3 1.381e+04 1.952e-09
 75.44603     14.5 1.614e+04 2.619e-09
 75.45104     11.3 1.881e+04 2.926e-09
 75.46027     -3.1 2.940e+04 1.081e-08
 75.47029    -11.1 2.741e+04 4.454e-08
 75.48031    -15.5 2.336e+04 1.329e-07
 75.48924    -18.9 2.259e+04 2.933e-07
 75.49425    -19.2 2.301e+04 3.127e-07
 75.50035    -27.8 2.873e+04 3.166e-07
 75.51037    -45.6 3.748e+04 1.407e-07
 75.52039    -67.9 2.967e+04 6.325e-08
 75.52991    -76.9 2.222e+04 4.625e-08
 75.53492    -77.6 2.445e+04 4.767e-08
 75.53747    -81.6 2.256e+04 3.707e-08
 75.54248    -82.4 2.363e+04 4.649e-08
 75.55045    -84.4 2.429e+04 2.634e-08
 75.56047    -88.4 2.421e+04 9.800e-09
 75.57049    -94.0 2.187e+04 4.240e-09
 75.58073   -100.1 1.853e+04 2.161e-09
 75.59080   -104.7 1.748e+04 1.265e-09
 75.60566   -112.9 1.177e+04 5.608e-10
 75.62570   -114.6 1.101e+04 4.975e-10
 75.64574   -115.9 1.110e+04 5.055e-10
 75.65979   -117.8 1.148e+04 6.682e-10
 75.66981   -118.2 1.130e+04 5.505e-10
 75.67723   -119.5 1.168e+04 8.625e-10
 75.68725   -119.4 1.166e+04 8.604e-10
 75.70586   -120.1 1.202e+04 1.218e-09
 75.72590   -120.7 1.222e+04 1.429e-09
 75.74594   -121.5 1.225e+04 1.470e-09
 75.76366   -122.3 1.198e+04 1.348e-09
 75.77368   -122.3 1.199e+04 1.358e-09
 75.78602   -123.0 1.150e+04 1.040e-09
 75.80605   -123.9 1.097e+04 7.321e-10
 75.82609   -124.9 1.046e+04 5.100e-10
 75.85019   -126.0 9.948e+03 3.574e-10
 75.87022   -126.1 9.884e+03 3.531e-10
 75.89633   -126.3 9.695e+03 3.108e-10
 75.93651   -126.4 9.258e+03 2.277e-10
 75.97659   -125.6 8.874e+03 1.628e-10
 76.01667   -124.5 8.623e+03 1.194e-10
 76.04318   -123.3 8.464e+03 8.942e-11
 76.06322   -123.4 8.624e+03 1.156e-10
 76.09682   -122.1 8.506e+03 8.757e-11
 76.13690   -120.7 8.447e+03 7.071e-11
 76.16910   -119.4 8.439e+03 6.433e-11
 76.18914   -119.4 8.449e+03 6.394e-11
 76.21604   -118.0 8.442e+03 6.235e-11
 76.23608   -118.4 8.676e+03 9.873e-11
 76.25714   -117.3 8.707e+03 1.013e-10
 76.29722   -116.1 8.741e+03 1.093e-10
 76.33730   -114.9 8.752e+03 1.201e-10
 76.37738   -113.6 8.754e+03 1.278e-10
 76.40894   -112.1 8.742e+03 1.292e-10
 76.42898   -112.5 8.937e+03 1.671e-10
 76.45754   -110.8 8.870e+03 1.467e-10
 76.49762   -109.1 8.788e+03 1.225e-10
 76.53770   -107.5 8.764e+03 1.023e-10
 76.57778   -105.9 8.823e+03 9.370e-11
 76.60184   -104.2 8.854e+03 9.300e-11
 76.62188   -105.1 9.181e+03 1.271e-10
 76.65793   -103.6 9.322e+03 1.496e-10
 76.68823   -102.1 9.480e+03 1.885e-10
 76.70827   -102.1 9.878e+03 2.965e-10
 76.73809   -100.6 1.009e+04 3.730e-10
 76.77470    -99.2 1.031e+04 4.623e-10
 76.79474   -100.2 1.066e+04 6.178e-10
 76.81825    -98.9 1.080e+04 6.899e-10
 76.85833    -97.7 1.089e+04 7.384e-10
 76.89841    -96.6 1.092e+04 7.556e-10
 76.93849    -95.4 1.087e+04 7.396e-10
 76.96760    -94.2 1.070e+04 6.507e-10
 76.98764    -95.0 1.046e+04 5.388e-10
 77.01865    -93.6 1.023e+04 4.385e-10
 77.05873    -92.3 1.009e+04 3.736e-10
 77.09881    -91.0 1.005e+04 3.465e-10
 77.13889    -89.8 1.005e+04 3.392e-10
 77.16050    -88.8 1.016e+04 3.553e-10
 77.18054    -88.9 1.003e+04 3.139e-10
 77.20735    -87.9 1.015e+04 3.372e-10
 77.22739    -88.0 1.002e+04 2.828e-10
 77.25912    -87.0 1.009e+04 2.926e-10
 77.29920    -86.1 1.017e+04 3.076e-10
 77.33335    -85.3 1.026e+04 3.314e-10
 77.35339    -84.5 1.012e+04 2.647e-10
 77.37936    -83.6 1.026e+04 3.062e-10
 77.41944    -82.5 1.039e+04 3.493e-10
 77.45952    -81.2 1.046e+04 3.681e-10
 77.49960    -79.6 1.047e+04 3.233e-10
 77.52625    -78.0 1.029e+04 2.080e-10
 77.54629    -77.4 1.054e+04 3.018e-10
 77.57976    -75.9 1.034e+04 1.897e-10
 77.61984    -74.5 1.018e+04 1.037e-10
 77.65992    -73.6 1.010e+04 6.025e-11
 77.69911    -72.7 9.931e+03 4.826e-11
 77.71915    -72.2 1.006e+04 7.474e-11
 77.72648    -71.2 9.966e+03 6.821e-11
 77.74652    -70.4 1.008e+04 7.570e-11
 77.78015    -69.2 1.004e+04 7.296e-11
 77.82023    -68.1 1.002e+04 7.313e-11
 77.86031    -67.1 1.001e+04 7.683e-11
 77.89201    -66.0 9.987e+03 8.565e-11
 77.91205    -65.6 1.009e+04 1.015e-10
 77.94047    -64.7 1.007e+04 1.041e-10
 77.98055    -63.8 1.014e+04 1.228e-10
 78.02063    -63.0 1.025e+04 1.598e-10
 78.06071    -62.3 1.036e+04 2.189e-10
 78.08491    -61.7 1.046e+04 2.885e-10
 78.10495    -61.7 1.055e+04 2.934e-10
 78.14087    -61.4 1.074e+04 3.714e-10
 78.18095    -61.2 1.082e+04 4.236e-10
 78.22103    -61.0 1.084e+04 4.390e-10
 78.24561    -60.5 1.064e+04 3.588e-10
 78.26232    -60.5 1.066e+04 3.711e-10
 78.27781    -60.9 1.094e+04 4.694e-10
 78.30118    -60.0 1.065e+04 3.397e-10
 78.34126    -59.2 1.041e+04 2.458e-10
 78.38134    -58.1 1.026e+04 1.981e-10
 78.42142    -56.7 1.020e+04 1.707e-10
 78.45067    -55.1 1.019e+04 1.582e-10
 78.47071    -55.1 1.016e+04 1.241e-10
 78.50158    -53.3 1.018e+04 1.233e-10
 78.54166    -51.5 1.023e+04 1.314e-10
 78.58174    -49.6 1.024e+04 1.429e-10
 78.62182    -47.5 1.023e+04 1.504e-10
 78.64357    -45.3 1.019e+04 1.499e-10
 78.66361    -44.8 1.015e+04 1.314e-10
 78.70198    -42.5 1.008e+04 1.244e-10
 78.74206    -40.0 1.009e+04 1.057e-10
 78.76474    -37.8 1.019e+04 8.234e-11
 78.78478    -37.7 1.019e+04 1.035e-10
 78.81643    -35.8 1.020e+04 8.867e-11
 78.83647    -35.2 1.008e+04 9.604e-11
 78.86229    -33.6 1.009e+04 9.081e-11
 78.90237    -31.8 9.886e+03 1.093e-10
 78.94245    -29.7 9.726e+03 1.371e-10
 78.98253    -27.3 9.676e+03 1.563e-10
 79.00933    -25.2 9.856e+03 1.630e-10
 79.02937    -24.7 9.711e+03 1.639e-10
 79.06269    -23.1 9.819e+03 1.903e-10
 79.10277    -20.8 9.807e+03 2.196e-10
 79.14285    -18.6 9.761e+03 2.167e-10
 79.18219    -16.2 9.621e+03 1.829e-10
 79.20223    -15.7 9.482e+03 1.830e-10
 79.22301    -13.4 9.410e+03 1.386e-10
 79.26309    -11.5 9.315e+03 1.082e-10
 79.28387     -9.8 9.189e+03 9.173e-11
 79.30391     -9.1 9.226e+03 9.394e-11
 79.34325     -7.0 9.177e+03 9.196e-11
 79.37508     -5.0 9.242e+03 9.635e-11
 79.39512     -4.3 9.096e+03 8.779e-11
 79.42340     -2.2 9.205e+03 1.019e-10
 79.46348     -0.3 9.370e+03 1.223e-10
 79.50356      1.4 9.672e+03 1.573e-10
 79.54364      3.0 9.954e+03 2.151e-10
 79.56798      4.4 1.022e+04 2.898e-10
 79.58802      5.4 1.001e+04 2.147e-10
 79.62380      6.7 1.026e+04 2.919e-10
 79.66388      8.1 1.055e+04 3.954e-10
 79.70396      9.6 1.094e+04 5.345e-10
 79.74084     11.0 1.138e+04 7.130e-10
 79.76088     11.9 1.136e+04 7.716e-10
 79.78296     13.4 1.188e+04 1.017e-09
 79.80300     13.5 1.152e+04 6.952e-10
 79.82420     14.7 1.183e+04 8.305e-10
 79.86428     15.7 1.185e+04 8.780e-10
 79.90436     16.9 1.165e+04 8.092e-10
 79.93374     18.0 1.129e+04 6.643e-10
 79.95378     19.1 1.140e+04 7.482e-10
 79.98451     20.1 1.102e+04 5.981e-10
 80.02459     20.9 1.069e+04 4.541e-10
 80.06467     21.5 1.036e+04 3.480e-10
 80.10475     21.7 1.008e+04 2.973e-10
 80.12664     21.7 1.002e+04 2.990e-10
 80.14668     22.5 9.805e+03 2.763e-10
 80.18491     22.4 9.754e+03 2.840e-10
 80.22499     22.5 9.714e+03 3.142e-10
 80.26507     22.7 9.668e+03 3.425e-10
 80.29950     23.1 9.625e+03 3.412e-10
 80.31648     24.0 9.367e+03 2.633e-10
 80.32213     24.0 9.428e+03 2.723e-10
 80.34523     24.4 9.253e+03 2.415e-10
 80.38531     24.9 9.137e+03 2.171e-10
 80.42539     25.6 9.160e+03 2.178e-10
 80.46547     26.5 9.365e+03 2.432e-10
 80.49240     27.6 9.718e+03 3.004e-10
 80.51244     28.6 9.142e+03 2.078e-10
 80.54562     29.9 9.560e+03 2.682e-10
 80.57157     30.5 9.706e+03 3.005e-10
 80.58149     30.2 9.913e+03 3.339e-10
 80.58865     30.5 1.021e+04 4.127e-10
 80.59867     31.4 9.846e+03 3.158e-10
 80.61557     31.8 1.017e+04 3.835e-10
 80.63561     31.9 1.053e+04 4.898e-10
 80.65565     32.0 1.096e+04 6.859e-10
 80.67508     32.2 1.137e+04 9.565e-10
 80.68510     33.5 1.101e+04 6.214e-10
 80.69573     33.6 1.143e+04 8.745e-10
 80.71577     33.8 1.172e+04 1.187e-09
 80.73581     34.3 1.192e+04 1.491e-09
 80.75585     34.8 1.199e+04 1.757e-09
 80.77153     35.2 1.208e+04 1.847e-09
 80.78155     35.9 1.225e+04 1.765e-09
 80.79592     35.8 1.255e+04 2.084e-09
 80.81596     34.9 1.317e+04 2.757e-09
 80.83104     33.4 1.417e+04 4.039e-09
 80.84106     34.9 1.378e+04 2.620e-09
 80.85604     34.0 1.476e+04 2.925e-09
 80.86798     33.0 1.515e+04 2.809e-09
 80.87800     34.8 1.612e+04 5.854e-09
 80.89612     34.2 1.614e+04 5.232e-09
 80.91616     33.2 1.565e+04 3.663e-09
 80.93620     31.5 1.427e+04 2.275e-09
 80.95441     29.7 1.252e+04 1.517e-09
 80.96443     31.5 1.380e+04 2.009e-09
 80.98640     28.6 1.181e+04 1.276e-09
 81.02658     28.1 1.165e+04 1.295e-09
 81.05106     28.3 1.168e+04 1.372e-09
 81.07110     28.7 1.170e+04 1.407e-09
 81.10673     29.1 1.176e+04 1.514e-09
 81.14681     29.7 1.173e+04 1.502e-09
 81.18689     30.6 1.146e+04 1.332e-09
 81.22391     31.8 1.090e+04 9.747e-10
 81.24395     32.1 1.080e+04 9.687e-10
 81.26705     32.9 1.023e+04 6.558e-10
 81.30713     33.2 9.685e+03 4.560e-10
 81.34034     33.7 9.493e+03 4.097e-10
 81.36038     34.2 9.839e+03 5.264e-10
 81.38729     34.9 9.883e+03 5.363e-10
 81.41681     35.4 1.011e+04 5.970e-10
 81.43685     36.3 9.439e+03 4.106e-10
 81.46745     36.4 9.835e+03 4.980e-10
 81.50753     36.3 1.032e+04 6.684e-10
 81.54761     36.1 1.065e+04 8.440e-10
 81.58769     35.5 1.070e+04 8.785e-10
 81.60971     34.7 1.047e+04 8.034e-10
 81.62975     35.7 1.064e+04 8.627e-10
 81.66784     34.6 1.016e+04 6.559e-10
 81.70792     32.6 9.499e+03 4.186e-10
 81.73789     30.8 9.237e+03 3.586e-10
 81.75783     29.7 9.239e+03 3.611e-10
 81.77787     28.0 9.426e+03 4.038e-10
 81.79240     26.7 9.787e+03 5.222e-10
 81.80242     27.2 9.765e+03 5.001e-10
 81.81795     26.4 1.016e+04 6.664e-10
 81.83799     25.9 1.057e+04 8.735e-10
 81.85803     25.7 1.092e+04 1.066e-09
 81.86930     25.4 1.119e+04 1.204e-09
 81.87932     24.3 1.141e+04 1.322e-09
 81.88885     23.9 1.158e+04 1.399e-09
 81.89887     24.8 1.128e+04 1.226e-09
 81.91814     24.3 1.144e+04 1.295e-09
 81.93818     22.4 1.244e+04 1.645e-09
 81.95316     18.0 1.568e+04 2.621e-09
 81.96314      9.2 2.104e+04 6.606e-09
 81.97316      6.0 2.004e+04 1.138e-08
 81.98019      6.6 1.818e+04 1.654e-08
 81.98520      6.6 1.865e+04 1.495e-08
 81.99320      7.0 1.817e+04 1.890e-08
 81.99898      7.2 1.828e+04 2.006e-08
 82.00399      6.6 1.824e+04 1.990e-08
 82.01829      9.1 1.757e+04 1.617e-08
 82.03838      8.5 1.817e+04 8.410e-09
 82.05842      1.7 2.193e+04 2.426e-09
 82.07172    -14.7 1.696e+04 1.165e-09
 82.08174    -15.1 2.209e+04 2.407e-09
 82.09850    -23.5 1.625e+04 2.547e-09
 82.11854    -24.8 1.508e+04 3.264e-09
 82.12886    -25.2 1.457e+04 3.353e-09
 82.13888    -24.5 1.439e+04 3.269e-09
 82.15815    -25.7 1.416e+04 2.243e-09
 82.16817    -23.9 1.447e+04 2.248e-09
 82.17866    -28.9 1.397e+04 1.280e-09
 82.19870    -36.1 1.376e+04 1.132e-09
 82.21874    -43.1 1.548e+04 2.454e-09
 82.23878    -46.5 1.655e+04 6.847e-09
 82.25460    -47.6 1.774e+04 1.282e-08
 82.26462    -49.4 1.783e+04 2.067e-08
 82.27380    -48.0 1.786e+04 2.815e-08
 82.28377    -46.7 1.807e+04 3.237e-08
 82.29379    -45.5 1.809e+04 3.337e-08
 82.30273    -44.4 1.863e+04 2.886e-08
 82.30774    -44.5 1.853e+04 3.214e-08
 82.31889    -44.2 1.940e+04 1.635e-08
 82.33898    -47.3 1.956e+04 5.225e-09
 82.35105    -54.6 1.562e+04 8.765e-10
 82.36107    -53.9 1.686e+04 1.869e-09
 82.37841    -58.7 1.190e+04 5.507e-10
 82.38843    -55.2 1.503e+04 1.448e-09
 82.39910    -58.8 1.075e+04 5.689e-10
 82.41914    -59.7 9.428e+03 4.135e-10
 82.43748    -59.4 9.423e+03 3.776e-10
 82.44750    -59.5 9.708e+03 5.160e-10
 82.45921    -58.9 9.680e+03 4.690e-10
 82.47925    -58.6 9.523e+03 4.162e-10
 82.50941    -58.1 9.366e+03 3.827e-10
 82.53413    -57.2 8.970e+03 3.060e-10
 82.55417    -56.9 9.643e+03 5.770e-10
 82.58967    -55.2 8.945e+03 3.935e-10
 82.62975    -53.8 8.519e+03 2.893e-10
 82.66983    -52.6 8.310e+03 2.318e-10
 82.70699    -51.8 8.294e+03 2.174e-10
 82.72703    -50.5 8.507e+03 2.799e-10
 82.74998    -49.8 8.647e+03 2.846e-10
 82.79006    -49.6 9.146e+03 3.642e-10
 82.83014    -49.1 9.623e+03 5.181e-10
 82.87022    -48.4 9.879e+03 6.534e-10
 82.89773    -47.9 9.915e+03 6.864e-10
 82.90735    -47.8 9.990e+03 7.289e-10
 82.91993    -45.7 9.964e+03 6.718e-10
 82.95038    -45.1 9.537e+03 5.299e-10
 82.99046    -44.6 8.989e+03 3.476e-10
 83.03054    -45.0 8.597e+03 2.287e-10
 83.07062    -46.3 8.442e+03 1.899e-10
 83.09278    -47.2 8.395e+03 1.851e-10
 83.11282    -44.9 8.363e+03 1.743e-10
 83.15078    -46.0 8.407e+03 1.829e-10
 83.19086    -47.0 8.578e+03 2.111e-10
 83.23094    -48.0 8.742e+03 2.300e-10
 83.26564    -49.5 8.902e+03 2.371e-10
 83.28568    -48.6 9.280e+03 3.103e-10
 83.31109    -50.6 9.676e+03 3.490e-10
 83.35117    -52.7 9.871e+03 3.715e-10
 83.39125    -54.4 9.975e+03 3.898e-10
 83.41686    -55.5 1.001e+04 4.013e-10
 83.43690    -55.7 1.013e+04 4.284e-10
 83.45854    -56.5 1.026e+04 4.780e-10
 83.46847    -56.1 1.022e+04 4.634e-10
 83.48124    -56.3 1.027e+04 4.777e-10
 83.50128    -56.7 1.029e+04 4.973e-10
 83.52132    -57.0 1.030e+04 5.148e-10
 83.54135    -57.4 1.033e+04 5.480e-10
 83.55480    -57.8 1.042e+04 5.869e-10
 83.56482    -57.6 1.046e+04 5.868e-10
 83.58143    -58.0 1.069e+04 6.661e-10
 83.60147    -58.5 1.094e+04 7.650e-10
 83.63130    -59.4 1.122e+04 9.020e-10
 83.65134    -59.5 1.134e+04 8.839e-10
 83.67171    -60.6 1.172e+04 1.049e-09
 83.71189    -62.1 1.220e+04 1.336e-09
 83.73777    -62.9 1.223e+04 1.343e-09
 83.74770    -63.1 1.214e+04 1.312e-09
 83.76179    -63.2 1.212e+04 1.325e-09
 83.78183    -63.4 1.210e+04 1.335e-09
 83.80187    -63.2 1.202e+04 1.329e-09
 83.82191    -62.8 1.185e+04 1.256e-09
 83.83413    -62.2 1.174e+04 1.176e-09
 83.84415    -63.2 1.154e+04 1.112e-09
 83.86199    -63.1 1.144e+04 1.042e-09
 83.88203    -63.4 1.147e+04 1.023e-09
 83.90207    -71.9 1.860e+04 9.329e-10
 83.91705    -96.3 3.210e+04 2.939e-09
 83.92547   -108.3 3.442e+04 7.836e-09
 83.93048   -111.4 3.198e+04 1.295e-08
 83.93569   -120.1 3.219e+04 3.024e-08
 83.94070   -118.5 3.055e+04 3.036e-08
 83.94706   -130.4 3.344e+04 3.832e-08
 83.95708   -147.3 3.513e+04 3.604e-08
 83.96710   -169.5 3.323e+04 1.679e-08
 83.97369   -190.0 2.264e+04 8.286e-09
 83.97870   -190.2 2.238e+04 7.898e-09
 83.98714   -198.5 1.961e+04 7.025e-09
 83.99716   -202.0 1.929e+04 6.924e-09
 84.00718   -205.0 1.882e+04 7.694e-09
 84.01691   -207.8 1.921e+04 9.233e-09
 84.02698   -211.0 2.103e+04 1.178e-08
 84.04235   -217.5 2.253e+04 1.881e-08
 84.06239   -223.4 2.280e+04 2.121e-08
 84.08243   -229.6 2.269e+04 2.104e-08
 84.10246   -236.1 2.183e+04 1.503e-08
 84.11345   -243.7 1.975e+04 8.209e-09
 84.12347   -250.0 1.493e+04 2.998e-09
 84.14254   -254.4 1.364e+04 2.262e-09
 84.16258   -256.5 1.341e+04 2.138e-09
 84.18262   -257.7 1.339e+04 2.123e-09
 84.19536   -258.4 1.347e+04 2.207e-09
 84.20260   -257.3 1.299e+04 1.686e-09
 84.20990   -256.7 1.183e+04 1.214e-09
 84.22270   -257.1 1.240e+04 1.366e-09
 84.24274   -257.5 1.296e+04 1.632e-09
 84.26278   -258.0 1.339e+04 1.969e-09
 84.28282   -258.3 1.364e+04 2.309e-09
 84.29633   -258.7 1.378e+04 2.562e-09
 84.30635   -258.7 1.349e+04 2.182e-09
 84.32290   -259.1 1.383e+04 2.550e-09
 84.34294   -259.4 1.412e+04 2.793e-09
 84.36298   -259.9 1.437e+04 2.848e-09
 84.38276   -260.9 1.452e+04 2.797e-09
 84.39278   -260.5 1.552e+04 3.954e-09
 84.40306   -262.4 1.624e+04 4.055e-09
 84.42310   -265.4 1.693e+04 3.997e-09
 84.44314   -269.5 1.735e+04 3.914e-09
 84.45492   -273.9 1.747e+04 3.865e-09
 84.46494   -275.3 1.870e+04 7.859e-09
 84.47921   -279.0 1.808e+04 6.658e-09
 84.48923   -278.1 1.877e+04 1.059e-08
 84.50326   -281.2 1.742e+04 7.427e-09
 84.52330   -283.4 1.585e+04 4.895e-09
 84.54334   -285.0 1.435e+04 3.149e-09
 84.56338   -285.9 1.313e+04 2.088e-09
 84.57566   -286.5 1.227e+04 1.502e-09
 84.58568   -286.0 1.257e+04 1.691e-09
 84.60346   -286.3 1.203e+04 1.302e-09
 84.62350   -286.4 1.156e+04 1.066e-09
 84.64353   -286.3 1.125e+04 9.239e-10
 84.66209   -286.0 1.100e+04 8.238e-10
 84.67211   -285.4 1.123e+04 8.919e-10
 84.68361   -284.7 1.099e+04 7.959e-10
 84.70365   -283.9 1.080e+04 7.239e-10
 84.71448   -283.2 1.067e+04 6.758e-10
 84.72450   -282.8 1.072e+04 6.526e-10
 84.74373   -282.2 1.061e+04 6.115e-10
 84.75854   -281.5 1.056e+04 5.943e-10
 84.76856   -280.4 1.060e+04 5.935e-10
 84.78381   -279.7 1.055e+04 5.849e-10
 84.80385   -278.9 1.055e+04 5.845e-10
 84.82389   -278.3 1.061e+04 6.117e-10
 84.84393   -277.7 1.078e+04 6.724e-10
 84.85499   -277.0 1.099e+04 7.363e-10
 84.86501   -276.0 1.128e+04 8.316e-10
 84.88401   -275.3 1.180e+04 1.001e-09
 84.90405   -274.7 1.234e+04 1.133e-09
 84.92409   -274.0 1.279e+04 1.181e-09
 84.94142   -273.4 1.294e+04 1.182e-09
 84.95144   -272.3 1.414e+04 2.130e-09
 84.96403   -271.6 1.436e+04 2.155e-09
 84.97405   -270.7 1.351e+04 1.452e-09
 84.98421   -270.3 1.364e+04 1.448e-09
 85.00425   -269.9 1.396e+04 1.285e-09
 85.02429   -270.0 1.363e+04 1.057e-09
 85.03787   -270.2 1.295e+04 8.650e-10
 85.04789   -268.0 1.523e+04 1.913e-09
 85.06437   -268.3 1.448e+04 1.433e-09
 85.08441   -268.5 1.343e+04 1.092e-09
 85.10445   -268.4 1.248e+04 8.738e-10
 85.12430   -268.2 1.187e+04 7.363e-10
 85.13432   -266.2 1.258e+04 1.131e-09
 85.14453   -266.0 1.179e+04 8.786e-10
 85.16457   -265.7 1.134e+04 7.166e-10
 85.18461   -265.0 1.111e+04 6.097e-10
 85.20464   -264.1 1.101e+04 5.409e-10
 85.22075   -263.2 1.097e+04 4.942e-10
 85.22968   -262.3 1.063e+04 6.406e-10
 85.23361   -262.6 1.056e+04 5.676e-10
 85.24472   -261.7 1.047e+04 5.164e-10
 85.26476   -260.7 1.042e+04 4.735e-10
 85.28480   -259.6 1.038e+04 4.325e-10
 85.30484   -258.4 1.033e+04 3.928e-10
 85.31720   -257.2 1.030e+04 3.599e-10
 85.32722   -256.8 1.061e+04 4.261e-10
 85.34492   -255.9 1.046e+04 3.880e-10
 85.36496   -254.9 1.032e+04 3.556e-10
 85.38500   -253.9 1.019e+04 3.316e-10
 85.40363   -252.9 1.010e+04 3.156e-10
 85.41365   -252.5 1.048e+04 3.520e-10
 85.42508   -251.7 1.035e+04 3.343e-10
 85.44512   -251.0 1.030e+04 3.251e-10
 85.46516   -250.3 1.029e+04 3.224e-10
 85.48316   -249.6 1.029e+04 3.220e-10
 85.49327   -250.4 1.012e+04 3.154e-10
 85.50027   -249.0 1.038e+04 3.254e-10
 85.51019   -248.7 1.056e+04 3.647e-10
 85.52528   -248.0 1.067e+04 3.886e-10
 85.54532   -247.3 1.078e+04 4.260e-10
 85.56536   -246.7 1.091e+04 4.740e-10
 85.58540   -246.0 1.113e+04 5.401e-10
 85.59653   -245.4 1.140e+04 6.224e-10
 85.60655   -245.3 1.147e+04 7.208e-10
 85.62548   -245.1 1.206e+04 9.043e-10
 85.64552   -245.2 1.290e+04 1.193e-09
 85.66556   -245.4 1.388e+04 1.607e-09
 85.68296   -245.5 1.481e+04 2.122e-09
 85.69298   -246.3 1.544e+04 4.165e-09
 85.70564   -246.1 1.626e+04 5.818e-09
 85.72568   -246.1 1.678e+04 6.896e-09
 85.74272   -246.9 1.691e+04 7.142e-09
 85.75274   -246.1 1.721e+04 8.996e-09
 85.76575   -247.0 1.724e+04 8.900e-09
 85.77941   -247.5 1.689e+04 7.110e-09
 85.78943   -247.2 1.724e+04 9.542e-09
 85.80583   -247.1 1.643e+04 6.202e-09
 85.82587   -247.5 1.566e+04 3.918e-09
 85.84591   -248.2 1.502e+04 2.705e-09
 85.86584   -248.7 1.452e+04 2.151e-09
 85.87586   -248.8 1.456e+04 2.525e-09
 85.88599   -248.9 1.420e+04 2.249e-09
 85.90603   -248.7 1.398e+04 2.145e-09
 85.92607   -248.3 1.380e+04 2.096e-09
 85.94611   -247.6 1.361e+04 2.026e-09
 85.96228   -246.8 1.337e+04 1.876e-09
 85.97230   -246.7 1.348e+04 2.274e-09
 85.98619   -246.1 1.326e+04 2.115e-09
 86.00229   -245.4 1.302e+04 1.820e-09
 86.01231   -245.5 1.330e+04 1.886e-09
 86.02627   -244.8 1.302e+04 1.535e-09
 86.04631   -244.3 1.273e+04 1.194e-09
 86.05873   -244.0 1.241e+04 9.239e-10
 86.06875   -243.6 1.312e+04 1.513e-09
 86.08639   -243.1 1.296e+04 1.194e-09
 86.10643   -242.7 1.269e+04 9.460e-10
 86.12647   -242.3 1.231e+04 7.768e-10
 86.14516   -241.9 1.191e+04 6.721e-10
 86.15518   -241.3 1.352e+04 1.179e-09
 86.16655   -240.7 1.317e+04 9.565e-10
 86.18659   -240.1 1.269e+04 7.960e-10
 86.20663   -239.5 1.218e+04 6.855e-10
 86.22667   -238.8 1.177e+04 6.093e-10
 86.24161   -238.0 1.148e+04 5.540e-10
 86.25163   -237.3 1.287e+04 8.364e-10
 86.26185   -236.6 1.241e+04 7.020e-10
 86.27187   -236.7 1.259e+04 7.924e-10
 86.28679   -235.8 1.205e+04 6.918e-10
 86.30682   -235.0 1.165e+04 6.274e-10
 86.32686   -234.1 1.139e+04 5.900e-10
 86.33806   -233.3 1.127e+04 5.757e-10
 86.34808   -232.3 1.236e+04 7.733e-10
 86.36694   -231.7 1.229e+04 7.569e-10
 86.38698   -231.3 1.228e+04 7.549e-10
 86.40702   -231.4 1.236e+04 7.773e-10
 86.42449   -232.3 1.326e+04 1.084e-09
 86.43451   -232.1 1.472e+04 1.720e-09
 86.44710   -233.2 1.615e+04 3.287e-09
 86.46714   -233.8 1.713e+04 5.660e-09
 86.48718   -234.6 1.762e+04 7.921e-09
 86.50722   -235.8 1.766e+04 8.845e-09
 86.52094   -237.3 1.758e+04 8.973e-09
 86.52511   -236.1 1.952e+04 1.791e-08
 86.53143   -236.1 1.796e+04 1.113e-08
 86.54730   -237.5 1.654e+04 7.927e-09
 86.56228   -238.3 1.523e+04 5.879e-09
 86.56907   -238.4 1.486e+04 5.356e-09
 86.57408   -238.3 1.493e+04 5.511e-09
 86.58733   -238.7 1.447e+04 4.736e-09
 86.60737   -238.8 1.390e+04 3.869e-09
 86.62741   -238.4 1.361e+04 3.367e-09
 86.64750   -237.3 1.283e+04 2.597e-09
 86.66754   -236.2 1.228e+04 2.155e-09
 86.68758   -235.1 1.196e+04 1.922e-09
 86.70382   -233.9 1.178e+04 1.797e-09
 86.71384   -233.9 1.176e+04 1.684e-09
 86.72766   -232.7 1.164e+04 1.631e-09
 86.74770   -231.5 1.153e+04 1.588e-09
 86.76774   -230.3 1.143e+04 1.526e-09
 86.78098   -229.0 1.130e+04 1.432e-09
 86.79100   -228.9 1.119e+04 1.232e-09
 86.80027   -227.7 1.109e+04 1.142e-09
 86.81029   -227.9 1.099e+04 1.090e-09
 86.82786   -226.7 1.087e+04 9.834e-10
 86.84790   -225.7 1.073e+04 8.566e-10
 86.86793   -224.7 1.057e+04 7.318e-10
 86.88670   -223.8 1.041e+04 6.250e-10
 86.89672   -224.1 1.039e+04 6.387e-10
 86.90801   -223.3 1.028e+04 5.617e-10
 86.92805   -222.6 1.027e+04 5.254e-10
 86.94809   -221.9 1.028e+04 5.192e-10
 86.96813   -221.2 1.035e+04 5.265e-10
 86.98315   -220.5 1.051e+04 5.789e-10
 86.99317   -221.0 1.111e+04 8.278e-10
 87.00821   -220.0 1.124e+04 9.698e-10
 87.02825   -219.0 1.133e+04 1.113e-09
 87.04054   -217.8 1.134e+04 1.217e-09
 87.05056   -218.7 1.164e+04 1.445e-09
 87.06833   -217.4 1.160e+04 1.449e-09
 87.07960   -216.0 1.143e+04 1.395e-09
 87.08962   -215.6 1.200e+04 1.928e-09
 87.10841   -214.3 1.174e+04 1.699e-09
 87.12845   -212.9 1.146e+04 1.443e-09
 87.14849   -211.6 1.136e+04 1.234e-09
 87.16603   -210.7 1.147e+04 1.142e-09
 87.17605   -210.1 1.142e+04 1.226e-09
 87.18857   -209.1 1.146e+04 1.122e-09
 87.20861   -208.7 1.150e+04 1.108e-09
 87.22865   -208.7 1.188e+04 1.120e-09
 87.24869   -209.6 1.374e+04 1.393e-09
 87.26248   -210.5 1.552e+04 2.340e-09
 87.27250   -207.9 1.309e+04 1.496e-09
 87.28877   -208.6 1.463e+04 2.456e-09
 87.30011   -208.8 1.573e+04 4.008e-09
 87.31013   -210.0 1.570e+04 4.871e-09
 87.32885   -209.8 1.593e+04 5.658e-09
 87.34889   -209.6 1.589e+04 5.803e-09
 87.36893   -207.7 1.573e+04 5.966e-09
 87.38897   -207.5 1.531e+04 5.251e-09
 87.40900   -207.3 1.456e+04 3.723e-09
 87.42904   -207.5 1.356e+04 2.329e-09
 87.44536   -207.8 1.238e+04 1.394e-09
 87.45538   -205.8 1.320e+04 2.092e-09
 87.46912   -206.1 1.206e+04 1.252e-09
 87.48916   -206.2 1.105e+04 7.843e-10
 87.50920   -206.0 1.034e+04 5.350e-10
 87.52924   -205.3 9.901e+03 3.998e-10
 87.54181   -203.7 9.691e+03 3.308e-10
 87.55183   -203.3 9.893e+03 3.956e-10
 87.55967   -201.9 9.700e+03 3.269e-10
 87.56969   -202.0 9.674e+03 3.188e-10
 87.59948   -199.9 9.660e+03 3.009e-10
 87.63966   -198.5 9.666e+03 2.731e-10
 87.67974   -196.8 9.521e+03 2.291e-10
 87.71486   -194.6 9.360e+03 1.877e-10
 87.73490   -192.9 9.675e+03 2.515e-10
 87.75989   -190.9 9.547e+03 2.148e-10
 87.79997   -188.7 9.444e+03 1.831e-10
 87.84005   -186.5 9.400e+03 1.603e-10
 87.88013   -184.3 9.404e+03 1.453e-10
 87.90776   -182.1 9.438e+03 1.359e-10
 87.92780   -180.9 9.622e+03 1.856e-10
 87.96029   -178.9 9.632e+03 1.739e-10
 88.00037   -176.9 9.655e+03 1.675e-10
 88.04045   -174.8 9.674e+03 1.652e-10
 88.06897   -172.7 9.680e+03 1.653e-10
 88.08901   -173.5 9.670e+03 1.643e-10
 88.12061   -170.7 1.011e+04 2.414e-10
 88.16069   -168.7 1.019e+04 2.612e-10
 88.20077   -166.6 1.028e+04 2.875e-10
 88.24085   -164.5 1.036e+04 3.131e-10
 88.27352   -162.4 1.042e+04 3.297e-10
 88.29356   -162.3 1.066e+04 3.834e-10
 88.32100   -160.2 1.071e+04 3.807e-10
 88.36108   -158.0 1.067e+04 3.637e-10
 88.40116   -155.7 1.057e+04 3.325e-10
 88.44124   -153.2 1.043e+04 3.002e-10
 88.46642   -150.6 1.030e+04 2.724e-10
 88.48646   -150.6 1.054e+04 3.189e-10
 88.52140   -147.9 1.038e+04 2.933e-10
 88.56148   -145.0 1.027e+04 2.716e-10
 88.58810   -142.2 1.019e+04 2.523e-10
 88.60814   -143.1 9.987e+03 2.063e-10
 88.63928   -140.2 9.936e+03 1.860e-10
 88.65932   -140.1 1.004e+04 1.857e-10
 88.68172   -137.3 9.969e+03 1.675e-10
 88.72180   -134.6 9.949e+03 1.527e-10
 88.76188   -131.9 9.941e+03 1.409e-10
 88.80196   -129.2 9.940e+03 1.317e-10
 88.83218   -126.6 9.947e+03 1.253e-10
 88.85221   -126.7 1.002e+04 1.264e-10
 88.88211   -124.2 1.004e+04 1.220e-10
 88.92219   -121.7 1.005e+04 1.207e-10
 88.96227   -119.4 1.005e+04 1.215e-10
 89.00235   -117.0 1.008e+04 1.246e-10
 89.02507   -114.8 1.013e+04 1.299e-10
 89.04511   -114.8 1.018e+04 1.321e-10
 89.08251   -112.7 1.024e+04 1.355e-10
 89.10723   -110.7 1.029e+04 1.379e-10
 89.12727   -111.5 1.030e+04 1.396e-10
 89.16267   -109.7 1.038e+04 1.441e-10
 89.19793   -108.1 1.048e+04 1.535e-10
 89.21797   -108.2 1.062e+04 1.911e-10
 89.24283   -106.7 1.071e+04 2.237e-10
 89.28291   -105.1 1.083e+04 2.610e-10
 89.32299   -103.6 1.093e+04 2.913e-10
 89.36306   -102.1 1.096e+04 3.058e-10
 89.39083   -100.5 1.094e+04 3.068e-10
 89.41087   -100.7 1.098e+04 3.474e-10
 89.44322    -99.0 1.092e+04 3.223e-10
 89.48330    -97.3 1.092e+04 3.185e-10
 89.52338    -95.8 1.099e+04 3.256e-10
 89.56346    -94.8 1.127e+04 4.065e-10
 89.58373    -94.4 1.168e+04 6.270e-10
 89.60377    -94.3 1.175e+04 7.591e-10
 89.62636    -93.9 1.220e+04 1.034e-09
 89.63628    -94.7 1.217e+04 9.545e-10
 89.65344    -95.0 1.237e+04 1.075e-09
 89.66997    -96.8 1.340e+04 1.729e-09
 89.67999    -95.7 1.270e+04 1.299e-09
 89.69352    -98.1 1.474e+04 2.887e-09
 89.71356    -99.9 1.662e+04 6.972e-09
 89.73360   -100.9 1.819e+04 1.599e-08
 89.75364   -101.5 1.940e+04 2.776e-08
 89.76641   -102.8 1.986e+04 3.420e-08
 89.77643   -102.2 1.984e+04 3.359e-08
 89.79372   -104.1 1.983e+04 3.468e-08
 89.81376   -105.3 1.893e+04 2.689e-08
 89.83380   -105.7 1.756e+04 1.612e-08
 89.85284   -106.3 1.603e+04 8.965e-09
 89.86286   -105.4 1.641e+04 9.568e-09
 89.87388   -106.2 1.525e+04 5.926e-09
 89.88573   -106.6 1.424e+04 3.969e-09
 89.89575   -107.4 1.392e+04 3.395e-09
 89.91396   -107.3 1.322e+04 2.448e-09
 89.93400   -106.4 1.263e+04 1.783e-09
 89.94929   -105.3 1.221e+04 1.312e-09
 89.95931   -105.2 1.248e+04 1.529e-09
 89.97408   -104.2 1.215e+04 1.187e-09
 89.99412   -103.0 1.195e+04 9.279e-10
 90.01416   -101.9 1.186e+04 7.557e-10
 90.03420   -100.9 1.185e+04 6.688e-10
 90.04574   -100.1 1.186e+04 6.414e-10
 90.05576    -99.7 1.190e+04 6.898e-10
 90.08439    -98.7 1.190e+04 6.122e-10
 90.12235    -96.7 1.181e+04 5.511e-10
 90.14229    -96.4 1.207e+04 6.827e-10
 90.14529    -95.2 1.206e+04 6.779e-10
 90.15531    -95.6 1.218e+04 7.597e-10
 90.17447    -94.9 1.216e+04 7.661e-10
 90.19451    -93.5 1.215e+04 7.830e-10
 90.21455    -92.8 1.212e+04 7.931e-10
 90.22862    -91.4 1.210e+04 8.188e-10
 90.23864    -91.7 1.234e+04 1.132e-09
 90.25463    -90.6 1.228e+04 1.133e-09
 90.27467    -89.5 1.224e+04 1.143e-09
 90.29471    -88.4 1.220e+04 1.146e-09
 90.31475    -87.3 1.216e+04 1.166e-09
 90.32507    -86.1 1.213e+04 1.184e-09
 90.33509    -86.1 1.226e+04 1.389e-09
 90.35483    -85.0 1.226e+04 1.345e-09
 90.37487    -83.8 1.218e+04 1.289e-09
 90.39484    -82.6 1.208e+04 1.202e-09
 90.41143    -81.8 1.196e+04 1.052e-09
 90.42152    -81.9 1.195e+04 1.032e-09
 90.44511    -80.4 1.196e+04 1.010e-09
 90.48528    -78.5 1.179e+04 9.083e-10
 90.50815    -75.9 1.151e+04 7.752e-10
 90.52819    -75.7 1.138e+04 6.977e-10
 90.56544    -73.1 1.123e+04 6.141e-10
 90.60552    -70.4 1.110e+04 5.406e-10
 90.64458    -67.7 1.096e+04 4.817e-10
 90.66462    -67.9 1.097e+04 4.384e-10
 90.68101    -65.1 1.090e+04 4.013e-10
 90.70105    -64.9 1.090e+04 3.876e-10
 90.72576    -62.2 1.086e+04 3.644e-10
 90.76584    -59.4 1.085e+04 3.395e-10
 90.80592    -56.6 1.084e+04 3.143e-10
 90.84600    -54.0 1.083e+04 2.931e-10
 90.87390    -51.5 1.082e+04 2.824e-10
 90.89394    -51.5 1.095e+04 3.191e-10
 90.92616    -49.3 1.103e+04 3.387e-10
 90.96624    -47.3 1.111e+04 4.097e-10
 91.00632    -45.3 1.120e+04 5.341e-10
 91.04639    -43.1 1.129e+04 6.862e-10
 91.06680    -41.0 1.133e+04 7.756e-10
 91.08684    -41.3 1.136e+04 7.608e-10
 91.12655    -39.2 1.124e+04 7.396e-10
 91.16371    -36.8 1.105e+04 5.910e-10
 91.18375    -37.2 1.099e+04 5.155e-10
 91.20671    -34.8 1.084e+04 3.483e-10
 91.23966    -32.6 1.073e+04 2.262e-10
 91.25970    -32.8 1.061e+04 1.858e-10
 91.28687    -30.8 1.042e+04 1.526e-10
 91.32695    -28.6 1.036e+04 1.383e-10
 91.36703    -26.4 1.036e+04 1.349e-10
 91.40711    -24.3 1.038e+04 1.368e-10
 91.43256    -22.6 1.048e+04 1.486e-10
 91.45260    -22.4 1.063e+04 1.555e-10
 91.48727    -21.1 1.092e+04 2.209e-10
 91.52735    -19.5 1.111e+04 3.761e-10
 91.56743    -17.7 1.127e+04 5.848e-10
 91.60542    -15.7 1.140e+04 7.592e-10
 91.62546    -15.5 1.149e+04 8.819e-10
 91.64758    -13.7 1.151e+04 8.821e-10
 91.68284    -12.0 1.143e+04 8.105e-10
 91.70287    -13.4 1.145e+04 8.194e-10
 91.72774    -11.8 1.129e+04 7.386e-10
 91.76782    -10.0 1.118e+04 6.912e-10
 91.79832     -8.0 1.116e+04 6.675e-10
 91.81836     -8.1 1.113e+04 6.704e-10
 91.84798     -6.1 1.110e+04 6.616e-10
 91.88806     -4.1 1.102e+04 6.178e-10
 91.92814     -2.2 1.097e+04 5.483e-10
 91.96822     -0.4 1.096e+04 4.837e-10
 91.99122      1.4 1.100e+04 4.375e-10
 92.01126      1.6 1.091e+04 3.353e-10
 92.04838      3.3 1.095e+04 2.749e-10
 92.08846      4.8 1.090e+04 2.505e-10
 92.12853      6.2 1.073e+04 2.814e-10
 92.16408      8.0 1.071e+04 3.482e-10
 92.18412      8.4 1.065e+04 3.405e-10
 92.20196     10.7 1.075e+04 3.802e-10
 92.22200     10.4 1.081e+04 4.144e-10
 92.24877     12.7 1.078e+04 4.031e-10
 92.28885     15.3 1.064e+04 3.383e-10
 92.32893     17.6 1.061e+04 2.634e-10
 92.35698     19.7 1.064e+04 2.211e-10
 92.37702     20.4 1.059e+04 2.123e-10
 92.40909     22.7 1.050e+04 1.994e-10
 92.44917     25.1 1.054e+04 2.182e-10
 92.48925     27.6 1.058e+04 2.535e-10
 92.52933     30.2 1.064e+04 2.930e-10
 92.54988     32.9 1.070e+04 3.332e-10
 92.56992     33.4 1.055e+04 2.533e-10
 92.60949     36.0 1.061e+04 2.693e-10
 92.64957     38.5 1.067e+04 2.803e-10
 92.68964     41.0 1.074e+04 2.915e-10
 92.72109     43.4 1.080e+04 3.081e-10
 92.73414     43.2 1.080e+04 2.723e-10
 92.74277     43.7 1.073e+04 2.533e-10
 92.76980     46.1 1.082e+04 2.912e-10
 92.80988     48.4 1.091e+04 3.348e-10
 92.84996     50.6 1.099e+04 3.822e-10
 92.89004     52.7 1.106e+04 4.298e-10
 92.91563     54.7 1.111e+04 4.638e-10
 92.93567     55.3 1.115e+04 4.463e-10
 92.97020     57.3 1.117e+04 4.588e-10
 93.01028     59.3 1.115e+04 4.626e-10
 93.05036     61.3 1.112e+04 4.675e-10
 93.08849     63.4 1.110e+04 4.719e-10
 93.10853     64.0 1.109e+04 4.515e-10
 93.13052     66.0 1.109e+04 4.638e-10
 93.17060     67.9 1.110e+04 4.595e-10
 93.21068     69.7 1.109e+04 4.303e-10
 93.24022     71.2 1.104e+04 3.732e-10
 93.26026     70.8 1.101e+04 3.599e-10
 93.28139     72.1 1.095e+04 3.355e-10
 93.30143     73.1 1.107e+04 3.729e-10
 93.33091     74.2 1.100e+04 3.631e-10
 93.37099     75.2 1.098e+04 3.767e-10
 93.41107     76.2 1.096e+04 4.155e-10
 93.45115     77.1 1.095e+04 4.428e-10
 93.47429     77.7 1.092e+04 4.457e-10
 93.49433     79.0 1.094e+04 4.561e-10
 93.53131     79.6 1.095e+04 4.442e-10
 93.57139     79.9 1.098e+04 4.498e-10
 93.61147     80.1 1.108e+04 4.958e-10
 93.64715     80.4 1.136e+04 6.713e-10
 93.66719     82.2 1.122e+04 5.764e-10
 93.69163     82.8 1.154e+04 8.012e-10
 93.72159     82.5 1.170e+04 9.369e-10
 93.74153     82.7 1.179e+04 1.008e-09
 93.75342     82.9 1.180e+04 1.011e-09
 93.76103     83.6 1.181e+04 1.049e-09
 93.76917     83.1 1.187e+04 1.073e-09
 93.78161     83.4 1.186e+04 1.050e-09
 93.80165     83.7 1.183e+04 9.825e-10
 93.82169     83.9 1.176e+04 9.052e-10
 93.83995     83.5 1.167e+04 8.405e-10
 93.84997     84.9 1.172e+04 8.200e-10
 93.86177     84.9 1.169e+04 7.819e-10
 93.89193     85.9 1.157e+04 6.822e-10
 93.93210     87.2 1.136e+04 5.716e-10
 93.97218     88.8 1.118e+04 4.994e-10
 94.01226     90.8 1.104e+04 4.510e-10
 94.03295     92.9 1.095e+04 4.160e-10
 94.05299     93.8 1.098e+04 4.444e-10
 94.09242     95.9 1.092e+04 4.297e-10
 94.13250     97.9 1.091e+04 4.132e-10
 94.17258     99.9 1.095e+04 3.893e-10
 94.20581    101.8 1.098e+04 3.763e-10
 94.22585    102.7 1.108e+04 4.827e-10
 94.25274    104.5 1.117e+04 4.716e-10
 94.27848    106.3 1.123e+04 4.719e-10
 94.29852    106.0 1.136e+04 5.851e-10
 94.33290    107.7 1.145e+04 6.100e-10
 94.37297    109.4 1.149e+04 6.376e-10
 94.39871    111.1 1.151e+04 6.553e-10
 94.41875    111.5 1.147e+04 6.284e-10
 94.45313    113.2 1.138e+04 5.931e-10
 94.49321    114.9 1.128e+04 5.381e-10
 94.53329    116.5 1.118e+04 4.792e-10
 94.57157    118.1 1.111e+04 4.258e-10
 94.59160    118.8 1.095e+04 3.253e-10
 94.61345    120.3 1.091e+04 2.810e-10
 94.65353    121.7 1.090e+04 2.551e-10
 94.69361    123.1 1.088e+04 2.416e-10
 94.73369    124.5 1.087e+04 2.370e-10
 94.76446    125.8 1.091e+04 2.474e-10
 94.78450    126.4 1.084e+04 2.333e-10
 94.79761    127.7 1.104e+04 2.838e-10
 94.81765    127.5 1.142e+04 4.495e-10
 94.85393    128.7 1.155e+04 5.254e-10
 94.89400    129.9 1.164e+04 5.874e-10
 94.93408    130.9 1.170e+04 6.250e-10
 94.95736    131.7 1.177e+04 6.451e-10
 94.96729    131.5 1.188e+04 7.551e-10
 94.98399    131.8 1.194e+04 7.709e-10
 95.01415    132.5 1.207e+04 8.154e-10
 95.05432    133.6 1.202e+04 7.610e-10
 95.09440    134.6 1.194e+04 6.968e-10
 95.13022    135.6 1.187e+04 6.310e-10
 95.15026    134.7 1.202e+04 6.362e-10
 95.17456    135.6 1.190e+04 5.486e-10
 95.21464    136.4 1.180e+04 4.532e-10
 95.25472    137.2 1.168e+04 3.673e-10
 95.29480    138.0 1.155e+04 3.307e-10
 95.31673    139.0 1.153e+04 3.284e-10
 95.32502    138.9 1.164e+04 3.792e-10
 95.34316    137.5 1.173e+04 3.997e-10
 95.37496    138.3 1.178e+04 4.205e-10
 95.41504    139.1 1.191e+04 4.593e-10
 95.45511    139.3 1.199e+04 5.032e-10
 95.48508    139.1 1.196e+04 5.547e-10
 95.50502    139.2 1.190e+04 5.998e-10
 95.51582    139.5 1.186e+04 6.332e-10
 95.52584    138.8 1.188e+04 6.775e-10
 95.54510    139.0 1.189e+04 6.995e-10
 95.56514    139.2 1.192e+04 7.224e-10
 95.57610    139.4 1.197e+04 7.447e-10
 95.58612    139.4 1.186e+04 7.000e-10
 95.60225    139.6 1.196e+04 7.166e-10
 95.61227    138.6 1.209e+04 7.918e-10
 95.62526    138.4 1.229e+04 8.396e-10
 95.64530    138.1 1.259e+04 9.386e-10
 95.66534    137.3 1.301e+04 1.171e-09
 95.68538    136.2 1.355e+04 1.686e-09
 95.69870    135.0 1.435e+04 2.757e-09
 95.70872    133.4 1.493e+04 3.629e-09
 95.72545    132.3 1.611e+04 6.404e-09
 95.74549    131.3 1.722e+04 1.064e-08
 95.76553    130.3 1.801e+04 1.403e-08
 95.78513    128.8 1.818e+04 1.420e-08
 95.79515    127.0 1.812e+04 1.337e-08
 95.80561    125.2 1.793e+04 1.107e-08
 95.82565    122.8 1.750e+04 7.488e-09
 95.84569    119.0 1.705e+04 4.602e-09
 95.86573    114.7 1.587e+04 2.918e-09
 95.88158    111.0 1.428e+04 2.170e-09
 95.89160    109.8 1.310e+04 1.720e-09
 95.90581    109.3 1.292e+04 1.606e-09
 95.92585    109.4 1.296e+04 1.555e-09
 95.94589    109.4 1.296e+04 1.501e-09
 95.96593    109.5 1.286e+04 1.429e-09
 95.97803    109.6 1.267e+04 1.352e-09
 95.98805    110.0 1.264e+04 1.258e-09
 96.00601    110.2 1.250e+04 1.233e-09
 96.02605    110.6 1.238e+04 1.219e-09
 96.04609    110.9 1.230e+04 1.202e-09
 96.06446    111.3 1.212e+04 1.181e-09
 96.07448    111.9 1.230e+04 1.185e-09
 96.08521    112.3 1.218e+04 1.192e-09
 96.09523    111.9 1.200e+04 1.103e-09
 96.10621    112.4 1.177e+04 1.070e-09
 96.12625    113.1 1.154e+04 9.971e-10
 96.14629    113.7 1.132e+04 9.056e-10
 96.16091    114.3 1.113e+04 8.064e-10
 96.17093    114.9 1.143e+04 9.747e-10
 96.18637    115.5 1.124e+04 8.949e-10
 96.20641    116.1 1.109e+04 8.074e-10
 96.22645    116.7 1.096e+04 7.319e-10
 96.24649    117.2 1.085e+04 6.601e-10
 96.25736    117.7 1.074e+04 6.016e-10
 96.26738    118.6 1.103e+04 7.749e-10
 96.28656    119.2 1.092e+04 7.135e-10
 96.30660    119.8 1.080e+04 6.629e-10
 96.32664    120.4 1.068e+04 6.185e-10
 96.34379    121.0 1.058e+04 5.900e-10
 96.35190    121.8 1.091e+04 7.443e-10
 96.35480    121.4 1.073e+04 6.562e-10
 96.36672    122.0 1.066e+04 6.511e-10
 96.38676    122.7 1.065e+04 6.538e-10
 96.40680    123.5 1.064e+04 6.722e-10
 96.42684    124.3 1.067e+04 7.059e-10
 96.44024    125.0 1.074e+04 7.481e-10
 96.45026    125.3 1.110e+04 9.287e-10
 96.46692    125.8 1.120e+04 9.843e-10
 96.48696    126.3 1.131e+04 1.038e-09
 96.50700    126.7 1.143e+04 1.092e-09
 96.52667    126.8 1.155e+04 1.150e-09
 96.53669    127.1 1.186e+04 1.382e-09
 96.54708    127.2 1.194e+04 1.430e-09
 96.56712    127.2 1.201e+04 1.480e-09
 96.58716    127.2 1.209e+04 1.540e-09
 96.60434    127.1 1.218e+04 1.609e-09
 96.61436    127.2 1.198e+04 1.471e-09
 96.62312    127.1 1.205e+04 1.516e-09
 96.63314    127.4 1.229e+04 1.657e-09
 96.64728    127.2 1.239e+04 1.741e-09
 96.66732    127.1 1.249e+04 1.817e-09
 96.68736    126.8 1.254e+04 1.841e-09
 96.70740    126.4 1.255e+04 1.830e-09
 96.71957    125.9 1.255e+04 1.785e-09
 96.72959    126.2 1.255e+04 1.782e-09
 96.74748    125.6 1.254e+04 1.691e-09
 96.76752    124.5 1.253e+04 1.560e-09
 96.78756    123.3 1.242e+04 1.409e-09
 96.80610    121.6 1.227e+04 1.316e-09
 96.81612    122.4 1.228e+04 1.260e-09
 96.82763    121.8 1.209e+04 1.193e-09
 96.84767    121.5 1.187e+04 1.119e-09
 96.86391    121.0 1.168e+04 1.049e-09
 96.87393    121.7 1.157e+04 9.812e-10
 96.88775    120.5 1.147e+04 8.935e-10
 96.90245    119.5 1.139e+04 8.341e-10
 96.91247    119.8 1.124e+04 7.718e-10
 96.93795    119.1 1.106e+04 6.771e-10
 96.97813    117.8 1.063e+04 5.137e-10
 96.99909    116.7 1.015e+04 3.707e-10
 97.01913    117.0 1.008e+04 3.740e-10
 97.05829    115.9 9.652e+03 3.035e-10
 97.09837    115.0 9.481e+03 2.917e-10
 97.13844    114.1 9.487e+03 2.946e-10
 97.17195    113.0 9.586e+03 3.285e-10
 97.19199    113.2 9.522e+03 3.200e-10
 97.21860    111.5 9.802e+03 4.296e-10
 97.25868    109.6 1.022e+04 6.271e-10
 97.29876    107.4 1.037e+04 6.874e-10
 97.33884    105.1 1.028e+04 6.368e-10
 97.36485    102.4 9.940e+03 4.726e-10
 97.37918    103.0 9.532e+03 3.860e-10
 97.39325    102.4 9.508e+03 3.664e-10
 97.41900     99.3 9.493e+03 3.484e-10
 97.45908     97.2 9.649e+03 3.799e-10
 97.48904     96.3 9.838e+03 4.398e-10
 97.50898     93.7 1.081e+04 6.928e-10
 97.52902     90.4 1.221e+04 1.400e-09
 97.54753     88.2 1.317e+04 2.504e-09
 97.55755     89.0 1.336e+04 2.527e-09
 97.56910     87.2 1.398e+04 3.621e-09
 97.58914     85.3 1.407e+04 3.643e-09
 97.60918     83.2 1.386e+04 3.240e-09
 97.62922     80.4 1.327e+04 2.440e-09
 97.64260     76.8 1.237e+04 1.737e-09
 97.64734     75.2 1.171e+04 1.314e-09
 97.65400     76.0 1.206e+04 1.419e-09
 97.66930     72.3 1.122e+04 1.167e-09
 97.68934     68.5 1.146e+04 1.240e-09
 97.70938     63.0 1.279e+04 1.808e-09
 97.72942     58.7 1.365e+04 3.016e-09
 97.74043     56.2 1.341e+04 3.385e-09
 97.75045     56.0 1.337e+04 3.298e-09
 97.76950     54.3 1.323e+04 3.113e-09
 97.78954     51.6 1.305e+04 2.418e-09
 97.80958     47.4 1.241e+04 1.433e-09
 97.82686     42.2 1.079e+04 7.870e-10
 97.83688     41.7 1.068e+04 7.790e-10
 97.85977     37.9 9.240e+03 4.917e-10
 97.88983     35.6 9.265e+03 3.912e-10
 97.90216     35.4 9.253e+03 3.858e-10
 97.91228     36.7 9.291e+03 3.993e-10
 97.92351     33.7 9.384e+03 4.248e-10
 97.94355     33.1 9.101e+03 3.830e-10
 97.98011     31.2 9.122e+03 4.213e-10
 98.02019     29.9 9.216e+03 4.546e-10
 98.06027     29.4 9.228e+03 4.442e-10
 98.09637     28.6 9.385e+03 4.641e-10
 98.11641     28.6 9.383e+03 4.743e-10
 98.14043     27.6 9.704e+03 5.771e-10
 98.18051     27.0 1.010e+04 7.506e-10
 98.22058     26.5 1.064e+04 9.309e-10
 98.26066     26.0 1.090e+04 1.029e-09
 98.28927     25.9 1.075e+04 9.933e-10
 98.30931     25.2 1.073e+04 1.008e-09
 98.34082     26.1 1.013e+04 7.242e-10
 98.38090     26.6 9.681e+03 4.992e-10
 98.41147     27.1 9.326e+03 3.953e-10
 98.43151     27.4 9.068e+03 3.382e-10
 98.46106     28.6 8.835e+03 3.065e-10
 98.48216     30.5 8.716e+03 2.864e-10
 98.50220     30.1 8.703e+03 2.952e-10
 98.54122     32.2 8.700e+03 2.839e-10
 98.58130     34.1 8.760e+03 2.835e-10
 98.62138     35.7 8.896e+03 2.955e-10
 98.65502     37.0 9.172e+03 3.462e-10
 98.67506     36.9 8.995e+03 3.182e-10
 98.70154     37.8 9.403e+03 4.166e-10
 98.74162     38.8 9.875e+03 6.019e-10
 98.78169     40.1 1.027e+04 8.110e-10
 98.82177     41.2 1.053e+04 9.140e-10
 98.84792     41.9 1.061e+04 9.223e-10
 98.86796     42.2 1.018e+04 7.500e-10
 98.90193     42.9 1.022e+04 7.549e-10
 98.93060     43.7 1.033e+04 7.891e-10
 98.95063     44.0 9.899e+03 6.131e-10
 98.98209     44.8 1.002e+04 6.595e-10
 99.02078     45.9 1.015e+04 7.233e-10
 99.04082     46.7 9.910e+03 6.102e-10
 99.06225     48.1 1.015e+04 7.231e-10
 99.10233     49.6 1.029e+04 7.906e-10
 99.14241     51.1 1.029e+04 7.810e-10
 99.18249     52.7 1.017e+04 6.928e-10
 99.21368     54.1 9.973e+03 5.527e-10
 99.23372     55.0 9.953e+03 5.538e-10
 99.26265     56.2 9.721e+03 4.217e-10
 99.30273     57.5 9.610e+03 3.763e-10
 99.34280     58.8 9.663e+03 3.897e-10
 99.38288     60.2 9.883e+03 4.528e-10
 99.40658     61.4 1.026e+04 6.025e-10
 99.42662     62.6 9.982e+03 4.744e-10
 99.44972     63.9 1.058e+04 7.345e-10
 99.46976     64.0 1.058e+04 7.572e-10
 99.50312     65.2 1.106e+04 1.026e-09
 99.54320     66.3 1.137e+04 1.217e-09
 99.57944     67.2 1.139e+04 1.174e-09
 99.59948     68.3 1.161e+04 1.336e-09
 99.62336     69.1 1.170e+04 1.362e-09
 99.66344     69.7 1.169e+04 1.258e-09
 99.68581     69.6 1.167e+04 1.111e-09
 99.69573     70.0 1.194e+04 1.352e-09
 99.70909     70.0 1.196e+04 1.298e-09
 99.71911     70.0 1.188e+04 1.275e-09
 99.73338     69.9 1.189e+04 1.194e-09
 99.75342     69.9 1.179e+04 1.090e-09
 99.77214     69.8 1.163e+04 9.559e-10
 99.78216     70.3 1.207e+04 1.286e-09
 99.79350     70.1 1.188e+04 1.089e-09
 99.81354     69.8 1.166e+04 8.906e-10
 99.83358     69.2 1.141e+04 7.128e-10
 99.85362     68.9 1.113e+04 6.138e-10
 99.86859     68.7 1.106e+04 6.013e-10
 99.87861     68.7 1.131e+04 7.115e-10
 99.90382     69.1 1.091e+04 5.646e-10
 99.94399     69.5 1.055e+04 3.952e-10
 99.96524     69.9 1.024e+04 2.723e-10
 99.97006     69.9 1.043e+04 3.503e-10
 99.98889     70.2 1.035e+04 3.234e-10
