# Columns:
#   distance along LOS (in CHIMPs)
#   peculiar velocity  (in km/s)
#   temperature (K)
#   HI number density
# pos=(147.091,51.3471,124.92), angles=(2.95505,5.90531)
  0.01374   -104.6 9.713e+03 2.981e-10
  0.04736   -105.1 1.085e+04 6.360e-10
  0.08711   -106.0 1.232e+04 1.421e-09
  0.11683   -106.8 1.322e+04 2.336e-09
  0.13540   -107.7 1.403e+04 3.304e-09
  0.14533   -107.5 1.344e+04 2.492e-09
  0.15649   -108.1 1.387e+04 2.908e-09
  0.17636   -108.8 1.417e+04 3.029e-09
  0.19624   -109.5 1.431e+04 3.028e-09
  0.21400   -110.3 1.444e+04 2.998e-09
  0.22393   -112.4 1.568e+04 2.910e-09
  0.23599   -116.9 1.847e+04 4.141e-09
  0.25168   -122.9 2.087e+04 8.204e-09
  0.26161   -124.4 2.015e+04 3.461e-09
  0.27072   -129.3 2.216e+04 9.277e-09
  0.28061   -133.0 2.247e+04 1.824e-08
  0.29055   -136.1 2.249e+04 3.668e-08
  0.30049   -138.4 2.245e+04 6.257e-08
  0.30972   -141.0 2.256e+04 8.048e-08
  0.31469   -142.1 2.213e+04 6.194e-08
  0.32037   -144.8 2.210e+04 6.541e-08
  0.33030   -147.5 2.163e+04 6.139e-08
  0.34024   -149.8 2.079e+04 4.027e-08
  0.35018   -152.2 1.978e+04 2.174e-08
  0.35979   -155.0 1.836e+04 1.150e-08
  0.36476   -155.4 1.813e+04 1.126e-08
  0.36786   -158.0 1.642e+04 6.828e-09
  0.37283   -156.4 1.669e+04 6.379e-09
  0.37999   -158.2 1.524e+04 4.213e-09
  0.39495   -159.2 1.429e+04 3.131e-09
  0.41487   -160.1 1.299e+04 2.023e-09
  0.43475   -160.7 1.147e+04 1.196e-09
  0.45463   -160.9 1.047e+04 8.198e-10
  0.47430   -160.8 9.987e+03 6.441e-10
  0.48424   -160.2 9.709e+03 4.545e-10
  0.49438   -159.0 9.480e+03 3.931e-10
  0.50578   -158.0 9.367e+03 3.675e-10
  0.51572   -158.1 9.415e+03 3.797e-10
  0.53413   -157.4 9.336e+03 3.715e-10
  0.56404   -156.8 9.277e+03 3.678e-10
  0.59078   -155.8 9.217e+03 3.524e-10
  0.61065   -154.5 9.093e+03 2.683e-10
  0.64364   -153.6 9.038e+03 2.788e-10
  0.68340   -153.3 9.345e+03 3.932e-10
  0.72315   -153.2 1.028e+04 6.452e-10
  0.76290   -153.0 1.117e+04 1.041e-09
  0.78783   -152.8 1.182e+04 1.460e-09
  0.79767   -152.8 1.172e+04 1.410e-09
  0.81240   -152.8 1.208e+04 1.639e-09
  0.82314   -152.9 1.236e+04 1.796e-09
  0.83308   -152.1 1.239e+04 2.058e-09
  0.85215   -152.2 1.250e+04 2.147e-09
  0.87202   -152.4 1.252e+04 2.162e-09
  0.89190   -152.6 1.250e+04 2.098e-09
  0.91178   -152.7 1.231e+04 1.918e-09
  0.92948   -152.8 1.211e+04 1.762e-09
  0.93942   -152.0 1.190e+04 1.950e-09
  0.95153   -152.1 1.164e+04 1.744e-09
  0.97140   -152.2 1.153e+04 1.633e-09
  0.99128   -152.2 1.152e+04 1.610e-09
  1.01116   -152.2 1.159e+04 1.615e-09
  1.03103   -152.2 1.180e+04 1.676e-09
  1.04576   -152.1 1.196e+04 1.739e-09
  1.05570   -150.9 1.140e+04 1.505e-09
  1.06948   -150.9 1.154e+04 1.526e-09
  1.07942   -151.0 1.124e+04 1.303e-09
  1.09066   -150.9 1.130e+04 1.308e-09
  1.11054   -150.8 1.134e+04 1.294e-09
  1.13041   -150.6 1.128e+04 1.225e-09
  1.15029   -150.2 1.112e+04 1.155e-09
  1.16204   -149.8 1.098e+04 1.087e-09
  1.17198   -149.6 1.100e+04 1.119e-09
  1.19004   -149.1 1.088e+04 1.060e-09
  1.20992   -148.6 1.076e+04 1.004e-09
  1.22979   -148.0 1.065e+04 9.447e-10
  1.24967   -147.4 1.053e+04 8.777e-10
  1.26839   -146.7 1.039e+04 8.023e-10
  1.27832   -146.1 1.032e+04 8.538e-10
  1.28942   -145.3 1.014e+04 7.768e-10
  1.30930   -144.5 9.958e+03 6.939e-10
  1.32917   -143.6 9.767e+03 6.056e-10
  1.34905   -142.4 9.565e+03 5.176e-10
  1.36127   -141.2 9.425e+03 4.550e-10
  1.37121   -141.9 9.389e+03 4.232e-10
  1.39884   -141.3 9.323e+03 3.865e-10
  1.43869   -139.7 9.148e+03 3.355e-10
  1.47844   -138.0 9.034e+03 3.158e-10
  1.50114   -136.5 9.002e+03 3.124e-10
  1.52102   -134.7 8.861e+03 2.779e-10
  1.55794   -133.4 8.875e+03 2.819e-10
  1.59770   -132.0 8.900e+03 2.945e-10
  1.63745   -130.8 8.896e+03 2.969e-10
  1.67720   -129.5 8.831e+03 2.835e-10
  1.71383   -128.2 8.742e+03 2.600e-10
  1.73370   -127.1 9.365e+03 3.991e-10
  1.75670   -125.9 9.348e+03 3.978e-10
  1.79646   -125.0 9.339e+03 3.987e-10
  1.83621   -124.6 9.356e+03 4.494e-10
  1.87596   -124.8 1.033e+04 6.999e-10
  1.90568   -125.5 1.181e+04 1.351e-09
  1.92497   -125.9 1.265e+04 1.884e-09
  1.93491   -127.0 1.288e+04 2.106e-09
  1.94533   -127.5 1.381e+04 2.982e-09
  1.95613   -128.2 1.457e+04 4.005e-09
  1.96607   -128.0 1.506e+04 5.379e-09
  1.98508   -128.2 1.526e+04 5.978e-09
  2.00496   -128.6 1.530e+04 6.100e-09
  2.02484   -129.0 1.512e+04 5.958e-09
  2.04471   -129.3 1.462e+04 5.047e-09
  2.06247   -129.6 1.400e+04 4.055e-09
  2.07241   -129.1 1.355e+04 3.613e-09
  2.08446   -129.5 1.287e+04 2.790e-09
  2.10434   -129.9 1.234e+04 2.143e-09
  2.12422   -130.5 1.223e+04 1.768e-09
  2.14409   -132.7 1.374e+04 1.585e-09
  2.16397   -139.0 2.529e+04 1.352e-09
  2.17875   -147.0 3.015e+04 3.089e-09
  2.18367   -154.3 3.221e+04 8.474e-09
  2.18872   -157.6 2.882e+04 1.827e-08
  2.19865   -160.2 2.653e+04 3.594e-08
  2.20859   -161.9 2.537e+04 5.933e-08
  2.21666   -163.1 2.486e+04 8.001e-08
  2.22163   -165.9 2.411e+04 8.989e-08
  2.22847   -166.8 2.399e+04 8.927e-08
  2.23680   -168.1 2.382e+04 7.056e-08
  2.24177   -169.7 2.357e+04 4.576e-08
  2.24834   -171.7 2.332e+04 2.499e-08
  2.25828   -174.0 2.221e+04 1.314e-08
  2.26822   -176.3 2.028e+04 7.184e-09
  2.27816   -178.4 1.801e+04 4.295e-09
  2.28810   -179.8 1.603e+04 2.901e-09
  2.29494   -180.5 1.471e+04 2.247e-09
  2.30492   -183.1 1.304e+04 1.280e-09
  2.32298   -182.7 1.212e+04 9.536e-10
  2.34285   -182.4 1.106e+04 6.764e-10
  2.36273   -181.9 1.046e+04 5.468e-10
  2.38261   -181.1 1.022e+04 5.025e-10
  2.40138   -179.9 1.015e+04 4.964e-10
  2.41131   -180.2 1.002e+04 4.249e-10
  2.42236   -179.0 1.002e+04 4.446e-10
  2.44223   -177.9 1.021e+04 4.772e-10
  2.46211   -177.0 1.047e+04 5.424e-10
  2.48199   -176.1 1.079e+04 6.483e-10
  2.49861   -175.2 1.118e+04 8.087e-10
  2.50854   -176.1 1.159e+04 1.096e-09
  2.51766   -175.2 1.205e+04 1.430e-09
  2.52760   -175.4 1.202e+04 1.361e-09
  2.54161   -174.5 1.247e+04 1.685e-09
  2.56149   -173.7 1.287e+04 2.008e-09
  2.58137   -173.2 1.318e+04 2.293e-09
  2.60124   -172.7 1.338e+04 2.524e-09
  2.62112   -172.3 1.353e+04 2.719e-09
  2.63394   -171.9 1.368e+04 2.839e-09
  2.64388   -172.3 1.309e+04 2.003e-09
  2.66087   -172.0 1.303e+04 1.870e-09
  2.68075   -171.8 1.290e+04 1.684e-09
  2.70062   -171.8 1.270e+04 1.482e-09
  2.72050   -171.9 1.243e+04 1.284e-09
  2.74028   -172.1 1.211e+04 1.109e-09
  2.76016   -172.5 1.095e+04 6.780e-10
  2.78013   -172.5 1.078e+04 6.229e-10
  2.79039   -172.3 1.066e+04 5.888e-10
  2.80033   -172.7 1.034e+04 4.693e-10
  2.81988   -172.3 1.035e+04 4.681e-10
  2.83976   -171.8 1.040e+04 4.720e-10
  2.85656   -171.4 1.044e+04 4.854e-10
  2.86650   -170.4 1.013e+04 3.808e-10
  2.87951   -170.1 1.018e+04 3.912e-10
  2.89938   -169.7 1.026e+04 4.126e-10
  2.91926   -169.6 1.031e+04 4.298e-10
  2.93914   -169.6 1.039e+04 4.660e-10
  2.95901   -169.5 1.044e+04 4.779e-10
  2.97284   -169.7 1.052e+04 4.941e-10
  2.98278   -168.7 1.035e+04 4.400e-10
  2.99876   -169.0 1.047e+04 4.672e-10
  3.01864   -169.5 1.064e+04 5.124e-10
  3.03852   -170.0 1.091e+04 5.864e-10
  3.05839   -170.7 1.123e+04 6.977e-10
  3.07224   -171.3 1.154e+04 8.282e-10
  3.08218   -171.3 1.160e+04 9.000e-10
  3.08912   -172.1 1.170e+04 9.741e-10
  3.09906   -170.9 1.171e+04 9.483e-10
  3.11802   -171.7 1.175e+04 9.855e-10
  3.13790   -172.3 1.171e+04 9.906e-10
  3.15777   -172.5 1.140e+04 9.148e-10
  3.17765   -172.5 1.104e+04 7.538e-10
  3.19546   -172.3 1.072e+04 5.826e-10
  3.20540   -171.8 1.085e+04 6.186e-10
  3.21740   -172.0 1.055e+04 4.644e-10
  3.23728   -172.2 1.035e+04 3.744e-10
  3.26719   -172.6 1.024e+04 3.226e-10
  3.30200   -172.3 1.012e+04 2.709e-10
  3.32188   -172.1 1.038e+04 2.942e-10
  3.34679   -172.0 1.039e+04 2.845e-10
  3.38654   -172.4 1.070e+04 3.223e-10
  3.42629   -173.0 1.111e+04 4.664e-10
  3.46605   -173.4 1.135e+04 6.566e-10
  3.50580   -173.7 1.145e+04 8.122e-10
  3.53456   -173.8 1.146e+04 8.697e-10
  3.55444   -173.4 1.136e+04 7.709e-10
  3.58530   -173.4 1.128e+04 7.587e-10
  3.62506   -173.1 1.118e+04 7.362e-10
  3.64608   -172.3 1.114e+04 7.208e-10
  3.66595   -173.7 1.103e+04 6.069e-10
  3.70456   -172.6 1.096e+04 5.792e-10
  3.74431   -171.1 1.093e+04 5.439e-10
  3.76712   -169.4 1.093e+04 5.016e-10
  3.78700   -169.9 1.089e+04 4.727e-10
  3.82382   -168.4 1.090e+04 4.444e-10
  3.86357   -167.0 1.091e+04 4.036e-10
  3.90332   -165.6 1.088e+04 3.668e-10
  3.94307   -164.0 1.084e+04 3.303e-10
  3.97981   -162.3 1.076e+04 2.917e-10
  3.99968   -161.9 1.086e+04 3.095e-10
  4.02258   -160.2 1.075e+04 2.821e-10
  4.06233   -158.5 1.062e+04 2.541e-10
  4.10208   -156.7 1.053e+04 2.339e-10
  4.14183   -154.8 1.048e+04 2.257e-10
  4.18159   -152.7 1.045e+04 2.236e-10
  4.20978   -150.5 1.046e+04 2.282e-10
  4.22068   -150.9 1.083e+04 3.696e-10
  4.23224   -150.9 1.116e+04 4.260e-10
  4.26109   -148.7 1.109e+04 4.272e-10
  4.30084   -146.5 1.106e+04 4.355e-10
  4.34059   -144.3 1.102e+04 4.467e-10
  4.38035   -142.0 1.097e+04 4.559e-10
  4.42010   -139.8 1.092e+04 4.590e-10
  4.44493   -137.5 1.083e+04 4.500e-10
  4.46481   -137.5 1.088e+04 4.129e-10
  4.49960   -135.0 1.079e+04 3.945e-10
  4.53936   -132.6 1.068e+04 3.708e-10
  4.57911   -130.1 1.057e+04 3.410e-10
  4.61886   -127.6 1.047e+04 3.122e-10
  4.65761   -125.0 1.042e+04 2.896e-10
  4.67749   -125.3 1.079e+04 3.379e-10
  4.69836   -122.9 1.080e+04 3.434e-10
  4.73812   -120.4 1.084e+04 3.536e-10
  4.77348   -118.0 1.092e+04 3.708e-10
  4.79335   -119.0 1.120e+04 4.938e-10
  4.81762   -116.6 1.119e+04 4.923e-10
  4.85737   -114.1 1.120e+04 4.889e-10
  4.89017   -111.7 1.127e+04 4.942e-10
  4.91005   -112.5 1.130e+04 4.813e-10
  4.93688   -110.1 1.129e+04 5.118e-10
  4.97663   -107.7 1.130e+04 5.471e-10
  5.01638   -105.5 1.132e+04 5.841e-10
  5.05613   -103.4 1.138e+04 6.384e-10
  5.09589   -101.5 1.152e+04 7.394e-10
  5.12274    -99.8 1.172e+04 9.038e-10
  5.14261   -100.2 1.172e+04 9.335e-10
  5.17539    -98.7 1.182e+04 1.026e-09
  5.21514    -97.5 1.179e+04 1.079e-09
  5.25489    -96.5 1.156e+04 1.059e-09
  5.29465    -95.4 1.112e+04 8.488e-10
  5.33440    -94.4 1.058e+04 5.781e-10
  5.35530    -93.4 1.018e+04 3.964e-10
  5.35807    -93.2 1.016e+04 3.760e-10
  5.37693    -93.5 1.090e+04 6.206e-10
  5.41390    -92.4 1.063e+04 4.991e-10
  5.45365    -91.3 1.035e+04 4.072e-10
  5.49341    -90.1 1.018e+04 3.566e-10
  5.53316    -88.9 1.008e+04 3.386e-10
  5.56798    -87.7 1.002e+04 3.334e-10
  5.58786    -88.0 1.069e+04 5.976e-10
  5.60263    -87.1 1.074e+04 6.129e-10
  5.62241    -87.0 1.080e+04 6.230e-10
  5.63871    -86.7 1.088e+04 6.580e-10
  5.64864    -86.8 1.090e+04 7.094e-10
  5.66216    -86.6 1.093e+04 7.435e-10
  5.68203    -86.1 1.093e+04 7.741e-10
  5.69400    -85.6 1.092e+04 8.026e-10
  5.70394    -86.3 1.132e+04 1.055e-09
  5.72179    -85.7 1.132e+04 1.071e-09
  5.74166    -85.3 1.140e+04 1.099e-09
  5.76154    -85.0 1.149e+04 1.142e-09
  5.78141    -84.6 1.156e+04 1.196e-09
  5.80035    -84.0 1.162e+04 1.257e-09
  5.81028    -84.8 1.196e+04 1.458e-09
  5.82117    -84.1 1.192e+04 1.440e-09
  5.84104    -83.3 1.186e+04 1.398e-09
  5.86092    -82.5 1.177e+04 1.319e-09
  5.88079    -81.6 1.167e+04 1.197e-09
  5.90067    -80.8 1.159e+04 1.073e-09
  5.91663    -80.2 1.151e+04 9.743e-10
  5.92657    -81.3 1.135e+04 8.279e-10
  5.94042    -80.7 1.129e+04 8.041e-10
  5.96030    -80.1 1.133e+04 8.192e-10
  5.98018    -79.6 1.148e+04 9.108e-10
  6.00005    -79.0 1.165e+04 1.023e-09
  6.01993    -78.4 1.180e+04 1.136e-09
  6.03291    -77.7 1.195e+04 1.229e-09
  6.04285    -78.6 1.206e+04 1.289e-09
  6.05968    -78.3 1.214e+04 1.336e-09
  6.08959    -78.0 1.222e+04 1.361e-09
  6.12944    -77.1 1.208e+04 1.296e-09
  6.16919    -76.0 1.180e+04 1.151e-09
  6.20895    -74.7 1.149e+04 9.545e-10
  6.24579    -73.3 1.120e+04 7.639e-10
  6.26566    -75.2 1.075e+04 5.097e-10
  6.28845    -73.8 1.045e+04 3.694e-10
  6.32820    -72.2 1.021e+04 2.694e-10
  6.36795    -70.3 1.001e+04 2.052e-10
  6.40771    -68.7 9.691e+03 1.553e-10
  6.44746    -66.9 9.418e+03 1.257e-10
  6.47835    -65.1 9.348e+03 1.160e-10
  6.49546    -65.9 9.177e+03 8.955e-11
  6.50433    -66.3 9.204e+03 8.702e-11
  6.52696    -64.6 9.240e+03 8.891e-11
  6.56671    -63.2 9.321e+03 1.186e-10
  6.60647    -61.6 9.420e+03 1.761e-10
  6.64622    -59.9 9.564e+03 2.459e-10
  6.68597    -58.2 9.669e+03 3.077e-10
  6.71091    -56.9 9.678e+03 3.353e-10
  6.73079    -58.9 9.641e+03 3.647e-10
  6.76548    -57.8 9.599e+03 3.618e-10
  6.80523    -56.9 9.532e+03 3.511e-10
  6.84498    -56.5 9.544e+03 3.493e-10
  6.88473    -56.4 9.711e+03 3.877e-10
  6.92359    -56.4 9.822e+03 4.361e-10
  6.94347    -58.1 9.610e+03 4.110e-10
  6.96424    -57.8 9.570e+03 4.080e-10
  7.00399    -57.2 9.279e+03 3.240e-10
  7.04374    -56.7 8.905e+03 2.319e-10
  7.06803    -56.0 8.573e+03 1.746e-10
  7.08790    -56.8 8.650e+03 1.746e-10
  7.12325    -55.7 8.423e+03 1.347e-10
  7.15615    -54.3 8.301e+03 1.102e-10
  7.17603    -54.6 8.183e+03 9.406e-11
  7.20275    -53.1 8.178e+03 8.650e-11
  7.24250    -51.5 8.194e+03 8.543e-11
  7.28225    -50.1 8.297e+03 9.340e-11
  7.32201    -48.7 8.434e+03 1.133e-10
  7.36176    -46.9 8.598e+03 1.391e-10
  7.38872    -45.5 8.851e+03 1.541e-10
  7.40859    -46.4 9.202e+03 1.998e-10
  7.44126    -46.4 9.817e+03 2.677e-10
  7.48101    -47.0 1.042e+04 4.476e-10
  7.52077    -47.1 1.093e+04 7.727e-10
  7.56052    -46.1 1.130e+04 1.014e-09
  7.60027    -45.3 1.136e+04 9.807e-10
  7.62128    -44.3 1.112e+04 6.605e-10
  7.63285    -44.9 1.121e+04 6.645e-10
  7.65160    -45.3 1.107e+04 5.750e-10
  7.66974    -44.7 1.109e+04 4.570e-10
  7.68952    -44.7 1.108e+04 4.530e-10
  7.70939    -44.3 1.127e+04 4.544e-10
  7.72742    -44.5 1.126e+04 5.095e-10
  7.73736    -44.8 1.135e+04 5.468e-10
  7.74915    -44.3 1.143e+04 6.860e-10
  7.76902    -43.7 1.152e+04 8.041e-10
  7.78890    -42.9 1.167e+04 8.949e-10
  7.80877    -42.2 1.172e+04 9.214e-10
  7.82865    -41.6 1.171e+04 9.151e-10
  7.84370    -41.1 1.162e+04 8.429e-10
  7.85364    -41.2 1.164e+04 8.459e-10
  7.86840    -40.8 1.162e+04 7.773e-10
  7.88828    -40.7 1.161e+04 7.230e-10
  7.90815    -40.7 1.157e+04 6.941e-10
  7.92332    -40.7 1.151e+04 6.831e-10
  7.93326    -40.4 1.148e+04 6.470e-10
  7.94791    -40.2 1.146e+04 6.518e-10
  7.95998    -40.0 1.135e+04 6.550e-10
  7.96992    -39.9 1.133e+04 6.457e-10
  7.98766    -39.3 1.114e+04 6.104e-10
  8.00754    -38.8 1.099e+04 5.331e-10
  8.03745    -38.4 1.089e+04 4.537e-10
  8.06652    -37.6 1.065e+04 3.194e-10
  8.08640    -37.7 1.055e+04 2.548e-10
  8.11705    -36.8 1.021e+04 1.935e-10
  8.15680    -35.8 1.000e+04 1.644e-10
  8.19542    -34.4 9.999e+03 1.366e-10
  8.21530    -33.8 1.012e+04 1.438e-10
  8.23631    -32.6 1.016e+04 1.241e-10
  8.27606    -31.4 1.021e+04 1.184e-10
  8.29908    -30.1 1.014e+04 1.326e-10
  8.31896    -30.7 1.016e+04 1.323e-10
  8.35556    -28.8 1.013e+04 1.625e-10
  8.39531    -26.6 1.024e+04 1.675e-10
  8.43507    -24.8 1.060e+04 1.384e-10
  8.47482    -23.7 1.072e+04 1.447e-10
  8.51177    -22.9 1.099e+04 2.115e-10
  8.53164    -23.2 1.101e+04 2.090e-10
  8.55432    -21.6 1.142e+04 2.802e-10
  8.59407    -19.9 1.163e+04 3.690e-10
  8.62379    -18.5 1.157e+04 4.589e-10
  8.63779    -17.6 1.184e+04 5.352e-10
  8.64773    -18.2 1.186e+04 4.773e-10
  8.66345    -17.4 1.224e+04 5.765e-10
  8.68332    -17.1 1.277e+04 7.518e-10
  8.70320    -18.1 1.384e+04 1.156e-09
  8.72307    -20.0 1.509e+04 2.263e-09
  8.74295    -21.9 1.625e+04 4.957e-09
  8.75407    -21.5 1.738e+04 1.159e-08
  8.76401    -21.2 1.598e+04 7.434e-09
  8.77880    -20.4 1.711e+04 9.042e-09
  8.78874    -19.9 1.718e+04 1.177e-08
  8.80258    -21.0 1.882e+04 1.061e-08
  8.81744    -25.3 2.095e+04 8.678e-09
  8.82733    -29.6 2.073e+04 8.851e-09
  8.83726    -33.0 1.861e+04 1.080e-08
  8.84720    -34.4 1.750e+04 1.184e-08
  8.85714    -35.0 1.756e+04 1.474e-08
  8.86529    -35.0 1.853e+04 1.705e-08
  8.87025    -36.0 1.756e+04 1.170e-08
  8.87702    -37.2 1.890e+04 1.313e-08
  8.88695    -38.9 1.977e+04 1.324e-08
  8.90191    -41.6 1.912e+04 1.164e-08
  8.92183    -45.0 1.756e+04 9.866e-09
  8.94171    -45.7 1.601e+04 6.713e-09
  8.96159    -45.5 1.510e+04 3.635e-09
  8.97669    -47.3 1.415e+04 1.712e-09
  8.98663    -47.1 1.350e+04 1.347e-09
  9.00134    -49.1 1.232e+04 7.258e-10
  9.02121    -49.7 1.164e+04 5.308e-10
  9.04109    -49.7 1.137e+04 4.523e-10
  9.06065    -48.7 1.117e+04 4.054e-10
  9.07059    -49.1 1.114e+04 4.047e-10
  9.08084    -48.1 1.105e+04 3.890e-10
  9.11075    -46.7 1.108e+04 3.739e-10
  9.15060    -45.0 1.108e+04 4.055e-10
  9.18957    -43.2 1.105e+04 4.539e-10
  9.20945    -42.8 1.069e+04 3.481e-10
  9.23011    -40.9 1.065e+04 3.938e-10
  9.26986    -38.6 1.074e+04 4.313e-10
  9.30961    -37.0 1.086e+04 4.543e-10
  9.34270    -35.6 1.106e+04 5.122e-10
  9.36258    -35.5 1.101e+04 5.190e-10
  9.38912    -34.3 1.122e+04 6.274e-10
  9.42214    -32.9 1.161e+04 8.190e-10
  9.44201    -33.1 1.216e+04 1.340e-09
  9.46862    -32.0 1.270e+04 1.735e-09
  9.50837    -31.4 1.297e+04 1.981e-09
  9.54813    -30.9 1.304e+04 2.029e-09
  9.58788    -30.7 1.305e+04 2.014e-09
  9.62763    -30.6 1.310e+04 2.117e-09
  9.65470    -30.9 1.325e+04 2.359e-09
  9.67457    -31.7 1.305e+04 2.297e-09
  9.69710    -31.4 1.330e+04 2.718e-09
  9.71688    -30.8 1.308e+04 2.699e-09
  9.73675    -30.0 1.289e+04 2.395e-09
  9.75663    -29.6 1.282e+04 1.900e-09
  9.77078    -29.5 1.246e+04 1.591e-09
  9.78072    -29.5 1.218e+04 1.420e-09
  9.79638    -29.2 1.179e+04 1.180e-09
  9.81626    -28.5 1.153e+04 9.964e-10
  9.83613    -28.0 1.159e+04 8.097e-10
  9.85601    -27.6 1.132e+04 7.008e-10
  9.87589    -27.5 1.117e+04 6.633e-10
  9.88716    -26.4 1.105e+04 6.371e-10
  9.90713    -26.2 1.083e+04 5.256e-10
  9.92628    -25.1 1.110e+04 5.027e-10
  9.94615    -25.8 1.087e+04 4.196e-10
  9.98540    -25.7 1.100e+04 5.362e-10
 10.01512    -24.8 1.094e+04 6.800e-10
 10.03489    -24.6 1.109e+04 7.265e-10
 10.05477    -24.4 1.121e+04 8.015e-10
 10.07465    -23.8 1.118e+04 8.675e-10
 10.09452    -23.3 1.144e+04 8.128e-10
 10.10968    -23.5 1.168e+04 7.541e-10
 10.11962    -23.3 1.175e+04 8.444e-10
 10.13428    -23.6 1.172e+04 8.092e-10
 10.15415    -23.7 1.149e+04 8.041e-10
 10.17403    -23.5 1.152e+04 7.436e-10
 10.19390    -23.6 1.157e+04 7.331e-10
 10.20793    -24.0 1.188e+04 7.466e-10
 10.21787    -23.5 1.149e+04 6.394e-10
 10.22596    -23.9 1.174e+04 6.662e-10
 10.23590    -24.3 1.225e+04 9.084e-10
 10.25353    -25.6 1.240e+04 1.178e-09
 10.27341    -25.8 1.265e+04 1.267e-09
 10.29328    -26.4 1.261e+04 1.676e-09
 10.31316    -26.3 1.275e+04 1.808e-09
 10.33231    -26.0 1.284e+04 1.795e-09
 10.34225    -26.0 1.293e+04 1.789e-09
 10.35291    -25.6 1.269e+04 1.531e-09
 10.37279    -25.0 1.270e+04 1.078e-09
 10.39266    -25.3 1.250e+04 8.161e-10
 10.41254    -25.6 1.217e+04 5.984e-10
 10.43242    -25.7 1.200e+04 5.235e-10
 10.46233    -25.0 1.160e+04 4.780e-10
 10.48997    -23.4 1.156e+04 4.114e-10
 10.50985    -23.1 1.150e+04 3.961e-10
 10.54193    -21.7 1.135e+04 3.164e-10
 10.56506    -20.5 1.118e+04 2.641e-10
 10.58494    -20.3 1.110e+04 2.514e-10
 10.62143    -18.9 1.112e+04 2.105e-10
 10.66119    -17.9 1.107e+04 1.970e-10
 10.70094    -16.9 1.099e+04 1.965e-10
 10.74069    -15.7 1.096e+04 1.928e-10
 10.77775    -14.8 1.111e+04 1.863e-10
 10.79762    -14.5 1.111e+04 1.823e-10
 10.82020    -14.3 1.125e+04 1.914e-10
 10.85995    -14.4 1.138e+04 2.480e-10
 10.89970    -13.9 1.135e+04 3.312e-10
 10.93945    -13.3 1.136e+04 3.697e-10
 10.97920    -12.4 1.119e+04 3.414e-10
 11.01031    -11.0 1.105e+04 2.495e-10
 11.03018    -10.6 1.101e+04 2.433e-10
 11.05367     -9.3 1.098e+04 1.476e-10
 11.07355     -8.3 1.091e+04 1.516e-10
 11.09846     -7.8 1.105e+04 9.482e-11
 11.13821     -7.3 1.087e+04 7.726e-11
 11.17796     -6.1 1.077e+04 7.649e-11
 11.21772     -4.5 1.077e+04 7.779e-11
 11.24287     -3.0 1.079e+04 7.899e-11
 11.26275     -2.6 1.075e+04 7.500e-11
 11.29722     -1.2 1.075e+04 7.878e-11
 11.33697     -0.0 1.072e+04 8.418e-11
 11.37673      1.2 1.069e+04 8.984e-11
 11.41648      2.5 1.065e+04 9.400e-11
 11.45555      3.8 1.062e+04 9.847e-11
 11.47543      4.5 1.055e+04 8.705e-11
 11.49598      5.8 1.051e+04 8.843e-11
 11.53573      7.0 1.044e+04 9.482e-11
 11.57549      8.2 1.042e+04 1.097e-10
 11.61524      9.4 1.045e+04 1.344e-10
 11.63725     10.5 1.048e+04 1.773e-10
 11.65713     10.8 1.051e+04 1.749e-10
 11.68812     12.0 1.058e+04 2.359e-10
 11.70799     12.7 1.056e+04 1.983e-10
 11.73449     13.9 1.070e+04 2.877e-10
 11.77425     15.1 1.085e+04 3.622e-10
 11.81400     16.0 1.094e+04 3.780e-10
 11.85375     16.6 1.094e+04 3.650e-10
 11.89350     17.2 1.090e+04 3.538e-10
 11.92068     17.9 1.086e+04 3.563e-10
 11.94055     18.4 1.105e+04 4.734e-10
 11.97301     19.2 1.093e+04 4.320e-10
 12.01276     20.1 1.080e+04 4.035e-10
 12.05251     21.3 1.071e+04 3.803e-10
 12.09226     22.7 1.061e+04 3.489e-10
 12.13202     24.2 1.052e+04 3.056e-10
 12.15324     25.7 1.042e+04 2.573e-10
 12.17311     25.9 1.041e+04 2.411e-10
 12.20095     27.4 1.034e+04 2.094e-10
 12.22082     27.5 1.047e+04 2.444e-10
 12.25127     28.9 1.042e+04 2.357e-10
 12.29102     30.4 1.041e+04 2.347e-10
 12.33078     31.8 1.040e+04 2.325e-10
 12.36592     33.3 1.038e+04 2.244e-10
 12.38580     33.7 1.053e+04 2.501e-10
 12.41028     35.3 1.047e+04 2.222e-10
 12.45003     36.8 1.039e+04 1.798e-10
 12.48979     38.3 1.035e+04 1.612e-10
 12.52954     39.7 1.037e+04 1.639e-10
 12.56929     40.9 1.047e+04 1.895e-10
 12.59848     41.8 1.068e+04 2.766e-10
 12.61836     42.1 1.088e+04 3.570e-10
 12.64879     42.8 1.134e+04 6.246e-10
 12.68855     42.7 1.200e+04 1.070e-09
 12.72830     42.2 1.278e+04 1.689e-09
 12.75801     41.3 1.319e+04 2.047e-09
 12.77439     41.0 1.325e+04 2.088e-09
 12.78443     41.0 1.310e+04 1.802e-09
 12.80780     39.7 1.314e+04 1.693e-09
 12.83104     38.2 1.301e+04 1.467e-09
 12.85092     37.7 1.306e+04 1.398e-09
 12.88731     36.4 1.288e+04 1.326e-09
 12.91702     35.9 1.282e+04 1.338e-09
 12.93680     34.9 1.289e+04 1.486e-09
 12.94713     34.1 1.299e+04 1.753e-09
 12.95707     33.9 1.304e+04 1.710e-09
 12.97655     33.4 1.314e+04 1.973e-09
 12.99643     33.1 1.322e+04 2.099e-09
 13.01631     32.9 1.326e+04 2.085e-09
 13.03618     32.5 1.326e+04 2.018e-09
 13.05347     31.9 1.328e+04 2.025e-09
 13.06341     32.1 1.347e+04 2.194e-09
 13.06618     31.4 1.366e+04 2.330e-09
 13.07612     30.5 1.348e+04 2.137e-09
 13.09581     29.8 1.354e+04 2.254e-09
 13.11569     29.5 1.355e+04 2.489e-09
 13.13556     29.4 1.348e+04 2.614e-09
 13.15544     29.4 1.340e+04 2.526e-09
 13.16975     29.4 1.320e+04 2.325e-09
 13.17969     29.6 1.344e+04 2.641e-09
 13.19519     29.8 1.299e+04 2.103e-09
 13.21507     29.8 1.272e+04 1.795e-09
 13.24498     30.4 1.212e+04 1.087e-09
 13.27629     30.6 1.139e+04 5.392e-10
 13.29616     30.6 1.168e+04 7.102e-10
 13.32458     30.8 1.112e+04 5.354e-10
 13.34822     31.7 1.102e+04 5.397e-10
 13.36810     31.7 1.131e+04 7.064e-10
 13.40408     32.7 1.130e+04 7.342e-10
 13.44384     33.4 1.129e+04 7.830e-10
 13.48359     34.0 1.121e+04 7.638e-10
 13.50885     34.6 1.095e+04 6.772e-10
 13.52873     34.6 1.090e+04 6.346e-10
 13.56309     35.2 1.048e+04 4.495e-10
 13.60285     35.7 1.011e+04 3.040e-10
 13.64260     36.0 9.858e+03 2.188e-10
 13.68235     36.2 9.732e+03 1.709e-10
 13.72153     36.4 9.532e+03 1.517e-10
 13.74141     35.8 9.682e+03 1.586e-10
 13.76185     36.1 9.709e+03 1.651e-10
 13.80161     36.3 9.829e+03 1.915e-10
 13.84136     36.4 1.002e+04 2.516e-10
 13.88111     36.4 1.026e+04 3.428e-10
 13.91192     36.3 1.046e+04 4.335e-10
 13.93180     36.5 1.047e+04 4.367e-10
 13.95410     36.3 1.055e+04 4.769e-10
 13.97397     35.0 1.076e+04 5.479e-10
 14.00037     34.4 1.060e+04 4.541e-10
 14.04012     33.0 1.053e+04 4.172e-10
 14.07987     31.3 1.056e+04 4.404e-10
 14.11962     29.8 1.063e+04 4.910e-10
 14.15938     28.7 1.055e+04 4.759e-10
 14.18666     27.4 1.034e+04 4.023e-10
 14.20653     26.0 1.028e+04 3.693e-10
 14.23888     24.6 1.012e+04 3.303e-10
 14.27863     23.6 1.008e+04 3.335e-10
 14.31838     22.7 1.007e+04 3.329e-10
 14.35814     22.2 1.002e+04 3.074e-10
 14.39789     22.0 9.952e+03 2.472e-10
 14.41922     21.7 9.950e+03 1.928e-10
 14.43909     20.8 9.969e+03 1.839e-10
 14.47562     20.1 1.008e+04 1.806e-10
 14.49550     21.3 1.002e+04 1.759e-10
 14.51715     20.9 1.008e+04 1.959e-10
 14.55690     20.7 1.016e+04 2.409e-10
 14.59665     20.8 1.029e+04 3.121e-10
 14.63190     21.1 1.044e+04 3.894e-10
 14.65178     20.5 1.045e+04 3.990e-10
 14.67615     20.8 1.056e+04 4.067e-10
 14.71591     21.2 1.060e+04 3.716e-10
 14.75566     21.3 1.068e+04 3.322e-10
 14.79541     21.2 1.078e+04 3.314e-10
 14.83516     20.2 1.122e+04 3.980e-10
 14.86446     19.0 1.166e+04 6.331e-10
 14.88434     17.6 1.195e+04 8.527e-10
 14.90463     17.6 1.216e+04 1.084e-09
 14.92441     17.3 1.239e+04 1.353e-09
 14.94429     16.9 1.236e+04 1.452e-09
 14.96416     16.8 1.223e+04 1.403e-09
 14.98055     16.8 1.188e+04 1.214e-09
 14.99049     16.1 1.189e+04 1.233e-09
 15.00391     16.1 1.141e+04 9.135e-10
 15.02379     15.8 1.106e+04 5.979e-10
 15.04367     14.9 1.080e+04 4.217e-10
 15.05910     15.2 1.054e+04 3.278e-10
 15.07907     15.8 1.051e+04 3.188e-10
 15.09702     15.8 9.888e+03 2.559e-10
 15.11690     14.4 9.552e+03 2.123e-10
 15.15318     15.6 9.451e+03 2.139e-10
 15.19293     17.0 9.419e+03 2.269e-10
 15.23268     18.5 9.467e+03 2.479e-10
 15.27244     19.7 9.544e+03 2.726e-10
 15.30971     20.8 9.625e+03 2.938e-10
 15.32958     20.3 9.311e+03 2.048e-10
 15.35194     21.4 9.303e+03 1.995e-10
 15.39169     22.3 9.258e+03 1.870e-10
 15.43144     23.2 9.186e+03 1.729e-10
 15.47120     24.2 9.121e+03 1.621e-10
 15.51095     25.4 9.056e+03 1.535e-10
 15.54227     26.7 8.992e+03 1.432e-10
 15.56215     27.0 8.840e+03 1.196e-10
 15.59045     28.6 8.804e+03 1.115e-10
 15.62290     30.2 8.804e+03 1.018e-10
 15.64277     30.6 8.763e+03 9.141e-11
 15.66996     32.1 8.796e+03 8.665e-11
 15.70971     33.8 8.821e+03 8.730e-11
 15.74946     35.4 8.883e+03 9.177e-11
 15.77483     37.0 8.967e+03 1.016e-10
 15.79471     37.2 8.917e+03 1.056e-10
 15.82897     38.8 9.021e+03 1.191e-10
 15.86872     40.4 9.159e+03 1.326e-10
 15.90847     41.9 9.303e+03 1.418e-10
 15.94822     43.4 9.390e+03 1.429e-10
 15.98751     44.7 9.419e+03 1.374e-10
 16.00739     44.7 9.466e+03 1.655e-10
 16.02773     45.9 9.453e+03 1.621e-10
 16.06748     46.9 9.385e+03 1.534e-10
 16.10723     48.0 9.254e+03 1.411e-10
 16.14698     49.3 9.101e+03 1.268e-10
 16.18660     50.6 8.944e+03 1.125e-10
 16.21994     52.8 8.831e+03 9.509e-11
 16.23995     52.8 8.823e+03 8.959e-11
 16.26624     54.2 8.685e+03 7.169e-11
 16.30599     55.8 8.589e+03 6.407e-11
 16.34574     57.5 8.582e+03 6.382e-11
 16.38550     59.2 8.590e+03 6.542e-11
 16.42525     61.0 8.642e+03 7.047e-11
 16.45264     62.6 8.733e+03 7.797e-11
 16.47251     62.5 8.730e+03 7.765e-11
 16.50475     64.0 8.838e+03 9.172e-11
 16.54450     65.4 8.957e+03 1.123e-10
 16.58426     66.6 9.085e+03 1.414e-10
 16.62401     67.8 9.228e+03 1.789e-10
 16.66376     68.9 9.405e+03 2.226e-10
 16.68520     69.8 9.617e+03 2.678e-10
 16.70507     69.6 9.645e+03 2.814e-10
 16.74327     70.2 9.830e+03 3.072e-10
 16.77017     70.7 9.978e+03 3.250e-10
 16.79005     71.9 9.779e+03 2.745e-10
 16.82277     72.6 9.981e+03 3.161e-10
 16.86252     73.3 1.018e+04 3.595e-10
 16.89788     73.9 1.041e+04 3.934e-10
 16.91776     73.3 1.037e+04 3.966e-10
 16.94203     73.7 1.059e+04 4.201e-10
 16.98178     74.1 1.067e+04 4.175e-10
 17.02153     74.4 1.071e+04 4.023e-10
 17.06128     74.9 1.071e+04 3.772e-10
 17.10103     75.6 1.066e+04 3.564e-10
 17.13044     76.4 1.065e+04 3.534e-10
 17.15032     75.9 1.064e+04 3.556e-10
 17.18054     76.7 1.068e+04 3.616e-10
 17.22029     77.7 1.086e+04 4.056e-10
 17.24663     78.3 1.101e+04 4.695e-10
 17.25647     78.0 1.098e+04 4.485e-10
 17.26979     78.1 1.110e+04 5.036e-10
 17.28966     78.1 1.127e+04 5.853e-10
 17.30954     78.0 1.146e+04 6.893e-10
 17.32941     77.9 1.165e+04 8.088e-10
 17.34361     77.7 1.183e+04 9.318e-10
 17.35355     78.5 1.196e+04 9.789e-10
 17.36281     78.2 1.208e+04 1.071e-09
 17.37275     77.7 1.206e+04 1.072e-09
 17.38904     77.3 1.193e+04 1.119e-09
 17.40892     77.0 1.190e+04 1.106e-09
 17.42879     76.6 1.182e+04 1.058e-09
 17.44867     76.2 1.173e+04 9.762e-10
 17.46855     75.6 1.164e+04 8.898e-10
 17.47909     75.1 1.155e+04 8.225e-10
 17.48903     74.5 1.139e+04 7.716e-10
 17.50830     74.1 1.130e+04 7.571e-10
 17.52818     73.8 1.123e+04 7.577e-10
 17.54805     73.7 1.120e+04 7.568e-10
 17.56793     73.5 1.119e+04 7.539e-10
 17.58543     73.4 1.118e+04 7.482e-10
 17.59537     73.2 1.109e+04 7.276e-10
 17.60768     73.1 1.109e+04 7.240e-10
 17.62546     73.0 1.108e+04 7.201e-10
 17.63540     73.4 1.109e+04 7.147e-10
 17.64743     73.2 1.107e+04 6.984e-10
 17.66731     73.0 1.107e+04 6.940e-10
 17.68718     72.7 1.112e+04 7.052e-10
 17.70171     71.9 1.129e+04 7.648e-10
 17.71165     71.8 1.127e+04 7.684e-10
 17.72694     70.4 1.167e+04 9.976e-10
 17.74681     69.2 1.213e+04 1.489e-09
 17.76669     68.6 1.253e+04 2.151e-09
 17.78656     68.1 1.281e+04 2.458e-09
 17.80644     67.3 1.281e+04 2.348e-09
 17.81799     66.0 1.262e+04 1.964e-09
 17.82793     66.2 1.268e+04 1.972e-09
 17.85623     65.0 1.207e+04 1.182e-09
 17.89608     62.4 1.074e+04 4.044e-10
 17.91745     59.2 9.307e+03 1.711e-10
 17.93732     60.0 9.359e+03 1.648e-10
 17.97558     58.8 9.008e+03 1.309e-10
 18.01533     58.8 9.009e+03 1.371e-10
 18.04081     59.2 9.033e+03 1.591e-10
 18.06069     59.1 9.153e+03 1.872e-10
 18.09484     59.8 9.302e+03 2.445e-10
 18.13459     60.5 9.485e+03 3.125e-10
 18.17434     61.2 9.609e+03 3.517e-10
 18.21410     61.6 9.613e+03 3.515e-10
 18.25349     62.1 9.556e+03 3.316e-10
 18.27337     61.8 9.491e+03 3.165e-10
 18.29360     62.4 9.324e+03 2.626e-10
 18.33335     63.2 9.140e+03 2.059e-10
 18.37310     64.0 8.975e+03 1.599e-10
 18.41286     64.8 8.843e+03 1.275e-10
 18.45261     65.5 8.770e+03 1.095e-10
 18.48115     66.4 8.764e+03 1.076e-10
 18.49472     66.3 8.736e+03 1.025e-10
 18.50593     65.8 8.902e+03 1.256e-10
 18.53211     66.5 8.937e+03 1.350e-10
 18.57186     67.2 9.001e+03 1.543e-10
 18.61162     68.0 9.077e+03 1.800e-10
 18.65137     68.7 9.167e+03 2.075e-10
 18.69112     69.4 9.276e+03 2.314e-10
 18.71862     69.8 9.409e+03 2.412e-10
 18.73849     69.2 9.366e+03 2.269e-10
 18.77063     69.5 9.395e+03 2.200e-10
 18.81038     69.9 9.403e+03 2.122e-10
 18.85013     70.3 9.416e+03 2.081e-10
 18.88988     70.8 9.477e+03 2.066e-10
 18.92963     71.1 9.550e+03 2.211e-10
 18.95118     71.6 9.675e+03 2.567e-10
 18.97105     71.6 9.748e+03 3.005e-10
 19.00914     72.3 9.912e+03 3.653e-10
 19.04485     73.2 1.008e+04 4.201e-10
 19.06472     73.9 9.776e+03 3.109e-10
 19.08864     74.9 9.937e+03 3.579e-10
 19.12839     75.8 1.008e+04 3.817e-10
 19.16386     76.7 1.014e+04 3.816e-10
 19.18374     76.9 1.024e+04 4.106e-10
 19.20790     77.8 1.025e+04 3.837e-10
 19.24765     78.6 1.023e+04 3.588e-10
 19.28740     79.5 1.023e+04 3.460e-10
 19.32716     80.5 1.024e+04 3.463e-10
 19.36691     81.6 1.029e+04 3.468e-10
 19.39642     82.5 1.031e+04 3.456e-10
 19.41630     83.0 1.031e+04 3.463e-10
 19.44641     84.0 1.035e+04 3.330e-10
 19.48616     84.9 1.038e+04 3.043e-10
 19.52592     85.8 1.040e+04 2.681e-10
 19.56567     86.6 1.039e+04 2.317e-10
 19.60542     87.5 1.038e+04 2.020e-10
 19.62842     88.5 1.037e+04 1.809e-10
 19.63211     89.3 1.033e+04 1.592e-10
 19.64886     90.1 1.033e+04 1.678e-10
 19.68492     91.1 1.036e+04 1.656e-10
 19.72468     92.2 1.039e+04 1.689e-10
 19.76443     93.3 1.048e+04 1.772e-10
 19.80418     94.3 1.056e+04 1.903e-10
 19.84167     95.2 1.064e+04 2.054e-10
 19.86154     96.1 1.070e+04 2.493e-10
 19.88369     97.0 1.080e+04 2.687e-10
 19.92344     98.0 1.093e+04 2.753e-10
 19.96319     98.7 1.096e+04 2.727e-10
 20.00294     99.5 1.101e+04 2.603e-10
 20.04269    100.2 1.106e+04 2.324e-10
 20.07423    100.9 1.107e+04 2.022e-10
 20.09411    101.6 1.108e+04 2.130e-10
 20.12220    102.4 1.103e+04 1.967e-10
 20.16195    103.1 1.103e+04 1.963e-10
 20.19212    103.7 1.105e+04 2.010e-10
 20.21200    104.2 1.104e+04 2.019e-10
 20.24145    104.5 1.116e+04 2.335e-10
 20.28121    104.8 1.133e+04 3.053e-10
 20.30679    104.9 1.152e+04 4.117e-10
 20.32667    105.7 1.136e+04 4.060e-10
 20.36071    105.8 1.165e+04 5.087e-10
 20.40046    105.6 1.193e+04 5.247e-10
 20.44022    104.9 1.194e+04 5.034e-10
 20.47997    104.1 1.198e+04 4.079e-10
 20.51947    103.3 1.195e+04 2.746e-10
 20.53935    104.1 1.191e+04 3.211e-10
 20.55947    103.2 1.183e+04 2.226e-10
 20.59922    102.5 1.144e+04 1.861e-10
 20.63898    102.4 1.123e+04 1.867e-10
 20.67873    102.5 1.119e+04 1.882e-10
 20.71848    102.8 1.113e+04 1.922e-10
 20.75204    103.2 1.111e+04 1.980e-10
 20.76950    103.7 1.113e+04 2.207e-10
 20.77570    104.1 1.137e+04 2.796e-10
 20.79798    104.4 1.138e+04 2.926e-10
 20.83774    104.8 1.143e+04 3.053e-10
 20.87749    105.4 1.144e+04 3.033e-10
 20.91724    106.0 1.146e+04 2.851e-10
 20.95699    106.6 1.143e+04 2.413e-10
 20.98460    107.2 1.135e+04 1.903e-10
 21.00447    107.6 1.142e+04 2.171e-10
 21.03650    108.2 1.128e+04 1.840e-10
 21.07625    108.7 1.123e+04 1.819e-10
 21.11600    109.2 1.119e+04 1.903e-10
 21.15575    109.3 1.114e+04 2.105e-10
 21.19551    109.2 1.114e+04 2.196e-10
 21.21716    108.7 1.116e+04 2.158e-10
 21.23703    109.1 1.131e+04 2.772e-10
 21.27501    108.2 1.130e+04 2.618e-10
 21.31476    107.2 1.113e+04 2.292e-10
 21.33940    106.7 1.092e+04 2.177e-10
 21.35927    106.9 1.082e+04 1.896e-10
 21.39427    106.9 1.079e+04 1.958e-10
 21.42984    107.1 1.076e+04 2.349e-10
 21.44972    107.5 1.093e+04 2.991e-10
 21.47377    108.0 1.106e+04 3.840e-10
 21.51352    108.5 1.120e+04 4.620e-10
 21.55328    108.8 1.123e+04 4.748e-10
 21.59303    108.9 1.118e+04 4.559e-10
 21.63278    109.2 1.101e+04 3.888e-10
 21.66240    109.4 1.080e+04 3.001e-10
 21.68228    109.9 1.075e+04 2.961e-10
 21.71228    110.1 1.056e+04 2.145e-10
 21.75204    110.3 1.042e+04 1.579e-10
 21.79179    110.5 1.030e+04 1.231e-10
 21.83154    110.8 1.008e+04 1.119e-10
 21.87129    111.2 1.003e+04 1.120e-10
 21.89496    111.6 1.002e+04 1.133e-10
 21.90689    112.2 1.003e+04 9.910e-11
 21.92297    112.4 1.017e+04 1.007e-10
 21.95080    112.8 1.016e+04 1.078e-10
 21.99055    113.1 1.016e+04 1.161e-10
 22.03030    113.4 1.021e+04 1.253e-10
 22.07005    113.6 1.024e+04 1.369e-10
 22.10765    113.8 1.026e+04 1.513e-10
 22.12752    114.5 1.034e+04 1.815e-10
 22.14956    114.9 1.038e+04 1.999e-10
 22.18931    115.1 1.038e+04 2.014e-10
 22.22906    115.5 1.035e+04 1.971e-10
 22.26881    116.1 1.025e+04 1.781e-10
 22.30857    116.8 1.013e+04 1.454e-10
 22.34021    117.6 1.000e+04 1.131e-10
 22.36009    118.1 9.992e+03 1.078e-10
 22.38807    118.8 9.802e+03 8.908e-11
 22.42782    119.8 9.755e+03 8.844e-11
 22.46679    121.0 9.746e+03 9.109e-11
 22.48667    120.9 9.844e+03 1.121e-10
 22.50733    122.1 9.867e+03 1.296e-10
 22.54708    123.5 1.003e+04 1.674e-10
 22.57277    124.7 1.030e+04 2.288e-10
 22.59265    125.0 1.020e+04 2.096e-10
 22.62658    125.9 1.049e+04 2.823e-10
 22.66634    126.0 1.068e+04 3.425e-10
 22.68895    126.0 1.080e+04 4.024e-10
 22.69879    126.1 1.074e+04 3.782e-10
 22.71583    125.9 1.093e+04 4.450e-10
 22.73571    125.4 1.133e+04 5.777e-10
 22.75558    124.3 1.191e+04 8.352e-10
 22.76833    123.0 1.253e+04 1.310e-09
 22.77826    122.5 1.279e+04 1.592e-09
 22.79520    121.6 1.326e+04 2.290e-09
 22.80514    122.1 1.301e+04 2.083e-09
 22.81521    121.1 1.358e+04 2.344e-09
 22.83509    120.1 1.362e+04 2.319e-09
 22.85496    118.6 1.368e+04 2.075e-09
 22.87484    117.2 1.343e+04 1.610e-09
 22.90475    115.6 1.333e+04 1.264e-09
 22.94460    111.3 1.244e+04 6.032e-10
 22.98435    106.7 1.098e+04 4.007e-10
 23.01802    103.8 1.052e+04 3.974e-10
 23.03789    105.0 1.062e+04 4.180e-10
 23.05037    103.2 1.053e+04 4.222e-10
 23.07025    103.6 1.050e+04 4.004e-10
 23.10361    103.0 1.046e+04 4.310e-10
 23.14336    102.7 1.047e+04 4.742e-10
 23.18311    102.6 1.045e+04 4.906e-10
 23.22287    102.7 1.041e+04 4.843e-10
 23.25058    102.9 1.024e+04 4.380e-10
 23.27045    103.7 1.026e+04 4.423e-10
 23.30237    104.1 9.976e+03 3.359e-10
 23.34212    104.5 9.660e+03 2.389e-10
 23.38187    104.8 9.310e+03 1.787e-10
 23.42163    105.2 9.045e+03 1.639e-10
 23.46138    105.6 9.056e+03 1.650e-10
 23.48314    105.7 9.075e+03 1.867e-10
 23.50301    106.1 9.006e+03 1.919e-10
 23.54088    106.3 9.240e+03 2.433e-10
 23.58064    106.6 9.364e+03 2.841e-10
 23.61407    107.0 9.401e+03 3.037e-10
 23.63395    106.2 1.009e+04 5.340e-10
 23.66014    106.4 1.009e+04 5.228e-10
 23.69582    106.5 1.020e+04 5.435e-10
 23.71570    107.1 9.922e+03 4.511e-10
 23.73964    107.2 1.022e+04 5.418e-10
 23.77940    107.3 1.055e+04 6.923e-10
 23.81915    107.5 1.079e+04 8.376e-10
 23.85890    107.8 1.076e+04 8.422e-10
 23.89865    107.9 1.062e+04 7.909e-10
 23.92838    108.0 1.034e+04 6.707e-10
 23.94826    108.8 1.037e+04 6.933e-10
 23.97816    108.9 1.001e+04 5.746e-10
 24.01791    109.5 9.751e+03 5.142e-10
 24.05766    110.5 9.742e+03 5.181e-10
 24.09741    111.6 9.796e+03 5.325e-10
 24.13717    112.9 9.928e+03 5.460e-10
 24.16085    113.2 9.981e+03 5.525e-10
 24.17069    113.6 1.009e+04 6.227e-10
 24.18666    113.8 1.012e+04 6.236e-10
 24.19745    114.0 1.016e+04 6.173e-10
 24.20739    113.3 1.001e+04 5.657e-10
 24.22641    113.4 1.008e+04 5.727e-10
 24.24629    113.4 1.019e+04 5.949e-10
 24.26616    113.3 1.033e+04 6.470e-10
 24.27703    113.1 1.052e+04 7.493e-10
 24.28697    113.3 1.058e+04 8.026e-10
 24.30592    113.1 1.079e+04 9.436e-10
 24.32579    112.9 1.107e+04 1.137e-09
 24.34567    112.5 1.150e+04 1.397e-09
 24.36555    111.6 1.208e+04 1.766e-09
 24.38337    110.3 1.277e+04 2.299e-09
 24.39331    109.9 1.278e+04 2.316e-09
 24.40530    108.7 1.334e+04 3.009e-09
 24.42517    107.6 1.363e+04 3.354e-09
 24.44505    106.4 1.363e+04 3.276e-09
 24.46493    105.0 1.346e+04 2.787e-09
 24.47930    103.6 1.293e+04 1.969e-09
 24.48924    102.6 1.236e+04 1.482e-09
 24.49965    101.5 1.171e+04 1.071e-09
 24.50959    101.6 1.156e+04 9.906e-10
 24.52455    100.7 1.104e+04 7.387e-10
 24.54443     99.9 1.067e+04 6.000e-10
 24.56431     98.9 1.033e+04 4.793e-10
 24.58418     98.2 1.009e+04 4.107e-10
 24.60609     98.0 1.017e+04 4.277e-10
 24.62607     98.8 9.721e+03 2.975e-10
 24.65394     99.0 9.606e+03 2.553e-10
 24.69370     99.7 9.557e+03 2.328e-10
 24.73345    100.9 9.571e+03 2.320e-10
 24.76134    102.3 9.635e+03 2.390e-10
 24.78122    101.9 9.683e+03 2.494e-10
 24.81295    103.3 9.929e+03 2.786e-10
 24.83875    104.7 1.028e+04 3.413e-10
 24.85863    105.6 1.003e+04 3.024e-10
 24.89246    106.6 1.041e+04 3.896e-10
 24.92217    106.9 1.059e+04 4.575e-10
 24.94195    107.2 1.080e+04 5.711e-10
 24.95484    107.5 1.115e+04 7.880e-10
 24.96477    108.1 1.104e+04 7.245e-10
 24.98170    108.3 1.148e+04 9.944e-10
 25.00158    108.4 1.194e+04 1.318e-09
 25.02146    108.4 1.242e+04 1.572e-09
 25.04133    108.1 1.294e+04 1.603e-09
 25.05294    107.3 1.297e+04 1.582e-09
 25.06285    106.3 1.268e+04 1.332e-09
 25.08105    107.4 1.265e+04 1.177e-09
 25.10096    107.1 1.260e+04 1.032e-09
 25.12084    106.8 1.253e+04 8.872e-10
 25.14071    106.6 1.245e+04 7.410e-10
 25.16059    106.4 1.236e+04 5.915e-10
 25.17746    106.1 1.225e+04 4.640e-10
 25.18740    107.2 1.230e+04 4.530e-10
 25.20034    106.8 1.212e+04 3.726e-10
 25.22022    106.5 1.191e+04 3.301e-10
 25.24009    106.4 1.171e+04 3.114e-10
 25.25997    106.6 1.154e+04 3.079e-10
 25.27984    107.1 1.150e+04 3.063e-10
 25.29374    107.7 1.150e+04 3.123e-10
 25.30368    108.5 1.151e+04 3.100e-10
 25.31960    109.0 1.151e+04 3.281e-10
 25.33479    109.1 1.168e+04 3.626e-10
 25.34472    108.8 1.171e+04 3.481e-10
 25.35935    108.8 1.200e+04 4.259e-10
 25.37922    108.4 1.242e+04 6.081e-10
 25.39910    107.6 1.298e+04 1.031e-09
 25.41002    107.1 1.368e+04 1.907e-09
 25.41996    107.8 1.368e+04 1.671e-09
 25.43885    107.3 1.451e+04 3.201e-09
 25.45873    107.1 1.526e+04 5.156e-09
 25.47861    106.4 1.574e+04 5.816e-09
 25.49848    105.3 1.574e+04 5.586e-09
 25.51636    104.1 1.550e+04 4.421e-09
 25.52630    104.5 1.593e+04 6.001e-09
 25.53823    103.4 1.527e+04 3.687e-09
 25.55811    102.0 1.435e+04 1.910e-09
 25.57799    100.1 1.331e+04 9.663e-10
 25.60790     98.5 1.223e+04 8.460e-10
 25.64775     98.4 1.195e+04 8.259e-10
 25.68750     98.9 1.187e+04 8.500e-10
 25.72725     99.8 1.181e+04 8.909e-10
 25.74912    100.6 1.178e+04 8.840e-10
 25.76899    100.8 1.190e+04 9.941e-10
 25.80676    102.0 1.170e+04 8.964e-10
 25.84651    103.5 1.138e+04 7.062e-10
 25.88626    105.2 1.103e+04 4.972e-10
 25.90862    106.9 1.075e+04 3.318e-10
 25.92850    107.8 1.090e+04 4.804e-10
 25.96180    109.4 1.072e+04 3.793e-10
 25.98168    110.3 1.069e+04 3.712e-10
 26.00552    112.0 1.057e+04 3.130e-10
 26.04527    113.8 1.041e+04 2.783e-10
 26.08502    115.7 1.028e+04 2.644e-10
 26.12477    117.7 1.020e+04 2.624e-10
 26.16453    119.6 1.019e+04 2.643e-10
 26.19436    121.5 1.012e+04 2.724e-10
 26.21424    122.7 1.023e+04 2.635e-10
 26.24403    124.4 1.017e+04 2.620e-10
 26.28378    126.1 1.008e+04 2.583e-10
 26.32353    127.8 9.975e+03 2.544e-10
 26.36329    129.5 9.934e+03 2.540e-10
 26.40304    131.2 9.926e+03 2.559e-10
 26.42692    132.9 9.964e+03 2.622e-10
 26.44680    133.9 1.006e+04 2.754e-10
 26.47232    135.5 1.019e+04 2.995e-10
 26.49220    136.2 1.095e+04 5.825e-10
 26.52229    137.3 1.119e+04 6.544e-10
 26.56205    137.6 1.148e+04 7.536e-10
 26.60180    137.9 1.172e+04 9.138e-10
 26.63961    138.2 1.200e+04 1.169e-09
 26.65939    139.1 1.161e+04 9.693e-10
 26.67117    139.2 1.171e+04 1.067e-09
 26.69105    139.3 1.182e+04 1.194e-09
 26.71092    139.5 1.195e+04 1.337e-09
 26.73080    139.7 1.209e+04 1.480e-09
 26.75067    139.8 1.220e+04 1.585e-09
 26.76391    140.0 1.225e+04 1.618e-09
 26.76893    140.1 1.220e+04 1.571e-09
 26.77557    140.4 1.227e+04 1.640e-09
 26.79043    140.7 1.224e+04 1.636e-09
 26.81030    141.1 1.217e+04 1.605e-09
 26.83018    141.6 1.206e+04 1.542e-09
 26.85005    142.2 1.197e+04 1.475e-09
 26.86993    142.8 1.194e+04 1.421e-09
 26.88191    143.5 1.197e+04 1.374e-09
 26.89185    143.7 1.210e+04 1.751e-09
 26.90968    144.3 1.227e+04 1.817e-09
 26.92956    144.8 1.234e+04 1.825e-09
 26.94943    145.1 1.232e+04 1.769e-09
 26.96931    145.3 1.219e+04 1.546e-09
 26.98825    145.2 1.212e+04 1.270e-09
 26.99819    145.0 1.247e+04 1.868e-09
 27.00906    143.7 1.267e+04 1.849e-09
 27.02894    138.6 1.537e+04 1.999e-09
 27.04576    128.2 2.051e+04 3.879e-09
 27.05323    119.1 2.946e+04 1.000e-08
 27.05624    119.4 3.001e+04 8.737e-09
 27.06362    115.6 2.807e+04 1.939e-08
 27.07356    112.6 2.548e+04 3.679e-08
 27.08350    110.7 2.367e+04 5.256e-08
 27.09344    109.4 2.325e+04 5.202e-08
 27.10338    108.2 2.289e+04 4.459e-08
 27.10941    106.8 2.301e+04 3.129e-08
 27.11438    107.0 2.282e+04 2.962e-08
 27.12325    105.1 2.295e+04 1.869e-08
 27.13319    103.0 2.225e+04 1.132e-08
 27.14815     97.8 1.971e+04 5.181e-09
 27.16807     92.9 1.449e+04 2.607e-09
 27.18795     91.9 1.304e+04 2.068e-09
 27.20782     92.1 1.297e+04 1.840e-09
 27.22082     92.2 1.350e+04 1.708e-09
 27.23075     92.8 1.222e+04 1.186e-09
 27.24758     92.7 1.246e+04 9.913e-10
 27.26745     91.8 1.296e+04 9.714e-10
 27.28733     90.4 1.378e+04 1.071e-09
 27.30720     89.0 1.415e+04 1.357e-09
 27.32708     88.1 1.410e+04 1.700e-09
 27.33755     89.0 1.263e+04 1.321e-09
 27.34749     89.1 1.302e+04 1.919e-09
 27.36683     89.3 1.290e+04 1.932e-09
 27.39674     90.3 1.217e+04 1.374e-09
 27.42656     90.5 1.213e+04 1.368e-09
 27.44344     90.7 1.204e+04 1.318e-09
 27.45338     91.1 1.188e+04 1.254e-09
 27.46621     91.5 1.175e+04 1.186e-09
 27.48609     92.0 1.164e+04 1.114e-09
 27.50597     92.4 1.161e+04 1.076e-09
 27.52584     92.5 1.164e+04 1.084e-09
 27.54572     92.2 1.185e+04 1.161e-09
 27.55972     90.7 1.257e+04 1.527e-09
 27.56975     92.7 1.189e+04 9.821e-10
 27.58557     90.6 1.310e+04 1.662e-09
 27.60535     89.5 1.380e+04 2.758e-09
 27.61940     88.9 1.384e+04 3.228e-09
 27.62934     89.5 1.438e+04 5.064e-09
 27.64510     89.2 1.425e+04 4.861e-09
 27.66497     88.7 1.368e+04 3.591e-09
 27.67600     87.7 1.296e+04 1.841e-09
 27.68594     87.7 1.271e+04 1.720e-09
 27.71476     85.1 1.243e+04 5.240e-10
 27.75461     78.2 9.953e+03 1.151e-10
 27.78254     76.3 9.034e+03 1.027e-10
 27.80241     78.5 9.070e+03 1.123e-10
 27.83412     79.1 9.052e+03 1.134e-10
 27.87387     80.4 8.784e+03 1.571e-10
 27.91362     80.6 9.956e+03 3.164e-10
 27.94334     78.7 1.174e+04 6.445e-10
 27.96311     77.4 1.291e+04 1.186e-09
 27.98299     77.1 1.397e+04 2.059e-09
 28.00287     76.9 1.483e+04 3.385e-09
 28.01490     76.7 1.542e+04 5.085e-09
 28.02484     76.9 1.598e+04 7.493e-09
 28.04262     76.8 1.632e+04 8.904e-09
 28.06250     76.8 1.672e+04 1.013e-08
 28.08237     76.8 1.686e+04 1.070e-08
 28.10225     77.0 1.664e+04 9.449e-09
 28.12124     77.1 1.605e+04 7.206e-09
 28.13118     76.9 1.597e+04 6.098e-09
 28.14200     76.7 1.494e+04 3.801e-09
 28.16188     76.1 1.374e+04 2.157e-09
 28.18175     74.7 1.246e+04 1.187e-09
 28.19304     72.8 1.129e+04 7.260e-10
 28.20297     69.9 1.022e+04 5.200e-10
 28.22150     69.1 1.008e+04 5.246e-10
 28.23753     68.9 1.012e+04 5.587e-10
 28.24746     68.9 1.025e+04 6.223e-10
 28.26126     68.9 1.039e+04 7.318e-10
 28.28113     69.1 1.060e+04 8.670e-10
 28.30101     69.3 1.084e+04 1.004e-09
 28.32088     69.7 1.093e+04 1.155e-09
 28.34076     69.9 1.094e+04 1.220e-09
 28.35381     69.9 1.090e+04 1.219e-09
 28.36374     70.0 1.119e+04 1.267e-09
 28.38051     69.6 1.122e+04 1.237e-09
 28.40039     68.8 1.126e+04 1.213e-09
 28.42026     67.7 1.127e+04 1.193e-09
 28.44014     66.5 1.125e+04 1.168e-09
 28.46002     65.3 1.116e+04 1.124e-09
 28.47009     64.0 1.100e+04 1.057e-09
 28.47502     63.9 1.081e+04 9.325e-10
 28.48482     63.3 1.057e+04 8.588e-10
 28.49977     62.5 1.039e+04 7.673e-10
 28.51964     61.8 1.019e+04 6.424e-10
 28.53952     61.0 1.002e+04 5.197e-10
 28.55940     60.1 9.899e+03 4.155e-10
 28.57643     58.9 9.800e+03 3.500e-10
 28.58637     57.8 9.570e+03 3.069e-10
 28.59915     56.5 9.529e+03 3.086e-10
 28.61903     55.1 9.539e+03 3.266e-10
 28.63890     53.1 9.784e+03 4.095e-10
 28.65878     49.8 1.083e+04 6.864e-10
 28.67865     46.2 1.233e+04 1.379e-09
 28.69271     43.6 1.348e+04 2.552e-09
 28.70265     43.4 1.322e+04 2.234e-09
 28.71841     41.8 1.366e+04 2.666e-09
 28.73828     40.2 1.365e+04 2.588e-09
 28.75674     38.5 1.341e+04 2.209e-09
 28.76667     39.4 1.341e+04 2.253e-09
 28.77803     37.1 1.280e+04 1.560e-09
 28.79791     35.5 1.226e+04 1.285e-09
 28.82782     34.6 1.164e+04 9.551e-10
 28.85764     34.2 1.124e+04 7.931e-10
 28.87741     34.3 1.104e+04 7.174e-10
 28.89729     34.6 1.089e+04 6.646e-10
 28.91533     34.9 1.087e+04 6.472e-10
 28.92527     35.5 1.074e+04 5.883e-10
 28.93704     36.0 1.068e+04 5.810e-10
 28.95692     36.6 1.070e+04 5.829e-10
 28.98683     37.9 1.073e+04 5.485e-10
 29.02668     39.8 1.053e+04 5.115e-10
 29.06643     41.7 1.032e+04 4.259e-10
 29.10618     43.4 1.017e+04 3.250e-10
 29.13815     44.8 1.004e+04 2.609e-10
 29.15803     45.8 1.008e+04 3.011e-10
 29.18569     47.4 1.002e+04 2.755e-10
 29.22544     49.1 1.004e+04 2.777e-10
 29.26519     50.7 1.016e+04 2.943e-10
 29.30495     52.2 1.032e+04 3.421e-10
 29.33057     53.5 1.054e+04 4.166e-10
 29.35044     54.3 1.084e+04 4.739e-10
 29.37071     55.2 1.125e+04 6.640e-10
 29.39059     56.5 1.126e+04 6.541e-10
 29.42420     57.5 1.169e+04 8.988e-10
 29.46395     58.2 1.186e+04 9.728e-10
 29.50371     58.9 1.179e+04 9.330e-10
 29.54346     59.8 1.147e+04 7.627e-10
 29.58321     61.2 1.099e+04 5.269e-10
 29.62296     64.1 1.075e+04 3.827e-10
 29.66271     65.7 1.029e+04 2.300e-10
 29.70247     67.4 1.002e+04 1.534e-10
 29.74222     69.2 9.805e+03 1.185e-10
 29.78197     71.1 9.510e+03 1.165e-10
 29.81596     73.2 9.502e+03 1.184e-10
 29.83583     74.2 9.527e+03 1.057e-10
 29.86148     76.2 9.474e+03 1.106e-10
 29.89427     78.1 9.409e+03 1.303e-10
 29.91414     78.5 9.863e+03 1.733e-10
 29.94098     80.3 9.877e+03 2.333e-10
 29.98073     82.1 9.983e+03 3.179e-10
 30.02048     84.0 1.003e+04 3.853e-10
 30.04852     85.6 1.001e+04 3.899e-10
 30.06839     86.5 9.933e+03 3.675e-10
 30.09999     88.2 9.847e+03 3.601e-10
 30.13974     90.1 9.599e+03 3.221e-10
 30.17949     92.0 9.277e+03 2.561e-10
 30.21924     94.0 8.948e+03 1.875e-10
 30.25900     96.1 8.624e+03 1.361e-10
 30.28108     98.2 8.381e+03 1.032e-10
 30.30095     99.0 8.479e+03 1.184e-10
 30.33850    101.0 8.307e+03 9.016e-11
 30.37825    103.1 8.108e+03 7.648e-11
 30.41801    105.4 7.847e+03 7.557e-11
 30.45776    107.7 7.833e+03 7.558e-11
 30.47784    110.2 7.828e+03 7.605e-11
 30.49397    110.3 7.839e+03 7.603e-11
 30.51364    110.9 7.907e+03 8.411e-11
 30.53726    113.3 7.924e+03 8.790e-11
 30.57701    115.6 7.953e+03 9.566e-11
 30.61677    117.8 7.987e+03 1.052e-10
 30.65652    119.9 8.018e+03 1.155e-10
 30.69627    122.0 8.062e+03 1.293e-10
 30.72632    123.8 8.169e+03 1.517e-10
 30.74620    124.5 8.244e+03 1.667e-10
 30.77577    126.2 8.428e+03 2.025e-10
 30.81553    127.6 8.719e+03 2.616e-10
 30.85528    128.8 9.101e+03 3.520e-10
 30.89503    129.8 9.445e+03 4.578e-10
 30.93478    130.5 9.589e+03 4.942e-10
 30.95888    130.9 9.567e+03 4.845e-10
 30.97876    131.2 9.287e+03 4.125e-10
 31.01429    131.7 9.131e+03 3.680e-10
 31.04154    132.3 8.874e+03 3.068e-10
 31.06142    132.3 9.048e+03 3.338e-10
 31.09379    133.0 8.704e+03 2.632e-10
 31.13354    134.0 8.657e+03 2.520e-10
 31.17157    135.3 8.717e+03 2.604e-10
 31.19145    135.9 8.618e+03 2.451e-10
 31.21305    137.5 8.898e+03 2.836e-10
 31.25280    139.2 9.281e+03 3.484e-10
 31.29255    140.1 9.569e+03 4.148e-10
 31.32227    140.7 9.868e+03 5.121e-10
 31.33314    140.8 1.022e+04 6.292e-10
 31.34307    140.5 1.041e+04 6.692e-10
 31.36192    140.2 1.102e+04 8.885e-10
 31.38180    139.5 1.181e+04 1.237e-09
 31.40168    138.5 1.271e+04 1.848e-09
 31.41387    137.3 1.390e+04 3.055e-09
 31.42381    138.0 1.392e+04 3.201e-09
 31.44143    135.8 1.629e+04 5.223e-09
 31.45629    131.2 2.025e+04 7.841e-09
 31.46618    128.5 2.167e+04 9.999e-09
 31.47192    123.4 2.536e+04 1.461e-08
 31.47473    125.1 2.483e+04 1.502e-08
 31.47893    122.1 2.557e+04 3.416e-08
 31.48605    114.0 2.500e+04 1.505e-07
 31.49599    108.3 2.274e+04 2.786e-07
 31.50593    105.7 2.209e+04 2.741e-07
 31.51587    105.8 2.134e+04 2.179e-07
 31.52509    106.6 2.106e+04 1.234e-07
 31.53006    106.7 2.069e+04 2.297e-07
 31.53574    108.2 2.095e+04 9.805e-08
 31.54568    108.4 2.183e+04 2.968e-08
 31.56064    107.5 2.318e+04 8.009e-09
 31.58056     98.0 2.575e+04 4.759e-10
 31.60044     83.2 1.180e+04 2.667e-10
 31.61498     79.0 9.849e+03 2.508e-10
 31.62492     76.8 1.009e+04 2.884e-10
 31.63650     75.9 1.014e+04 3.138e-10
 31.64643     76.4 1.044e+04 3.567e-10
 31.66006     73.6 1.292e+04 4.736e-10
 31.67994     67.2 2.227e+04 6.645e-10
 31.69982     61.6 2.599e+04 1.193e-09
 31.71468     52.4 3.057e+04 2.451e-09
 31.72456     43.8 2.896e+04 7.896e-09
 31.73450     39.8 2.501e+04 1.875e-08
 31.74444     38.2 2.258e+04 3.053e-08
 31.75268     37.6 2.227e+04 3.769e-08
 31.75765     35.9 2.375e+04 4.233e-08
 31.76078     34.7 2.622e+04 3.414e-08
 31.76575     30.7 2.852e+04 2.781e-08
 31.77425     26.6 3.149e+04 1.516e-08
 31.78419     20.5 2.922e+04 8.080e-09
 31.79413     12.7 2.285e+04 4.545e-09
 31.80407     10.0 1.951e+04 4.146e-09
 31.81902      8.7 1.698e+04 3.471e-09
 31.83895      6.0 1.546e+04 3.456e-09
 31.85883      5.3 1.529e+04 3.625e-09
 31.86906      5.8 1.530e+04 3.894e-09
 31.87899      5.0 1.427e+04 3.524e-09
 31.89683      6.8 1.389e+04 3.191e-09
 31.90677      5.6 1.329e+04 2.394e-09
 31.91845      7.2 1.300e+04 1.894e-09
 31.93833      8.2 1.278e+04 1.427e-09
 31.95821      8.2 1.236e+04 1.003e-09
 31.97540      8.0 1.179e+04 7.113e-10
 31.98534      7.1 1.160e+04 5.006e-10
 31.99796      6.8 1.123e+04 4.061e-10
 32.01783      7.1 1.095e+04 3.607e-10
 32.03771      7.6 1.078e+04 3.482e-10
 32.05759      8.6 1.072e+04 3.532e-10
 32.07746      9.4 1.066e+04 3.699e-10
 32.09168     10.3 1.076e+04 3.962e-10
 32.10171     10.0 1.077e+04 3.172e-10
 32.11731     11.2 1.073e+04 3.533e-10
 32.13709     11.8 1.088e+04 3.984e-10
 32.15697     12.3 1.112e+04 4.450e-10
 32.17684     12.0 1.168e+04 5.212e-10
 32.18862     11.3 1.276e+04 6.920e-10
 32.19856     10.1 1.310e+04 7.652e-10
 32.20796      9.2 1.393e+04 1.057e-09
 32.21790     10.0 1.235e+04 5.765e-10
 32.23647      9.0 1.285e+04 7.734e-10
 32.25635      8.7 1.296e+04 9.598e-10
 32.27622      8.6 1.302e+04 1.124e-09
 32.29610      7.6 1.381e+04 1.379e-09
 32.31430      4.3 1.574e+04 1.993e-09
 32.32424      6.0 1.536e+04 2.028e-09
 32.33585      2.6 1.669e+04 3.061e-09
 32.35573      2.4 1.635e+04 3.889e-09
 32.37560      3.4 1.609e+04 3.706e-09
 32.39548      3.6 1.619e+04 3.030e-09
 32.41536      1.7 1.717e+04 2.055e-09
 32.43058     -4.4 1.814e+04 1.334e-09
 32.44052     -6.2 2.334e+04 6.528e-09
 32.45511    -12.7 2.234e+04 6.564e-09
 32.47047    -17.9 2.151e+04 7.627e-09
 32.48041    -19.7 2.167e+04 1.067e-08
 32.48867    -22.5 2.271e+04 9.059e-09
 32.49359    -22.7 2.285e+04 1.510e-08
 32.49973    -25.4 2.303e+04 2.116e-08
 32.50967    -27.1 2.287e+04 3.251e-08
 32.51961    -28.3 2.230e+04 5.535e-08
 32.52955    -28.2 2.256e+04 9.861e-08
 32.53948    -28.4 2.298e+04 1.240e-07
 32.54677    -30.6 2.309e+04 1.055e-07
 32.55173    -32.2 2.369e+04 1.497e-07
 32.55936    -34.1 2.422e+04 7.960e-08
 32.56930    -36.1 2.446e+04 5.288e-08
 32.57924    -38.1 2.436e+04 3.402e-08
 32.58917    -41.0 2.350e+04 2.126e-08
 32.59911    -44.2 2.191e+04 1.322e-08
 32.60491    -47.5 2.031e+04 8.297e-09
 32.60987    -49.0 2.022e+04 8.070e-09
 32.61627    -52.8 1.809e+04 4.949e-09
 32.62124    -53.7 1.687e+04 4.075e-09
 32.62893    -56.0 1.622e+04 3.100e-09
 32.63886    -56.8 1.629e+04 2.950e-09
 32.65316    -60.6 1.636e+04 2.477e-09
 32.66314    -62.8 1.616e+04 2.953e-09
 32.67374    -66.7 1.557e+04 2.647e-09
 32.68860    -68.6 1.511e+04 2.448e-09
 32.69849    -68.8 1.516e+04 2.489e-09
 32.70843    -69.6 1.515e+04 2.681e-09
 32.71622    -69.8 1.505e+04 2.744e-09
 32.72119    -69.9 1.505e+04 2.861e-09
 32.72831    -71.1 1.587e+04 3.178e-09
 32.73824    -75.6 2.152e+04 4.125e-09
 32.74818    -83.3 2.830e+04 1.284e-08
 32.75719    -89.3 2.969e+04 4.232e-08
 32.76216    -83.1 2.934e+04 1.078e-08
 32.76806    -87.6 3.132e+04 2.525e-08
 32.77436    -90.5 3.120e+04 3.819e-08
 32.77933    -94.7 2.695e+04 1.352e-07
 32.78793    -96.6 2.690e+04 1.399e-07
 32.79787    -97.9 2.682e+04 9.893e-08
 32.80781    -99.7 2.569e+04 6.507e-08
 32.81775   -101.5 2.316e+04 4.251e-08
 32.82753   -102.6 2.177e+04 2.857e-08
 32.83250   -102.8 2.178e+04 3.391e-08
 32.83762   -103.5 2.084e+04 2.317e-08
 32.84756   -104.3 1.988e+04 1.609e-08
 32.85750   -104.8 1.878e+04 1.220e-08
 32.87246   -103.9 1.782e+04 9.616e-09
 32.88577   -102.3 1.634e+04 6.757e-09
 32.89570   -102.0 1.672e+04 7.083e-09
 32.91226   -100.2 1.571e+04 5.343e-09
 32.93213    -98.7 1.541e+04 4.458e-09
 32.95201    -97.5 1.495e+04 3.669e-09
 32.97189    -95.8 1.436e+04 3.047e-09
 32.99176    -93.9 1.394e+04 2.681e-09
 33.00205    -91.9 1.376e+04 2.508e-09
 33.01198    -91.9 1.337e+04 1.817e-09
 33.03151    -90.2 1.328e+04 1.783e-09
 33.04411    -88.7 1.310e+04 1.715e-09
 33.05405    -87.7 1.280e+04 1.543e-09
 33.07127    -86.1 1.254e+04 1.440e-09
 33.09114    -84.2 1.231e+04 1.365e-09
 33.10839    -82.2 1.223e+04 1.347e-09
 33.11833    -82.0 1.174e+04 1.076e-09
 33.13089    -80.1 1.176e+04 1.084e-09
 33.15077    -78.5 1.177e+04 1.088e-09
 33.17065    -76.7 1.170e+04 1.060e-09
 33.19052    -74.8 1.160e+04 1.018e-09
 33.21040    -72.9 1.158e+04 1.000e-09
 33.22467    -71.0 1.159e+04 9.987e-10
 33.23461    -70.6 1.120e+04 6.442e-10
 33.25015    -68.7 1.125e+04 6.282e-10
 33.27003    -66.9 1.113e+04 5.954e-10
 33.28990    -64.9 1.093e+04 5.462e-10
 33.30978    -62.8 1.074e+04 4.887e-10
 33.32596    -60.8 1.056e+04 4.341e-10
 33.33599    -61.2 1.027e+04 3.987e-10
 33.35966    -58.2 1.023e+04 3.754e-10
 33.39942    -54.8 9.988e+03 3.561e-10
 33.43755    -51.0 9.747e+03 3.460e-10
 33.45743    -50.2 9.091e+03 2.129e-10
 33.47892    -46.4 9.119e+03 2.329e-10
 33.51867    -42.5 9.202e+03 2.626e-10
 33.55843    -38.7 9.319e+03 2.915e-10
 33.59818    -34.8 9.413e+03 3.200e-10
 33.63793    -30.9 9.672e+03 3.667e-10
 33.66765    -27.4 1.003e+04 4.290e-10
 33.67985    -26.9 9.972e+03 4.306e-10
 33.68989    -25.9 9.386e+03 3.188e-10
 33.71743    -22.2 9.952e+03 3.947e-10
 33.75719    -19.0 1.110e+04 6.115e-10
 33.78629    -16.3 1.253e+04 1.086e-09
 33.79613    -14.9 1.146e+04 8.189e-10
 33.80668    -14.2 1.202e+04 9.386e-10
 33.82656    -12.1 1.300e+04 1.453e-09
 33.84643     -9.9 1.396e+04 2.181e-09
 33.86631     -7.7 1.423e+04 2.808e-09
 33.88619     -5.6 1.427e+04 3.448e-09
 33.89960     -3.2 1.445e+04 3.906e-09
 33.90595     -3.7 1.362e+04 2.964e-09
 33.91241     -2.2 1.357e+04 2.374e-09
 33.92594     -0.1 1.375e+04 2.794e-09
 33.94581      2.3 1.391e+04 3.192e-09
 33.96569      5.0 1.453e+04 3.695e-09
 33.98557      7.4 1.472e+04 3.955e-09
 34.00544      9.6 1.491e+04 4.044e-09
 34.01876     11.5 1.535e+04 3.869e-09
 34.02869     13.3 1.545e+04 4.395e-09
 34.04018     14.3 1.606e+04 4.434e-09
 34.04539     14.8 1.608e+04 4.362e-09
 34.05036     14.5 1.581e+04 4.308e-09
 34.06000     12.8 1.788e+04 4.565e-09
 34.06994     12.1 1.832e+04 4.578e-09
 34.07680      7.5 2.157e+04 6.408e-09
 34.08177      9.8 2.122e+04 8.739e-09
 34.08982      7.5 2.244e+04 1.064e-08
 34.09976      5.8 2.301e+04 1.287e-08
 34.10969      5.0 2.263e+04 1.282e-08
 34.11963      4.3 2.185e+04 1.134e-08
 34.12957      3.6 1.999e+04 8.830e-09
 34.13494      2.7 1.813e+04 7.253e-09
 34.13991      6.4 2.170e+04 1.208e-08
 34.14945      4.8 1.904e+04 8.436e-09
 34.15938      4.0 1.728e+04 5.559e-09
 34.16932      3.8 1.658e+04 5.045e-09
 34.17926      3.4 1.627e+04 3.320e-09
 34.18632      3.2 1.598e+04 3.152e-09
 34.19020      2.9 1.585e+04 3.203e-09
 34.19308      4.2 1.603e+04 3.256e-09
 34.20415      1.3 1.542e+04 1.879e-09
 34.22408     -5.5 1.427e+04 1.017e-09
 34.24138    -14.8 1.484e+04 8.507e-10
 34.25127    -16.6 1.631e+04 9.022e-10
 34.25876    -27.4 1.626e+04 1.117e-09
 34.26870    -31.6 1.727e+04 1.426e-09
 34.27864    -40.7 1.772e+04 2.385e-09
 34.28858    -46.6 1.932e+04 4.281e-09
 34.29852    -52.3 2.016e+04 9.254e-09
 34.30439    -55.2 2.092e+04 1.877e-08
 34.30936    -58.5 2.167e+04 2.165e-08
 34.31839    -59.5 2.305e+04 4.023e-08
 34.32724    -59.8 2.456e+04 5.959e-08
 34.33221    -58.6 2.293e+04 3.998e-08
 34.33827    -58.7 2.429e+04 5.280e-08
 34.34821    -58.9 2.503e+04 5.790e-08
 34.35756    -59.7 2.630e+04 4.505e-08
 34.36253    -63.2 2.554e+04 4.757e-08
 34.36808    -64.1 2.499e+04 3.499e-08
 34.37802    -65.3 2.403e+04 2.407e-08
 34.38796    -66.4 2.243e+04 1.716e-08
 34.39790    -67.1 2.105e+04 1.388e-08
 34.40783    -67.1 2.043e+04 1.299e-08
 34.42279    -67.1 1.914e+04 1.141e-08
 34.44272    -64.6 1.800e+04 9.289e-09
 34.46259    -62.7 1.703e+04 7.352e-09
 34.47323    -60.7 1.621e+04 5.768e-09
 34.47464    -60.0 1.621e+04 6.281e-09
 34.48388    -60.2 1.666e+04 7.919e-09
 34.50234    -58.0 1.611e+04 6.798e-09
 34.52222    -55.9 1.579e+04 5.596e-09
 34.54210    -54.5 1.573e+04 4.655e-09
 34.56197    -53.7 1.577e+04 4.439e-09
 34.58028    -54.5 1.721e+04 4.587e-09
 34.59022    -52.5 1.665e+04 5.443e-09
 34.60172    -54.9 1.976e+04 7.639e-09
 34.62160    -57.5 2.178e+04 1.327e-08
 34.63646    -58.8 2.187e+04 1.815e-08
 34.64329    -59.1 2.189e+04 1.947e-08
 34.64826    -58.6 2.318e+04 2.767e-08
 34.65629    -58.9 2.366e+04 3.148e-08
 34.66622    -59.2 2.388e+04 3.113e-08
 34.67616    -59.8 2.388e+04 2.459e-08
 34.68610    -60.7 2.301e+04 1.564e-08
 34.69604    -62.3 2.167e+04 9.253e-09
 34.70143    -64.2 1.949e+04 5.739e-09
 34.70640    -62.1 2.852e+04 1.236e-08
 34.71591    -64.3 2.849e+04 5.995e-09
 34.72585    -67.3 2.549e+04 2.953e-09
 34.73579    -71.0 1.888e+04 1.627e-09
 34.74573    -74.2 1.340e+04 1.309e-09
 34.75504    -77.1 1.390e+04 8.987e-10
 34.76000    -74.3 2.901e+04 1.288e-09
 34.76560    -77.4 2.620e+04 7.857e-10
 34.78056    -77.7 2.632e+04 7.461e-10
 34.80048    -77.9 2.242e+04 5.517e-10
 34.81284    -80.0 1.166e+04 5.443e-10
 34.82278    -77.6 1.955e+04 6.683e-10
 34.84024    -82.1 1.008e+04 5.369e-10
 34.86011    -82.1 9.859e+03 5.265e-10
 34.87999    -82.2 1.002e+04 5.696e-10
 34.89987    -82.9 1.098e+04 7.771e-10
 34.91919    -83.9 1.229e+04 1.190e-09
 34.92912    -85.1 1.187e+04 1.162e-09
 34.93962    -85.2 1.290e+04 1.721e-09
 34.95949    -85.2 1.384e+04 2.506e-09
 34.97937    -85.1 1.448e+04 3.328e-09
 34.99925    -85.0 1.474e+04 3.878e-09
 35.01912    -84.9 1.476e+04 4.045e-09
 35.03547    -84.8 1.450e+04 3.843e-09
 35.04334    -84.2 1.409e+04 3.093e-09
 35.04687    -84.0 1.374e+04 2.517e-09
 35.05887    -84.1 1.372e+04 2.609e-09
 35.07875    -84.0 1.357e+04 2.604e-09
 35.09863    -83.8 1.337e+04 2.467e-09
 35.11850    -83.6 1.301e+04 2.136e-09
 35.13838    -83.4 1.252e+04 1.700e-09
 35.15175    -83.7 1.224e+04 1.420e-09
 35.16168    -82.8 1.247e+04 1.564e-09
 35.17813    -88.2 1.329e+04 1.551e-09
 35.19801    -99.8 1.792e+04 2.503e-09
 35.21788   -108.5 1.941e+04 7.190e-09
 35.23776   -113.4 1.994e+04 1.362e-08
 35.25763   -117.0 2.008e+04 1.574e-08
 35.26798   -119.6 1.985e+04 1.479e-08
 35.27290   -119.6 1.995e+04 1.501e-08
 35.28238   -121.7 2.007e+04 1.232e-08
 35.29232   -125.5 1.906e+04 8.317e-09
 35.30226   -129.6 1.751e+04 5.709e-09
 35.31220   -132.9 1.605e+04 4.464e-09
 35.32110   -134.6 1.552e+04 4.053e-09
 35.32607   -134.9 1.546e+04 4.019e-09
 35.32867   -135.9 1.523e+04 3.814e-09
 35.33866   -135.3 1.522e+04 3.768e-09
 35.35701   -137.2 1.477e+04 3.384e-09
 35.37437   -138.0 1.450e+04 3.134e-09
 35.38431   -138.7 1.444e+04 3.128e-09
 35.39677   -138.9 1.435e+04 3.031e-09
 35.41664   -139.0 1.424e+04 2.913e-09
 35.43652   -138.9 1.400e+04 2.783e-09
 35.45640   -138.5 1.372e+04 2.641e-09
 35.47627   -137.8 1.344e+04 2.451e-09
 35.49065   -136.9 1.316e+04 2.218e-09
 35.50059   -137.0 1.305e+04 2.105e-09
 35.51602   -136.0 1.277e+04 1.843e-09
 35.53590   -135.1 1.250e+04 1.621e-09
 35.55578   -134.1 1.226e+04 1.450e-09
 35.57565   -133.2 1.206e+04 1.322e-09
 35.59553   -132.3 1.188e+04 1.223e-09
 35.60693   -131.4 1.172e+04 1.141e-09
 35.61204   -131.3 1.163e+04 1.077e-09
 35.62051   -130.8 1.167e+04 1.083e-09
 35.63528   -129.9 1.153e+04 1.030e-09
 35.65516   -129.0 1.142e+04 9.932e-10
 35.67503   -128.0 1.134e+04 9.710e-10
 35.69491   -127.1 1.131e+04 9.653e-10
 35.71327   -126.1 1.127e+04 9.806e-10
 35.72321   -125.9 1.137e+04 9.886e-10
 35.73466   -125.0 1.142e+04 1.039e-09
 35.75454   -124.0 1.151e+04 1.110e-09
 35.77441   -123.0 1.164e+04 1.196e-09
 35.79429   -122.0 1.176e+04 1.286e-09
 35.81416   -121.0 1.188e+04 1.375e-09
 35.82955   -120.1 1.201e+04 1.463e-09
 35.83949   -119.9 1.215e+04 1.520e-09
 35.85392   -119.2 1.232e+04 1.635e-09
 35.87379   -118.5 1.252e+04 1.772e-09
 35.89242   -118.0 1.276e+04 1.947e-09
 35.90236   -117.2 1.240e+04 1.683e-09
 35.91354   -116.7 1.260e+04 1.820e-09
 35.93342   -116.3 1.281e+04 1.977e-09
 35.94583   -116.0 1.299e+04 2.139e-09
 35.95577   -116.2 1.324e+04 2.350e-09
 35.97317   -116.1 1.336e+04 2.467e-09
 35.99305   -116.1 1.358e+04 2.617e-09
 36.01293   -116.6 1.415e+04 2.966e-09
 36.03280   -117.8 1.513e+04 3.727e-09
 36.05218   -119.5 1.625e+04 5.132e-09
 36.06211   -119.3 1.591e+04 4.247e-09
 36.07255   -121.1 1.680e+04 5.960e-09
 36.09243   -122.9 1.746e+04 7.565e-09
 36.11231   -124.6 1.780e+04 8.557e-09
 36.13218   -126.7 1.789e+04 8.466e-09
 36.15206   -129.4 1.760e+04 5.993e-09
 36.16846   -133.1 1.650e+04 3.169e-09
 36.17839   -132.7 1.646e+04 3.336e-09
 36.18421   -137.0 1.426e+04 1.541e-09
 36.19415   -132.9 1.640e+04 3.003e-09
 36.21169   -137.5 1.397e+04 1.218e-09
 36.23156   -141.6 1.176e+04 6.284e-10
 36.25144   -143.6 1.111e+04 4.843e-10
 36.27131   -144.6 1.119e+04 4.065e-10
 36.28474   -146.0 1.121e+04 3.489e-10
 36.29467   -146.6 1.119e+04 3.093e-10
 36.31107   -148.0 1.123e+04 2.988e-10
 36.33094   -149.1 1.129e+04 3.019e-10
 36.35082   -149.9 1.137e+04 3.237e-10
 36.38073   -150.6 1.141e+04 3.514e-10
 36.40121   -151.0 1.124e+04 3.622e-10
 36.42109   -151.8 1.138e+04 4.365e-10
 36.46033   -151.9 1.125e+04 4.568e-10
 36.50008   -151.3 1.093e+04 4.470e-10
 36.53984   -150.6 1.066e+04 4.010e-10
 36.57959   -149.8 1.041e+04 3.428e-10
 36.61390   -148.8 1.020e+04 2.845e-10
 36.63377   -148.8 9.884e+03 2.046e-10
 36.65909   -147.5 9.713e+03 1.576e-10
 36.69885   -146.3 9.595e+03 1.258e-10
 36.73817   -145.1 9.507e+03 1.059e-10
 36.75804   -145.2 9.541e+03 1.421e-10
 36.77835   -143.8 9.460e+03 1.229e-10
 36.81810   -142.4 9.375e+03 1.059e-10
 36.84646   -140.9 9.292e+03 9.055e-11
 36.86633   -140.1 9.176e+03 8.830e-11
 36.89761   -138.4 9.109e+03 7.576e-11
 36.93736   -136.6 9.086e+03 6.646e-11
 36.97711   -134.7 9.121e+03 6.207e-11
 37.01686   -132.7 9.136e+03 6.126e-11
 37.05661   -131.0 9.234e+03 6.115e-11
 37.07902   -129.7 9.740e+03 8.029e-11
 37.09889   -128.7 9.535e+03 6.392e-11
 37.13612   -127.4 9.938e+03 1.126e-10
 37.17587   -125.9 1.030e+04 2.154e-10
 37.21562   -124.3 1.078e+04 3.738e-10
 37.25538   -122.7 1.129e+04 5.737e-10
 37.29170   -121.3 1.169e+04 7.644e-10
 37.31158   -120.5 1.142e+04 6.120e-10
 37.32174   -119.0 1.171e+04 7.313e-10
 37.34162   -118.3 1.142e+04 6.105e-10
 37.37463   -116.6 1.155e+04 6.537e-10
 37.41438   -115.0 1.170e+04 7.256e-10
 37.45414   -114.0 1.213e+04 9.670e-10
 37.48385   -113.7 1.280e+04 1.494e-09
 37.50363   -113.9 1.368e+04 2.210e-09
 37.52351   -114.5 1.536e+04 3.950e-09
 37.53401   -115.7 1.755e+04 8.189e-09
 37.54394   -115.4 1.734e+04 7.876e-09
 37.56326   -116.6 1.896e+04 1.441e-08
 37.58314   -118.1 1.982e+04 2.072e-08
 37.60301   -120.1 1.996e+04 2.242e-08
 37.61333   -122.0 1.963e+04 2.144e-08
 37.62327   -121.3 1.879e+04 1.486e-08
 37.64035   -123.2 1.781e+04 9.927e-09
 37.65029   -123.3 1.756e+04 7.815e-09
 37.66264   -125.8 1.625e+04 4.898e-09
 37.68252   -128.3 1.479e+04 3.099e-09
 37.70239   -130.3 1.393e+04 2.394e-09
 37.72227   -131.9 1.371e+04 2.239e-09
 37.74214   -133.2 1.375e+04 2.258e-09
 37.75663   -134.5 1.409e+04 2.561e-09
 37.76657   -136.4 1.512e+04 3.709e-09
 37.78190   -137.5 1.504e+04 4.170e-09
 37.80177   -138.1 1.494e+04 4.284e-09
 37.82165   -138.3 1.471e+04 4.315e-09
 37.84152   -138.2 1.402e+04 3.764e-09
 37.86140   -137.9 1.336e+04 2.833e-09
 37.87291   -137.9 1.278e+04 2.040e-09
 37.88285   -138.5 1.266e+04 1.851e-09
 37.89518   -138.7 1.221e+04 1.324e-09
 37.90512   -139.0 1.229e+04 1.394e-09
 37.92103   -139.5 1.195e+04 1.077e-09
 37.94090   -139.8 1.169e+04 9.236e-10
 37.96078   -139.9 1.148e+04 8.570e-10
 37.97925   -139.6 1.130e+04 8.230e-10
 37.98919   -139.8 1.122e+04 8.019e-10
 38.00053   -139.1 1.108e+04 7.698e-10
 38.02041   -138.4 1.088e+04 7.043e-10
 38.04028   -137.5 1.065e+04 6.070e-10
 38.06016   -136.6 1.042e+04 4.981e-10
 38.09007   -135.7 1.020e+04 3.858e-10
 38.12992   -134.7 1.007e+04 3.396e-10
 38.16967   -133.2 9.831e+03 2.876e-10
 38.20207   -131.5 9.570e+03 2.422e-10
 38.22195   -131.7 9.888e+03 2.748e-10
 38.24918   -130.0 9.691e+03 2.373e-10
 38.28893   -128.3 9.509e+03 2.056e-10
 38.32868   -126.5 9.365e+03 1.817e-10
 38.36844   -124.7 9.263e+03 1.661e-10
 38.40819   -122.8 9.209e+03 1.592e-10
 38.43463   -120.8 9.196e+03 1.575e-10
 38.45451   -121.2 9.267e+03 1.819e-10
 38.46902   -119.1 9.216e+03 1.686e-10
 38.48889   -118.9 9.194e+03 1.562e-10
 38.52744   -116.7 9.158e+03 1.368e-10
 38.56720   -114.5 9.156e+03 1.233e-10
 38.60695   -112.2 9.176e+03 1.143e-10
 38.64670   -109.9 9.224e+03 1.099e-10
 38.66719   -107.4 9.250e+03 1.089e-10
 38.68707   -107.6 9.135e+03 8.832e-11
 38.72620   -105.0 9.161e+03 8.829e-11
 38.76596   -102.6 9.272e+03 9.050e-11
 38.80571   -100.6 9.438e+03 1.057e-10
 38.84546    -98.9 9.842e+03 1.791e-10
 38.87988    -97.2 1.068e+04 3.638e-10
 38.89975    -97.2 1.061e+04 3.196e-10
 38.92497    -95.9 1.183e+04 7.078e-10
 38.95468    -95.3 1.307e+04 1.480e-09
 38.97446    -95.0 1.363e+04 2.042e-09
 38.99434    -94.6 1.448e+04 3.091e-09
 39.00590    -94.5 1.514e+04 3.975e-09
 39.01584    -94.9 1.497e+04 4.011e-09
 39.03252    -94.7 1.543e+04 4.899e-09
 39.04246    -94.3 1.629e+04 6.909e-09
 39.05396    -94.3 1.642e+04 7.143e-09
 39.07384    -94.6 1.634e+04 6.796e-09
 39.09372    -94.6 1.576e+04 5.333e-09
 39.11224    -94.7 1.508e+04 3.828e-09
 39.12218    -94.8 1.491e+04 3.586e-09
 39.13347    -95.0 1.443e+04 2.815e-09
 39.15335    -95.2 1.415e+04 2.425e-09
 39.17322    -95.2 1.404e+04 2.299e-09
 39.19310    -95.3 1.403e+04 2.284e-09
 39.21297    -96.2 1.444e+04 2.584e-09
 39.22852    -97.4 1.528e+04 3.814e-09
 39.23846    -97.3 1.547e+04 3.420e-09
 39.25273    -98.5 1.633e+04 5.233e-09
 39.27260    -99.3 1.717e+04 7.275e-09
 39.29248   -100.3 1.758e+04 8.708e-09
 39.31235   -101.6 1.766e+04 8.974e-09
 39.32431   -103.1 1.760e+04 8.124e-09
 39.33425   -103.1 1.789e+04 9.095e-09
 39.34480   -104.6 1.717e+04 6.493e-09
 39.35474   -104.4 1.743e+04 7.801e-09
 39.37198   -105.7 1.690e+04 6.097e-09
 39.39186   -107.2 1.622e+04 4.562e-09
 39.41173   -108.4 1.541e+04 3.373e-09
 39.43161   -109.4 1.450e+04 2.445e-09
 39.45115   -110.3 1.364e+04 1.742e-09
 39.46108   -109.1 1.487e+04 2.545e-09
 39.47136   -110.3 1.391e+04 1.711e-09
 39.49124   -111.6 1.322e+04 1.190e-09
 39.51111   -112.9 1.282e+04 8.793e-10
 39.53099   -114.3 1.257e+04 7.033e-10
 39.55087   -115.7 1.235e+04 6.214e-10
 39.56743   -117.0 1.223e+04 6.026e-10
 39.57736   -117.7 1.249e+04 7.289e-10
 39.59062   -118.9 1.239e+04 7.248e-10
 39.60616   -119.8 1.228e+04 7.597e-10
 39.61610   -120.3 1.270e+04 8.538e-10
 39.63037   -121.4 1.264e+04 1.003e-09
 39.65025   -122.2 1.258e+04 1.111e-09
 39.67012   -123.0 1.255e+04 1.135e-09
 39.68371   -123.4 1.215e+04 1.103e-09
 39.69364   -124.2 1.217e+04 1.185e-09
 39.70988   -124.6 1.177e+04 9.792e-10
 39.72975   -125.1 1.144e+04 7.731e-10
 39.74963   -125.6 1.121e+04 6.349e-10
 39.76950   -126.0 1.108e+04 5.655e-10
 39.78938   -126.2 1.092e+04 5.362e-10
 39.79999   -125.9 1.077e+04 5.227e-10
 39.80992   -126.5 1.104e+04 6.626e-10
 39.82913   -125.6 1.095e+04 6.657e-10
 39.84901   -124.6 1.088e+04 6.748e-10
 39.86888   -123.4 1.079e+04 6.911e-10
 39.88801   -122.0 1.076e+04 7.112e-10
 39.89795   -122.5 1.082e+04 7.644e-10
 39.90633   -121.1 1.080e+04 7.798e-10
 39.91627   -121.2 1.124e+04 9.787e-10
 39.92851   -119.8 1.129e+04 1.006e-09
 39.94839   -118.3 1.133e+04 1.036e-09
 39.96826   -116.6 1.133e+04 1.061e-09
 39.98814   -114.8 1.130e+04 1.077e-09
 40.00802   -112.6 1.130e+04 1.085e-09
 40.02261   -110.3 1.133e+04 1.103e-09
 40.03255   -110.5 1.253e+04 1.550e-09
 40.04777   -108.3 1.255e+04 1.544e-09
 40.06764   -106.5 1.270e+04 1.608e-09
 40.08752   -105.3 1.291e+04 1.809e-09
 40.10740   -104.6 1.388e+04 2.461e-09
 40.12727   -104.3 1.685e+04 3.944e-09
 40.13889   -104.4 2.075e+04 6.775e-09
 40.14381   -108.9 2.476e+04 8.329e-09
 40.15202   -111.3 2.662e+04 1.212e-08
 40.16196   -114.5 2.772e+04 2.035e-08
 40.17190   -117.1 2.832e+04 3.505e-08
 40.17970   -119.5 2.786e+04 5.207e-08
 40.18467   -124.5 2.616e+04 5.442e-08
 40.19177   -127.7 2.544e+04 6.043e-08
 40.19693   -131.4 2.407e+04 6.141e-08
 40.20190   -134.9 2.228e+04 7.622e-08
 40.21165   -140.2 2.352e+04 5.221e-08
 40.22159   -148.2 2.593e+04 4.185e-08
 40.23152   -158.7 3.435e+04 4.261e-08
 40.24146   -170.0 3.663e+04 7.771e-08
 40.25010   -178.0 3.305e+04 1.586e-07
 40.25507   -179.1 3.284e+04 1.141e-07
 40.26134   -183.9 2.960e+04 1.698e-07
 40.27128   -185.7 2.796e+04 2.033e-07
 40.28121   -187.1 2.701e+04 2.216e-07
 40.29115   -188.0 2.666e+04 2.407e-07
 40.30109   -188.6 2.690e+04 2.508e-07
 40.30824   -189.0 2.843e+04 2.206e-07
 40.31321   -188.6 2.947e+04 1.351e-07
 40.32062   -189.2 3.175e+04 1.024e-07
 40.32559   -186.3 2.661e+04 2.069e-07
 40.33090   -187.6 2.823e+04 1.701e-07
 40.34084   -188.5 2.997e+04 1.137e-07
 40.35078   -189.0 3.224e+04 6.515e-08
 40.36072   -189.7 3.358e+04 3.816e-08
 40.36638   -190.5 3.288e+04 2.543e-08
 40.37135   -189.3 3.142e+04 2.314e-08
 40.38060   -189.9 2.971e+04 1.801e-08
 40.39053   -190.2 2.778e+04 1.497e-08
 40.40047   -190.1 2.613e+04 1.301e-08
 40.41041   -189.8 2.485e+04 1.155e-08
 40.41956   -189.4 2.382e+04 1.039e-08
 40.42452   -188.9 2.366e+04 9.847e-09
 40.43029   -188.7 2.288e+04 9.064e-09
 40.44022   -188.4 2.207e+04 8.407e-09
 40.45016   -188.1 2.125e+04 7.891e-09
 40.46160   -187.8 2.043e+04 7.313e-09
 40.47153   -187.5 2.245e+04 6.680e-09
 40.47770   -187.2 2.199e+04 6.292e-09
 40.48768   -186.6 1.946e+04 6.148e-09
 40.50492   -185.7 1.872e+04 4.726e-09
 40.52479   -184.9 1.779e+04 3.400e-09
 40.54467   -184.1 1.630e+04 2.233e-09
 40.56455   -183.5 1.439e+04 1.473e-09
 40.58414   -183.0 1.266e+04 1.042e-09
 40.59407   -182.4 1.254e+04 1.057e-09
 40.60430   -181.8 1.158e+04 8.270e-10
 40.62417   -181.2 1.094e+04 7.269e-10
 40.64405   -180.6 1.072e+04 7.067e-10
 40.66393   -180.2 1.068e+04 7.089e-10
 40.68380   -179.9 1.086e+04 7.706e-10
 40.70042   -179.7 1.105e+04 8.480e-10
 40.71035   -178.6 1.099e+04 8.615e-10
 40.72356   -178.5 1.114e+04 9.069e-10
 40.74343   -178.4 1.127e+04 9.448e-10
 40.76331   -178.5 1.139e+04 9.848e-10
 40.78318   -178.3 1.148e+04 1.037e-09
 40.80306   -178.1 1.161e+04 1.116e-09
 40.81670   -177.8 1.183e+04 1.218e-09
 40.82663   -177.3 1.169e+04 1.165e-09
 40.84281   -177.0 1.194e+04 1.271e-09
 40.86269   -176.7 1.213e+04 1.360e-09
 40.88256   -176.6 1.223e+04 1.406e-09
 40.90244   -176.5 1.226e+04 1.416e-09
 40.92232   -176.4 1.223e+04 1.397e-09
 40.93298   -176.3 1.214e+04 1.328e-09
 40.94291   -175.7 1.205e+04 1.276e-09
 40.96207   -175.8 1.198e+04 1.172e-09
 40.98194   -175.9 1.194e+04 1.089e-09
 41.00182   -176.1 1.197e+04 1.039e-09
 41.02170   -176.4 1.201e+04 1.021e-09
 41.03528   -176.8 1.204e+04 1.016e-09
 41.04297   -175.7 1.221e+04 1.208e-09
 41.04926   -175.8 1.222e+04 1.188e-09
 41.06145   -176.3 1.220e+04 1.162e-09
 41.08132   -176.9 1.216e+04 1.139e-09
 41.10120   -177.6 1.208e+04 1.119e-09
 41.12108   -178.2 1.203e+04 1.111e-09
 41.14095   -179.0 1.200e+04 1.117e-09
 41.15560   -180.1 1.221e+04 1.203e-09
 41.16554   -180.5 1.260e+04 1.243e-09
 41.18070   -182.3 1.354e+04 1.541e-09
 41.20058   -184.4 1.444e+04 1.998e-09
 41.22046   -186.4 1.497e+04 2.585e-09
 41.24033   -188.2 1.511e+04 3.222e-09
 41.26021   -189.5 1.500e+04 3.808e-09
 41.27188   -190.2 1.482e+04 4.242e-09
 41.28182   -190.1 1.498e+04 4.821e-09
 41.29996   -190.4 1.446e+04 4.819e-09
 41.31713   -190.7 1.419e+04 4.194e-09
 41.32707   -190.8 1.471e+04 4.234e-09
 41.33971   -191.1 1.416e+04 3.940e-09
 41.35959   -191.1 1.381e+04 3.200e-09
 41.37822   -191.2 1.340e+04 2.527e-09
 41.38816   -191.3 1.278e+04 2.140e-09
 41.39934   -191.5 1.235e+04 1.661e-09
 41.41922   -191.6 1.194e+04 1.295e-09
 41.43909   -191.7 1.152e+04 1.006e-09
 41.45897   -191.2 1.107e+04 7.724e-10
 41.47885   -190.3 1.067e+04 6.008e-10
 41.49450   -189.4 1.043e+04 4.886e-10
 41.50444   -189.4 1.032e+04 4.808e-10
 41.51860   -188.9 1.029e+04 4.289e-10
 41.54851   -188.6 1.021e+04 3.836e-10
 41.58836   -187.2 9.929e+03 3.081e-10
 41.61098   -185.6 9.640e+03 2.499e-10
 41.63085   -185.3 9.569e+03 2.199e-10
 41.66786   -183.8 9.423e+03 1.937e-10
 41.70762   -182.5 9.370e+03 1.824e-10
 41.74737   -181.1 9.360e+03 1.799e-10
 41.78712   -179.9 9.359e+03 1.800e-10
 41.82366   -179.0 9.398e+03 1.815e-10
 41.84354   -178.8 9.336e+03 1.577e-10
 41.86662   -178.2 9.550e+03 1.769e-10
 41.89096   -178.0 9.842e+03 2.298e-10
 41.91084   -180.3 1.021e+04 2.547e-10
 41.94613   -180.3 1.084e+04 4.986e-10
 41.98588   -179.9 1.138e+04 8.507e-10
 42.02563   -179.4 1.177e+04 1.167e-09
 42.05622   -179.0 1.195e+04 1.280e-09
 42.07610   -178.4 1.181e+04 1.144e-09
 42.10514   -177.9 1.184e+04 1.165e-09
 42.14489   -177.0 1.167e+04 1.073e-09
 42.18464   -175.7 1.129e+04 8.500e-10
 42.22439   -174.0 1.090e+04 6.499e-10
 42.26415   -171.8 1.068e+04 5.203e-10
 42.28878   -168.9 1.097e+04 4.473e-10
 42.30866   -168.5 1.091e+04 4.325e-10
 42.34365   -165.9 1.134e+04 4.154e-10
 42.37337   -167.9 1.476e+04 4.686e-10
 42.39315   -169.1 1.585e+04 6.531e-10
 42.40487   -174.7 1.756e+04 1.644e-09
 42.41481   -174.1 1.694e+04 1.427e-09
 42.43290   -176.7 1.778e+04 3.670e-09
 42.45277   -178.5 1.815e+04 6.554e-09
 42.46441   -180.2 1.834e+04 7.891e-09
 42.47434   -184.6 1.816e+04 8.983e-09
 42.49253   -187.6 1.751e+04 6.526e-09
 42.51121   -191.6 1.612e+04 3.900e-09
 42.52115   -192.0 1.611e+04 3.663e-09
 42.53228   -195.6 1.480e+04 2.727e-09
 42.55215   -198.0 1.434e+04 2.514e-09
 42.57203   -199.4 1.427e+04 2.493e-09
 42.59191   -200.8 1.434e+04 2.610e-09
 42.61178   -202.1 1.472e+04 2.915e-09
 42.62749   -203.5 1.521e+04 3.303e-09
 42.63743   -202.9 1.511e+04 3.293e-09
 42.65153   -204.2 1.541e+04 3.566e-09
 42.67141   -205.7 1.572e+04 3.854e-09
 42.69129   -207.1 1.589e+04 4.162e-09
 42.71116   -208.4 1.588e+04 4.426e-09
 42.73104   -209.5 1.579e+04 4.566e-09
 42.74377   -210.5 1.547e+04 4.678e-09
 42.74905   -209.9 1.508e+04 3.871e-09
 42.75619   -209.2 1.448e+04 3.433e-09
 42.77079   -209.8 1.458e+04 3.679e-09
 42.79067   -210.2 1.462e+04 3.845e-09
 42.81054   -210.3 1.460e+04 3.891e-09
 42.83042   -210.2 1.442e+04 3.770e-09
 42.85012   -210.0 1.422e+04 3.551e-09
 42.86005   -209.5 1.410e+04 3.302e-09
 42.87017   -209.3 1.392e+04 3.081e-09
 42.89005   -209.0 1.364e+04 2.755e-09
 42.90992   -208.7 1.331e+04 2.341e-09
 42.92980   -208.4 1.296e+04 1.925e-09
 42.94968   -208.0 1.262e+04 1.538e-09
 42.96640   -207.6 1.232e+04 1.199e-09
 42.97633   -207.2 1.242e+04 1.451e-09
 42.98943   -206.9 1.214e+04 1.158e-09
 43.00930   -206.7 1.187e+04 8.887e-10
 43.02811   -206.6 1.157e+04 6.556e-10
 43.03804   -205.8 1.189e+04 9.346e-10
 43.04906   -205.7 1.157e+04 6.804e-10
 43.06893   -205.6 1.120e+04 4.910e-10
 43.08268   -205.6 1.082e+04 3.800e-10
 43.09261   -204.8 1.102e+04 4.972e-10
 43.10868   -204.8 1.079e+04 4.107e-10
 43.12856   -204.7 1.063e+04 3.738e-10
 43.14844   -204.4 1.052e+04 3.588e-10
 43.17835   -204.2 1.045e+04 3.465e-10
 43.19915   -203.5 1.041e+04 3.417e-10
 43.21903   -202.2 1.062e+04 4.443e-10
 43.25795   -201.9 1.070e+04 4.580e-10
 43.29770   -202.4 1.100e+04 5.677e-10
 43.33745   -203.7 1.126e+04 7.066e-10
 43.37721   -205.3 1.134e+04 7.664e-10
 43.41184   -207.1 1.129e+04 7.454e-10
 43.43162   -206.0 1.114e+04 7.519e-10
 43.44658   -206.9 1.095e+04 5.972e-10
 43.46645   -207.4 1.076e+04 4.827e-10
 43.49637   -207.9 1.059e+04 3.966e-10
 43.53622   -208.2 1.035e+04 3.089e-10
 43.57597   -208.1 1.011e+04 2.344e-10
 43.60194   -207.8 9.998e+03 2.003e-10
 43.62181   -208.0 1.019e+04 2.241e-10
 43.64440   -206.9 1.018e+04 2.212e-10
 43.66427   -205.6 9.924e+03 1.759e-10
 43.69522   -204.5 9.962e+03 1.759e-10
 43.73498   -203.4 1.009e+04 1.931e-10
 43.77473   -202.3 1.017e+04 2.250e-10
 43.81448   -201.1 1.018e+04 2.541e-10
 43.85423   -199.9 1.016e+04 2.718e-10
 43.87696   -198.4 1.012e+04 2.774e-10
 43.89683   -197.5 9.957e+03 2.420e-10
 43.93374   -196.0 9.954e+03 2.542e-10
 43.97349   -194.5 9.941e+03 2.593e-10
 44.01324   -193.0 9.929e+03 2.593e-10
 44.05299   -191.5 9.912e+03 2.574e-10
 44.08964   -190.1 9.900e+03 2.552e-10
 44.10952   -189.4 9.782e+03 2.281e-10
 44.13250   -188.1 9.777e+03 2.278e-10
 44.16564   -186.9 9.787e+03 2.285e-10
 44.18551   -186.7 9.736e+03 2.217e-10
 44.21200   -185.6 9.758e+03 2.208e-10
 44.25175   -184.6 9.790e+03 2.199e-10
 44.29151   -183.8 9.820e+03 2.172e-10
 44.32220   -183.0 9.819e+03 2.134e-10
 44.34208   -182.6 9.761e+03 2.097e-10
 44.37101   -181.9 9.777e+03 2.085e-10
 44.41076   -181.0 9.764e+03 2.027e-10
 44.45051   -180.1 9.741e+03 1.984e-10
 44.49027   -179.2 9.731e+03 1.973e-10
 44.53002   -178.3 9.732e+03 1.976e-10
 44.55477   -177.7 9.755e+03 1.993e-10
 44.57464   -177.8 9.754e+03 2.024e-10
 44.60952   -177.7 9.806e+03 2.057e-10
 44.64928   -178.3 1.010e+04 2.349e-10
 44.68903   -180.4 1.109e+04 3.834e-10
 44.72878   -183.0 1.197e+04 6.914e-10
 44.74921   -185.8 1.238e+04 1.044e-09
 44.76801   -189.4 1.288e+04 1.431e-09
 44.78733   -190.1 1.279e+04 1.439e-09
 44.80828   -192.4 1.261e+04 1.451e-09
 44.84804   -193.3 1.189e+04 1.011e-09
 44.88779   -193.7 1.118e+04 5.614e-10
 44.92754   -193.9 1.072e+04 3.301e-10
 44.96729   -193.6 1.062e+04 2.611e-10
 45.00001   -192.7 1.060e+04 2.490e-10
 45.01989   -193.0 1.045e+04 2.103e-10
 45.04680   -192.5 1.047e+04 2.096e-10
 45.08655   -192.5 1.066e+04 2.150e-10
 45.12630   -192.8 1.094e+04 2.407e-10
 45.16605   -193.1 1.131e+04 2.969e-10
 45.20581   -193.2 1.158e+04 3.757e-10
 45.23257   -193.3 1.165e+04 4.412e-10
 45.25245   -193.4 1.144e+04 3.666e-10
 45.28531   -193.3 1.144e+04 3.841e-10
 45.31291   -193.1 1.138e+04 3.850e-10
 45.33279   -194.6 1.159e+04 5.853e-10
 45.36481   -194.0 1.130e+04 4.884e-10
 45.40457   -193.3 1.100e+04 3.972e-10
 45.44432   -192.5 1.081e+04 3.408e-10
 45.46513   -191.8 1.072e+04 3.194e-10
 45.48501   -191.5 1.074e+04 3.164e-10
 45.52382   -191.0 1.072e+04 3.221e-10
 45.56357   -190.7 1.071e+04 3.465e-10
 45.60333   -190.6 1.072e+04 3.616e-10
 45.64308   -190.7 1.067e+04 3.680e-10
 45.67782   -190.8 1.073e+04 3.760e-10
 45.69769   -191.2 1.122e+04 4.722e-10
 45.72258   -191.6 1.180e+04 5.667e-10
 45.76234   -191.9 1.238e+04 7.107e-10
 45.80209   -191.7 1.251e+04 8.561e-10
 45.84184   -191.1 1.235e+04 9.161e-10
 45.87661   -190.2 1.206e+04 9.075e-10
 45.89649   -193.0 1.236e+04 1.272e-09
 45.91038   -191.9 1.185e+04 9.854e-10
 45.93025   -192.2 1.153e+04 8.802e-10
 45.96110   -190.8 1.108e+04 7.062e-10
 46.00085   -189.5 1.081e+04 6.016e-10
 46.04060   -188.3 1.061e+04 5.392e-10
 46.08035   -187.3 1.047e+04 4.963e-10
 46.12010   -186.2 1.032e+04 4.515e-10
 46.14294   -185.1 1.014e+04 3.994e-10
 46.16281   -185.0 9.972e+03 3.921e-10
 46.19961   -183.7 9.763e+03 3.391e-10
 46.23936   -182.2 9.564e+03 2.876e-10
 46.27911   -180.5 9.408e+03 2.438e-10
 46.31887   -178.7 9.292e+03 2.114e-10
 46.35562   -176.8 9.213e+03 1.901e-10
 46.37550   -176.5 9.110e+03 1.889e-10
 46.39837   -174.5 9.076e+03 1.756e-10
 46.43812   -172.6 9.067e+03 1.687e-10
 46.46019   -170.8 9.068e+03 1.657e-10
 46.48006   -171.4 8.888e+03 1.352e-10
 46.51763   -169.6 8.865e+03 1.289e-10
 46.55738   -167.7 8.838e+03 1.243e-10
 46.58818   -165.9 8.811e+03 1.213e-10
 46.60806   -165.7 8.694e+03 1.201e-10
 46.63688   -163.8 8.693e+03 1.191e-10
 46.67664   -161.8 8.696e+03 1.182e-10
 46.71639   -159.7 8.693e+03 1.166e-10
 46.75614   -157.5 8.681e+03 1.133e-10
 46.79589   -155.3 8.664e+03 1.077e-10
 46.82075   -153.0 8.641e+03 1.009e-10
 46.84062   -153.0 8.571e+03 9.786e-11
 46.87540   -150.7 8.555e+03 9.033e-11
 46.91515   -148.5 8.552e+03 8.612e-11
 46.95490   -146.2 8.554e+03 8.506e-11
 46.99465   -144.1 8.563e+03 8.595e-11
 47.02389   -142.1 8.646e+03 9.802e-11
 47.04279   -142.5 8.554e+03 7.826e-11
 47.05331   -142.6 8.501e+03 7.920e-11
 47.07416   -140.7 8.570e+03 9.287e-11
 47.11391   -138.9 8.636e+03 1.056e-10
 47.15366   -137.2 8.678e+03 1.146e-10
 47.19341   -135.6 8.701e+03 1.187e-10
 47.23317   -134.0 8.715e+03 1.204e-10
 47.26599   -132.5 8.734e+03 1.231e-10
 47.28587   -132.6 8.707e+03 1.237e-10
 47.31267   -131.2 8.792e+03 1.347e-10
 47.35242   -130.0 8.931e+03 1.602e-10
 47.39217   -128.8 9.111e+03 2.010e-10
 47.43193   -127.5 9.308e+03 2.503e-10
 47.47168   -126.4 9.499e+03 2.934e-10
 47.49855   -125.3 9.674e+03 3.144e-10
 47.51843   -125.7 9.853e+03 3.973e-10
 47.55118   -124.7 9.900e+03 3.969e-10
 47.58759   -123.6 1.004e+04 3.759e-10
 47.60746   -123.7 9.862e+03 3.500e-10
 47.63069   -122.5 9.922e+03 3.436e-10
 47.67044   -121.5 1.030e+04 3.421e-10
 47.71019   -121.0 1.074e+04 3.939e-10
 47.73101   -121.8 1.108e+04 5.591e-10
 47.74086   -122.8 1.132e+04 7.477e-10
 47.75969   -122.7 1.163e+04 9.605e-10
 47.77956   -122.5 1.196e+04 1.144e-09
 47.79944   -122.3 1.223e+04 1.249e-09
 47.81931   -122.2 1.236e+04 1.282e-09
 47.83726   -122.2 1.242e+04 1.271e-09
 47.84720   -122.8 1.258e+04 1.364e-09
 47.85907   -122.6 1.246e+04 1.164e-09
 47.87894   -122.4 1.227e+04 9.465e-10
 47.88912   -122.3 1.207e+04 7.442e-10
 47.89906   -121.7 1.220e+04 8.904e-10
 47.91869   -121.6 1.201e+04 6.784e-10
 47.93857   -121.8 1.178e+04 5.125e-10
 47.95354   -122.0 1.150e+04 4.136e-10
 47.96348   -123.4 1.128e+04 3.542e-10
 47.98836   -123.8 1.098e+04 3.355e-10
 48.02821   -122.9 1.086e+04 3.259e-10
 48.06796   -122.0 1.076e+04 3.589e-10
 48.10771   -121.3 1.087e+04 4.496e-10
 48.14746   -120.7 1.104e+04 5.375e-10
 48.17116   -120.2 1.110e+04 5.829e-10
 48.18018   -119.9 1.122e+04 6.355e-10
 48.19623   -121.3 1.104e+04 5.331e-10
 48.22697   -121.0 1.094e+04 5.222e-10
 48.26672   -120.6 1.065e+04 4.463e-10
 48.30647   -120.2 1.037e+04 3.713e-10
 48.34623   -119.5 1.017e+04 3.260e-10
 48.38598   -118.7 1.007e+04 3.141e-10
 48.40892   -117.8 1.005e+04 3.136e-10
 48.42879   -118.9 9.982e+03 3.082e-10
 48.46548   -118.0 9.928e+03 3.293e-10
 48.50523   -116.9 9.888e+03 3.367e-10
 48.54499   -115.6 9.808e+03 3.376e-10
 48.58474   -114.1 9.643e+03 3.077e-10
 48.62160   -112.7 9.555e+03 2.588e-10
 48.64148   -113.5 9.354e+03 2.134e-10
 48.66424   -112.2 9.259e+03 1.863e-10
 48.70399   -111.0 9.214e+03 1.706e-10
 48.73486   -109.7 9.143e+03 1.663e-10
 48.75474   -108.7 9.196e+03 1.530e-10
 48.78350   -107.4 9.141e+03 1.496e-10
 48.82325   -105.9 9.099e+03 1.507e-10
 48.85416   -104.4 9.089e+03 1.570e-10
 48.87404   -104.9 9.071e+03 1.464e-10
 48.90276   -103.4 9.134e+03 1.530e-10
 48.94251   -101.9 9.183e+03 1.549e-10
 48.98226   -100.5 9.208e+03 1.464e-10
 49.02201    -99.1 9.228e+03 1.305e-10
 49.06176    -97.8 9.240e+03 1.127e-10
 49.08673    -96.5 9.246e+03 9.931e-11
 49.10660    -97.3 9.279e+03 1.116e-10
 49.14127    -96.0 9.287e+03 1.084e-10
 49.18102    -94.7 9.311e+03 1.137e-10
 49.22077    -93.4 9.324e+03 1.276e-10
 49.26052    -92.0 9.323e+03 1.475e-10
 49.29856    -90.4 9.327e+03 1.661e-10
 49.31757    -89.9 9.499e+03 1.838e-10
 49.31929    -90.4 9.558e+03 1.746e-10
 49.34003    -88.7 9.552e+03 1.733e-10
 49.37978    -87.0 9.589e+03 1.601e-10
 49.41953    -85.3 9.653e+03 1.419e-10
 49.45929    -83.7 9.685e+03 1.243e-10
 49.49904    -82.3 9.686e+03 1.137e-10
 49.53197    -81.1 9.690e+03 1.116e-10
 49.55185    -82.4 9.990e+03 1.283e-10
 49.57854    -81.5 1.016e+04 1.807e-10
 49.61829    -80.2 1.034e+04 2.614e-10
 49.65805    -78.7 1.055e+04 3.484e-10
 49.69780    -77.2 1.076e+04 4.145e-10
 49.73755    -76.3 1.101e+04 4.576e-10
 49.76453    -76.2 1.140e+04 5.229e-10
 49.78441    -78.5 1.156e+04 4.441e-10
 49.81705    -79.3 1.202e+04 6.970e-10
 49.85681    -79.5 1.245e+04 1.170e-09
 49.88071    -79.6 1.261e+04 1.457e-09
 49.88607    -80.0 1.271e+04 1.504e-09
 49.89188    -80.2 1.273e+04 1.473e-09
 49.90630    -80.4 1.276e+04 1.540e-09
 49.92618    -80.7 1.269e+04 1.560e-09
 49.94605    -80.7 1.235e+04 1.313e-09
 49.96593    -80.9 1.195e+04 9.882e-10
 49.98581    -81.2 1.162e+04 7.354e-10
 49.99690    -81.5 1.131e+04 5.898e-10
 50.00684    -82.8 1.097e+04 4.684e-10
 50.02556    -82.9 1.084e+04 4.273e-10
 50.05547    -83.2 1.073e+04 3.880e-10
 50.09532    -82.6 1.058e+04 3.604e-10
 50.13507    -81.8 1.049e+04 3.396e-10
 50.17482    -81.1 1.050e+04 3.309e-10
 50.20978    -80.8 1.052e+04 3.303e-10
 50.22965    -81.5 1.040e+04 2.825e-10
 50.25433    -81.6 1.060e+04 3.347e-10
 50.29408    -81.7 1.076e+04 4.351e-10
 50.33383    -81.7 1.091e+04 5.424e-10
 50.37359    -82.0 1.093e+04 5.790e-10
 50.41334    -82.4 1.083e+04 5.174e-10
 50.44234    -83.2 1.071e+04 4.285e-10
 50.45496    -84.3 1.080e+04 4.198e-10
 50.46571    -82.7 1.100e+04 4.971e-10
 50.49284    -86.1 1.182e+04 5.219e-10
 50.52256    -89.5 1.270e+04 7.593e-10
 50.54234    -91.8 1.315e+04 1.357e-09
 50.55842    -93.7 1.372e+04 2.532e-09
 50.56836    -95.2 1.403e+04 3.135e-09
 50.58209    -96.4 1.439e+04 3.689e-09
 50.60196    -98.6 1.443e+04 3.709e-09
 50.62184   -101.7 1.439e+04 3.355e-09
 50.64172   -105.6 1.446e+04 3.266e-09
 50.66159   -109.5 1.506e+04 4.132e-09
 50.67470   -112.1 1.567e+04 6.396e-09
 50.68464   -112.5 1.516e+04 4.900e-09
 50.70134   -113.9 1.570e+04 7.306e-09
 50.72122   -114.8 1.595e+04 8.368e-09
 50.73743   -115.7 1.595e+04 8.556e-09
 50.74737   -114.8 1.623e+04 9.094e-09
 50.76097   -115.8 1.598e+04 8.641e-09
 50.78085   -116.9 1.508e+04 5.358e-09
 50.79098   -118.9 1.372e+04 2.705e-09
 50.80092   -118.4 1.393e+04 3.310e-09
 50.82060   -120.4 1.273e+04 1.847e-09
 50.84048   -122.2 1.172e+04 1.212e-09
 50.86035   -122.9 1.117e+04 9.681e-10
 50.88023   -123.0 1.093e+04 8.636e-10
 50.89733   -122.9 1.076e+04 7.858e-10
 50.90726   -122.8 1.112e+04 9.840e-10
 50.91998   -122.8 1.098e+04 9.204e-10
 50.93986   -122.6 1.088e+04 8.683e-10
 50.95973   -122.4 1.082e+04 8.301e-10
 50.97961   -122.1 1.076e+04 7.953e-10
 50.99949   -121.8 1.072e+04 7.723e-10
 51.01361   -121.5 1.071e+04 7.635e-10
 51.02346   -121.7 1.119e+04 1.042e-09
 51.03915   -120.6 1.096e+04 8.924e-10
 51.05911   -120.1 1.089e+04 8.633e-10
 51.07899   -119.6 1.083e+04 8.315e-10
 51.09887   -118.9 1.077e+04 7.936e-10
 51.11874   -118.0 1.072e+04 7.491e-10
 51.12989   -117.1 1.068e+04 6.986e-10
 51.13983   -117.5 1.103e+04 8.945e-10
 51.15849   -116.8 1.099e+04 8.336e-10
 51.17837   -115.9 1.092e+04 7.607e-10
 51.19825   -114.9 1.083e+04 6.748e-10
 51.21812   -113.7 1.077e+04 5.976e-10
 51.23623   -112.8 1.077e+04 5.428e-10
 51.24617   -113.1 1.087e+04 6.066e-10
 51.25788   -112.2 1.082e+04 5.402e-10
 51.28779   -111.1 1.078e+04 4.784e-10
 51.32764   -109.0 1.076e+04 4.012e-10
 51.35271   -107.2 1.081e+04 3.793e-10
 51.37258   -107.9 1.110e+04 4.910e-10
 51.40714   -106.1 1.112e+04 4.698e-10
 51.44689   -104.5 1.107e+04 4.549e-10
 51.48665   -103.0 1.096e+04 4.363e-10
 51.52640   -101.5 1.084e+04 4.295e-10
 51.56539   -100.0 1.073e+04 4.275e-10
 51.58527   -100.3 1.050e+04 3.649e-10
 51.59311    -98.6 1.038e+04 3.516e-10
 51.61299    -97.8 1.050e+04 3.641e-10
 51.64565    -96.2 1.040e+04 3.577e-10
 51.68541    -94.7 1.034e+04 3.591e-10
 51.72516    -93.2 1.031e+04 3.597e-10
 51.76491    -91.7 1.014e+04 3.549e-10
 51.79795    -90.1 9.956e+03 3.117e-10
 51.81783    -89.9 9.853e+03 2.520e-10
 51.84441    -88.2 9.765e+03 2.140e-10
 51.88417    -86.5 9.642e+03 1.768e-10
 51.92392    -84.8 9.543e+03 1.469e-10
 51.96367    -83.0 9.461e+03 1.294e-10
 52.00342    -81.2 9.402e+03 1.232e-10
 52.03051    -79.3 9.381e+03 1.213e-10
 52.05039    -78.8 9.373e+03 1.156e-10
 52.08293    -76.9 9.357e+03 1.204e-10
 52.12268    -75.1 9.373e+03 1.336e-10
 52.15681    -73.4 9.419e+03 1.564e-10
 52.17669    -73.0 9.309e+03 1.173e-10
 52.20218    -71.3 9.351e+03 1.442e-10
 52.24194    -69.7 9.401e+03 1.748e-10
 52.26307    -68.0 9.445e+03 2.034e-10
 52.28295    -67.6 9.413e+03 1.821e-10
 52.32144    -66.0 9.433e+03 1.994e-10
 52.36119    -64.5 9.453e+03 2.166e-10
 52.40094    -62.9 9.468e+03 2.339e-10
 52.44070    -61.3 9.493e+03 2.494e-10
 52.47576    -59.7 9.531e+03 2.582e-10
 52.49563    -59.5 9.554e+03 2.612e-10
 52.52020    -57.9 9.580e+03 2.704e-10
 52.55995    -56.3 9.588e+03 2.712e-10
 52.59971    -54.7 9.576e+03 2.665e-10
 52.63946    -53.2 9.549e+03 2.609e-10
 52.67921    -51.7 9.518e+03 2.533e-10
 52.70832    -50.1 9.451e+03 2.338e-10
 52.72819    -50.1 9.537e+03 2.406e-10
 52.74039    -48.5 9.467e+03 2.118e-10
 52.76026    -48.5 9.740e+03 3.276e-10
 52.79847    -47.1 9.674e+03 2.791e-10
 52.83822    -45.8 9.678e+03 2.664e-10
 52.87797    -44.6 9.781e+03 2.956e-10
 52.91772    -43.3 9.947e+03 3.664e-10
 52.94088    -41.8 1.014e+04 4.255e-10
 52.96076    -42.0 1.018e+04 4.296e-10
 52.99723    -40.6 1.028e+04 4.782e-10
 53.03698    -39.3 1.041e+04 5.393e-10
 53.07673    -38.0 1.055e+04 6.107e-10
 53.11648    -36.6 1.065e+04 6.636e-10
 53.15356    -35.1 1.068e+04 6.846e-10
 53.17344    -35.0 1.048e+04 5.492e-10
 53.19599    -33.3 1.039e+04 4.801e-10
 53.23574    -31.9 1.036e+04 4.720e-10
 53.27549    -30.4 1.032e+04 4.896e-10
 53.30409    -28.7 1.033e+04 5.049e-10
 53.32396    -28.4 1.074e+04 7.442e-10
 53.35500    -26.6 1.082e+04 7.980e-10
 53.38612    -25.0 1.081e+04 7.591e-10
 53.40600    -24.7 1.057e+04 6.001e-10
 53.43450    -23.2 1.059e+04 5.863e-10
 53.47425    -21.7 1.059e+04 5.671e-10
 53.51400    -20.3 1.053e+04 5.492e-10
 53.55376    -18.7 1.041e+04 4.970e-10
 53.59351    -16.9 1.029e+04 3.986e-10
 53.61869    -15.4 1.010e+04 2.854e-10
 53.63856    -14.8 1.032e+04 3.032e-10
 53.67301    -13.5 1.016e+04 2.602e-10
 53.71277    -12.2 9.994e+03 2.259e-10
 53.75252    -10.9 9.985e+03 2.011e-10
 53.79227     -9.8 1.009e+04 1.854e-10
 53.83137     -8.7 9.939e+03 1.928e-10
 53.85125     -8.1 1.027e+04 2.778e-10
 53.86778     -6.7 1.003e+04 2.997e-10
 53.88766     -6.4 1.008e+04 2.966e-10
 53.91153     -4.7 1.002e+04 2.768e-10
 53.95128     -3.4 1.014e+04 2.333e-10
 53.99103     -2.6 1.023e+04 2.218e-10
 54.03078     -1.8 1.015e+04 2.523e-10
 54.06393     -0.1 1.006e+04 3.042e-10
 54.08381      0.1 1.025e+04 3.389e-10
 54.11029      2.2 1.014e+04 3.176e-10
 54.15004      4.4 1.012e+04 2.445e-10
 54.18979      5.7 1.027e+04 1.664e-10
 54.22954      6.6 1.021e+04 1.384e-10
 54.26930      8.0 1.011e+04 1.407e-10
 54.29649      9.8 1.010e+04 1.426e-10
 54.31637     10.2 1.012e+04 1.663e-10
 54.34880     12.3 1.015e+04 1.649e-10
 54.38855     14.3 1.023e+04 1.572e-10
 54.42830     16.1 1.028e+04 1.604e-10
 54.45136     17.5 1.039e+04 1.815e-10
 54.47124     18.2 1.036e+04 1.778e-10
 54.50781     19.7 1.043e+04 2.359e-10
 54.52905     21.7 1.055e+04 3.150e-10
 54.54893     22.4 1.067e+04 3.566e-10
 54.58731     24.4 1.074e+04 3.708e-10
 54.62707     26.6 1.070e+04 3.325e-10
 54.66682     28.8 1.069e+04 2.506e-10
 54.70657     30.4 1.080e+04 1.754e-10
 54.74174     31.7 1.087e+04 1.377e-10
 54.76161     32.1 1.082e+04 1.064e-10
 54.78607     33.6 1.083e+04 1.087e-10
 54.82583     35.0 1.096e+04 1.204e-10
 54.86558     35.9 1.127e+04 1.831e-10
 54.90533     36.2 1.159e+04 3.765e-10
 54.94508     37.1 1.184e+04 8.408e-10
 54.97430     38.4 1.266e+04 1.834e-09
 54.99417     38.8 1.246e+04 1.494e-09
 55.01506     39.9 1.281e+04 1.764e-09
 55.03494     39.9 1.258e+04 1.470e-09
 55.06434     40.7 1.267e+04 1.489e-09
 55.10409     41.2 1.267e+04 1.352e-09
 55.14384     41.6 1.265e+04 1.189e-09
 55.18360     41.9 1.273e+04 1.241e-09
 55.20686     42.4 1.297e+04 1.457e-09
 55.22674     42.8 1.263e+04 1.103e-09
 55.26310     43.7 1.300e+04 1.559e-09
 55.30285     44.6 1.321e+04 1.910e-09
 55.34260     45.2 1.333e+04 2.121e-09
 55.38236     45.8 1.350e+04 2.097e-09
 55.41207     45.5 1.347e+04 1.935e-09
 55.42929     45.8 1.332e+04 1.738e-09
 55.43922     46.0 1.250e+04 1.174e-09
 55.45173     45.9 1.251e+04 1.221e-09
 55.47160     46.0 1.252e+04 1.317e-09
 55.49148     46.2 1.256e+04 1.428e-09
 55.51136     46.6 1.263e+04 1.510e-09
 55.53123     46.9 1.271e+04 1.530e-09
 55.54557     47.2 1.267e+04 1.509e-09
 55.55551     47.8 1.279e+04 1.653e-09
 55.57098     48.0 1.276e+04 1.599e-09
 55.58850     48.2 1.263e+04 1.484e-09
 55.59844     47.8 1.239e+04 1.384e-09
 55.61074     48.0 1.233e+04 1.320e-09
 55.63061     48.7 1.231e+04 1.272e-09
 55.65201     48.5 1.235e+04 1.281e-09
 55.67198     49.1 1.250e+04 1.254e-09
 55.70037     49.8 1.231e+04 1.016e-09
 55.74013     50.7 1.193e+04 7.172e-10
 55.77988     51.9 1.156e+04 4.509e-10
 55.81963     53.1 1.133e+04 2.677e-10
 55.85938     54.2 1.122e+04 1.662e-10
 55.88467     55.2 1.083e+04 1.319e-10
 55.90454     55.3 1.094e+04 1.375e-10
 55.93889     57.0 1.088e+04 1.378e-10
 55.97864     58.8 1.079e+04 1.451e-10
 56.01839     60.7 1.066e+04 1.683e-10
 56.05814     62.8 1.055e+04 2.044e-10
 56.09735     65.0 1.048e+04 2.419e-10
 56.11723     65.6 1.058e+04 2.976e-10
 56.13765     67.8 1.059e+04 3.004e-10
 56.16233     69.8 1.054e+04 2.883e-10
 56.18221     70.3 1.043e+04 2.809e-10
 56.21715     72.3 1.039e+04 2.581e-10
 56.25690     74.3 1.028e+04 2.184e-10
 56.29666     76.3 1.017e+04 1.815e-10
 56.32991     78.2 1.004e+04 1.568e-10
 56.34979     78.5 1.018e+04 1.283e-10
 56.37616     80.4 1.000e+04 1.249e-10
 56.41591     82.3 9.967e+03 1.258e-10
 56.45566     84.2 9.907e+03 1.314e-10
 56.49542     86.0 9.870e+03 1.409e-10
 56.53517     87.7 9.855e+03 1.534e-10
 56.56247     89.4 9.860e+03 1.687e-10
 56.58235     89.6 1.002e+04 1.651e-10
 56.61467     91.2 9.998e+03 1.886e-10
 56.65442     92.7 9.956e+03 1.993e-10
 56.69418     94.1 9.929e+03 1.963e-10
 56.72603     95.6 9.818e+03 1.837e-10
 56.74591     96.0 9.797e+03 1.781e-10
 56.77368     97.5 9.693e+03 1.621e-10
 56.79503     98.9 9.548e+03 1.450e-10
 56.81491     99.0 9.568e+03 1.332e-10
 56.85319    100.4 9.365e+03 1.202e-10
 56.89294    102.0 9.314e+03 1.197e-10
 56.93269    103.7 9.282e+03 1.228e-10
 56.97244    105.4 9.244e+03 1.341e-10
 57.00772    107.1 9.231e+03 1.509e-10
 57.02759    107.2 9.364e+03 1.142e-10
 57.05195    109.0 9.350e+03 1.311e-10
 57.09170    110.8 9.358e+03 1.477e-10
 57.13145    112.6 9.341e+03 1.512e-10
 57.17120    114.2 9.323e+03 1.491e-10
 57.21095    115.9 9.260e+03 1.418e-10
 57.24028    117.6 9.180e+03 1.281e-10
 57.26015    117.7 9.234e+03 1.352e-10
 57.28973    119.4 9.178e+03 1.210e-10
 57.30961    119.7 9.115e+03 1.071e-10
 57.33021    121.5 9.061e+03 9.667e-11
 57.36996    123.3 9.016e+03 8.648e-11
 57.40972    125.3 8.987e+03 7.696e-11
 57.44947    127.3 8.963e+03 6.922e-11
 57.47284    129.4 8.954e+03 6.618e-11
 57.49272    130.0 8.999e+03 1.175e-10
 57.52897    132.3 9.019e+03 1.169e-10
 57.56872    134.4 9.063e+03 1.174e-10
 57.60848    136.5 9.153e+03 1.221e-10
 57.64823    138.4 9.251e+03 1.369e-10
 57.68552    140.2 9.354e+03 1.654e-10
 57.70540    141.0 9.850e+03 3.131e-10
 57.72773    142.6 1.006e+04 3.811e-10
 57.76749    144.2 1.026e+04 4.634e-10
 57.80724    145.2 1.034e+04 5.037e-10
 57.84699    145.6 1.032e+04 4.979e-10
 57.87331    145.8 1.022e+04 4.593e-10
 57.89319    147.2 1.029e+04 4.743e-10
 57.91808    147.3 1.022e+04 4.466e-10
 57.93796    148.3 1.120e+04 9.348e-10
 57.96625    148.1 1.101e+04 7.656e-10
 58.00600    147.6 1.086e+04 6.365e-10
 58.04575    146.7 1.072e+04 5.592e-10
 58.08550    145.7 1.056e+04 5.158e-10
 58.12525    144.7 1.037e+04 4.913e-10
 58.15065    143.9 1.021e+04 4.693e-10
 58.17052    143.7 1.073e+04 5.912e-10
 58.20476    142.7 1.053e+04 5.489e-10
 58.24451    142.2 1.037e+04 4.936e-10
 58.28426    141.9 1.021e+04 4.228e-10
 58.32402    141.7 1.000e+04 3.575e-10
 58.36333    141.9 9.787e+03 3.412e-10
 58.38321    141.4 1.032e+04 7.486e-10
 58.40352    142.3 1.030e+04 7.635e-10
 58.43701    143.5 1.038e+04 8.454e-10
 58.45688    143.1 1.065e+04 1.050e-09
 58.48302    144.3 1.089e+04 1.190e-09
 58.52278    145.6 1.114e+04 1.290e-09
 58.56253    146.7 1.120e+04 1.287e-09
 58.59589    147.9 1.123e+04 1.200e-09
 58.61577    147.1 1.114e+04 1.021e-09
 58.64203    148.1 1.100e+04 8.640e-10
 58.68178    149.2 1.085e+04 8.055e-10
 58.72154    150.3 1.077e+04 8.007e-10
 58.76129    151.4 1.073e+04 7.939e-10
 58.80104    152.6 1.066e+04 7.620e-10
 58.82845    154.0 1.054e+04 6.953e-10
 58.84833    153.8 1.052e+04 6.900e-10
 58.88055    155.3 1.038e+04 6.288e-10
 58.92030    156.9 1.025e+04 5.737e-10
 58.96005    158.6 1.021e+04 5.521e-10
 58.99980    160.3 1.022e+04 5.556e-10
 59.02058    162.0 1.024e+04 5.619e-10
 59.04046    161.7 1.000e+04 5.151e-10
 59.06101    163.5 1.002e+04 5.201e-10
 59.08089    163.7 9.935e+03 4.457e-10
 59.11906    165.4 9.951e+03 4.497e-10
 59.15881    167.0 1.003e+04 4.647e-10
 59.19856    168.4 1.019e+04 5.105e-10
 59.23831    169.7 1.041e+04 5.923e-10
 59.27370    170.7 1.067e+04 7.003e-10
 59.29357    171.1 1.037e+04 6.007e-10
 59.31782    172.0 1.070e+04 7.576e-10
 59.35757    172.6 1.104e+04 8.608e-10
 59.39732    172.7 1.117e+04 8.686e-10
 59.43708    172.7 1.118e+04 8.567e-10
 59.47683    172.9 1.118e+04 7.864e-10
 59.50626    173.3 1.112e+04 6.585e-10
 59.52613    174.2 1.116e+04 6.921e-10
 59.55633    174.8 1.111e+04 5.510e-10
 59.58428    175.5 1.107e+04 4.193e-10
 59.60416    175.2 1.091e+04 3.482e-10
 59.63584    175.9 1.092e+04 2.822e-10
 59.67559    176.6 1.096e+04 2.317e-10
 59.71534    177.4 1.100e+04 1.880e-10
 59.73882    178.3 1.105e+04 1.461e-10
 59.75870    179.4 1.111e+04 1.580e-10
 59.79484    180.2 1.115e+04 1.157e-10
 59.83460    181.2 1.109e+04 8.703e-11
 59.87435    182.3 1.082e+04 7.536e-11
 59.91410    183.8 1.064e+04 7.516e-11
 59.95150    185.6 1.062e+04 7.580e-11
 59.97138    186.4 1.061e+04 8.232e-11
 59.99361    188.4 1.056e+04 8.545e-11
 60.03336    190.6 1.055e+04 9.188e-11
 60.07311    192.8 1.058e+04 1.006e-10
 60.11286    195.1 1.063e+04 1.114e-10
 60.14798    197.5 1.068e+04 1.246e-10
 60.16786    197.3 1.079e+04 1.385e-10
 60.18407    199.7 1.084e+04 1.522e-10
 60.20394    200.3 1.079e+04 1.697e-10
 60.23212    202.7 1.082e+04 1.928e-10
 60.27187    204.9 1.087e+04 2.214e-10
 60.31162    207.1 1.091e+04 2.546e-10
 60.35137    209.2 1.095e+04 2.906e-10
 60.39113    211.2 1.100e+04 3.270e-10
 60.41663    213.1 1.106e+04 3.639e-10
 60.43650    213.7 1.110e+04 3.964e-10
 60.47063    215.5 1.120e+04 4.407e-10
 60.51038    217.1 1.131e+04 5.000e-10
 60.55014    218.2 1.137e+04 5.673e-10
 60.57985    218.7 1.140e+04 6.369e-10
 60.59963    219.8 1.148e+04 7.624e-10
 60.61951    221.0 1.170e+04 9.665e-10
 60.63905    221.9 1.196e+04 1.205e-09
 60.64899    222.0 1.203e+04 1.241e-09
 60.65926    222.6 1.225e+04 1.472e-09
 60.67913    223.0 1.242e+04 1.680e-09
 60.69901    223.5 1.255e+04 1.846e-09
 60.71889    224.0 1.264e+04 1.964e-09
 60.73136    224.5 1.273e+04 2.053e-09
 60.74130    224.7 1.282e+04 2.037e-09
 60.75533    225.1 1.296e+04 2.133e-09
 60.76527    225.3 1.299e+04 2.195e-09
 60.77852    225.8 1.315e+04 2.304e-09
 60.79839    225.9 1.339e+04 2.530e-09
 60.81827    225.9 1.374e+04 2.942e-09
 60.83814    225.8 1.420e+04 3.623e-09
 60.85802    225.7 1.481e+04 4.569e-09
 60.87161    225.6 1.543e+04 5.481e-09
 60.88155    226.0 1.549e+04 6.029e-09
 60.89777    225.8 1.623e+04 7.143e-09
 60.91765    225.2 1.646e+04 7.210e-09
 60.93752    224.2 1.644e+04 6.976e-09
 60.95740    223.1 1.620e+04 5.942e-09
 60.97728    222.0 1.555e+04 4.251e-09
 60.98789    221.1 1.457e+04 2.668e-09
 60.99783    222.3 1.554e+04 4.069e-09
 61.01321    221.5 1.441e+04 2.394e-09
 61.02315    220.5 1.378e+04 1.949e-09
 61.03690    220.1 1.305e+04 1.236e-09
 61.06682    220.2 1.257e+04 7.879e-10
 61.09443    220.2 1.204e+04 4.843e-10
 61.11431    221.8 1.277e+04 7.979e-10
 61.14642    222.1 1.228e+04 5.317e-10
 61.18617    223.0 1.183e+04 3.888e-10
 61.22592    224.5 1.146e+04 3.281e-10
 61.26567    226.4 1.128e+04 3.016e-10
 61.29526    228.5 1.128e+04 2.993e-10
 61.31513    228.5 1.126e+04 3.372e-10
 61.32699    230.7 1.134e+04 3.529e-10
 61.34687    231.3 1.131e+04 3.256e-10
 61.38493    233.5 1.138e+04 3.397e-10
 61.42468    235.5 1.145e+04 3.477e-10
 61.46444    237.4 1.148e+04 3.451e-10
 61.50419    239.1 1.150e+04 3.301e-10
 61.53968    240.6 1.148e+04 3.039e-10
 61.55955    241.6 1.139e+04 2.598e-10
 61.58369    243.0 1.134e+04 2.357e-10
 61.62344    244.1 1.127e+04 2.220e-10
 61.66320    245.0 1.124e+04 2.212e-10
 61.70295    245.7 1.120e+04 2.328e-10
 61.74270    246.4 1.125e+04 2.512e-10
 61.77224    247.0 1.135e+04 2.701e-10
 61.79211    248.3 1.137e+04 2.767e-10
 61.82220    248.9 1.154e+04 3.158e-10
 61.85896    249.4 1.171e+04 3.612e-10
 61.87883    248.7 1.179e+04 3.599e-10
 61.90171    249.1 1.189e+04 3.886e-10
 61.94146    249.7 1.189e+04 3.850e-10
 61.98121    250.7 1.185e+04 3.695e-10
 62.00480    251.9 1.180e+04 3.506e-10
 62.02468    253.2 1.185e+04 3.829e-10
 62.06072    254.4 1.174e+04 3.567e-10
 62.09043    255.1 1.168e+04 3.611e-10
 62.11021    256.2 1.166e+04 3.825e-10
 62.12088    257.4 1.170e+04 4.289e-10
 62.13082    258.4 1.178e+04 4.387e-10
 62.14996    259.2 1.184e+04 4.770e-10
 62.16049    259.9 1.190e+04 5.290e-10
 62.17043    259.3 1.178e+04 4.384e-10
 62.18972    259.8 1.195e+04 5.112e-10
 62.20959    260.3 1.217e+04 6.230e-10
 62.22723    260.5 1.239e+04 7.910e-10
 62.23717    261.5 1.229e+04 6.506e-10
 62.24934    261.5 1.256e+04 8.581e-10
 62.26922    261.2 1.291e+04 1.192e-09
 62.28910    260.8 1.345e+04 1.716e-09
 62.30897    260.5 1.404e+04 2.481e-09
 62.32885    260.2 1.462e+04 3.437e-09
 62.34351    260.0 1.516e+04 4.416e-09
 62.35345    259.5 1.605e+04 7.264e-09
 62.36860    259.3 1.669e+04 9.650e-09
 62.38848    258.8 1.716e+04 1.039e-08
 62.40835    257.8 1.717e+04 1.010e-08
 62.42823    256.5 1.710e+04 8.795e-09
 62.44234    254.9 1.672e+04 6.573e-09
 62.45228    252.8 1.561e+04 3.963e-09
 62.45979    251.0 1.474e+04 2.730e-09
 62.46973    251.0 1.457e+04 1.581e-09
 62.48786    248.5 1.307e+04 8.888e-10
 62.50773    246.6 1.189e+04 5.892e-10
 62.52761    245.5 1.124e+04 4.633e-10
 62.54749    245.2 1.105e+04 4.134e-10
 62.56613    245.1 1.101e+04 3.999e-10
 62.57607    245.2 1.088e+04 3.503e-10
 62.58724    245.6 1.086e+04 3.573e-10
 62.60711    246.1 1.090e+04 3.669e-10
 62.62699    246.7 1.096e+04 3.856e-10
 62.64687    247.2 1.103e+04 4.163e-10
 62.66674    247.8 1.113e+04 4.539e-10
 62.68241    248.3 1.124e+04 4.907e-10
 62.69235    249.0 1.111e+04 4.312e-10
 62.70649    249.4 1.121e+04 4.775e-10
 62.72419    249.8 1.129e+04 5.149e-10
 62.73413    249.3 1.148e+04 5.658e-10
 62.74625    249.7 1.148e+04 6.142e-10
 62.76612    250.1 1.148e+04 6.504e-10
 62.78600    250.3 1.149e+04 6.760e-10
 62.79869    250.4 1.152e+04 6.960e-10
 62.80863    251.3 1.153e+04 7.220e-10
 62.82575    251.3 1.157e+04 7.414e-10
 62.84563    251.4 1.160e+04 7.549e-10
 62.86550    251.3 1.165e+04 7.631e-10
 62.88538    251.2 1.166e+04 7.609e-10
 62.90503    251.0 1.166e+04 7.544e-10
 62.91497    252.0 1.172e+04 7.971e-10
 62.92513    251.7 1.169e+04 7.781e-10
 62.94501    251.4 1.161e+04 7.625e-10
 62.96488    251.2 1.154e+04 7.531e-10
 62.98476    251.0 1.147e+04 7.474e-10
 63.00464    250.8 1.147e+04 7.536e-10
 63.01597    250.7 1.148e+04 7.734e-10
 63.02272    249.8 1.143e+04 7.251e-10
 63.03125    250.7 1.131e+04 6.781e-10
 63.04439    250.5 1.129e+04 6.731e-10
 63.06426    250.4 1.126e+04 6.652e-10
 63.08414    250.3 1.120e+04 6.536e-10
 63.10402    250.3 1.111e+04 6.428e-10
 63.12389    250.3 1.103e+04 6.369e-10
 63.13759    250.3 1.099e+04 6.375e-10
 63.14753    251.0 1.098e+04 6.075e-10
 63.16364    250.9 1.096e+04 6.258e-10
 63.18352    250.7 1.093e+04 6.443e-10
 63.21343    251.2 1.093e+04 6.669e-10
 63.25328    251.3 1.089e+04 6.688e-10
 63.29303    250.8 1.075e+04 6.381e-10
 63.33279    250.0 1.047e+04 5.211e-10
 63.36041    249.4 1.009e+04 3.619e-10
 63.38029    250.8 1.022e+04 4.193e-10
 63.41229    250.5 9.749e+03 2.698e-10
 63.45204    250.2 9.353e+03 1.867e-10
 63.49179    250.1 9.249e+03 1.725e-10
 63.53155    250.3 9.246e+03 1.724e-10
 63.56993    250.6 9.257e+03 1.763e-10
 63.58981    251.8 9.219e+03 1.738e-10
 63.59297    252.1 9.241e+03 1.872e-10
 63.61285    253.3 9.221e+03 1.781e-10
 63.65080    253.4 9.335e+03 2.088e-10
 63.69056    253.0 9.712e+03 2.943e-10
 63.72027    252.4 9.983e+03 3.540e-10
 63.74005    251.9 1.023e+04 4.287e-10
 63.76996    252.0 1.084e+04 6.786e-10
 63.80566    251.3 1.161e+04 1.112e-09
 63.82553    251.9 1.091e+04 7.379e-10
 63.84956    251.0 1.141e+04 1.067e-09
 63.88932    250.3 1.178e+04 1.396e-09
 63.92907    249.6 1.201e+04 1.593e-09
 63.96882    248.9 1.203e+04 1.601e-09
 64.00857    248.4 1.197e+04 1.561e-09
 64.03822    248.1 1.186e+04 1.491e-09
 64.05810    248.4 1.154e+04 1.216e-09
 64.08808    248.2 1.145e+04 1.165e-09
 64.12783    248.1 1.141e+04 1.132e-09
 64.15351    248.0 1.146e+04 1.118e-09
 64.17338    249.1 1.138e+04 1.066e-09
 64.20733    248.8 1.150e+04 1.085e-09
 64.24709    248.2 1.150e+04 1.055e-09
 64.27078    247.5 1.139e+04 9.166e-10
 64.29066    247.3 1.105e+04 7.427e-10
 64.32659    246.9 1.078e+04 5.703e-10
 64.36634    246.9 1.040e+04 3.839e-10
 64.40609    246.9 9.949e+03 2.430e-10
 64.44585    246.9 9.630e+03 1.795e-10
 64.48346    247.1 9.601e+03 1.744e-10
 64.50334    247.0 9.588e+03 1.766e-10
 64.52535    247.5 9.609e+03 1.794e-10
 64.56510    247.5 9.735e+03 2.007e-10
 64.60486    247.2 1.004e+04 2.737e-10
 64.64461    246.8 1.050e+04 3.949e-10
 64.67432    246.0 1.075e+04 4.691e-10
 64.69410    245.4 1.094e+04 5.220e-10
 64.71398    244.8 1.106e+04 5.593e-10
 64.72577    244.2 1.111e+04 5.697e-10
 64.72880    243.9 1.102e+04 5.302e-10
 64.73689    243.6 1.125e+04 6.270e-10
 64.75373    243.2 1.124e+04 6.206e-10
 64.77361    242.9 1.120e+04 5.991e-10
 64.79348    242.4 1.117e+04 5.617e-10
 64.81336    242.1 1.117e+04 5.384e-10
 64.84327    241.8 1.113e+04 5.332e-10
 64.88312    241.3 1.110e+04 5.188e-10
 64.92287    240.7 1.107e+04 5.060e-10
 64.94859    240.1 1.099e+04 4.751e-10
 64.96846    238.8 1.104e+04 4.808e-10
 65.00238    238.5 1.083e+04 4.073e-10
 65.04213    238.2 1.059e+04 3.399e-10
 65.08188    238.0 1.037e+04 2.955e-10
 65.12163    238.1 1.017e+04 2.789e-10
 65.16127    238.4 1.008e+04 2.784e-10
 65.20102    237.8 9.898e+03 2.296e-10
 65.24089    238.5 9.895e+03 2.302e-10
 65.28064    239.2 9.890e+03 2.359e-10
 65.30078    239.9 9.903e+03 2.516e-10
 65.32066    238.7 9.860e+03 2.417e-10
 65.36015    239.3 9.943e+03 2.745e-10
 65.39383    239.9 1.010e+04 3.176e-10
 65.41371    238.8 9.985e+03 3.049e-10
 65.43965    239.3 1.011e+04 3.392e-10
 65.47940    239.7 1.016e+04 3.435e-10
 65.51915    240.0 1.015e+04 3.371e-10
 65.55891    240.2 1.006e+04 3.097e-10
 65.59866    240.4 9.894e+03 2.636e-10
 65.62639    240.6 9.715e+03 2.213e-10
 65.64627    239.9 9.606e+03 2.009e-10
 65.67816    240.3 9.574e+03 1.967e-10
 65.71792    240.8 9.585e+03 1.997e-10
 65.75767    241.3 9.669e+03 2.165e-10
 65.79742    241.7 9.866e+03 2.481e-10
 65.83717    242.0 1.011e+04 2.846e-10
 65.85895    242.1 1.036e+04 3.134e-10
 65.86639    242.1 1.019e+04 2.927e-10
 65.88436    240.4 1.014e+04 2.832e-10
 65.91668    240.6 1.015e+04 2.782e-10
 65.95643    240.9 1.018e+04 2.665e-10
 65.99618    241.2 1.021e+04 2.608e-10
 66.03593    241.6 1.025e+04 2.614e-10
 66.07164    242.1 1.038e+04 2.666e-10
 66.09151    242.4 1.022e+04 2.496e-10
 66.11544    243.1 1.041e+04 2.675e-10
 66.15519    243.9 1.062e+04 2.986e-10
 66.19494    244.5 1.076e+04 3.295e-10
 66.22466    245.1 1.092e+04 3.962e-10
 66.24444    245.9 1.112e+04 4.804e-10
 66.26431    246.7 1.140e+04 5.897e-10
 66.28419    247.4 1.177e+04 7.307e-10
 66.30400    247.9 1.220e+04 9.155e-10
 66.32388    248.1 1.266e+04 1.176e-09
 66.34382    248.0 1.318e+04 1.526e-09
 66.36369    247.9 1.393e+04 2.080e-09
 66.38357    247.5 1.501e+04 2.895e-09
 66.40344    246.1 1.632e+04 3.851e-09
 66.42028    243.6 1.778e+04 4.208e-09
 66.43022    244.2 1.836e+04 5.536e-09
 66.43792    240.6 1.983e+04 6.275e-09
 66.44284    240.7 2.091e+04 1.193e-08
 66.44807    238.5 2.160e+04 1.445e-08
 66.45801    236.3 2.181e+04 1.619e-08
 66.46794    234.0 2.173e+04 1.630e-08
 66.47788    232.0 2.147e+04 1.580e-08
 66.48330    230.4 2.103e+04 1.434e-08
 66.48826    230.9 2.139e+04 1.860e-08
 66.49776    229.5 2.102e+04 1.616e-08
 66.50770    227.8 2.041e+04 1.166e-08
 66.52265    224.6 1.926e+04 7.206e-09
 66.53656    220.5 1.679e+04 3.934e-09
 66.54650    221.0 1.832e+04 5.227e-09
 66.56245    216.8 1.586e+04 3.041e-09
 66.58233    213.1 1.405e+04 2.106e-09
 66.60221    210.3 1.315e+04 1.625e-09
 66.62208    208.5 1.263e+04 1.289e-09
 66.64196    207.9 1.217e+04 1.023e-09
 66.65284    207.5 1.172e+04 7.712e-10
 66.66278    206.5 1.141e+04 6.631e-10
 66.68171    206.1 1.105e+04 4.918e-10
 66.70159    205.9 1.076e+04 3.694e-10
 66.71977    205.9 1.054e+04 2.996e-10
 66.72971    205.2 1.054e+04 2.860e-10
 66.74134    205.6 1.039e+04 2.652e-10
 66.75919    206.2 1.029e+04 2.588e-10
 66.76913    205.0 1.029e+04 2.740e-10
 66.78109    206.0 1.033e+04 2.767e-10
 66.80097    206.7 1.039e+04 2.853e-10
 66.82084    207.4 1.056e+04 3.021e-10
 66.84072    208.0 1.069e+04 3.418e-10
 66.86059    208.7 1.083e+04 4.110e-10
 66.87547    209.4 1.102e+04 5.101e-10
 66.88541    208.5 1.113e+04 5.885e-10
 66.90035    209.4 1.140e+04 7.193e-10
 66.92022    210.2 1.173e+04 8.866e-10
 66.94010    210.9 1.212e+04 1.095e-09
 66.95997    211.6 1.259e+04 1.358e-09
 66.97985    212.3 1.318e+04 1.710e-09
 66.99175    212.8 1.384e+04 2.178e-09
 67.00169    212.2 1.352e+04 1.763e-09
 67.01156    212.1 1.423e+04 2.149e-09
 67.02150    211.8 1.494e+04 2.890e-09
 67.03948    211.8 1.592e+04 3.961e-09
 67.05936    211.8 1.707e+04 5.924e-09
 67.07923    211.7 1.809e+04 8.340e-09
 67.09409    211.1 1.864e+04 9.697e-09
 67.10296    210.6 1.920e+04 1.119e-08
 67.10793    209.9 1.974e+04 1.148e-08
 67.11392    209.6 2.006e+04 1.428e-08
 67.12385    209.0 2.107e+04 1.830e-08
 67.13379    208.1 2.235e+04 2.413e-08
 67.14373    206.5 2.409e+04 3.188e-08
 67.15239    203.8 2.638e+04 4.149e-08
 67.15736    207.2 2.544e+04 4.558e-08
 67.16110    204.3 2.766e+04 5.784e-08
 67.16607    198.3 3.038e+04 1.210e-07
 67.17354    193.5 3.174e+04 1.334e-07
 67.18348    188.3 3.245e+04 1.281e-07
 67.19342    182.3 3.316e+04 1.112e-07
 67.20336    175.1 3.354e+04 7.992e-08
 67.21330    166.8 3.435e+04 4.553e-08
 67.21924    158.2 3.551e+04 2.034e-08
 67.22421    153.9 3.440e+04 8.117e-09
 67.23819    140.7 3.172e+04 3.088e-09
 67.25812    128.3 2.019e+04 1.499e-09
 67.27799    122.6 1.165e+04 9.764e-10
 67.29341    122.6 1.114e+04 7.229e-10
 67.30335    121.5 1.124e+04 6.642e-10
 67.31774    122.3 1.092e+04 6.100e-10
 67.33065    123.0 1.078e+04 5.779e-10
 67.34059    123.0 1.034e+04 3.717e-10
 67.35750    123.2 1.022e+04 3.640e-10
 67.37737    123.3 1.015e+04 3.582e-10
 67.39725    123.3 1.006e+04 3.495e-10
 67.41712    123.1 9.944e+03 3.387e-10
 67.43699    122.8 9.832e+03 3.267e-10
 67.46691    123.9 9.634e+03 2.509e-10
 67.50676    123.8 9.637e+03 2.513e-10
 67.54651    123.9 9.689e+03 2.602e-10
 67.57536    123.6 9.741e+03 2.681e-10
 67.58520    123.1 9.728e+03 2.570e-10
 67.59601    123.1 9.799e+03 2.701e-10
 67.61589    122.7 9.989e+03 3.065e-10
 67.63576    122.3 1.031e+04 3.811e-10
 67.65564    121.9 1.069e+04 5.076e-10
 67.66955    121.5 1.110e+04 7.041e-10
 67.67949    122.6 1.054e+04 6.568e-10
 67.69539    122.1 1.108e+04 9.228e-10
 67.71527    121.3 1.178e+04 1.320e-09
 67.73514    120.4 1.255e+04 1.872e-09
 67.75502    119.3 1.327e+04 2.555e-09
 67.77489    118.2 1.378e+04 3.093e-09
 67.78584    116.7 1.385e+04 3.140e-09
 67.79577    117.4 1.355e+04 3.111e-09
 67.81465    115.8 1.348e+04 3.000e-09
 67.83452    114.4 1.309e+04 2.531e-09
 67.85440    113.3 1.251e+04 1.824e-09
 67.86705    112.3 1.191e+04 1.184e-09
 67.87699    111.8 1.204e+04 1.285e-09
 67.89228    109.2 1.092e+04 5.886e-10
 67.91225    110.9 1.104e+04 6.905e-10
 67.94404    106.9 9.745e+03 3.094e-10
 67.98379    104.1 9.309e+03 2.740e-10
 68.02354    102.6 9.241e+03 2.953e-10
 68.06329    101.9 9.375e+03 3.730e-10
 68.10304    101.3 9.734e+03 4.754e-10
 68.12493    100.7 1.000e+04 5.291e-10
 68.14117    101.5 1.004e+04 5.405e-10
 68.15903     99.3 1.006e+04 5.310e-10
 68.18255     98.2 1.032e+04 5.819e-10
 68.22230     96.7 1.080e+04 7.221e-10
 68.26205     95.5 1.138e+04 9.765e-10
 68.30181     94.4 1.177e+04 1.202e-09
 68.33762     93.3 1.179e+04 1.203e-09
 68.35749     93.7 1.126e+04 8.842e-10
 68.38131     92.9 1.107e+04 7.626e-10
 68.42106     92.4 1.073e+04 5.937e-10
 68.46081     92.2 1.036e+04 4.252e-10
 68.50057     92.0 1.001e+04 2.971e-10
 68.54032     91.9 9.759e+03 2.132e-10
 68.57018     91.9 9.622e+03 1.668e-10
 68.59006     93.2 9.552e+03 1.721e-10
 68.61982     93.6 9.483e+03 1.430e-10
 68.65957     94.2 9.412e+03 1.375e-10
 68.69933     95.0 9.401e+03 1.377e-10
 68.72273     95.8 9.393e+03 1.388e-10
 68.74261     95.2 9.357e+03 1.377e-10
 68.77883     96.2 9.344e+03 1.380e-10
 68.80274     97.2 9.342e+03 1.389e-10
 68.82262     98.4 9.229e+03 1.126e-10
 68.85834     99.4 9.246e+03 1.157e-10
 68.89809    100.1 9.340e+03 1.264e-10
 68.93784    100.5 9.567e+03 1.537e-10
 68.97759    100.5 1.004e+04 2.116e-10
 69.01542    100.1 1.067e+04 3.100e-10
 69.03530    101.8 1.054e+04 3.058e-10
 69.04706    100.1 1.114e+04 4.949e-10
 69.06684     99.1 1.149e+04 7.079e-10
 69.08671     98.3 1.184e+04 8.320e-10
 69.10659     97.3 1.213e+04 8.320e-10
 69.12647     95.6 1.227e+04 8.377e-10
 69.14145     93.3 1.244e+04 8.745e-10
 69.15139     94.3 1.284e+04 1.066e-09
 69.16622     91.6 1.297e+04 1.208e-09
 69.18610     89.2 1.294e+04 1.421e-09
 69.20597     87.6 1.278e+04 1.567e-09
 69.22585     86.6 1.259e+04 1.521e-09
 69.24572     86.0 1.227e+04 1.319e-09
 69.25773     85.2 1.196e+04 9.785e-10
 69.26767     85.4 1.209e+04 1.100e-09
 69.28548     83.8 1.166e+04 7.288e-10
 69.29617     81.4 1.125e+04 5.898e-10
 69.30611     80.0 1.092e+04 5.088e-10
 69.32523     77.8 1.090e+04 5.239e-10
 69.34510     76.0 1.094e+04 6.204e-10
 69.36407     74.9 1.108e+04 8.178e-10
 69.37401     75.2 1.095e+04 8.025e-10
 69.38486     74.7 1.110e+04 9.065e-10
 69.40473     74.1 1.113e+04 8.984e-10
 69.42461     73.2 1.117e+04 8.072e-10
 69.44448     71.3 1.112e+04 6.382e-10
 69.46436     69.2 1.072e+04 5.008e-10
 69.48045     66.7 1.064e+04 5.026e-10
 69.50042     68.6 1.024e+04 4.199e-10
 69.53412     66.3 1.027e+04 4.576e-10
 69.57387     64.6 1.050e+04 5.426e-10
 69.61363     63.3 1.081e+04 6.320e-10
 69.65338     62.2 1.100e+04 7.064e-10
 69.69313     61.3 1.124e+04 8.208e-10
 69.73288     62.6 1.111e+04 7.132e-10
 69.77263     61.6 1.141e+04 8.451e-10
 69.81239     61.0 1.152e+04 8.734e-10
 69.85013     60.3 1.141e+04 8.123e-10
 69.86991     60.3 1.133e+04 7.979e-10
 69.88176     59.6 1.129e+04 7.579e-10
 69.90163     59.1 1.122e+04 7.266e-10
 69.92151     58.2 1.126e+04 7.348e-10
 69.93553     57.9 1.124e+04 7.351e-10
 69.94547     58.6 1.124e+04 7.364e-10
 69.96126     57.9 1.140e+04 7.806e-10
 69.98114     57.4 1.145e+04 8.202e-10
 70.00101     56.7 1.148e+04 8.995e-10
 70.02089     55.7 1.169e+04 1.045e-09
 70.04077     54.5 1.213e+04 1.284e-09
 70.05182     53.5 1.264e+04 1.567e-09
 70.06175     54.4 1.242e+04 1.463e-09
 70.08052     53.2 1.268e+04 1.536e-09
 70.10039     51.8 1.262e+04 1.490e-09
 70.12027     50.7 1.223e+04 1.196e-09
 70.14015     50.1 1.202e+04 1.084e-09
 70.15826     49.8 1.156e+04 6.911e-10
 70.16819     51.0 1.170e+04 8.776e-10
 70.17990     50.9 1.144e+04 6.522e-10
 70.20981     50.7 1.100e+04 3.369e-10
 70.24966     48.6 1.004e+04 1.478e-10
 70.28941     45.4 1.040e+04 1.491e-10
 70.31913     39.9 1.273e+04 2.041e-10
 70.33891     37.4 1.409e+04 6.419e-10
 70.35878     35.9 1.493e+04 1.875e-09
 70.37866     36.3 1.559e+04 4.967e-09
 70.39072     36.8 1.605e+04 7.326e-09
 70.40066     37.3 1.561e+04 5.652e-09
 70.41841     37.3 1.595e+04 6.565e-09
 70.43351     36.3 1.588e+04 5.667e-09
 70.44345     36.5 1.615e+04 6.190e-09
 70.45816     33.9 1.550e+04 3.800e-09
 70.47804     29.8 1.378e+04 2.114e-09
 70.49706     26.3 1.200e+04 1.385e-09
 70.50700     28.7 1.274e+04 1.750e-09
 70.51779     26.5 1.201e+04 1.434e-09
 70.53767     25.2 1.202e+04 1.371e-09
 70.55754     23.6 1.206e+04 1.385e-09
 70.57742     22.1 1.186e+04 1.328e-09
 70.59730     20.8 1.142e+04 1.198e-09
 70.61334     19.4 1.104e+04 1.069e-09
 70.62328     21.0 1.143e+04 1.249e-09
 70.63705     19.2 1.139e+04 1.165e-09
 70.65692     16.0 1.188e+04 1.277e-09
 70.67680     13.1 1.212e+04 1.491e-09
 70.69668     11.8 1.182e+04 1.621e-09
 70.71536     11.6 1.157e+04 1.553e-09
 70.72530     11.7 1.144e+04 1.481e-09
 70.72962     11.7 1.115e+04 1.233e-09
 70.73956     12.0 1.166e+04 1.583e-09
 70.75631     11.3 1.160e+04 1.159e-09
 70.77618      9.1 1.111e+04 7.888e-10
 70.79606      6.0 1.028e+04 5.327e-10
 70.81593      3.4 9.768e+03 4.458e-10
 70.83581      2.0 9.932e+03 4.518e-10
 70.84590      1.1 1.008e+04 4.819e-10
 70.85584      0.9 1.025e+04 5.416e-10
 70.87556      0.3 1.038e+04 6.140e-10
 70.89544     -0.2 1.054e+04 6.717e-10
 70.91531     -1.1 1.089e+04 8.197e-10
 70.93519     -2.1 1.149e+04 9.657e-10
 70.95224     -4.0 1.237e+04 1.220e-09
 70.96218     -6.2 1.427e+04 2.353e-09
 70.97494     -7.6 1.493e+04 3.142e-09
 70.99482     -8.5 1.503e+04 3.842e-09
 71.00715     -8.8 1.492e+04 4.143e-09
 71.01709     -9.5 1.502e+04 4.467e-09
 71.03457     -9.4 1.481e+04 4.223e-09
 71.05445     -9.1 1.440e+04 3.561e-09
 71.06852     -8.9 1.390e+04 2.785e-09
 71.07846     -9.8 1.385e+04 2.618e-09
 71.09420    -10.2 1.310e+04 1.851e-09
 71.12411    -10.6 1.197e+04 1.147e-09
 71.16396     -8.4 1.095e+04 6.221e-10
 71.20371     -7.1 1.050e+04 3.485e-10
 71.24346     -6.4 1.025e+04 2.557e-10
 71.28140     -6.1 1.040e+04 2.708e-10
 71.30128     -7.4 1.039e+04 2.779e-10
 71.32297     -7.1 1.063e+04 4.117e-10
 71.36272     -6.0 1.076e+04 6.078e-10
 71.40247     -4.7 1.086e+04 7.014e-10
 71.44222     -3.3 1.057e+04 5.879e-10
 71.48198     -2.3 1.014e+04 3.634e-10
 71.51397     -2.0 9.636e+03 2.400e-10
 71.53384     -1.7 9.503e+03 2.069e-10
 71.56110     -0.8 9.209e+03 1.685e-10
 71.58098     -0.9 9.261e+03 1.754e-10
 71.60123      0.7 9.134e+03 1.544e-10
 71.64099      2.2 9.052e+03 1.395e-10
 71.68074      3.9 8.868e+03 1.202e-10
 71.72049      5.6 8.723e+03 9.767e-11
 71.74653      6.8 8.705e+03 8.172e-11
 71.76640      7.2 8.712e+03 8.491e-11
 71.79999      8.6 8.692e+03 8.486e-11
 71.83975      9.7 8.740e+03 9.637e-11
 71.87950     11.1 8.774e+03 1.207e-10
 71.91925     12.7 8.856e+03 1.361e-10
 71.95900     14.1 8.880e+03 1.341e-10
 71.97909     15.2 8.889e+03 1.285e-10
 71.99896     15.7 8.875e+03 1.276e-10
 72.03851     16.6 8.897e+03 1.262e-10
 72.07826     17.4 8.939e+03 1.307e-10
 72.11801     18.6 8.943e+03 1.395e-10
 72.14468     19.9 8.963e+03 1.435e-10
 72.16456     20.2 9.005e+03 1.444e-10
 72.19177     21.5 8.999e+03 1.434e-10
 72.21165     22.0 8.987e+03 1.462e-10
 72.23727     23.2 8.974e+03 1.349e-10
 72.27702     24.1 9.004e+03 1.257e-10
 72.31677     25.0 9.049e+03 1.312e-10
 72.35652     26.0 9.123e+03 1.452e-10
 72.39628     27.1 9.204e+03 1.621e-10
 72.42433     28.2 9.383e+03 1.863e-10
 72.44421     28.5 9.106e+03 1.501e-10
 72.47578     29.1 9.544e+03 2.213e-10
 72.50550     29.2 9.899e+03 2.746e-10
 72.52528     28.3 1.060e+04 3.860e-10
 72.54042     26.8 1.125e+04 6.312e-10
 72.55036     27.5 1.106e+04 5.036e-10
 72.56503     26.3 1.156e+04 8.419e-10
 72.58490     25.8 1.201e+04 1.244e-09
 72.60478     25.5 1.237e+04 1.484e-09
 72.63469     23.2 1.280e+04 1.499e-09
 72.65680     21.1 1.317e+04 1.626e-09
 72.66664     22.1 1.317e+04 1.641e-09
 72.68428     19.2 1.363e+04 1.911e-09
 72.70416     16.6 1.401e+04 2.509e-09
 72.71812     15.2 1.406e+04 2.973e-09
 72.72806     15.2 1.471e+04 4.015e-09
 72.74391     14.7 1.449e+04 3.605e-09
 72.76304     13.7 1.393e+04 2.585e-09
 72.77298     14.9 1.417e+04 3.059e-09
 72.78366     13.5 1.330e+04 1.628e-09
 72.80354     11.8 1.238e+04 1.121e-09
 72.83345      9.8 1.119e+04 6.066e-10
 72.86958      8.9 1.028e+04 3.309e-10
 72.88945      9.7 1.058e+04 4.307e-10
 72.91305      9.6 1.010e+04 3.172e-10
 72.95281     10.4 9.893e+03 2.776e-10
 72.99256     11.7 9.837e+03 2.586e-10
 73.03231     13.4 9.817e+03 2.272e-10
 73.07206     14.6 9.814e+03 1.966e-10
 73.10214     15.5 9.960e+03 2.080e-10
 73.12202     15.7 1.013e+04 2.502e-10
 73.15157     15.2 1.057e+04 3.663e-10
 73.19132     15.2 1.114e+04 6.945e-10
 73.21832     15.1 1.159e+04 9.933e-10
 73.22816     15.3 1.166e+04 1.036e-09
 73.24081     15.5 1.175e+04 1.184e-09
 73.26069     16.1 1.161e+04 1.122e-09
 73.28057     17.2 1.143e+04 9.484e-10
 73.29176     17.7 1.145e+04 6.734e-10
 73.30170     17.7 1.145e+04 6.502e-10
 73.32032     17.2 1.163e+04 4.532e-10
 73.33450     16.0 1.147e+04 3.219e-10
 73.34444     16.5 1.150e+04 3.978e-10
 73.36007     15.1 1.138e+04 3.525e-10
 73.38998     15.3 1.168e+04 4.816e-10
 73.42983     14.1 1.203e+04 7.979e-10
 73.46958     13.6 1.224e+04 1.027e-09
 73.50934     13.1 1.202e+04 7.956e-10
 73.53905     11.8 1.169e+04 5.187e-10
 73.55713     10.4 1.120e+04 4.111e-10
 73.56707     10.2 1.116e+04 4.116e-10
 73.57361      9.4 1.121e+04 3.081e-10
 73.58355     10.0 1.124e+04 3.161e-10
 73.59858      9.4 1.123e+04 3.031e-10
 73.62850      9.0 1.100e+04 2.896e-10
 73.66835      8.1 1.116e+04 3.376e-10
 73.70810      7.4 1.139e+04 4.514e-10
 73.74785      7.3 1.137e+04 5.791e-10
 73.77995      7.6 1.117e+04 4.750e-10
 73.79982      8.4 1.113e+04 4.668e-10
 73.82735      8.9 1.085e+04 2.929e-10
 73.85565      8.4 1.072e+04 1.849e-10
 73.87553      9.3 1.087e+04 2.378e-10
 73.90686      8.8 1.070e+04 2.096e-10
 73.94661      8.0 1.082e+04 2.952e-10
 73.98636      8.4 1.121e+04 4.974e-10
 74.01241      9.0 1.169e+04 6.897e-10
 74.02225      9.6 1.161e+04 6.704e-10
 74.03586      9.2 1.205e+04 8.112e-10
 74.05573      9.0 1.212e+04 9.354e-10
 74.07561      9.1 1.199e+04 1.044e-09
 74.09549      9.4 1.198e+04 9.561e-10
 74.11536     10.0 1.165e+04 8.223e-10
 74.12859     10.0 1.165e+04 5.112e-10
 74.13853     10.6 1.185e+04 5.947e-10
 74.14725     10.3 1.122e+04 4.772e-10
 74.15718     10.4 1.124e+04 4.954e-10
 74.18503     10.4 1.078e+04 2.707e-10
 74.22488     10.0 1.063e+04 2.205e-10
 74.24507     10.6 1.050e+04 1.942e-10
 74.26494     11.4 1.050e+04 1.953e-10
 74.30438     12.4 1.067e+04 2.255e-10
 74.33410     13.5 1.105e+04 2.474e-10
 74.35121     13.2 1.128e+04 2.563e-10
 74.36115     13.5 1.121e+04 2.514e-10
 74.37375     11.9 1.212e+04 3.659e-10
 74.39363     10.8 1.196e+04 5.996e-10
 74.41350     11.5 1.170e+04 1.010e-09
 74.42910     13.1 1.215e+04 1.370e-09
 74.43903     13.6 1.182e+04 1.070e-09
 74.45326     14.2 1.243e+04 1.128e-09
 74.46750     13.8 1.292e+04 1.148e-09
 74.47743     14.2 1.288e+04 1.173e-09
 74.49301     13.5 1.311e+04 1.183e-09
 74.51288     12.4 1.268e+04 1.149e-09
 74.54280     14.0 1.248e+04 1.194e-09
 74.58264     13.9 1.249e+04 1.255e-09
 74.62240     14.1 1.221e+04 1.021e-09
 74.65211     13.4 1.199e+04 6.671e-10
 74.67189     12.6 1.172e+04 6.181e-10
 74.69012     12.2 1.125e+04 5.218e-10
 74.70006     12.5 1.133e+04 5.112e-10
 74.71095     12.5 1.107e+04 4.763e-10
 74.72088     13.5 1.130e+04 5.014e-10
 74.73152     13.3 1.101e+04 3.953e-10
 74.75140     13.1 1.090e+04 3.852e-10
 74.78131     13.8 1.063e+04 3.247e-10
 74.82116     15.3 1.038e+04 2.825e-10
 74.86091     16.7 1.029e+04 2.811e-10
 74.90066     18.3 1.027e+04 2.847e-10
 74.92287     20.1 1.022e+04 2.741e-10
 74.94275     20.3 1.015e+04 2.326e-10
 74.98017     22.1 1.011e+04 2.172e-10
 75.00293     23.8 1.010e+04 1.904e-10
 75.02280     25.0 1.012e+04 2.013e-10
 75.05967     26.5 1.019e+04 1.984e-10
 75.09942     27.8 1.022e+04 2.015e-10
 75.13556     29.0 1.023e+04 2.128e-10
 75.15543     29.5 1.031e+04 2.162e-10
 75.17893     30.6 1.032e+04 2.508e-10
 75.21868     31.5 1.041e+04 3.081e-10
 75.25843     32.2 1.054e+04 3.931e-10
 75.29818     32.8 1.075e+04 5.132e-10
 75.33794     33.1 1.092e+04 6.518e-10
 75.36812     33.4 1.104e+04 7.193e-10
 75.38800     34.3 1.134e+04 8.320e-10
 75.40740     34.1 1.130e+04 8.286e-10
 75.42718     33.4 1.124e+04 8.044e-10
 75.44706     32.4 1.121e+04 7.824e-10
 75.46693     31.6 1.106e+04 7.390e-10
 75.48420     30.3 1.113e+04 7.488e-10
 75.49414     30.7 1.133e+04 8.410e-10
 75.50669     29.8 1.116e+04 8.007e-10
 75.52656     28.7 1.108e+04 7.618e-10
 75.54644     27.9 1.078e+04 6.767e-10
 75.56632     27.3 1.047e+04 5.767e-10
 75.57637     26.2 1.044e+04 5.118e-10
 75.58631     26.4 1.064e+04 5.922e-10
 75.60049     25.8 1.055e+04 4.624e-10
 75.61042     25.8 1.068e+04 5.152e-10
 75.62594     24.6 1.070e+04 4.570e-10
 75.64582     23.8 1.057e+04 4.050e-10
 75.66570     23.5 1.057e+04 4.037e-10
 75.68557     22.7 1.065e+04 4.202e-10
 75.70545     22.4 1.078e+04 4.364e-10
 75.71677     21.4 1.106e+04 5.344e-10
 75.72670     20.3 1.122e+04 6.269e-10
 75.74520     19.6 1.131e+04 7.714e-10
 75.76508     19.1 1.152e+04 9.299e-10
 75.78495     18.5 1.192e+04 1.102e-09
 75.80483     17.5 1.244e+04 1.310e-09
 75.82311     16.1 1.289e+04 1.546e-09
 75.83305     14.9 1.311e+04 1.901e-09
 75.84458     14.0 1.294e+04 1.833e-09
 75.85822     12.7 1.296e+04 1.771e-09
 75.86816     11.6 1.254e+04 1.541e-09
 75.88433      6.7 1.467e+04 1.825e-09
 75.90421     -0.8 1.721e+04 3.067e-09
 75.92408     -4.8 1.623e+04 5.143e-09
 75.93939     -5.9 1.528e+04 7.245e-09
 75.94933     -5.3 1.367e+04 4.424e-09
 75.96384     -5.2 1.648e+04 5.186e-09
 75.98371    -12.7 2.279e+04 6.578e-09
 75.99748    -24.5 2.521e+04 8.478e-09
 76.00240    -27.4 2.473e+04 9.511e-09
 76.00402    -33.5 2.292e+04 1.956e-08
 76.00899    -32.3 2.361e+04 1.321e-08
 76.01840    -36.6 2.129e+04 2.600e-08
 76.02834    -37.0 2.148e+04 4.424e-08
 76.03827    -37.0 2.186e+04 6.127e-08
 76.04821    -37.0 2.220e+04 6.808e-08
 76.05557    -37.4 2.267e+04 5.991e-08
 76.06054    -37.3 2.304e+04 7.268e-08
 76.06809    -38.1 2.352e+04 4.205e-08
 76.07803    -41.0 2.273e+04 2.041e-08
 76.08796    -44.4 2.039e+04 1.135e-08
 76.10292    -47.7 1.837e+04 6.071e-09
 76.12285    -51.2 1.451e+04 2.181e-09
 76.14007    -53.3 1.219e+04 1.205e-09
 76.15001    -51.2 1.340e+04 1.903e-09
 76.16201    -52.4 1.229e+04 1.425e-09
 76.17195    -53.9 1.210e+04 1.354e-09
 76.18247    -54.0 1.213e+04 1.347e-09
 76.20235    -55.2 1.284e+04 1.579e-09
 76.22223    -56.7 1.372e+04 2.264e-09
 76.24210    -57.8 1.447e+04 3.293e-09
 76.26198    -58.4 1.515e+04 4.422e-09
 76.27829    -59.0 1.564e+04 5.200e-09
 76.28823    -60.2 1.651e+04 6.940e-09
 76.30173    -61.2 1.657e+04 7.077e-09
 76.32161    -62.3 1.620e+04 5.809e-09
 76.34148    -63.8 1.538e+04 3.827e-09
 76.36136    -65.7 1.424e+04 2.348e-09
 76.38123    -67.3 1.302e+04 1.534e-09
 76.39457    -68.4 1.209e+04 1.163e-09
 76.40451    -68.8 1.215e+04 1.101e-09
 76.42099    -70.1 1.166e+04 9.190e-10
 76.45090    -70.3 1.167e+04 9.621e-10
 76.49075    -71.3 1.163e+04 8.987e-10
 76.51105    -72.3 1.198e+04 8.644e-10
 76.53092    -76.7 1.175e+04 5.610e-10
 76.57025    -81.4 1.198e+04 6.520e-10
 76.61000    -87.7 1.204e+04 8.221e-10
 76.63972    -93.5 1.208e+04 1.042e-09
 76.65950    -96.9 1.202e+04 1.069e-09
 76.67938    -99.6 1.188e+04 1.036e-09
 76.69925   -101.7 1.180e+04 1.002e-09
 76.71371   -102.7 1.181e+04 9.987e-10
 76.72365   -102.9 1.217e+04 1.216e-09
 76.73348   -103.1 1.230e+04 1.288e-09
 76.74351   -103.7 1.164e+04 9.021e-10
 76.76901   -103.5 1.157e+04 8.590e-10
 76.80877   -103.4 1.158e+04 7.795e-10
 76.84852   -103.5 1.156e+04 6.704e-10
 76.88827   -104.3 1.150e+04 6.083e-10
 76.92802   -105.8 1.145e+04 6.467e-10
 76.95620   -108.7 1.105e+04 6.811e-10
 76.96604   -110.4 1.104e+04 7.831e-10
 76.97752   -111.4 1.104e+04 8.641e-10
 76.99556   -112.1 1.115e+04 9.292e-10
 77.00550   -111.8 1.122e+04 9.805e-10
 77.01727   -112.5 1.134e+04 1.032e-09
 77.03714   -113.2 1.141e+04 1.064e-09
 77.05702   -113.9 1.144e+04 1.072e-09
 77.07238   -114.6 1.137e+04 1.042e-09
 77.08232   -115.5 1.104e+04 9.034e-10
 77.09677   -116.1 1.087e+04 8.327e-10
 77.11665   -116.8 1.070e+04 7.691e-10
 77.13653   -117.4 1.059e+04 7.243e-10
 77.15640   -117.9 1.054e+04 6.983e-10
 77.17628   -118.4 1.052e+04 6.831e-10
 77.18866   -118.9 1.047e+04 6.708e-10
 77.19860   -119.1 1.024e+04 5.945e-10
 77.21603   -119.4 1.020e+04 5.883e-10
 77.23591   -119.7 1.019e+04 5.879e-10
 77.25578   -120.8 1.031e+04 6.011e-10
 77.27566   -125.3 1.185e+04 7.525e-10
 77.28735   -132.0 1.526e+04 1.882e-09
 77.29675   -127.4 1.426e+04 1.186e-09
 77.30494   -126.5 1.347e+04 1.034e-09
 77.31541   -132.5 1.628e+04 2.960e-09
 77.33529   -136.9 1.802e+04 6.781e-09
 77.35516   -141.3 1.935e+04 9.947e-09
 77.37504   -147.7 1.986e+04 1.035e-08
 77.39491   -156.8 1.956e+04 6.522e-09
 77.41128   -168.5 1.599e+04 2.302e-09
 77.42122   -165.5 1.590e+04 2.406e-09
 77.43467   -175.3 1.255e+04 1.315e-09
 77.45454   -179.9 1.204e+04 1.175e-09
 77.47442   -182.2 1.254e+04 1.316e-09
 77.49429   -184.3 1.315e+04 1.766e-09
 77.51417   -186.4 1.344e+04 2.141e-09
 77.52756   -188.6 1.348e+04 2.260e-09
 77.53750   -187.2 1.356e+04 2.295e-09
 77.55392   -189.3 1.342e+04 2.267e-09
 77.56919   -190.8 1.304e+04 1.960e-09
 77.57913   -190.7 1.306e+04 1.983e-09
 77.59367   -191.9 1.264e+04 1.592e-09
 77.61355   -192.9 1.219e+04 1.227e-09
 77.63343   -193.6 1.174e+04 9.294e-10
 77.64384   -194.1 1.133e+04 7.016e-10
 77.65378   -193.3 1.134e+04 7.056e-10
 77.67318   -193.5 1.100e+04 5.340e-10
 77.69306   -193.5 1.074e+04 4.152e-10
 77.72297   -193.2 1.055e+04 3.335e-10
 77.76282   -192.9 1.039e+04 2.830e-10
 77.80257   -191.6 1.013e+04 2.213e-10
 77.84130   -189.7 9.927e+03 1.761e-10
 77.86118   -189.9 9.961e+03 1.779e-10
 77.86666   -187.8 9.873e+03 1.479e-10
 77.88654   -187.3 9.912e+03 1.528e-10
 77.92183   -185.3 9.902e+03 1.350e-10
 77.96158   -183.2 9.963e+03 1.254e-10
 78.00133   -181.2 1.003e+04 1.215e-10
 78.04108   -179.1 1.005e+04 1.210e-10
 78.07935   -177.2 1.009e+04 1.213e-10
 78.09922   -176.7 1.023e+04 1.555e-10
 78.12059   -174.8 1.047e+04 1.879e-10
 78.16034   -172.8 1.080e+04 2.499e-10
 78.20009   -170.9 1.119e+04 3.449e-10
 78.22981   -169.3 1.138e+04 4.086e-10
 78.24959   -169.2 1.159e+04 4.998e-10
 78.26946   -168.6 1.192e+04 6.877e-10
 78.28934   -168.1 1.227e+04 8.974e-10
 78.30921   -167.5 1.267e+04 1.144e-09
 78.32165   -167.2 1.309e+04 1.439e-09
 78.33159   -167.2 1.347e+04 1.613e-09
 78.34897   -167.0 1.385e+04 1.978e-09
 78.36884   -167.1 1.422e+04 2.419e-09
 78.38872   -167.5 1.463e+04 2.971e-09
 78.40859   -168.0 1.510e+04 3.726e-09
 78.42468   -168.3 1.561e+04 4.689e-09
 78.43414   -167.3 1.548e+04 4.512e-09
 78.43793   -167.2 1.533e+04 4.152e-09
 78.44835   -167.4 1.570e+04 4.849e-09
 78.46822   -167.9 1.591e+04 5.248e-09
 78.48810   -168.4 1.595e+04 5.336e-09
 78.50797   -168.8 1.584e+04 5.092e-09
 78.52785   -168.9 1.540e+04 4.098e-09
 78.54427   -169.1 1.482e+04 3.045e-09
 78.55421   -169.5 1.425e+04 1.997e-09
 78.56760   -170.0 1.375e+04 1.599e-09
 78.58748   -170.4 1.335e+04 1.390e-09
 78.60735   -170.5 1.305e+04 1.305e-09
 78.62723   -170.5 1.284e+04 1.278e-09
 78.64711   -170.1 1.271e+04 1.270e-09
 78.66055   -169.6 1.262e+04 1.275e-09
 78.67049   -169.7 1.270e+04 1.342e-09
 78.68686   -169.2 1.263e+04 1.342e-09
 78.70653   -168.6 1.247e+04 1.257e-09
 78.71647   -167.7 1.254e+04 1.239e-09
 78.72661   -167.2 1.237e+04 1.146e-09
 78.74649   -166.6 1.217e+04 1.025e-09
 78.76636   -166.0 1.194e+04 9.099e-10
 78.77683   -165.3 1.171e+04 8.152e-10
 78.78677   -165.6 1.154e+04 7.527e-10
 78.80612   -164.7 1.139e+04 6.836e-10
 78.82599   -163.8 1.130e+04 6.269e-10
 78.84587   -162.9 1.122e+04 5.735e-10
 78.86574   -162.1 1.113e+04 5.186e-10
 78.88317   -161.4 1.101e+04 4.639e-10
 78.89311   -161.7 1.088e+04 4.217e-10
 78.91553   -160.7 1.087e+04 4.051e-10
 78.95538   -158.3 1.067e+04 3.376e-10
 78.98858   -156.0 1.048e+04 2.637e-10
 79.00303   -155.4 1.077e+04 3.523e-10
 79.00959   -155.2 1.049e+04 2.385e-10
 79.03489   -153.1 1.041e+04 1.937e-10
 79.07464   -151.0 1.042e+04 1.686e-10
 79.11439   -148.7 1.045e+04 1.598e-10
 79.15414   -146.4 1.046e+04 1.586e-10
 79.19389   -144.0 1.050e+04 1.606e-10
 79.22227   -141.7 1.057e+04 1.703e-10
 79.24215   -140.9 1.051e+04 1.454e-10
 79.27340   -138.5 1.058e+04 1.593e-10
 79.31315   -136.2 1.063e+04 1.744e-10
 79.35290   -133.8 1.066e+04 1.888e-10
 79.39266   -131.5 1.070e+04 2.028e-10
 79.43241   -129.2 1.075e+04 2.175e-10
 79.45483   -127.0 1.083e+04 2.348e-10
 79.47471   -126.0 1.089e+04 2.459e-10
 79.51191   -123.9 1.099e+04 2.726e-10
 79.55166   -121.9 1.113e+04 3.092e-10
 79.57215   -120.0 1.135e+04 3.718e-10
 79.59203   -119.8 1.147e+04 4.120e-10
 79.63117   -118.1 1.182e+04 5.374e-10
 79.66752   -116.8 1.219e+04 7.125e-10
 79.68730   -115.8 1.227e+04 7.116e-10
 79.70054   -115.1 1.254e+04 8.550e-10
 79.72042   -114.5 1.278e+04 9.937e-10
 79.74029   -114.0 1.301e+04 1.129e-09
 79.76017   -113.8 1.319e+04 1.228e-09
 79.78004   -113.7 1.330e+04 1.286e-09
 79.79354   -113.8 1.337e+04 1.311e-09
 79.80348   -113.3 1.369e+04 1.513e-09
 79.81980   -113.6 1.381e+04 1.643e-09
 79.83967   -114.0 1.387e+04 1.755e-09
 79.85381   -114.4 1.386e+04 1.798e-09
 79.86374   -115.2 1.387e+04 1.777e-09
 79.87942   -115.5 1.371e+04 1.776e-09
 79.89930   -115.6 1.348e+04 1.700e-09
 79.90982   -115.9 1.330e+04 1.571e-09
 79.91976   -115.3 1.353e+04 1.777e-09
 79.93905   -115.8 1.338e+04 1.569e-09
 79.95893   -116.6 1.334e+04 1.453e-09
 79.97880   -117.6 1.334e+04 1.425e-09
 79.99868   -118.8 1.338e+04 1.421e-09
 80.01616   -120.1 1.339e+04 1.430e-09
 80.02610   -120.1 1.366e+04 1.595e-09
 80.03843   -121.5 1.365e+04 1.608e-09
 80.05831   -122.8 1.348e+04 1.544e-09
 80.07818   -124.2 1.342e+04 1.368e-09
 80.09806   -125.8 1.356e+04 1.212e-09
 80.11794   -127.7 1.366e+04 1.162e-09
 80.13245   -129.7 1.385e+04 1.242e-09
 80.14023   -132.3 1.485e+04 2.278e-09
 80.14559   -130.4 1.426e+04 1.500e-09
 80.15769   -132.0 1.426e+04 1.956e-09
 80.17756   -132.7 1.431e+04 2.709e-09
 80.19744   -132.9 1.451e+04 3.559e-09
 80.21732   -132.9 1.478e+04 4.195e-09
 80.23719   -133.0 1.492e+04 4.417e-09
 80.24873   -133.3 1.534e+04 4.071e-09
 80.25866   -134.8 1.539e+04 3.896e-09
 80.27695   -135.5 1.518e+04 3.274e-09
 80.29682   -136.2 1.480e+04 2.651e-09
 80.31670   -136.8 1.428e+04 2.135e-09
 80.33657   -137.2 1.373e+04 1.740e-09
 80.35507   -137.5 1.329e+04 1.465e-09
 80.36501   -139.1 1.305e+04 1.282e-09
 80.37633   -139.3 1.305e+04 1.260e-09
 80.39620   -139.7 1.308e+04 1.258e-09
 80.41608   -140.1 1.318e+04 1.315e-09
 80.42744   -140.5 1.319e+04 1.445e-09
 80.43738   -139.6 1.323e+04 1.436e-09
 80.45583   -140.0 1.323e+04 1.660e-09
 80.47135   -140.1 1.316e+04 1.830e-09
 80.48129   -140.8 1.306e+04 1.926e-09
 80.49558   -140.7 1.298e+04 1.933e-09
 80.51546   -140.6 1.274e+04 1.730e-09
 80.53533   -140.6 1.245e+04 1.394e-09
 80.55521   -140.6 1.211e+04 1.037e-09
 80.57509   -140.8 1.176e+04 7.399e-10
 80.58763   -141.1 1.143e+04 5.281e-10
 80.59757   -141.9 1.125e+04 4.896e-10
 80.61484   -142.1 1.103e+04 3.953e-10
 80.63471   -142.1 1.100e+04 3.492e-10
 80.65459   -141.9 1.104e+04 3.314e-10
 80.67447   -141.7 1.108e+04 3.266e-10
 80.69397   -141.4 1.110e+04 3.231e-10
 80.70391   -141.9 1.110e+04 3.391e-10
 80.70929   -141.7 1.122e+04 3.368e-10
 80.71933   -141.7 1.098e+04 2.843e-10
 80.74423   -141.2 1.110e+04 2.863e-10
 80.78398   -140.6 1.139e+04 3.422e-10
 80.81035   -140.6 1.164e+04 4.954e-10
 80.82019   -141.2 1.163e+04 5.499e-10
 80.83348   -140.8 1.166e+04 6.232e-10
 80.85335   -140.5 1.172e+04 6.728e-10
 80.87323   -140.2 1.174e+04 7.084e-10
 80.89310   -140.1 1.178e+04 7.290e-10
 80.91298   -140.1 1.183e+04 7.396e-10
 80.92653   -140.2 1.191e+04 7.499e-10
 80.93647   -141.3 1.200e+04 7.566e-10
 80.95273   -141.7 1.207e+04 8.148e-10
 80.97261   -142.0 1.211e+04 8.895e-10
 80.99114   -142.3 1.211e+04 9.522e-10
 81.00108   -142.2 1.199e+04 8.991e-10
 81.01236   -142.4 1.197e+04 9.190e-10
 81.03224   -142.6 1.190e+04 9.198e-10
 81.04281   -142.8 1.169e+04 8.601e-10
 81.05275   -143.6 1.139e+04 7.176e-10
 81.07199   -143.8 1.119e+04 5.940e-10
 81.09186   -144.2 1.103e+04 4.976e-10
 81.11174   -144.6 1.092e+04 4.450e-10
 81.13162   -144.9 1.090e+04 4.211e-10
 81.14915   -145.3 1.090e+04 4.175e-10
 81.15909   -145.7 1.078e+04 3.485e-10
 81.17137   -146.3 1.084e+04 3.547e-10
 81.19124   -147.0 1.115e+04 4.409e-10
 81.21112   -147.8 1.152e+04 5.970e-10
 81.23100   -148.5 1.189e+04 8.003e-10
 81.25087   -149.3 1.225e+04 1.047e-09
 81.26544   -150.1 1.251e+04 1.234e-09
 81.27547   -149.5 1.228e+04 1.076e-09
 81.28303   -150.8 1.251e+04 1.263e-09
 81.30291   -151.4 1.227e+04 1.099e-09
 81.34051   -153.3 1.233e+04 1.147e-09
 81.37023   -155.0 1.224e+04 1.148e-09
 81.38172   -155.8 1.199e+04 9.825e-10
 81.39165   -155.4 1.200e+04 9.912e-10
 81.40988   -156.2 1.179e+04 8.495e-10
 81.42976   -156.9 1.158e+04 7.336e-10
 81.44963   -157.4 1.137e+04 6.432e-10
 81.46951   -157.8 1.117e+04 5.699e-10
 81.48806   -157.9 1.100e+04 5.081e-10
 81.49800   -157.5 1.089e+04 4.540e-10
 81.50926   -157.6 1.071e+04 4.014e-10
 81.53917   -157.6 1.056e+04 3.642e-10
 81.57902   -157.1 1.040e+04 3.385e-10
 81.61878   -156.2 1.021e+04 3.056e-10
 81.65853   -155.1 1.001e+04 2.725e-10
 81.69828   -153.9 9.821e+03 2.456e-10
 81.72081   -152.7 9.641e+03 2.326e-10
 81.74069   -151.9 9.991e+03 2.997e-10
 81.77778   -150.8 9.861e+03 2.924e-10
 81.81754   -149.6 9.754e+03 2.894e-10
 81.84683   -148.2 9.642e+03 2.879e-10
 81.86670   -148.5 9.463e+03 2.368e-10
 81.89704   -147.1 9.338e+03 2.390e-10
 81.93350   -145.7 9.236e+03 2.278e-10
 81.95338   -145.3 9.193e+03 2.279e-10
 81.97654   -143.9 9.033e+03 2.012e-10
 82.01630   -142.6 8.909e+03 1.763e-10
 82.05605   -141.3 8.819e+03 1.571e-10
 82.09580   -140.2 8.756e+03 1.457e-10
 82.13555   -139.3 8.741e+03 1.417e-10
 82.16606   -138.6 8.743e+03 1.408e-10
 82.18594   -137.8 8.670e+03 1.409e-10
 82.21506   -137.5 8.696e+03 1.408e-10
 82.25481   -137.5 8.744e+03 1.430e-10
 82.29456   -138.2 8.779e+03 1.910e-10
 82.33431   -141.3 9.798e+03 3.539e-10
 82.37407   -146.6 1.161e+04 7.513e-10
 82.39852   -151.3 1.278e+04 1.295e-09
 82.40836   -150.5 1.257e+04 1.233e-09
 82.42027   -154.0 1.375e+04 1.870e-09
 82.43021   -154.0 1.323e+04 1.679e-09
 82.44344   -157.2 1.407e+04 2.321e-09
 82.46331   -160.8 1.474e+04 2.956e-09
 82.48319   -164.6 1.512e+04 3.388e-09
 82.50307   -168.8 1.530e+04 3.561e-09
 82.51471   -173.6 1.545e+04 3.696e-09
 82.52464   -173.2 1.553e+04 3.475e-09
 82.54282   -178.3 1.581e+04 4.131e-09
 82.56269   -182.7 1.600e+04 5.230e-09
 82.58257   -186.2 1.606e+04 6.296e-09
 82.60245   -189.1 1.602e+04 6.605e-09
 82.62105   -191.4 1.567e+04 6.480e-09
 82.63099   -191.3 1.556e+04 6.264e-09
 82.64220   -192.7 1.456e+04 4.452e-09
 82.66207   -193.9 1.329e+04 2.457e-09
 82.68195   -195.3 1.177e+04 1.203e-09
 82.70183   -196.9 1.030e+04 6.157e-10
 82.71206   -197.9 9.417e+03 3.854e-10
 82.72199   -197.8 9.288e+03 3.231e-10
 82.73733   -198.1 9.085e+03 2.874e-10
 82.74727   -198.5 9.070e+03 2.859e-10
 82.77149   -197.8 9.062e+03 2.872e-10
 82.81134   -196.9 9.011e+03 2.779e-10
 82.84387   -195.1 8.909e+03 2.635e-10
 82.86374   -195.2 9.125e+03 3.113e-10
 82.89084   -193.4 9.151e+03 3.138e-10
 82.93060   -191.7 9.282e+03 3.243e-10
 82.96005   -190.2 9.292e+03 3.217e-10
 82.96989   -190.7 9.507e+03 3.733e-10
 82.98009   -190.4 9.813e+03 4.575e-10
 82.99391   -190.2 1.012e+04 5.735e-10
 83.00384   -189.4 1.007e+04 5.335e-10
 83.01984   -189.0 1.045e+04 6.997e-10
 83.03972   -188.6 1.080e+04 9.053e-10
 83.05960   -188.1 1.109e+04 1.107e-09
 83.07623   -187.7 1.126e+04 1.225e-09
 83.08617   -188.1 1.122e+04 1.223e-09
 83.09935   -188.0 1.116e+04 1.215e-09
 83.11922   -188.0 1.110e+04 1.134e-09
 83.13910   -188.6 1.119e+04 1.106e-09
 83.15898   -192.0 1.206e+04 1.121e-09
 83.17885   -197.6 1.392e+04 1.495e-09
 83.19251   -202.9 1.552e+04 2.688e-09
 83.20245   -204.4 1.772e+04 3.499e-09
 83.21860   -207.6 1.816e+04 6.013e-09
 83.23848   -210.1 1.797e+04 7.687e-09
 83.25836   -212.4 1.767e+04 7.984e-09
 83.27576   -214.3 1.646e+04 6.513e-09
 83.28569   -215.2 1.657e+04 5.751e-09
 83.29811   -217.3 1.482e+04 3.000e-09
 83.30879   -219.8 1.295e+04 1.489e-09
 83.31873   -219.8 1.346e+04 1.725e-09
 83.33786   -222.1 1.122e+04 8.673e-10
 83.35774   -223.2 1.025e+04 6.123e-10
 83.37761   -223.4 9.979e+03 5.604e-10
 83.39749   -223.4 9.920e+03 5.501e-10
 83.41514   -223.3 9.910e+03 5.490e-10
 83.42507   -223.2 9.923e+03 5.706e-10
 83.43724   -223.2 9.936e+03 5.736e-10
 83.45712   -223.3 1.015e+04 6.288e-10
 83.47699   -223.7 1.050e+04 7.475e-10
 83.49687   -224.3 1.084e+04 8.994e-10
 83.51675   -224.8 1.112e+04 1.048e-09
 83.53142   -225.5 1.130e+04 1.150e-09
 83.54135   -225.3 1.128e+04 1.146e-09
 83.55650   -226.1 1.142e+04 1.200e-09
 83.56754   -227.0 1.146e+04 1.209e-09
 83.57748   -226.4 1.141e+04 1.200e-09
 83.59625   -227.3 1.149e+04 1.208e-09
 83.61613   -228.4 1.154e+04 1.206e-09
 83.63600   -229.5 1.161e+04 1.197e-09
 83.64770   -230.7 1.166e+04 1.191e-09
 83.65763   -230.7 1.185e+04 1.326e-09
 83.67575   -231.8 1.185e+04 1.305e-09
 83.69563   -232.8 1.170e+04 1.244e-09
 83.71551   -233.6 1.144e+04 1.136e-09
 83.73538   -234.3 1.110e+04 9.893e-10
 83.75404   -235.0 1.072e+04 8.365e-10
 83.76398   -234.8 1.059e+04 7.583e-10
 83.77513   -235.5 1.022e+04 6.105e-10
 83.79501   -236.2 9.904e+03 4.990e-10
 83.81489   -236.7 9.637e+03 4.240e-10
 83.84480   -237.0 9.427e+03 3.793e-10
 83.88465   -237.2 9.253e+03 3.483e-10
 83.92440   -237.1 9.069e+03 3.118e-10
 83.96415   -237.2 8.964e+03 2.883e-10
 83.98679   -237.3 8.938e+03 2.814e-10
 84.00667   -237.9 9.304e+03 3.594e-10
 84.04366   -238.0 9.516e+03 4.053e-10
 84.08341   -238.0 9.747e+03 4.664e-10
 84.12150   -237.8 9.914e+03 5.170e-10
 84.14138   -237.2 1.023e+04 6.923e-10
 84.15288   -237.3 1.032e+04 7.485e-10
 84.17266   -237.3 1.034e+04 7.613e-10
 84.19253   -237.3 1.034e+04 7.625e-10
 84.20922   -237.4 1.028e+04 7.168e-10
 84.21916   -237.8 1.026e+04 6.994e-10
 84.23228   -238.0 1.011e+04 5.889e-10
 84.25216   -238.4 9.906e+03 4.887e-10
 84.28207   -238.8 9.622e+03 4.091e-10
 84.32192   -239.0 9.379e+03 3.438e-10
 84.36167   -238.6 9.045e+03 2.709e-10
 84.40143   -238.1 8.791e+03 2.235e-10
 84.43204   -237.3 8.666e+03 1.973e-10
 84.45192   -237.4 8.699e+03 2.026e-10
 84.48093   -236.4 8.692e+03 1.960e-10
 84.52068   -235.3 8.689e+03 1.944e-10
 84.56043   -234.0 8.706e+03 1.942e-10
 84.60019   -232.7 8.726e+03 1.954e-10
 84.63994   -231.4 8.864e+03 1.991e-10
 84.66460   -230.3 9.184e+03 2.320e-10
 84.68448   -230.3 9.557e+03 3.157e-10
 84.70508   -229.1 9.894e+03 4.070e-10
 84.72495   -229.3 9.895e+03 4.041e-10
 84.75920   -228.5 1.019e+04 4.897e-10
 84.79895   -228.0 1.043e+04 5.532e-10
 84.82866   -227.9 1.067e+04 6.617e-10
 84.84844   -228.2 1.070e+04 6.724e-10
 84.86832   -228.5 1.070e+04 6.748e-10
 84.88703   -228.8 1.068e+04 6.704e-10
 84.89697   -229.2 1.069e+04 6.913e-10
 84.90807   -229.3 1.061e+04 6.531e-10
 84.92795   -229.4 1.051e+04 6.054e-10
 84.94782   -229.4 1.038e+04 5.445e-10
 84.96770   -229.2 1.025e+04 4.767e-10
 84.99761   -228.9 1.007e+04 4.004e-10
 85.03746   -228.7 9.965e+03 3.509e-10
 85.07721   -227.9 9.774e+03 2.851e-10
 85.10985   -226.5 9.592e+03 2.250e-10
 85.12972   -226.7 9.615e+03 2.374e-10
 85.15672   -225.0 9.491e+03 1.975e-10
 85.19647   -223.1 9.420e+03 1.705e-10
 85.23622   -221.2 9.403e+03 1.529e-10
 85.26877   -219.1 9.425e+03 1.420e-10
 85.28865   -218.8 9.453e+03 1.471e-10
 85.31573   -216.7 9.513e+03 1.432e-10
 85.34241   -214.5 9.550e+03 1.419e-10
 85.36228   -214.4 9.671e+03 2.089e-10
 85.39523   -212.1 9.699e+03 2.010e-10
 85.43498   -209.9 9.729e+03 1.900e-10
 85.47473   -207.6 9.754e+03 1.774e-10
 85.51449   -205.3 9.780e+03 1.642e-10
 85.55424   -203.0 9.818e+03 1.512e-10
 85.57497   -200.6 9.870e+03 1.398e-10
 85.59484   -200.4 9.872e+03 1.383e-10
 85.63374   -198.0 9.924e+03 1.272e-10
 85.67349   -195.5 9.981e+03 1.207e-10
 85.71325   -193.0 1.001e+04 1.195e-10
 85.75300   -190.7 1.002e+04 1.200e-10
 85.78765   -189.0 1.009e+04 1.211e-10
 85.80753   -188.7 1.004e+04 1.174e-10
 85.83247   -187.8 1.090e+04 1.453e-10
 85.87223   -188.9 1.221e+04 4.820e-10
 85.91201   -189.2 1.294e+04 9.522e-10
 85.94172   -189.3 1.328e+04 1.308e-09
 85.96150   -189.6 1.358e+04 1.669e-09
 85.98138   -189.7 1.381e+04 2.058e-09
 86.00125   -190.1 1.408e+04 2.431e-09
 86.02002   -190.6 1.427e+04 2.667e-09
 86.02996   -190.9 1.432e+04 2.769e-09
 86.04101   -191.7 1.440e+04 2.862e-09
 86.06088   -192.4 1.440e+04 2.878e-09
 86.08076   -193.1 1.428e+04 2.764e-09
 86.10064   -193.5 1.405e+04 2.453e-09
 86.12051   -193.9 1.379e+04 2.135e-09
 86.13400   -194.1 1.354e+04 1.874e-09
 86.13985   -194.7 1.375e+04 2.275e-09
 86.14624   -194.8 1.377e+04 2.381e-09
 86.16026   -194.9 1.350e+04 2.128e-09
 86.18014   -194.9 1.322e+04 1.901e-09
 86.20002   -194.5 1.295e+04 1.704e-09
 86.21989   -194.0 1.273e+04 1.536e-09
 86.23977   -193.6 1.253e+04 1.385e-09
 86.25258   -193.1 1.232e+04 1.237e-09
 86.26252   -193.1 1.233e+04 1.348e-09
 86.27952   -192.6 1.210e+04 1.169e-09
 86.29940   -192.0 1.183e+04 9.891e-10
 86.31927   -191.4 1.154e+04 8.178e-10
 86.33915   -190.5 1.126e+04 6.646e-10
 86.35892   -189.5 1.105e+04 5.409e-10
 86.36886   -189.3 1.103e+04 5.390e-10
 86.38894   -188.2 1.098e+04 4.354e-10
 86.41605   -187.3 1.092e+04 4.028e-10
 86.43593   -187.4 1.082e+04 4.178e-10
 86.46546   -185.6 1.074e+04 3.906e-10
 86.48534   -185.3 1.061e+04 3.835e-10
 86.50829   -183.2 1.058e+04 3.765e-10
 86.54804   -181.2 1.059e+04 3.746e-10
 86.58779   -179.2 1.062e+04 3.883e-10
 86.62755   -177.4 1.078e+04 4.229e-10
 86.66730   -176.1 1.113e+04 5.160e-10
 86.69802   -175.3 1.166e+04 7.745e-10
 86.71790   -174.5 1.124e+04 5.909e-10
 86.74680   -173.9 1.178e+04 8.663e-10
 86.77652   -173.5 1.232e+04 1.289e-09
 86.79630   -173.3 1.277e+04 1.797e-09
 86.81411   -173.0 1.327e+04 2.524e-09
 86.82404   -172.7 1.281e+04 1.820e-09
 86.83605   -172.4 1.319e+04 2.375e-09
 86.85593   -172.1 1.350e+04 2.843e-09
 86.87580   -171.9 1.363e+04 2.969e-09
 86.89568   -171.8 1.370e+04 2.782e-09
 86.91555   -171.9 1.348e+04 2.274e-09
 86.93039   -172.1 1.311e+04 1.721e-09
 86.95036   -171.5 1.272e+04 1.509e-09
 86.97975   -171.3 1.206e+04 1.006e-09
 86.99953   -170.2 1.252e+04 1.152e-09
 87.02497   -170.0 1.222e+04 9.243e-10
 87.06482   -169.5 1.117e+04 5.523e-10
 87.10457   -168.2 1.075e+04 4.098e-10
 87.14327   -166.7 1.051e+04 3.449e-10
 87.16314   -165.6 1.042e+04 3.453e-10
 87.18408   -163.6 1.019e+04 3.053e-10
 87.22383   -161.6 1.017e+04 2.859e-10
 87.26358   -159.8 1.023e+04 2.762e-10
 87.30333   -158.2 1.028e+04 2.733e-10
 87.34309   -156.9 1.035e+04 2.724e-10
 87.37583   -156.1 1.041e+04 2.716e-10
 87.39570   -154.9 1.048e+04 3.078e-10
 87.42259   -154.4 1.053e+04 3.056e-10
 87.46234   -154.1 1.064e+04 3.209e-10
 87.50209   -153.7 1.078e+04 3.658e-10
 87.54185   -153.3 1.099e+04 4.488e-10
 87.56332   -152.6 1.119e+04 5.383e-10
 87.58320   -152.4 1.108e+04 5.003e-10
 87.60839   -151.7 1.116e+04 5.217e-10
 87.62826   -150.4 1.088e+04 4.405e-10
 87.66110   -149.5 1.096e+04 4.334e-10
 87.70085   -148.4 1.094e+04 4.054e-10
 87.74061   -147.1 1.085e+04 3.635e-10
 87.78036   -145.8 1.076e+04 3.253e-10
 87.82011   -144.4 1.073e+04 3.021e-10
 87.84095   -143.1 1.071e+04 2.984e-10
 87.86082   -142.1 1.074e+04 3.253e-10
 87.89962   -141.1 1.077e+04 3.360e-10
 87.93937   -140.1 1.087e+04 3.738e-10
 87.97912   -139.2 1.103e+04 4.394e-10
 88.01887   -138.4 1.123e+04 5.179e-10
 88.05363   -137.7 1.145e+04 5.924e-10
 88.07351   -137.0 1.145e+04 6.277e-10
 88.09838   -136.5 1.161e+04 6.674e-10
 88.12702   -136.1 1.172e+04 6.851e-10
 88.14690   -135.5 1.151e+04 5.949e-10
 88.17788   -135.0 1.156e+04 5.744e-10
 88.21763   -134.2 1.160e+04 5.373e-10
 88.25738   -133.2 1.162e+04 5.259e-10
 88.28619   -132.1 1.168e+04 5.288e-10
 88.30607   -131.3 1.182e+04 5.512e-10
 88.33689   -130.3 1.207e+04 5.944e-10
 88.37664   -129.2 1.226e+04 7.140e-10
 88.41639   -127.9 1.253e+04 9.281e-10
 88.45615   -126.4 1.279e+04 1.254e-09
 88.49590   -124.7 1.304e+04 1.626e-09
 88.51875   -123.2 1.325e+04 1.967e-09
 88.53863   -123.0 1.320e+04 1.851e-09
 88.57540   -121.8 1.342e+04 2.196e-09
 88.61515   -120.5 1.360e+04 2.470e-09
 88.64487   -119.8 1.382e+04 2.735e-09
 88.66465   -119.5 1.386e+04 2.841e-09
 88.68453   -119.1 1.390e+04 2.911e-09
 88.70047   -118.7 1.392e+04 2.941e-09
 88.71040   -118.2 1.409e+04 3.650e-09
 88.72428   -117.8 1.399e+04 3.598e-09
 88.74118   -117.3 1.389e+04 3.333e-09
 88.75112   -117.3 1.353e+04 2.578e-09
 88.77407   -116.5 1.320e+04 1.989e-09
 88.81391   -115.2 1.265e+04 1.410e-09
 88.85367   -113.4 1.217e+04 9.973e-10
 88.89342   -111.0 1.172e+04 6.733e-10
 88.93317   -108.5 1.143e+04 4.690e-10
 88.96400   -106.1 1.136e+04 3.601e-10
 88.98388   -105.7 1.129e+04 2.174e-10
 89.01268   -103.3 1.132e+04 2.090e-10
 89.05243   -100.9 1.137e+04 2.103e-10
 89.09218    -99.0 1.170e+04 2.530e-10
 89.13193    -97.2 1.194e+04 3.971e-10
 89.17168    -95.1 1.207e+04 6.380e-10
 89.19656    -93.0 1.212e+04 8.993e-10
 89.21644    -92.6 1.186e+04 7.060e-10
 89.25119    -90.4 1.180e+04 7.792e-10
 89.27430    -88.1 1.166e+04 7.863e-10
 89.29418    -87.1 1.177e+04 6.630e-10
 89.33069    -84.8 1.172e+04 6.816e-10
 89.37044    -82.3 1.143e+04 6.476e-10
 89.40925    -79.6 1.122e+04 5.236e-10
 89.42912    -78.8 1.109e+04 2.863e-10
 89.44995    -76.3 1.104e+04 2.050e-10
 89.48970    -73.8 1.101e+04 1.505e-10
 89.52945    -71.2 1.097e+04 1.244e-10
 89.56921    -68.5 1.097e+04 1.160e-10
 89.60896    -65.8 1.100e+04 1.155e-10
 89.64181    -63.5 1.110e+04 1.203e-10
 89.66168    -62.9 1.098e+04 1.156e-10
 89.68846    -61.3 1.137e+04 1.841e-10
 89.72821    -59.5 1.186e+04 4.180e-10
 89.76797    -57.4 1.258e+04 9.806e-10
 89.80772    -55.4 1.340e+04 2.009e-09
 89.83744    -54.1 1.403e+04 3.178e-09
 89.84774    -53.3 1.449e+04 4.089e-09
 89.85768    -53.4 1.515e+04 4.962e-09
 89.87417    -52.9 1.588e+04 6.459e-09
 89.88411    -52.8 1.533e+04 5.772e-09
 89.89697    -52.4 1.589e+04 7.471e-09
 89.91684    -52.1 1.634e+04 9.749e-09
 89.93672    -52.0 1.681e+04 1.314e-08
 89.95659    -52.1 1.736e+04 1.821e-08
 89.97647    -52.1 1.793e+04 2.483e-08
 89.99045    -52.1 1.841e+04 3.108e-08
 90.00039    -52.5 1.774e+04 2.419e-08
 90.01622    -52.5 1.798e+04 2.609e-08
 90.03610    -52.6 1.799e+04 2.632e-08
 90.05597    -52.2 1.765e+04 2.177e-08
 90.07585    -51.6 1.703e+04 1.308e-08
 90.09573    -51.4 1.618e+04 6.535e-09
 90.10673    -52.4 1.521e+04 3.339e-09
 90.11667    -52.7 1.454e+04 2.429e-09
 90.12959    -53.3 1.352e+04 1.650e-09
 90.13953    -51.3 1.423e+04 2.561e-09
 90.16539    -52.5 1.294e+04 1.463e-09
 90.20524    -51.3 1.213e+04 1.042e-09
 90.24499    -49.3 1.179e+04 8.096e-10
 90.28474    -47.4 1.173e+04 7.396e-10
 90.31961    -46.3 1.180e+04 7.539e-10
 90.33949    -46.5 1.183e+04 7.780e-10
 90.36425    -46.4 1.241e+04 1.246e-09
 90.40170    -46.2 1.317e+04 2.136e-09
 90.42148    -46.2 1.369e+04 2.928e-09
 90.43362    -47.1 1.429e+04 4.087e-09
 90.44564    -47.9 1.483e+04 5.289e-09
 90.45557    -47.5 1.420e+04 3.922e-09
 90.47337    -48.1 1.434e+04 4.149e-09
 90.49325    -48.8 1.433e+04 3.909e-09
 90.51312    -49.5 1.422e+04 3.523e-09
 90.53300    -50.3 1.391e+04 2.898e-09
 90.55198    -50.7 1.372e+04 2.623e-09
 90.57195    -51.0 1.282e+04 1.388e-09
 90.60276    -51.2 1.255e+04 1.278e-09
 90.64251    -50.9 1.228e+04 1.095e-09
 90.68227    -50.3 1.204e+04 8.751e-10
 90.72202    -49.9 1.185e+04 7.165e-10
 90.76177    -49.4 1.170e+04 6.378e-10
 90.78473    -48.8 1.161e+04 6.070e-10
 90.80461    -48.1 1.141e+04 4.698e-10
 90.84127    -47.3 1.133e+04 4.312e-10
 90.88103    -46.5 1.133e+04 4.220e-10
 90.92078    -46.1 1.139e+04 4.319e-10
 90.96053    -46.0 1.158e+04 5.540e-10
 90.98527    -46.0 1.188e+04 8.344e-10
 91.00229    -44.7 1.174e+04 7.441e-10
 91.01730    -44.0 1.163e+04 6.216e-10
 91.04004    -44.0 1.217e+04 1.143e-09
 91.06975    -44.2 1.256e+04 1.608e-09
 91.08953    -44.4 1.264e+04 1.706e-09
 91.10941    -44.9 1.269e+04 1.846e-09
 91.12344    -45.1 1.263e+04 1.840e-09
 91.13338    -44.7 1.273e+04 1.959e-09
 91.14916    -45.0 1.246e+04 1.791e-09
 91.16903    -45.4 1.217e+04 1.535e-09
 91.18891    -45.8 1.188e+04 1.282e-09
 91.20879    -46.0 1.158e+04 1.049e-09
 91.22866    -46.0 1.133e+04 8.617e-10
 91.23972    -46.0 1.115e+04 7.189e-10
 91.24976    -45.6 1.136e+04 8.419e-10
 91.27855    -45.3 1.099e+04 5.705e-10
 91.31830    -45.2 1.058e+04 3.714e-10
 91.35805    -44.9 1.027e+04 2.861e-10
 91.39780    -44.1 1.014e+04 2.662e-10
 91.43756    -43.1 1.011e+04 2.648e-10
 91.46254    -42.0 1.006e+04 2.752e-10
 91.48242    -41.4 1.012e+04 3.012e-10
 91.51706    -40.2 1.009e+04 3.049e-10
 91.54897    -38.7 9.898e+03 2.859e-10
 91.56885    -39.6 1.007e+04 3.403e-10
 91.59657    -38.2 9.905e+03 2.757e-10
 91.63632    -36.7 9.807e+03 2.302e-10
 91.67523    -35.1 9.727e+03 2.112e-10
 91.69510    -34.7 9.781e+03 2.385e-10
 91.71582    -32.8 9.709e+03 2.275e-10
 91.75557    -30.8 9.676e+03 2.214e-10
 91.79533    -28.7 9.677e+03 2.188e-10
 91.83508    -26.7 9.697e+03 2.193e-10
 91.87483    -24.9 9.844e+03 2.265e-10
 91.90779    -23.3 1.002e+04 2.718e-10
 91.92766    -22.7 1.003e+04 2.691e-10
 91.95433    -21.1 1.018e+04 3.481e-10
 91.99409    -19.4 1.033e+04 4.426e-10
 92.03384    -17.6 1.044e+04 4.889e-10
 92.07359    -16.0 1.048e+04 4.846e-10
 92.11267    -14.3 1.042e+04 3.754e-10
 92.13255    -15.1 1.010e+04 2.267e-10
 92.14035    -13.6 9.973e+03 1.683e-10
 92.16022    -13.0 9.819e+03 1.486e-10
 92.19285    -11.4 9.669e+03 1.266e-10
 92.23260     -9.7 9.623e+03 1.117e-10
 92.27235     -7.8 9.647e+03 1.038e-10
 92.31210     -6.1 9.664e+03 1.027e-10
 92.35186     -4.9 9.951e+03 1.075e-10
 92.37291     -4.4 1.028e+04 1.697e-10
 92.39278     -3.2 1.034e+04 1.472e-10
 92.43136     -2.5 1.049e+04 3.178e-10
 92.47111     -1.3 1.095e+04 6.461e-10
 92.51086     -0.1 1.147e+04 1.071e-09
 92.55062      0.8 1.186e+04 1.379e-09
 92.58559      1.7 1.198e+04 1.462e-09
 92.60547      2.3 1.248e+04 2.035e-09
 92.63012      3.2 1.240e+04 1.877e-09
 92.66987      4.5 1.217e+04 1.351e-09
 92.69625      5.4 1.211e+04 9.997e-10
 92.71612      4.2 1.213e+04 8.566e-10
 92.74938      4.8 1.222e+04 8.074e-10
 92.78913      4.8 1.291e+04 1.064e-09
 92.81815      4.6 1.344e+04 1.845e-09
 92.83803      5.4 1.286e+04 1.185e-09
 92.86863      5.2 1.332e+04 1.837e-09
 92.90839      4.7 1.366e+04 2.465e-09
 92.94814      4.4 1.370e+04 2.730e-09
 92.97785      4.4 1.349e+04 2.616e-09
 92.98784      4.6 1.347e+04 2.597e-09
 92.99778      4.7 1.340e+04 2.489e-09
 93.01751      4.7 1.305e+04 2.167e-09
 93.03739      5.1 1.296e+04 2.047e-09
 93.05052      5.2 1.259e+04 1.717e-09
 93.06046      5.6 1.260e+04 1.714e-09
 93.07714      6.5 1.239e+04 1.523e-09
 93.09701      7.3 1.207e+04 1.222e-09
 93.11689      8.4 1.191e+04 9.927e-10
 93.13677      9.3 1.163e+04 7.546e-10
 93.15664     10.5 1.162e+04 6.185e-10
 93.18655     10.9 1.140e+04 4.569e-10
 93.22640     13.0 1.105e+04 3.127e-10
 93.25995     15.2 1.096e+04 2.737e-10
 93.27707     15.2 1.104e+04 2.678e-10
 93.28328     15.6 1.103e+04 2.688e-10
 93.30591     17.9 1.100e+04 2.600e-10
 93.34566     20.2 1.098e+04 2.679e-10
 93.38541     22.5 1.100e+04 2.787e-10
 93.42516     25.0 1.101e+04 2.843e-10
 93.46492     27.5 1.099e+04 2.751e-10
 93.49596     29.9 1.097e+04 2.626e-10
 93.51584     30.4 1.096e+04 2.461e-10
 93.54442     32.4 1.102e+04 2.259e-10
 93.58417     34.4 1.116e+04 2.244e-10
 93.62393     35.7 1.120e+04 2.834e-10
 93.66368     38.2 1.105e+04 3.887e-10
 93.70343     40.7 1.118e+04 3.945e-10
 93.72852     43.1 1.120e+04 3.550e-10
 93.74840     43.6 1.118e+04 3.375e-10
 93.78293     45.1 1.137e+04 2.813e-10
 93.82269     46.4 1.144e+04 2.804e-10
 93.84352     47.2 1.154e+04 3.462e-10
 93.86340     47.2 1.140e+04 3.292e-10
 93.90219     48.2 1.154e+04 4.678e-10
 93.94121     49.0 1.183e+04 6.564e-10
 93.96108     49.6 1.168e+04 5.981e-10
 93.98169     50.3 1.187e+04 7.374e-10
 94.02145     50.5 1.199e+04 8.216e-10
 94.06120     50.5 1.199e+04 8.324e-10
 94.10095     50.7 1.187e+04 7.948e-10
 94.14070     51.8 1.138e+04 6.681e-10
 94.17377     53.0 1.110e+04 5.079e-10
 94.19364     53.7 1.110e+04 5.160e-10
 94.22021     55.2 1.086e+04 3.651e-10
 94.25996     56.6 1.073e+04 2.596e-10
 94.29971     58.0 1.060e+04 2.126e-10
 94.33946     59.7 1.060e+04 2.127e-10
 94.37922     61.3 1.064e+04 2.319e-10
 94.40633     62.6 1.123e+04 2.882e-10
 94.41446     64.0 1.081e+04 2.789e-10
 94.42710     63.4 1.078e+04 2.159e-10
 94.45872     63.8 1.129e+04 3.259e-10
 94.49847     64.6 1.125e+04 5.425e-10
 94.53822     66.7 1.131e+04 8.253e-10
 94.57798     68.7 1.126e+04 8.421e-10
 94.61773     70.4 1.112e+04 7.054e-10
 94.63889     71.9 1.083e+04 4.695e-10
 94.65876     73.2 1.115e+04 7.467e-10
 94.69723     74.4 1.092e+04 5.153e-10
 94.73699     75.7 1.090e+04 4.450e-10
 94.77674     77.3 1.079e+04 4.118e-10
 94.81649     79.3 1.064e+04 3.874e-10
 94.85157     81.3 1.061e+04 3.880e-10
 94.87145     81.7 1.081e+04 4.539e-10
 94.89599     83.5 1.080e+04 4.437e-10
 94.93575     85.4 1.081e+04 4.369e-10
 94.97092     87.1 1.081e+04 4.343e-10
 94.99080     86.6 1.073e+04 3.090e-10
 95.01525     88.3 1.069e+04 3.297e-10
 95.05500     90.1 1.067e+04 3.519e-10
 95.08413     91.8 1.071e+04 3.811e-10
 95.10401     92.3 1.072e+04 3.704e-10
 95.13451     94.0 1.081e+04 4.052e-10
 95.17426     95.6 1.092e+04 4.419e-10
 95.21401     97.0 1.098e+04 4.462e-10
 95.25376     98.3 1.094e+04 4.333e-10
 95.29352     99.5 1.088e+04 3.939e-10
 95.31670    100.6 1.090e+04 3.654e-10
 95.33657    101.3 1.080e+04 3.412e-10
 95.37302    102.3 1.089e+04 3.580e-10
 95.41277    102.8 1.110e+04 4.177e-10
 95.43288    102.7 1.116e+04 4.999e-10
 95.44272    103.0 1.121e+04 5.000e-10
 95.46227    103.5 1.121e+04 6.152e-10
 95.48214    104.4 1.108e+04 7.009e-10
 95.50202    105.3 1.107e+04 6.958e-10
 95.52189    106.2 1.101e+04 6.281e-10
 95.53912    106.5 1.096e+04 5.664e-10
 95.54906    107.2 1.098e+04 6.476e-10
 95.55430    107.8 1.097e+04 5.316e-10
 95.57428    107.2 1.091e+04 4.935e-10
 95.61153    107.9 1.083e+04 4.175e-10
 95.65128    109.0 1.067e+04 3.775e-10
 95.69104    110.5 1.043e+04 3.350e-10
 95.73079    112.2 1.019e+04 2.780e-10
 95.76194    113.9 9.958e+03 2.146e-10
 95.78182    114.0 1.010e+04 2.496e-10
 95.81029    115.7 9.816e+03 1.762e-10
 95.85005    117.5 9.632e+03 1.281e-10
 95.88980    119.3 9.546e+03 9.913e-11
 95.92955    121.2 9.496e+03 8.346e-11
 95.96930    123.3 9.389e+03 7.909e-11
 95.99450    125.5 9.373e+03 7.914e-11
 96.01438    125.6 9.357e+03 8.183e-11
 96.04881    128.0 9.361e+03 8.259e-11
 96.08856    130.3 9.379e+03 8.627e-11
 96.11820    132.6 9.410e+03 9.460e-11
 96.13807    132.1 9.403e+03 9.408e-11
 96.16806    134.4 9.446e+03 1.073e-10
 96.20719    136.8 9.498e+03 1.229e-10
 96.22706    137.0 9.540e+03 1.410e-10
 96.24757    139.3 9.625e+03 1.637e-10
 96.28732    141.6 9.745e+03 1.888e-10
 96.32707    143.7 9.909e+03 2.199e-10
 96.36682    145.8 1.014e+04 2.616e-10
 96.40658    147.8 1.042e+04 3.174e-10
 96.43975    149.7 1.072e+04 3.854e-10
 96.45962    149.5 1.079e+04 4.477e-10
 96.48608    151.0 1.099e+04 5.029e-10
 96.52583    152.2 1.109e+04 5.337e-10
 96.55555    153.6 1.119e+04 5.605e-10
 96.56577    155.0 1.138e+04 6.188e-10
 96.57571    155.1 1.143e+04 6.169e-10
 96.59520    156.0 1.156e+04 6.625e-10
 96.61508    156.7 1.164e+04 6.823e-10
 96.63496    157.2 1.166e+04 6.905e-10
 96.65483    157.8 1.167e+04 7.013e-10
 96.67211    158.3 1.170e+04 7.250e-10
 96.68205    158.2 1.172e+04 7.140e-10
 96.69164    158.7 1.176e+04 7.622e-10
 96.70158    158.9 1.181e+04 7.708e-10
 96.71446    159.5 1.186e+04 8.530e-10
 96.73434    160.1 1.194e+04 9.684e-10
 96.75421    160.7 1.204e+04 1.120e-09
 96.77409    161.4 1.217e+04 1.308e-09
 96.78839    162.1 1.235e+04 1.530e-09
 96.79833    162.0 1.242e+04 1.521e-09
 96.81384    162.6 1.266e+04 1.777e-09
 96.83372    163.1 1.289e+04 2.015e-09
 96.85359    163.4 1.312e+04 2.186e-09
 96.87347    163.5 1.329e+04 2.254e-09
 96.89334    163.5 1.343e+04 2.219e-09
 96.90467    163.3 1.352e+04 2.141e-09
 96.91461    162.3 1.419e+04 2.865e-09
 96.93310    161.9 1.430e+04 2.935e-09
 96.95297    161.3 1.447e+04 3.158e-09
 96.97285    160.3 1.477e+04 3.616e-09
 96.98343    159.1 1.550e+04 4.599e-09
 96.98835    159.9 1.538e+04 5.261e-09
 96.99760    159.4 1.553e+04 5.632e-09
 97.00753    158.5 1.605e+04 6.673e-09
 97.01589    157.5 1.659e+04 8.194e-09
 97.02086    156.1 1.744e+04 1.052e-08
 97.02741    154.7 1.847e+04 1.381e-08
 97.03735    153.7 1.911e+04 1.692e-08
 97.05230    151.5 2.041e+04 2.492e-08
 97.07223    149.6 2.092e+04 2.694e-08
 97.09210    147.9 2.077e+04 2.434e-08
 97.11198    146.6 1.995e+04 1.663e-08
 97.12730    145.5 1.829e+04 7.976e-09
 97.13723    142.6 1.594e+04 3.415e-09
 97.15173    139.2 1.244e+04 1.304e-09
 97.17161    136.3 1.124e+04 7.816e-10
 97.20152    132.7 1.055e+04 5.172e-10
 97.24137    131.7 1.013e+04 3.958e-10
 97.26547    132.2 9.952e+03 3.338e-10
 97.28535    133.6 1.079e+04 6.277e-10
 97.32088    133.4 1.051e+04 4.906e-10
 97.35011    133.8 1.031e+04 4.041e-10
 97.36999    134.2 1.032e+04 4.104e-10
 97.40038    135.1 1.022e+04 3.585e-10
 97.44013    136.4 1.016e+04 3.218e-10
 97.47988    138.0 1.013e+04 2.999e-10
 97.51964    139.8 1.013e+04 2.965e-10
 97.55939    141.7 1.016e+04 2.981e-10
 97.58268    143.7 1.022e+04 3.076e-10
 97.60255    143.7 1.043e+04 3.640e-10
 97.63889    145.7 1.047e+04 3.822e-10
 97.67864    148.0 1.051e+04 4.238e-10
 97.71840    149.8 1.067e+04 5.227e-10
 97.75815    151.7 1.099e+04 6.882e-10
 97.79536    153.4 1.143e+04 9.018e-10
 97.81524    153.1 1.148e+04 8.999e-10
 97.82917    154.3 1.176e+04 9.879e-10
 97.84905    154.5 1.201e+04 1.063e-09
 97.87741    155.3 1.202e+04 1.057e-09
 97.91716    156.0 1.195e+04 9.869e-10
 97.95691    156.9 1.175e+04 8.200e-10
 97.99666    158.0 1.151e+04 6.319e-10
 98.02792    159.2 1.123e+04 4.471e-10
 98.04780    159.4 1.130e+04 4.913e-10
 98.07617    160.6 1.106e+04 3.630e-10
 98.11592    161.9 1.083e+04 2.606e-10
 98.15567    163.0 1.064e+04 1.945e-10
 98.19542    164.1 1.041e+04 1.681e-10
 98.23517    165.3 1.025e+04 1.657e-10
 98.26048    166.5 1.023e+04 1.657e-10
 98.28036    166.8 1.022e+04 1.661e-10
 98.31468    168.1 1.019e+04 1.682e-10
 98.35443    169.6 1.013e+04 1.727e-10
 98.39287    171.1 1.006e+04 1.745e-10
 98.41275    171.3 1.001e+04 1.730e-10
 98.43394    172.9 9.884e+03 1.669e-10
 98.47317    174.6 9.749e+03 1.514e-10
 98.49304    174.9 9.864e+03 1.808e-10
 98.51344    176.8 9.729e+03 1.626e-10
 98.55319    178.8 9.587e+03 1.371e-10
 98.59294    180.9 9.475e+03 1.098e-10
 98.63270    183.0 9.398e+03 8.674e-11
 98.67245    185.1 9.352e+03 7.087e-11
 98.70573    187.3 9.313e+03 6.218e-11
 98.72560    187.8 9.359e+03 7.711e-11
 98.75195    190.0 9.321e+03 6.742e-11
 98.79170    192.2 9.281e+03 6.206e-11
 98.83146    194.5 9.234e+03 5.910e-11
 98.87121    196.9 9.166e+03 5.802e-11
 98.91096    199.3 9.089e+03 5.849e-11
 98.93829    201.8 9.075e+03 5.888e-11
 98.95816    202.4 9.042e+03 5.533e-11
 98.97645    204.9 9.028e+03 5.581e-11
 98.99632    205.2 9.008e+03 5.959e-11
 99.03022    207.7 8.974e+03 6.253e-11
 99.06997    210.3 8.949e+03 6.820e-11
 99.10972    212.8 8.934e+03 7.723e-11
 99.14947    215.4 8.934e+03 9.041e-11
 99.17085    218.0 8.958e+03 1.087e-10
 99.19073    218.7 8.951e+03 9.680e-11
 99.22898    221.3 9.001e+03 1.182e-10
 99.26873    223.8 9.082e+03 1.464e-10
 99.30848    226.3 9.192e+03 1.833e-10
 99.34823    228.7 9.326e+03 2.311e-10
 99.38353    231.1 9.488e+03 2.918e-10
 99.40341    231.8 9.454e+03 2.611e-10
 99.42774    234.0 9.679e+03 3.451e-10
 99.46749    236.0 9.931e+03 4.430e-10
 99.50724    237.8 1.018e+04 5.302e-10
 99.54015    239.2 1.033e+04 5.560e-10
 99.56002    239.0 1.020e+04 5.313e-10
 99.58675    240.2 1.017e+04 5.217e-10
 99.61609    241.4 1.005e+04 4.723e-10
 99.63597    242.0 1.004e+04 4.687e-10
 99.66625    243.3 9.839e+03 3.882e-10
 99.70600    244.8 9.614e+03 3.032e-10
 99.74576    246.2 9.403e+03 2.335e-10
 99.78551    247.7 9.233e+03 1.860e-10
 99.82526    249.2 9.098e+03 1.590e-10
 99.84866    250.9 8.995e+03 1.465e-10
 99.86853    251.7 9.021e+03 1.477e-10
 99.90476    253.5 8.988e+03 1.449e-10
 99.94452    255.3 8.982e+03 1.445e-10
 99.98427    257.1 8.986e+03 1.446e-10
