# Columns:
#   distance along LOS (in CHIMPs)
#   peculiar velocity  (in km/s)
#   temperature (K)
#   HI number density
# pos=(168.655,3.46513,176.553), angles=(1.33949,0.0891495)
  0.00778    -45.4 1.195e+04 1.103e-09
  0.02563    -45.8 1.200e+04 1.090e-09
  0.04247    -46.5 1.215e+04 1.101e-09
  0.05255    -48.3 1.183e+04 9.563e-10
  0.05946    -49.1 1.182e+04 9.595e-10
  0.06953    -49.2 1.220e+04 1.110e-09
  0.08607    -50.0 1.214e+04 1.153e-09
  0.10622    -50.6 1.208e+04 1.203e-09
  0.12536    -51.0 1.206e+04 1.211e-09
  0.13544    -52.4 1.140e+04 9.233e-10
  0.14651    -52.6 1.116e+04 8.666e-10
  0.16665    -52.7 1.092e+04 7.455e-10
  0.18680    -53.0 1.070e+04 6.233e-10
  0.20694    -53.4 1.055e+04 5.312e-10
  0.21833    -53.9 1.046e+04 4.748e-10
  0.22840    -54.6 1.031e+04 4.219e-10
  0.24724    -54.9 1.027e+04 4.012e-10
  0.26738    -54.9 1.024e+04 3.946e-10
  0.28295    -54.8 1.019e+04 3.914e-10
  0.29302    -55.2 1.019e+04 3.981e-10
  0.30122    -55.0 1.015e+04 3.962e-10
  0.32146    -55.5 9.682e+03 2.889e-10
  0.35823    -54.7 9.370e+03 2.502e-10
  0.39852    -53.7 9.073e+03 2.131e-10
  0.43881    -52.4 8.796e+03 1.782e-10
  0.46719    -50.8 8.572e+03 1.478e-10
  0.48734    -51.1 8.452e+03 1.330e-10
  0.50663    -49.2 8.243e+03 1.116e-10
  0.52678    -49.6 8.242e+03 1.129e-10
  0.55969    -47.5 8.065e+03 9.393e-11
  0.59998    -45.3 7.938e+03 8.084e-11
  0.63297    -43.1 7.835e+03 7.333e-11
  0.65312    -43.4 7.896e+03 7.855e-11
  0.68056    -41.0 7.876e+03 7.750e-11
  0.72085    -38.7 7.871e+03 7.839e-11
  0.76114    -36.3 7.898e+03 8.268e-11
  0.79875    -33.9 7.934e+03 8.814e-11
  0.81890    -34.3 8.083e+03 1.108e-10
  0.84173    -32.0 8.143e+03 1.174e-10
  0.88202    -29.7 8.241e+03 1.260e-10
  0.92231    -27.5 8.367e+03 1.384e-10
  0.95361    -25.4 8.506e+03 1.550e-10
  0.97376    -25.5 8.608e+03 1.811e-10
  0.98468    -23.3 8.849e+03 2.193e-10
  1.00483    -24.0 9.304e+03 3.080e-10
  1.03301    -21.9 9.376e+03 3.248e-10
  1.05306    -21.7 9.375e+03 3.280e-10
  1.06737    -19.8 9.497e+03 3.649e-10
  1.07745    -20.2 9.670e+03 4.039e-10
  1.09335    -19.8 9.768e+03 4.363e-10
  1.11350    -18.5 1.008e+04 5.369e-10
  1.13364    -17.8 1.042e+04 6.271e-10
  1.15026    -17.2 1.086e+04 7.739e-10
  1.16034    -18.3 1.145e+04 1.024e-09
  1.17393    -18.2 1.198e+04 1.295e-09
  1.18698    -18.1 1.261e+04 1.697e-09
  1.19705    -18.6 1.328e+04 2.511e-09
  1.21423    -18.5 1.403e+04 3.299e-09
  1.23316    -18.1 1.469e+04 4.216e-09
  1.24323    -19.4 1.523e+04 4.796e-09
  1.25452    -18.7 1.522e+04 5.041e-09
  1.27466    -18.1 1.507e+04 5.108e-09
  1.29481    -17.7 1.463e+04 4.761e-09
  1.31495    -17.7 1.417e+04 4.243e-09
  1.32612    -18.1 1.391e+04 3.867e-09
  1.33619    -20.1 1.415e+04 3.523e-09
  1.35524    -21.1 1.436e+04 3.718e-09
  1.37539    -21.7 1.451e+04 4.065e-09
  1.39554    -21.8 1.460e+04 4.336e-09
  1.40901    -21.5 1.450e+04 4.369e-09
  1.41387    -22.6 1.420e+04 4.431e-09
  1.42054    -22.6 1.377e+04 3.734e-09
  1.43583    -21.9 1.333e+04 3.264e-09
  1.45597    -21.3 1.276e+04 2.581e-09
  1.47612    -21.2 1.201e+04 1.869e-09
  1.49190    -21.2 1.112e+04 1.299e-09
  1.50197    -22.0 1.091e+04 1.199e-09
  1.51641    -21.6 1.010e+04 8.449e-10
  1.53656    -20.4 9.439e+03 6.055e-10
  1.55670    -19.0 8.953e+03 4.364e-10
  1.57479    -18.0 8.588e+03 3.229e-10
  1.58486    -18.1 8.563e+03 3.195e-10
  1.60716    -17.0 8.265e+03 2.421e-10
  1.64755    -14.3 7.690e+03 1.542e-10
  1.66795    -11.4 7.483e+03 1.161e-10
  1.67792    -13.6 8.037e+03 1.786e-10
  1.69772    -13.1 8.458e+03 1.805e-10
  1.71787    -13.0 1.035e+04 2.022e-10
  1.73801    -14.5 1.289e+04 2.075e-10
  1.75064    -15.6 1.538e+04 2.527e-10
  1.76071    -19.7 1.552e+04 1.475e-09
  1.77830    -19.5 1.549e+04 2.358e-09
  1.79845    -18.7 1.549e+04 4.150e-09
  1.81859    -18.1 1.587e+04 6.247e-09
  1.83353    -16.9 1.632e+04 9.242e-09
  1.84360    -16.6 1.785e+04 1.616e-08
  1.85745    -15.2 1.822e+04 1.701e-08
  1.86752    -15.3 1.791e+04 1.483e-08
  1.87903    -14.3 1.799e+04 1.438e-08
  1.89918    -13.8 1.802e+04 1.370e-08
  1.91642    -13.9 1.864e+04 1.274e-08
  1.92650    -19.0 1.885e+04 5.833e-09
  1.93947    -22.1 1.711e+04 3.876e-09
  1.95961    -25.5 1.469e+04 3.074e-09
  1.97976    -27.5 1.338e+04 2.745e-09
  1.99931    -28.1 1.287e+04 2.431e-09
  2.00939    -29.3 1.281e+04 2.859e-09
  2.02005    -28.8 1.268e+04 2.706e-09
  2.04020    -28.5 1.222e+04 2.172e-09
  2.06034    -28.6 1.158e+04 1.645e-09
  2.08049    -28.7 1.082e+04 1.214e-09
  2.09101    -28.4 1.012e+04 8.725e-10
  2.09272    -27.8 1.001e+04 8.125e-10
  2.10235    -28.6 9.799e+03 7.036e-10
  2.12078    -28.5 9.409e+03 5.189e-10
  2.14092    -28.7 9.091e+03 4.042e-10
  2.16519    -28.5 8.844e+03 3.432e-10
  2.18543    -29.4 8.661e+03 3.044e-10
  2.21163    -28.0 8.378e+03 2.529e-10
  2.25192    -26.2 8.308e+03 2.354e-10
  2.29221    -24.5 8.296e+03 2.323e-10
  2.31469    -22.7 8.375e+03 2.388e-10
  2.33340    -21.8 8.393e+03 2.441e-10
  2.35121    -22.8 8.460e+03 2.488e-10
  2.37279    -21.1 8.524e+03 2.560e-10
  2.41309    -19.6 8.601e+03 2.608e-10
  2.45338    -18.4 8.766e+03 2.757e-10
  2.49367    -17.5 9.103e+03 3.296e-10
  2.51699    -17.0 9.582e+03 4.312e-10
  2.52697    -18.7 9.605e+03 4.307e-10
  2.53799    -19.1 9.798e+03 4.988e-10
  2.54806    -18.8 9.876e+03 5.172e-10
  2.56398    -18.9 1.017e+04 6.371e-10
  2.58413    -19.0 1.052e+04 7.601e-10
  2.59969    -19.0 1.075e+04 8.553e-10
  2.60976    -19.9 1.094e+04 9.926e-10
  2.62442    -19.8 1.100e+04 1.035e-09
  2.64456    -19.8 1.102e+04 1.046e-09
  2.66471    -19.6 1.099e+04 1.040e-09
  2.68258    -19.4 1.100e+04 1.027e-09
  2.69265    -20.0 1.092e+04 9.742e-10
  2.70500    -20.0 1.083e+04 9.087e-10
  2.73532    -19.9 1.098e+04 9.054e-10
  2.76167    -19.6 1.113e+04 8.910e-10
  2.78182    -19.3 1.054e+04 5.870e-10
  2.81600    -18.8 1.053e+04 5.641e-10
  2.84856    -18.2 1.056e+04 5.652e-10
  2.86870    -18.8 1.098e+04 6.770e-10
  2.89658    -18.6 1.142e+04 7.874e-10
  2.93687    -19.5 1.208e+04 1.047e-09
  2.96699    -20.4 1.308e+04 2.021e-09
  2.98496    -20.5 1.331e+04 2.398e-09
  2.99504    -20.3 1.318e+04 2.202e-09
  3.00719    -19.9 1.335e+04 2.511e-09
  3.02421    -19.5 1.342e+04 2.579e-09
  3.03429    -19.6 1.378e+04 3.131e-09
  3.04748    -19.6 1.361e+04 2.657e-09
  3.06762    -20.3 1.342e+04 2.288e-09
  3.08777    -21.3 1.318e+04 2.052e-09
  3.10710    -22.0 1.307e+04 1.976e-09
  3.11718    -22.6 1.282e+04 1.915e-09
  3.12806    -22.9 1.283e+04 1.923e-09
  3.14821    -23.0 1.283e+04 1.927e-09
  3.16835    -23.0 1.274e+04 1.836e-09
  3.18850    -23.1 1.252e+04 1.681e-09
  3.20007    -23.0 1.223e+04 1.500e-09
  3.20995    -23.2 1.167e+04 1.172e-09
  3.21853    -23.0 1.168e+04 1.166e-09
  3.22879    -22.8 1.147e+04 1.039e-09
  3.24893    -22.7 1.111e+04 8.661e-10
  3.26908    -22.3 1.085e+04 7.438e-10
  3.28296    -22.1 1.051e+04 6.080e-10
  3.29303    -22.0 1.023e+04 5.186e-10
  3.30937    -21.7 1.007e+04 4.694e-10
  3.33969    -20.6 1.013e+04 4.412e-10
  3.36604    -19.2 9.761e+03 3.499e-10
  3.38619    -18.5 9.489e+03 2.928e-10
  3.42037    -17.1 9.403e+03 2.834e-10
  3.46066    -15.4 9.385e+03 3.030e-10
  3.50095    -13.6 9.381e+03 3.235e-10
  3.53182    -11.6 9.269e+03 2.979e-10
  3.55197    -10.9 9.038e+03 2.741e-10
  3.58153     -8.8 9.017e+03 2.598e-10
  3.62182     -6.4 8.864e+03 2.217e-10
  3.65563     -4.1 8.841e+03 1.525e-10
  3.67577     -3.4 9.067e+03 2.084e-10
  3.69760     -1.8 9.046e+03 1.283e-10
  3.71775     -0.9 9.062e+03 1.935e-10
  3.74270      0.7 8.943e+03 1.327e-10
  3.78299      2.5 8.771e+03 9.544e-11
  3.82328      4.6 8.669e+03 6.984e-11
  3.86338      6.6 8.638e+03 6.173e-11
  3.90367      9.0 8.743e+03 6.443e-11
  3.94415     10.5 8.807e+03 7.374e-11
  3.98444     12.1 8.923e+03 9.863e-11
  4.02474     13.6 9.067e+03 1.391e-10
  4.04931     15.1 9.424e+03 2.125e-10
  4.06945     14.9 9.782e+03 2.875e-10
  4.10261     16.2 1.014e+04 4.202e-10
  4.12275     17.1 1.004e+04 3.929e-10
  4.14561     18.0 1.043e+04 5.307e-10
  4.18590     18.4 1.070e+04 6.552e-10
  4.21509     18.6 1.085e+04 7.558e-10
  4.23524     18.2 1.071e+04 6.997e-10
  4.26648     18.6 1.048e+04 6.358e-10
  4.30677     19.0 1.014e+04 4.954e-10
  4.34707     19.1 9.872e+03 3.700e-10
  4.38087     18.7 9.814e+03 3.137e-10
  4.40102     18.7 9.387e+03 2.355e-10
  4.42765     18.9 9.354e+03 2.463e-10
  4.46794     19.6 9.255e+03 2.625e-10
  4.50823     20.8 9.141e+03 2.622e-10
  4.54665     22.3 9.029e+03 2.431e-10
  4.56680     23.5 8.976e+03 2.383e-10
  4.56973     25.2 8.818e+03 2.052e-10
  4.58988     26.6 8.881e+03 2.260e-10
  4.62910     28.2 8.721e+03 1.880e-10
  4.66940     29.6 8.544e+03 1.550e-10
  4.70969     31.0 8.427e+03 1.422e-10
  4.73258     32.6 8.435e+03 1.449e-10
  4.75272     33.4 8.413e+03 1.412e-10
  4.79027     34.9 8.460e+03 1.541e-10
  4.83056     36.4 8.549e+03 1.790e-10
  4.87085     37.9 8.661e+03 2.043e-10
  4.89836     39.3 8.773e+03 2.190e-10
  4.91850     39.9 8.793e+03 2.181e-10
  4.95143     41.1 8.783e+03 2.130e-10
  4.99173     42.1 8.754e+03 1.993e-10
  5.01671     43.0 8.784e+03 1.957e-10
  5.03686     44.0 8.759e+03 1.958e-10
  5.06414     44.6 8.923e+03 2.111e-10
  5.08428     43.2 9.208e+03 2.205e-10
  5.10243     43.0 9.438e+03 2.480e-10
  5.12248     41.9 1.001e+04 3.436e-10
  5.14262     40.8 1.040e+04 5.298e-10
  5.15690     40.7 1.064e+04 7.715e-10
  5.16698     40.5 1.063e+04 8.218e-10
  5.18291     41.1 1.082e+04 9.527e-10
  5.20306     41.4 1.106e+04 9.439e-10
  5.22321     41.3 1.112e+04 8.907e-10
  5.23979     40.9 1.114e+04 7.818e-10
  5.24652     39.9 1.095e+04 6.466e-10
  5.25008     40.2 1.101e+04 6.673e-10
  5.26350     39.3 1.079e+04 5.888e-10
  5.28364     38.6 1.057e+04 5.310e-10
  5.30379     38.2 1.043e+04 4.891e-10
  5.32269     38.0 1.037e+04 4.592e-10
  5.33276     38.1 1.038e+04 4.676e-10
  5.34408     38.2 1.035e+04 4.408e-10
  5.36422     38.4 1.033e+04 4.156e-10
  5.38437     38.6 1.031e+04 3.903e-10
  5.40452     38.7 1.031e+04 3.627e-10
  5.41565     38.8 1.027e+04 3.385e-10
  5.42572     39.3 1.028e+04 3.312e-10
  5.44481     39.4 1.028e+04 3.137e-10
  5.46349     39.4 1.036e+04 3.208e-10
  5.47357     39.4 1.042e+04 3.375e-10
  5.48510     38.2 1.131e+04 4.175e-10
  5.49854     33.2 1.441e+04 1.057e-09
  5.50861     37.3 1.254e+04 5.419e-10
  5.52539     31.2 1.544e+04 1.852e-09
  5.54554     29.5 1.593e+04 5.305e-09
  5.56568     30.2 1.620e+04 7.477e-09
  5.58143     30.9 1.623e+04 6.817e-09
  5.59150     31.1 1.629e+04 7.864e-09
  5.60597     31.8 1.620e+04 6.158e-09
  5.62612     31.2 1.641e+04 3.005e-09
  5.64626     27.9 1.571e+04 1.106e-09
  5.66432     23.3 1.232e+04 5.082e-10
  5.67439     26.9 1.462e+04 7.410e-10
  5.68655     23.0 1.149e+04 4.229e-10
  5.71687     22.8 1.116e+04 4.070e-10
  5.74740     23.0 1.127e+04 4.609e-10
  5.76745     23.7 1.136e+04 4.169e-10
  5.79745     24.9 1.129e+04 4.985e-10
  5.83784     26.0 1.127e+04 5.583e-10
  5.87813     27.3 1.112e+04 5.103e-10
  5.91067     28.6 1.092e+04 3.847e-10
  5.92557     28.2 1.088e+04 3.475e-10
  5.93333     29.2 1.138e+04 6.015e-10
  5.95872     30.7 1.112e+04 4.678e-10
  5.99901     32.1 1.082e+04 3.196e-10
  6.03930     33.6 1.048e+04 2.061e-10
  6.07896     35.1 1.018e+04 1.334e-10
  6.09911     36.8 1.079e+04 2.925e-10
  6.11988     38.2 1.053e+04 1.633e-10
  6.16017     39.2 1.009e+04 1.157e-10
  6.20046     40.2 9.955e+03 1.162e-10
  6.24075     40.8 1.004e+04 1.452e-10
  6.26489     41.9 1.016e+04 2.123e-10
  6.28504     42.8 1.033e+04 2.157e-10
  6.32134     44.0 1.029e+04 2.743e-10
  6.35765     45.4 1.035e+04 3.000e-10
  6.37779     45.9 1.046e+04 3.332e-10
  6.40192     47.0 1.057e+04 3.704e-10
  6.43067     48.1 1.064e+04 4.177e-10
  6.45082     48.6 1.080e+04 4.307e-10
  6.48250     49.9 1.092e+04 5.247e-10
  6.52279     51.3 1.100e+04 5.704e-10
  6.56308     52.8 1.101e+04 5.619e-10
  6.59645     54.1 1.103e+04 5.192e-10
  6.61660     54.5 1.111e+04 5.449e-10
  6.64367     55.8 1.111e+04 5.180e-10
  6.68396     56.8 1.115e+04 5.326e-10
  6.72425     57.7 1.128e+04 6.171e-10
  6.76223     58.6 1.149e+04 7.788e-10
  6.78238     58.5 1.119e+04 7.319e-10
  6.80462     59.1 1.136e+04 8.566e-10
  6.82477     58.4 1.151e+04 9.061e-10
  6.84512     58.6 1.144e+04 8.896e-10
  6.88541     58.8 1.120e+04 8.001e-10
  6.92571     59.4 1.078e+04 6.092e-10
  6.94816     60.2 1.026e+04 3.901e-10
  6.96830     60.0 1.007e+04 3.251e-10
  7.00629     60.7 9.649e+03 1.794e-10
  7.04658     61.1 9.287e+03 1.080e-10
  7.08687     61.9 8.968e+03 9.656e-11
  7.11394     63.3 8.944e+03 9.804e-11
  7.13408     63.3 8.847e+03 9.467e-11
  7.16745     65.1 8.807e+03 1.000e-10
  7.20774     67.0 8.796e+03 1.120e-10
  7.24804     69.1 8.805e+03 1.247e-10
  7.27175     71.1 8.829e+03 1.299e-10
  7.28329     71.3 8.792e+03 1.223e-10
  7.29986     71.6 8.627e+03 9.227e-11
  7.32862     73.5 8.598e+03 8.791e-11
  7.36891     75.3 8.560e+03 8.252e-11
  7.40920     77.2 8.560e+03 8.211e-11
  7.44550     78.9 8.589e+03 8.455e-11
  7.46564     79.4 8.423e+03 6.328e-11
  7.48978     80.9 8.526e+03 7.383e-11
  7.53007     82.2 8.756e+03 1.071e-10
  7.57037     83.4 9.117e+03 1.801e-10
  7.61066     84.5 9.574e+03 3.078e-10
  7.63143     85.5 1.005e+04 4.576e-10
  7.65157     86.1 9.936e+03 4.303e-10
  7.69124     86.7 1.022e+04 4.975e-10
  7.71873     87.1 1.022e+04 4.815e-10
  7.73887     88.3 1.021e+04 4.750e-10
  7.77182     88.7 1.018e+04 4.361e-10
  7.79721     89.0 1.007e+04 3.417e-10
  7.81735     89.8 1.004e+04 3.438e-10
  7.85241     89.9 9.923e+03 2.678e-10
  7.89270     90.0 9.933e+03 2.500e-10
  7.93299     90.3 1.004e+04 2.621e-10
  7.96299     90.9 1.010e+04 2.665e-10
  7.98313     91.8 9.708e+03 1.780e-10
  8.01357     92.7 9.666e+03 1.612e-10
  8.05386     93.9 9.604e+03 1.315e-10
  8.09415     95.3 9.529e+03 9.569e-11
  8.12877     96.6 9.457e+03 6.551e-11
  8.14891     97.2 9.349e+03 5.894e-11
  8.16571     98.6 9.270e+03 4.523e-11
  8.18585     99.3 9.293e+03 4.795e-11
  8.21503    100.8 9.176e+03 4.133e-11
  8.25532    102.5 9.057e+03 4.037e-11
  8.29455    104.4 9.051e+03 4.050e-11
  8.31469    105.4 9.040e+03 3.876e-11
  8.33590    107.4 9.044e+03 3.906e-11
  8.37619    109.3 9.070e+03 4.053e-11
  8.41648    111.0 9.112e+03 4.519e-11
  8.45677    112.6 9.155e+03 5.561e-11
  8.48047    114.2 9.211e+03 7.616e-11
  8.50062    115.1 9.220e+03 7.304e-11
  8.53736    116.6 9.343e+03 1.083e-10
  8.57765    118.1 9.537e+03 1.649e-10
  8.61268    119.4 9.785e+03 2.409e-10
  8.63283    119.6 1.001e+04 2.775e-10
  8.64625    120.6 1.029e+04 3.736e-10
  8.66640    121.1 1.027e+04 3.079e-10
  8.69852    121.7 1.045e+04 3.563e-10
  8.73881    121.9 1.060e+04 3.834e-10
  8.77910    122.0 1.072e+04 3.980e-10
  8.81203    121.9 1.083e+04 4.117e-10
  8.83218    121.9 1.073e+04 3.602e-10
  8.85969    121.9 1.078e+04 3.983e-10
  8.89998    122.1 1.080e+04 4.346e-10
  8.94027    122.4 1.077e+04 4.504e-10
  8.97781    123.0 1.073e+04 4.563e-10
  8.99796    123.1 1.045e+04 4.115e-10
  9.02085    123.5 1.047e+04 4.193e-10
  9.05966    123.8 1.056e+04 4.407e-10
  9.07981    123.6 1.062e+04 4.597e-10
  9.10143    123.9 1.080e+04 5.141e-10
  9.14173    124.3 1.097e+04 6.137e-10
  9.16374    124.6 1.113e+04 7.187e-10
  9.18389    124.7 1.061e+04 5.029e-10
  9.22231    125.1 1.061e+04 5.283e-10
  9.26260    125.6 1.056e+04 5.200e-10
  9.30289    126.1 1.044e+04 4.917e-10
  9.32952    126.9 1.024e+04 4.433e-10
  9.34967    127.3 9.820e+03 2.633e-10
  9.38347    128.2 9.730e+03 2.596e-10
  9.42376    129.4 9.638e+03 2.553e-10
  9.46406    130.7 9.579e+03 2.495e-10
  9.49530    132.0 9.553e+03 2.425e-10
  9.51545    132.4 9.467e+03 1.962e-10
  9.52679    133.8 9.479e+03 2.127e-10
  9.54693    133.9 9.381e+03 1.986e-10
  9.58493    135.2 9.383e+03 2.017e-10
  9.62522    136.4 9.372e+03 2.000e-10
  9.66108    137.7 9.333e+03 1.907e-10
  9.68123    137.6 9.218e+03 1.652e-10
  9.70580    138.7 9.209e+03 1.623e-10
  9.74609    139.7 9.225e+03 1.632e-10
  9.78639    140.5 9.295e+03 1.678e-10
  9.82668    141.2 9.410e+03 1.838e-10
  9.86697    141.5 9.526e+03 2.586e-10
  9.90726    142.4 9.664e+03 2.839e-10
  9.94755    143.2 9.699e+03 2.843e-10
  9.97377    144.1 9.686e+03 2.706e-10
  9.99391    144.2 9.577e+03 2.612e-10
 10.01279    145.3 9.519e+03 2.318e-10
 10.03293    145.0 9.437e+03 2.101e-10
 10.06842    146.2 9.297e+03 1.536e-10
 10.10872    147.3 9.164e+03 1.131e-10
 10.14901    148.7 9.108e+03 9.905e-11
 10.17857    150.3 9.107e+03 9.983e-11
 10.19871    149.9 9.156e+03 1.111e-10
 10.22959    151.6 9.229e+03 1.196e-10
 10.26988    153.3 9.416e+03 1.351e-10
 10.31017    155.0 9.573e+03 1.597e-10
 10.34435    156.6 9.727e+03 1.898e-10
 10.36449    156.4 9.909e+03 3.071e-10
 10.39075    158.2 1.015e+04 3.602e-10
 10.42075    159.7 1.039e+04 4.201e-10
 10.44089    159.7 1.020e+04 3.769e-10
 10.46117    160.1 1.037e+04 4.308e-10
 10.48121    160.4 1.052e+04 5.062e-10
 10.50136    160.7 1.065e+04 6.061e-10
 10.52001    161.2 1.077e+04 7.097e-10
 10.53008    161.2 1.092e+04 8.138e-10
 10.54165    161.7 1.109e+04 8.972e-10
 10.56180    162.1 1.131e+04 1.002e-09
 10.58194    162.3 1.162e+04 1.150e-09
 10.60209    162.1 1.205e+04 1.375e-09
 10.61297    161.6 1.275e+04 1.759e-09
 10.62304    160.1 1.346e+04 2.159e-09
 10.64238    159.3 1.427e+04 3.115e-09
 10.65411    158.7 1.489e+04 4.385e-09
 10.66418    158.0 1.499e+04 4.486e-09
 10.68267    157.5 1.520e+04 5.341e-09
 10.69586    156.8 1.515e+04 5.304e-09
 10.70593    156.0 1.544e+04 6.170e-09
 10.72296    155.6 1.508e+04 5.386e-09
 10.74311    155.7 1.434e+04 3.861e-09
 10.76325    156.2 1.337e+04 2.338e-09
 10.79357    155.9 1.220e+04 1.109e-09
 10.83396    154.1 1.026e+04 4.826e-10
 10.86183    153.2 9.966e+03 4.569e-10
 10.87546    151.4 1.004e+04 5.120e-10
 10.88787    149.6 9.865e+03 4.672e-10
 10.91454    150.0 1.005e+04 5.118e-10
 10.95483    149.8 1.042e+04 6.082e-10
 10.99512    149.2 1.060e+04 6.450e-10
 11.02762    148.4 1.057e+04 6.230e-10
 11.04776    146.3 1.006e+04 4.366e-10
 11.07571    144.9 9.887e+03 3.673e-10
 11.11600    143.4 9.909e+03 3.641e-10
 11.15629    141.7 1.004e+04 3.910e-10
 11.19340    140.0 1.046e+04 5.207e-10
 11.21354    137.7 1.070e+04 6.343e-10
 11.23687    136.5 1.124e+04 9.398e-10
 11.27716    135.4 1.147e+04 1.043e-09
 11.31470    134.4 1.139e+04 9.742e-10
 11.33485    134.7 1.096e+04 7.938e-10
 11.35774    134.1 1.071e+04 6.305e-10
 11.37932    133.7 1.028e+04 4.274e-10
 11.39947    132.4 9.767e+03 3.010e-10
 11.43833    132.0 9.605e+03 2.657e-10
 11.47862    131.5 9.708e+03 2.794e-10
 11.51891    131.0 1.005e+04 3.493e-10
 11.54510    131.0 1.043e+04 4.750e-10
 11.56525    131.6 1.048e+04 4.982e-10
 11.58932    132.2 1.055e+04 5.351e-10
 11.60937    132.0 1.072e+04 5.865e-10
 11.63969    131.5 1.081e+04 5.973e-10
 11.68007    132.3 1.059e+04 5.072e-10
 11.71088    133.8 1.022e+04 3.704e-10
 11.73103    134.5 1.012e+04 3.347e-10
 11.76066    136.2 9.806e+03 2.291e-10
 11.78183    137.9 9.628e+03 1.628e-10
 11.80197    139.4 9.675e+03 1.882e-10
 11.84124    141.2 9.585e+03 1.444e-10
 11.87666    143.1 9.560e+03 1.213e-10
 11.89681    143.9 9.540e+03 1.447e-10
 11.92182    146.1 9.551e+03 1.423e-10
 11.96211    148.4 9.564e+03 1.395e-10
 12.00240    150.7 9.568e+03 1.333e-10
 12.04244    152.9 9.572e+03 1.233e-10
 12.06259    153.9 9.801e+03 1.870e-10
 12.08299    155.9 9.815e+03 1.697e-10
 12.12328    157.7 9.778e+03 1.505e-10
 12.16357    159.2 9.646e+03 1.325e-10
 12.20386    160.6 9.419e+03 1.210e-10
 12.22837    162.0 9.337e+03 1.209e-10
 12.23317    162.4 9.664e+03 1.971e-10
 12.24895    163.1 9.371e+03 1.702e-10
 12.28444    164.7 9.346e+03 1.719e-10
 12.32473    166.4 9.531e+03 1.957e-10
 12.36503    168.1 9.995e+03 2.600e-10
 12.39405    167.5 1.055e+04 4.007e-10
 12.40403    166.8 1.095e+04 6.121e-10
 12.41519    166.7 1.151e+04 9.887e-10
 12.43534    166.9 1.216e+04 1.565e-09
 12.45210    167.4 1.283e+04 2.340e-09
 12.46217    167.8 1.237e+04 1.791e-09
 12.47563    168.0 1.304e+04 2.576e-09
 12.48692    168.3 1.362e+04 3.431e-09
 12.49699    167.9 1.440e+04 4.675e-09
 12.51592    168.1 1.480e+04 5.453e-09
 12.53607    168.4 1.505e+04 5.783e-09
 12.55621    168.6 1.513e+04 5.713e-09
 12.56981    168.5 1.514e+04 5.542e-09
 12.57988    167.4 1.522e+04 5.316e-09
 12.59651    167.1 1.514e+04 4.674e-09
 12.61665    166.6 1.494e+04 4.047e-09
 12.63680    166.3 1.465e+04 3.516e-09
 12.65270    166.0 1.432e+04 3.122e-09
 12.66277    164.1 1.335e+04 2.304e-09
 12.67559    164.3 1.313e+04 2.229e-09
 12.68566    163.2 1.317e+04 2.214e-09
 12.69723    163.6 1.303e+04 2.152e-09
 12.71738    164.2 1.301e+04 2.163e-09
 12.73559    164.9 1.304e+04 2.204e-09
 12.74566    164.0 1.257e+04 1.807e-09
 12.75767    164.7 1.258e+04 1.818e-09
 12.77782    165.4 1.257e+04 1.835e-09
 12.79796    166.1 1.257e+04 1.863e-09
 12.81811    166.7 1.259e+04 1.896e-09
 12.82855    167.1 1.263e+04 1.946e-09
 12.83862    166.0 1.196e+04 1.543e-09
 12.85840    166.2 1.205e+04 1.653e-09
 12.87854    166.4 1.218e+04 1.817e-09
 12.89869    166.7 1.235e+04 2.025e-09
 12.90915    167.1 1.263e+04 2.278e-09
 12.91183    166.6 1.264e+04 2.256e-09
 12.92151    166.2 1.239e+04 2.149e-09
 12.93898    166.9 1.271e+04 2.455e-09
 12.95913    167.5 1.299e+04 2.625e-09
 12.97927    167.8 1.306e+04 2.629e-09
 12.99433    168.1 1.306e+04 2.596e-09
 13.00440    167.9 1.264e+04 2.198e-09
 13.01956    168.4 1.259e+04 2.124e-09
 13.03971    168.9 1.246e+04 1.971e-09
 13.05985    169.5 1.228e+04 1.761e-09
 13.07722    170.1 1.208e+04 1.535e-09
 13.08729    170.1 1.195e+04 1.493e-09
 13.10015    170.7 1.190e+04 1.404e-09
 13.12029    171.1 1.185e+04 1.312e-09
 13.13264    171.5 1.178e+04 1.218e-09
 13.14271    170.9 1.156e+04 1.109e-09
 13.16011    171.3 1.145e+04 1.017e-09
 13.17018    171.3 1.189e+04 1.258e-09
 13.18073    171.6 1.193e+04 1.253e-09
 13.20087    171.8 1.200e+04 1.264e-09
 13.22102    172.0 1.212e+04 1.308e-09
 13.24117    172.1 1.235e+04 1.422e-09
 13.25307    172.1 1.269e+04 1.650e-09
 13.26315    171.7 1.336e+04 2.375e-09
 13.28146    171.8 1.377e+04 2.861e-09
 13.30160    172.1 1.426e+04 3.527e-09
 13.32175    172.4 1.476e+04 4.322e-09
 13.33596    173.0 1.520e+04 5.070e-09
 13.34604    172.8 1.527e+04 5.149e-09
 13.35613    173.2 1.539e+04 5.209e-09
 13.36620    173.0 1.534e+04 5.053e-09
 13.38218    173.4 1.531e+04 4.965e-09
 13.40233    173.9 1.519e+04 4.581e-09
 13.41885    174.6 1.490e+04 3.961e-09
 13.42893    174.3 1.406e+04 2.517e-09
 13.44262    174.9 1.369e+04 2.100e-09
 13.46277    175.6 1.328e+04 1.739e-09
 13.48291    176.4 1.289e+04 1.437e-09
 13.50174    177.3 1.253e+04 1.205e-09
 13.51182    176.7 1.221e+04 9.910e-10
 13.52320    177.9 1.206e+04 9.016e-10
 13.54335    179.1 1.192e+04 8.310e-10
 13.56350    180.4 1.182e+04 7.706e-10
 13.57962    181.8 1.175e+04 7.163e-10
 13.58969    181.0 1.168e+04 7.242e-10
 13.59471    182.5 1.160e+04 6.888e-10
 13.61495    183.4 1.151e+04 7.121e-10
 13.65435    186.1 1.155e+04 7.173e-10
 13.69464    188.5 1.169e+04 7.450e-10
 13.73493    191.0 1.195e+04 8.034e-10
 13.76059    192.2 1.219e+04 8.856e-10
 13.78073    192.3 1.235e+04 9.649e-10
 13.81551    193.9 1.234e+04 9.530e-10
 13.84348    193.8 1.214e+04 9.037e-10
 13.85345    193.5 1.221e+04 8.452e-10
 13.86568    193.6 1.208e+04 7.674e-10
 13.88583    193.9 1.173e+04 7.078e-10
 13.90597    194.4 1.122e+04 6.288e-10
 13.92612    194.6 1.020e+04 7.167e-10
 13.93634    193.9 1.079e+04 8.560e-10
 13.94641    188.8 1.360e+04 8.192e-10
 13.96641    186.3 1.578e+04 1.410e-09
 13.98655    184.0 1.724e+04 2.674e-09
 14.00670    182.4 1.817e+04 4.831e-09
 14.01923    181.3 1.898e+04 7.861e-09
 14.02906    178.4 1.864e+04 8.826e-09
 14.03667    181.2 1.743e+04 5.667e-09
 14.04699    180.7 1.840e+04 8.537e-09
 14.06714    180.0 1.949e+04 1.098e-08
 14.08728    178.5 2.023e+04 1.253e-08
 14.10212    176.8 2.076e+04 1.278e-08
 14.11219    174.6 1.948e+04 9.154e-09
 14.12757    172.9 1.891e+04 6.864e-09
 14.14263    171.5 1.858e+04 5.466e-09
 14.14832    170.4 1.783e+04 4.514e-09
 14.14920    172.7 1.898e+04 6.314e-09
 14.15354    171.9 1.804e+04 5.066e-09
 14.16273    170.6 1.706e+04 4.055e-09
 14.17280    169.7 1.622e+04 3.532e-09
 14.18496    168.2 1.540e+04 3.091e-09
 14.19508    168.8 1.474e+04 2.511e-09
 14.20816    168.0 1.390e+04 2.102e-09
 14.22830    167.6 1.337e+04 1.877e-09
 14.24845    167.6 1.313e+04 1.781e-09
 14.26016    168.0 1.309e+04 1.776e-09
 14.26954    169.3 1.418e+04 2.482e-09
 14.27798    170.0 1.259e+04 1.365e-09
 14.28874    170.4 1.253e+04 1.320e-09
 14.30888    170.9 1.253e+04 1.327e-09
 14.32903    171.5 1.259e+04 1.366e-09
 14.34917    172.2 1.271e+04 1.453e-09
 14.36087    173.0 1.288e+04 1.572e-09
 14.37094    173.5 1.181e+04 9.311e-10
 14.38947    174.4 1.200e+04 1.033e-09
 14.40961    175.4 1.217e+04 1.144e-09
 14.42976    176.5 1.230e+04 1.243e-09
 14.44376    177.7 1.237e+04 1.308e-09
 14.45383    178.3 1.181e+04 9.876e-10
 14.47005    179.5 1.194e+04 1.065e-09
 14.48365    180.7 1.205e+04 1.112e-09
 14.49372    180.7 1.212e+04 1.133e-09
 14.51034    181.8 1.218e+04 1.142e-09
 14.52665    182.8 1.219e+04 1.120e-09
 14.53672    183.7 1.200e+04 1.049e-09
 14.55063    184.8 1.205e+04 1.052e-09
 14.57078    185.9 1.209e+04 1.014e-09
 14.59092    186.9 1.208e+04 9.568e-10
 14.60954    187.9 1.194e+04 8.322e-10
 14.61961    189.4 1.222e+04 1.046e-09
 14.63121    190.0 1.222e+04 1.034e-09
 14.66153    192.3 1.220e+04 9.851e-10
 14.70192    194.9 1.197e+04 8.470e-10
 14.74221    197.2 1.165e+04 6.644e-10
 14.77551    199.8 1.131e+04 5.019e-10
 14.79566    200.8 1.218e+04 9.017e-10
 14.82279    203.3 1.180e+04 6.870e-10
 14.86308    205.9 1.139e+04 5.059e-10
 14.90337    208.6 1.100e+04 3.774e-10
 14.93082    211.3 1.071e+04 3.037e-10
 14.94859    211.1 1.076e+04 3.074e-10
 14.96144    211.7 1.166e+04 6.032e-10
 14.98396    214.3 1.141e+04 4.867e-10
 15.02425    216.9 1.123e+04 4.213e-10
 15.06454    219.4 1.116e+04 3.915e-10
 15.10483    222.0 1.112e+04 3.794e-10
 15.12722    224.7 1.109e+04 3.748e-10
 15.14736    224.5 1.131e+04 4.155e-10
 15.18541    227.4 1.113e+04 3.764e-10
 15.22571    230.3 1.098e+04 3.579e-10
 15.26600    233.2 1.093e+04 3.567e-10
 15.29300    235.5 1.092e+04 3.603e-10
 15.30297    234.2 1.088e+04 3.533e-10
 15.31617    235.6 1.085e+04 3.554e-10
 15.33631    237.1 1.082e+04 3.686e-10
 15.35646    238.4 1.088e+04 4.062e-10
 15.37569    239.6 1.104e+04 4.672e-10
 15.38577    239.4 1.115e+04 4.988e-10
 15.38768    240.3 1.129e+04 5.889e-10
 15.39775    239.8 1.142e+04 6.673e-10
 15.41689    240.7 1.160e+04 8.058e-10
 15.43704    241.7 1.182e+04 9.723e-10
 15.45718    242.7 1.205e+04 1.153e-09
 15.46866    243.5 1.225e+04 1.315e-09
 15.47873    243.2 1.228e+04 1.335e-09
 15.49748    243.9 1.242e+04 1.426e-09
 15.51762    244.4 1.252e+04 1.483e-09
 15.53777    244.9 1.253e+04 1.485e-09
 15.55155    245.4 1.251e+04 1.452e-09
 15.56162    244.5 1.262e+04 1.448e-09
 15.57806    244.7 1.253e+04 1.390e-09
 15.59820    244.9 1.255e+04 1.346e-09
 15.61117    245.1 1.257e+04 1.357e-09
 15.62124    244.7 1.226e+04 1.187e-09
 15.63444    244.8 1.241e+04 1.255e-09
 15.64451    243.4 1.288e+04 1.603e-09
 15.65864    243.6 1.309e+04 1.847e-09
 15.67879    243.8 1.336e+04 2.158e-09
 15.69893    244.1 1.363e+04 2.498e-09
 15.71733    244.5 1.390e+04 2.837e-09
 15.72740    243.6 1.398e+04 3.057e-09
 15.73922    244.0 1.418e+04 3.259e-09
 15.75937    244.3 1.423e+04 3.298e-09
 15.77951    244.6 1.418e+04 3.218e-09
 15.79966    244.9 1.405e+04 2.984e-09
 15.81029    245.1 1.376e+04 2.574e-09
 15.82036    244.7 1.290e+04 1.784e-09
 15.83466    245.0 1.250e+04 1.458e-09
 15.84473    244.9 1.238e+04 1.358e-09
 15.86010    245.3 1.193e+04 1.082e-09
 15.88024    245.8 1.151e+04 8.708e-10
 15.89318    246.5 1.114e+04 7.173e-10
 15.90325    246.4 1.074e+04 5.292e-10
 15.92053    247.2 1.055e+04 4.699e-10
 15.94068    248.2 1.039e+04 4.193e-10
 15.96083    248.8 1.026e+04 3.767e-10
 15.97617    250.5 1.023e+04 3.784e-10
 15.99641    250.7 1.002e+04 3.236e-10
 16.03153    253.2 9.950e+03 3.176e-10
 16.07182    255.7 9.933e+03 3.188e-10
 16.11211    258.1 9.907e+03 3.252e-10
 16.14205    260.4 9.893e+03 3.358e-10
 16.16219    260.9 9.910e+03 3.354e-10
 16.19270    263.1 9.907e+03 3.499e-10
 16.23299    265.3 9.908e+03 3.623e-10
 16.27176    267.5 9.908e+03 3.669e-10
 16.29181    267.7 9.982e+03 3.857e-10
 16.30330    269.2 9.981e+03 3.875e-10
 16.31770    270.0 9.995e+03 3.900e-10
 16.32778    270.1 1.001e+04 3.854e-10
 16.34359    271.6 1.001e+04 3.811e-10
 16.36374    272.4 1.000e+04 3.788e-10
 16.38388    273.8 9.996e+03 3.705e-10
 16.40059    274.6 9.994e+03 3.657e-10
 16.41067    274.6 1.004e+04 3.737e-10
 16.42417    276.0 1.001e+04 3.627e-10
 16.44432    276.8 9.997e+03 3.567e-10
 16.46447    278.1 9.973e+03 3.474e-10
 16.48348    278.9 9.958e+03 3.428e-10
 16.49356    279.0 1.009e+04 3.653e-10
 16.50476    280.3 1.007e+04 3.602e-10
 16.51520    281.1 1.007e+04 3.603e-10
 16.52527    281.4 1.035e+04 4.139e-10
 16.54505    282.4 1.031e+04 4.130e-10
 16.56519    283.4 1.032e+04 4.135e-10
 16.57645    284.4 1.032e+04 4.155e-10
 16.58652    284.5 1.042e+04 4.408e-10
 16.60549    285.5 1.043e+04 4.481e-10
 16.62563    286.6 1.047e+04 4.626e-10
 16.64578    287.7 1.052e+04 4.840e-10
 16.65934    288.7 1.058e+04 5.108e-10
 16.66941    289.0 1.075e+04 5.945e-10
 16.68607    290.0 1.080e+04 6.309e-10
 16.70621    291.1 1.083e+04 6.602e-10
 16.72636    292.2 1.084e+04 6.737e-10
 16.73869    293.1 1.083e+04 6.739e-10
 16.74448    293.0 1.083e+04 6.880e-10
 16.75230    292.9 1.090e+04 7.071e-10
 16.76665    293.8 1.084e+04 6.869e-10
 16.78680    294.8 1.075e+04 6.516e-10
 16.80694    295.8 1.065e+04 6.043e-10
 16.82512    296.7 1.054e+04 5.531e-10
 16.83519    296.2 1.055e+04 5.345e-10
 16.84723    297.0 1.043e+04 4.936e-10
 16.87755    298.3 1.021e+04 4.268e-10
 16.91794    300.6 1.020e+04 4.221e-10
 16.94806    301.5 1.019e+04 4.331e-10
 16.96218    302.5 1.024e+04 4.622e-10
 16.97225    302.2 1.006e+04 4.004e-10
 16.98825    303.1 1.007e+04 4.111e-10
 17.00097    304.1 1.014e+04 4.396e-10
 17.01104    303.8 1.016e+04 4.190e-10
 17.02854    304.7 1.026e+04 4.574e-10
 17.04869    305.6 1.037e+04 4.966e-10
 17.06883    306.5 1.049e+04 5.280e-10
 17.08386    307.2 1.061e+04 5.486e-10
 17.09393    306.7 1.041e+04 4.650e-10
 17.10913    307.2 1.055e+04 4.757e-10
 17.12927    307.2 1.080e+04 5.088e-10
 17.14942    307.0 1.120e+04 5.800e-10
 17.16675    306.5 1.168e+04 6.941e-10
 17.17682    304.8 1.200e+04 7.174e-10
 17.18567    303.6 1.289e+04 9.513e-10
 17.19574    303.2 1.202e+04 9.044e-10
 17.20985    302.0 1.253e+04 1.168e-09
 17.23000    300.9 1.294e+04 1.419e-09
 17.24964    299.8 1.343e+04 1.674e-09
 17.25971    298.1 1.379e+04 2.025e-09
 17.27029    297.2 1.404e+04 2.295e-09
 17.29044    296.4 1.418e+04 2.508e-09
 17.31058    295.8 1.430e+04 2.708e-09
 17.33073    295.1 1.450e+04 2.962e-09
 17.34260    294.4 1.485e+04 3.349e-09
 17.35268    293.4 1.484e+04 3.356e-09
 17.37102    292.3 1.536e+04 3.895e-09
 17.39116    290.9 1.599e+04 4.620e-09
 17.40916    289.1 1.663e+04 5.381e-09
 17.41923    288.7 1.580e+04 3.703e-09
 17.42549    286.8 1.594e+04 3.611e-09
 17.43557    285.4 1.589e+04 3.305e-09
 17.45160    283.2 1.593e+04 3.015e-09
 17.47175    280.6 1.574e+04 2.632e-09
 17.49189    277.7 1.542e+04 2.390e-09
 17.50838    274.7 1.519e+04 2.394e-09
 17.51846    272.6 1.544e+04 2.680e-09
 17.53218    270.1 1.518e+04 2.962e-09
 17.55233    268.2 1.508e+04 3.514e-09
 17.57248    267.0 1.517e+04 4.139e-09
 17.59127    266.0 1.535e+04 4.499e-09
 17.60135    265.0 1.485e+04 3.756e-09
 17.61277    264.0 1.477e+04 3.512e-09
 17.63265    262.6 1.462e+04 3.051e-09
 17.64272    262.8 1.475e+04 3.279e-09
 17.65306    261.0 1.453e+04 2.799e-09
 17.67320    259.2 1.409e+04 2.233e-09
 17.68424    257.4 1.347e+04 1.730e-09
 17.69431    256.9 1.264e+04 1.268e-09
 17.71349    255.5 1.211e+04 1.053e-09
 17.73364    254.5 1.167e+04 9.030e-10
 17.75379    253.8 1.135e+04 7.891e-10
 17.76713    253.3 1.111e+04 6.896e-10
 17.77720    253.7 1.091e+04 6.121e-10
 17.79408    253.3 1.073e+04 5.406e-10
 17.81422    252.8 1.066e+04 5.025e-10
 17.83437    252.3 1.066e+04 5.014e-10
 17.85002    251.7 1.071e+04 5.107e-10
 17.86009    251.9 1.064e+04 4.849e-10
 17.86621    250.8 1.088e+04 5.520e-10
 17.87628    251.3 1.084e+04 5.392e-10
 17.89481    250.2 1.128e+04 6.839e-10
 17.91495    249.1 1.186e+04 9.645e-10
 17.93291    248.3 1.246e+04 1.395e-09
 17.94298    248.2 1.250e+04 1.491e-09
 17.95524    247.7 1.295e+04 2.010e-09
 17.97539    247.4 1.321e+04 2.322e-09
 17.99553    246.9 1.323e+04 2.328e-09
 18.01568    246.6 1.319e+04 2.268e-09
 18.02587    246.2 1.302e+04 2.036e-09
 18.03594    245.9 1.281e+04 1.776e-09
 18.05597    245.3 1.245e+04 1.421e-09
 18.07612    244.4 1.203e+04 1.093e-09
 18.08970    243.3 1.159e+04 8.575e-10
 18.09977    244.0 1.169e+04 8.935e-10
 18.10876    242.9 1.136e+04 7.567e-10
 18.11883    242.1 1.112e+04 6.722e-10
 18.13655    241.4 1.087e+04 6.517e-10
 18.15670    241.0 1.081e+04 6.499e-10
 18.17684    240.8 1.080e+04 6.496e-10
 18.19165    240.6 1.081e+04 6.526e-10
 18.20172    240.6 1.063e+04 5.990e-10
 18.21714    240.4 1.064e+04 5.877e-10
 18.23728    240.1 1.066e+04 5.779e-10
 18.25743    239.7 1.069e+04 5.703e-10
 18.27454    239.2 1.071e+04 5.672e-10
 18.28461    238.5 1.041e+04 4.503e-10
 18.29772    238.0 1.040e+04 4.450e-10
 18.31319    237.5 1.040e+04 4.455e-10
 18.32326    237.9 1.040e+04 4.454e-10
 18.33801    237.3 1.040e+04 4.489e-10
 18.35743    236.6 1.044e+04 4.620e-10
 18.36750    236.3 1.011e+04 3.680e-10
 18.37830    235.6 1.023e+04 4.042e-10
 18.39845    234.5 1.049e+04 4.835e-10
 18.41859    233.1 1.085e+04 6.280e-10
 18.43874    231.4 1.139e+04 8.813e-10
 18.45040    229.2 1.233e+04 1.345e-09
 18.46047    229.4 1.181e+04 1.143e-09
 18.47903    226.3 1.335e+04 1.944e-09
 18.49917    221.3 1.550e+04 3.541e-09
 18.51932    215.3 1.726e+04 5.769e-09
 18.53329    209.2 1.811e+04 7.332e-09
 18.54057    208.9 1.885e+04 9.337e-09
 18.54675    207.4 1.964e+04 1.161e-08
 18.55961    202.3 1.954e+04 1.084e-08
 18.57976    198.4 1.879e+04 7.603e-09
 18.59990    195.2 1.721e+04 3.637e-09
 18.61618    191.5 1.441e+04 1.341e-09
 18.62625    192.3 1.489e+04 1.429e-09
 18.64019    187.7 1.169e+04 6.317e-10
 18.66034    184.8 1.099e+04 5.493e-10
 18.68048    184.5 1.090e+04 5.564e-10
 18.69907    184.7 1.090e+04 5.803e-10
 18.70914    185.1 1.081e+04 5.397e-10
 18.72078    185.8 1.091e+04 5.755e-10
 18.74092    186.5 1.110e+04 6.252e-10
 18.76017    187.1 1.131e+04 6.824e-10
 18.77024    186.3 1.184e+04 9.260e-10
 18.78121    186.7 1.204e+04 9.888e-10
 18.79203    187.0 1.218e+04 1.016e-09
 18.80210    188.0 1.201e+04 9.520e-10
 18.82150    188.3 1.206e+04 9.557e-10
 18.84165    188.6 1.206e+04 9.341e-10
 18.86180    189.1 1.199e+04 8.687e-10
 18.87492    189.4 1.179e+04 7.470e-10
 18.89516    191.0 1.173e+04 7.250e-10
 18.93250    192.0 1.147e+04 6.011e-10
 18.97279    193.6 1.107e+04 4.633e-10
 18.99392    195.1 1.067e+04 3.577e-10
 19.01407    193.4 1.053e+04 3.272e-10
 19.04089    195.2 1.026e+04 2.751e-10
 19.06104    197.0 1.036e+04 3.008e-10
 19.09367    198.8 1.007e+04 2.510e-10
 19.13396    200.8 9.951e+03 2.336e-10
 19.17425    202.9 9.941e+03 2.316e-10
 19.20667    205.0 1.002e+04 2.424e-10
 19.22682    206.4 9.878e+03 2.192e-10
 19.25483    208.4 9.960e+03 2.290e-10
 19.29512    210.2 1.016e+04 2.572e-10
 19.33541    211.4 1.034e+04 2.992e-10
 19.37246    212.9 1.048e+04 3.525e-10
 19.39260    215.5 1.018e+04 2.773e-10
 19.41600    217.8 1.042e+04 3.429e-10
 19.44090    220.4 1.085e+04 4.485e-10
 19.46105    219.4 1.083e+04 4.814e-10
 19.49658    222.2 1.149e+04 6.835e-10
 19.52670    222.8 1.181e+04 8.038e-10
 19.54675    223.1 1.210e+04 9.316e-10
 19.55819    223.4 1.244e+04 1.116e-09
 19.56826    224.4 1.216e+04 9.817e-10
 19.58704    224.7 1.247e+04 1.186e-09
 19.60718    225.1 1.274e+04 1.404e-09
 19.62733    225.4 1.300e+04 1.626e-09
 19.64108    225.6 1.328e+04 1.858e-09
 19.65115    226.8 1.289e+04 1.545e-09
 19.66420    227.0 1.315e+04 1.717e-09
 19.67427    227.2 1.357e+04 2.075e-09
 19.68777    227.3 1.399e+04 2.399e-09
 19.70791    227.0 1.456e+04 2.856e-09
 19.72397    226.5 1.522e+04 3.508e-09
 19.73404    228.3 1.443e+04 2.635e-09
 19.74820    227.7 1.502e+04 3.175e-09
 19.76835    227.1 1.556e+04 3.849e-09
 19.78849    226.5 1.594e+04 4.448e-09
 19.80686    225.8 1.603e+04 4.608e-09
 19.81693    227.8 1.542e+04 3.737e-09
 19.82879    227.1 1.544e+04 3.778e-09
 19.84893    226.5 1.536e+04 3.674e-09
 19.86908    225.9 1.502e+04 3.260e-09
 19.88768    225.4 1.443e+04 2.654e-09
 19.89776    225.4 1.483e+04 3.088e-09
 19.89982    225.1 1.393e+04 2.342e-09
 19.90989    226.8 1.419e+04 2.540e-09
 19.92951    226.6 1.343e+04 1.929e-09
 19.94966    226.4 1.282e+04 1.510e-09
 19.97998    227.1 1.251e+04 1.289e-09
 20.02036    226.3 1.194e+04 9.823e-10
 20.05572    226.0 1.135e+04 7.707e-10
 20.07587    227.8 1.125e+04 7.511e-10
 20.09078    227.1 1.106e+04 6.691e-10
 20.11082    226.8 1.093e+04 6.257e-10
 20.12125    226.6 1.071e+04 5.813e-10
 20.13132    226.5 1.078e+04 6.162e-10
 20.14849    226.3 1.066e+04 5.856e-10
 20.15856    226.7 1.043e+04 5.335e-10
 20.17126    226.6 1.020e+04 4.890e-10
 20.19141    226.5 1.002e+04 4.539e-10
 20.21155    226.6 9.875e+03 4.280e-10
 20.23138    226.7 9.759e+03 4.119e-10
 20.24145    226.9 9.674e+03 3.948e-10
 20.25184    227.0 9.662e+03 3.947e-10
 20.27199    227.2 9.669e+03 3.965e-10
 20.29214    227.3 9.695e+03 4.045e-10
 20.31228    227.3 9.759e+03 4.220e-10
 20.32434    227.3 9.851e+03 4.489e-10
 20.33442    227.3 9.800e+03 4.371e-10
 20.34474    227.2 9.875e+03 4.623e-10
 20.35481    227.4 9.960e+03 4.834e-10
 20.37272    227.3 1.007e+04 5.174e-10
 20.39286    227.3 1.016e+04 5.531e-10
 20.40723    227.2 1.018e+04 5.799e-10
 20.41731    227.0 9.967e+03 5.165e-10
 20.43315    226.8 9.962e+03 5.163e-10
 20.45330    226.6 9.940e+03 5.122e-10
 20.47345    226.4 9.898e+03 5.014e-10
 20.49012    225.8 9.843e+03 4.693e-10
 20.50020    225.4 9.749e+03 4.330e-10
 20.51374    225.2 9.732e+03 4.257e-10
 20.54405    225.3 9.760e+03 4.213e-10
 20.57321    225.1 9.581e+03 3.712e-10
 20.59335    226.3 9.222e+03 3.193e-10
 20.62473    226.3 8.824e+03 2.517e-10
 20.66502    226.2 8.421e+03 1.991e-10
 20.70532    226.0 8.232e+03 1.800e-10
 20.73899    226.1 8.227e+03 1.799e-10
 20.75914    227.6 8.104e+03 1.630e-10
 20.78184    227.7 8.112e+03 1.653e-10
 20.80198    226.4 8.118e+03 1.668e-10
 20.82619    226.3 8.194e+03 1.810e-10
 20.86648    226.0 8.506e+03 2.167e-10
 20.90477    225.0 9.037e+03 2.713e-10
 20.92492    227.5 8.665e+03 2.353e-10
 20.94706    226.4 9.171e+03 2.962e-10
 20.98735    224.5 9.468e+03 3.431e-10
 21.00771    224.5 9.533e+03 3.794e-10
 21.01551    225.0 9.463e+03 3.606e-10
 21.02528    224.5 9.499e+03 3.703e-10
 21.03752    225.3 9.730e+03 4.419e-10
 21.05767    225.8 1.030e+04 6.035e-10
 21.07781    226.0 1.097e+04 8.430e-10
 21.09050    226.1 1.158e+04 1.125e-09
 21.10057    227.3 1.122e+04 9.560e-10
 21.11811    227.3 1.181e+04 1.248e-09
 21.13825    227.3 1.229e+04 1.522e-09
 21.15840    227.0 1.267e+04 1.744e-09
 21.17339    226.6 1.294e+04 1.906e-09
 21.18346    228.0 1.288e+04 1.901e-09
 21.19869    227.6 1.315e+04 2.072e-09
 21.21883    227.1 1.341e+04 2.230e-09
 21.23869    226.6 1.369e+04 2.400e-09
 21.24877    225.6 1.420e+04 2.823e-09
 21.25628    225.1 1.445e+04 3.023e-09
 21.26635    226.3 1.449e+04 3.087e-09
 21.27927    225.7 1.460e+04 3.158e-09
 21.29942    225.1 1.457e+04 3.134e-09
 21.31956    224.9 1.440e+04 2.975e-09
 21.33917    225.0 1.401e+04 2.596e-09
 21.34924    225.7 1.403e+04 2.608e-09
 21.35985    225.9 1.351e+04 2.162e-09
 21.38000    226.1 1.295e+04 1.738e-09
 21.40014    226.3 1.238e+04 1.379e-09
 21.42029    226.5 1.185e+04 1.107e-09
 21.43213    226.7 1.142e+04 9.199e-10
 21.44221    227.7 1.115e+04 7.878e-10
 21.46058    228.1 1.079e+04 6.635e-10
 21.47226    228.6 1.053e+04 5.829e-10
 21.48233    227.8 1.067e+04 6.360e-10
 21.50087    228.6 1.059e+04 6.148e-10
 21.51502    229.5 1.059e+04 6.142e-10
 21.52510    230.3 1.028e+04 4.679e-10
 21.54116    231.1 1.028e+04 4.681e-10
 21.56131    231.9 1.030e+04 4.717e-10
 21.58146    232.8 1.036e+04 4.821e-10
 21.59791    233.6 1.045e+04 5.002e-10
 21.60799    233.7 1.013e+04 3.684e-10
 21.62175    234.6 1.016e+04 3.711e-10
 21.64189    235.5 1.020e+04 3.767e-10
 21.66204    236.5 1.026e+04 3.867e-10
 21.68080    237.5 1.034e+04 3.994e-10
 21.69088    236.9 1.014e+04 3.064e-10
 21.69575    237.8 1.014e+04 3.029e-10
 21.70582    237.5 1.020e+04 3.278e-10
 21.72247    238.4 1.029e+04 3.422e-10
 21.74262    239.3 1.048e+04 3.740e-10
 21.76277    239.9 1.076e+04 4.298e-10
 21.77377    240.5 1.114e+04 5.166e-10
 21.78384    240.8 1.044e+04 3.433e-10
 21.80306    241.4 1.076e+04 4.143e-10
 21.82320    242.1 1.114e+04 5.217e-10
 21.84335    242.8 1.156e+04 6.678e-10
 21.85666    243.7 1.196e+04 8.418e-10
 21.86673    244.1 1.139e+04 6.219e-10
 21.88364    245.0 1.182e+04 8.017e-10
 21.90379    246.1 1.223e+04 9.820e-10
 21.91923    247.1 1.261e+04 1.133e-09
 21.92931    246.3 1.323e+04 1.371e-09
 21.93955    247.2 1.355e+04 1.441e-09
 21.94962    247.3 1.353e+04 1.617e-09
 21.96422    247.6 1.400e+04 1.819e-09
 21.98437    247.5 1.467e+04 2.065e-09
 22.00451    246.8 1.590e+04 2.548e-09
 22.02244    245.0 1.727e+04 3.399e-09
 22.03251    245.3 1.691e+04 4.245e-09
 22.03597    244.6 1.747e+04 4.831e-09
 22.04095    243.8 1.763e+04 4.878e-09
 22.04974    242.8 1.823e+04 5.581e-09
 22.05982    241.6 1.873e+04 6.387e-09
 22.06882    240.5 1.909e+04 7.080e-09
 22.07386    240.3 1.911e+04 7.137e-09
 22.08505    238.9 1.922e+04 7.220e-09
 22.10524    235.7 1.905e+04 6.683e-09
 22.12539    231.2 1.753e+04 3.949e-09
 22.14272    226.6 1.584e+04 2.303e-09
 22.15280    221.9 1.557e+04 1.684e-09
 22.16568    216.2 1.498e+04 1.604e-09
 22.18582    211.7 1.489e+04 1.626e-09
 22.19829    209.3 1.485e+04 1.777e-09
 22.20836    210.1 1.509e+04 2.093e-09
 22.22103    208.9 1.543e+04 2.415e-09
 22.23105    208.5 1.564e+04 2.642e-09
 22.23964    208.0 1.588e+04 2.937e-09
 22.24468    208.4 1.590e+04 3.046e-09
 22.25120    208.1 1.614e+04 3.438e-09
 22.25941    207.7 1.651e+04 4.096e-09
 22.26444    207.6 1.698e+04 4.584e-09
 22.27135    207.0 1.774e+04 5.792e-09
 22.28108    206.5 1.862e+04 7.583e-09
 22.28612    207.5 1.854e+04 7.997e-09
 22.29149    207.1 1.940e+04 1.039e-08
 22.30156    206.7 2.026e+04 1.320e-08
 22.31164    206.2 2.106e+04 1.596e-08
 22.32171    205.4 2.182e+04 1.802e-08
 22.32757    204.4 2.257e+04 1.939e-08
 22.33260    204.9 2.187e+04 1.621e-08
 22.34186    203.4 2.238e+04 1.657e-08
 22.35193    201.6 2.310e+04 1.714e-08
 22.36200    199.6 2.410e+04 1.823e-08
 22.36901    197.2 2.550e+04 2.064e-08
 22.37313    197.3 2.404e+04 1.597e-08
 22.37619    192.7 2.713e+04 9.160e-08
 22.38215    191.3 2.653e+04 1.314e-07
 22.39222    190.9 2.623e+04 1.796e-07
 22.40229    191.0 2.610e+04 2.058e-07
 22.41046    191.4 2.618e+04 2.019e-07
 22.41549    192.7 2.891e+04 5.141e-08
 22.42244    193.1 2.954e+04 4.239e-08
 22.43251    193.7 3.006e+04 3.338e-08
 22.44258    194.3 3.042e+04 2.614e-08
 22.45190    194.3 3.059e+04 2.096e-08
 22.45694    192.6 2.380e+04 1.042e-08
 22.46273    192.6 2.382e+04 9.472e-09
 22.47280    192.6 2.440e+04 8.796e-09
 22.48287    192.8 2.485e+04 8.573e-09
 22.49295    192.3 2.821e+04 3.395e-08
 22.49838    192.8 2.831e+04 3.575e-08
 22.50342    193.1 2.875e+04 2.773e-08
 22.51309    193.2 2.931e+04 2.862e-08
 22.52317    193.1 2.941e+04 2.853e-08
 22.53324    193.0 2.939e+04 2.774e-08
 22.53983    193.0 2.924e+04 2.616e-08
 22.54486    193.0 2.861e+04 2.070e-08
 22.55338    192.6 2.835e+04 1.956e-08
 22.56346    192.4 2.800e+04 1.810e-08
 22.57353    192.1 2.754e+04 1.645e-08
 22.58127    192.0 2.691e+04 1.479e-08
 22.58631    192.0 2.552e+04 1.184e-08
 22.59368    192.0 2.469e+04 1.082e-08
 22.59968    192.1 2.391e+04 1.011e-08
 22.60471    191.3 2.452e+04 2.223e-08
 22.61382    191.3 2.409e+04 2.064e-08
 22.62272    191.4 2.362e+04 2.055e-08
 22.62775    191.7 2.349e+04 1.848e-08
 22.63397    192.1 2.347e+04 1.864e-08
 22.64404    192.6 2.350e+04 1.915e-08
 22.65411    193.1 2.363e+04 1.981e-08
 22.66416    193.6 2.379e+04 2.039e-08
 22.67424    194.4 2.395e+04 1.837e-08
 22.68433    195.0 2.395e+04 1.826e-08
 22.69440    195.5 2.395e+04 1.811e-08
 22.70448    195.9 2.395e+04 1.814e-08
 22.71064    196.3 2.395e+04 1.827e-08
 22.71255    196.0 2.345e+04 1.528e-08
 22.71646    195.1 2.465e+04 2.361e-08
 22.72462    195.7 2.458e+04 2.303e-08
 22.73470    196.3 2.457e+04 2.277e-08
 22.74985    197.3 2.386e+04 1.782e-08
 22.77005    198.2 2.359e+04 1.741e-08
 22.78860    199.2 2.310e+04 1.547e-08
 22.79867    199.0 2.097e+04 8.516e-09
 22.81034    200.0 2.034e+04 7.566e-09
 22.82326    201.0 1.978e+04 6.764e-09
 22.83334    198.8 2.046e+04 8.582e-09
 22.85063    199.7 1.967e+04 7.477e-09
 22.87078    200.9 1.884e+04 6.510e-09
 22.88156    202.2 1.803e+04 5.667e-09
 22.89163    202.3 1.735e+04 4.684e-09
 22.91107    203.9 1.680e+04 4.252e-09
 22.93121    205.6 1.624e+04 3.826e-09
 22.95136    207.3 1.566e+04 3.401e-09
 22.96445    209.1 1.504e+04 2.979e-09
 22.97452    209.4 1.498e+04 2.566e-09
 22.99165    211.1 1.443e+04 2.270e-09
 23.01180    212.9 1.388e+04 1.999e-09
 23.03194    214.6 1.336e+04 1.765e-09
 23.04675    216.3 1.292e+04 1.563e-09
 23.05208    215.9 1.242e+04 1.693e-09
 23.05741    216.2 1.252e+04 1.686e-09
 23.07223    218.0 1.226e+04 1.538e-09
 23.09238    219.6 1.206e+04 1.418e-09
 23.11252    221.1 1.192e+04 1.315e-09
 23.13023    222.6 1.179e+04 1.229e-09
 23.14030    222.9 1.197e+04 1.190e-09
 23.15281    224.4 1.184e+04 1.111e-09
 23.17296    225.9 1.170e+04 1.032e-09
 23.19311    227.3 1.157e+04 9.552e-10
 23.21312    228.8 1.144e+04 8.814e-10
 23.22319    228.5 1.129e+04 7.607e-10
 23.23340    229.8 1.113e+04 6.905e-10
 23.25354    230.9 1.096e+04 6.271e-10
 23.27024    232.0 1.079e+04 5.737e-10
 23.28032    231.9 1.101e+04 6.345e-10
 23.29383    232.8 1.089e+04 5.889e-10
 23.30608    233.7 1.085e+04 5.740e-10
 23.31616    232.5 1.059e+04 5.038e-10
 23.33413    233.3 1.061e+04 5.102e-10
 23.35427    234.0 1.071e+04 5.360e-10
 23.37442    234.7 1.088e+04 5.867e-10
 23.38897    235.3 1.112e+04 6.640e-10
 23.39905    234.2 1.110e+04 6.768e-10
 23.41471    234.9 1.137e+04 7.818e-10
 23.43485    235.7 1.168e+04 9.138e-10
 23.45500    236.3 1.203e+04 1.077e-09
 23.47186    237.0 1.243e+04 1.279e-09
 23.48194    236.2 1.238e+04 1.307e-09
 23.49373    236.8 1.280e+04 1.542e-09
 23.50381    235.3 1.325e+04 1.863e-09
 23.51544    236.0 1.362e+04 2.186e-09
 23.53558    236.7 1.389e+04 2.363e-09
 23.55475    237.2 1.394e+04 2.363e-09
 23.56483    236.9 1.362e+04 2.020e-09
 23.57587    237.4 1.362e+04 1.945e-09
 23.59602    238.0 1.350e+04 1.757e-09
 23.61616    238.4 1.329e+04 1.518e-09
 23.63631    238.7 1.304e+04 1.290e-09
 23.64772    238.7 1.287e+04 1.123e-09
 23.65779    238.0 1.264e+04 9.793e-10
 23.67660    238.0 1.261e+04 9.144e-10
 23.69675    238.1 1.265e+04 9.025e-10
 23.71689    238.3 1.265e+04 9.033e-10
 23.72730    238.5 1.269e+04 9.137e-10
 23.73094    237.2 1.239e+04 8.952e-10
 23.74068    236.9 1.230e+04 8.441e-10
 23.75718    236.9 1.261e+04 9.564e-10
 23.77733    236.6 1.306e+04 1.136e-09
 23.79747    236.2 1.369e+04 1.411e-09
 23.81350    235.9 1.450e+04 1.828e-09
 23.82357    234.6 1.475e+04 1.968e-09
 23.83777    234.4 1.556e+04 2.571e-09
 23.85791    234.2 1.638e+04 3.249e-09
 23.87806    233.8 1.723e+04 3.893e-09
 23.89639    232.8 1.803e+04 4.330e-09
 23.90646    231.3 1.779e+04 3.641e-09
 23.91835    229.4 1.785e+04 3.566e-09
 23.93849    227.2 1.789e+04 3.300e-09
 23.95078    225.0 1.760e+04 2.931e-09
 23.96086    224.6 1.863e+04 3.513e-09
 23.97879    222.3 1.779e+04 2.884e-09
 23.98935    220.7 1.698e+04 2.424e-09
 23.99942    220.6 1.597e+04 1.910e-09
 24.01908    220.0 1.572e+04 1.630e-09
 24.03922    219.7 1.555e+04 1.372e-09
 24.05937    219.4 1.532e+04 1.124e-09
 24.07224    219.0 1.494e+04 8.951e-10
 24.08231    219.1 1.381e+04 5.824e-10
 24.09966    218.8 1.334e+04 4.849e-10
 24.11980    218.8 1.308e+04 4.274e-10
 24.13995    219.3 1.312e+04 4.195e-10
 24.15513    220.1 1.317e+04 4.225e-10
 24.16520    221.6 1.286e+04 3.777e-10
 24.17427    222.9 1.313e+04 4.038e-10
 24.18435    221.0 1.334e+04 4.485e-10
 24.20039    222.0 1.374e+04 5.020e-10
 24.22053    222.7 1.424e+04 5.868e-10
 24.23802    223.1 1.488e+04 7.227e-10
 24.24809    225.6 1.470e+04 6.914e-10
 24.26082    225.9 1.558e+04 8.957e-10
 24.28097    226.1 1.668e+04 1.231e-09
 24.30112    225.7 1.799e+04 1.737e-09
 24.32091    224.9 1.943e+04 2.437e-09
 24.33098    227.2 2.017e+04 2.831e-09
 24.34141    226.4 2.159e+04 3.880e-09
 24.36155    225.2 2.291e+04 4.305e-09
 24.38170    223.3 2.316e+04 4.247e-09
 24.39776    220.7 2.330e+04 3.922e-09
 24.40784    214.8 2.268e+04 3.634e-09
 24.41387    211.5 2.214e+04 2.843e-09
 24.42395    215.5 2.282e+04 3.003e-09
 24.44213    211.3 2.119e+04 2.133e-09
 24.46228    203.7 4.429e+04 9.759e-10
 24.48243    112.9 5.422e+05 5.705e-11
 24.49676     78.8 7.367e+05 4.439e-11
 24.50175      7.8 1.447e+05 5.347e-09
 24.50751      2.5 1.858e+05 2.033e-09
 24.51445      5.3 1.892e+05 1.835e-09
 24.51948     13.1 2.226e+05 1.137e-09
 24.52766     32.8 3.031e+05 3.783e-10
 24.53773     50.6 4.378e+05 9.764e-11
 24.54315    147.6 6.049e+05 1.834e-11
 24.54818    125.9 5.887e+05 1.885e-11
 24.55787    167.6 3.385e+05 8.393e-11
 24.56795    173.4 1.918e+05 2.401e-10
 24.57802    163.1 1.374e+05 4.689e-10
 24.58459     74.4 4.090e+05 1.704e-10
 24.58963     71.8 4.431e+05 2.414e-10
 24.59562     24.4 4.197e+05 4.549e-10
 24.60064     -6.7 1.060e+05 2.367e-08
 24.60527    -34.6 1.799e+04 4.045e-05
 24.60778    -40.7 1.548e+04 1.311e-04
 24.61071    -61.1 2.226e+04 1.470e-05
 24.61574    -63.5 2.095e+05 3.289e-09
 24.62078    -67.1 4.279e+05 3.970e-10
 24.62582    -87.7 3.869e+05 4.297e-10
 24.62851   -119.7 2.751e+05 5.760e-10
 24.62883   -101.5 3.511e+05 3.719e-10
 24.63118    -97.5 3.626e+05 3.651e-10
 24.63843   -114.5 3.696e+05 2.524e-10
 24.64853   -149.1 1.445e+05 9.612e-10
 24.65860   -164.3 2.681e+04 7.610e-09
 24.66748   -165.2 2.382e+04 6.507e-09
 24.67252   -166.6 2.428e+04 5.804e-09
 24.67875   -167.4 2.289e+04 5.070e-09
 24.68882   -168.1 2.199e+04 4.282e-09
 24.69889   -168.6 2.112e+04 3.682e-09
 24.70893   -169.0 2.038e+04 3.184e-09
 24.72409   -170.1 1.942e+04 2.658e-09
 24.74432   -171.1 1.782e+04 1.991e-09
 24.75551   -171.8 1.796e+04 1.849e-09
 24.76558   -174.4 2.019e+04 3.029e-09
 24.78461   -174.4 1.928e+04 2.839e-09
 24.80476   -174.6 1.851e+04 2.535e-09
 24.82490   -174.5 1.817e+04 2.398e-09
 24.83840   -174.3 1.795e+04 2.533e-09
 24.84816   -175.1 1.795e+04 2.777e-09
 24.85481   -173.6 1.758e+04 2.377e-09
 24.86519   -172.8 1.736e+04 2.471e-09
 24.88534   -171.6 1.737e+04 2.651e-09
 24.90548   -170.2 1.746e+04 2.837e-09
 24.92129   -168.7 1.750e+04 2.933e-09
 24.93136   -169.0 1.630e+04 2.040e-09
 24.94578   -167.8 1.600e+04 1.839e-09
 24.96592   -166.4 1.560e+04 1.604e-09
 24.98607   -165.2 1.511e+04 1.399e-09
 25.00418   -163.9 1.470e+04 1.275e-09
 25.01425   -163.4 1.391e+04 8.503e-10
 25.02636   -162.3 1.380e+04 8.376e-10
 25.04650   -161.0 1.373e+04 8.543e-10
 25.06665   -159.7 1.374e+04 9.979e-10
 25.07830   -158.2 1.389e+04 1.219e-09
 25.08838   -157.4 1.371e+04 1.155e-09
 25.09714   -155.7 1.384e+04 1.307e-09
 25.10721   -155.3 1.341e+04 1.052e-09
 25.12709   -153.6 1.358e+04 1.217e-09
 25.14723   -152.1 1.369e+04 1.291e-09
 25.16738   -150.9 1.364e+04 1.301e-09
 25.18003   -149.8 1.343e+04 1.157e-09
 25.19010   -149.1 1.330e+04 1.121e-09
 25.20767   -148.2 1.307e+04 9.773e-10
 25.22781   -147.5 1.273e+04 8.181e-10
 25.24796   -147.0 1.240e+04 6.914e-10
 25.26292   -146.6 1.213e+04 6.038e-10
 25.27299   -145.9 1.220e+04 6.224e-10
 25.28825   -145.6 1.203e+04 5.764e-10
 25.30179   -145.4 1.193e+04 5.552e-10
 25.31187   -144.5 1.220e+04 6.742e-10
 25.32854   -144.2 1.217e+04 6.720e-10
 25.34581   -143.9 1.212e+04 6.710e-10
 25.35588   -143.4 1.230e+04 7.291e-10
 25.36883   -143.2 1.225e+04 7.344e-10
 25.38898   -143.2 1.212e+04 7.335e-10
 25.40912   -143.1 1.195e+04 7.275e-10
 25.42870   -142.9 1.176e+04 7.160e-10
 25.43877   -142.7 1.209e+04 8.145e-10
 25.44942   -142.5 1.189e+04 8.059e-10
 25.46956   -142.1 1.166e+04 7.688e-10
 25.48971   -141.6 1.139e+04 6.865e-10
 25.50985   -141.1 1.109e+04 5.746e-10
 25.52166   -140.5 1.082e+04 4.654e-10
 25.52702   -140.3 1.095e+04 5.293e-10
 25.53536   -139.6 1.111e+04 5.622e-10
 25.55014   -139.1 1.080e+04 4.361e-10
 25.58046   -139.4 1.060e+04 3.576e-10
 25.62085   -140.9 1.038e+04 3.130e-10
 25.66114   -141.7 1.020e+04 2.855e-10
 25.68764   -141.6 1.015e+04 2.821e-10
 25.70779   -140.8 9.862e+03 2.176e-10
 25.73889   -140.6 9.858e+03 2.207e-10
 25.75904   -139.1 9.937e+03 2.359e-10
 25.78201   -138.4 1.007e+04 2.587e-10
 25.82231   -137.8 1.018e+04 2.815e-10
 25.85342   -137.4 1.032e+04 3.013e-10
 25.87357   -136.7 9.995e+03 2.404e-10
 25.90289   -137.2 1.049e+04 3.091e-10
 25.94318   -139.2 1.142e+04 5.043e-10
 25.98347   -141.4 1.227e+04 9.098e-10
 26.01920   -143.1 1.267e+04 1.311e-09
 26.03935   -141.3 1.222e+04 9.684e-10
 26.05388   -142.0 1.251e+04 1.220e-09
 26.07393   -142.4 1.251e+04 1.246e-09
 26.09408   -143.4 1.241e+04 1.253e-09
 26.11197   -144.0 1.220e+04 9.727e-10
 26.12204   -143.3 1.218e+04 1.004e-09
 26.13437   -144.8 1.197e+04 8.131e-10
 26.15451   -146.7 1.185e+04 6.774e-10
 26.17466   -148.8 1.169e+04 6.134e-10
 26.19480   -150.9 1.158e+04 5.926e-10
 26.20582   -152.2 1.171e+04 6.531e-10
 26.21590   -151.0 1.173e+04 6.113e-10
 26.23510   -153.1 1.167e+04 6.543e-10
 26.25524   -155.1 1.165e+04 7.166e-10
 26.27539   -157.0 1.161e+04 7.760e-10
 26.28782   -158.8 1.156e+04 8.118e-10
 26.29789   -157.9 1.158e+04 8.127e-10
 26.31568   -159.5 1.152e+04 8.165e-10
 26.33582   -160.7 1.132e+04 8.062e-10
 26.35597   -161.7 1.108e+04 7.450e-10
 26.37071   -162.7 1.083e+04 6.544e-10
 26.38078   -161.9 1.084e+04 6.549e-10
 26.39626   -162.9 1.061e+04 5.716e-10
 26.41641   -164.0 1.046e+04 5.175e-10
 26.42931   -165.1 1.042e+04 5.018e-10
 26.43939   -164.6 1.049e+04 5.153e-10
 26.45360   -165.7 1.050e+04 5.180e-10
 26.46367   -164.7 1.034e+04 4.912e-10
 26.47684   -165.6 1.039e+04 5.173e-10
 26.49699   -166.2 1.050e+04 5.807e-10
 26.51713   -166.5 1.060e+04 6.453e-10
 26.53649   -166.7 1.069e+04 6.982e-10
 26.54656   -165.7 1.031e+04 5.676e-10
 26.55743   -165.8 1.035e+04 5.851e-10
 26.57757   -166.1 1.048e+04 6.172e-10
 26.59772   -166.7 1.078e+04 6.978e-10
 26.61786   -167.5 1.130e+04 8.772e-10
 26.62945   -168.3 1.194e+04 1.201e-09
 26.63953   -167.5 1.133e+04 8.525e-10
 26.65280   -168.2 1.202e+04 1.232e-09
 26.66287   -167.4 1.221e+04 1.278e-09
 26.67830   -167.9 1.290e+04 1.852e-09
 26.69845   -168.2 1.340e+04 2.417e-09
 26.71235   -168.7 1.364e+04 2.725e-09
 26.72242   -168.3 1.318e+04 2.255e-09
 26.73874   -168.8 1.326e+04 2.371e-09
 26.75888   -169.3 1.322e+04 2.365e-09
 26.77903   -169.8 1.283e+04 2.044e-09
 26.79524   -170.3 1.225e+04 1.591e-09
 26.80531   -169.7 1.213e+04 1.572e-09
 26.81932   -170.3 1.159e+04 1.237e-09
 26.83946   -171.0 1.116e+04 1.012e-09
 26.85961   -171.6 1.086e+04 8.780e-10
 26.87629   -172.1 1.067e+04 7.915e-10
 26.88473   -171.4 1.085e+04 8.607e-10
 26.88820   -170.8 1.074e+04 8.231e-10
 26.89990   -171.1 1.051e+04 7.330e-10
 26.92005   -171.2 1.025e+04 6.384e-10
 26.94019   -171.0 9.954e+03 5.387e-10
 26.96034   -170.7 9.696e+03 4.534e-10
 26.97109   -170.2 9.592e+03 4.004e-10
 26.98116   -168.7 9.621e+03 3.804e-10
 27.00063   -168.7 9.637e+03 3.786e-10
 27.03095   -169.6 9.675e+03 3.791e-10
 27.05417   -169.7 9.724e+03 3.842e-10
 27.07432   -168.9 9.657e+03 3.499e-10
 27.09998   -168.6 9.702e+03 3.554e-10
 27.12012   -167.5 9.775e+03 3.795e-10
 27.13697   -167.9 9.803e+03 4.035e-10
 27.14694   -167.0 9.783e+03 3.829e-10
 27.16179   -167.1 9.801e+03 3.913e-10
 27.18194   -166.9 9.805e+03 4.119e-10
 27.20209   -167.0 9.842e+03 4.412e-10
 27.21976   -167.1 9.877e+03 4.841e-10
 27.22983   -165.9 9.801e+03 4.231e-10
 27.24238   -165.9 9.833e+03 4.469e-10
 27.26252   -165.7 9.880e+03 4.857e-10
 27.28267   -165.5 9.908e+03 4.986e-10
 27.30265   -164.9 9.924e+03 5.018e-10
 27.31272   -164.2 9.846e+03 4.688e-10
 27.32296   -163.8 9.859e+03 4.656e-10
 27.35328   -163.1 9.876e+03 4.457e-10
 27.38573   -162.8 9.801e+03 3.946e-10
 27.40588   -161.3 9.806e+03 4.152e-10
 27.43396   -161.0 9.587e+03 3.495e-10
 27.47425   -160.4 9.299e+03 2.842e-10
 27.51454   -159.3 9.051e+03 2.384e-10
 27.54695   -158.0 8.936e+03 2.190e-10
 27.56379   -157.6 9.071e+03 2.438e-10
 27.57166   -156.3 9.031e+03 2.378e-10
 27.59512   -154.9 8.969e+03 2.264e-10
 27.63541   -153.4 8.966e+03 2.253e-10
 27.67570   -152.0 9.057e+03 2.363e-10
 27.71599   -150.8 9.190e+03 2.562e-10
 27.73744   -149.7 9.244e+03 2.672e-10
 27.75759   -148.2 9.365e+03 2.834e-10
 27.79658   -147.2 9.410e+03 2.924e-10
 27.83687   -146.1 9.400e+03 2.914e-10
 27.87716   -145.0 9.338e+03 2.678e-10
 27.90322   -143.8 9.248e+03 2.341e-10
 27.92337   -142.4 9.525e+03 2.979e-10
 27.95774   -141.1 9.462e+03 2.691e-10
 27.99393   -139.8 9.384e+03 2.363e-10
 28.01408   -139.3 9.400e+03 2.452e-10
 28.03832   -138.0 9.288e+03 2.071e-10
 28.06900   -136.8 9.135e+03 1.716e-10
 28.08915   -135.4 9.530e+03 2.417e-10
 28.11891   -134.2 9.370e+03 1.945e-10
 28.15920   -133.1 9.220e+03 1.674e-10
 28.19949   -132.1 9.170e+03 1.600e-10
 28.23478   -131.1 9.215e+03 1.709e-10
 28.25493   -130.2 9.533e+03 2.052e-10
 28.28007   -129.8 9.613e+03 2.176e-10
 28.32036   -129.7 9.824e+03 2.497e-10
 28.36065   -129.9 1.011e+04 2.876e-10
 28.40056   -130.8 1.050e+04 3.483e-10
 28.42061   -130.3 1.055e+04 3.944e-10
 28.43097   -131.1 1.083e+04 4.821e-10
 28.45079   -131.7 1.118e+04 6.224e-10
 28.46086   -131.8 1.147e+04 7.805e-10
 28.47126   -132.4 1.176e+04 9.339e-10
 28.49141   -133.1 1.198e+04 1.052e-09
 28.50340   -134.1 1.208e+04 1.101e-09
 28.51348   -133.8 1.203e+04 1.071e-09
 28.53170   -134.8 1.204e+04 1.074e-09
 28.55184   -135.8 1.195e+04 1.014e-09
 28.57199   -136.7 1.179e+04 9.186e-10
 28.58629   -137.6 1.162e+04 8.123e-10
 28.59637   -137.3 1.156e+04 7.947e-10
 28.61228   -138.0 1.137e+04 6.898e-10
 28.63243   -138.7 1.115e+04 5.738e-10
 28.65257   -139.2 1.089e+04 4.553e-10
 28.68289   -140.0 1.057e+04 3.446e-10
 28.72328   -140.8 1.025e+04 2.708e-10
 28.75227   -141.4 1.001e+04 2.350e-10
 28.77241   -139.8 9.778e+03 1.905e-10
 28.80386   -139.8 9.713e+03 1.820e-10
 28.84415   -139.7 9.744e+03 1.936e-10
 28.88444   -139.7 1.007e+04 2.802e-10
 28.90804   -139.4 1.050e+04 4.284e-10
 28.92150   -139.0 1.080e+04 4.806e-10
 28.93820   -137.4 1.071e+04 4.273e-10
 28.96502   -137.2 1.101e+04 5.660e-10
 29.00531   -137.1 1.117e+04 6.488e-10
 29.03544   -136.8 1.117e+04 6.692e-10
 29.05548   -136.6 1.112e+04 6.692e-10
 29.07563   -136.4 1.093e+04 6.527e-10
 29.09371   -136.0 1.082e+04 6.100e-10
 29.10378   -135.4 1.089e+04 6.307e-10
 29.11592   -135.2 1.085e+04 6.028e-10
 29.13133   -135.1 1.085e+04 5.871e-10
 29.14140   -135.3 1.090e+04 5.974e-10
 29.15621   -135.3 1.094e+04 5.981e-10
 29.17636   -135.5 1.102e+04 6.148e-10
 29.18667   -135.6 1.112e+04 6.497e-10
 29.19674   -135.1 1.148e+04 7.978e-10
 29.21665   -135.2 1.165e+04 8.744e-10
 29.23679   -135.4 1.183e+04 9.562e-10
 29.25694   -135.5 1.200e+04 1.033e-09
 29.26956   -135.7 1.213e+04 1.096e-09
 29.27963   -135.3 1.259e+04 1.383e-09
 29.29723   -135.5 1.262e+04 1.406e-09
 29.31738   -135.7 1.262e+04 1.410e-09
 29.33752   -135.7 1.258e+04 1.397e-09
 29.35245   -135.6 1.257e+04 1.386e-09
 29.35968   -135.3 1.275e+04 1.538e-09
 29.36489   -135.7 1.290e+04 1.636e-09
 29.37781   -135.7 1.284e+04 1.583e-09
 29.39796   -135.4 1.281e+04 1.550e-09
 29.41810   -135.0 1.273e+04 1.527e-09
 29.43534   -134.6 1.262e+04 1.468e-09
 29.44541   -134.2 1.232e+04 1.313e-09
 29.45840   -133.6 1.218e+04 1.227e-09
 29.47854   -133.0 1.202e+04 1.133e-09
 29.49869   -132.3 1.190e+04 1.053e-09
 29.51823   -131.6 1.189e+04 1.017e-09
 29.52830   -130.9 1.133e+04 7.919e-10
 29.53898   -130.1 1.133e+04 7.820e-10
 29.55912   -129.5 1.138e+04 7.858e-10
 29.57831   -129.2 1.197e+04 8.555e-10
 29.58838   -129.2 1.150e+04 7.022e-10
 29.59942   -129.8 1.263e+04 9.626e-10
 29.61119   -130.6 1.374e+04 1.492e-09
 29.62127   -128.9 1.288e+04 9.134e-10
 29.63971   -129.0 1.384e+04 1.517e-09
 29.65985   -128.4 1.422e+04 2.367e-09
 29.68000   -127.8 1.501e+04 3.058e-09
 29.69408   -132.1 2.672e+04 2.597e-09
 29.70416   -132.3 2.703e+04 2.535e-09
 29.71520   -159.9 6.154e+04 2.076e-09
 29.72523   -175.3 7.631e+04 3.004e-09
 29.73530   -190.8 4.573e+04 4.680e-08
 29.74047   -200.6 2.467e+04 7.197e-07
 29.74550   -191.6 2.688e+04 3.941e-07
 29.75290   -194.4 2.338e+04 6.791e-07
 29.75585   -196.6 2.186e+04 1.043e-06
 29.75837   -199.9 2.078e+04 1.573e-06
 29.76114   -204.2 2.110e+04 1.823e-06
 29.76366   -200.2 2.184e+04 1.200e-06
 29.76799   -206.0 2.357e+04 9.857e-07
 29.77303   -214.8 2.993e+04 3.867e-07
 29.77806   -225.3 4.428e+04 7.296e-08
 29.78186   -234.7 5.897e+04 1.842e-08
 29.78693   -231.1 5.388e+04 2.167e-08
 29.79574   -260.9 6.664e+04 3.813e-09
 29.80581   -299.1 3.788e+04 1.446e-09
 29.81177   -313.0 1.744e+04 1.576e-09
 29.81681   -313.0 1.497e+04 1.373e-09
 29.82336   -314.8 1.495e+04 1.397e-09
 29.82839   -314.7 1.495e+04 1.393e-09
 29.84111   -318.1 1.508e+04 1.572e-09
 29.85986   -323.3 1.481e+04 1.928e-09
 29.86994   -322.3 1.473e+04 1.893e-09
 29.88145   -326.4 1.503e+04 2.370e-09
 29.90160   -329.1 1.557e+04 2.746e-09
 29.92175   -331.3 1.568e+04 2.953e-09
 29.94189   -333.1 1.568e+04 2.988e-09
 29.95283   -334.1 1.539e+04 2.964e-09
 29.96290   -333.8 1.640e+04 3.680e-09
 29.98218   -334.4 1.570e+04 3.268e-09
 30.00233   -334.5 1.491e+04 2.656e-09
 30.02247   -334.3 1.413e+04 2.103e-09
 30.03536   -334.1 1.340e+04 1.671e-09
 30.03853   -332.8 1.294e+04 1.466e-09
 30.04579   -332.9 1.332e+04 1.625e-09
 30.06277   -332.8 1.263e+04 1.282e-09
 30.08291   -332.5 1.204e+04 1.033e-09
 30.10306   -331.7 1.152e+04 8.514e-10
 30.11861   -330.7 1.109e+04 7.283e-10
 30.12868   -331.1 1.131e+04 8.294e-10
 30.14335   -329.9 1.101e+04 7.481e-10
 30.16349   -328.7 1.084e+04 7.061e-10
 30.18364   -327.5 1.076e+04 6.907e-10
 30.20150   -326.3 1.074e+04 6.878e-10
 30.21157   -326.4 1.089e+04 7.606e-10
 30.22393   -325.1 1.089e+04 7.615e-10
 30.24408   -324.1 1.093e+04 7.766e-10
 30.25885   -323.1 1.102e+04 8.062e-10
 30.26892   -322.7 1.092e+04 7.685e-10
 30.28437   -321.8 1.103e+04 8.076e-10
 30.30451   -320.9 1.119e+04 8.686e-10
 30.32466   -320.1 1.129e+04 9.154e-10
 30.34480   -319.3 1.140e+04 9.633e-10
 30.36495   -318.6 1.150e+04 1.010e-09
 30.37735   -317.9 1.159e+04 1.056e-09
 30.38742   -317.9 1.159e+04 1.058e-09
 30.40524   -317.3 1.170e+04 1.110e-09
 30.42539   -316.7 1.181e+04 1.169e-09
 30.44553   -316.2 1.194e+04 1.234e-09
 30.46024   -315.8 1.204e+04 1.287e-09
 30.47031   -315.8 1.216e+04 1.357e-09
 30.48234   -315.5 1.231e+04 1.446e-09
 30.49241   -314.8 1.227e+04 1.426e-09
 30.50597   -314.6 1.237e+04 1.488e-09
 30.52611   -314.5 1.243e+04 1.531e-09
 30.54313   -314.4 1.245e+04 1.560e-09
 30.55320   -314.5 1.256e+04 1.647e-09
 30.56641   -314.5 1.255e+04 1.648e-09
 30.58655   -314.4 1.247e+04 1.633e-09
 30.60670   -314.2 1.239e+04 1.587e-09
 30.62602   -314.0 1.232e+04 1.538e-09
 30.63609   -314.3 1.206e+04 1.403e-09
 30.64699   -314.2 1.189e+04 1.298e-09
 30.66713   -314.0 1.178e+04 1.220e-09
 30.68728   -314.0 1.174e+04 1.174e-09
 30.70583   -314.1 1.174e+04 1.161e-09
 30.71590   -313.6 1.194e+04 1.218e-09
 30.71898   -315.0 1.292e+04 1.354e-09
 30.72906   -315.7 1.176e+04 9.980e-10
 30.74772   -317.4 1.279e+04 1.200e-09
 30.76786   -319.0 1.416e+04 1.700e-09
 30.78801   -320.2 1.546e+04 2.439e-09
 30.80188   -320.9 1.623e+04 3.171e-09
 30.81195   -322.1 1.390e+04 1.664e-09
 30.82830   -322.6 1.414e+04 1.894e-09
 30.84844   -322.8 1.440e+04 2.117e-09
 30.86859   -322.6 1.443e+04 2.184e-09
 30.88477   -322.5 1.410e+04 2.179e-09
 30.89484   -323.2 1.288e+04 1.408e-09
 30.90888   -322.9 1.259e+04 1.352e-09
 30.92903   -322.4 1.235e+04 1.258e-09
 30.93939   -321.7 1.209e+04 1.159e-09
 30.94946   -323.0 1.243e+04 1.355e-09
 30.96766   -322.0 1.212e+04 1.197e-09
 30.97773   -322.2 1.206e+04 1.145e-09
 30.98946   -321.1 1.182e+04 1.051e-09
 31.00961   -319.9 1.160e+04 9.777e-10
 31.02976   -318.6 1.139e+04 9.151e-10
 31.04990   -317.3 1.119e+04 8.560e-10
 31.06062   -316.0 1.099e+04 7.948e-10
 31.07069   -316.1 1.102e+04 7.941e-10
 31.09019   -314.9 1.081e+04 7.333e-10
 31.11034   -313.7 1.061e+04 6.788e-10
 31.13048   -312.7 1.045e+04 6.310e-10
 31.14351   -311.8 1.042e+04 6.041e-10
 31.15358   -313.7 1.171e+04 6.887e-10
 31.16288   -314.4 1.299e+04 7.923e-10
 31.17295   -317.9 1.563e+04 1.453e-09
 31.19092   -318.5 1.644e+04 2.193e-09
 31.21107   -318.7 1.698e+04 3.262e-09
 31.22640   -318.7 1.742e+04 4.634e-09
 31.23647   -320.1 1.844e+04 8.723e-09
 31.25136   -320.0 1.858e+04 9.717e-09
 31.27150   -320.1 1.871e+04 1.032e-08
 31.29165   -320.4 1.892e+04 1.118e-08
 31.30929   -320.6 1.908e+04 1.206e-08
 31.31936   -321.4 1.842e+04 8.141e-09
 31.33194   -321.7 1.816e+04 6.660e-09
 31.35209   -322.0 1.784e+04 5.225e-09
 31.37223   -322.3 1.744e+04 3.914e-09
 31.38637   -322.5 1.696e+04 2.797e-09
 31.39625   -324.9 1.551e+04 1.141e-09
 31.40225   -327.2 1.308e+04 3.535e-10
 31.41252   -327.2 1.271e+04 2.926e-10
 31.43267   -327.1 1.237e+04 2.601e-10
 31.45281   -327.0 1.206e+04 2.497e-10
 31.47296   -326.8 1.193e+04 2.528e-10
 31.48514   -326.6 1.183e+04 2.689e-10
 31.49522   -325.9 1.179e+04 2.381e-10
 31.51325   -325.4 1.184e+04 2.569e-10
 31.53340   -324.9 1.190e+04 2.778e-10
 31.55354   -324.3 1.195e+04 2.942e-10
 31.58386   -323.6 1.198e+04 3.039e-10
 31.61005   -323.0 1.201e+04 3.140e-10
 31.63020   -324.8 1.185e+04 2.839e-10
 31.65112   -324.1 1.172e+04 2.584e-10
 31.67126   -323.9 1.137e+04 2.327e-10
 31.70483   -323.0 1.131e+04 2.214e-10
 31.74512   -322.2 1.131e+04 2.183e-10
 31.78541   -321.7 1.133e+04 2.196e-10
 31.81690   -321.4 1.156e+04 2.399e-10
 31.83704   -320.0 1.136e+04 2.374e-10
 31.86599   -319.7 1.156e+04 2.978e-10
 31.90629   -319.4 1.172e+04 3.851e-10
 31.94658   -319.0 1.182e+04 4.763e-10
 31.98268   -318.6 1.182e+04 5.424e-10
 32.00282   -317.1 1.174e+04 5.518e-10
 32.02716   -316.9 1.175e+04 5.648e-10
 32.05703   -316.7 1.169e+04 5.619e-10
 32.07718   -316.7 1.146e+04 5.157e-10
 32.10774   -316.3 1.123e+04 4.308e-10
 32.14803   -315.6 1.095e+04 3.653e-10
 32.16860   -314.5 1.082e+04 3.334e-10
 32.18875   -313.7 1.071e+04 3.164e-10
 32.22862   -312.7 1.062e+04 3.062e-10
 32.26891   -311.3 1.060e+04 3.075e-10
 32.30920   -309.9 1.065e+04 3.363e-10
 32.33439   -308.5 1.075e+04 3.757e-10
 32.35453   -307.5 1.056e+04 3.304e-10
 32.38978   -306.2 1.060e+04 3.517e-10
 32.43007   -305.0 1.060e+04 3.566e-10
 32.47036   -304.0 1.059e+04 3.541e-10
 32.50017   -302.9 1.050e+04 3.257e-10
 32.51367   -302.0 1.045e+04 3.226e-10
 32.52416   -302.6 1.040e+04 2.913e-10
 32.55095   -301.7 1.030e+04 2.645e-10
 32.59124   -300.9 1.025e+04 2.511e-10
 32.63153   -300.2 1.024e+04 2.523e-10
 32.66595   -299.6 1.037e+04 2.739e-10
 32.68609   -299.6 1.057e+04 3.495e-10
 32.71211   -299.3 1.076e+04 4.035e-10
 32.75240   -299.0 1.086e+04 4.531e-10
 32.79269   -298.8 1.087e+04 4.733e-10
 32.83173   -298.6 1.086e+04 4.742e-10
 32.85187   -298.6 1.112e+04 5.906e-10
 32.87328   -297.9 1.092e+04 5.747e-10
 32.91357   -297.0 1.068e+04 5.163e-10
 32.95099   -295.9 1.044e+04 4.422e-10
 32.97114   -296.0 1.088e+04 6.109e-10
 32.99415   -295.0 1.070e+04 5.443e-10
 33.01765   -293.9 1.050e+04 4.625e-10
 33.03780   -293.5 1.113e+04 7.399e-10
 33.07473   -292.4 1.089e+04 6.321e-10
 33.11502   -291.2 1.061e+04 5.052e-10
 33.15531   -289.9 1.028e+04 3.911e-10
 33.18343   -288.6 9.984e+03 3.043e-10
 33.20358   -288.4 1.064e+04 5.557e-10
 33.23590   -287.1 1.039e+04 4.617e-10
 33.27619   -285.8 1.016e+04 3.850e-10
 33.31648   -284.4 9.925e+03 3.217e-10
 33.34921   -282.9 9.718e+03 2.720e-10
 33.36936   -282.9 1.009e+04 4.149e-10
 33.39706   -281.3 9.813e+03 3.340e-10
 33.41811   -279.6 9.669e+03 2.874e-10
 33.43826   -279.8 9.698e+03 2.953e-10
 33.47764   -278.0 9.588e+03 2.599e-10
 33.51499   -276.1 9.575e+03 2.500e-10
 33.53514   -276.3 9.643e+03 2.707e-10
 33.55823   -274.6 9.638e+03 2.660e-10
 33.59852   -273.1 9.703e+03 2.693e-10
 33.63881   -271.9 9.861e+03 2.956e-10
 33.67910   -270.8 1.002e+04 3.295e-10
 33.70092   -269.8 1.014e+04 3.575e-10
 33.72106   -269.7 1.006e+04 3.320e-10
 33.75968   -268.9 1.020e+04 3.602e-10
 33.79997   -268.2 1.026e+04 3.691e-10
 33.84027   -267.4 1.028e+04 3.666e-10
 33.86509   -266.5 1.024e+04 3.364e-10
 33.87138   -266.7 1.047e+04 3.769e-10
 33.88685   -266.6 1.070e+04 4.585e-10
 33.92085   -265.7 1.071e+04 4.602e-10
 33.96114   -264.5 1.068e+04 4.511e-10
 34.00143   -263.1 1.066e+04 4.421e-10
 34.03248   -261.7 1.066e+04 4.410e-10
 34.05263   -261.5 1.079e+04 5.054e-10
 34.08201   -260.4 1.087e+04 5.183e-10
 34.12230   -259.9 1.129e+04 6.298e-10
 34.16260   -259.8 1.180e+04 8.373e-10
 34.19826   -260.0 1.227e+04 1.079e-09
 34.21841   -260.1 1.231e+04 1.079e-09
 34.24318   -261.0 1.267e+04 1.320e-09
 34.27330   -261.9 1.294e+04 1.585e-09
 34.29103   -262.4 1.316e+04 1.832e-09
 34.30110   -262.3 1.322e+04 1.895e-09
 34.31188   -262.7 1.368e+04 2.356e-09
 34.32195   -263.1 1.376e+04 2.590e-09
 34.33364   -263.5 1.423e+04 3.091e-09
 34.35378   -264.1 1.469e+04 3.636e-09
 34.37392   -265.0 1.507e+04 4.012e-09
 34.39406   -265.7 1.506e+04 4.002e-09
 34.41422   -266.4 1.511e+04 3.728e-09
 34.43437   -267.2 1.503e+04 3.255e-09
 34.45451   -268.0 1.485e+04 2.789e-09
 34.46688   -268.7 1.454e+04 2.367e-09
 34.47695   -268.2 1.427e+04 2.128e-09
 34.49480   -268.5 1.392e+04 1.815e-09
 34.51495   -268.6 1.354e+04 1.547e-09
 34.53509   -268.6 1.315e+04 1.308e-09
 34.54544   -268.4 1.279e+04 1.102e-09
 34.55004   -268.6 1.264e+04 1.138e-09
 34.55984   -267.9 1.246e+04 1.023e-09
 34.57539   -267.4 1.234e+04 9.581e-10
 34.59553   -266.9 1.236e+04 9.223e-10
 34.61568   -266.4 1.241e+04 9.161e-10
 34.63266   -266.0 1.264e+04 9.671e-10
 34.64273   -265.0 1.225e+04 7.811e-10
 34.65597   -264.6 1.252e+04 8.351e-10
 34.67611   -264.2 1.279e+04 9.442e-10
 34.69626   -263.9 1.303e+04 1.127e-09
 34.71555   -263.6 1.320e+04 1.388e-09
 34.72562   -262.7 1.289e+04 1.035e-09
 34.73655   -262.4 1.309e+04 1.322e-09
 34.75670   -262.0 1.328e+04 1.702e-09
 34.76893   -261.4 1.347e+04 2.140e-09
 34.77900   -261.3 1.385e+04 3.012e-09
 34.79699   -260.6 1.395e+04 3.187e-09
 34.80851   -259.9 1.397e+04 3.194e-09
 34.81859   -259.3 1.391e+04 3.107e-09
 34.83728   -258.6 1.394e+04 3.121e-09
 34.85742   -258.0 1.386e+04 2.906e-09
 34.87757   -257.4 1.372e+04 2.664e-09
 34.89141   -256.8 1.350e+04 2.294e-09
 34.90148   -256.2 1.351e+04 2.321e-09
 34.91786   -255.5 1.321e+04 1.908e-09
 34.93801   -255.0 1.287e+04 1.528e-09
 34.95815   -254.4 1.251e+04 1.207e-09
 34.97430   -253.8 1.216e+04 9.660e-10
 34.98437   -253.1 1.218e+04 9.707e-10
 34.99242   -252.5 1.188e+04 8.013e-10
 35.00249   -252.7 1.162e+04 6.873e-10
 35.01859   -252.0 1.141e+04 6.136e-10
 35.03874   -251.1 1.125e+04 5.703e-10
 35.05719   -250.2 1.114e+04 5.514e-10
 35.06726   -249.5 1.107e+04 5.220e-10
 35.07903   -248.4 1.101e+04 5.019e-10
 35.09917   -247.4 1.101e+04 4.968e-10
 35.11932   -246.3 1.102e+04 4.971e-10
 35.13946   -245.4 1.109e+04 5.111e-10
 35.15015   -244.6 1.115e+04 5.266e-10
 35.16022   -243.3 1.107e+04 4.469e-10
 35.17975   -242.7 1.110e+04 4.522e-10
 35.19990   -241.8 1.112e+04 4.553e-10
 35.21591   -241.2 1.112e+04 4.564e-10
 35.22598   -241.7 1.119e+04 4.491e-10
 35.23304   -241.0 1.123e+04 4.705e-10
 35.25328   -240.0 1.118e+04 3.909e-10
 35.29075   -238.9 1.118e+04 4.068e-10
 35.33104   -238.1 1.112e+04 4.159e-10
 35.37133   -237.3 1.102e+04 4.066e-10
 35.39901   -235.8 1.086e+04 3.902e-10
 35.41916   -234.6 1.082e+04 3.375e-10
 35.45192   -233.3 1.063e+04 3.295e-10
 35.49221   -231.9 1.046e+04 3.044e-10
 35.53250   -230.4 1.029e+04 2.769e-10
 35.56479   -228.9 1.019e+04 2.569e-10
 35.58494   -228.1 1.017e+04 2.600e-10
 35.61308   -226.7 1.015e+04 2.567e-10
 35.65301   -225.6 1.014e+04 2.621e-10
 35.67315   -226.4 1.020e+04 2.713e-10
 35.69366   -225.5 1.022e+04 2.742e-10
 35.73058   -224.8 1.018e+04 2.804e-10
 35.75072   -224.0 1.013e+04 2.768e-10
 35.77425   -223.2 1.000e+04 2.703e-10
 35.81454   -222.2 9.913e+03 2.602e-10
 35.85483   -221.1 9.890e+03 2.563e-10
 35.89512   -220.1 9.896e+03 2.564e-10
 35.91650   -219.5 1.009e+04 2.954e-10
 35.93665   -218.0 9.905e+03 2.683e-10
 35.97570   -217.6 1.045e+04 3.972e-10
 36.01599   -217.3 1.112e+04 6.290e-10
 36.05628   -217.1 1.170e+04 9.217e-10
 36.08228   -217.3 1.215e+04 1.194e-09
 36.10243   -215.6 1.190e+04 1.113e-09
 36.12013   -216.0 1.224e+04 1.322e-09
 36.14028   -215.6 1.191e+04 1.046e-09
 36.17716   -216.1 1.207e+04 1.094e-09
 36.21745   -216.2 1.230e+04 1.189e-09
 36.24757   -215.5 1.248e+04 1.341e-09
 36.25794   -216.1 1.278e+04 1.516e-09
 36.26801   -215.3 1.262e+04 1.484e-09
 36.28776   -215.5 1.281e+04 1.625e-09
 36.30791   -216.1 1.303e+04 1.798e-09
 36.32806   -216.8 1.317e+04 1.943e-09
 36.34083   -217.6 1.319e+04 2.000e-09
 36.34613   -216.9 1.322e+04 1.978e-09
 36.35350   -216.2 1.337e+04 2.075e-09
 36.36835   -217.1 1.341e+04 2.111e-09
 36.38849   -218.0 1.339e+04 2.103e-09
 36.40864   -218.7 1.317e+04 1.967e-09
 36.42372   -219.0 1.284e+04 1.785e-09
 36.43379   -219.1 1.286e+04 1.702e-09
 36.44893   -219.3 1.251e+04 1.498e-09
 36.46907   -219.3 1.223e+04 1.389e-09
 36.48922   -219.2 1.209e+04 1.361e-09
 36.50661   -218.7 1.206e+04 1.357e-09
 36.51668   -218.9 1.194e+04 1.214e-09
 36.52951   -218.3 1.191e+04 1.253e-09
 36.54966   -217.7 1.208e+04 1.415e-09
 36.56692   -217.0 1.230e+04 1.598e-09
 36.57699   -217.0 1.281e+04 1.836e-09
 36.58950   -216.3 1.295e+04 2.035e-09
 36.59957   -216.3 1.258e+04 1.499e-09
 36.61009   -215.7 1.261e+04 1.573e-09
 36.63024   -215.0 1.260e+04 1.590e-09
 36.65039   -214.3 1.249e+04 1.585e-09
 36.67053   -213.6 1.226e+04 1.507e-09
 36.68246   -212.8 1.202e+04 1.386e-09
 36.69254   -212.9 1.190e+04 1.178e-09
 36.71082   -212.0 1.174e+04 1.138e-09
 36.73097   -211.0 1.160e+04 1.093e-09
 36.75111   -210.0 1.150e+04 1.041e-09
 36.76535   -208.9 1.142e+04 9.834e-10
 36.77543   -208.9 1.165e+04 1.080e-09
 36.79041   -207.8 1.167e+04 1.079e-09
 36.80048   -207.7 1.217e+04 1.440e-09
 36.81155   -206.4 1.219e+04 1.454e-09
 36.83170   -205.2 1.225e+04 1.440e-09
 36.84824   -203.9 1.227e+04 1.397e-09
 36.85832   -204.0 1.283e+04 1.939e-09
 36.87199   -202.8 1.303e+04 2.031e-09
 36.89213   -201.6 1.321e+04 2.089e-09
 36.91228   -200.4 1.337e+04 2.124e-09
 36.93113   -199.2 1.356e+04 2.156e-09
 36.94121   -199.4 1.458e+04 3.766e-09
 36.95257   -198.2 1.487e+04 4.027e-09
 36.97272   -197.1 1.515e+04 4.298e-09
 36.99286   -195.8 1.546e+04 4.628e-09
 37.01301   -194.4 1.583e+04 5.066e-09
 37.02397   -193.0 1.621e+04 5.609e-09
 37.02498   -192.9 1.600e+04 5.451e-09
 37.03417   -192.9 1.645e+04 6.350e-09
 37.05330   -191.8 1.684e+04 6.890e-09
 37.07344   -190.5 1.728e+04 7.638e-09
 37.09359   -189.4 1.779e+04 8.680e-09
 37.10699   -188.3 1.833e+04 1.007e-08
 37.11706   -188.4 1.847e+04 8.717e-09
 37.13388   -187.3 1.907e+04 1.014e-08
 37.15403   -186.4 1.963e+04 1.205e-08
 37.17417   -185.5 2.010e+04 1.435e-08
 37.18988   -184.6 2.045e+04 1.678e-08
 37.19995   -184.9 2.003e+04 7.718e-09
 37.21446   -184.1 2.012e+04 9.019e-09
 37.23461   -183.3 1.987e+04 1.010e-08
 37.24746   -182.3 1.959e+04 1.068e-08
 37.25753   -184.0 1.693e+04 5.317e-09
 37.27277   -182.7 1.676e+04 5.583e-09
 37.28284   -183.9 1.420e+04 1.877e-09
 37.29505   -182.6 1.430e+04 2.071e-09
 37.31519   -181.4 1.430e+04 2.186e-09
 37.33534   -180.2 1.426e+04 2.222e-09
 37.35548   -179.1 1.417e+04 2.227e-09
 37.36573   -178.0 1.417e+04 2.275e-09
 37.37580   -179.1 1.303e+04 1.136e-09
 37.39577   -177.8 1.328e+04 1.225e-09
 37.41592   -176.4 1.336e+04 1.372e-09
 37.43607   -175.0 1.325e+04 1.667e-09
 37.44862   -173.9 1.403e+04 2.230e-09
 37.45869   -175.6 1.283e+04 1.353e-09
 37.47095   -174.9 1.402e+04 1.953e-09
 37.48102   -174.6 1.305e+04 1.294e-09
 37.49650   -174.7 1.531e+04 2.220e-09
 37.51665   -174.8 1.847e+04 4.472e-09
 37.53151   -174.6 2.087e+04 9.365e-09
 37.54158   -176.1 1.899e+04 8.712e-09
 37.55694   -175.4 2.056e+04 1.558e-08
 37.57200   -174.3 2.158e+04 2.241e-08
 37.57789   -174.4 2.208e+04 2.750e-08
 37.58293   -175.2 2.064e+04 1.808e-08
 37.58763   -175.4 2.078e+04 1.889e-08
 37.59267   -176.7 2.123e+04 2.276e-08
 37.60217   -177.5 2.116e+04 2.280e-08
 37.61224   -178.0 2.064e+04 2.123e-08
 37.61934   -178.4 2.010e+04 1.769e-08
 37.62438   -178.9 1.901e+04 1.069e-08
 37.63239   -180.0 1.857e+04 8.676e-09
 37.64246   -181.6 1.804e+04 6.821e-09
 37.65253   -183.7 1.737e+04 5.340e-09
 37.66078   -185.9 1.669e+04 4.390e-09
 37.66582   -186.3 1.597e+04 3.369e-09
 37.67268   -188.5 1.557e+04 3.090e-09
 37.68275   -190.1 1.542e+04 2.991e-09
 37.69282   -192.5 1.510e+04 2.850e-09
 37.69937   -193.8 1.500e+04 2.803e-09
 37.70379   -192.9 1.538e+04 3.814e-09
 37.70736   -193.3 1.439e+04 2.649e-09
 37.71810   -195.7 1.410e+04 2.549e-09
 37.73825   -197.2 1.403e+04 2.562e-09
 37.75840   -197.6 1.406e+04 2.634e-09
 37.77854   -197.6 1.412e+04 2.673e-09
 37.79025   -197.3 1.414e+04 2.673e-09
 37.80033   -197.3 1.412e+04 2.519e-09
 37.81883   -197.0 1.411e+04 2.516e-09
 37.83898   -196.6 1.405e+04 2.471e-09
 37.85912   -196.2 1.398e+04 2.424e-09
 37.87314   -196.0 1.397e+04 2.402e-09
 37.88322   -196.0 1.381e+04 2.390e-09
 37.89941   -195.7 1.374e+04 2.388e-09
 37.91792   -195.3 1.372e+04 2.388e-09
 37.92800   -195.4 1.390e+04 2.530e-09
 37.93971   -195.1 1.406e+04 2.514e-09
 37.95603   -194.8 1.445e+04 2.620e-09
 37.96611   -194.2 1.363e+04 2.435e-09
 37.98000   -193.6 1.402e+04 2.447e-09
 38.00014   -193.0 1.445e+04 2.659e-09
 38.02029   -192.3 1.508e+04 3.045e-09
 38.03892   -191.5 1.564e+04 3.650e-09
 38.04900   -190.3 1.432e+04 2.600e-09
 38.06058   -189.5 1.502e+04 3.052e-09
 38.08073   -188.7 1.563e+04 3.660e-09
 38.10087   -187.7 1.609e+04 4.351e-09
 38.12102   -186.8 1.633e+04 4.937e-09
 38.13189   -185.8 1.637e+04 5.220e-09
 38.14196   -185.4 1.629e+04 4.331e-09
 38.15149   -184.6 1.681e+04 5.273e-09
 38.16156   -185.8 1.696e+04 6.643e-09
 38.18145   -184.9 1.720e+04 7.628e-09
 38.20160   -183.9 1.752e+04 8.726e-09
 38.21478   -182.8 1.767e+04 9.405e-09
 38.22485   -182.7 1.828e+04 1.202e-08
 38.24189   -181.5 1.861e+04 1.400e-08
 38.26204   -180.6 1.879e+04 1.465e-08
 38.28218   -179.9 1.885e+04 1.443e-08
 38.29767   -179.3 1.867e+04 1.313e-08
 38.30774   -179.3 1.975e+04 2.235e-08
 38.32247   -178.5 1.922e+04 1.880e-08
 38.34262   -177.5 1.875e+04 1.504e-08
 38.36276   -176.3 1.828e+04 1.154e-08
 38.37498   -174.9 1.772e+04 8.629e-09
 38.38270   -175.8 1.672e+04 5.984e-09
 38.39063   -175.5 1.710e+04 8.600e-09
 38.40306   -174.2 1.651e+04 6.330e-09
 38.42320   -173.1 1.585e+04 4.719e-09
 38.44335   -172.1 1.512e+04 3.653e-09
 38.46345   -170.9 1.426e+04 2.901e-09
 38.48359   -168.3 1.452e+04 2.923e-09
 38.50378   -167.0 1.372e+04 2.333e-09
 38.52393   -165.6 1.291e+04 1.938e-09
 38.54407   -164.2 1.223e+04 1.691e-09
 38.55641   -162.8 1.188e+04 1.505e-09
 38.56648   -161.2 1.274e+04 1.571e-09
 38.58437   -159.9 1.202e+04 1.378e-09
 38.59847   -158.6 1.155e+04 1.267e-09
 38.60854   -160.3 1.107e+04 1.037e-09
 38.62466   -159.0 1.099e+04 1.005e-09
 38.63930   -157.6 1.098e+04 9.988e-10
 38.64937   -156.5 1.097e+04 9.526e-10
 38.66495   -155.2 1.097e+04 9.413e-10
 38.68509   -154.0 1.096e+04 9.535e-10
 38.70524   -153.0 1.095e+04 9.700e-10
 38.72219   -152.4 1.100e+04 9.907e-10
 38.73226   -151.1 1.092e+04 8.972e-10
 38.74553   -150.6 1.095e+04 9.223e-10
 38.76568   -150.3 1.138e+04 9.798e-10
 38.78582   -154.2 1.876e+04 1.243e-09
 38.80508   -160.9 2.443e+04 3.565e-09
 38.81515   -155.6 2.044e+04 1.246e-09
 38.82195   -163.2 2.459e+04 4.489e-09
 38.83203   -164.1 2.257e+04 3.022e-09
 38.84626   -169.7 2.328e+04 9.297e-09
 38.85655   -173.3 2.308e+04 2.321e-08
 38.86154   -171.4 2.354e+04 1.486e-08
 38.87134   -173.0 2.338e+04 2.201e-08
 38.88142   -174.9 2.282e+04 2.989e-08
 38.89149   -176.5 2.261e+04 3.227e-08
 38.89795   -178.2 2.222e+04 3.268e-08
 38.90298   -176.9 2.281e+04 2.839e-08
 38.91163   -178.4 2.216e+04 2.832e-08
 38.92171   -179.7 2.142e+04 2.224e-08
 38.93178   -181.3 2.083e+04 1.467e-08
 38.93864   -183.3 2.013e+04 8.765e-09
 38.94121   -182.0 2.004e+04 9.605e-09
 38.94443   -180.3 2.055e+04 1.220e-08
 38.95193   -181.9 1.981e+04 7.589e-09
 38.96200   -184.0 1.854e+04 4.459e-09
 38.97207   -185.9 1.700e+04 2.738e-09
 38.98089   -187.9 1.551e+04 1.788e-09
 38.99101   -184.6 1.720e+04 2.432e-09
 39.00742   -186.6 1.534e+04 1.231e-09
 39.02757   -190.3 1.477e+04 6.145e-10
 39.04544   -193.3 2.179e+04 4.344e-10
 39.05552   -188.1 1.133e+04 4.167e-10
 39.06383   -189.8 1.872e+04 3.042e-10
 39.07390   -186.5 1.057e+04 3.154e-10
 39.08801   -187.0 1.311e+04 2.713e-10
 39.10815   -189.2 2.476e+04 3.272e-10
 39.12830   -191.7 2.790e+04 1.000e-09
 39.14672   -192.9 2.519e+04 3.403e-09
 39.15679   -187.5 2.130e+04 5.341e-10
 39.16859   -189.2 2.153e+04 1.852e-09
 39.18873   -189.1 2.032e+04 5.189e-09
 39.20888   -188.4 1.972e+04 9.779e-09
 39.22903   -187.4 1.952e+04 1.250e-08
 39.23968   -186.6 1.948e+04 1.304e-08
 39.24975   -183.4 2.019e+04 1.199e-08
 39.26893   -182.4 2.028e+04 1.260e-08
 39.27901   -180.5 1.949e+04 9.580e-09
 39.28946   -179.9 1.968e+04 1.006e-08
 39.30961   -180.6 1.973e+04 8.852e-09
 39.32257   -182.5 1.889e+04 5.473e-09
 39.33264   -176.8 2.122e+04 9.021e-09
 39.34990   -179.9 2.005e+04 5.124e-09
 39.37005   -185.3 1.697e+04 2.604e-09
 39.39019   -192.2 1.357e+04 1.523e-09
 39.40546   -198.9 1.233e+04 1.085e-09
 39.41553   -197.0 1.559e+04 1.135e-09
 39.43048   -207.8 1.610e+04 9.523e-10
 39.45063   -223.4 2.643e+04 7.269e-10
 39.47077   -241.5 3.926e+04 1.279e-09
 39.48583   -257.0 3.414e+04 5.724e-09
 39.49329   -258.1 3.180e+04 8.881e-09
 39.49832   -269.7 3.341e+04 3.335e-08
 39.50240   -270.8 3.208e+04 5.001e-08
 39.50743   -269.8 3.172e+04 4.905e-08
 39.51600   -270.5 3.090e+04 6.718e-08
 39.52608   -270.4 3.068e+04 8.123e-08
 39.53473   -269.9 3.077e+04 8.533e-08
 39.53977   -278.0 3.238e+04 1.194e-07
 39.54622   -276.8 3.261e+04 1.003e-07
 39.55629   -275.7 3.265e+04 8.242e-08
 39.56637   -274.5 3.243e+04 6.687e-08
 39.57618   -273.5 3.203e+04 5.348e-08
 39.58121   -279.6 2.880e+04 3.383e-08
 39.58651   -278.4 2.726e+04 2.734e-08
 39.59659   -277.2 2.561e+04 2.243e-08
 39.60666   -275.8 2.401e+04 1.862e-08
 39.61414   -274.3 2.265e+04 1.567e-08
 39.61918   -275.1 2.340e+04 1.678e-08
 39.62266   -273.6 2.230e+04 1.464e-08
 39.62770   -275.5 2.132e+04 1.401e-08
 39.63688   -273.7 2.086e+04 1.278e-08
 39.64695   -272.1 2.047e+04 1.176e-08
 39.65702   -270.7 2.009e+04 1.087e-08
 39.66410   -269.5 1.964e+04 1.004e-08
 39.66914   -270.3 2.000e+04 1.181e-08
 39.67717   -269.2 1.963e+04 1.087e-08
 39.68724   -267.9 1.919e+04 9.873e-09
 39.69731   -266.5 1.874e+04 8.937e-09
 39.70555   -265.1 1.832e+04 8.140e-09
 39.71059   -265.5 1.876e+04 9.179e-09
 39.71746   -263.9 1.845e+04 8.528e-09
 39.72589   -262.5 1.819e+04 8.029e-09
 39.73092   -262.5 1.806e+04 8.459e-09
 39.73761   -261.1 1.790e+04 8.086e-09
 39.74699   -259.8 1.782e+04 7.796e-09
 39.75203   -260.1 1.785e+04 7.916e-09
 39.75775   -259.1 1.779e+04 7.660e-09
 39.76782   -258.2 1.769e+04 7.399e-09
 39.77790   -257.3 1.753e+04 7.129e-09
 39.78797   -256.2 1.736e+04 6.871e-09
 39.79348   -255.0 1.720e+04 6.645e-09
 39.79851   -255.2 1.689e+04 6.264e-09
 39.80812   -254.0 1.673e+04 6.121e-09
 39.81819   -253.1 1.669e+04 6.101e-09
 39.82826   -252.1 1.666e+04 6.133e-09
 39.83492   -251.3 1.663e+04 6.142e-09
 39.84001   -252.5 1.610e+04 5.462e-09
 39.85354   -250.5 1.593e+04 5.442e-09
 39.87369   -248.5 1.578e+04 5.388e-09
 39.89383   -246.5 1.567e+04 5.354e-09
 39.91287   -244.5 1.557e+04 5.382e-09
 39.92295   -245.5 1.435e+04 3.773e-09
 39.93412   -243.6 1.419e+04 3.659e-09
 39.94947   -241.7 1.403e+04 3.512e-09
 39.95955   -241.8 1.323e+04 2.633e-09
 39.97441   -240.0 1.315e+04 2.653e-09
 39.99456   -238.3 1.315e+04 2.684e-09
 40.00584   -236.6 1.318e+04 2.716e-09
 40.01591   -237.4 1.224e+04 1.934e-09
 40.03485   -235.8 1.228e+04 1.962e-09
 40.05500   -234.3 1.234e+04 1.991e-09
 40.07514   -232.9 1.238e+04 2.007e-09
 40.08873   -231.4 1.238e+04 2.017e-09
 40.09880   -231.6 1.200e+04 1.645e-09
 40.11543   -230.1 1.202e+04 1.682e-09
 40.13558   -228.7 1.205e+04 1.721e-09
 40.15572   -227.3 1.205e+04 1.751e-09
 40.17162   -225.7 1.205e+04 1.782e-09
 40.17878   -225.8 1.175e+04 1.526e-09
 40.18304   -225.8 1.128e+04 1.151e-09
 40.19602   -224.2 1.129e+04 1.169e-09
 40.21616   -222.8 1.129e+04 1.181e-09
 40.23631   -221.3 1.129e+04 1.187e-09
 40.25451   -219.7 1.129e+04 1.193e-09
 40.26458   -219.7 1.106e+04 1.063e-09
 40.27660   -218.1 1.108e+04 1.080e-09
 40.29674   -216.5 1.113e+04 1.097e-09
 40.31689   -215.0 1.118e+04 1.103e-09
 40.33704   -213.4 1.121e+04 1.104e-09
 40.34747   -211.8 1.128e+04 1.070e-09
 40.35754   -211.7 1.098e+04 9.715e-10
 40.37733   -210.2 1.105e+04 9.524e-10
 40.39645   -208.8 1.111e+04 9.226e-10
 40.40653   -209.2 1.062e+04 5.685e-10
 40.41762   -207.8 1.062e+04 5.315e-10
 40.43036   -206.6 1.064e+04 5.021e-10
 40.44043   -206.3 1.054e+04 5.433e-10
 40.45791   -205.1 1.057e+04 5.407e-10
 40.47805   -204.0 1.068e+04 5.423e-10
 40.49820   -202.9 1.080e+04 5.670e-10
 40.51325   -201.9 1.096e+04 6.192e-10
 40.52332   -201.7 1.100e+04 6.970e-10
 40.53849   -200.7 1.122e+04 7.886e-10
 40.55864   -199.9 1.143e+04 8.905e-10
 40.57878   -199.1 1.162e+04 9.881e-10
 40.59614   -198.4 1.175e+04 1.056e-09
 40.60621   -198.4 1.190e+04 1.210e-09
 40.61907   -197.8 1.201e+04 1.274e-09
 40.63002   -197.3 1.204e+04 1.289e-09
 40.65026   -197.8 1.148e+04 8.719e-10
 40.67923   -196.6 1.138e+04 8.301e-10
 40.69937   -197.3 1.224e+04 1.465e-09
 40.73007   -196.0 1.199e+04 1.328e-09
 40.77036   -194.3 1.154e+04 1.077e-09
 40.81065   -192.2 1.106e+04 8.449e-10
 40.84501   -189.8 1.070e+04 6.800e-10
 40.86515   -191.1 1.116e+04 9.198e-10
 40.89124   -188.8 1.084e+04 7.567e-10
 40.93153   -186.5 1.069e+04 6.718e-10
 40.97182   -184.4 1.059e+04 6.227e-10
 41.01079   -182.3 1.052e+04 5.931e-10
 41.03093   -183.4 1.043e+04 5.916e-10
 41.05240   -181.2 1.027e+04 5.449e-10
 41.07719   -178.9 1.011e+04 4.873e-10
 41.09733   -178.6 1.004e+04 4.943e-10
 41.13298   -176.3 9.894e+03 4.382e-10
 41.17327   -174.1 9.780e+03 3.928e-10
 41.19671   -172.3 9.619e+03 3.440e-10
 41.21686   -172.0 9.582e+03 3.554e-10
 41.25386   -169.6 9.480e+03 3.222e-10
 41.29415   -167.6 9.394e+03 2.863e-10
 41.33444   -166.0 9.282e+03 2.517e-10
 41.36249   -164.6 9.142e+03 2.287e-10
 41.38264   -164.8 9.903e+03 3.668e-10
 41.41502   -163.7 9.890e+03 3.414e-10
 41.45531   -162.6 9.814e+03 3.168e-10
 41.49560   -161.5 9.700e+03 3.009e-10
 41.52417   -160.6 9.576e+03 2.955e-10
 41.53669   -161.5 1.006e+04 4.531e-10
 41.54832   -161.6 1.009e+04 4.735e-10
 41.56592   -161.4 1.003e+04 4.599e-10
 41.58606   -161.2 1.007e+04 4.809e-10
 41.60621   -160.9 1.014e+04 5.224e-10
 41.62104   -160.7 1.028e+04 5.875e-10
 41.63111   -161.4 1.034e+04 6.198e-10
 41.64650   -161.0 1.042e+04 6.850e-10
 41.66665   -160.5 1.049e+04 7.547e-10
 41.69396   -159.9 1.056e+04 8.347e-10
 41.71410   -160.0 1.038e+04 7.781e-10
 41.72708   -159.4 1.030e+04 7.673e-10
 41.74723   -158.8 1.018e+04 7.331e-10
 41.77755   -158.0 9.924e+03 6.453e-10
 41.81793   -155.8 9.596e+03 5.523e-10
 41.85823   -153.7 9.342e+03 4.829e-10
 41.87998   -151.4 9.143e+03 4.304e-10
 41.90012   -151.6 8.917e+03 3.535e-10
 41.93881   -149.0 8.805e+03 3.335e-10
 41.97115   -146.3 8.748e+03 3.230e-10
 41.99129   -145.9 8.564e+03 2.800e-10
 42.01939   -143.1 8.570e+03 2.817e-10
 42.04576   -140.2 8.655e+03 2.917e-10
 42.06591   -140.1 8.534e+03 2.579e-10
 42.09997   -137.2 8.614e+03 2.703e-10
 42.14026   -134.3 8.715e+03 2.906e-10
 42.18056   -131.4 8.839e+03 3.165e-10
 42.21154   -128.4 8.964e+03 3.423e-10
 42.23169   -128.2 8.811e+03 2.966e-10
 42.26114   -125.2 8.977e+03 3.323e-10
 42.30143   -122.2 9.166e+03 3.750e-10
 42.34172   -119.3 9.342e+03 4.193e-10
 42.37732   -116.3 9.535e+03 4.743e-10
 42.39747   -116.4 9.498e+03 4.633e-10
 42.41813   -113.5 9.745e+03 5.401e-10
 42.43827   -112.9 9.703e+03 5.422e-10
 42.46259   -110.0 9.977e+03 6.408e-10
 42.50289   -107.2 1.023e+04 7.383e-10
 42.54310   -104.4 1.038e+04 7.899e-10
 42.58339   -101.8 1.032e+04 7.699e-10
 42.62376    -98.9 1.025e+04 7.131e-10
 42.66405    -95.9 1.006e+04 5.984e-10
 42.70434    -93.0 9.923e+03 5.084e-10
 42.72903    -90.1 9.879e+03 4.531e-10
 42.74917    -90.6 9.980e+03 4.830e-10
 42.78492    -88.0 1.010e+04 4.904e-10
 42.82522    -85.6 1.032e+04 5.434e-10
 42.86510    -83.3 1.061e+04 6.479e-10
 42.88525    -82.0 1.064e+04 6.515e-10
 42.89481    -79.8 1.105e+04 8.195e-10
 42.91495    -81.4 1.111e+04 8.935e-10
 42.94609    -79.4 1.160e+04 1.149e-09
 42.98638    -77.5 1.212e+04 1.460e-09
 43.01650    -76.7 1.233e+04 1.524e-09
 43.03655    -76.2 1.239e+04 1.572e-09
 43.05670    -75.2 1.257e+04 1.631e-09
 43.07046    -74.5 1.264e+04 1.641e-09
 43.08054    -76.0 1.216e+04 1.198e-09
 43.09699    -75.3 1.232e+04 1.212e-09
 43.10854    -74.8 1.255e+04 1.237e-09
 43.11862    -73.8 1.203e+04 1.001e-09
 43.13728    -73.2 1.230e+04 1.019e-09
 43.15336    -72.7 1.262e+04 1.114e-09
 43.16343    -74.7 1.202e+04 7.894e-10
 43.17757    -74.3 1.235e+04 9.417e-10
 43.19771    -74.0 1.274e+04 1.200e-09
 43.21786    -73.5 1.311e+04 1.587e-09
 43.23625    -72.8 1.349e+04 2.117e-09
 43.24632    -74.4 1.250e+04 1.369e-09
 43.25815    -73.6 1.277e+04 1.705e-09
 43.27830    -72.9 1.303e+04 2.066e-09
 43.29844    -72.4 1.324e+04 2.410e-09
 43.31859    -72.0 1.341e+04 2.706e-09
 43.32921    -71.7 1.354e+04 2.948e-09
 43.33258    -73.6 1.199e+04 1.677e-09
 43.34211    -72.1 1.169e+04 1.354e-09
 43.35888    -72.1 1.183e+04 1.568e-09
 43.37903    -72.1 1.198e+04 1.797e-09
 43.39917    -71.9 1.230e+04 2.054e-09
 43.41210    -71.2 1.275e+04 2.339e-09
 43.42217    -72.5 1.133e+04 1.456e-09
 43.43946    -71.8 1.154e+04 1.520e-09
 43.45961    -71.5 1.167e+04 1.520e-09
 43.47975    -71.6 1.170e+04 1.475e-09
 43.49499    -72.2 1.165e+04 1.441e-09
 43.50506    -72.6 1.111e+04 1.126e-09
 43.52004    -73.1 1.109e+04 1.191e-09
 43.54019    -73.2 1.108e+04 1.314e-09
 43.55552    -72.8 1.113e+04 1.469e-09
 43.56560    -72.0 1.129e+04 1.461e-09
 43.57788    -71.4 1.140e+04 1.643e-09
 43.58795    -71.7 1.129e+04 1.529e-09
 43.60063    -71.0 1.151e+04 1.718e-09
 43.62077    -70.3 1.165e+04 1.778e-09
 43.64092    -70.1 1.175e+04 1.760e-09
 43.66077    -70.2 1.181e+04 1.726e-09
 43.67084    -71.2 1.194e+04 1.773e-09
 43.68121    -73.3 1.256e+04 1.934e-09
 43.70136    -76.4 1.321e+04 2.388e-09
 43.72150    -79.0 1.364e+04 3.146e-09
 43.74165    -80.8 1.419e+04 3.947e-09
 43.75373    -82.5 1.494e+04 4.338e-09
 43.76380    -83.9 1.385e+04 3.135e-09
 43.77901    -87.5 1.464e+04 3.125e-09
 43.78908    -85.1 1.460e+04 3.250e-09
 43.80208    -90.2 1.515e+04 3.115e-09
 43.82223    -96.2 1.524e+04 3.144e-09
 43.83657   -100.2 1.482e+04 3.530e-09
 43.84665   -100.4 1.446e+04 3.063e-09
 43.86252   -102.6 1.483e+04 3.767e-09
 43.88267   -104.2 1.499e+04 3.948e-09
 43.90281   -105.7 1.487e+04 3.757e-09
 43.91951   -106.6 1.434e+04 3.026e-09
 43.92959   -104.4 1.317e+04 2.141e-09
 43.94310   -105.0 1.239e+04 1.648e-09
 43.96325   -105.3 1.176e+04 1.285e-09
 43.98339   -105.4 1.140e+04 1.026e-09
 44.00240   -105.3 1.120e+04 8.368e-10
 44.01144   -104.0 1.091e+04 7.355e-10
 44.01257   -103.8 1.093e+04 7.467e-10
 44.02369   -103.4 1.072e+04 6.165e-10
 44.04383   -102.7 1.050e+04 5.075e-10
 44.06398   -101.7 1.036e+04 4.342e-10
 44.08412   -100.5 1.033e+04 3.941e-10
 44.09537    -99.1 1.039e+04 3.746e-10
 44.11561    -98.4 1.035e+04 3.411e-10
 44.15483    -96.6 1.027e+04 3.079e-10
 44.19512    -94.4 1.004e+04 2.652e-10
 44.22619    -92.1 9.828e+03 2.339e-10
 44.24633    -91.1 9.988e+03 2.599e-10
 44.26134    -88.8 9.859e+03 2.434e-10
 44.28149    -88.1 9.684e+03 2.213e-10
 44.31599    -86.3 9.693e+03 2.303e-10
 44.35628    -84.8 1.000e+04 3.160e-10
 44.38640    -83.5 1.031e+04 4.287e-10
 44.40645    -83.5 1.034e+04 4.367e-10
 44.42660    -83.1 1.040e+04 5.260e-10
 44.43700    -82.8 1.045e+04 5.799e-10
 44.44707    -82.7 1.027e+04 5.212e-10
 44.45955    -82.3 1.026e+04 5.456e-10
 44.46963    -81.8 1.044e+04 6.254e-10
 44.48703    -81.4 1.037e+04 6.160e-10
 44.50718    -81.0 1.030e+04 5.948e-10
 44.51989    -80.6 1.029e+04 5.811e-10
 44.52996    -80.5 1.001e+04 4.909e-10
 44.54747    -80.3 1.004e+04 4.878e-10
 44.56762    -80.3 1.012e+04 4.932e-10
 44.58776    -80.5 1.028e+04 5.340e-10
 44.60278    -80.7 1.045e+04 6.081e-10
 44.61285    -80.6 1.017e+04 5.145e-10
 44.62805    -80.8 1.037e+04 6.091e-10
 44.64820    -80.7 1.058e+04 7.158e-10
 44.66835    -80.6 1.080e+04 8.197e-10
 44.68304    -80.6 1.101e+04 9.090e-10
 44.69029    -79.9 1.082e+04 8.488e-10
 44.69574    -79.6 1.052e+04 7.282e-10
 44.70864    -79.6 1.077e+04 7.998e-10
 44.72878    -80.6 1.126e+04 9.259e-10
 44.74893    -82.6 1.206e+04 1.174e-09
 44.76856    -85.2 1.305e+04 1.641e-09
 44.77863    -86.5 1.362e+04 2.013e-09
 44.78922    -88.9 1.463e+04 3.208e-09
 44.80937    -90.8 1.527e+04 4.275e-09
 44.82951    -92.8 1.544e+04 4.595e-09
 44.84966    -94.9 1.515e+04 4.236e-09
 44.86152    -97.2 1.414e+04 2.973e-09
 44.87160    -97.6 1.449e+04 3.105e-09
 44.88995   -100.5 1.292e+04 1.783e-09
 44.90653   -103.0 1.169e+04 1.125e-09
 44.91660   -101.7 1.198e+04 1.243e-09
 44.93024   -103.8 1.117e+04 8.609e-10
 44.94441   -105.1 1.076e+04 6.722e-10
 44.95449   -106.1 1.072e+04 6.447e-10
 44.97053   -107.0 1.043e+04 5.501e-10
 44.99068   -107.7 1.015e+04 4.743e-10
 45.01082   -108.3 9.903e+03 4.091e-10
 45.02730   -108.9 9.749e+03 3.586e-10
 45.03738   -109.3 9.965e+03 3.776e-10
 45.05111   -109.7 9.862e+03 3.420e-10
 45.08143   -110.5 9.771e+03 3.281e-10
 45.11039   -111.5 9.711e+03 3.328e-10
 45.12886   -113.0 1.024e+04 4.087e-10
 45.14029   -112.5 1.020e+04 3.894e-10
 45.16211   -113.0 1.011e+04 4.158e-10
 45.20240   -113.6 1.029e+04 4.775e-10
 45.23252   -114.2 1.037e+04 5.107e-10
 45.25257   -114.3 1.038e+04 5.218e-10
 45.27271   -114.1 1.041e+04 5.332e-10
 45.28605   -114.0 1.040e+04 5.254e-10
 45.29612   -114.8 1.024e+04 4.514e-10
 45.31301   -114.6 1.022e+04 4.318e-10
 45.33315   -114.6 1.022e+04 4.257e-10
 45.35330   -114.7 1.025e+04 4.221e-10
 45.36358   -114.8 1.033e+04 4.473e-10
 45.36915   -115.0 1.033e+04 4.301e-10
 45.37901   -115.5 1.011e+04 3.574e-10
 45.39359   -115.9 1.025e+04 3.960e-10
 45.41373   -116.3 1.040e+04 4.703e-10
 45.43388   -116.7 1.069e+04 5.923e-10
 45.45183   -117.1 1.108e+04 7.616e-10
 45.46190   -117.6 1.066e+04 5.722e-10
 45.47417   -118.1 1.107e+04 7.565e-10
 45.49432   -118.6 1.152e+04 9.928e-10
 45.51446   -119.1 1.196e+04 1.278e-09
 45.53461   -119.7 1.229e+04 1.541e-09
 45.54479   -120.3 1.244e+04 1.674e-09
 45.55486   -120.1 1.194e+04 1.345e-09
 45.57490   -120.7 1.197e+04 1.373e-09
 45.58707   -121.0 1.184e+04 1.335e-09
 45.59714   -121.7 1.176e+04 1.287e-09
 45.61519   -121.7 1.144e+04 1.128e-09
 45.62768   -121.7 1.111e+04 9.196e-10
 45.63775   -121.4 1.101e+04 8.848e-10
 45.65548   -121.1 1.072e+04 7.216e-10
 45.67563   -120.6 1.041e+04 5.617e-10
 45.69577   -120.1 1.018e+04 4.421e-10
 45.72609   -119.6 1.003e+04 3.738e-10
 45.76648   -118.4 9.794e+03 3.108e-10
 45.79366   -116.3 9.530e+03 2.608e-10
 45.81380   -116.1 9.760e+03 2.985e-10
 45.84706   -114.0 9.608e+03 2.675e-10
 45.88735   -111.8 9.585e+03 2.629e-10
 45.92764   -109.5 9.651e+03 2.715e-10
 45.95944   -107.2 9.901e+03 3.198e-10
 45.97958   -107.9 1.009e+04 3.579e-10
 46.00823   -105.5 1.028e+04 4.087e-10
 46.03425   -102.9 1.045e+04 4.600e-10
 46.05439   -103.6 1.053e+04 4.936e-10
 46.07864   -101.2 1.060e+04 5.084e-10
 46.09869   -100.3 1.058e+04 5.106e-10
 46.11883    -98.6 1.062e+04 5.199e-10
 46.13509    -97.6 1.062e+04 5.173e-10
 46.14517    -98.0 1.049e+04 4.582e-10
 46.15912    -96.8 1.050e+04 4.539e-10
 46.17927    -95.2 1.051e+04 4.485e-10
 46.19941    -93.6 1.057e+04 4.552e-10
 46.21798    -92.8 1.056e+04 4.556e-10
 46.22806    -93.1 1.052e+04 4.374e-10
 46.23970    -91.5 1.058e+04 4.537e-10
 46.25754    -90.6 1.060e+04 4.718e-10
 46.26761    -90.7 1.062e+04 4.881e-10
 46.29017    -88.9 1.062e+04 5.086e-10
 46.31114    -86.1 1.068e+04 5.802e-10
 46.33129    -87.1 1.109e+04 6.919e-10
 46.37085    -84.7 1.134e+04 8.523e-10
 46.41114    -82.0 1.162e+04 1.042e-09
 46.45143    -79.3 1.189e+04 1.224e-09
 46.47692    -76.6 1.211e+04 1.379e-09
 46.48657    -78.5 1.224e+04 1.432e-09
 46.49120    -78.3 1.259e+04 1.659e-09
 46.50160    -78.2 1.273e+04 1.745e-09
 46.52174    -76.8 1.309e+04 2.012e-09
 46.54189    -76.2 1.330e+04 2.213e-09
 46.55962    -75.2 1.368e+04 2.578e-09
 46.56969    -76.9 1.360e+04 2.589e-09
 46.58218    -76.2 1.382e+04 2.903e-09
 46.60233    -75.6 1.407e+04 3.266e-09
 46.62247    -75.0 1.437e+04 3.623e-09
 46.64251    -74.5 1.464e+04 4.000e-09
 46.65258    -75.7 1.373e+04 2.676e-09
 46.66276    -75.3 1.375e+04 2.807e-09
 46.68291    -74.8 1.372e+04 2.938e-09
 46.70305    -74.4 1.369e+04 3.093e-09
 46.71459    -73.8 1.402e+04 3.487e-09
 46.72466    -74.4 1.416e+04 3.595e-09
 46.73547    -74.0 1.410e+04 3.597e-09
 46.74554    -75.1 1.302e+04 2.450e-09
 46.76349    -74.5 1.298e+04 2.412e-09
 46.78364    -73.9 1.285e+04 2.286e-09
 46.80378    -73.3 1.266e+04 2.090e-09
 46.81836    -72.7 1.236e+04 1.816e-09
 46.82843    -73.4 1.178e+04 1.376e-09
 46.84407    -72.8 1.150e+04 1.176e-09
 46.86422    -72.5 1.114e+04 9.654e-10
 46.88436    -72.4 1.072e+04 7.949e-10
 46.90125    -72.2 1.034e+04 6.978e-10
 46.91132    -72.1 1.020e+04 6.455e-10
 46.92466    -71.6 9.991e+03 6.099e-10
 46.93808    -70.8 9.880e+03 5.884e-10
 46.94815    -71.3 9.746e+03 5.204e-10
 46.96495    -70.3 9.750e+03 4.976e-10
 46.98414    -69.9 9.758e+03 4.871e-10
 46.99431    -70.4 9.656e+03 4.333e-10
 47.01551    -69.0 9.620e+03 4.387e-10
 47.04563    -67.4 9.839e+03 4.880e-10
 47.06568    -67.1 9.800e+03 4.850e-10
 47.07710    -66.1 9.978e+03 5.198e-10
 47.08718    -66.1 9.938e+03 4.925e-10
 47.10597    -65.9 9.874e+03 4.897e-10
 47.13628    -65.5 9.990e+03 5.166e-10
 47.16019    -64.4 1.006e+04 5.505e-10
 47.18034    -64.1 1.016e+04 5.522e-10
 47.20679    -63.7 1.006e+04 5.421e-10
 47.22684    -63.3 9.935e+03 4.869e-10
 47.25716    -62.4 9.727e+03 4.000e-10
 47.29755    -61.5 9.344e+03 2.800e-10
 47.32597    -60.3 8.896e+03 1.938e-10
 47.34612    -60.5 8.904e+03 1.941e-10
 47.37518    -59.0 8.607e+03 1.527e-10
 47.39533    -59.9 8.853e+03 1.639e-10
 47.41842    -58.2 8.896e+03 1.626e-10
 47.45871    -56.4 8.890e+03 1.716e-10
 47.49175    -54.6 8.879e+03 1.837e-10
 47.51190    -54.8 9.042e+03 2.110e-10
 47.53929    -52.8 9.007e+03 2.284e-10
 47.57958    -50.7 9.062e+03 2.511e-10
 47.61988    -48.5 9.122e+03 2.629e-10
 47.65753    -46.5 9.164e+03 2.608e-10
 47.67768    -47.0 9.349e+03 2.757e-10
 47.70046    -45.0 9.408e+03 2.617e-10
 47.74075    -43.0 9.453e+03 2.403e-10
 47.78104    -41.2 9.573e+03 2.125e-10
 47.82133    -39.6 9.699e+03 2.186e-10
 47.84231    -38.0 9.808e+03 2.541e-10
 47.84429    -38.9 9.789e+03 2.575e-10
 47.86360    -39.4 1.002e+04 3.283e-10
 47.90191    -37.5 1.013e+04 3.505e-10
 47.94221    -35.5 1.020e+04 3.831e-10
 47.98250    -33.6 1.013e+04 4.053e-10
 48.00924    -31.2 9.968e+03 3.843e-10
 48.02938    -31.8 1.001e+04 3.917e-10
 48.06308    -29.0 9.787e+03 3.269e-10
 48.10337    -26.6 9.643e+03 2.444e-10
 48.14366    -24.6 9.549e+03 1.812e-10
 48.17502    -22.8 9.417e+03 1.509e-10
 48.19516    -23.3 9.559e+03 1.779e-10
 48.22424    -21.1 9.461e+03 1.676e-10
 48.26454    -18.9 9.438e+03 1.703e-10
 48.28929    -16.6 9.436e+03 1.838e-10
 48.30943    -17.0 9.427e+03 1.845e-10
 48.34080    -14.7 9.497e+03 2.191e-10
 48.36094    -15.0 9.544e+03 2.241e-10
 48.38541    -12.6 9.632e+03 2.615e-10
 48.42570    -10.3 9.716e+03 2.855e-10
 48.46599     -8.2 9.729e+03 2.865e-10
 48.50628     -6.2 9.704e+03 2.795e-10
 48.52672     -4.3 9.631e+03 2.629e-10
 48.54687     -4.5 9.633e+03 2.648e-10
 48.58687     -2.5 9.542e+03 2.444e-10
 48.62716     -0.5 9.497e+03 2.364e-10
 48.66745      1.6 9.505e+03 2.387e-10
 48.69250      3.5 9.573e+03 2.544e-10
 48.71265      3.3 9.593e+03 2.454e-10
 48.73626      4.8 9.804e+03 3.009e-10
 48.75641      4.6 9.778e+03 3.000e-10
 48.78832      6.1 1.008e+04 3.967e-10
 48.82861      7.4 1.041e+04 5.306e-10
 48.85829      8.5 1.062e+04 6.045e-10
 48.87843      8.0 1.075e+04 6.534e-10
 48.90920      8.7 1.076e+04 6.505e-10
 48.94949      9.6 1.062e+04 5.742e-10
 48.98978     10.7 1.029e+04 4.147e-10
 49.02407     11.7 9.960e+03 2.655e-10
 49.04421     11.0 1.026e+04 3.247e-10
 49.07036     11.7 9.976e+03 2.144e-10
 49.11065     12.6 9.792e+03 1.673e-10
 49.15094     13.8 9.749e+03 1.620e-10
 49.18324     15.3 9.754e+03 1.613e-10
 49.20200     15.6 9.606e+03 1.478e-10
 49.20999     14.7 9.748e+03 1.504e-10
 49.23153     16.4 9.678e+03 1.471e-10
 49.27182     18.2 9.675e+03 1.414e-10
 49.31211     20.1 9.632e+03 1.313e-10
 49.35240     22.0 9.587e+03 1.182e-10
 49.37577     23.9 9.540e+03 1.062e-10
 49.39592     23.3 9.535e+03 9.475e-11
 49.43298     25.1 9.506e+03 9.162e-11
 49.47327     27.0 9.489e+03 9.247e-11
 49.51356     29.0 9.446e+03 9.600e-11
 49.54155     30.9 9.482e+03 1.013e-10
 49.56170     30.4 9.555e+03 1.057e-10
 49.59415     32.4 9.583e+03 1.147e-10
 49.63022     34.5 9.602e+03 1.231e-10
 49.65037     34.3 9.635e+03 1.396e-10
 49.67473     36.3 9.621e+03 1.449e-10
 49.70733     38.4 9.654e+03 1.424e-10
 49.72748     37.9 9.719e+03 1.317e-10
 49.75531     39.9 9.771e+03 1.287e-10
 49.79560     41.7 9.840e+03 1.313e-10
 49.83589     43.2 9.916e+03 1.447e-10
 49.87311     44.2 1.006e+04 1.683e-10
 49.89326     43.0 1.043e+04 2.095e-10
 49.91648     43.9 1.088e+04 3.319e-10
 49.95677     44.6 1.120e+04 4.648e-10
 49.99706     45.2 1.131e+04 5.106e-10
 50.03735     45.6 1.125e+04 4.800e-10
 50.05904     46.1 1.105e+04 3.878e-10
 50.07874     44.4 1.112e+04 4.024e-10
 50.09735     43.5 1.107e+04 3.979e-10
 50.11793     44.1 1.081e+04 3.228e-10
 50.15822     45.1 1.063e+04 3.046e-10
 50.19852     46.4 1.062e+04 3.053e-10
 50.22482     47.9 1.060e+04 3.113e-10
 50.24496     46.5 1.063e+04 3.184e-10
 50.27910     48.2 1.062e+04 3.317e-10
 50.31939     49.9 1.065e+04 3.406e-10
 50.35968     51.7 1.068e+04 3.215e-10
 50.39060     53.4 1.070e+04 2.950e-10
 50.41075     52.6 1.065e+04 2.288e-10
 50.44026     54.3 1.068e+04 2.136e-10
 50.48055     56.1 1.071e+04 2.086e-10
 50.52085     57.7 1.074e+04 2.161e-10
 50.54432     59.5 1.081e+04 2.330e-10
 50.55971     59.0 1.090e+04 2.616e-10
 50.57653     58.2 1.101e+04 2.540e-10
 50.60143     60.0 1.125e+04 2.927e-10
 50.64172     61.4 1.155e+04 3.506e-10
 50.67184     61.9 1.164e+04 3.906e-10
 50.69189     62.1 1.176e+04 4.651e-10
 50.71203     62.1 1.196e+04 6.203e-10
 50.73204     62.2 1.220e+04 8.538e-10
 50.74211     61.7 1.218e+04 8.671e-10
 50.75233     62.2 1.243e+04 1.145e-09
 50.76762     62.5 1.254e+04 1.364e-09
 50.77769     62.1 1.233e+04 1.147e-09
 50.79262     62.1 1.232e+04 1.108e-09
 50.81276     62.0 1.223e+04 9.863e-10
 50.82500     61.8 1.203e+04 8.261e-10
 50.83507     61.0 1.181e+04 6.414e-10
 50.85305     60.4 1.150e+04 5.245e-10
 50.87320     59.9 1.132e+04 4.911e-10
 50.89334     59.7 1.125e+04 4.851e-10
 50.90799     60.7 1.106e+04 5.264e-10
 50.92823     60.7 1.089e+04 4.496e-10
 50.96405     61.6 1.088e+04 4.992e-10
 50.99130     62.3 1.108e+04 6.263e-10
 51.01145     62.3 1.122e+04 6.322e-10
 51.04463     62.6 1.161e+04 8.632e-10
 51.07387     62.6 1.193e+04 1.065e-09
 51.09401     62.7 1.189e+04 1.078e-09
 51.12521     62.5 1.200e+04 1.113e-09
 51.16551     62.4 1.198e+04 1.093e-09
 51.20580     62.5 1.180e+04 9.813e-10
 51.23965     62.8 1.148e+04 7.833e-10
 51.25979     63.0 1.134e+04 7.377e-10
 51.28638     63.6 1.100e+04 5.377e-10
 51.32667     64.3 1.067e+04 3.971e-10
 51.36696     65.2 1.058e+04 3.631e-10
 51.40543     66.2 1.060e+04 3.684e-10
 51.42557     66.4 1.056e+04 3.404e-10
 51.43828     67.1 1.071e+04 3.715e-10
 51.45843     66.3 1.084e+04 4.051e-10
 51.48784     66.7 1.115e+04 4.995e-10
 51.52813     66.9 1.146e+04 6.399e-10
 51.56842     67.0 1.173e+04 7.730e-10
 51.59135     67.0 1.180e+04 8.290e-10
 51.61150     67.0 1.186e+04 8.579e-10
 51.64900     67.2 1.185e+04 8.455e-10
 51.67175     67.4 1.182e+04 8.271e-10
 51.67675     67.3 1.184e+04 8.413e-10
 51.68412     67.3 1.185e+04 8.465e-10
 51.69917     67.4 1.184e+04 8.347e-10
 51.71932     67.6 1.180e+04 8.086e-10
 51.73946     67.9 1.175e+04 7.749e-10
 51.75694     68.3 1.171e+04 7.440e-10
 51.76701     68.4 1.170e+04 7.489e-10
 51.77975     68.7 1.168e+04 7.245e-10
 51.79990     69.1 1.178e+04 7.000e-10
 51.82004     69.2 1.190e+04 6.654e-10
 51.85036     69.6 1.188e+04 6.123e-10
 51.88526     70.6 1.191e+04 6.247e-10
 51.90541     70.9 1.184e+04 5.665e-10
 51.92291     71.6 1.188e+04 5.419e-10
 51.94306     71.6 1.191e+04 5.524e-10
 51.97133     72.0 1.200e+04 5.664e-10
 52.01162     72.4 1.207e+04 5.837e-10
 52.05191     72.8 1.211e+04 5.972e-10
 52.08869     73.3 1.208e+04 6.028e-10
 52.10884     73.2 1.197e+04 5.781e-10
 52.13250     74.0 1.195e+04 5.796e-10
 52.17279     74.8 1.195e+04 5.960e-10
 52.21308     75.7 1.199e+04 6.223e-10
 52.25337     76.6 1.200e+04 6.283e-10
 52.27462     77.5 1.198e+04 6.253e-10
 52.29477     77.5 1.197e+04 6.319e-10
 52.33224     78.5 1.188e+04 6.042e-10
 52.35238     79.1 1.192e+04 6.648e-10
 52.37424     80.2 1.174e+04 5.725e-10
 52.41454     81.7 1.152e+04 4.427e-10
 52.44040     83.3 1.131e+04 3.220e-10
 52.46055     83.6 1.123e+04 2.673e-10
 52.49512     85.3 1.110e+04 1.896e-10
 52.53541     86.9 1.094e+04 1.528e-10
 52.57570     88.8 1.084e+04 1.492e-10
 52.60618     91.0 1.084e+04 1.495e-10
 52.62633     91.5 1.083e+04 1.234e-10
 52.65628     93.8 1.083e+04 1.254e-10
 52.69657     96.0 1.084e+04 1.317e-10
 52.73687     98.1 1.088e+04 1.416e-10
 52.77196    100.1 1.094e+04 1.543e-10
 52.79211    100.7 1.095e+04 1.386e-10
 52.79936    102.7 1.099e+04 1.528e-10
 52.81951    102.8 1.096e+04 1.655e-10
 52.85774    104.9 1.102e+04 1.838e-10
 52.89803    106.8 1.109e+04 2.059e-10
 52.93774    108.8 1.117e+04 2.363e-10
 52.95789    109.4 1.112e+04 2.134e-10
 52.97861    111.3 1.119e+04 2.536e-10
 53.01890    113.1 1.131e+04 3.204e-10
 53.05920    115.0 1.153e+04 4.333e-10
 53.09949    116.6 1.187e+04 6.124e-10
 53.12367    118.1 1.230e+04 8.720e-10
 53.14381    118.7 1.209e+04 7.792e-10
 53.18007    119.8 1.261e+04 1.158e-09
 53.22036    120.5 1.313e+04 1.614e-09
 53.24634    120.8 1.356e+04 2.085e-09
 53.26649    120.4 1.337e+04 1.892e-09
 53.28945    120.5 1.363e+04 2.155e-09
 53.30959    120.8 1.365e+04 2.217e-09
 53.34123    120.4 1.372e+04 2.269e-09
 53.38153    120.1 1.358e+04 2.132e-09
 53.42182    120.2 1.328e+04 1.844e-09
 53.45523    120.5 1.300e+04 1.563e-09
 53.47537    121.5 1.237e+04 1.029e-09
 53.50240    121.9 1.218e+04 8.719e-10
 53.54269    122.6 1.212e+04 7.984e-10
 53.58298    123.3 1.209e+04 7.452e-10
 53.62101    124.1 1.206e+04 6.923e-10
 53.64115    124.9 1.193e+04 6.230e-10
 53.66356    125.8 1.198e+04 6.497e-10
 53.69332    126.8 1.199e+04 6.801e-10
 53.71347    126.7 1.188e+04 6.017e-10
 53.74415    127.6 1.189e+04 6.118e-10
 53.78444    128.1 1.198e+04 6.477e-10
 53.80694    128.6 1.210e+04 7.072e-10
 53.82708    129.5 1.215e+04 7.177e-10
 53.85485    128.9 1.219e+04 7.501e-10
 53.87490    128.4 1.222e+04 7.979e-10
 53.88963    127.8 1.227e+04 8.534e-10
 53.89970    128.2 1.226e+04 8.433e-10
 53.91519    127.6 1.236e+04 8.951e-10
 53.92669    126.5 1.260e+04 9.918e-10
 53.93676    125.9 1.236e+04 8.024e-10
 53.95548    124.7 1.246e+04 8.427e-10
 53.97262    122.7 1.268e+04 9.820e-10
 53.99286    123.5 1.274e+04 9.938e-10
 54.02619    119.9 1.263e+04 9.276e-10
 54.06648    116.7 1.222e+04 7.461e-10
 54.10677    114.3 1.159e+04 5.259e-10
 54.13850    113.3 1.096e+04 3.560e-10
 54.15188    113.9 1.100e+04 3.578e-10
 54.16045    114.8 1.097e+04 3.593e-10
 54.18735    114.8 1.063e+04 2.636e-10
 54.22764    114.9 1.043e+04 1.977e-10
 54.26793    115.2 1.021e+04 1.653e-10
 54.30428    116.0 1.011e+04 1.620e-10
 54.32442    116.7 1.011e+04 1.617e-10
 54.34852    117.8 1.012e+04 1.623e-10
 54.38881    118.9 1.017e+04 1.770e-10
 54.42910    120.0 1.023e+04 2.138e-10
 54.46939    121.1 1.026e+04 2.561e-10
 54.49020    122.0 1.025e+04 2.761e-10
 54.51035    122.2 1.031e+04 2.977e-10
 54.54997    123.1 1.024e+04 2.844e-10
 54.58728    124.1 1.008e+04 2.447e-10
 54.60742    123.7 9.924e+03 1.878e-10
 54.63055    124.8 9.763e+03 1.585e-10
 54.65598    126.0 9.602e+03 1.344e-10
 54.67613    126.1 9.523e+03 1.249e-10
 54.71114    127.5 9.369e+03 1.123e-10
 54.75143    129.0 9.289e+03 1.066e-10
 54.79172    130.6 9.198e+03 1.063e-10
 54.82176    132.3 9.167e+03 1.061e-10
 54.84191    132.8 9.111e+03 9.979e-11
 54.87230    134.5 9.086e+03 9.912e-11
 54.91259    136.2 9.045e+03 9.733e-11
 54.95288    137.9 8.998e+03 9.323e-11
 54.98754    139.6 8.950e+03 8.698e-11
 55.00769    140.2 8.909e+03 8.107e-11
 55.03347    141.9 8.868e+03 7.342e-11
 55.05440    143.5 8.830e+03 6.641e-11
 55.07455    143.2 8.822e+03 6.472e-11
 55.11405    144.7 8.791e+03 6.211e-11
 55.15332    146.2 8.776e+03 6.106e-11
 55.17347    147.0 8.755e+03 6.089e-11
 55.19463    148.4 8.752e+03 6.145e-11
 55.23492    149.8 8.742e+03 6.423e-11
 55.27521    151.2 8.727e+03 6.817e-11
 55.31551    152.5 8.708e+03 7.068e-11
 55.33925    153.8 8.700e+03 7.065e-11
 55.35940    154.7 8.689e+03 7.524e-11
 55.39609    156.0 8.677e+03 7.451e-11
 55.43638    157.4 8.632e+03 7.125e-11
 55.47667    158.8 8.568e+03 6.529e-11
 55.50138    160.2 8.497e+03 5.807e-11
 55.50960    159.8 8.447e+03 5.227e-11
 55.52518    160.7 8.450e+03 5.230e-11
 55.55725    162.0 8.372e+03 4.433e-11
 55.59754    163.4 8.292e+03 3.806e-11
 55.63784    164.9 8.217e+03 3.375e-11
 55.67081    166.4 8.145e+03 3.114e-11
 55.69096    167.2 8.140e+03 2.983e-11
 55.71842    168.8 8.076e+03 2.832e-11
 55.75871    170.5 8.037e+03 2.765e-11
 55.79900    172.3 8.008e+03 2.763e-11
 55.83659    174.0 7.997e+03 2.778e-11
 55.85674    174.8 7.994e+03 2.639e-11
 55.87958    176.4 7.971e+03 2.658e-11
 55.91987    178.1 7.944e+03 2.694e-11
 55.94836    179.8 7.910e+03 2.745e-11
 55.96851    179.6 7.864e+03 2.441e-11
 56.00046    181.4 7.824e+03 2.503e-11
 56.02252    183.3 7.795e+03 2.607e-11
 56.04266    183.9 7.806e+03 2.445e-11
 56.08104    185.9 7.787e+03 2.578e-11
 56.12133    187.8 7.780e+03 2.762e-11
 56.16162    189.8 7.784e+03 2.996e-11
 56.18830    191.7 7.800e+03 3.277e-11
 56.20844    192.4 7.809e+03 3.200e-11
 56.24220    194.3 7.835e+03 3.550e-11
 56.28250    196.2 7.874e+03 3.972e-11
 56.32279    198.1 7.920e+03 4.488e-11
 56.35408    199.9 7.978e+03 5.121e-11
 56.37422    200.6 7.985e+03 5.123e-11
 56.39534    202.4 8.050e+03 5.938e-11
 56.41548    202.3 8.044e+03 5.963e-11
 56.44366    204.0 8.117e+03 6.922e-11
 56.48395    205.7 8.191e+03 8.060e-11
 56.51986    207.4 8.267e+03 9.408e-11
 56.54000    208.2 8.277e+03 9.506e-11
 56.56453    209.8 8.379e+03 1.134e-10
 56.60483    211.5 8.514e+03 1.374e-10
 56.64512    213.1 8.740e+03 1.727e-10
 56.68541    214.4 9.071e+03 2.287e-10
 56.70578    214.7 9.454e+03 3.140e-10
 56.72593    215.7 9.468e+03 3.165e-10
 56.76599    215.7 9.891e+03 4.385e-10
 56.80628    215.6 1.036e+04 6.055e-10
 56.84232    214.9 1.083e+04 8.045e-10
 56.86246    213.7 1.101e+04 8.869e-10
 56.87156    212.1 1.140e+04 1.004e-09
 56.89171    213.5 1.141e+04 1.056e-09
 56.92716    211.4 1.171e+04 1.117e-09
 56.96745    208.6 1.175e+04 1.088e-09
 57.00774    205.6 1.170e+04 9.340e-10
 57.03734    202.6 1.133e+04 6.543e-10
 57.05749    204.4 1.199e+04 9.771e-10
 57.08832    201.2 1.137e+04 6.328e-10
 57.12861    198.8 1.036e+04 3.890e-10
 57.16890    197.5 9.612e+03 3.048e-10
 57.20313    197.5 9.592e+03 3.085e-10
 57.22327    197.8 9.888e+03 3.706e-10
 57.24949    197.8 9.924e+03 3.850e-10
 57.28930    197.9 1.005e+04 4.276e-10
 57.30944    198.9 9.944e+03 4.045e-10
 57.33007    199.2 1.015e+04 4.701e-10
 57.36019    198.8 1.028e+04 5.550e-10
 57.37878    198.6 1.039e+04 6.276e-10
 57.38886    198.6 1.044e+04 5.950e-10
 57.40038    198.6 1.050e+04 5.957e-10
 57.42053    198.6 1.052e+04 5.983e-10
 57.44067    198.5 1.055e+04 6.027e-10
 57.46082    198.3 1.067e+04 6.188e-10
 57.47175    197.3 1.113e+04 6.930e-10
 57.48182    196.8 1.115e+04 6.606e-10
 57.50111    194.6 1.246e+04 1.021e-09
 57.52126    192.3 1.384e+04 2.087e-09
 57.53274    190.7 1.488e+04 4.177e-09
 57.54281    192.9 1.385e+04 2.067e-09
 57.55464    191.5 1.471e+04 3.855e-09
 57.56471    191.3 1.429e+04 3.400e-09
 57.58169    190.6 1.480e+04 5.099e-09
 57.60184    190.4 1.527e+04 5.895e-09
 57.62198    190.3 1.533e+04 5.776e-09
 57.63753    190.3 1.530e+04 5.224e-09
 57.64760    189.8 1.498e+04 4.539e-09
 57.66228    189.8 1.496e+04 3.475e-09
 57.68242    189.4 1.473e+04 2.318e-09
 57.70257    188.8 1.413e+04 1.511e-09
 57.72051    188.0 1.254e+04 9.865e-10
 57.74076    188.1 1.262e+04 9.850e-10
 57.75642    189.3 1.211e+04 9.792e-10
 57.76640    190.4 1.314e+04 1.325e-09
 57.78315    190.7 1.270e+04 1.315e-09
 57.80330    191.2 1.264e+04 1.325e-09
 57.82344    191.9 1.265e+04 1.431e-09
 57.84359    192.6 1.268e+04 1.553e-09
 57.86373    193.4 1.285e+04 1.640e-09
 57.88388    194.1 1.291e+04 1.641e-09
 57.89627    194.6 1.295e+04 1.604e-09
 57.90634    194.7 1.290e+04 1.607e-09
 57.92417    195.0 1.290e+04 1.458e-09
 57.94431    195.2 1.273e+04 1.225e-09
 57.96446    195.2 1.244e+04 9.644e-10
 57.97916    195.0 1.204e+04 7.725e-10
 57.98434    195.3 1.200e+04 7.545e-10
 57.98979    196.7 1.301e+04 1.183e-09
 58.00475    196.3 1.265e+04 8.751e-10
 58.02490    196.1 1.248e+04 7.854e-10
 58.05208    196.0 1.206e+04 6.349e-10
 58.07232    196.8 1.226e+04 6.661e-10
 58.08543    196.5 1.208e+04 6.028e-10
 58.10548    196.2 1.195e+04 5.637e-10
 58.12563    195.7 1.188e+04 5.326e-10
 58.14494    195.3 1.185e+04 5.042e-10
 58.15501    195.1 1.190e+04 4.890e-10
 58.17609    195.1 1.184e+04 4.630e-10
 58.20340    195.4 1.182e+04 4.402e-10
 58.21337    195.9 1.188e+04 4.796e-10
 58.22635    196.0 1.184e+04 4.695e-10
 58.23790    196.4 1.180e+04 4.582e-10
 58.24798    196.5 1.184e+04 4.808e-10
 58.26664    196.9 1.182e+04 4.699e-10
 58.28679    197.5 1.182e+04 4.503e-10
 58.30694    198.0 1.181e+04 4.337e-10
 58.32079    198.7 1.181e+04 4.096e-10
 58.33087    199.0 1.184e+04 4.036e-10
 58.34723    199.5 1.181e+04 3.782e-10
 58.37754    201.0 1.186e+04 3.767e-10
 58.40388    202.2 1.185e+04 3.429e-10
 58.41385    202.3 1.178e+04 3.127e-10
 58.42669    202.9 1.176e+04 3.065e-10
 58.43677    203.6 1.186e+04 3.341e-10
 58.44796    204.1 1.183e+04 3.263e-10
 58.46810    204.8 1.181e+04 3.261e-10
 58.48657    205.4 1.181e+04 3.273e-10
 58.49665    206.0 1.182e+04 3.272e-10
 58.50839    206.6 1.184e+04 3.310e-10
 58.52854    207.2 1.182e+04 3.422e-10
 58.54868    207.7 1.185e+04 3.605e-10
 58.56883    207.9 1.193e+04 3.861e-10
 58.57954    207.9 1.205e+04 4.278e-10
 58.58961    207.7 1.229e+04 5.012e-10
 58.60912    206.9 1.299e+04 7.796e-10
 58.62927    206.0 1.386e+04 1.372e-09
 58.64941    204.9 1.470e+04 2.426e-09
 58.66026    203.7 1.555e+04 4.046e-09
 58.66320    204.8 1.586e+04 3.913e-09
 58.67250    204.1 1.700e+04 6.456e-09
 58.68462    202.7 1.741e+04 7.868e-09
 58.69464    201.7 1.765e+04 8.899e-09
 58.70980    200.1 1.869e+04 1.246e-08
 58.72999    197.9 1.888e+04 1.256e-08
 58.74532    195.3 1.872e+04 1.098e-08
 58.75539    194.0 1.983e+04 1.324e-08
 58.77029    190.5 1.912e+04 8.183e-09
 58.79043    186.4 1.792e+04 4.356e-09
 58.81058    182.0 1.628e+04 2.361e-09
 58.82821    178.3 1.445e+04 1.667e-09
 58.83828    176.9 1.484e+04 2.137e-09
 58.85087    175.6 1.454e+04 1.908e-09
 58.87101    175.3 1.445e+04 1.812e-09
 58.88374    175.1 1.441e+04 1.689e-09
 58.89382    173.5 1.463e+04 1.952e-09
 58.91110    173.4 1.459e+04 1.897e-09
 58.92117    172.6 1.523e+04 2.502e-09
 58.93145    172.8 1.522e+04 2.492e-09
 58.95160    173.2 1.515e+04 2.467e-09
 58.97174    173.8 1.506e+04 2.436e-09
 58.99189    174.5 1.495e+04 2.402e-09
 59.00406    175.3 1.488e+04 2.396e-09
 59.01413    174.8 1.566e+04 3.605e-09
 59.03218    175.7 1.565e+04 3.640e-09
 59.05232    176.6 1.568e+04 3.804e-09
 59.07247    177.4 1.595e+04 4.259e-09
 59.08695    177.8 1.649e+04 5.109e-09
 59.09702    177.1 1.698e+04 6.202e-09
 59.10723    177.0 1.773e+04 7.930e-09
 59.11731    176.3 1.792e+04 8.134e-09
 59.13291    176.2 1.873e+04 1.121e-08
 59.15305    176.0 1.960e+04 1.544e-08
 59.16811    175.5 2.020e+04 1.930e-08
 59.17478    175.1 2.070e+04 2.299e-08
 59.17982    174.4 2.071e+04 2.382e-08
 59.18821    173.8 2.129e+04 2.919e-08
 59.19828    173.2 2.182e+04 3.473e-08
 59.20836    172.4 2.222e+04 3.791e-08
 59.21623    171.2 2.227e+04 3.788e-08
 59.22126    171.0 2.187e+04 3.703e-08
 59.22392    169.8 2.183e+04 3.608e-08
 59.22895    169.0 2.235e+04 4.581e-08
 59.23857    168.2 2.208e+04 4.138e-08
 59.24865    168.2 2.148e+04 3.402e-08
 59.25767    168.1 2.098e+04 2.847e-08
 59.26271    168.1 2.063e+04 2.589e-08
 59.27388    168.2 1.983e+04 1.949e-08
 59.29407    167.9 1.898e+04 1.387e-08
 59.31422    167.6 1.786e+04 9.288e-09
 59.33072    167.4 1.686e+04 6.335e-09
 59.34080    166.4 1.670e+04 5.565e-09
 59.34569    166.2 1.576e+04 3.784e-09
 59.35577    166.5 1.539e+04 3.130e-09
 59.37465    166.3 1.461e+04 2.286e-09
 59.39480    166.3 1.402e+04 1.811e-09
 59.41495    166.8 1.357e+04 1.474e-09
 59.42858    167.2 1.340e+04 1.349e-09
 59.43876    167.8 1.350e+04 1.440e-09
 59.46550    168.9 1.307e+04 1.070e-09
 59.50580    170.1 1.262e+04 7.177e-10
 59.54433    171.2 1.221e+04 4.454e-10
 59.56448    170.0 1.167e+04 2.447e-10
 59.58449    170.8 1.095e+04 1.735e-10
 59.60463    171.3 1.095e+04 1.749e-10
 59.62667    172.3 1.077e+04 1.702e-10
 59.66696    173.5 1.077e+04 1.698e-10
 59.70725    174.6 1.076e+04 1.740e-10
 59.74754    175.4 1.088e+04 1.942e-10
 59.77041    175.8 1.104e+04 2.505e-10
 59.79056    175.4 1.134e+04 3.032e-10
 59.82813    175.3 1.139e+04 3.758e-10
 59.86842    175.0 1.144e+04 4.332e-10
 59.90871    174.2 1.146e+04 4.734e-10
 59.93619    173.5 1.159e+04 5.106e-10
 59.94617    172.9 1.165e+04 5.018e-10
 59.95888    172.2 1.164e+04 5.102e-10
 59.97902    171.6 1.165e+04 5.329e-10
 59.99917    171.3 1.169e+04 5.611e-10
 60.01126    171.2 1.168e+04 5.779e-10
 60.02091    171.3 1.144e+04 5.061e-10
 60.02896    170.8 1.153e+04 5.309e-10
 60.03946    170.5 1.158e+04 5.499e-10
 60.05961    170.4 1.164e+04 5.744e-10
 60.07975    170.2 1.171e+04 6.187e-10
 60.09990    169.8 1.180e+04 6.790e-10
 60.11185    169.2 1.190e+04 7.452e-10
 60.12192    168.5 1.197e+04 7.830e-10
 60.14019    167.9 1.204e+04 8.351e-10
 60.16033    167.1 1.209e+04 8.731e-10
 60.18048    166.4 1.212e+04 8.973e-10
 60.19474    165.5 1.213e+04 9.132e-10
 60.20481    164.6 1.211e+04 9.177e-10
 60.22077    163.9 1.207e+04 9.192e-10
 60.23475    163.3 1.202e+04 9.207e-10
 60.24483    163.6 1.167e+04 7.280e-10
 60.26106    163.3 1.167e+04 7.318e-10
 60.27763    162.8 1.170e+04 7.457e-10
 60.28770    162.3 1.167e+04 7.448e-10
 60.30135    161.6 1.167e+04 7.506e-10
 60.32150    161.0 1.162e+04 7.414e-10
 60.34164    160.5 1.147e+04 7.131e-10
 60.36052    160.1 1.131e+04 6.759e-10
 60.37060    159.5 1.116e+04 6.314e-10
 60.38194    159.3 1.108e+04 5.863e-10
 60.40208    159.0 1.104e+04 5.392e-10
 60.42223    158.7 1.100e+04 4.940e-10
 60.44237    158.4 1.093e+04 4.538e-10
 60.45349    157.8 1.083e+04 4.064e-10
 60.45938    157.4 1.069e+04 3.832e-10
 60.46841    158.2 1.087e+04 4.796e-10
 60.48266    157.9 1.077e+04 4.413e-10
 60.50281    157.6 1.072e+04 4.193e-10
 60.52296    157.3 1.074e+04 4.103e-10
 60.55327    157.5 1.071e+04 4.036e-10
 60.59366    158.1 1.058e+04 3.694e-10
 60.61946    158.6 1.047e+04 3.324e-10
 60.63961    158.6 1.049e+04 3.426e-10
 60.67424    158.6 1.049e+04 3.175e-10
 60.71453    158.5 1.054e+04 3.080e-10
 60.75483    158.4 1.059e+04 3.092e-10
 60.78524    158.2 1.068e+04 3.155e-10
 60.80539    157.6 1.079e+04 3.329e-10
 60.83541    157.7 1.089e+04 3.314e-10
 60.87570    157.8 1.094e+04 3.276e-10
 60.90542    157.7 1.098e+04 3.264e-10
 60.92556    156.8 1.140e+04 4.008e-10
 60.95102    156.7 1.142e+04 3.998e-10
 60.97117    155.8 1.142e+04 4.049e-10
 60.99657    155.6 1.147e+04 4.122e-10
 61.03686    155.7 1.150e+04 4.202e-10
 61.07716    156.3 1.157e+04 4.424e-10
 61.11680    156.3 1.156e+04 4.743e-10
 61.13695    156.0 1.146e+04 4.526e-10
 61.13888    156.4 1.147e+04 4.863e-10
 61.14886    156.1 1.145e+04 4.453e-10
 61.16762    156.2 1.145e+04 4.270e-10
 61.18776    156.4 1.145e+04 4.248e-10
 61.20791    156.4 1.147e+04 4.358e-10
 61.21964    156.2 1.152e+04 4.829e-10
 61.22972    155.9 1.141e+04 4.303e-10
 61.24820    155.5 1.151e+04 5.313e-10
 61.26834    155.0 1.180e+04 7.009e-10
 61.28849    154.2 1.226e+04 8.784e-10
 61.30253    152.7 1.261e+04 8.899e-10
 61.32278    152.5 1.245e+04 7.745e-10
 61.35240    152.0 1.233e+04 6.977e-10
 61.37254    152.4 1.222e+04 6.666e-10
 61.39949    151.8 1.200e+04 5.516e-10
 61.43978    151.3 1.171e+04 3.690e-10
 61.46851    150.7 1.131e+04 2.287e-10
 61.48865    151.0 1.128e+04 2.248e-10
 61.52036    150.3 1.078e+04 1.804e-10
 61.56065    149.9 1.064e+04 1.777e-10
 61.60094    149.8 1.063e+04 1.785e-10
 61.63429    149.7 1.062e+04 1.895e-10
 61.65443    149.2 1.080e+04 2.305e-10
 61.68152    148.6 1.094e+04 2.745e-10
 61.72182    147.9 1.123e+04 3.437e-10
 61.76211    146.8 1.144e+04 4.188e-10
 61.79937    145.8 1.131e+04 4.353e-10
 61.81719    144.5 1.152e+04 4.461e-10
 61.82021    143.0 1.128e+04 4.637e-10
 61.84269    143.2 1.064e+04 3.432e-10
 61.88298    143.6 1.013e+04 2.531e-10
 61.92327    144.3 1.003e+04 2.369e-10
 61.96356    145.4 1.019e+04 2.450e-10
 61.98600    145.6 1.054e+04 2.983e-10
 61.99597    144.9 1.057e+04 3.001e-10
 62.01373    144.3 1.080e+04 3.847e-10
 62.03274    143.3 1.103e+04 5.406e-10
 62.04281    142.8 1.115e+04 5.640e-10
 62.05402    142.3 1.145e+04 8.042e-10
 62.06869    142.0 1.181e+04 1.086e-09
 62.07876    141.4 1.206e+04 1.259e-09
 62.09431    141.2 1.239e+04 1.460e-09
 62.11446    140.7 1.253e+04 1.487e-09
 62.13461    139.9 1.251e+04 1.461e-09
 62.15158    139.1 1.230e+04 1.339e-09
 62.16165    138.4 1.213e+04 1.263e-09
 62.17490    138.0 1.163e+04 1.045e-09
 62.19504    137.7 1.113e+04 8.492e-10
 62.21519    137.5 1.073e+04 6.977e-10
 62.23447    137.5 1.044e+04 5.834e-10
 62.24454    137.0 1.041e+04 5.635e-10
 62.25548    136.8 1.029e+04 4.921e-10
 62.26640    137.4 1.015e+04 4.213e-10
 62.27647    136.8 1.012e+04 4.507e-10
 62.29577    136.9 1.008e+04 4.141e-10
 62.31746    137.1 1.004e+04 3.815e-10
 62.33770    136.9 1.001e+04 3.822e-10
 62.36648    137.9 9.954e+03 3.613e-10
 62.40677    138.9 9.968e+03 3.553e-10
 62.44706    139.8 9.987e+03 3.556e-10
 62.48334    140.5 9.962e+03 3.591e-10
 62.50348    140.7 9.940e+03 3.430e-10
 62.51747    141.4 1.001e+04 3.703e-10
 62.53752    142.0 1.010e+04 4.012e-10
 62.55766    142.5 1.016e+04 4.255e-10
 62.57610    143.0 1.019e+04 4.416e-10
 62.58618    143.2 1.008e+04 4.078e-10
 62.59795    143.7 1.009e+04 4.172e-10
 62.61810    144.3 1.009e+04 4.224e-10
 62.63825    144.8 1.012e+04 4.311e-10
 62.65839    145.3 1.019e+04 4.507e-10
 62.66907    145.5 1.038e+04 4.949e-10
 62.67914    146.1 1.015e+04 4.218e-10
 62.69868    146.2 1.048e+04 4.849e-10
 62.71328    146.1 1.107e+04 6.146e-10
 62.72335    145.0 1.265e+04 1.442e-09
 62.73897    144.6 1.324e+04 2.015e-09
 62.75196    144.3 1.373e+04 2.746e-09
 62.76203    144.9 1.379e+04 2.625e-09
 62.77927    144.8 1.424e+04 3.520e-09
 62.79941    144.7 1.470e+04 4.368e-09
 62.81956    144.3 1.529e+04 4.985e-09
 62.83485    143.2 1.606e+04 5.255e-09
 62.84492    144.3 1.646e+04 6.277e-09
 62.85985    142.6 1.736e+04 6.309e-09
 62.87999    140.0 1.753e+04 6.219e-09
 62.90014    137.0 1.745e+04 5.950e-09
 62.91774    133.9 1.673e+04 5.596e-09
 62.92781    135.1 1.766e+04 6.695e-09
 62.93677    131.8 1.644e+04 5.932e-09
 62.94684    129.7 1.495e+04 4.593e-09
 62.96058    127.3 1.458e+04 4.164e-09
 62.98072    125.2 1.446e+04 3.607e-09
 63.00063    123.3 1.422e+04 2.834e-09
 63.01070    123.4 1.457e+04 3.204e-09
 63.02101    121.5 1.398e+04 2.220e-09
 63.04116    119.4 1.290e+04 1.381e-09
 63.06130    116.8 1.152e+04 9.093e-10
 63.08145    114.2 1.106e+04 8.400e-10
 63.09359    111.8 1.108e+04 8.586e-10
 63.10366    112.1 1.154e+04 1.058e-09
 63.12174    109.5 1.187e+04 1.254e-09
 63.14189    106.6 1.294e+04 1.971e-09
 63.16026    103.8 1.425e+04 3.297e-09
 63.17033    103.8 1.407e+04 3.035e-09
 63.17648    100.5 1.518e+04 4.018e-09
 63.18655    100.5 1.596e+04 4.984e-09
 63.20232     96.1 1.625e+04 4.991e-09
 63.22247     91.3 1.619e+04 4.445e-09
 63.24261     86.6 1.540e+04 3.167e-09
 63.25937     82.2 1.388e+04 2.043e-09
 63.26944     81.8 1.428e+04 2.439e-09
 63.28291     78.3 1.268e+04 1.623e-09
 63.30305     75.0 1.176e+04 1.197e-09
 63.33229     70.8 1.202e+04 1.021e-09
 63.35243     67.8 1.238e+04 1.092e-09
 63.36349     64.8 1.268e+04 1.189e-09
 63.38363     62.0 1.292e+04 1.376e-09
 63.39382     60.7 1.302e+04 1.622e-09
 63.40390     62.9 1.254e+04 1.224e-09
 63.42393     61.3 1.249e+04 1.418e-09
 63.43522     60.1 1.231e+04 1.542e-09
 63.44530     59.8 1.240e+04 1.871e-09
 63.46422     58.1 1.270e+04 1.875e-09
 63.48436     55.7 1.323e+04 1.845e-09
 63.50451     52.1 1.406e+04 1.909e-09
 63.51811     48.0 1.505e+04 2.257e-09
 63.52819     43.8 1.776e+04 4.480e-09
 63.54480     40.4 1.808e+04 6.124e-09
 63.56495     38.1 1.806e+04 7.429e-09
 63.58509     36.3 1.778e+04 7.374e-09
 63.60100     34.9 1.711e+04 6.060e-09
 63.61108     32.6 1.745e+04 6.407e-09
 63.61731     30.7 1.598e+04 3.545e-09
 63.62738     32.2 1.701e+04 5.383e-09
 63.64553     29.7 1.499e+04 2.352e-09
 63.66567     25.6 1.238e+04 9.325e-10
 63.68389     22.0 1.058e+04 5.395e-10
 63.69397     18.7 1.013e+04 4.656e-10
 63.70596     18.4 9.987e+03 4.488e-10
 63.72611     18.4 9.940e+03 4.456e-10
 63.74626     18.6 9.918e+03 4.446e-10
 63.76640     18.7 9.831e+03 4.352e-10
 63.77686     18.8 9.775e+03 4.283e-10
 63.78693     18.2 9.703e+03 4.106e-10
 63.80669     18.5 9.651e+03 3.999e-10
 63.82684     18.6 9.637e+03 3.924e-10
 63.84080     18.9 9.645e+03 3.929e-10
 63.85087     18.4 9.663e+03 4.042e-10
 63.85975     18.6 9.655e+03 3.976e-10
 63.86982     18.2 9.610e+03 3.867e-10
 63.88728     18.4 9.632e+03 3.926e-10
 63.90742     18.7 9.681e+03 4.044e-10
 63.92757     18.7 9.874e+03 4.428e-10
 63.94264     18.4 1.025e+04 5.229e-10
 63.95271     17.6 1.065e+04 6.280e-10
 63.96786     16.1 1.188e+04 9.714e-10
 63.98800     13.7 1.362e+04 1.829e-09
 64.00815     11.4 1.529e+04 3.726e-09
 64.02553     10.7 1.678e+04 7.289e-09
 64.03560     10.6 1.687e+04 8.038e-09
 64.04844     10.7 1.813e+04 1.264e-08
 64.06429     10.1 1.867e+04 1.442e-08
 64.07436      9.5 1.890e+04 1.465e-08
 64.08873      9.2 1.869e+04 1.340e-08
 64.10842      8.8 1.826e+04 1.046e-08
 64.11849      9.4 1.756e+04 8.420e-09
 64.12902      7.9 1.723e+04 6.198e-09
 64.14917      5.4 1.674e+04 4.994e-09
 64.16931      3.2 1.606e+04 4.530e-09
 64.18946      2.5 1.563e+04 4.587e-09
 64.20138      2.6 1.538e+04 4.479e-09
 64.21145      3.3 1.571e+04 5.075e-09
 64.22975      3.6 1.554e+04 4.867e-09
 64.24990      3.9 1.515e+04 4.226e-09
 64.27004      4.1 1.465e+04 3.431e-09
 64.28427      4.1 1.404e+04 2.707e-09
 64.29194      4.8 1.459e+04 3.373e-09
 64.29785      3.7 1.403e+04 2.640e-09
 64.31033      3.0 1.331e+04 1.988e-09
 64.33048      2.9 1.295e+04 1.701e-09
 64.35062      2.7 1.263e+04 1.480e-09
 64.36726      2.8 1.249e+04 1.337e-09
 64.37733      3.0 1.264e+04 1.487e-09
 64.39092      2.8 1.233e+04 1.302e-09
 64.42123      3.0 1.221e+04 1.223e-09
 64.46162      3.6 1.162e+04 9.062e-10
 64.50139      4.8 1.098e+04 5.906e-10
 64.52154      4.5 1.076e+04 5.273e-10
 64.53314      5.8 1.022e+04 3.231e-10
 64.55328      6.2 1.021e+04 3.231e-10
 64.58249      7.7 9.675e+03 1.698e-10
 64.62279      9.0 9.214e+03 8.867e-11
 64.66308     10.4 8.996e+03 6.968e-11
 64.69892     12.3 8.968e+03 6.935e-11
 64.71906     12.8 8.955e+03 6.649e-11
 64.74366     14.8 8.964e+03 6.744e-11
 64.78395     16.7 9.007e+03 7.280e-11
 64.82424     18.4 9.095e+03 8.725e-11
 64.86453     19.9 9.269e+03 1.133e-10
 64.90482     21.4 9.505e+03 1.367e-10
 64.94512     21.8 9.821e+03 1.851e-10
 64.96852     21.6 1.021e+04 2.509e-10
 64.98866     21.1 1.011e+04 2.107e-10
 65.02570     20.9 1.029e+04 2.369e-10
 65.05062     20.6 1.038e+04 2.550e-10
 65.07077     21.0 1.031e+04 2.383e-10
 65.10628     20.5 1.031e+04 2.573e-10
 65.14657     20.2 1.021e+04 2.714e-10
 65.18686     20.0 1.012e+04 2.800e-10
 65.21640     20.0 1.008e+04 2.853e-10
 65.23655     20.6 1.001e+04 2.460e-10
 65.26745     20.5 1.004e+04 2.510e-10
 65.30774     20.1 1.014e+04 2.731e-10
 65.34803     19.6 1.026e+04 3.071e-10
 65.38219     19.1 1.024e+04 3.265e-10
 65.40233     19.8 1.010e+04 2.787e-10
 65.41549     19.3 1.004e+04 2.864e-10
 65.43564     20.1 1.027e+04 3.593e-10
 65.46890     19.6 1.018e+04 3.484e-10
 65.50919     19.4 9.975e+03 3.165e-10
 65.54797     19.5 9.760e+03 2.827e-10
 65.56811     20.4 9.779e+03 2.861e-10
 65.58978     20.6 9.648e+03 2.582e-10
 65.63007     20.9 9.521e+03 2.278e-10
 65.67036     21.4 9.383e+03 1.984e-10
 65.71065     22.0 9.313e+03 1.833e-10
 65.73389     23.0 9.312e+03 1.833e-10
 65.75404     24.0 9.320e+03 1.832e-10
 65.79123     24.4 9.494e+03 1.967e-10
 65.81668     24.4 9.655e+03 2.130e-10
 65.82666     24.9 9.700e+03 2.152e-10
 65.84140     25.0 9.903e+03 2.414e-10
 65.86155     24.7 1.024e+04 2.982e-10
 65.87235     24.1 1.077e+04 4.083e-10
 65.88242     25.6 1.035e+04 3.329e-10
 65.89948     24.7 1.093e+04 4.593e-10
 65.90955     25.2 1.105e+04 5.055e-10
 65.92198     24.1 1.165e+04 7.320e-10
 65.94213     22.9 1.222e+04 1.088e-09
 65.96227     21.7 1.277e+04 1.621e-09
 65.98237     20.8 1.337e+04 2.290e-09
 66.00251     20.4 1.391e+04 2.693e-09
 66.02271     18.8 1.425e+04 2.729e-09
 66.04286     16.8 1.431e+04 2.578e-09
 66.06300     14.5 1.415e+04 2.109e-09
 66.07533     11.9 1.358e+04 1.697e-09
 66.08540     12.0 1.361e+04 1.614e-09
 66.09584      9.5 1.303e+04 1.359e-09
 66.10591     10.8 1.246e+04 9.826e-10
 66.12344      8.3 1.174e+04 7.748e-10
 66.14359      6.8 1.158e+04 6.741e-10
 66.15822      5.7 1.168e+04 6.439e-10
 66.16829      5.7 1.156e+04 6.058e-10
 66.18388      4.8 1.160e+04 5.991e-10
 66.20402      4.0 1.162e+04 6.091e-10
 66.22417      3.2 1.169e+04 6.504e-10
 66.24111      2.6 1.181e+04 7.381e-10
 66.25118      2.3 1.184e+04 7.024e-10
 66.26446      1.7 1.188e+04 8.401e-10
 66.28460      1.4 1.183e+04 9.904e-10
 66.30475      1.5 1.173e+04 1.136e-09
 66.31933      1.8 1.172e+04 1.255e-09
 66.32851      2.1 1.180e+04 1.128e-09
 66.33407      1.9 1.176e+04 1.127e-09
 66.34504      2.6 1.179e+04 1.308e-09
 66.36519      3.4 1.179e+04 1.332e-09
 66.38533      4.1 1.182e+04 1.284e-09
 66.40548      4.6 1.187e+04 1.144e-09
 66.41696      4.6 1.178e+04 9.561e-10
 66.42704      4.4 1.167e+04 8.921e-10
 66.44577      4.2 1.137e+04 7.367e-10
 66.46592      4.0 1.100e+04 6.319e-10
 66.48606      4.0 1.071e+04 5.701e-10
 66.49985      4.1 1.054e+04 5.313e-10
 66.50993      4.1 1.048e+04 5.212e-10
 66.52635      4.5 1.041e+04 4.956e-10
 66.54282      5.1 1.036e+04 4.712e-10
 66.55289      5.2 1.044e+04 5.063e-10
 66.56664      5.7 1.041e+04 4.884e-10
 66.58274      6.3 1.040e+04 4.728e-10
 66.59282      6.3 1.034e+04 4.648e-10
 66.60693      6.9 1.032e+04 4.529e-10
 66.62708      7.4 1.028e+04 4.455e-10
 66.64723      8.1 1.028e+04 4.462e-10
 66.66563      8.7 1.032e+04 4.532e-10
 66.67571      8.7 1.031e+04 4.540e-10
 66.68752      9.2 1.037e+04 4.757e-10
 66.70766      9.7 1.044e+04 5.074e-10
 66.72781     10.2 1.051e+04 5.447e-10
 66.74795     10.8 1.057e+04 5.767e-10
 66.75860     11.4 1.061e+04 5.951e-10
 66.76688     11.5 1.064e+04 6.073e-10
 66.77638     11.9 1.089e+04 8.032e-10
 66.78825     12.6 1.096e+04 8.389e-10
 66.80839     13.3 1.108e+04 8.636e-10
 66.82854     13.7 1.126e+04 8.945e-10
 66.84149     13.6 1.147e+04 9.398e-10
 66.85156     13.7 1.147e+04 9.406e-10
 66.86883     13.6 1.174e+04 1.015e-09
 66.88897     13.2 1.208e+04 1.145e-09
 66.90912     12.8 1.238e+04 1.304e-09
 66.92438     12.3 1.244e+04 1.382e-09
 66.93445     12.5 1.229e+04 1.257e-09
 66.94941     12.1 1.219e+04 1.214e-09
 66.96956     11.8 1.190e+04 1.072e-09
 66.98970     11.5 1.150e+04 8.583e-10
 67.00727     11.5 1.141e+04 6.220e-10
 67.01734     11.6 1.130e+04 5.916e-10
 67.02999     10.3 1.077e+04 3.814e-10
 67.05014      8.8 1.034e+04 2.589e-10
 67.08018      8.1 9.968e+03 1.923e-10
 67.10043      9.2 9.955e+03 2.004e-10
 67.12084      9.3 9.643e+03 1.789e-10
 67.16114      9.7 9.654e+03 1.822e-10
 67.20143     10.2 9.700e+03 2.012e-10
 67.22356     10.7 9.824e+03 2.393e-10
 67.24370     11.1 9.741e+03 2.396e-10
 67.26621     11.6 9.767e+03 2.740e-10
 67.28635     12.7 9.615e+03 2.579e-10
 67.32230     13.3 9.534e+03 2.713e-10
 67.36259     13.8 9.407e+03 2.720e-10
 67.40288     14.3 9.276e+03 2.690e-10
 67.43199     14.8 9.237e+03 2.703e-10
 67.45213     16.1 9.105e+03 2.434e-10
 67.48347     16.7 9.119e+03 2.617e-10
 67.52376     17.3 9.295e+03 3.020e-10
 67.55388     18.0 9.347e+03 3.117e-10
 67.57393     17.6 9.650e+03 3.539e-10
 67.59407     16.5 1.018e+04 4.559e-10
 67.60764     15.4 1.062e+04 5.916e-10
 67.61772     15.7 1.069e+04 6.221e-10
 67.63436     15.0 1.079e+04 7.392e-10
 67.65451     14.5 1.071e+04 7.499e-10
 67.67034     14.3 1.057e+04 7.313e-10
 67.68041     15.1 1.057e+04 7.169e-10
 67.69053     14.9 1.043e+04 7.015e-10
 67.70061     15.1 1.048e+04 7.126e-10
 67.71494     14.9 1.034e+04 6.856e-10
 67.73509     14.8 1.025e+04 6.681e-10
 67.75524     14.8 1.021e+04 6.613e-10
 67.77342     14.9 1.018e+04 6.569e-10
 67.78350     14.8 1.022e+04 6.729e-10
 67.79553     15.1 1.020e+04 6.680e-10
 67.81567     15.4 1.021e+04 6.675e-10
 67.83582     15.7 1.025e+04 6.735e-10
 67.85596     15.8 1.041e+04 7.059e-10
 67.86639     15.8 1.066e+04 7.711e-10
 67.87646     15.4 1.078e+04 8.333e-10
 67.89383     15.2 1.115e+04 9.583e-10
 67.90390     16.8 1.115e+04 9.790e-10
 67.91640     16.8 1.144e+04 1.094e-09
 67.93655     16.6 1.170e+04 1.207e-09
 67.94928     16.4 1.189e+04 1.291e-09
 67.95935     15.7 1.195e+04 1.334e-09
 67.97684     15.1 1.197e+04 1.343e-09
 67.99698     14.4 1.196e+04 1.334e-09
 68.01713     13.3 1.199e+04 1.324e-09
 68.03217     11.6 1.209e+04 1.347e-09
 68.04224     10.6 1.204e+04 1.342e-09
 68.05742      7.8 1.242e+04 1.431e-09
 68.07757      2.7 1.346e+04 1.770e-09
 68.09263      0.3 1.361e+04 1.916e-09
 68.10265     -2.7 1.546e+04 2.015e-09
 68.11272    -25.9 4.514e+04 2.982e-09
 68.12000    -50.3 5.106e+04 1.418e-08
 68.12449    -48.4 5.276e+04 1.087e-08
 68.12729    -52.4 4.688e+04 1.853e-08
 68.13287    -62.5 2.673e+04 9.608e-08
 68.14294    -66.3 2.165e+04 1.057e-07
 68.15301    -67.5 2.061e+04 6.323e-08
 68.16144    -67.8 2.260e+04 2.901e-08
 68.16648    -67.9 2.295e+04 2.729e-08
 68.17825    -73.1 3.725e+04 3.250e-09
 68.19795   -102.5 4.016e+04 1.881e-10
 68.20802   -103.3 3.630e+04 2.031e-10
 68.21859   -122.9 9.115e+03 1.713e-10
 68.24890   -124.5 8.229e+03 1.720e-10
 68.28103   -125.9 8.224e+03 1.938e-10
 68.30118   -125.0 8.973e+03 3.016e-10
 68.32958   -126.9 9.285e+03 3.649e-10
 68.36987   -129.5 9.989e+03 4.952e-10
 68.41016   -132.8 1.119e+04 8.035e-10
 68.44028   -135.5 1.190e+04 1.136e-09
 68.45669   -137.6 1.228e+04 1.500e-09
 68.46676   -137.2 1.187e+04 1.232e-09
 68.48048   -139.1 1.196e+04 1.455e-09
 68.50062   -140.1 1.195e+04 1.491e-09
 68.52077   -140.8 1.181e+04 1.474e-09
 68.53958   -141.4 1.135e+04 1.187e-09
 68.54965   -141.4 1.120e+04 1.126e-09
 68.56106   -142.3 1.071e+04 7.803e-10
 68.57437   -143.7 1.005e+04 4.729e-10
 68.58444   -144.4 1.005e+04 4.728e-10
 68.61152   -146.6 9.210e+03 2.878e-10
 68.63274   -147.6 8.543e+03 2.037e-10
 68.65289   -147.0 8.673e+03 2.275e-10
 68.69220   -147.6 8.267e+03 1.767e-10
 68.73249   -147.7 8.168e+03 1.597e-10
 68.77279   -147.7 8.144e+03 1.559e-10
 68.79852   -147.8 8.141e+03 1.551e-10
 68.81867   -147.4 8.236e+03 1.656e-10
 68.85337   -147.9 8.434e+03 1.793e-10
 68.89366   -148.6 8.882e+03 2.323e-10
 68.93395   -149.1 9.434e+03 3.231e-10
 68.96407   -148.8 9.874e+03 4.269e-10
 68.97418   -149.2 1.001e+04 4.638e-10
 68.98435   -148.5 9.865e+03 4.195e-10
 69.00436   -149.2 1.027e+04 5.844e-10
 69.02135   -149.3 1.048e+04 6.752e-10
 69.03142   -150.1 1.050e+04 6.622e-10
 69.04456   -150.1 1.061e+04 6.801e-10
 69.05707   -150.1 1.064e+04 6.809e-10
 69.06714   -149.5 1.066e+04 6.875e-10
 69.08485   -149.5 1.076e+04 6.653e-10
 69.10499   -150.1 1.082e+04 5.620e-10
 69.12998   -151.7 1.052e+04 4.054e-10
 69.15013   -150.5 1.069e+04 4.436e-10
 69.17560   -150.8 1.055e+04 4.016e-10
 69.21599   -151.2 1.018e+04 3.021e-10
 69.25628   -152.2 9.670e+03 2.212e-10
 69.29586   -152.8 9.306e+03 1.854e-10
 69.31601   -151.7 9.596e+03 2.420e-10
 69.33686   -152.1 9.304e+03 2.145e-10
 69.37715   -152.1 9.208e+03 2.061e-10
 69.41745   -151.7 9.116e+03 1.981e-10
 69.45774   -150.9 8.977e+03 1.798e-10
 69.47859   -150.0 8.819e+03 1.541e-10
 69.48250   -151.0 8.669e+03 1.305e-10
 69.50193   -150.3 8.697e+03 1.234e-10
 69.53832   -149.8 8.690e+03 1.199e-10
 69.57861   -149.9 8.771e+03 1.219e-10
 69.61890   -150.9 9.301e+03 2.072e-10
 69.64757   -151.7 1.055e+04 5.010e-10
 69.66771   -152.0 1.104e+04 5.736e-10
 69.69948   -152.1 1.193e+04 1.105e-09
 69.73978   -152.2 1.238e+04 1.397e-09
 69.78007   -152.7 1.243e+04 1.411e-09
 69.81019   -153.1 1.232e+04 1.201e-09
 69.82323   -154.1 1.202e+04 9.375e-10
 69.83330   -153.8 1.198e+04 9.115e-10
 69.85038   -155.0 1.140e+04 6.580e-10
 69.87053   -155.3 1.127e+04 6.015e-10
 69.89067   -155.5 1.124e+04 5.884e-10
 69.90612   -155.4 1.125e+04 5.891e-10
 69.91619   -155.2 1.113e+04 5.442e-10
 69.92538   -155.1 1.123e+04 5.739e-10
 69.93545   -156.5 1.130e+04 5.903e-10
 69.95111   -156.1 1.140e+04 6.301e-10
 69.97125   -155.7 1.148e+04 6.482e-10
 69.98901   -155.3 1.151e+04 6.495e-10
 69.99908   -155.0 1.146e+04 6.382e-10
 70.01155   -154.6 1.154e+04 6.268e-10
 70.03169   -154.2 1.148e+04 6.024e-10
 70.05184   -153.8 1.143e+04 5.587e-10
 70.07190   -153.3 1.134e+04 5.051e-10
 70.09204   -152.6 1.118e+04 4.726e-10
 70.11227   -152.2 1.102e+04 4.109e-10
 70.14259   -151.9 1.083e+04 3.528e-10
 70.16505   -150.3 1.069e+04 3.296e-10
 70.18520   -149.7 1.067e+04 3.433e-10
 70.22327   -148.1 1.062e+04 3.361e-10
 70.26356   -146.7 1.087e+04 3.569e-10
 70.30385   -145.5 1.131e+04 4.420e-10
 70.33074   -144.3 1.153e+04 5.342e-10
 70.34071   -144.3 1.130e+04 5.176e-10
 70.35402   -143.6 1.131e+04 6.152e-10
 70.37236   -143.3 1.166e+04 7.714e-10
 70.38243   -146.3 1.386e+04 7.556e-10
 70.39431   -151.8 1.909e+04 2.263e-09
 70.41353   -155.0 2.051e+04 8.525e-09
 70.42360   -155.0 1.996e+04 7.997e-09
 70.43460   -155.6 1.997e+04 1.757e-08
 70.44966   -155.0 2.002e+04 2.019e-08
 70.45969   -155.0 2.000e+04 2.415e-08
 70.46495   -154.8 1.984e+04 2.681e-08
 70.46999   -154.6 1.955e+04 2.322e-08
 70.47983   -154.6 1.947e+04 2.380e-08
 70.48904   -154.6 1.915e+04 2.302e-08
 70.49408   -154.7 1.906e+04 2.444e-08
 70.49998   -154.7 1.880e+04 2.012e-08
 70.50640   -154.7 1.875e+04 1.616e-08
 70.51143   -154.6 1.846e+04 1.441e-08
 70.52013   -155.2 1.867e+04 1.099e-08
 70.53020   -156.7 1.855e+04 8.058e-09
 70.54027   -158.6 1.790e+04 5.979e-09
 70.54784   -160.2 1.701e+04 4.850e-09
 70.55288   -159.8 1.677e+04 4.698e-09
 70.56042   -160.6 1.638e+04 4.462e-09
 70.57557   -161.7 1.619e+04 4.466e-09
 70.58938   -163.5 1.556e+04 3.999e-09
 70.59946   -163.3 1.523e+04 3.641e-09
 70.61591   -166.1 1.304e+04 1.736e-09
 70.63606   -166.3 1.276e+04 1.507e-09
 70.65621   -166.4 1.243e+04 1.222e-09
 70.67227   -166.8 1.202e+04 9.449e-10
 70.68235   -166.0 1.206e+04 9.925e-10
 70.69650   -166.4 1.169e+04 7.814e-10
 70.71664   -166.7 1.136e+04 6.383e-10
 70.73679   -166.8 1.113e+04 5.555e-10
 70.75516   -166.7 1.099e+04 5.129e-10
 70.76524   -165.9 1.118e+04 5.755e-10
 70.77708   -165.7 1.112e+04 5.627e-10
 70.79723   -165.4 1.111e+04 5.614e-10
 70.81737   -165.2 1.113e+04 5.855e-10
 70.82941   -164.9 1.119e+04 6.338e-10
 70.83948   -164.8 1.089e+04 4.864e-10
 70.84813   -164.5 1.101e+04 5.496e-10
 70.85820   -164.0 1.129e+04 6.678e-10
 70.87781   -163.8 1.141e+04 7.513e-10
 70.89795   -163.6 1.150e+04 8.248e-10
 70.91810   -163.5 1.153e+04 8.670e-10
 70.93102   -163.5 1.153e+04 8.864e-10
 70.94109   -162.9 1.186e+04 1.071e-09
 70.95839   -162.9 1.174e+04 1.051e-09
 70.97854   -162.9 1.154e+04 9.784e-10
 70.99868   -162.9 1.129e+04 8.491e-10
 71.01391   -162.9 1.101e+04 6.928e-10
 71.02398   -162.5 1.131e+04 8.342e-10
 71.03897   -162.7 1.099e+04 6.622e-10
 71.05290   -163.0 1.066e+04 5.219e-10
 71.06297   -162.8 1.073e+04 5.250e-10
 71.07926   -163.4 1.047e+04 4.290e-10
 71.09680   -164.1 1.029e+04 3.762e-10
 71.10687   -163.5 1.058e+04 4.671e-10
 71.11956   -164.2 1.042e+04 4.162e-10
 71.14987   -165.3 1.025e+04 3.661e-10
 71.17988   -166.3 1.015e+04 3.605e-10
 71.20003   -165.9 1.044e+04 3.969e-10
 71.23055   -167.3 1.008e+04 3.554e-10
 71.26651   -167.7 9.898e+03 3.446e-10
 71.28665   -168.1 1.003e+04 3.651e-10
 71.31113   -168.5 9.818e+03 3.365e-10
 71.34566   -169.4 9.771e+03 3.243e-10
 71.36581   -169.7 1.015e+04 3.717e-10
 71.39172   -171.2 1.016e+04 3.805e-10
 71.43201   -172.7 1.018e+04 4.013e-10
 71.47230   -173.9 1.029e+04 4.498e-10
 71.49997   -174.7 1.032e+04 4.752e-10
 71.50995   -173.9 1.038e+04 4.792e-10
 71.52132   -174.6 1.052e+04 5.309e-10
 71.53139   -174.4 1.031e+04 4.542e-10
 71.54261   -175.0 1.044e+04 5.027e-10
 71.56276   -175.3 1.065e+04 5.737e-10
 71.58291   -175.4 1.082e+04 6.388e-10
 71.60305   -175.5 1.092e+04 6.805e-10
 71.61428   -175.7 1.095e+04 6.922e-10
 71.62436   -175.2 1.088e+04 6.525e-10
 71.64334   -175.3 1.092e+04 6.630e-10
 71.66349   -175.5 1.095e+04 6.593e-10
 71.68363   -175.9 1.097e+04 6.576e-10
 71.69717   -176.3 1.113e+04 6.598e-10
 71.70725   -175.2 1.111e+04 6.608e-10
 71.72337   -175.8 1.133e+04 6.937e-10
 71.73354   -174.4 1.125e+04 7.240e-10
 71.75434   -175.4 1.169e+04 8.156e-10
 71.78016   -177.1 1.208e+04 1.030e-09
 71.79014   -176.1 1.216e+04 1.041e-09
 71.80451   -176.9 1.249e+04 1.256e-09
 71.82465   -177.8 1.268e+04 1.395e-09
 71.84480   -178.7 1.272e+04 1.424e-09
 71.86295   -179.6 1.261e+04 1.360e-09
 71.87303   -178.7 1.298e+04 1.587e-09
 71.88509   -179.5 1.269e+04 1.382e-09
 71.90524   -180.4 1.224e+04 1.075e-09
 71.92538   -181.3 1.175e+04 8.215e-10
 71.94553   -182.1 1.135e+04 6.590e-10
 71.95592   -182.5 1.112e+04 5.583e-10
 71.95725   -182.1 1.124e+04 6.025e-10
 71.96700   -180.8 1.132e+04 6.275e-10
 71.98582   -181.2 1.110e+04 5.413e-10
 72.00596   -181.3 1.098e+04 4.764e-10
 72.02611   -181.3 1.090e+04 4.222e-10
 72.03881   -181.2 1.082e+04 3.775e-10
 72.04888   -180.9 1.091e+04 4.214e-10
 72.06640   -180.8 1.086e+04 3.883e-10
 72.08655   -180.7 1.084e+04 3.743e-10
 72.10669   -180.5 1.084e+04 3.729e-10
 72.12170   -180.6 1.100e+04 3.752e-10
 72.13177   -180.2 1.095e+04 4.055e-10
 72.14698   -180.5 1.130e+04 4.293e-10
 72.16713   -181.1 1.176e+04 5.191e-10
 72.18042   -181.6 1.209e+04 6.817e-10
 72.19049   -180.3 1.183e+04 5.784e-10
 72.20459   -180.8 1.212e+04 7.314e-10
 72.21466   -180.2 1.202e+04 6.780e-10
 72.22757   -180.5 1.224e+04 8.282e-10
 72.24771   -180.7 1.240e+04 9.909e-10
 72.26786   -180.7 1.250e+04 1.131e-09
 72.28748   -180.6 1.254e+04 1.222e-09
 72.29755   -180.3 1.242e+04 1.068e-09
 72.30815   -180.2 1.241e+04 1.111e-09
 72.32829   -180.0 1.239e+04 1.133e-09
 72.34844   -180.2 1.257e+04 1.167e-09
 72.36858   -180.8 1.313e+04 1.290e-09
 72.38044   -181.6 1.392e+04 1.647e-09
 72.39051   -180.0 1.280e+04 1.136e-09
 72.40391   -180.5 1.346e+04 1.431e-09
 72.41398   -180.0 1.328e+04 1.277e-09
 72.42902   -180.3 1.378e+04 1.677e-09
 72.44917   -180.2 1.414e+04 2.242e-09
 72.46333   -179.8 1.432e+04 2.856e-09
 72.47340   -178.6 1.366e+04 1.954e-09
 72.48946   -178.2 1.382e+04 2.457e-09
 72.50960   -177.3 1.384e+04 2.891e-09
 72.52975   -176.0 1.384e+04 3.117e-09
 72.54622   -174.6 1.380e+04 2.953e-09
 72.55629   -174.1 1.357e+04 2.821e-09
 72.57004   -172.7 1.364e+04 2.767e-09
 72.59019   -171.3 1.356e+04 2.590e-09
 72.61033   -170.0 1.348e+04 2.322e-09
 72.62740   -169.0 1.328e+04 1.976e-09
 72.63610   -168.7 1.294e+04 1.690e-09
 72.63918   -168.0 1.313e+04 1.926e-09
 72.65062   -167.0 1.293e+04 1.695e-09
 72.68094   -166.0 1.273e+04 1.518e-09
 72.71220   -163.2 1.254e+04 1.421e-09
 72.73234   -162.1 1.261e+04 1.528e-09
 72.76162   -159.8 1.258e+04 1.475e-09
 72.80191   -157.7 1.288e+04 1.603e-09
 72.83203   -156.0 1.310e+04 1.722e-09
 72.85088   -155.2 1.356e+04 2.034e-09
 72.86096   -154.9 1.358e+04 2.066e-09
 72.87223   -154.2 1.422e+04 2.717e-09
 72.88786   -153.4 1.474e+04 3.670e-09
 72.89793   -152.7 1.419e+04 2.723e-09
 72.91252   -151.8 1.473e+04 3.767e-09
 72.93266   -150.8 1.518e+04 5.081e-09
 72.95281   -149.4 1.562e+04 6.440e-09
 72.97075   -147.8 1.606e+04 7.612e-09
 72.98082   -147.4 1.572e+04 6.765e-09
 72.99310   -145.8 1.627e+04 8.345e-09
 73.01324   -144.5 1.665e+04 9.214e-09
 73.03339   -143.3 1.677e+04 9.405e-09
 73.05354   -142.2 1.673e+04 8.812e-09
 73.06371   -140.9 1.642e+04 7.502e-09
 73.07378   -140.0 1.632e+04 7.564e-09
 73.08445   -138.7 1.640e+04 6.508e-09
 73.09452   -138.2 1.573e+04 6.382e-09
 73.11397   -136.8 1.542e+04 5.164e-09
 73.13412   -135.6 1.549e+04 4.571e-09
 73.14660   -134.7 1.587e+04 4.478e-09
 73.15667   -133.7 1.542e+04 4.528e-09
 73.17441   -133.2 1.762e+04 4.956e-09
 73.19456   -133.0 2.039e+04 6.798e-09
 73.21470   -132.5 2.249e+04 1.113e-08
 73.22944   -131.1 2.379e+04 1.266e-08
 73.23443   -130.6 2.381e+04 1.258e-08
 73.23979   -129.6 2.460e+04 1.793e-08
 73.24986   -128.3 2.508e+04 2.606e-08
 73.25993   -126.4 2.526e+04 4.102e-08
 73.27000   -124.0 2.529e+04 6.763e-08
 73.27587   -120.9 2.513e+04 1.153e-07
 73.28091   -120.6 2.664e+04 9.452e-08
 73.29015   -117.0 2.591e+04 1.794e-07
 73.30022   -112.7 2.466e+04 3.544e-07
 73.30784   -108.4 2.447e+04 8.733e-07
 73.31287   -109.9 3.109e+04 2.909e-07
 73.31729   -112.3 3.437e+04 7.137e-07
 73.31979   -108.6 3.860e+04 5.799e-07
 73.32284   -119.6 1.567e+04 2.233e-04
 73.32660   -137.1 9.962e+03 3.514e-02
 73.32847   -146.1 9.308e+03 4.955e-02
 73.32948   -152.3 9.426e+03 5.108e-02
 73.33011   -143.5 9.902e+03 3.548e-02
 73.33098   -147.2 9.864e+03 3.643e-02
 73.33224   -161.6 9.801e+03 4.234e-02
 73.33350   -172.5 9.514e+03 5.577e-02
 73.33466   -179.8 9.617e+03 6.358e-02
 73.33529   -164.1 9.752e+03 8.562e-02
 73.33602   -177.8 9.432e+03 7.376e-02
 73.33728   -186.9 9.775e+03 2.901e-02
 73.33821   -189.6 1.051e+04 1.034e-02
 73.33947   -186.5 1.287e+04 1.357e-03
 73.34049   -186.6 1.655e+04 6.104e-05
 73.34174   -183.8 1.714e+04 3.730e-05
 73.34422   -181.8 1.809e+04 1.748e-05
 73.34801   -178.7 1.909e+04 7.802e-06
 73.35306   -173.5 1.990e+04 2.849e-06
 73.35809   -166.2 2.113e+04 9.735e-07
 73.36123   -162.5 2.212e+04 5.630e-07
 73.36375   -162.2 2.124e+04 7.480e-07
 73.37071   -158.7 2.151e+04 5.132e-07
 73.38080   -153.3 2.169e+04 2.592e-07
 73.39088   -149.1 2.187e+04 1.296e-07
 73.40021   -146.4 2.207e+04 7.503e-08
 73.40524   -146.2 2.134e+04 1.150e-07
 73.41102   -144.6 2.145e+04 7.914e-08
 73.41958   -143.4 2.137e+04 5.600e-08
 73.42462   -143.4 2.131e+04 8.483e-08
 73.43117   -142.4 2.086e+04 6.033e-08
 73.44124   -141.4 2.048e+04 4.379e-08
 73.44669   -140.6 2.020e+04 3.293e-08
 73.45173   -140.2 2.013e+04 4.966e-08
 73.46139   -139.3 1.984e+04 3.976e-08
 73.47146   -138.4 1.968e+04 3.195e-08
 73.48153   -137.8 1.963e+04 2.399e-08
 73.48818   -137.6 1.956e+04 1.541e-08
 73.49322   -136.6 1.942e+04 3.382e-08
 73.50168   -136.0 1.934e+04 2.885e-08
 73.51175   -135.5 1.931e+04 2.456e-08
 73.52182   -135.1 1.936e+04 1.941e-08
 73.52958   -135.1 1.939e+04 1.713e-08
 73.53405   -134.4 1.954e+04 2.952e-08
 73.53636   -134.1 1.988e+04 2.811e-08
 73.54197   -134.0 1.965e+04 2.173e-08
 73.55713   -134.2 1.895e+04 1.071e-08
 73.57112   -134.5 1.809e+04 6.371e-09
 73.57611   -132.6 1.962e+04 1.754e-08
 73.58226   -132.6 1.946e+04 1.300e-08
 73.59742   -132.6 1.939e+04 1.001e-08
 73.61761   -133.8 1.799e+04 5.493e-09
 73.63776   -135.1 1.551e+04 2.785e-09
 73.65401   -136.1 1.273e+04 1.528e-09
 73.66409   -134.8 1.497e+04 2.374e-09
 73.67805   -135.6 1.253e+04 1.366e-09
 73.69820   -135.7 1.148e+04 1.053e-09
 73.71834   -135.3 1.114e+04 9.707e-10
 73.73690   -134.5 1.104e+04 9.510e-10
 73.74698   -134.0 1.096e+04 9.051e-10
 73.75491   -133.1 1.088e+04 8.974e-10
 73.76499   -132.4 1.063e+04 7.715e-10
 73.77878   -131.7 1.077e+04 8.478e-10
 73.79892   -131.1 1.099e+04 9.381e-10
 73.81907   -130.7 1.118e+04 1.016e-09
 73.82987   -130.4 1.131e+04 1.066e-09
 73.83994   -129.6 1.116e+04 9.902e-10
 73.85936   -129.5 1.130e+04 1.060e-09
 73.88968   -129.6 1.136e+04 1.099e-09
 73.91295   -129.0 1.137e+04 1.124e-09
 73.93310   -127.5 1.140e+04 1.145e-09
 73.96853   -127.1 1.142e+04 1.209e-09
 73.98867   -124.9 1.147e+04 1.175e-09
 74.01065   -125.4 1.164e+04 1.307e-09
 74.05094   -126.9 1.153e+04 1.225e-09
 74.07863   -128.9 1.127e+04 1.138e-09
 74.08861   -127.3 1.149e+04 1.285e-09
 74.10111   -129.6 1.140e+04 1.263e-09
 74.12125   -135.8 1.260e+04 1.296e-09
 74.14140   -146.0 1.776e+04 2.538e-09
 74.16143   -152.7 1.900e+04 1.018e-08
 74.17150   -151.9 1.945e+04 9.363e-09
 74.17661   -154.5 1.952e+04 2.362e-08
 74.18663   -155.6 1.956e+04 3.248e-08
 74.19670   -156.5 1.962e+04 4.001e-08
 74.20678   -156.9 1.953e+04 4.121e-08
 74.21187   -156.8 1.897e+04 3.850e-08
 74.21290   -155.7 1.944e+04 3.328e-08
 74.21788   -156.1 1.953e+04 3.937e-08
 74.22692   -156.1 1.898e+04 2.457e-08
 74.24208   -156.8 1.853e+04 1.249e-08
 74.25439   -159.9 1.756e+04 4.325e-09
 74.26446   -158.6 1.738e+04 5.797e-09
 74.28242   -162.4 1.590e+04 2.377e-09
 74.30256   -165.3 1.392e+04 1.211e-09
 74.32271   -166.6 1.278e+04 8.890e-10
 74.33728   -166.6 1.232e+04 8.322e-10
 74.34735   -165.1 1.236e+04 8.868e-10
 74.36300   -164.8 1.217e+04 8.578e-10
 74.38315   -164.2 1.191e+04 9.279e-10
 74.40329   -162.9 1.186e+04 1.026e-09
 74.42017   -161.6 1.182e+04 1.079e-09
 74.43024   -160.9 1.181e+04 1.044e-09
 74.43546   -159.6 1.184e+04 1.093e-09
 74.45570   -158.5 1.144e+04 7.445e-10
 74.49414   -156.3 1.149e+04 8.235e-10
 74.53444   -154.2 1.143e+04 8.206e-10
 74.57473   -152.1 1.130e+04 7.692e-10
 74.59622   -150.0 1.122e+04 6.669e-10
 74.61636   -148.7 1.133e+04 7.829e-10
 74.65531   -147.0 1.135e+04 7.827e-10
 74.69560   -145.7 1.161e+04 8.207e-10
 74.73589   -144.9 1.201e+04 9.818e-10
 74.76200   -144.0 1.242e+04 1.252e-09
 74.78214   -143.3 1.285e+04 1.676e-09
 74.81647   -142.8 1.316e+04 1.987e-09
 74.84479   -142.1 1.317e+04 2.013e-09
 74.85477   -141.7 1.322e+04 2.120e-09
 74.86664   -141.8 1.310e+04 2.070e-09
 74.88243   -141.8 1.283e+04 1.874e-09
 74.90268   -140.6 1.268e+04 1.734e-09
 74.92778   -140.3 1.226e+04 1.409e-09
 74.94792   -139.2 1.214e+04 1.361e-09
 74.97764   -138.8 1.159e+04 9.236e-10
 75.01793   -138.1 1.112e+04 6.141e-10
 75.05822   -137.3 1.075e+04 4.190e-10
 75.09356   -136.3 1.049e+04 3.022e-10
 75.11371   -135.4 1.050e+04 3.359e-10
 75.13880   -134.0 1.023e+04 2.428e-10
 75.17910   -132.9 1.013e+04 1.869e-10
 75.21939   -131.7 1.000e+04 1.396e-10
 75.25934   -130.5 9.892e+03 1.092e-10
 75.27949   -129.8 1.004e+04 1.551e-10
 75.29997   -128.8 9.978e+03 1.369e-10
 75.32961   -127.6 9.970e+03 1.332e-10
 75.34975   -126.5 9.952e+03 1.530e-10
 75.38055   -125.2 9.977e+03 1.536e-10
 75.42084   -123.9 1.003e+04 1.716e-10
 75.44527   -122.3 1.004e+04 1.915e-10
 75.46541   -122.1 1.016e+04 2.475e-10
 75.50143   -120.4 1.012e+04 2.477e-10
 75.54172   -118.4 1.007e+04 2.285e-10
 75.58201   -116.3 1.002e+04 2.041e-10
 75.61105   -114.1 1.002e+04 1.818e-10
 75.63119   -113.8 1.008e+04 2.077e-10
 75.66259   -111.6 1.009e+04 1.858e-10
 75.70288   -109.6 1.012e+04 1.744e-10
 75.74317   -107.6 1.015e+04 1.712e-10
 75.77659   -105.9 1.038e+04 1.812e-10
 75.79010   -105.1 1.005e+04 1.269e-10
 75.79697   -104.7 1.014e+04 1.350e-10
 75.82376   -103.1 1.033e+04 1.392e-10
 75.86405   -101.5 1.054e+04 1.766e-10
 75.90434    -99.9 1.071e+04 2.383e-10
 75.94261    -98.2 1.093e+04 3.116e-10
 75.96275    -98.2 1.097e+04 2.879e-10
 75.98492    -96.8 1.124e+04 3.584e-10
 76.02521    -95.4 1.154e+04 4.401e-10
 76.06550    -94.0 1.195e+04 5.631e-10
 76.10579    -92.4 1.238e+04 7.866e-10
 76.12853    -91.0 1.294e+04 1.165e-09
 76.14868    -94.1 1.331e+04 1.397e-09
 76.17621    -92.7 1.373e+04 1.852e-09
 76.19625    -93.2 1.437e+04 2.335e-09
 76.21123    -94.7 1.569e+04 3.432e-09
 76.22130    -97.3 1.586e+04 3.136e-09
 76.23344   -100.0 1.710e+04 4.595e-09
 76.24352    -98.3 1.672e+04 4.980e-09
 76.25669   -100.6 1.752e+04 6.411e-09
 76.27684   -103.5 1.805e+04 7.099e-09
 76.29412   -106.9 1.816e+04 7.117e-09
 76.30419   -110.0 1.603e+04 3.998e-09
 76.31713   -113.0 1.543e+04 3.908e-09
 76.33727   -115.1 1.478e+04 3.615e-09
 76.35742   -116.7 1.407e+04 3.068e-09
 76.37701   -117.8 1.340e+04 2.457e-09
 76.38708   -117.4 1.322e+04 2.368e-09
 76.39771   -118.0 1.261e+04 1.779e-09
 76.41786   -118.4 1.205e+04 1.349e-09
 76.43800   -118.6 1.156e+04 1.039e-09
 76.45693   -118.7 1.117e+04 8.351e-10
 76.46701   -117.7 1.114e+04 8.232e-10
 76.46997   -117.9 1.081e+04 6.934e-10
 76.48004   -117.9 1.049e+04 5.746e-10
 76.49844   -117.9 1.024e+04 5.137e-10
 76.51858   -117.7 1.008e+04 4.883e-10
 76.53873   -117.4 1.001e+04 4.816e-10
 76.55286   -117.1 1.000e+04 4.805e-10
 76.56293   -116.8 9.782e+03 4.154e-10
 76.57902   -116.5 9.780e+03 4.155e-10
 76.59917   -116.4 9.793e+03 4.186e-10
 76.61931   -116.6 1.008e+04 4.572e-10
 76.63575   -117.6 1.086e+04 6.006e-10
 76.64582   -116.5 1.017e+04 4.485e-10
 76.65960   -117.6 1.085e+04 6.200e-10
 76.67975   -118.6 1.140e+04 9.079e-10
 76.69049   -119.3 1.173e+04 1.273e-09
 76.70057   -118.4 1.187e+04 1.228e-09
 76.71864   -119.1 1.211e+04 1.639e-09
 76.72871   -118.0 1.169e+04 1.251e-09
 76.74019   -118.5 1.183e+04 1.550e-09
 76.76033   -118.8 1.181e+04 1.654e-09
 76.78048   -119.1 1.168e+04 1.655e-09
 76.80062   -119.3 1.128e+04 1.421e-09
 76.81160   -119.7 1.084e+04 1.077e-09
 76.82168   -118.9 1.097e+04 1.182e-09
 76.84091   -119.5 1.054e+04 8.924e-10
 76.86106   -120.2 1.012e+04 6.687e-10
 76.88121   -120.9 9.730e+03 5.219e-10
 76.89450   -121.4 9.436e+03 4.370e-10
 76.90457   -120.7 9.569e+03 4.741e-10
 76.91398   -121.0 9.336e+03 4.082e-10
 76.92406   -120.5 9.560e+03 4.819e-10
 76.94164   -120.6 9.349e+03 4.215e-10
 76.96179   -120.6 9.256e+03 3.957e-10
 76.97748   -120.7 9.205e+03 3.707e-10
 76.99773   -120.1 9.197e+03 3.608e-10
 77.03249   -120.1 8.971e+03 3.085e-10
 77.07278   -119.6 8.763e+03 2.606e-10
 77.11308   -119.0 8.640e+03 2.252e-10
 77.13767   -118.3 8.578e+03 2.027e-10
 77.14781   -117.4 8.829e+03 2.521e-10
 77.16351   -117.1 8.900e+03 2.747e-10
 77.19366   -116.4 8.825e+03 2.567e-10
 77.23395   -115.5 8.732e+03 2.329e-10
 77.27424   -114.5 8.639e+03 2.058e-10
 77.30914   -113.5 8.571e+03 1.822e-10
 77.32929   -113.2 8.632e+03 1.925e-10
 77.35482   -112.3 8.586e+03 1.731e-10
 77.39511   -111.5 8.583e+03 1.683e-10
 77.43541   -110.6 8.612e+03 1.692e-10
 77.47492   -109.8 8.706e+03 1.799e-10
 77.49507   -109.9 8.799e+03 1.908e-10
 77.51599   -109.1 8.852e+03 1.995e-10
 77.55628   -108.0 8.889e+03 2.029e-10
 77.58465   -106.8 8.901e+03 2.026e-10
 77.60479   -105.7 9.118e+03 2.429e-10
 77.63686   -104.4 9.102e+03 2.350e-10
 77.66085   -103.0 9.096e+03 2.304e-10
 77.68099   -103.3 9.107e+03 2.239e-10
 77.71744   -101.9 9.144e+03 2.252e-10
 77.75774   -100.6 9.316e+03 2.514e-10
 77.79803    -99.3 9.527e+03 2.955e-10
 77.82663    -97.9 9.728e+03 3.441e-10
 77.84677    -98.4 9.497e+03 2.785e-10
 77.87861    -97.0 9.639e+03 3.092e-10
 77.91890    -95.6 9.786e+03 3.349e-10
 77.95919    -94.1 9.941e+03 3.486e-10
 77.99241    -93.0 9.987e+03 3.479e-10
 78.01255    -93.2 9.877e+03 3.108e-10
 78.03163    -92.3 9.826e+03 2.866e-10
 78.05167    -91.2 9.736e+03 3.083e-10
 78.06980    -90.4 9.662e+03 3.046e-10
 78.08518    -90.2 9.746e+03 3.122e-10
 78.09525    -90.6 9.650e+03 3.012e-10
 78.11009    -91.2 1.001e+04 3.294e-10
 78.13023    -94.7 1.209e+04 5.520e-10
 78.15038    -98.3 1.402e+04 1.544e-09
 78.16807    -99.3 1.523e+04 3.888e-09
 78.17814    -99.4 1.450e+04 2.615e-09
 78.19067    -99.8 1.576e+04 5.604e-09
 78.21082    -99.7 1.681e+04 9.075e-09
 78.22588    -99.8 1.753e+04 1.125e-08
 78.23590   -100.4 1.774e+04 1.179e-08
 78.25091   -101.4 1.755e+04 1.074e-08
 78.26098   -102.6 1.779e+04 1.189e-08
 78.26490   -103.5 1.766e+04 1.020e-08
 78.26993   -103.6 1.783e+04 1.042e-08
 78.27619   -105.1 1.767e+04 8.722e-09
 78.29135   -107.3 1.756e+04 7.737e-09
 78.31155   -111.0 1.655e+04 5.291e-09
 78.33169   -113.4 1.577e+04 3.967e-09
 78.34392   -115.6 1.481e+04 2.842e-09
 78.35399   -114.9 1.591e+04 4.922e-09
 78.37198   -117.1 1.468e+04 3.127e-09
 78.39213   -119.1 1.349e+04 2.259e-09
 78.41227   -120.6 1.287e+04 1.955e-09
 78.42681   -121.8 1.257e+04 1.868e-09
 78.43688   -121.9 1.282e+04 2.009e-09
 78.45256   -123.1 1.255e+04 1.899e-09
 78.47271   -124.2 1.248e+04 1.871e-09
 78.48848   -125.9 1.259e+04 1.928e-09
 78.49856   -126.0 1.281e+04 2.086e-09
 78.50970   -128.8 1.369e+04 2.501e-09
 78.51977   -128.2 1.335e+04 2.358e-09
 78.53315   -131.3 1.441e+04 3.151e-09
 78.55329   -134.1 1.540e+04 4.302e-09
 78.57344   -136.5 1.611e+04 5.628e-09
 78.59259   -138.7 1.644e+04 6.460e-09
 78.60266   -137.3 1.650e+04 7.283e-09
 78.61373   -139.7 1.668e+04 7.492e-09
 78.63388   -142.0 1.661e+04 7.272e-09
 78.64406   -143.7 1.631e+04 6.758e-09
 78.64905   -143.4 1.638e+04 6.845e-09
 78.65896   -144.2 1.636e+04 6.750e-09
 78.67412   -145.7 1.609e+04 6.532e-09
 78.68555   -147.5 1.595e+04 6.476e-09
 78.69054   -146.6 1.628e+04 6.999e-09
 78.69925   -147.6 1.636e+04 7.225e-09
 78.71192   -148.8 1.642e+04 7.400e-09
 78.72204   -148.7 1.641e+04 7.645e-09
 78.73460   -150.4 1.635e+04 7.541e-09
 78.75475   -151.7 1.599e+04 6.403e-09
 78.76844   -153.4 1.552e+04 4.923e-09
 78.77852   -153.8 1.605e+04 6.675e-09
 78.79504   -155.5 1.549e+04 5.409e-09
 78.81519   -157.6 1.471e+04 4.097e-09
 78.83533   -159.5 1.393e+04 3.088e-09
 78.85133   -161.2 1.315e+04 2.311e-09
 78.86141   -161.4 1.344e+04 2.711e-09
 78.87562   -162.9 1.258e+04 1.875e-09
 78.89577   -164.3 1.188e+04 1.351e-09
 78.91591   -165.4 1.138e+04 1.036e-09
 78.93422   -166.4 1.102e+04 8.492e-10
 78.94370   -167.4 1.089e+04 8.306e-10
 78.94553   -166.8 1.101e+04 8.752e-10
 78.95621   -167.6 1.079e+04 7.776e-10
 78.97635   -168.1 1.068e+04 7.216e-10
 78.99650   -168.5 1.062e+04 6.850e-10
 79.01664   -168.9 1.063e+04 6.583e-10
 79.02719   -169.5 1.071e+04 6.402e-10
 79.03726   -171.8 1.105e+04 6.523e-10
 79.05693   -173.2 1.150e+04 6.722e-10
 79.07708   -174.6 1.190e+04 7.984e-10
 79.09722   -175.7 1.223e+04 1.061e-09
 79.11008   -176.4 1.257e+04 1.453e-09
 79.12015   -178.0 1.315e+04 2.358e-09
 79.13752   -178.0 1.344e+04 2.875e-09
 79.15766   -178.1 1.361e+04 3.206e-09
 79.16902   -178.3 1.364e+04 3.299e-09
 79.17910   -177.8 1.361e+04 3.305e-09
 79.19297   -177.9 1.356e+04 3.306e-09
 79.20304   -178.9 1.359e+04 3.429e-09
 79.21810   -178.9 1.332e+04 3.128e-09
 79.23824   -178.8 1.297e+04 2.718e-09
 79.25839   -179.0 1.258e+04 2.261e-09
 79.27586   -179.2 1.219e+04 1.824e-09
 79.28593   -180.3 1.168e+04 1.321e-09
 79.29868   -180.8 1.138e+04 1.103e-09
 79.31883   -181.3 1.115e+04 9.714e-10
 79.33897   -181.9 1.103e+04 9.186e-10
 79.35875   -182.4 1.101e+04 9.121e-10
 79.36882   -183.1 1.097e+04 8.988e-10
 79.37926   -183.2 1.103e+04 9.324e-10
 79.39251   -183.3 1.110e+04 9.932e-10
 79.40259   -183.6 1.163e+04 1.341e-09
 79.41955   -183.6 1.165e+04 1.425e-09
 79.43970   -183.4 1.162e+04 1.458e-09
 79.45171   -182.9 1.158e+04 1.464e-09
 79.46178   -182.8 1.151e+04 1.541e-09
 79.47999   -182.0 1.132e+04 1.448e-09
 79.50014   -181.1 1.108e+04 1.311e-09
 79.52028   -180.2 1.087e+04 1.152e-09
 79.53460   -179.3 1.066e+04 9.971e-10
 79.54467   -179.0 1.056e+04 9.629e-10
 79.56057   -178.1 1.037e+04 8.389e-10
 79.58072   -177.2 1.019e+04 7.321e-10
 79.60087   -176.1 1.004e+04 6.334e-10
 79.61600   -174.9 9.917e+03 5.456e-10
 79.62255   -175.2 1.005e+04 5.943e-10
 79.62756   -174.7 9.929e+03 5.506e-10
 79.64116   -173.4 9.850e+03 5.043e-10
 79.66130   -172.2 9.825e+03 4.735e-10
 79.69041   -170.7 9.852e+03 4.403e-10
 79.71065   -170.1 9.841e+03 4.425e-10
 79.73201   -167.8 9.907e+03 4.408e-10
 79.77230   -165.6 9.945e+03 4.370e-10
 79.79344   -164.5 1.004e+04 4.518e-10
 79.80342   -164.0 1.003e+04 4.533e-10
 79.82247   -163.2 1.005e+04 4.531e-10
 79.83949   -162.2 1.007e+04 4.546e-10
 79.84956   -162.7 1.031e+04 5.564e-10
 79.86276   -161.8 1.033e+04 5.649e-10
 79.87623   -161.0 1.034e+04 5.719e-10
 79.88631   -160.4 1.036e+04 5.750e-10
 79.90305   -159.5 1.036e+04 5.850e-10
 79.92320   -158.6 1.036e+04 5.983e-10
 79.94334   -157.6 1.036e+04 6.116e-10
 79.95912   -156.5 1.036e+04 6.205e-10
 79.96920   -156.0 1.040e+04 6.575e-10
 79.98363   -154.8 1.045e+04 6.920e-10
 80.00378   -153.7 1.051e+04 7.151e-10
 80.02392   -152.5 1.056e+04 7.177e-10
 80.04201   -151.4 1.062e+04 6.834e-10
 80.05209   -150.6 1.077e+04 8.329e-10
 80.06298   -149.5 1.081e+04 8.164e-10
 80.07305   -149.5 1.081e+04 8.096e-10
 80.08436   -148.5 1.082e+04 7.747e-10
 80.10451   -147.7 1.082e+04 7.216e-10
 80.12465   -146.9 1.079e+04 6.620e-10
 80.13498   -146.1 1.077e+04 6.229e-10
 80.14505   -145.4 1.097e+04 7.542e-10
 80.16494   -144.8 1.093e+04 7.011e-10
 80.18509   -144.3 1.086e+04 6.546e-10
 80.20789   -143.5 1.074e+04 5.841e-10
 80.22814   -142.4 1.093e+04 7.057e-10
 80.25579   -140.9 1.078e+04 6.322e-10
 80.28591   -139.8 1.067e+04 5.741e-10
 80.29654   -139.2 1.064e+04 5.523e-10
 80.30141   -139.1 1.061e+04 5.444e-10
 80.31083   -138.5 1.067e+04 5.912e-10
 80.32611   -137.9 1.066e+04 5.713e-10
 80.34625   -137.4 1.064e+04 5.489e-10
 80.36640   -136.9 1.060e+04 5.199e-10
 80.38365   -136.4 1.057e+04 4.957e-10
 80.39372   -135.8 1.070e+04 5.618e-10
 80.40669   -135.2 1.069e+04 5.460e-10
 80.42684   -134.7 1.072e+04 5.360e-10
 80.44698   -134.1 1.074e+04 5.312e-10
 80.46654   -133.6 1.077e+04 5.244e-10
 80.47661   -133.2 1.086e+04 5.777e-10
 80.48727   -132.7 1.085e+04 5.647e-10
 80.50742   -132.1 1.081e+04 5.443e-10
 80.52003   -131.5 1.075e+04 5.146e-10
 80.53010   -131.4 1.092e+04 5.889e-10
 80.54771   -130.7 1.086e+04 5.618e-10
 80.55950   -129.9 1.080e+04 5.293e-10
 80.56957   -129.7 1.091e+04 6.214e-10
 80.58800   -128.8 1.084e+04 5.842e-10
 80.60815   -127.9 1.077e+04 5.371e-10
 80.62829   -126.9 1.069e+04 4.889e-10
 80.65861   -125.7 1.060e+04 4.394e-10
 80.69900   -124.2 1.045e+04 3.833e-10
 80.72548   -122.3 1.018e+04 3.124e-10
 80.73998   -121.8 1.008e+04 2.936e-10
 80.75379   -121.6 1.031e+04 3.528e-10
 80.77958   -119.6 9.996e+03 2.647e-10
 80.81987   -117.1 9.720e+03 2.050e-10
 80.86016   -114.8 9.552e+03 1.717e-10
 80.89126   -112.5 9.448e+03 1.576e-10
 80.91140   -112.0 9.413e+03 1.378e-10
 80.94074   -109.6 9.382e+03 1.359e-10
 80.98104   -107.2 9.378e+03 1.363e-10
 81.02133   -105.0 9.404e+03 1.412e-10
 81.05704   -102.9 9.499e+03 1.651e-10
 81.07718   -102.4 9.434e+03 1.439e-10
 81.10191   -100.3 9.535e+03 1.714e-10
 81.14220    -98.1 9.674e+03 2.059e-10
 81.18062    -96.0 9.839e+03 2.443e-10
 81.20077    -96.3 9.801e+03 2.323e-10
 81.22278    -94.4 9.891e+03 2.493e-10
 81.26307    -92.4 9.771e+03 2.150e-10
 81.30337    -90.6 9.880e+03 2.505e-10
 81.34366    -89.1 1.006e+04 3.084e-10
 81.38395    -87.7 1.035e+04 4.003e-10
 81.40874    -86.7 1.071e+04 5.286e-10
 81.41872    -86.3 1.056e+04 4.515e-10
 81.43412    -86.8 1.069e+04 5.207e-10
 81.45426    -86.4 1.082e+04 6.186e-10
 81.47441    -86.1 1.093e+04 6.937e-10
 81.49144    -85.7 1.107e+04 7.496e-10
 81.50151    -85.7 1.102e+04 6.540e-10
 81.51470    -85.5 1.115e+04 6.784e-10
 81.53485    -85.5 1.120e+04 6.869e-10
 81.55499    -85.6 1.126e+04 6.709e-10
 81.57433    -85.8 1.123e+04 6.149e-10
 81.58440    -86.0 1.122e+04 6.217e-10
 81.59528    -86.1 1.109e+04 5.868e-10
 81.61543    -86.0 1.093e+04 5.487e-10
 81.63557    -85.6 1.078e+04 5.036e-10
 81.64755    -84.9 1.067e+04 4.491e-10
 81.65762    -85.4 1.087e+04 5.746e-10
 81.66729    -84.8 1.082e+04 5.014e-10
 81.67736    -84.5 1.095e+04 6.287e-10
 81.69601    -84.0 1.094e+04 5.609e-10
 81.71616    -83.5 1.096e+04 5.310e-10
 81.73630    -83.0 1.097e+04 5.261e-10
 81.75018    -82.5 1.105e+04 5.316e-10
 81.76026    -82.1 1.125e+04 6.817e-10
 81.77659    -81.6 1.138e+04 7.361e-10
 81.79674    -80.8 1.151e+04 8.114e-10
 81.81688    -80.0 1.165e+04 8.800e-10
 81.83307    -79.2 1.177e+04 9.229e-10
 81.84315    -78.8 1.205e+04 1.214e-09
 81.85718    -78.0 1.216e+04 1.276e-09
 81.87104    -77.2 1.225e+04 1.295e-09
 81.88111    -77.6 1.242e+04 1.428e-09
 81.89747    -76.9 1.250e+04 1.439e-09
 81.91596    -76.2 1.255e+04 1.430e-09
 81.92604    -75.7 1.295e+04 1.982e-09
 81.93776    -75.1 1.301e+04 2.012e-09
 81.95790    -74.4 1.304e+04 2.014e-09
 81.97805    -73.9 1.311e+04 1.970e-09
 81.99820    -73.6 1.323e+04 1.906e-09
 82.00893    -73.6 1.337e+04 1.862e-09
 82.01900    -73.6 1.402e+04 3.054e-09
 82.03849    -73.8 1.427e+04 3.230e-09
 82.05863    -73.9 1.449e+04 3.416e-09
 82.07878    -73.9 1.456e+04 3.485e-09
 82.09182    -73.8 1.453e+04 3.363e-09
 82.09750    -73.5 1.515e+04 5.096e-09
 82.10460    -73.9 1.500e+04 4.199e-09
 82.11907    -73.7 1.476e+04 3.276e-09
 82.13921    -73.8 1.430e+04 2.417e-09
 82.15936    -74.4 1.399e+04 1.761e-09
 82.17471    -75.2 1.387e+04 1.462e-09
 82.18478    -75.5 1.339e+04 1.188e-09
 82.19965    -76.1 1.317e+04 1.067e-09
 82.21980    -76.4 1.317e+04 1.109e-09
 82.23994    -76.5 1.327e+04 1.227e-09
 82.25760    -76.2 1.344e+04 1.395e-09
 82.26767    -76.5 1.264e+04 9.984e-10
 82.28023    -76.2 1.274e+04 1.062e-09
 82.30038    -75.8 1.282e+04 1.086e-09
 82.31802    -75.3 1.283e+04 1.063e-09
 82.32809    -76.1 1.427e+04 1.851e-09
 82.34049    -75.7 1.417e+04 1.664e-09
 82.35056    -76.6 1.305e+04 1.178e-09
 82.36082    -76.2 1.290e+04 1.140e-09
 82.38096    -75.7 1.282e+04 1.135e-09
 82.40111    -75.0 1.279e+04 1.151e-09
 82.42125    -74.1 1.280e+04 1.196e-09
 82.43345    -73.2 1.285e+04 1.243e-09
 82.44352    -73.9 1.221e+04 1.096e-09
 82.46154    -73.0 1.216e+04 1.061e-09
 82.48169    -71.9 1.212e+04 1.011e-09
 82.50184    -70.8 1.213e+04 9.540e-10
 82.51634    -69.8 1.220e+04 8.993e-10
 82.52641    -71.0 1.146e+04 5.748e-10
 82.54151    -70.0 1.133e+04 5.049e-10
 82.55158    -70.4 1.235e+04 6.976e-10
 82.56227    -69.4 1.267e+04 6.892e-10
 82.58242    -68.5 1.313e+04 7.153e-10
 82.59923    -67.7 1.374e+04 7.995e-10
 82.60930    -68.6 1.132e+04 3.597e-10
 82.62271    -67.4 1.162e+04 3.756e-10
 82.64286    -66.3 1.217e+04 4.150e-10
 82.66300    -65.2 1.306e+04 5.037e-10
 82.68212    -64.2 1.438e+04 7.185e-10
 82.69219    -65.0 1.131e+04 3.185e-10
 82.70329    -64.7 1.235e+04 4.232e-10
 82.72344    -65.8 1.467e+04 7.172e-10
 82.74358    -67.9 1.789e+04 1.560e-09
 82.76373    -69.1 2.044e+04 3.463e-09
 82.77507    -69.0 2.113e+04 5.465e-09
 82.78514    -68.4 2.149e+04 5.379e-09
 82.80402    -68.0 2.206e+04 6.890e-09
 82.81648    -70.6 1.771e+04 4.715e-09
 82.82147    -71.5 1.748e+04 4.075e-09
 82.82910    -72.2 1.655e+04 3.743e-09
 82.83918    -74.9 1.447e+04 3.029e-09
 82.84925    -75.9 1.424e+04 2.754e-09
 82.85788    -78.2 1.381e+04 2.254e-09
 82.86800    -78.9 1.363e+04 2.074e-09
 82.88460    -83.8 1.282e+04 1.555e-09
 82.90475    -88.6 1.198e+04 1.337e-09
 82.92489    -91.2 1.167e+04 1.294e-09
 82.94086    -92.0 1.157e+04 1.324e-09
 82.95094    -90.7 1.114e+04 1.103e-09
 82.96519    -90.8 1.118e+04 1.196e-09
 82.98533    -90.6 1.126e+04 1.263e-09
 82.99856    -90.1 1.130e+04 1.283e-09
 83.00863    -89.2 1.164e+04 1.425e-09
 83.02375    -88.4 1.161e+04 1.395e-09
 83.03383    -88.1 1.147e+04 1.375e-09
 83.04577    -87.4 1.147e+04 1.359e-09
 83.06591    -86.6 1.138e+04 1.304e-09
 83.08606    -85.8 1.124e+04 1.219e-09
 83.10620    -85.0 1.112e+04 1.135e-09
 83.11672    -84.3 1.110e+04 1.088e-09
 83.12679    -85.1 1.142e+04 1.245e-09
 83.14650    -85.0 1.142e+04 1.225e-09
 83.16664    -85.3 1.153e+04 1.232e-09
 83.18679    -86.4 1.197e+04 1.440e-09
 83.19961    -87.4 1.251e+04 1.871e-09
 83.20968    -88.7 1.256e+04 1.918e-09
 83.22205    -89.1 1.308e+04 2.469e-09
 83.23212    -88.8 1.350e+04 2.875e-09
 83.24722    -89.2 1.384e+04 3.357e-09
 83.26737    -89.5 1.389e+04 3.471e-09
 83.28250    -89.4 1.420e+04 3.248e-09
 83.29257    -90.1 1.414e+04 3.184e-09
 83.30258    -89.5 1.600e+04 2.709e-09
 83.31260    -89.5 1.612e+04 2.683e-09
 83.32267   -101.1 3.899e+04 1.674e-09
 83.32888   -127.4 8.404e+04 2.768e-09
 83.33392   -137.2 7.986e+04 3.835e-09
 83.33871   -136.8 4.993e+04 7.997e-10
 83.34375   -140.5 3.420e+04 2.121e-07
 83.34958   -143.9 2.559e+04 9.375e-07
 83.35207   -148.0 2.463e+04 1.058e-06
 83.35536   -151.2 2.474e+04 1.491e-06
 83.36040   -160.5 2.794e+04 1.511e-06
 83.36543   -174.6 2.894e+04 1.607e-06
 83.37028   -186.0 2.912e+04 1.190e-06
 83.37280   -187.3 2.230e+04 6.016e-06
 83.37551   -194.4 2.961e+04 6.982e-07
 83.38308   -200.5 3.644e+04 9.775e-08
 83.39318   -212.8 2.984e+04 1.101e-08
 83.40325   -217.3 1.875e+04 5.631e-09
 83.41177   -217.7 1.672e+04 4.783e-09
 83.41681   -217.1 2.114e+04 6.730e-09
 83.42340   -216.7 2.073e+04 6.108e-09
 83.43347   -214.9 2.099e+04 5.863e-09
 83.44355   -213.5 2.207e+04 5.527e-09
 83.45048   -212.3 2.306e+04 5.655e-09
 83.45516   -213.1 2.046e+04 2.707e-09
 83.45830   -211.5 2.726e+04 7.071e-09
 83.46369   -210.4 2.786e+04 8.319e-09
 83.47376   -209.4 2.879e+04 8.774e-09
 83.48384   -208.6 2.978e+04 8.463e-09
 83.49391   -208.3 3.205e+04 6.802e-09
 83.49970   -208.4 3.384e+04 5.088e-09
 83.50473   -207.4 2.800e+04 3.324e-08
 83.51406   -208.2 2.939e+04 2.297e-08
 83.52921   -210.8 3.000e+04 8.795e-09
 83.54124   -212.4 2.532e+04 6.206e-09
 83.54623   -213.1 2.262e+04 5.165e-08
 83.55435   -212.9 2.260e+04 2.346e-08
 83.56222   -212.9 2.195e+04 1.343e-08
 83.56726   -213.1 2.151e+04 8.561e-09
 83.57449   -213.0 2.048e+04 8.723e-09
 83.58965   -212.8 1.982e+04 9.940e-09
 83.60985   -211.5 1.809e+04 7.895e-09
 83.62413   -209.8 1.695e+04 6.495e-09
 83.63420   -209.9 1.825e+04 1.052e-08
 83.65014   -207.9 1.758e+04 8.421e-09
 83.66903   -206.1 1.680e+04 6.442e-09
 83.67910   -205.5 1.597e+04 5.119e-09
 83.69043   -204.0 1.541e+04 4.310e-09
 83.70702   -202.7 1.489e+04 3.638e-09
 83.71709   -202.0 1.558e+04 4.725e-09
 83.73072   -200.7 1.497e+04 3.813e-09
 83.75086   -199.3 1.441e+04 3.085e-09
 83.77101   -197.9 1.394e+04 2.530e-09
 83.78991   -196.5 1.353e+04 2.126e-09
 83.79998   -195.9 1.378e+04 2.422e-09
 83.81130   -194.6 1.345e+04 2.043e-09
 83.83145   -193.3 1.318e+04 1.737e-09
 83.85159   -192.0 1.290e+04 1.502e-09
 83.87174   -190.7 1.265e+04 1.329e-09
 83.88287   -189.4 1.243e+04 1.205e-09
 83.89295   -188.7 1.263e+04 1.254e-09
 83.90259   -187.5 1.243e+04 1.131e-09
 83.91266   -187.2 1.234e+04 1.218e-09
 83.93218   -186.0 1.221e+04 1.122e-09
 83.95232   -184.7 1.210e+04 1.044e-09
 83.96576   -183.5 1.200e+04 9.809e-10
 83.97584   -182.9 1.207e+04 9.486e-10
 83.99261   -181.6 1.198e+04 8.881e-10
 84.01276   -180.4 1.190e+04 8.395e-10
 84.03290   -179.2 1.183e+04 8.018e-10
 84.04865   -177.9 1.176e+04 7.735e-10
 84.05873   -177.4 1.177e+04 7.194e-10
 84.07319   -176.1 1.169e+04 6.993e-10
 84.09334   -174.9 1.161e+04 6.851e-10
 84.11349   -173.7 1.154e+04 6.729e-10
 84.12608   -172.5 1.147e+04 6.616e-10
 84.13407   -172.2 1.146e+04 6.546e-10
 84.14162   -171.5 1.150e+04 6.422e-10
 84.15378   -170.4 1.143e+04 6.319e-10
 84.17392   -169.2 1.137e+04 6.214e-10
 84.19407   -168.0 1.131e+04 6.072e-10
 84.21421   -166.8 1.126e+04 5.904e-10
 84.22451   -165.8 1.121e+04 5.783e-10
 84.23458   -165.4 1.126e+04 5.938e-10
 84.25451   -164.6 1.118e+04 5.800e-10
 84.28482   -163.7 1.110e+04 5.687e-10
 84.30759   -161.2 1.095e+04 5.252e-10
 84.31757   -160.1 1.117e+04 6.030e-10
 84.33509   -159.1 1.114e+04 6.017e-10
 84.34967   -158.0 1.113e+04 6.099e-10
 84.36991   -157.0 1.085e+04 4.699e-10
 84.40579   -154.6 1.064e+04 4.020e-10
 84.44608   -152.5 1.053e+04 3.436e-10
 84.47337   -150.3 1.045e+04 2.909e-10
 84.49352   -148.7 1.066e+04 4.296e-10
 84.52667   -146.5 1.056e+04 3.606e-10
 84.56696   -144.3 1.051e+04 3.025e-10
 84.60725   -142.1 1.053e+04 2.620e-10
 84.63915   -140.1 1.055e+04 2.479e-10
 84.65930   -138.7 1.091e+04 4.973e-10
 84.68783   -136.9 1.099e+04 4.951e-10
 84.72812   -135.6 1.164e+04 5.257e-10
 84.76841   -134.8 1.241e+04 7.350e-10
 84.79674   -134.4 1.307e+04 1.226e-09
 84.81312   -136.2 1.285e+04 1.282e-09
 84.82508   -132.6 1.343e+04 1.681e-09
 84.83883   -133.4 1.353e+04 1.883e-09
 84.85887   -134.7 1.373e+04 2.405e-09
 84.87902   -137.6 1.426e+04 3.125e-09
 84.89770   -142.3 1.485e+04 3.775e-09
 84.90777   -140.4 1.602e+04 4.159e-09
 84.91931   -147.7 1.686e+04 4.698e-09
 84.93946   -154.9 1.710e+04 4.836e-09
 84.95960   -160.8 1.615e+04 4.240e-09
 84.97975   -165.1 1.442e+04 2.982e-09
 84.99066   -167.8 1.303e+04 2.136e-09
 85.00074   -168.8 1.369e+04 3.037e-09
 85.02004   -170.0 1.295e+04 2.243e-09
 85.04018   -170.4 1.258e+04 1.929e-09
 85.06033   -170.6 1.230e+04 1.700e-09
 85.07355   -170.2 1.203e+04 1.495e-09
 85.08363   -172.2 1.491e+04 2.485e-09
 85.10062   -171.4 1.443e+04 2.204e-09
 85.12077   -170.6 1.413e+04 2.014e-09
 85.14091   -169.8 1.388e+04 1.862e-09
 85.15645   -168.8 1.356e+04 1.731e-09
 85.16652   -169.5 1.364e+04 2.816e-09
 85.18120   -168.4 1.336e+04 2.483e-09
 85.20135   -167.4 1.306e+04 2.167e-09
 85.22150   -166.5 1.269e+04 1.836e-09
 85.23934   -165.5 1.228e+04 1.516e-09
 85.24941   -165.2 1.250e+04 1.841e-09
 85.25360   -164.5 1.220e+04 1.392e-09
 85.26367   -164.6 1.200e+04 1.245e-09
 85.28193   -163.8 1.177e+04 1.030e-09
 85.30208   -163.0 1.157e+04 8.832e-10
 85.32222   -162.1 1.136e+04 7.678e-10
 85.34237   -161.2 1.115e+04 7.540e-10
 85.36251   -160.2 1.103e+04 7.094e-10
 85.38266   -159.2 1.095e+04 6.855e-10
 85.40281   -158.1 1.093e+04 6.752e-10
 85.41519   -157.0 1.092e+04 6.735e-10
 85.42526   -156.9 1.101e+04 7.095e-10
 85.44310   -155.8 1.101e+04 7.108e-10
 85.46324   -154.8 1.103e+04 7.160e-10
 85.47709   -153.8 1.108e+04 7.285e-10
 85.48716   -153.6 1.122e+04 8.208e-10
 85.49808   -152.6 1.126e+04 8.351e-10
 85.50815   -152.4 1.128e+04 8.367e-10
 85.52368   -151.5 1.133e+04 8.489e-10
 85.54383   -150.6 1.138e+04 8.699e-10
 85.56397   -149.8 1.145e+04 9.058e-10
 85.58097   -149.0 1.153e+04 9.619e-10
 85.59104   -148.7 1.141e+04 9.233e-10
 85.60426   -147.8 1.149e+04 9.914e-10
 85.62441   -147.0 1.161e+04 1.084e-09
 85.64455   -146.2 1.175e+04 1.195e-09
 85.66386   -145.5 1.189e+04 1.311e-09
 85.67393   -145.0 1.172e+04 1.180e-09
 85.68485   -144.2 1.186e+04 1.274e-09
 85.70058   -143.4 1.200e+04 1.359e-09
 85.71065   -143.3 1.207e+04 1.374e-09
 85.72514   -142.5 1.213e+04 1.430e-09
 85.74528   -141.7 1.218e+04 1.466e-09
 85.75682   -140.8 1.220e+04 1.476e-09
 85.76689   -140.6 1.205e+04 1.330e-09
 85.78557   -139.9 1.212e+04 1.374e-09
 85.81589   -139.0 1.222e+04 1.416e-09
 85.83991   -137.0 1.224e+04 1.410e-09
 85.86005   -136.3 1.215e+04 9.695e-10
 85.89657   -134.3 1.226e+04 9.615e-10
 85.93686   -132.1 1.237e+04 9.718e-10
 85.97715   -130.2 1.244e+04 1.002e-09
 86.00569   -128.2 1.248e+04 1.077e-09
 86.02583   -127.2 1.274e+04 9.166e-10
 86.05773   -125.1 1.290e+04 9.714e-10
 86.09803   -123.1 1.297e+04 1.091e-09
 86.13768   -121.2 1.298e+04 1.297e-09
 86.15783   -120.4 1.294e+04 1.327e-09
 86.17147   -118.7 1.294e+04 1.555e-09
 86.19161   -117.4 1.336e+04 1.602e-09
 86.21890   -115.5 1.339e+04 1.791e-09
 86.25919   -113.8 1.336e+04 1.952e-09
 86.29948   -112.2 1.327e+04 2.017e-09
 86.33725   -110.6 1.302e+04 1.997e-09
 86.35739   -109.4 1.391e+04 2.531e-09
 86.38006   -107.9 1.343e+04 2.279e-09
 86.42036   -106.5 1.293e+04 2.012e-09
 86.46065   -105.2 1.239e+04 1.713e-09
 86.50094   -103.8 1.194e+04 1.452e-09
 86.52317   -102.2 1.152e+04 1.182e-09
 86.53315   -101.8 1.221e+04 1.685e-09
 86.55111   -101.0 1.208e+04 1.591e-09
 86.58142   -100.1 1.186e+04 1.385e-09
 86.60480    -98.1 1.137e+04 1.080e-09
 86.62495    -97.6 1.161e+04 1.294e-09
 86.66210    -95.5 1.110e+04 9.243e-10
 86.68896    -93.2 1.066e+04 6.467e-10
 86.70910    -92.7 1.107e+04 8.605e-10
 86.74269    -90.2 1.063e+04 6.117e-10
 86.78298    -87.6 1.029e+04 4.474e-10
 86.82327    -85.0 1.001e+04 3.400e-10
 86.85474    -82.4 9.786e+03 2.695e-10
 86.87488    -81.5 9.925e+03 3.239e-10
 86.90385    -78.8 9.772e+03 2.596e-10
 86.94414    -76.0 9.614e+03 2.111e-10
 86.98443    -73.2 9.492e+03 1.722e-10
 87.02052    -70.3 9.398e+03 1.406e-10
 87.04066    -69.4 9.487e+03 1.569e-10
 87.05178    -66.6 9.407e+03 1.328e-10
 87.07193    -66.4 9.415e+03 1.274e-10
 87.10531    -63.5 9.357e+03 1.069e-10
 87.14560    -60.7 9.322e+03 9.255e-11
 87.18589    -57.9 9.295e+03 8.308e-11
 87.20644    -55.1 9.265e+03 7.760e-11
 87.22659    -54.1 9.370e+03 1.078e-10
 87.26647    -51.3 9.366e+03 1.058e-10
 87.30676    -48.6 9.369e+03 1.056e-10
 87.34705    -45.9 9.372e+03 1.090e-10
 87.37222    -43.3 9.358e+03 1.183e-10
 87.39237    -42.0 9.539e+03 1.824e-10
 87.42764    -39.4 9.560e+03 1.944e-10
 87.46793    -36.7 9.597e+03 2.052e-10
 87.49876    -34.2 9.667e+03 2.161e-10
 87.51891    -33.9 9.591e+03 1.792e-10
 87.53800    -31.5 9.674e+03 1.867e-10
 87.55815    -30.0 1.004e+04 2.965e-10
 87.58880    -27.9 1.013e+04 3.092e-10
 87.62909    -26.1 1.029e+04 3.762e-10
 87.66938    -24.4 1.054e+04 5.249e-10
 87.70378    -22.8 1.081e+04 7.524e-10
 87.72393    -20.7 1.134e+04 1.067e-09
 87.74997    -18.8 1.176e+04 1.350e-09
 87.79026    -18.0 1.213e+04 1.613e-09
 87.82038    -17.8 1.233e+04 1.898e-09
 87.84043    -20.7 1.423e+04 2.920e-09
 87.86057    -25.3 1.664e+04 6.124e-09
 87.87944    -28.6 1.804e+04 1.218e-08
 87.88951    -27.4 1.823e+04 1.344e-08
 87.90086    -29.9 1.869e+04 1.742e-08
 87.92101    -33.0 1.861e+04 1.740e-08
 87.94116    -36.5 1.735e+04 1.080e-08
 87.95562    -40.9 1.529e+04 5.702e-09
 87.96569    -40.5 1.634e+04 8.147e-09
 87.97240    -43.4 1.444e+04 5.054e-09
 87.98248    -43.3 1.420e+04 4.603e-09
 88.00159    -44.1 1.347e+04 3.640e-09
 88.02174    -44.2 1.310e+04 3.022e-09
 88.04188    -44.1 1.274e+04 2.444e-09
 88.05529    -43.7 1.235e+04 1.938e-09
 88.06537    -43.6 1.232e+04 2.009e-09
 88.08217    -43.1 1.203e+04 1.646e-09
 88.10232    -42.5 1.174e+04 1.355e-09
 88.12247    -41.9 1.150e+04 1.117e-09
 88.13818    -41.4 1.133e+04 9.374e-10
 88.14826    -41.0 1.142e+04 1.005e-09
 88.16276    -40.7 1.138e+04 9.042e-10
 88.17911    -40.7 1.138e+04 8.781e-10
 88.18918    -40.6 1.139e+04 8.826e-10
 88.20305    -40.7 1.142e+04 8.932e-10
 88.22107    -41.1 1.161e+04 1.066e-09
 88.23115    -40.8 1.176e+04 1.198e-09
 88.24334    -40.9 1.211e+04 1.643e-09
 88.26349    -40.9 1.264e+04 2.264e-09
 88.28363    -40.8 1.321e+04 2.951e-09
 88.30378    -40.9 1.359e+04 3.412e-09
 88.31404    -41.7 1.364e+04 3.520e-09
 88.32411    -41.7 1.388e+04 3.975e-09
 88.34407    -41.8 1.331e+04 3.332e-09
 88.36421    -41.7 1.255e+04 2.311e-09
 88.38436    -41.9 1.200e+04 1.593e-09
 88.39693    -42.4 1.163e+04 1.165e-09
 88.40509    -42.0 1.160e+04 1.042e-09
 88.41267    -41.9 1.174e+04 1.122e-09
 88.42465    -42.6 1.147e+04 9.208e-10
 88.44480    -42.9 1.136e+04 8.706e-10
 88.46494    -42.9 1.135e+04 8.689e-10
 88.47982    -42.8 1.140e+04 8.874e-10
 88.48989    -42.6 1.137e+04 8.517e-10
 88.51540    -42.8 1.146e+04 8.999e-10
 88.55283    -43.0 1.145e+04 9.108e-10
 88.57298    -42.0 1.149e+04 9.235e-10
 88.59608    -42.0 1.139e+04 8.653e-10
 88.63637    -41.8 1.131e+04 7.160e-10
 88.67667    -41.4 1.122e+04 5.743e-10
 88.71696    -40.7 1.111e+04 4.689e-10
 88.73876    -39.8 1.100e+04 3.930e-10
 88.75890    -38.9 1.100e+04 3.701e-10
 88.79754    -37.8 1.092e+04 3.008e-10
 88.83783    -36.4 1.081e+04 2.481e-10
 88.85984    -34.9 1.073e+04 2.170e-10
 88.87999    -34.8 1.090e+04 2.342e-10
 88.90454    -33.1 1.089e+04 2.299e-10
 88.92468    -32.0 1.085e+04 1.945e-10
 88.95870    -30.3 1.089e+04 1.970e-10
 88.99900    -28.8 1.099e+04 2.442e-10
 89.03929    -27.2 1.105e+04 3.363e-10
 89.07032    -25.4 1.115e+04 4.445e-10
 89.09046    -24.3 1.111e+04 3.954e-10
 89.11987    -22.4 1.124e+04 5.217e-10
 89.16016    -20.5 1.136e+04 6.100e-10
 89.20045    -18.7 1.140e+04 6.349e-10
 89.23610    -17.1 1.140e+04 6.174e-10
 89.25624    -15.8 1.174e+04 8.016e-10
 89.28104    -14.3 1.172e+04 7.726e-10
 89.30682    -12.6 1.169e+04 7.171e-10
 89.32697    -12.8 1.171e+04 7.277e-10
 89.35145    -11.4 1.168e+04 6.689e-10
 89.37150    -11.1 1.165e+04 6.567e-10
 89.39164    -10.4 1.162e+04 6.307e-10
 89.41176    -10.6 1.207e+04 6.551e-10
 89.43190    -11.4 1.308e+04 1.262e-09
 89.45208    -13.1 1.393e+04 2.459e-09
 89.47222    -13.9 1.474e+04 4.996e-09
 89.49237    -13.8 1.552e+04 8.844e-09
 89.50472    -13.1 1.611e+04 1.221e-08
 89.51479    -13.0 1.616e+04 1.216e-08
 89.53012    -12.8 1.631e+04 1.324e-08
 89.54019    -12.8 1.682e+04 1.488e-08
 89.55281    -13.1 1.595e+04 9.772e-09
 89.57295    -14.1 1.491e+04 5.428e-09
 89.58761    -15.7 1.376e+04 3.015e-09
 89.59768    -15.6 1.375e+04 3.144e-09
 89.61324    -16.5 1.291e+04 2.050e-09
 89.63339    -16.8 1.251e+04 1.579e-09
 89.65353    -16.7 1.227e+04 1.329e-09
 89.67050    -16.2 1.214e+04 1.201e-09
 89.68057    -16.1 1.214e+04 1.224e-09
 89.69383    -15.6 1.208e+04 1.153e-09
 89.71397    -15.2 1.202e+04 1.123e-09
 89.73412    -14.8 1.208e+04 1.139e-09
 89.75339    -14.4 1.225e+04 1.204e-09
 89.76280    -14.2 1.208e+04 1.147e-09
 89.76368    -14.9 1.287e+04 1.684e-09
 89.77441    -14.7 1.322e+04 1.967e-09
 89.79455    -14.5 1.363e+04 2.426e-09
 89.81470    -14.4 1.402e+04 3.135e-09
 89.83484    -14.1 1.438e+04 4.165e-09
 89.84635    -13.7 1.473e+04 5.513e-09
 89.85642    -13.6 1.445e+04 4.490e-09
 89.87514    -13.1 1.475e+04 5.752e-09
 89.89528    -12.5 1.501e+04 6.862e-09
 89.91543    -11.8 1.520e+04 7.538e-09
 89.92924    -11.2 1.530e+04 7.749e-09
 89.93931    -11.2 1.491e+04 6.554e-09
 89.95572    -10.5 1.492e+04 6.567e-09
 89.97586     -9.9 1.481e+04 6.278e-09
 89.98717     -9.2 1.463e+04 5.763e-09
 89.99724     -9.7 1.447e+04 5.132e-09
 90.01213     -8.8 1.422e+04 4.419e-09
 90.02221     -8.7 1.426e+04 4.546e-09
 90.04647     -7.7 1.407e+04 4.124e-09
 90.08515     -6.1 1.389e+04 3.645e-09
 90.10529     -5.8 1.396e+04 3.944e-09
 90.12715     -3.9 1.400e+04 3.994e-09
 90.16744     -2.1 1.409e+04 3.941e-09
 90.20078     -0.3 1.404e+04 3.504e-09
 90.22092     -1.1 1.308e+04 1.246e-09
 90.24803      0.3 1.262e+04 8.755e-10
 90.27107      1.6 1.217e+04 6.389e-10
 90.29122      1.8 1.269e+04 9.321e-10
 90.32861      3.1 1.236e+04 7.326e-10
 90.36890      4.4 1.213e+04 6.136e-10
 90.40919      5.6 1.193e+04 5.595e-10
 90.43685      6.8 1.168e+04 5.507e-10
 90.45700      7.1 1.195e+04 8.076e-10
 90.48977      8.8 1.169e+04 7.579e-10
 90.53006     10.5 1.134e+04 5.893e-10
 90.57036     12.1 1.109e+04 4.339e-10
 90.60263     13.8 1.098e+04 3.687e-10
 90.62278     14.2 1.105e+04 3.831e-10
 90.64776     16.0 1.097e+04 3.286e-10
 90.66790     15.5 1.102e+04 3.697e-10
 90.69123     17.1 1.112e+04 4.022e-10
 90.73152     18.5 1.125e+04 4.952e-10
 90.76841     19.8 1.143e+04 6.511e-10
 90.78856     19.9 1.146e+04 6.326e-10
 90.81210     21.2 1.157e+04 9.033e-10
 90.85239     22.7 1.171e+04 1.073e-09
 90.89269     24.2 1.162e+04 1.038e-09
 90.93298     26.3 1.129e+04 6.376e-10
 90.95434     28.0 1.100e+04 3.052e-10
 90.97448     27.9 1.101e+04 2.715e-10
 91.01356     28.8 1.080e+04 1.429e-10
 91.05385     30.0 1.064e+04 1.009e-10
 91.09414     31.5 1.055e+04 8.667e-11
 91.11488     33.5 1.055e+04 8.425e-11
 91.12071     33.1 1.059e+04 8.013e-11
 91.14026     33.3 1.058e+04 8.477e-11
 91.17472     35.5 1.047e+04 8.859e-11
 91.21502     37.8 1.039e+04 8.896e-11
 91.25531     40.6 1.038e+04 7.848e-11
 91.28590     42.7 1.059e+04 6.225e-11
 91.30604     42.8 1.064e+04 6.902e-11
 91.33589     44.4 1.065e+04 6.243e-11
 91.37618     46.2 1.061e+04 6.350e-11
 91.41647     48.0 1.061e+04 6.939e-11
 91.45168     49.9 1.060e+04 8.190e-11
 91.47182     49.9 1.064e+04 1.065e-10
 91.49705     51.9 1.065e+04 1.349e-10
 91.53735     53.9 1.069e+04 1.728e-10
 91.56186     55.9 1.076e+04 2.183e-10
 91.58201     55.7 1.077e+04 2.196e-10
 91.61746     57.5 1.084e+04 2.690e-10
 91.63761     57.5 1.095e+04 3.306e-10
 91.65822     59.1 1.104e+04 3.678e-10
 91.69851     60.3 1.110e+04 3.982e-10
 91.73880     61.4 1.126e+04 4.294e-10
 91.77909     62.4 1.132e+04 5.096e-10
 91.80339     63.5 1.136e+04 5.990e-10
 91.82353     62.8 1.158e+04 7.150e-10
 91.85968     63.8 1.169e+04 7.973e-10
 91.89997     64.5 1.180e+04 8.733e-10
 91.94026     65.0 1.191e+04 1.016e-09
 91.96917     65.5 1.197e+04 1.148e-09
 91.98931     64.5 1.178e+04 9.209e-10
 92.00884     65.2 1.163e+04 8.481e-10
 92.02898     65.3 1.169e+04 9.100e-10
 92.06113     66.0 1.154e+04 8.253e-10
 92.10142     66.6 1.141e+04 7.192e-10
 92.13495     67.0 1.137e+04 6.811e-10
 92.15509     66.3 1.138e+04 6.648e-10
 92.18201     66.4 1.162e+04 8.685e-10
 92.22230     66.1 1.207e+04 1.337e-09
 92.26259     65.9 1.254e+04 1.961e-09
 92.30073     65.8 1.284e+04 2.444e-09
 92.32087     64.5 1.287e+04 2.406e-09
 92.34317     63.7 1.297e+04 2.571e-09
 92.38346     63.1 1.286e+04 2.393e-09
 92.42375     62.9 1.255e+04 1.874e-09
 92.45582     63.0 1.207e+04 1.189e-09
 92.47596     62.9 1.213e+04 1.079e-09
 92.48665     62.7 1.150e+04 5.619e-10
 92.50680     61.3 1.101e+04 3.648e-10
 92.54463     62.1 1.073e+04 2.974e-10
 92.58492     63.4 1.061e+04 2.756e-10
 92.62521     65.0 1.060e+04 2.789e-10
 92.65243     66.6 1.064e+04 2.961e-10
 92.67258     66.5 1.060e+04 2.963e-10
 92.70579     67.8 1.069e+04 3.529e-10
 92.74608     69.0 1.086e+04 4.857e-10
 92.78637     70.4 1.108e+04 6.872e-10
 92.81821     71.9 1.128e+04 8.510e-10
 92.83836     71.6 1.119e+04 7.692e-10
 92.86696     72.9 1.122e+04 7.661e-10
 92.90280     74.3 1.118e+04 6.838e-10
 92.92294     74.1 1.121e+04 6.767e-10
 92.94754     75.3 1.105e+04 5.235e-10
 92.98399     76.4 1.094e+04 4.271e-10
 93.00414     76.4 1.091e+04 4.103e-10
 93.02812     77.9 1.082e+04 3.796e-10
 93.06841     79.6 1.077e+04 3.728e-10
 93.10870     81.4 1.077e+04 3.698e-10
 93.14900     83.2 1.077e+04 3.721e-10
 93.16992     84.8 1.078e+04 3.704e-10
 93.19007     84.9 1.076e+04 3.649e-10
 93.22958     86.4 1.076e+04 3.509e-10
 93.26987     87.9 1.070e+04 3.032e-10
 93.31016     89.2 1.058e+04 2.263e-10
 93.33570     90.2 1.046e+04 1.612e-10
 93.35517     90.3 1.052e+04 1.845e-10
 93.36992     89.8 1.044e+04 1.779e-10
 93.39074     90.7 1.036e+04 1.590e-10
 93.43103     91.9 1.032e+04 1.574e-10
 93.47133     93.3 1.032e+04 1.609e-10
 93.50148     94.8 1.036e+04 1.687e-10
 93.52163     94.7 1.049e+04 2.036e-10
 93.55191     96.3 1.051e+04 2.020e-10
 93.59220     98.0 1.051e+04 1.934e-10
 93.63249     99.8 1.050e+04 1.717e-10
 93.66726    101.6 1.052e+04 1.444e-10
 93.68741    101.4 1.057e+04 1.437e-10
 93.71307    103.0 1.056e+04 1.227e-10
 93.75336    104.7 1.058e+04 1.161e-10
 93.79366    106.6 1.062e+04 1.174e-10
 93.81690    108.4 1.071e+04 1.262e-10
 93.83614    108.6 1.069e+04 1.310e-10
 93.85319    108.4 1.072e+04 1.387e-10
 93.87424    110.4 1.077e+04 1.558e-10
 93.91453    112.3 1.084e+04 1.840e-10
 93.95482    114.2 1.094e+04 2.232e-10
 93.99511    115.9 1.108e+04 2.717e-10
 94.01897    117.6 1.122e+04 3.140e-10
 94.03911    117.3 1.126e+04 3.081e-10
 94.07569    118.7 1.131e+04 3.091e-10
 94.11599    120.1 1.130e+04 2.948e-10
 94.15628    121.5 1.127e+04 2.654e-10
 94.18475    122.9 1.123e+04 2.354e-10
 94.20489    122.6 1.115e+04 1.800e-10
 94.23686    124.0 1.113e+04 1.630e-10
 94.26388    125.6 1.112e+04 1.567e-10
 94.28402    125.3 1.123e+04 1.575e-10
 94.31744    126.9 1.122e+04 1.578e-10
 94.35053    128.5 1.118e+04 1.631e-10
 94.37067    128.6 1.115e+04 1.296e-10
 94.39802    130.4 1.112e+04 1.416e-10
 94.43832    132.2 1.112e+04 1.516e-10
 94.47861    134.1 1.113e+04 1.599e-10
 94.51631    136.0 1.115e+04 1.634e-10
 94.53645    136.3 1.114e+04 1.486e-10
 94.55919    138.2 1.108e+04 1.535e-10
 94.59948    140.1 1.100e+04 1.566e-10
 94.63977    141.9 1.091e+04 1.586e-10
 94.68006    143.7 1.082e+04 1.606e-10
 94.70223    145.4 1.074e+04 1.631e-10
 94.71288    145.5 1.078e+04 1.710e-10
 94.73100    145.1 1.079e+04 1.762e-10
 94.76065    146.5 1.075e+04 1.854e-10
 94.80094    147.7 1.066e+04 1.914e-10
 94.84123    148.8 1.061e+04 1.919e-10
 94.86801    149.8 1.053e+04 1.926e-10
 94.88816    149.6 1.060e+04 2.151e-10
 94.92181    150.5 1.051e+04 2.143e-10
 94.96210    151.4 1.048e+04 2.143e-10
 95.00239    152.1 1.043e+04 2.185e-10
 95.03380    152.6 1.039e+04 2.324e-10
 95.05394    152.3 1.042e+04 2.373e-10
 95.08298    152.7 1.035e+04 2.411e-10
 95.12327    153.1 1.032e+04 2.396e-10
 95.15784    153.4 1.023e+04 2.336e-10
 95.17798    152.9 1.022e+04 2.303e-10
 95.19958    153.5 1.009e+04 2.166e-10
 95.21972    153.3 1.005e+04 2.039e-10
 95.24414    154.1 9.935e+03 1.952e-10
 95.28443    155.1 9.826e+03 1.886e-10
 95.32472    156.3 9.773e+03 1.882e-10
 95.36501    157.5 9.737e+03 1.911e-10
 95.38550    158.7 9.710e+03 1.961e-10
 95.40565    158.5 9.778e+03 2.091e-10
 95.44560    159.5 9.755e+03 2.123e-10
 95.48589    160.5 9.748e+03 2.100e-10
 95.52618    161.3 9.696e+03 2.060e-10
 95.55128    162.1 9.640e+03 2.020e-10
 95.57143    161.8 9.581e+03 1.871e-10
 95.60481    162.5 9.481e+03 1.801e-10
 95.62496    162.2 9.536e+03 1.982e-10
 95.64705    162.9 9.504e+03 1.980e-10
 95.68734    163.6 9.473e+03 2.024e-10
 95.71706    164.2 9.466e+03 2.142e-10
 95.73721    163.9 9.524e+03 2.271e-10
 95.76793    164.4 9.604e+03 2.579e-10
 95.80822    164.9 9.680e+03 2.829e-10
 95.84851    165.2 9.704e+03 2.899e-10
 95.88284    165.5 9.698e+03 2.879e-10
 95.90299    164.8 9.897e+03 3.305e-10
 95.92909    165.0 9.893e+03 3.303e-10
 95.96938    165.4 9.929e+03 3.405e-10
 96.00967    165.7 1.008e+04 3.825e-10
 96.04862    166.0 1.049e+04 4.944e-10
 96.06877    164.4 1.089e+04 6.731e-10
 96.07194    164.1 1.161e+04 1.013e-09
 96.09208    163.6 1.115e+04 7.344e-10
 96.13055    162.9 1.198e+04 1.182e-09
 96.15156    162.3 1.241e+04 1.508e-09
 96.16154    161.8 1.249e+04 1.592e-09
 96.18072    160.9 1.292e+04 2.042e-09
 96.20086    160.0 1.338e+04 2.630e-09
 96.22101    159.2 1.372e+04 3.167e-09
 96.23435    158.1 1.377e+04 3.263e-09
 96.24443    157.2 1.322e+04 2.516e-09
 96.26130    156.2 1.314e+04 2.463e-09
 96.28145    155.3 1.300e+04 2.339e-09
 96.29523    154.5 1.290e+04 2.258e-09
 96.30531    154.4 1.282e+04 2.078e-09
 96.31724    153.4 1.284e+04 2.052e-09
 96.32732    152.3 1.257e+04 1.731e-09
 96.34188    151.1 1.257e+04 1.709e-09
 96.37220    150.2 1.272e+04 1.877e-09
 96.40033    148.0 1.257e+04 1.720e-09
 96.42048    146.0 1.201e+04 1.375e-09
 96.45288    144.3 1.191e+04 1.303e-09
 96.49317    142.5 1.180e+04 1.193e-09
 96.51892    140.9 1.164e+04 1.066e-09
 96.53906    140.3 1.179e+04 1.098e-09
 96.56611    139.0 1.135e+04 8.081e-10
 96.58626    137.3 1.097e+04 6.205e-10
 96.61404    136.2 1.056e+04 4.813e-10
 96.65433    135.5 1.053e+04 4.684e-10
 96.69463    134.9 1.058e+04 4.863e-10
 96.73189    134.4 1.075e+04 5.449e-10
 96.75204    133.3 1.133e+04 9.580e-10
 96.77521    132.8 1.171e+04 1.110e-09
 96.81550    132.3 1.180e+04 1.120e-09
 96.85579    131.8 1.183e+04 1.123e-09
 96.89608    131.5 1.189e+04 1.153e-09
 96.91782    131.0 1.206e+04 1.270e-09
 96.93796    129.4 1.229e+04 1.448e-09
 96.96590    128.8 1.235e+04 1.520e-09
 96.98604    127.9 1.258e+04 1.736e-09
 97.01696    127.5 1.238e+04 1.616e-09
 97.05725    127.1 1.211e+04 1.434e-09
 97.08360    126.9 1.182e+04 1.218e-09
 97.10374    125.8 1.083e+04 5.283e-10
 97.13783    125.3 1.053e+04 3.723e-10
 97.17812    124.6 1.024e+04 2.692e-10
 97.21841    123.8 9.976e+03 2.150e-10
 97.24938    123.1 9.818e+03 1.875e-10
 97.26952    121.8 9.460e+03 1.245e-10
 97.29900    121.9 9.479e+03 1.448e-10
 97.33929    122.1 9.612e+03 1.657e-10
 97.37958    121.8 9.787e+03 1.894e-10
 97.41287    121.2 1.005e+04 2.478e-10
 97.42831    121.0 1.002e+04 2.582e-10
 97.43530    119.8 1.028e+04 3.493e-10
 97.46016    118.7 1.084e+04 5.724e-10
 97.50045    117.5 1.143e+04 8.814e-10
 97.54074    116.1 1.178e+04 9.688e-10
 97.58094    114.1 1.179e+04 9.017e-10
 97.62123    109.5 1.150e+04 6.336e-10
 97.66162    105.8 1.156e+04 6.757e-10
 97.70191    102.1 1.199e+04 9.805e-10
 97.74220     98.7 1.257e+04 1.471e-09
 97.76686     95.4 1.270e+04 1.508e-09
 97.78701     94.5 1.255e+04 1.436e-09
 97.82278     91.4 1.219e+04 1.132e-09
 97.85985     88.1 1.187e+04 1.022e-09
 97.88000     87.4 1.201e+04 1.269e-09
 97.90336     84.4 1.200e+04 1.291e-09
 97.93264     81.4 1.216e+04 1.461e-09
 97.95279     81.7 1.208e+04 1.364e-09
 97.98395     79.1 1.231e+04 1.676e-09
 98.02424     76.8 1.218e+04 1.663e-09
 98.06453     75.8 1.158e+04 1.388e-09
 98.09842     75.8 1.068e+04 8.724e-10
 98.11857     76.9 1.060e+04 6.288e-10
 98.14511     76.5 9.657e+03 2.914e-10
 98.18540     76.0 8.983e+03 1.598e-10
 98.22569     76.0 8.756e+03 1.365e-10
 98.26420     77.0 8.727e+03 1.371e-10
 98.28435     76.8 8.825e+03 1.604e-10
 98.30628     78.4 8.860e+03 1.809e-10
 98.32698     79.9 8.961e+03 2.072e-10
 98.34712     80.1 8.923e+03 1.826e-10
 98.38686     81.6 9.042e+03 2.136e-10
 98.42715     83.1 9.210e+03 2.591e-10
 98.45013     84.8 9.399e+03 3.134e-10
 98.47028     85.2 9.356e+03 2.930e-10
 98.50773     86.7 9.336e+03 2.879e-10
 98.54802     88.2 9.243e+03 2.640e-10
 98.58832     89.8 9.076e+03 2.216e-10
 98.61591     91.4 8.866e+03 1.713e-10
 98.63606     91.5 8.804e+03 1.248e-10
 98.66890     93.1 8.661e+03 1.107e-10
 98.70919     94.9 8.569e+03 9.824e-11
 98.74948     96.8 8.524e+03 8.718e-11
 98.77396     98.8 8.533e+03 7.830e-11
 98.78602     99.4 8.537e+03 7.323e-11
 98.80184    100.0 8.607e+03 1.058e-10
 98.83006    102.0 8.647e+03 9.893e-11
 98.87035    104.0 8.685e+03 9.171e-11
 98.91065    105.9 8.713e+03 8.563e-11
 98.94747    107.7 8.750e+03 8.244e-11
 98.96762    108.4 8.883e+03 1.277e-10
 98.99123    110.2 8.904e+03 1.178e-10
 99.03152    111.9 8.980e+03 1.097e-10
 99.07181    113.5 9.042e+03 1.080e-10
 99.11210    115.0 9.079e+03 1.087e-10
 99.13340    116.4 9.155e+03 1.138e-10
 99.15354    116.9 9.279e+03 1.298e-10
 99.19268    118.2 9.437e+03 1.424e-10
 99.22094    119.4 9.825e+03 1.879e-10
 99.24108    120.0 9.832e+03 1.913e-10
 99.27327    120.5 1.020e+04 2.622e-10
 99.29908    120.4 1.042e+04 3.268e-10
 99.30906    120.8 1.046e+04 3.465e-10
 99.32344    120.9 1.069e+04 4.401e-10
 99.34358    121.3 1.106e+04 6.003e-10
 99.36373    121.5 1.151e+04 8.027e-10
 99.38187    121.6 1.202e+04 1.032e-09
 99.39195    122.0 1.172e+04 8.750e-10
 99.40402    121.9 1.223e+04 1.022e-09
 99.42416    121.5 1.279e+04 1.221e-09
 99.44423    120.9 1.328e+04 1.521e-09
 99.46437    120.8 1.436e+04 3.031e-09
 99.47484    120.4 1.479e+04 4.114e-09
 99.48491    120.4 1.412e+04 2.895e-09
 99.50475    120.4 1.444e+04 3.530e-09
 99.52489    120.3 1.445e+04 3.537e-09
 99.54504    120.3 1.439e+04 3.340e-09
 99.55773    120.2 1.412e+04 2.681e-09
 99.56780    120.8 1.390e+04 2.458e-09
 99.58533    120.4 1.366e+04 1.812e-09
 99.60547    119.4 1.312e+04 1.191e-09
 99.62562    117.9 1.225e+04 7.798e-10
 99.64062    116.7 1.135e+04 5.756e-10
 99.65069    117.1 1.162e+04 7.074e-10
 99.66591    116.5 1.109e+04 6.475e-10
 99.67779    116.7 1.093e+04 6.275e-10
 99.68786    116.3 1.123e+04 6.769e-10
 99.70620    116.4 1.099e+04 6.174e-10
 99.72351    116.9 1.091e+04 5.565e-10
 99.73358    117.3 1.122e+04 8.542e-10
 99.74649    118.0 1.111e+04 7.537e-10
 99.76664    118.7 1.104e+04 6.252e-10
 99.78678    119.3 1.102e+04 4.938e-10
 99.80640    119.5 1.101e+04 3.866e-10
 99.81647    120.2 1.118e+04 6.542e-10
 99.82708    120.3 1.113e+04 5.202e-10
 99.84722    120.3 1.105e+04 4.256e-10
 99.86737    120.4 1.087e+04 3.938e-10
 99.88751    120.6 1.077e+04 3.935e-10
 99.89936    121.1 1.074e+04 3.952e-10
 99.90305    121.4 1.089e+04 6.361e-10
 99.91135    121.3 1.079e+04 5.649e-10
 99.92780    121.8 1.077e+04 5.719e-10
 99.94795    122.3 1.075e+04 6.001e-10
 99.96810    122.8 1.078e+04 6.527e-10
 99.98225    123.2 1.089e+04 7.371e-10
 99.99232    123.5 1.121e+04 1.002e-09
100.00839    123.8 1.140e+04 1.107e-09
