# Columns:
#   distance along LOS (in CHIMPs)
#   peculiar velocity  (in km/s)
#   temperature (K)
#   HI number density
# pos=(185.296,32.0825,15.9698), angles=(2.7936,0.0453783)
  0.00797     64.7 1.363e+04 2.683e-09
  0.02629     65.6 1.351e+04 2.080e-09
  0.04706     66.6 1.346e+04 1.825e-09
  0.06789     66.9 1.333e+04 1.220e-09
  0.08612     67.0 1.315e+04 8.020e-10
  0.09651     67.6 1.321e+04 1.081e-09
  0.10944     67.6 1.298e+04 7.312e-10
  0.13022     67.8 1.265e+04 5.348e-10
  0.14595     67.8 1.235e+04 4.506e-10
  0.15634     68.4 1.251e+04 5.117e-10
  0.17177     68.8 1.220e+04 4.361e-10
  0.19255     69.1 1.195e+04 3.993e-10
  0.20588     69.9 1.192e+04 4.216e-10
  0.22675     71.1 1.212e+04 4.480e-10
  0.26546     72.1 1.183e+04 4.293e-10
  0.30486     73.5 1.170e+04 4.144e-10
  0.32564     74.4 1.171e+04 4.235e-10
  0.34857     75.8 1.154e+04 3.924e-10
  0.39012     77.2 1.139e+04 3.552e-10
  0.42453     78.5 1.124e+04 3.147e-10
  0.44530     79.6 1.108e+04 2.758e-10
  0.47323     81.0 1.095e+04 2.303e-10
  0.51478     82.5 1.083e+04 1.931e-10
  0.54419     83.9 1.074e+04 1.627e-10
  0.56497     85.1 1.063e+04 1.272e-10
  0.59789     86.5 1.056e+04 1.118e-10
  0.63944     87.9 1.051e+04 1.082e-10
  0.66385     89.5 1.051e+04 1.084e-10
  0.68463     90.7 1.041e+04 9.436e-11
  0.72255     92.4 1.042e+04 9.813e-11
  0.76274     94.0 1.046e+04 1.096e-10
  0.78352     95.3 1.037e+04 9.611e-11
  0.80565     96.9 1.043e+04 1.146e-10
  0.84721     98.6 1.049e+04 1.410e-10
  0.88241    100.3 1.058e+04 1.701e-10
  0.90318    101.5 1.048e+04 1.496e-10
  0.93031    103.1 1.058e+04 1.741e-10
  0.97187    104.6 1.068e+04 1.816e-10
  1.00207    105.9 1.070e+04 1.785e-10
  1.02285    107.2 1.066e+04 1.732e-10
  1.05497    108.5 1.066e+04 1.690e-10
  1.09652    109.7 1.060e+04 1.618e-10
  1.12173    111.1 1.052e+04 1.590e-10
  1.14251    112.4 1.056e+04 1.653e-10
  1.17963    113.8 1.053e+04 1.671e-10
  1.22062    115.2 1.047e+04 1.768e-10
  1.24140    116.4 1.048e+04 1.829e-10
  1.26274    117.9 1.047e+04 1.993e-10
  1.30429    119.3 1.048e+04 2.194e-10
  1.34028    120.6 1.051e+04 2.339e-10
  1.36106    121.8 1.049e+04 2.353e-10
  1.38740    123.0 1.049e+04 2.417e-10
  1.42895    124.2 1.046e+04 2.429e-10
  1.45995    125.4 1.044e+04 2.431e-10
  1.48072    126.4 1.048e+04 2.470e-10
  1.51206    127.5 1.048e+04 2.563e-10
  1.55361    128.6 1.052e+04 2.804e-10
  1.57961    129.7 1.060e+04 3.227e-10
  1.60039    130.5 1.066e+04 3.291e-10
  1.63672    131.5 1.078e+04 3.871e-10
  1.67467    132.5 1.089e+04 4.505e-10
  1.69545    132.1 1.103e+04 5.275e-10
  1.69927    132.9 1.106e+04 5.551e-10
  1.72005    133.7 1.109e+04 5.545e-10
  1.74862    134.4 1.109e+04 5.518e-10
  1.75891    134.6 1.110e+04 5.555e-10
  1.77157    135.2 1.113e+04 5.542e-10
  1.79806    135.5 1.116e+04 5.425e-10
  1.81884    136.5 1.122e+04 5.507e-10
  1.84438    137.1 1.125e+04 5.256e-10
  1.88604    137.4 1.117e+04 4.593e-10
  1.91783    137.4 1.109e+04 4.217e-10
  1.93850    138.3 1.123e+04 4.690e-10
  1.95856    138.1 1.119e+04 4.516e-10
  1.97746    137.9 1.119e+04 4.499e-10
  1.98785    138.1 1.126e+04 4.873e-10
  2.00011    137.8 1.126e+04 4.826e-10
  2.02089    137.4 1.128e+04 4.841e-10
  2.03729    136.9 1.131e+04 4.896e-10
  2.04768    137.0 1.148e+04 5.331e-10
  2.06244    136.4 1.152e+04 5.299e-10
  2.08322    135.7 1.154e+04 5.269e-10
  2.09713    135.0 1.155e+04 5.215e-10
  2.10751    134.7 1.172e+04 5.921e-10
  2.12477    134.1 1.170e+04 5.867e-10
  2.14555    133.9 1.163e+04 5.722e-10
  2.15696    133.7 1.152e+04 5.307e-10
  2.16735    133.7 1.171e+04 6.012e-10
  2.18710    133.6 1.162e+04 5.337e-10
  2.21836    133.8 1.156e+04 4.848e-10
  2.25604    134.8 1.143e+04 3.785e-10
  2.27682    135.0 1.147e+04 3.722e-10
  2.30157    136.4 1.132e+04 3.034e-10
  2.34312    138.2 1.132e+04 2.941e-10
  2.37570    140.2 1.135e+04 2.952e-10
  2.39648    140.7 1.135e+04 2.946e-10
  2.42623    142.8 1.143e+04 3.067e-10
  2.46778    144.6 1.151e+04 3.296e-10
  2.49537    145.9 1.145e+04 3.486e-10
  2.51614    147.1 1.156e+04 3.468e-10
  2.54040    147.9 1.149e+04 3.520e-10
  2.55500    148.8 1.144e+04 3.636e-10
  2.56539    149.1 1.146e+04 3.545e-10
  2.58186    150.4 1.142e+04 3.794e-10
  2.60263    151.8 1.153e+04 4.575e-10
  2.61484    152.7 1.184e+04 6.053e-10
  2.62522    153.3 1.157e+04 4.964e-10
  2.64419    154.0 1.188e+04 6.588e-10
  2.66428    154.2 1.226e+04 9.075e-10
  2.67467    155.2 1.192e+04 7.108e-10
  2.68574    155.5 1.229e+04 9.670e-10
  2.70652    155.5 1.274e+04 1.342e-09
  2.72411    155.5 1.321e+04 1.846e-09
  2.73450    156.6 1.289e+04 1.463e-09
  2.74807    156.5 1.337e+04 2.017e-09
  2.76885    156.3 1.376e+04 2.564e-09
  2.78394    156.0 1.395e+04 2.719e-09
  2.79433    157.3 1.400e+04 2.792e-09
  2.81040    156.8 1.407e+04 2.811e-09
  2.83118    156.3 1.401e+04 2.678e-09
  2.84378    155.8 1.369e+04 2.231e-09
  2.85416    157.1 1.408e+04 2.697e-09
  2.87273    156.8 1.360e+04 2.048e-09
  2.89322    156.6 1.294e+04 1.390e-09
  2.90361    158.0 1.343e+04 1.773e-09
  2.91428    157.9 1.277e+04 1.154e-09
  2.93506    158.0 1.222e+04 8.613e-10
  2.95315    157.3 1.130e+04 6.558e-10
  2.97402    159.9 1.205e+04 7.479e-10
  3.00797    160.3 1.106e+04 5.953e-10
  3.04952    161.2 1.091e+04 5.835e-10
  3.07291    163.0 1.089e+04 5.872e-10
  3.09369    165.0 1.103e+04 5.863e-10
  3.13263    167.6 1.100e+04 5.986e-10
  3.17180    170.3 1.105e+04 6.469e-10
  3.19248    172.1 1.127e+04 6.857e-10
  3.20515    173.3 1.125e+04 7.056e-10
  3.22593    174.6 1.128e+04 7.314e-10
  3.24182    175.8 1.131e+04 7.648e-10
  3.25221    176.7 1.150e+04 8.266e-10
  3.26748    178.0 1.156e+04 8.737e-10
  3.28826    179.3 1.163e+04 9.274e-10
  3.30165    180.5 1.173e+04 9.876e-10
  3.31204    181.4 1.197e+04 1.102e-09
  3.32981    182.5 1.205e+04 1.164e-09
  3.35059    183.6 1.214e+04 1.229e-09
  3.36149    184.6 1.223e+04 1.298e-09
  3.37187    185.4 1.246e+04 1.437e-09
  3.39214    186.3 1.256e+04 1.512e-09
  3.41093    187.2 1.267e+04 1.598e-09
  3.42132    187.9 1.290e+04 1.752e-09
  3.43370    188.6 1.302e+04 1.846e-09
  3.45447    189.2 1.317e+04 1.958e-09
  3.47076    189.7 1.338e+04 2.104e-09
  3.48115    189.9 1.368e+04 2.303e-09
  3.49603    190.2 1.401e+04 2.548e-09
  3.51680    190.4 1.436e+04 2.873e-09
  3.53059    190.6 1.468e+04 3.254e-09
  3.54098    190.1 1.522e+04 3.843e-09
  3.55836    190.2 1.539e+04 4.214e-09
  3.57913    190.5 1.520e+04 4.446e-09
  3.59042    190.9 1.509e+04 4.424e-09
  3.60081    189.8 1.541e+04 5.079e-09
  3.62069    190.5 1.515e+04 4.926e-09
  3.63987    191.4 1.500e+04 4.738e-09
  3.65026    190.0 1.543e+04 5.559e-09
  3.66224    190.8 1.544e+04 5.549e-09
  3.68302    191.7 1.547e+04 5.594e-09
  3.69970    192.8 1.554e+04 5.748e-09
  3.71009    191.6 1.598e+04 6.665e-09
  3.72457    193.0 1.596e+04 6.525e-09
  3.74535    194.5 1.590e+04 6.178e-09
  3.75953    195.9 1.583e+04 5.785e-09
  3.76992    195.0 1.608e+04 5.328e-09
  3.78690    196.3 1.610e+04 4.741e-09
  3.80768    197.6 1.611e+04 4.192e-09
  3.81936    198.6 1.609e+04 3.769e-09
  3.82975    196.3 1.765e+04 3.629e-09
  3.84923    196.2 1.863e+04 3.430e-09
  3.86881    195.4 1.988e+04 3.362e-09
  3.87915    194.7 1.974e+04 3.878e-09
  3.88549    194.6 1.974e+04 3.908e-09
  3.89588    194.2 1.981e+04 4.014e-09
  3.90382    193.1 2.031e+04 4.322e-09
  3.90901    190.1 2.324e+04 4.890e-09
  3.91665    186.6 2.598e+04 6.563e-09
  3.92704    182.8 2.734e+04 1.096e-08
  3.93374    179.8 2.709e+04 2.013e-08
  3.93893    176.9 2.754e+04 3.207e-08
  3.94782    175.9 2.637e+04 4.942e-08
  3.95821    175.1 2.605e+04 5.575e-08
  3.96365    174.2 2.597e+04 5.409e-08
  3.96885    172.3 2.602e+04 5.026e-08
  3.97898    171.3 2.591e+04 3.897e-08
  3.98837    170.2 2.555e+04 3.054e-08
  3.99357    167.8 2.504e+04 2.213e-08
  3.99976    166.9 2.423e+04 1.947e-08
  4.01015    166.2 2.359e+04 1.750e-08
  4.01829    165.9 2.313e+04 1.618e-08
  4.02348    164.7 2.291e+04 1.481e-08
  4.03617    165.6 2.226e+04 1.442e-08
  4.04830    165.0 2.141e+04 1.268e-08
  4.05869    162.6 2.061e+04 1.082e-08
  4.07777    162.1 1.954e+04 9.701e-09
  4.09775    161.6 1.890e+04 8.965e-09
  4.10814    160.6 1.864e+04 8.189e-09
  4.11932    160.9 1.859e+04 8.185e-09
  4.13281    161.0 1.868e+04 8.067e-09
  4.13795    161.0 1.862e+04 7.927e-09
  4.14520    161.0 1.864e+04 7.910e-09
  4.15559    161.2 1.875e+04 8.034e-09
  4.16268    161.2 1.914e+04 8.582e-09
  4.16787    161.1 1.898e+04 8.141e-09
  4.17636    160.9 1.950e+04 8.827e-09
  4.18675    160.7 2.039e+04 1.009e-08
  4.19259    160.3 2.159e+04 1.260e-08
  4.19779    160.3 2.112e+04 1.100e-08
  4.20753    159.7 2.250e+04 1.451e-08
  4.21474    159.1 2.366e+04 2.137e-08
  4.21933    158.6 2.357e+04 1.087e-08
  4.22251    158.7 2.271e+04 8.418e-09
  4.22830    158.0 2.459e+04 1.224e-08
  4.23869    157.3 2.568e+04 2.067e-08
  4.24723    156.8 2.575e+04 3.729e-08
  4.25242    156.8 2.613e+04 2.268e-08
  4.25947    155.7 2.624e+04 3.795e-08
  4.26986    154.1 2.613e+04 5.634e-08
  4.27714    151.8 2.586e+04 7.043e-08
  4.28234    151.9 2.601e+04 4.227e-08
  4.29063    149.9 2.551e+04 5.012e-08
  4.30102    147.8 2.513e+04 5.465e-08
  4.30706    145.8 2.472e+04 5.591e-08
  4.31225    146.7 2.442e+04 4.152e-08
  4.32180    145.1 2.418e+04 4.099e-08
  4.33178    143.8 2.380e+04 3.911e-08
  4.33698    144.8 2.360e+04 3.016e-08
  4.34257    143.7 2.320e+04 2.830e-08
  4.35296    142.7 2.285e+04 2.580e-08
  4.36170    141.9 2.254e+04 2.287e-08
  4.36689    142.8 2.222e+04 1.888e-08
  4.37374    142.3 2.190e+04 1.776e-08
  4.38647    140.8 2.131e+04 1.487e-08
  4.39691    142.8 2.057e+04 1.189e-08
  4.41020    142.2 1.954e+04 1.001e-08
  4.43097    142.1 1.865e+04 8.473e-09
  4.44635    142.4 1.816e+04 7.716e-09
  4.45674    143.6 1.744e+04 6.474e-09
  4.47253    144.0 1.740e+04 6.363e-09
  4.49330    144.5 1.738e+04 6.384e-09
  4.50618    145.1 1.734e+04 6.538e-09
  4.51657    146.2 1.674e+04 5.692e-09
  4.53486    146.7 1.683e+04 5.960e-09
  4.55563    147.2 1.692e+04 6.310e-09
  4.57640    148.6 1.653e+04 5.862e-09
  4.59719    149.1 1.654e+04 6.050e-09
  4.61546    149.5 1.653e+04 6.143e-09
  4.62585    150.5 1.608e+04 5.483e-09
  4.63874    151.0 1.608e+04 5.515e-09
  4.65952    151.6 1.606e+04 5.528e-09
  4.67529    152.1 1.602e+04 5.495e-09
  4.68568    153.1 1.570e+04 5.040e-09
  4.70107    153.7 1.569e+04 5.048e-09
  4.72185    154.6 1.573e+04 5.107e-09
  4.73512    155.4 1.584e+04 5.257e-09
  4.74551    156.2 1.564e+04 5.013e-09
  4.76340    157.0 1.581e+04 5.293e-09
  4.78418    157.7 1.607e+04 5.727e-09
  4.79495    158.5 1.637e+04 6.263e-09
  4.80534    159.4 1.613e+04 5.985e-09
  4.82573    160.0 1.650e+04 6.613e-09
  4.84440    160.6 1.708e+04 7.411e-09
  4.85478    161.4 1.652e+04 6.844e-09
  4.86728    161.8 1.703e+04 7.635e-09
  4.88806    162.1 1.762e+04 8.726e-09
  4.90423    162.3 1.821e+04 1.012e-08
  4.91462    163.4 1.738e+04 8.344e-09
  4.92961    163.6 1.792e+04 9.539e-09
  4.95039    163.8 1.846e+04 1.100e-08
  4.96406    164.0 1.906e+04 1.290e-08
  4.97445    165.4 1.852e+04 1.088e-08
  4.99194    165.4 1.937e+04 1.327e-08
  5.01272    165.4 2.035e+04 1.631e-08
  5.02389    165.4 2.161e+04 1.959e-08
  5.03428    167.8 2.103e+04 1.889e-08
  5.04856    167.0 2.225e+04 2.014e-08
  5.05371    167.6 2.210e+04 2.032e-08
  5.05937    167.2 2.320e+04 2.208e-08
  5.06976    166.3 2.444e+04 2.488e-08
  5.07843    164.9 2.579e+04 2.680e-08
  5.08363    166.4 2.552e+04 3.000e-08
  5.09053    165.1 2.704e+04 3.100e-08
  5.10092    163.4 2.829e+04 2.937e-08
  5.10835    161.3 2.957e+04 2.541e-08
  5.11354    163.9 2.926e+04 3.402e-08
  5.12170    161.4 3.104e+04 2.686e-08
  5.13209    158.5 3.313e+04 1.839e-08
  5.13826    155.3 3.558e+04 1.121e-08
  5.14346    158.4 3.486e+04 1.766e-08
  5.15286    155.1 3.868e+04 9.907e-09
  5.16299    151.6 4.467e+04 4.900e-09
  5.16818    155.6 4.152e+04 9.470e-09
  5.17364    152.1 4.924e+04 4.517e-09
  5.18403    148.8 6.011e+04 1.913e-09
  5.19290    144.9 6.666e+04 1.061e-09
  5.19810    149.2 6.428e+04 1.812e-09
  5.20480    144.7 7.269e+04 8.412e-10
  5.22043    140.2 5.558e+04 1.657e-09
  5.24126    129.1 2.454e+04 1.241e-09
  5.25283    123.3 1.239e+04 1.805e-09
  5.26322    122.3 1.262e+04 1.827e-09
  5.28281    121.5 1.232e+04 1.834e-09
  5.30227    121.1 1.226e+04 1.815e-09
  5.31266    120.5 1.262e+04 1.944e-09
  5.32437    120.4 1.248e+04 1.824e-09
  5.34514    120.4 1.207e+04 1.512e-09
  5.36211    120.4 1.148e+04 1.175e-09
  5.37249    120.8 1.174e+04 1.416e-09
  5.38670    120.8 1.123e+04 1.038e-09
  5.40747    120.7 1.062e+04 8.106e-10
  5.42194    120.7 1.000e+04 6.999e-10
  5.43233    121.1 1.047e+04 7.892e-10
  5.44903    121.2 9.969e+03 7.122e-10
  5.46943    121.5 9.810e+03 7.068e-10
  5.47982    122.3 9.454e+03 5.684e-10
  5.48177    122.7 9.462e+03 5.712e-10
  5.49216    123.0 9.779e+03 6.640e-10
  5.51136    123.6 9.784e+03 6.770e-10
  5.53121    124.3 9.847e+03 7.218e-10
  5.54160    124.9 1.022e+04 8.727e-10
  5.55291    125.6 1.029e+04 9.219e-10
  5.57369    126.4 1.040e+04 9.866e-10
  5.59105    127.1 1.054e+04 1.062e-09
  5.60143    127.6 1.075e+04 1.155e-09
  5.61524    128.2 1.082e+04 1.210e-09
  5.63602    128.9 1.087e+04 1.249e-09
  5.65088    129.5 1.086e+04 1.265e-09
  5.66127    130.1 1.088e+04 1.267e-09
  5.67757    130.8 1.083e+04 1.254e-09
  5.69835    131.5 1.077e+04 1.222e-09
  5.71071    132.4 1.073e+04 1.190e-09
  5.72110    132.8 1.065e+04 1.096e-09
  5.73990    133.6 1.059e+04 1.071e-09
  5.76015    134.4 1.056e+04 1.055e-09
  5.77054    134.8 1.045e+04 9.663e-10
  5.78145    135.6 1.045e+04 9.708e-10
  5.80223    136.3 1.047e+04 9.841e-10
  5.81998    137.1 1.052e+04 1.010e-09
  5.83037    137.6 1.047e+04 9.659e-10
  5.84378    138.4 1.057e+04 1.025e-09
  5.86456    139.1 1.068e+04 1.104e-09
  5.87982    139.9 1.082e+04 1.190e-09
  5.89021    140.4 1.090e+04 1.206e-09
  5.90611    141.3 1.105e+04 1.337e-09
  5.92689    142.1 1.122e+04 1.445e-09
  5.93965    142.9 1.139e+04 1.523e-09
  5.95004    143.6 1.148e+04 1.645e-09
  5.96844    144.4 1.161e+04 1.707e-09
  5.98909    145.2 1.179e+04 1.699e-09
  5.99948    146.0 1.184e+04 1.782e-09
  6.00999    146.8 1.191e+04 1.738e-09
  6.03077    147.4 1.196e+04 1.671e-09
  6.04892    148.0 1.198e+04 1.599e-09
  6.05931    148.6 1.200e+04 1.565e-09
  6.07232    148.9 1.198e+04 1.467e-09
  6.09310    149.3 1.194e+04 1.401e-09
  6.12436    150.3 1.168e+04 1.238e-09
  6.15839    151.9 1.165e+04 1.193e-09
  6.17917    153.6 1.153e+04 1.140e-09
  6.20757    155.1 1.142e+04 9.887e-10
  6.24912    156.8 1.123e+04 7.825e-10
  6.27806    158.5 1.095e+04 5.625e-10
  6.29884    160.1 1.118e+04 5.989e-10
  6.33223    161.8 1.090e+04 4.209e-10
  6.37378    163.7 1.053e+04 2.905e-10
  6.39772    165.7 1.023e+04 2.056e-10
  6.41850    167.4 1.042e+04 2.734e-10
  6.45689    169.5 1.020e+04 1.990e-10
  6.49661    171.7 1.009e+04 1.482e-10
  6.51739    173.5 1.022e+04 1.869e-10
  6.53999    175.6 1.013e+04 1.397e-10
  6.58155    177.9 1.008e+04 1.092e-10
  6.61627    180.3 1.007e+04 9.008e-11
  6.63705    181.9 1.009e+04 9.809e-11
  6.66465    184.2 1.010e+04 8.267e-11
  6.70621    186.6 1.014e+04 7.344e-11
  6.73461    189.1 1.021e+04 6.771e-11
  6.74357    189.0 1.031e+04 6.813e-11
  6.75671    190.5 1.033e+04 7.238e-11
  6.78931    192.8 1.040e+04 6.759e-11
  6.83087    195.3 1.046e+04 6.454e-11
  6.85560    197.7 1.058e+04 6.221e-11
  6.87638    199.2 1.057e+04 6.733e-11
  6.91397    201.7 1.061e+04 6.726e-11
  6.95449    204.1 1.068e+04 6.706e-11
  6.97526    205.6 1.073e+04 6.990e-11
  6.99708    208.0 1.083e+04 6.965e-11
  7.03863    210.4 1.092e+04 6.985e-11
  7.07415    212.8 1.099e+04 7.117e-11
  7.09493    214.2 1.099e+04 6.966e-11
  7.12174    216.6 1.104e+04 7.036e-11
  7.16329    218.9 1.106e+04 7.148e-11
  7.19382    221.2 1.105e+04 7.262e-11
  7.21459    222.5 1.107e+04 6.551e-11
  7.24640    224.8 1.106e+04 6.489e-11
  7.28795    227.0 1.104e+04 6.372e-11
  7.31348    229.2 1.101e+04 6.254e-11
  7.33426    230.5 1.098e+04 5.786e-11
  7.37106    232.7 1.097e+04 5.702e-11
  7.41237    235.0 1.097e+04 5.690e-11
  7.43314    236.4 1.094e+04 5.428e-11
  7.45416    238.6 1.095e+04 5.441e-11
  7.49572    240.7 1.098e+04 5.616e-11
  7.53203    242.8 1.101e+04 6.152e-11
  7.55281    244.4 1.100e+04 5.628e-11
  7.57882    246.4 1.104e+04 6.204e-11
  7.62038    248.4 1.107e+04 7.062e-11
  7.65169    250.5 1.108e+04 8.164e-11
  7.67247    251.8 1.125e+04 6.584e-11
  7.70348    253.9 1.127e+04 7.487e-11
  7.74504    256.0 1.127e+04 8.589e-11
  7.77136    258.3 1.124e+04 9.901e-11
  7.79213    259.6 1.119e+04 9.306e-11
  7.82814    261.9 1.117e+04 1.053e-10
  7.86970    264.3 1.115e+04 1.190e-10
  7.89102    266.8 1.114e+04 1.360e-10
  7.91180    268.1 1.116e+04 1.365e-10
  7.95280    270.6 1.117e+04 1.560e-10
  7.98991    273.2 1.119e+04 1.798e-10
  8.01068    274.4 1.114e+04 1.767e-10
  8.03591    277.0 1.114e+04 1.990e-10
  8.07746    279.8 1.117e+04 2.252e-10
  8.10957    282.6 1.125e+04 2.566e-10
  8.13035    283.9 1.107e+04 2.277e-10
  8.16057    286.8 1.115e+04 2.581e-10
  8.20212    289.9 1.134e+04 2.983e-10
  8.22924    292.9 1.157e+04 3.474e-10
  8.25001    294.3 1.132e+04 2.971e-10
  8.28523    297.2 1.157e+04 3.521e-10
  8.32678    299.3 1.167e+04 3.930e-10
  8.34880    301.1 1.168e+04 4.250e-10
  8.35909    302.2 1.158e+04 3.864e-10
  8.37853    303.7 1.162e+04 4.284e-10
  8.39815    305.5 1.172e+04 5.084e-10
  8.40854    305.7 1.163e+04 4.697e-10
  8.42008    307.5 1.173e+04 5.555e-10
  8.44086    309.0 1.191e+04 6.529e-10
  8.45798    310.4 1.216e+04 7.618e-10
  8.46837    310.7 1.199e+04 7.257e-10
  8.48241    311.8 1.235e+04 8.609e-10
  8.50319    312.3 1.276e+04 1.058e-09
  8.51781    312.2 1.323e+04 1.357e-09
  8.52820    312.3 1.319e+04 1.376e-09
  8.54474    312.1 1.381e+04 1.900e-09
  8.56552    311.8 1.457e+04 2.735e-09
  8.57764    311.3 1.542e+04 3.905e-09
  8.58803    311.5 1.563e+04 4.424e-09
  8.60707    310.6 1.651e+04 5.839e-09
  8.62709    309.0 1.706e+04 6.157e-09
  8.63748    309.2 1.727e+04 6.970e-09
  8.64862    306.9 1.728e+04 6.747e-09
  8.66940    304.3 1.712e+04 5.670e-09
  8.68692    301.4 1.646e+04 3.967e-09
  8.69731    301.9 1.658e+04 4.157e-09
  8.71095    298.7 1.530e+04 2.529e-09
  8.73173    294.9 1.369e+04 1.671e-09
  8.74675    291.3 1.245e+04 1.356e-09
  8.75714    291.9 1.245e+04 1.326e-09
  8.77328    289.2 1.220e+04 1.272e-09
  8.79406    287.4 1.215e+04 1.221e-09
  8.80658    285.9 1.213e+04 1.149e-09
  8.81697    286.5 1.217e+04 1.174e-09
  8.83561    285.2 1.212e+04 1.111e-09
  8.85603    283.8 1.202e+04 1.050e-09
  8.86641    284.6 1.205e+04 1.108e-09
  8.87716    283.5 1.192e+04 1.036e-09
  8.89794    282.5 1.174e+04 9.459e-10
  8.91586    281.6 1.180e+04 8.858e-10
  8.92625    282.8 1.154e+04 8.591e-10
  8.93949    282.2 1.145e+04 7.593e-10
  8.96027    281.5 1.152e+04 7.407e-10
  8.97569    280.8 1.163e+04 7.547e-10
  8.98608    282.3 1.112e+04 5.880e-10
  9.00182    281.7 1.116e+04 5.924e-10
  9.02260    281.3 1.128e+04 6.205e-10
  9.03552    281.0 1.145e+04 6.860e-10
  9.04591    282.4 1.081e+04 4.960e-10
  9.06415    282.1 1.097e+04 5.383e-10
  9.08493    282.0 1.115e+04 6.006e-10
  9.10571    283.2 1.085e+04 5.133e-10
  9.12648    283.1 1.104e+04 5.838e-10
  9.14480    282.9 1.120e+04 6.703e-10
  9.15519    284.0 1.084e+04 5.419e-10
  9.16804    283.5 1.114e+04 6.375e-10
  9.18881    282.7 1.172e+04 8.183e-10
  9.20463    281.7 1.257e+04 1.136e-09
  9.21502    282.3 1.249e+04 1.043e-09
  9.23037    281.1 1.333e+04 1.478e-09
  9.25114    279.8 1.414e+04 2.036e-09
  9.26439    278.4 1.470e+04 2.634e-09
  9.27478    281.5 1.391e+04 1.976e-09
  9.29270    280.0 1.439e+04 2.444e-09
  9.31347    278.2 1.470e+04 2.728e-09
  9.32429    276.3 1.474e+04 2.808e-09
  9.33468    276.1 1.433e+04 2.668e-09
  9.35503    273.4 1.438e+04 2.705e-09
  9.37374    269.8 1.455e+04 2.792e-09
  9.38412    269.5 1.462e+04 2.830e-09
  9.39658    264.9 1.510e+04 3.197e-09
  9.41736    260.2 1.555e+04 3.907e-09
  9.43357    256.1 1.572e+04 4.576e-09
  9.44396    256.2 1.552e+04 4.106e-09
  9.45891    252.7 1.543e+04 4.027e-09
  9.47969    249.6 1.512e+04 3.540e-09
  9.49340    246.7 1.453e+04 2.524e-09
  9.50379    246.2 1.402e+04 2.037e-09
  9.52124    242.9 1.298e+04 1.322e-09
  9.54202    239.2 1.204e+04 9.925e-10
  9.55323    235.5 1.204e+04 1.012e-09
  9.56362    236.2 1.171e+04 9.841e-10
  9.58357    233.7 1.227e+04 1.161e-09
  9.60268    231.5 1.342e+04 1.633e-09
  9.61306    233.1 1.293e+04 1.462e-09
  9.62512    231.5 1.382e+04 2.020e-09
  9.64590    230.3 1.443e+04 2.621e-09
  9.66251    229.1 1.473e+04 3.027e-09
  9.67290    231.0 1.420e+04 2.572e-09
  9.68745    230.0 1.441e+04 2.802e-09
  9.70823    229.0 1.448e+04 2.871e-09
  9.72234    227.9 1.452e+04 2.910e-09
  9.73273    230.0 1.426e+04 2.626e-09
  9.74978    228.8 1.441e+04 2.756e-09
  9.77056    227.7 1.439e+04 2.681e-09
  9.78217    226.6 1.431e+04 2.433e-09
  9.79256    228.8 1.444e+04 2.689e-09
  9.81211    227.6 1.434e+04 2.421e-09
  9.83161    226.4 1.406e+04 1.943e-09
  9.84200    228.6 1.436e+04 2.334e-09
  9.85366    227.3 1.397e+04 1.815e-09
  9.87444    226.0 1.339e+04 1.347e-09
  9.89145    224.7 1.266e+04 1.029e-09
  9.90183    227.1 1.308e+04 1.179e-09
  9.91599    225.9 1.232e+04 9.025e-10
  9.93677    225.0 1.168e+04 7.847e-10
  9.95128    224.5 1.148e+04 7.609e-10
  9.96167    226.4 1.156e+04 7.352e-10
  9.97832    226.0 1.144e+04 7.317e-10
  9.99910    225.9 1.144e+04 7.380e-10
 10.01111    225.9 1.146e+04 7.565e-10
 10.02150    227.4 1.139e+04 7.039e-10
 10.04065    227.3 1.143e+04 7.311e-10
 10.06055    227.4 1.142e+04 7.481e-10
 10.07094    228.8 1.134e+04 6.906e-10
 10.08221    228.9 1.133e+04 7.050e-10
 10.10298    229.0 1.128e+04 7.024e-10
 10.12039    229.2 1.119e+04 6.871e-10
 10.13077    230.5 1.115e+04 6.533e-10
 10.14454    230.7 1.104e+04 6.352e-10
 10.16531    230.8 1.095e+04 6.109e-10
 10.18022    231.0 1.092e+04 5.952e-10
 10.19061    232.2 1.084e+04 5.634e-10
 10.20687    232.3 1.083e+04 5.482e-10
 10.22764    232.2 1.089e+04 5.504e-10
 10.24005    232.0 1.110e+04 5.784e-10
 10.25044    233.4 1.081e+04 5.052e-10
 10.26920    233.1 1.108e+04 5.473e-10
 10.28949    232.8 1.143e+04 6.515e-10
 10.29988    234.3 1.106e+04 5.236e-10
 10.31075    233.8 1.149e+04 6.644e-10
 10.33153    233.3 1.196e+04 9.112e-10
 10.34933    232.8 1.242e+04 1.279e-09
 10.35971    233.8 1.237e+04 1.130e-09
 10.37308    233.1 1.306e+04 1.704e-09
 10.39386    232.7 1.356e+04 2.420e-09
 10.40916    232.4 1.412e+04 3.141e-09
 10.41955    233.0 1.464e+04 3.750e-09
 10.43541    231.7 1.573e+04 5.018e-09
 10.45619    229.6 1.669e+04 6.005e-09
 10.46894    227.9 1.777e+04 7.717e-09
 10.47409    227.7 1.844e+04 9.374e-09
 10.48206    226.1 1.897e+04 1.028e-08
 10.49245    224.3 1.950e+04 1.137e-08
 10.49881    222.0 2.013e+04 1.284e-08
 10.50400    221.8 2.043e+04 1.405e-08
 10.51322    218.8 2.133e+04 1.662e-08
 10.52353    214.9 2.260e+04 2.255e-08
 10.52872    215.1 2.258e+04 2.311e-08
 10.52928    210.9 2.362e+04 3.617e-08
 10.53447    210.3 2.357e+04 3.517e-08
 10.54439    206.2 2.431e+04 5.178e-08
 10.55344    202.1 2.491e+04 6.868e-08
 10.55864    202.5 2.473e+04 6.199e-08
 10.56517    198.2 2.506e+04 6.457e-08
 10.57555    194.0 2.498e+04 6.201e-08
 10.58336    190.5 2.452e+04 5.078e-08
 10.58855    190.5 2.468e+04 4.823e-08
 10.59633    187.5 2.365e+04 3.687e-08
 10.60672    185.1 2.229e+04 2.502e-08
 10.61328    183.4 2.130e+04 1.619e-08
 10.61847    183.5 2.147e+04 2.037e-08
 10.62750    182.0 2.057e+04 1.472e-08
 10.63805    179.8 1.911e+04 7.771e-09
 10.64848    180.8 2.005e+04 1.384e-08
 10.66395    179.3 1.879e+04 7.321e-09
 10.68473    177.6 1.681e+04 3.179e-09
 10.69793    175.9 1.382e+04 1.468e-09
 10.70832    178.6 1.666e+04 2.963e-09
 10.72628    177.0 1.363e+04 1.417e-09
 10.74706    176.3 1.173e+04 1.054e-09
 10.75776    176.5 1.153e+04 1.015e-09
 10.76815    177.6 1.185e+04 1.103e-09
 10.78861    177.6 1.169e+04 1.066e-09
 10.80720    177.8 1.174e+04 1.083e-09
 10.81759    178.7 1.192e+04 1.175e-09
 10.83016    178.6 1.198e+04 1.203e-09
 10.85094    178.4 1.210e+04 1.259e-09
 10.86704    178.2 1.222e+04 1.307e-09
 10.87742    179.0 1.239e+04 1.421e-09
 10.89249    178.5 1.243e+04 1.430e-09
 10.91327    177.9 1.241e+04 1.411e-09
 10.92687    177.3 1.229e+04 1.307e-09
 10.93726    177.9 1.249e+04 1.442e-09
 10.95482    177.3 1.221e+04 1.213e-09
 10.97560    176.7 1.186e+04 9.462e-10
 10.98670    175.9 1.153e+04 7.187e-10
 10.99709    176.5 1.164e+04 7.753e-10
 11.01715    175.5 1.131e+04 6.006e-10
 11.03614    174.5 1.102e+04 5.090e-10
 11.04653    175.1 1.112e+04 5.478e-10
 11.05871    174.3 1.092e+04 5.147e-10
 11.07948    173.9 1.090e+04 5.143e-10
 11.09597    173.6 1.092e+04 5.205e-10
 11.10636    174.3 1.105e+04 5.698e-10
 11.12104    174.0 1.113e+04 5.938e-10
 11.14181    173.5 1.134e+04 6.803e-10
 11.15581    173.0 1.160e+04 8.295e-10
 11.16619    173.5 1.180e+04 8.974e-10
 11.18337    172.9 1.211e+04 1.113e-09
 11.20414    172.5 1.244e+04 1.387e-09
 11.21564    172.2 1.265e+04 1.660e-09
 11.22603    172.5 1.279e+04 1.770e-09
 11.24570    172.3 1.291e+04 1.951e-09
 11.26508    172.1 1.302e+04 1.976e-09
 11.27547    172.3 1.300e+04 1.947e-09
 11.28725    171.8 1.300e+04 1.890e-09
 11.30803    171.1 1.300e+04 1.769e-09
 11.32491    170.1 1.294e+04 1.605e-09
 11.33530    170.0 1.269e+04 1.361e-09
 11.34958    168.4 1.259e+04 1.226e-09
 11.37036    166.8 1.252e+04 1.206e-09
 11.38475    165.1 1.257e+04 1.246e-09
 11.39513    164.8 1.230e+04 1.095e-09
 11.41191    163.5 1.255e+04 1.278e-09
 11.43269    162.6 1.301e+04 1.611e-09
 11.44458    161.9 1.356e+04 2.073e-09
 11.45497    162.0 1.343e+04 1.915e-09
 11.47424    161.5 1.394e+04 2.435e-09
 11.49402    161.0 1.426e+04 2.814e-09
 11.50441    161.1 1.425e+04 2.757e-09
 11.51579    160.6 1.432e+04 2.861e-09
 11.53657    160.2 1.424e+04 2.814e-09
 11.55385    160.1 1.389e+04 2.563e-09
 11.56424    160.0 1.398e+04 2.583e-09
 11.57812    160.0 1.353e+04 2.214e-09
 11.59890    160.1 1.295e+04 1.784e-09
 11.61368    160.1 1.234e+04 1.404e-09
 11.62407    160.3 1.239e+04 1.402e-09
 11.64045    160.3 1.189e+04 1.115e-09
 11.66123    160.1 1.152e+04 9.271e-10
 11.67352    159.9 1.122e+04 8.480e-10
 11.68390    160.1 1.125e+04 8.497e-10
 11.70278    160.0 1.123e+04 8.508e-10
 11.72296    160.1 1.120e+04 8.715e-10
 11.73335    160.1 1.128e+04 8.804e-10
 11.74434    159.8 1.141e+04 9.710e-10
 11.76511    159.4 1.163e+04 1.106e-09
 11.78279    158.8 1.190e+04 1.274e-09
 11.79127    158.2 1.230e+04 1.509e-09
 11.79436    157.8 1.245e+04 1.598e-09
 11.80666    157.3 1.283e+04 1.972e-09
 11.82744    156.8 1.296e+04 2.153e-09
 11.84262    156.2 1.290e+04 2.120e-09
 11.85301    155.8 1.316e+04 2.355e-09
 11.86899    155.5 1.269e+04 1.911e-09
 11.88977    155.3 1.197e+04 1.275e-09
 11.90246    154.5 1.111e+04 7.177e-10
 11.91284    153.1 1.084e+04 5.975e-10
 11.93132    150.5 9.809e+03 3.498e-10
 11.95190    148.3 9.325e+03 2.920e-10
 11.96229    147.0 9.387e+03 3.187e-10
 11.97288    146.8 9.287e+03 3.116e-10
 11.99365    146.9 9.290e+03 3.129e-10
 12.01173    147.2 9.268e+03 3.151e-10
 12.02212    146.4 9.681e+03 4.437e-10
 12.03521    146.8 9.734e+03 4.519e-10
 12.05598    147.2 9.776e+03 4.631e-10
 12.07156    147.6 9.838e+03 4.818e-10
 12.08195    146.2 1.064e+04 7.206e-10
 12.09754    146.3 1.074e+04 7.561e-10
 12.11831    146.3 1.097e+04 8.348e-10
 12.13139    146.2 1.133e+04 9.676e-10
 12.14178    143.8 1.226e+04 1.396e-09
 12.15987    143.7 1.270e+04 1.668e-09
 12.18064    143.7 1.315e+04 2.022e-09
 12.19123    143.9 1.354e+04 2.393e-09
 12.20162    141.8 1.420e+04 3.026e-09
 12.22220    142.1 1.431e+04 3.120e-09
 12.24067    142.4 1.426e+04 3.049e-09
 12.25106    140.3 1.466e+04 3.340e-09
 12.26375    140.8 1.433e+04 2.965e-09
 12.28453    141.4 1.387e+04 2.512e-09
 12.30050    141.9 1.332e+04 2.063e-09
 12.31089    140.0 1.379e+04 2.397e-09
 12.32608    140.6 1.329e+04 1.996e-09
 12.34686    141.1 1.279e+04 1.657e-09
 12.36033    141.6 1.234e+04 1.390e-09
 12.37072    140.2 1.323e+04 1.933e-09
 12.38841    140.9 1.289e+04 1.687e-09
 12.40919    141.6 1.259e+04 1.495e-09
 12.42017    142.4 1.233e+04 1.357e-09
 12.43055    141.7 1.328e+04 1.962e-09
 12.45074    142.7 1.299e+04 1.780e-09
 12.46961    143.7 1.275e+04 1.648e-09
 12.48000    143.1 1.345e+04 2.135e-09
 12.49229    144.1 1.324e+04 1.975e-09
 12.51307    145.1 1.313e+04 1.870e-09
 12.52944    146.3 1.308e+04 1.790e-09
 12.53983    145.6 1.346e+04 2.002e-09
 12.55462    146.9 1.334e+04 1.894e-09
 12.57540    148.1 1.324e+04 1.806e-09
 12.58927    149.4 1.315e+04 1.727e-09
 12.59966    148.3 1.328e+04 1.833e-09
 12.61695    149.4 1.321e+04 1.781e-09
 12.63773    150.6 1.317e+04 1.755e-09
 12.64911    151.7 1.316e+04 1.747e-09
 12.65949    150.5 1.328e+04 1.979e-09
 12.67928    151.8 1.324e+04 1.977e-09
 12.69855    153.1 1.321e+04 1.972e-09
 12.70894    152.2 1.351e+04 2.350e-09
 12.72084    153.6 1.354e+04 2.363e-09
 12.74161    155.0 1.368e+04 2.410e-09
 12.75838    156.5 1.407e+04 2.571e-09
 12.76877    154.0 1.547e+04 3.705e-09
 12.78316    154.9 1.604e+04 4.317e-09
 12.80394    155.3 1.702e+04 5.176e-09
 12.81821    155.9 1.872e+04 6.820e-09
 12.82860    154.2 1.884e+04 9.345e-09
 12.84549    155.6 2.004e+04 1.128e-08
 12.86627    157.3 2.144e+04 1.394e-08
 12.87800    157.9 2.138e+04 1.449e-08
 12.88838    157.2 2.099e+04 1.310e-08
 12.90258    158.3 2.152e+04 1.454e-08
 12.90786    159.0 2.204e+04 1.582e-08
 12.91306    158.4 2.119e+04 1.240e-08
 12.92331    159.1 2.145e+04 1.289e-08
 12.93258    159.6 2.202e+04 1.375e-08
 12.93783    158.4 2.171e+04 9.820e-09
 12.94413    159.3 2.184e+04 1.069e-08
 12.95447    160.0 2.251e+04 1.253e-08
 12.96250    160.6 2.386e+04 1.433e-08
 12.96769    160.0 2.195e+04 9.780e-09
 12.97525    160.8 2.286e+04 1.094e-08
 12.98564    160.8 2.551e+04 1.380e-08
 12.99242    160.3 2.994e+04 2.609e-08
 12.99761    155.8 3.210e+04 2.514e-08
 13.00642    152.4 3.173e+04 1.002e-07
 13.01680    148.4 2.695e+04 4.241e-07
 13.02231    143.8 2.207e+04 1.865e-06
 13.02488    139.0 2.146e+04 2.938e-06
 13.02974    138.0 1.849e+04 1.307e-05
 13.03464    133.8 1.875e+04 1.619e-05
 13.03724    131.0 2.211e+04 7.132e-06
 13.04013    124.8 2.305e+04 5.332e-06
 13.04532    119.7 2.258e+04 5.329e-06
 13.04960    116.5 1.962e+04 6.043e-06
 13.05220    115.0 2.066e+04 3.069e-06
 13.05403    109.8 2.873e+04 5.375e-07
 13.05925    107.7 2.692e+04 6.683e-07
 13.06875     99.4 3.353e+04 1.343e-07
 13.07697     87.4 3.689e+04 1.696e-08
 13.08216     85.2 3.336e+04 1.653e-08
 13.08952     76.6 2.190e+04 6.682e-09
 13.09991     74.5 1.760e+04 5.593e-09
 13.10689     74.9 1.691e+04 4.517e-09
 13.11208     75.5 1.679e+04 4.754e-09
 13.12069     75.7 1.681e+04 4.383e-09
 13.13632     75.9 1.653e+04 3.878e-09
 13.15643     76.0 1.589e+04 3.175e-09
 13.16682     77.6 1.561e+04 3.366e-09
 13.17792     77.8 1.478e+04 2.861e-09
 13.19870     78.4 1.426e+04 2.392e-09
 13.21626     79.2 1.387e+04 2.024e-09
 13.22665     81.2 1.416e+04 2.268e-09
 13.24025     82.4 1.400e+04 2.110e-09
 13.26103     83.2 1.408e+04 2.135e-09
 13.27609     83.6 1.441e+04 2.311e-09
 13.28648     85.6 1.437e+04 2.265e-09
 13.30258     84.7 1.556e+04 3.039e-09
 13.32336     82.8 1.852e+04 7.058e-09
 13.33592     81.0 2.089e+04 1.540e-08
 13.34631     83.2 2.040e+04 1.283e-08
 13.35967     81.4 2.222e+04 3.179e-08
 13.36574     80.9 2.304e+04 6.288e-08
 13.37094     81.7 2.284e+04 5.995e-08
 13.38039     81.1 2.337e+04 8.891e-08
 13.39046     80.1 2.331e+04 8.552e-08
 13.39566     80.7 2.321e+04 8.240e-08
 13.40117     80.5 2.282e+04 6.502e-08
 13.41156     80.8 2.216e+04 4.189e-08
 13.42038     80.4 2.136e+04 1.932e-08
 13.42557     81.2 2.137e+04 2.234e-08
 13.43234     80.0 2.067e+04 1.535e-08
 13.44515     79.0 1.908e+04 6.975e-09
 13.45554     79.8 1.899e+04 7.924e-09
 13.46874     78.9 1.753e+04 3.830e-09
 13.48957     75.2 1.440e+04 1.320e-09
 13.50503     72.6 1.149e+04 6.884e-10
 13.51542     76.1 1.286e+04 9.667e-10
 13.53112     75.0 1.115e+04 6.416e-10
 13.55190     76.0 1.093e+04 6.082e-10
 13.56486     77.1 1.090e+04 6.077e-10
 13.57525     78.5 1.097e+04 6.302e-10
 13.59345     79.7 1.097e+04 6.341e-10
 13.61423     81.0 1.098e+04 6.498e-10
 13.63501     83.5 1.113e+04 7.066e-10
 13.65578     84.5 1.131e+04 7.690e-10
 13.67414     84.9 1.173e+04 9.109e-10
 13.68453     86.1 1.180e+04 9.306e-10
 13.69734     85.8 1.256e+04 1.245e-09
 13.71811     85.1 1.359e+04 1.894e-09
 13.73397     84.7 1.465e+04 3.039e-09
 13.74436     86.0 1.450e+04 2.888e-09
 13.75966     86.3 1.515e+04 3.979e-09
 13.78044     86.7 1.521e+04 4.216e-09
 13.79380     87.2 1.504e+04 3.947e-09
 13.80419     88.2 1.451e+04 3.182e-09
 13.82199     88.4 1.408e+04 2.456e-09
 13.84277     87.7 1.384e+04 1.841e-09
 13.85363     85.8 1.420e+04 1.865e-09
 13.86402     86.7 1.334e+04 1.359e-09
 13.88432     84.3 1.373e+04 1.477e-09
 13.90308     82.0 1.464e+04 2.220e-09
 13.91346     83.6 1.322e+04 1.372e-09
 13.92588     82.5 1.369e+04 1.962e-09
 13.94665     82.5 1.448e+04 2.937e-09
 13.96291     82.5 1.533e+04 3.877e-09
 13.97330     82.5 1.386e+04 2.416e-09
 13.98821     82.0 1.455e+04 3.005e-09
 14.00898     81.3 1.487e+04 3.372e-09
 14.02274     80.5 1.477e+04 3.476e-09
 14.03313     80.8 1.407e+04 2.830e-09
 14.05054     80.5 1.396e+04 2.822e-09
 14.07131     80.7 1.372e+04 2.685e-09
 14.08257     81.1 1.327e+04 2.331e-09
 14.09296     81.1 1.311e+04 2.211e-09
 14.11287     81.6 1.271e+04 1.867e-09
 14.13202     82.1 1.225e+04 1.471e-09
 14.14240     81.7 1.233e+04 1.577e-09
 14.15442     82.1 1.195e+04 1.282e-09
 14.17520     82.5 1.158e+04 1.046e-09
 14.19185     82.8 1.122e+04 8.694e-10
 14.20224     82.3 1.183e+04 1.163e-09
 14.21675     82.8 1.154e+04 1.027e-09
 14.23753     83.7 1.133e+04 9.522e-10
 14.25168     84.7 1.133e+04 9.457e-10
 14.26207     84.1 1.202e+04 1.384e-09
 14.27908     85.2 1.204e+04 1.405e-09
 14.29986     86.3 1.210e+04 1.457e-09
 14.31151     87.7 1.227e+04 1.560e-09
 14.31521     87.3 1.266e+04 1.970e-09
 14.32434     87.3 1.282e+04 2.066e-09
 14.34141     88.6 1.305e+04 2.249e-09
 14.36095     89.9 1.324e+04 2.438e-09
 14.37134     89.6 1.336e+04 2.533e-09
 14.38296     91.1 1.406e+04 2.986e-09
 14.40374     92.0 1.492e+04 3.681e-09
 14.41927     92.9 1.490e+04 3.735e-09
 14.42588     93.7 1.496e+04 3.891e-09
 14.43108     93.6 1.491e+04 3.722e-09
 14.44000     94.8 1.517e+04 3.943e-09
 14.45039     90.2 2.279e+04 5.238e-09
 14.45580     66.1 3.676e+04 5.176e-08
 14.46099     66.3 3.977e+04 3.324e-08
 14.46814     59.0 3.060e+04 2.333e-07
 14.47071     58.7 3.341e+04 1.589e-07
 14.47371     56.0 2.361e+04 8.238e-07
 14.47891     54.5 2.027e+04 1.820e-06
 14.48307     54.1 1.991e+04 2.163e-06
 14.48567     52.5 1.987e+04 2.956e-06
 14.48930     48.5 1.903e+04 6.054e-06
 14.49449     44.8 1.806e+04 1.148e-05
 14.49803     41.5 1.833e+04 8.175e-06
 14.50062     40.9 1.763e+04 1.328e-05
 14.50488     42.2 1.867e+04 5.024e-06
 14.51041     41.6 2.192e+04 7.137e-07
 14.51563     44.1 2.051e+04 1.010e-06
 14.52311     45.2 2.969e+04 8.331e-08
 14.53350     36.7 5.966e+04 4.129e-09
 14.54040      2.3 3.138e+04 6.429e-10
 14.55084      3.2 3.459e+04 5.699e-10
 14.56995     -9.2 1.068e+04 5.390e-10
 14.58989     -7.2 1.008e+04 5.096e-10
 14.60028     -7.4 9.925e+03 4.888e-10
 14.61151     -6.2 9.894e+03 4.595e-10
 14.63228     -4.8 9.833e+03 4.474e-10
 14.64973     -3.6 9.822e+03 4.452e-10
 14.66011     -3.3 9.762e+03 4.303e-10
 14.67384     -2.2 9.804e+03 4.360e-10
 14.69461     -1.4 9.872e+03 4.581e-10
 14.70956     -0.4 9.916e+03 4.849e-10
 14.71995     -0.0 9.898e+03 4.668e-10
 14.73616      0.8 9.942e+03 4.938e-10
 14.75694      1.7 9.961e+03 5.113e-10
 14.76939      2.7 1.001e+04 5.161e-10
 14.77978      3.3 1.009e+04 4.985e-10
 14.79849      4.4 1.023e+04 4.908e-10
 14.81883      4.8 1.027e+04 4.743e-10
 14.82922      4.7 1.025e+04 4.697e-10
 14.85053      6.1 9.977e+03 4.138e-10
 14.87886      7.7 9.641e+03 3.541e-10
 14.89964      8.6 9.830e+03 3.778e-10
 14.93374      9.5 9.857e+03 3.776e-10
 14.97529      9.7 9.962e+03 4.172e-10
 14.99843      9.8 1.028e+04 5.370e-10
 15.00872      9.8 1.027e+04 5.900e-10
 15.02704      9.7 1.021e+04 7.198e-10
 15.04777      9.5 1.043e+04 8.151e-10
 15.06855      8.4 1.129e+04 1.246e-09
 15.08937      7.2 1.202e+04 1.367e-09
 15.10760      6.1 1.255e+04 1.490e-09
 15.11799      6.0 1.273e+04 1.655e-09
 15.13092      5.4 1.281e+04 1.676e-09
 15.15170      5.1 1.292e+04 1.786e-09
 15.16744      5.2 1.310e+04 1.958e-09
 15.17782      5.5 1.280e+04 1.682e-09
 15.19325      5.7 1.290e+04 1.732e-09
 15.21403      5.8 1.299e+04 1.751e-09
 15.22727      5.9 1.307e+04 1.789e-09
 15.23775      6.2 1.258e+04 1.321e-09
 15.25568      5.4 1.288e+04 1.594e-09
 15.27636      4.9 1.318e+04 1.829e-09
 15.28710      4.4 1.358e+04 2.199e-09
 15.29749      3.9 1.361e+04 2.302e-09
 15.31791      3.3 1.426e+04 3.041e-09
 15.33654      2.8 1.522e+04 4.118e-09
 15.34693      3.2 1.531e+04 4.632e-09
 15.35946      2.7 1.625e+04 6.266e-09
 15.38024      1.5 1.696e+04 7.837e-09
 15.39638      0.1 1.736e+04 9.010e-09
 15.40676      1.1 1.726e+04 8.110e-09
 15.42179     -1.5 1.744e+04 8.493e-09
 15.44257     -4.1 1.737e+04 8.344e-09
 15.45621     -6.5 1.722e+04 7.900e-09
 15.46660     -6.8 1.691e+04 7.341e-09
 15.48412     -8.8 1.648e+04 6.527e-09
 15.50490    -10.7 1.592e+04 5.069e-09
 15.51604    -12.4 1.493e+04 3.063e-09
 15.52643    -11.6 1.504e+04 3.016e-09
 15.54645    -14.7 1.333e+04 1.343e-09
 15.56548    -18.4 1.098e+04 6.015e-10
 15.57587    -18.7 1.081e+04 5.134e-10
 15.59849    -20.6 9.699e+03 3.334e-10
 15.64014    -20.0 9.275e+03 2.570e-10
 15.67495    -18.7 8.908e+03 1.946e-10
 15.69573    -17.9 8.973e+03 2.000e-10
 15.72325    -16.9 8.746e+03 1.665e-10
 15.76480    -15.7 8.654e+03 1.538e-10
 15.79462    -14.3 8.633e+03 1.512e-10
 15.81539    -13.6 8.633e+03 1.491e-10
 15.84791    -12.2 8.628e+03 1.502e-10
 15.88946    -10.9 8.696e+03 1.648e-10
 15.91428     -9.7 8.830e+03 1.915e-10
 15.93506     -8.9 8.737e+03 1.671e-10
 15.97257     -7.5 8.852e+03 1.858e-10
 16.01317     -6.1 8.925e+03 1.943e-10
 16.03394     -5.2 8.730e+03 1.542e-10
 16.05567     -3.9 8.679e+03 1.417e-10
 16.09723     -2.6 8.629e+03 1.211e-10
 16.13283     -1.5 8.551e+03 1.113e-10
 16.15361     -0.4 8.535e+03 1.107e-10
 16.18033      1.0 8.509e+03 1.078e-10
 16.22189      2.3 8.552e+03 1.202e-10
 16.25250      3.7 8.763e+03 1.594e-10
 16.27327      5.0 8.762e+03 1.606e-10
 16.30499      6.7 9.143e+03 2.244e-10
 16.34655      8.4 9.673e+03 3.272e-10
 16.37216     10.0 1.029e+04 4.846e-10
 16.38245     10.6 1.022e+04 4.504e-10
 16.39829     10.6 1.024e+04 4.671e-10
 16.41907     11.2 1.059e+04 6.184e-10
 16.43180     11.8 1.084e+04 7.189e-10
 16.44218     12.2 1.092e+04 7.322e-10
 16.46062     12.8 1.114e+04 8.425e-10
 16.48124     13.4 1.127e+04 9.075e-10
 16.49163     13.6 1.146e+04 9.824e-10
 16.50218     14.2 1.157e+04 1.038e-09
 16.52295     14.8 1.157e+04 1.038e-09
 16.54107     15.3 1.149e+04 9.679e-10
 16.55146     15.0 1.215e+04 1.270e-09
 16.56451     15.6 1.215e+04 1.190e-09
 16.58528     16.4 1.198e+04 1.042e-09
 16.60090     17.1 1.183e+04 9.599e-10
 16.61129     16.8 1.285e+04 1.614e-09
 16.62684     17.2 1.301e+04 1.638e-09
 16.64761     14.3 1.588e+04 2.037e-09
 16.66073      8.9 1.920e+04 5.052e-09
 16.67112      8.6 1.982e+04 8.458e-09
 16.68392      7.1 2.049e+04 1.567e-08
 16.69055      6.5 2.096e+04 2.559e-08
 16.69575      6.3 2.125e+04 4.333e-08
 16.70465      7.2 2.188e+04 9.429e-08
 16.71504      8.4 2.250e+04 1.438e-07
 16.72047      8.1 2.253e+04 1.525e-07
 16.72566      7.5 2.246e+04 1.540e-07
 16.73581      8.5 2.163e+04 1.047e-07
 16.74519     10.8 2.124e+04 5.197e-08
 16.75039     11.1 2.105e+04 4.843e-08
 16.75659     11.2 2.103e+04 2.403e-08
 16.76996      9.3 2.011e+04 1.338e-08
 16.78040      9.1 1.948e+04 8.589e-09
 16.79305      6.9 1.752e+04 3.933e-09
 16.81382      4.9 1.533e+04 2.109e-09
 16.82984      3.6 1.372e+04 1.521e-09
 16.83916      2.0 1.223e+04 9.243e-10
 16.84392      3.2 1.309e+04 1.268e-09
 16.85538      3.5 1.248e+04 1.230e-09
 16.87615      4.6 1.241e+04 1.312e-09
 16.88967      5.7 1.249e+04 1.400e-09
 16.90006      5.4 1.213e+04 1.209e-09
 16.91771      6.6 1.226e+04 1.310e-09
 16.93848      7.6 1.235e+04 1.372e-09
 16.94951      8.6 1.238e+04 1.389e-09
 16.95989      8.6 1.209e+04 1.228e-09
 16.98004      9.3 1.209e+04 1.225e-09
 16.99895     10.1 1.198e+04 1.180e-09
 17.00934      9.9 1.172e+04 1.060e-09
 17.02159     10.6 1.168e+04 1.051e-09
 17.04237     11.1 1.181e+04 1.068e-09
 17.05878     10.9 1.203e+04 1.097e-09
 17.06917      9.4 1.265e+04 1.285e-09
 17.08392      7.1 1.370e+04 1.830e-09
 17.10470      5.0 1.447e+04 2.907e-09
 17.11861      4.3 1.505e+04 4.544e-09
 17.12900      4.3 1.564e+04 5.972e-09
 17.14625      5.0 1.619e+04 7.305e-09
 17.16703      5.2 1.632e+04 7.458e-09
 17.17845      5.3 1.600e+04 6.094e-09
 17.18883      4.8 1.593e+04 5.435e-09
 17.20858      3.3 1.506e+04 3.338e-09
 17.22789      0.8 1.375e+04 1.991e-09
 17.23828     -0.5 1.299e+04 1.576e-09
 17.25013     -1.7 1.205e+04 1.162e-09
 17.27091     -2.0 1.162e+04 9.819e-10
 17.28772     -1.6 1.136e+04 8.797e-10
 17.29811     -1.7 1.108e+04 7.794e-10
 17.31246     -0.9 1.088e+04 6.966e-10
 17.33324     -0.2 1.067e+04 6.074e-10
 17.34755      0.4 1.048e+04 5.348e-10
 17.35794      0.2 1.035e+04 4.538e-10
 17.37479      0.9 1.042e+04 4.474e-10
 17.39557      0.9 1.047e+04 4.461e-10
 17.40738      1.5 1.102e+04 4.743e-10
 17.42826      2.4 1.003e+04 3.207e-10
 17.46848      2.4 1.067e+04 3.823e-10
 17.49955      2.5 1.121e+04 4.655e-10
 17.51666      1.6 1.181e+04 7.221e-10
 17.52715      3.2 1.097e+04 4.877e-10
 17.54110      2.2 1.200e+04 9.875e-10
 17.56178      2.2 1.269e+04 1.662e-09
 17.57649      2.8 1.359e+04 2.687e-09
 17.58688      3.1 1.306e+04 2.118e-09
 17.60334      3.9 1.368e+04 2.640e-09
 17.62411      4.3 1.393e+04 2.774e-09
 17.63632      4.1 1.401e+04 2.415e-09
 17.64671      4.1 1.359e+04 2.258e-09
 17.66566      3.1 1.312e+04 1.662e-09
 17.68577      1.6 1.216e+04 1.140e-09
 17.69616      2.5 1.224e+04 1.249e-09
 17.70722      1.6 1.163e+04 9.526e-10
 17.72799      1.2 1.118e+04 7.573e-10
 17.74560      1.1 1.090e+04 6.470e-10
 17.75599      2.1 1.099e+04 6.758e-10
 17.76955      1.9 1.082e+04 6.077e-10
 17.79032      1.8 1.078e+04 5.866e-10
 17.80543      1.7 1.078e+04 5.845e-10
 17.81582      2.3 1.078e+04 5.823e-10
 17.83188      2.2 1.083e+04 6.102e-10
 17.85265      2.3 1.089e+04 6.749e-10
 17.86526      2.5 1.096e+04 7.481e-10
 17.87565      3.2 1.091e+04 7.185e-10
 17.89421      3.6 1.101e+04 7.814e-10
 17.91471      3.8 1.113e+04 8.381e-10
 17.92509      4.6 1.107e+04 7.989e-10
 17.93576      4.8 1.119e+04 8.504e-10
 17.95654      4.8 1.136e+04 9.152e-10
 17.97454      4.7 1.157e+04 9.890e-10
 17.98493      5.5 1.137e+04 8.977e-10
 17.99809      5.4 1.154e+04 9.627e-10
 18.01887      5.3 1.172e+04 1.028e-09
 18.03437      5.3 1.188e+04 1.088e-09
 18.04476      6.1 1.160e+04 9.473e-10
 18.06042      6.1 1.181e+04 1.029e-09
 18.08120      6.1 1.199e+04 1.110e-09
 18.09420      6.1 1.213e+04 1.168e-09
 18.10114      6.9 1.193e+04 1.071e-09
 18.10891      7.4 1.170e+04 9.595e-10
 18.12275      7.5 1.196e+04 1.075e-09
 18.14353      7.7 1.217e+04 1.185e-09
 18.15403      7.9 1.237e+04 1.306e-09
 18.16442      8.7 1.234e+04 1.263e-09
 18.18508      8.7 1.271e+04 1.492e-09
 18.20348      8.8 1.301e+04 1.831e-09
 18.21387      9.0 1.343e+04 1.957e-09
 18.22663      8.6 1.412e+04 2.861e-09
 18.24741      8.2 1.501e+04 3.974e-09
 18.26331      7.6 1.622e+04 5.218e-09
 18.27370      7.8 1.732e+04 8.707e-09
 18.28896      7.6 1.850e+04 1.101e-08
 18.30450      7.0 1.914e+04 1.254e-08
 18.31484      5.8 1.951e+04 1.286e-08
 18.32304      3.9 1.991e+04 1.296e-08
 18.32824      3.4 2.060e+04 1.787e-08
 18.33561      1.2 2.100e+04 1.766e-08
 18.34600     -1.6 2.146e+04 1.742e-08
 18.35296     -4.8 2.205e+04 1.842e-08
 18.35815     -7.4 2.360e+04 2.983e-08
 18.36678    -11.6 2.390e+04 3.509e-08
 18.37717    -15.5 2.360e+04 3.957e-08
 18.38288    -18.9 2.315e+04 4.276e-08
 18.38807    -21.4 2.280e+04 5.998e-08
 18.39794    -23.4 2.222e+04 5.535e-08
 18.40760    -25.2 2.263e+04 4.526e-08
 18.41279    -26.8 2.280e+04 4.119e-08
 18.41872    -29.5 2.338e+04 2.521e-08
 18.42911    -33.8 2.347e+04 1.498e-08
 18.43751    -38.1 2.420e+04 9.093e-09
 18.44271    -40.3 2.222e+04 7.945e-09
 18.45513    -46.2 2.038e+04 4.904e-09
 18.47595    -52.5 1.749e+04 2.601e-09
 18.49225    -55.7 1.497e+04 2.107e-09
 18.50264    -55.1 1.442e+04 2.107e-09
 18.51751    -54.6 1.417e+04 2.020e-09
 18.53828    -53.7 1.412e+04 2.037e-09
 18.55208    -52.8 1.411e+04 2.065e-09
 18.56247    -51.6 1.513e+04 2.588e-09
 18.57984    -50.7 1.519e+04 2.629e-09
 18.60061    -50.0 1.510e+04 2.542e-09
 18.61191    -48.9 1.514e+04 2.365e-09
 18.61706    -47.9 1.697e+04 3.816e-09
 18.62648    -47.5 1.680e+04 3.548e-09
 18.64212    -45.9 1.701e+04 3.513e-09
 18.66136    -44.5 1.637e+04 2.575e-09
 18.67170    -41.6 1.772e+04 3.804e-09
 18.67843    -41.3 1.686e+04 2.816e-09
 18.68881    -41.3 1.572e+04 2.190e-09
 18.69637    -41.7 1.523e+04 1.642e-09
 18.70156    -39.7 1.794e+04 2.534e-09
 18.70959    -46.1 2.585e+04 1.808e-09
 18.71998    -62.4 4.858e+04 2.853e-09
 18.72628    -75.7 3.874e+04 2.415e-08
 18.73148    -73.9 4.139e+04 4.492e-08
 18.73608    -81.8 2.989e+04 1.437e-07
 18.73866    -83.2 2.683e+04 2.308e-07
 18.74119    -84.5 2.596e+04 2.635e-07
 18.74379    -83.6 2.570e+04 3.123e-07
 18.75098    -87.5 2.483e+04 2.979e-07
 18.75618    -86.7 2.532e+04 3.296e-07
 18.76151    -88.9 2.940e+04 2.013e-07
 18.77192    -98.2 4.657e+04 2.018e-08
 18.78092   -110.8 8.159e+04 1.080e-09
 18.78612   -103.5 6.412e+04 4.502e-09
 18.79270   -118.0 7.599e+04 1.081e-09
 18.80833   -126.0 7.471e+04 1.022e-09
 18.82915   -150.7 6.457e+04 3.119e-10
 18.84085   -169.7 1.439e+04 5.592e-10
 18.85124   -172.6 1.170e+04 6.636e-10
 18.87071   -171.9 1.108e+04 6.469e-10
 18.89029   -170.9 1.103e+04 6.212e-10
 18.90068   -171.5 1.114e+04 6.348e-10
 18.91226   -171.3 1.107e+04 5.948e-10
 18.93304   -171.4 1.103e+04 5.641e-10
 18.95013   -171.7 1.103e+04 5.518e-10
 18.96052   -172.5 1.116e+04 5.923e-10
 18.97459   -173.8 1.140e+04 6.055e-10
 18.99537   -176.0 1.187e+04 6.916e-10
 19.00996   -178.6 1.239e+04 8.581e-10
 19.02035   -179.6 1.282e+04 1.138e-09
 19.03692   -181.6 1.316e+04 1.403e-09
 19.05770   -183.4 1.339e+04 1.657e-09
 19.06979   -185.0 1.350e+04 1.827e-09
 19.08018   -185.3 1.346e+04 1.800e-09
 19.09925   -186.7 1.332e+04 1.735e-09
 19.11923   -188.1 1.312e+04 1.559e-09
 19.12962   -188.8 1.280e+04 1.246e-09
 19.14080   -190.3 1.248e+04 1.061e-09
 19.16158   -191.5 1.219e+04 9.243e-10
 19.17907   -192.4 1.194e+04 8.253e-10
 19.18945   -193.0 1.153e+04 6.604e-10
 19.20313   -193.4 1.141e+04 6.285e-10
 19.22391   -194.3 1.138e+04 6.192e-10
 19.23890   -196.2 1.187e+04 6.761e-10
 19.24929   -198.6 1.263e+04 7.338e-10
 19.26546   -202.6 1.469e+04 1.095e-09
 19.28624   -206.4 1.642e+04 1.727e-09
 19.29873   -209.7 1.782e+04 2.827e-09
 19.30388   -212.4 2.036e+04 4.281e-09
 19.31211   -214.1 2.067e+04 6.100e-09
 19.32250   -215.5 2.054e+04 8.229e-09
 19.32855   -216.3 2.027e+04 9.812e-09
 19.33374   -217.5 2.040e+04 1.241e-08
 19.34328   -217.7 1.934e+04 1.293e-08
 19.35327   -217.9 1.930e+04 1.085e-08
 19.35846   -218.7 1.931e+04 1.125e-08
 19.36341   -219.6 1.904e+04 8.290e-09
 19.36860   -222.2 1.888e+04 5.635e-09
 19.37444   -223.9 1.800e+04 3.962e-09
 19.39007   -225.3 1.705e+04 2.969e-09
 19.40801   -226.7 1.572e+04 1.942e-09
 19.41839   -230.7 1.584e+04 1.808e-09
 19.43168   -231.8 1.383e+04 1.220e-09
 19.45245   -232.4 1.244e+04 9.265e-10
 19.46784   -232.4 1.191e+04 8.002e-10
 19.47823   -233.2 1.196e+04 9.260e-10
 19.49401   -232.3 1.159e+04 8.042e-10
 19.51478   -231.3 1.134e+04 7.294e-10
 19.52767   -230.2 1.112e+04 6.896e-10
 19.53806   -230.3 1.068e+04 6.841e-10
 19.55634   -229.2 1.057e+04 6.298e-10
 19.57711   -228.2 1.053e+04 6.087e-10
 19.59789   -227.1 1.029e+04 5.134e-10
 19.61867   -226.1 1.031e+04 5.017e-10
 19.63694   -225.1 1.032e+04 4.987e-10
 19.64733   -225.4 1.010e+04 4.155e-10
 19.66022   -224.5 1.010e+04 4.126e-10
 19.68099   -223.8 1.011e+04 4.120e-10
 19.69678   -223.1 1.012e+04 4.140e-10
 19.70716   -222.1 9.890e+03 3.379e-10
 19.72255   -221.5 9.912e+03 3.454e-10
 19.74332   -220.8 9.931e+03 3.548e-10
 19.75661   -220.4 9.936e+03 3.637e-10
 19.76700   -220.4 9.902e+03 3.610e-10
 19.78488   -219.7 9.900e+03 3.726e-10
 19.80565   -219.2 9.898e+03 3.811e-10
 19.81644   -218.6 9.885e+03 3.930e-10
 19.82683   -218.3 9.861e+03 4.000e-10
 19.84721   -217.8 9.879e+03 4.066e-10
 19.87847   -217.4 9.942e+03 4.147e-10
 19.91552   -216.7 9.966e+03 4.135e-10
 19.93630   -216.2 9.949e+03 4.121e-10
 19.96167   -215.9 9.959e+03 4.035e-10
 20.00323   -215.5 9.827e+03 3.798e-10
 20.03519   -214.8 9.571e+03 3.399e-10
 20.05596   -214.2 9.486e+03 3.390e-10
 20.08633   -213.2 9.170e+03 2.748e-10
 20.12789   -212.1 8.903e+03 2.176e-10
 20.15485   -211.1 8.808e+03 1.769e-10
 20.17563   -210.7 8.852e+03 1.686e-10
 20.21099   -210.1 8.856e+03 1.492e-10
 20.25255   -210.0 8.870e+03 1.460e-10
 20.27451   -210.1 8.934e+03 1.502e-10
 20.29529   -209.7 9.005e+03 1.715e-10
 20.33565   -209.7 9.206e+03 1.968e-10
 20.37340   -209.9 9.413e+03 2.249e-10
 20.39418   -209.0 9.465e+03 2.476e-10
 20.41876   -209.6 9.541e+03 2.485e-10
 20.46031   -210.7 9.594e+03 2.308e-10
 20.49306   -211.7 9.516e+03 2.054e-10
 20.51384   -210.5 9.725e+03 2.377e-10
 20.54342   -211.2 9.610e+03 2.181e-10
 20.58497   -211.6 9.524e+03 2.036e-10
 20.61273   -211.6 9.458e+03 1.932e-10
 20.63350   -210.6 9.793e+03 2.872e-10
 20.66808   -210.5 9.711e+03 2.730e-10
 20.70963   -209.7 9.640e+03 2.631e-10
 20.73239   -208.6 9.623e+03 2.609e-10
 20.75317   -207.7 9.878e+03 3.490e-10
 20.79274   -206.7 9.885e+03 3.511e-10
 20.83128   -205.8 9.990e+03 3.814e-10
 20.85206   -204.8 9.905e+03 3.653e-10
 20.87584   -203.8 9.945e+03 3.842e-10
 20.91740   -202.8 9.998e+03 4.076e-10
 20.95094   -202.1 1.007e+04 4.352e-10
 20.97172   -201.0 9.671e+03 2.891e-10
 21.00050   -200.3 9.691e+03 2.946e-10
 21.04206   -199.8 9.761e+03 3.342e-10
 21.07061   -199.3 1.005e+04 4.360e-10
 21.09138   -198.2 9.530e+03 2.738e-10
 21.12516   -197.3 9.859e+03 3.763e-10
 21.16672   -196.4 1.033e+04 5.324e-10
 21.19027   -195.6 1.087e+04 7.429e-10
 21.21105   -194.3 9.882e+03 3.961e-10
 21.24982   -193.6 1.024e+04 5.126e-10
 21.28916   -192.9 1.060e+04 6.484e-10
 21.30993   -191.8 9.770e+03 3.664e-10
 21.33293   -191.1 1.006e+04 4.615e-10
 21.37448   -190.3 1.031e+04 5.583e-10
 21.40882   -189.3 1.050e+04 6.354e-10
 21.42960   -188.0 1.004e+04 4.746e-10
 21.45759   -186.9 1.024e+04 5.463e-10
 21.49914   -185.7 1.039e+04 6.022e-10
 21.52849   -184.3 1.050e+04 6.451e-10
 21.54926   -183.4 1.025e+04 5.651e-10
 21.58225   -182.3 1.032e+04 5.868e-10
 21.62380   -181.1 1.034e+04 5.941e-10
 21.64815   -179.9 1.030e+04 5.878e-10
 21.66893   -179.2 9.843e+03 4.458e-10
 21.70691   -177.9 9.649e+03 3.824e-10
 21.74704   -176.5 9.464e+03 3.236e-10
 21.76781   -175.8 9.126e+03 2.518e-10
 21.79001   -174.3 8.995e+03 2.201e-10
 21.83157   -172.7 8.946e+03 2.042e-10
 21.86670   -171.0 8.935e+03 1.969e-10
 21.88725   -170.0 8.937e+03 2.012e-10
 21.89367   -169.5 8.758e+03 1.634e-10
 21.91467   -167.7 8.765e+03 1.616e-10
 21.95623   -165.8 8.773e+03 1.607e-10
 21.98636   -163.9 8.779e+03 1.605e-10
 22.00714   -163.1 8.875e+03 1.885e-10
 22.03933   -161.2 8.905e+03 1.932e-10
 22.08089   -159.2 8.948e+03 2.004e-10
 22.10603   -157.1 9.010e+03 2.109e-10
 22.12680   -156.3 9.098e+03 2.444e-10
 22.16399   -154.2 9.163e+03 2.533e-10
 22.20491   -152.0 9.224e+03 2.600e-10
 22.22569   -151.3 9.209e+03 2.557e-10
 22.24710   -149.3 9.237e+03 2.550e-10
 22.28865   -147.2 9.250e+03 2.484e-10
 22.32458   -145.0 9.248e+03 2.401e-10
 22.34535   -144.2 9.092e+03 2.051e-10
 22.37176   -142.0 9.080e+03 1.955e-10
 22.41331   -139.8 9.073e+03 1.873e-10
 22.44424   -137.6 9.064e+03 1.784e-10
 22.46502   -136.8 8.941e+03 1.461e-10
 22.49642   -134.7 8.956e+03 1.444e-10
 22.53797   -132.8 9.053e+03 1.433e-10
 22.56391   -130.9 9.121e+03 1.516e-10
 22.58468   -130.5 9.120e+03 1.436e-10
 22.62108   -128.7 9.250e+03 1.673e-10
 22.66263   -127.1 9.401e+03 1.951e-10
 22.70418   -125.1 9.475e+03 2.065e-10
 22.74574   -123.6 9.508e+03 2.107e-10
 22.78246   -122.2 9.508e+03 2.057e-10
 22.80323   -121.6 9.384e+03 1.715e-10
 22.82884   -120.0 9.362e+03 1.518e-10
 22.87040   -118.4 9.357e+03 1.365e-10
 22.90212   -117.0 9.371e+03 1.294e-10
 22.92290   -116.2 9.288e+03 1.197e-10
 22.95350   -115.1 9.447e+03 1.221e-10
 22.99506   -114.4 9.683e+03 1.467e-10
 23.02178   -114.1 9.864e+03 1.944e-10
 23.04256   -113.7 1.002e+04 2.357e-10
 23.07816   -113.7 1.026e+04 3.267e-10
 23.11972   -114.0 1.048e+04 4.147e-10
 23.14145   -114.5 1.063e+04 4.721e-10
 23.16222   -114.2 1.109e+04 6.154e-10
 23.20282   -114.9 1.114e+04 6.295e-10
 23.23389   -115.3 1.119e+04 6.834e-10
 23.25053   -115.7 1.097e+04 6.384e-10
 23.26092   -116.2 1.112e+04 7.157e-10
 23.27535   -116.5 1.092e+04 6.214e-10
 23.29612   -116.8 1.073e+04 5.369e-10
 23.31036   -117.3 1.056e+04 4.732e-10
 23.32075   -117.7 1.094e+04 5.816e-10
 23.33768   -117.9 1.081e+04 5.494e-10
 23.35845   -118.2 1.070e+04 5.385e-10
 23.37019   -118.5 1.064e+04 5.370e-10
 23.38058   -118.5 1.120e+04 7.570e-10
 23.40001   -119.0 1.117e+04 7.591e-10
 23.41964   -119.4 1.109e+04 7.607e-10
 23.43002   -119.8 1.203e+04 1.187e-09
 23.44156   -120.3 1.183e+04 1.138e-09
 23.46234   -120.5 1.162e+04 1.072e-09
 23.47947   -120.7 1.143e+04 9.948e-10
 23.48986   -121.2 1.239e+04 1.547e-09
 23.50389   -121.3 1.201e+04 1.348e-09
 23.52467   -121.3 1.174e+04 1.187e-09
 23.53930   -121.2 1.158e+04 1.068e-09
 23.54969   -122.3 1.261e+04 1.624e-09
 23.56622   -122.3 1.249e+04 1.502e-09
 23.58699   -122.2 1.242e+04 1.441e-09
 23.59913   -122.0 1.236e+04 1.417e-09
 23.60952   -122.7 1.286e+04 2.016e-09
 23.62855   -122.1 1.271e+04 1.935e-09
 23.64857   -121.4 1.264e+04 1.884e-09
 23.65896   -121.5 1.265e+04 1.947e-09
 23.67010   -120.8 1.260e+04 1.859e-09
 23.69088   -120.1 1.261e+04 1.847e-09
 23.70841   -119.6 1.277e+04 1.901e-09
 23.71879   -119.6 1.246e+04 1.524e-09
 23.73243   -119.2 1.273e+04 1.578e-09
 23.75321   -118.8 1.314e+04 1.821e-09
 23.76824   -118.5 1.360e+04 2.254e-09
 23.77863   -118.6 1.303e+04 1.211e-09
 23.79476   -118.0 1.351e+04 1.521e-09
 23.81554   -117.4 1.396e+04 1.984e-09
 23.82807   -117.1 1.440e+04 2.604e-09
 23.83846   -117.2 1.368e+04 1.114e-09
 23.85709   -117.2 1.413e+04 1.498e-09
 23.87751   -117.7 1.459e+04 2.078e-09
 23.88790   -118.5 1.351e+04 9.680e-10
 23.89864   -119.5 1.430e+04 1.568e-09
 23.91942   -120.4 1.513e+04 2.594e-09
 23.93735   -121.1 1.595e+04 4.111e-09
 23.94773   -121.5 1.503e+04 2.632e-09
 23.96097   -121.9 1.578e+04 3.892e-09
 23.98175   -122.3 1.627e+04 4.977e-09
 23.99718   -123.0 1.644e+04 5.415e-09
 24.00757   -122.6 1.525e+04 3.054e-09
 24.02330   -123.2 1.527e+04 3.080e-09
 24.04408   -123.6 1.506e+04 2.759e-09
 24.05701   -124.1 1.452e+04 2.151e-09
 24.06740   -123.8 1.294e+04 1.058e-09
 24.08563   -124.2 1.248e+04 8.560e-10
 24.11690   -124.7 1.189e+04 6.635e-10
 24.15609   -124.1 1.124e+04 4.873e-10
 24.17677   -121.8 1.059e+04 3.507e-10
 24.20000   -121.3 1.042e+04 3.072e-10
 24.24165   -120.0 1.021e+04 2.739e-10
 24.27576   -118.7 1.001e+04 2.491e-10
 24.29653   -116.5 9.801e+03 2.350e-10
 24.32476   -115.6 9.856e+03 2.356e-10
 24.36631   -115.2 1.000e+04 2.435e-10
 24.39542   -115.8 1.035e+04 2.889e-10
 24.41120   -113.9 1.077e+04 3.521e-10
 24.42364   -111.0 1.081e+04 3.271e-10
 24.44942   -113.3 1.114e+04 3.735e-10
 24.48049   -116.3 1.146e+04 5.214e-10
 24.50117   -119.2 1.217e+04 7.088e-10
 24.51489   -123.5 1.373e+04 1.077e-09
 24.52528   -124.8 1.488e+04 1.514e-09
 24.54272   -130.9 1.697e+04 2.810e-09
 24.56349   -137.5 1.828e+04 4.618e-09
 24.57472   -144.5 1.858e+04 5.886e-09
 24.58511   -145.5 1.957e+04 8.411e-09
 24.60505   -152.9 1.939e+04 8.508e-09
 24.62416   -160.5 1.775e+04 5.674e-09
 24.63455   -161.6 1.844e+04 6.591e-09
 24.64660   -169.7 1.514e+04 2.097e-09
 24.66738   -177.6 1.157e+04 5.587e-10
 24.68399   -181.3 9.966e+03 3.001e-10
 24.69438   -181.6 1.022e+04 3.199e-10
 24.70893   -182.9 9.677e+03 2.701e-10
 24.72971   -183.4 9.613e+03 2.636e-10
 24.74383   -183.9 9.701e+03 2.659e-10
 24.75421   -184.6 9.831e+03 3.005e-10
 24.77126   -185.2 1.032e+04 3.662e-10
 24.79204   -186.0 1.093e+04 4.849e-10
 24.80366   -187.0 1.150e+04 6.728e-10
 24.81405   -186.8 1.153e+04 7.463e-10
 24.83359   -187.7 1.215e+04 1.020e-09
 24.85310   -188.6 1.278e+04 1.376e-09
 24.86349   -188.6 1.329e+04 1.516e-09
 24.87514   -189.7 1.396e+04 1.946e-09
 24.89592   -190.8 1.437e+04 2.281e-09
 24.91293   -192.1 1.451e+04 2.390e-09
 24.92332   -192.2 1.464e+04 2.794e-09
 24.93747   -193.5 1.455e+04 2.855e-09
 24.95825   -194.9 1.442e+04 2.919e-09
 24.97277   -196.8 1.459e+04 2.999e-09
 24.98315   -197.1 1.671e+04 3.929e-09
 24.99980   -201.6 2.060e+04 4.817e-09
 25.02058   -207.2 2.494e+04 7.001e-09
 25.03255   -211.0 2.878e+04 8.892e-09
 25.03769   -214.9 2.887e+04 2.096e-08
 25.04546   -219.5 2.816e+04 4.548e-08
 25.05065   -220.5 2.541e+04 7.861e-08
 25.05684   -224.7 2.470e+04 1.407e-07
 25.06242   -229.2 2.400e+04 1.968e-07
 25.06761   -229.5 2.240e+04 2.763e-07
 25.07762   -234.2 2.230e+04 2.853e-07
 25.08714   -238.0 2.262e+04 2.558e-07
 25.09233   -238.4 2.301e+04 2.399e-07
 25.09839   -242.7 2.467e+04 1.426e-07
 25.10878   -247.0 2.682e+04 7.792e-08
 25.11705   -251.3 2.840e+04 4.847e-08
 25.12225   -256.0 2.966e+04 2.975e-08
 25.12956   -260.4 2.814e+04 2.635e-08
 25.13995   -264.0 2.682e+04 2.599e-08
 25.14697   -267.2 2.614e+04 2.614e-08
 25.15216   -270.9 2.447e+04 2.379e-08
 25.16072   -273.7 2.437e+04 2.425e-08
 25.17111   -276.5 2.392e+04 2.449e-08
 25.17689   -278.9 2.289e+04 2.317e-08
 25.18208   -280.5 2.198e+04 2.175e-08
 25.19189   -282.2 2.119e+04 1.886e-08
 25.20161   -283.5 2.036e+04 1.552e-08
 25.20680   -285.2 1.973e+04 1.474e-08
 25.21267   -286.2 1.878e+04 1.090e-08
 25.22305   -287.2 1.766e+04 7.467e-09
 25.23152   -288.2 1.638e+04 4.954e-09
 25.23672   -288.4 1.626e+04 4.865e-09
 25.24907   -289.6 1.491e+04 3.092e-09
 25.26154   -292.1 1.214e+04 1.256e-09
 25.27193   -293.7 1.173e+04 9.680e-10
 25.29068   -295.7 9.522e+03 4.005e-10
 25.31098   -296.4 8.928e+03 2.833e-10
 25.32137   -297.6 8.861e+03 2.703e-10
 25.33223   -296.7 8.776e+03 2.523e-10
 25.36349   -296.0 8.727e+03 2.415e-10
 25.40514   -294.2 8.573e+03 2.193e-10
 25.43084   -291.7 8.398e+03 1.960e-10
 25.45162   -292.6 8.714e+03 2.290e-10
 25.48825   -289.7 8.635e+03 2.200e-10
 25.52973   -286.7 8.627e+03 2.185e-10
 25.57128   -285.0 8.777e+03 2.570e-10
 25.61291   -283.0 9.280e+03 3.656e-10
 25.64939   -281.4 1.055e+04 6.623e-10
 25.67017   -282.3 1.057e+04 6.013e-10
 25.69601   -281.5 1.119e+04 8.351e-10
 25.73757   -281.3 1.143e+04 9.604e-10
 25.76905   -281.7 1.146e+04 9.824e-10
 25.78983   -283.2 1.073e+04 6.029e-10
 25.82067   -283.3 1.063e+04 5.502e-10
 25.86223   -283.2 1.047e+04 4.516e-10
 25.88872   -282.8 1.029e+04 3.598e-10
 25.90949   -284.2 9.873e+03 2.749e-10
 25.94533   -283.3 9.705e+03 2.280e-10
 25.98689   -282.1 9.551e+03 1.868e-10
 26.00838   -280.6 9.394e+03 1.512e-10
 26.02916   -280.8 9.324e+03 1.458e-10
 26.06999   -278.8 9.154e+03 1.173e-10
 26.10727   -276.6 9.005e+03 9.693e-11
 26.12805   -276.6 9.005e+03 1.029e-10
 26.15310   -274.2 8.942e+03 9.701e-11
 26.19465   -271.8 8.930e+03 9.596e-11
 26.22693   -269.3 8.927e+03 9.634e-11
 26.24771   -268.9 8.931e+03 1.264e-10
 26.27776   -266.4 8.981e+03 1.432e-10
 26.31931   -263.9 9.059e+03 1.650e-10
 26.34660   -261.5 9.114e+03 1.840e-10
 26.36737   -260.8 9.244e+03 2.325e-10
 26.40242   -258.4 9.273e+03 2.501e-10
 26.44397   -256.0 9.265e+03 2.562e-10
 26.46626   -253.5 9.254e+03 2.570e-10
 26.48704   -252.7 9.238e+03 2.643e-10
 26.52708   -250.1 9.222e+03 2.655e-10
 26.56515   -247.5 9.164e+03 2.667e-10
 26.58592   -246.7 9.127e+03 2.238e-10
 26.61018   -244.1 9.141e+03 2.461e-10
 26.65174   -241.4 9.174e+03 2.686e-10
 26.68481   -238.7 9.238e+03 2.894e-10
 26.70559   -238.3 9.395e+03 2.741e-10
 26.73484   -235.8 9.504e+03 3.219e-10
 26.77640   -233.3 9.629e+03 3.687e-10
 26.80447   -230.9 9.742e+03 4.131e-10
 26.82525   -230.9 9.965e+03 4.688e-10
 26.85950   -228.6 1.007e+04 5.138e-10
 26.90106   -226.3 1.017e+04 5.393e-10
 26.92414   -224.1 1.028e+04 5.492e-10
 26.93515   -224.4 1.016e+04 5.009e-10
 26.95362   -224.5 9.490e+03 2.979e-10
 26.98416   -222.4 9.413e+03 2.643e-10
 27.02303   -220.4 9.368e+03 2.388e-10
 27.04380   -220.8 9.132e+03 2.207e-10
 27.06727   -218.8 9.155e+03 2.109e-10
 27.10882   -216.8 9.165e+03 2.092e-10
 27.14269   -214.9 9.183e+03 2.094e-10
 27.16347   -215.4 9.073e+03 2.342e-10
 27.19193   -213.6 9.157e+03 2.345e-10
 27.23348   -211.9 9.327e+03 2.389e-10
 27.26235   -210.2 9.513e+03 2.580e-10
 27.28313   -210.7 9.418e+03 3.287e-10
 27.31659   -209.0 9.546e+03 3.295e-10
 27.35814   -207.2 9.676e+03 3.451e-10
 27.38202   -205.4 9.819e+03 3.757e-10
 27.40279   -205.4 9.643e+03 3.974e-10
 27.44125   -203.6 9.691e+03 3.950e-10
 27.48090   -201.9 9.725e+03 3.928e-10
 27.50168   -201.5 9.458e+03 3.597e-10
 27.52436   -199.7 9.438e+03 3.333e-10
 27.56591   -197.9 9.436e+03 3.095e-10
 27.60057   -196.2 9.449e+03 2.894e-10
 27.62134   -195.6 9.150e+03 2.104e-10
 27.64901   -193.9 9.142e+03 1.898e-10
 27.69057   -192.1 9.142e+03 1.713e-10
 27.72023   -190.3 9.147e+03 1.557e-10
 27.74101   -189.9 8.859e+03 1.054e-10
 27.77367   -188.0 8.866e+03 9.701e-11
 27.81523   -186.0 8.884e+03 9.179e-11
 27.83989   -183.8 8.900e+03 9.015e-11
 27.86067   -183.4 8.717e+03 7.466e-11
 27.89833   -181.3 8.721e+03 7.441e-11
 27.93878   -179.2 8.740e+03 7.453e-11
 27.95956   -178.7 8.647e+03 7.034e-11
 27.98144   -176.7 8.817e+03 7.333e-11
 28.02299   -174.7 8.906e+03 8.904e-11
 28.05845   -172.7 8.986e+03 1.152e-10
 28.07922   -171.9 8.803e+03 9.236e-11
 28.10610   -170.0 8.893e+03 1.143e-10
 28.14765   -168.1 9.035e+03 1.426e-10
 28.17811   -166.4 9.203e+03 1.722e-10
 28.19889   -165.7 9.134e+03 1.314e-10
 28.23076   -164.1 9.292e+03 1.642e-10
 28.27231   -162.7 9.446e+03 1.967e-10
 28.29777   -161.4 9.580e+03 2.272e-10
 28.31855   -160.5 9.623e+03 2.340e-10
 28.35542   -159.2 9.785e+03 2.874e-10
 28.39666   -158.2 9.955e+03 3.439e-10
 28.41744   -156.9 9.930e+03 3.399e-10
 28.43853   -155.8 1.010e+04 3.824e-10
 28.48008   -154.7 1.030e+04 4.340e-10
 28.51632   -153.9 1.051e+04 4.939e-10
 28.53710   -152.6 1.043e+04 3.816e-10
 28.56319   -152.0 1.059e+04 4.270e-10
 28.60474   -151.4 1.066e+04 4.613e-10
 28.63599   -150.6 1.067e+04 4.706e-10
 28.65676   -149.4 1.062e+04 4.213e-10
 28.68784   -148.5 1.063e+04 4.293e-10
 28.72940   -147.4 1.064e+04 4.203e-10
 28.75565   -146.2 1.069e+04 3.991e-10
 28.77643   -145.3 1.070e+04 4.126e-10
 28.81250   -144.4 1.079e+04 4.170e-10
 28.85406   -143.6 1.089e+04 4.425e-10
 28.87532   -143.2 1.097e+04 4.734e-10
 28.89609   -143.5 1.099e+04 4.936e-10
 28.93716   -143.8 1.111e+04 6.047e-10
 28.97420   -144.2 1.131e+04 7.678e-10
 28.99498   -144.5 1.140e+04 9.906e-10
 29.02027   -144.5 1.173e+04 1.328e-09
 29.06182   -144.5 1.201e+04 1.628e-09
 29.09387   -144.5 1.214e+04 1.750e-09
 29.11464   -144.3 1.177e+04 1.401e-09
 29.14493   -144.4 1.175e+04 1.398e-09
 29.18648   -144.2 1.148e+04 1.184e-09
 29.21353   -143.7 1.101e+04 8.605e-10
 29.22382   -143.2 1.080e+04 7.547e-10
 29.23823   -142.8 1.058e+04 6.103e-10
 29.25901   -142.5 1.033e+04 4.744e-10
 29.27317   -142.3 1.015e+04 3.935e-10
 29.28355   -142.3 1.012e+04 3.731e-10
 29.31104   -142.2 9.952e+03 3.251e-10
 29.33319   -141.1 9.625e+03 2.420e-10
 29.35397   -140.6 9.445e+03 1.621e-10
 29.39425   -139.3 9.363e+03 1.265e-10
 29.43208   -137.9 9.384e+03 1.161e-10
 29.45286   -137.6 9.103e+03 9.990e-11
 29.46281   -136.0 9.114e+03 9.707e-11
 29.48359   -136.1 9.404e+03 6.906e-11
 29.51891   -134.5 9.511e+03 7.131e-11
 29.55174   -132.8 9.546e+03 8.010e-11
 29.57252   -132.7 9.463e+03 8.346e-11
 29.60201   -131.1 9.472e+03 1.011e-10
 29.64357   -129.4 9.518e+03 1.316e-10
 29.67141   -127.6 9.628e+03 1.869e-10
 29.69219   -127.1 9.432e+03 2.154e-10
 29.72667   -125.1 9.598e+03 2.747e-10
 29.76823   -123.1 9.768e+03 3.462e-10
 29.79107   -121.2 9.889e+03 4.081e-10
 29.81185   -120.9 9.512e+03 2.487e-10
 29.85133   -119.2 9.563e+03 2.433e-10
 29.88996   -117.7 9.602e+03 2.142e-10
 29.91074   -117.8 9.263e+03 1.341e-10
 29.93444   -116.4 9.194e+03 1.215e-10
 29.97599   -114.8 9.104e+03 1.119e-10
 30.00962   -113.1 9.099e+03 1.067e-10
 30.03040   -112.7 8.854e+03 1.038e-10
 30.05910   -110.7 8.866e+03 1.005e-10
 30.10065   -108.9 8.884e+03 1.003e-10
 30.12929   -107.3 9.174e+03 1.055e-10
 30.15006   -106.6 8.978e+03 1.035e-10
 30.18376   -105.2 9.372e+03 1.123e-10
 30.22531   -104.0 9.685e+03 1.509e-10
 30.24895   -102.9 9.877e+03 2.216e-10
 30.26973   -102.1 9.684e+03 1.757e-10
 30.30842   -101.1 9.839e+03 2.304e-10
 30.34784   -100.0 9.953e+03 3.005e-10
 30.36861    -99.0 9.787e+03 2.441e-10
 30.39153    -98.0 9.927e+03 3.005e-10
 30.43308    -97.1 1.008e+04 3.678e-10
 30.46750    -96.3 1.020e+04 4.162e-10
 30.48828    -95.2 1.007e+04 3.375e-10
 30.51619    -94.4 1.012e+04 3.639e-10
 30.55774    -93.4 1.010e+04 3.626e-10
 30.58717    -92.2 9.911e+03 2.814e-10
 30.60794    -91.1 9.848e+03 2.657e-10
 30.64084    -89.7 9.647e+03 1.837e-10
 30.68240    -88.3 9.484e+03 1.195e-10
 30.70683    -86.9 9.380e+03 8.774e-11
 30.72761    -85.8 9.458e+03 1.012e-10
 30.76550    -84.3 9.409e+03 9.002e-11
 30.80572    -82.6 9.399e+03 8.811e-11
 30.82649    -81.7 9.489e+03 1.014e-10
 30.84861    -80.0 9.489e+03 1.002e-10
 30.89016    -78.4 9.566e+03 1.026e-10
 30.92538    -76.9 9.837e+03 1.300e-10
 30.94616    -75.8 9.718e+03 1.208e-10
 30.97327    -74.5 1.002e+04 1.557e-10
 31.01482    -73.1 1.032e+04 2.263e-10
 31.04504    -71.7 1.058e+04 3.228e-10
 31.06582    -70.7 1.049e+04 3.024e-10
 31.09793    -69.4 1.069e+04 3.820e-10
 31.13948    -68.2 1.078e+04 4.116e-10
 31.16471    -67.1 1.079e+04 4.131e-10
 31.18548    -66.3 1.081e+04 4.266e-10
 31.22259    -65.2 1.070e+04 3.764e-10
 31.26359    -64.1 1.053e+04 2.933e-10
 31.28437    -63.4 1.051e+04 3.076e-10
 31.30570    -62.5 1.030e+04 2.264e-10
 31.34725    -61.8 1.009e+04 1.751e-10
 31.38326    -61.2 9.890e+03 1.479e-10
 31.40403    -60.3 9.883e+03 1.611e-10
 31.43036    -59.5 9.772e+03 1.477e-10
 31.47191    -58.6 9.754e+03 1.454e-10
 31.50292    -57.9 9.816e+03 1.598e-10
 31.52370    -56.8 9.856e+03 1.846e-10
 31.55501    -56.2 1.003e+04 2.297e-10
 31.59657    -55.7 1.026e+04 3.357e-10
 31.62259    -55.3 1.068e+04 4.995e-10
 31.64336    -54.5 1.058e+04 4.979e-10
 31.67967    -54.1 1.094e+04 6.649e-10
 31.72123    -53.9 1.145e+04 8.702e-10
 31.74225    -53.9 1.192e+04 1.089e-09
 31.76303    -52.9 1.111e+04 7.355e-10
 31.80433    -52.8 1.124e+04 8.092e-10
 31.84114    -52.6 1.122e+04 8.420e-10
 31.86191    -51.6 1.075e+04 6.701e-10
 31.88744    -50.7 1.071e+04 6.938e-10
 31.92899    -49.4 1.054e+04 6.393e-10
 31.96080    -47.9 1.030e+04 4.609e-10
 31.98158    -46.5 1.026e+04 5.339e-10
 31.99279    -44.9 1.002e+04 3.446e-10
 32.01356    -44.5 1.015e+04 5.434e-10
 32.05365    -42.9 9.821e+03 3.858e-10
 32.08046    -41.5 9.662e+03 3.105e-10
 32.10124    -39.7 9.582e+03 3.299e-10
 32.13676    -38.3 9.540e+03 2.929e-10
 32.17831    -36.7 9.545e+03 2.960e-10
 32.20013    -35.1 9.590e+03 3.294e-10
 32.22090    -33.3 9.442e+03 2.623e-10
 32.26142    -31.6 9.440e+03 2.670e-10
 32.29901    -30.2 9.432e+03 2.662e-10
 32.31979    -28.2 9.295e+03 2.015e-10
 32.34453    -27.0 9.289e+03 2.002e-10
 32.38608    -26.3 9.378e+03 2.133e-10
 32.41868    -26.0 1.001e+04 3.623e-10
 32.43946    -23.5 9.835e+03 3.029e-10
 32.46919    -22.7 1.032e+04 5.007e-10
 32.51074    -21.9 1.090e+04 7.174e-10
 32.53834    -22.1 1.134e+04 7.904e-10
 32.55912    -18.5 1.114e+04 7.967e-10
 32.59384    -18.9 1.133e+04 7.393e-10
 32.63540    -19.4 1.104e+04 4.942e-10
 32.65801    -19.6 1.094e+04 4.026e-10
 32.67878    -15.7 1.039e+04 3.391e-10
 32.71850    -15.6 1.020e+04 2.794e-10
 32.75689    -14.7 1.045e+04 3.018e-10
 32.77767    -11.4 9.854e+03 2.404e-10
 32.80161    -10.4 1.009e+04 2.512e-10
 32.84316     -9.3 1.052e+04 3.420e-10
 32.87656     -8.0 1.092e+04 4.936e-10
 32.89733     -5.1 1.042e+04 3.323e-10
 32.92627     -3.9 1.088e+04 4.717e-10
 32.96782     -2.8 1.130e+04 6.224e-10
 32.99622     -2.1 1.173e+04 8.186e-10
 33.01700      0.9 1.133e+04 5.615e-10
 33.05093      0.8 1.234e+04 9.429e-10
 33.08200      0.1 1.313e+04 1.760e-09
 33.10268     -0.4 1.392e+04 2.740e-09
 33.11569     -0.6 1.457e+04 3.829e-09
 33.12608      0.7 1.429e+04 3.261e-09
 33.14423      0.5 1.478e+04 4.057e-09
 33.16501      0.1 1.486e+04 4.223e-09
 33.17552     -0.3 1.448e+04 3.521e-09
 33.18591      1.0 1.444e+04 3.310e-09
 33.20656      0.3 1.384e+04 2.285e-09
 33.22496     -1.0 1.301e+04 1.436e-09
 33.23535      0.1 1.304e+04 1.478e-09
 33.24719     -1.3 1.227e+04 1.011e-09
 33.25758     -1.4 1.206e+04 9.670e-10
 33.26889     -2.3 1.151e+04 7.126e-10
 33.28480     -2.9 1.108e+04 5.447e-10
 33.29518     -1.8 1.141e+04 6.497e-10
 33.31044     -2.3 1.106e+04 5.304e-10
 33.33122     -2.6 1.077e+04 4.539e-10
 33.34463     -2.8 1.058e+04 4.140e-10
 33.35502     -1.9 1.085e+04 4.862e-10
 33.37277     -2.0 1.074e+04 4.637e-10
 33.39355     -1.9 1.071e+04 4.598e-10
 33.40446     -1.8 1.073e+04 4.685e-10
 33.41485     -1.1 1.095e+04 4.945e-10
 33.43510     -1.0 1.096e+04 4.943e-10
 33.45390     -0.9 1.094e+04 5.015e-10
 33.46429     -0.3 1.095e+04 4.862e-10
 33.47665     -0.2 1.096e+04 4.762e-10
 33.50792      0.1 1.107e+04 4.774e-10
 33.54957     -0.4 1.141e+04 6.032e-10
 33.57367     -0.7 1.149e+04 6.716e-10
 33.58396     -0.0 1.151e+04 5.950e-10
 33.60131     -0.5 1.164e+04 7.820e-10
 33.62209     -0.7 1.173e+04 9.553e-10
 33.63340     -0.9 1.185e+04 1.082e-09
 33.64379     -0.2 1.191e+04 1.071e-09
 33.66364     -0.4 1.198e+04 1.130e-09
 33.68284     -0.6 1.193e+04 1.143e-09
 33.69323     -0.1 1.199e+04 1.133e-09
 33.70520     -0.2 1.179e+04 1.074e-09
 33.72597     -0.2 1.146e+04 9.329e-10
 33.74267     -0.1 1.119e+04 7.796e-10
 33.75306      0.2 1.135e+04 8.288e-10
 33.76753      0.2 1.112e+04 7.027e-10
 33.78830      0.3 1.087e+04 5.911e-10
 33.80251      0.5 1.057e+04 4.936e-10
 33.81290      0.9 1.074e+04 5.510e-10
 33.82986      1.4 1.043e+04 4.618e-10
 33.85063      1.7 1.029e+04 4.277e-10
 33.88190      2.8 1.012e+04 3.884e-10
 33.91198      4.8 9.959e+03 3.533e-10
 33.93275      5.3 1.024e+04 4.185e-10
 33.96510      7.3 1.021e+04 4.232e-10
 34.00665      9.2 1.034e+04 4.701e-10
 34.03154     10.6 1.053e+04 5.268e-10
 34.04183     10.6 1.067e+04 5.744e-10
 34.05840     11.2 1.066e+04 5.920e-10
 34.07918     12.2 1.067e+04 6.150e-10
 34.09128     13.1 1.067e+04 6.214e-10
 34.10167     13.2 1.080e+04 6.693e-10
 34.12073     14.1 1.080e+04 6.589e-10
 34.14072     15.1 1.075e+04 6.224e-10
 34.15111     15.0 1.088e+04 6.425e-10
 34.16228     15.8 1.081e+04 6.073e-10
 34.18306     16.4 1.075e+04 5.794e-10
 34.20055     17.1 1.074e+04 5.627e-10
 34.21094     17.0 1.088e+04 6.167e-10
 34.22461     17.9 1.093e+04 6.134e-10
 34.24539     18.6 1.101e+04 6.092e-10
 34.26039     19.0 1.090e+04 5.815e-10
 34.27087     18.6 1.115e+04 6.538e-10
 34.29753     20.2 1.087e+04 5.698e-10
 34.33908     21.9 1.064e+04 4.907e-10
 34.36986     23.6 1.060e+04 4.553e-10
 34.39063     23.8 1.079e+04 4.996e-10
 34.42219     25.9 1.073e+04 4.793e-10
 34.46374     28.1 1.073e+04 4.648e-10
 34.48952     30.2 1.082e+04 4.642e-10
 34.50699     30.7 1.093e+04 4.719e-10
 34.52276     30.5 1.084e+04 4.289e-10
 34.54684     32.5 1.095e+04 4.380e-10
 34.58840     33.3 1.155e+04 5.725e-10
 34.62995     33.7 1.260e+04 1.102e-09
 34.65853     32.7 1.396e+04 2.195e-09
 34.66882     33.5 1.389e+04 2.185e-09
 34.68170     32.0 1.546e+04 4.152e-09
 34.70247     30.9 1.679e+04 7.620e-09
 34.71826     30.3 1.786e+04 1.189e-08
 34.72865     30.8 1.782e+04 1.139e-08
 34.74403     29.9 1.845e+04 1.427e-08
 34.76480     28.4 1.850e+04 1.464e-08
 34.77810     27.2 1.777e+04 1.165e-08
 34.78848     27.4 1.795e+04 1.213e-08
 34.80636     26.2 1.706e+04 8.487e-09
 34.82713     24.8 1.584e+04 5.201e-09
 34.83793     23.4 1.449e+04 3.273e-09
 34.84832     24.1 1.523e+04 4.054e-09
 34.86869     22.9 1.387e+04 2.722e-09
 34.88737     22.6 1.290e+04 2.104e-09
 34.89776     22.8 1.320e+04 2.254e-09
 34.91024     22.7 1.272e+04 1.825e-09
 34.93102     23.0 1.239e+04 1.597e-09
 34.94720     23.5 1.216e+04 1.418e-09
 34.95759     23.2 1.216e+04 1.410e-09
 34.97257     23.7 1.199e+04 1.297e-09
 34.99335     24.2 1.184e+04 1.228e-09
 35.00703     24.9 1.166e+04 1.168e-09
 35.01742     24.8 1.164e+04 1.171e-09
 35.03490     25.8 1.147e+04 1.104e-09
 35.05568     26.8 1.135e+04 1.008e-09
 35.06687     27.8 1.125e+04 8.882e-10
 35.07725     27.7 1.132e+04 8.896e-10
 35.09723     28.3 1.127e+04 7.975e-10
 35.12849     28.9 1.121e+04 7.308e-10
 35.16595     30.6 1.079e+04 5.817e-10
 35.18673     30.6 1.125e+04 7.581e-10
 35.21170     32.6 1.089e+04 5.862e-10
 35.25325     34.4 1.067e+04 4.609e-10
 35.28561     36.3 1.039e+04 3.531e-10
 35.30639     36.4 1.099e+04 5.839e-10
 35.33636     38.3 1.061e+04 4.137e-10
 35.37791     40.0 1.029e+04 3.012e-10
 35.40528     41.7 1.007e+04 2.448e-10
 35.42605     42.0 1.045e+04 3.855e-10
 35.46102     43.9 1.018e+04 3.152e-10
 35.50257     46.0 1.000e+04 2.766e-10
 35.52494     48.2 9.885e+03 2.496e-10
 35.54572     48.5 1.018e+04 3.185e-10
 35.58567     50.5 1.007e+04 2.752e-10
 35.62383     52.3 9.987e+03 2.582e-10
 35.64460     52.6 1.020e+04 3.367e-10
 35.66878     54.5 1.014e+04 3.332e-10
 35.71033     56.5 1.004e+04 3.427e-10
 35.74349     58.8 1.001e+04 3.330e-10
 35.76427     59.4 1.005e+04 3.460e-10
 35.79344     61.2 1.002e+04 2.646e-10
 35.83499     62.6 1.002e+04 2.058e-10
 35.86315     63.8 1.001e+04 1.877e-10
 35.88393     64.0 9.856e+03 1.486e-10
 35.91810     65.6 9.850e+03 1.574e-10
 35.95965     67.0 9.923e+03 2.060e-10
 35.98282     68.4 1.024e+04 2.919e-10
 36.00360     68.7 1.004e+04 1.943e-10
 36.04276     70.0 1.029e+04 2.979e-10
 36.08171     71.8 1.045e+04 4.117e-10
 36.10248     71.9 1.016e+04 2.640e-10
 36.12587     73.6 1.021e+04 3.248e-10
 36.16742     75.1 1.024e+04 3.256e-10
 36.20137     76.1 1.028e+04 3.200e-10
 36.22215     76.4 1.011e+04 2.726e-10
 36.25053     77.3 1.014e+04 3.264e-10
 36.29208     78.7 1.012e+04 4.131e-10
 36.32103     80.4 1.015e+04 4.274e-10
 36.34181     81.0 1.005e+04 4.129e-10
 36.37519     83.0 9.963e+03 3.829e-10
 36.41674     84.6 1.007e+04 3.093e-10
 36.44070     85.1 1.054e+04 3.206e-10
 36.46147     86.5 9.935e+03 2.383e-10
 36.49984     87.0 1.025e+04 2.790e-10
 36.53958     87.8 1.052e+04 4.353e-10
 36.56036     89.1 1.001e+04 2.519e-10
 36.58295     90.2 1.030e+04 3.988e-10
 36.62450     91.4 1.052e+04 5.811e-10
 36.65925     92.9 1.058e+04 6.953e-10
 36.68002     94.0 1.044e+04 5.794e-10
 36.70761     95.6 1.054e+04 7.054e-10
 36.74916     97.3 1.048e+04 7.298e-10
 36.77881     98.5 1.054e+04 7.848e-10
 36.79959    100.0 1.082e+04 8.875e-10
 36.82178    101.2 1.060e+04 7.853e-10
 36.83855    102.0 1.041e+04 6.399e-10
 36.84894    102.7 1.074e+04 8.382e-10
 36.86324    103.4 1.047e+04 6.401e-10
 36.88402    103.9 1.013e+04 4.805e-10
 36.89838    104.1 9.702e+03 3.484e-10
 36.90877    105.1 1.010e+04 4.705e-10
 36.92557    105.2 9.713e+03 3.694e-10
 36.94635    105.5 9.367e+03 3.046e-10
 36.95821    105.8 9.192e+03 2.824e-10
 36.96860    106.6 9.393e+03 3.388e-10
 36.98790    107.2 9.298e+03 3.361e-10
 37.00766    107.8 9.321e+03 3.420e-10
 37.01804    108.3 9.597e+03 4.311e-10
 37.02945    108.5 9.686e+03 4.650e-10
 37.04215    108.5 9.920e+03 5.612e-10
 37.05254    109.2 1.004e+04 6.140e-10
 37.06749    109.1 1.037e+04 7.667e-10
 37.07788    109.1 1.112e+04 1.067e-09
 37.09178    108.7 1.136e+04 1.318e-09
 37.11256    108.4 1.157e+04 1.611e-09
 37.12732    108.2 1.175e+04 1.883e-09
 37.13771    107.8 1.233e+04 2.290e-09
 37.15411    107.2 1.234e+04 2.291e-09
 37.17489    106.3 1.235e+04 2.186e-09
 37.18715    105.3 1.209e+04 1.769e-09
 37.19754    104.1 1.231e+04 1.863e-09
 37.21644    103.1 1.192e+04 1.583e-09
 37.23669    103.2 1.125e+04 1.198e-09
 37.25757    100.9 1.139e+04 1.215e-09
 37.28936    101.4 1.027e+04 6.694e-10
 37.33091    102.2 9.630e+03 3.779e-10
 37.35645    103.1 9.265e+03 2.784e-10
 37.37723    102.6 9.219e+03 2.643e-10
 37.41402    104.5 9.203e+03 2.646e-10
 37.45534    106.3 9.259e+03 2.832e-10
 37.47612    106.3 9.231e+03 2.661e-10
 37.49712    108.1 9.366e+03 3.187e-10
 37.53867    110.1 9.537e+03 4.028e-10
 37.57500    112.2 9.737e+03 4.973e-10
 37.59578    112.3 9.619e+03 4.351e-10
 37.62178    114.3 9.748e+03 4.701e-10
 37.66333    116.3 9.746e+03 4.636e-10
 37.69467    118.3 9.685e+03 4.260e-10
 37.71544    118.3 9.625e+03 3.934e-10
 37.74644    120.3 9.536e+03 3.444e-10
 37.78799    122.3 9.435e+03 2.883e-10
 37.81433    124.3 9.436e+03 2.576e-10
 37.83511    124.2 9.383e+03 2.445e-10
 37.87110    126.3 9.419e+03 2.412e-10
 37.91265    128.1 9.506e+03 2.517e-10
 37.93400    129.6 9.741e+03 3.053e-10
 37.95477    129.4 9.622e+03 2.605e-10
 37.99576    130.7 1.004e+04 3.679e-10
 38.03288    131.8 1.087e+04 6.320e-10
 38.05366    131.6 1.048e+04 4.856e-10
 38.07887    132.2 1.136e+04 8.164e-10
 38.12042    132.4 1.210e+04 1.207e-09
 38.15255    132.3 1.257e+04 1.522e-09
 38.17332    132.9 1.163e+04 8.626e-10
 38.20353    132.9 1.183e+04 9.639e-10
 38.24508    132.9 1.205e+04 1.096e-09
 38.27221    133.2 1.222e+04 1.240e-09
 38.29299    134.4 1.140e+04 7.345e-10
 38.32819    135.3 1.157e+04 8.683e-10
 38.35925    136.1 1.144e+04 7.972e-10
 38.37993    136.5 1.148e+04 7.767e-10
 38.39168    136.9 1.151e+04 7.510e-10
 38.40207    137.7 1.139e+04 6.670e-10
 38.42148    137.9 1.140e+04 6.510e-10
 38.44112    138.1 1.130e+04 6.097e-10
 38.45151    138.8 1.129e+04 5.899e-10
 38.46304    139.0 1.117e+04 5.616e-10
 38.48381    139.1 1.101e+04 5.151e-10
 38.50095    139.3 1.091e+04 4.638e-10
 38.51134    139.9 1.100e+04 5.128e-10
 38.52537    140.2 1.094e+04 4.602e-10
 38.54614    140.4 1.091e+04 4.044e-10
 38.56079    140.8 1.076e+04 3.317e-10
 38.57117    141.4 1.100e+04 4.063e-10
 38.58770    141.6 1.090e+04 3.460e-10
 38.61033    142.6 1.071e+04 2.818e-10
 38.63110    143.0 1.089e+04 3.157e-10
 38.66051    144.8 1.085e+04 2.769e-10
 38.70216    146.2 1.048e+04 1.824e-10
 38.73009    147.8 1.021e+04 1.514e-10
 38.75087    148.3 1.039e+04 1.885e-10
 38.78527    150.0 1.030e+04 1.877e-10
 38.82682    151.8 1.035e+04 2.062e-10
 38.84975    153.5 1.051e+04 2.560e-10
 38.87053    154.0 1.054e+04 2.785e-10
 38.90993    155.6 1.068e+04 3.376e-10
 38.94864    157.3 1.083e+04 4.047e-10
 38.96942    157.8 1.088e+04 4.191e-10
 38.99304    159.2 1.100e+04 4.383e-10
 39.03459    160.2 1.104e+04 4.342e-10
 39.06830    161.0 1.105e+04 4.218e-10
 39.08898    161.7 1.105e+04 4.261e-10
 39.10711    162.3 1.108e+04 4.295e-10
 39.12789    162.6 1.114e+04 4.369e-10
 39.14867    162.6 1.128e+04 4.668e-10
 39.16944    162.7 1.141e+04 5.153e-10
 39.18777    162.9 1.151e+04 5.860e-10
 39.19816    162.7 1.155e+04 6.028e-10
 39.21100    162.9 1.160e+04 6.904e-10
 39.23177    163.1 1.160e+04 7.800e-10
 39.24760    163.4 1.157e+04 8.501e-10
 39.25799    163.1 1.148e+04 8.540e-10
 39.27333    163.4 1.136e+04 8.769e-10
 39.29410    163.6 1.128e+04 8.790e-10
 39.30744    163.8 1.123e+04 8.832e-10
 39.31782    163.5 1.115e+04 8.585e-10
 39.33565    163.8 1.114e+04 8.775e-10
 39.35643    164.1 1.116e+04 9.363e-10
 39.36727    164.5 1.130e+04 1.042e-09
 39.37766    164.3 1.136e+04 1.075e-09
 39.39798    164.6 1.164e+04 1.274e-09
 39.41671    165.0 1.197e+04 1.522e-09
 39.42710    164.7 1.218e+04 1.679e-09
 39.43954    164.9 1.260e+04 2.060e-09
 39.46031    165.2 1.299e+04 2.468e-09
 39.47654    165.4 1.334e+04 2.869e-09
 39.48693    164.9 1.359e+04 3.296e-09
 39.50187    165.2 1.380e+04 3.613e-09
 39.52264    165.3 1.383e+04 3.618e-09
 39.53637    165.6 1.378e+04 3.418e-09
 39.54676    165.2 1.373e+04 3.472e-09
 39.56173    165.5 1.359e+04 3.157e-09
 39.57212    165.7 1.290e+04 2.057e-09
 39.58497    165.6 1.271e+04 1.723e-09
 39.59621    165.5 1.254e+04 1.500e-09
 39.60659    165.5 1.268e+04 1.828e-09
 39.62653    165.5 1.262e+04 1.776e-09
 39.64565    165.8 1.260e+04 1.798e-09
 39.65604    166.1 1.267e+04 2.112e-09
 39.66808    166.6 1.276e+04 2.231e-09
 39.68886    167.4 1.282e+04 2.347e-09
 39.70548    168.4 1.286e+04 2.444e-09
 39.71587    168.9 1.293e+04 2.578e-09
 39.73041    170.0 1.301e+04 2.698e-09
 39.75119    171.2 1.307e+04 2.767e-09
 39.76531    172.3 1.311e+04 2.788e-09
 39.77570    172.9 1.312e+04 2.793e-09
 39.79274    174.1 1.315e+04 2.815e-09
 39.81352    175.1 1.324e+04 2.855e-09
 39.82515    175.7 1.345e+04 2.980e-09
 39.83553    176.7 1.335e+04 2.917e-09
 39.85507    177.1 1.374e+04 3.229e-09
 39.87459    177.4 1.438e+04 3.911e-09
 39.88498    178.5 1.423e+04 3.696e-09
 39.89662    178.7 1.496e+04 4.677e-09
 39.91740    179.0 1.555e+04 5.909e-09
 39.93293    179.3 1.587e+04 6.528e-09
 39.93952    179.3 1.619e+04 7.157e-09
 39.94476    180.3 1.616e+04 6.854e-09
 39.95371    179.8 1.667e+04 8.009e-09
 39.96405    179.5 1.707e+04 9.179e-09
 39.96943    179.7 1.703e+04 1.082e-08
 39.97463    180.1 1.763e+04 1.051e-08
 39.98483    180.4 1.738e+04 1.236e-08
 39.99416    180.6 1.726e+04 1.223e-08
 39.99935    180.9 1.781e+04 1.386e-08
 40.00560    181.4 1.761e+04 1.349e-08
 40.01599    181.9 1.720e+04 1.191e-08
 40.02407    182.2 1.676e+04 9.703e-09
 40.02927    182.5 1.753e+04 1.316e-08
 40.03677    182.8 1.701e+04 9.919e-09
 40.04716    182.9 1.649e+04 7.440e-09
 40.05399    182.9 1.596e+04 5.268e-09
 40.05918    183.4 1.680e+04 7.789e-09
 40.06793    183.2 1.630e+04 5.656e-09
 40.07832    182.8 1.578e+04 3.939e-09
 40.08390    182.5 1.543e+04 3.370e-09
 40.08910    182.7 1.612e+04 4.365e-09
 40.10348    182.1 1.555e+04 2.978e-09
 40.11387    181.9 1.612e+04 3.985e-09
 40.12512    181.4 1.630e+04 4.028e-09
 40.14594    180.8 1.525e+04 2.539e-09
 40.16336    180.2 1.356e+04 1.514e-09
 40.17375    180.2 1.603e+04 4.197e-09
 40.18750    179.9 1.486e+04 2.846e-09
 40.20827    180.0 1.374e+04 2.144e-09
 40.22319    180.4 1.301e+04 1.858e-09
 40.23358    180.1 1.534e+04 4.190e-09
 40.24983    180.5 1.468e+04 3.520e-09
 40.27060    181.1 1.427e+04 3.209e-09
 40.28302    181.9 1.415e+04 3.188e-09
 40.29341    181.4 1.514e+04 4.467e-09
 40.31215    181.9 1.501e+04 4.140e-09
 40.33247    182.4 1.515e+04 4.236e-09
 40.34286    181.7 1.519e+04 4.162e-09
 40.35371    182.0 1.536e+04 4.351e-09
 40.37448    182.3 1.563e+04 4.785e-09
 40.39230    182.7 1.590e+04 5.413e-09
 40.40269    182.0 1.512e+04 3.673e-09
 40.41604    182.5 1.517e+04 3.922e-09
 40.43681    183.0 1.512e+04 4.086e-09
 40.45213    183.4 1.503e+04 4.157e-09
 40.46252    182.6 1.382e+04 2.482e-09
 40.47837    182.9 1.380e+04 2.637e-09
 40.49914    183.1 1.376e+04 2.833e-09
 40.51196    183.4 1.370e+04 3.029e-09
 40.52235    182.6 1.303e+04 2.290e-09
 40.54070    183.1 1.322e+04 2.696e-09
 40.56141    183.7 1.341e+04 3.040e-09
 40.58218    184.0 1.344e+04 3.003e-09
 40.60303    184.4 1.345e+04 3.003e-09
 40.62124    184.9 1.336e+04 2.865e-09
 40.63163    184.3 1.329e+04 2.686e-09
 40.64458    184.9 1.303e+04 2.376e-09
 40.66536    185.5 1.272e+04 2.040e-09
 40.68117    186.6 1.238e+04 1.655e-09
 40.70204    185.4 1.228e+04 1.547e-09
 40.73827    186.2 1.184e+04 1.246e-09
 40.77982    187.8 1.151e+04 1.078e-09
 40.80093    189.6 1.134e+04 1.018e-09
 40.82171    189.0 1.088e+04 7.712e-10
 40.86293    191.1 1.077e+04 7.383e-10
 40.89982    193.7 1.072e+04 7.367e-10
 40.92059    192.8 9.943e+03 4.945e-10
 40.94604    195.3 9.918e+03 5.123e-10
 40.98759    198.0 9.980e+03 5.721e-10
 41.01948    200.8 1.029e+04 6.909e-10
 41.04026    199.5 1.022e+04 6.838e-10
 41.07070    201.7 1.067e+04 8.676e-10
 41.11225    203.7 1.119e+04 1.109e-09
 41.13905    204.0 1.150e+04 1.298e-09
 41.15982    202.3 1.194e+04 1.598e-09
 41.18487    203.4 1.207e+04 1.629e-09
 41.19878    203.7 1.220e+04 1.675e-09
 41.20917    202.9 1.218e+04 1.661e-09
 41.22633    203.1 1.227e+04 1.667e-09
 41.24710    203.1 1.230e+04 1.674e-09
 41.25861    202.8 1.225e+04 1.704e-09
 41.27949    202.5 1.220e+04 1.678e-09
 41.30815    203.0 1.214e+04 1.675e-09
 41.31844    202.9 1.210e+04 1.643e-09
 41.33021    203.3 1.217e+04 1.707e-09
 41.35098    203.6 1.238e+04 1.910e-09
 41.36789    204.0 1.259e+04 2.174e-09
 41.37828    204.0 1.257e+04 2.094e-09
 41.39254    204.5 1.277e+04 2.362e-09
 41.41331    205.1 1.293e+04 2.560e-09
 41.42772    205.6 1.291e+04 2.589e-09
 41.43811    205.7 1.292e+04 2.589e-09
 41.45487    206.2 1.289e+04 2.583e-09
 41.47564    206.6 1.279e+04 2.524e-09
 41.48755    207.1 1.261e+04 2.385e-09
 41.49794    207.3 1.263e+04 2.397e-09
 41.51720    207.9 1.244e+04 2.222e-09
 41.53700    208.5 1.226e+04 2.046e-09
 41.54738    208.8 1.225e+04 2.035e-09
 41.55875    209.4 1.209e+04 1.878e-09
 41.57953    210.1 1.194e+04 1.745e-09
 41.59683    211.0 1.182e+04 1.640e-09
 41.60722    211.2 1.179e+04 1.610e-09
 41.62108    212.1 1.171e+04 1.524e-09
 41.64186    212.9 1.161e+04 1.448e-09
 41.65666    213.8 1.151e+04 1.391e-09
 41.66705    214.1 1.147e+04 1.366e-09
 41.68341    215.0 1.139e+04 1.336e-09
 41.70419    216.0 1.134e+04 1.330e-09
 41.71649    217.0 1.135e+04 1.339e-09
 41.72688    217.4 1.128e+04 1.295e-09
 41.74574    218.4 1.130e+04 1.314e-09
 41.76593    219.5 1.138e+04 1.369e-09
 41.77632    219.8 1.124e+04 1.285e-09
 41.78729    220.8 1.134e+04 1.343e-09
 41.80807    221.8 1.151e+04 1.438e-09
 41.82577    222.7 1.172e+04 1.569e-09
 41.83615    223.1 1.138e+04 1.367e-09
 41.84962    224.1 1.156e+04 1.475e-09
 41.87040    225.1 1.177e+04 1.615e-09
 41.88560    226.0 1.200e+04 1.787e-09
 41.89599    226.4 1.161e+04 1.506e-09
 41.91195    227.2 1.184e+04 1.652e-09
 41.93273    228.1 1.210e+04 1.832e-09
 41.94543    228.9 1.240e+04 2.023e-09
 41.95582    229.1 1.201e+04 1.703e-09
 41.97428    229.8 1.227e+04 1.829e-09
 41.99487    230.4 1.245e+04 1.831e-09
 42.00526    230.4 1.200e+04 1.552e-09
 42.01584    230.8 1.200e+04 1.502e-09
 42.03661    231.2 1.188e+04 1.374e-09
 42.05471    231.4 1.161e+04 1.188e-09
 42.06509    231.4 1.123e+04 1.024e-09
 42.07817    231.5 1.089e+04 8.619e-10
 42.09170    231.6 1.057e+04 7.186e-10
 42.10209    233.0 1.167e+04 1.108e-09
 42.11454    233.0 1.115e+04 8.655e-10
 42.12493    233.0 1.068e+04 7.258e-10
 42.14050    233.0 1.034e+04 6.031e-10
 42.16127    233.2 1.009e+04 5.229e-10
 42.17437    233.5 9.898e+03 4.853e-10
 42.18476    234.0 9.776e+03 4.404e-10
 42.20283    234.5 9.774e+03 4.386e-10
 42.22360    235.2 9.785e+03 4.411e-10
 42.23420    235.8 9.821e+03 4.461e-10
 42.24459    236.3 9.786e+03 4.177e-10
 42.26515    237.1 9.848e+03 4.288e-10
 42.28364    237.7 9.917e+03 4.418e-10
 42.29403    238.2 9.926e+03 4.263e-10
 42.30671    238.9 1.001e+04 4.531e-10
 42.32748    239.4 1.007e+04 4.764e-10
 42.34348    240.1 1.014e+04 5.035e-10
 42.35386    240.5 1.013e+04 5.086e-10
 42.36904    241.1 1.020e+04 5.299e-10
 42.38981    242.0 1.029e+04 5.473e-10
 42.40331    242.6 1.038e+04 5.519e-10
 42.41370    243.2 1.031e+04 5.861e-10
 42.43137    244.0 1.038e+04 5.835e-10
 42.45214    244.4 1.047e+04 5.698e-10
 42.46314    245.2 1.054e+04 5.353e-10
 42.47353    245.9 1.049e+04 5.949e-10
 42.49370    246.2 1.054e+04 5.407e-10
 42.51268    247.5 1.051e+04 4.699e-10
 42.52307    247.9 1.055e+04 5.284e-10
 42.53525    248.2 1.052e+04 4.805e-10
 42.56651    250.2 1.047e+04 4.375e-10
 42.60816    251.9 1.032e+04 3.784e-10
 42.63244    253.8 1.029e+04 3.747e-10
 42.65322    254.5 1.041e+04 3.868e-10
 42.69127    256.3 1.038e+04 3.902e-10
 42.73133    258.3 1.045e+04 4.091e-10
 42.75211    258.9 1.047e+04 4.063e-10
 42.77438    260.8 1.055e+04 4.278e-10
 42.81593    262.9 1.076e+04 4.728e-10
 42.85099    264.7 1.104e+04 5.301e-10
 42.87177    265.4 1.088e+04 4.722e-10
 42.89904    267.2 1.114e+04 5.107e-10
 42.94059    268.7 1.122e+04 5.131e-10
 42.97066    270.6 1.121e+04 4.998e-10
 42.99143    271.3 1.125e+04 4.969e-10
 43.02370    273.3 1.122e+04 4.597e-10
 43.06525    275.4 1.119e+04 4.087e-10
 43.09032    277.6 1.120e+04 3.663e-10
 43.11110    278.0 1.131e+04 3.785e-10
 43.14836    280.2 1.135e+04 3.719e-10
 43.18921    282.3 1.140e+04 3.762e-10
 43.20999    282.5 1.158e+04 4.038e-10
 43.23146    284.5 1.168e+04 4.313e-10
 43.27302    286.2 1.178e+04 4.845e-10
 43.30887    288.0 1.184e+04 5.409e-10
 43.32955    287.9 1.198e+04 5.951e-10
 43.35602    289.4 1.203e+04 6.049e-10
 43.39767    291.6 1.199e+04 5.852e-10
 43.42854    293.8 1.192e+04 5.533e-10
 43.44931    292.9 1.184e+04 5.301e-10
 43.48078    295.2 1.170e+04 4.737e-10
 43.52233    297.2 1.171e+04 4.413e-10
 43.54820    299.0 1.180e+04 4.303e-10
 43.56898    298.8 1.173e+04 4.424e-10
 43.59495    299.5 1.175e+04 4.457e-10
 43.60784    300.4 1.176e+04 4.509e-10
 43.61822    300.9 1.176e+04 4.883e-10
 43.63641    302.1 1.185e+04 5.303e-10
 43.65719    303.1 1.200e+04 5.913e-10
 43.67796    303.9 1.227e+04 7.453e-10
 43.69874    304.7 1.250e+04 8.648e-10
 43.71711    305.3 1.278e+04 1.017e-09
 43.72750    305.0 1.293e+04 1.125e-09
 43.74029    305.5 1.321e+04 1.303e-09
 43.76107    305.8 1.347e+04 1.502e-09
 43.77694    306.2 1.373e+04 1.702e-09
 43.78733    305.4 1.372e+04 1.682e-09
 43.80262    305.5 1.398e+04 1.860e-09
 43.82340    305.2 1.425e+04 2.046e-09
 43.83678    304.9 1.453e+04 2.251e-09
 43.84716    303.8 1.426e+04 2.008e-09
 43.86495    303.4 1.448e+04 2.145e-09
 43.88573    302.6 1.474e+04 2.338e-09
 43.89661    301.6 1.504e+04 2.646e-09
 43.90700    301.0 1.435e+04 2.040e-09
 43.92728    299.7 1.461e+04 2.286e-09
 43.94605    298.2 1.497e+04 2.710e-09
 43.95644    298.2 1.429e+04 2.033e-09
 43.96884    297.0 1.457e+04 2.375e-09
 43.98961    295.8 1.477e+04 2.718e-09
 44.00588    294.9 1.484e+04 2.875e-09
 44.01627    296.1 1.437e+04 2.297e-09
 44.03117    295.5 1.448e+04 2.392e-09
 44.05194    295.1 1.447e+04 2.332e-09
 44.06571    294.9 1.446e+04 2.145e-09
 44.07610    295.9 1.436e+04 1.959e-09
 44.10398    294.4 1.431e+04 1.715e-09
 44.12574    292.5 1.381e+04 1.187e-09
 44.14652    293.9 1.362e+04 1.243e-09
 44.18719    294.0 1.303e+04 9.002e-10
 44.22463    294.6 1.238e+04 6.285e-10
 44.24541    296.2 1.238e+04 7.159e-10
 44.27029    297.2 1.189e+04 5.185e-10
 44.31185    298.6 1.149e+04 3.844e-10
 44.34429    300.4 1.123e+04 3.059e-10
 44.36507    301.9 1.126e+04 3.319e-10
 44.39495    303.8 1.108e+04 2.782e-10
 44.43650    305.8 1.098e+04 2.514e-10
 44.46396    308.0 1.093e+04 2.391e-10
 44.48473    309.2 1.089e+04 2.316e-10
 44.51961    311.4 1.085e+04 2.191e-10
 44.56116    313.7 1.082e+04 2.108e-10
 44.58362    316.1 1.079e+04 2.048e-10
 44.60277    317.2 1.069e+04 1.803e-10
 44.62187    316.3 1.037e+04 1.472e-10
 44.64427    318.8 1.025e+04 1.459e-10
 44.68251    321.3 1.023e+04 1.454e-10
 44.70328    322.5 1.014e+04 1.434e-10
 44.72738    325.1 1.014e+04 1.432e-10
 44.76893    327.8 1.011e+04 1.443e-10
 44.80217    330.4 1.008e+04 1.487e-10
 44.82295    331.8 1.008e+04 1.482e-10
 44.85204    334.5 1.009e+04 1.555e-10
 44.89359    337.1 1.014e+04 1.652e-10
 44.92183    339.7 1.022e+04 1.762e-10
 44.94261    341.2 1.021e+04 1.772e-10
 44.97670    343.7 1.029e+04 1.883e-10
 45.01825    346.2 1.035e+04 1.993e-10
 45.04150    348.7 1.039e+04 2.104e-10
 45.06228    350.1 1.042e+04 2.209e-10
 45.10136    352.5 1.047e+04 2.366e-10
 45.14039    354.7 1.053e+04 2.554e-10
 45.16116    355.7 1.062e+04 2.806e-10
 45.18446    357.5 1.069e+04 3.038e-10
 45.22602    359.2 1.078e+04 3.321e-10
 45.26005    360.7 1.082e+04 3.579e-10
 45.28083    361.4 1.082e+04 3.757e-10
 45.29864    362.3 1.086e+04 4.097e-10
 45.31931    363.8 1.090e+04 4.510e-10
 45.33007    365.0 1.092e+04 4.847e-10
 45.34046    365.2 1.098e+04 4.894e-10
 45.36087    366.1 1.094e+04 5.092e-10
 45.37952    366.8 1.090e+04 5.196e-10
 45.38991    366.9 1.088e+04 5.173e-10
 45.40242    367.7 1.084e+04 5.222e-10
 45.42320    368.5 1.083e+04 5.312e-10
 45.43935    369.0 1.098e+04 5.542e-10
 45.44974    369.4 1.079e+04 5.466e-10
 45.46475    370.0 1.087e+04 5.737e-10
 45.48553    370.3 1.142e+04 6.469e-10
 45.49918    370.4 1.263e+04 9.059e-10
 45.50957    371.3 1.122e+04 6.547e-10
 45.52708    371.5 1.224e+04 8.603e-10
 45.54786    371.6 1.344e+04 1.351e-09
 45.55901    371.8 1.438e+04 2.183e-09
 45.56940    372.8 1.311e+04 1.274e-09
 45.58941    373.0 1.408e+04 1.996e-09
 45.60846    373.3 1.473e+04 2.972e-09
 45.61885    374.2 1.382e+04 1.876e-09
 45.63096    374.5 1.449e+04 2.755e-09
 45.65174    374.8 1.491e+04 3.744e-09
 45.66829    375.3 1.518e+04 4.616e-09
 45.67868    376.0 1.485e+04 3.738e-09
 45.69329    376.5 1.522e+04 4.701e-09
 45.71407    377.0 1.544e+04 5.205e-09
 45.72812    377.5 1.550e+04 5.480e-09
 45.73851    378.2 1.559e+04 5.480e-09
 45.75562    378.6 1.580e+04 5.710e-09
 45.77640    378.9 1.573e+04 5.532e-09
 45.78795    379.1 1.545e+04 4.827e-09
 45.79834    379.6 1.591e+04 5.624e-09
 45.81795    379.7 1.566e+04 5.164e-09
 45.83740    379.9 1.516e+04 3.975e-09
 45.84778    380.4 1.552e+04 4.909e-09
 45.85951    380.8 1.501e+04 3.957e-09
 45.87627    381.2 1.439e+04 2.874e-09
 45.88666    381.3 1.460e+04 3.122e-09
 45.89723    381.6 1.394e+04 2.163e-09
 45.90762    382.4 1.453e+04 3.264e-09
 45.92184    382.7 1.401e+04 2.468e-09
 45.94261    382.9 1.348e+04 1.833e-09
 45.95706    383.0 1.297e+04 1.389e-09
 45.96745    383.9 1.369e+04 2.212e-09
 45.98417    384.1 1.328e+04 1.754e-09
 46.00494    384.2 1.289e+04 1.420e-09
 46.01689    384.4 1.254e+04 1.186e-09
 46.02728    385.1 1.313e+04 1.652e-09
 46.04650    385.2 1.277e+04 1.367e-09
 46.06634    385.2 1.245e+04 1.157e-09
 46.07672    385.8 1.284e+04 1.422e-09
 46.08805    385.8 1.249e+04 1.180e-09
 46.10883    385.7 1.217e+04 9.884e-10
 46.12617    385.5 1.189e+04 8.224e-10
 46.13656    386.0 1.204e+04 9.018e-10
 46.15038    385.7 1.173e+04 7.408e-10
 46.17116    385.5 1.141e+04 6.055e-10
 46.18600    385.2 1.111e+04 5.184e-10
 46.19639    385.7 1.123e+04 5.413e-10
 46.21271    385.7 1.091e+04 4.611e-10
 46.23348    385.8 1.075e+04 4.303e-10
 46.26475    387.0 1.058e+04 3.899e-10
 46.29547    387.9 1.029e+04 3.309e-10
 46.31625    388.4 1.044e+04 3.525e-10
 46.34795    389.3 1.017e+04 2.999e-10
 46.38950    390.3 1.016e+04 2.844e-10
 46.41513    391.1 1.025e+04 2.870e-10
 46.43591    391.9 1.021e+04 2.893e-10
 46.47261    392.3 1.045e+04 3.062e-10
 46.51402    392.6 1.082e+04 3.574e-10
 46.54509    393.5 1.097e+04 4.058e-10
 46.56591    393.3 1.149e+04 5.454e-10
 46.58405    393.1 1.184e+04 7.317e-10
 46.59443    394.0 1.174e+04 6.785e-10
 46.60746    393.6 1.203e+04 8.422e-10
 46.63359    394.0 1.209e+04 9.122e-10
 46.65436    393.7 1.221e+04 9.404e-10
 46.68028    394.3 1.226e+04 9.393e-10
 46.72193    393.7 1.207e+04 8.632e-10
 46.75335    393.0 1.160e+04 6.160e-10
 46.77412    394.1 1.191e+04 7.218e-10
 46.80504    393.5 1.129e+04 4.494e-10
 46.84659    392.8 1.048e+04 2.407e-10
 46.87301    392.1 9.843e+03 1.435e-10
 46.89379    393.4 1.019e+04 2.004e-10
 46.92970    392.9 9.811e+03 1.420e-10
 46.97125    392.6 9.815e+03 1.392e-10
 46.99268    392.5 9.811e+03 1.402e-10
 47.01345    393.5 9.825e+03 1.462e-10
 47.05436    393.5 9.834e+03 1.485e-10
 47.09156    393.4 9.879e+03 1.555e-10
 47.11234    394.2 9.901e+03 1.626e-10
 47.13107    394.0 1.003e+04 1.807e-10
 47.15184    394.4 1.008e+04 1.795e-10
 47.17902    394.1 1.022e+04 2.047e-10
 47.21123    393.7 1.024e+04 2.136e-10
 47.23200    394.1 1.054e+04 2.615e-10
 47.26212    393.7 1.054e+04 2.623e-10
 47.30367    393.4 1.046e+04 2.546e-10
 47.33089    393.5 1.026e+04 2.299e-10
 47.35167    393.4 1.071e+04 2.859e-10
 47.38678    393.6 1.042e+04 2.362e-10
 47.42833    393.7 1.015e+04 2.011e-10
 47.45055    393.9 1.011e+04 1.961e-10
 47.47133    392.9 1.054e+04 2.432e-10
 47.51144    393.0 1.052e+04 2.502e-10
 47.54944    392.7 1.060e+04 2.736e-10
 47.57022    391.9 1.105e+04 3.751e-10
 47.58406    391.6 1.106e+04 3.841e-10
 47.60474    391.7 1.104e+04 3.834e-10
 47.61947    391.9 1.109e+04 3.978e-10
 47.62985    392.5 1.128e+04 4.969e-10
 47.64629    392.7 1.139e+04 5.359e-10
 47.66707    392.7 1.154e+04 5.827e-10
 47.67930    392.6 1.171e+04 6.294e-10
 47.68969    392.5 1.196e+04 7.838e-10
 47.70862    392.4 1.210e+04 8.243e-10
 47.72874    392.2 1.220e+04 8.310e-10
 47.73913    391.6 1.244e+04 9.713e-10
 47.75018    391.4 1.246e+04 9.682e-10
 47.77095    391.1 1.250e+04 9.425e-10
 47.78857    390.8 1.251e+04 8.861e-10
 47.79896    389.6 1.268e+04 1.001e-09
 47.81251    389.2 1.264e+04 9.653e-10
 47.83328    388.7 1.257e+04 9.526e-10
 47.84841    388.3 1.254e+04 9.641e-10
 47.85879    387.2 1.269e+04 1.150e-09
 47.87484    387.0 1.275e+04 1.245e-09
 47.89561    386.8 1.286e+04 1.366e-09
 47.90824    386.8 1.300e+04 1.487e-09
 47.91863    385.9 1.332e+04 1.864e-09
 47.93717    386.0 1.352e+04 2.050e-09
 47.95768    386.0 1.374e+04 2.151e-09
 47.96807    385.2 1.419e+04 2.742e-09
 47.97872    385.1 1.446e+04 2.939e-09
 47.99950    384.9 1.465e+04 3.021e-09
 48.01751    384.7 1.466e+04 2.933e-09
 48.02790    383.4 1.557e+04 4.271e-09
 48.04105    382.8 1.560e+04 4.161e-09
 48.06183    382.0 1.561e+04 3.828e-09
 48.07734    381.2 1.550e+04 3.347e-09
 48.08773    379.6 1.653e+04 5.431e-09
 48.10338    378.7 1.636e+04 4.832e-09
 48.12416    377.8 1.606e+04 4.115e-09
 48.13718    376.8 1.562e+04 3.384e-09
 48.14756    375.0 1.653e+04 4.865e-09
 48.16571    374.0 1.588e+04 3.829e-09
 48.18648    373.3 1.512e+04 2.940e-09
 48.19701    372.9 1.436e+04 2.237e-09
 48.20740    371.3 1.457e+04 2.415e-09
 48.22804    371.2 1.390e+04 1.899e-09
 48.24645    371.2 1.339e+04 1.538e-09
 48.25684    369.8 1.338e+04 1.532e-09
 48.26959    370.1 1.300e+04 1.290e-09
 48.29037    370.4 1.270e+04 1.120e-09
 48.30628    370.7 1.245e+04 1.012e-09
 48.31667    369.6 1.242e+04 1.000e-09
 48.33192    369.9 1.228e+04 9.786e-10
 48.35270    370.2 1.225e+04 9.826e-10
 48.36612    370.4 1.223e+04 1.021e-09
 48.37650    369.5 1.239e+04 1.111e-09
 48.39425    369.7 1.254e+04 1.241e-09
 48.40625    370.0 1.272e+04 1.399e-09
 48.41663    370.5 1.246e+04 1.206e-09
 48.42595    370.6 1.261e+04 1.352e-09
 48.43634    369.8 1.279e+04 1.489e-09
 48.45658    369.9 1.294e+04 1.616e-09
 48.47539    369.9 1.304e+04 1.686e-09
 48.48578    368.9 1.301e+04 1.657e-09
 48.49813    368.8 1.303e+04 1.656e-09
 48.51891    368.7 1.300e+04 1.630e-09
 48.53522    368.7 1.288e+04 1.542e-09
 48.54561    367.9 1.245e+04 1.306e-09
 48.56046    368.1 1.219e+04 1.153e-09
 48.58124    368.3 1.191e+04 9.726e-10
 48.59505    368.3 1.167e+04 8.360e-10
 48.60544    368.0 1.104e+04 6.330e-10
 48.62279    367.8 1.075e+04 5.213e-10
 48.64357    367.8 1.069e+04 4.919e-10
 48.65489    367.7 1.035e+04 4.206e-10
 48.66527    367.5 1.019e+04 3.972e-10
 48.68512    367.4 1.006e+04 3.828e-10
 48.70433    367.3 9.975e+03 3.789e-10
 48.71472    367.3 9.966e+03 3.796e-10
 48.72668    367.2 9.962e+03 3.802e-10
 48.74745    367.2 9.961e+03 3.838e-10
 48.76416    367.2 9.985e+03 3.970e-10
 48.77455    367.3 1.006e+04 4.239e-10
 48.78901    367.2 1.016e+04 4.551e-10
 48.80978    366.9 1.029e+04 4.918e-10
 48.82399    366.5 1.041e+04 5.301e-10
 48.83438    366.2 1.051e+04 5.726e-10
 48.85134    365.7 1.059e+04 6.011e-10
 48.87211    365.2 1.063e+04 6.178e-10
 48.88383    364.6 1.063e+04 6.224e-10
 48.89421    364.2 1.066e+04 6.329e-10
 48.91367    363.8 1.057e+04 6.049e-10
 48.93327    363.4 1.044e+04 5.678e-10
 48.94366    363.1 1.036e+04 5.419e-10
 48.95522    362.9 1.017e+04 4.887e-10
 48.97600    362.7 1.003e+04 4.526e-10
 48.99310    362.6 9.952e+03 4.375e-10
 49.00349    362.3 9.875e+03 4.253e-10
 49.01755    362.2 9.878e+03 4.258e-10
 49.03833    362.3 9.893e+03 4.314e-10
 49.05293    362.5 9.956e+03 4.504e-10
 49.06332    362.2 9.966e+03 4.565e-10
 49.07988    362.4 1.013e+04 5.056e-10
 49.10066    362.6 1.035e+04 5.770e-10
 49.11277    362.8 1.059e+04 6.648e-10
 49.12315    362.3 1.081e+04 7.551e-10
 49.14221    362.5 1.117e+04 8.962e-10
 49.16221    362.7 1.149e+04 1.035e-09
 49.17260    361.6 1.206e+04 1.304e-09
 49.18376    361.6 1.243e+04 1.490e-09
 49.20454    361.5 1.275e+04 1.649e-09
 49.22204    361.2 1.303e+04 1.795e-09
 49.23243    359.5 1.389e+04 2.485e-09
 49.24609    359.2 1.421e+04 2.758e-09
 49.26687    358.9 1.458e+04 3.112e-09
 49.28187    358.5 1.501e+04 3.571e-09
 49.29226    356.9 1.560e+04 4.418e-09
 49.30842    356.3 1.580e+04 4.585e-09
 49.32920    355.5 1.592e+04 4.625e-09
 49.34170    354.7 1.607e+04 4.710e-09
 49.35209    353.0 1.566e+04 3.997e-09
 49.37075    352.0 1.547e+04 3.599e-09
 49.39115    350.7 1.524e+04 3.215e-09
 49.40154    348.5 1.411e+04 2.222e-09
 49.41230    346.6 1.365e+04 1.940e-09
 49.43308    344.7 1.325e+04 1.780e-09
 49.45098    342.9 1.297e+04 1.703e-09
 49.46137    340.4 1.263e+04 1.516e-09
 49.47463    338.9 1.247e+04 1.453e-09
 49.49541    337.6 1.231e+04 1.367e-09
 49.51081    336.6 1.205e+04 1.203e-09
 49.52120    334.6 1.178e+04 1.089e-09
 49.53696    333.4 1.164e+04 9.927e-10
 49.55774    331.2 1.176e+04 1.011e-09
 49.57064    326.2 1.272e+04 1.222e-09
 49.58103    319.2 1.447e+04 1.833e-09
 49.59929    311.1 1.674e+04 3.703e-09
 49.62007    304.6 1.796e+04 6.298e-09
 49.64085    295.8 1.826e+04 6.553e-09
 49.66084    291.7 1.856e+04 5.277e-09
 49.67123    294.8 1.820e+04 5.881e-09
 49.67992    290.3 1.848e+04 3.909e-09
 49.69031    284.5 1.842e+04 2.529e-09
 49.70318    277.5 1.676e+04 1.129e-09
 49.72395    269.7 1.249e+04 6.678e-10
 49.73975    264.3 1.072e+04 6.041e-10
 49.75014    261.4 1.104e+04 8.013e-10
 49.76551    259.6 1.131e+04 8.512e-10
 49.78628    256.9 1.229e+04 1.065e-09
 49.79958    252.6 1.404e+04 1.658e-09
 49.80997    251.0 1.440e+04 2.162e-09
 49.82784    247.4 1.570e+04 3.311e-09
 49.84861    244.6 1.680e+04 5.051e-09
 49.85941    242.7 1.785e+04 7.488e-09
 49.86980    241.8 1.754e+04 6.744e-09
 49.89017    240.3 1.818e+04 8.284e-09
 49.90886    238.8 1.850e+04 8.876e-09
 49.91925    236.9 1.744e+04 5.293e-09
 49.93172    234.6 1.748e+04 4.990e-09
 49.95250    231.6 1.750e+04 4.399e-09
 49.96869    227.4 1.735e+04 4.014e-09
 49.97908    223.3 1.624e+04 3.186e-09
 49.99405    219.6 1.643e+04 3.876e-09
 50.01483    216.7 1.677e+04 5.001e-09
 50.02852    214.6 1.743e+04 6.596e-09
 50.03891    212.3 1.753e+04 6.270e-09
 50.05638    209.3 1.855e+04 7.991e-09
 50.07716    205.5 1.962e+04 9.301e-09
 50.08835    200.8 2.030e+04 9.388e-09
 50.09874    195.9 1.904e+04 7.200e-09
 50.11871    191.1 1.867e+04 7.009e-09
 50.13780    186.7 1.774e+04 6.011e-09
 50.14819    184.5 1.608e+04 4.546e-09
 50.16026    181.4 1.536e+04 3.638e-09
 50.18104    178.4 1.456e+04 2.563e-09
 50.19763    175.2 1.379e+04 1.731e-09
 50.20802    175.0 1.347e+04 1.382e-09
 50.22259    171.6 1.280e+04 1.078e-09
 50.24337    168.5 1.222e+04 9.435e-10
 50.25746    165.9 1.182e+04 8.833e-10
 50.26785    166.6 1.164e+04 8.459e-10
 50.28492    164.7 1.153e+04 8.292e-10
 50.30570    163.0 1.138e+04 8.064e-10
 50.31729    161.4 1.125e+04 7.704e-10
 50.32768    162.5 1.134e+04 8.031e-10
 50.34725    161.5 1.130e+04 7.851e-10
 50.36674    159.9 1.120e+04 7.240e-10
 50.37712    161.2 1.138e+04 8.015e-10
 50.38880    160.6 1.124e+04 7.474e-10
 50.41628    158.9 1.088e+04 6.294e-10
 50.43715    160.8 1.121e+04 7.339e-10
 50.46172    159.3 1.070e+04 5.752e-10
 50.50327    158.0 1.013e+04 4.329e-10
 50.53604    156.9 9.591e+03 3.245e-10
 50.55682    158.5 9.701e+03 3.525e-10
 50.58638    157.6 9.228e+03 2.703e-10
 50.62793    156.7 8.866e+03 2.184e-10
 50.65570    156.0 8.640e+03 1.924e-10
 50.67648    157.5 8.777e+03 2.117e-10
 50.71104    156.7 8.660e+03 1.978e-10
 50.75259    155.7 8.651e+03 1.948e-10
 50.77537    154.7 8.660e+03 1.958e-10
 50.79614    155.9 8.765e+03 2.159e-10
 50.83570    154.6 8.797e+03 2.216e-10
 50.87425    153.2 8.928e+03 2.427e-10
 50.89503    154.5 9.068e+03 2.759e-10
 50.91880    153.1 9.301e+03 3.228e-10
 50.96036    151.7 9.530e+03 3.721e-10
 50.99392    150.1 9.654e+03 3.903e-10
 51.01469    151.2 9.665e+03 3.958e-10
 51.04346    149.6 9.608e+03 3.645e-10
 51.08502    148.1 9.572e+03 3.420e-10
 51.11358    146.6 9.625e+03 3.465e-10
 51.13436    147.8 9.455e+03 3.012e-10
 51.16812    146.5 9.629e+03 3.252e-10
 51.20968    145.5 9.915e+03 3.767e-10
 51.23324    144.4 1.019e+04 4.345e-10
 51.25402    145.6 1.021e+04 4.252e-10
 51.29278    144.3 1.047e+04 4.957e-10
 51.33213    143.2 1.062e+04 5.463e-10
 51.35291    144.5 1.058e+04 5.147e-10
 51.36540    143.0 1.063e+04 5.364e-10
 51.38608    142.4 1.075e+04 6.132e-10
 51.40216    142.1 1.098e+04 7.430e-10
 51.41255    142.7 1.089e+04 6.795e-10
 51.42763    142.2 1.125e+04 8.515e-10
 51.44841    141.5 1.171e+04 1.075e-09
 51.46199    140.5 1.227e+04 1.376e-09
 51.47238    141.2 1.228e+04 1.369e-09
 51.48996    140.1 1.291e+04 1.775e-09
 51.51074    138.8 1.347e+04 2.217e-09
 51.52182    137.1 1.391e+04 2.606e-09
 51.53221    137.9 1.399e+04 2.612e-09
 51.55229    135.5 1.441e+04 2.989e-09
 51.57126    132.7 1.471e+04 3.327e-09
 51.58165    133.4 1.487e+04 3.464e-09
 51.59385    130.4 1.483e+04 3.517e-09
 51.61462    127.5 1.468e+04 3.329e-09
 51.63110    124.5 1.424e+04 2.834e-09
 51.64148    125.0 1.469e+04 3.149e-09
 51.65618    121.3 1.410e+04 2.497e-09
 51.67695    117.2 1.345e+04 2.110e-09
 51.69093    113.6 1.319e+04 2.092e-09
 51.70132    113.2 1.373e+04 2.533e-09
 51.71851    110.8 1.362e+04 2.656e-09
 51.73928    109.3 1.354e+04 2.671e-09
 51.75076    108.5 1.324e+04 2.509e-09
 51.76115    108.4 1.352e+04 2.645e-09
 51.78084    108.0 1.284e+04 1.993e-09
 51.80020    107.3 1.213e+04 1.385e-09
 51.81059    106.6 1.213e+04 1.269e-09
 51.82239    105.3 1.137e+04 8.210e-10
 51.84317    103.7 1.064e+04 5.643e-10
 51.86004    102.8 1.002e+04 4.444e-10
 51.87042    102.2 1.000e+04 4.478e-10
 51.88472    102.1 9.699e+03 4.048e-10
 51.90550    102.1 9.594e+03 3.812e-10
 51.91987    102.1 9.608e+03 3.824e-10
 51.93026    102.1 9.791e+03 4.468e-10
 51.94705    102.1 9.815e+03 4.621e-10
 51.96783    102.2 9.825e+03 4.798e-10
 51.97970    102.5 9.824e+03 4.917e-10
 51.99009    103.1 1.015e+04 6.030e-10
 52.00938    103.5 1.017e+04 6.006e-10
 52.02914    103.7 1.019e+04 5.855e-10
 52.03953    104.1 1.054e+04 6.984e-10
 52.05093    103.8 1.059e+04 6.589e-10
 52.07171    102.9 1.067e+04 6.535e-10
 52.08897    101.8 1.087e+04 6.790e-10
 52.09936    101.3 1.157e+04 9.072e-10
 52.11326     99.7 1.220e+04 1.118e-09
 52.13404     97.4 1.340e+04 1.602e-09
 52.14881     94.1 1.494e+04 2.684e-09
 52.15919     92.7 1.607e+04 4.327e-09
 52.17559     90.3 1.699e+04 6.832e-09
 52.19082     88.4 1.782e+04 1.070e-08
 52.20120     88.5 1.823e+04 1.188e-08
 52.20864     86.9 1.827e+04 1.217e-08
 52.21903     86.1 1.880e+04 1.305e-08
 52.23792     84.2 1.810e+04 9.742e-09
 52.25808     80.7 1.727e+04 6.542e-09
 52.26847     78.1 1.659e+04 5.720e-09
 52.27947     73.4 1.588e+04 4.832e-09
 52.30025     69.1 1.623e+04 5.189e-09
 52.31791     66.6 1.658e+04 6.317e-09
 52.32830     67.5 1.617e+04 5.360e-09
 52.34180     66.2 1.585e+04 5.359e-09
 52.36258     66.0 1.524e+04 4.872e-09
 52.37775     65.4 1.468e+04 3.886e-09
 52.38813     65.3 1.407e+04 3.054e-09
 52.40413     64.4 1.340e+04 2.339e-09
 52.42491     64.7 1.247e+04 1.653e-09
 52.45617     62.7 1.131e+04 9.538e-10
 52.48712     63.0 1.019e+04 5.864e-10
 52.50790     65.0 9.829e+03 4.714e-10
 52.53938     66.2 9.614e+03 3.714e-10
 52.58093     67.4 9.338e+03 3.094e-10
 52.60688     69.1 9.051e+03 2.709e-10
 52.62766     70.1 9.136e+03 2.918e-10
 52.66404     71.7 9.125e+03 3.061e-10
 52.70559     73.8 9.212e+03 3.214e-10
 52.74714     74.6 1.020e+04 5.516e-10
 52.77589     75.1 9.707e+03 4.402e-10
 52.78618     74.9 9.974e+03 5.347e-10
 52.79889     76.2 9.640e+03 4.723e-10
 52.81967     77.1 9.681e+03 4.648e-10
 52.83562     77.5 9.823e+03 4.789e-10
 52.84601     78.3 1.009e+04 5.666e-10
 52.86122     78.6 1.020e+04 5.930e-10
 52.88200     79.0 1.015e+04 6.062e-10
 52.89546     79.7 1.002e+04 5.832e-10
 52.90584     79.9 1.019e+04 6.313e-10
 52.92355     80.5 1.009e+04 5.983e-10
 52.94433     81.0 1.006e+04 5.490e-10
 52.95529     81.2 1.003e+04 4.955e-10
 52.96568     81.2 1.027e+04 5.561e-10
 52.98588     81.0 1.029e+04 5.138e-10
 53.00473     80.5 1.031e+04 5.071e-10
 53.01512     80.4 1.055e+04 5.827e-10
 53.02743     79.7 1.061e+04 5.978e-10
 53.04821     79.5 1.060e+04 6.288e-10
 53.06456     79.3 1.063e+04 6.713e-10
 53.07495     79.0 1.083e+04 7.529e-10
 53.08976     78.5 1.102e+04 8.219e-10
 53.11054     77.6 1.141e+04 9.453e-10
 53.12439     76.8 1.163e+04 1.073e-09
 53.13478     76.3 1.183e+04 1.213e-09
 53.15209     75.8 1.189e+04 1.281e-09
 53.17287     75.8 1.180e+04 1.237e-09
 53.18423     75.6 1.176e+04 1.145e-09
 53.19462     75.3 1.177e+04 1.126e-09
 53.21442     74.8 1.158e+04 9.294e-10
 53.23367     73.8 1.148e+04 7.831e-10
 53.24406     73.3 1.133e+04 6.921e-10
 53.25597     72.5 1.094e+04 5.783e-10
 53.27675     71.7 1.091e+04 5.713e-10
 53.29350     71.3 1.087e+04 5.759e-10
 53.30389     71.0 1.078e+04 5.477e-10
 53.31830     70.8 1.077e+04 5.676e-10
 53.33908     72.0 1.059e+04 5.409e-10
 53.37034     71.7 1.046e+04 4.813e-10
 53.40297     71.7 1.017e+04 3.714e-10
 53.42375     71.8 9.936e+03 3.122e-10
 53.44306     70.0 1.036e+04 3.262e-10
 53.45580     69.2 1.066e+04 3.752e-10
 53.46506     70.3 1.039e+04 3.223e-10
 53.47300     69.9 1.025e+04 2.921e-10
 53.48452     66.9 1.111e+04 4.817e-10
 53.50529     65.6 1.154e+04 8.061e-10
 53.52244     64.9 1.232e+04 1.394e-09
 53.53283     64.7 1.227e+04 1.379e-09
 53.54685     64.7 1.289e+04 1.964e-09
 53.56762     64.4 1.333e+04 2.331e-09
 53.58227     64.4 1.302e+04 2.017e-09
 53.59266     64.5 1.266e+04 1.712e-09
 53.60918     64.1 1.194e+04 1.169e-09
 53.62995     63.6 1.095e+04 7.295e-10
 53.64211     62.2 1.015e+04 3.967e-10
 53.65249     61.8 1.002e+04 3.510e-10
 53.67151     62.1 9.754e+03 3.003e-10
 53.70277     60.7 9.557e+03 2.222e-10
 53.74119     60.2 9.139e+03 1.530e-10
 53.76196     60.6 8.924e+03 1.324e-10
 53.78597     60.3 8.696e+03 1.051e-10
 53.82753     60.4 8.672e+03 1.091e-10
 53.86085     60.4 8.801e+03 1.338e-10
 53.88163     60.7 8.817e+03 1.346e-10
 53.91063     60.7 9.179e+03 1.920e-10
 53.95219     60.7 9.590e+03 2.786e-10
 53.98052     60.9 9.791e+03 3.474e-10
 54.00129     60.9 9.873e+03 3.807e-10
 54.03529     62.0 9.993e+03 3.911e-10
 54.07685     62.4 1.006e+04 3.652e-10
 54.10018     62.0 9.943e+03 3.234e-10
 54.12096     61.8 9.969e+03 3.311e-10
 54.15995     61.3 9.709e+03 2.913e-10
 54.19907     61.4 9.436e+03 2.466e-10
 54.21984     61.3 9.573e+03 2.956e-10
 54.24306     62.1 9.227e+03 2.267e-10
 54.28461     62.6 8.956e+03 1.567e-10
 54.31873     62.1 8.853e+03 1.199e-10
 54.33951     62.1 9.003e+03 1.374e-10
 54.36772     61.7 9.084e+03 1.473e-10
 54.40927     61.6 9.309e+03 1.960e-10
 54.43839     61.9 9.600e+03 2.614e-10
 54.45917     61.8 9.677e+03 2.908e-10
 54.49238     61.7 9.932e+03 3.343e-10
 54.53393     62.4 9.933e+03 3.536e-10
 54.55806     63.5 9.843e+03 3.339e-10
 54.57883     63.7 9.922e+03 3.809e-10
 54.61704     64.1 9.819e+03 3.291e-10
 54.65694     64.0 9.684e+03 2.760e-10
 54.67772     63.7 9.773e+03 3.035e-10
 54.70014     63.8 9.671e+03 2.783e-10
 54.74170     63.2 9.984e+03 3.185e-10
 54.77276     61.7 1.007e+04 3.679e-10
 54.78680     62.5 9.977e+03 3.822e-10
 54.79719     62.8 9.949e+03 3.968e-10
 54.81422     63.5 1.021e+04 4.980e-10
 54.83500     64.2 1.067e+04 6.081e-10
 54.84663     64.0 1.123e+04 7.586e-10
 54.85702     63.8 1.120e+04 7.453e-10
 54.87655     63.5 1.156e+04 8.789e-10
 54.89608     63.2 1.187e+04 1.012e-09
 54.90646     63.4 1.162e+04 9.321e-10
 54.91810     63.5 1.178e+04 9.742e-10
 54.93888     63.7 1.176e+04 9.418e-10
 54.95591     63.9 1.163e+04 8.457e-10
 54.96630     63.8 1.152e+04 7.639e-10
 54.98043     63.6 1.140e+04 6.652e-10
 55.00121     63.0 1.135e+04 5.909e-10
 55.01574     62.5 1.135e+04 5.543e-10
 55.02613     62.1 1.135e+04 5.871e-10
 55.04276     61.6 1.157e+04 6.432e-10
 55.06354     61.3 1.180e+04 7.397e-10
 55.07557     61.3 1.186e+04 8.664e-10
 55.08596     61.4 1.206e+04 1.013e-09
 55.10509     62.0 1.216e+04 1.151e-09
 55.12502     62.4 1.238e+04 1.237e-09
 55.13540     62.6 1.257e+04 1.324e-09
 55.14664     62.5 1.262e+04 1.256e-09
 55.16742     62.0 1.254e+04 1.180e-09
 55.18485     61.2 1.242e+04 1.090e-09
 55.19524     60.8 1.226e+04 9.998e-10
 55.20897     59.4 1.217e+04 9.301e-10
 55.22975     57.7 1.219e+04 9.123e-10
 55.24468     55.7 1.224e+04 9.265e-10
 55.25507     54.9 1.214e+04 9.014e-10
 55.27130     52.5 1.226e+04 9.797e-10
 55.29208     48.3 1.310e+04 1.237e-09
 55.30446     40.5 1.584e+04 1.787e-09
 55.30961     37.4 1.940e+04 1.791e-09
 55.31795     15.4 3.651e+04 4.712e-09
 55.32834     -0.5 3.236e+04 2.571e-08
 55.33433     -8.8 2.789e+04 5.953e-08
 55.33952    -10.5 2.768e+04 6.353e-08
 55.34799    -17.8 2.840e+04 6.054e-08
 55.35318    -20.3 3.007e+04 5.700e-08
 55.35905    -32.6 3.710e+04 1.225e-08
 55.36425    -37.8 3.889e+04 6.726e-09
 55.37514    -57.7 2.892e+04 1.453e-09
 55.39596    -74.5 1.336e+04 8.895e-10
 55.41379    -77.0 1.098e+04 7.861e-10
 55.42418    -77.1 1.098e+04 7.904e-10
 55.43752    -77.0 1.078e+04 7.098e-10
 55.45829    -76.6 1.039e+04 5.942e-10
 55.47362    -76.2 1.005e+04 4.825e-10
 55.48401    -76.2 1.010e+04 4.729e-10
 55.49985    -76.0 1.004e+04 3.966e-10
 55.52062    -76.1 1.014e+04 3.721e-10
 55.53345    -76.4 1.022e+04 3.670e-10
 55.54384    -76.6 1.022e+04 3.699e-10
 55.57260    -78.0 1.018e+04 3.640e-10
 55.61425    -79.2 1.013e+04 3.502e-10
 55.65587    -79.8 9.996e+03 3.219e-10
 55.69236    -80.2 9.957e+03 3.121e-10
 55.71314    -81.6 1.019e+04 3.286e-10
 55.73897    -81.8 1.017e+04 3.277e-10
 55.78053    -81.7 1.021e+04 3.283e-10
 55.81203    -81.3 1.029e+04 3.262e-10
 55.83281    -83.3 1.041e+04 3.231e-10
 55.86363    -83.2 1.048e+04 3.210e-10
 55.90519    -83.3 1.075e+04 3.258e-10
 55.93159    -84.1 1.081e+04 3.666e-10
 55.94189    -85.2 1.074e+04 3.818e-10
 55.95693    -84.2 1.089e+04 4.372e-10
 55.97539    -83.7 1.111e+04 4.977e-10
 55.98578    -84.3 1.122e+04 5.151e-10
 55.99133    -83.9 1.151e+04 5.976e-10
 56.00172    -84.9 1.175e+04 6.920e-10
 56.01926    -85.2 1.212e+04 8.167e-10
 56.04004    -85.8 1.262e+04 1.016e-09
 56.05116    -86.6 1.327e+04 1.353e-09
 56.06155    -88.5 1.381e+04 1.799e-09
 56.08159    -89.2 1.449e+04 2.490e-09
 56.10060    -89.8 1.505e+04 3.302e-09
 56.11099    -91.1 1.542e+04 4.072e-09
 56.12314    -91.5 1.562e+04 4.470e-09
 56.14392    -92.3 1.563e+04 4.524e-09
 56.16044    -92.9 1.539e+04 4.184e-09
 56.17082    -94.4 1.523e+04 3.982e-09
 56.18547    -95.1 1.470e+04 3.233e-09
 56.20625    -96.0 1.401e+04 2.503e-09
 56.22027    -96.8 1.328e+04 1.924e-09
 56.23066    -97.9 1.298e+04 1.791e-09
 56.24780    -98.3 1.241e+04 1.428e-09
 56.26858    -98.5 1.195e+04 1.160e-09
 56.28010    -98.7 1.161e+04 9.642e-10
 56.29049    -99.5 1.159e+04 9.554e-10
 56.31013    -99.6 1.135e+04 8.303e-10
 56.32954    -99.9 1.116e+04 7.412e-10
 56.33993   -100.7 1.118e+04 7.582e-10
 56.35169   -100.8 1.107e+04 7.112e-10
 56.37246   -100.9 1.102e+04 6.844e-10
 56.38938   -101.1 1.103e+04 6.790e-10
 56.39976   -101.8 1.114e+04 6.927e-10
 56.41402   -102.0 1.128e+04 7.063e-10
 56.43479   -102.4 1.152e+04 7.745e-10
 56.44921   -102.9 1.183e+04 9.000e-10
 56.45960   -103.7 1.182e+04 8.897e-10
 56.47635   -104.2 1.218e+04 1.082e-09
 56.49712   -104.7 1.262e+04 1.354e-09
 56.50904   -105.1 1.310e+04 1.706e-09
 56.51943   -105.9 1.312e+04 1.744e-09
 56.53868   -106.4 1.368e+04 2.214e-09
 56.55848   -107.0 1.417e+04 2.692e-09
 56.56887   -107.6 1.415e+04 2.737e-09
 56.58023   -108.4 1.452e+04 3.151e-09
 56.60101   -109.1 1.474e+04 3.411e-09
 56.61831   -109.9 1.485e+04 3.507e-09
 56.62870   -110.3 1.478e+04 3.463e-09
 56.64256   -111.1 1.483e+04 3.486e-09
 56.66334   -112.1 1.483e+04 3.459e-09
 56.67815   -113.3 1.468e+04 3.243e-09
 56.68853   -113.7 1.467e+04 3.267e-09
 56.70489   -115.0 1.444e+04 3.086e-09
 56.72567   -116.2 1.410e+04 2.833e-09
 56.73798   -117.1 1.370e+04 2.515e-09
 56.74837   -117.4 1.402e+04 2.803e-09
 56.76722   -118.1 1.354e+04 2.354e-09
 56.78742   -118.7 1.297e+04 1.877e-09
 56.79781   -119.0 1.317e+04 1.982e-09
 56.80877   -119.6 1.247e+04 1.489e-09
 56.82955   -120.4 1.186e+04 1.146e-09
 56.84725   -121.2 1.141e+04 9.253e-10
 56.85764   -121.4 1.135e+04 9.092e-10
 56.87110   -122.1 1.101e+04 7.748e-10
 56.89188   -122.6 1.081e+04 7.018e-10
 56.90709   -123.1 1.071e+04 6.650e-10
 56.91747   -123.1 1.064e+04 6.537e-10
 56.93343   -123.4 1.058e+04 6.328e-10
 56.95421   -123.6 1.053e+04 6.130e-10
 56.96692   -123.9 1.045e+04 5.852e-10
 56.97731   -123.8 1.039e+04 5.652e-10
 56.99576   -124.1 1.029e+04 5.254e-10
 57.01636   -124.4 1.016e+04 4.818e-10
 57.02675   -124.5 1.014e+04 4.661e-10
 57.03731   -124.9 1.005e+04 4.321e-10
 57.05809   -125.4 1.004e+04 4.180e-10
 57.07619   -126.2 1.005e+04 4.165e-10
 57.08658   -126.8 1.008e+04 4.205e-10
 57.09964   -128.3 1.021e+04 4.253e-10
 57.12042   -130.4 1.069e+04 4.875e-10
 57.13602   -132.7 1.134e+04 6.540e-10
 57.14641   -133.2 1.117e+04 6.648e-10
 57.16197   -135.1 1.172e+04 8.947e-10
 57.18275   -136.7 1.225e+04 1.193e-09
 57.19586   -138.3 1.276e+04 1.528e-09
 57.20624   -138.5 1.240e+04 1.293e-09
 57.22430   -140.3 1.280e+04 1.474e-09
 57.24037   -142.5 1.309e+04 1.617e-09
 57.25076   -144.5 1.296e+04 1.384e-09
 57.25569   -147.1 1.308e+04 1.489e-09
 57.26608   -147.7 1.253e+04 1.089e-09
 57.28663   -150.1 1.253e+04 1.193e-09
 57.30513   -152.1 1.248e+04 1.309e-09
 57.31552   -152.5 1.191e+04 1.002e-09
 57.32819   -154.1 1.187e+04 1.059e-09
 57.34896   -155.6 1.185e+04 1.069e-09
 57.36496   -157.3 1.183e+04 1.065e-09
 57.37535   -157.2 1.145e+04 8.551e-10
 57.39052   -159.1 1.148e+04 8.483e-10
 57.41129   -161.3 1.161e+04 8.534e-10
 57.42480   -163.5 1.186e+04 9.395e-10
 57.43518   -163.5 1.163e+04 7.773e-10
 57.45285   -165.5 1.185e+04 9.167e-10
 57.47362   -167.3 1.197e+04 1.039e-09
 57.48463   -168.9 1.200e+04 1.083e-09
 57.49502   -168.8 1.187e+04 1.017e-09
 57.51518   -170.4 1.187e+04 1.025e-09
 57.53407   -171.6 1.163e+04 9.928e-10
 57.54446   -171.4 1.163e+04 9.932e-10
 57.55673   -172.2 1.117e+04 8.330e-10
 57.57751   -172.5 1.065e+04 6.404e-10
 57.59390   -172.6 1.021e+04 4.878e-10
 57.60429   -172.5 1.020e+04 4.888e-10
 57.61906   -172.7 9.970e+03 4.068e-10
 57.64344   -173.7 9.831e+03 3.565e-10
 57.66432   -173.0 9.789e+03 3.489e-10
 57.69197   -173.9 9.531e+03 2.773e-10
 57.73353   -174.1 9.334e+03 2.296e-10
 57.76321   -174.2 9.299e+03 2.182e-10
 57.78398   -173.4 9.213e+03 1.927e-10
 57.81663   -173.4 9.233e+03 1.919e-10
 57.85819   -173.5 9.540e+03 2.244e-10
 57.88287   -173.8 9.906e+03 3.034e-10
 57.90365   -173.2 9.792e+03 2.515e-10
 57.94129   -173.7 1.011e+04 3.516e-10
 57.98176   -174.4 1.033e+04 4.459e-10
 58.00253   -173.9 1.025e+04 3.956e-10
 58.02440   -174.8 1.038e+04 4.491e-10
 58.06595   -176.0 1.042e+04 4.638e-10
 58.10142   -177.5 1.046e+04 4.688e-10
 58.12220   -177.3 1.028e+04 3.808e-10
 58.14906   -179.2 1.029e+04 3.792e-10
 58.19061   -181.8 1.071e+04 4.138e-10
 58.22108   -184.8 1.157e+04 6.125e-10
 58.24186   -183.7 1.124e+04 5.351e-10
 58.27372   -186.5 1.179e+04 7.444e-10
 58.31527   -189.4 1.199e+04 8.731e-10
 58.34075   -192.3 1.198e+04 8.929e-10
 58.36152   -190.8 1.197e+04 8.756e-10
 58.39838   -193.2 1.165e+04 7.709e-10
 58.42944   -194.3 1.100e+04 5.491e-10
 58.44983   -195.0 1.068e+04 4.364e-10
 58.46022   -194.1 1.073e+04 4.434e-10
 58.47090   -194.9 1.046e+04 3.692e-10
 58.49168   -195.5 1.038e+04 3.383e-10
 58.50536   -196.0 1.038e+04 3.330e-10
 58.51295   -197.0 1.035e+04 3.620e-10
 58.52005   -196.3 1.046e+04 3.821e-10
 58.53323   -197.0 1.045e+04 3.807e-10
 58.55401   -197.8 1.050e+04 3.951e-10
 58.56949   -198.6 1.066e+04 4.558e-10
 58.57988   -198.1 1.081e+04 4.988e-10
 58.59556   -198.7 1.103e+04 5.933e-10
 58.61634   -199.4 1.123e+04 6.889e-10
 58.62932   -200.1 1.139e+04 7.704e-10
 58.63971   -199.6 1.163e+04 8.411e-10
 58.65789   -200.4 1.175e+04 8.979e-10
 58.67867   -201.2 1.182e+04 9.313e-10
 58.68916   -202.1 1.187e+04 9.487e-10
 58.69954   -201.7 1.207e+04 1.010e-09
 58.72022   -202.8 1.211e+04 1.018e-09
 58.73860   -204.1 1.222e+04 1.031e-09
 58.74899   -203.8 1.238e+04 1.090e-09
 58.76177   -205.8 1.276e+04 1.142e-09
 58.78255   -208.4 1.335e+04 1.296e-09
 58.79843   -211.3 1.385e+04 1.583e-09
 58.80882   -212.4 1.432e+04 1.918e-09
 58.82410   -215.3 1.442e+04 2.368e-09
 58.84488   -217.8 1.427e+04 2.593e-09
 58.85826   -219.8 1.417e+04 2.627e-09
 58.86865   -220.4 1.451e+04 3.141e-09
 58.88643   -221.8 1.375e+04 2.762e-09
 58.90721   -223.1 1.299e+04 1.977e-09
 58.91809   -224.5 1.222e+04 1.288e-09
 58.92848   -225.4 1.233e+04 1.294e-09
 58.94876   -227.2 1.146e+04 8.407e-10
 58.96754   -228.7 1.078e+04 6.031e-10
 58.97793   -229.6 1.078e+04 6.467e-10
 58.99032   -230.5 1.040e+04 5.391e-10
 59.01109   -230.9 1.022e+04 4.894e-10
 59.02737   -231.1 1.014e+04 4.664e-10
 59.03776   -231.3 1.023e+04 5.099e-10
 59.05264   -231.4 1.017e+04 4.877e-10
 59.07342   -231.5 1.013e+04 4.682e-10
 59.08720   -231.4 1.007e+04 4.431e-10
 59.09759   -231.6 1.018e+04 4.798e-10
 59.11497   -231.5 1.010e+04 4.433e-10
 59.13674   -231.1 9.928e+03 3.795e-10
 59.15752   -231.9 1.001e+04 4.144e-10
 59.17730   -232.1 9.937e+03 3.896e-10
 59.19648   -232.6 9.917e+03 3.803e-10
 59.20687   -233.3 1.008e+04 4.506e-10
 59.21886   -234.1 1.008e+04 4.495e-10
 59.23963   -235.1 1.011e+04 4.575e-10
 59.25631   -236.3 1.035e+04 5.317e-10
 59.26670   -236.4 1.074e+04 6.885e-10
 59.28119   -237.2 1.111e+04 8.442e-10
 59.30196   -238.1 1.143e+04 9.962e-10
 59.31614   -239.3 1.164e+04 1.081e-09
 59.32653   -239.5 1.178e+04 1.125e-09
 59.34352   -241.0 1.181e+04 1.125e-09
 59.36429   -242.8 1.179e+04 1.058e-09
 59.37597   -244.7 1.173e+04 9.557e-10
 59.38636   -245.6 1.180e+04 9.507e-10
 59.40585   -247.8 1.179e+04 9.105e-10
 59.42542   -250.2 1.179e+04 9.053e-10
 59.43580   -251.1 1.187e+04 9.468e-10
 59.44740   -253.4 1.206e+04 1.001e-09
 59.46818   -255.6 1.232e+04 1.150e-09
 59.48525   -257.6 1.253e+04 1.318e-09
 59.49564   -258.3 1.244e+04 1.304e-09
 59.50973   -260.3 1.247e+04 1.371e-09
 59.53051   -262.2 1.246e+04 1.381e-09
 59.54508   -263.9 1.229e+04 1.365e-09
 59.55547   -264.4 1.192e+04 1.218e-09
 59.57206   -265.7 1.152e+04 1.051e-09
 59.59284   -266.9 1.109e+04 8.627e-10
 59.60491   -268.0 1.069e+04 7.047e-10
 59.61530   -268.4 1.040e+04 6.109e-10
 59.63439   -269.4 1.009e+04 5.154e-10
 59.65436   -270.4 9.871e+03 4.516e-10
 59.66474   -270.8 9.740e+03 4.229e-10
 59.67594   -271.5 9.671e+03 3.976e-10
 59.69672   -272.1 9.638e+03 3.872e-10
 59.71429   -273.1 9.609e+03 3.748e-10
 59.73516   -272.6 9.401e+03 3.414e-10
 59.76015   -273.6 9.244e+03 3.014e-10
 59.78093   -274.2 9.419e+03 3.131e-10
 59.81119   -274.6 9.229e+03 2.634e-10
 59.83405   -275.1 9.020e+03 2.173e-10
 59.85482   -275.3 8.632e+03 1.685e-10
 59.89429   -275.8 8.453e+03 1.433e-10
 59.93293   -276.1 8.334e+03 1.307e-10
 59.95371   -276.3 8.272e+03 1.278e-10
 59.97740   -276.1 8.261e+03 1.269e-10
 60.01895   -275.8 8.262e+03 1.269e-10
 60.05260   -275.7 8.323e+03 1.323e-10
 60.07337   -276.2 8.405e+03 1.494e-10
 60.10206   -276.3 8.910e+03 2.108e-10
 60.14361   -276.3 9.548e+03 3.203e-10
 60.17226   -276.4 1.017e+04 4.793e-10
 60.19304   -277.9 1.094e+04 6.799e-10
 60.22672   -277.5 1.122e+04 8.492e-10
 60.25779   -277.2 1.136e+04 9.549e-10
 60.27846   -276.6 1.138e+04 1.070e-09
 60.29173   -276.9 1.170e+04 1.300e-09
 60.30212   -280.1 1.395e+04 2.270e-09
 60.32002   -281.5 1.560e+04 3.385e-09
 60.34079   -282.8 1.741e+04 5.308e-09
 60.35156   -284.0 1.906e+04 8.373e-09
 60.36195   -285.8 1.984e+04 1.345e-08
 60.37623   -285.4 2.039e+04 1.560e-08
 60.38138   -286.3 2.050e+04 1.781e-08
 60.38744   -286.2 2.094e+04 2.187e-08
 60.39755   -286.1 2.139e+04 2.678e-08
 60.40274   -286.5 2.176e+04 3.478e-08
 60.40610   -286.4 2.231e+04 4.669e-08
 60.41130   -287.4 2.228e+04 4.463e-08
 60.41861   -287.8 2.264e+04 5.815e-08
 60.42900   -288.7 2.273e+04 7.269e-08
 60.43602   -289.4 2.259e+04 8.630e-08
 60.44121   -290.1 2.224e+04 6.130e-08
 60.44977   -290.1 2.226e+04 6.895e-08
 60.46016   -290.2 2.233e+04 7.398e-08
 60.46593   -290.5 2.235e+04 7.527e-08
 60.47113   -291.5 2.231e+04 4.348e-08
 60.48094   -291.8 2.208e+04 4.173e-08
 60.49066   -292.0 2.177e+04 3.709e-08
 60.49585   -293.1 2.177e+04 2.109e-08
 60.50171   -293.3 2.136e+04 1.908e-08
 60.51210   -293.3 2.087e+04 1.703e-08
 60.52057   -293.2 2.034e+04 1.512e-08
 60.53101   -294.5 1.940e+04 8.934e-09
 60.54856   -293.9 1.873e+04 7.667e-09
 60.56934   -293.0 1.826e+04 6.714e-09
 60.58050   -292.0 1.801e+04 6.124e-09
 60.59089   -292.8 1.687e+04 3.873e-09
 60.61089   -291.9 1.721e+04 4.136e-09
 60.62994   -291.1 1.750e+04 4.539e-09
 60.64033   -291.5 1.691e+04 3.264e-09
 60.65244   -291.0 1.753e+04 4.055e-09
 60.67322   -290.5 1.805e+04 5.182e-09
 60.68978   -290.0 1.855e+04 6.672e-09
 60.70016   -290.2 1.812e+04 5.096e-09
 60.71477   -289.7 1.855e+04 7.249e-09
 60.73555   -288.8 1.894e+04 1.076e-08
 60.74961   -287.3 1.938e+04 1.710e-08
 60.76000   -286.9 1.957e+04 1.065e-08
 60.77710   -285.9 2.067e+04 1.428e-08
 60.79788   -285.6 2.160e+04 1.727e-08
 60.80939   -287.0 2.152e+04 1.192e-08
 60.81978   -288.9 1.936e+04 8.776e-09
 60.83943   -289.5 1.909e+04 9.255e-09
 60.85888   -290.0 1.894e+04 9.353e-09
 60.86927   -291.1 1.726e+04 7.275e-09
 60.88099   -291.3 1.732e+04 7.344e-09
 60.90176   -291.5 1.732e+04 7.309e-09
 60.91872   -291.4 1.706e+04 6.836e-09
 60.92910   -292.3 1.631e+04 6.461e-09
 60.94332   -291.6 1.584e+04 5.765e-09
 60.96409   -290.7 1.550e+04 5.249e-09
 60.97855   -289.7 1.530e+04 4.970e-09
 60.98894   -289.2 1.469e+04 4.189e-09
 61.00564   -287.9 1.465e+04 3.916e-09
 61.02494   -286.6 1.473e+04 3.746e-09
 61.03533   -286.6 1.407e+04 2.864e-09
 61.03838   -285.4 1.414e+04 2.803e-09
 61.04877   -286.0 1.337e+04 1.820e-09
 61.06797   -285.0 1.348e+04 1.613e-09
 61.08782   -284.1 1.353e+04 1.401e-09
 61.09821   -286.5 1.129e+04 6.995e-10
 61.10953   -286.1 1.074e+04 5.828e-10
 61.13030   -285.7 1.021e+04 4.997e-10
 61.14765   -285.2 9.871e+03 4.439e-10
 61.15804   -285.5 9.523e+03 3.847e-10
 61.17186   -284.5 9.460e+03 3.615e-10
 61.19263   -283.5 9.460e+03 3.543e-10
 61.20749   -282.4 9.463e+03 3.533e-10
 61.21787   -282.0 9.760e+03 3.134e-10
 61.23419   -281.1 9.805e+03 3.128e-10
 61.25496   -280.2 9.861e+03 3.127e-10
 61.26732   -279.2 9.938e+03 3.172e-10
 61.27771   -279.2 9.923e+03 3.153e-10
 61.30647   -278.3 1.010e+04 3.368e-10
 61.32735   -277.3 9.788e+03 3.066e-10
 61.34865   -275.3 1.041e+04 4.187e-10
 61.39021   -273.4 1.129e+04 6.970e-10
 61.42623   -271.6 1.205e+04 1.119e-09
 61.44701   -272.4 1.197e+04 1.062e-09
 61.47331   -271.2 1.274e+04 1.665e-09
 61.49636   -270.4 1.320e+04 2.315e-09
 61.50665   -270.4 1.324e+04 2.326e-09
 61.52506   -269.2 1.356e+04 2.718e-09
 61.54570   -268.4 1.395e+04 3.113e-09
 61.55609   -268.8 1.473e+04 3.305e-09
 61.56661   -268.7 1.551e+04 4.064e-09
 61.58739   -268.8 1.610e+04 4.773e-09
 61.60553   -268.7 1.645e+04 5.356e-09
 61.61592   -270.1 1.745e+04 5.949e-09
 61.62894   -269.7 1.734e+04 6.455e-09
 61.64972   -269.2 1.726e+04 6.582e-09
 61.66536   -268.6 1.700e+04 6.631e-09
 61.67575   -269.5 1.614e+04 5.717e-09
 61.69127   -268.5 1.569e+04 5.195e-09
 61.71205   -267.4 1.523e+04 4.470e-09
 61.72520   -266.3 1.474e+04 3.690e-09
 61.73558   -267.2 1.369e+04 2.546e-09
 61.75360   -266.3 1.327e+04 2.067e-09
 61.77438   -265.4 1.284e+04 1.698e-09
 61.78503   -264.5 1.244e+04 1.441e-09
 61.79542   -265.1 1.199e+04 1.208e-09
 61.81593   -264.1 1.181e+04 1.126e-09
 61.83447   -262.9 1.174e+04 1.101e-09
 61.84486   -262.8 1.167e+04 1.081e-09
 61.85749   -261.4 1.168e+04 1.091e-09
 61.87826   -260.0 1.184e+04 1.188e-09
 61.89430   -258.7 1.214e+04 1.371e-09
 61.90469   -258.2 1.242e+04 1.510e-09
 61.91982   -257.1 1.308e+04 1.852e-09
 61.94059   -256.2 1.395e+04 2.352e-09
 61.95414   -255.7 1.502e+04 3.058e-09
 61.96452   -256.3 1.726e+04 4.688e-09
 61.98214   -256.0 1.889e+04 6.825e-09
 62.00292   -256.0 2.036e+04 9.654e-09
 62.01392   -256.9 2.144e+04 1.191e-08
 62.01906   -256.8 2.213e+04 1.259e-08
 62.02879   -257.3 2.267e+04 1.702e-08
 62.03859   -257.7 2.312e+04 2.256e-08
 62.04379   -257.8 2.293e+04 3.227e-08
 62.04957   -257.8 2.301e+04 4.418e-08
 62.05996   -257.7 2.318e+04 5.537e-08
 62.06851   -257.9 2.328e+04 6.256e-08
 62.07370   -257.3 2.256e+04 9.594e-08
 62.08074   -257.9 2.259e+04 1.061e-07
 62.09112   -258.0 2.270e+04 1.134e-07
 62.09842   -257.7 2.294e+04 1.201e-07
 62.10362   -256.6 2.316e+04 2.410e-07
 62.11190   -257.1 2.412e+04 2.900e-07
 62.12229   -259.9 2.520e+04 2.972e-07
 62.12834   -264.4 2.561e+04 2.893e-07
 62.13091   -264.9 2.322e+04 7.122e-07
 62.13523   -267.7 2.323e+04 7.185e-07
 62.14042   -270.9 2.321e+04 6.815e-07
 62.14325   -273.0 2.340e+04 5.950e-07
 62.14585   -274.7 2.286e+04 8.216e-07
 62.15081   -276.6 2.328e+04 6.344e-07
 62.15561   -277.4 2.338e+04 5.599e-07
 62.15821   -280.0 2.164e+04 1.078e-06
 62.16120   -279.8 2.158e+04 1.083e-06
 62.16639   -279.8 2.154e+04 1.091e-06
 62.17057   -280.4 2.164e+04 1.031e-06
 62.17316   -281.4 2.065e+04 1.593e-06
 62.17678   -281.7 2.058e+04 1.477e-06
 62.18197   -281.5 2.102e+04 1.072e-06
 62.18553   -281.5 2.158e+04 7.152e-07
 62.18812   -281.8 2.111e+04 7.638e-07
 62.19236   -281.7 2.158e+04 4.886e-07
 62.19756   -281.6 2.178e+04 3.600e-07
 62.20537   -281.6 2.173e+04 2.883e-07
 62.21289   -280.5 2.132e+04 1.914e-07
 62.21809   -278.9 2.136e+04 1.207e-07
 62.22617   -277.3 2.098e+04 7.933e-08
 62.23656   -275.7 2.058e+04 5.600e-08
 62.24281   -274.4 2.035e+04 4.264e-08
 62.24800   -274.9 2.049e+04 3.076e-08
 62.25734   -273.9 2.011e+04 2.564e-08
 62.26753   -273.1 1.982e+04 2.190e-08
 62.27273   -273.5 1.940e+04 1.535e-08
 62.27811   -272.9 1.909e+04 1.327e-08
 62.28850   -272.4 1.878e+04 1.148e-08
 62.29503   -272.0 1.844e+04 9.945e-09
 62.29878   -271.9 1.882e+04 1.110e-08
 62.30264   -272.3 1.820e+04 7.574e-09
 62.30928   -271.8 1.777e+04 6.705e-09
 62.31967   -271.3 1.730e+04 5.911e-09
 62.32736   -270.6 1.672e+04 5.092e-09
 62.33256   -271.5 1.573e+04 3.885e-09
 62.34044   -270.6 1.578e+04 3.927e-09
 62.35213   -269.8 1.587e+04 3.986e-09
 62.36257   -271.3 1.365e+04 1.993e-09
 62.37690   -270.2 1.315e+04 1.682e-09
 62.39768   -268.9 1.278e+04 1.464e-09
 62.41201   -267.6 1.252e+04 1.323e-09
 62.42240   -268.4 1.130e+04 7.868e-10
 62.43923   -267.1 1.129e+04 7.633e-10
 62.46001   -265.8 1.129e+04 7.454e-10
 62.47185   -264.5 1.131e+04 7.311e-10
 62.48223   -264.8 1.078e+04 5.709e-10
 62.50156   -263.6 1.080e+04 5.664e-10
 62.52129   -262.5 1.080e+04 5.649e-10
 62.53168   -262.4 1.050e+04 4.860e-10
 62.54311   -261.4 1.055e+04 4.957e-10
 62.56389   -260.4 1.060e+04 5.104e-10
 62.58112   -259.5 1.066e+04 5.300e-10
 62.59151   -259.3 1.052e+04 4.918e-10
 62.60544   -258.4 1.061e+04 5.216e-10
 62.62622   -257.5 1.072e+04 5.537e-10
 62.64095   -256.6 1.083e+04 5.859e-10
 62.65134   -256.2 1.070e+04 5.556e-10
 62.66777   -255.4 1.081e+04 5.906e-10
 62.68855   -254.6 1.091e+04 6.160e-10
 62.70079   -253.9 1.098e+04 6.270e-10
 62.71117   -253.2 1.081e+04 5.942e-10
 62.73010   -252.6 1.084e+04 6.011e-10
 62.75023   -251.9 1.086e+04 6.030e-10
 62.76062   -251.0 1.070e+04 5.596e-10
 62.77166   -250.4 1.069e+04 5.629e-10
 62.79243   -249.7 1.069e+04 5.673e-10
 62.81006   -249.0 1.072e+04 5.714e-10
 62.82045   -248.0 1.057e+04 5.252e-10
 62.83399   -247.2 1.057e+04 5.394e-10
 62.85476   -246.4 1.066e+04 5.653e-10
 62.86989   -245.7 1.079e+04 6.064e-10
 62.88028   -244.6 1.061e+04 5.461e-10
 62.89632   -243.9 1.076e+04 5.930e-10
 62.91709   -243.1 1.095e+04 6.533e-10
 62.92972   -242.3 1.116e+04 7.102e-10
 62.94011   -241.3 1.095e+04 6.459e-10
 62.95864   -240.5 1.117e+04 7.069e-10
 62.97917   -239.8 1.135e+04 7.569e-10
 62.98956   -238.8 1.118e+04 7.069e-10
 63.00020   -238.1 1.136e+04 7.585e-10
 63.02097   -237.5 1.147e+04 7.826e-10
 63.03900   -237.0 1.150e+04 7.871e-10
 63.04939   -236.0 1.142e+04 7.733e-10
 63.06253   -235.5 1.143e+04 7.752e-10
 63.08330   -235.0 1.143e+04 7.528e-10
 63.09883   -234.5 1.131e+04 6.837e-10
 63.10922   -233.4 1.128e+04 7.118e-10
 63.12486   -233.0 1.114e+04 6.306e-10
 63.14563   -232.7 1.100e+04 5.560e-10
 63.15866   -232.5 1.086e+04 5.034e-10
 63.16905   -231.3 1.112e+04 5.585e-10
 63.18719   -231.1 1.101e+04 5.042e-10
 63.20796   -231.0 1.094e+04 4.804e-10
 63.21850   -230.9 1.091e+04 4.741e-10
 63.22888   -230.8 1.094e+04 4.815e-10
 63.25765   -231.0 1.095e+04 4.831e-10
 63.27852   -228.8 1.119e+04 5.517e-10
 63.30165   -228.8 1.114e+04 5.214e-10
 63.34321   -228.9 1.113e+04 5.225e-10
 63.37741   -229.2 1.119e+04 6.484e-10
 63.39819   -227.7 1.098e+04 5.015e-10
 63.42631   -227.9 1.099e+04 5.333e-10
 63.46787   -227.6 1.102e+04 6.582e-10
 63.49707   -227.2 1.102e+04 7.767e-10
 63.50736   -226.0 1.079e+04 5.751e-10
 63.51961   -225.7 1.079e+04 6.246e-10
 63.55088   -225.5 1.080e+04 6.760e-10
 63.59253   -224.6 1.080e+04 7.396e-10
 63.61674   -223.8 1.079e+04 7.474e-10
 63.62703   -222.6 1.091e+04 7.350e-10
 63.64427   -222.5 1.085e+04 7.468e-10
 63.66505   -222.4 1.082e+04 7.499e-10
 63.67637   -222.2 1.073e+04 7.509e-10
 63.68676   -221.6 1.083e+04 7.665e-10
 63.70660   -221.5 1.080e+04 7.713e-10
 63.72582   -221.3 1.077e+04 7.815e-10
 63.73621   -221.2 1.091e+04 8.357e-10
 63.74816   -221.2 1.094e+04 8.622e-10
 63.76893   -221.1 1.100e+04 8.917e-10
 63.78565   -221.0 1.107e+04 9.245e-10
 63.79604   -221.1 1.118e+04 9.628e-10
 63.81049   -220.9 1.120e+04 9.862e-10
 63.83126   -220.7 1.122e+04 1.002e-09
 63.84548   -220.4 1.122e+04 1.009e-09
 63.85587   -220.3 1.124e+04 1.011e-09
 63.87282   -219.9 1.115e+04 9.844e-10
 63.89359   -219.6 1.103e+04 9.466e-10
 63.90531   -219.2 1.090e+04 8.948e-10
 63.91570   -218.9 1.069e+04 7.963e-10
 63.93514   -218.4 1.048e+04 7.181e-10
 63.95476   -217.8 1.025e+04 6.369e-10
 63.96514   -217.5 1.009e+04 5.510e-10
 63.97670   -216.6 9.791e+03 4.553e-10
 63.99747   -215.6 9.539e+03 3.728e-10
 64.01459   -214.6 9.377e+03 3.190e-10
 64.02498   -214.6 9.373e+03 3.120e-10
 64.04951   -214.2 9.314e+03 2.893e-10
 64.07462   -213.5 9.267e+03 2.698e-10
 64.09539   -212.3 9.124e+03 2.610e-10
 64.13272   -210.5 8.954e+03 2.367e-10
 64.17350   -208.5 8.923e+03 2.312e-10
 64.19428   -207.4 8.988e+03 2.541e-10
 64.21582   -205.3 8.973e+03 2.495e-10
 64.25738   -203.4 9.003e+03 2.540e-10
 64.29317   -201.7 9.401e+03 3.261e-10
 64.31394   -200.3 9.089e+03 2.747e-10
 64.34048   -198.7 9.509e+03 3.473e-10
 64.38204   -197.3 9.995e+03 4.813e-10
 64.41283   -195.8 1.037e+04 6.324e-10
 64.43361   -194.6 9.937e+03 4.458e-10
 64.46514   -193.2 1.023e+04 5.541e-10
 64.50670   -191.9 1.039e+04 6.278e-10
 64.53240   -190.7 1.028e+04 5.713e-10
 64.54269   -189.7 1.006e+04 4.695e-10
 64.55844   -189.1 1.009e+04 4.887e-10
 64.57922   -188.3 1.010e+04 4.954e-10
 64.59213   -187.6 1.008e+04 4.954e-10
 64.60252   -187.3 1.001e+04 4.641e-10
 64.62077   -186.3 9.981e+03 4.597e-10
 64.64155   -185.5 9.933e+03 4.478e-10
 64.67281   -183.7 9.887e+03 3.986e-10
 64.71446   -182.5 9.715e+03 3.560e-10
 64.75104   -181.2 9.469e+03 3.057e-10
 64.77182   -180.6 9.293e+03 2.460e-10
 64.79757   -179.2 9.074e+03 2.160e-10
 64.82010   -177.8 8.888e+03 1.930e-10
 64.84087   -178.2 8.740e+03 1.682e-10
 64.87071   -176.8 8.633e+03 1.569e-10
 64.89149   -176.2 8.673e+03 1.572e-10
 64.92223   -174.9 8.614e+03 1.536e-10
 64.96378   -173.6 8.567e+03 1.514e-10
 64.99037   -172.2 8.520e+03 1.505e-10
 65.01115   -172.0 8.660e+03 1.678e-10
 65.04689   -170.6 8.641e+03 1.677e-10
 65.08844   -169.3 8.636e+03 1.678e-10
 65.11004   -167.9 8.633e+03 1.690e-10
 65.13081   -167.7 8.868e+03 2.060e-10
 65.17155   -166.4 8.869e+03 2.149e-10
 65.20892   -165.2 9.008e+03 2.511e-10
 65.22970   -165.0 9.288e+03 2.996e-10
 65.25465   -164.0 9.503e+03 3.628e-10
 65.29621   -163.1 9.658e+03 4.216e-10
 65.32859   -162.4 9.699e+03 4.460e-10
 65.34936   -162.7 9.831e+03 4.521e-10
 65.37931   -162.1 9.721e+03 4.365e-10
 65.42087   -161.3 9.480e+03 3.782e-10
 65.44825   -160.6 9.251e+03 3.228e-10
 65.46903   -160.9 9.290e+03 3.254e-10
 65.50397   -160.2 9.152e+03 3.025e-10
 65.54553   -159.3 9.061e+03 2.908e-10
 65.56791   -158.5 8.970e+03 2.795e-10
 65.58869   -158.5 9.056e+03 2.919e-10
 65.62863   -157.6 8.882e+03 2.627e-10
 65.66680   -156.6 8.710e+03 2.352e-10
 65.68758   -156.4 8.675e+03 2.176e-10
 65.71174   -155.3 8.517e+03 1.935e-10
 65.75329   -154.3 8.422e+03 1.802e-10
 65.78647   -153.2 8.366e+03 1.735e-10
 65.80724   -152.7 8.364e+03 1.583e-10
 65.83640   -151.5 8.332e+03 1.608e-10
 65.87795   -150.2 8.336e+03 1.644e-10
 65.90613   -148.9 8.321e+03 1.662e-10
 65.92691   -148.1 8.369e+03 1.658e-10
 65.96106   -146.6 8.360e+03 1.661e-10
 66.00261   -145.0 8.355e+03 1.659e-10
 66.02579   -143.2 8.366e+03 1.673e-10
 66.04657   -142.1 8.362e+03 1.593e-10
 66.08572   -140.2 8.380e+03 1.543e-10
 66.12468   -138.4 8.408e+03 1.539e-10
 66.14546   -137.1 8.315e+03 1.271e-10
 66.16882   -135.3 8.321e+03 1.188e-10
 66.21038   -133.4 8.332e+03 1.166e-10
 66.24434   -131.5 8.375e+03 1.187e-10
 66.26512   -130.3 8.262e+03 8.508e-11
 66.29348   -128.4 8.297e+03 8.502e-11
 66.33504   -126.6 8.438e+03 9.308e-11
 66.36401   -124.8 8.627e+03 1.133e-10
 66.38478   -123.6 8.310e+03 6.581e-11
 66.41814   -121.8 8.508e+03 7.431e-11
 66.45970   -120.2 8.649e+03 9.495e-11
 66.48367   -118.7 8.793e+03 1.261e-10
 66.50445   -117.2 8.562e+03 7.847e-11
 66.54280   -115.7 8.703e+03 1.084e-10
 66.58256   -114.3 8.930e+03 1.499e-10
 66.60334   -112.5 8.721e+03 1.137e-10
 66.62591   -111.1 8.941e+03 1.505e-10
 66.66746   -109.8 9.324e+03 2.061e-10
 66.70222   -108.8 9.859e+03 2.962e-10
 66.72300   -106.7 9.372e+03 1.982e-10
 66.75057   -105.9 9.930e+03 2.849e-10
 66.79212   -105.2 1.047e+04 4.227e-10
 66.82189   -104.5 1.087e+04 5.766e-10
 66.84266   -102.3 1.056e+04 4.424e-10
 66.87523   -101.5 1.087e+04 5.748e-10
 66.91678   -101.1 1.095e+04 6.154e-10
 66.94155   -100.8 1.085e+04 5.916e-10
 66.96233    -98.2 1.092e+04 6.099e-10
 66.99989    -97.9 1.060e+04 4.839e-10
 67.04044    -97.5 1.011e+04 3.195e-10
 67.06121    -94.8 1.036e+04 3.910e-10
 67.08299    -94.6 9.949e+03 2.696e-10
 67.12455    -94.4 9.854e+03 2.453e-10
 67.16010    -94.1 9.862e+03 2.476e-10
 67.18088    -91.4 9.933e+03 2.666e-10
 67.20765    -91.1 9.990e+03 2.894e-10
 67.24921    -90.8 1.006e+04 3.276e-10
 67.27976    -90.4 1.008e+04 3.407e-10
 67.30054    -87.7 1.024e+04 3.669e-10
 67.32929    -87.2 1.023e+04 3.700e-10
 67.35007    -88.4 1.038e+04 4.258e-10
 67.37387    -88.0 1.017e+04 3.596e-10
 67.39943    -87.8 9.907e+03 2.784e-10
 67.42020    -85.4 1.018e+04 3.276e-10
 67.45697    -85.5 9.931e+03 2.635e-10
 67.49832    -85.6 9.667e+03 2.181e-10
 67.51909    -83.6 9.979e+03 2.748e-10
 67.54008    -83.7 9.722e+03 2.386e-10
 67.58163    -83.6 9.511e+03 2.057e-10
 67.61798    -83.3 9.303e+03 1.725e-10
 67.63876    -81.5 9.484e+03 1.997e-10
 67.66474    -81.1 9.252e+03 1.602e-10
 67.70629    -80.7 9.084e+03 1.386e-10
 67.73764    -80.4 9.052e+03 1.316e-10
 67.75842    -79.3 9.326e+03 1.523e-10
 67.78940    -79.2 9.550e+03 1.773e-10
 67.83095    -79.2 9.718e+03 2.321e-10
 67.85731    -79.2 9.926e+03 3.029e-10
 67.87808    -78.0 1.033e+04 3.920e-10
 67.91406    -78.3 1.071e+04 4.743e-10
 67.95561    -80.5 1.148e+04 6.289e-10
 67.97687    -81.4 1.186e+04 7.516e-10
 67.98716    -82.0 1.236e+04 9.157e-10
 68.00736    -84.2 1.275e+04 1.247e-09
 68.02622    -86.2 1.284e+04 1.462e-09
 68.03661    -86.9 1.325e+04 1.844e-09
 68.04891    -88.6 1.319e+04 1.866e-09
 68.06969    -90.2 1.278e+04 1.600e-09
 68.08605    -92.4 1.221e+04 1.191e-09
 68.09644    -93.0 1.251e+04 1.309e-09
 68.11124    -95.9 1.183e+04 9.552e-10
 68.13202    -98.7 1.128e+04 7.693e-10
 68.14588   -100.9 1.093e+04 6.731e-10
 68.15627   -102.0 1.112e+04 7.408e-10
 68.17357   -103.7 1.091e+04 6.655e-10
 68.19435   -105.5 1.076e+04 5.968e-10
 68.20571   -107.2 1.060e+04 5.202e-10
 68.21610   -108.3 1.072e+04 5.498e-10
 68.23590   -109.9 1.047e+04 4.554e-10
 68.25516   -111.4 1.027e+04 3.931e-10
 68.26555   -112.0 1.023e+04 3.897e-10
 68.28794   -113.4 1.005e+04 3.481e-10
 68.31518   -116.1 9.569e+03 2.774e-10
 68.33596   -117.9 9.378e+03 2.460e-10
 68.37114   -121.0 8.882e+03 1.933e-10
 68.41270   -123.7 8.668e+03 1.726e-10
 68.43485   -126.8 8.655e+03 1.699e-10
 68.45563   -129.0 8.686e+03 1.685e-10
 68.49580   -135.5 1.045e+04 2.304e-10
 68.52687   -142.7 1.294e+04 6.330e-10
 68.54393   -147.6 1.452e+04 1.695e-09
 68.55432   -149.6 1.476e+04 2.235e-09
 68.56833   -153.5 1.564e+04 3.950e-09
 68.58910   -157.2 1.630e+04 4.894e-09
 68.60376   -161.8 1.644e+04 5.078e-09
 68.60874   -164.1 1.615e+04 4.608e-09
 68.61486   -162.4 1.581e+04 4.269e-09
 68.63066   -167.0 1.546e+04 3.772e-09
 68.65143   -171.8 1.437e+04 2.618e-09
 68.66359   -176.4 1.314e+04 1.821e-09
 68.67398   -180.1 1.358e+04 1.992e-09
 68.69299   -183.9 1.348e+04 1.900e-09
 68.71304   -187.0 1.338e+04 1.963e-09
 68.72342   -190.3 1.424e+04 2.815e-09
 68.73454   -192.2 1.404e+04 3.328e-09
 68.75532   -194.0 1.447e+04 4.144e-09
 68.77287   -196.7 1.675e+04 5.554e-09
 68.78326   -197.9 1.614e+04 4.146e-09
 68.79687   -203.6 2.064e+04 4.901e-09
 68.81765   -211.5 2.450e+04 6.685e-09
 68.83265   -221.2 2.525e+04 9.407e-09
 68.84304   -225.9 2.376e+04 1.155e-08
 68.85396   -228.8 2.330e+04 1.863e-08
 68.86252   -230.2 2.284e+04 2.786e-08
 68.86771   -231.4 2.270e+04 2.953e-08
 68.87468   -231.8 2.292e+04 4.374e-08
 68.88507   -232.0 2.306e+04 6.608e-08
 68.89243   -232.3 2.324e+04 9.425e-08
 68.89763   -233.3 2.338e+04 6.747e-08
 68.90585   -234.2 2.341e+04 7.489e-08
 68.91624   -235.4 2.339e+04 7.660e-08
 68.92235   -236.6 2.324e+04 7.514e-08
 68.92754   -237.0 2.328e+04 3.889e-08
 68.93701   -237.9 2.283e+04 3.182e-08
 68.94707   -238.9 2.215e+04 2.502e-08
 68.95227   -239.8 2.064e+04 1.339e-08
 68.96303   -240.2 2.003e+04 1.216e-08
 68.98386   -240.2 1.903e+04 1.060e-08
 69.00181   -239.7 1.831e+04 9.762e-09
 69.01220   -240.4 1.731e+04 6.269e-09
 69.02541   -239.7 1.705e+04 6.281e-09
 69.04619   -238.7 1.690e+04 6.390e-09
 69.06164   -237.6 1.677e+04 6.821e-09
 69.07203   -237.8 1.612e+04 4.968e-09
 69.08774   -236.6 1.619e+04 5.310e-09
 69.10852   -235.4 1.615e+04 5.495e-09
 69.12147   -234.2 1.609e+04 5.521e-09
 69.13186   -234.3 1.566e+04 4.611e-09
 69.15007   -233.0 1.562e+04 4.661e-09
 69.17085   -231.7 1.539e+04 4.601e-09
 69.19162   -230.6 1.514e+04 4.430e-09
 69.21240   -229.3 1.484e+04 4.219e-09
 69.23075   -227.9 1.447e+04 3.800e-09
 69.24113   -228.0 1.481e+04 4.465e-09
 69.25395   -226.7 1.453e+04 4.168e-09
 69.27473   -225.3 1.421e+04 3.740e-09
 69.29058   -223.9 1.391e+04 3.280e-09
 69.30097   -224.0 1.445e+04 4.283e-09
 69.31628   -222.6 1.420e+04 3.915e-09
 69.33706   -221.3 1.394e+04 3.517e-09
 69.35041   -220.0 1.368e+04 3.111e-09
 69.36080   -220.1 1.388e+04 3.515e-09
 69.37861   -218.7 1.356e+04 3.163e-09
 69.39939   -217.3 1.327e+04 2.861e-09
 69.41024   -216.0 1.303e+04 2.610e-09
 69.42063   -216.0 1.295e+04 2.510e-09
 69.44094   -214.9 1.273e+04 2.317e-09
 69.45969   -213.6 1.258e+04 2.187e-09
 69.47007   -213.4 1.241e+04 1.920e-09
 69.48250   -212.0 1.240e+04 1.902e-09
 69.50327   -210.7 1.240e+04 1.898e-09
 69.51952   -209.6 1.242e+04 1.923e-09
 69.52991   -209.8 1.220e+04 1.369e-09
 69.54483   -208.5 1.224e+04 1.423e-09
 69.56560   -207.1 1.228e+04 1.522e-09
 69.57935   -205.8 1.238e+04 1.648e-09
 69.58974   -206.4 1.223e+04 1.042e-09
 69.60716   -205.0 1.236e+04 1.135e-09
 69.62793   -203.6 1.249e+04 1.242e-09
 69.63918   -202.1 1.261e+04 1.368e-09
 69.64957   -203.0 1.180e+04 7.800e-10
 69.66949   -201.6 1.203e+04 8.674e-10
 69.68862   -200.2 1.226e+04 9.772e-10
 69.69901   -201.1 1.071e+04 5.956e-10
 69.71104   -199.8 1.103e+04 6.669e-10
 69.73182   -198.5 1.136e+04 7.563e-10
 69.74846   -197.2 1.169e+04 8.637e-10
 69.75884   -198.0 1.056e+04 6.622e-10
 69.77337   -196.9 1.080e+04 7.367e-10
 69.79415   -195.9 1.104e+04 8.182e-10
 69.80829   -195.1 1.127e+04 9.053e-10
 69.81868   -195.1 1.076e+04 8.030e-10
 69.83570   -194.2 1.086e+04 8.560e-10
 69.85647   -193.4 1.097e+04 9.037e-10
 69.86812   -192.5 1.109e+04 9.588e-10
 69.87072   -192.3 1.074e+04 8.264e-10
 69.87985   -191.4 1.078e+04 8.472e-10
 69.89803   -190.6 1.089e+04 8.839e-10
 69.91756   -189.7 1.099e+04 9.103e-10
 69.92795   -189.5 1.048e+04 7.061e-10
 69.93958   -188.8 1.053e+04 6.995e-10
 69.96036   -188.3 1.057e+04 6.968e-10
 69.97740   -188.2 1.085e+04 7.047e-10
 69.98778   -188.3 1.028e+04 5.673e-10
 70.00191   -188.3 1.048e+04 5.873e-10
 70.02269   -188.5 1.090e+04 6.660e-10
 70.03723   -188.8 1.149e+04 8.239e-10
 70.04762   -188.5 1.101e+04 7.263e-10
 70.06424   -188.8 1.159e+04 9.423e-10
 70.08502   -189.1 1.221e+04 1.228e-09
 70.09706   -189.3 1.276e+04 1.573e-09
 70.10745   -189.2 1.284e+04 1.600e-09
 70.12657   -189.5 1.327e+04 1.975e-09
 70.14650   -189.7 1.352e+04 2.282e-09
 70.15689   -189.6 1.356e+04 2.424e-09
 70.16812   -189.6 1.358e+04 2.569e-09
 70.18890   -189.5 1.356e+04 2.597e-09
 70.20633   -189.3 1.340e+04 2.486e-09
 70.21672   -189.2 1.355e+04 2.683e-09
 70.23045   -188.9 1.318e+04 2.354e-09
 70.25123   -188.3 1.266e+04 1.887e-09
 70.26617   -187.8 1.216e+04 1.442e-09
 70.27655   -187.6 1.214e+04 1.383e-09
 70.29278   -187.4 1.164e+04 1.018e-09
 70.31356   -187.3 1.123e+04 7.711e-10
 70.32600   -187.2 1.091e+04 6.272e-10
 70.33639   -188.3 1.107e+04 6.524e-10
 70.35511   -188.2 1.088e+04 6.018e-10
 70.37544   -187.8 1.080e+04 5.877e-10
 70.38583   -188.9 1.101e+04 7.188e-10
 70.39667   -188.1 1.097e+04 7.153e-10
 70.41744   -187.3 1.093e+04 7.145e-10
 70.43527   -186.3 1.087e+04 7.124e-10
 70.44566   -186.9 1.113e+04 8.764e-10
 70.45900   -185.8 1.112e+04 8.469e-10
 70.47977   -184.8 1.110e+04 8.037e-10
 70.49511   -183.7 1.108e+04 7.522e-10
 70.50549   -184.6 1.167e+04 9.116e-10
 70.52133   -183.6 1.183e+04 8.609e-10
 70.54210   -182.9 1.201e+04 8.439e-10
 70.55494   -182.6 1.265e+04 8.360e-10
 70.56533   -192.4 2.311e+04 4.145e-09
 70.58366   -193.3 2.396e+04 5.703e-09
 70.60438   -194.6 2.475e+04 8.104e-09
 70.61991   -200.1 2.417e+04 3.452e-08
 70.63031   -200.5 2.420e+04 3.838e-08
 70.63939   -200.6 2.432e+04 4.282e-08
 70.64459   -203.2 2.455e+04 4.727e-08
 70.65108   -203.2 2.514e+04 4.849e-08
 70.66147   -203.6 2.556e+04 4.815e-08
 70.66931   -204.3 2.610e+04 4.531e-08
 70.67450   -210.9 2.669e+04 9.891e-09
 70.68225   -213.6 2.582e+04 6.142e-09
 70.69264   -216.6 2.395e+04 3.733e-09
 70.69923   -219.8 2.110e+04 2.422e-09
 70.70442   -227.5 1.289e+04 9.703e-10
 70.71341   -228.4 1.205e+04 8.951e-10
 70.72380   -229.3 1.141e+04 8.359e-10
 70.72914   -229.8 1.101e+04 7.988e-10
 70.73438   -230.7 1.042e+04 7.033e-10
 70.74987   -231.2 1.018e+04 6.828e-10
 70.77065   -231.4 9.957e+03 6.700e-10
 70.78388   -231.5 9.840e+03 6.696e-10
 70.79427   -231.2 9.696e+03 6.206e-10
 70.81220   -230.5 9.711e+03 6.364e-10
 70.83297   -229.5 9.723e+03 6.494e-10
 70.84371   -228.4 9.742e+03 6.576e-10
 70.85410   -227.5 9.659e+03 6.227e-10
 70.87453   -226.2 9.624e+03 6.206e-10
 70.89315   -224.7 9.568e+03 6.018e-10
 70.90354   -223.6 9.448e+03 5.631e-10
 70.91608   -222.2 9.375e+03 5.388e-10
 70.93686   -220.7 9.319e+03 5.173e-10
 70.95298   -219.3 9.289e+03 5.015e-10
 70.96337   -218.1 9.179e+03 4.737e-10
 70.97841   -216.7 9.146e+03 4.618e-10
 70.99919   -215.1 9.134e+03 4.554e-10
 71.01282   -213.6 9.135e+03 4.539e-10
 71.02320   -212.5 9.015e+03 4.299e-10
 71.04074   -210.9 9.016e+03 4.297e-10
 71.06152   -209.4 9.042e+03 4.309e-10
 71.07265   -207.8 9.094e+03 4.385e-10
 71.08304   -206.8 8.983e+03 4.157e-10
 71.10307   -205.4 9.012e+03 4.216e-10
 71.12209   -203.9 9.083e+03 4.350e-10
 71.13248   -203.0 9.001e+03 4.141e-10
 71.13445   -201.3 9.052e+03 4.260e-10
 71.14483   -201.4 9.187e+03 4.404e-10
 71.16540   -200.2 9.273e+03 4.594e-10
 71.18192   -198.6 9.372e+03 4.871e-10
 71.20280   -196.9 9.199e+03 4.534e-10
 71.23831   -194.1 9.441e+03 5.212e-10
 71.27987   -191.3 9.796e+03 6.353e-10
 71.30178   -188.4 1.023e+04 8.052e-10
 71.32256   -186.5 9.853e+03 6.662e-10
 71.36297   -183.7 1.031e+04 8.434e-10
 71.40067   -180.9 1.073e+04 1.047e-09
 71.42145   -179.1 1.025e+04 8.286e-10
 71.44608   -176.3 1.062e+04 9.950e-10
 71.48763   -173.5 1.091e+04 1.154e-09
 71.52033   -170.7 1.112e+04 1.279e-09
 71.54111   -168.8 1.072e+04 1.043e-09
 71.57074   -166.0 1.097e+04 1.170e-09
 71.61229   -163.3 1.118e+04 1.280e-09
 71.64000   -160.7 1.133e+04 1.371e-09
 71.66077   -158.9 1.055e+04 9.355e-10
 71.69540   -156.4 1.057e+04 9.457e-10
 71.73695   -153.8 1.055e+04 9.417e-10
 71.75956   -150.8 1.007e+04 8.292e-10
 71.76985   -149.9 9.678e+03 6.023e-10
 71.78870   -148.7 9.584e+03 5.615e-10
 71.80891   -147.4 9.554e+03 5.385e-10
 71.81930   -146.5 9.166e+03 4.065e-10
 71.83025   -145.4 9.177e+03 3.983e-10
 71.85103   -143.9 9.188e+03 3.940e-10
 71.86874   -142.6 9.226e+03 3.977e-10
 71.87923   -142.3 8.734e+03 2.850e-10
 71.90316   -139.4 8.864e+03 2.903e-10
 71.94472   -136.5 9.149e+03 3.310e-10
 71.97821   -133.7 9.941e+03 4.385e-10
 71.99899   -131.4 9.018e+03 2.930e-10
 72.02782   -128.9 9.961e+03 4.467e-10
 72.06938   -126.7 1.105e+04 6.943e-10
 72.09778   -124.1 1.207e+04 1.069e-09
 72.11855   -124.5 1.093e+04 8.520e-10
 72.14200   -123.0 1.195e+04 1.224e-09
 72.15751   -123.0 1.216e+04 1.293e-09
 72.16790   -123.1 1.173e+04 1.172e-09
 72.18345   -123.6 1.176e+04 1.189e-09
 72.20423   -124.5 1.187e+04 1.210e-09
 72.21734   -125.6 1.205e+04 1.252e-09
 72.22773   -125.6 1.214e+04 1.252e-09
 72.24578   -127.2 1.209e+04 1.285e-09
 72.26656   -129.0 1.199e+04 1.345e-09
 72.27718   -131.0 1.208e+04 1.429e-09
 72.28756   -131.6 1.182e+04 1.284e-09
 72.30811   -133.6 1.183e+04 1.310e-09
 72.32662   -135.4 1.183e+04 1.314e-09
 72.33711   -135.5 1.158e+04 1.139e-09
 72.36025   -138.6 1.142e+04 1.092e-09
 72.38924   -140.7 1.111e+04 9.234e-10
 72.39953   -141.1 1.142e+04 1.011e-09
 72.41200   -142.0 1.112e+04 8.825e-10
 72.43277   -142.6 1.084e+04 7.810e-10
 72.44628   -143.1 1.058e+04 6.901e-10
 72.45677   -143.7 1.073e+04 6.912e-10
 72.48491   -144.9 1.000e+04 5.027e-10
 72.52646   -144.9 9.708e+03 4.159e-10
 72.55575   -144.3 9.445e+03 3.494e-10
 72.57653   -146.9 9.561e+03 3.338e-10
 72.60957   -145.7 9.586e+03 3.322e-10
 72.65112   -144.3 9.656e+03 3.465e-10
 72.67542   -142.9 9.884e+03 4.146e-10
 72.69619   -144.1 1.015e+04 4.991e-10
 72.73423   -142.0 1.019e+04 5.455e-10
 72.77430   -139.6 1.018e+04 5.537e-10
 72.79508   -139.9 1.013e+04 5.325e-10
 72.81734   -137.4 1.005e+04 5.063e-10
 72.85889   -134.7 9.916e+03 4.544e-10
 72.89397   -132.2 9.733e+03 3.832e-10
 72.91474   -132.1 9.688e+03 3.684e-10
 72.94199   -129.4 9.487e+03 3.084e-10
 72.98355   -126.8 9.272e+03 2.499e-10
 73.01363   -124.1 9.071e+03 1.998e-10
 73.03441   -123.7 9.103e+03 2.183e-10
 73.06665   -120.9 8.924e+03 1.810e-10
 73.10821   -117.8 8.784e+03 1.515e-10
 73.13330   -114.8 8.694e+03 1.294e-10
 73.15407   -114.1 8.741e+03 1.452e-10
 73.19131   -111.0 8.716e+03 1.309e-10
 73.23218   -107.9 8.724e+03 1.208e-10
 73.25296   -107.4 8.900e+03 1.505e-10
 73.27442   -104.3 8.918e+03 1.466e-10
 73.31597   -101.4 8.937e+03 1.432e-10
 73.35185    -98.4 8.968e+03 1.405e-10
 73.37262    -97.8 9.234e+03 1.964e-10
 73.39908    -94.8 9.265e+03 2.000e-10
 73.44063    -92.0 9.313e+03 2.048e-10
 73.47151    -89.2 9.410e+03 2.116e-10
 73.49229    -88.5 9.782e+03 3.213e-10
 73.52374    -86.0 9.905e+03 3.477e-10
 73.56529    -83.7 1.010e+04 3.870e-10
 73.59117    -81.7 1.037e+04 4.454e-10
 73.61195    -81.0 1.092e+04 7.660e-10
 73.64840    -79.4 1.129e+04 9.396e-10
 73.68995    -78.2 1.164e+04 1.056e-09
 73.73151    -77.6 1.286e+04 1.766e-09
 73.77306    -77.2 1.273e+04 1.516e-09
 73.80973    -76.9 1.207e+04 9.989e-10
 73.83040    -77.2 1.260e+04 9.625e-10
 73.85607    -77.3 1.227e+04 7.831e-10
 73.89772    -77.0 1.114e+04 4.229e-10
 73.92939    -76.0 1.080e+04 3.215e-10
 73.95017    -77.3 1.158e+04 5.769e-10
 73.98082    -76.3 1.124e+04 4.782e-10
 74.02238    -75.4 1.119e+04 4.725e-10
 74.04905    -74.3 1.127e+04 5.518e-10
 74.06983    -75.8 1.212e+04 1.156e-09
 74.10548    -74.8 1.214e+04 1.196e-09
 74.14704    -73.6 1.214e+04 1.202e-09
 74.16872    -72.7 1.224e+04 1.245e-09
 74.18949    -76.7 1.227e+04 1.226e-09
 74.21806    -75.0 1.222e+04 1.262e-09
 74.22835    -77.8 1.257e+04 1.265e-09
 74.24034    -78.2 1.285e+04 1.338e-09
 74.26111    -79.0 1.315e+04 1.425e-09
 74.27780    -79.8 1.366e+04 1.579e-09
 74.28818    -84.7 1.507e+04 2.418e-09
 74.30267    -84.7 1.516e+04 3.001e-09
 74.32344    -84.7 1.516e+04 3.418e-09
 74.33763    -84.6 1.510e+04 3.546e-09
 74.34802    -87.4 1.536e+04 4.430e-09
 74.36500    -87.3 1.504e+04 3.878e-09
 74.38577    -87.4 1.468e+04 3.379e-09
 74.39746    -87.3 1.420e+04 2.907e-09
 74.40785    -89.8 1.331e+04 2.395e-09
 74.42733    -89.3 1.272e+04 1.943e-09
 74.44690    -88.7 1.224e+04 1.612e-09
 74.45729    -90.5 1.131e+04 1.030e-09
 74.46888    -89.4 1.105e+04 8.814e-10
 74.48966    -88.2 1.089e+04 7.838e-10
 74.50674    -87.1 1.083e+04 7.222e-10
 74.51712    -88.4 1.015e+04 4.877e-10
 74.53121    -87.4 1.006e+04 4.580e-10
 74.55199    -86.1 1.002e+04 4.383e-10
 74.56657    -85.3 9.914e+03 4.213e-10
 74.57696    -86.0 9.684e+03 3.648e-10
 74.59354    -84.2 9.665e+03 3.658e-10
 74.61432    -83.8 9.624e+03 3.635e-10
 74.62640    -82.2 9.660e+03 3.901e-10
 74.64727    -82.4 9.554e+03 3.709e-10
 74.68723    -80.2 9.699e+03 4.307e-10
 74.72548    -78.0 9.746e+03 4.586e-10
 74.74626    -78.4 9.552e+03 4.188e-10
 74.77034    -76.2 9.561e+03 4.289e-10
 74.81189    -74.0 9.543e+03 4.060e-10
 74.84515    -71.8 9.336e+03 3.562e-10
 74.86592    -71.6 9.326e+03 3.645e-10
 74.89499    -69.3 9.166e+03 3.320e-10
 74.91921    -67.1 9.094e+03 3.116e-10
 74.93999    -66.7 8.980e+03 2.820e-10
 74.96481    -64.6 8.929e+03 2.646e-10
 74.98559    -64.1 9.009e+03 2.958e-10
 75.01965    -62.1 9.070e+03 3.155e-10
 75.06121    -60.0 9.086e+03 3.261e-10
 75.08447    -58.0 9.022e+03 3.149e-10
 75.10525    -57.3 9.313e+03 4.125e-10
 75.14431    -55.4 9.195e+03 3.919e-10
 75.18336    -53.3 8.871e+03 2.998e-10
 75.20414    -52.5 9.167e+03 4.028e-10
 75.22742    -50.3 8.739e+03 2.704e-10
 75.26897    -48.4 8.320e+03 1.621e-10
 75.30302    -46.7 7.990e+03 1.043e-10
 75.32380    -45.6 8.174e+03 1.336e-10
 75.35208    -43.9 7.897e+03 9.567e-11
 75.39363    -42.0 7.715e+03 8.146e-11
 75.42269    -39.8 7.595e+03 7.597e-11
 75.44346    -38.8 7.689e+03 8.149e-11
 75.47674    -36.4 7.602e+03 7.639e-11
 75.51829    -34.0 7.535e+03 7.344e-11
 75.54235    -31.5 7.521e+03 7.240e-11
 75.56313    -30.6 7.591e+03 7.424e-11
 75.60140    -28.4 7.602e+03 7.784e-11
 75.64124    -26.0 7.680e+03 8.738e-11
 75.66202    -24.8 7.717e+03 8.822e-11
 75.68451    -22.2 7.745e+03 9.647e-11
 75.72606    -19.5 7.756e+03 9.806e-11
 75.76090    -16.6 7.716e+03 9.165e-11
 75.78168    -15.3 7.771e+03 8.739e-11
 75.80917    -12.5 7.702e+03 8.002e-11
 75.85072    -10.0 7.682e+03 7.166e-11
 75.88057     -7.6 7.744e+03 7.143e-11
 75.90134     -6.3 7.906e+03 8.033e-11
 75.93382     -4.1 8.069e+03 9.406e-11
 75.97538     -1.9 8.206e+03 1.193e-10
 76.00023      0.5 8.308e+03 1.474e-10
 76.02101      2.2 8.624e+03 2.018e-10
 76.05848      4.6 8.741e+03 2.295e-10
 76.09912      6.7 8.633e+03 2.157e-10
 76.11989      8.9 8.982e+03 3.241e-10
 76.14159     10.6 8.831e+03 2.848e-10
 76.18314     11.5 8.871e+03 2.624e-10
 76.21878     11.8 8.992e+03 2.919e-10
 76.23956     13.4 1.052e+04 6.981e-10
 76.26625     13.6 1.082e+04 8.431e-10
 76.28890     13.0 1.039e+04 7.607e-10
 76.29919     13.2 1.169e+04 9.607e-10
 76.31800     13.4 1.180e+04 1.046e-09
 76.33825     13.8 1.129e+04 1.076e-09
 76.34864     13.6 1.226e+04 1.409e-09
 76.35955     13.4 1.226e+04 1.631e-09
 76.38033     12.3 1.246e+04 2.048e-09
 76.39808     10.8 1.291e+04 2.906e-09
 76.40847      8.9 1.618e+04 5.200e-09
 76.42188      8.3 1.679e+04 6.563e-09
 76.44266      8.0 1.745e+04 6.661e-09
 76.45791      8.0 1.806e+04 5.808e-09
 76.46306      3.1 2.459e+04 1.143e-08
 76.46853      3.0 2.511e+04 1.032e-08
 76.48416      3.5 2.482e+04 6.543e-09
 76.50499      2.1 2.289e+04 4.615e-09
 76.51774      0.2 2.005e+04 3.235e-09
 76.52813     -3.4 1.755e+04 4.744e-09
 76.54654     -3.6 1.610e+04 4.048e-09
 76.56719     -2.8 1.574e+04 4.079e-09
 76.57758     -3.3 1.576e+04 6.049e-09
 76.58809     -2.1 1.564e+04 6.134e-09
 76.60887     -0.8 1.536e+04 6.086e-09
 76.62702      0.9 1.525e+04 6.143e-09
 76.63741      0.5 1.578e+04 7.079e-09
 76.65042      1.9 1.567e+04 6.956e-09
 76.67120      3.3 1.526e+04 6.402e-09
 76.68685      5.0 1.489e+04 5.802e-09
 76.69724      4.3 1.566e+04 5.983e-09
 76.71275      5.7 1.545e+04 5.627e-09
 76.73353      7.0 1.520e+04 5.197e-09
 76.74668      8.5 1.476e+04 4.615e-09
 76.75707      7.5 1.502e+04 4.617e-09
 76.77508      9.1 1.464e+04 4.151e-09
 76.79586     10.6 1.445e+04 3.794e-09
 76.80652     12.1 1.434e+04 3.471e-09
 76.81690     11.5 1.442e+04 3.428e-09
 76.83741     13.0 1.423e+04 3.200e-09
 76.85596     14.5 1.402e+04 2.915e-09
 76.86635     14.2 1.412e+04 2.886e-09
 76.87896     15.8 1.386e+04 2.642e-09
 76.89974     17.3 1.369e+04 2.386e-09
 76.91589     19.2 1.317e+04 1.778e-09
 76.93676     18.7 1.320e+04 1.544e-09
 76.97265     21.4 1.293e+04 1.430e-09
 77.01421     24.0 1.267e+04 1.256e-09
 77.03565     26.4 1.248e+04 1.144e-09
 77.05643     26.2 1.250e+04 1.145e-09
 77.09731     28.6 1.244e+04 1.158e-09
 77.13454     30.9 1.232e+04 1.138e-09
 77.15531     30.8 1.220e+04 1.046e-09
 77.18042     33.1 1.215e+04 1.058e-09
 77.22197     35.6 1.195e+04 9.701e-10
 77.25420     38.2 1.167e+04 7.878e-10
 77.27498     38.2 1.147e+04 6.897e-10
 77.30508     40.8 1.125e+04 5.882e-10
 77.34663     43.4 1.103e+04 4.667e-10
 77.37386     45.8 1.083e+04 3.966e-10
 77.39464     45.9 1.078e+04 3.994e-10
 77.42841     48.4 1.079e+04 4.129e-10
 77.44918     49.0 1.101e+04 3.708e-10
 77.47129     51.8 1.112e+04 3.930e-10
 77.49353     54.3 1.128e+04 4.457e-10
 77.50382     53.3 1.132e+04 5.227e-10
 77.52304     54.5 1.138e+04 5.676e-10
 77.54278     55.6 1.141e+04 6.311e-10
 77.55317     55.5 1.142e+04 6.969e-10
 77.56459     56.7 1.153e+04 7.793e-10
 77.58537     58.0 1.168e+04 8.778e-10
 77.60261     59.3 1.187e+04 9.937e-10
 77.61300     59.0 1.188e+04 1.003e-09
 77.62692     60.2 1.209e+04 1.132e-09
 77.64770     61.3 1.229e+04 1.278e-09
 77.67896     63.0 1.268e+04 1.498e-09
 77.71013     64.0 1.288e+04 1.689e-09
 77.72227     64.8 1.297e+04 1.830e-09
 77.73266     64.6 1.261e+04 1.505e-09
 77.75158     65.6 1.262e+04 1.546e-09
 77.77172     66.6 1.265e+04 1.577e-09
 77.78210     66.5 1.221e+04 1.089e-09
 77.79313     67.3 1.220e+04 1.078e-09
 77.81391     68.1 1.219e+04 1.065e-09
 77.83155     68.9 1.220e+04 1.057e-09
 77.84194     68.7 1.169e+04 7.280e-10
 77.85546     69.5 1.170e+04 7.359e-10
 77.87624     70.2 1.173e+04 7.586e-10
 77.89138     70.8 1.176e+04 7.915e-10
 77.90177     70.7 1.141e+04 5.921e-10
 77.91779     71.4 1.147e+04 6.411e-10
 77.93857     72.1 1.155e+04 7.032e-10
 77.95121     72.8 1.165e+04 7.722e-10
 77.96160     73.0 1.140e+04 6.210e-10
 77.98012     73.7 1.151e+04 6.911e-10
 78.00066     74.5 1.161e+04 7.562e-10
 78.01104     74.7 1.139e+04 6.251e-10
 78.02168     75.5 1.150e+04 6.893e-10
 78.04245     76.2 1.163e+04 7.534e-10
 78.06049     76.9 1.177e+04 8.209e-10
 78.07088     77.1 1.155e+04 7.105e-10
 78.08401     77.7 1.169e+04 7.902e-10
 78.10478     78.3 1.184e+04 8.742e-10
 78.12032     78.9 1.198e+04 9.517e-10
 78.13071     79.2 1.173e+04 8.499e-10
 78.14634     79.8 1.185e+04 9.135e-10
 78.16711     80.4 1.200e+04 9.358e-10
 78.18015     80.9 1.206e+04 9.340e-10
 78.19054     81.2 1.191e+04 8.700e-10
 78.20867     81.8 1.193e+04 8.686e-10
 78.22944     82.3 1.195e+04 8.519e-10
 78.23998     82.9 1.197e+04 8.016e-10
 78.25037     83.1 1.184e+04 7.542e-10
 78.27100     83.5 1.186e+04 6.827e-10
 78.28943     84.0 1.184e+04 5.633e-10
 78.31030     84.3 1.166e+04 4.981e-10
 78.34391     85.5 1.149e+04 3.515e-10
 78.38546     86.5 1.124e+04 2.478e-10
 78.40929     87.7 1.109e+04 2.241e-10
 78.43006     88.5 1.087e+04 1.931e-10
 78.46857     89.9 1.089e+04 1.957e-10
 78.50817     91.1 1.103e+04 2.149e-10
 78.52895     91.8 1.087e+04 1.849e-10
 78.55168     92.8 1.110e+04 2.351e-10
 78.59323     93.7 1.138e+04 3.285e-10
 78.62784     94.7 1.166e+04 4.703e-10
 78.64861     95.5 1.150e+04 4.086e-10
 78.67634     96.5 1.177e+04 5.562e-10
 78.71789     97.3 1.201e+04 6.823e-10
 78.74750     98.0 1.217e+04 7.200e-10
 78.76828     98.7 1.189e+04 6.242e-10
 78.80099     99.4 1.201e+04 6.613e-10
 78.84255    100.2 1.209e+04 6.652e-10
 78.86716    101.1 1.213e+04 6.530e-10
 78.88794    101.9 1.210e+04 6.809e-10
 78.92565    102.8 1.211e+04 6.780e-10
 78.96605    103.7 1.210e+04 6.532e-10
 78.98683    104.4 1.205e+04 6.627e-10
 79.00876    105.4 1.195e+04 5.894e-10
 79.05031    106.6 1.170e+04 4.789e-10
 79.08571    107.8 1.136e+04 3.687e-10
 79.10649    108.6 1.104e+04 2.972e-10
 79.13342    109.8 1.081e+04 2.130e-10
 79.17497    110.9 1.062e+04 1.596e-10
 79.20538    112.0 1.045e+04 1.302e-10
 79.22615    112.8 1.029e+04 1.083e-10
 79.25808    114.0 1.018e+04 1.011e-10
 79.29963    115.4 1.009e+04 9.974e-11
 79.32504    116.9 1.008e+04 9.799e-11
 79.34582    117.7 1.002e+04 1.053e-10
 79.38274    119.1 1.003e+04 1.156e-10
 79.42393    120.4 1.006e+04 1.273e-10
 79.44471    121.2 1.007e+04 1.835e-10
 79.46585    122.7 1.018e+04 2.143e-10
 79.50740    124.0 1.029e+04 2.470e-10
 79.54359    125.2 1.041e+04 2.838e-10
 79.56437    126.5 1.071e+04 4.361e-10
 79.59051    127.6 1.087e+04 4.899e-10
 79.63206    128.4 1.104e+04 4.981e-10
 79.66326    128.8 1.106e+04 4.805e-10
 79.68403    129.6 1.125e+04 5.151e-10
 79.71517    129.8 1.111e+04 4.159e-10
 79.75672    129.9 1.088e+04 3.118e-10
 79.78292    129.8 1.060e+04 2.303e-10
 79.80370    130.4 1.060e+04 1.991e-10
 79.83982    130.2 1.020e+04 1.650e-10
 79.88138    130.1 1.001e+04 1.622e-10
 79.90258    130.1 1.001e+04 1.661e-10
 79.92336    130.1 1.018e+04 2.363e-10
 79.95838    129.8 1.040e+04 3.456e-10
 79.97916    129.5 1.055e+04 3.541e-10
 80.00147    129.4 1.113e+04 5.969e-10
 80.02215    129.5 1.212e+04 1.110e-09
 80.03701    129.4 1.220e+04 1.236e-09
 80.05778    129.1 1.234e+04 1.409e-09
 80.07150    128.7 1.244e+04 1.544e-09
 80.08188    128.2 1.294e+04 2.021e-09
 80.09934    127.7 1.289e+04 1.977e-09
 80.12011    127.0 1.275e+04 1.844e-09
 80.13133    126.2 1.253e+04 1.664e-09
 80.14172    125.7 1.260e+04 1.694e-09
 80.16167    124.7 1.220e+04 1.461e-09
 80.18077    124.2 1.185e+04 1.329e-09
 80.19116    123.9 1.177e+04 1.254e-09
 80.21371    123.8 1.185e+04 1.245e-09
 80.24080    123.9 1.123e+04 8.968e-10
 80.26158    124.1 1.072e+04 6.044e-10
 80.29691    124.3 1.036e+04 3.916e-10
 80.33846    124.5 1.019e+04 2.981e-10
 80.36046    124.8 1.014e+04 2.928e-10
 80.38124    125.0 1.016e+04 3.073e-10
 80.42157    125.5 1.026e+04 3.921e-10
 80.45935    126.4 1.062e+04 5.702e-10
 80.48003    127.1 1.088e+04 7.232e-10
 80.49409    127.3 1.101e+04 7.954e-10
 80.51487    127.5 1.117e+04 8.850e-10
 80.52937    127.7 1.131e+04 9.831e-10
 80.53976    127.5 1.155e+04 1.179e-09
 80.55642    127.8 1.153e+04 1.196e-09
 80.57720    128.3 1.148e+04 1.175e-09
 80.58921    128.9 1.136e+04 1.114e-09
 80.59959    129.2 1.149e+04 1.199e-09
 80.61875    129.8 1.146e+04 1.062e-09
 80.63865    130.2 1.148e+04 9.145e-10
 80.64904    130.1 1.185e+04 8.987e-10
 80.66030    130.1 1.206e+04 7.724e-10
 80.68108    129.9 1.230e+04 6.861e-10
 80.69848    129.5 1.254e+04 6.334e-10
 80.70887    128.1 1.303e+04 7.495e-10
 80.72263    127.5 1.292e+04 7.922e-10
 80.74341    127.1 1.271e+04 8.852e-10
 80.75831    126.8 1.256e+04 1.025e-09
 80.76870    126.0 1.293e+04 1.573e-09
 80.78496    126.0 1.293e+04 1.735e-09
 80.80574    126.1 1.294e+04 1.846e-09
 80.81815    126.2 1.293e+04 1.892e-09
 80.82853    125.7 1.315e+04 2.051e-09
 80.84729    125.4 1.293e+04 1.878e-09
 80.86759    124.9 1.268e+04 1.686e-09
 80.87798    123.7 1.225e+04 1.279e-09
 80.88885    122.7 1.212e+04 1.215e-09
 80.90962    121.6 1.215e+04 1.230e-09
 80.92742    120.5 1.226e+04 1.318e-09
 80.93781    119.0 1.197e+04 1.138e-09
 80.95118    118.0 1.225e+04 1.383e-09
 80.97195    117.3 1.247e+04 1.649e-09
 80.98725    116.7 1.253e+04 1.776e-09
 80.99764    115.9 1.222e+04 1.520e-09
 81.01351    115.4 1.219e+04 1.500e-09
 81.03428    115.1 1.205e+04 1.405e-09
 81.04708    114.9 1.186e+04 1.240e-09
 81.05747    114.2 1.146e+04 9.407e-10
 81.07584    113.8 1.125e+04 8.022e-10
 81.09653    113.4 1.107e+04 7.085e-10
 81.11730    112.2 1.063e+04 5.558e-10
 81.13817    112.2 1.062e+04 5.584e-10
 81.15636    112.3 1.061e+04 5.736e-10
 81.16675    111.6 1.041e+04 4.746e-10
 81.17972    111.9 1.044e+04 4.934e-10
 81.20050    112.3 1.046e+04 5.059e-10
 81.21619    112.6 1.045e+04 5.091e-10
 81.22658    111.7 1.027e+04 4.178e-10
 81.23356    112.1 1.026e+04 4.132e-10
 81.24395    112.0 1.025e+04 4.166e-10
 81.26283    112.1 1.022e+04 4.078e-10
 81.27602    112.6 1.020e+04 4.077e-10
 81.29690    112.5 1.006e+04 3.499e-10
 81.33574    113.4 1.001e+04 3.520e-10
 81.37511    114.6 9.982e+03 3.395e-10
 81.39588    114.5 9.770e+03 2.765e-10
 81.40836    115.1 9.754e+03 2.640e-10
 81.42904    115.8 9.677e+03 2.373e-10
 81.44513    116.4 9.618e+03 2.090e-10
 81.45552    116.2 9.775e+03 2.137e-10
 81.47059    115.7 1.005e+04 2.219e-10
 81.49137    113.9 1.120e+04 2.767e-10
 81.50496    111.0 1.276e+04 4.855e-10
 81.51535    107.8 1.379e+04 1.152e-09
 81.53292    105.7 1.432e+04 2.251e-09
 81.55370    105.0 1.460e+04 3.609e-09
 81.56480    105.1 1.463e+04 4.455e-09
 81.57518    105.5 1.492e+04 5.229e-09
 81.59525    105.8 1.467e+04 4.641e-09
 81.61424    105.9 1.426e+04 3.167e-09
 81.62463    106.2 1.431e+04 2.373e-09
 81.63680    105.6 1.379e+04 1.282e-09
 81.66807    102.1 1.252e+04 3.458e-10
 81.70972     99.3 1.043e+04 1.795e-10
 81.73410     99.0 9.867e+03 1.702e-10
 81.75487     98.3 9.729e+03 1.460e-10
 81.79282    100.4 9.702e+03 1.462e-10
 81.83298    102.6 9.679e+03 1.484e-10
 81.85376    102.3 9.631e+03 1.268e-10
 81.87593    104.1 9.612e+03 1.312e-10
 81.91748    105.6 9.625e+03 1.420e-10
 81.95265    107.0 9.653e+03 1.598e-10
 81.97343    106.4 9.648e+03 1.619e-10
 82.00059    107.7 9.682e+03 1.928e-10
 82.04214    108.8 9.705e+03 2.146e-10
 82.07231    109.8 9.705e+03 2.152e-10
 82.09309    109.1 9.808e+03 2.348e-10
 82.12525    109.9 9.731e+03 2.073e-10
 82.16680    110.5 9.638e+03 1.731e-10
 82.19198    110.9 9.482e+03 1.335e-10
 82.21275    109.5 9.722e+03 1.856e-10
 82.24991    110.0 9.774e+03 2.095e-10
 82.29086    110.6 9.878e+03 2.488e-10
 82.31164    109.6 1.045e+04 4.232e-10
 82.33302    110.3 1.056e+04 4.735e-10
 82.37457    111.1 1.057e+04 4.778e-10
 82.41053    112.0 1.052e+04 4.611e-10
 82.43130    111.0 1.084e+04 5.900e-10
 82.45768    112.2 1.063e+04 5.044e-10
 82.48835    113.6 1.034e+04 4.017e-10
 82.50913    114.6 9.843e+03 2.739e-10
 82.53019    115.9 9.558e+03 2.097e-10
 82.55097    115.2 9.977e+03 2.494e-10
 82.58234    116.5 1.006e+04 2.531e-10
 82.62389    117.6 1.045e+04 2.852e-10
 82.64976    116.9 1.104e+04 3.923e-10
 82.66005    115.1 1.152e+04 6.713e-10
 82.67563    115.2 1.165e+04 8.422e-10
 82.69641    115.4 1.173e+04 9.928e-10
 82.70949    115.8 1.178e+04 1.077e-09
 82.71988    115.3 1.183e+04 1.126e-09
 82.73796    115.6 1.179e+04 1.111e-09
 82.75874    115.9 1.172e+04 1.051e-09
 82.76932    116.2 1.165e+04 9.287e-10
 82.77971    115.2 1.163e+04 7.255e-10
 82.80029    114.7 1.152e+04 5.852e-10
 82.81877    114.2 1.138e+04 4.615e-10
 82.82915    112.5 1.115e+04 3.563e-10
 82.84185    112.1 1.094e+04 3.139e-10
 82.86831    112.9 1.079e+04 2.796e-10
 82.88918    111.6 1.043e+04 2.479e-10
 82.91476    111.4 9.992e+03 2.240e-10
 82.95631    110.9 9.861e+03 2.245e-10
 82.98807    110.3 9.837e+03 2.291e-10
 83.00885    109.3 9.800e+03 2.280e-10
 83.03942    108.3 9.769e+03 2.386e-10
 83.08097    106.7 9.871e+03 2.628e-10
 83.10773    105.4 1.007e+04 2.935e-10
 83.12851    104.5 1.011e+04 2.925e-10
 83.16408    102.3 1.046e+04 3.296e-10
 83.20563    100.0 1.046e+04 3.411e-10
 83.22740     97.9 1.038e+04 3.366e-10
 83.24817     96.7 1.036e+04 3.558e-10
 83.28874     96.2 1.001e+04 2.833e-10
 83.32628     96.0 9.682e+03 1.989e-10
 83.34706     95.7 9.491e+03 1.522e-10
 83.37185     96.0 9.199e+03 1.000e-10
 83.41340     96.8 9.111e+03 8.457e-11
 83.44595     98.1 9.110e+03 8.473e-11
 83.46672     98.8 8.966e+03 7.973e-11
 83.49651    100.6 8.978e+03 8.031e-11
 83.53806    102.3 9.035e+03 8.252e-11
 83.56561    103.8 9.120e+03 8.640e-11
 83.58639    104.7 9.100e+03 8.472e-11
 83.62117    105.9 9.190e+03 9.465e-11
 83.66272    106.9 9.286e+03 1.211e-10
 83.68527    107.7 9.472e+03 1.720e-10
 83.70605    108.1 9.471e+03 2.079e-10
 83.74582    108.6 9.782e+03 2.984e-10
 83.78416    108.7 1.013e+04 3.612e-10
 83.80494    107.0 1.051e+04 3.973e-10
 83.82893    106.9 1.050e+04 3.911e-10
 83.87048    107.1 1.049e+04 3.512e-10
 83.90383    107.2 1.056e+04 2.687e-10
 83.92460    103.6 1.189e+04 2.452e-10
 83.95359    102.3 1.325e+04 1.701e-10
 83.99514    101.1 1.464e+04 1.295e-10
 84.02349    100.6 1.459e+04 1.235e-10
 84.03378     93.7 2.190e+04 9.898e-11
 84.04689     93.3 2.210e+04 1.146e-10
 84.06767     93.2 2.165e+04 1.403e-10
 84.08313     93.4 2.026e+04 2.255e-10
 84.09351     91.8 1.829e+04 1.880e-09
 84.10922     92.4 1.816e+04 2.692e-09
 84.13000     93.2 1.832e+04 3.713e-09
 84.14296     94.0 1.849e+04 5.069e-09
 84.15335     93.8 1.893e+04 1.301e-08
 84.17155     94.1 1.895e+04 1.408e-08
 84.19233     94.2 1.882e+04 1.328e-08
 84.21310     94.0 1.851e+04 1.190e-08
 84.23388     94.0 1.761e+04 8.302e-09
 84.25223     93.6 1.670e+04 5.083e-09
 84.26262     92.2 1.648e+04 3.863e-09
 84.27543     90.9 1.488e+04 2.346e-09
 84.29621     89.9 1.349e+04 1.610e-09
 84.32747     89.1 1.254e+04 1.051e-09
 84.36170     89.2 1.176e+04 6.226e-10
 84.38248     88.9 1.206e+04 8.475e-10
 84.41068     88.5 1.136e+04 4.909e-10
 84.45223     87.8 1.047e+04 3.096e-10
 84.48137     87.8 1.015e+04 2.921e-10
 84.50214     87.9 1.045e+04 3.556e-10
 84.53534     88.3 1.036e+04 3.582e-10
 84.57689     89.1 1.033e+04 3.915e-10
 84.60103     90.3 1.042e+04 4.932e-10
 84.62181     90.7 1.060e+04 5.602e-10
 84.66000     92.1 1.091e+04 7.635e-10
 84.69992     93.5 1.134e+04 1.054e-09
 84.72070     94.3 1.155e+04 1.158e-09
 84.74310     95.5 1.190e+04 1.421e-09
 84.77004     95.4 1.209e+04 1.614e-09
 84.78033     95.5 1.219e+04 1.678e-09
 84.79485     95.2 1.251e+04 1.936e-09
 84.81562     94.6 1.289e+04 2.273e-09
 84.82978     93.6 1.329e+04 2.683e-09
 84.84016     93.5 1.357e+04 2.944e-09
 84.85718     92.3 1.395e+04 3.504e-09
 84.87795     91.3 1.416e+04 3.822e-09
 84.88961     90.2 1.417e+04 3.817e-09
 84.90000     90.0 1.461e+04 4.449e-09
 84.91951     89.1 1.451e+04 4.179e-09
 84.93905     88.3 1.414e+04 3.540e-09
 84.94944     88.1 1.456e+04 3.884e-09
 84.96106     86.9 1.386e+04 2.967e-09
 84.98184     85.6 1.311e+04 2.313e-09
 84.99888     84.4 1.245e+04 1.911e-09
 85.00927     83.3 1.251e+04 1.926e-09
 85.01813     82.5 1.213e+04 1.756e-09
 85.02852     83.0 1.217e+04 1.732e-09
 85.04417     82.6 1.211e+04 1.718e-09
 85.05871     82.4 1.220e+04 1.793e-09
 85.06910     81.1 1.252e+04 2.121e-09
 85.08572     81.0 1.269e+04 2.239e-09
 85.10650     80.9 1.277e+04 2.281e-09
 85.11855     80.9 1.273e+04 2.247e-09
 85.12893     79.8 1.329e+04 2.790e-09
 85.14805     80.1 1.289e+04 2.364e-09
 85.16799     80.3 1.247e+04 1.969e-09
 85.17838     79.3 1.255e+04 2.007e-09
 85.20009     80.2 1.198e+04 1.495e-09
 85.24174     81.2 1.095e+04 9.112e-10
 85.27746     82.0 1.008e+04 5.686e-10
 85.29824     81.0 9.699e+03 4.272e-10
 85.32485     82.0 9.174e+03 3.024e-10
 85.36640     83.2 8.960e+03 2.561e-10
 85.39712     84.7 8.933e+03 2.502e-10
 85.41790     84.5 8.913e+03 2.464e-10
 85.44951     86.1 8.899e+03 2.501e-10
 85.49106     87.5 8.877e+03 2.508e-10
 85.51679     88.8 8.850e+03 2.497e-10
 85.53756     88.2 8.855e+03 2.512e-10
 85.57417     89.2 8.778e+03 2.443e-10
 85.61568     90.1 8.662e+03 2.280e-10
 85.65723     90.1 8.442e+03 1.911e-10
 85.69882     91.0 8.273e+03 1.683e-10
 85.73534     91.9 8.133e+03 1.564e-10
 85.75612     91.1 8.046e+03 1.462e-10
 85.78193     92.1 8.046e+03 1.482e-10
 85.82348     93.1 8.078e+03 1.597e-10
 85.85500     94.1 8.211e+03 1.900e-10
 85.87578     93.5 8.160e+03 1.904e-10
 85.90659     94.4 8.343e+03 2.384e-10
 85.94814     95.3 8.566e+03 2.983e-10
 85.97467     96.0 8.783e+03 3.583e-10
 85.99544     95.4 8.496e+03 2.927e-10
 86.03125     95.8 8.612e+03 3.102e-10
 86.07280     95.9 8.640e+03 3.104e-10
 86.09433     95.8 8.633e+03 3.055e-10
 86.11511     95.4 8.454e+03 2.646e-10
 86.15591     95.4 8.518e+03 2.736e-10
 86.19322     95.4 8.565e+03 2.785e-10
 86.21399     94.7 8.769e+03 3.154e-10
 86.23902     94.6 8.991e+03 3.622e-10
 86.28057     94.6 9.102e+03 3.839e-10
 86.31288     94.7 9.099e+03 3.819e-10
 86.33366     93.6 9.236e+03 4.218e-10
 86.36368     94.0 9.120e+03 3.868e-10
 86.40523     94.6 9.006e+03 3.496e-10
 86.43255     95.4 8.900e+03 3.159e-10
 86.45332     94.7 8.815e+03 3.028e-10
 86.48834     95.7 8.716e+03 2.753e-10
 86.52989     96.9 8.639e+03 2.539e-10
 86.55221     98.3 8.578e+03 2.355e-10
 86.57299     98.0 8.458e+03 2.033e-10
 86.61300     99.5 8.420e+03 1.867e-10
 86.65110    101.0 8.391e+03 1.714e-10
 86.67187    100.9 8.276e+03 1.411e-10
 86.69610    102.4 8.305e+03 1.375e-10
 86.73765    103.9 8.340e+03 1.403e-10
 86.77076    105.2 8.452e+03 1.534e-10
 86.79154    105.0 8.450e+03 1.500e-10
 86.82076    106.3 8.725e+03 1.926e-10
 86.86231    107.9 9.149e+03 2.684e-10
 86.89042    109.3 9.626e+03 3.683e-10
 86.91120    108.7 9.782e+03 4.061e-10
 86.93493    109.3 9.909e+03 4.473e-10
 86.95006    109.3 1.011e+04 5.064e-10
 86.96045    108.9 1.018e+04 5.114e-10
 86.97639    108.6 1.035e+04 5.521e-10
 86.99717    108.3 1.039e+04 5.470e-10
 87.00989    107.6 1.042e+04 4.971e-10
 87.03077    106.6 1.027e+04 4.055e-10
 87.07008    107.0 1.012e+04 3.370e-10
 87.10897    107.7 9.906e+03 2.717e-10
 87.12975    108.0 9.599e+03 2.058e-10
 87.15319    108.7 9.505e+03 1.730e-10
 87.19474    109.6 9.587e+03 1.607e-10
 87.22864    110.7 9.609e+03 1.616e-10
 87.24941    111.0 9.554e+03 1.442e-10
 87.27785    112.0 9.687e+03 1.495e-10
 87.31940    112.5 9.961e+03 1.682e-10
 87.34830    112.5 1.028e+04 2.214e-10
 87.36908    112.8 1.032e+04 2.201e-10
 87.40251    112.8 1.072e+04 3.399e-10
 87.44406    112.6 1.114e+04 4.931e-10
 87.46797    112.2 1.150e+04 5.844e-10
 87.48874    112.6 1.168e+04 6.699e-10
 87.52717    111.8 1.175e+04 6.609e-10
 87.54830    110.9 1.179e+04 5.878e-10
 87.56721    112.5 1.193e+04 7.143e-10
 87.58763    112.6 1.207e+04 7.721e-10
 87.61027    111.6 1.202e+04 6.401e-10
 87.65182    110.9 1.187e+04 4.847e-10
 87.68652    110.6 1.173e+04 3.781e-10
 87.70729    110.6 1.177e+04 3.768e-10
 87.73493    110.4 1.167e+04 3.256e-10
 87.77648    110.4 1.159e+04 3.004e-10
 87.80618    110.7 1.152e+04 2.714e-10
 87.82696    110.7 1.158e+04 2.484e-10
 87.85959    111.1 1.146e+04 2.131e-10
 87.90114    111.5 1.137e+04 1.828e-10
 87.92584    112.0 1.130e+04 1.626e-10
 87.94662    112.0 1.129e+04 1.516e-10
 87.98425    112.5 1.122e+04 1.426e-10
 88.02473    113.0 1.115e+04 1.361e-10
 88.04551    113.1 1.110e+04 1.257e-10
 88.06736    113.7 1.100e+04 1.165e-10
 88.10891    114.3 1.087e+04 1.062e-10
 88.14439    115.0 1.071e+04 9.818e-11
 88.16517    115.4 1.061e+04 8.469e-11
 88.19202    116.1 1.046e+04 8.291e-11
 88.23357    117.0 1.045e+04 8.335e-11
 88.26406    117.7 1.041e+04 8.709e-11
 88.28484    118.2 1.033e+04 7.493e-11
 88.31668    118.9 1.033e+04 8.773e-11
 88.35823    119.1 1.037e+04 1.167e-10
 88.38372    119.0 1.045e+04 1.650e-10
 88.40450    119.5 1.044e+04 1.619e-10
 88.44134    119.4 1.058e+04 2.309e-10
 88.48261    118.9 1.077e+04 2.980e-10
 88.50339    119.1 1.087e+04 3.150e-10
 88.52444    118.0 1.089e+04 3.397e-10
 88.56600    117.3 1.082e+04 3.312e-10
 88.60227    116.4 1.058e+04 3.027e-10
 88.62305    116.3 1.056e+04 3.117e-10
 88.64910    115.1 1.029e+04 2.757e-10
 88.69065    114.3 1.010e+04 2.449e-10
 88.72194    114.0 9.959e+03 2.131e-10
 88.74271    113.6 1.009e+04 2.446e-10
 88.77376    113.4 9.913e+03 1.977e-10
 88.81531    113.5 9.715e+03 1.639e-10
 88.84160    113.9 9.596e+03 1.565e-10
 88.86238    113.5 9.608e+03 1.632e-10
 88.89842    114.4 9.603e+03 1.636e-10
 88.93997    115.3 9.603e+03 1.678e-10
 88.96126    116.3 9.627e+03 1.776e-10
 88.98204    116.2 9.621e+03 1.772e-10
 89.02308    117.1 9.660e+03 1.876e-10
 89.06015    118.0 9.726e+03 2.013e-10
 89.08093    117.8 9.685e+03 1.877e-10
 89.10619    118.4 9.850e+03 2.212e-10
 89.14774    118.8 1.012e+04 2.847e-10
 89.17982    118.9 1.040e+04 3.667e-10
 89.20059    118.6 1.041e+04 3.749e-10
 89.22036    118.2 1.061e+04 4.499e-10
 89.23945    117.7 1.081e+04 5.307e-10
 89.24984    117.4 1.077e+04 5.221e-10
 89.27230    117.9 1.082e+04 5.907e-10
 89.29948    117.8 1.085e+04 6.648e-10
 89.32026    117.5 1.081e+04 6.543e-10
 89.35551    117.0 1.082e+04 6.546e-10
 89.39706    116.2 1.077e+04 6.384e-10
 89.41914    115.4 1.058e+04 5.955e-10
 89.43992    115.3 1.046e+04 5.531e-10
 89.48017    114.7 1.030e+04 5.272e-10
 89.51803    114.1 1.020e+04 5.122e-10
 89.53881    114.2 1.019e+04 4.986e-10
 89.56327    113.6 1.015e+04 4.959e-10
 89.60482    113.2 1.002e+04 4.685e-10
 89.63769    113.1 9.797e+03 3.915e-10
 89.65847    113.4 9.901e+03 4.077e-10
 89.68793    113.4 9.604e+03 2.996e-10
 89.72948    113.5 9.263e+03 2.094e-10
 89.75736    113.7 8.960e+03 1.611e-10
 89.77813    113.8 9.109e+03 1.868e-10
 89.81259    114.4 9.062e+03 1.838e-10
 89.85414    115.4 9.065e+03 1.859e-10
 89.87702    116.5 9.104e+03 1.973e-10
 89.89780    116.5 9.366e+03 2.476e-10
 89.93725    117.5 9.503e+03 2.813e-10
 89.97591    118.4 9.662e+03 3.217e-10
 89.99668    118.0 9.964e+03 3.993e-10
 90.02036    118.7 1.010e+04 4.366e-10
 90.05749    119.2 1.020e+04 4.554e-10
 90.07827    119.4 9.705e+03 3.041e-10
 90.09557    119.9 9.751e+03 3.026e-10
 90.11635    119.1 9.830e+03 3.209e-10
 90.14502    119.5 9.802e+03 3.134e-10
 90.18657    120.0 9.756e+03 3.047e-10
 90.21524    120.7 9.695e+03 2.933e-10
 90.23601    120.2 9.655e+03 2.863e-10
 90.26968    121.1 9.560e+03 2.634e-10
 90.31123    122.1 9.446e+03 2.356e-10
 90.33490    123.1 9.330e+03 2.081e-10
 90.35568    123.0 9.274e+03 1.880e-10
 90.39434    124.2 9.155e+03 1.566e-10
 90.43379    125.6 9.049e+03 1.274e-10
 90.45456    125.6 9.029e+03 1.160e-10
 90.47744    126.9 8.977e+03 9.564e-11
 90.51900    128.2 8.970e+03 8.337e-11
 90.55345    129.5 8.995e+03 8.099e-11
 90.57423    129.7 9.011e+03 8.130e-11
 90.60210    131.0 9.057e+03 8.310e-11
 90.64365    132.2 9.168e+03 8.964e-11
 90.67311    133.3 9.302e+03 1.021e-10
 90.69389    133.5 9.415e+03 1.221e-10
 90.72676    134.5 9.559e+03 1.407e-10
 90.76831    135.4 9.726e+03 1.619e-10
 90.79278    136.0 9.921e+03 1.875e-10
 90.81355    136.2 1.008e+04 2.210e-10
 90.85142    136.7 1.036e+04 2.619e-10
 90.89167    136.9 1.069e+04 3.161e-10
 90.91244    137.1 1.081e+04 3.475e-10
 90.92404    136.9 1.096e+04 3.772e-10
 90.94472    136.2 1.117e+04 4.343e-10
 90.96169    135.3 1.141e+04 5.386e-10
 90.97208    135.2 1.149e+04 5.893e-10
 90.98627    134.3 1.177e+04 7.285e-10
 91.00705    133.3 1.207e+04 8.584e-10
 91.02152    131.9 1.238e+04 9.710e-10
 91.03191    131.6 1.260e+04 1.076e-09
 91.04860    129.5 1.296e+04 1.204e-09
 91.06938    126.9 1.330e+04 1.336e-09
 91.08135    124.0 1.350e+04 1.449e-09
 91.09174    123.1 1.374e+04 1.705e-09
 91.11093    120.1 1.372e+04 1.711e-09
 91.13080    117.5 1.358e+04 1.657e-09
 91.14119    117.0 1.377e+04 1.859e-09
 91.15249    114.9 1.339e+04 1.536e-09
 91.17326    113.0 1.293e+04 1.155e-09
 91.19063    110.8 1.252e+04 9.364e-10
 91.20102    110.0 1.262e+04 1.003e-09
 91.21482    108.0 1.258e+04 1.007e-09
 91.23559    106.4 1.258e+04 1.062e-09
 91.25046    105.1 1.272e+04 1.249e-09
 91.26085    104.5 1.289e+04 1.394e-09
 91.27715    103.7 1.304e+04 1.668e-09
 91.29792    103.1 1.305e+04 1.708e-09
 91.31029    102.6 1.302e+04 1.671e-09
 91.32068    102.2 1.296e+04 1.596e-09
 91.33267    101.5 1.277e+04 1.360e-09
 91.34306    102.1 1.332e+04 1.877e-09
 91.35974    101.2 1.310e+04 1.580e-09
 91.37012    100.6 1.300e+04 1.455e-09
 91.38103     99.6 1.259e+04 1.132e-09
 91.40181     98.7 1.210e+04 8.980e-10
 91.41957     98.4 1.167e+04 7.508e-10
 91.42996     97.9 1.163e+04 7.449e-10
 91.44336     97.8 1.137e+04 6.635e-10
 91.46911     98.6 1.112e+04 5.682e-10
 91.48989     97.4 1.125e+04 5.549e-10
 91.50569     96.8 1.125e+04 4.824e-10
 91.52646     96.4 1.121e+04 4.367e-10
 91.53923     96.2 1.115e+04 4.161e-10
 91.54962     95.2 1.103e+04 3.709e-10
 91.56802     95.2 1.093e+04 3.683e-10
 91.58868     95.7 1.092e+04 3.701e-10
 91.60955     95.5 1.083e+04 3.423e-10
 91.64093     96.3 1.084e+04 3.542e-10
 91.68248     96.9 1.090e+04 3.613e-10
 91.70844     97.0 1.083e+04 3.325e-10
 91.72921     96.6 1.077e+04 3.083e-10
 91.75511     97.0 1.074e+04 3.091e-10
 91.76817     97.2 1.075e+04 3.175e-10
 91.77856     96.6 1.073e+04 3.128e-10
 91.79656     96.4 1.082e+04 3.542e-10
 91.81734     95.9 1.117e+04 4.592e-10
 91.82800     95.2 1.182e+04 6.938e-10
 91.83839     94.7 1.180e+04 7.199e-10
 91.85889     94.0 1.266e+04 1.158e-09
 91.87745     93.2 1.362e+04 1.926e-09
 91.88783     93.0 1.334e+04 1.640e-09
 91.90044     92.5 1.410e+04 2.419e-09
 91.92122     91.9 1.474e+04 3.298e-09
 91.93728     91.2 1.516e+04 3.969e-09
 91.94767     90.7 1.453e+04 2.865e-09
 91.96277     89.7 1.473e+04 3.193e-09
 91.98355     88.6 1.488e+04 3.423e-09
 91.99711     87.4 1.501e+04 3.597e-09
 92.00750     87.1 1.485e+04 3.413e-09
 92.02510     86.0 1.529e+04 4.151e-09
 92.04588     84.8 1.587e+04 5.190e-09
 92.05694     83.2 1.668e+04 6.804e-09
 92.06733     83.5 1.698e+04 8.007e-09
 92.08743     81.7 1.794e+04 1.074e-08
 92.10639     79.5 1.882e+04 1.365e-08
 92.11677     79.4 1.883e+04 1.348e-08
 92.12899     76.6 1.908e+04 1.358e-08
 92.14976     73.2 1.907e+04 1.289e-08
 92.16622     69.8 1.873e+04 1.013e-08
 92.17661     69.1 1.811e+04 8.618e-09
 92.19132     65.2 1.703e+04 5.679e-09
 92.21209     61.7 1.536e+04 3.250e-09
 92.22605     58.6 1.331e+04 1.816e-09
 92.23644     58.5 1.351e+04 2.012e-09
 92.26413     55.3 1.189e+04 9.934e-10
 92.28608     51.4 9.934e+03 4.504e-10
 92.30685     51.6 1.011e+04 4.456e-10
 92.34734     50.0 9.047e+03 2.544e-10
 92.38496     49.9 9.013e+03 2.401e-10
 92.40574     49.6 9.232e+03 2.809e-10
 92.43044     50.0 9.229e+03 2.908e-10
 92.47200     51.3 9.290e+03 3.147e-10
 92.50463     52.7 9.421e+03 3.507e-10
 92.52540     52.4 9.493e+03 3.619e-10
 92.55510     53.8 9.558e+03 3.811e-10
 92.58746     55.0 9.527e+03 3.871e-10
 92.60824     54.9 9.577e+03 4.022e-10
 92.62429     56.1 9.539e+03 3.933e-10
 92.64507     56.4 9.431e+03 3.577e-10
 92.67976     57.9 9.420e+03 3.578e-10
 92.72131     59.5 9.404e+03 3.552e-10
 92.74396     61.2 9.371e+03 3.479e-10
 92.76473     62.7 9.359e+03 3.459e-10
 92.80442     64.5 9.339e+03 3.369e-10
 92.84284     66.1 9.329e+03 3.268e-10
 92.86362     68.0 9.454e+03 3.466e-10
 92.88753     69.6 9.440e+03 3.306e-10
 92.92908     70.8 9.483e+03 3.216e-10
 92.96251     71.5 9.540e+03 3.215e-10
 92.98328     74.0 9.945e+03 3.661e-10
 93.01219     74.5 1.024e+04 3.676e-10
 93.05374     74.1 1.049e+04 3.926e-10
 93.08207     72.0 1.057e+04 4.335e-10
 93.09236     73.1 1.061e+04 4.819e-10
 93.10549     72.0 1.057e+04 4.988e-10
 93.12626     70.4 1.055e+04 5.152e-10
 93.14181     67.6 1.056e+04 5.612e-10
 93.15219     68.3 1.074e+04 6.098e-10
 93.16782     60.8 1.178e+04 8.778e-10
 93.18859     51.5 1.422e+04 1.571e-09
 93.20164     43.0 1.557e+04 2.587e-09
 93.21203     38.7 1.653e+04 3.447e-09
 93.23015     31.6 1.644e+04 3.497e-09
 93.25092     24.6 1.596e+04 3.119e-09
 93.26147     18.2 1.489e+04 2.434e-09
 93.27186     14.7 1.426e+04 2.104e-09
 93.29248     10.6 1.298e+04 1.555e-09
 93.31091      8.0 1.228e+04 1.197e-09
 93.32130      6.6 1.201e+04 1.031e-09
 93.33403      5.3 1.175e+04 8.027e-10
 93.35481      4.1 1.143e+04 6.236e-10
 93.37075      3.1 1.103e+04 4.999e-10
 93.38113      2.6 1.080e+04 4.446e-10
 93.39636      2.3 1.046e+04 4.034e-10
 93.41714      2.3 1.044e+04 4.058e-10
 93.43058      2.4 1.056e+04 4.392e-10
 93.44097      2.4 1.054e+04 4.162e-10
 93.45869      3.0 1.115e+04 5.188e-10
 93.47946      3.3 1.143e+04 5.781e-10
 93.49041      4.2 1.179e+04 7.488e-10
 93.50080      4.6 1.177e+04 7.353e-10
 93.52102      5.2 1.195e+04 7.968e-10
 93.53995      5.7 1.264e+04 1.198e-09
 93.55034      7.0 1.239e+04 1.016e-09
 93.56257      8.2 1.257e+04 1.139e-09
 93.58335      9.6 1.271e+04 1.293e-09
 93.59968     11.4 1.279e+04 1.330e-09
 93.61007     12.0 1.321e+04 1.581e-09
 93.63539     13.9 1.326e+04 1.468e-09
 93.65961     17.5 1.309e+04 1.366e-09
 93.66990     18.0 1.362e+04 1.812e-09
 93.68723     19.5 1.349e+04 1.727e-09
 93.70801     21.1 1.324e+04 1.585e-09
 93.71935     23.0 1.287e+04 1.391e-09
 93.72974     23.7 1.349e+04 1.824e-09
 93.74956     25.9 1.301e+04 1.504e-09
 93.76879     28.2 1.238e+04 1.180e-09
 93.77918     28.5 1.308e+04 1.549e-09
 93.79111     30.8 1.261e+04 1.240e-09
 93.81189     33.2 1.251e+04 1.113e-09
 93.82862     35.5 1.256e+04 1.106e-09
 93.83901     34.8 1.404e+04 1.671e-09
 93.85226     37.2 1.455e+04 1.729e-09
 93.86264     34.8 1.916e+04 2.737e-09
 93.87422     36.5 2.392e+04 4.091e-09
 93.88841     39.0 2.501e+04 4.018e-09
 93.89355     38.4 2.314e+04 3.695e-09
 93.90009     37.9 2.831e+04 6.081e-09
 93.91048     37.0 3.147e+04 1.333e-08
 93.91827     36.1 3.228e+04 3.078e-08
 93.92347     33.1 3.153e+04 3.749e-08
 93.93126     31.3 2.950e+04 1.040e-07
 93.94165     29.3 2.563e+04 3.328e-07
 93.94819     26.7 2.273e+04 8.296e-07
 93.95338     22.3 2.180e+04 1.127e-06
 93.95980     20.9 2.143e+04 1.389e-06
 93.96310     18.6 2.085e+04 1.789e-06
 93.96570     16.2 2.083e+04 1.815e-06
 93.97017     13.9 2.078e+04 1.731e-06
 93.97536     12.4 2.082e+04 1.513e-06
 93.97806     10.7 2.151e+04 9.987e-07
 93.98328      9.0 2.192e+04 6.843e-07
 93.99359      6.8 2.389e+04 2.816e-07
 94.00283      3.4 2.785e+04 7.639e-08
 94.00802      2.0 2.906e+04 3.197e-08
 94.01436     -5.9 2.852e+04 9.971e-09
 94.02475    -12.1 2.093e+04 9.908e-09
 94.04038    -13.3 1.951e+04 9.114e-09
 94.05756    -11.4 1.869e+04 9.153e-09
 94.06795     -8.4 1.707e+04 5.974e-09
 94.08199     -6.6 1.690e+04 6.063e-09
 94.10276     -4.0 1.668e+04 6.180e-09
 94.11739     -1.2 1.660e+04 6.351e-09
 94.12778      0.0 1.487e+04 3.460e-09
 94.14432      2.3 1.488e+04 3.495e-09
 94.16509      4.6 1.488e+04 3.474e-09
 94.17723      6.8 1.484e+04 3.381e-09
 94.18762      6.8 1.330e+04 2.054e-09
 94.20665      8.7 1.336e+04 2.084e-09
 94.22667     10.3 1.354e+04 2.187e-09
 94.23706      9.9 1.250e+04 1.573e-09
 94.24820     11.2 1.297e+04 1.834e-09
 94.26898     12.3 1.368e+04 2.316e-09
 94.28650     13.0 1.466e+04 3.225e-09
 94.29689     12.7 1.392e+04 2.690e-09
 94.31053     14.1 1.525e+04 4.122e-09
 94.32156     14.4 1.644e+04 5.721e-09
 94.32671     14.5 1.603e+04 5.109e-09
 94.33640     14.5 1.643e+04 5.699e-09
 94.34624     14.6 1.686e+04 6.570e-09
 94.35143     14.6 1.614e+04 5.503e-09
 94.35718     14.5 1.654e+04 6.153e-09
 94.36757     12.5 1.884e+04 7.931e-09
 94.37615      2.8 2.675e+04 1.949e-08
 94.38135     -1.1 2.839e+04 2.322e-08
 94.38834    -12.8 2.662e+04 1.325e-07
 94.39873    -21.1 2.428e+04 2.754e-07
 94.40607    -27.4 2.480e+04 2.485e-07
 94.41126    -27.7 2.572e+04 1.757e-07
 94.41951    -34.7 3.198e+04 5.857e-08
 94.42990    -48.4 4.108e+04 7.396e-09
 94.43598    -71.8 2.288e+04 2.270e-09
 94.44118    -73.1 2.157e+04 1.944e-09
 94.45067    -80.1 1.352e+04 2.040e-09
 94.46071    -80.4 1.352e+04 2.053e-09
 94.46590    -81.0 1.322e+04 1.770e-09
 94.47669    -83.3 1.293e+04 1.673e-09
 94.49752    -84.5 1.298e+04 1.741e-09
 94.51544    -85.3 1.311e+04 1.956e-09
 94.52583    -85.4 1.245e+04 1.445e-09
 94.53907    -85.1 1.266e+04 1.646e-09
 94.55985    -84.3 1.280e+04 1.780e-09
 94.57527    -83.4 1.279e+04 1.771e-09
 94.58566    -83.3 1.205e+04 1.206e-09
 94.60140    -82.4 1.195e+04 1.133e-09
 94.62218    -81.6 1.176e+04 1.011e-09
 94.63511    -80.9 1.158e+04 8.878e-10
 94.64549    -81.0 1.112e+04 6.609e-10
 94.66373    -80.4 1.100e+04 6.021e-10
 94.68451    -79.8 1.091e+04 5.682e-10
 94.70528    -79.2 1.071e+04 4.993e-10
 94.72606    -78.4 1.070e+04 5.267e-10
 94.74438    -77.2 1.069e+04 5.609e-10
 94.75477    -77.2 1.067e+04 5.536e-10
 94.76761    -75.8 1.072e+04 5.881e-10
 94.78839    -74.4 1.078e+04 6.009e-10
 94.80421    -72.9 1.079e+04 5.946e-10
 94.81460    -72.9 1.081e+04 6.031e-10
 94.82994    -71.4 1.084e+04 5.811e-10
 94.85072    -70.2 1.084e+04 5.520e-10
 94.86404    -69.1 1.077e+04 5.238e-10
 94.87443    -69.1 1.082e+04 5.362e-10
 94.89227    -68.0 1.069e+04 5.135e-10
 94.91305    -67.0 1.055e+04 5.050e-10
 94.92388    -65.9 1.047e+04 5.044e-10
 94.93426    -66.1 1.044e+04 4.987e-10
 94.95460    -65.0 1.046e+04 5.117e-10
 94.97332    -64.1 1.056e+04 5.576e-10
 94.98371    -64.4 1.054e+04 5.535e-10
 94.99616    -63.6 1.071e+04 6.264e-10
 95.01693    -62.9 1.098e+04 7.340e-10
 95.03315    -62.4 1.132e+04 8.864e-10
 95.04354    -62.7 1.120e+04 8.622e-10
 95.05849    -62.2 1.145e+04 1.014e-09
 95.07926    -61.7 1.172e+04 1.180e-09
 95.09298    -61.7 1.195e+04 1.335e-09
 95.10337    -61.8 1.162e+04 1.141e-09
 95.11724    -62.2 1.194e+04 1.266e-09
 95.12763    -61.2 1.200e+04 1.305e-09
 95.14159    -63.4 1.297e+04 1.676e-09
 95.15282    -68.8 1.537e+04 3.262e-09
 95.16320    -70.8 1.547e+04 3.227e-09
 95.18315    -74.3 1.652e+04 5.575e-09
 95.19868    -75.2 1.660e+04 7.161e-09
 95.20736    -76.0 1.673e+04 7.441e-09
 95.21255    -76.5 1.673e+04 7.724e-09
 95.21941    -76.5 1.630e+04 6.808e-09
 95.22980    -77.1 1.622e+04 6.518e-09
 95.24543    -78.4 1.587e+04 4.686e-09
 95.26209    -82.3 1.537e+04 2.677e-09
 95.27248    -83.0 1.550e+04 2.536e-09
 95.28703    -90.0 1.355e+04 1.416e-09
 95.30781    -94.5 1.190e+04 1.116e-09
 95.32192    -95.5 1.178e+04 1.169e-09
 95.33231    -96.1 1.176e+04 1.160e-09
 95.34936    -96.2 1.182e+04 1.196e-09
 95.37014    -96.5 1.189e+04 1.171e-09
 95.38175    -97.3 1.207e+04 1.119e-09
 95.39214    -97.8 1.202e+04 1.105e-09
 95.41169    -99.0 1.218e+04 1.090e-09
 95.43120   -100.0 1.222e+04 1.135e-09
 95.44159    -99.8 1.204e+04 1.100e-09
 95.45324    -99.9 1.204e+04 1.165e-09
 95.47402    -99.6 1.211e+04 1.258e-09
 95.49103    -99.1 1.229e+04 1.367e-09
 95.50142    -98.3 1.197e+04 1.176e-09
 95.51557    -97.5 1.204e+04 1.194e-09
 95.53635    -96.6 1.212e+04 1.189e-09
 95.55086    -95.5 1.217e+04 1.190e-09
 95.56125    -94.9 1.177e+04 9.329e-10
 95.57790    -93.7 1.179e+04 9.040e-10
 95.59868    -92.8 1.197e+04 9.024e-10
 95.61069    -92.3 1.221e+04 9.366e-10
 95.62108    -91.6 1.163e+04 7.234e-10
 95.64023    -90.7 1.176e+04 7.574e-10
 95.66014    -90.1 1.235e+04 9.354e-10
 95.67053    -88.9 1.157e+04 6.986e-10
 95.68178    -88.1 1.236e+04 8.856e-10
 95.70256    -87.8 1.375e+04 1.309e-09
 95.71997    -87.5 1.518e+04 2.135e-09
 95.73036    -86.0 1.394e+04 1.349e-09
 95.74411    -85.6 1.532e+04 2.260e-09
 95.76489    -84.8 1.589e+04 3.294e-09
 95.77975    -84.1 1.652e+04 4.757e-09
 95.79014    -82.9 1.599e+04 3.688e-09
 95.80120    -83.1 1.768e+04 7.150e-09
 95.80962    -82.6 1.811e+04 7.976e-09
 95.81481    -81.9 1.747e+04 6.418e-09
 95.82193    -81.4 1.885e+04 9.153e-09
 95.83232    -81.3 1.896e+04 9.301e-09
 95.83954    -81.4 2.076e+04 1.393e-08
 95.84473    -80.3 2.019e+04 1.197e-08
 95.85309    -80.1 2.035e+04 1.237e-08
 95.86348    -80.5 2.146e+04 1.637e-08
 95.86945    -80.5 2.234e+04 1.908e-08
 95.87465    -79.0 2.151e+04 1.630e-08
 95.88426    -80.0 2.299e+04 2.211e-08
 95.89417    -80.7 2.417e+04 2.809e-08
 95.89937    -79.1 2.311e+04 2.480e-08
 95.90503    -79.8 2.448e+04 3.245e-08
 95.91542    -80.6 2.553e+04 4.031e-08
 95.92409    -81.5 2.467e+04 4.944e-08
 95.92928    -79.3 2.487e+04 4.418e-08
 95.93620    -79.5 2.429e+04 4.885e-08
 95.94659    -79.5 2.411e+04 4.650e-08
 95.95400    -79.5 2.401e+04 3.530e-08
 95.95920    -77.1 2.433e+04 4.412e-08
 95.96736    -77.1 2.510e+04 2.969e-08
 95.97775    -77.8 2.609e+04 1.693e-08
 95.98392    -77.2 2.743e+04 9.738e-09
 95.98911    -74.6 2.884e+04 1.399e-08
 95.99853    -76.4 3.165e+04 7.796e-09
 96.00864    -78.0 3.211e+04 5.671e-09
 96.01384    -75.6 3.519e+04 7.765e-09
 96.01931    -79.4 3.772e+04 4.712e-09
 96.02969    -81.5 3.852e+04 2.388e-09
 96.03856    -86.7 3.373e+04 1.579e-09
 96.04375    -83.6 3.861e+04 3.151e-09
 96.05571    -90.3 2.392e+04 4.056e-09
 96.06857    -93.3 1.590e+04 4.147e-09
 96.07896    -90.2 2.082e+04 5.003e-09
 96.09732    -91.1 1.665e+04 5.131e-09
 96.11802    -89.6 1.650e+04 5.170e-09
 96.13879    -86.6 1.725e+04 6.314e-09
 96.15965    -84.9 1.722e+04 5.602e-09
 96.17785    -83.5 1.696e+04 4.447e-09
 96.18824    -81.7 1.762e+04 6.335e-09
 96.20120    -80.3 1.722e+04 5.077e-09
 96.22198    -79.4 1.632e+04 3.559e-09
 96.23768    -78.7 1.493e+04 2.148e-09
 96.24807    -76.2 1.637e+04 3.627e-09
 96.26353    -75.7 1.488e+04 2.049e-09
 96.28431    -75.6 1.369e+04 1.081e-09
 96.29751    -75.8 1.266e+04 6.726e-10
 96.30790    -72.6 1.346e+04 9.708e-10
 96.32586    -72.6 1.283e+04 6.025e-10
 96.34664    -73.5 1.233e+04 4.772e-10
 96.35734    -75.3 1.177e+04 4.587e-10
 96.36773    -74.8 1.336e+04 5.026e-10
 96.38223    -77.3 1.288e+04 4.514e-10
 96.39262    -76.0 1.334e+04 4.940e-10
 96.40688    -80.8 1.177e+04 4.859e-10
 96.41727    -81.6 1.256e+04 7.385e-10
 96.42974    -82.9 1.406e+04 1.538e-09
 96.45052    -82.5 1.366e+04 1.576e-09
 96.46662    -82.0 1.349e+04 1.482e-09
 96.47701    -82.9 1.475e+04 2.326e-09
 96.49207    -82.9 1.429e+04 1.677e-09
 96.51285    -82.7 1.388e+04 1.396e-09
 96.52645    -82.4 1.361e+04 1.274e-09
 96.53684    -83.9 1.409e+04 1.529e-09
 96.55440    -83.2 1.382e+04 1.469e-09
 96.57518    -82.0 1.379e+04 1.522e-09
 96.58628    -81.3 1.375e+04 1.524e-09
 96.59667    -82.2 1.397e+04 1.624e-09
 96.61673    -81.4 1.374e+04 1.681e-09
 96.63573    -80.7 1.402e+04 1.679e-09
 96.64611    -80.9 1.406e+04 1.647e-09
 96.65828    -80.4 1.416e+04 1.813e-09
 96.67906    -79.7 1.433e+04 2.197e-09
 96.69556    -79.5 1.483e+04 2.642e-09
 96.70595    -79.5 1.471e+04 2.328e-09
 96.72061    -79.3 1.550e+04 3.235e-09
 96.73615    -79.1 1.617e+04 3.756e-09
 96.74649    -80.5 1.771e+04 4.525e-09
 96.75529    -83.6 2.004e+04 7.424e-09
 96.76049    -82.6 1.953e+04 6.346e-09
 96.76726    -85.1 2.064e+04 9.712e-09
 96.77765    -86.9 2.072e+04 1.494e-08
 96.78521    -88.5 2.044e+04 2.229e-08
 96.79040    -88.6 2.075e+04 1.952e-08
 96.79843    -88.7 1.984e+04 3.416e-08
 96.80882    -88.4 1.996e+04 4.515e-08
 96.81512    -87.8 2.065e+04 4.953e-08
 96.82032    -88.2 2.028e+04 4.613e-08
 96.82959    -88.1 2.138e+04 4.267e-08
 96.83985    -88.9 2.339e+04 3.221e-08
 96.84504    -88.7 2.238e+04 3.344e-08
 96.85037    -90.7 2.436e+04 2.389e-08
 96.86462    -98.6 2.103e+04 1.020e-08
 96.87505    -94.8 2.183e+04 1.464e-08
 96.88683   -102.1 1.778e+04 6.081e-09
 96.90760   -104.1 1.494e+04 4.005e-09
 96.92450   -104.0 1.427e+04 3.008e-09
 96.93489   -103.7 1.410e+04 2.682e-09
 96.94916   -103.9 1.343e+04 1.912e-09
 96.96993   -104.2 1.271e+04 1.361e-09
 96.98433   -104.3 1.221e+04 9.802e-10
 96.99472   -103.5 1.229e+04 1.085e-09
 97.01149   -103.3 1.190e+04 8.401e-10
 97.04275   -102.6 1.141e+04 6.622e-10
 97.08341   -101.8 1.090e+04 5.239e-10
 97.10419   -100.0 1.115e+04 6.354e-10
 97.12595    -98.6 1.081e+04 5.389e-10
 97.16751    -97.2 1.054e+04 4.473e-10
 97.20307    -96.0 1.026e+04 3.709e-10
 97.22385    -94.6 1.039e+04 4.029e-10
 97.25061    -93.6 1.002e+04 3.142e-10
 97.29217    -92.4 9.744e+03 2.516e-10
 97.32274    -91.2 9.472e+03 2.072e-10
 97.34352    -90.1 9.451e+03 2.044e-10
 97.37527    -88.7 9.345e+03 1.696e-10
 97.41683    -87.3 9.245e+03 1.517e-10
 97.44240    -85.8 9.179e+03 1.467e-10
 97.46318    -84.7 9.192e+03 1.439e-10
 97.49993    -83.1 9.169e+03 1.433e-10
 97.54129    -81.5 9.138e+03 1.431e-10
 97.58284    -79.2 9.330e+03 1.584e-10
 97.62459    -78.0 9.436e+03 1.613e-10
 97.64741    -77.0 9.531e+03 1.717e-10
 97.66300    -76.3 9.411e+03 1.527e-10
 97.68173    -75.7 9.608e+03 2.034e-10
 97.70770    -74.8 9.691e+03 2.094e-10
 97.74925    -74.5 9.922e+03 2.347e-10
 97.78062    -75.5 1.036e+04 3.500e-10
 97.80139    -74.9 1.042e+04 4.005e-10
 97.83236    -75.6 1.084e+04 6.419e-10
 97.87391    -75.7 1.114e+04 9.558e-10
 97.90028    -75.6 1.120e+04 1.061e-09
 97.92106    -75.1 1.090e+04 8.827e-10
 97.95702    -75.0 1.043e+04 6.222e-10
 97.99857    -75.8 9.754e+03 3.512e-10
 98.01994    -76.3 9.294e+03 2.339e-10
 98.04072    -75.2 9.298e+03 2.340e-10
 98.08168    -75.1 9.109e+03 1.938e-10
 98.11883    -74.4 8.991e+03 1.807e-10
 98.13961    -73.5 9.055e+03 1.874e-10
 98.16478    -72.8 9.119e+03 2.107e-10
 98.20634    -71.5 9.161e+03 2.204e-10
 98.23850    -70.2 9.185e+03 1.840e-10
 98.25927    -69.5 9.609e+03 3.021e-10
 98.28944    -68.2 9.465e+03 1.865e-10
 98.33100    -67.8 9.209e+03 1.086e-10
 98.35816    -67.4 8.904e+03 8.890e-11
 98.37894    -66.6 9.042e+03 1.127e-10
 98.41410    -65.3 8.817e+03 9.467e-11
 98.45566    -63.4 8.753e+03 8.511e-11
 98.47782    -61.6 8.672e+03 7.886e-11
 98.49860    -60.8 8.876e+03 8.313e-11
 98.53876    -59.4 8.956e+03 7.440e-11
 98.57671    -58.2 8.995e+03 8.143e-11
 98.59749    -57.6 9.089e+03 1.050e-10
 98.62187    -55.9 9.035e+03 1.209e-10
 98.66342    -54.1 9.065e+03 1.289e-10
 98.69637    -52.4 9.130e+03 1.311e-10
 98.71715    -51.7 9.304e+03 1.649e-10
 98.74653    -50.2 9.307e+03 1.634e-10
 98.78808    -48.9 9.320e+03 1.667e-10
 98.81604    -47.6 9.361e+03 1.763e-10
 98.83681    -46.8 9.477e+03 2.103e-10
 98.87119    -45.6 9.532e+03 2.214e-10
 98.91274    -44.6 9.623e+03 2.366e-10
 98.93570    -43.8 9.719e+03 2.514e-10
 98.95648    -42.9 9.780e+03 2.733e-10
 98.99585    -42.3 9.825e+03 2.716e-10
 99.03459    -41.8 9.797e+03 2.580e-10
 99.05537    -40.7 9.853e+03 2.661e-10
 99.07895    -40.2 9.705e+03 2.246e-10
 99.12051    -39.7 9.551e+03 1.706e-10
 99.15425    -39.7 9.484e+03 1.280e-10
 99.17503    -38.6 9.499e+03 1.279e-10
 99.20361    -38.5 9.444e+03 1.203e-10
 99.24517    -38.7 9.532e+03 1.324e-10
 99.27392    -38.6 9.681e+03 1.685e-10
 99.29469    -37.7 9.697e+03 1.684e-10
 99.32827    -37.5 9.923e+03 2.199e-10
 99.36983    -37.5 1.018e+04 2.758e-10
 99.39358    -38.3 1.056e+04 3.467e-10
 99.41436    -37.6 1.080e+04 4.044e-10
 99.45293    -38.9 1.120e+04 6.403e-10
 99.49247    -39.6 1.140e+04 8.559e-10
 99.51324    -39.0 1.158e+04 9.054e-10
 99.53604    -39.5 1.137e+04 8.227e-10
 99.57759    -40.0 1.107e+04 6.130e-10
 99.61213    -41.4 1.085e+04 4.572e-10
 99.63291    -40.8 1.082e+04 4.529e-10
 99.66070    -41.9 1.045e+04 3.758e-10
 99.70225    -42.1 1.007e+04 3.146e-10
 99.73179    -42.0 9.783e+03 2.513e-10
 99.75257    -41.2 9.638e+03 1.934e-10
 99.78536    -41.7 9.555e+03 1.615e-10
 99.82691    -42.3 9.447e+03 1.508e-10
 99.85146    -42.8 9.325e+03 1.465e-10
 99.87223    -41.7 9.329e+03 1.452e-10
 99.91002    -42.2 9.259e+03 1.417e-10
 99.95035    -42.7 9.216e+03 1.362e-10
 99.97112    -41.7 9.223e+03 1.355e-10
 99.99312    -42.6 9.195e+03 1.266e-10
