# Columns:
#   distance along LOS (in CHIMPs)
#   peculiar velocity  (in km/s)
#   temperature (K)
#   HI number density
# pos=(247.524,65.183,20.6155), angles=(0.63483,1.5506)
  0.00903    -62.6 1.061e+04 2.932e-10
  0.02227    -61.7 1.055e+04 2.675e-10
  0.05075    -60.0 1.052e+04 2.483e-10
  0.07947    -58.4 1.051e+04 2.331e-10
  0.10373    -57.4 1.042e+04 1.919e-10
  0.13667    -55.8 1.042e+04 1.856e-10
  0.16093    -54.8 1.034e+04 1.556e-10
  0.19387    -53.2 1.035e+04 1.630e-10
  0.21812    -52.1 1.030e+04 1.514e-10
  0.24481    -50.5 1.032e+04 1.692e-10
  0.27532    -48.8 1.033e+04 1.835e-10
  0.29958    -47.6 1.034e+04 1.872e-10
  0.33252    -45.9 1.035e+04 1.986e-10
  0.35678    -44.6 1.038e+04 2.051e-10
  0.38972    -43.0 1.038e+04 2.099e-10
  0.41397    -41.8 1.041e+04 2.157e-10
  0.43887    -40.3 1.041e+04 2.161e-10
  0.47117    -38.8 1.037e+04 2.117e-10
  0.49543    -37.7 1.042e+04 2.160e-10
  0.52837    -36.2 1.040e+04 2.125e-10
  0.55263    -35.3 1.046e+04 2.191e-10
  0.58441    -34.1 1.050e+04 2.233e-10
  0.60983    -33.1 1.067e+04 2.622e-10
  0.63408    -32.7 1.089e+04 3.190e-10
  0.66702    -31.6 1.114e+04 4.094e-10
  0.69128    -31.2 1.137e+04 4.821e-10
  0.72422    -30.4 1.156e+04 5.358e-10
  0.74848    -30.3 1.175e+04 5.298e-10
  0.77847    -29.7 1.175e+04 5.318e-10
  0.80568    -29.2 1.178e+04 5.106e-10
  0.82993    -29.5 1.190e+04 4.957e-10
  0.86288    -29.1 1.188e+04 5.039e-10
  0.88713    -29.5 1.203e+04 5.778e-10
  0.90351    -29.1 1.192e+04 5.920e-10
  0.91554    -29.1 1.198e+04 6.514e-10
  0.93201    -28.9 1.195e+04 7.058e-10
  0.94423    -29.0 1.195e+04 7.096e-10
  0.97252    -28.3 1.195e+04 7.718e-10
  1.00153    -27.9 1.195e+04 7.891e-10
  1.02579    -27.9 1.190e+04 7.579e-10
  1.05873    -27.5 1.178e+04 7.370e-10
  1.08298    -27.1 1.149e+04 5.859e-10
  1.11592    -26.3 1.125e+04 5.034e-10
  1.14018    -25.6 1.092e+04 3.331e-10
  1.16658    -24.8 1.070e+04 2.739e-10
  1.19738    -23.8 1.050e+04 2.172e-10
  1.22164    -22.8 1.035e+04 1.578e-10
  1.25458    -21.6 1.023e+04 1.301e-10
  1.27883    -20.4 1.020e+04 1.094e-10
  1.31178    -19.2 1.010e+04 9.564e-11
  1.33603    -17.8 1.006e+04 9.234e-11
  1.36064    -16.4 9.981e+03 8.748e-11
  1.39323    -15.0 9.921e+03 8.544e-11
  1.41749    -13.4 9.953e+03 8.646e-11
  1.45043    -12.0 9.926e+03 8.660e-11
  1.47469    -10.4 9.948e+03 9.145e-11
  1.50618     -9.1 9.903e+03 1.022e-10
  1.53188     -7.7 9.881e+03 1.162e-10
  1.55614     -6.0 9.927e+03 1.268e-10
  1.58908     -4.6 9.919e+03 1.390e-10
  1.61334     -2.9 9.976e+03 1.474e-10
  1.64628     -1.6 9.971e+03 1.497e-10
  1.67054      0.1 1.004e+04 1.529e-10
  1.70024      1.4 9.956e+03 1.487e-10
  1.72774      2.5 9.833e+03 1.388e-10
  1.75199      4.2 9.882e+03 1.431e-10
  1.78493      5.3 9.772e+03 1.409e-10
  1.80919      7.0 9.832e+03 1.546e-10
  1.84213      8.1 9.742e+03 1.667e-10
  1.86639      9.9 9.868e+03 1.951e-10
  1.89430     11.1 9.860e+03 2.076e-10
  1.92359     12.3 9.851e+03 2.083e-10
  1.94784     14.1 1.012e+04 2.510e-10
  1.98078     15.1 9.907e+03 2.152e-10
  2.00504     16.6 1.015e+04 2.439e-10
  2.03798     17.3 9.869e+03 1.908e-10
  2.06224     18.5 1.016e+04 2.208e-10
  2.08836     19.3 9.863e+03 1.753e-10
  2.11944     20.3 9.654e+03 1.529e-10
  2.14370     21.3 9.962e+03 1.874e-10
  2.17664     22.4 9.815e+03 1.773e-10
  2.20089     23.3 1.010e+04 2.256e-10
  2.23383     24.5 1.001e+04 2.208e-10
  2.28235     26.8 1.017e+04 2.972e-10
  2.31529     28.1 1.024e+04 3.395e-10
  2.33955     29.3 1.038e+04 3.665e-10
  2.37249     30.5 1.036e+04 3.832e-10
  2.39665     31.5 1.039e+04 4.087e-10
  2.42786     32.9 1.035e+04 3.862e-10
  2.45394     33.8 1.028e+04 3.509e-10
  2.47820     35.5 1.030e+04 3.370e-10
  2.51114     36.5 1.016e+04 2.851e-10
  2.53540     38.1 1.023e+04 2.836e-10
  2.56834     39.4 1.008e+04 2.542e-10
  2.59260     40.7 1.017e+04 2.683e-10
  2.62202     42.2 1.011e+04 2.728e-10
  2.64979     43.7 1.005e+04 2.859e-10
  2.66182     44.0 1.008e+04 3.090e-10
  2.67820     44.3 1.007e+04 3.125e-10
  2.69033     44.9 1.006e+04 3.384e-10
  2.70689     46.1 1.012e+04 3.375e-10
  2.73115     46.9 1.013e+04 3.982e-10
  2.74752     47.9 1.018e+04 3.879e-10
  2.75965     48.3 1.032e+04 4.571e-10
  2.77612     49.0 1.031e+04 4.236e-10
  2.78825     49.5 1.051e+04 4.954e-10
  2.80375     50.2 1.052e+04 4.452e-10
  2.81685     50.9 1.050e+04 4.036e-10
  2.82898     51.0 1.069e+04 4.505e-10
  2.84545     51.7 1.069e+04 4.225e-10
  2.85758     51.7 1.091e+04 4.713e-10
  2.87405     52.5 1.089e+04 4.630e-10
  2.88618     52.3 1.139e+04 5.708e-10
  2.90078     53.3 1.126e+04 5.610e-10
  2.91478     54.3 1.122e+04 5.783e-10
  2.92691     53.9 1.206e+04 9.049e-10
  2.94275     55.2 1.192e+04 9.162e-10
  2.94896     53.7 1.375e+04 1.588e-09
  2.95550     52.3 1.624e+04 3.633e-09
  2.97197     53.9 1.586e+04 3.251e-09
  2.98410     52.7 1.757e+04 6.354e-09
  2.99781     54.3 1.735e+04 5.824e-09
  3.01270     55.8 1.709e+04 5.453e-09
  3.02483     54.9 1.825e+04 8.163e-09
  3.04130     56.4 1.825e+04 8.157e-09
  3.05343     55.4 1.866e+04 8.939e-09
  3.06990     57.0 1.894e+04 9.814e-09
  3.08203     56.2 1.887e+04 8.904e-09
  3.09484     57.8 1.936e+04 1.063e-08
  3.11063     59.2 1.986e+04 1.271e-08
  3.12276     58.6 1.963e+04 1.042e-08
  3.13923     60.2 2.041e+04 1.367e-08
  3.15136     59.7 1.980e+04 8.711e-09
  3.16761     61.0 2.111e+04 1.365e-08
  3.17991     61.7 2.196e+04 1.986e-08
  3.19203     61.6 2.168e+04 1.108e-08
  3.20850     62.2 2.272e+04 1.645e-08
  3.22063     62.1 2.166e+04 5.948e-09
  3.22887     63.0 2.392e+04 1.802e-08
  3.23488     62.4 2.309e+04 8.888e-09
  3.24312     62.8 2.410e+04 1.304e-08
  3.24923     61.7 2.092e+04 2.625e-09
  3.25747     62.6 2.458e+04 9.143e-09
  3.26348     61.8 2.328e+04 4.691e-09
  3.27060     62.0 2.444e+04 7.110e-09
  3.27778     62.8 2.581e+04 1.081e-08
  3.28996     60.9 2.249e+04 5.333e-09
  3.30643     60.9 2.464e+04 7.753e-09
  3.31245     59.4 2.100e+04 7.264e-09
  3.31912     59.3 2.201e+04 9.605e-09
  3.32675     60.5 2.570e+04 1.241e-08
  3.33281     58.8 2.092e+04 1.103e-08
  3.34104     59.3 2.442e+04 1.450e-08
  3.34711     57.5 2.072e+04 1.409e-08
  3.35534     57.7 2.321e+04 1.847e-08
  3.36141     56.0 2.102e+04 1.804e-08
  3.36763     55.7 2.249e+04 2.588e-08
  3.37571     55.6 2.604e+04 3.639e-08
  3.38177     54.7 2.222e+04 3.892e-08
  3.39001     54.7 2.470e+04 5.206e-08
  3.39607     54.6 2.194e+04 5.622e-08
  3.40402     55.6 2.432e+04 7.501e-08
  3.41037     55.8 2.800e+04 9.192e-08
  3.41644     56.0 2.459e+04 8.839e-08
  3.42467     55.5 2.753e+04 8.894e-08
  3.43074     55.0 2.427e+04 8.088e-08
  3.43897     54.6 2.669e+04 6.447e-08
  3.44503     53.7 2.330e+04 5.455e-08
  3.45253     53.1 2.515e+04 4.203e-08
  3.45933     52.7 2.732e+04 3.829e-08
  3.46540     52.0 2.258e+04 2.615e-08
  3.47363     51.5 2.492e+04 2.424e-08
  3.47970     50.3 2.054e+04 1.680e-08
  3.48793     49.9 2.277e+04 1.574e-08
  3.49400     49.1 1.872e+04 1.100e-08
  3.50105     48.7 2.066e+04 1.065e-08
  3.50830     48.5 2.321e+04 1.072e-08
  3.51441     49.0 1.622e+04 5.453e-09
  3.52265     47.8 2.128e+04 6.886e-09
  3.52866     47.5 1.929e+04 4.698e-09
  3.53690     47.3 2.189e+04 5.025e-09
  3.54301     48.7 1.414e+04 2.516e-09
  3.55572     46.2 2.243e+04 2.225e-09
  3.57161     43.0 4.286e+04 1.732e-09
  3.58374     42.6 3.309e+04 2.255e-09
  3.59813     42.5 4.132e+04 6.327e-09
  3.60622     42.8 4.025e+04 1.337e-08
  3.61234     42.8 3.764e+04 1.983e-09
  3.62057     40.2 5.335e+04 3.430e-09
  3.62659     39.2 4.893e+04 1.656e-09
  3.63446     36.4 4.967e+04 1.915e-09
  3.64089     31.0 4.627e+04 2.761e-09
  3.65306     33.6 2.411e+04 3.227e-09
  3.66953     28.0 2.809e+04 5.275e-09
  3.68166     34.7 1.942e+04 4.538e-09
  3.68990     29.2 2.757e+04 9.037e-09
  3.69591     31.7 2.445e+04 6.241e-09
  3.70415     30.9 2.644e+04 7.501e-09
  3.71026     37.7 1.699e+04 4.694e-09
  3.72552     35.1 2.329e+04 4.351e-09
  3.73886     33.7 2.653e+04 5.474e-09
  3.75099     37.2 1.960e+04 2.498e-09
  3.76751     34.9 2.464e+04 2.845e-09
  3.77964     37.9 1.478e+04 1.706e-09
  3.79611     36.0 1.958e+04 1.650e-09
  3.80824     38.2 1.246e+04 1.515e-09
  3.82255     37.1 1.435e+04 1.409e-09
  3.83683     36.2 1.935e+04 2.031e-09
  3.84896     37.9 1.257e+04 1.373e-09
  3.86543     36.9 1.528e+04 1.619e-09
  3.87756     38.5 1.230e+04 1.338e-09
  3.89403     37.5 1.371e+04 1.637e-09
  3.90616     39.2 1.230e+04 1.261e-09
  3.91958     38.7 1.326e+04 1.795e-09
  3.93476     39.4 1.544e+04 3.166e-09
  3.94689     40.3 1.319e+04 1.895e-09
  3.96336     41.1 1.457e+04 2.949e-09
  3.97549     42.1 1.313e+04 1.912e-09
  3.99196     43.1 1.406e+04 2.757e-09
  4.00409     44.0 1.307e+04 1.854e-09
  4.01661     45.1 1.372e+04 2.525e-09
  4.03269     46.3 1.411e+04 3.040e-09
  4.04481     47.2 1.335e+04 1.996e-09
  4.06129     48.5 1.359e+04 2.310e-09
  4.07341     49.3 1.308e+04 1.670e-09
  4.08938     50.3 1.315e+04 1.805e-09
  4.10211     51.5 1.313e+04 1.773e-09
  4.12647     53.5 1.245e+04 1.077e-09
  4.15941     55.8 1.236e+04 1.155e-09
  4.18366     57.8 1.173e+04 6.599e-10
  4.21660     60.2 1.181e+04 7.858e-10
  4.24086     62.0 1.126e+04 4.215e-10
  4.27151     64.5 1.148e+04 6.080e-10
  4.29806     67.2 1.151e+04 7.818e-10
  4.32232     69.0 1.130e+04 5.484e-10
  4.35526     71.9 1.150e+04 8.148e-10
  4.37951     73.8 1.124e+04 5.472e-10
  4.41246     76.8 1.160e+04 8.928e-10
  4.43671     78.7 1.126e+04 5.755e-10
  4.46557     81.7 1.179e+04 1.013e-09
  4.49391     84.8 1.222e+04 1.385e-09
  4.51817     86.7 1.212e+04 1.204e-09
  4.55111     89.7 1.267e+04 1.763e-09
  4.57537     91.6 1.258e+04 1.538e-09
  4.59174     92.8 1.319e+04 2.223e-09
  4.60377     93.9 1.301e+04 2.037e-09
  4.62024     95.2 1.342e+04 2.503e-09
  4.63237     96.6 1.322e+04 2.274e-09
  4.64730     98.1 1.402e+04 2.865e-09
  4.66097     98.6 1.489e+04 3.576e-09
  4.67310    100.2 1.481e+04 3.318e-09
  4.68957     99.9 1.601e+04 4.567e-09
  4.70170    101.7 1.603e+04 4.113e-09
  4.71817    101.0 1.726e+04 6.503e-09
  4.73029    102.6 1.746e+04 5.757e-09
  4.74433    102.0 1.839e+04 9.901e-09
  4.75889    102.5 1.827e+04 1.570e-08
  4.77102    103.4 1.927e+04 1.606e-08
  4.78673    104.8 1.936e+04 2.470e-08
  4.79346    104.9 1.929e+04 2.657e-08
  4.79952    105.1 1.971e+04 3.161e-08
  4.80776    106.2 1.967e+04 3.590e-08
  4.81382    106.5 2.000e+04 4.310e-08
  4.82206    107.4 1.995e+04 4.358e-08
  4.82812    107.6 2.035e+04 5.397e-08
  4.83520    107.9 2.014e+04 4.992e-08
  4.84242    108.4 2.011e+04 3.918e-08
  4.84849    108.4 2.012e+04 5.183e-08
  4.85672    108.9 2.031e+04 4.106e-08
  4.86279    109.0 2.037e+04 6.385e-08
  4.87102    109.3 2.055e+04 5.349e-08
  4.87709    109.7 2.076e+04 1.142e-07
  4.88371    110.0 2.131e+04 8.262e-08
  4.89138    110.1 2.333e+04 3.496e-08
  4.89745    109.9 2.321e+04 6.234e-08
  4.90568    109.7 2.560e+04 1.893e-08
  4.91175    108.8 2.465e+04 2.774e-08
  4.91998    106.6 2.420e+04 9.651e-09
  4.92605    106.8 2.451e+04 1.413e-08
  4.93834    103.1 1.950e+04 6.562e-09
  4.95474    101.3 1.490e+04 1.845e-09
  4.96687    102.4 1.685e+04 3.184e-09
  4.98334    100.5 1.317e+04 1.294e-09
  4.99547    101.6 1.509e+04 2.009e-09
  5.01116    100.1 1.246e+04 1.102e-09
  5.02407     99.9 1.171e+04 8.689e-10
  5.03620    100.0 1.222e+04 1.007e-09
  5.05267     99.9 1.158e+04 8.466e-10
  5.06480    100.0 1.197e+04 9.446e-10
  5.08127     99.8 1.140e+04 8.326e-10
  5.09340     99.7 1.161e+04 8.810e-10
  5.10819     99.8 1.124e+04 8.090e-10
  5.12200    100.3 1.112e+04 7.833e-10
  5.13413    100.0 1.115e+04 7.763e-10
  5.15060    100.7 1.110e+04 7.332e-10
  5.16272    100.3 1.113e+04 7.188e-10
  5.17919    100.9 1.105e+04 6.463e-10
  5.19132    100.4 1.107e+04 6.348e-10
  5.20522    101.0 1.098e+04 5.702e-10
  5.21992    101.6 1.081e+04 5.158e-10
  5.23205    101.2 1.083e+04 5.155e-10
  5.24852    102.0 1.069e+04 4.797e-10
  5.26065    101.6 1.078e+04 4.891e-10
  5.27712    102.6 1.068e+04 4.699e-10
  5.28925    102.3 1.083e+04 4.955e-10
  5.30224    103.6 1.073e+04 4.809e-10
  5.31785    104.8 1.056e+04 4.508e-10
  5.32998    104.6 1.079e+04 5.039e-10
  5.34645    106.0 1.066e+04 4.745e-10
  5.35858    106.0 1.086e+04 5.358e-10
  5.37502    107.4 1.081e+04 5.098e-10
  5.39927    109.0 1.092e+04 5.458e-10
  5.41577    110.4 1.092e+04 4.843e-10
  5.42790    110.5 1.107e+04 5.751e-10
  5.44437    112.1 1.104e+04 5.211e-10
  5.45650    112.3 1.139e+04 6.369e-10
  5.47205    113.7 1.115e+04 5.696e-10
  5.48510    115.2 1.092e+04 5.191e-10
  5.49723    115.6 1.140e+04 6.601e-10
  5.51370    117.0 1.110e+04 5.653e-10
  5.52583    117.3 1.201e+04 8.787e-10
  5.54230    119.0 1.164e+04 6.420e-10
  5.55443    118.9 1.348e+04 1.436e-09
  5.56907    120.7 1.259e+04 9.308e-10
  5.58303    122.6 1.150e+04 7.603e-10
  5.59515    122.3 1.482e+04 2.033e-09
  5.61162    125.0 1.457e+04 1.510e-09
  5.62370    125.2 1.592e+04 2.315e-09
  5.64018    127.6 1.517e+04 1.637e-09
  5.65230    126.9 1.802e+04 3.565e-09
  5.65994    128.3 1.698e+04 2.131e-09
  5.66655    128.7 1.610e+04 1.732e-09
  5.67262    127.6 1.938e+04 4.558e-09
  5.68085    129.0 1.824e+04 2.686e-09
  5.68692    127.2 2.094e+04 1.063e-08
  5.69515    128.0 2.032e+04 6.777e-09
  5.70122    126.9 2.147e+04 2.388e-08
  5.70846    128.1 2.124e+04 1.523e-08
  5.71552    128.7 2.102e+04 9.860e-09
  5.72158    128.2 2.170e+04 2.990e-08
  5.72982    128.9 2.163e+04 2.022e-08
  5.73588    128.1 2.179e+04 4.666e-08
  5.74412    128.4 2.177e+04 3.741e-08
  5.75018    127.9 2.190e+04 6.187e-08
  5.75697    128.1 2.188e+04 5.799e-08
  5.76448    127.6 2.201e+04 5.197e-08
  5.77054    127.0 2.225e+04 6.608e-08
  5.77878    126.3 2.209e+04 5.835e-08
  5.78484    125.7 2.220e+04 5.816e-08
  5.79308    125.0 2.207e+04 5.206e-08
  5.79914    124.2 2.226e+04 4.857e-08
  5.80548    123.3 2.207e+04 4.765e-08
  5.81344    122.5 2.196e+04 4.982e-08
  5.81951    121.8 2.235e+04 4.002e-08
  5.82774    121.1 2.217e+04 4.717e-08
  5.83381    120.5 2.271e+04 2.991e-08
  5.84187    120.3 2.222e+04 3.790e-08
  5.84811    120.2 2.167e+04 5.120e-08
  5.85417    120.1 2.217e+04 2.724e-08
  5.86241    120.5 2.166e+04 3.358e-08
  5.86847    120.3 2.209e+04 1.485e-08
  5.87671    120.8 2.139e+04 1.709e-08
  5.88888    120.6 2.137e+04 3.778e-09
  5.90540    120.3 1.966e+04 5.113e-09
  5.91753    118.4 1.600e+04 9.878e-10
  5.93293    119.1 1.630e+04 1.475e-09
  5.94613    119.8 1.544e+04 1.963e-09
  5.95826    119.1 1.193e+04 6.402e-10
  5.97473    119.4 1.216e+04 8.494e-10
  5.98686    119.5 1.064e+04 4.863e-10
  6.00333    119.8 1.071e+04 5.737e-10
  6.01546    120.6 1.047e+04 4.659e-10
  6.02996    121.0 1.063e+04 5.270e-10
  6.04406    121.8 1.107e+04 7.479e-10
  6.05618    122.2 1.100e+04 5.844e-10
  6.07265    122.9 1.135e+04 7.971e-10
  6.08478    123.0 1.140e+04 7.721e-10
  6.10125    123.6 1.170e+04 1.026e-09
  6.11338    123.6 1.174e+04 1.039e-09
  6.12699    124.3 1.202e+04 1.281e-09
  6.14198    125.2 1.214e+04 1.347e-09
  6.15411    124.9 1.221e+04 1.422e-09
  6.17058    125.8 1.212e+04 1.361e-09
  6.18271    125.5 1.218e+04 1.452e-09
  6.19860    126.3 1.196e+04 1.201e-09
  6.21014    126.4 1.167e+04 9.583e-10
  6.21131    126.1 1.177e+04 1.033e-09
  6.22402    126.5 1.156e+04 8.228e-10
  6.23991    126.6 1.134e+04 6.629e-10
  6.25204    126.1 1.146e+04 7.241e-10
  6.26851    126.2 1.123e+04 6.153e-10
  6.28063    125.7 1.142e+04 7.123e-10
  6.29679    125.7 1.121e+04 6.546e-10
  6.30923    126.1 1.116e+04 6.553e-10
  6.32136    125.4 1.141e+04 7.668e-10
  6.33783    125.7 1.150e+04 8.018e-10
  6.34996    124.8 1.191e+04 9.897e-10
  6.36643    124.9 1.215e+04 1.104e-09
  6.37856    123.7 1.261e+04 1.393e-09
  6.39382    124.1 1.281e+04 1.542e-09
  6.40716    124.5 1.304e+04 1.711e-09
  6.41929    123.5 1.317e+04 1.859e-09
  6.43576    123.8 1.324e+04 1.857e-09
  6.44789    123.0 1.310e+04 1.764e-09
  6.46436    123.5 1.302e+04 1.613e-09
  6.47649    122.9 1.265e+04 1.308e-09
  6.49085    123.0 1.251e+04 1.151e-09
  6.50508    123.0 1.234e+04 1.023e-09
  6.51721    122.4 1.204e+04 8.801e-10
  6.53368    122.5 1.194e+04 8.475e-10
  6.54581    122.2 1.180e+04 7.971e-10
  6.56228    122.6 1.179e+04 8.265e-10
  6.57441    122.7 1.169e+04 7.975e-10
  6.58788    123.3 1.168e+04 8.179e-10
  6.60301    123.8 1.166e+04 8.096e-10
  6.61514    124.1 1.158e+04 7.884e-10
  6.63161    124.3 1.158e+04 7.764e-10
  6.64374    124.3 1.157e+04 7.761e-10
  6.66021    123.8 1.171e+04 8.179e-10
  6.67234    123.5 1.177e+04 8.798e-10
  6.68491    122.3 1.215e+04 1.114e-09
  6.70094    121.3 1.259e+04 1.519e-09
  6.71306    121.3 1.265e+04 1.727e-09
  6.72953    120.9 1.305e+04 2.200e-09
  6.74166    121.2 1.304e+04 2.177e-09
  6.75768    120.9 1.322e+04 2.246e-09
  6.77026    120.7 1.318e+04 2.036e-09
  6.78239    120.6 1.301e+04 1.644e-09
  6.79886    119.3 1.319e+04 1.221e-09
  6.81099    118.0 1.325e+04 1.018e-09
  6.82746    115.2 1.355e+04 9.446e-10
  6.83959    113.8 1.373e+04 1.015e-09
  6.85471    111.5 1.437e+04 1.332e-09
  6.86819    110.6 1.476e+04 1.823e-09
  6.88032    110.2 1.502e+04 2.143e-09
  6.89679    109.9 1.553e+04 3.333e-09
  6.90892    109.8 1.551e+04 3.660e-09
  6.92539    110.3 1.579e+04 4.944e-09
  6.93751    110.4 1.563e+04 4.889e-09
  6.95174    111.2 1.573e+04 5.223e-09
  6.96611    111.8 1.572e+04 4.968e-09
  6.97824    111.8 1.535e+04 4.123e-09
  6.99471    111.9 1.522e+04 3.447e-09
  7.00684    111.2 1.474e+04 2.720e-09
  7.02331    111.1 1.432e+04 2.134e-09
  7.03544    110.1 1.361e+04 1.668e-09
  7.04877    110.0 1.335e+04 1.494e-09
  7.06404    110.3 1.297e+04 1.325e-09
  7.07617    110.1 1.249e+04 1.148e-09
  7.09264    110.5 1.248e+04 1.136e-09
  7.10477    110.4 1.221e+04 1.049e-09
  7.12124    111.4 1.213e+04 1.021e-09
  7.14559    111.9 1.225e+04 1.072e-09
  7.17863    113.9 1.222e+04 1.072e-09
  7.20289    114.9 1.178e+04 8.670e-10
  7.23089    117.2 1.184e+04 9.079e-10
  7.26009    119.6 1.187e+04 9.228e-10
  7.28434    120.5 1.163e+04 8.016e-10
  7.31728    122.7 1.177e+04 8.936e-10
  7.34154    123.4 1.158e+04 7.984e-10
  7.37448    125.6 1.179e+04 9.425e-10
  7.39874    126.1 1.161e+04 8.426e-10
  7.42495    128.4 1.188e+04 9.882e-10
  7.45594    130.6 1.190e+04 9.703e-10
  7.48019    130.8 1.187e+04 9.247e-10
  7.51314    132.9 1.185e+04 8.822e-10
  7.53739    132.8 1.172e+04 7.814e-10
  7.57033    134.9 1.165e+04 7.356e-10
  7.61885    137.0 1.133e+04 6.042e-10
  7.65179    139.4 1.113e+04 5.688e-10
  7.66382    139.1 1.105e+04 5.330e-10
  7.67945    139.4 1.106e+04 5.391e-10
  7.69232    141.3 1.098e+04 5.358e-10
  7.70445    141.0 1.090e+04 5.131e-10
  7.72092    142.1 1.091e+04 5.245e-10
  7.73305    142.1 1.078e+04 4.829e-10
  7.74952    143.6 1.078e+04 5.040e-10
  7.76165    143.5 1.065e+04 4.656e-10
  7.77648    144.9 1.066e+04 4.854e-10
  7.79025    146.6 1.073e+04 5.203e-10
  7.80237    146.6 1.059e+04 4.743e-10
  7.81885    147.9 1.070e+04 5.165e-10
  7.83097    148.0 1.054e+04 4.750e-10
  7.83865    149.2 1.061e+04 5.171e-10
  7.84897    149.7 1.069e+04 5.265e-10
  7.85957    150.0 1.053e+04 4.928e-10
  7.87351    151.0 1.061e+04 5.353e-10
  7.88817    152.1 1.073e+04 5.985e-10
  7.90030    152.3 1.056e+04 5.604e-10
  7.91677    153.4 1.073e+04 6.413e-10
  7.92890    153.6 1.054e+04 5.968e-10
  7.94537    154.7 1.075e+04 6.870e-10
  7.95750    154.7 1.059e+04 6.465e-10
  7.97054    155.6 1.079e+04 7.393e-10
  7.98610    156.6 1.099e+04 8.387e-10
  7.99823    156.4 1.089e+04 8.046e-10
  8.01470    157.2 1.106e+04 8.882e-10
  8.02683    156.8 1.094e+04 8.452e-10
  8.04330    157.6 1.105e+04 9.126e-10
  8.06765    157.6 1.081e+04 8.273e-10
  8.10069    159.2 1.090e+04 8.843e-10
  8.12495    158.5 1.030e+04 6.263e-10
  8.15266    160.0 1.018e+04 5.693e-10
  8.18214    161.5 9.992e+03 4.923e-10
  8.20640    160.3 8.987e+03 2.503e-10
  8.23934    161.7 8.662e+03 2.047e-10
  8.26360    160.2 8.029e+03 1.325e-10
  8.29654    162.0 8.009e+03 1.290e-10
  8.32080    161.4 7.993e+03 1.282e-10
  8.34672    163.5 7.994e+03 1.293e-10
  8.37800    165.7 8.000e+03 1.363e-10
  8.40225    165.2 8.044e+03 1.423e-10
  8.43519    167.3 8.199e+03 1.692e-10
  8.45945    166.5 8.326e+03 1.790e-10
  8.49227    168.3 8.760e+03 2.388e-10
  8.54078    168.1 9.454e+03 3.478e-10
  8.57375    168.3 9.622e+03 3.890e-10
  8.58578    167.1 9.678e+03 3.971e-10
  8.60123    167.3 9.889e+03 4.606e-10
  8.61438    167.1 1.015e+04 5.634e-10
  8.62651    165.9 1.021e+04 5.817e-10
  8.64298    165.6 1.052e+04 7.142e-10
  8.65511    164.4 1.060e+04 7.466e-10
  8.67158    164.1 1.098e+04 9.089e-10
  8.68371    163.0 1.103e+04 9.377e-10
  8.69826    162.6 1.140e+04 1.101e-09
  8.71230    161.9 1.171e+04 1.233e-09
  8.72443    160.8 1.161e+04 1.163e-09
  8.74090    159.8 1.163e+04 1.160e-09
  8.75303    158.7 1.146e+04 1.083e-09
  8.76950    157.5 1.141e+04 1.054e-09
  8.78163    156.5 1.126e+04 9.975e-10
  8.79529    155.4 1.105e+04 9.199e-10
  8.81023    154.4 1.077e+04 8.135e-10
  8.82236    153.7 1.067e+04 7.905e-10
  8.83883    152.8 1.040e+04 6.855e-10
  8.85096    152.3 1.039e+04 6.850e-10
  8.86743    151.3 1.016e+04 5.856e-10
  8.87956    150.9 1.021e+04 6.003e-10
  8.89231    149.7 1.011e+04 5.380e-10
  8.90816    148.4 1.013e+04 5.313e-10
  8.92028    147.9 1.021e+04 5.453e-10
  8.93676    146.7 1.022e+04 5.468e-10
  8.94888    146.2 1.023e+04 5.429e-10
  8.96509    144.8 1.030e+04 5.543e-10
  8.97748    142.8 1.060e+04 6.165e-10
  8.98961    142.4 1.057e+04 5.913e-10
  9.00608    139.7 1.132e+04 7.784e-10
  9.01821    139.5 1.115e+04 7.136e-10
  9.03468    135.7 1.269e+04 1.178e-09
  9.04681    135.1 1.300e+04 1.223e-09
  9.06212    130.6 1.599e+04 3.059e-09
  9.07541    126.3 1.909e+04 8.494e-09
  9.08754    126.7 1.944e+04 8.765e-09
  9.10401    123.8 2.104e+04 1.793e-08
  9.11614    124.7 2.110e+04 1.848e-08
  9.13261    122.1 2.149e+04 2.096e-08
  9.14473    123.5 2.154e+04 2.227e-08
  9.15914    120.9 2.147e+04 1.840e-08
  9.17333    117.9 2.100e+04 1.159e-08
  9.18546    118.6 2.148e+04 1.136e-08
  9.20193    114.3 2.020e+04 4.901e-09
  9.21406    114.4 2.051e+04 4.410e-09
  9.23053    108.9 1.725e+04 1.783e-09
  9.24266    108.8 1.719e+04 1.621e-09
  9.25617    104.7 1.262e+04 1.058e-09
  9.27126    102.6 1.084e+04 9.178e-10
  9.28339    102.9 1.078e+04 9.033e-10
  9.29986    101.9 1.066e+04 7.315e-10
  9.31199    102.1 1.053e+04 6.819e-10
  9.32846    100.5 9.774e+03 5.538e-10
  9.34059    100.2 9.534e+03 5.040e-10
  9.35715    101.5 1.026e+04 4.485e-10
  9.38141    101.0 9.801e+03 4.203e-10
  9.39778    100.3 9.400e+03 3.714e-10
  9.40991    100.1 9.418e+03 3.833e-10
  9.42597     99.8 9.382e+03 3.835e-10
  9.43861     99.9 9.303e+03 3.764e-10
  9.45074     99.8 9.425e+03 4.138e-10
  9.46658     99.8 9.456e+03 4.210e-10
  9.47881     99.4 9.539e+03 4.475e-10
  9.49591     99.8 9.489e+03 4.275e-10
  9.50794    100.0 9.678e+03 5.025e-10
  9.52300    100.2 9.699e+03 5.040e-10
  9.53644    100.6 9.710e+03 5.019e-10
  9.54857    100.9 9.963e+03 5.975e-10
  9.56504    101.2 9.987e+03 5.989e-10
  9.57717    101.4 1.022e+04 6.938e-10
  9.59364    101.7 1.027e+04 6.788e-10
  9.60576    102.0 1.047e+04 7.701e-10
  9.62003    102.0 1.056e+04 7.690e-10
  9.63446    102.0 1.055e+04 7.013e-10
  9.65882    102.4 1.094e+04 8.583e-10
  9.69176    102.0 1.143e+04 9.641e-10
  9.71601    102.0 1.172e+04 1.039e-09
  9.74895    100.9 1.211e+04 1.134e-09
  9.77321    101.0 1.186e+04 9.652e-10
  9.80216    100.0 1.211e+04 9.128e-10
  9.83031     99.5 1.170e+04 6.645e-10
  9.85457     99.0 1.148e+04 5.036e-10
  9.88696     98.1 1.113e+04 3.998e-10
  9.89954     97.1 1.144e+04 4.457e-10
  9.91167     97.7 1.106e+04 3.626e-10
  9.92814     96.8 1.141e+04 4.791e-10
  9.94027     97.5 1.116e+04 4.008e-10
  9.95674     96.8 1.148e+04 5.811e-10
  9.96887     97.6 1.133e+04 5.005e-10
  9.98389     97.1 1.160e+04 7.414e-10
  9.99747     97.1 1.183e+04 1.063e-09
 10.00960     97.7 1.180e+04 9.727e-10
 10.02607     97.8 1.205e+04 1.335e-09
 10.03819     98.4 1.207e+04 1.269e-09
 10.05466     98.7 1.237e+04 1.608e-09
 10.06679     99.1 1.243e+04 1.626e-09
 10.08092     99.3 1.259e+04 1.732e-09
 10.09539     99.6 1.250e+04 1.612e-09
 10.10752     99.9 1.272e+04 1.773e-09
 10.12399     99.9 1.250e+04 1.469e-09
 10.13612    100.0 1.289e+04 1.723e-09
 10.15259     99.3 1.261e+04 1.347e-09
 10.16472     99.1 1.311e+04 1.667e-09
 10.17795     97.8 1.245e+04 1.266e-09
 10.19332     96.8 1.164e+04 9.742e-10
 10.20545     96.7 1.189e+04 1.185e-09
 10.22192     96.4 1.126e+04 9.252e-10
 10.23405     96.3 1.143e+04 1.061e-09
 10.25052     96.3 1.106e+04 8.173e-10
 10.26264     96.0 1.126e+04 9.085e-10
 10.27498     95.5 1.104e+04 7.259e-10
 10.29124     94.7 1.089e+04 6.234e-10
 10.30337     94.0 1.125e+04 7.965e-10
 10.31984     93.3 1.126e+04 8.245e-10
 10.33197     92.5 1.190e+04 1.157e-09
 10.34775     92.1 1.213e+04 1.347e-09
 10.36057     91.8 1.267e+04 1.663e-09
 10.37270     90.8 1.398e+04 2.513e-09
 10.38917     90.4 1.473e+04 3.181e-09
 10.40130     89.1 1.608e+04 4.682e-09
 10.41777     89.4 1.603e+04 5.013e-09
 10.42990     88.3 1.668e+04 6.269e-09
 10.44478     88.5 1.610e+04 5.472e-09
 10.45850     89.0 1.524e+04 4.240e-09
 10.47062     88.0 1.509e+04 3.996e-09
 10.48709     88.0 1.443e+04 2.976e-09
 10.49922     86.8 1.405e+04 2.527e-09
 10.51569     87.2 1.327e+04 1.863e-09
 10.52782     86.1 1.291e+04 1.655e-09
 10.54181     86.8 1.224e+04 1.205e-09
 10.55652     87.9 1.206e+04 9.769e-10
 10.56865     87.1 1.159e+04 8.342e-10
 10.58502     87.2 1.163e+04 8.134e-10
 10.59715     87.0 1.143e+04 7.345e-10
 10.61362     88.4 1.105e+04 5.501e-10
 10.62575     88.1 1.101e+04 5.339e-10
 10.63884     89.1 1.091e+04 4.274e-10
 10.65435     90.3 1.077e+04 3.289e-10
 10.66648     90.1 1.072e+04 3.491e-10
 10.68295     90.9 1.069e+04 3.039e-10
 10.69507     90.9 1.075e+04 3.421e-10
 10.71155     92.0 1.065e+04 3.002e-10
 10.73580     92.9 1.076e+04 3.271e-10
 10.75227     93.9 1.056e+04 2.983e-10
 10.76440     93.8 1.092e+04 3.781e-10
 10.78087     94.7 1.080e+04 3.698e-10
 10.79300     94.5 1.131e+04 5.014e-10
 10.80864     95.2 1.142e+04 5.174e-10
 10.82160     95.8 1.152e+04 5.616e-10
 10.83373     95.1 1.246e+04 8.575e-10
 10.85020     95.5 1.276e+04 9.725e-10
 10.86233     94.3 1.396e+04 1.599e-09
 10.87880     94.6 1.442e+04 1.974e-09
 10.89093     93.7 1.513e+04 3.255e-09
 10.90566     94.5 1.508e+04 4.055e-09
 10.91953     95.3 1.482e+04 4.261e-09
 10.92554     95.1 1.502e+04 4.877e-09
 10.93373     95.2 1.500e+04 4.898e-09
 10.93979     95.2 1.516e+04 5.318e-09
 10.94802     95.7 1.500e+04 5.235e-09
 10.96015     96.0 1.520e+04 5.626e-09
 10.96839     96.2 1.514e+04 5.391e-09
 10.97445     96.0 1.554e+04 6.039e-09
 10.98269     95.4 1.581e+04 6.292e-09
 10.98875     92.9 1.786e+04 8.222e-09
 10.99653     87.6 2.149e+04 1.195e-08
 11.00305     83.7 2.270e+04 1.711e-08
 11.00912     81.0 2.308e+04 2.550e-08
 11.01735     80.6 2.217e+04 2.711e-08
 11.02342     79.0 2.164e+04 3.527e-08
 11.03165     79.0 2.088e+04 3.299e-08
 11.03772     78.7 2.023e+04 4.067e-08
 11.04505     79.4 1.975e+04 2.885e-08
 11.05202     79.3 1.953e+04 1.862e-08
 11.05808     78.7 1.977e+04 1.811e-08
 11.07460     74.6 1.998e+04 5.778e-09
 11.08678     68.3 2.053e+04 3.303e-09
 11.09451     55.0 1.301e+04 9.696e-10
 11.10663     55.0 1.419e+04 9.443e-10
 11.11538     50.8 1.062e+04 6.822e-10
 11.12750     50.0 1.060e+04 8.433e-10
 11.14398     51.1 1.045e+04 7.564e-10
 11.15610     50.6 1.064e+04 8.513e-10
 11.17249     51.3 1.036e+04 7.132e-10
 11.19675     51.2 1.012e+04 5.984e-10
 11.21330     51.4 9.884e+03 4.977e-10
 11.22543     50.5 9.993e+03 5.234e-10
 11.24190     50.7 9.743e+03 4.613e-10
 11.25403     49.4 1.012e+04 5.805e-10
 11.26952     49.7 1.011e+04 5.851e-10
 11.28273     51.8 9.553e+03 4.622e-10
 11.30708     51.1 1.062e+04 8.740e-10
 11.34002     52.9 1.030e+04 7.448e-10
 11.36428     52.5 1.080e+04 9.158e-10
 11.39722     53.6 1.045e+04 7.206e-10
 11.42148     52.5 1.042e+04 6.892e-10
 11.45165     53.2 1.028e+04 5.931e-10
 11.47868     54.1 1.018e+04 5.361e-10
 11.50293     52.8 9.987e+03 4.909e-10
 11.53587     53.9 9.945e+03 4.646e-10
 11.56013     53.1 9.544e+03 3.714e-10
 11.59307     54.4 9.534e+03 3.391e-10
 11.61733     53.7 9.118e+03 2.315e-10
 11.64571     55.0 9.101e+03 2.010e-10
 11.67453     56.2 9.084e+03 1.820e-10
 11.69878     55.6 8.871e+03 1.584e-10
 11.73172     57.1 8.956e+03 1.674e-10
 11.75598     56.9 8.989e+03 1.721e-10
 11.78892     58.8 9.133e+03 2.046e-10
 11.81318     58.7 9.302e+03 2.273e-10
 11.83976     60.9 9.485e+03 2.749e-10
 11.87038     63.2 9.687e+03 3.218e-10
 11.89463     63.0 9.861e+03 3.221e-10
 11.92758     65.0 1.009e+04 3.554e-10
 11.95183     64.1 1.018e+04 3.561e-10
 11.98477     65.5 1.046e+04 3.994e-10
 12.00903     64.4 1.042e+04 4.059e-10
 12.03382     65.7 1.061e+04 4.762e-10
 12.06623     67.1 1.079e+04 5.682e-10
 12.09049     66.8 1.038e+04 4.451e-10
 12.12343     68.3 1.028e+04 3.932e-10
 12.14768     68.0 9.876e+03 2.722e-10
 12.17936     69.0 9.578e+03 1.951e-10
 12.20488     69.8 9.345e+03 1.540e-10
 12.22914     70.3 9.124e+03 1.149e-10
 12.26208     71.8 9.127e+03 1.151e-10
 12.28634     72.6 9.010e+03 8.730e-11
 12.31928     74.3 9.074e+03 9.210e-11
 12.34354     75.2 9.021e+03 8.076e-11
 12.37342     77.1 9.149e+03 8.758e-11
 12.40073     78.9 9.391e+03 1.134e-10
 12.42499     80.0 9.341e+03 9.491e-11
 12.45793     81.8 9.507e+03 1.248e-10
 12.48219     83.0 9.391e+03 1.133e-10
 12.51513     84.8 9.553e+03 1.506e-10
 12.53939     86.2 9.464e+03 1.450e-10
 12.56748     88.1 9.700e+03 1.937e-10
 12.59658     90.0 9.969e+03 2.260e-10
 12.62084     91.5 1.001e+04 2.526e-10
 12.65378     93.3 1.019e+04 2.604e-10
 12.67804     94.8 1.031e+04 3.048e-10
 12.71050     96.4 1.034e+04 2.957e-10
 12.73271     96.5 1.009e+04 2.806e-10
 12.73524     98.1 1.019e+04 3.307e-10
 12.76154     99.6 1.020e+04 2.919e-10
 12.79244    101.1 1.012e+04 2.251e-10
 12.81669    103.1 1.034e+04 3.125e-10
 12.84963    104.4 1.025e+04 2.461e-10
 12.87389    106.5 1.048e+04 3.449e-10
 12.90683    108.0 1.045e+04 2.929e-10
 12.93109    109.9 1.062e+04 3.716e-10
 12.95560    111.5 1.065e+04 3.236e-10
 12.98829    113.0 1.069e+04 3.198e-10
 13.01254    114.9 1.095e+04 3.504e-10
 13.04549    116.4 1.105e+04 3.580e-10
 13.06965    117.3 1.117e+04 3.789e-10
 13.08602    118.2 1.129e+04 3.945e-10
 13.09815    118.8 1.134e+04 4.286e-10
 13.11307    119.6 1.145e+04 4.710e-10
 13.12675    120.5 1.154e+04 5.197e-10
 13.13887    121.3 1.162e+04 5.864e-10
 13.15534    122.2 1.173e+04 6.488e-10
 13.16747    122.7 1.175e+04 7.075e-10
 13.18394    123.6 1.190e+04 7.905e-10
 13.19607    123.9 1.191e+04 8.625e-10
 13.21010    124.7 1.213e+04 9.880e-10
 13.22467    125.4 1.239e+04 1.119e-09
 13.23680    125.7 1.236e+04 1.299e-09
 13.25327    126.4 1.277e+04 1.564e-09
 13.26540    126.6 1.266e+04 1.674e-09
 13.28187    127.3 1.312e+04 2.185e-09
 13.29400    127.7 1.305e+04 2.162e-09
 13.30713    128.4 1.364e+04 2.927e-09
 13.32260    129.3 1.444e+04 4.149e-09
 13.33473    129.6 1.429e+04 3.933e-09
 13.35120    130.4 1.545e+04 5.903e-09
 13.36332    130.5 1.505e+04 4.985e-09
 13.37979    130.8 1.625e+04 7.502e-09
 13.39192    130.5 1.560e+04 5.652e-09
 13.40416    130.4 1.707e+04 9.208e-09
 13.42047    129.9 1.780e+04 1.145e-08
 13.43260    129.3 1.804e+04 1.153e-08
 13.44084    128.3 1.996e+04 2.007e-08
 13.44685    128.6 1.905e+04 1.533e-08
 13.45509    127.6 2.054e+04 2.347e-08
 13.46120    127.8 1.883e+04 1.322e-08
 13.46944    126.5 2.070e+04 2.211e-08
 13.47545    126.6 1.973e+04 1.592e-08
 13.48290    125.3 2.103e+04 2.160e-08
 13.48975    124.1 2.182e+04 2.874e-08
 13.49582    123.7 2.116e+04 2.102e-08
 13.50405    122.6 2.162e+04 2.513e-08
 13.51012    122.3 2.088e+04 1.882e-08
 13.51835    120.8 2.096e+04 1.994e-08
 13.53053    120.0 1.972e+04 1.304e-08
 13.54705    116.9 1.935e+04 1.246e-08
 13.55918    118.4 1.808e+04 8.322e-09
 13.57396    116.1 1.744e+04 7.010e-09
 13.58777    113.4 1.617e+04 5.002e-09
 13.59990    113.2 1.640e+04 4.620e-09
 13.61637    108.8 1.574e+04 4.218e-09
 13.62850    107.3 1.655e+04 5.074e-09
 13.64497    103.9 1.633e+04 5.985e-09
 13.65710    103.3 1.701e+04 8.168e-09
 13.67099    101.8 1.718e+04 9.145e-09
 13.68570    100.3 1.737e+04 9.095e-09
 13.69783     99.3 1.746e+04 8.773e-09
 13.71430     96.7 1.726e+04 7.901e-09
 13.72643     94.8 1.674e+04 5.861e-09
 13.74290     91.8 1.584e+04 5.085e-09
 13.75503     89.6 1.444e+04 3.111e-09
 13.76802     88.0 1.398e+04 3.183e-09
 13.78363     87.5 1.388e+04 3.482e-09
 13.79575     86.9 1.314e+04 2.179e-09
 13.81222     86.8 1.326e+04 2.575e-09
 13.82435     86.3 1.252e+04 1.502e-09
 13.84079     86.4 1.257e+04 1.800e-09
 13.86505     85.9 1.188e+04 1.243e-09
 13.88155     86.2 1.189e+04 1.369e-09
 13.89368     85.3 1.124e+04 8.821e-10
 13.91015     85.9 1.124e+04 9.711e-10
 13.92228     85.1 1.057e+04 6.254e-10
 13.93782     85.9 1.067e+04 7.265e-10
 13.95088     86.6 1.072e+04 7.857e-10
 13.96301     86.6 1.027e+04 5.909e-10
 13.97948     87.3 1.038e+04 6.439e-10
 13.99161     87.4 9.998e+03 5.056e-10
 14.00808     88.1 1.014e+04 5.504e-10
 14.02020     88.1 9.782e+03 4.381e-10
 14.03485     88.8 9.982e+03 4.851e-10
 14.04880     89.3 1.027e+04 5.704e-10
 14.06093     89.4 9.915e+03 4.435e-10
 14.07740     89.8 1.023e+04 5.261e-10
 14.08953     89.5 9.884e+03 4.141e-10
 14.10600     89.9 1.020e+04 4.972e-10
 14.11813     89.1 9.867e+03 4.331e-10
 14.13188     89.3 1.025e+04 5.530e-10
 14.14673     89.5 1.079e+04 7.538e-10
 14.15886     88.5 1.083e+04 7.672e-10
 14.17533     88.2 1.160e+04 1.115e-09
 14.18746     85.8 1.218e+04 1.344e-09
 14.20393     84.8 1.344e+04 2.172e-09
 14.21606     81.9 1.450e+04 3.275e-09
 14.22891     81.1 1.586e+04 5.197e-09
 14.24466     80.3 1.717e+04 7.991e-09
 14.25678     78.5 1.763e+04 9.424e-09
 14.27325     77.8 1.824e+04 1.160e-08
 14.28538     75.6 1.803e+04 1.031e-08
 14.30168     74.8 1.805e+04 1.040e-08
 14.31398     74.0 1.790e+04 9.986e-09
 14.32611     69.9 1.733e+04 6.688e-09
 14.34258     69.1 1.706e+04 6.119e-09
 14.35471     64.2 1.578e+04 3.978e-09
 14.36249     64.0 1.547e+04 3.767e-09
 14.37135     62.8 1.478e+04 3.037e-09
 14.38331     60.1 1.269e+04 1.938e-09
 14.39871     60.8 1.267e+04 1.941e-09
 14.41191     61.5 1.269e+04 1.960e-09
 14.42404     60.1 1.152e+04 1.257e-09
 14.44051     61.1 1.158e+04 1.259e-09
 14.46486     59.2 1.064e+04 5.605e-10
 14.49583     59.3 1.029e+04 4.652e-10
 14.50983     59.6 1.004e+04 4.275e-10
 14.52206     54.2 1.000e+04 4.456e-10
 14.55510     55.8 1.009e+04 4.999e-10
 14.57935     53.1 1.003e+04 7.122e-10
 14.60509     55.4 1.015e+04 7.577e-10
 14.63655     57.8 1.035e+04 7.920e-10
 14.66081     56.0 1.027e+04 7.151e-10
 14.69375     57.8 1.051e+04 7.793e-10
 14.71801     55.5 1.016e+04 6.104e-10
 14.73438     57.0 1.041e+04 7.101e-10
 14.74641     56.8 1.019e+04 6.778e-10
 14.76256     57.9 1.022e+04 7.347e-10
 14.77501     59.3 1.028e+04 7.971e-10
 14.78714     59.0 1.009e+04 5.747e-10
 14.80361     60.5 1.018e+04 6.173e-10
 14.81574     59.5 1.002e+04 4.935e-10
 14.83221     60.9 1.011e+04 5.262e-10
 14.84434     59.6 9.697e+03 3.476e-10
 14.85959     61.1 9.758e+03 3.789e-10
 14.87294     62.6 9.843e+03 4.228e-10
 14.88507     61.4 9.425e+03 3.219e-10
 14.90154     63.0 9.638e+03 3.792e-10
 14.91366     61.3 1.015e+04 3.575e-10
 14.93013     62.5 1.077e+04 4.536e-10
 14.94226     58.2 1.245e+04 7.061e-10
 14.95662     59.1 1.309e+04 9.698e-10
 14.97086     60.0 1.371e+04 1.388e-09
 14.98299     58.0 1.329e+04 2.065e-09
 14.99946     59.8 1.365e+04 2.695e-09
 15.01159     59.8 1.356e+04 3.027e-09
 15.02806     62.1 1.438e+04 3.896e-09
 15.04019     61.8 1.438e+04 3.254e-09
 15.05365     63.7 1.530e+04 3.756e-09
 15.06879     65.4 1.623e+04 4.343e-09
 15.08092     61.1 1.422e+04 1.951e-09
 15.09739     60.8 1.458e+04 2.122e-09
 15.10952     55.7 1.230e+04 1.194e-09
 15.12599     56.0 1.312e+04 1.636e-09
 15.13811     54.1 1.255e+04 1.368e-09
 15.15068     55.2 1.354e+04 1.993e-09
 15.16671     56.7 1.427e+04 2.816e-09
 15.17884     55.3 1.351e+04 2.230e-09
 15.19531     56.7 1.432e+04 3.035e-09
 15.20744     49.4 2.061e+04 2.885e-09
 15.22345     49.5 2.248e+04 3.881e-09
 15.23604     49.3 2.346e+04 4.721e-09
 15.24206     38.3 2.828e+04 8.167e-09
 15.25024     37.6 2.818e+04 9.529e-09
 15.25631     31.1 2.820e+04 2.491e-08
 15.26454     29.7 2.779e+04 3.303e-08
 15.27061     24.6 2.600e+04 7.284e-08
 15.27793     23.1 2.542e+04 1.010e-07
 15.28491     21.5 2.486e+04 1.430e-07
 15.29097     17.7 2.467e+04 1.682e-07
 15.29920     15.9 2.417e+04 2.278e-07
 15.30527     10.2 2.643e+04 1.419e-07
 15.31350      6.4 2.701e+04 1.396e-07
 15.31957     -4.7 2.908e+04 2.403e-08
 15.32645    -12.1 2.907e+04 1.728e-08
 15.33387    -19.8 2.678e+04 1.372e-08
 15.33993    -27.6 1.977e+04 6.745e-09
 15.34817    -31.3 1.881e+04 7.206e-09
 15.35423    -32.1 1.778e+04 6.178e-09
 15.36247    -34.5 1.761e+04 6.247e-09
 15.36853    -34.9 1.709e+04 5.246e-09
 15.37496    -36.4 1.668e+04 5.094e-09
 15.39111    -38.8 1.574e+04 4.222e-09
 15.40329    -38.4 1.492e+04 3.342e-09
 15.41751    -39.5 1.398e+04 2.475e-09
 15.43189    -41.0 1.310e+04 1.587e-09
 15.44402    -40.5 1.221e+04 1.185e-09
 15.46049    -42.8 1.140e+04 7.344e-10
 15.47262    -41.6 1.095e+04 6.197e-10
 15.48909    -43.4 1.004e+04 4.227e-10
 15.50122    -42.3 9.728e+03 3.805e-10
 15.52676    -42.6 9.547e+03 3.306e-10
 15.55861    -41.2 9.246e+03 2.680e-10
 15.58287    -38.8 9.138e+03 2.876e-10
 15.61581    -37.3 9.082e+03 2.777e-10
 15.64007    -36.0 9.599e+03 4.122e-10
 15.67241    -34.4 9.722e+03 4.329e-10
 15.69726    -33.0 9.681e+03 4.215e-10
 15.72152    -32.1 1.013e+04 5.914e-10
 15.75446    -30.9 9.868e+03 5.031e-10
 15.77872    -30.4 1.004e+04 5.873e-10
 15.81166    -29.5 9.553e+03 4.337e-10
 15.83592    -29.0 9.574e+03 4.557e-10
 15.86646    -28.6 9.124e+03 3.377e-10
 15.89312    -29.0 9.070e+03 2.925e-10
 15.90515    -28.8 9.438e+03 3.880e-10
 15.92152    -31.6 1.064e+04 5.209e-10
 15.93365    -33.2 1.173e+04 8.023e-10
 15.95012    -36.7 1.294e+04 1.480e-09
 15.96225    -37.2 1.335e+04 2.070e-09
 15.97543    -38.5 1.374e+04 3.088e-09
 15.99041    -39.1 1.422e+04 3.942e-09
 15.99371    -40.6 1.545e+04 4.756e-09
 16.00297    -41.4 1.655e+04 5.264e-09
 16.01945    -44.6 1.727e+04 4.676e-09
 16.03157    -46.6 1.789e+04 4.409e-09
 16.04804    -52.4 1.615e+04 2.543e-09
 16.06017    -54.6 1.479e+04 2.253e-09
 16.07245    -59.0 1.183e+04 1.324e-09
 16.08877    -60.1 1.093e+04 9.583e-10
 16.10090    -59.8 1.095e+04 9.133e-10
 16.11737    -60.6 1.077e+04 6.613e-10
 16.12950    -60.5 1.068e+04 5.878e-10
 16.14523    -62.3 9.971e+03 3.579e-10
 16.15810    -63.3 9.517e+03 3.039e-10
 16.17032    -62.7 9.490e+03 2.986e-10
 16.20336    -62.8 8.728e+03 2.192e-10
 16.22762    -61.4 8.648e+03 2.043e-10
 16.25458    -61.0 8.495e+03 1.806e-10
 16.28482    -60.6 8.447e+03 1.698e-10
 16.30908    -59.2 8.596e+03 1.780e-10
 16.34202    -59.4 8.845e+03 2.040e-10
 16.36627    -58.1 9.142e+03 2.568e-10
 16.39921    -58.0 9.486e+03 3.384e-10
 16.42347    -56.7 9.810e+03 4.353e-10
 16.44864    -56.5 9.942e+03 4.732e-10
 16.48067    -56.0 9.742e+03 4.099e-10
 16.50493    -54.7 9.909e+03 4.708e-10
 16.53787    -54.0 9.361e+03 2.997e-10
 16.56212    -52.6 9.419e+03 3.167e-10
 16.59418    -53.0 8.819e+03 1.886e-10
 16.61932    -53.1 8.662e+03 1.767e-10
 16.64358    -51.8 8.662e+03 1.757e-10
 16.67652    -52.0 8.834e+03 2.149e-10
 16.70078    -50.6 8.821e+03 2.076e-10
 16.73372    -50.1 9.082e+03 2.974e-10
 16.75798    -48.8 9.094e+03 2.888e-10
 16.78824    -48.0 9.377e+03 3.736e-10
 16.81517    -47.3 9.383e+03 3.658e-10
 16.83943    -46.2 9.473e+03 3.753e-10
 16.87237    -45.5 9.326e+03 3.191e-10
 16.89663    -44.4 9.499e+03 3.548e-10
 16.92957    -43.9 9.145e+03 2.499e-10
 16.95383    -42.8 9.248e+03 2.650e-10
 16.98230    -42.6 8.842e+03 1.786e-10
 17.01103    -42.2 8.525e+03 1.365e-10
 17.03528    -41.1 8.547e+03 1.339e-10
 17.06822    -40.5 8.390e+03 1.140e-10
 17.09248    -39.6 8.412e+03 1.127e-10
 17.12542    -39.1 8.381e+03 1.138e-10
 17.14968    -38.8 8.624e+03 1.223e-10
 17.17635    -38.6 8.725e+03 1.385e-10
 17.20688    -38.0 8.783e+03 1.700e-10
 17.23113    -38.5 9.158e+03 2.287e-10
 17.26407    -37.6 9.151e+03 2.325e-10
 17.28833    -38.4 9.508e+03 2.973e-10
 17.32127    -37.6 9.444e+03 2.690e-10
 17.34553    -38.9 9.656e+03 3.022e-10
 17.37041    -38.1 9.620e+03 3.014e-10
 17.40273    -37.2 9.711e+03 3.278e-10
 17.42699    -38.3 9.650e+03 3.238e-10
 17.45993    -36.8 9.815e+03 4.024e-10
 17.48418    -37.1 9.469e+03 2.727e-10
 17.51596    -35.3 9.603e+03 3.258e-10
 17.54138    -33.1 9.932e+03 4.093e-10
 17.56564    -33.3 9.392e+03 2.223e-10
 17.59858    -31.4 9.926e+03 3.206e-10
 17.62284    -31.3 9.351e+03 1.728e-10
 17.65578    -29.6 9.710e+03 2.371e-10
 17.68003    -29.1 9.413e+03 1.695e-10
 17.71001    -27.1 9.811e+03 2.357e-10
 17.73723    -25.4 1.022e+04 3.130e-10
 17.76149    -24.3 1.022e+04 3.062e-10
 17.79433    -23.7 1.041e+04 3.775e-10
 17.80636    -23.3 1.054e+04 4.149e-10
 17.81898    -22.7 1.076e+04 5.419e-10
 17.85153    -21.2 1.130e+04 7.775e-10
 17.87589    -20.4 1.165e+04 9.800e-10
 17.90407    -19.3 1.217e+04 1.375e-09
 17.93308    -18.8 1.227e+04 1.469e-09
 17.95734    -18.1 1.231e+04 1.503e-09
 17.99028    -17.6 1.208e+04 1.287e-09
 18.01454    -16.5 1.174e+04 1.051e-09
 18.04748    -16.2 1.126e+04 7.352e-10
 18.07174    -15.2 1.081e+04 5.366e-10
 18.09813    -15.0 1.062e+04 4.888e-10
 18.12894    -14.7 1.080e+04 5.830e-10
 18.15319    -13.6 1.026e+04 4.138e-10
 18.18613    -12.9 1.056e+04 5.616e-10
 18.21039    -11.9 9.975e+03 3.875e-10
 18.24333    -10.9 1.027e+04 5.242e-10
 18.26759    -10.0 9.646e+03 3.270e-10
 18.29219     -8.8 9.926e+03 4.223e-10
 18.32479     -7.0 1.045e+04 6.193e-10
 18.34904     -6.1 9.651e+03 3.018e-10
 18.36542     -4.7 1.010e+04 4.380e-10
 18.37745     -4.4 9.853e+03 3.535e-10
 18.39392     -4.0 9.910e+03 3.608e-10
 18.40614     -4.2 9.222e+03 2.021e-10
 18.43773     -2.3 9.510e+03 2.521e-10
 18.46334     -0.9 9.427e+03 2.483e-10
 18.48760     -0.4 9.220e+03 2.132e-10
 18.52054      0.8 9.264e+03 2.377e-10
 18.54480      1.5 9.218e+03 2.349e-10
 18.56127      2.1 9.336e+03 2.636e-10
 18.57330      2.5 9.334e+03 2.685e-10
 18.58977      2.9 9.427e+03 2.930e-10
 18.60200      3.3 9.425e+03 2.934e-10
 18.61847      3.4 9.650e+03 3.585e-10
 18.63050      3.7 9.634e+03 3.664e-10
 18.64372      3.8 9.938e+03 4.811e-10
 18.65910      3.9 1.037e+04 6.791e-10
 18.67122      4.4 1.026e+04 6.662e-10
 18.68769      4.9 1.069e+04 9.046e-10
 18.69982      5.7 1.040e+04 8.006e-10
 18.71629      6.4 1.075e+04 9.749e-10
 18.72842      7.2 1.030e+04 7.590e-10
 18.74075      7.8 1.053e+04 8.288e-10
 18.75702      8.2 1.073e+04 8.915e-10
 18.76915      8.7 1.009e+04 6.043e-10
 18.78562      8.9 1.021e+04 6.310e-10
 18.79775      9.3 9.625e+03 4.325e-10
 18.81352      9.5 9.761e+03 4.654e-10
 18.82635      9.5 1.008e+04 5.593e-10
 18.83848     10.0 9.499e+03 3.880e-10
 18.85495     10.0 9.944e+03 5.141e-10
 18.86708     10.6 9.424e+03 3.648e-10
 18.88355     10.6 9.957e+03 5.213e-10
 18.89567     11.3 9.453e+03 3.714e-10
 18.91055     11.2 1.002e+04 5.588e-10
 18.92427     11.3 1.067e+04 8.682e-10
 18.93640     11.9 1.008e+04 6.086e-10
 18.95287     12.1 1.067e+04 9.119e-10
 18.96500     12.8 1.014e+04 6.644e-10
 18.98147     13.0 1.065e+04 9.366e-10
 18.99360     13.7 1.024e+04 7.204e-10
 19.00758     13.9 1.070e+04 9.561e-10
 19.02220     13.9 1.108e+04 1.156e-09
 19.03433     14.5 1.080e+04 9.774e-10
 19.05080     14.2 1.120e+04 1.160e-09
 19.06293     14.8 1.099e+04 1.035e-09
 19.07940     14.2 1.148e+04 1.260e-09
 19.09153     14.9 1.133e+04 1.184e-09
 19.10461     14.0 1.194e+04 1.532e-09
 19.12012     13.1 1.251e+04 1.978e-09
 19.13225     14.0 1.250e+04 1.983e-09
 19.14872     13.3 1.300e+04 2.506e-09
 19.16085     14.1 1.296e+04 2.467e-09
 19.17732     13.5 1.333e+04 2.838e-09
 19.20158     13.3 1.353e+04 3.000e-09
 19.21805     12.3 1.382e+04 3.106e-09
 19.23018     12.6 1.390e+04 3.313e-09
 19.24627     11.1 1.431e+04 3.605e-09
 19.25489     11.2 1.388e+04 2.943e-09
 19.25878     11.6 1.396e+04 3.278e-09
 19.27441     10.1 1.427e+04 3.473e-09
 19.28738      8.8 1.429e+04 3.450e-09
 19.29951      9.5 1.446e+04 3.903e-09
 19.31598      8.6 1.437e+04 3.695e-09
 19.32810      9.2 1.440e+04 3.883e-09
 19.34458      8.7 1.408e+04 3.203e-09
 19.35670      9.1 1.407e+04 3.299e-09
 19.37144      8.6 1.355e+04 2.391e-09
 19.38530      8.0 1.292e+04 1.716e-09
 19.39743      8.4 1.296e+04 1.755e-09
 19.41390      7.7 1.234e+04 1.275e-09
 19.42603      8.2 1.237e+04 1.285e-09
 19.44260      7.3 1.155e+04 8.492e-10
 19.46695      7.8 1.158e+04 8.429e-10
 19.49989      7.8 1.076e+04 5.310e-10
 19.52415      8.3 1.091e+04 6.015e-10
 19.55356      8.6 1.041e+04 4.486e-10
 19.58135      9.5 1.021e+04 3.854e-10
 19.60561     10.0 1.047e+04 5.076e-10
 19.63855     11.1 1.058e+04 5.230e-10
 19.66280     11.6 1.093e+04 7.174e-10
 19.69575     12.9 1.108e+04 7.320e-10
 19.72000     13.3 1.139e+04 9.182e-10
 19.74762     14.8 1.125e+04 7.818e-10
 19.77720     16.6 1.086e+04 5.386e-10
 19.80146     16.9 1.090e+04 5.376e-10
 19.83440     18.6 1.052e+04 3.086e-10
 19.85866     18.7 1.045e+04 2.999e-10
 19.89160     19.9 1.022e+04 1.955e-10
 19.91585     20.2 1.012e+04 2.260e-10
 19.94168     21.7 1.004e+04 1.999e-10
 19.97305     23.6 9.989e+03 1.866e-10
 19.99731     24.2 9.986e+03 2.198e-10
 20.03025     26.1 1.003e+04 2.155e-10
 20.05451     26.7 1.001e+04 2.299e-10
 20.08722     28.4 1.008e+04 2.375e-10
 20.11171     30.1 1.028e+04 2.629e-10
 20.13596     30.5 1.029e+04 2.740e-10
 20.16890     31.9 1.058e+04 3.242e-10
 20.19316     32.3 1.047e+04 3.104e-10
 20.22610     33.7 1.073e+04 3.551e-10
 20.25036     34.1 1.059e+04 3.087e-10
 20.28128     35.1 1.083e+04 3.536e-10
 20.30756     36.1 1.093e+04 3.932e-10
 20.33181     36.6 1.086e+04 3.611e-10
 20.36475     37.5 1.086e+04 3.690e-10
 20.38901     38.0 1.089e+04 3.658e-10
 20.42195     38.8 1.086e+04 3.554e-10
 20.44621     39.1 1.110e+04 4.383e-10
 20.47534     39.8 1.105e+04 4.275e-10
 20.50341     40.6 1.088e+04 3.991e-10
 20.52767     40.8 1.111e+04 5.184e-10
 20.56061     41.9 1.076e+04 3.971e-10
 20.58486     42.1 1.090e+04 4.210e-10
 20.61780     42.8 1.048e+04 2.957e-10
 20.64206     42.4 1.050e+04 2.784e-10
 20.66940     43.2 1.045e+04 2.769e-10
 20.69916     43.7 1.046e+04 2.919e-10
 20.71119     42.7 1.084e+04 3.448e-10
 20.72766     42.7 1.115e+04 4.447e-10
 20.73979     41.0 1.193e+04 6.665e-10
 20.75410     41.5 1.213e+04 9.005e-10
 20.76839     42.3 1.237e+04 1.212e-09
 20.78052     41.4 1.309e+04 1.834e-09
 20.79699     42.5 1.339e+04 2.282e-09
 20.80912     41.8 1.404e+04 2.935e-09
 20.82559     43.1 1.432e+04 3.196e-09
 20.83772     41.8 1.462e+04 3.332e-09
 20.85113     42.8 1.486e+04 3.420e-09
 20.86632     43.3 1.507e+04 3.607e-09
 20.87725     36.5 1.853e+04 3.888e-09
 20.88632     37.6 1.788e+04 3.912e-09
 20.89492     34.9 2.010e+04 4.937e-09
 20.90699     24.9 2.380e+04 1.097e-08
 20.91518     25.1 2.427e+04 1.288e-08
 20.92125     20.0 2.563e+04 2.259e-08
 20.92948     18.9 2.578e+04 3.271e-08
 20.93555     14.4 2.471e+04 5.165e-08
 20.94200     13.8 2.425e+04 6.457e-08
 20.94984     13.4 2.423e+04 7.597e-08
 20.95591     11.0 2.292e+04 7.618e-08
 20.96414     11.2 2.261e+04 7.558e-08
 20.97021      9.5 2.117e+04 4.328e-08
 20.97838      9.5 2.098e+04 3.275e-08
 20.98451      9.2 2.086e+04 2.260e-08
 20.99057      5.8 1.889e+04 9.253e-09
 20.99881      3.5 1.784e+04 5.552e-09
 21.00487     -0.4 1.574e+04 2.940e-09
 21.01311     -2.5 1.448e+04 2.097e-09
 21.01917     -3.7 1.363e+04 1.601e-09
 21.02690     -4.5 1.323e+04 1.374e-09
 21.03352     -5.1 1.289e+04 1.369e-09
 21.04570     -5.5 1.259e+04 7.878e-10
 21.06217     -6.5 1.229e+04 5.834e-10
 21.07430     -8.5 1.149e+04 4.036e-10
 21.09077     -9.4 1.132e+04 3.983e-10
 21.10289     -9.8 1.112e+04 3.830e-10
 21.11796     -9.9 1.114e+04 4.047e-10
 21.13149     -9.9 1.114e+04 4.395e-10
 21.14362     -9.6 1.125e+04 4.772e-10
 21.16009     -9.8 1.151e+04 5.399e-10
 21.17222    -10.1 1.180e+04 6.136e-10
 21.18869    -10.8 1.223e+04 7.080e-10
 21.20082    -11.2 1.242e+04 8.115e-10
 21.21499    -12.3 1.273e+04 9.747e-10
 21.22942    -13.3 1.279e+04 1.218e-09
 21.24155    -13.0 1.262e+04 1.258e-09
 21.25802    -13.0 1.241e+04 1.365e-09
 21.27015    -12.6 1.216e+04 1.226e-09
 21.28662    -12.5 1.200e+04 1.150e-09
 21.29875    -12.5 1.196e+04 9.695e-10
 21.31202    -12.9 1.187e+04 8.084e-10
 21.32735    -13.5 1.182e+04 6.552e-10
 21.33947    -14.3 1.182e+04 5.827e-10
 21.35594    -15.2 1.174e+04 5.152e-10
 21.36807    -15.8 1.171e+04 5.123e-10
 21.38454    -16.3 1.155e+04 5.080e-10
 21.39667    -16.6 1.155e+04 5.820e-10
 21.40905    -16.7 1.148e+04 6.126e-10
 21.42527    -16.6 1.145e+04 6.524e-10
 21.43740    -16.6 1.145e+04 7.271e-10
 21.45387    -16.5 1.148e+04 7.592e-10
 21.46600    -16.6 1.146e+04 7.789e-10
 21.48182    -16.6 1.152e+04 8.025e-10
 21.49460    -16.6 1.151e+04 8.308e-10
 21.50673    -16.8 1.125e+04 7.857e-10
 21.52320    -16.5 1.121e+04 7.920e-10
 21.53533    -16.5 1.099e+04 7.184e-10
 21.55180    -16.3 1.099e+04 7.227e-10
 21.56402    -16.2 1.077e+04 6.196e-10
 21.59117    -15.3 1.070e+04 5.902e-10
 21.62132    -14.4 1.063e+04 5.634e-10
 21.64557    -14.4 1.033e+04 4.508e-10
 21.67852    -13.5 1.038e+04 4.762e-10
 21.70277    -13.1 1.022e+04 4.355e-10
 21.71915    -12.4 1.035e+04 4.770e-10
 21.73118    -12.2 1.031e+04 4.711e-10
 21.74765    -11.8 1.044e+04 5.101e-10
 21.75978    -11.6 1.039e+04 5.041e-10
 21.77290    -11.0 1.051e+04 5.519e-10
 21.78837    -10.4 1.057e+04 5.698e-10
 21.80050    -10.1 1.051e+04 5.644e-10
 21.81707     -9.4 1.052e+04 5.374e-10
 21.84143     -8.7 1.048e+04 5.357e-10
 21.87437     -7.0 1.037e+04 4.715e-10
 21.89862     -6.6 1.036e+04 4.648e-10
 21.93077     -5.0 1.015e+04 3.687e-10
 21.95582     -3.5 9.867e+03 2.667e-10
 21.98008     -3.4 9.816e+03 2.494e-10
 22.01302     -1.9 9.701e+03 2.177e-10
 22.03728     -1.9 9.696e+03 2.164e-10
 22.07022      0.0 9.790e+03 2.256e-10
 22.09448     -0.1 9.784e+03 2.246e-10
 22.12483      1.4 1.002e+04 2.633e-10
 22.15158      2.1 1.004e+04 2.961e-10
 22.16361      1.9 1.000e+04 3.025e-10
 22.18008      2.3 1.011e+04 3.597e-10
 22.19221      2.1 1.009e+04 3.668e-10
 22.20868      2.6 1.030e+04 4.671e-10
 22.22080      2.5 1.024e+04 4.619e-10
 22.23379      3.0 1.056e+04 5.813e-10
 22.24940      3.5 1.107e+04 7.358e-10
 22.26153      3.4 1.089e+04 6.630e-10
 22.27800      3.7 1.140e+04 8.069e-10
 22.29013      3.6 1.117e+04 7.090e-10
 22.30656      3.7 1.148e+04 8.316e-10
 22.33082      3.8 1.130e+04 8.325e-10
 22.34733      4.1 1.131e+04 9.416e-10
 22.35946      4.1 1.110e+04 8.369e-10
 22.37593      4.4 1.112e+04 9.390e-10
 22.38806      4.4 1.099e+04 8.538e-10
 22.40359      4.8 1.110e+04 9.675e-10
 22.41666      5.0 1.129e+04 1.076e-09
 22.42878      4.9 1.122e+04 1.017e-09
 22.44525      4.7 1.139e+04 1.099e-09
 22.45738      4.6 1.127e+04 1.042e-09
 22.47385      4.2 1.144e+04 1.099e-09
 22.48598      3.9 1.142e+04 1.084e-09
 22.50062      2.8 1.175e+04 1.167e-09
 22.51425      1.2 1.214e+04 1.269e-09
 22.51608      3.0 1.217e+04 1.213e-09
 22.52671      2.4 1.222e+04 1.202e-09
 22.54318      0.3 1.218e+04 1.272e-09
 22.55531     -0.3 1.216e+04 1.285e-09
 22.57178     -1.8 1.194e+04 1.283e-09
 22.58391     -2.0 1.186e+04 1.319e-09
 22.59765     -2.6 1.141e+04 1.237e-09
 22.61251     -2.8 1.103e+04 1.087e-09
 22.62464     -2.5 1.105e+04 1.070e-09
 22.64111     -2.7 1.086e+04 8.357e-10
 22.65323     -2.6 1.092e+04 8.265e-10
 22.66971     -3.3 1.084e+04 5.927e-10
 22.68183     -3.5 1.098e+04 5.908e-10
 22.69468     -4.8 1.075e+04 4.091e-10
 22.71043     -6.1 1.036e+04 3.001e-10
 22.72256     -6.0 1.025e+04 3.149e-10
 22.73903     -6.9 9.751e+03 2.620e-10
 22.75116     -6.6 9.729e+03 2.778e-10
 22.76745     -6.9 9.603e+03 2.637e-10
 22.77976     -6.9 9.588e+03 2.591e-10
 22.79189     -6.5 9.609e+03 2.564e-10
 22.80836     -6.5 9.601e+03 2.539e-10
 22.82058     -6.0 9.538e+03 2.427e-10
 22.85255     -5.4 9.569e+03 2.406e-10
 22.87778     -5.2 9.850e+03 2.626e-10
 22.88981     -4.9 9.717e+03 2.457e-10
 22.90628     -6.0 1.047e+04 3.362e-10
 22.91841     -5.6 1.028e+04 3.105e-10
 22.93488     -7.4 1.113e+04 5.526e-10
 22.94701     -6.5 1.080e+04 4.782e-10
 22.96151     -7.0 1.137e+04 8.549e-10
 22.97561     -6.6 1.173e+04 1.298e-09
 22.98774     -5.8 1.136e+04 9.784e-10
 23.00421     -5.5 1.137e+04 1.074e-09
 23.01634     -4.7 1.103e+04 7.950e-10
 23.03281     -4.6 1.098e+04 7.836e-10
 23.04494     -3.8 1.066e+04 5.695e-10
 23.05854     -3.8 1.059e+04 5.475e-10
 23.07363     -4.5 1.070e+04 4.946e-10
 23.09799     -2.9 1.017e+04 3.584e-10
 23.13093     -2.8 1.013e+04 3.138e-10
 23.15519     -1.0 9.861e+03 2.822e-10
 23.18813     -0.2 9.958e+03 2.900e-10
 23.21238      1.7 9.871e+03 2.847e-10
 23.24066      2.3 1.018e+04 3.384e-10
 23.26949      2.6 1.057e+04 4.243e-10
 23.28152      3.5 1.056e+04 4.620e-10
 23.29799      3.4 1.094e+04 5.911e-10
 23.31012      4.2 1.093e+04 6.334e-10
 23.32537      4.6 1.125e+04 7.887e-10
 23.33871      5.0 1.129e+04 8.421e-10
 23.35084      5.7 1.131e+04 8.426e-10
 23.38388      6.4 1.130e+04 8.172e-10
 23.40824      7.6 1.127e+04 8.073e-10
 23.43472      8.1 1.123e+04 7.912e-10
 23.46543      8.8 1.101e+04 6.847e-10
 23.48969     10.1 1.100e+04 6.716e-10
 23.52263     10.8 1.077e+04 5.452e-10
 23.54689     11.9 1.077e+04 5.406e-10
 23.57983     12.6 1.057e+04 4.441e-10
 23.60409     13.6 1.058e+04 4.434e-10
 23.62878     14.4 1.037e+04 3.528e-10
 23.66129     15.2 1.011e+04 2.599e-10
 23.68554     16.3 1.012e+04 2.588e-10
 23.71848     17.1 9.900e+03 2.008e-10
 23.74274     18.1 9.882e+03 1.725e-10
 23.77432     19.0 9.771e+03 1.638e-10
 23.79994     20.0 9.773e+03 1.652e-10
 23.82420     20.9 9.722e+03 1.388e-10
 23.85714     21.8 9.749e+03 1.439e-10
 23.88139     22.9 9.679e+03 1.213e-10
 23.91433     23.6 9.727e+03 1.310e-10
 23.93859     24.8 9.644e+03 1.063e-10
 23.96838     25.6 9.686e+03 1.208e-10
 23.99579     26.5 9.750e+03 1.480e-10
 24.02005     27.9 9.644e+03 1.069e-10
 24.05299     28.8 9.702e+03 1.222e-10
 24.07725     30.3 9.615e+03 8.824e-11
 24.11019     31.2 9.669e+03 9.266e-11
 24.13444     32.6 9.570e+03 7.191e-11
 24.16244     33.5 9.616e+03 7.442e-11
 24.19164     34.3 9.661e+03 7.703e-11
 24.21590     35.8 9.587e+03 7.024e-11
 24.24884     36.7 9.640e+03 7.512e-11
 24.27310     38.3 9.630e+03 7.450e-11
 24.30604     39.3 9.626e+03 7.604e-11
 24.33029     40.9 9.600e+03 7.933e-11
 24.35649     42.0 9.573e+03 7.790e-11
 24.38749     43.2 9.503e+03 7.047e-11
 24.41175     45.0 9.480e+03 7.241e-11
 24.44469     46.2 9.440e+03 5.719e-11
 24.46895     48.0 9.427e+03 5.790e-11
 24.50189     49.1 9.422e+03 4.247e-11
 24.55040     51.7 9.384e+03 3.394e-11
 24.58334     52.7 9.363e+03 3.277e-11
 24.60760     54.4 9.319e+03 3.497e-11
 24.64054     55.5 9.321e+03 3.534e-11
 24.66480     57.3 9.281e+03 3.813e-11
 24.69610     58.4 9.298e+03 3.960e-11
 24.72200     59.5 9.326e+03 4.552e-11
 24.74625     61.4 9.296e+03 4.550e-11
 24.77920     62.5 9.339e+03 5.300e-11
 24.80345     64.4 9.326e+03 5.001e-11
 24.83639     65.4 9.394e+03 5.557e-11
 24.86065     67.3 9.386e+03 5.169e-11
 24.89015     68.1 9.432e+03 5.321e-11
 24.91785     68.9 9.435e+03 5.303e-11
 24.94211     70.6 9.433e+03 5.097e-11
 24.97505     71.2 9.402e+03 4.903e-11
 24.99930     72.9 9.407e+03 4.864e-11
 25.03224     73.6 9.334e+03 4.585e-11
 25.05650     75.2 9.362e+03 4.806e-11
 25.08421     75.9 9.217e+03 4.595e-11
 25.11370     76.8 9.176e+03 4.585e-11
 25.13796     78.3 9.137e+03 4.809e-11
 25.17090     79.3 9.134e+03 4.849e-11
 25.19516     80.7 9.111e+03 5.095e-11
 25.22810     81.7 9.121e+03 5.277e-11
 25.25235     83.1 9.104e+03 5.600e-11
 25.27827     83.9 9.145e+03 6.735e-11
 25.30955     84.3 9.322e+03 1.168e-10
 25.33381     85.8 9.282e+03 1.278e-10
 25.36675     85.9 9.867e+03 2.913e-10
 25.39101     87.4 9.864e+03 2.957e-10
 25.42381     87.5 1.075e+04 6.624e-10
 25.47233     88.4 1.160e+04 1.098e-09
 25.50540     87.0 1.200e+04 1.187e-09
 25.52966     87.2 1.263e+04 1.560e-09
 25.56260     85.0 1.263e+04 1.518e-09
 25.58676     84.4 1.344e+04 2.506e-09
 25.60313     83.8 1.305e+04 2.163e-09
 25.61526     83.7 1.340e+04 2.853e-09
 25.62980     83.5 1.293e+04 2.352e-09
 25.64396     82.5 1.190e+04 1.295e-09
 25.66831     83.6 1.258e+04 1.992e-09
 25.70125     82.8 1.165e+04 1.256e-09
 25.72551     83.6 1.194e+04 1.436e-09
 25.75817     83.1 1.148e+04 1.149e-09
 25.77746     83.5 1.208e+04 1.533e-09
 25.78271     84.3 1.205e+04 1.466e-09
 25.81193     83.9 1.197e+04 1.423e-09
 25.83991     83.0 1.189e+04 1.332e-09
 25.86416     83.2 1.211e+04 1.527e-09
 25.89710     82.3 1.225e+04 1.738e-09
 25.92126     82.7 1.233e+04 1.933e-09
 25.93764     82.5 1.234e+04 1.943e-09
 25.94977     83.0 1.213e+04 1.684e-09
 25.96624     82.7 1.208e+04 1.659e-09
 25.97836     83.0 1.170e+04 1.273e-09
 25.99366     82.9 1.156e+04 1.182e-09
 26.00696     82.7 1.138e+04 1.059e-09
 26.01909     82.6 1.101e+04 8.011e-10
 26.03556     82.2 1.084e+04 7.340e-10
 26.04769     82.1 1.042e+04 6.183e-10
 26.06416     81.9 1.037e+04 6.195e-10
 26.07629     82.5 1.020e+04 5.724e-10
 26.09069     82.5 1.024e+04 5.896e-10
 26.10489     82.5 1.033e+04 6.346e-10
 26.11702     83.4 1.027e+04 6.126e-10
 26.13349     83.5 1.048e+04 6.847e-10
 26.14562     84.2 1.036e+04 6.626e-10
 26.16209     84.1 1.061e+04 7.509e-10
 26.17422     84.7 1.048e+04 7.441e-10
 26.18772     84.5 1.073e+04 8.292e-10
 26.20282     84.1 1.086e+04 8.674e-10
 26.21494     84.7 1.068e+04 9.173e-10
 26.23141     83.9 1.077e+04 9.372e-10
 26.24354     84.7 1.080e+04 1.003e-09
 26.26001     83.3 1.095e+04 1.048e-09
 26.27214     83.8 1.109e+04 1.098e-09
 26.28475     81.0 1.164e+04 1.283e-09
 26.30074     77.1 1.262e+04 1.832e-09
 26.31287     77.1 1.278e+04 1.990e-09
 26.32934     73.3 1.366e+04 3.027e-09
 26.34147     73.1 1.372e+04 3.057e-09
 26.35752     68.7 1.462e+04 4.175e-09
 26.37007     64.0 1.519e+04 4.504e-09
 26.38220     62.0 1.544e+04 4.808e-09
 26.39867     57.0 1.522e+04 4.626e-09
 26.41080     55.3 1.546e+04 5.224e-09
 26.42727     52.6 1.447e+04 4.217e-09
 26.43939     51.7 1.472e+04 4.844e-09
 26.45455     50.6 1.342e+04 2.985e-09
 26.46799     49.8 1.241e+04 1.671e-09
 26.48012     49.5 1.242e+04 1.641e-09
 26.49659     48.2 1.101e+04 8.434e-10
 26.50872     47.4 1.073e+04 8.417e-10
 26.53955     44.0 8.677e+03 2.855e-10
 26.56611     42.9 8.278e+03 9.831e-11
 26.59037     41.3 8.800e+03 2.322e-10
 26.62331     42.3 8.672e+03 1.555e-10
 26.64757     41.9 9.177e+03 3.795e-10
 26.68051     43.1 9.014e+03 3.437e-10
 26.70477     44.4 9.636e+03 5.769e-10
 26.73370     46.0 9.634e+03 5.719e-10
 26.76197     47.5 9.754e+03 6.022e-10
 26.78622     48.0 9.968e+03 6.298e-10
 26.81916     49.2 9.929e+03 6.104e-10
 26.84342     49.5 9.396e+03 3.618e-10
 26.87636     50.6 9.181e+03 2.841e-10
 26.90062     50.8 8.716e+03 1.665e-10
 26.92776     51.6 8.519e+03 1.041e-10
 26.95782     52.0 8.298e+03 6.241e-11
 26.98207     52.2 8.127e+03 5.193e-11
 27.01501     52.8 8.035e+03 4.884e-11
 27.03927     53.4 8.029e+03 5.326e-11
 27.07221     54.3 8.060e+03 5.621e-11
 27.09647     55.2 7.981e+03 7.101e-11
 27.12182     56.2 8.105e+03 8.523e-11
 27.15367     57.2 8.335e+03 1.022e-10
 27.17793     58.5 8.408e+03 1.289e-10
 27.21087     58.9 8.665e+03 1.478e-10
 27.23512     59.6 8.838e+03 1.647e-10
 27.26736     59.2 9.047e+03 1.782e-10
 27.29232     58.5 9.153e+03 1.776e-10
 27.31658     58.8 9.386e+03 2.217e-10
 27.34952     57.7 9.394e+03 2.136e-10
 27.37378     58.1 9.727e+03 2.805e-10
 27.40672     57.0 9.652e+03 2.311e-10
 27.43097     57.3 1.008e+04 3.206e-10
 27.46142     56.1 9.759e+03 2.518e-10
 27.48817     55.1 9.283e+03 2.064e-10
 27.51243     56.2 9.710e+03 2.897e-10
 27.54537     56.4 9.177e+03 2.176e-10
 27.56963     57.8 9.575e+03 2.875e-10
 27.60257     58.3 9.074e+03 1.694e-10
 27.62683     59.6 9.338e+03 2.246e-10
 27.65548     59.9 8.913e+03 1.098e-10
 27.68402     60.0 8.432e+03 7.456e-11
 27.70828     61.0 8.662e+03 1.095e-10
 27.74122     61.3 8.538e+03 1.033e-10
 27.76548     62.9 8.779e+03 1.703e-10
 27.79842     63.5 8.785e+03 1.716e-10
 27.82268     65.3 9.150e+03 2.733e-10
 27.84954     65.7 9.202e+03 2.768e-10
 27.87987     65.8 9.315e+03 2.861e-10
 27.90413     67.5 9.616e+03 3.865e-10
 27.93707     66.8 9.715e+03 3.968e-10
 27.96133     68.1 1.018e+04 5.423e-10
 27.99427     66.3 1.043e+04 5.966e-10
 28.01853     67.3 1.095e+04 7.779e-10
 28.04359     64.7 1.159e+04 1.012e-09
 28.07563     63.0 1.217e+04 1.285e-09
 28.08766     64.2 1.242e+04 1.327e-09
 28.10404     61.2 1.340e+04 1.833e-09
 28.12830     58.1 1.416e+04 2.479e-09
 28.14486     55.0 1.393e+04 2.853e-09
 28.15699     54.7 1.388e+04 2.767e-09
 28.17346     52.6 1.344e+04 2.551e-09
 28.18559     52.9 1.330e+04 2.410e-09
 28.20107     50.7 1.268e+04 1.974e-09
 28.21428     46.7 1.193e+04 1.330e-09
 28.22641     49.1 1.182e+04 1.383e-09
 28.24278     47.5 1.122e+04 1.069e-09
 28.25491     47.5 1.134e+04 1.062e-09
 28.27138     45.3 1.086e+04 8.482e-10
 28.28351     45.6 1.055e+04 7.454e-10
 28.29810     43.6 1.014e+04 6.534e-10
 28.31211     42.3 9.899e+03 6.150e-10
 28.32424     42.7 9.897e+03 6.183e-10
 28.34071     42.1 9.753e+03 5.880e-10
 28.35284     42.7 9.880e+03 6.242e-10
 28.36931     42.4 9.703e+03 5.715e-10
 28.38144     43.1 9.860e+03 6.272e-10
 28.39513     42.9 9.686e+03 5.479e-10
 28.41004     42.5 9.408e+03 4.445e-10
 28.42216     43.5 9.603e+03 4.879e-10
 28.43863     42.0 9.796e+03 4.959e-10
 28.45076     40.9 1.136e+04 6.612e-10
 28.46723     29.2 1.563e+04 1.637e-09
 28.47936     27.5 1.626e+04 3.079e-09
 28.49216     26.7 1.520e+04 5.690e-09
 28.50791     28.4 1.478e+04 6.492e-09
 28.51393     29.0 1.490e+04 7.603e-09
 28.52216     28.0 1.570e+04 8.643e-09
 28.52823     27.8 1.641e+04 9.866e-09
 28.53451     21.3 2.177e+04 1.239e-08
 28.54253     18.5 2.408e+04 1.305e-08
 28.54859     12.8 2.764e+04 1.757e-08
 28.56488      0.2 2.478e+04 2.088e-08
 28.57729     -7.6 1.785e+04 1.331e-08
 28.58942     -9.4 1.698e+04 1.096e-08
 28.60589    -10.3 1.767e+04 6.137e-09
 28.61802    -13.6 1.831e+04 3.652e-09
 28.63449    -26.0 1.327e+04 9.315e-10
 28.64661    -30.2 1.042e+04 5.999e-10
 28.66196    -31.8 9.575e+03 4.500e-10
 28.67521    -32.5 9.514e+03 3.641e-10
 28.68734    -33.2 9.434e+03 3.328e-10
 28.72038    -33.9 9.211e+03 2.675e-10
 28.74474    -34.7 9.383e+03 2.994e-10
 28.77131    -35.4 9.325e+03 2.716e-10
 28.80193    -36.7 9.390e+03 2.505e-10
 28.81396    -36.1 9.694e+03 3.812e-10
 28.83034    -37.7 9.953e+03 3.828e-10
 28.84247    -40.0 1.083e+04 5.282e-10
 28.85601    -46.9 1.296e+04 9.521e-10
 28.87106    -52.5 1.387e+04 2.332e-09
 28.88319    -52.3 1.404e+04 3.030e-09
 28.89966    -54.4 1.514e+04 5.079e-09
 28.91179    -54.7 1.549e+04 4.931e-09
 28.92826    -58.7 1.644e+04 5.368e-09
 28.94039    -61.1 1.628e+04 4.455e-09
 28.95304    -68.6 1.626e+04 3.273e-09
 28.96899    -76.3 1.422e+04 2.166e-09
 28.98112    -78.1 1.371e+04 2.133e-09
 28.99759    -81.5 1.301e+04 1.786e-09
 29.00972    -81.7 1.300e+04 1.882e-09
 29.02582    -84.0 1.235e+04 1.439e-09
 29.03808    -86.0 1.160e+04 1.015e-09
 29.03845    -84.6 1.192e+04 1.187e-09
 29.05045    -85.0 1.178e+04 1.118e-09
 29.06692    -86.9 1.108e+04 7.733e-10
 29.07904    -87.7 1.085e+04 6.772e-10
 29.09551    -89.6 1.019e+04 4.724e-10
 29.10764    -90.7 1.001e+04 4.221e-10
 29.12284    -92.2 9.517e+03 3.283e-10
 29.13624    -93.2 9.255e+03 2.864e-10
 29.14837    -94.0 9.274e+03 2.880e-10
 29.16484    -96.1 9.370e+03 2.881e-10
 29.17697   -100.9 1.103e+04 3.954e-10
 29.19344   -106.4 1.273e+04 7.398e-10
 29.20557   -110.1 1.359e+04 1.621e-09
 29.21987   -113.0 1.424e+04 2.748e-09
 29.23417   -115.1 1.477e+04 3.845e-09
 29.24630   -116.5 1.491e+04 4.151e-09
 29.26277   -118.6 1.497e+04 4.226e-09
 29.27490   -120.4 1.445e+04 2.977e-09
 29.29137   -123.6 1.354e+04 1.852e-09
 29.30349   -127.4 1.190e+04 9.536e-10
 29.31690   -130.7 1.057e+04 5.613e-10
 29.33209   -133.2 9.720e+03 3.575e-10
 29.34422   -134.5 9.482e+03 2.979e-10
 29.36069   -135.2 9.314e+03 2.531e-10
 29.37282   -135.4 9.308e+03 2.540e-10
 29.38939   -135.7 9.221e+03 2.287e-10
 29.41374   -135.9 9.182e+03 2.427e-10
 29.44669   -136.4 8.900e+03 1.952e-10
 29.47094   -135.9 9.026e+03 2.299e-10
 29.49903   -136.0 8.887e+03 2.001e-10
 29.52814   -136.0 8.877e+03 1.957e-10
 29.55240   -134.5 9.053e+03 2.354e-10
 29.58534   -134.3 9.226e+03 2.432e-10
 29.60960   -132.8 9.553e+03 3.018e-10
 29.64254   -132.6 9.737e+03 3.139e-10
 29.66670   -131.4 9.966e+03 3.689e-10
 29.68076   -131.5 9.967e+03 3.484e-10
 29.69520   -131.5 9.968e+03 3.303e-10
 29.70733   -131.8 1.030e+04 4.297e-10
 29.72380   -131.7 1.024e+04 3.767e-10
 29.73593   -131.9 1.074e+04 5.876e-10
 29.75240   -132.0 1.064e+04 5.036e-10
 29.76452   -132.0 1.109e+04 7.873e-10
 29.77779   -132.2 1.094e+04 6.831e-10
 29.79312   -132.3 1.084e+04 6.176e-10
 29.80525   -132.1 1.127e+04 9.114e-10
 29.82172   -132.2 1.117e+04 8.433e-10
 29.83385   -131.9 1.159e+04 1.144e-09
 29.85032   -132.0 1.150e+04 1.069e-09
 29.86245   -131.7 1.180e+04 1.261e-09
 29.87482   -131.7 1.169e+04 1.176e-09
 29.89105   -131.8 1.163e+04 1.116e-09
 29.90318   -131.6 1.167e+04 1.141e-09
 29.91965   -131.7 1.159e+04 1.073e-09
 29.93178   -131.4 1.142e+04 1.002e-09
 29.94759   -131.4 1.130e+04 9.169e-10
 29.96038   -131.4 1.117e+04 8.263e-10
 29.97250   -131.1 1.091e+04 7.265e-10
 29.98897   -131.2 1.080e+04 6.529e-10
 30.00110   -130.8 1.051e+04 5.595e-10
 30.01757   -130.8 1.048e+04 5.184e-10
 30.02970   -130.2 1.020e+04 4.382e-10
 30.04462   -130.3 1.021e+04 4.226e-10
 30.05830   -130.3 1.022e+04 4.169e-10
 30.08266   -129.9 9.948e+03 3.506e-10
 30.11560   -129.7 9.967e+03 3.368e-10
 30.13985   -129.4 9.974e+03 3.202e-10
 30.17289   -129.9 1.034e+04 3.753e-10
 30.19715   -129.2 1.009e+04 3.584e-10
 30.22674   -130.4 1.046e+04 4.593e-10
 30.25425   -131.2 1.059e+04 5.597e-10
 30.27851   -133.0 1.069e+04 6.851e-10
 30.31145   -135.5 1.132e+04 9.044e-10
 30.33571   -137.8 1.241e+04 1.242e-09
 30.35218   -139.9 1.297e+04 1.489e-09
 30.36421   -140.5 1.257e+04 1.385e-09
 30.38068   -142.3 1.266e+04 1.393e-09
 30.39290   -142.5 1.252e+04 1.184e-09
 30.42080   -146.1 1.247e+04 9.130e-10
 30.45010   -147.9 1.222e+04 6.808e-10
 30.47436   -149.4 1.170e+04 4.574e-10
 30.50560   -150.4 1.164e+04 3.768e-10
 30.51933   -151.1 1.165e+04 3.620e-10
 30.53156   -150.4 1.165e+04 3.616e-10
 30.54803   -150.5 1.169e+04 3.587e-10
 30.56006   -150.2 1.165e+04 3.575e-10
 30.57653   -150.4 1.176e+04 3.603e-10
 30.58875   -149.5 1.198e+04 4.015e-10
 30.60263   -149.6 1.214e+04 4.135e-10
 30.61726   -150.2 1.228e+04 4.163e-10
 30.62938   -150.0 1.245e+04 4.548e-10
 30.64585   -151.0 1.272e+04 4.855e-10
 30.65798   -150.7 1.290e+04 5.803e-10
 30.66601   -151.7 1.300e+04 5.956e-10
 30.67728   -152.3 1.290e+04 5.603e-10
 30.68658   -152.0 1.300e+04 6.562e-10
 30.69956   -153.2 1.307e+04 6.861e-10
 30.71518   -154.6 1.326e+04 7.642e-10
 30.72731   -155.1 1.372e+04 9.036e-10
 30.74378   -157.4 1.418e+04 1.145e-09
 30.75591   -158.5 1.468e+04 1.470e-09
 30.77234   -160.6 1.490e+04 1.985e-09
 30.79659   -163.3 1.507e+04 2.678e-09
 30.81311   -164.6 1.496e+04 2.707e-09
 30.82524   -165.4 1.475e+04 2.730e-09
 30.84171   -166.4 1.426e+04 2.043e-09
 30.85383   -167.3 1.403e+04 1.793e-09
 30.86936   -168.8 1.340e+04 1.207e-09
 30.88243   -170.3 1.282e+04 8.704e-10
 30.89456   -171.3 1.256e+04 8.104e-10
 30.91103   -172.0 1.218e+04 6.627e-10
 30.92316   -172.5 1.213e+04 6.579e-10
 30.93963   -172.8 1.193e+04 5.470e-10
 30.95176   -173.1 1.191e+04 5.400e-10
 30.96639   -173.3 1.171e+04 4.411e-10
 30.98046   -173.3 1.152e+04 3.774e-10
 31.00481   -173.8 1.150e+04 3.646e-10
 31.03775   -173.5 1.117e+04 2.884e-10
 31.06201   -173.5 1.117e+04 2.871e-10
 31.09495   -172.7 1.084e+04 2.146e-10
 31.11921   -172.9 1.103e+04 2.627e-10
 31.14852   -172.2 1.091e+04 2.275e-10
 31.17641   -171.3 1.087e+04 2.132e-10
 31.20066   -171.5 1.118e+04 3.403e-10
 31.23360   -170.4 1.110e+04 3.266e-10
 31.25786   -170.5 1.146e+04 4.378e-10
 31.29080   -169.2 1.138e+04 4.058e-10
 31.31506   -170.0 1.164e+04 4.359e-10
 31.34258   -168.6 1.166e+04 4.142e-10
 31.37226   -167.3 1.167e+04 4.136e-10
 31.39651   -169.2 1.175e+04 4.150e-10
 31.42946   -168.6 1.215e+04 4.509e-10
 31.45371   -171.4 1.223e+04 4.991e-10
 31.48665   -171.1 1.258e+04 6.887e-10
 31.51081   -172.8 1.239e+04 7.016e-10
 31.52431   -172.9 1.249e+04 7.474e-10
 31.53931   -173.3 1.259e+04 7.835e-10
 31.55144   -174.3 1.241e+04 7.062e-10
 31.56791   -174.8 1.242e+04 7.092e-10
 31.58004   -175.5 1.229e+04 6.633e-10
 31.59651   -175.8 1.228e+04 6.516e-10
 31.60864   -176.3 1.221e+04 6.308e-10
 31.62134   -176.4 1.221e+04 6.239e-10
 31.63724   -176.3 1.221e+04 6.255e-10
 31.64937   -176.8 1.214e+04 5.879e-10
 31.66584   -176.7 1.213e+04 5.779e-10
 31.67797   -176.9 1.215e+04 5.739e-10
 31.69411   -176.7 1.217e+04 5.682e-10
 31.70657   -176.5 1.219e+04 5.669e-10
 31.71870   -176.8 1.230e+04 5.653e-10
 31.73517   -176.6 1.234e+04 5.700e-10
 31.74729   -177.1 1.238e+04 5.734e-10
 31.76376   -176.8 1.240e+04 5.739e-10
 31.77589   -177.2 1.240e+04 5.744e-10
 31.79114   -176.7 1.236e+04 5.518e-10
 31.80449   -176.1 1.227e+04 5.158e-10
 31.81662   -176.4 1.226e+04 5.114e-10
 31.83309   -175.6 1.219e+04 4.794e-10
 31.84522   -175.9 1.215e+04 4.839e-10
 31.87614   -175.2 1.214e+04 4.542e-10
 31.90261   -174.5 1.205e+04 4.238e-10
 31.92687   -174.4 1.205e+04 4.813e-10
 31.95981   -173.4 1.197e+04 4.362e-10
 31.98407   -173.2 1.203e+04 5.113e-10
 32.01701   -172.1 1.192e+04 4.476e-10
 32.04127   -171.8 1.191e+04 4.795e-10
 32.07029   -170.4 1.176e+04 4.100e-10
 32.09846   -168.8 1.163e+04 3.506e-10
 32.12272   -168.3 1.165e+04 3.782e-10
 32.15566   -166.8 1.160e+04 3.454e-10
 32.17992   -166.2 1.162e+04 3.702e-10
 32.21286   -164.8 1.162e+04 3.615e-10
 32.23712   -164.3 1.163e+04 3.778e-10
 32.26435   -163.1 1.166e+04 3.839e-10
 32.29413   -162.1 1.175e+04 3.943e-10
 32.31839   -161.6 1.187e+04 4.815e-10
 32.35151   -160.9 1.200e+04 5.790e-10
 32.37577   -160.1 1.186e+04 5.127e-10
 32.40871   -159.6 1.198e+04 6.028e-10
 32.43297   -158.8 1.187e+04 4.989e-10
 32.45841   -158.6 1.204e+04 6.128e-10
 32.49017   -158.6 1.222e+04 7.510e-10
 32.51442   -158.0 1.221e+04 7.282e-10
 32.54736   -158.1 1.238e+04 8.644e-10
 32.57162   -157.8 1.264e+04 1.053e-09
 32.60395   -157.9 1.269e+04 1.146e-09
 32.62882   -158.0 1.268e+04 1.155e-09
 32.65308   -157.6 1.283e+04 1.394e-09
 32.68602   -157.2 1.246e+04 1.090e-09
 32.71028   -156.8 1.244e+04 1.098e-09
 32.74322   -155.7 1.201e+04 7.696e-10
 32.76747   -155.1 1.183e+04 6.784e-10
 32.79801   -153.7 1.157e+04 5.101e-10
 32.82467   -152.3 1.146e+04 4.208e-10
 32.84893   -151.5 1.140e+04 3.440e-10
 32.88187   -150.0 1.139e+04 3.303e-10
 32.90613   -149.2 1.135e+04 2.607e-10
 32.93907   -147.7 1.136e+04 2.654e-10
 32.96332   -147.1 1.135e+04 2.162e-10
 32.99207   -145.7 1.134e+04 2.192e-10
 33.02052   -144.3 1.130e+04 2.189e-10
 33.04478   -143.7 1.129e+04 2.039e-10
 33.07772   -142.2 1.113e+04 1.994e-10
 33.10198   -141.6 1.111e+04 1.972e-10
 33.13492   -140.0 1.096e+04 1.812e-10
 33.15918   -139.3 1.096e+04 1.827e-10
 33.18613   -137.6 1.084e+04 1.568e-10
 33.21637   -135.9 1.075e+04 1.351e-10
 33.24063   -135.2 1.075e+04 1.308e-10
 33.27357   -133.5 1.069e+04 1.110e-10
 33.29783   -132.6 1.069e+04 1.095e-10
 33.33077   -131.0 1.067e+04 9.661e-11
 33.35503   -130.2 1.074e+04 9.690e-11
 33.38018   -128.7 1.071e+04 9.194e-11
 33.41223   -127.2 1.071e+04 9.072e-11
 33.43648   -127.0 1.119e+04 1.001e-10
 33.46942   -125.7 1.120e+04 9.925e-11
 33.49368   -125.8 1.137e+04 1.657e-10
 33.52573   -124.7 1.143e+04 1.676e-10
 33.55088   -123.7 1.157e+04 1.785e-10
 33.57514   -123.7 1.159e+04 3.434e-10
 33.60808   -122.7 1.169e+04 3.700e-10
 33.63233   -122.5 1.183e+04 5.736e-10
 33.66527   -121.7 1.192e+04 5.935e-10
 33.68953   -121.6 1.195e+04 6.955e-10
 33.71978   -121.0 1.205e+04 7.026e-10
 33.74673   -120.6 1.211e+04 7.020e-10
 33.77099   -120.4 1.204e+04 7.112e-10
 33.80393   -120.1 1.217e+04 7.344e-10
 33.82819   -119.9 1.208e+04 6.829e-10
 33.86113   -119.7 1.236e+04 8.215e-10
 33.88538   -119.7 1.238e+04 8.206e-10
 33.91384   -119.9 1.273e+04 1.080e-09
 33.94258   -120.2 1.292e+04 1.339e-09
 33.96684   -120.4 1.288e+04 1.276e-09
 33.99978   -120.8 1.285e+04 1.330e-09
 34.02404   -120.6 1.254e+04 8.361e-10
 34.05698   -120.4 1.225e+04 7.648e-10
 34.08123   -120.1 1.176e+04 3.223e-10
 34.10790   -119.6 1.161e+04 3.103e-10
 34.13843   -118.7 1.145e+04 3.264e-10
 34.16269   -118.8 1.137e+04 1.609e-10
 34.19563   -118.0 1.145e+04 2.477e-10
 34.21989   -118.6 1.156e+04 2.146e-10
 34.25283   -117.9 1.172e+04 3.904e-10
 34.27709   -118.6 1.182e+04 4.379e-10
 34.30196   -117.8 1.202e+04 6.896e-10
 34.33428   -117.1 1.219e+04 8.547e-10
 34.35854   -117.9 1.212e+04 8.366e-10
 34.39148   -117.7 1.215e+04 8.558e-10
 34.41574   -118.1 1.187e+04 7.572e-10
 34.44750   -117.8 1.171e+04 7.243e-10
 34.47294   -117.3 1.134e+04 5.594e-10
 34.49719   -117.3 1.126e+04 5.443e-10
 34.53013   -117.0 1.096e+04 4.106e-10
 34.55439   -116.8 1.081e+04 3.841e-10
 34.58733   -116.0 1.047e+04 2.494e-10
 34.61159   -115.4 1.031e+04 2.084e-10
 34.64156   -114.7 1.008e+04 1.323e-10
 34.66879   -114.2 9.879e+03 9.760e-11
 34.69305   -114.0 9.891e+03 9.622e-11
 34.72599   -113.7 9.887e+03 8.847e-11
 34.75024   -114.3 1.025e+04 1.128e-10
 34.78318   -114.7 1.040e+04 1.222e-10
 34.80744   -115.3 1.070e+04 2.767e-10
 34.83562   -115.5 1.077e+04 3.445e-10
 34.86464   -115.7 1.083e+04 3.980e-10
 34.88890   -115.8 1.117e+04 5.910e-10
 34.92184   -116.0 1.101e+04 5.059e-10
 34.94600   -116.0 1.100e+04 4.846e-10
 34.97894   -116.4 1.080e+04 3.889e-10
 35.00329   -116.6 1.077e+04 3.854e-10
 35.02968   -117.1 1.046e+04 2.529e-10
 35.06049   -117.4 1.015e+04 1.677e-10
 35.08475   -117.6 1.017e+04 1.733e-10
 35.11769   -117.3 1.008e+04 1.483e-10
 35.14195   -117.5 1.016e+04 1.527e-10
 35.17489   -117.0 1.014e+04 1.441e-10
 35.19914   -117.1 1.021e+04 1.385e-10
 35.22373   -116.4 1.021e+04 1.316e-10
 35.25634   -115.6 1.027e+04 1.344e-10
 35.28060   -115.5 1.024e+04 1.108e-10
 35.31354   -114.6 1.025e+04 1.088e-10
 35.33780   -114.6 1.020e+04 9.246e-11
 35.36928   -113.6 1.021e+04 8.979e-11
 35.39500   -112.8 1.028e+04 8.993e-11
 35.41925   -112.6 1.021e+04 8.500e-11
 35.45219   -111.8 1.025e+04 9.571e-11
 35.47645   -111.5 1.025e+04 9.501e-11
 35.50939   -110.7 1.025e+04 1.177e-10
 35.53365   -110.5 1.033e+04 1.330e-10
 35.54998   -109.6 1.024e+04 1.404e-10
 35.57424   -109.8 1.020e+04 1.623e-10
 35.59085   -108.9 1.005e+04 1.601e-10
 35.61510   -108.8 1.025e+04 1.822e-10
 35.64804   -107.6 1.007e+04 1.442e-10
 35.67230   -107.8 1.044e+04 2.205e-10
 35.70524   -106.3 1.026e+04 1.579e-10
 35.72950   -106.6 1.052e+04 2.763e-10
 35.75739   -105.0 1.034e+04 2.035e-10
 35.78670   -103.2 1.023e+04 1.661e-10
 35.81096   -103.4 1.052e+04 2.540e-10
 35.84390   -101.4 1.043e+04 2.226e-10
 35.86815   -101.7 1.058e+04 2.694e-10
 35.90109    -99.6 1.052e+04 2.451e-10
 35.92535   -100.0 1.050e+04 2.460e-10
 35.95145    -97.7 1.046e+04 2.296e-10
 35.98255    -95.4 1.046e+04 2.226e-10
 36.00681    -95.8 1.028e+04 1.574e-10
 36.03975    -93.6 1.028e+04 1.518e-10
 36.06400    -94.0 1.018e+04 1.059e-10
 36.09695    -91.9 1.018e+04 1.046e-10
 36.14546    -90.4 1.018e+04 8.960e-11
 36.17840    -88.4 1.021e+04 9.133e-11
 36.20266    -89.0 1.023e+04 8.826e-11
 36.23560    -87.4 1.034e+04 9.066e-11
 36.25986    -88.0 1.043e+04 9.110e-11
 36.29105    -87.1 1.062e+04 1.001e-10
 36.31705    -86.9 1.090e+04 1.315e-10
 36.34131    -87.7 1.103e+04 1.565e-10
 36.37425    -87.4 1.122e+04 2.608e-10
 36.39851    -87.6 1.123e+04 3.160e-10
 36.43145    -86.9 1.144e+04 4.587e-10
 36.45571    -86.8 1.129e+04 4.513e-10
 36.48511    -85.8 1.129e+04 5.113e-10
 36.51291    -84.8 1.125e+04 5.148e-10
 36.53716    -84.1 1.092e+04 3.678e-10
 36.57010    -82.7 1.078e+04 3.176e-10
 36.59436    -82.0 1.059e+04 2.122e-10
 36.62730    -80.6 1.054e+04 1.914e-10
 36.65156    -79.8 1.042e+04 1.402e-10
 36.67917    -78.4 1.040e+04 1.417e-10
 36.70876    -77.1 1.044e+04 1.438e-10
 36.73301    -76.3 1.041e+04 1.299e-10
 36.76595    -75.4 1.051e+04 1.460e-10
 36.79021    -74.8 1.050e+04 1.516e-10
 36.82315    -74.1 1.057e+04 1.906e-10
 36.84741    -73.4 1.060e+04 2.409e-10
 36.87322    -72.6 1.070e+04 2.886e-10
 36.90461    -71.8 1.076e+04 3.179e-10
 36.92886    -70.9 1.085e+04 3.796e-10
 36.96181    -70.2 1.090e+04 3.830e-10
 36.98606    -69.6 1.091e+04 4.011e-10
 37.01877    -69.2 1.114e+04 4.506e-10
 37.04326    -69.1 1.174e+04 6.839e-10
 37.06752    -68.5 1.161e+04 6.739e-10
 37.10046    -68.2 1.226e+04 1.159e-09
 37.12472    -67.0 1.172e+04 8.521e-10
 37.15766    -66.4 1.227e+04 1.292e-09
 37.18191    -65.0 1.160e+04 7.701e-10
 37.21283    -64.5 1.198e+04 1.083e-09
 37.23911    -63.7 1.210e+04 1.254e-09
 37.26337    -62.2 1.158e+04 8.634e-10
 37.29631    -61.3 1.163e+04 9.600e-10
 37.32057    -59.5 1.144e+04 8.153e-10
 37.35351    -58.4 1.140e+04 8.323e-10
 37.37777    -56.9 1.148e+04 8.518e-10
 37.40688    -55.8 1.128e+04 7.629e-10
 37.43496    -54.6 1.088e+04 5.419e-10
 37.45922    -53.0 1.113e+04 6.896e-10
 37.49216    -51.8 1.078e+04 5.009e-10
 37.51642    -50.3 1.105e+04 6.382e-10
 37.54936    -49.1 1.074e+04 4.947e-10
 37.57362    -47.6 1.108e+04 6.270e-10
 37.60094    -46.5 1.082e+04 5.184e-10
 37.63081    -45.3 1.063e+04 4.091e-10
 37.65507    -44.5 1.112e+04 5.861e-10
 37.68574    -44.1 1.105e+04 5.291e-10
 37.69995    -43.9 1.109e+04 5.063e-10
 37.71207    -44.3 1.154e+04 7.614e-10
 37.72855    -44.5 1.162e+04 8.321e-10
 37.74067    -44.7 1.222e+04 1.334e-09
 37.75714    -44.7 1.237e+04 1.547e-09
 37.76927    -44.4 1.300e+04 2.274e-09
 37.78268    -44.0 1.309e+04 2.457e-09
 37.79787    -43.6 1.316e+04 2.522e-09
 37.81000    -43.5 1.348e+04 2.788e-09
 37.82647    -43.3 1.330e+04 2.564e-09
 37.83860    -43.6 1.328e+04 2.288e-09
 37.85507    -43.2 1.285e+04 1.795e-09
 37.86720    -43.7 1.254e+04 1.324e-09
 37.87970    -43.3 1.204e+04 9.856e-10
 37.89580    -42.8 1.180e+04 7.731e-10
 37.90802    -44.0 1.172e+04 7.216e-10
 37.94054    -42.6 1.104e+04 3.714e-10
 37.96532    -41.6 1.058e+04 2.114e-10
 37.98958    -41.9 1.058e+04 2.192e-10
 38.02252    -40.2 1.052e+04 1.775e-10
 38.04677    -40.2 1.077e+04 3.042e-10
 38.07972    -39.0 1.092e+04 3.160e-10
 38.10387    -38.8 1.106e+04 6.106e-10
 38.12025    -38.1 1.131e+04 6.805e-10
 38.13238    -37.1 1.168e+04 9.908e-10
 38.14653    -36.7 1.169e+04 9.946e-10
 38.16098    -35.6 1.184e+04 1.007e-09
 38.18533    -35.7 1.237e+04 1.312e-09
 38.21837    -35.6 1.247e+04 1.276e-09
 38.24263    -35.8 1.260e+04 1.179e-09
 38.27557    -36.5 1.274e+04 1.243e-09
 38.29982    -37.4 1.192e+04 5.777e-10
 38.32866    -37.7 1.229e+04 7.397e-10
 38.35702    -37.5 1.217e+04 8.443e-10
 38.38128    -38.0 1.157e+04 5.113e-10
 38.41422    -37.1 1.152e+04 5.639e-10
 38.43848    -36.5 1.124e+04 3.506e-10
 38.47142    -36.6 1.136e+04 4.202e-10
 38.49568    -36.5 1.132e+04 3.822e-10
 38.52272    -36.4 1.148e+04 6.548e-10
 38.55287    -35.4 1.190e+04 1.010e-09
 38.57713    -35.1 1.190e+04 1.022e-09
 38.61007    -34.4 1.200e+04 1.065e-09
 38.63433    -34.1 1.193e+04 1.012e-09
 38.66727    -33.7 1.156e+04 6.502e-10
 38.69153    -33.6 1.147e+04 5.462e-10
 38.71677    -34.3 1.097e+04 3.727e-10
 38.74872    -33.8 1.078e+04 3.536e-10
 38.77298    -33.7 1.060e+04 3.028e-10
 38.80583    -32.8 1.050e+04 3.589e-10
 38.83009    -31.8 1.024e+04 2.800e-10
 38.86232    -30.8 1.009e+04 2.608e-10
 38.88738    -30.1 1.030e+04 2.495e-10
 38.91163    -30.4 1.004e+04 1.801e-10
 38.94458    -30.5 1.031e+04 1.888e-10
 38.96883    -30.8 1.022e+04 1.831e-10
 39.00177    -31.4 1.048e+04 2.583e-10
 39.02603    -30.9 1.060e+04 3.547e-10
 39.05638    -30.5 1.082e+04 5.335e-10
 39.08323    -29.7 1.115e+04 7.902e-10
 39.10749    -29.6 1.130e+04 8.052e-10
 39.14043    -29.0 1.158e+04 1.049e-09
 39.16468    -29.0 1.174e+04 1.147e-09
 39.19762    -28.1 1.176e+04 1.205e-09
 39.22188    -27.7 1.185e+04 1.330e-09
 39.25043    -26.4 1.163e+04 1.114e-09
 39.27908    -25.2 1.127e+04 8.130e-10
 39.30334    -24.5 1.132e+04 8.376e-10
 39.33628    -23.4 1.086e+04 5.957e-10
 39.36054    -22.6 1.077e+04 5.657e-10
 39.39348    -21.0 1.055e+04 4.732e-10
 39.41773    -20.0 1.040e+04 4.123e-10
 39.44449    -18.1 1.028e+04 3.589e-10
 39.47493    -16.1 1.023e+04 2.963e-10
 39.49919    -14.8 1.019e+04 2.501e-10
 39.53213    -13.2 1.018e+04 2.232e-10
 39.55639    -12.1 1.020e+04 2.117e-10
 39.58933    -10.7 1.015e+04 2.025e-10
 39.61358    -10.0 1.044e+04 2.293e-10
 39.63855     -8.4 1.028e+04 2.277e-10
 39.67078     -6.6 1.013e+04 2.097e-10
 39.69504     -5.3 1.045e+04 2.726e-10
 39.72798     -3.9 1.031e+04 2.386e-10
 39.75224     -3.0 1.057e+04 2.757e-10
 39.78409     -1.5 1.041e+04 2.476e-10
 39.80944      0.0 1.036e+04 2.334e-10
 39.83369      0.8 1.064e+04 2.641e-10
 39.86663      2.1 1.080e+04 2.949e-10
 39.87867      2.3 1.101e+04 3.197e-10
 39.89305      2.5 1.107e+04 3.315e-10
 39.90717      2.7 1.108e+04 3.756e-10
 39.91929      2.5 1.125e+04 4.528e-10
 39.93577      3.3 1.129e+04 5.789e-10
 39.94789      3.8 1.164e+04 8.013e-10
 39.96436      4.7 1.189e+04 1.016e-09
 39.97649      5.1 1.223e+04 1.256e-09
 39.99008      5.8 1.255e+04 1.533e-09
 40.00509      6.3 1.284e+04 1.828e-09
 40.01722      6.6 1.313e+04 2.051e-09
 40.03369      7.0 1.353e+04 2.467e-09
 40.04582      7.3 1.370e+04 2.554e-09
 40.06229      7.2 1.419e+04 3.144e-09
 40.07442      6.9 1.439e+04 2.908e-09
 40.08711      6.0 1.520e+04 3.925e-09
 40.10302      5.0 1.587e+04 5.308e-09
 40.11515      3.2 1.633e+04 5.556e-09
 40.13162      3.1 1.661e+04 6.873e-09
 40.14375      1.6 1.678e+04 7.211e-09
 40.15988      1.3 1.675e+04 6.858e-09
 40.17234      0.4 1.690e+04 6.168e-09
 40.18447     -0.8 1.635e+04 5.438e-09
 40.20094     -2.6 1.626e+04 5.066e-09
 40.21307     -3.5 1.553e+04 4.125e-09
 40.22954     -5.3 1.533e+04 4.245e-09
 40.24167     -5.6 1.470e+04 3.402e-09
 40.25691     -6.5 1.459e+04 3.787e-09
 40.27027     -6.9 1.450e+04 4.084e-09
 40.28240     -6.4 1.407e+04 3.381e-09
 40.29887     -6.6 1.403e+04 3.448e-09
 40.31100     -6.1 1.379e+04 2.972e-09
 40.32747     -6.5 1.411e+04 3.236e-09
 40.33960     -6.3 1.401e+04 2.965e-09
 40.35394     -7.4 1.464e+04 3.696e-09
 40.36820     -8.4 1.502e+04 4.697e-09
 40.38032     -8.2 1.503e+04 4.980e-09
 40.39679     -8.0 1.523e+04 6.296e-09
 40.40892     -7.4 1.523e+04 6.396e-09
 40.42539     -7.3 1.537e+04 6.683e-09
 40.43752     -6.7 1.515e+04 5.751e-09
 40.44569     -6.8 1.503e+04 5.330e-09
 40.45782     -7.3 1.512e+04 5.346e-09
 40.46612     -7.7 1.460e+04 4.199e-09
 40.47825     -7.9 1.392e+04 3.175e-09
 40.49472     -7.8 1.339e+04 2.368e-09
 40.50685     -7.8 1.288e+04 1.780e-09
 40.52332     -8.1 1.262e+04 1.490e-09
 40.53555     -7.5 1.233e+04 1.378e-09
 40.56032     -7.3 1.199e+04 8.764e-10
 40.59284     -7.2 1.161e+04 7.045e-10
 40.61710     -6.2 1.089e+04 3.606e-10
 40.65004     -5.7 1.089e+04 3.961e-10
 40.67430     -4.6 1.029e+04 2.574e-10
 40.70587     -3.8 1.060e+04 3.510e-10
 40.73149     -2.7 1.101e+04 5.959e-10
 40.75575     -1.2 1.055e+04 3.926e-10
 40.78869     -0.2 1.100e+04 6.325e-10
 40.81295      1.4 1.068e+04 4.845e-10
 40.84589      2.2 1.109e+04 7.259e-10
 40.87015      3.6 1.090e+04 6.317e-10
 40.89992      4.3 1.124e+04 8.834e-10
 40.92735      5.3 1.150e+04 1.156e-09
 40.95160      6.8 1.154e+04 1.117e-09
 40.98445      7.3 1.156e+04 1.201e-09
 40.99648      8.0 1.158e+04 1.201e-09
 41.00889      8.1 1.161e+04 1.203e-09
 41.02508      7.4 1.208e+04 1.387e-09
 41.03720      7.6 1.216e+04 1.386e-09
 41.05368      6.2 1.284e+04 1.896e-09
 41.06580      6.4 1.287e+04 1.802e-09
 41.08166      5.7 1.332e+04 2.672e-09
 41.09440      5.9 1.358e+04 3.523e-09
 41.10653      5.8 1.353e+04 3.320e-09
 41.12300      6.0 1.376e+04 3.547e-09
 41.13513      5.7 1.353e+04 3.202e-09
 41.15160      5.6 1.341e+04 2.984e-09
 41.16373      5.2 1.309e+04 2.737e-09
 41.17869      5.1 1.277e+04 2.102e-09
 41.19233      4.2 1.210e+04 1.561e-09
 41.20455      4.9 1.232e+04 1.797e-09
 41.23759      3.6 1.111e+04 9.009e-10
 41.26185      5.2 1.041e+04 5.739e-10
 41.28804      3.8 9.315e+03 2.233e-10
 41.31905      2.1 8.735e+03 1.149e-10
 41.34331      1.9 8.666e+03 9.952e-11
 41.37625      1.6 8.501e+03 1.215e-10
 41.40050      2.4 8.523e+03 1.387e-10
 41.43344      3.5 8.417e+03 1.513e-10
 41.48196      5.7 8.436e+03 1.221e-10
 41.51490      5.2 8.400e+03 9.078e-11
 41.53916      5.5 8.425e+03 8.192e-11
 41.57210      5.2 8.137e+03 7.613e-11
 41.59635      5.9 8.038e+03 8.853e-11
 41.62764      6.9 7.878e+03 8.121e-11
 41.65355      8.0 7.839e+03 6.442e-11
 41.67781      9.5 7.942e+03 6.883e-11
 41.71075      9.7 8.049e+03 4.958e-11
 41.73501     10.8 8.093e+03 5.261e-11
 41.76795     10.9 8.075e+03 5.123e-11
 41.79221     12.0 8.149e+03 5.837e-11
 41.82170     11.2 8.399e+03 6.844e-11
 41.84940     10.1 9.110e+03 1.548e-10
 41.87366     11.3 9.341e+03 2.120e-10
 41.90660     11.5 9.932e+03 4.313e-10
 41.93086     13.0 9.976e+03 4.350e-10
 41.96380     13.0 1.024e+04 4.979e-10
 41.98806     13.9 1.015e+04 4.793e-10
 42.01576     13.0 1.029e+04 4.898e-10
 42.04526     11.3 1.044e+04 5.242e-10
 42.06693     12.6 1.046e+04 5.667e-10
 42.08594     14.5 1.049e+04 5.925e-10
 42.10245     13.2 1.060e+04 6.681e-10
 42.12671     14.4 1.059e+04 6.610e-10
 42.15965     13.4 1.049e+04 7.093e-10
 42.18391     14.3 1.052e+04 6.585e-10
 42.20982     13.5 1.034e+04 6.792e-10
 42.24111     13.4 1.000e+04 5.895e-10
 42.26536     14.5 1.016e+04 6.419e-10
 42.29830     14.9 9.816e+03 5.113e-10
 42.32256     16.4 9.813e+03 4.919e-10
 42.35536     17.1 9.659e+03 3.953e-10
 42.40387     19.1 9.495e+03 3.053e-10
 42.43696     19.5 9.456e+03 3.060e-10
 42.46122     20.7 9.500e+03 2.968e-10
 42.49416     21.4 9.587e+03 3.655e-10
 42.51841     22.7 9.779e+03 3.936e-10
 42.53479     22.7 9.859e+03 4.516e-10
 42.54682     23.1 9.949e+03 4.822e-10
 42.56135     23.5 1.001e+04 5.048e-10
 42.57542     23.7 1.012e+04 4.922e-10
 42.58754     24.4 1.048e+04 6.658e-10
 42.60401     24.5 1.048e+04 6.669e-10
 42.61614     24.6 1.056e+04 6.968e-10
 42.63271     25.1 1.051e+04 5.820e-10
 42.65707     26.3 1.112e+04 9.842e-10
 42.69001     26.5 1.108e+04 8.333e-10
 42.71426     27.8 1.174e+04 1.294e-09
 42.74347     27.8 1.156e+04 1.039e-09
 42.77136     27.8 1.149e+04 9.794e-10
 42.78340     28.2 1.186e+04 1.227e-09
 42.79987     28.6 1.167e+04 1.104e-09
 42.81199     28.8 1.204e+04 1.420e-09
 42.82818     29.0 1.188e+04 1.268e-09
 42.84059     29.5 1.172e+04 1.018e-09
 42.85272     29.6 1.209e+04 1.509e-09
 42.86919     30.2 1.188e+04 1.175e-09
 42.88132     30.6 1.224e+04 1.717e-09
 42.89779     31.1 1.203e+04 1.294e-09
 42.90992     31.6 1.235e+04 1.837e-09
 42.92521     32.0 1.219e+04 1.345e-09
 42.93852     32.0 1.204e+04 9.076e-10
 42.95065     33.0 1.229e+04 1.290e-09
 42.96712     32.8 1.215e+04 8.839e-10
 42.97925     33.7 1.239e+04 1.166e-09
 42.99572     33.4 1.220e+04 8.254e-10
 43.00785     34.1 1.241e+04 1.077e-09
 43.02224     33.7 1.226e+04 8.098e-10
 43.03645     33.1 1.197e+04 7.052e-10
 43.04857     33.6 1.260e+04 9.014e-10
 43.06504     32.9 1.247e+04 8.974e-10
 43.07717     32.9 1.342e+04 1.245e-09
 43.09364     31.5 1.333e+04 1.374e-09
 43.10577     31.1 1.432e+04 2.090e-09
 43.11927     29.9 1.396e+04 2.389e-09
 43.13437     29.7 1.376e+04 2.992e-09
 43.14650     30.0 1.406e+04 3.702e-09
 43.16297     30.3 1.378e+04 3.546e-09
 43.17510     30.5 1.369e+04 3.417e-09
 43.19157     30.2 1.351e+04 2.841e-09
 43.20370     29.9 1.325e+04 2.336e-09
 43.21629     28.5 1.327e+04 1.860e-09
 43.23230     26.3 1.302e+04 1.688e-09
 43.24452     27.1 1.243e+04 1.213e-09
 43.26099     25.4 1.199e+04 1.369e-09
 43.27302     25.4 1.193e+04 1.325e-09
 43.28907     25.4 1.193e+04 1.325e-09
 43.30162     25.6 1.165e+04 1.320e-09
 43.31375     26.3 1.118e+04 9.960e-10
 43.33022     26.7 1.087e+04 9.074e-10
 43.34235     27.1 1.061e+04 7.556e-10
 43.35882     27.9 1.048e+04 6.182e-10
 43.37095     28.5 1.035e+04 5.481e-10
 43.38610     28.6 1.013e+04 4.932e-10
 43.39955     28.6 1.003e+04 4.315e-10
 43.41168     29.5 9.994e+03 4.318e-10
 43.42815     29.4 1.005e+04 4.587e-10
 43.44028     30.1 1.014e+04 4.863e-10
 43.45675     30.2 1.029e+04 6.271e-10
 43.46888     31.0 1.035e+04 6.774e-10
 43.48312     31.0 1.099e+04 8.974e-10
 43.49747     30.8 1.173e+04 1.328e-09
 43.50960     31.3 1.215e+04 1.520e-09
 43.52607     30.8 1.263e+04 2.213e-09
 43.53820     31.1 1.302e+04 2.612e-09
 43.55467     31.3 1.333e+04 3.588e-09
 43.56680     31.5 1.369e+04 4.232e-09
 43.58015     32.1 1.420e+04 4.894e-09
 43.59540     32.3 1.434e+04 4.490e-09
 43.60753     32.6 1.484e+04 5.586e-09
 43.62400     32.5 1.479e+04 4.710e-09
 43.63613     33.0 1.526e+04 5.780e-09
 43.65260     32.0 1.481e+04 4.473e-09
 43.66473     32.7 1.532e+04 5.405e-09
 43.67718     31.3 1.427e+04 3.856e-09
 43.69333     29.7 1.282e+04 2.639e-09
 43.70545     30.7 1.317e+04 2.919e-09
 43.71368     29.8 1.180e+04 1.947e-09
 43.72203     29.4 1.141e+04 1.687e-09
 43.73405     30.2 1.139e+04 1.638e-09
 43.74995     29.7 1.063e+04 1.207e-09
 43.76265     29.6 1.006e+04 9.228e-10
 43.77478     30.1 9.922e+03 8.358e-10
 43.79125     29.6 9.502e+03 6.216e-10
 43.80338     29.8 9.383e+03 5.669e-10
 43.81985     28.8 9.109e+03 4.678e-10
 43.83198     28.9 9.150e+03 4.743e-10
 43.84698     25.8 1.020e+04 5.243e-10
 43.86058     14.3 1.638e+04 1.311e-09
 43.87271      7.7 1.828e+04 3.945e-09
 43.88918      3.0 1.945e+04 1.324e-08
 43.89519      3.0 1.915e+04 1.625e-08
 43.90146      1.8 1.942e+04 2.045e-08
 43.90944      1.1 1.970e+04 3.044e-08
 43.91551      1.5 2.014e+04 3.228e-08
 43.92374      1.1 2.078e+04 3.246e-08
 43.92981      0.4 2.172e+04 2.820e-08
 43.93785     -2.5 2.311e+04 1.839e-08
 43.94411     -9.0 2.214e+04 8.862e-09
 43.95017    -15.8 1.811e+04 4.714e-09
 43.95841    -22.6 1.356e+04 2.916e-09
 43.96447    -24.5 1.252e+04 2.530e-09
 43.97271    -24.9 1.238e+04 2.426e-09
 43.97877    -24.9 1.242e+04 2.437e-09
 43.98705    -26.2 1.203e+04 2.018e-09
 43.99923    -27.4 1.157e+04 1.704e-09
 44.01570    -30.3 1.101e+04 1.334e-09
 44.02783    -31.5 1.086e+04 1.278e-09
 44.04104    -37.2 1.273e+04 1.399e-09
 44.05643    -45.0 1.491e+04 2.335e-09
 44.06856    -48.0 1.545e+04 3.170e-09
 44.08503    -53.3 1.555e+04 5.071e-09
 44.09716    -55.1 1.589e+04 6.130e-09
 44.11363    -57.9 1.573e+04 6.440e-09
 44.12576    -59.0 1.594e+04 7.058e-09
 44.13807    -61.0 1.477e+04 4.216e-09
 44.15435    -64.6 1.302e+04 1.781e-09
 44.16648    -66.8 1.190e+04 1.170e-09
 44.18295    -71.6 9.866e+03 5.065e-10
 44.19508    -72.7 9.471e+03 4.094e-10
 44.21084    -73.7 9.124e+03 3.344e-10
 44.22368    -74.1 9.100e+03 3.121e-10
 44.24804    -74.6 9.174e+03 2.990e-10
 44.28107    -75.1 9.373e+03 3.198e-10
 44.30533    -75.1 9.434e+03 3.775e-10
 44.32170    -75.2 9.631e+03 4.635e-10
 44.33374    -75.1 9.689e+03 4.797e-10
 44.35021    -75.5 9.882e+03 5.589e-10
 44.36243    -74.9 9.904e+03 5.380e-10
 44.37890    -75.1 1.028e+04 6.994e-10
 44.39093    -75.0 1.027e+04 6.665e-10
 44.40490    -75.2 1.044e+04 7.185e-10
 44.41953    -75.4 1.054e+04 7.360e-10
 44.43166    -75.1 1.040e+04 6.112e-10
 44.44813    -75.6 1.041e+04 6.176e-10
 44.46026    -75.8 1.029e+04 5.491e-10
 44.47673    -76.0 1.016e+04 5.198e-10
 44.50109    -76.1 9.939e+03 4.450e-10
 44.53412    -76.2 9.649e+03 3.849e-10
 44.55838    -75.5 9.461e+03 3.389e-10
 44.58702    -75.1 9.214e+03 2.757e-10
 44.61558    -74.6 9.047e+03 2.315e-10
 44.63984    -73.8 9.077e+03 2.162e-10
 44.67278    -73.4 8.980e+03 1.948e-10
 44.69703    -72.9 9.039e+03 2.054e-10
 44.72998    -72.6 8.976e+03 1.956e-10
 44.75423    -72.0 9.018e+03 2.083e-10
 44.78108    -71.8 9.004e+03 2.010e-10
 44.81143    -71.6 9.045e+03 2.029e-10
 44.83569    -71.2 9.137e+03 2.099e-10
 44.86863    -71.2 9.268e+03 2.208e-10
 44.89289    -71.5 9.533e+03 2.573e-10
 44.92583    -71.4 9.653e+03 2.813e-10
 44.95008    -71.5 9.743e+03 3.121e-10
 44.97514    -71.0 9.763e+03 3.045e-10
 45.00728    -70.6 9.730e+03 2.919e-10
 45.03154    -70.8 9.668e+03 2.429e-10
 45.06448    -70.2 9.640e+03 2.311e-10
 45.08874    -70.5 9.615e+03 2.168e-10
 45.12068    -69.6 9.568e+03 2.105e-10
 45.14594    -68.7 9.578e+03 2.175e-10
 45.17019    -68.6 9.746e+03 2.351e-10
 45.20313    -68.1 9.982e+03 2.671e-10
 45.22739    -69.4 1.045e+04 4.005e-10
 45.26033    -69.8 1.104e+04 5.652e-10
 45.28459    -71.0 1.162e+04 9.979e-10
 45.30096    -70.9 1.178e+04 1.098e-09
 45.31299    -70.9 1.185e+04 1.241e-09
 45.32667    -71.2 1.199e+04 1.365e-09
 45.34159    -71.3 1.206e+04 1.438e-09
 45.35372    -70.9 1.195e+04 1.364e-09
 45.37019    -71.0 1.186e+04 1.335e-09
 45.38232    -71.3 1.183e+04 1.235e-09
 45.39879    -71.6 1.176e+04 1.056e-09
 45.41092    -73.3 1.216e+04 9.607e-10
 45.42370    -74.1 1.196e+04 8.510e-10
 45.43952    -74.8 1.171e+04 7.610e-10
 45.45165    -76.6 1.191e+04 8.759e-10
 45.46812    -76.8 1.171e+04 8.068e-10
 45.48024    -78.1 1.183e+04 1.096e-09
 45.49647    -78.3 1.164e+04 9.909e-10
 45.50884    -78.6 1.145e+04 8.966e-10
 45.52097    -78.8 1.169e+04 1.035e-09
 45.53744    -79.2 1.150e+04 9.324e-10
 45.54957    -79.6 1.141e+04 1.145e-09
 45.56604    -79.8 1.128e+04 1.062e-09
 45.57817    -80.0 1.137e+04 1.082e-09
 45.59350    -80.2 1.135e+04 1.045e-09
 45.60677    -80.3 1.134e+04 1.035e-09
 45.61890    -80.0 1.124e+04 1.080e-09
 45.63537    -80.6 1.146e+04 1.145e-09
 45.64750    -80.5 1.150e+04 1.171e-09
 45.66397    -81.6 1.163e+04 1.287e-09
 45.67610    -82.2 1.171e+04 1.347e-09
 45.69053    -82.9 1.171e+04 1.388e-09
 45.70469    -83.5 1.149e+04 1.354e-09
 45.71682    -83.6 1.165e+04 1.346e-09
 45.73329    -84.0 1.129e+04 1.093e-09
 45.74542    -84.1 1.125e+04 1.167e-09
 45.76189    -84.7 1.069e+04 7.745e-10
 45.77402    -84.4 1.073e+04 7.300e-10
 45.78756    -85.6 1.013e+04 4.662e-10
 45.80262    -87.2 9.682e+03 3.526e-10
 45.81475    -87.1 9.625e+03 3.588e-10
 45.83122    -88.5 9.515e+03 3.366e-10
 45.84335    -88.5 9.686e+03 3.076e-10
 45.85982    -90.0 9.756e+03 3.129e-10
 45.87195    -90.4 9.750e+03 3.583e-10
 45.88459    -92.1 1.023e+04 4.908e-10
 45.90055    -93.4 1.062e+04 6.662e-10
 45.91267    -94.6 1.116e+04 7.702e-10
 45.92914    -95.6 1.124e+04 9.214e-10
 45.94127    -96.4 1.158e+04 1.283e-09
 45.95736    -97.3 1.159e+04 1.309e-09
 45.96987    -97.9 1.139e+04 1.252e-09
 45.98200    -98.5 1.190e+04 1.600e-09
 45.99847    -99.0 1.151e+04 1.288e-09
 46.01060    -99.9 1.202e+04 1.686e-09
 46.02707   -100.5 1.157e+04 1.273e-09
 46.03920   -101.4 1.204e+04 1.649e-09
 46.05439   -101.9 1.150e+04 1.243e-09
 46.06780   -102.1 1.099e+04 9.117e-10
 46.07993   -102.8 1.137e+04 1.193e-09
 46.09640   -102.8 1.094e+04 8.931e-10
 46.10853   -103.6 1.149e+04 1.152e-09
 46.12500   -103.7 1.113e+04 8.765e-10
 46.13712   -104.9 1.159e+04 1.186e-09
 46.15142   -104.8 1.127e+04 9.950e-10
 46.16572   -104.4 1.101e+04 8.387e-10
 46.17785   -105.2 1.131e+04 1.123e-09
 46.19432   -104.6 1.109e+04 9.473e-10
 46.20645   -105.0 1.126e+04 1.215e-09
 46.22292   -104.4 1.106e+04 1.074e-09
 46.23505   -104.5 1.112e+04 1.141e-09
 46.24845   -103.8 1.092e+04 9.989e-10
 46.26365   -103.1 1.075e+04 8.575e-10
 46.27578   -103.4 1.065e+04 8.310e-10
 46.29225   -102.9 1.053e+04 7.582e-10
 46.30438   -103.2 1.046e+04 6.352e-10
 46.32085   -102.7 1.040e+04 6.089e-10
 46.33298   -103.6 1.056e+04 5.374e-10
 46.34548   -103.1 1.052e+04 5.454e-10
 46.36158   -102.7 1.058e+04 5.573e-10
 46.37370   -104.3 1.096e+04 5.899e-10
 46.39017   -104.1 1.107e+04 6.536e-10
 46.40230   -105.6 1.124e+04 7.840e-10
 46.41825   -104.8 1.128e+04 8.730e-10
 46.43090   -103.9 1.126e+04 9.548e-10
 46.44303   -104.6 1.134e+04 1.085e-09
 46.45950   -104.0 1.160e+04 1.189e-09
 46.47163   -105.9 1.198e+04 1.249e-09
 46.48810   -106.8 1.267e+04 1.488e-09
 46.50023   -109.6 1.281e+04 1.465e-09
 46.51528   -110.9 1.336e+04 2.014e-09
 46.52883   -111.5 1.397e+04 2.810e-09
 46.54096   -112.7 1.289e+04 1.658e-09
 46.55743   -113.2 1.316e+04 1.691e-09
 46.56956   -116.0 1.173e+04 8.792e-10
 46.58603   -117.7 1.151e+04 7.180e-10
 46.59815   -119.8 1.059e+04 4.544e-10
 46.61231   -121.4 1.026e+04 3.844e-10
 46.62675   -122.7 1.003e+04 3.453e-10
 46.63888   -122.8 9.912e+03 2.897e-10
 46.65535   -123.5 9.885e+03 2.821e-10
 46.67971   -123.7 9.906e+03 2.643e-10
 46.71275   -124.7 9.993e+03 2.807e-10
 46.73700   -125.1 9.790e+03 2.527e-10
 46.76994   -126.0 9.951e+03 2.874e-10
 46.79420   -125.8 9.833e+03 2.795e-10
 46.81869   -126.5 9.882e+03 2.910e-10
 46.85140   -127.1 9.862e+03 2.716e-10
 46.87566   -126.5 9.828e+03 2.606e-10
 46.90860   -127.0 9.741e+03 2.057e-10
 46.93285   -126.2 9.757e+03 1.821e-10
 46.96423   -126.9 9.662e+03 1.447e-10
 46.99005   -127.7 9.648e+03 1.392e-10
 47.01431   -126.5 9.624e+03 1.161e-10
 47.04725   -127.1 9.619e+03 1.202e-10
 47.07151   -125.6 9.634e+03 1.072e-10
 47.10445   -126.2 9.780e+03 1.358e-10
 47.12871   -124.7 9.748e+03 1.112e-10
 47.15829   -126.2 1.103e+04 2.429e-10
 47.18581   -128.0 1.220e+04 5.524e-10
 47.19784   -127.9 1.227e+04 5.415e-10
 47.21431   -129.3 1.327e+04 1.308e-09
 47.22644   -129.1 1.342e+04 1.336e-09
 47.24291   -129.8 1.417e+04 2.493e-09
 47.26716   -130.3 1.482e+04 3.605e-09
 47.28363   -131.8 1.494e+04 3.907e-09
 47.29576   -131.4 1.511e+04 4.081e-09
 47.31223   -133.2 1.484e+04 3.564e-09
 47.32436   -132.9 1.490e+04 3.561e-09
 47.34002   -135.4 1.389e+04 2.040e-09
 47.35296   -138.7 1.235e+04 1.039e-09
 47.36509   -138.6 1.226e+04 1.029e-09
 47.38156   -141.4 1.102e+04 6.374e-10
 47.39369   -141.2 1.109e+04 6.514e-10
 47.41016   -142.9 1.077e+04 5.245e-10
 47.42229   -143.0 1.078e+04 5.237e-10
 47.43705   -144.2 1.066e+04 4.680e-10
 47.45089   -144.9 1.056e+04 4.325e-10
 47.46301   -145.9 1.083e+04 4.719e-10
 47.49605   -146.8 1.084e+04 4.730e-10
 47.52031   -149.3 1.110e+04 5.568e-10
 47.54631   -150.1 1.122e+04 6.009e-10
 47.57761   -151.6 1.113e+04 6.591e-10
 47.60186   -154.0 1.167e+04 9.129e-10
 47.63480   -154.7 1.175e+04 9.958e-10
 47.65896   -155.8 1.206e+04 1.154e-09
 47.67534   -156.1 1.218e+04 1.221e-09
 47.68746   -157.4 1.220e+04 1.221e-09
 47.70388   -157.8 1.242e+04 1.363e-09
 47.72814   -158.9 1.282e+04 1.593e-09
 47.74466   -159.3 1.311e+04 1.807e-09
 47.75679   -160.1 1.316e+04 1.821e-09
 47.77326   -160.7 1.337e+04 1.988e-09
 47.78539   -161.4 1.339e+04 1.929e-09
 47.80091   -161.9 1.347e+04 1.994e-09
 47.81399   -162.4 1.349e+04 2.004e-09
 47.82612   -163.0 1.348e+04 1.966e-09
 47.84259   -163.5 1.336e+04 1.816e-09
 47.85472   -164.0 1.350e+04 1.860e-09
 47.87119   -164.6 1.341e+04 1.719e-09
 47.88332   -165.2 1.351e+04 1.803e-09
 47.89794   -166.1 1.336e+04 1.642e-09
 47.91191   -167.0 1.318e+04 1.507e-09
 47.92404   -167.5 1.320e+04 1.565e-09
 47.94051   -168.5 1.310e+04 1.506e-09
 47.95264   -168.6 1.315e+04 1.576e-09
 47.96911   -169.6 1.315e+04 1.563e-09
 47.98124   -169.7 1.326e+04 1.616e-09
 47.99497   -172.2 1.413e+04 1.798e-09
 48.00984   -175.1 1.487e+04 2.530e-09
 48.02197   -175.7 1.489e+04 2.755e-09
 48.03844   -178.3 1.492e+04 3.338e-09
 48.05057   -178.8 1.485e+04 3.203e-09
 48.06704   -181.1 1.453e+04 3.177e-09
 48.07917   -181.3 1.421e+04 2.859e-09
 48.09200   -183.4 1.337e+04 1.907e-09
 48.10777   -185.6 1.249e+04 1.151e-09
 48.11989   -186.6 1.193e+04 8.561e-10
 48.13637   -188.5 1.122e+04 5.454e-10
 48.14849   -189.2 1.085e+04 4.429e-10
 48.16477   -190.1 1.072e+04 3.522e-10
 48.17709   -190.6 1.065e+04 3.311e-10
 48.18922   -190.7 1.055e+04 3.017e-10
 48.22226   -190.9 1.045e+04 2.889e-10
 48.24661   -191.0 1.029e+04 2.670e-10
 48.27412   -190.2 1.018e+04 2.608e-10
 48.30381   -189.7 1.013e+04 2.606e-10
 48.32807   -189.1 9.969e+03 2.399e-10
 48.36101   -188.5 9.945e+03 2.395e-10
 48.38527   -187.6 9.823e+03 2.171e-10
 48.41821   -186.9 9.832e+03 2.184e-10
 48.44247   -185.7 9.726e+03 1.977e-10
 48.46818   -185.0 9.811e+03 2.067e-10
 48.49966   -184.4 9.844e+03 2.328e-10
 48.52392   -182.9 9.769e+03 2.088e-10
 48.55686   -182.2 9.751e+03 2.356e-10
 48.58112   -180.5 9.665e+03 2.134e-10
 48.59765   -179.7 9.642e+03 2.322e-10
 48.62191   -179.6 9.553e+03 2.091e-10
 48.63832   -178.5 9.560e+03 2.271e-10
 48.66257   -176.8 9.498e+03 2.107e-10
 48.69552   -175.7 9.523e+03 2.271e-10
 48.71977   -173.9 9.491e+03 2.215e-10
 48.75271   -172.8 9.539e+03 2.421e-10
 48.77697   -171.1 9.542e+03 2.442e-10
 48.80778   -170.1 9.632e+03 2.750e-10
 48.83417   -169.2 9.757e+03 3.110e-10
 48.85843   -167.7 9.853e+03 3.382e-10
 48.89137   -167.0 1.006e+04 4.086e-10
 48.91562   -165.7 1.022e+04 4.678e-10
 48.94856   -165.2 1.051e+04 5.908e-10
 48.97282   -164.2 1.074e+04 6.777e-10
 49.00184   -164.2 1.103e+04 8.336e-10
 49.03002   -164.3 1.120e+04 9.328e-10
 49.05428   -164.1 1.136e+04 1.021e-09
 49.08722   -164.3 1.142e+04 1.089e-09
 49.11148   -164.4 1.150e+04 1.123e-09
 49.14442   -164.5 1.156e+04 1.155e-09
 49.16867   -165.0 1.168e+04 1.139e-09
 49.19590   -165.4 1.194e+04 1.242e-09
 49.22587   -166.3 1.231e+04 1.384e-09
 49.23790   -169.4 1.269e+04 1.567e-09
 49.25427   -170.0 1.295e+04 1.797e-09
 49.26640   -172.0 1.349e+04 2.308e-09
 49.28060   -172.6 1.400e+04 2.983e-09
 49.29500   -173.1 1.451e+04 3.889e-09
 49.30713   -174.4 1.505e+04 4.992e-09
 49.32360   -174.6 1.520e+04 5.547e-09
 49.33573   -175.8 1.531e+04 5.602e-09
 49.35220   -175.6 1.514e+04 5.439e-09
 49.36433   -176.5 1.464e+04 3.984e-09
 49.37763   -176.2 1.415e+04 2.999e-09
 49.39293   -175.9 1.361e+04 2.157e-09
 49.40506   -177.6 1.286e+04 1.402e-09
 49.42153   -177.3 1.237e+04 1.025e-09
 49.43366   -178.5 1.178e+04 7.866e-10
 49.45013   -177.8 1.145e+04 6.222e-10
 49.46225   -178.2 1.118e+04 5.719e-10
 49.47466   -177.0 1.094e+04 4.670e-10
 49.49085   -176.0 1.093e+04 4.247e-10
 49.50308   -176.4 1.067e+04 4.174e-10
 49.53550   -174.1 1.060e+04 3.291e-10
 49.56038   -172.0 1.060e+04 2.871e-10
 49.58463   -171.0 1.046e+04 2.736e-10
 49.61757   -168.7 1.044e+04 2.427e-10
 49.64183   -167.4 1.045e+04 2.470e-10
 49.67477   -165.2 1.048e+04 2.239e-10
 49.69903   -163.9 1.053e+04 2.382e-10
 49.72956   -161.7 1.058e+04 2.216e-10
 49.75623   -159.7 1.066e+04 2.082e-10
 49.78048   -158.5 1.077e+04 2.461e-10
 49.81343   -156.6 1.087e+04 2.356e-10
 49.83768   -155.3 1.096e+04 3.020e-10
 49.87062   -153.5 1.104e+04 2.955e-10
 49.89488   -152.0 1.117e+04 3.780e-10
 49.92361   -150.1 1.116e+04 3.730e-10
 49.95208   -148.2 1.111e+04 3.162e-10
 49.97634   -146.6 1.127e+04 4.157e-10
 50.00928   -144.7 1.113e+04 3.235e-10
 50.03353   -143.1 1.126e+04 3.852e-10
 50.06647   -141.2 1.112e+04 2.951e-10
 50.09073   -139.7 1.118e+04 3.440e-10
 50.11767   -137.8 1.112e+04 2.763e-10
 50.14793   -136.0 1.113e+04 2.320e-10
 50.17219   -134.4 1.121e+04 2.865e-10
 50.20513   -132.7 1.126e+04 2.660e-10
 50.22938   -131.2 1.130e+04 3.225e-10
 50.26233   -129.7 1.136e+04 3.108e-10
 50.28658   -128.3 1.141e+04 3.693e-10
 50.31173   -127.0 1.145e+04 3.482e-10
 50.34378   -125.7 1.143e+04 3.241e-10
 50.36804   -124.6 1.156e+04 3.932e-10
 50.40098   -123.5 1.148e+04 3.552e-10
 50.42524   -122.6 1.154e+04 4.789e-10
 50.45727   -121.4 1.140e+04 4.310e-10
 50.48243   -120.2 1.124e+04 3.893e-10
 50.50669   -118.9 1.125e+04 5.521e-10
 50.53963   -117.6 1.110e+04 4.866e-10
 50.56389   -116.3 1.110e+04 5.645e-10
 50.59683   -115.0 1.092e+04 4.684e-10
 50.62109   -113.6 1.085e+04 4.363e-10
 50.65133   -112.3 1.069e+04 3.576e-10
 50.67829   -110.9 1.058e+04 2.884e-10
 50.70254   -109.6 1.062e+04 2.588e-10
 50.73548   -108.3 1.056e+04 2.224e-10
 50.75974   -107.3 1.069e+04 2.041e-10
 50.79268   -106.1 1.068e+04 1.831e-10
 50.81694   -105.4 1.072e+04 1.987e-10
 50.84539   -104.4 1.072e+04 1.890e-10
 50.87414   -103.2 1.070e+04 1.836e-10
 50.89839   -102.6 1.062e+04 2.264e-10
 50.93133   -101.3 1.056e+04 2.151e-10
 50.95559   -100.6 1.054e+04 2.130e-10
 50.98853    -99.3 1.050e+04 1.834e-10
 51.01279    -98.8 1.041e+04 1.525e-10
 51.03945    -97.7 1.033e+04 1.297e-10
 51.06999    -96.5 1.030e+04 1.136e-10
 51.09425    -96.2 1.019e+04 8.939e-11
 51.12719    -94.9 1.017e+04 8.428e-11
 51.15144    -94.5 1.009e+04 7.391e-11
 51.18438    -93.1 1.009e+04 7.370e-11
 51.20864    -92.5 1.003e+04 7.073e-11
 51.23350    -91.3 1.014e+04 7.470e-11
 51.26584    -90.1 1.021e+04 8.826e-11
 51.29010    -89.5 1.020e+04 9.298e-11
 51.32304    -88.2 1.025e+04 1.128e-10
 51.34729    -87.8 1.037e+04 1.221e-10
 51.37905    -86.5 1.040e+04 1.404e-10
 51.40449    -85.1 1.041e+04 1.539e-10
 51.42875    -84.6 1.042e+04 1.618e-10
 51.46169    -83.2 1.041e+04 1.629e-10
 51.48595    -82.9 1.044e+04 1.542e-10
 51.51889    -81.5 1.043e+04 1.473e-10
 51.54315    -81.4 1.048e+04 1.458e-10
 51.57311    -80.0 1.046e+04 1.403e-10
 51.60034    -78.5 1.044e+04 1.367e-10
 51.62460    -78.5 1.037e+04 1.551e-10
 51.65754    -76.8 1.033e+04 1.507e-10
 51.68180    -76.3 1.025e+04 1.642e-10
 51.71474    -74.5 1.025e+04 1.505e-10
 51.73900    -74.0 1.024e+04 1.482e-10
 51.76716    -72.3 1.023e+04 1.355e-10
 51.79620    -70.5 1.023e+04 1.265e-10
 51.82045    -70.1 1.020e+04 1.234e-10
 51.85339    -68.3 1.020e+04 1.177e-10
 51.87765    -67.7 1.028e+04 1.320e-10
 51.91059    -66.0 1.030e+04 1.315e-10
 51.93485    -66.0 1.036e+04 1.542e-10
 51.96122    -64.3 1.038e+04 1.589e-10
 51.99205    -62.6 1.039e+04 1.660e-10
 52.01630    -62.6 1.052e+04 2.116e-10
 52.04924    -60.8 1.054e+04 2.158e-10
 52.07350    -60.9 1.073e+04 2.806e-10
 52.10644    -59.2 1.071e+04 2.682e-10
 52.13070    -59.4 1.077e+04 3.460e-10
 52.15528    -57.8 1.076e+04 3.151e-10
 52.18790    -56.2 1.071e+04 2.884e-10
 52.21215    -56.7 1.068e+04 3.392e-10
 52.24510    -55.2 1.066e+04 3.154e-10
 52.26935    -55.5 1.054e+04 3.097e-10
 52.30082    -54.0 1.051e+04 2.899e-10
 52.32655    -52.5 1.048e+04 2.654e-10
 52.35081    -52.9 1.037e+04 2.240e-10
 52.38375    -51.8 1.043e+04 2.032e-10
 52.40801    -52.4 1.024e+04 1.976e-10
 52.44095    -51.3 1.022e+04 1.988e-10
 52.46520    -51.3 1.008e+04 2.093e-10
 52.49488    -50.1 1.005e+04 2.106e-10
 52.52240    -48.8 1.001e+04 1.977e-10
 52.54666    -48.4 1.005e+04 1.767e-10
 52.57960    -47.2 1.008e+04 1.568e-10
 52.60386    -47.4 1.011e+04 1.460e-10
 52.63680    -46.9 1.021e+04 1.472e-10
 52.66106    -47.5 1.029e+04 1.740e-10
 52.68894    -47.1 1.035e+04 2.693e-10
 52.71825    -46.3 1.054e+04 4.091e-10
 52.74251    -45.9 1.070e+04 4.021e-10
 52.77545    -45.2 1.089e+04 4.493e-10
 52.79971    -45.7 1.095e+04 3.805e-10
 52.83265    -45.7 1.099e+04 3.668e-10
 52.85691    -46.5 1.109e+04 3.585e-10
 52.88300    -46.8 1.101e+04 3.567e-10
 52.91410    -46.7 1.090e+04 3.745e-10
 52.93836    -47.2 1.093e+04 3.569e-10
 52.97130    -46.7 1.085e+04 3.474e-10
 52.99556    -47.5 1.113e+04 3.419e-10
 53.02850    -46.9 1.115e+04 3.383e-10
 53.07702    -47.3 1.135e+04 5.141e-10
 53.10996    -46.2 1.128e+04 5.581e-10
 53.13421    -46.1 1.137e+04 9.027e-10
 53.16715    -44.9 1.142e+04 8.876e-10
 53.19141    -45.1 1.144e+04 9.901e-10
 53.22260    -44.1 1.143e+04 9.359e-10
 53.24861    -43.2 1.146e+04 8.835e-10
 53.27287    -43.7 1.145e+04 7.782e-10
 53.30581    -42.9 1.144e+04 7.699e-10
 53.33006    -43.7 1.131e+04 6.559e-10
 53.36301    -42.7 1.120e+04 5.974e-10
 53.38726    -43.2 1.090e+04 5.057e-10
 53.41666    -41.9 1.075e+04 4.144e-10
 53.44446    -40.5 1.058e+04 3.268e-10
 53.46872    -40.0 1.023e+04 2.864e-10
 53.50166    -38.3 1.018e+04 2.209e-10
 53.52592    -37.8 1.012e+04 1.713e-10
 53.55886    -36.4 1.011e+04 1.414e-10
 53.58311    -35.9 1.002e+04 1.239e-10
 53.61071    -34.4 1.001e+04 1.233e-10
 53.64031    -33.0 1.006e+04 1.387e-10
 53.66457    -32.7 1.027e+04 1.369e-10
 53.69751    -31.1 1.026e+04 1.809e-10
 53.72177    -30.6 1.038e+04 1.863e-10
 53.75471    -28.6 1.040e+04 2.266e-10
 53.77897    -28.0 1.051e+04 2.046e-10
 53.80477    -26.2 1.058e+04 2.081e-10
 53.83616    -24.5 1.075e+04 2.012e-10
 53.86042    -24.7 1.072e+04 1.814e-10
 53.89336    -23.2 1.083e+04 1.826e-10
 53.91762    -23.3 1.064e+04 2.181e-10
 53.95031    -21.9 1.072e+04 2.505e-10
 53.97482    -20.8 1.097e+04 3.199e-10
 53.99907    -20.3 1.106e+04 3.569e-10
 54.03201    -19.5 1.139e+04 5.193e-10
 54.05627    -19.5 1.133e+04 5.409e-10
 54.08921    -18.5 1.176e+04 8.597e-10
 54.11347    -18.6 1.162e+04 8.022e-10
 54.14437    -17.4 1.208e+04 1.114e-09
 54.17067    -16.3 1.233e+04 1.244e-09
 54.19492    -16.3 1.191e+04 1.100e-09
 54.22787    -15.3 1.193e+04 8.984e-10
 54.25212    -15.3 1.171e+04 6.376e-10
 54.28506    -15.1 1.159e+04 4.320e-10
 54.30932    -15.4 1.144e+04 3.786e-10
 54.33843    -15.5 1.139e+04 3.658e-10
 54.36652    -15.4 1.153e+04 4.388e-10
 54.39078    -15.3 1.154e+04 4.870e-10
 54.42372    -15.5 1.166e+04 6.446e-10
 54.44797    -15.7 1.195e+04 7.881e-10
 54.48092    -15.5 1.218e+04 1.013e-09
 54.50517    -15.7 1.248e+04 1.274e-09
 54.53249    -15.5 1.246e+04 1.289e-09
 54.56237    -15.5 1.246e+04 1.285e-09
 54.58663    -15.9 1.279e+04 1.624e-09
 54.61957    -15.8 1.292e+04 1.852e-09
 54.64383    -16.5 1.319e+04 2.395e-09
 54.67677    -15.8 1.318e+04 2.507e-09
 54.70102    -16.1 1.318e+04 2.273e-09
 54.72655    -15.4 1.281e+04 1.838e-09
 54.75822    -14.7 1.247e+04 1.644e-09
 54.78248    -15.2 1.248e+04 1.175e-09
 54.81542    -13.8 1.222e+04 1.129e-09
 54.83968    -14.7 1.239e+04 9.664e-10
 54.87209    -13.4 1.256e+04 9.836e-10
 54.89687    -12.6 1.243e+04 1.192e-09
 54.92113    -12.9 1.219e+04 1.310e-09
 54.95407    -11.2 1.221e+04 1.573e-09
 54.97833    -10.9 1.197e+04 1.361e-09
 55.01127     -9.7 1.160e+04 1.219e-09
 55.03553     -8.5 1.146e+04 7.484e-10
 55.06615     -7.1 1.146e+04 5.874e-10
 55.09273     -5.8 1.152e+04 4.756e-10
 55.11168     -5.5 1.089e+04 2.134e-10
 55.13361     -5.5 1.108e+04 2.369e-10
 55.14992     -4.3 1.104e+04 1.731e-10
 55.17418     -4.1 1.049e+04 1.064e-10
 55.20712     -3.1 1.056e+04 8.836e-11
 55.23138     -2.3 1.038e+04 7.270e-11
 55.26020     -1.0 1.046e+04 7.320e-11
 55.28858      0.5 1.037e+04 8.714e-11
 55.31283      2.0 1.021e+04 9.013e-11
 55.34578      3.9 1.022e+04 1.027e-10
 55.37003      5.8 1.025e+04 9.633e-11
 55.40297      7.2 1.029e+04 1.127e-10
 55.42723      8.8 1.040e+04 9.191e-11
 55.45426     10.2 1.027e+04 1.221e-10
 55.48443     11.8 1.013e+04 1.672e-10
 55.50869     12.9 1.036e+04 1.352e-10
 55.54163     14.3 1.032e+04 1.754e-10
 55.56588     15.0 1.040e+04 1.730e-10
 55.59882     16.0 1.049e+04 2.132e-10
 55.62308     16.3 1.056e+04 2.559e-10
 55.64832     17.5 1.055e+04 3.164e-10
 55.68028     18.6 1.058e+04 3.371e-10
 55.70454     19.3 1.066e+04 3.566e-10
 55.73748     20.5 1.055e+04 3.067e-10
 55.76174     21.4 1.048e+04 2.606e-10
 55.79386     22.5 1.040e+04 1.855e-10
 55.81893     23.3 1.046e+04 1.293e-10
 55.84319     23.8 1.042e+04 1.035e-10
 55.87613     24.5 1.036e+04 9.160e-11
 55.90039     25.1 1.031e+04 8.407e-11
 55.93333     26.1 1.029e+04 9.167e-11
 55.95759     26.7 1.024e+04 9.292e-11
 55.98792     27.9 1.018e+04 1.167e-10
 56.01478     29.5 1.019e+04 1.421e-10
 56.03904     30.4 1.019e+04 1.332e-10
 56.07198     31.8 1.025e+04 1.322e-10
 56.09624     32.4 1.023e+04 1.194e-10
 56.12918     33.7 1.023e+04 1.045e-10
 56.15344     34.5 1.020e+04 1.018e-10
 56.18198     35.7 1.027e+04 8.087e-11
 56.21064     36.6 1.034e+04 6.693e-11
 56.23489     37.4 1.037e+04 6.742e-11
 56.26783     38.4 1.034e+04 6.563e-11
 56.29209     39.0 1.039e+04 7.047e-11
 56.32503     40.2 1.038e+04 7.188e-11
 56.34929     40.8 1.038e+04 8.835e-11
 56.37604     42.3 1.037e+04 8.970e-11
 56.40649     43.7 1.039e+04 9.399e-11
 56.43074     44.5 1.042e+04 1.127e-10
 56.46369     45.8 1.049e+04 1.168e-10
 56.48794     46.4 1.058e+04 1.437e-10
 56.52088     47.5 1.072e+04 1.648e-10
 56.54514     48.0 1.086e+04 2.118e-10
 56.57009     49.2 1.100e+04 2.668e-10
 56.60234     50.3 1.116e+04 3.441e-10
 56.62660     50.9 1.130e+04 3.787e-10
 56.65954     51.8 1.143e+04 4.473e-10
 56.68379     52.2 1.141e+04 4.266e-10
 56.71564     53.1 1.149e+04 4.768e-10
 56.74099     54.1 1.152e+04 5.153e-10
 56.76525     54.6 1.132e+04 3.706e-10
 56.79819     55.9 1.133e+04 3.773e-10
 56.82245     56.4 1.116e+04 2.378e-10
 56.85539     57.7 1.120e+04 2.518e-10
 56.87964     58.1 1.108e+04 1.581e-10
 56.90970     59.4 1.117e+04 1.902e-10
 56.93684     60.6 1.138e+04 3.131e-10
 56.96110     61.4 1.115e+04 1.647e-10
 56.99404     62.6 1.140e+04 3.178e-10
 57.01830     63.6 1.115e+04 1.471e-10
 57.05124     64.7 1.138e+04 2.929e-10
 57.07550     65.6 1.111e+04 1.398e-10
 57.10375     66.8 1.126e+04 2.642e-10
 57.13269     68.0 1.147e+04 3.970e-10
 57.15695     69.1 1.111e+04 2.548e-10
 57.18989     70.4 1.129e+04 3.306e-10
 57.21415     71.7 1.104e+04 2.483e-10
 57.24709     73.0 1.114e+04 2.909e-10
 57.27135     74.3 1.098e+04 2.431e-10
 57.29781     75.5 1.100e+04 2.787e-10
 57.32855     76.6 1.095e+04 2.973e-10
 57.35280     77.8 1.091e+04 3.028e-10
 57.38574     78.8 1.085e+04 3.230e-10
 57.41000     79.9 1.085e+04 3.410e-10
 57.44294     80.8 1.077e+04 3.425e-10
 57.46720     81.2 1.086e+04 3.675e-10
 57.49187     82.1 1.067e+04 3.360e-10
 57.52440     83.2 1.048e+04 2.950e-10
 57.54865     83.2 1.051e+04 3.024e-10
 57.58159     84.4 1.027e+04 2.526e-10
 57.60585     84.2 1.028e+04 2.614e-10
 57.63741     85.4 1.005e+04 2.227e-10
 57.66305     86.8 1.003e+04 2.199e-10
 57.68731     86.4 9.913e+03 2.171e-10
 57.72025     87.8 9.931e+03 2.186e-10
 57.74451     87.4 9.867e+03 2.167e-10
 57.77745     88.9 9.855e+03 2.224e-10
 57.80170     88.5 9.841e+03 2.227e-10
 57.83147     89.8 9.862e+03 2.360e-10
 57.85890     91.0 9.933e+03 2.593e-10
 57.88316     90.3 9.949e+03 2.792e-10
 57.91610     91.5 1.002e+04 3.180e-10
 57.94036     90.9 1.001e+04 3.614e-10
 57.97330     92.2 1.005e+04 3.887e-10
 57.99755     91.9 9.952e+03 3.780e-10
 58.02553     93.3 9.927e+03 3.798e-10
 58.05475     94.6 9.912e+03 3.792e-10
 58.07901     94.4 9.666e+03 3.119e-10
 58.11195     95.8 9.680e+03 3.127e-10
 58.13621     95.5 9.448e+03 2.635e-10
 58.16915     96.8 9.528e+03 2.952e-10
 58.19341     96.8 9.435e+03 2.966e-10
 58.21959     98.3 9.621e+03 3.605e-10
 58.25060     99.2 9.677e+03 4.106e-10
 58.27486     99.6 9.775e+03 4.809e-10
 58.30780    100.8 1.009e+04 6.438e-10
 58.33206    100.9 1.040e+04 7.869e-10
 58.36500    101.8 1.089e+04 1.093e-09
 58.38934    102.4 1.121e+04 1.316e-09
 58.41372    101.3 1.139e+04 1.406e-09
 58.44646    101.5 1.137e+04 1.385e-09
 58.47071    101.5 1.102e+04 1.153e-09
 58.50365    101.8 1.092e+04 1.097e-09
 58.52791    101.9 1.050e+04 8.578e-10
 58.55919    102.4 1.031e+04 7.794e-10
 58.58511    103.2 9.928e+03 6.126e-10
 58.60937    103.3 9.750e+03 5.480e-10
 58.64231    104.4 9.437e+03 4.375e-10
 58.66656    104.6 9.317e+03 4.088e-10
 58.69950    105.7 9.162e+03 3.626e-10
 58.72376    105.9 9.219e+03 3.897e-10
 58.75325    107.0 9.220e+03 3.905e-10
 58.78096    108.0 9.230e+03 4.005e-10
 58.79299    108.4 9.253e+03 4.270e-10
 58.80936    108.7 9.280e+03 4.368e-10
 58.82149    109.0 9.353e+03 4.639e-10
 58.83795    109.5 9.436e+03 4.967e-10
 58.86231    109.7 9.832e+03 6.324e-10
 58.89536    110.1 9.963e+03 6.836e-10
 58.91961    109.7 1.035e+04 8.316e-10
 58.94730    109.6 1.041e+04 8.519e-10
 58.97681    109.4 1.037e+04 8.300e-10
 59.00107    108.6 1.047e+04 8.663e-10
 59.03401    108.5 1.011e+04 7.006e-10
 59.05827    108.0 9.869e+03 6.079e-10
 59.09121    107.9 9.357e+03 4.224e-10
 59.11546    107.6 9.104e+03 3.530e-10
 59.14136    107.4 8.732e+03 2.549e-10
 59.17266    107.2 8.425e+03 1.991e-10
 59.19692    107.5 8.413e+03 1.999e-10
 59.22986    107.8 8.320e+03 1.923e-10
 59.25412    108.4 8.365e+03 1.997e-10
 59.28690    108.8 8.380e+03 2.044e-10
 59.33542    109.5 8.591e+03 2.508e-10
 59.36851    109.5 8.958e+03 3.369e-10
 59.39277    109.8 8.955e+03 3.236e-10
 59.42571    109.2 9.314e+03 4.147e-10
 59.44997    109.4 9.260e+03 3.798e-10
 59.48096    108.5 9.572e+03 4.698e-10
 59.50717    107.5 9.904e+03 5.568e-10
 59.53142    107.9 9.858e+03 5.421e-10
 59.56436    106.9 9.914e+03 5.392e-10
 59.58862    107.5 9.895e+03 5.347e-10
 59.62156    106.7 9.778e+03 4.717e-10
 59.64582    107.3 9.716e+03 4.542e-10
 59.67502    106.7 9.522e+03 3.901e-10
 59.70302    106.0 9.546e+03 3.938e-10
 59.72728    106.5 9.571e+03 3.869e-10
 59.76022    105.6 9.693e+03 4.326e-10
 59.78447    106.1 9.732e+03 4.329e-10
 59.81741    105.4 9.946e+03 4.911e-10
 59.84167    105.8 9.895e+03 4.373e-10
 59.86908    105.2 9.936e+03 4.065e-10
 59.89887    104.5 9.945e+03 3.563e-10
 59.92313    104.7 9.769e+03 2.755e-10
 59.95607    104.2 9.738e+03 2.678e-10
 59.98032    104.6 9.602e+03 2.244e-10
 60.01327    104.5 9.599e+03 2.261e-10
 60.03752    105.1 9.521e+03 1.967e-10
 60.06314    105.5 9.555e+03 1.881e-10
 60.09472    106.1 9.586e+03 1.716e-10
 60.11898    106.9 9.533e+03 1.373e-10
 60.15192    107.3 9.524e+03 1.093e-10
 60.17618    108.0 9.503e+03 9.009e-11
 60.20868    108.2 9.322e+03 7.630e-11
 60.23337    108.8 9.238e+03 7.619e-11
 60.25763    109.5 9.237e+03 7.406e-11
 60.29057    110.3 9.225e+03 7.668e-11
 60.31483    111.0 9.242e+03 7.769e-11
 60.34777    111.5 9.316e+03 9.628e-11
 60.37203    111.9 9.496e+03 1.163e-10
 60.40274    112.1 9.996e+03 2.054e-10
 60.42923    111.5 1.043e+04 3.266e-10
 60.44126    111.3 1.046e+04 3.626e-10
 60.45763    111.0 1.060e+04 4.155e-10
 60.46976    111.0 1.078e+04 4.979e-10
 60.48623    110.7 1.112e+04 6.618e-10
 60.49836    110.8 1.130e+04 7.666e-10
 60.51170    110.4 1.167e+04 9.104e-10
 60.52696    109.8 1.200e+04 9.347e-10
 60.53908    109.6 1.207e+04 9.341e-10
 60.55555    108.6 1.208e+04 9.244e-10
 60.56768    108.2 1.209e+04 9.057e-10
 60.58415    107.2 1.209e+04 8.452e-10
 60.59628    106.8 1.206e+04 7.997e-10
 60.60873    105.7 1.196e+04 7.083e-10
 60.62488    104.7 1.184e+04 6.179e-10
 60.63701    104.2 1.183e+04 6.124e-10
 60.65348    103.1 1.178e+04 5.578e-10
 60.66561    102.7 1.191e+04 6.119e-10
 60.68150    101.6 1.193e+04 6.159e-10
 60.69421    100.6 1.195e+04 6.287e-10
 60.70634    100.4 1.211e+04 7.449e-10
 60.72281     99.6 1.209e+04 7.453e-10
 60.73494     99.7 1.220e+04 8.463e-10
 60.75141     99.0 1.218e+04 7.840e-10
 60.76353     99.0 1.227e+04 8.102e-10
 60.77853     97.9 1.227e+04 6.955e-10
 60.79213     96.4 1.240e+04 6.443e-10
 60.80426     95.7 1.249e+04 6.521e-10
 60.82073     93.1 1.282e+04 7.125e-10
 60.83286     91.7 1.314e+04 8.227e-10
 60.84933     88.3 1.392e+04 1.310e-09
 60.86146     87.3 1.414e+04 1.694e-09
 60.87556     85.3 1.451e+04 2.628e-09
 60.89006     83.8 1.474e+04 3.327e-09
 60.90219     83.0 1.495e+04 3.479e-09
 60.91866     81.2 1.500e+04 3.330e-09
 60.93079     80.2 1.501e+04 3.233e-09
 60.94726     78.0 1.453e+04 2.534e-09
 60.95939     77.1 1.420e+04 2.344e-09
 60.97259     75.2 1.331e+04 1.812e-09
 60.98798     73.7 1.253e+04 1.418e-09
 61.00011     73.5 1.219e+04 1.294e-09
 61.01668     73.5 1.192e+04 1.031e-09
 61.04104     73.3 1.134e+04 8.320e-10
 61.07398     73.2 1.047e+04 5.034e-10
 61.09823     73.9 1.014e+04 4.041e-10
 61.13045     74.6 9.743e+03 2.704e-10
 61.15543     75.6 9.531e+03 2.058e-10
 61.17969     76.4 9.415e+03 1.932e-10
 61.21263     77.8 9.379e+03 1.783e-10
 61.23689     78.9 9.374e+03 1.904e-10
 61.26983     80.4 9.359e+03 1.842e-10
 61.29409     81.5 9.437e+03 2.164e-10
 61.32451     83.2 9.438e+03 2.060e-10
 61.35128     84.9 9.410e+03 1.816e-10
 61.37554     86.0 9.540e+03 2.276e-10
 61.40848     87.7 9.479e+03 1.904e-10
 61.43274     88.9 9.620e+03 2.361e-10
 61.46568     90.6 9.554e+03 1.967e-10
 61.48994     91.6 9.708e+03 2.441e-10
 61.51857     93.3 9.674e+03 2.165e-10
 61.54713     94.9 9.649e+03 1.986e-10
 61.57139     96.0 9.878e+03 2.781e-10
 61.60433     97.7 9.897e+03 2.817e-10
 61.62859     98.8 1.018e+04 3.861e-10
 61.64532    100.6 1.024e+04 4.108e-10
 61.66699    100.6 1.029e+04 4.143e-10
 61.68579    101.5 1.053e+04 5.013e-10
 61.71263    103.4 1.065e+04 5.363e-10
 61.74299    105.3 1.075e+04 5.510e-10
 61.76724    105.8 1.070e+04 5.425e-10
 61.80018    107.5 1.067e+04 5.197e-10
 61.82444    108.3 1.035e+04 4.098e-10
 61.85738    110.1 1.018e+04 3.368e-10
 61.88164    110.8 9.830e+03 2.301e-10
 61.90669    112.5 9.665e+03 1.813e-10
 61.93884    114.3 9.535e+03 1.511e-10
 61.96309    115.0 9.406e+03 1.439e-10
 61.99604    117.0 9.431e+03 1.304e-10
 62.02029    117.9 9.420e+03 1.351e-10
 62.05223    120.0 9.462e+03 1.308e-10
 62.07749    122.1 9.474e+03 1.314e-10
 62.10175    123.1 9.514e+03 1.417e-10
 62.13469    125.2 9.540e+03 1.437e-10
 62.15895    126.2 9.560e+03 1.507e-10
 62.19189    128.2 9.589e+03 1.538e-10
 62.21614    129.1 9.563e+03 1.510e-10
 62.24629    131.0 9.583e+03 1.553e-10
 62.27334    132.9 9.612e+03 1.636e-10
 62.29760    133.7 9.508e+03 1.368e-10
 62.33054    135.5 9.514e+03 1.354e-10
 62.35480    136.2 9.379e+03 1.018e-10
 62.38774    137.9 9.362e+03 9.572e-11
 62.41200    138.6 9.207e+03 7.466e-11
 62.44034    140.3 9.201e+03 7.506e-11
 62.46919    141.9 9.152e+03 7.932e-11
 62.49345    142.8 9.030e+03 7.960e-11
 62.52639    144.5 9.100e+03 9.349e-11
 62.55065    145.7 9.062e+03 9.701e-11
 62.58359    147.5 9.151e+03 1.167e-10
 62.60785    148.7 9.139e+03 1.224e-10
 62.63440    150.4 9.259e+03 1.459e-10
 62.66504    151.9 9.405e+03 1.747e-10
 62.68930    153.0 9.386e+03 1.732e-10
 62.72224    154.4 9.540e+03 1.991e-10
 62.74650    155.4 9.487e+03 1.928e-10
 62.77944    156.7 9.603e+03 2.191e-10
 62.80370    157.6 9.531e+03 2.129e-10
 62.82846    158.8 9.655e+03 2.503e-10
 62.86090    160.0 9.816e+03 3.122e-10
 62.88515    160.8 9.800e+03 3.113e-10
 62.91809    161.9 1.007e+04 4.209e-10
 62.94235    162.7 1.006e+04 4.140e-10
 62.97400    163.6 1.043e+04 5.770e-10
 62.99955    164.5 1.083e+04 7.646e-10
 63.02381    165.0 1.062e+04 5.989e-10
 63.05675    165.5 1.077e+04 6.208e-10
 63.08100    166.1 1.030e+04 3.522e-10
 63.11395    166.5 1.031e+04 3.304e-10
 63.13820    167.1 9.933e+03 1.368e-10
 63.16806    167.5 9.878e+03 1.240e-10
 63.19540    168.0 9.808e+03 1.189e-10
 63.21966    168.3 9.445e+03 5.532e-11
 63.25260    169.3 9.466e+03 5.819e-11
 63.27686    169.9 9.118e+03 4.728e-11
 63.30980    171.0 9.159e+03 4.924e-11
 63.33405    172.0 9.107e+03 4.897e-11
 63.36212    173.1 9.157e+03 5.227e-11
 63.39125    174.1 9.235e+03 5.708e-11
 63.41551    175.1 9.227e+03 5.725e-11
 63.44845    175.9 9.333e+03 6.280e-11
 63.47271    176.8 9.323e+03 6.432e-11
 63.50565    177.4 9.445e+03 7.170e-11
 63.52990    178.2 9.445e+03 7.492e-11
 63.55618    178.5 9.545e+03 8.331e-11
 63.58710    178.7 9.611e+03 9.310e-11
 63.61136    179.6 9.614e+03 9.419e-11
 63.64430    179.7 9.672e+03 1.000e-10
 63.66856    180.6 9.669e+03 9.967e-11
 63.70150    180.8 9.709e+03 1.016e-10
 63.72576    181.8 9.716e+03 9.811e-11
 63.75023    181.9 9.744e+03 9.785e-11
 63.78295    182.2 9.761e+03 9.855e-11
 63.80721    183.2 9.758e+03 9.181e-11
 63.84015    183.6 9.788e+03 9.378e-11
 63.86441    184.6 9.777e+03 8.662e-11
 63.89578    185.1 9.831e+03 9.242e-11
 63.92161    185.6 9.902e+03 1.026e-10
 63.94586    186.7 9.877e+03 9.542e-11
 63.97881    187.3 9.958e+03 1.086e-10
 64.00306    188.3 9.929e+03 1.050e-10
 64.03600    188.8 1.004e+04 1.211e-10
 64.06026    189.9 1.004e+04 1.216e-10
 64.08984    190.3 1.018e+04 1.357e-10
 64.11746    190.6 1.031e+04 1.459e-10
 64.14172    191.5 1.031e+04 1.387e-10
 64.17466    191.6 1.034e+04 1.376e-10
 64.19891    192.4 1.035e+04 1.317e-10
 64.23185    192.4 1.043e+04 1.212e-10
 64.25611    193.3 1.043e+04 1.205e-10
 64.28389    193.1 1.057e+04 1.122e-10
 64.31331    192.7 1.061e+04 1.125e-10
 64.33757    193.6 1.067e+04 1.085e-10
 64.37051    193.1 1.069e+04 1.097e-10
 64.39477    194.0 1.071e+04 1.052e-10
 64.42771    193.5 1.075e+04 1.063e-10
 64.45196    194.6 1.074e+04 1.021e-10
 64.47795    194.1 1.081e+04 1.041e-10
 64.50916    193.7 1.093e+04 1.130e-10
 64.53342    194.8 1.091e+04 1.096e-10
 64.56636    194.6 1.101e+04 1.240e-10
 64.59062    195.9 1.101e+04 1.240e-10
 64.62350    195.8 1.104e+04 1.332e-10
 64.67201    197.2 1.105e+04 1.392e-10
 64.70501    197.5 1.101e+04 1.340e-10
 64.72927    198.8 1.104e+04 1.432e-10
 64.76221    199.2 1.096e+04 1.280e-10
 64.78647    200.5 1.102e+04 1.407e-10
 64.81755    200.9 1.094e+04 1.171e-10
 64.84367    201.3 1.088e+04 8.980e-11
 64.86792    202.5 1.095e+04 1.043e-10
 64.90086    202.9 1.090e+04 7.754e-11
 64.91171    204.1 1.092e+04 8.872e-11
 64.92543    203.9 1.087e+04 9.232e-11
 64.95806    204.3 1.084e+04 7.067e-11
 64.98232    205.5 1.086e+04 7.723e-11
 65.01161    205.9 1.081e+04 5.860e-11
 65.03952    206.3 1.070e+04 5.338e-11
 65.06377    207.3 1.068e+04 5.504e-11
 65.09672    207.9 1.066e+04 5.503e-11
 65.12097    208.9 1.062e+04 5.826e-11
 65.15391    209.6 1.061e+04 5.897e-11
 65.17817    210.6 1.058e+04 6.377e-11
 65.20567    211.5 1.058e+04 6.668e-11
 65.23537    212.4 1.062e+04 7.403e-11
 65.25963    213.4 1.060e+04 7.954e-11
 65.29257    214.3 1.067e+04 9.089e-11
 65.31682    215.3 1.068e+04 9.980e-11
 65.34976    216.2 1.075e+04 1.170e-10
 65.37402    217.2 1.079e+04 1.331e-10
 65.39973    218.0 1.088e+04 1.548e-10
 65.43122    218.8 1.097e+04 1.699e-10
 65.45548    219.7 1.108e+04 2.042e-10
 65.48842    220.4 1.116e+04 2.057e-10
 65.51267    221.2 1.129e+04 2.483e-10
 65.54527    221.7 1.131e+04 2.439e-10
 65.56987    222.3 1.133e+04 2.319e-10
 65.59413    222.9 1.148e+04 2.754e-10
 65.62707    223.4 1.146e+04 2.516e-10
 65.65133    223.9 1.159e+04 2.791e-10
 65.68427    224.5 1.151e+04 2.509e-10
 65.70853    224.9 1.154e+04 2.539e-10
 65.73933    225.8 1.151e+04 2.524e-10
 65.76572    226.8 1.153e+04 2.615e-10
 65.78998    227.4 1.153e+04 2.614e-10
 65.82292    228.5 1.167e+04 3.014e-10
 65.84718    229.2 1.166e+04 2.990e-10
 65.88012    230.2 1.183e+04 3.605e-10
 65.90438    230.8 1.182e+04 3.549e-10
 65.92075    231.3 1.184e+04 3.859e-10
 65.93278    231.5 1.184e+04 3.851e-10
 65.94532    232.4 1.186e+04 4.188e-10
 65.96138    233.4 1.194e+04 4.849e-10
 65.97351    233.8 1.195e+04 4.911e-10
 65.98998    234.7 1.208e+04 5.975e-10
 66.00211    235.0 1.213e+04 6.159e-10
 66.01809    235.8 1.227e+04 7.399e-10
 66.03071    236.5 1.242e+04 8.655e-10
 66.04284    236.8 1.246e+04 8.708e-10
 66.05931    237.4 1.260e+04 9.767e-10
 66.07143    237.6 1.265e+04 9.736e-10
 66.08790    238.1 1.281e+04 1.073e-09
 66.10003    238.0 1.287e+04 1.058e-09
 66.11512    238.5 1.307e+04 1.180e-09
 66.12863    238.7 1.334e+04 1.378e-09
 66.14076    238.4 1.337e+04 1.332e-09
 66.15723    238.5 1.369e+04 1.644e-09
 66.16936    237.9 1.364e+04 1.527e-09
 66.18583    238.0 1.397e+04 1.957e-09
 66.19796    237.3 1.376e+04 1.671e-09
 66.21215    237.4 1.403e+04 2.112e-09
 66.22656    237.7 1.439e+04 2.748e-09
 66.23869    236.9 1.381e+04 1.902e-09
 66.25516    237.2 1.404e+04 2.247e-09
 66.26729    236.1 1.334e+04 1.376e-09
 66.28376    236.3 1.348e+04 1.451e-09
 66.29588    234.5 1.263e+04 9.147e-10
 66.30918    233.8 1.254e+04 1.059e-09
 66.32448    233.0 1.295e+04 1.370e-09
 66.33661    230.8 1.287e+04 1.360e-09
 66.35308    229.8 1.349e+04 1.865e-09
 66.36521    228.3 1.341e+04 1.915e-09
 66.38168    227.4 1.396e+04 2.701e-09
 66.39381    226.6 1.383e+04 2.900e-09
 66.40621    226.1 1.419e+04 3.739e-09
 66.42241    225.6 1.425e+04 4.212e-09
 66.43454    225.3 1.391e+04 3.723e-09
 66.45101    224.8 1.383e+04 3.621e-09
 66.46314    224.5 1.363e+04 3.209e-09
 66.47898    223.8 1.365e+04 3.145e-09
 66.49174    222.9 1.372e+04 3.180e-09
 66.50386    222.5 1.381e+04 3.188e-09
 66.52034    221.7 1.407e+04 3.546e-09
 66.53246    221.4 1.429e+04 3.755e-09
 66.54103    220.8 1.473e+04 4.607e-09
 66.55034    219.7 1.415e+04 3.666e-09
 66.56106    219.4 1.415e+04 3.634e-09
 66.57601    219.2 1.454e+04 4.451e-09
 66.58966    219.1 1.501e+04 5.383e-09
 66.60179    218.7 1.463e+04 4.485e-09
 66.61826    218.5 1.495e+04 4.899e-09
 66.63039    218.5 1.412e+04 3.334e-09
 66.64686    218.3 1.429e+04 3.330e-09
 66.65899    218.3 1.317e+04 1.943e-09
 66.67304    218.2 1.330e+04 1.860e-09
 66.68759    217.9 1.340e+04 1.756e-09
 66.71194    217.7 1.194e+04 7.720e-10
 66.74498    217.6 1.235e+04 8.598e-10
 66.76924    217.6 1.038e+04 3.505e-10
 66.80218    218.9 1.098e+04 4.319e-10
 66.82644    219.5 1.008e+04 2.878e-10
 66.85516    221.1 1.033e+04 3.067e-10
 66.88363    222.9 1.094e+04 3.946e-10
 66.90789    223.9 1.020e+04 2.650e-10
 66.94083    225.8 1.084e+04 3.160e-10
 66.96509    226.5 1.026e+04 2.596e-10
 66.99803    228.1 1.085e+04 2.977e-10
 67.02229    229.0 1.046e+04 2.705e-10
 67.04922    230.1 1.087e+04 3.114e-10
 67.07939    230.6 1.101e+04 3.373e-10
 67.10364    231.6 1.091e+04 3.296e-10
 67.13402    232.2 1.097e+04 3.619e-10
 67.14862    233.1 1.105e+04 4.243e-10
 67.16084    233.0 1.107e+04 3.455e-10
 67.17731    233.8 1.122e+04 4.341e-10
 67.18934    233.7 1.126e+04 3.855e-10
 67.20581    234.5 1.146e+04 4.530e-10
 67.21804    233.7 1.141e+04 3.454e-10
 67.23105    234.3 1.164e+04 4.248e-10
 67.24654    234.6 1.181e+04 5.070e-10
 67.25867    234.2 1.173e+04 4.128e-10
 67.27514    234.2 1.185e+04 4.716e-10
 67.28727    233.2 1.164e+04 3.770e-10
 67.30372    233.4 1.176e+04 4.339e-10
 67.32798    232.6 1.169e+04 4.302e-10
 67.34447    232.3 1.192e+04 5.267e-10
 67.35660    231.8 1.173e+04 4.556e-10
 67.37307    231.5 1.207e+04 5.931e-10
 67.38520    231.1 1.196e+04 5.347e-10
 67.40075    230.6 1.242e+04 7.647e-10
 67.41379    230.2 1.304e+04 1.190e-09
 67.42592    229.9 1.310e+04 1.204e-09
 67.44239    229.6 1.407e+04 2.094e-09
 67.45452    229.5 1.422e+04 2.137e-09
 67.47099    229.3 1.527e+04 3.700e-09
 67.48312    229.4 1.516e+04 3.468e-09
 67.49778    229.3 1.621e+04 5.390e-09
 67.51172    229.1 1.763e+04 9.014e-09
 67.52385    229.1 1.771e+04 8.694e-09
 67.54032    228.8 1.881e+04 1.274e-08
 67.55245    228.5 1.887e+04 1.190e-08
 67.56892    227.8 1.921e+04 1.269e-08
 67.58105    227.3 1.903e+04 1.058e-08
 67.59481    226.6 1.897e+04 1.009e-08
 67.60965    226.0 1.866e+04 8.414e-09
 67.62177    226.0 1.850e+04 7.250e-09
 67.63824    225.7 1.797e+04 5.637e-09
 67.65037    225.9 1.786e+04 4.925e-09
 67.66684    225.6 1.715e+04 3.683e-09
 67.67897    226.0 1.698e+04 3.199e-09
 67.69184    225.6 1.617e+04 2.382e-09
 67.70757    225.2 1.539e+04 1.796e-09
 67.71970    225.8 1.514e+04 1.598e-09
 67.73617    225.6 1.449e+04 1.280e-09
 67.74830    226.2 1.415e+04 1.173e-09
 67.76461    226.1 1.370e+04 1.012e-09
 67.77690    226.2 1.348e+04 8.847e-10
 67.78903    226.7 1.334e+04 8.748e-10
 67.80550    226.9 1.331e+04 7.650e-10
 67.81763    227.4 1.323e+04 7.817e-10
 67.83410    227.7 1.313e+04 7.245e-10
 67.84622    228.2 1.305e+04 7.980e-10
 67.86164    228.4 1.303e+04 7.735e-10
 67.87482    228.7 1.303e+04 7.573e-10
 67.88695    229.0 1.304e+04 8.826e-10
 67.90342    229.3 1.301e+04 8.593e-10
 67.91555    229.4 1.306e+04 1.020e-09
 67.93202    229.6 1.297e+04 9.653e-10
 67.94415    229.6 1.304e+04 1.141e-09
 67.95867    229.7 1.289e+04 1.036e-09
 67.97275    229.7 1.271e+04 9.144e-10
 67.98488    229.6 1.277e+04 1.065e-09
 68.00135    229.6 1.256e+04 9.073e-10
 68.01348    229.3 1.265e+04 1.080e-09
 68.02995    229.2 1.242e+04 9.105e-10
 68.04208    228.9 1.257e+04 1.118e-09
 68.05570    228.8 1.237e+04 9.560e-10
 68.07067    228.8 1.222e+04 8.281e-10
 68.08280    228.5 1.243e+04 1.056e-09
 68.09927    228.5 1.232e+04 9.537e-10
 68.11140    228.3 1.255e+04 1.221e-09
 68.12787    228.4 1.249e+04 1.165e-09
 68.14000    228.0 1.275e+04 1.480e-09
 68.15273    228.3 1.274e+04 1.481e-09
 68.16860    228.6 1.276e+04 1.503e-09
 68.17270    228.3 1.303e+04 1.885e-09
 68.18109    228.2 1.255e+04 1.474e-09
 68.19720    228.5 1.266e+04 1.515e-09
 68.20933    228.1 1.306e+04 2.045e-09
 68.22550    228.4 1.321e+04 2.076e-09
 68.23793    228.7 1.323e+04 2.038e-09
 68.25006    228.0 1.379e+04 2.677e-09
 68.26653    228.1 1.380e+04 2.594e-09
 68.27865    227.1 1.428e+04 3.206e-09
 68.29513    227.0 1.423e+04 3.046e-09
 68.30725    225.7 1.445e+04 3.325e-09
 68.32253    225.4 1.425e+04 3.093e-09
 68.33585    225.1 1.389e+04 2.665e-09
 68.34798    223.7 1.388e+04 2.726e-09
 68.36445    223.3 1.348e+04 2.349e-09
 68.37658    222.0 1.341e+04 2.314e-09
 68.39305    221.2 1.320e+04 2.088e-09
 68.40518    219.7 1.344e+04 2.201e-09
 68.41956    218.4 1.350e+04 2.185e-09
 68.43378    216.9 1.356e+04 2.190e-09
 68.44591    213.2 1.493e+04 3.152e-09
 68.46238    211.5 1.512e+04 3.361e-09
 68.47451    206.7 1.727e+04 6.874e-09
 68.49098    205.2 1.719e+04 7.001e-09
 68.50311    201.9 1.857e+04 1.248e-08
 68.51659    200.9 1.807e+04 1.040e-08
 68.53170    199.9 1.740e+04 8.526e-09
 68.54383    196.9 1.726e+04 8.033e-09
 68.56030    196.3 1.657e+04 6.699e-09
 68.57243    194.0 1.555e+04 4.234e-09
 68.58890    194.5 1.486e+04 3.143e-09
 68.60103    191.9 1.292e+04 1.306e-09
 68.61361    192.1 1.203e+04 8.343e-10
 68.62963    191.9 1.113e+04 5.485e-10
 68.64176    188.5 1.016e+04 4.243e-10
 68.65823    188.5 9.803e+03 3.490e-10
 68.67036    187.9 9.823e+03 3.534e-10
 68.68639    188.8 9.591e+03 3.117e-10
 68.69896    189.8 9.434e+03 2.927e-10
 68.71109    189.8 9.842e+03 3.292e-10
 68.72756    191.0 9.731e+03 3.207e-10
 68.73968    190.3 1.104e+04 5.006e-10
 68.75615    191.3 1.102e+04 4.959e-10
 68.76828    189.3 1.330e+04 1.281e-09
 68.78341    190.0 1.343e+04 1.322e-09
 68.79688    190.8 1.361e+04 1.415e-09
 68.80901    189.5 1.554e+04 4.010e-09
 68.82548    190.1 1.557e+04 4.160e-09
 68.83761    189.6 1.654e+04 7.938e-09
 68.85408    190.2 1.625e+04 7.196e-09
 68.86621    189.5 1.624e+04 7.461e-09
 68.88044    190.1 1.587e+04 6.325e-09
 68.89481    190.7 1.557e+04 5.482e-09
 68.90694    189.6 1.496e+04 4.431e-09
 68.92341    189.5 1.473e+04 3.913e-09
 68.93554    187.9 1.354e+04 2.343e-09
 68.95201    187.6 1.342e+04 2.277e-09
 68.96413    185.7 1.198e+04 1.198e-09
 68.97747    185.7 1.206e+04 1.299e-09
 68.99273    185.7 1.222e+04 1.440e-09
 69.00486    183.8 1.114e+04 8.967e-10
 69.02133    183.9 1.143e+04 1.072e-09
 69.03346    182.3 1.072e+04 8.126e-10
 69.04993    182.6 1.103e+04 9.838e-10
 69.06206    181.5 1.070e+04 8.636e-10
 69.07450    181.7 1.094e+04 9.930e-10
 69.09066    181.8 1.109e+04 1.042e-09
 69.10279    180.9 1.090e+04 9.349e-10
 69.11926    180.7 1.090e+04 9.314e-10
 69.13139    179.9 1.081e+04 8.751e-10
 69.14727    179.6 1.076e+04 8.413e-10
 69.15999    179.4 1.061e+04 7.748e-10
 69.17211    178.6 1.058e+04 7.638e-10
 69.18858    178.5 1.036e+04 6.797e-10
 69.20071    178.0 1.037e+04 6.832e-10
 69.21718    177.9 1.013e+04 6.018e-10
 69.22931    177.4 1.021e+04 6.179e-10
 69.24430    177.4 9.988e+03 5.443e-10
 69.25791    177.4 9.790e+03 4.903e-10
 69.27004    176.9 9.932e+03 5.107e-10
 69.28651    177.0 9.736e+03 4.677e-10
 69.29864    176.5 9.861e+03 4.804e-10
 69.31511    176.7 9.664e+03 4.574e-10
 69.32724    176.1 9.769e+03 4.659e-10
 69.34133    176.4 9.717e+03 4.650e-10
 69.35584    176.8 9.714e+03 4.672e-10
 69.36797    176.3 9.888e+03 4.891e-10
 69.38444    176.7 9.924e+03 5.047e-10
 69.39656    176.0 1.022e+04 5.670e-10
 69.41303    176.3 1.045e+04 6.398e-10
 69.42516    175.1 1.099e+04 8.294e-10
 69.43836    174.8 1.153e+04 1.038e-09
 69.45376    174.4 1.219e+04 1.345e-09
 69.46589    172.2 1.329e+04 2.231e-09
 69.48236    171.7 1.408e+04 3.041e-09
 69.49449    171.4 1.502e+04 5.089e-09
 69.51096    171.6 1.554e+04 6.060e-09
 69.52309    171.3 1.580e+04 6.771e-09
 69.53539    170.8 1.575e+04 6.603e-09
 69.55169    170.6 1.539e+04 5.697e-09
 69.56382    170.5 1.503e+04 5.094e-09
 69.58029    170.7 1.420e+04 3.553e-09
 69.59242    170.5 1.346e+04 2.436e-09
 69.62039    170.0 1.225e+04 1.235e-09
 69.64981    168.9 1.094e+04 7.292e-10
 69.67407    167.5 1.005e+04 4.354e-10
 69.70701    168.3 9.917e+03 4.244e-10
 69.73126    168.2 9.356e+03 2.734e-10
 69.76421    169.7 9.363e+03 2.753e-10
 69.78846    169.6 9.157e+03 2.281e-10
 69.81454    171.0 9.138e+03 2.205e-10
 69.84566    172.2 9.162e+03 2.232e-10
 69.86992    172.0 9.209e+03 2.245e-10
 69.90286    173.1 9.279e+03 2.304e-10
 69.92712    172.4 9.510e+03 2.520e-10
 69.96006    173.7 9.716e+03 2.773e-10
 69.99634    173.7 1.026e+04 3.936e-10
 70.01272    174.4 1.046e+04 4.669e-10
 70.02485    173.2 1.095e+04 7.244e-10
 70.04132    174.1 1.124e+04 8.935e-10
 70.05344    173.0 1.190e+04 1.333e-09
 70.06905    173.7 1.235e+04 1.686e-09
 70.08204    174.4 1.289e+04 2.183e-09
 70.09417    173.9 1.328e+04 2.665e-09
 70.11064    175.0 1.382e+04 3.286e-09
 70.12277    174.6 1.375e+04 2.941e-09
 70.13924    175.7 1.433e+04 3.531e-09
 70.15137    174.6 1.393e+04 2.251e-09
 70.16608    175.4 1.451e+04 2.489e-09
 70.17997    175.8 1.506e+04 2.731e-09
 70.19210    171.8 1.377e+04 1.305e-09
 70.20857    171.2 1.382e+04 1.391e-09
 70.22070    166.9 1.225e+04 1.241e-09
 70.23717    166.7 1.242e+04 1.423e-09
 70.24930    164.5 1.237e+04 1.680e-09
 70.26311    164.4 1.279e+04 1.960e-09
 70.27790    164.2 1.325e+04 2.245e-09
 70.29002    163.0 1.387e+04 3.164e-09
 70.30649    162.2 1.442e+04 3.488e-09
 70.31862    161.0 1.501e+04 4.363e-09
 70.33509    159.2 1.504e+04 4.244e-09
 70.34722    156.9 1.539e+04 4.320e-09
 70.36013    154.8 1.492e+04 3.579e-09
 70.37582    152.7 1.434e+04 2.777e-09
 70.38795    149.5 1.399e+04 2.107e-09
 70.40442    147.3 1.325e+04 1.463e-09
 70.41655    143.7 1.252e+04 1.103e-09
 70.43291    141.8 1.177e+04 8.191e-10
 70.44515    140.5 1.132e+04 6.605e-10
 70.45728    138.8 1.107e+04 6.643e-10
 70.47375    138.8 1.101e+04 6.121e-10
 70.48588    137.7 1.116e+04 6.469e-10
 70.50235    137.9 1.108e+04 6.076e-10
 70.51447    136.9 1.153e+04 6.517e-10
 70.52994    137.2 1.161e+04 6.309e-10
 70.54307    137.6 1.162e+04 6.301e-10
 70.55520    136.4 1.201e+04 7.281e-10
 70.57167    136.9 1.209e+04 7.360e-10
 70.58380    136.3 1.169e+04 8.789e-10
 70.60027    136.9 1.183e+04 9.106e-10
 70.61240    137.0 1.141e+04 1.036e-09
 70.62696    137.6 1.160e+04 1.092e-09
 70.64100    138.3 1.184e+04 1.171e-09
 70.65313    138.5 1.169e+04 1.126e-09
 70.66960    139.2 1.195e+04 1.235e-09
 70.68173    139.3 1.180e+04 1.101e-09
 70.69820    140.0 1.203e+04 1.222e-09
 70.71033    139.7 1.196e+04 9.678e-10
 70.72399    140.3 1.214e+04 1.054e-09
 70.73892    141.0 1.232e+04 1.136e-09
 70.75105    140.4 1.178e+04 8.706e-10
 70.76752    141.0 1.189e+04 9.080e-10
 70.77965    140.5 1.137e+04 7.594e-10
 70.79612    141.0 1.141e+04 7.852e-10
 70.80825    140.7 1.126e+04 7.066e-10
 70.82102    141.1 1.129e+04 7.453e-10
 70.83685    141.6 1.139e+04 8.076e-10
 70.84898    141.4 1.145e+04 7.637e-10
 70.86545    141.7 1.163e+04 8.595e-10
 70.87758    141.3 1.171e+04 8.970e-10
 70.89379    141.4 1.197e+04 1.033e-09
 70.90618    141.3 1.230e+04 1.229e-09
 70.91831    140.9 1.239e+04 1.275e-09
 70.93478    140.8 1.273e+04 1.518e-09
 70.94690    140.5 1.265e+04 1.598e-09
 70.96337    140.2 1.300e+04 1.871e-09
 70.97550    140.0 1.289e+04 1.899e-09
 70.99082    139.3 1.332e+04 2.215e-09
 71.00410    138.3 1.376e+04 2.633e-09
 71.01623    138.5 1.365e+04 2.550e-09
 71.03270    137.5 1.395e+04 2.892e-09
 71.04483    137.7 1.373e+04 2.640e-09
 71.06130    136.6 1.373e+04 2.638e-09
 71.07343    136.8 1.360e+04 2.373e-09
 71.08785    135.6 1.344e+04 2.242e-09
 71.10203    134.5 1.307e+04 1.917e-09
 71.11416    134.6 1.280e+04 1.683e-09
 71.13063    133.6 1.218e+04 1.322e-09
 71.14276    133.7 1.176e+04 1.161e-09
 71.15923    132.9 1.118e+04 9.156e-10
 71.17135    133.4 1.096e+04 8.342e-10
 71.18488    132.8 1.063e+04 6.978e-10
 71.19995    132.6 1.062e+04 6.462e-10
 71.21208    133.1 1.044e+04 5.735e-10
 71.22855    132.9 1.046e+04 5.681e-10
 71.24068    133.1 1.037e+04 5.067e-10
 71.25715    133.2 1.037e+04 5.091e-10
 71.26928    133.7 1.034e+04 4.781e-10
 71.28191    133.7 1.037e+04 4.885e-10
 71.29788    133.7 1.044e+04 5.119e-10
 71.31001    134.1 1.039e+04 4.746e-10
 71.32648    134.1 1.049e+04 5.078e-10
 71.33861    134.6 1.050e+04 5.335e-10
 71.35468    134.6 1.058e+04 5.727e-10
 71.36721    134.5 1.066e+04 6.161e-10
 71.37933    135.3 1.104e+04 6.411e-10
 71.39580    135.2 1.108e+04 6.665e-10
 71.40793    135.9 1.126e+04 7.610e-10
 71.42440    135.8 1.123e+04 7.602e-10
 71.43389    136.6 1.164e+04 8.533e-10
 71.43694    135.7 1.164e+04 7.558e-10
 71.45171    135.6 1.138e+04 6.933e-10
 71.46513    135.6 1.122e+04 6.829e-10
 71.47726    136.2 1.135e+04 7.192e-10
 71.49373    136.2 1.130e+04 7.210e-10
 71.50586    136.9 1.138e+04 7.802e-10
 71.52233    137.0 1.135e+04 7.874e-10
 71.53446    137.7 1.150e+04 8.211e-10
 71.54874    137.9 1.147e+04 8.541e-10
 71.56306    138.1 1.148e+04 9.742e-10
 71.57519    138.8 1.167e+04 9.440e-10
 71.59166    139.1 1.180e+04 1.159e-09
 71.60378    139.8 1.220e+04 1.045e-09
 71.62026    140.1 1.237e+04 1.369e-09
 71.63238    140.6 1.290e+04 1.187e-09
 71.64577    141.0 1.309e+04 1.614e-09
 71.66098    141.5 1.333e+04 2.277e-09
 71.67311    141.7 1.396e+04 1.942e-09
 71.68958    142.2 1.424e+04 2.808e-09
 71.70171    140.9 1.581e+04 2.782e-09
 71.71818    141.2 1.645e+04 4.218e-09
 71.73031    138.2 1.813e+04 5.272e-09
 71.74280    138.6 1.890e+04 8.040e-09
 71.75891    139.1 1.961e+04 1.167e-08
 71.76492    138.4 1.936e+04 1.344e-08
 71.77302    138.7 1.973e+04 1.697e-08
 71.77917    139.1 2.005e+04 2.128e-08
 71.78524    139.0 1.944e+04 2.137e-08
 71.79347    139.5 1.997e+04 2.903e-08
 71.79954    140.7 1.928e+04 2.808e-08
 71.80777    140.9 2.042e+04 4.070e-08
 71.81384    141.9 1.929e+04 2.836e-08
 71.82154    141.8 1.979e+04 3.444e-08
 71.82814    141.2 1.978e+04 3.485e-08
 71.83420    142.5 1.977e+04 1.913e-08
 71.84244    142.5 1.968e+04 1.907e-08
 71.84850    142.8 1.915e+04 1.228e-08
 71.85674    142.7 1.917e+04 1.217e-08
 71.86280    140.4 2.016e+04 4.280e-09
 71.87005    140.1 2.036e+04 4.410e-09
 71.87710    139.8 2.050e+04 4.474e-09
 71.88316    139.0 1.959e+04 3.828e-09
 71.89140    138.3 1.941e+04 3.617e-09
 71.89751    132.0 1.566e+04 1.129e-09
 71.91260    131.2 1.541e+04 1.199e-09
 71.92616    130.4 1.527e+04 1.449e-09
 71.93829    127.4 1.148e+04 8.710e-10
 71.95476    127.1 1.186e+04 1.043e-09
 71.96689    127.0 1.131e+04 9.111e-10
 71.98336    126.5 1.152e+04 9.898e-10
 71.99549    126.2 1.145e+04 9.153e-10
 72.00963    125.4 1.175e+04 1.032e-09
 72.02409    124.3 1.263e+04 1.345e-09
 72.03622    123.8 1.192e+04 9.812e-10
 72.05269    122.7 1.236e+04 1.244e-09
 72.06481    122.3 1.183e+04 9.589e-10
 72.08128    121.5 1.201e+04 1.185e-09
 72.09341    121.5 1.184e+04 9.904e-10
 72.10666    120.8 1.211e+04 1.234e-09
 72.12201    119.8 1.322e+04 1.765e-09
 72.13414    119.3 1.287e+04 1.602e-09
 72.15061    118.4 1.399e+04 2.527e-09
 72.16274    117.8 1.364e+04 2.598e-09
 72.17921    117.3 1.434e+04 3.722e-09
 72.19134    116.9 1.443e+04 3.966e-09
 72.19757    116.7 1.485e+04 4.660e-09
 72.20554    116.4 1.550e+04 5.741e-09
 72.21160    116.2 1.557e+04 5.696e-09
 72.21984    115.8 1.644e+04 7.505e-09
 72.22590    115.6 1.632e+04 6.908e-09
 72.23391    115.3 1.715e+04 8.911e-09
 72.24020    115.1 1.796e+04 1.106e-08
 72.24497    115.2 1.784e+04 9.445e-09
 72.25080    115.7 1.853e+04 1.224e-08
 72.25450    115.6 1.915e+04 1.361e-08
 72.26062    114.6 1.727e+04 8.091e-09
 72.27646    113.6 1.804e+04 9.279e-09
 72.28926    111.8 1.892e+04 1.032e-08
 72.30139    110.9 1.555e+04 4.267e-09
 72.31786    109.2 1.609e+04 4.507e-09
 72.32999    109.3 1.281e+04 1.879e-09
 72.34646    108.5 1.365e+04 2.102e-09
 72.35859    108.9 1.161e+04 1.096e-09
 72.37348    108.4 1.270e+04 1.367e-09
 72.38719    108.1 1.430e+04 2.210e-09
 72.39932    109.3 1.221e+04 1.098e-09
 72.41579    110.2 1.408e+04 2.051e-09
 72.42792    111.6 1.243e+04 1.179e-09
 72.44439    113.4 1.445e+04 2.324e-09
 72.45652    114.1 1.270e+04 1.463e-09
 72.47051    116.9 1.503e+04 2.947e-09
 72.48507    118.1 1.582e+04 3.812e-09
 72.49720    119.1 1.494e+04 3.244e-09
 72.51292    120.2 1.576e+04 4.129e-09
 72.51968    121.3 1.687e+04 5.466e-09
 72.52575    120.6 1.579e+04 4.493e-09
 72.53398    121.8 1.718e+04 6.123e-09
 72.54005    121.3 1.673e+04 5.697e-09
 72.54828    122.4 1.822e+04 7.775e-09
 72.55434    121.1 1.773e+04 7.353e-09
 72.56138    122.3 1.908e+04 1.005e-08
 72.56864    123.5 2.038e+04 1.405e-08
 72.57471    122.3 1.929e+04 1.301e-08
 72.58294    123.7 2.025e+04 1.922e-08
 72.58901    122.9 1.943e+04 1.666e-08
 72.59724    125.1 2.113e+04 2.479e-08
 72.60331    123.6 1.994e+04 1.986e-08
 72.60990    125.4 2.149e+04 2.665e-08
 72.61761    127.3 2.366e+04 3.983e-08
 72.62367    124.3 2.212e+04 2.489e-08
 72.63191    124.1 2.417e+04 3.258e-08
 72.63797    121.1 2.308e+04 2.218e-08
 72.64621    119.5 2.495e+04 2.530e-08
 72.65227    114.9 2.335e+04 1.781e-08
 72.65841    112.6 2.425e+04 2.003e-08
 72.66657    110.2 2.601e+04 2.635e-08
 72.67263    104.7 2.203e+04 1.740e-08
 72.68087    102.4 2.265e+04 2.148e-08
 72.68693     98.9 2.105e+04 1.812e-08
 72.69480     97.1 2.194e+04 2.277e-08
 72.70123     94.9 2.378e+04 2.940e-08
 72.70730     92.5 2.232e+04 2.043e-08
 72.71553     89.1 2.408e+04 2.108e-08
 72.72160     86.8 2.261e+04 1.414e-08
 72.72983     82.2 2.346e+04 1.388e-08
 72.73590     81.8 2.233e+04 9.646e-09
 72.74331     77.5 2.293e+04 9.592e-09
 72.75020     73.3 2.367e+04 9.495e-09
 72.75626     75.1 2.206e+04 6.922e-09
 72.76450     71.4 2.237e+04 6.133e-09
 72.77056     72.8 1.946e+04 4.139e-09
 72.77879     68.9 2.010e+04 3.773e-09
 72.79097     68.6 1.722e+04 2.442e-09
 72.79921     65.9 1.789e+04 2.501e-09
 72.80522     66.8 1.694e+04 2.123e-09
 72.81346     66.3 1.692e+04 1.942e-09
 72.81957     68.7 1.305e+04 1.300e-09
 72.83437     67.4 1.352e+04 1.341e-09
 72.84822     66.7 1.484e+04 1.491e-09
 72.86035     70.4 1.177e+04 9.370e-10
 72.87682     70.0 1.254e+04 1.045e-09
 72.88895     72.5 1.100e+04 7.999e-10
 72.90542     71.8 1.177e+04 9.639e-10
 72.91755     73.9 1.087e+04 7.974e-10
 72.93140     73.0 1.166e+04 1.099e-09
 72.94614     72.0 1.344e+04 1.886e-09
 72.95827     74.1 1.210e+04 1.413e-09
 72.97474     73.2 1.360e+04 2.475e-09
 72.98687     75.3 1.240e+04 1.841e-09
 73.00334     74.7 1.393e+04 3.229e-09
 73.01547     76.5 1.293e+04 2.411e-09
 73.02843     76.1 1.433e+04 4.014e-09
 73.04407     76.0 1.581e+04 6.478e-09
 73.05620     77.0 1.489e+04 4.999e-09
 73.07267     77.9 1.528e+04 5.998e-09
 73.08480     78.9 1.502e+04 5.512e-09
 73.10120     79.1 1.589e+04 7.311e-09
 73.12546     80.1 1.596e+04 7.346e-09
 73.14200     79.8 1.588e+04 7.100e-09
 73.15412     80.7 1.575e+04 6.866e-09
 73.17060     80.6 1.539e+04 5.872e-09
 73.18272     81.1 1.532e+04 5.508e-09
 73.19823     80.9 1.463e+04 3.987e-09
 73.21132     80.3 1.369e+04 2.490e-09
 73.22345     80.1 1.360e+04 2.425e-09
 73.23992     79.0 1.267e+04 1.692e-09
 73.25205     78.9 1.262e+04 1.778e-09
 73.26852     78.4 1.208e+04 1.460e-09
 73.28065     78.6 1.209e+04 1.484e-09
 73.30749     78.3 1.215e+04 1.465e-09
 73.33804     78.5 1.219e+04 1.468e-09
 73.36230     78.2 1.161e+04 1.007e-09
 73.39524     78.6 1.148e+04 9.296e-10
 73.41950     78.2 1.100e+04 6.809e-10
 73.45244     79.2 1.081e+04 5.822e-10
 73.47670     79.4 1.068e+04 5.224e-10
 73.50164     81.0 1.045e+04 3.967e-10
 73.53389     82.8 1.019e+04 2.763e-10
 73.55815     83.1 1.030e+04 2.680e-10
 73.59109     84.5 1.007e+04 1.780e-10
 73.61535     83.7 1.076e+04 2.792e-10
 73.64718     84.6 1.094e+04 2.699e-10
 73.67255     85.8 1.115e+04 2.821e-10
 73.68458     85.1 1.184e+04 6.684e-10
 73.70095     86.0 1.164e+04 5.588e-10
 73.71308     85.0 1.203e+04 8.092e-10
 73.72955     85.2 1.207e+04 9.298e-10
 73.74168     85.4 1.258e+04 1.782e-09
 73.75615     86.2 1.252e+04 1.831e-09
 73.77028     87.1 1.247e+04 1.830e-09
 73.78241     87.6 1.285e+04 2.131e-09
 73.79888     88.4 1.274e+04 1.971e-09
 73.81101     88.4 1.281e+04 1.982e-09
 73.82748     89.2 1.262e+04 1.667e-09
 73.83960     88.8 1.235e+04 1.189e-09
 73.85318     89.1 1.209e+04 8.870e-10
 73.86820     89.1 1.185e+04 6.632e-10
 73.88033     87.5 1.129e+04 4.396e-10
 73.89680     87.3 1.097e+04 3.475e-10
 73.90893     86.1 1.051e+04 2.781e-10
 73.92540     86.4 1.034e+04 2.628e-10
 73.94976     86.1 1.013e+04 2.431e-10
 73.98279     87.3 1.017e+04 2.489e-10
 74.00705     87.2 1.011e+04 2.429e-10
 74.03530     88.5 1.015e+04 2.636e-10
 74.06425     89.7 1.022e+04 2.912e-10
 74.08851     89.8 1.050e+04 4.257e-10
 74.12145     91.2 1.065e+04 4.731e-10
 74.14571     92.2 1.118e+04 7.382e-10
 74.16208     93.3 1.117e+04 7.181e-10
 74.17411     93.3 1.125e+04 7.653e-10
 74.19058     94.2 1.135e+04 8.078e-10
 74.20271     94.7 1.168e+04 1.059e-09
 74.21703     95.6 1.168e+04 1.108e-09
 74.23131     96.4 1.169e+04 1.199e-09
 74.24344     97.2 1.174e+04 1.369e-09
 74.25991     98.1 1.187e+04 1.532e-09
 74.27203     99.0 1.209e+04 1.557e-09
 74.28850    100.1 1.252e+04 1.875e-09
 74.30063    100.8 1.284e+04 1.729e-09
 74.31406    101.9 1.363e+04 2.260e-09
 74.32923    102.7 1.456e+04 3.098e-09
 74.34136    102.4 1.450e+04 2.449e-09
 74.35783    102.7 1.499e+04 2.873e-09
 74.36996    102.1 1.419e+04 2.116e-09
 74.38643    101.4 1.426e+04 2.231e-09
 74.39856    101.0 1.346e+04 1.701e-09
 74.41109     99.5 1.357e+04 1.818e-09
 74.42711     98.1 1.403e+04 2.063e-09
 74.43924     96.5 1.399e+04 1.777e-09
 74.45349     92.7 1.565e+04 2.547e-09
 74.46172     89.9 1.653e+04 3.371e-09
 74.46784     88.3 1.705e+04 3.079e-09
 74.48386     82.3 1.894e+04 6.190e-09
 74.49648     78.2 1.898e+04 7.787e-09
 74.50861     74.6 1.955e+04 1.283e-08
 74.52508     72.3 1.930e+04 1.187e-08
 74.53721     71.6 1.980e+04 1.534e-08
 74.55368     69.7 1.895e+04 9.484e-09
 74.56581     69.4 1.936e+04 7.963e-09
 74.58089     66.0 1.746e+04 3.512e-09
 74.59441     62.9 1.464e+04 1.917e-09
 74.60654     60.8 1.308e+04 1.192e-09
 74.62301     60.8 1.271e+04 1.139e-09
 74.63514     60.5 1.216e+04 8.717e-10
 74.65171     62.7 1.222e+04 9.491e-10
 74.67606     62.9 1.137e+04 5.818e-10
 74.69299     65.4 1.119e+04 5.196e-10
 74.71174     64.3 1.127e+04 5.272e-10
 74.73326     65.3 1.077e+04 3.385e-10
 74.76302     67.6 1.075e+04 3.365e-10
 74.79046     69.7 1.076e+04 3.408e-10
 74.81471     70.5 1.069e+04 2.981e-10
 74.84765     72.4 1.073e+04 3.179e-10
 74.87191     72.9 1.080e+04 3.200e-10
 74.90485     74.5 1.088e+04 3.508e-10
 74.92911     74.2 1.147e+04 5.813e-10
 74.95708     75.8 1.173e+04 7.174e-10
 74.98631     77.5 1.205e+04 9.087e-10
 75.01057     77.4 1.272e+04 1.503e-09
 75.04351     78.9 1.304e+04 1.748e-09
 75.06776     78.5 1.318e+04 1.897e-09
 75.10070     79.9 1.330e+04 1.980e-09
 75.12496     79.3 1.254e+04 1.213e-09
 75.15113     80.6 1.248e+04 1.118e-09
 75.18216     82.0 1.246e+04 1.026e-09
 75.20642     80.5 1.108e+04 4.535e-10
 75.23936     81.8 1.111e+04 4.375e-10
 75.26361     81.0 1.024e+04 2.341e-10
 75.29656     82.4 1.028e+04 2.544e-10
 75.34507     83.8 1.028e+04 2.331e-10
 75.37801     85.5 1.046e+04 2.901e-10
 75.40227     85.2 1.019e+04 2.212e-10
 75.43521     86.8 1.029e+04 2.575e-10
 75.45947     86.3 1.001e+04 2.022e-10
 75.49073     87.3 1.009e+04 2.260e-10
 75.51666     88.2 1.020e+04 2.599e-10
 75.54092     87.7 9.988e+03 2.245e-10
 75.57386     88.5 1.012e+04 2.643e-10
 75.59812     88.0 1.008e+04 2.591e-10
 75.63106     88.8 1.026e+04 3.006e-10
 75.65532     88.1 1.041e+04 3.274e-10
 75.68479     88.6 1.055e+04 3.445e-10
 75.71242     88.2 1.065e+04 3.620e-10
 75.72445     87.2 1.078e+04 4.047e-10
 75.74092     86.7 1.094e+04 4.897e-10
 75.75305     86.3 1.102e+04 5.765e-10
 75.76950     86.2 1.119e+04 7.279e-10
 75.79375     86.4 1.156e+04 9.746e-10
 75.81025     86.7 1.189e+04 1.142e-09
 75.82237     86.2 1.194e+04 1.104e-09
 75.83884     85.9 1.211e+04 1.125e-09
 75.85097     85.2 1.209e+04 1.115e-09
 75.86653     84.6 1.210e+04 1.101e-09
 75.87957     83.9 1.208e+04 1.053e-09
 75.89170     83.7 1.201e+04 1.123e-09
 75.90817     82.9 1.199e+04 1.069e-09
 75.92030     83.1 1.203e+04 1.206e-09
 75.93677     82.7 1.200e+04 1.164e-09
 75.94890     82.9 1.200e+04 1.208e-09
 75.96355     82.4 1.189e+04 1.088e-09
 75.97750     82.1 1.169e+04 9.782e-10
 75.98963     82.4 1.157e+04 9.677e-10
 76.02266     82.4 1.139e+04 8.728e-10
 76.04702     83.2 1.097e+04 7.121e-10
 76.07291     83.3 1.060e+04 5.846e-10
 76.10422     83.5 1.023e+04 4.649e-10
 76.12848     84.2 9.944e+03 3.810e-10
 76.16142     84.7 9.641e+03 3.049e-10
 76.18567     85.4 9.449e+03 2.691e-10
 76.21845     86.3 9.310e+03 2.479e-10
 76.26697     88.4 9.262e+03 2.438e-10
 76.30007     89.9 9.331e+03 2.584e-10
 76.32433     90.6 9.460e+03 2.811e-10
 76.35727     92.2 9.786e+03 3.414e-10
 76.38152     92.7 9.991e+03 3.789e-10
 76.39790     93.2 1.009e+04 4.180e-10
 76.40993     93.2 1.013e+04 4.272e-10
 76.42444     93.9 1.030e+04 4.997e-10
 76.43853     94.9 1.055e+04 6.154e-10
 76.45066     94.8 1.070e+04 6.731e-10
 76.46713     95.7 1.107e+04 8.405e-10
 76.47925     95.1 1.111e+04 8.856e-10
 76.49573     95.7 1.159e+04 1.130e-09
 76.50785     95.0 1.166e+04 1.169e-09
 76.52147     95.4 1.238e+04 1.573e-09
 76.53645     95.4 1.321e+04 2.174e-09
 76.54858     93.9 1.333e+04 2.210e-09
 76.56505     93.6 1.422e+04 3.091e-09
 76.57718     91.8 1.397e+04 2.814e-09
 76.59365     91.3 1.466e+04 3.755e-09
 76.60578     89.5 1.362e+04 2.851e-09
 76.61850     88.7 1.381e+04 3.074e-09
 76.63438     87.5 1.379e+04 3.042e-09
 76.64651     85.4 1.267e+04 2.182e-09
 76.66298     84.1 1.247e+04 1.950e-09
 76.67511     83.1 1.188e+04 1.527e-09
 76.69127     81.9 1.156e+04 1.322e-09
 76.70371     80.9 1.138e+04 1.256e-09
 76.71583     80.7 1.105e+04 1.086e-09
 76.73230     80.2 1.107e+04 1.096e-09
 76.74443     80.4 1.080e+04 9.655e-10
 76.76090     79.8 1.094e+04 1.015e-09
 76.77303     80.0 1.074e+04 9.118e-10
 76.78830     79.3 1.098e+04 1.002e-09
 76.80163     78.5 1.136e+04 1.159e-09
 76.81376     78.8 1.110e+04 1.038e-09
 76.83023     77.8 1.155e+04 1.233e-09
 76.84236     78.1 1.131e+04 1.121e-09
 76.85883     77.1 1.180e+04 1.346e-09
 76.87096     77.4 1.156e+04 1.229e-09
 76.88533     76.4 1.198e+04 1.437e-09
 76.89956     75.3 1.243e+04 1.708e-09
 76.91168     75.5 1.213e+04 1.519e-09
 76.92816     74.1 1.251e+04 1.781e-09
 76.94028     74.3 1.233e+04 1.693e-09
 76.95675     73.0 1.267e+04 1.971e-09
 76.96888     73.3 1.264e+04 1.953e-09
 76.98236     72.3 1.285e+04 2.153e-09
 76.99748     71.4 1.291e+04 2.172e-09
 77.00961     71.6 1.293e+04 2.205e-09
 77.02618     70.0 1.286e+04 2.061e-09
 77.05053     70.3 1.287e+04 2.063e-09
 77.08347     69.6 1.239e+04 1.567e-09
 77.10773     70.1 1.220e+04 1.430e-09
 77.14023     70.2 1.163e+04 9.995e-10
 77.16493     70.5 1.105e+04 6.251e-10
 77.18919     71.1 1.101e+04 6.604e-10
 77.22213     71.6 1.069e+04 4.776e-10
 77.24638     72.6 1.082e+04 5.862e-10
 77.27933     73.6 1.074e+04 5.059e-10
 77.30358     74.6 1.102e+04 6.767e-10
 77.33428     75.8 1.113e+04 6.539e-10
 77.36068     76.4 1.117e+04 6.618e-10
 77.37271     76.1 1.172e+04 9.069e-10
 77.38918     75.9 1.216e+04 1.016e-09
 77.40131     74.8 1.278e+04 1.535e-09
 77.41778     74.0 1.357e+04 2.070e-09
 77.42991     73.4 1.411e+04 3.074e-09
 77.44325     72.5 1.523e+04 4.741e-09
 77.45851     71.9 1.654e+04 7.748e-09
 77.47064     72.0 1.692e+04 9.256e-09
 77.48711     71.9 1.815e+04 1.411e-08
 77.49924     71.4 1.813e+04 1.434e-08
 77.51571     70.8 1.872e+04 1.577e-08
 77.52784     70.4 1.766e+04 1.076e-08
 77.54027     69.4 1.761e+04 1.033e-08
 77.55644     68.4 1.718e+04 8.523e-09
 77.56857     67.1 1.595e+04 5.706e-09
 77.58504     65.9 1.520e+04 4.073e-09
 77.59716     65.1 1.428e+04 3.034e-09
 77.61305     63.8 1.348e+04 2.079e-09
 77.62576     62.3 1.260e+04 1.392e-09
 77.63789     62.3 1.234e+04 1.270e-09
 77.65436     60.9 1.198e+04 1.052e-09
 77.66649     61.1 1.205e+04 1.080e-09
 77.68296     59.9 1.210e+04 1.096e-09
 77.69509     60.2 1.219e+04 1.134e-09
 77.71008     59.0 1.239e+04 1.229e-09
 77.72369     57.8 1.271e+04 1.422e-09
 77.73582     58.2 1.271e+04 1.419e-09
 77.75229     57.1 1.299e+04 1.658e-09
 77.76442     57.4 1.287e+04 1.593e-09
 77.78089     56.5 1.302e+04 1.787e-09
 77.79302     57.0 1.285e+04 1.680e-09
 77.80710     56.5 1.298e+04 1.854e-09
 77.82161     56.1 1.299e+04 1.757e-09
 77.83374     56.6 1.292e+04 1.611e-09
 77.85021     55.4 1.332e+04 1.373e-09
 77.86234     55.4 1.340e+04 1.270e-09
 77.87881     52.5 1.361e+04 1.264e-09
 77.89094     52.0 1.366e+04 1.243e-09
 77.90413     48.4 1.373e+04 1.397e-09
 77.91954     45.8 1.340e+04 1.813e-09
 77.93167     45.8 1.307e+04 1.768e-09
 77.94814     44.5 1.299e+04 1.872e-09
 77.95626     44.8 1.270e+04 1.599e-09
 77.96077     46.0 1.321e+04 1.874e-09
 77.97674     44.5 1.288e+04 1.674e-09
 77.98887     44.4 1.253e+04 1.273e-09
 78.00116     42.4 1.236e+04 1.031e-09
 78.01747     40.2 1.211e+04 8.138e-10
 78.02959     39.4 1.174e+04 6.746e-10
 78.04606     37.7 1.139e+04 5.969e-10
 78.05819     37.5 1.119e+04 5.697e-10
 78.07393     36.7 1.099e+04 5.422e-10
 78.08679     36.1 1.080e+04 4.941e-10
 78.11115     36.2 1.079e+04 4.879e-10
 78.14419     35.8 1.050e+04 4.047e-10
 78.16844     36.4 1.051e+04 4.045e-10
 78.20138     35.9 1.022e+04 3.317e-10
 78.22564     36.2 1.031e+04 3.436e-10
 78.25606     35.7 1.014e+04 3.204e-10
 78.28284     35.4 1.006e+04 3.193e-10
 78.30710     35.5 1.024e+04 3.739e-10
 78.34004     35.3 1.011e+04 3.646e-10
 78.36429     35.4 1.033e+04 4.324e-10
 78.39724     35.2 1.024e+04 4.204e-10
 78.42149     35.4 1.041e+04 4.630e-10
 78.43787     35.1 1.030e+04 4.312e-10
 78.46202     34.6 1.031e+04 4.430e-10
 78.47850     34.1 1.031e+04 4.632e-10
 78.49062     33.1 1.053e+04 4.997e-10
 78.50709     30.7 1.137e+04 6.559e-10
 78.51922     27.4 1.271e+04 1.017e-09
 78.53482     23.1 1.417e+04 2.049e-09
 78.54782     19.6 1.510e+04 3.818e-09
 78.55995     18.5 1.530e+04 4.935e-09
 78.57642     16.2 1.609e+04 6.268e-09
 78.58855     14.9 1.626e+04 6.351e-09
 78.60502     10.9 1.675e+04 6.002e-09
 78.61715      8.1 1.627e+04 4.501e-09
 78.63185      2.5 1.537e+04 3.476e-09
 78.64575     -2.3 1.373e+04 2.544e-09
 78.65788     -4.4 1.222e+04 1.735e-09
 78.67435     -6.4 1.146e+04 1.308e-09
 78.69870     -6.7 1.101e+04 9.351e-10
 78.73174     -9.7 1.048e+04 5.749e-10
 78.75600     -9.5 9.948e+03 4.663e-10
 78.78894    -13.1 9.920e+03 4.845e-10
 78.81320    -12.6 9.809e+03 4.746e-10
 78.83823    -15.0 1.009e+04 6.219e-10
 78.87039    -16.7 1.005e+04 6.134e-10
 78.89465    -16.3 1.021e+04 6.750e-10
 78.92759    -18.1 1.002e+04 5.601e-10
 78.95185    -18.7 1.030e+04 6.650e-10
 78.98378    -21.1 9.930e+03 5.232e-10
 79.00905    -23.5 9.768e+03 4.428e-10
 79.03330    -24.4 1.010e+04 5.591e-10
 79.06624    -26.6 1.009e+04 5.506e-10
 79.09050    -27.7 1.021e+04 6.195e-10
 79.12344    -28.5 9.901e+03 5.497e-10
 79.14770    -29.1 9.767e+03 5.289e-10
 79.17783    -29.2 9.313e+03 3.523e-10
 79.20490    -30.0 8.954e+03 2.227e-10
 79.22915    -30.6 8.846e+03 1.940e-10
 79.26210    -31.4 8.772e+03 1.897e-10
 79.28635    -31.8 8.750e+03 1.866e-10
 79.31929    -31.9 8.785e+03 2.117e-10
 79.34355    -32.1 8.866e+03 2.224e-10
 79.37189    -31.8 9.132e+03 2.797e-10
 79.40075    -31.5 9.423e+03 3.400e-10
 79.42501    -31.6 9.605e+03 3.762e-10
 79.45669    -32.0 9.839e+03 4.301e-10
 79.46988    -32.2 9.913e+03 4.566e-10
 79.48201    -32.9 1.011e+04 5.450e-10
 79.49848    -34.0 1.067e+04 6.929e-10
 79.51061    -34.6 1.103e+04 8.240e-10
 79.52708    -35.0 1.118e+04 9.177e-10
 79.53921    -35.6 1.145e+04 1.048e-09
 79.56585    -37.0 1.201e+04 1.458e-09
 79.59660    -38.4 1.187e+04 1.422e-09
 79.62086    -39.2 1.191e+04 1.472e-09
 79.65380    -40.0 1.122e+04 9.867e-10
 79.67806    -41.0 1.093e+04 8.092e-10
 79.71100    -42.5 1.026e+04 4.920e-10
 79.73525    -43.9 1.006e+04 4.587e-10
 79.76001    -44.5 9.730e+03 3.669e-10
 79.79245    -44.5 9.592e+03 3.256e-10
 79.81671    -44.7 9.600e+03 3.419e-10
 79.84965    -44.5 9.537e+03 2.938e-10
 79.87391    -44.6 9.530e+03 2.873e-10
 79.90555    -44.5 9.505e+03 2.578e-10
 79.93110    -44.5 9.524e+03 2.650e-10
 79.95536    -44.3 9.521e+03 2.600e-10
 79.98830    -44.0 9.626e+03 2.837e-10
 80.01256    -43.8 9.694e+03 2.874e-10
 80.04550    -43.4 9.823e+03 2.945e-10
 80.06976    -43.3 1.008e+04 3.361e-10
 80.09961    -43.0 1.006e+04 3.274e-10
 80.12696    -42.6 9.942e+03 2.856e-10
 80.15121    -42.5 1.016e+04 3.667e-10
 80.18415    -42.1 1.001e+04 2.929e-10
 80.20841    -41.7 1.024e+04 3.894e-10
 80.24135    -41.5 1.015e+04 3.114e-10
 80.26561    -41.1 1.038e+04 4.145e-10
 80.29367    -41.0 1.036e+04 3.646e-10
 80.32281    -41.1 1.033e+04 3.392e-10
 80.34706    -40.7 1.063e+04 4.665e-10
 80.38001    -40.7 1.056e+04 4.233e-10
 80.40426    -40.2 1.085e+04 5.283e-10
 80.43720    -39.9 1.048e+04 3.881e-10
 80.46146    -39.5 1.072e+04 4.315e-10
 80.48772    -39.5 1.023e+04 2.589e-10
 80.51866    -39.8 9.811e+03 1.609e-10
 80.54292    -39.8 1.002e+04 1.622e-10
 80.57586    -39.9 9.605e+03 1.148e-10
 80.60011    -40.9 9.924e+03 1.203e-10
 80.63305    -42.5 1.025e+04 1.378e-10
 80.65731    -46.8 1.209e+04 4.338e-10
 80.68178    -50.2 1.279e+04 8.790e-10
 80.71441    -52.7 1.320e+04 1.636e-09
 80.72644    -53.8 1.335e+04 2.131e-09
 80.74223    -54.3 1.334e+04 2.415e-09
 80.75504    -54.1 1.317e+04 2.500e-09
 80.76717    -54.1 1.271e+04 1.919e-09
 80.78364    -54.1 1.260e+04 1.284e-09
 80.79577    -55.7 1.228e+04 6.273e-10
 80.81224    -58.6 1.236e+04 3.442e-10
 80.82437    -61.5 1.165e+04 2.024e-10
 80.83926    -62.6 1.128e+04 1.775e-10
 80.85297    -63.7 1.106e+04 1.871e-10
 80.87732    -64.2 1.100e+04 1.729e-10
 80.91036    -64.2 1.086e+04 2.172e-10
 80.93462    -64.2 1.073e+04 1.791e-10
 80.96756    -63.5 1.063e+04 1.889e-10
 80.99182    -63.6 1.061e+04 1.521e-10
 81.02138    -62.9 1.062e+04 1.332e-10
 81.04901    -62.3 1.059e+04 1.247e-10
 81.07327    -62.6 1.048e+04 1.055e-10
 81.10621    -62.1 1.046e+04 1.109e-10
 81.13047    -62.2 1.038e+04 1.077e-10
 81.16341    -61.5 1.035e+04 1.281e-10
 81.18767    -61.0 1.026e+04 1.228e-10
 81.20469    -60.3 1.029e+04 1.413e-10
 81.22895    -59.4 1.023e+04 1.394e-10
 81.24487    -58.0 1.026e+04 1.491e-10
 81.26912    -56.9 1.013e+04 1.271e-10
 81.30206    -61.6 1.357e+04 1.956e-10
 81.32632    -65.2 1.564e+04 2.666e-10
 81.34269    -72.8 1.797e+04 2.119e-09
 81.35472    -72.8 1.767e+04 2.807e-09
 81.37119    -73.1 1.784e+04 1.141e-08
 81.38332    -71.5 1.812e+04 1.349e-08
 81.39717    -71.0 1.900e+04 1.837e-08
 81.41192    -73.3 2.031e+04 1.293e-08
 81.42405    -72.2 2.053e+04 1.195e-08
 81.44052    -80.5 1.873e+04 3.514e-09
 81.45265    -80.0 1.835e+04 3.108e-09
 81.46912    -89.4 1.320e+04 1.273e-09
 81.48125    -88.9 1.326e+04 1.276e-09
 81.49420    -93.5 1.257e+04 1.033e-09
 81.50985    -99.2 1.336e+04 1.129e-09
 81.52198   -103.4 1.632e+04 2.039e-09
 81.53845   -110.4 1.670e+04 3.018e-09
 81.55058   -113.9 1.853e+04 6.809e-09
 81.56697   -117.7 1.795e+04 7.743e-09
 81.58512   -120.4 1.800e+04 1.031e-08
 81.59338   -120.6 1.793e+04 9.648e-09
 81.59944   -121.2 1.795e+04 9.628e-09
 81.60773   -123.2 1.683e+04 6.117e-09
 81.61990   -124.7 1.704e+04 6.258e-09
 81.63637   -128.3 1.447e+04 2.433e-09
 81.64850   -130.3 1.387e+04 1.825e-09
 81.66400   -132.8 1.210e+04 1.109e-09
 81.67710   -133.4 1.149e+04 9.511e-10
 81.68923   -134.1 1.110e+04 7.804e-10
 81.70570   -133.3 1.103e+04 7.689e-10
 81.71783   -133.5 1.069e+04 6.163e-10
 81.73430   -133.1 1.077e+04 6.799e-10
 81.74643   -133.2 1.046e+04 5.468e-10
 81.76103   -132.8 1.070e+04 6.503e-10
 81.77503   -132.5 1.100e+04 7.899e-10
 81.78715   -132.5 1.067e+04 6.372e-10
 81.80363   -132.2 1.097e+04 7.898e-10
 81.81575   -132.0 1.060e+04 6.255e-10
 81.83222   -131.7 1.086e+04 7.741e-10
 81.84435   -131.3 1.059e+04 6.317e-10
 81.85806   -131.1 1.075e+04 7.260e-10
 81.87295   -131.0 1.084e+04 7.833e-10
 81.88508   -130.6 1.064e+04 6.641e-10
 81.90155   -130.6 1.065e+04 6.781e-10
 81.91368   -130.3 1.048e+04 5.786e-10
 81.93015   -130.2 1.046e+04 5.770e-10
 81.94228   -129.9 1.030e+04 4.933e-10
 81.95509   -130.0 1.020e+04 4.623e-10
 81.97098   -130.1 1.005e+04 4.100e-10
 81.99533   -129.3 9.919e+03 3.755e-10
 82.02827   -128.8 9.571e+03 2.909e-10
 82.05253   -128.0 9.468e+03 2.696e-10
 82.08547   -127.5 9.208e+03 2.142e-10
 82.10973   -126.7 9.166e+03 2.036e-10
 82.13722   -126.3 9.057e+03 1.769e-10
 82.16692   -125.8 9.016e+03 1.655e-10
 82.19118   -125.0 9.008e+03 1.647e-10
 82.22412   -124.6 8.966e+03 1.636e-10
 82.24838   -123.7 8.976e+03 1.719e-10
 82.28132   -123.2 8.951e+03 1.744e-10
 82.30558   -122.2 8.984e+03 1.883e-10
 82.33127   -121.8 8.937e+03 1.878e-10
 82.36278   -121.3 8.844e+03 1.695e-10
 82.38703   -120.3 8.904e+03 1.815e-10
 82.41997   -120.0 8.792e+03 1.517e-10
 82.44423   -119.0 8.842e+03 1.615e-10
 82.47682   -118.8 8.702e+03 1.347e-10
 82.50143   -118.4 8.607e+03 1.211e-10
 82.52569   -117.5 8.619e+03 1.194e-10
 82.55863   -117.0 8.568e+03 1.123e-10
 82.58288   -116.2 8.570e+03 1.113e-10
 82.61582   -115.7 8.558e+03 1.100e-10
 82.64008   -115.1 8.600e+03 1.118e-10
 82.67087   -114.6 8.644e+03 1.209e-10
 82.69728   -113.9 8.742e+03 1.370e-10
 82.72154   -113.4 8.850e+03 1.550e-10
 82.75448   -112.8 8.963e+03 1.708e-10
 82.77874   -112.4 9.066e+03 1.842e-10
 82.81168   -111.9 9.191e+03 2.005e-10
 82.83593   -111.8 9.273e+03 1.984e-10
 82.86493   -111.5 9.376e+03 2.145e-10
 82.89313   -111.1 9.415e+03 2.235e-10
 82.91739   -111.2 9.385e+03 2.044e-10
 82.95033   -110.6 9.313e+03 1.959e-10
 82.97459   -110.7 9.229e+03 1.643e-10
 83.00753   -110.0 9.107e+03 1.311e-10
 83.03178   -110.3 9.062e+03 1.109e-10
 83.05899   -109.7 9.037e+03 9.608e-11
 83.08898   -109.3 9.053e+03 9.338e-11
 83.11324   -109.4 9.077e+03 9.442e-11
 83.14618   -109.0 9.211e+03 1.134e-10
 83.17044   -109.1 9.226e+03 1.174e-10
 83.20338   -108.7 9.317e+03 1.458e-10
 83.22764   -108.8 9.333e+03 1.449e-10
 83.25305   -108.6 9.439e+03 1.682e-10
 83.28483   -108.5 9.569e+03 1.895e-10
 83.30909   -109.3 9.657e+03 1.915e-10
 83.34203   -109.3 1.000e+04 2.285e-10
 83.36629   -110.0 1.028e+04 2.851e-10
 83.38266   -109.6 1.037e+04 2.967e-10
 83.39469   -110.3 1.043e+04 3.388e-10
 83.41052   -113.1 1.150e+04 3.907e-10
 83.42329   -119.3 1.390e+04 9.068e-10
 83.43542   -122.0 1.438e+04 1.410e-09
 83.45189   -124.8 1.510e+04 3.541e-09
 83.46402   -125.3 1.535e+04 4.826e-09
 83.48049   -125.6 1.615e+04 7.403e-09
 83.49262   -125.7 1.619e+04 7.592e-09
 83.50755   -126.3 1.637e+04 7.959e-09
 83.52122   -127.7 1.643e+04 6.041e-09
 83.53335   -128.7 1.609e+04 4.242e-09
 83.54982   -132.9 1.543e+04 2.458e-09
 83.56194   -135.0 1.484e+04 1.902e-09
 83.57842   -138.6 1.447e+04 1.766e-09
 83.59054   -139.6 1.445e+04 1.736e-09
 83.60458   -141.0 1.439e+04 2.001e-09
 83.61914   -141.5 1.462e+04 2.320e-09
 83.63127   -141.5 1.492e+04 2.750e-09
 83.64774   -141.9 1.498e+04 2.828e-09
 83.65987   -142.0 1.540e+04 3.424e-09
 83.67634   -142.6 1.551e+04 3.251e-09
 83.68847   -143.7 1.640e+04 4.301e-09
 83.70161   -145.0 1.668e+04 4.216e-09
 83.71707   -146.7 1.695e+04 4.166e-09
 83.72920   -148.8 1.838e+04 7.227e-09
 83.74567   -150.9 1.867e+04 7.829e-09
 83.75780   -152.7 1.967e+04 1.249e-08
 83.77427   -154.6 1.963e+04 1.306e-08
 83.78640   -156.6 1.995e+04 1.529e-08
 83.79864   -158.2 1.954e+04 1.425e-08
 83.81499   -159.5 1.900e+04 1.231e-08
 83.82712   -161.2 1.865e+04 1.131e-08
 83.84359   -162.3 1.782e+04 8.289e-09
 83.85572   -164.0 1.678e+04 5.606e-09
 83.87141   -165.2 1.596e+04 4.321e-09
 83.88432   -165.9 1.521e+04 3.457e-09
 83.89645   -166.6 1.451e+04 2.757e-09
 83.91292   -166.5 1.414e+04 2.377e-09
 83.92505   -166.6 1.370e+04 1.982e-09
 83.94152   -166.4 1.345e+04 1.742e-09
 83.95365   -166.3 1.310e+04 1.471e-09
 83.96844   -165.9 1.291e+04 1.308e-09
 83.98225   -165.5 1.272e+04 1.116e-09
 83.99438   -165.1 1.255e+04 1.032e-09
 84.01085   -164.7 1.240e+04 8.960e-10
 84.02297   -164.2 1.229e+04 8.635e-10
 84.03944   -163.7 1.217e+04 7.540e-10
 84.05157   -163.2 1.211e+04 7.526e-10
 84.06547   -162.7 1.199e+04 6.494e-10
 84.08017   -162.1 1.184e+04 5.382e-10
 84.09230   -161.5 1.182e+04 5.610e-10
 84.10877   -160.7 1.169e+04 4.645e-10
 84.12090   -160.0 1.164e+04 4.782e-10
 84.13737   -159.4 1.155e+04 4.123e-10
 84.14960   -158.4 1.152e+04 4.539e-10
 84.17482   -157.9 1.139e+04 3.729e-10
 84.20689   -157.1 1.112e+04 3.032e-10
 84.23115   -155.5 1.105e+04 2.980e-10
 84.26409   -154.4 1.077e+04 2.475e-10
 84.28835   -152.6 1.072e+04 2.419e-10
 84.32037   -151.3 1.053e+04 2.129e-10
 84.34555   -150.0 1.047e+04 2.041e-10
 84.36980   -148.1 1.046e+04 2.016e-10
 84.40274   -146.7 1.045e+04 2.011e-10
 84.42700   -144.8 1.039e+04 2.013e-10
 84.45994   -143.5 1.041e+04 2.135e-10
 84.47883   -141.7 1.044e+04 2.224e-10
 84.48480   -141.9 1.062e+04 2.618e-10
 84.51442   -140.8 1.067e+04 2.977e-10
 84.54140   -139.6 1.075e+04 3.325e-10
 84.56565   -138.1 1.091e+04 4.004e-10
 84.59859   -136.9 1.094e+04 4.237e-10
 84.62285   -135.6 1.112e+04 5.089e-10
 84.65579   -134.4 1.107e+04 5.090e-10
 84.68005   -133.2 1.118e+04 5.755e-10
 84.70848   -131.8 1.098e+04 5.062e-10
 84.73725   -130.4 1.077e+04 4.165e-10
 84.76151   -129.3 1.078e+04 4.471e-10
 84.79445   -127.9 1.058e+04 3.749e-10
 84.81870   -126.6 1.055e+04 3.922e-10
 84.85164   -125.2 1.043e+04 3.493e-10
 84.87590   -123.8 1.042e+04 3.535e-10
 84.90254   -122.3 1.035e+04 3.350e-10
 84.93310   -120.8 1.031e+04 3.358e-10
 84.95736   -119.2 1.023e+04 3.118e-10
 84.99030   -117.6 1.018e+04 3.122e-10
 85.01455   -115.9 1.008e+04 2.724e-10
 85.04750   -114.0 1.003e+04 2.725e-10
 85.07175   -112.3 9.987e+03 2.306e-10
 85.09660   -110.4 9.965e+03 2.356e-10
 85.12895   -108.6 9.980e+03 2.495e-10
 85.15321   -106.9 9.989e+03 2.317e-10
 85.18615   -105.3 1.007e+04 2.712e-10
 85.21041   -103.8 1.018e+04 2.793e-10
 85.24214   -102.3 1.034e+04 3.647e-10
 85.26760   -101.0 1.054e+04 4.545e-10
 85.29186    -99.5 1.075e+04 5.521e-10
 85.32480    -98.2 1.096e+04 6.607e-10
 85.34906    -96.9 1.126e+04 7.942e-10
 85.36543    -95.4 1.114e+04 7.477e-10
 85.37746    -95.3 1.136e+04 8.247e-10
 85.39393    -95.1 1.135e+04 8.242e-10
 85.40616    -94.7 1.192e+04 1.052e-09
 85.42263    -93.4 1.148e+04 9.026e-10
 85.43466    -93.1 1.179e+04 1.032e-09
 85.44813    -92.9 1.192e+04 1.042e-09
 85.46326    -92.9 1.213e+04 1.061e-09
 85.47539    -93.8 1.297e+04 1.535e-09
 85.49186    -93.9 1.314e+04 1.588e-09
 85.50399    -94.7 1.408e+04 2.743e-09
 85.52046    -94.4 1.403e+04 2.553e-09
 85.53259    -94.4 1.496e+04 4.217e-09
 85.54516    -94.4 1.460e+04 3.338e-09
 85.56119    -94.7 1.414e+04 2.701e-09
 85.57331    -95.0 1.483e+04 3.643e-09
 85.58978    -95.9 1.422e+04 2.916e-09
 85.60191    -96.7 1.456e+04 3.345e-09
 85.61793    -97.3 1.399e+04 2.821e-09
 85.63051    -97.6 1.369e+04 2.560e-09
 85.64264    -98.8 1.365e+04 2.552e-09
 85.65911    -98.9 1.339e+04 2.300e-09
 85.67124   -100.0 1.315e+04 2.146e-09
 85.68771    -99.8 1.293e+04 1.897e-09
 85.69984   -100.9 1.266e+04 1.743e-09
 85.71496   -100.7 1.247e+04 1.518e-09
 85.72844   -100.8 1.239e+04 1.339e-09
 85.74057   -101.8 1.211e+04 1.246e-09
 85.75704   -102.1 1.208e+04 1.150e-09
 85.76917   -103.2 1.194e+04 1.119e-09
 85.78564   -103.7 1.191e+04 1.088e-09
 85.79776   -104.9 1.188e+04 1.091e-09
 85.81199   -105.2 1.197e+04 1.151e-09
 85.82636   -105.3 1.218e+04 1.290e-09
 85.83849   -106.4 1.208e+04 1.372e-09
 85.85496   -106.3 1.221e+04 1.437e-09
 85.86709   -107.1 1.211e+04 1.493e-09
 85.88356   -107.0 1.204e+04 1.427e-09
 85.89569   -107.5 1.190e+04 1.391e-09
 85.90902   -107.5 1.167e+04 1.190e-09
 85.92429   -108.0 1.149e+04 1.020e-09
 85.93642   -108.4 1.126e+04 8.807e-10
 85.95289   -109.3 1.110e+04 7.681e-10
 85.96502   -109.6 1.090e+04 6.767e-10
 85.98149   -110.5 1.086e+04 6.546e-10
 85.99362   -110.7 1.069e+04 5.952e-10
 86.00605   -111.5 1.072e+04 6.272e-10
 86.02221   -112.2 1.093e+04 7.168e-10
 86.03434   -112.0 1.076e+04 6.798e-10
 86.05081   -112.4 1.098e+04 7.710e-10
 86.06294   -111.9 1.078e+04 7.123e-10
 86.07882   -112.2 1.089e+04 7.521e-10
 86.09154   -112.3 1.090e+04 7.593e-10
 86.10100   -111.8 1.064e+04 6.724e-10
 86.11253   -111.6 1.068e+04 6.811e-10
 86.12014   -111.5 1.062e+04 6.428e-10
 86.13227   -111.0 1.046e+04 5.812e-10
 86.14874   -110.7 1.029e+04 4.977e-10
 86.16087   -110.1 1.010e+04 4.498e-10
 86.17585   -109.5 1.001e+04 3.761e-10
 86.18956   -108.9 9.961e+03 3.129e-10
 86.21392   -108.0 9.927e+03 3.035e-10
 86.24686   -107.2 9.963e+03 2.865e-10
 86.27112   -106.3 9.999e+03 3.041e-10
 86.30406   -105.2 1.014e+04 3.258e-10
 86.32822   -104.6 1.022e+04 3.898e-10
 86.35788   -103.4 1.036e+04 4.211e-10
 86.38551   -101.9 1.055e+04 5.114e-10
 86.40977   -101.2 1.049e+04 5.029e-10
 86.44271    -99.8 1.075e+04 6.059e-10
 86.46697    -99.1 1.052e+04 5.159e-10
 86.49991    -97.6 1.077e+04 6.034e-10
 86.52417    -97.0 1.045e+04 4.864e-10
 86.55203    -95.4 1.069e+04 5.825e-10
 86.58136    -93.7 1.105e+04 7.682e-10
 86.60562    -93.2 1.061e+04 5.813e-10
 86.63856    -91.3 1.090e+04 7.362e-10
 86.66282    -91.0 1.054e+04 6.026e-10
 86.69576    -88.9 1.088e+04 7.605e-10
 86.71992    -88.5 1.066e+04 6.820e-10
 86.74599    -87.0 1.115e+04 8.843e-10
 86.77712    -85.6 1.216e+04 1.274e-09
 86.78915    -85.6 1.187e+04 1.131e-09
 86.80562    -85.9 1.251e+04 1.322e-09
 86.81775    -85.8 1.183e+04 1.077e-09
 86.83079    -85.6 1.386e+04 2.040e-09
 86.84635    -86.7 1.528e+04 4.182e-09
 86.85848    -86.4 1.459e+04 2.712e-09
 86.87495    -86.3 1.619e+04 5.945e-09
 86.88707    -86.3 1.560e+04 3.789e-09
 86.90355    -86.7 1.677e+04 7.476e-09
 86.92780    -87.4 1.754e+04 9.446e-09
 86.94427    -87.0 1.848e+04 1.419e-08
 86.95640    -88.5 1.835e+04 1.338e-08
 86.97287    -87.7 1.915e+04 1.817e-08
 86.98500    -88.6 1.916e+04 1.949e-08
 87.00059    -87.3 1.992e+04 2.364e-08
 87.01360    -87.9 2.000e+04 2.182e-08
 87.02573    -88.2 2.017e+04 2.529e-08
 87.04220    -88.6 1.958e+04 1.925e-08
 87.05433    -88.6 1.945e+04 2.008e-08
 87.07080    -88.7 1.863e+04 1.361e-08
 87.08293    -88.5 1.813e+04 1.324e-08
 87.09762    -88.5 1.740e+04 8.747e-09
 87.11153    -89.1 1.610e+04 5.836e-09
 87.12365    -88.5 1.605e+04 5.966e-09
 87.14012    -88.7 1.511e+04 4.653e-09
 87.15225    -88.1 1.498e+04 4.550e-09
 87.16872    -87.6 1.461e+04 4.138e-09
 87.18085    -87.1 1.432e+04 3.601e-09
 87.19465    -86.4 1.423e+04 3.713e-09
 87.20945    -85.4 1.411e+04 3.545e-09
 87.22158    -85.0 1.376e+04 3.108e-09
 87.23805    -83.9 1.377e+04 3.139e-09
 87.25018    -83.6 1.327e+04 2.503e-09
 87.26665    -82.5 1.328e+04 2.575e-09
 87.27878    -82.2 1.274e+04 1.974e-09
 87.29168    -81.2 1.271e+04 2.002e-09
 87.30738    -80.3 1.255e+04 1.912e-09
 87.31951    -80.0 1.209e+04 1.536e-09
 87.33598    -79.0 1.200e+04 1.499e-09
 87.34810    -78.9 1.159e+04 1.198e-09
 87.36445    -77.9 1.156e+04 1.185e-09
 87.37670    -76.9 1.163e+04 1.212e-09
 87.38883    -77.2 1.119e+04 9.576e-10
 87.40530    -76.3 1.137e+04 1.014e-09
 87.41743    -76.8 1.091e+04 8.073e-10
 87.43390    -76.1 1.119e+04 8.955e-10
 87.44603    -76.7 1.069e+04 7.253e-10
 87.46148    -76.2 1.103e+04 8.295e-10
 87.47463    -75.8 1.173e+04 1.089e-09
 87.48676    -76.4 1.094e+04 8.085e-10
 87.50323    -76.2 1.169e+04 1.040e-09
 87.51536    -76.9 1.085e+04 7.760e-10
 87.53183    -76.7 1.139e+04 9.438e-10
 87.54396    -77.4 1.072e+04 7.528e-10
 87.55851    -77.5 1.102e+04 8.628e-10
 87.57255    -77.4 1.138e+04 9.779e-10
 87.58468    -78.0 1.076e+04 7.635e-10
 87.60115    -78.1 1.079e+04 7.765e-10
 87.61328    -78.8 1.049e+04 6.806e-10
 87.62975    -79.2 1.029e+04 6.468e-10
 87.64188    -79.9 1.014e+04 6.097e-10
 87.65554    -80.4 1.006e+04 5.879e-10
 87.67048    -81.1 1.012e+04 5.606e-10
 87.68261    -81.9 1.016e+04 5.953e-10
 87.69908    -83.6 1.053e+04 6.411e-10
 87.71121    -84.0 1.049e+04 6.747e-10
 87.72768    -86.1 1.095e+04 7.719e-10
 87.73981    -85.8 1.070e+04 7.523e-10
 87.75257    -87.5 1.095e+04 8.898e-10
 87.76841    -88.9 1.123e+04 1.023e-09
 87.78053    -88.5 1.098e+04 8.580e-10
 87.79700    -90.0 1.128e+04 9.496e-10
 87.80913    -90.1 1.104e+04 8.066e-10
 87.82534    -91.6 1.116e+04 8.863e-10
 87.83773    -92.7 1.114e+04 9.626e-10
 87.84986    -92.6 1.089e+04 8.424e-10
 87.86633    -93.2 1.081e+04 8.815e-10
 87.87846    -92.8 1.058e+04 7.518e-10
 87.89493    -93.0 1.046e+04 7.365e-10
 87.90706    -92.6 1.020e+04 5.857e-10
 87.92237    -92.8 1.005e+04 5.441e-10
 87.93566    -92.9 9.927e+03 5.141e-10
 87.94779    -93.0 9.647e+03 3.856e-10
 87.96426    -93.0 9.610e+03 3.829e-10
 87.97648    -93.5 9.483e+03 3.095e-10
 88.00746    -93.1 9.529e+03 3.219e-10
 88.03368    -93.1 9.763e+03 3.400e-10
 88.05794    -94.2 9.874e+03 3.382e-10
 88.09088    -94.7 1.032e+04 3.903e-10
 88.11514    -96.7 1.090e+04 4.678e-10
 88.13161    -95.6 1.092e+04 4.994e-10
 88.14364    -97.9 1.153e+04 6.295e-10
 88.16011    -97.4 1.144e+04 6.422e-10
 88.17224    -99.8 1.186e+04 7.796e-10
 88.18871    -99.0 1.202e+04 8.865e-10
 88.20084   -101.7 1.232e+04 1.081e-09
 88.21346   -101.6 1.247e+04 1.178e-09
 88.22943   -101.0 1.269e+04 1.308e-09
 88.24156   -104.4 1.265e+04 1.374e-09
 88.25803   -105.0 1.269e+04 1.498e-09
 88.27016   -108.1 1.234e+04 1.447e-09
 88.28623   -109.4 1.272e+04 1.564e-09
 88.29876   -111.2 1.306e+04 1.684e-09
 88.31089   -114.2 1.196e+04 1.118e-09
 88.32736   -116.3 1.165e+04 1.067e-09
 88.33949   -118.5 1.086e+04 7.870e-10
 88.35596   -119.9 1.061e+04 6.914e-10
 88.36809   -120.6 1.034e+04 6.051e-10
 88.38326   -121.3 1.014e+04 4.901e-10
 88.39669   -122.1 9.929e+03 3.824e-10
 88.40882   -122.6 9.783e+03 3.445e-10
 88.42529   -123.1 9.652e+03 3.086e-10
 88.44964   -123.3 9.673e+03 3.069e-10
 88.48268   -123.3 9.661e+03 2.973e-10
 88.50694   -123.4 9.605e+03 2.718e-10
 88.53988   -122.6 9.681e+03 2.825e-10
 88.56413   -122.2 9.489e+03 2.352e-10
 88.58964   -121.1 9.654e+03 2.753e-10
 88.62133   -119.6 9.818e+03 3.068e-10
 88.64559   -118.8 9.677e+03 2.858e-10
 88.67853   -117.0 9.781e+03 2.987e-10
 88.70279   -116.2 9.763e+03 2.974e-10
 88.73518   -114.4 9.838e+03 2.903e-10
 88.75999   -112.5 9.781e+03 2.684e-10
 88.78424   -112.1 9.962e+03 3.293e-10
 88.81718   -110.1 9.951e+03 3.384e-10
 88.84144   -109.9 1.023e+04 4.557e-10
 88.87438   -107.6 1.026e+04 4.865e-10
 88.89864   -107.6 1.055e+04 6.441e-10
 88.92924   -105.1 1.059e+04 6.630e-10
 88.95584   -102.7 1.049e+04 5.950e-10
 88.98009   -102.8 1.070e+04 7.264e-10
 89.01304   -100.8 1.068e+04 6.639e-10
 89.03729   -101.4 1.071e+04 6.979e-10
 89.07023   -100.0 1.105e+04 7.361e-10
 89.09449   -100.6 1.095e+04 7.309e-10
 89.12330   -100.7 1.174e+04 1.213e-09
 89.15159   -100.2 1.266e+04 2.017e-09
 89.16362   -100.9 1.258e+04 1.941e-09
 89.18009   -100.4 1.322e+04 2.747e-09
 89.19222   -101.0 1.296e+04 2.555e-09
 89.20800   -100.2 1.349e+04 3.546e-09
 89.22082    -99.1 1.415e+04 4.395e-09
 89.23295    -99.2 1.356e+04 3.568e-09
 89.24942    -98.3 1.397e+04 3.851e-09
 89.26155    -98.4 1.310e+04 2.811e-09
 89.27802    -98.0 1.340e+04 2.745e-09
 89.29015    -98.1 1.251e+04 1.921e-09
 89.30503    -98.7 1.274e+04 1.846e-09
 89.31875    -99.6 1.318e+04 1.983e-09
 89.33087    -99.6 1.208e+04 1.322e-09
 89.34734   -100.2 1.245e+04 1.530e-09
 89.35947   -100.0 1.150e+04 1.057e-09
 89.36838   -100.0 1.184e+04 1.251e-09
 89.37865    -99.8 1.141e+04 1.110e-09
 89.38807    -99.7 1.083e+04 8.511e-10
 89.40206    -99.2 1.101e+04 9.494e-10
 89.41667    -98.7 1.129e+04 1.036e-09
 89.42880    -98.6 1.069e+04 7.733e-10
 89.44527    -97.8 1.088e+04 8.369e-10
 89.45740    -97.6 1.041e+04 6.525e-10
 89.47387    -97.1 1.051e+04 6.609e-10
 89.48600    -96.8 1.019e+04 5.533e-10
 89.49909    -96.2 1.034e+04 5.137e-10
 89.51460    -95.9 1.038e+04 5.199e-10
 89.52673    -95.6 1.008e+04 4.442e-10
 89.54320    -94.7 1.010e+04 4.520e-10
 89.55532    -94.4 9.873e+03 4.031e-10
 89.57179    -94.3 1.002e+04 4.100e-10
 89.59605    -94.1 1.065e+04 4.912e-10
 89.61252    -96.4 1.351e+04 1.049e-09
 89.62465    -95.4 1.266e+04 7.651e-10
 89.64112    -98.9 1.515e+04 2.375e-09
 89.65325    -98.3 1.485e+04 1.783e-09
 89.66889   -100.1 1.572e+04 5.304e-09
 89.68185    -99.5 1.659e+04 1.182e-08
 89.69398    -99.9 1.613e+04 9.652e-09
 89.71045    -97.7 1.720e+04 1.463e-08
 89.72258    -97.9 1.644e+04 1.160e-08
 89.73905    -96.5 1.696e+04 1.291e-08
 89.75118    -96.8 1.639e+04 1.027e-08
 89.76592    -96.4 1.610e+04 6.808e-09
 89.77977    -98.2 1.494e+04 3.193e-09
 89.79190    -98.1 1.430e+04 2.966e-09
 89.80837   -101.1 1.217e+04 1.292e-09
 89.82050   -100.4 1.220e+04 1.291e-09
 89.83697   -102.2 1.030e+04 6.872e-10
 89.84910   -101.6 1.024e+04 6.270e-10
 89.86295   -101.5 9.699e+03 4.953e-10
 89.87780   -101.1 9.464e+03 4.232e-10
 89.90215   -100.2 9.365e+03 3.599e-10
 89.93509    -98.3 8.973e+03 2.777e-10
 89.95935    -97.2 8.904e+03 2.458e-10
 89.99229    -95.1 8.660e+03 2.172e-10
 90.01655    -93.9 8.662e+03 2.147e-10
 90.04507    -91.8 8.606e+03 2.102e-10
 90.07375    -89.7 8.615e+03 2.068e-10
 90.09800    -88.6 8.738e+03 2.226e-10
 90.13095    -86.6 8.745e+03 2.122e-10
 90.15520    -85.9 8.971e+03 2.530e-10
 90.18814    -84.4 9.042e+03 2.447e-10
 90.21240    -84.2 9.562e+03 3.590e-10
 90.23913    -83.6 9.934e+03 3.977e-10
 90.26960    -84.6 1.084e+04 6.214e-10
 90.29386    -84.8 1.141e+04 8.841e-10
 90.32680    -84.1 1.209e+04 1.701e-09
 90.35105    -84.9 1.232e+04 1.816e-09
 90.36743    -83.4 1.263e+04 2.313e-09
 90.37946    -83.9 1.264e+04 2.344e-09
 90.39593    -83.1 1.272e+04 2.398e-09
 90.40806    -83.4 1.270e+04 2.391e-09
 90.42086    -82.5 1.270e+04 2.135e-09
 90.43666    -81.8 1.242e+04 1.837e-09
 90.44878    -82.3 1.224e+04 1.790e-09
 90.46535    -81.6 1.201e+04 1.233e-09
 90.47748    -82.4 1.201e+04 1.270e-09
 90.49364    -82.1 1.185e+04 1.187e-09
 90.52255    -81.6 1.151e+04 9.192e-10
 90.54681    -81.8 1.123e+04 8.017e-10
 90.56318    -81.0 1.102e+04 7.518e-10
 90.57531    -81.0 1.081e+04 6.410e-10
 90.59066    -80.5 1.081e+04 6.182e-10
 90.60401    -79.3 1.092e+04 7.513e-10
 90.61613    -79.5 1.049e+04 5.145e-10
 90.63251    -78.4 1.059e+04 5.596e-10
 90.64464    -78.5 1.040e+04 4.408e-10
 90.66120    -77.2 1.064e+04 5.520e-10
 90.67333    -77.8 1.024e+04 3.798e-10
 90.68769    -77.1 1.036e+04 4.094e-10
 90.70183    -75.9 1.055e+04 4.930e-10
 90.71396    -76.2 1.045e+04 4.217e-10
 90.73043    -75.3 1.057e+04 4.818e-10
 90.74256    -75.3 1.050e+04 4.309e-10
 90.75903    -74.2 1.069e+04 4.881e-10
 90.77116    -74.1 1.065e+04 4.572e-10
 90.78472    -72.9 1.073e+04 5.066e-10
 90.79976    -71.8 1.085e+04 5.687e-10
 90.81189    -72.0 1.082e+04 5.340e-10
 90.82836    -70.9 1.102e+04 6.255e-10
 90.84049    -71.2 1.099e+04 6.050e-10
 90.85696    -70.2 1.120e+04 7.255e-10
 90.86909    -70.5 1.118e+04 7.141e-10
 90.88175    -69.6 1.138e+04 8.553e-10
 90.89768    -68.4 1.158e+04 1.029e-09
 90.90981    -68.9 1.157e+04 1.026e-09
 90.92628    -67.7 1.200e+04 1.288e-09
 90.93841    -68.1 1.199e+04 1.289e-09
 90.95452    -67.3 1.254e+04 1.676e-09
 90.96701    -66.4 1.305e+04 2.161e-09
 90.97914    -67.0 1.272e+04 1.980e-09
 90.99561    -66.1 1.334e+04 2.533e-09
 91.00101    -66.6 1.283e+04 1.986e-09
 91.00844    -66.5 1.273e+04 1.824e-09
 91.02421    -66.2 1.361e+04 2.355e-09
 91.03634    -66.8 1.301e+04 1.652e-09
 91.05155    -67.6 1.423e+04 2.351e-09
 91.06494    -69.7 1.625e+04 4.626e-09
 91.07707    -71.7 1.512e+04 3.296e-09
 91.09354    -73.5 1.653e+04 6.853e-09
 91.10566    -74.0 1.534e+04 5.024e-09
 91.12213    -73.6 1.653e+04 8.797e-09
 91.13426    -73.2 1.520e+04 5.737e-09
 91.14858    -72.2 1.516e+04 5.672e-09
 91.16286    -71.3 1.485e+04 4.812e-09
 91.17499    -71.2 1.370e+04 2.920e-09
 91.19146    -71.3 1.319e+04 2.039e-09
 91.20359    -71.4 1.243e+04 1.368e-09
 91.22006    -72.2 1.209e+04 1.019e-09
 91.23219    -72.0 1.163e+04 7.939e-10
 91.24561    -72.2 1.128e+04 6.616e-10
 91.26079    -72.2 1.114e+04 6.195e-10
 91.27292    -71.5 1.100e+04 5.783e-10
 91.28939    -71.1 1.089e+04 5.598e-10
 91.30152    -70.3 1.087e+04 5.444e-10
 91.31799    -70.0 1.092e+04 5.505e-10
 91.33011    -69.4 1.092e+04 5.469e-10
 91.34264    -68.9 1.089e+04 5.490e-10
 91.35871    -68.7 1.093e+04 5.573e-10
 91.37084    -68.2 1.094e+04 5.637e-10
 91.38731    -67.6 1.089e+04 5.587e-10
 91.41167    -67.0 1.090e+04 5.581e-10
 91.44471    -65.9 1.090e+04 5.651e-10
 91.46896    -64.6 1.079e+04 5.577e-10
 91.50051    -64.3 1.096e+04 6.018e-10
 91.52616    -64.5 1.138e+04 7.888e-10
 91.55042    -63.5 1.130e+04 7.618e-10
 91.58336    -63.6 1.155e+04 9.687e-10
 91.60762    -62.5 1.145e+04 9.178e-10
 91.64056    -62.3 1.118e+04 7.948e-10
 91.66481    -61.1 1.106e+04 7.311e-10
 91.69456    -61.0 1.057e+04 4.633e-10
 91.72201    -61.4 1.012e+04 2.637e-10
 91.74627    -60.4 1.007e+04 2.564e-10
 91.77921    -60.9 9.618e+03 1.775e-10
 91.80347    -59.9 9.587e+03 1.800e-10
 91.83641    -59.6 9.352e+03 1.707e-10
 91.86067    -58.5 9.429e+03 1.745e-10
 91.88862    -57.6 9.390e+03 1.787e-10
 91.91786    -56.7 9.383e+03 1.845e-10
 91.94212    -55.7 9.410e+03 1.767e-10
 91.97506    -54.9 9.361e+03 1.811e-10
 91.99932    -53.8 9.367e+03 1.742e-10
 92.03226    -53.1 9.336e+03 1.824e-10
 92.05652    -51.9 9.355e+03 1.801e-10
 92.08268    -51.1 9.376e+03 1.852e-10
 92.11372    -50.2 9.351e+03 1.731e-10
 92.13797    -49.0 9.414e+03 1.846e-10
 92.17091    -48.2 9.356e+03 1.537e-10
 92.19517    -47.0 9.437e+03 1.734e-10
 92.22811    -46.3 9.340e+03 1.311e-10
 92.27663    -44.7 9.252e+03 1.133e-10
 92.30957    -44.0 9.095e+03 8.145e-11
 92.33382    -42.8 9.141e+03 1.049e-10
 92.36676    -41.9 9.034e+03 7.358e-11
 92.39102    -40.6 9.094e+03 9.142e-11
 92.42228    -39.7 9.007e+03 6.213e-11
 92.44822    -38.8 8.813e+03 5.056e-11
 92.47248    -37.7 8.979e+03 5.349e-11
 92.50542    -36.8 8.846e+03 5.144e-11
 92.52967    -35.7 8.939e+03 5.714e-11
 92.56262    -34.7 8.899e+03 5.800e-11
 92.58687    -33.6 8.953e+03 6.639e-11
 92.61634    -32.4 8.913e+03 6.830e-11
 92.64407    -31.0 8.876e+03 7.119e-11
 92.66833    -29.8 8.923e+03 7.370e-11
 92.70127    -28.4 8.863e+03 7.110e-11
 92.72553    -27.1 8.918e+03 7.108e-11
 92.75847    -25.8 8.848e+03 6.566e-11
 92.78272    -24.5 8.946e+03 6.571e-11
 92.81040    -23.3 8.866e+03 6.010e-11
 92.83992    -22.3 8.890e+03 5.571e-11
 92.86418    -21.2 9.080e+03 6.450e-11
 92.89712    -20.1 9.076e+03 6.153e-11
 92.92138    -19.0 9.234e+03 8.550e-11
 92.95432    -17.9 9.189e+03 8.006e-11
 92.97858    -16.6 9.303e+03 1.120e-10
 93.00445    -15.5 9.243e+03 9.569e-11
 93.03577    -14.5 9.168e+03 8.019e-11
 93.06003    -13.3 9.325e+03 1.093e-10
 93.09297    -12.5 9.272e+03 8.988e-11
 93.11723    -11.4 9.489e+03 1.358e-10
 93.15000    -10.9 9.422e+03 1.140e-10
 93.19851     -9.6 9.585e+03 1.396e-10
 93.23162     -9.6 9.502e+03 1.143e-10
 93.25588     -9.1 9.823e+03 1.657e-10
 93.28882     -9.3 9.943e+03 1.901e-10
 93.31308     -8.7 1.018e+04 2.652e-10
 93.34406     -8.8 1.021e+04 2.926e-10
 93.37028     -8.6 1.027e+04 3.203e-10
 93.39454     -7.9 1.035e+04 3.453e-10
 93.42748     -7.8 1.031e+04 3.145e-10
 93.45173     -7.1 1.033e+04 3.059e-10
 93.48467     -7.3 1.028e+04 2.709e-10
 93.50893     -6.6 1.029e+04 2.686e-10
 93.53811     -7.1 1.039e+04 2.772e-10
 93.56613     -7.7 1.060e+04 3.151e-10
 93.59039     -6.9 1.077e+04 3.483e-10
 93.62333     -7.1 1.099e+04 3.648e-10
 93.64758     -6.2 1.111e+04 3.715e-10
 93.68053     -7.2 1.120e+04 3.275e-10
 93.70478     -6.9 1.146e+04 3.228e-10
 93.73217     -8.6 1.142e+04 2.965e-10
 93.76198    -10.0 1.125e+04 2.983e-10
 93.78624     -9.8 1.140e+04 3.475e-10
 93.81918    -10.9 1.136e+04 3.413e-10
 93.84334    -11.0 1.137e+04 3.716e-10
 93.85971    -11.9 1.141e+04 3.808e-10
 93.87184    -12.2 1.149e+04 4.135e-10
 93.88831    -13.4 1.160e+04 4.536e-10
 93.90044    -13.7 1.166e+04 4.875e-10
 93.91390    -14.6 1.158e+04 5.149e-10
 93.92904    -15.2 1.137e+04 5.351e-10
 93.94117    -15.2 1.129e+04 4.905e-10
 93.95764    -15.5 1.102e+04 3.898e-10
 93.98199    -16.0 1.088e+04 3.069e-10
 94.01503    -17.5 1.095e+04 2.135e-10
 94.03929    -19.2 1.107e+04 1.918e-10
 94.05566    -21.2 1.144e+04 2.071e-10
 94.06769    -23.4 1.196e+04 2.590e-10
 94.08371    -26.6 1.188e+04 4.875e-10
 94.09629    -27.3 1.183e+04 8.833e-10
 94.10842    -27.0 1.201e+04 1.212e-09
 94.12489    -26.9 1.246e+04 1.480e-09
 94.13702    -26.5 1.280e+04 1.634e-09
 94.15349    -27.7 1.344e+04 1.714e-09
 94.16562    -28.3 1.382e+04 1.765e-09
 94.18073    -36.5 1.680e+04 2.573e-09
 94.19422    -43.1 1.768e+04 6.716e-09
 94.20634    -43.2 1.709e+04 6.728e-09
 94.22281    -43.9 1.639e+04 8.942e-09
 94.23494    -43.4 1.629e+04 8.555e-09
 94.25141    -42.9 1.573e+04 6.944e-09
 94.26220    -42.7 1.582e+04 6.490e-09
 94.26429    -42.3 1.538e+04 5.480e-09
 94.27776    -43.5 1.540e+04 3.696e-09
 94.29214    -45.9 1.451e+04 1.966e-09
 94.30427    -45.5 1.414e+04 1.971e-09
 94.32074    -47.7 1.291e+04 1.280e-09
 94.33287    -46.9 1.294e+04 1.372e-09
 94.34944    -48.1 1.193e+04 7.858e-10
 94.37379    -46.3 1.229e+04 9.959e-10
 94.40673    -47.0 1.177e+04 6.240e-10
 94.43089    -46.0 1.204e+04 7.376e-10
 94.45979    -45.6 1.167e+04 5.945e-10
 94.48819    -45.4 1.139e+04 5.897e-10
 94.51244    -44.0 1.156e+04 6.023e-10
 94.54539    -43.8 1.143e+04 5.980e-10
 94.56964    -43.2 1.185e+04 6.920e-10
 94.60258    -43.5 1.209e+04 8.387e-10
 94.62684    -44.2 1.297e+04 1.232e-09
 94.64172    -45.0 1.297e+04 1.444e-09
 94.65524    -45.2 1.303e+04 1.567e-09
 94.66737    -45.8 1.358e+04 2.088e-09
 94.68384    -45.8 1.382e+04 2.246e-09
 94.69597    -46.4 1.461e+04 3.318e-09
 94.71244    -46.4 1.477e+04 3.357e-09
 94.72457    -46.8 1.543e+04 4.396e-09
 94.73865    -47.0 1.515e+04 3.934e-09
 94.75317    -47.4 1.485e+04 3.418e-09
 94.76530    -48.1 1.499e+04 3.554e-09
 94.78177    -48.2 1.451e+04 3.161e-09
 94.79390    -48.7 1.428e+04 3.007e-09
 94.81037    -48.2 1.376e+04 2.679e-09
 94.82250    -48.4 1.336e+04 2.276e-09
 94.83568    -47.7 1.322e+04 1.873e-09
 94.85110    -47.1 1.310e+04 1.663e-09
 94.86322    -47.4 1.272e+04 1.271e-09
 94.87969    -47.1 1.254e+04 1.120e-09
 94.89182    -47.5 1.207e+04 8.525e-10
 94.90829    -47.5 1.206e+04 8.359e-10
 94.92042    -47.7 1.170e+04 7.122e-10
 94.93699    -47.2 1.211e+04 8.802e-10
 94.96135    -46.8 1.161e+04 7.063e-10
 94.99355    -46.5 1.210e+04 1.035e-09
 95.01854    -45.9 1.265e+04 1.499e-09
 95.04280    -44.9 1.235e+04 1.387e-09
 95.07574    -44.4 1.268e+04 1.598e-09
 95.10000    -43.3 1.240e+04 1.455e-09
 95.13294    -42.7 1.225e+04 1.273e-09
 95.15720    -41.5 1.213e+04 1.251e-09
 95.18760    -40.9 1.179e+04 9.731e-10
 95.21439    -40.3 1.139e+04 7.136e-10
 95.23865    -39.3 1.159e+04 8.405e-10
 95.27159    -38.6 1.150e+04 7.134e-10
 95.29585    -37.6 1.158e+04 7.996e-10
 95.32879    -36.7 1.176e+04 7.665e-10
 95.35305    -35.9 1.168e+04 7.770e-10
 95.38166    -35.1 1.193e+04 7.915e-10
 95.41025    -34.1 1.198e+04 8.260e-10
 95.43450    -33.6 1.168e+04 7.209e-10
 95.46744    -33.0 1.181e+04 7.856e-10
 95.49170    -32.9 1.129e+04 5.707e-10
 95.52464    -33.4 1.146e+04 7.055e-10
 95.54890    -34.4 1.050e+04 4.668e-10
 95.56349    -35.0 1.182e+04 7.355e-10
 95.57730    -36.7 1.217e+04 9.125e-10
 95.58943    -37.6 1.154e+04 7.183e-10
 95.60590    -39.9 1.156e+04 7.649e-10
 95.61803    -41.4 1.126e+04 7.174e-10
 95.63450    -43.8 1.251e+04 8.957e-10
 95.64663    -44.0 1.156e+04 8.048e-10
 95.66043    -46.2 1.259e+04 8.772e-10
 95.67523    -49.5 1.933e+04 1.771e-09
 95.68736    -49.9 1.679e+04 8.499e-10
 95.70383    -51.7 2.005e+04 2.204e-09
 95.71596    -52.9 1.750e+04 8.687e-10
 95.73243    -52.4 2.071e+04 1.968e-09
 95.74456    -55.6 1.761e+04 6.634e-10
 95.75745    -58.5 2.544e+04 1.668e-09
 95.77315    -66.1 3.243e+04 5.031e-09
 95.78528    -71.1 3.487e+04 1.924e-09
 95.80175    -76.5 3.510e+04 4.915e-09
 95.81388    -79.2 3.516e+04 1.036e-09
 95.83023    -85.9 2.778e+04 3.104e-09
 95.84248    -95.1 2.237e+04 5.072e-09
 95.85461    -94.5 1.896e+04 1.822e-09
 95.87108    -98.3 1.865e+04 2.686e-09
 95.88321    -98.0 1.638e+04 1.058e-09
 95.89222   -101.2 1.699e+04 2.049e-09
 95.90103    -97.7 1.410e+04 5.951e-10
 95.91181    -98.0 1.287e+04 3.029e-10
 95.92725   -100.9 1.570e+04 7.185e-10
 95.94041   -102.8 1.697e+04 2.068e-09
 95.95254   -103.6 1.678e+04 1.297e-09
 95.96901   -105.0 1.754e+04 3.941e-09
 95.98113   -105.7 1.721e+04 2.989e-09
 95.99760   -106.6 1.854e+04 7.408e-09
 96.00973   -107.0 1.801e+04 5.430e-09
 96.02428   -107.7 1.954e+04 1.090e-08
 96.03833   -108.5 2.054e+04 1.700e-08
 96.05046   -108.8 1.997e+04 1.281e-08
 96.06693   -110.0 2.048e+04 1.643e-08
 96.07906   -110.3 1.971e+04 1.287e-08
 96.09553   -111.7 1.957e+04 1.355e-08
 96.10766   -111.8 1.895e+04 1.157e-08
 96.12131   -113.5 1.857e+04 1.092e-08
 96.13626   -114.8 1.799e+04 9.444e-09
 96.14839   -114.9 1.794e+04 9.827e-09
 96.16486   -116.2 1.723e+04 7.789e-09
 96.17699   -115.9 1.746e+04 8.994e-09
 96.19346   -117.1 1.659e+04 6.434e-09
 96.20558   -116.6 1.686e+04 7.422e-09
 96.21834   -117.5 1.573e+04 5.104e-09
 96.23418   -118.2 1.469e+04 3.794e-09
 96.24631   -117.5 1.484e+04 4.054e-09
 96.26278   -117.9 1.414e+04 3.313e-09
 96.27491   -117.4 1.422e+04 3.159e-09
 96.29111   -117.5 1.387e+04 2.622e-09
 96.30351   -117.3 1.354e+04 2.311e-09
 96.31564   -117.1 1.330e+04 2.073e-09
 96.33211   -117.0 1.308e+04 1.881e-09
 96.34424   -116.9 1.291e+04 1.721e-09
 96.36071   -116.8 1.274e+04 1.628e-09
 96.37284   -116.9 1.260e+04 1.512e-09
 96.38814   -116.6 1.250e+04 1.495e-09
 96.40144   -116.3 1.246e+04 1.494e-09
 96.41356   -116.4 1.239e+04 1.445e-09
 96.43003   -116.1 1.242e+04 1.470e-09
 96.44216   -116.2 1.232e+04 1.408e-09
 96.45863   -115.9 1.233e+04 1.420e-09
 96.47076   -115.8 1.214e+04 1.304e-09
 96.48517   -115.5 1.211e+04 1.291e-09
 96.49936   -115.2 1.206e+04 1.225e-09
 96.51149   -115.1 1.179e+04 1.037e-09
 96.52796   -115.1 1.176e+04 9.375e-10
 96.54009   -115.2 1.142e+04 7.475e-10
 96.55656   -115.3 1.146e+04 7.319e-10
 96.56869   -115.5 1.126e+04 6.431e-10
 96.58526   -115.1 1.193e+04 8.736e-10
 96.60961   -115.2 1.121e+04 5.916e-10
 96.64255   -115.3 1.120e+04 5.897e-10
 96.66681   -115.6 1.029e+04 3.846e-10
 96.69155   -116.0 1.054e+04 4.335e-10
 96.72401   -116.1 1.069e+04 5.163e-10
 96.74826   -115.8 1.012e+04 3.668e-10
 96.78121   -115.7 1.016e+04 4.104e-10
 96.80546   -115.3 9.737e+03 3.059e-10
 96.83710   -115.3 9.759e+03 3.365e-10
 96.86266   -115.3 9.801e+03 3.721e-10
 96.88692   -114.8 9.594e+03 3.186e-10
 96.91986   -114.7 9.647e+03 3.348e-10
 96.94412   -114.1 9.485e+03 2.893e-10
 96.97706   -113.9 9.467e+03 2.854e-10
 97.00131   -113.3 9.293e+03 2.447e-10
 97.03115   -113.1 9.219e+03 2.266e-10
 97.05851   -112.9 9.159e+03 2.075e-10
 97.08277   -112.4 9.027e+03 1.771e-10
 97.11571   -112.2 8.939e+03 1.528e-10
 97.13997   -111.6 8.881e+03 1.367e-10
 97.17291   -111.3 8.774e+03 1.126e-10
 97.19716   -110.7 8.739e+03 1.066e-10
 97.22521   -110.3 8.675e+03 9.206e-11
 97.25436   -109.8 8.665e+03 8.799e-11
 97.27862   -109.1 8.651e+03 8.699e-11
 97.31156   -108.7 8.700e+03 8.801e-11
 97.33582   -108.1 8.697e+03 8.722e-11
 97.36876   -107.9 8.870e+03 1.046e-10
 97.39302   -107.3 8.876e+03 1.037e-10
 97.41927   -107.1 9.022e+03 1.270e-10
 97.45021   -106.9 9.125e+03 1.414e-10
 97.47447   -106.7 9.118e+03 1.384e-10
 97.50741   -106.5 9.132e+03 1.408e-10
 97.52358   -106.4 9.115e+03 1.411e-10
 97.53247   -107.5 9.084e+03 1.392e-10
 97.56461   -106.9 9.032e+03 1.205e-10
 97.58887   -106.5 9.009e+03 1.184e-10
 97.61333   -105.7 8.962e+03 9.206e-11
 97.64607   -105.0 8.942e+03 7.344e-11
 97.67032   -104.7 8.921e+03 6.679e-11
 97.70326   -103.9 8.905e+03 6.155e-11
 97.72752   -103.7 8.911e+03 6.122e-11
 97.75887   -103.1 8.938e+03 6.197e-11
 97.78472   -102.7 8.978e+03 7.929e-11
 97.80898   -103.0 9.041e+03 1.082e-10
 97.84192   -102.2 9.106e+03 1.592e-10
 97.86617   -102.2 9.256e+03 2.118e-10
 97.89911   -101.4 9.327e+03 2.471e-10
 97.92337   -101.9 9.454e+03 2.786e-10
 97.95293   -101.5 9.380e+03 2.717e-10
 97.98057   -101.1 9.155e+03 2.311e-10
 98.00483   -102.0 9.163e+03 2.304e-10
 98.03777   -102.0 8.985e+03 2.021e-10
 98.06203   -103.1 9.176e+03 2.584e-10
 98.09497   -102.9 9.128e+03 2.731e-10
 98.11922   -103.8 9.388e+03 3.725e-10
 98.14699   -103.4 9.347e+03 3.855e-10
 98.17642   -102.9 9.232e+03 3.702e-10
 98.20068   -104.0 9.372e+03 4.156e-10
 98.23362   -103.7 9.171e+03 3.535e-10
 98.25788   -105.3 9.260e+03 3.820e-10
 98.29082   -105.3 9.042e+03 3.329e-10
 98.31507   -107.2 9.128e+03 3.636e-10
 98.34104   -107.4 9.068e+03 3.523e-10
 98.37227   -107.9 9.119e+03 3.633e-10
 98.39653   -110.3 9.157e+03 3.865e-10
 98.42947   -111.2 9.408e+03 4.582e-10
 98.45373   -113.3 9.310e+03 4.570e-10
 98.48659   -114.0 9.361e+03 4.877e-10
 98.53510   -116.0 8.819e+03 3.396e-10
 98.56812   -116.5 8.578e+03 2.746e-10
 98.59238   -117.0 8.028e+03 1.902e-10
 98.62532   -117.4 7.787e+03 1.556e-10
 98.64958   -117.7 7.515e+03 1.257e-10
 98.68065   -117.7 7.411e+03 1.082e-10
 98.70678   -117.6 7.326e+03 9.445e-11
 98.73103   -117.2 7.254e+03 8.888e-11
 98.76398   -117.2 7.265e+03 8.720e-11
 98.78823   -117.0 7.261e+03 8.692e-11
 98.82117   -118.2 7.417e+03 9.764e-11
 98.84543   -119.6 7.710e+03 1.364e-10
 98.87470   -121.0 8.972e+03 3.205e-10
 98.90263   -122.2 1.005e+04 6.447e-10
 98.92689   -124.2 1.068e+04 8.748e-10
 98.95951   -126.6 1.118e+04 1.185e-09
 98.97176   -128.2 1.130e+04 1.279e-09
 98.98389   -130.0 1.118e+04 1.244e-09
 99.00036   -131.0 1.111e+04 1.207e-09
 99.01249   -132.6 1.077e+04 9.796e-10
 99.02896   -133.7 1.065e+04 8.993e-10
 99.04109   -135.5 1.019e+04 6.842e-10
 99.05644   -136.5 1.007e+04 6.357e-10
 99.06969   -137.4 1.003e+04 6.128e-10
 99.08181   -138.9 9.710e+03 4.903e-10
 99.09828   -139.6 9.775e+03 4.948e-10
 99.11041   -140.8 9.675e+03 4.336e-10
 99.12688   -141.4 9.733e+03 4.470e-10
 99.13901   -142.1 9.720e+03 4.183e-10
 99.14807   -142.9 9.761e+03 4.350e-10
 99.16020   -143.6 9.877e+03 4.926e-10
 99.16761   -144.3 9.906e+03 5.056e-10
 99.17974   -145.0 9.835e+03 4.771e-10
 99.19621   -145.8 9.890e+03 5.036e-10
 99.20834   -146.3 9.837e+03 4.723e-10
 99.22481   -146.8 9.909e+03 4.847e-10
 99.23704   -146.8 9.820e+03 4.337e-10
 99.26282   -148.1 9.894e+03 4.253e-10
 99.29433   -149.6 9.816e+03 3.932e-10
 99.31859   -150.9 9.657e+03 3.608e-10
 99.35153   -152.4 9.365e+03 3.020e-10
 99.37579   -154.0 9.353e+03 2.987e-10
 99.40836   -155.3 9.109e+03 2.498e-10
 99.43298   -156.3 8.858e+03 2.090e-10
 99.45724   -157.6 9.233e+03 2.662e-10
 99.49018   -157.9 8.942e+03 2.310e-10
 99.51444   -158.7 9.384e+03 3.234e-10
 99.54738   -158.7 9.113e+03 2.769e-10
 99.57164   -159.3 9.390e+03 3.476e-10
 99.60242   -159.1 9.081e+03 2.856e-10
 99.62884   -158.8 8.863e+03 2.373e-10
 99.65309   -159.0 8.964e+03 2.720e-10
 99.68603   -158.6 8.822e+03 2.353e-10
 99.71029   -158.4 8.919e+03 2.655e-10
 99.74323   -157.8 8.810e+03 2.310e-10
 99.76749   -157.4 8.900e+03 2.516e-10
 99.79648   -156.7 8.784e+03 2.100e-10
 99.82469   -155.9 8.718e+03 1.778e-10
 99.84894   -155.3 8.779e+03 1.893e-10
 99.88188   -154.4 8.810e+03 1.782e-10
 99.90614   -153.8 8.905e+03 1.972e-10
 99.93908   -152.7 8.944e+03 1.943e-10
 99.96334   -152.1 9.029e+03 2.180e-10
 99.99054   -151.0 9.042e+03 2.110e-10
