# Columns:
#   distance along LOS (in CHIMPs)
#   peculiar velocity  (in km/s)
#   temperature (K)
#   HI number density
# pos=(177.008,61.7116,74.8483), angles=(1.73637,2.96913)
  0.00082     97.6 1.203e+04 1.001e-09
  0.01872     99.3 1.196e+04 8.860e-10
  0.03882     97.5 1.119e+04 5.050e-10
  0.06193     99.3 1.110e+04 4.360e-10
  0.08779    101.1 1.111e+04 4.197e-10
  0.10789    100.4 1.106e+04 3.991e-10
  0.13219    101.5 1.101e+04 4.034e-10
  0.14657    102.3 1.102e+04 4.279e-10
  0.15662    101.5 1.073e+04 3.674e-10
  0.17229    102.3 1.078e+04 4.058e-10
  0.19239    103.0 1.094e+04 4.743e-10
  0.20715    103.7 1.113e+04 5.600e-10
  0.21720    103.2 1.107e+04 5.610e-10
  0.23259    104.0 1.122e+04 6.596e-10
  0.25269    104.7 1.137e+04 7.725e-10
  0.26456    105.4 1.152e+04 8.951e-10
  0.27461    105.0 1.147e+04 8.398e-10
  0.29289    105.8 1.163e+04 9.515e-10
  0.31299    106.4 1.178e+04 1.066e-09
  0.32670    107.1 1.193e+04 1.190e-09
  0.33675    106.6 1.180e+04 1.089e-09
  0.35319    107.1 1.199e+04 1.231e-09
  0.37251    107.5 1.223e+04 1.424e-09
  0.38256    107.3 1.211e+04 1.218e-09
  0.39339    107.6 1.243e+04 1.466e-09
  0.41349    107.7 1.290e+04 1.872e-09
  0.43359    107.8 1.350e+04 2.525e-09
  0.44625    107.9 1.421e+04 3.515e-09
  0.45630    107.8 1.396e+04 3.180e-09
  0.47379    108.2 1.467e+04 4.327e-09
  0.49050    108.5 1.538e+04 5.647e-09
  0.50055    107.9 1.504e+04 4.577e-09
  0.51399    108.0 1.558e+04 5.653e-09
  0.53409    107.8 1.595e+04 6.119e-09
  0.55419    107.4 1.600e+04 6.092e-09
  0.56581    106.8 1.594e+04 5.838e-09
  0.57586    106.7 1.550e+04 5.066e-09
  0.59439    106.2 1.545e+04 4.826e-09
  0.60850    105.7 1.530e+04 4.428e-09
  0.61855    105.0 1.406e+04 2.542e-09
  0.63459    104.4 1.369e+04 2.127e-09
  0.65469    103.9 1.318e+04 1.701e-09
  0.67480    103.3 1.256e+04 1.304e-09
  0.68536    102.9 1.187e+04 9.808e-10
  0.69541    103.1 1.166e+04 8.558e-10
  0.71500    102.7 1.097e+04 6.459e-10
  0.72649    102.3 1.037e+04 5.067e-10
  0.73654    101.4 9.548e+03 3.719e-10
  0.75520    101.3 9.415e+03 3.485e-10
  0.77530    101.4 9.351e+03 3.411e-10
  0.79486    101.4 9.357e+03 3.422e-10
  0.80491    101.9 9.383e+03 3.418e-10
  0.81550    101.8 9.446e+03 3.505e-10
  0.83444    101.3 9.714e+03 3.975e-10
  0.84449    100.9 9.386e+03 3.732e-10
  0.85570     99.8 9.838e+03 4.813e-10
  0.87580     98.5 1.057e+04 7.235e-10
  0.89590     97.4 1.136e+04 1.143e-09
  0.91441     96.7 1.208e+04 1.720e-09
  0.92446     97.4 1.189e+04 1.588e-09
  0.93610     96.8 1.243e+04 2.064e-09
  0.95243     95.9 1.267e+04 2.159e-09
  0.96248     94.9 1.236e+04 1.937e-09
  0.97630     93.4 1.235e+04 1.910e-09
  0.99640     91.6 1.220e+04 1.742e-09
  1.01650     89.8 1.179e+04 1.436e-09
  1.03397     87.8 1.125e+04 1.135e-09
  1.04402     88.6 1.116e+04 1.092e-09
  1.05670     86.7 1.066e+04 8.893e-10
  1.07043     85.0 1.023e+04 7.597e-10
  1.08048     84.7 1.016e+04 7.220e-10
  1.09690     83.6 9.968e+03 6.920e-10
  1.11700     82.9 1.003e+04 7.078e-10
  1.13710     80.8 1.080e+04 8.808e-10
  1.15352     76.5 1.292e+04 1.514e-09
  1.16357     76.6 1.264e+04 1.350e-09
  1.17223     72.6 1.442e+04 2.156e-09
  1.18223     67.9 1.715e+04 3.867e-09
  1.18832     62.9 1.963e+04 8.227e-09
  1.19335     62.6 1.923e+04 7.953e-09
  1.20233     59.1 2.042e+04 1.564e-08
  1.21238     56.2 2.246e+04 3.750e-08
  1.21822     52.8 2.420e+04 1.345e-07
  1.22325     55.2 2.347e+04 8.111e-08
  1.23248     50.7 2.459e+04 2.126e-07
  1.24229     45.0 2.524e+04 2.599e-07
  1.24732     46.5 2.567e+04 1.475e-07
  1.25258     41.8 2.602e+04 1.317e-07
  1.26263     36.7 2.719e+04 8.901e-08
  1.27268     31.4 2.764e+04 5.465e-08
  1.27800     27.0 2.678e+04 3.842e-08
  1.28303     30.9 2.658e+04 3.989e-08
  1.29278     27.3 2.616e+04 3.126e-08
  1.30129     25.0 2.525e+04 2.599e-08
  1.30632     26.8 2.550e+04 2.698e-08
  1.31288     25.5 2.451e+04 2.367e-08
  1.32293     24.0 2.368e+04 2.161e-08
  1.33805     24.1 2.187e+04 1.912e-08
  1.35820     23.5 1.868e+04 1.494e-08
  1.37830     23.9 1.702e+04 1.089e-08
  1.39263     24.7 1.634e+04 6.748e-09
  1.40268     26.1 1.679e+04 1.000e-08
  1.41436     26.6 1.636e+04 6.477e-09
  1.42441     27.2 1.675e+04 9.312e-09
  1.43860     27.6 1.610e+04 6.033e-09
  1.45870     27.5 1.503e+04 3.422e-09
  1.47880     27.0 1.341e+04 1.839e-09
  1.49891     26.6 1.175e+04 1.031e-09
  1.51218     26.5 1.046e+04 6.496e-10
  1.52223     28.2 1.156e+04 9.913e-10
  1.53235     28.0 1.039e+04 6.335e-10
  1.54240     30.1 1.163e+04 9.066e-10
  1.55921     29.5 1.035e+04 5.479e-10
  1.57931     29.6 9.480e+03 3.793e-10
  1.59941     29.8 9.277e+03 3.393e-10
  1.61951     31.5 8.745e+03 2.688e-10
  1.63173     31.6 8.783e+03 2.701e-10
  1.64178     31.8 8.723e+03 2.695e-10
  1.65045     33.6 8.307e+03 2.071e-10
  1.67064     34.2 8.449e+03 2.289e-10
  1.71015     36.3 8.376e+03 2.148e-10
  1.74143     38.5 8.197e+03 1.841e-10
  1.76153     39.4 8.307e+03 2.167e-10
  1.79055     41.5 8.185e+03 1.991e-10
  1.83075     43.5 8.133e+03 1.879e-10
  1.86643     45.4 8.112e+03 1.868e-10
  1.88653     45.4 8.306e+03 2.116e-10
  1.91116     47.2 8.299e+03 2.136e-10
  1.95136     49.1 8.315e+03 2.245e-10
  1.98054     51.0 8.367e+03 2.424e-10
  2.00064     51.6 8.824e+03 3.443e-10
  2.03176     53.3 8.889e+03 3.547e-10
  2.07196     55.0 8.945e+03 3.637e-10
  2.10242     56.8 8.997e+03 3.775e-10
  2.12252     56.5 9.001e+03 3.831e-10
  2.14221     57.8 8.999e+03 4.017e-10
  2.16221     58.4 9.052e+03 4.291e-10
  2.18231     59.4 9.166e+03 4.908e-10
  2.20241     60.5 9.324e+03 5.603e-10
  2.21945     61.5 9.515e+03 6.377e-10
  2.22721     61.6 9.695e+03 7.147e-10
  2.23027     61.4 9.899e+03 7.893e-10
  2.24261     62.3 1.014e+04 8.994e-10
  2.26271     63.2 1.039e+04 1.014e-09
  2.28281     64.0 1.072e+04 1.148e-09
  2.30292     64.5 1.108e+04 1.303e-09
  2.32302     64.8 1.144e+04 1.481e-09
  2.33822     65.1 1.178e+04 1.692e-09
  2.34415     64.0 1.257e+04 2.325e-09
  2.34905     64.2 1.290e+04 2.615e-09
  2.36322     64.6 1.298e+04 2.738e-09
  2.38332     64.9 1.301e+04 2.761e-09
  2.40342     64.7 1.306e+04 2.712e-09
  2.42352     63.9 1.338e+04 2.890e-09
  2.44362     61.6 1.446e+04 3.480e-09
  2.45621     57.7 1.622e+04 5.207e-09
  2.46110     56.8 1.475e+04 3.330e-09
  2.46860     57.2 1.449e+04 3.074e-09
  2.48382     55.0 1.548e+04 4.478e-09
  2.50392     54.0 1.585e+04 5.410e-09
  2.52402     53.3 1.566e+04 5.130e-09
  2.54412     53.2 1.496e+04 3.946e-09
  2.56416     52.5 1.407e+04 2.515e-09
  2.59441     49.8 1.168e+04 1.071e-09
  2.63476     49.5 1.149e+04 1.038e-09
  2.67496     50.2 1.151e+04 1.105e-09
  2.69786     51.2 1.164e+04 1.142e-09
  2.71796     53.2 1.227e+04 1.477e-09
  2.75537     54.5 1.239e+04 1.531e-09
  2.79029     56.0 1.226e+04 1.284e-09
  2.81039     54.9 1.167e+04 9.435e-10
  2.83577     55.7 1.112e+04 6.093e-10
  2.87597     55.9 1.076e+04 4.752e-10
  2.91617     56.3 1.078e+04 4.990e-10
  2.93696     56.6 1.106e+04 6.807e-10
  2.95706     58.1 1.103e+04 6.330e-10
  2.99657     58.2 1.138e+04 8.998e-10
  3.02618     57.9 1.171e+04 1.264e-09
  3.03614     57.9 1.193e+04 1.364e-09
  3.04627     57.8 1.226e+04 1.705e-09
  3.05632     58.2 1.234e+04 1.680e-09
  3.06672     58.3 1.265e+04 2.026e-09
  3.08682     58.4 1.263e+04 2.034e-09
  3.10692     58.7 1.232e+04 1.870e-09
  3.12703     59.1 1.181e+04 1.466e-09
  3.14408     59.2 1.129e+04 1.013e-09
  3.15413     59.2 1.150e+04 1.143e-09
  3.16582     59.0 1.106e+04 7.634e-10
  3.17587     60.0 1.122e+04 8.955e-10
  3.18733     59.3 1.079e+04 5.611e-10
  3.20743     57.8 1.021e+04 3.570e-10
  3.22753     56.3 9.646e+03 2.585e-10
  3.24763     55.3 9.342e+03 2.209e-10
  3.26208     54.3 9.518e+03 2.328e-10
  3.27213     55.7 9.594e+03 2.511e-10
  3.28538     53.1 1.030e+04 3.075e-10
  3.29543     54.3 1.019e+04 3.075e-10
  3.30793     50.8 1.110e+04 4.943e-10
  3.32803     47.4 1.169e+04 9.599e-10
  3.34813     45.2 1.237e+04 1.778e-09
  3.36823     44.1 1.288e+04 2.514e-09
  3.38007     43.5 1.282e+04 2.473e-09
  3.39012     43.3 1.327e+04 2.995e-09
  3.40493     42.2 1.299e+04 2.463e-09
  3.41498     42.3 1.310e+04 2.569e-09
  3.42853     40.3 1.249e+04 1.578e-09
  3.44863     37.2 1.139e+04 8.541e-10
  3.46873     34.0 1.022e+04 5.042e-10
  3.48802     31.5 9.899e+03 3.807e-10
  3.49807     30.2 9.952e+03 3.832e-10
  3.50893     28.8 1.002e+04 3.773e-10
  3.52448     27.3 1.013e+04 3.936e-10
  3.53453     26.9 9.923e+03 3.147e-10
  3.54913     26.3 9.720e+03 3.860e-10
  3.56923     26.4 9.783e+03 4.304e-10
  3.58933     26.6 9.830e+03 4.742e-10
  3.60601     26.8 9.833e+03 4.769e-10
  3.61606     26.6 9.813e+03 4.455e-10
  3.63408     26.7 9.855e+03 3.852e-10
  3.65428     26.4 9.785e+03 4.185e-10
  3.67998     26.3 9.743e+03 3.943e-10
  3.71415     26.7 9.612e+03 3.439e-10
  3.73425     26.7 9.681e+03 3.381e-10
  3.76038     27.3 9.673e+03 3.137e-10
  3.80058     27.7 9.667e+03 2.760e-10
  3.84078     27.8 9.726e+03 2.655e-10
  3.87083     27.5 9.873e+03 3.177e-10
  3.88314     27.5 9.937e+03 3.335e-10
  3.89329     27.5 1.012e+04 3.778e-10
  3.91103     26.5 1.071e+04 5.543e-10
  3.93104     25.5 1.126e+04 7.146e-10
  3.94995     24.0 1.186e+04 9.983e-10
  3.96000     23.7 1.220e+04 1.334e-09
  3.97124     24.0 1.228e+04 1.920e-09
  3.99134     24.9 1.273e+04 2.319e-09
  4.00269     24.8 1.353e+04 2.311e-09
  4.01274     25.8 1.336e+04 2.274e-09
  4.03154     23.6 1.412e+04 2.151e-09
  4.05164     19.9 1.382e+04 2.325e-09
  4.06794     16.6 1.351e+04 2.581e-09
  4.07794     16.3 1.382e+04 2.965e-09
  4.08671     14.1 1.397e+04 3.397e-09
  4.09676     13.5 1.440e+04 3.681e-09
  4.10681     11.5 1.538e+04 4.352e-09
  4.11686     10.1 1.676e+04 5.014e-09
  4.12215      7.7 1.797e+04 5.669e-09
  4.12710      8.9 1.744e+04 5.885e-09
  4.13187      6.7 1.924e+04 9.743e-09
  4.13696      5.5 1.983e+04 1.095e-08
  4.14702      3.1 1.949e+04 1.125e-08
  4.15707      2.2 1.970e+04 1.325e-08
  4.17219      0.9 1.889e+04 1.297e-08
  4.18594     -0.9 1.871e+04 1.668e-08
  4.19599     -1.9 1.932e+04 2.035e-08
  4.21244     -1.9 1.933e+04 2.138e-08
  4.23175     -1.6 1.917e+04 2.166e-08
  4.24180     -1.3 1.971e+04 2.683e-08
  4.24488     -0.3 1.971e+04 3.059e-08
  4.24986     -0.6 1.960e+04 2.600e-08
  4.25757     -0.1 1.944e+04 2.386e-08
  4.26762      0.2 1.916e+04 1.820e-08
  4.27767      0.4 1.881e+04 1.507e-08
  4.29279      0.7 1.848e+04 1.172e-08
  4.30393      0.1 1.736e+04 6.233e-09
  4.31398     -1.7 1.624e+04 3.531e-09
  4.33304     -3.1 1.456e+04 1.754e-09
  4.35130     -4.2 1.300e+04 1.112e-09
  4.36135     -2.3 1.426e+04 1.767e-09
  4.37324     -3.0 1.274e+04 1.211e-09
  4.39334     -2.6 1.229e+04 1.065e-09
  4.41188     -2.3 1.207e+04 1.018e-09
  4.42202     -2.0 1.236e+04 1.246e-09
  4.44379     -0.4 1.212e+04 1.121e-09
  4.48399      1.5 1.195e+04 1.049e-09
  4.52419      3.2 1.170e+04 9.468e-10
  4.56439      5.1 1.139e+04 7.789e-10
  4.59060      6.8 1.106e+04 5.826e-10
  4.61070      8.2 1.136e+04 7.546e-10
  4.63464      8.9 1.113e+04 5.950e-10
  4.64786      9.3 1.102e+04 5.699e-10
  4.65791      9.5 1.091e+04 4.879e-10
  4.67474     10.2 1.084e+04 4.406e-10
  4.69484     10.5 1.076e+04 4.324e-10
  4.72509     12.1 1.085e+04 4.596e-10
  4.76539     13.4 1.079e+04 5.233e-10
  4.80559     14.7 1.069e+04 5.565e-10
  4.82971     15.9 1.050e+04 5.088e-10
  4.84981     17.2 1.077e+04 6.847e-10
  4.87400     18.4 1.049e+04 5.348e-10
  4.89410     18.4 1.046e+04 4.784e-10
  4.92619     19.2 1.044e+04 4.688e-10
  4.96639     19.9 1.035e+04 4.463e-10
  5.00659     21.1 1.027e+04 4.473e-10
  5.04679     22.4 1.010e+04 4.230e-10
  5.06882     23.8 9.899e+03 3.478e-10
  5.08892     24.9 9.861e+03 3.071e-10
  5.10999     26.2 9.814e+03 3.164e-10
  5.13009     26.3 9.780e+03 2.998e-10
  5.16740     27.6 9.601e+03 2.735e-10
  5.20760     29.0 9.400e+03 2.668e-10
  5.24780     30.5 9.351e+03 2.532e-10
  5.28782     31.7 9.388e+03 2.503e-10
  5.32570     34.0 9.460e+03 3.056e-10
  5.34598     34.1 9.405e+03 3.007e-10
  5.36840     36.2 9.485e+03 3.351e-10
  5.40860     37.9 9.633e+03 3.544e-10
  5.44880     39.1 9.822e+03 3.842e-10
  5.47885     39.4 1.013e+04 4.774e-10
  5.49885     39.5 1.041e+04 5.910e-10
  5.51895     39.7 1.069e+04 7.633e-10
  5.53678     40.0 1.096e+04 9.418e-10
  5.54683     40.6 1.088e+04 8.740e-10
  5.55916     40.9 1.112e+04 1.052e-09
  5.57172     41.3 1.132e+04 1.217e-09
  5.58177     41.8 1.110e+04 1.083e-09
  5.59936     41.9 1.133e+04 1.119e-09
  5.61946     41.6 1.148e+04 1.148e-09
  5.63956     41.2 1.141e+04 1.143e-09
  5.65634     41.2 1.121e+04 1.129e-09
  5.66639     41.9 1.132e+04 1.213e-09
  5.67967     42.4 1.100e+04 1.129e-09
  5.69977     42.9 1.069e+04 9.878e-10
  5.71996     43.8 1.054e+04 8.595e-10
  5.74006     44.4 1.048e+04 7.289e-10
  5.76016     44.8 1.035e+04 6.052e-10
  5.77589     44.8 1.023e+04 5.051e-10
  5.78594     45.4 1.044e+04 5.743e-10
  5.79766     46.1 1.000e+04 4.868e-10
  5.80771     45.9 1.015e+04 5.198e-10
  5.82046     45.9 1.014e+04 5.167e-10
  5.85071     47.3 1.035e+04 6.006e-10
  5.89100     48.5 1.074e+04 7.640e-10
  5.93120     48.8 1.175e+04 1.260e-09
  5.96126     49.1 1.263e+04 1.933e-09
  5.98126     50.1 1.301e+04 2.407e-09
  6.00136     51.4 1.315e+04 2.510e-09
  6.01500     52.3 1.326e+04 2.462e-09
  6.02505     52.9 1.358e+04 3.035e-09
  6.03365     53.0 1.368e+04 2.772e-09
  6.04370     52.3 1.284e+04 1.594e-09
  6.06166     52.2 1.294e+04 1.635e-09
  6.08176     51.7 1.315e+04 1.730e-09
  6.10186     51.2 1.352e+04 2.032e-09
  6.12196     50.8 1.401e+04 2.657e-09
  6.13455     50.9 1.446e+04 3.515e-09
  6.14413     51.4 1.486e+04 4.274e-09
  6.15165     51.8 1.417e+04 2.598e-09
  6.16216     52.1 1.449e+04 3.292e-09
  6.18226     52.6 1.483e+04 3.970e-09
  6.20236     52.7 1.520e+04 4.611e-09
  6.22246     52.3 1.561e+04 5.354e-09
  6.24256     51.6 1.590e+04 6.218e-09
  6.25410     51.2 1.585e+04 6.863e-09
  6.26108     51.6 1.636e+04 8.003e-09
  6.26964     51.5 1.561e+04 5.781e-09
  6.28276     51.8 1.542e+04 6.063e-09
  6.30286     51.9 1.535e+04 5.385e-09
  6.32296     47.8 1.760e+04 6.638e-09
  6.33799     44.4 1.813e+04 7.888e-09
  6.34799     43.8 1.782e+04 7.791e-09
  6.35804     42.4 1.671e+04 8.487e-09
  6.36809     42.3 1.611e+04 8.281e-09
  6.37361     43.6 1.518e+04 7.106e-09
  6.37803     44.4 1.540e+04 7.622e-09
  6.38764     43.7 1.478e+04 5.567e-09
  6.40337     43.6 1.396e+04 3.154e-09
  6.42347     42.0 1.315e+04 1.413e-09
  6.44357     38.6 1.166e+04 6.153e-10
  6.46367     36.7 9.786e+03 3.752e-10
  6.48316     36.7 9.475e+03 2.599e-10
  6.49321     36.8 9.489e+03 2.698e-10
  6.49558     37.3 9.300e+03 2.418e-10
  6.50563     37.9 9.285e+03 2.374e-10
  6.53411     40.1 8.941e+03 1.963e-10
  6.57441     42.7 8.434e+03 1.318e-10
  6.61461     45.1 8.252e+03 8.861e-11
  6.65481     46.9 8.183e+03 6.614e-11
  6.69501     48.9 8.055e+03 6.442e-11
  6.72172     50.5 8.075e+03 7.363e-11
  6.72906     50.6 8.058e+03 7.517e-11
  6.74256     51.2 8.046e+03 7.830e-11
  6.77542     52.9 8.083e+03 1.031e-10
  6.81562     54.6 8.228e+03 1.427e-10
  6.85582     55.7 8.543e+03 1.946e-10
  6.89602     55.3 9.161e+03 3.053e-10
  6.93622     54.5 1.046e+04 7.007e-10
  6.95761     55.2 1.053e+04 8.579e-10
  6.96286     55.7 1.011e+04 6.422e-10
  6.98167     56.0 9.942e+03 5.979e-10
  7.00647     56.8 9.876e+03 5.954e-10
  7.02647     57.1 9.819e+03 5.603e-10
  7.04657     57.3 9.598e+03 4.315e-10
  7.06546     57.2 9.581e+03 3.706e-10
  7.07551     57.3 9.580e+03 3.716e-10
  7.08092     57.1 9.611e+03 3.293e-10
  7.09097     57.0 9.580e+03 3.352e-10
  7.10687     56.8 9.683e+03 3.513e-10
  7.12697     55.9 1.016e+04 4.613e-10
  7.14707     56.3 1.041e+04 6.150e-10
  7.16717     56.5 1.098e+04 8.969e-10
  7.18345     57.1 1.142e+04 1.216e-09
  7.19350     57.7 1.122e+04 1.080e-09
  7.20048     58.1 1.178e+04 1.443e-09
  7.21053     58.0 1.174e+04 1.424e-09
  7.22748     58.4 1.216e+04 1.769e-09
  7.24758     59.0 1.234e+04 1.948e-09
  7.26768     59.0 1.246e+04 1.987e-09
  7.28778     59.4 1.222e+04 1.844e-09
  7.30145     59.5 1.197e+04 1.662e-09
  7.31150     59.7 1.196e+04 1.656e-09
  7.32003     60.2 1.147e+04 1.348e-09
  7.33008     60.2 1.112e+04 1.138e-09
  7.34808     60.2 1.083e+04 9.744e-10
  7.36818     60.5 1.048e+04 8.249e-10
  7.38828     60.7 1.025e+04 7.288e-10
  7.40838     61.0 1.002e+04 6.426e-10
  7.41944     61.2 9.823e+03 5.678e-10
  7.42949     61.2 9.818e+03 5.634e-10
  7.43958     61.1 9.679e+03 5.308e-10
  7.44963     61.6 9.655e+03 5.314e-10
  7.46868     61.7 9.675e+03 5.339e-10
  7.48878     61.8 9.708e+03 5.443e-10
  7.50888     62.0 9.737e+03 5.729e-10
  7.52739     62.3 9.758e+03 6.128e-10
  7.53744     62.4 9.727e+03 6.091e-10
  7.54908     63.0 9.721e+03 6.429e-10
  7.56918     64.1 1.007e+04 7.859e-10
  7.58928     64.8 1.022e+04 8.352e-10
  7.60938     65.1 1.067e+04 9.415e-10
  7.62948     65.4 1.120e+04 1.108e-09
  7.64538     66.1 1.149e+04 1.257e-09
  7.65543     66.6 1.063e+04 8.538e-10
  7.66864     67.0 1.070e+04 8.925e-10
  7.67869     67.7 1.152e+04 1.312e-09
  7.68978     68.2 1.145e+04 1.309e-09
  7.70988     68.8 1.122e+04 1.266e-09
  7.72998     69.3 1.091e+04 1.201e-09
  7.75008     69.9 1.082e+04 1.141e-09
  7.76338     70.6 1.088e+04 1.120e-09
  7.77343     70.8 1.069e+04 1.103e-09
  7.78819     71.9 1.072e+04 1.098e-09
  7.79824     72.6 1.122e+04 1.331e-09
  7.81038     73.6 1.114e+04 1.235e-09
  7.83048     74.5 1.099e+04 1.122e-09
  7.85058     75.1 1.078e+04 1.011e-09
  7.87068     75.6 1.055e+04 9.104e-10
  7.88137     75.9 1.056e+04 8.020e-10
  7.89142     76.3 1.029e+04 8.089e-10
  7.90774     76.1 1.013e+04 7.183e-10
  7.91779     77.2 1.090e+04 8.889e-10
  7.93098     74.2 1.215e+04 1.043e-09
  7.94601     64.9 1.550e+04 1.878e-09
  7.95601     62.2 1.638e+04 2.273e-09
  7.96606     52.8 1.819e+04 5.887e-09
  7.97245     52.2 1.758e+04 9.572e-09
  7.97747     51.1 1.775e+04 1.156e-08
  7.98616     50.4 1.860e+04 1.745e-08
  7.99424     50.3 1.912e+04 1.979e-08
  7.99927     49.7 1.914e+04 1.985e-08
  8.01134     48.5 1.928e+04 1.770e-08
  8.02730     46.0 1.946e+04 1.105e-08
  8.03735     41.2 2.074e+04 1.060e-08
  8.05159     34.0 1.842e+04 5.016e-09
  8.07169     27.6 1.520e+04 3.214e-09
  8.09179     26.4 1.473e+04 3.443e-09
  8.10731     26.8 1.479e+04 4.135e-09
  8.11736     27.5 1.491e+04 4.132e-09
  8.13199     28.3 1.499e+04 4.924e-09
  8.14685     29.9 1.500e+04 5.511e-09
  8.15690     29.4 1.580e+04 7.470e-09
  8.17219     31.2 1.582e+04 7.540e-09
  8.19229     32.9 1.564e+04 6.721e-09
  8.21239     34.2 1.530e+04 5.375e-09
  8.22530     35.1 1.456e+04 3.827e-09
  8.23535     35.7 1.493e+04 4.342e-09
  8.25259     35.9 1.396e+04 3.215e-09
  8.26640     36.2 1.294e+04 2.325e-09
  8.27645     35.3 1.307e+04 2.392e-09
  8.29279     36.1 1.232e+04 1.843e-09
  8.31289     37.0 1.184e+04 1.596e-09
  8.33299     38.3 1.156e+04 1.279e-09
  8.34330     39.4 1.119e+04 1.096e-09
  8.35335     39.4 1.136e+04 1.204e-09
  8.37319     40.6 1.124e+04 1.077e-09
  8.38596     41.6 1.123e+04 1.043e-09
  8.39601     41.3 1.126e+04 1.112e-09
  8.42354     42.9 1.115e+04 1.035e-09
  8.46384     44.9 1.118e+04 1.057e-09
  8.50404     46.9 1.171e+04 1.314e-09
  8.53409     47.0 1.233e+04 1.725e-09
  8.55409     47.4 1.295e+04 2.269e-09
  8.56924     48.4 1.340e+04 2.882e-09
  8.57929     48.2 1.314e+04 2.469e-09
  8.59429     49.2 1.361e+04 3.014e-09
  8.61439     50.1 1.408e+04 3.470e-09
  8.62506     50.6 1.446e+04 3.824e-09
  8.63511     49.7 1.408e+04 3.392e-09
  8.65459     49.8 1.430e+04 3.855e-09
  8.67469     50.0 1.462e+04 4.358e-09
  8.68723     50.2 1.483e+04 4.734e-09
  8.69728     49.6 1.475e+04 4.779e-09
  8.71489     50.1 1.498e+04 4.974e-09
  8.73457     50.2 1.514e+04 4.998e-09
  8.74462     49.9 1.566e+04 6.275e-09
  8.75509     50.0 1.564e+04 6.182e-09
  8.77519     50.1 1.540e+04 5.799e-09
  8.79518     50.2 1.496e+04 5.098e-09
  8.80523     50.2 1.429e+04 3.851e-09
  8.81540     50.3 1.378e+04 3.243e-09
  8.83550     50.3 1.338e+04 2.786e-09
  8.85412     50.7 1.300e+04 2.375e-09
  8.86417     50.2 1.284e+04 2.163e-09
  8.87570     50.5 1.255e+04 1.902e-09
  8.90594     50.9 1.193e+04 1.390e-09
  8.94624     52.1 1.140e+04 1.141e-09
  8.98644     54.0 1.096e+04 9.278e-10
  9.01650     55.5 1.045e+04 7.448e-10
  9.03117     56.1 1.046e+04 6.988e-10
  9.04122     56.4 1.047e+04 7.162e-10
  9.05660     57.6 1.027e+04 6.397e-10
  9.07670     58.5 1.018e+04 5.812e-10
  9.09322     59.7 9.951e+03 4.868e-10
  9.10327     59.0 9.757e+03 4.324e-10
  9.11690     59.5 9.789e+03 4.215e-10
  9.14715     60.8 9.601e+03 3.879e-10
  9.18744     62.3 9.485e+03 3.650e-10
  9.22765     63.7 9.518e+03 3.741e-10
  9.25730     64.9 9.740e+03 4.491e-10
  9.27740     64.9 1.011e+04 5.914e-10
  9.29790     65.2 1.016e+04 6.406e-10
  9.31790     65.5 1.030e+04 7.200e-10
  9.33233     65.9 1.053e+04 8.340e-10
  9.34238     65.6 1.048e+04 8.108e-10
  9.35810     65.9 1.066e+04 8.945e-10
  9.37510     66.0 1.078e+04 9.520e-10
  9.38515     65.8 1.090e+04 1.040e-09
  9.39830     65.8 1.090e+04 1.039e-09
  9.41840     65.9 1.084e+04 1.012e-09
  9.43850     66.0 1.077e+04 9.685e-10
  9.45188     66.0 1.071e+04 9.223e-10
  9.46193     65.9 1.055e+04 8.364e-10
  9.47870     65.9 1.050e+04 8.105e-10
  9.49310     65.7 1.049e+04 7.994e-10
  9.50315     65.9 1.038e+04 7.699e-10
  9.51890     65.8 1.039e+04 7.660e-10
  9.53900     65.4 1.054e+04 7.967e-10
  9.55910     65.1 1.074e+04 8.532e-10
  9.57144     64.5 1.113e+04 9.957e-10
  9.58149     65.3 1.066e+04 7.582e-10
  9.59930     65.2 1.074e+04 7.997e-10
  9.61109     65.0 1.082e+04 8.447e-10
  9.62114     65.4 1.073e+04 8.344e-10
  9.63951     65.2 1.071e+04 8.647e-10
  9.65961     65.4 1.064e+04 8.475e-10
  9.67971     65.4 1.056e+04 8.150e-10
  9.69099     65.6 1.045e+04 7.718e-10
  9.70104     66.5 1.022e+04 6.739e-10
  9.71904     66.8 1.018e+04 6.611e-10
  9.72909     67.2 1.012e+04 6.515e-10
  9.74001     67.6 1.009e+04 6.318e-10
  9.76011     68.0 1.010e+04 6.089e-10
  9.78021     68.6 1.013e+04 6.089e-10
  9.80031     68.8 1.023e+04 6.242e-10
  9.81054     68.8 1.049e+04 6.816e-10
  9.82059     70.2 1.030e+04 6.568e-10
  9.83703     70.1 1.065e+04 7.433e-10
  9.84708     70.3 1.072e+04 7.780e-10
  9.86061     69.1 1.172e+04 1.123e-09
  9.88071     66.9 1.313e+04 1.994e-09
  9.90081     65.2 1.434e+04 3.843e-09
  9.92005     65.0 1.507e+04 5.907e-09
  9.93010     65.7 1.475e+04 4.816e-09
  9.93593     65.5 1.524e+04 6.347e-09
  9.94594     65.5 1.557e+04 7.134e-09
  9.95493     65.7 1.554e+04 6.981e-09
  9.95995     65.9 1.552e+04 7.104e-09
  9.96604     65.8 1.549e+04 6.968e-09
  9.98116     66.5 1.505e+04 5.689e-09
 10.00131     66.4 1.445e+04 3.408e-09
 10.02141     64.4 1.360e+04 1.669e-09
 10.03960     61.5 1.211e+04 7.980e-10
 10.04965     62.6 1.268e+04 9.993e-10
 10.06161     59.5 1.095e+04 5.297e-10
 10.07302     58.4 1.024e+04 4.195e-10
 10.08307     57.8 1.007e+04 4.138e-10
 10.10181     58.4 9.985e+03 3.812e-10
 10.12191     59.0 1.004e+04 3.522e-10
 10.15216     60.3 1.010e+04 2.989e-10
 10.18116     61.7 1.014e+04 2.668e-10
 10.20126     60.6 1.020e+04 2.726e-10
 10.23266     61.7 1.029e+04 2.805e-10
 10.26885     63.5 1.037e+04 3.094e-10
 10.28895     63.6 1.018e+04 2.718e-10
 10.31306     66.3 1.036e+04 3.199e-10
 10.35326     69.4 1.048e+04 3.766e-10
 10.38331     71.1 1.055e+04 4.021e-10
 10.39826     72.8 1.063e+04 4.387e-10
 10.40831     72.8 1.065e+04 4.609e-10
 10.41696     74.5 1.077e+04 5.127e-10
 10.42701     74.0 1.066e+04 4.948e-10
 10.44351     75.7 1.075e+04 5.470e-10
 10.46362     77.5 1.087e+04 6.102e-10
 10.48372     79.3 1.114e+04 6.877e-10
 10.50382     81.0 1.144e+04 7.890e-10
 10.51781     81.3 1.555e+04 9.186e-10
 10.52786     82.4 1.160e+04 9.009e-10
 10.53495     82.0 1.493e+04 1.163e-09
 10.54500     75.3 2.406e+04 1.154e-09
 10.56412     68.1 2.818e+04 4.778e-09
 10.57754     67.1 2.689e+04 8.800e-09
 10.58251     68.4 2.481e+04 7.998e-09
 10.58883     67.2 2.482e+04 1.092e-08
 10.59385     62.2 2.432e+04 1.735e-08
 10.59919     60.9 2.249e+04 2.507e-08
 10.60924     60.8 2.177e+04 3.091e-08
 10.61929     61.7 2.099e+04 3.635e-08
 10.62934     63.2 2.085e+04 3.515e-08
 10.63727     64.6 2.129e+04 2.670e-08
 10.64229     65.4 2.146e+04 2.763e-08
 10.64782     66.3 2.238e+04 1.688e-08
 10.65290     62.5 2.324e+04 7.488e-09
 10.66462     59.9 3.053e+04 9.069e-10
 10.68472     48.2 2.178e+04 2.019e-10
 10.70482     40.7 9.418e+03 1.842e-10
 10.72492     40.6 9.095e+03 1.798e-10
 10.74696     42.0 8.797e+03 1.444e-10
 10.76284     43.1 8.752e+03 1.423e-10
 10.77094     43.2 8.748e+03 1.432e-10
 10.78522     43.9 8.988e+03 1.655e-10
 10.80532     44.0 9.039e+03 1.699e-10
 10.82542     43.4 9.610e+03 2.395e-10
 10.84552     42.8 1.005e+04 3.673e-10
 10.86562     41.9 1.074e+04 6.536e-10
 10.87647     41.7 1.132e+04 1.093e-09
 10.87969     42.3 1.117e+04 9.400e-10
 10.88894     43.2 1.102e+04 8.893e-10
 10.90582     43.8 1.148e+04 1.365e-09
 10.92592     44.9 1.175e+04 1.687e-09
 10.94602     45.6 1.197e+04 1.733e-09
 10.96612     45.8 1.216e+04 1.651e-09
 10.98597     44.7 1.272e+04 1.688e-09
 10.99602     46.3 1.278e+04 1.731e-09
 10.99688     43.9 1.347e+04 1.966e-09
 11.00693     44.7 1.280e+04 1.559e-09
 11.02642     40.6 1.500e+04 2.671e-09
 11.04652     38.2 1.593e+04 4.614e-09
 11.06662     38.8 1.647e+04 7.555e-09
 11.08672     40.7 1.681e+04 9.651e-09
 11.10482     42.1 1.712e+04 9.641e-09
 11.11358     42.0 1.807e+04 1.296e-08
 11.11558     42.3 1.776e+04 1.165e-08
 11.12692     44.0 1.757e+04 1.002e-08
 11.14702     45.2 1.673e+04 6.738e-09
 11.16712     45.4 1.511e+04 3.701e-09
 11.18722     44.0 1.353e+04 2.006e-09
 11.20732     41.6 1.250e+04 1.239e-09
 11.22282     39.0 1.439e+04 1.176e-09
 11.23052     41.4 1.444e+04 1.494e-09
 11.23513     39.6 1.377e+04 1.536e-09
 11.24752     26.7 2.915e+04 2.684e-09
 11.26255      3.7 4.010e+04 1.267e-08
 11.27255     -1.2 2.657e+04 1.224e-07
 11.28172     -2.0 2.265e+04 5.184e-07
 11.28674      0.8 2.497e+04 3.287e-07
 11.28978     -1.4 2.242e+04 8.072e-07
 11.29481      1.0 2.469e+04 4.106e-07
 11.30270     -1.0 2.341e+04 6.045e-07
 11.31275     -2.9 2.315e+04 5.604e-07
 11.32280     -4.4 2.509e+04 2.334e-07
 11.33285     -8.4 3.106e+04 3.963e-08
 11.34072    -20.5 3.461e+04 3.407e-09
 11.34574    -21.3 3.437e+04 4.617e-09
 11.34956    -38.3 1.795e+04 1.061e-09
 11.35458    -37.3 1.757e+04 1.122e-09
 11.36300    -41.4 1.154e+04 7.744e-10
 11.37305    -41.5 1.099e+04 7.255e-10
 11.38818    -41.0 1.039e+04 6.420e-10
 11.40833    -39.3 9.703e+03 5.425e-10
 11.42843    -37.3 9.585e+03 5.259e-10
 11.44853    -35.5 9.557e+03 5.163e-10
 11.45881    -33.9 9.521e+03 4.976e-10
 11.46442    -33.8 9.557e+03 5.050e-10
 11.47424    -33.7 9.490e+03 5.011e-10
 11.48873    -32.4 9.394e+03 4.709e-10
 11.50883    -31.3 9.296e+03 4.435e-10
 11.52893    -30.3 9.198e+03 4.215e-10
 11.54903    -29.4 9.115e+03 4.067e-10
 11.56675    -28.5 9.073e+03 3.989e-10
 11.57680    -28.2 9.118e+03 4.077e-10
 11.58374    -27.6 9.112e+03 4.064e-10
 11.59379    -27.8 9.092e+03 3.976e-10
 11.60933    -27.3 9.103e+03 3.993e-10
 11.62943    -27.0 9.183e+03 4.184e-10
 11.64953    -26.9 9.276e+03 4.483e-10
 11.66963    -26.8 9.411e+03 4.897e-10
 11.68475    -26.9 9.558e+03 5.391e-10
 11.69480    -26.0 9.565e+03 5.471e-10
 11.70329    -26.0 9.631e+03 5.713e-10
 11.71334    -26.6 9.874e+03 6.382e-10
 11.72993    -26.8 9.967e+03 6.729e-10
 11.75003    -27.1 9.974e+03 6.790e-10
 11.77013    -27.2 9.837e+03 6.426e-10
 11.79023    -27.1 9.584e+03 5.701e-10
 11.80274    -26.9 9.302e+03 4.884e-10
 11.81279    -26.2 9.123e+03 4.097e-10
 11.82284    -26.0 8.999e+03 3.688e-10
 11.83289    -27.2 9.540e+03 5.201e-10
 11.85053    -27.5 9.577e+03 5.030e-10
 11.87063    -28.4 9.991e+03 5.368e-10
 11.89073    -30.1 1.089e+04 6.435e-10
 11.91069    -32.1 1.188e+04 8.099e-10
 11.92074    -32.7 1.238e+04 8.628e-10
 11.93093    -35.5 1.424e+04 1.230e-09
 11.94235    -37.9 1.588e+04 1.917e-09
 11.94732    -41.8 1.925e+04 4.656e-09
 11.95596    -42.6 1.958e+04 6.920e-09
 11.96601    -43.1 1.950e+04 9.600e-09
 11.97461    -43.1 1.936e+04 1.243e-08
 11.97964    -42.8 1.920e+04 1.244e-08
 11.98611    -42.6 1.917e+04 1.465e-08
 11.99616    -42.2 1.928e+04 1.640e-08
 12.00208    -42.1 1.946e+04 1.782e-08
 12.00710    -42.5 1.988e+04 2.324e-08
 12.01626    -42.6 1.991e+04 2.307e-08
 12.02631    -42.6 1.988e+04 2.304e-08
 12.03361    -42.6 1.989e+04 2.308e-08
 12.03868    -42.2 1.919e+04 1.507e-08
 12.05153    -42.5 1.912e+04 1.424e-08
 12.06195    -42.7 1.911e+04 1.362e-08
 12.07200    -44.3 1.836e+04 7.287e-09
 12.09174    -44.5 1.776e+04 5.376e-09
 12.11184    -44.6 1.696e+04 3.754e-09
 12.13194    -44.6 1.596e+04 2.362e-09
 12.14668    -44.7 1.459e+04 1.361e-09
 12.15673    -46.0 1.278e+04 8.044e-10
 12.17145    -45.2 1.194e+04 6.025e-10
 12.18160    -48.5 1.074e+04 2.743e-10
 12.20248    -46.1 1.037e+04 2.254e-10
 12.24268    -44.1 1.006e+04 2.171e-10
 12.26487    -41.5 1.031e+04 2.357e-10
 12.28497    -41.2 9.897e+03 1.613e-10
 12.32308    -38.2 1.005e+04 1.649e-10
 12.36328    -35.2 1.008e+04 1.637e-10
 12.40070    -32.2 9.919e+03 1.528e-10
 12.42081    -32.5 9.756e+03 1.325e-10
 12.44368    -29.6 9.685e+03 1.276e-10
 12.48076    -26.6 9.582e+03 1.182e-10
 12.50086    -26.5 9.571e+03 1.184e-10
 12.52409    -23.5 9.461e+03 1.119e-10
 12.56429    -20.6 9.363e+03 1.050e-10
 12.60449    -17.8 9.287e+03 9.925e-11
 12.63981    -14.9 9.243e+03 9.562e-11
 12.65991    -14.9 9.407e+03 1.249e-10
 12.68489    -12.1 9.410e+03 1.255e-10
 12.71675     -9.4 9.433e+03 1.325e-10
 12.73685     -9.1 9.588e+03 1.699e-10
 12.76529     -6.4 9.605e+03 1.761e-10
 12.80549     -3.7 9.626e+03 1.823e-10
 12.84569     -1.1 9.646e+03 1.855e-10
 12.87892      1.6 9.648e+03 1.858e-10
 12.89902      1.5 9.838e+03 2.010e-10
 12.92609      4.1 9.811e+03 1.976e-10
 12.95274      6.8 9.786e+03 1.853e-10
 12.97284      6.9 9.876e+03 1.988e-10
 13.00649      9.7 9.867e+03 1.813e-10
 13.04669     12.4 9.813e+03 1.589e-10
 13.08689     15.1 9.734e+03 1.384e-10
 13.11802     17.8 9.608e+03 1.207e-10
 13.13812     17.6 9.757e+03 1.241e-10
 13.16729     20.3 9.664e+03 1.189e-10
 13.18873     23.0 9.599e+03 1.163e-10
 13.20883     23.3 9.611e+03 1.095e-10
 13.24769     26.2 9.548e+03 1.026e-10
 13.28790     28.9 9.584e+03 9.350e-11
 13.32810     31.6 9.525e+03 8.918e-11
 13.35713     34.6 9.512e+03 8.253e-11
 13.37723     34.3 9.594e+03 9.699e-11
 13.40462     37.5 9.604e+03 8.221e-11
 13.42472     37.8 9.603e+03 7.454e-11
 13.44870     40.6 9.689e+03 6.018e-11
 13.48890     43.0 9.718e+03 5.421e-11
 13.52910     45.5 9.695e+03 5.555e-11
 13.56930     48.1 9.655e+03 6.121e-11
 13.59624     50.8 9.672e+03 7.316e-11
 13.61634     50.7 9.782e+03 9.427e-11
 13.64061     53.5 9.880e+03 1.081e-10
 13.66071     53.9 9.871e+03 1.091e-10
 13.68990     56.6 9.976e+03 1.236e-10
 13.73010     59.2 1.009e+04 1.372e-10
 13.77030     61.6 1.021e+04 1.493e-10
 13.81050     63.7 1.032e+04 1.617e-10
 13.83534     65.7 1.045e+04 1.836e-10
 13.85544     65.4 1.041e+04 1.759e-10
 13.87660     67.4 1.047e+04 2.041e-10
 13.89670     67.8 1.042e+04 1.812e-10
 13.93110     69.8 1.050e+04 1.896e-10
 13.97130     71.8 1.054e+04 1.840e-10
 14.01150     74.0 1.058e+04 1.625e-10
 14.05170     76.2 1.065e+04 1.277e-10
 14.07445     78.4 1.078e+04 9.164e-11
 14.09455     78.3 1.058e+04 7.940e-11
 14.11259     80.4 1.056e+04 6.422e-11
 14.13269     80.8 1.056e+04 6.463e-11
 14.17231     82.8 1.063e+04 5.272e-11
 14.21251     84.9 1.063e+04 4.590e-11
 14.25271     87.1 1.047e+04 4.503e-11
 14.29291     89.5 1.045e+04 4.559e-11
 14.31355     91.9 1.048e+04 4.736e-11
 14.32902     92.2 1.035e+04 4.710e-11
 14.34858     92.6 1.038e+04 5.019e-11
 14.37331     95.0 1.029e+04 5.378e-11
 14.41351     97.3 1.022e+04 5.878e-11
 14.45371     99.6 1.019e+04 6.491e-11
 14.49391    102.0 1.018e+04 7.188e-11
 14.53256    104.4 1.020e+04 7.888e-11
 14.55266    104.5 1.011e+04 7.814e-11
 14.56446    106.8 1.010e+04 8.427e-11
 14.58457    107.0 1.015e+04 9.755e-11
 14.61451    109.2 1.016e+04 1.072e-10
 14.65471    111.4 1.016e+04 1.212e-10
 14.69491    113.4 1.019e+04 1.433e-10
 14.73511    115.5 1.034e+04 1.807e-10
 14.77167    117.2 1.063e+04 2.271e-10
 14.79177    116.4 1.036e+04 1.689e-10
 14.80045    117.5 1.058e+04 1.940e-10
 14.82055    117.4 1.062e+04 1.982e-10
 14.84557    117.3 1.067e+04 1.981e-10
 14.86557    116.7 1.093e+04 2.096e-10
 14.88567    113.7 1.216e+04 3.182e-10
 14.90107    109.6 1.350e+04 8.900e-10
 14.91112    111.5 1.273e+04 4.689e-10
 14.91825    108.5 1.348e+04 1.307e-09
 14.92830    108.2 1.368e+04 1.400e-09
 14.94597    107.1 1.413e+04 2.895e-09
 14.96607    106.8 1.458e+04 3.764e-09
 14.98617    106.2 1.475e+04 3.611e-09
 15.00627    104.9 1.512e+04 2.876e-09
 15.02063    102.6 1.490e+04 2.049e-09
 15.03050    104.4 1.516e+04 2.562e-09
 15.03625    104.4 1.536e+04 2.733e-09
 15.04647    101.4 1.489e+04 2.004e-09
 15.06657     99.0 1.391e+04 1.743e-09
 15.08667     97.6 1.361e+04 1.673e-09
 15.10677     97.1 1.353e+04 1.643e-09
 15.13702     96.3 1.334e+04 1.396e-09
 15.17732     95.0 1.287e+04 1.046e-09
 15.21752     94.7 1.225e+04 6.804e-10
 15.24988     94.8 1.175e+04 4.382e-10
 15.26459     95.6 1.207e+04 6.279e-10
 15.27243     95.7 1.204e+04 6.358e-10
 15.29792     96.4 1.183e+04 5.538e-10
 15.33812     97.3 1.157e+04 4.290e-10
 15.37832     98.5 1.133e+04 3.007e-10
 15.41852     99.7 1.116e+04 2.048e-10
 15.45872    101.0 1.102e+04 1.485e-10
 15.48832    102.3 1.087e+04 1.192e-10
 15.49849    102.9 1.089e+04 1.312e-10
 15.50908    103.4 1.098e+04 1.573e-10
 15.53912    104.7 1.083e+04 1.212e-10
 15.57932    106.3 1.068e+04 1.032e-10
 15.61952    108.1 1.056e+04 9.143e-11
 15.65972    109.8 1.049e+04 8.115e-11
 15.69992    111.5 1.045e+04 7.173e-11
 15.72431    113.2 1.041e+04 6.427e-11
 15.73238    113.6 1.040e+04 6.433e-11
 15.74819    113.7 1.044e+04 7.442e-11
 15.78033    115.3 1.040e+04 6.625e-11
 15.82053    116.9 1.036e+04 6.245e-11
 15.86073    118.5 1.031e+04 6.205e-11
 15.90093    120.2 1.030e+04 6.287e-11
 15.94020    121.9 1.031e+04 6.354e-11
 15.96030    122.4 1.026e+04 6.275e-11
 15.96720    124.0 1.024e+04 6.198e-11
 15.98730    124.0 1.021e+04 6.175e-11
 16.02153    125.7 1.020e+04 6.065e-11
 16.06173    127.3 1.021e+04 5.970e-11
 16.10193    129.0 1.021e+04 5.958e-11
 16.14213    130.6 1.023e+04 6.101e-11
 16.17619    132.1 1.028e+04 6.673e-11
 16.19629    132.7 1.030e+04 7.282e-11
 16.20630    134.2 1.037e+04 8.486e-11
 16.22640    134.4 1.036e+04 8.108e-11
 16.26273    135.7 1.044e+04 9.098e-11
 16.30293    137.0 1.051e+04 9.735e-11
 16.34313    138.1 1.056e+04 1.008e-10
 16.38333    139.1 1.057e+04 1.047e-10
 16.41218    140.1 1.055e+04 1.118e-10
 16.43228    140.3 1.054e+04 1.102e-10
 16.44541    141.2 1.049e+04 1.228e-10
 16.46551    141.4 1.050e+04 1.293e-10
 16.50393    142.2 1.047e+04 1.513e-10
 16.54414    143.0 1.047e+04 1.739e-10
 16.58434    143.8 1.049e+04 1.879e-10
 16.62454    144.5 1.049e+04 1.892e-10
 16.64817    145.1 1.047e+04 1.851e-10
 16.66795    145.0 1.040e+04 1.521e-10
 16.68451    144.8 1.042e+04 1.587e-10
 16.70494    145.4 1.031e+04 1.412e-10
 16.74514    146.1 1.025e+04 1.376e-10
 16.78534    146.8 1.025e+04 1.416e-10
 16.82554    147.4 1.026e+04 1.663e-10
 16.86406    148.0 1.033e+04 2.246e-10
 16.88416    148.3 1.016e+04 1.802e-10
 16.90352    149.1 1.035e+04 2.653e-10
 16.92362    148.7 1.053e+04 3.265e-10
 16.94614    149.0 1.071e+04 4.203e-10
 16.97619    149.2 1.075e+04 4.601e-10
 16.99191    149.4 1.081e+04 4.967e-10
 17.00196    149.7 1.081e+04 4.901e-10
 17.01630    149.9 1.089e+04 5.334e-10
 17.03293    150.0 1.093e+04 5.648e-10
 17.04298    149.6 1.106e+04 6.203e-10
 17.05650    149.7 1.110e+04 6.420e-10
 17.07660    149.9 1.112e+04 6.599e-10
 17.09670    150.0 1.115e+04 6.763e-10
 17.10991    150.2 1.116e+04 6.902e-10
 17.11996    150.5 1.120e+04 6.944e-10
 17.13690    150.7 1.121e+04 7.024e-10
 17.15248    150.9 1.120e+04 7.000e-10
 17.16253    150.4 1.119e+04 6.975e-10
 17.17710    150.7 1.115e+04 6.844e-10
 17.19720    150.9 1.111e+04 6.735e-10
 17.21730    151.2 1.101e+04 6.356e-10
 17.22790    151.3 1.093e+04 6.099e-10
 17.23795    151.8 1.102e+04 6.379e-10
 17.25750    152.1 1.091e+04 6.002e-10
 17.27203    152.5 1.077e+04 5.569e-10
 17.28208    152.3 1.060e+04 5.012e-10
 17.30785    153.1 1.049e+04 4.591e-10
 17.33604    154.3 1.023e+04 3.834e-10
 17.35614    154.9 1.032e+04 4.135e-10
 17.38173    156.1 1.013e+04 3.605e-10
 17.40183    155.9 1.008e+04 3.673e-10
 17.42855    157.2 9.948e+03 3.343e-10
 17.46875    158.3 9.806e+03 3.058e-10
 17.50895    159.5 9.701e+03 2.951e-10
 17.54915    160.5 9.697e+03 2.994e-10
 17.57203    161.3 9.738e+03 3.252e-10
 17.59213    161.5 9.827e+03 3.462e-10
 17.61940    161.7 9.809e+03 3.650e-10
 17.63069    162.0 9.850e+03 3.984e-10
 17.64074    162.1 9.894e+03 4.085e-10
 17.65950    162.6 1.019e+04 5.220e-10
 17.67960    162.8 1.057e+04 6.889e-10
 17.68983    162.7 1.099e+04 8.987e-10
 17.69988    162.7 1.102e+04 9.084e-10
 17.71980    162.6 1.138e+04 1.128e-09
 17.73990    162.3 1.164e+04 1.277e-09
 17.75025    161.9 1.167e+04 1.281e-09
 17.76030    161.5 1.181e+04 1.313e-09
 17.78011    161.0 1.171e+04 1.251e-09
 17.79777    160.4 1.148e+04 1.102e-09
 17.80782    160.2 1.111e+04 8.675e-10
 17.82031    159.5 1.083e+04 7.218e-10
 17.84041    158.5 1.055e+04 6.158e-10
 17.85975    157.4 1.031e+04 5.592e-10
 17.86980    156.9 1.026e+04 5.503e-10
 17.88061    156.1 1.012e+04 5.445e-10
 17.90071    155.7 1.009e+04 5.476e-10
 17.91577    155.3 1.008e+04 5.671e-10
 17.92582    155.7 1.001e+04 5.385e-10
 17.94091    155.0 1.032e+04 6.117e-10
 17.96101    151.7 1.238e+04 1.001e-09
 17.97930    146.6 1.537e+04 2.272e-09
 17.98935    145.7 1.572e+04 2.607e-09
 17.99613    143.8 1.670e+04 3.668e-09
 18.00614    141.9 1.753e+04 5.262e-09
 18.01619    139.7 1.844e+04 8.385e-09
 18.02624    138.1 1.885e+04 1.206e-08
 18.03367    137.0 1.918e+04 1.546e-08
 18.03869    137.9 1.917e+04 1.388e-08
 18.04401    137.1 1.941e+04 1.769e-08
 18.04903    136.7 1.957e+04 1.840e-08
 18.05639    135.9 1.999e+04 1.955e-08
 18.06644    134.7 2.007e+04 1.919e-08
 18.07649    133.1 2.009e+04 1.707e-08
 18.08654    132.1 1.984e+04 1.558e-08
 18.09881    130.9 1.995e+04 1.438e-08
 18.10891    129.9 1.959e+04 1.313e-08
 18.12181    125.5 1.798e+04 7.754e-09
 18.14171    121.5 1.546e+04 4.388e-09
 18.15176    124.3 1.745e+04 7.261e-09
 18.16201    121.0 1.511e+04 4.369e-09
 18.18211    119.3 1.345e+04 2.863e-09
 18.20221    118.6 1.266e+04 1.993e-09
 18.21841    118.1 1.216e+04 1.414e-09
 18.22846    117.6 1.198e+04 1.325e-09
 18.24241    117.1 1.153e+04 1.043e-09
 18.25970    116.7 1.107e+04 8.528e-10
 18.26975    117.5 1.161e+04 1.117e-09
 18.28261    117.4 1.118e+04 9.217e-10
 18.30271    117.4 1.090e+04 7.915e-10
 18.32281    117.6 1.078e+04 6.961e-10
 18.33796    117.7 1.077e+04 6.262e-10
 18.34801    118.2 1.076e+04 6.574e-10
 18.36301    118.1 1.079e+04 5.880e-10
 18.37770    117.5 1.097e+04 5.767e-10
 18.38775    119.0 1.110e+04 6.167e-10
 18.40321    118.2 1.120e+04 6.296e-10
 18.42331    117.2 1.137e+04 7.010e-10
 18.44341    116.2 1.150e+04 8.448e-10
 18.45751    115.5 1.159e+04 1.041e-09
 18.46756    115.7 1.146e+04 8.915e-10
 18.48361    115.0 1.155e+04 1.104e-09
 18.49569    114.3 1.179e+04 1.260e-09
 18.50574    115.9 1.184e+04 1.295e-09
 18.52381    114.8 1.212e+04 1.400e-09
 18.54391    113.0 1.225e+04 1.440e-09
 18.56401    110.9 1.214e+04 1.419e-09
 18.57707    108.8 1.182e+04 1.372e-09
 18.58712    109.3 1.245e+04 1.723e-09
 18.60364    107.3 1.206e+04 1.645e-09
 18.61369    108.7 1.249e+04 1.894e-09
 18.62432    106.9 1.203e+04 1.740e-09
 18.64442    105.1 1.188e+04 1.591e-09
 18.66452    102.3 1.216e+04 1.605e-09
 18.68462     98.3 1.311e+04 1.839e-09
 18.69662     93.7 1.402e+04 2.286e-09
 18.70667     89.6 1.583e+04 4.109e-09
 18.72163     86.5 1.553e+04 4.655e-09
 18.73168     86.5 1.594e+04 5.271e-09
 18.74492     84.8 1.533e+04 4.967e-09
 18.76502     83.4 1.469e+04 3.825e-09
 18.78512     81.2 1.407e+04 2.479e-09
 18.80522     77.4 1.337e+04 1.432e-09
 18.81617     72.6 1.222e+04 9.717e-10
 18.82622     68.2 1.132e+04 8.308e-10
 18.83963     65.5 1.132e+04 9.272e-10
 18.84968     64.8 1.128e+04 9.573e-10
 18.86552     63.5 1.193e+04 1.340e-09
 18.88562     59.6 1.584e+04 2.595e-09
 18.89858     47.8 2.421e+04 7.092e-09
 18.90355     46.8 2.493e+04 6.436e-09
 18.91065     41.4 2.493e+04 1.750e-08
 18.92070     38.9 2.362e+04 4.237e-08
 18.93060     37.2 2.276e+04 9.848e-08
 18.93563     36.5 2.276e+04 7.666e-08
 18.94080     35.2 2.258e+04 1.500e-07
 18.95085     34.4 2.229e+04 2.398e-07
 18.95753     33.6 2.176e+04 2.603e-07
 18.96255     31.7 2.204e+04 2.297e-07
 18.97095     32.2 2.256e+04 1.450e-07
 18.98100     31.4 2.517e+04 6.264e-08
 18.99038     26.3 2.621e+04 2.193e-08
 18.99541     28.7 2.616e+04 3.335e-08
 19.00110     22.0 2.340e+04 1.234e-08
 19.01115     15.1 1.792e+04 5.342e-09
 19.01652     10.8 1.510e+04 3.220e-09
 19.02155     11.2 1.580e+04 3.975e-09
 19.03125     10.1 1.485e+04 3.296e-09
 19.04518      8.7 1.364e+04 2.271e-09
 19.05523      9.8 1.437e+04 3.105e-09
 19.06552      9.7 1.397e+04 2.690e-09
 19.07562      9.9 1.472e+04 3.419e-09
 19.08662      8.7 1.397e+04 2.708e-09
 19.10672      4.4 1.394e+04 2.372e-09
 19.12682     -2.5 1.750e+04 3.739e-09
 19.14692     -7.8 1.958e+04 8.179e-09
 19.16478    -10.9 1.986e+04 1.320e-08
 19.17483    -12.2 2.007e+04 1.402e-08
 19.18356    -13.8 1.967e+04 1.504e-08
 19.19361    -13.0 1.844e+04 9.727e-09
 19.20722    -13.5 1.800e+04 9.665e-09
 19.22732    -13.7 1.678e+04 5.936e-09
 19.24742    -15.3 1.499e+04 2.838e-09
 19.26752    -18.1 1.246e+04 1.273e-09
 19.28434    -19.5 1.074e+04 7.319e-10
 19.29439    -19.7 1.055e+04 6.737e-10
 19.30156    -19.3 1.014e+04 5.252e-10
 19.31161    -17.3 1.036e+04 5.856e-10
 19.32782    -16.4 1.008e+04 4.649e-10
 19.35807    -16.0 9.865e+03 3.479e-10
 19.39837    -14.0 9.708e+03 3.046e-10
 19.41975    -12.9 9.411e+03 2.526e-10
 19.43985     -7.4 1.007e+04 2.928e-10
 19.47877     -6.1 1.010e+04 2.554e-10
 19.51359     -6.6 1.007e+04 2.284e-10
 19.53226     -7.9 9.850e+03 2.389e-10
 19.53755     -4.9 1.003e+04 2.488e-10
 19.54893     -6.2 9.758e+03 2.373e-10
 19.56903    -10.3 1.110e+04 2.375e-10
 19.58913    -21.3 1.636e+04 4.625e-10
 19.60923    -31.9 1.776e+04 1.690e-09
 19.62933    -37.8 1.750e+04 4.069e-09
 19.64295    -39.7 1.780e+04 6.011e-09
 19.64792    -40.5 1.819e+04 7.378e-09
 19.65042    -41.8 1.824e+04 7.914e-09
 19.65544    -41.7 1.846e+04 8.990e-09
 19.66441    -42.7 1.840e+04 9.072e-09
 19.67446    -43.8 1.827e+04 7.705e-09
 19.68451    -45.6 1.824e+04 5.922e-09
 19.69456    -48.1 1.860e+04 4.466e-09
 19.70267    -51.1 1.910e+04 3.607e-09
 19.70748    -52.3 1.853e+04 3.242e-09
 19.70942    -56.4 2.983e+04 3.195e-09
 19.71466    -61.2 3.206e+04 2.887e-09
 19.72471    -64.9 3.201e+04 2.448e-09
 19.73476    -67.3 2.652e+04 2.111e-09
 19.74481    -69.8 1.965e+04 2.046e-09
 19.75486    -73.0 1.785e+04 2.101e-09
 19.76245    -77.1 1.786e+04 2.137e-09
 19.76596    -83.9 2.896e+04 1.675e-09
 19.76839   -102.1 4.850e+04 4.825e-09
 19.77240   -111.0 3.799e+04 2.820e-08
 19.77742   -117.2 2.802e+04 1.256e-07
 19.78245   -123.3 2.300e+04 3.722e-07
 19.78747   -126.7 2.068e+04 7.531e-07
 19.79229   -129.6 2.010e+04 1.306e-06
 19.79480   -144.1 1.902e+04 3.861e-06
 19.79535   -143.1 1.878e+04 4.769e-06
 19.79786   -164.5 1.739e+04 2.204e-05
 19.80255   -163.2 1.661e+04 4.054e-05
 19.80757   -164.3 1.575e+04 9.692e-05
 19.81260   -167.4 1.506e+04 1.833e-04
 19.81762   -171.1 1.597e+04 7.889e-05
 19.82218   -173.3 1.692e+04 2.399e-05
 19.82438   -167.4 1.653e+04 3.705e-05
 19.82485   -167.6 1.769e+04 1.135e-05
 19.82767   -167.7 1.896e+04 3.296e-06
 19.83270   -168.3 2.247e+04 5.848e-07
 19.83772   -168.5 2.825e+04 1.662e-07
 19.84528   -167.7 3.132e+04 9.797e-08
 19.85536   -174.8 4.031e+04 2.667e-08
 19.86541   -184.9 4.349e+04 9.596e-09
 19.87546   -195.0 3.431e+04 4.168e-09
 19.88138   -199.3 2.329e+04 3.989e-09
 19.88295   -200.0 2.003e+04 1.961e-09
 19.89215   -195.0 3.291e+04 1.518e-09
 19.91073   -199.3 1.363e+04 1.481e-09
 19.93083   -196.2 1.243e+04 1.319e-09
 19.95093   -193.1 1.275e+04 1.215e-09
 19.97103   -191.1 1.287e+04 1.165e-09
 19.98943   -189.2 1.315e+04 1.157e-09
 19.99948   -188.7 1.023e+04 6.159e-10
 20.00165   -187.1 1.037e+04 6.113e-10
 20.01170   -186.3 1.031e+04 6.142e-10
 20.03133   -184.9 1.035e+04 6.065e-10
 20.05143   -183.9 1.048e+04 6.398e-10
 20.07153   -183.1 1.101e+04 7.479e-10
 20.09163   -182.4 1.184e+04 9.168e-10
 20.10742   -181.6 1.252e+04 1.131e-09
 20.11690   -180.0 1.080e+04 5.977e-10
 20.12121   -179.2 1.054e+04 5.306e-10
 20.13183   -178.6 1.108e+04 6.407e-10
 20.16208   -178.0 1.173e+04 8.455e-10
 20.20238   -176.0 1.209e+04 1.164e-09
 20.23091   -174.3 1.227e+04 1.362e-09
 20.25101   -172.9 1.170e+04 9.356e-10
 20.28278   -171.0 1.181e+04 1.095e-09
 20.32298   -169.2 1.184e+04 1.209e-09
 20.34361   -167.3 1.174e+04 1.182e-09
 20.36371   -165.1 1.144e+04 9.886e-10
 20.40338   -163.2 1.143e+04 1.026e-09
 20.44358   -161.3 1.134e+04 1.005e-09
 20.47001   -159.5 1.119e+04 9.376e-10
 20.49011   -158.9 1.138e+04 9.959e-10
 20.52398   -157.2 1.123e+04 9.308e-10
 20.55950   -155.6 1.097e+04 8.193e-10
 20.57960   -153.9 1.093e+04 7.923e-10
 20.60438   -152.2 1.068e+04 6.946e-10
 20.64459   -150.4 1.045e+04 6.085e-10
 20.68479   -148.4 1.029e+04 5.568e-10
 20.70912   -146.4 1.024e+04 5.443e-10
 20.72922   -146.9 1.041e+04 6.306e-10
 20.76519   -145.0 1.035e+04 6.174e-10
 20.79549   -143.0 1.035e+04 6.194e-10
 20.81559   -141.3 1.030e+04 5.883e-10
 20.84559   -139.4 1.040e+04 6.275e-10
 20.88579   -137.5 1.052e+04 6.686e-10
 20.92599   -135.7 1.066e+04 7.085e-10
 20.94822   -134.1 1.070e+04 7.219e-10
 20.96832   -134.5 1.017e+04 4.814e-10
 21.00639   -132.9 1.002e+04 4.190e-10
 21.03148   -131.1 9.811e+03 3.520e-10
 21.05158   -129.7 9.955e+03 3.965e-10
 21.08679   -128.2 9.790e+03 3.366e-10
 21.12699   -126.7 9.644e+03 2.909e-10
 21.16719   -125.1 9.508e+03 2.570e-10
 21.20739   -123.1 9.134e+03 1.743e-10
 21.24736   -121.3 9.060e+03 1.745e-10
 21.26746   -120.7 9.147e+03 1.820e-10
 21.28779   -118.9 9.028e+03 1.806e-10
 21.32799   -116.9 8.926e+03 1.773e-10
 21.36819   -115.0 8.869e+03 1.754e-10
 21.40634   -113.1 8.858e+03 1.753e-10
 21.42644   -112.4 8.784e+03 1.675e-10
 21.44860   -110.6 8.757e+03 1.718e-10
 21.48335   -109.0 8.802e+03 1.873e-10
 21.50345   -108.8 8.918e+03 2.179e-10
 21.52900   -107.3 8.967e+03 2.306e-10
 21.56920   -106.0 9.009e+03 2.374e-10
 21.60940   -104.8 9.020e+03 2.423e-10
 21.64544   -103.8 9.016e+03 2.427e-10
 21.66554   -102.9 9.175e+03 2.797e-10
 21.68980   -102.1 9.152e+03 2.787e-10
 21.71934   -101.3 9.006e+03 2.610e-10
 21.73944   -101.0 8.896e+03 2.321e-10
 21.77020   -100.2 8.721e+03 1.999e-10
 21.81040    -99.3 8.507e+03 1.638e-10
 21.85060    -98.2 8.292e+03 1.303e-10
 21.88455    -97.0 8.098e+03 1.027e-10
 21.90465    -96.6 8.173e+03 1.189e-10
 21.93100    -95.4 7.988e+03 9.345e-11
 21.95533    -94.1 7.864e+03 7.745e-11
 21.97543    -93.5 7.932e+03 8.589e-11
 22.01140    -92.1 7.873e+03 7.732e-11
 22.05160    -90.8 7.861e+03 7.388e-11
 22.09180    -89.6 7.862e+03 7.326e-11
 22.12365    -88.7 7.882e+03 7.367e-11
 22.14375    -88.1 7.895e+03 8.133e-11
 22.17122    -87.3 8.027e+03 8.682e-11
 22.19132    -86.7 8.110e+03 1.027e-10
 22.21240    -86.2 8.275e+03 1.209e-10
 22.25261    -85.8 8.451e+03 1.462e-10
 22.29281    -85.5 8.608e+03 1.708e-10
 22.33301    -85.5 8.721e+03 1.856e-10
 22.36276    -85.4 8.775e+03 1.895e-10
 22.38286    -84.8 8.784e+03 1.909e-10
 22.40721    -84.8 8.817e+03 1.917e-10
 22.42731    -84.6 8.908e+03 2.081e-10
 22.45361    -84.7 8.982e+03 2.103e-10
 22.49381    -84.7 9.015e+03 2.108e-10
 22.53401    -84.6 9.034e+03 2.094e-10
 22.57421    -84.2 9.044e+03 2.040e-10
 22.60187    -83.6 9.058e+03 1.980e-10
 22.62197    -83.2 9.324e+03 2.418e-10
 22.64320    -82.5 9.341e+03 2.363e-10
 22.66330    -82.5 9.465e+03 2.588e-10
 22.69481    -81.7 9.478e+03 2.545e-10
 22.73501    -80.9 9.557e+03 2.555e-10
 22.77521    -80.3 9.873e+03 2.923e-10
 22.81541    -79.6 1.013e+04 3.627e-10
 22.84088    -79.2 1.029e+04 4.301e-10
 22.85083    -79.1 1.028e+04 4.301e-10
 22.86547    -79.1 1.035e+04 4.711e-10
 22.87900    -79.0 1.041e+04 5.165e-10
 22.88905    -78.9 1.059e+04 5.923e-10
 22.90567    -78.9 1.067e+04 6.287e-10
 22.92577    -79.0 1.082e+04 6.730e-10
 22.94587    -79.3 1.104e+04 7.349e-10
 22.96033    -79.9 1.132e+04 8.208e-10
 22.97038    -79.5 1.090e+04 6.487e-10
 22.98607    -80.2 1.115e+04 7.173e-10
 22.99699    -80.8 1.139e+04 8.008e-10
 23.00704    -81.9 1.202e+04 1.120e-09
 23.02627    -82.5 1.218e+04 1.247e-09
 23.04637    -83.1 1.225e+04 1.311e-09
 23.06647    -83.7 1.226e+04 1.328e-09
 23.07988    -84.4 1.218e+04 1.290e-09
 23.08993    -84.0 1.191e+04 1.050e-09
 23.10494    -84.6 1.181e+04 1.013e-09
 23.11499    -85.8 1.219e+04 1.289e-09
 23.12677    -86.5 1.199e+04 1.193e-09
 23.14687    -87.0 1.182e+04 1.129e-09
 23.16697    -87.3 1.168e+04 1.078e-09
 23.18707    -87.5 1.156e+04 1.015e-09
 23.19944    -87.7 1.141e+04 9.187e-10
 23.20949    -87.6 1.133e+04 8.488e-10
 23.22293    -87.7 1.118e+04 7.565e-10
 23.23298    -88.7 1.118e+04 7.420e-10
 23.24737    -89.0 1.094e+04 6.237e-10
 23.26747    -89.2 1.069e+04 5.172e-10
 23.28757    -89.4 1.047e+04 4.290e-10
 23.30767    -89.5 1.030e+04 3.705e-10
 23.31909    -89.2 1.022e+04 3.372e-10
 23.33234    -89.1 1.029e+04 3.511e-10
 23.35107    -89.7 1.025e+04 3.637e-10
 23.37812    -89.6 1.029e+04 3.673e-10
 23.41842    -89.0 1.030e+04 3.478e-10
 23.45862    -88.3 1.029e+04 3.259e-10
 23.49882    -87.7 1.028e+04 3.119e-10
 23.53819    -87.2 1.026e+04 3.052e-10
 23.55829    -87.0 1.026e+04 3.054e-10
 23.56706    -86.7 1.023e+04 3.034e-10
 23.58716    -87.2 1.019e+04 3.060e-10
 23.61942    -86.9 1.013e+04 3.174e-10
 23.65962    -86.7 1.012e+04 3.556e-10
 23.69982    -86.5 1.017e+04 4.032e-10
 23.74002    -86.3 1.022e+04 4.428e-10
 23.77730    -86.2 1.022e+04 4.572e-10
 23.79740    -86.0 1.022e+04 4.612e-10
 23.80305    -85.8 1.009e+04 4.277e-10
 23.82315    -85.3 9.829e+03 3.404e-10
 23.86062    -85.0 9.595e+03 2.817e-10
 23.90083    -84.5 9.384e+03 2.385e-10
 23.94103    -83.9 9.215e+03 2.128e-10
 23.98123    -83.1 9.070e+03 1.929e-10
 24.01640    -82.2 8.913e+03 1.694e-10
 24.03402    -81.5 8.925e+03 1.743e-10
 24.03904    -81.1 8.951e+03 1.853e-10
 24.06163    -80.1 8.827e+03 1.690e-10
 24.10183    -79.0 8.680e+03 1.469e-10
 24.14203    -77.9 8.540e+03 1.273e-10
 24.18223    -76.6 8.446e+03 1.149e-10
 24.22243    -75.3 8.409e+03 1.100e-10
 24.25493    -73.9 8.403e+03 1.090e-10
 24.26791    -73.7 8.444e+03 1.220e-10
 24.27561    -73.2 8.509e+03 1.372e-10
 24.30283    -71.8 8.492e+03 1.309e-10
 24.34303    -70.4 8.467e+03 1.249e-10
 24.38323    -68.9 8.419e+03 1.175e-10
 24.42343    -67.4 8.337e+03 1.095e-10
 24.46363    -65.7 8.234e+03 1.024e-10
 24.49092    -64.1 8.143e+03 9.815e-11
 24.50180    -64.1 8.151e+03 1.023e-10
 24.51472    -63.9 8.170e+03 1.114e-10
 24.54403    -62.3 8.130e+03 1.110e-10
 24.58423    -60.6 8.119e+03 1.113e-10
 24.62443    -59.0 8.125e+03 1.202e-10
 24.66463    -57.4 8.232e+03 1.394e-10
 24.70484    -55.7 8.382e+03 1.659e-10
 24.72691    -54.2 8.557e+03 1.989e-10
 24.73570    -54.9 8.391e+03 1.692e-10
 24.75382    -54.3 8.125e+03 1.516e-10
 24.78524    -53.3 8.173e+03 1.601e-10
 24.82544    -53.0 8.428e+03 2.011e-10
 24.86564    -53.0 9.156e+03 3.194e-10
 24.90584    -53.1 1.016e+04 5.711e-10
 24.93589    -53.0 1.068e+04 7.891e-10
 24.95265    -54.1 1.104e+04 9.755e-10
 24.96270    -55.2 1.076e+04 8.837e-10
 24.97263    -55.9 1.102e+04 1.038e-09
 24.98268    -55.5 1.102e+04 1.053e-09
 24.99609    -56.4 1.127e+04 1.167e-09
 25.01619    -57.6 1.134e+04 1.198e-09
 25.03629    -58.9 1.132e+04 1.192e-09
 25.05639    -60.2 1.111e+04 1.079e-09
 25.07065    -61.3 1.081e+04 9.167e-10
 25.08070    -61.5 1.062e+04 8.350e-10
 25.09219    -62.3 1.036e+04 7.243e-10
 25.10224    -62.3 1.042e+04 7.623e-10
 25.11670    -62.8 1.019e+04 6.703e-10
 25.13680    -63.2 9.974e+03 5.787e-10
 25.15690    -63.7 9.753e+03 4.882e-10
 25.17869    -64.3 9.540e+03 4.140e-10
 25.19889    -64.9 9.418e+03 3.831e-10
 25.21193    -65.5 9.212e+03 3.519e-10
 25.23203    -66.5 9.310e+03 3.790e-10
 25.26764    -67.1 9.279e+03 3.730e-10
 25.30784    -67.8 9.299e+03 3.770e-10
 25.34804    -68.6 9.499e+03 3.994e-10
 25.38824    -69.2 9.775e+03 4.513e-10
 25.41468    -69.9 9.962e+03 5.008e-10
 25.43478    -69.2 9.638e+03 3.942e-10
 25.45094    -69.7 9.958e+03 5.177e-10
 25.46089    -71.2 1.017e+04 6.399e-10
 25.47850    -70.6 1.016e+04 6.504e-10
 25.49860    -69.8 1.007e+04 6.446e-10
 25.51870    -69.0 9.985e+03 5.694e-10
 25.53258    -68.4 9.890e+03 5.008e-10
 25.54263    -68.1 9.805e+03 4.605e-10
 25.55890    -68.1 9.777e+03 4.393e-10
 25.58915    -67.9 9.686e+03 4.070e-10
 25.62945    -66.7 9.603e+03 3.884e-10
 25.65077    -65.4 9.598e+03 4.115e-10
 25.67087    -64.0 9.610e+03 4.177e-10
 25.69005    -63.9 9.565e+03 4.614e-10
 25.70000    -64.4 9.552e+03 4.715e-10
 25.71970    -63.5 9.607e+03 4.887e-10
 25.73980    -62.6 9.657e+03 5.075e-10
 25.75852    -61.7 9.700e+03 5.229e-10
 25.76857    -61.2 9.706e+03 5.258e-10
 25.78000    -60.3 9.724e+03 5.320e-10
 25.79945    -59.3 9.735e+03 5.330e-10
 25.80950    -59.7 9.618e+03 4.884e-10
 25.82020    -58.8 9.652e+03 4.896e-10
 25.84030    -57.8 9.740e+03 5.093e-10
 25.86656    -57.0 9.871e+03 5.434e-10
 25.88676    -56.0 9.791e+03 5.112e-10
 25.90915    -54.2 9.810e+03 5.126e-10
 25.92925    -54.4 9.518e+03 4.162e-10
 25.95105    -52.6 9.651e+03 4.416e-10
 25.99125    -50.7 9.832e+03 4.881e-10
 26.03145    -48.9 1.004e+04 5.445e-10
 26.07165    -47.1 1.025e+04 6.046e-10
 26.10265    -45.4 1.037e+04 6.361e-10
 26.12275    -44.3 1.044e+04 6.547e-10
 26.14826    -42.7 1.053e+04 6.788e-10
 26.16836    -42.2 1.055e+04 6.664e-10
 26.19225    -40.5 1.059e+04 6.575e-10
 26.23245    -38.6 1.047e+04 5.432e-10
 26.27265    -36.7 1.026e+04 4.101e-10
 26.31286    -34.9 1.010e+04 3.206e-10
 26.33864    -32.8 9.964e+03 2.680e-10
 26.35874    -31.6 1.025e+04 3.278e-10
 26.38736    -29.6 1.012e+04 2.934e-10
 26.40746    -29.3 1.025e+04 3.597e-10
 26.43346    -27.0 1.019e+04 3.550e-10
 26.45653    -25.3 1.001e+04 3.229e-10
 26.46649    -24.9 1.013e+04 3.421e-10
 26.48351    -24.0 1.022e+04 3.670e-10
 26.50361    -22.3 1.030e+04 3.972e-10
 26.51677    -21.6 1.028e+04 3.974e-10
 26.52682    -21.4 1.052e+04 4.809e-10
 26.54381    -19.9 1.068e+04 5.315e-10
 26.56391    -19.1 1.078e+04 5.772e-10
 26.57443    -18.4 1.111e+04 6.985e-10
 26.58448    -18.2 1.114e+04 6.890e-10
 26.60411    -18.3 1.171e+04 9.343e-10
 26.62421    -18.8 1.248e+04 1.444e-09
 26.63632    -19.0 1.349e+04 2.364e-09
 26.64637    -19.2 1.502e+04 3.395e-09
 26.66441    -19.3 1.648e+04 5.641e-09
 26.68238    -19.1 1.777e+04 8.888e-09
 26.69243    -20.1 1.751e+04 8.297e-09
 26.70461    -20.2 1.827e+04 1.102e-08
 26.72471    -20.4 1.875e+04 1.256e-08
 26.74482    -20.9 1.891e+04 1.272e-08
 26.75583    -23.4 1.907e+04 1.329e-08
 26.76081    -23.3 1.941e+04 1.643e-08
 26.76984    -24.5 1.942e+04 1.616e-08
 26.77989    -28.7 2.200e+04 1.505e-08
 26.78994    -40.2 3.796e+04 1.813e-08
 26.79999    -54.0 4.358e+04 4.628e-08
 26.80530    -64.5 3.209e+04 2.513e-07
 26.81032    -59.9 3.662e+04 1.138e-07
 26.81556    -68.2 2.717e+04 4.606e-07
 26.82058    -70.8 2.838e+04 3.112e-07
 26.83014    -76.5 3.025e+04 2.082e-07
 26.84019    -81.2 3.845e+04 6.455e-08
 26.85024    -85.2 4.829e+04 1.686e-08
 26.85927    -90.9 5.313e+04 5.503e-09
 26.86430    -88.1 5.375e+04 6.456e-09
 26.87031    -95.4 5.123e+04 2.876e-09
 26.88036   -111.4 1.268e+04 1.592e-09
 26.89044   -111.6 1.226e+04 1.510e-09
 26.90557   -112.1 1.217e+04 1.434e-09
 26.91837   -112.5 1.195e+04 1.342e-09
 26.92842   -111.7 1.188e+04 1.298e-09
 26.94582   -112.5 1.179e+04 1.275e-09
 26.96592   -113.2 1.200e+04 1.342e-09
 26.98493   -113.9 1.223e+04 1.478e-09
 26.99498   -115.3 1.276e+04 1.706e-09
 27.00612   -115.5 1.278e+04 1.843e-09
 27.02622   -115.6 1.276e+04 1.892e-09
 27.04632   -115.6 1.291e+04 2.115e-09
 27.06642   -115.1 1.264e+04 2.032e-09
 27.08652   -114.4 1.233e+04 1.823e-09
 27.10449   -113.7 1.203e+04 1.581e-09
 27.11454   -114.3 1.218e+04 1.486e-09
 27.12672   -113.7 1.187e+04 1.248e-09
 27.14431   -113.2 1.161e+04 1.072e-09
 27.15436   -113.4 1.207e+04 1.260e-09
 27.16692   -113.1 1.181e+04 1.122e-09
 27.18702   -112.6 1.161e+04 1.043e-09
 27.20712   -112.2 1.146e+04 1.010e-09
 27.22404   -111.7 1.138e+04 1.003e-09
 27.23409   -112.3 1.158e+04 1.090e-09
 27.24732   -111.6 1.159e+04 1.145e-09
 27.26230   -110.9 1.161e+04 1.185e-09
 27.27235   -111.3 1.232e+04 1.669e-09
 27.28752   -110.5 1.234e+04 1.694e-09
 27.30762   -109.6 1.234e+04 1.697e-09
 27.32772   -108.7 1.227e+04 1.649e-09
 27.34359   -107.8 1.218e+04 1.539e-09
 27.35364   -107.8 1.233e+04 1.578e-09
 27.36792   -107.0 1.225e+04 1.437e-09
 27.38030   -106.3 1.221e+04 1.336e-09
 27.39035   -106.9 1.303e+04 1.804e-09
 27.40812   -106.3 1.299e+04 1.669e-09
 27.42822   -105.8 1.301e+04 1.626e-09
 27.44832   -105.5 1.311e+04 1.648e-09
 27.46315   -105.2 1.337e+04 1.809e-09
 27.47320   -105.0 1.303e+04 1.442e-09
 27.48824   -104.9 1.327e+04 1.596e-09
 27.49829   -105.7 1.357e+04 1.840e-09
 27.50862   -105.9 1.383e+04 2.167e-09
 27.52872   -105.9 1.416e+04 2.782e-09
 27.54882   -105.7 1.450e+04 3.585e-09
 27.56893   -105.3 1.477e+04 4.347e-09
 27.58270   -105.1 1.487e+04 4.745e-09
 27.59275   -104.7 1.448e+04 4.157e-09
 27.60623   -104.5 1.451e+04 4.444e-09
 27.61629   -104.9 1.500e+04 5.074e-09
 27.62923   -104.6 1.486e+04 5.014e-09
 27.64933   -103.9 1.438e+04 4.260e-09
 27.66943   -103.1 1.375e+04 3.391e-09
 27.68953   -102.5 1.326e+04 2.717e-09
 27.70225   -102.0 1.285e+04 2.171e-09
 27.71230   -101.8 1.287e+04 2.124e-09
 27.72423   -101.3 1.252e+04 1.758e-09
 27.73428   -102.1 1.222e+04 1.503e-09
 27.74983   -101.7 1.188e+04 1.289e-09
 27.76993   -101.3 1.158e+04 1.137e-09
 27.79003   -100.8 1.132e+04 1.020e-09
 27.81013   -100.3 1.111e+04 9.225e-10
 27.82181    -99.7 1.092e+04 8.298e-10
 27.83186    -99.6 1.119e+04 9.578e-10
 27.84222    -99.0 1.094e+04 8.276e-10
 27.85227    -99.2 1.090e+04 8.151e-10
 27.87043    -98.6 1.066e+04 6.895e-10
 27.89053    -97.9 1.039e+04 5.735e-10
 27.91063    -97.3 1.012e+04 4.754e-10
 27.93073    -96.7 9.875e+03 3.966e-10
 27.94136    -96.2 9.668e+03 3.401e-10
 27.95075    -96.2 9.718e+03 3.747e-10
 27.96022    -96.3 9.711e+03 3.756e-10
 27.97093    -95.6 9.555e+03 3.262e-10
 28.00118    -94.9 9.469e+03 2.990e-10
 28.04101    -93.7 9.430e+03 2.891e-10
 28.06101    -93.7 9.550e+03 3.443e-10
 28.06816    -93.4 9.653e+03 3.466e-10
 28.07821    -93.4 9.665e+03 3.532e-10
 28.09153    -93.4 9.870e+03 3.806e-10
 28.11163    -93.4 1.008e+04 4.428e-10
 28.13173    -93.3 1.034e+04 5.439e-10
 28.15183    -93.1 1.063e+04 6.906e-10
 28.17041    -92.7 1.087e+04 8.361e-10
 28.18046    -92.7 1.098e+04 8.932e-10
 28.18626    -92.1 1.101e+04 9.160e-10
 28.20645    -92.3 1.112e+04 1.047e-09
 28.24248    -91.3 1.116e+04 1.028e-09
 28.28011    -90.5 1.118e+04 9.884e-10
 28.30021    -92.1 1.088e+04 8.523e-10
 28.32288    -91.3 1.066e+04 7.502e-10
 28.36308    -90.8 1.048e+04 6.795e-10
 28.40224    -90.4 1.037e+04 6.437e-10
 28.42234    -90.9 1.010e+04 5.555e-10
 28.44348    -90.1 1.011e+04 5.518e-10
 28.48368    -89.4 1.026e+04 5.160e-10
 28.51922    -88.9 1.008e+04 4.215e-10
 28.53932    -88.3 9.737e+03 3.472e-10
 28.56408    -87.2 9.502e+03 2.651e-10
 28.60428    -86.0 9.189e+03 1.933e-10
 28.63823    -84.6 9.004e+03 1.506e-10
 28.65833    -85.3 8.591e+03 1.182e-10
 28.68468    -84.0 8.559e+03 1.161e-10
 28.72488    -82.8 8.789e+03 1.277e-10
 28.75832    -81.9 9.281e+03 1.994e-10
 28.77842    -80.8 9.092e+03 1.402e-10
 28.80529    -79.9 9.679e+03 2.705e-10
 28.84549    -78.4 1.021e+04 4.834e-10
 28.87413    -77.6 1.051e+04 6.464e-10
 28.88408    -78.4 1.049e+04 6.480e-10
 28.88773    -78.3 1.054e+04 7.006e-10
 28.89778    -77.8 1.067e+04 7.687e-10
 28.91564    -77.4 1.071e+04 8.254e-10
 28.93574    -77.2 1.072e+04 8.266e-10
 28.95584    -77.0 1.062e+04 7.639e-10
 28.97594    -76.8 1.049e+04 6.723e-10
 28.99202    -76.6 1.037e+04 5.898e-10
 29.00207    -76.8 1.036e+04 5.670e-10
 29.00729    -76.5 1.025e+04 4.894e-10
 29.01734    -76.0 1.027e+04 6.912e-10
 29.03624    -75.4 1.014e+04 6.131e-10
 29.05634    -74.9 1.004e+04 5.364e-10
 29.07644    -74.4 9.958e+03 4.678e-10
 29.09654    -73.9 9.868e+03 4.248e-10
 29.11012    -73.0 9.839e+03 4.126e-10
 29.13031    -73.2 9.540e+03 3.254e-10
 29.16709    -71.3 9.217e+03 2.678e-10
 29.20729    -69.1 9.001e+03 2.273e-10
 29.23654    -67.0 8.914e+03 2.066e-10
 29.25664    -66.9 9.129e+03 2.749e-10
 29.28769    -64.8 9.064e+03 2.668e-10
 29.32610    -62.8 9.071e+03 2.710e-10
 29.34620    -62.6 9.029e+03 2.572e-10
 29.36809    -60.6 9.222e+03 2.860e-10
 29.40829    -58.6 9.365e+03 2.998e-10
 29.44849    -56.8 9.410e+03 3.019e-10
 29.47564    -55.2 9.404e+03 2.842e-10
 29.49574    -55.9 9.100e+03 2.301e-10
 29.52889    -54.3 8.940e+03 2.026e-10
 29.56209    -52.7 8.798e+03 1.810e-10
 29.58219    -52.9 8.851e+03 1.868e-10
 29.60930    -51.2 8.791e+03 1.749e-10
 29.64950    -49.8 8.818e+03 1.735e-10
 29.68970    -49.0 9.181e+03 1.953e-10
 29.71475    -49.0 9.535e+03 2.500e-10
 29.73485    -49.9 9.373e+03 2.774e-10
 29.75995    -50.0 9.645e+03 3.683e-10
 29.77995    -50.3 9.810e+03 4.427e-10
 29.79789    -50.5 9.990e+03 5.525e-10
 29.80794    -50.9 1.039e+04 7.385e-10
 29.82015    -51.1 1.051e+04 7.872e-10
 29.83411    -51.8 1.073e+04 8.214e-10
 29.84416    -52.5 1.038e+04 6.375e-10
 29.86035    -54.8 1.085e+04 6.587e-10
 29.88045    -58.6 1.185e+04 7.939e-10
 29.90055    -62.7 1.269e+04 1.206e-09
 29.91588    -66.1 1.320e+04 1.890e-09
 29.92593    -68.0 1.392e+04 2.713e-09
 29.94075    -69.8 1.421e+04 3.581e-09
 29.95366    -71.3 1.427e+04 3.863e-09
 29.96371    -71.0 1.394e+04 3.358e-09
 29.98095    -72.4 1.401e+04 3.432e-09
 30.00106    -74.1 1.400e+04 2.981e-09
 30.02116    -76.3 1.357e+04 2.265e-09
 30.03388    -78.6 1.318e+04 1.892e-09
 30.04393    -79.2 1.299e+04 1.636e-09
 30.06136    -80.9 1.258e+04 1.408e-09
 30.09160    -82.1 1.226e+04 1.280e-09
 30.13190    -82.5 1.199e+04 1.201e-09
 30.17210    -82.5 1.170e+04 1.065e-09
 30.19296    -82.3 1.137e+04 8.697e-10
 30.21306    -81.0 1.137e+04 8.069e-10
 30.24996    -80.6 1.105e+04 6.105e-10
 30.27006    -79.7 1.082e+04 5.030e-10
 30.29270    -79.0 1.055e+04 3.541e-10
 30.33290    -78.4 1.054e+04 2.759e-10
 30.37310    -78.0 1.061e+04 2.591e-10
 30.41197    -77.8 1.112e+04 2.684e-10
 30.43207    -77.4 1.086e+04 2.596e-10
 30.45351    -77.9 1.144e+04 3.650e-10
 30.48356    -78.7 1.184e+04 5.761e-10
 30.49581    -78.7 1.216e+04 8.323e-10
 30.50586    -78.6 1.220e+04 8.513e-10
 30.52366    -78.3 1.249e+04 1.062e-09
 30.54138    -78.2 1.269e+04 1.180e-09
 30.55143    -77.8 1.232e+04 9.639e-10
 30.56386    -77.8 1.237e+04 9.912e-10
 30.58396    -77.7 1.237e+04 9.843e-10
 30.60375    -77.6 1.223e+04 8.852e-10
 30.61380    -77.6 1.209e+04 7.504e-10
 30.62416    -77.3 1.192e+04 6.524e-10
 30.64426    -77.1 1.177e+04 5.663e-10
 30.66093    -76.7 1.162e+04 5.175e-10
 30.67098    -75.7 1.124e+04 3.922e-10
 30.69461    -75.1 1.122e+04 3.624e-10
 30.72194    -73.8 1.112e+04 3.036e-10
 30.74204    -73.9 1.103e+04 2.614e-10
 30.77511    -72.8 1.104e+04 2.507e-10
 30.81531    -71.8 1.108e+04 2.490e-10
 30.85551    -70.9 1.114e+04 2.406e-10
 30.89018    -70.1 1.117e+04 2.245e-10
 30.91028    -69.1 1.086e+04 1.873e-10
 30.93591    -68.3 1.092e+04 1.777e-10
 30.95793    -67.5 1.096e+04 1.772e-10
 30.97803    -66.9 1.083e+04 1.522e-10
 31.01631    -66.2 1.096e+04 1.604e-10
 31.05651    -65.5 1.112e+04 1.833e-10
 31.09671    -64.8 1.117e+04 1.969e-10
 31.12929    -64.0 1.116e+04 1.979e-10
 31.14939    -63.4 1.115e+04 1.929e-10
 31.17382    -62.3 1.104e+04 1.618e-10
 31.19392    -61.5 1.107e+04 1.523e-10
 31.21732    -60.4 1.094e+04 1.278e-10
 31.25752    -59.2 1.085e+04 1.123e-10
 31.29772    -58.0 1.084e+04 1.097e-10
 31.33792    -57.0 1.084e+04 1.272e-10
 31.36839    -56.1 1.100e+04 1.913e-10
 31.38849    -55.9 1.113e+04 2.199e-10
 31.40981    -54.7 1.138e+04 3.433e-10
 31.42991    -54.5 1.175e+04 4.651e-10
 31.44837    -53.5 1.165e+04 5.092e-10
 31.46837    -53.3 1.163e+04 5.224e-10
 31.48775    -52.5 1.163e+04 5.478e-10
 31.49780    -52.5 1.166e+04 5.683e-10
 31.50857    -52.3 1.164e+04 5.517e-10
 31.53882    -51.6 1.163e+04 4.953e-10
 31.57912    -50.6 1.137e+04 3.673e-10
 31.60750    -49.2 1.103e+04 2.526e-10
 31.62760    -49.6 1.102e+04 2.650e-10
 31.64580    -47.8 1.070e+04 1.844e-10
 31.66590    -48.3 1.078e+04 1.787e-10
 31.69972    -46.5 1.070e+04 1.515e-10
 31.73992    -44.7 1.072e+04 1.398e-10
 31.78012    -43.0 1.073e+04 1.357e-10
 31.82032    -41.6 1.081e+04 1.454e-10
 31.84660    -40.4 1.091e+04 1.867e-10
 31.86670    -40.9 1.102e+04 2.333e-10
 31.88179    -39.7 1.119e+04 3.597e-10
 31.90189    -40.4 1.152e+04 5.030e-10
 31.94092    -39.0 1.176e+04 5.953e-10
 31.98112    -38.0 1.181e+04 6.119e-10
 32.02133    -37.0 1.177e+04 5.911e-10
 32.06153    -36.1 1.174e+04 4.930e-10
 32.08571    -35.4 1.170e+04 4.004e-10
 32.10176    -36.2 1.164e+04 3.258e-10
 32.11778    -36.9 1.151e+04 2.545e-10
 32.14193    -36.1 1.149e+04 2.470e-10
 32.18213    -35.1 1.154e+04 2.639e-10
 32.22233    -34.0 1.163e+04 2.933e-10
 32.26253    -32.9 1.169e+04 3.240e-10
 32.30273    -31.8 1.168e+04 3.421e-10
 32.32482    -30.6 1.164e+04 3.455e-10
 32.33566    -31.3 1.177e+04 4.250e-10
 32.35377    -31.9 1.171e+04 4.222e-10
 32.38313    -30.4 1.135e+04 3.769e-10
 32.42333    -28.5 1.107e+04 2.744e-10
 32.46353    -26.7 1.092e+04 1.856e-10
 32.50373    -25.0 1.083e+04 1.297e-10
 32.54382    -23.3 1.076e+04 1.008e-10
 32.56955    -22.0 1.062e+04 8.589e-11
 32.58976    -23.2 1.044e+04 7.691e-11
 32.62433    -21.5 1.045e+04 8.242e-11
 32.66453    -20.1 1.051e+04 1.012e-10
 32.70473    -19.0 1.057e+04 1.375e-10
 32.74493    -18.5 1.090e+04 2.014e-10
 32.78293    -18.4 1.119e+04 3.320e-10
 32.80303    -18.9 1.133e+04 4.605e-10
 32.80565    -18.2 1.160e+04 7.248e-10
 32.82575    -19.0 1.120e+04 4.959e-10
 32.86554    -18.1 1.138e+04 6.633e-10
 32.90574    -17.3 1.142e+04 7.140e-10
 32.94594    -16.4 1.117e+04 6.308e-10
 32.98614    -15.4 1.087e+04 4.404e-10
 33.02154    -14.4 1.063e+04 3.259e-10
 33.03733    -14.6 1.035e+04 2.879e-10
 33.04213    -14.4 1.028e+04 1.994e-10
 33.06654    -12.9 1.009e+04 1.591e-10
 33.10674    -11.1 9.991e+03 1.248e-10
 33.14694     -9.2 9.958e+03 9.286e-11
 33.18714     -7.4 9.938e+03 6.971e-11
 33.22734     -5.6 9.876e+03 5.872e-11
 33.25753     -3.8 9.827e+03 5.655e-11
 33.27123     -3.8 9.567e+03 4.928e-11
 33.28124     -3.3 9.576e+03 4.346e-11
 33.30774     -1.2 9.646e+03 4.362e-11
 33.34794      0.8 9.702e+03 4.832e-11
 33.38814      3.0 9.660e+03 5.711e-11
 33.42834      5.2 9.626e+03 6.841e-11
 33.46854      7.2 9.631e+03 8.203e-11
 33.49352      9.3 9.585e+03 1.000e-10
 33.50512      9.2 9.513e+03 9.776e-11
 33.52035      9.6 9.482e+03 9.464e-11
 33.54894     11.9 9.489e+03 1.209e-10
 33.58914     14.6 9.556e+03 1.346e-10
 33.62934     17.0 9.642e+03 1.282e-10
 33.66955     19.3 9.771e+03 1.113e-10
 33.70941     20.9 1.006e+04 9.418e-11
 33.72951     20.9 1.009e+04 9.073e-11
 33.73935     22.4 1.003e+04 9.188e-11
 33.75945     22.8 9.998e+03 9.007e-11
 33.79015     24.5 9.902e+03 1.037e-10
 33.83035     26.6 9.928e+03 1.138e-10
 33.87055     28.5 1.005e+04 1.148e-10
 33.91075     30.3 1.012e+04 1.194e-10
 33.94540     32.2 1.018e+04 1.311e-10
 33.96550     32.0 1.022e+04 1.655e-10
 33.97846     33.9 1.038e+04 1.732e-10
 33.99856     34.4 1.034e+04 1.607e-10
 34.03135     36.1 1.043e+04 1.613e-10
 34.07155     37.8 1.053e+04 1.582e-10
 34.11175     39.3 1.060e+04 1.580e-10
 34.15195     40.7 1.070e+04 1.606e-10
 34.18139     42.1 1.082e+04 1.692e-10
 34.20149     41.8 1.098e+04 2.123e-10
 34.21756     43.0 1.113e+04 2.365e-10
 34.23767     43.1 1.112e+04 2.629e-10
 34.27255     44.1 1.138e+04 2.925e-10
 34.31275     45.0 1.163e+04 3.325e-10
 34.35295     45.8 1.180e+04 4.001e-10
 34.39315     46.8 1.200e+04 4.967e-10
 34.41738     47.8 1.207e+04 5.775e-10
 34.43748     47.6 1.213e+04 5.716e-10
 34.45667     48.5 1.204e+04 5.408e-10
 34.47677     47.8 1.200e+04 5.675e-10
 34.51376     49.1 1.184e+04 5.536e-10
 34.55396     50.6 1.161e+04 5.185e-10
 34.59416     52.4 1.140e+04 4.504e-10
 34.63326     54.3 1.125e+04 3.802e-10
 34.65336     54.3 1.126e+04 3.590e-10
 34.67456     56.3 1.124e+04 3.621e-10
 34.69578     58.5 1.117e+04 3.657e-10
 34.71588     58.3 1.133e+04 4.200e-10
 34.75496     60.5 1.124e+04 3.891e-10
 34.79516     62.6 1.115e+04 3.510e-10
 34.83536     64.7 1.104e+04 3.240e-10
 34.86925     66.9 1.097e+04 3.172e-10
 34.88935     66.9 1.121e+04 4.049e-10
 34.91478     69.0 1.116e+04 3.971e-10
 34.93488     68.8 1.103e+04 4.175e-10
 34.95596     71.0 1.106e+04 4.377e-10
 34.99616     73.0 1.112e+04 5.111e-10
 35.03636     75.2 1.126e+04 6.205e-10
 35.07656     77.4 1.140e+04 7.424e-10
 35.10524     79.5 1.154e+04 8.543e-10
 35.12534     78.9 1.147e+04 6.910e-10
 35.15389     80.8 1.163e+04 7.937e-10
 35.17399     80.5 1.142e+04 6.326e-10
 35.19716     82.4 1.157e+04 7.383e-10
 35.23736     84.2 1.169e+04 8.490e-10
 35.27757     86.2 1.178e+04 9.560e-10
 35.31777     88.4 1.198e+04 1.108e-09
 35.34123     90.6 1.255e+04 1.409e-09
 35.36133     88.9 1.266e+04 1.431e-09
 35.39300     90.6 1.301e+04 1.661e-09
 35.41310     90.4 1.307e+04 1.766e-09
 35.42822     91.2 1.339e+04 2.105e-09
 35.44822     91.9 1.369e+04 2.474e-09
 35.45903     92.6 1.398e+04 2.879e-09
 35.46908     91.7 1.352e+04 2.207e-09
 35.48842     92.4 1.363e+04 2.275e-09
 35.50852     93.0 1.374e+04 2.309e-09
 35.52240     93.7 1.379e+04 2.178e-09
 35.53245     93.3 1.365e+04 2.295e-09
 35.54872     93.9 1.353e+04 2.006e-09
 35.56698     94.5 1.332e+04 1.571e-09
 35.57713     92.3 1.217e+04 6.541e-10
 35.59917     92.9 1.133e+04 3.422e-10
 35.63210     93.6 1.054e+04 2.189e-10
 35.65220     94.2 1.071e+04 3.464e-10
 35.67957     95.6 1.031e+04 1.985e-10
 35.71977     97.2 1.005e+04 1.235e-10
 35.75997     98.8 9.705e+03 9.186e-11
 35.79311    100.8 9.607e+03 9.149e-11
 35.81321    101.6 9.579e+03 8.347e-11
 35.84037    103.7 9.553e+03 8.358e-11
 35.87121    105.9 9.468e+03 9.162e-11
 35.89131    106.3 9.448e+03 8.182e-11
 35.92077    108.5 9.508e+03 1.079e-10
 35.96097    110.7 9.696e+03 1.514e-10
 36.00117    112.9 9.861e+03 2.048e-10
 36.02910    114.9 9.970e+03 2.576e-10
 36.04920    115.4 9.804e+03 1.459e-10
 36.08157    117.2 9.856e+03 1.821e-10
 36.11031    118.8 9.903e+03 2.157e-10
 36.13041    119.5 9.876e+03 2.153e-10
 36.16198    121.0 9.928e+03 2.435e-10
 36.20218    122.2 1.006e+04 2.784e-10
 36.24238    122.6 1.028e+04 3.497e-10
 36.26509    122.8 1.065e+04 4.983e-10
 36.28519    123.5 1.067e+04 4.612e-10
 36.32278    123.6 1.113e+04 7.117e-10
 36.34942    123.0 1.135e+04 8.262e-10
 36.36952    124.0 1.134e+04 8.498e-10
 36.40318    122.8 1.132e+04 8.346e-10
 36.44338    122.3 1.101e+04 6.983e-10
 36.48098    122.3 1.052e+04 4.716e-10
 36.50108    121.9 1.078e+04 5.748e-10
 36.52378    121.9 1.024e+04 3.373e-10
 36.56398    122.0 9.818e+03 1.887e-10
 36.58853    122.1 9.549e+03 1.372e-10
 36.60863    122.7 9.531e+03 1.391e-10
 36.64438    123.3 9.485e+03 1.370e-10
 36.68458    124.5 9.492e+03 1.399e-10
 36.71697    125.8 9.560e+03 1.541e-10
 36.73707    124.7 9.722e+03 1.738e-10
 36.76498    125.8 9.890e+03 2.027e-10
 36.80518    126.9 1.003e+04 2.327e-10
 36.82763    128.0 1.012e+04 2.479e-10
 36.84773    128.5 1.008e+04 2.478e-10
 36.88558    129.4 1.020e+04 2.675e-10
 36.92579    130.2 1.034e+04 2.907e-10
 36.95296    130.7 1.044e+04 3.182e-10
 36.97306    129.3 9.945e+03 1.686e-10
 37.00619    129.6 9.971e+03 1.798e-10
 37.04639    129.8 1.009e+04 2.193e-10
 37.06674    129.6 1.059e+04 3.287e-10
 37.08684    129.5 1.100e+04 4.134e-10
 37.12679    128.7 1.184e+04 7.465e-10
 37.15684    128.2 1.189e+04 8.636e-10
 37.17605    127.9 1.206e+04 9.863e-10
 37.18610    127.5 1.225e+04 1.065e-09
 37.18876    127.0 1.253e+04 1.272e-09
 37.20895    127.2 1.198e+04 9.438e-10
 37.23724    126.4 1.227e+04 1.158e-09
 37.25724    126.0 1.241e+04 1.282e-09
 37.27734    125.6 1.237e+04 1.252e-09
 37.29560    125.4 1.223e+04 1.131e-09
 37.30490    124.9 1.235e+04 1.154e-09
 37.30675    125.2 1.264e+04 1.464e-09
 37.31754    125.0 1.249e+04 1.298e-09
 37.33765    124.8 1.229e+04 1.042e-09
 37.35775    124.6 1.211e+04 7.936e-10
 37.37785    124.2 1.198e+04 6.014e-10
 37.39795    123.8 1.189e+04 4.865e-10
 37.41470    123.6 1.183e+04 4.584e-10
 37.42185    124.2 1.210e+04 6.211e-10
 37.42520    123.5 1.220e+04 6.801e-10
 37.43815    123.2 1.224e+04 6.960e-10
 37.45825    122.8 1.240e+04 7.770e-10
 37.47835    122.3 1.272e+04 9.874e-10
 37.49845    121.7 1.322e+04 1.396e-09
 37.51855    120.9 1.412e+04 2.136e-09
 37.53269    119.6 1.562e+04 3.541e-09
 37.53880    118.5 1.628e+04 5.378e-09
 37.54475    117.2 1.707e+04 7.625e-09
 37.55875    116.4 1.777e+04 1.068e-08
 37.57885    115.7 1.802e+04 1.242e-08
 37.59895    115.5 1.797e+04 1.233e-08
 37.61905    115.6 1.789e+04 1.037e-08
 37.63915    115.4 1.807e+04 6.799e-09
 37.65068    114.3 1.865e+04 3.479e-09
 37.65574    112.7 1.639e+04 1.286e-09
 37.66431    108.7 1.475e+04 5.076e-10
 37.67935    105.7 1.314e+04 4.081e-10
 37.69945    103.9 1.249e+04 3.300e-10
 37.72970    104.3 1.172e+04 3.143e-10
 37.76396    105.2 1.157e+04 3.321e-10
 37.78406    105.1 1.102e+04 2.421e-10
 37.81020    106.9 1.107e+04 2.568e-10
 37.85040    108.7 1.125e+04 2.977e-10
 37.87672    109.5 1.111e+04 3.039e-10
 37.89682    110.6 1.086e+04 2.911e-10
 37.93080    111.2 1.126e+04 3.642e-10
 37.96085    110.9 1.172e+04 4.579e-10
 37.98085    110.5 1.194e+04 5.197e-10
 38.00296    111.1 1.183e+04 5.468e-10
 38.02316    111.7 1.141e+04 4.124e-10
 38.05140    111.4 1.178e+04 5.709e-10
 38.09160    111.6 1.198e+04 7.572e-10
 38.11281    112.0 1.211e+04 9.112e-10
 38.13291    113.5 1.165e+04 6.492e-10
 38.17200    113.9 1.179e+04 8.511e-10
 38.21220    114.5 1.180e+04 9.305e-10
 38.24217    115.4 1.175e+04 9.079e-10
 38.26227    115.5 1.146e+04 8.088e-10
 38.29260    116.6 1.129e+04 7.277e-10
 38.32870    117.8 1.098e+04 5.660e-10
 38.34880    118.1 1.119e+04 6.979e-10
 38.37300    119.3 1.093e+04 5.796e-10
 38.41320    120.5 1.062e+04 4.728e-10
 38.45340    122.0 1.044e+04 4.364e-10
 38.48127    123.6 1.044e+04 4.442e-10
 38.50137    123.6 1.031e+04 3.659e-10
 38.53381    125.1 1.036e+04 3.898e-10
 38.56469    126.4 1.059e+04 4.573e-10
 38.58479    126.4 1.036e+04 3.665e-10
 38.61421    127.1 1.043e+04 3.917e-10
 38.65441    127.0 1.040e+04 3.933e-10
 38.69461    126.7 1.031e+04 3.891e-10
 38.72038    126.4 1.014e+04 3.799e-10
 38.74048    126.7 9.876e+03 3.575e-10
 38.77501    126.8 9.794e+03 3.504e-10
 38.80068    127.2 9.628e+03 3.193e-10
 38.82078    128.1 9.418e+03 2.559e-10
 38.85541    128.5 9.241e+03 2.149e-10
 38.89561    129.0 9.028e+03 1.729e-10
 38.93581    129.5 8.905e+03 1.599e-10
 38.95949    130.3 8.914e+03 1.629e-10
 38.97959    130.4 8.624e+03 1.147e-10
 39.01621    131.2 8.654e+03 1.303e-10
 39.03667    132.1 8.764e+03 1.664e-10
 39.05677    133.2 8.556e+03 1.309e-10
 39.09661    134.2 8.672e+03 1.679e-10
 39.13681    135.2 8.698e+03 1.874e-10
 39.17701    136.1 8.685e+03 1.868e-10
 39.19859    137.2 8.613e+03 1.785e-10
 39.21869    137.9 8.356e+03 1.434e-10
 39.25256    139.2 8.307e+03 1.364e-10
 39.27266    140.4 8.287e+03 1.350e-10
 39.29761    141.7 8.214e+03 1.212e-10
 39.33781    142.9 8.115e+03 1.039e-10
 39.37802    144.0 8.025e+03 9.269e-11
 39.41760    145.3 8.026e+03 9.234e-11
 39.43770    145.9 8.038e+03 9.893e-11
 39.45842    147.0 8.085e+03 1.042e-10
 39.48855    148.1 8.148e+03 1.152e-10
 39.50865    149.2 8.079e+03 1.026e-10
 39.53882    150.2 8.171e+03 1.188e-10
 39.57902    151.1 8.255e+03 1.391e-10
 39.61922    151.8 8.301e+03 1.537e-10
 39.65670    152.5 8.293e+03 1.538e-10
 39.67680    152.6 8.395e+03 1.682e-10
 39.69962    152.9 8.313e+03 1.543e-10
 39.72454    152.9 8.189e+03 1.355e-10
 39.74464    154.2 8.320e+03 1.538e-10
 39.78002    154.0 8.197e+03 1.361e-10
 39.82022    153.5 8.180e+03 1.338e-10
 39.86042    152.7 8.204e+03 1.384e-10
 39.89581    151.8 8.301e+03 1.548e-10
 39.91591    151.1 8.286e+03 1.560e-10
 39.94043    150.2 8.492e+03 1.929e-10
 39.96053    151.5 8.476e+03 1.828e-10
 39.98102    150.3 8.695e+03 2.217e-10
 40.02122    148.8 9.002e+03 2.701e-10
 40.06142    146.6 9.292e+03 3.152e-10
 40.10162    143.9 9.477e+03 3.458e-10
 40.13492    141.1 9.504e+03 3.579e-10
 40.15502    139.4 9.330e+03 3.279e-10
 40.17188    138.0 9.314e+03 3.296e-10
 40.18627    136.9 9.358e+03 3.428e-10
 40.19632    137.2 9.378e+03 3.455e-10
 40.21198    135.1 9.701e+03 4.253e-10
 40.23208    132.5 1.013e+04 5.885e-10
 40.25218    129.3 1.098e+04 9.606e-10
 40.26432    124.4 1.291e+04 1.816e-09
 40.27437    124.2 1.314e+04 2.066e-09
 40.28731    120.3 1.508e+04 3.066e-09
 40.29731    114.8 1.808e+04 5.305e-09
 40.30417    108.1 2.046e+04 1.178e-08
 40.30919    106.9 2.123e+04 1.607e-08
 40.31741    104.1 2.097e+04 2.274e-08
 40.32400    102.1 2.075e+04 2.295e-08
 40.32903    101.9 2.074e+04 2.282e-08
 40.33751    101.3 2.054e+04 2.186e-08
 40.35263     99.6 1.974e+04 1.642e-08
 40.37278     97.5 1.828e+04 6.657e-09
 40.38388     93.3 1.660e+04 1.219e-09
 40.39393     91.9 1.610e+04 1.226e-09
 40.41231     81.6 1.284e+04 3.991e-10
 40.43251     73.0 9.385e+03 1.755e-10
 40.46343     69.2 8.185e+03 1.752e-10
 40.50363     69.3 8.271e+03 1.894e-10
 40.54383     69.9 8.471e+03 2.150e-10
 40.58403     70.5 8.626e+03 2.333e-10
 40.61313     71.2 8.830e+03 2.522e-10
 40.63323     72.2 8.453e+03 1.893e-10
 40.64840     73.1 8.621e+03 2.011e-10
 40.66850     71.8 8.817e+03 2.202e-10
 40.70463     72.6 9.172e+03 2.590e-10
 40.74483     72.8 9.654e+03 3.200e-10
 40.76629     73.5 9.736e+03 3.360e-10
 40.77625     72.9 9.806e+03 3.506e-10
 40.79489     73.0 1.004e+04 4.034e-10
 40.81499     73.3 1.033e+04 5.001e-10
 40.83509     73.5 1.055e+04 5.973e-10
 40.85204     73.4 1.105e+04 7.452e-10
 40.86209     74.1 1.070e+04 5.950e-10
 40.87414     72.9 1.192e+04 1.016e-09
 40.88419     72.1 1.244e+04 8.549e-10
 40.89031     69.0 1.551e+04 1.341e-09
 40.90032     58.1 2.509e+04 3.817e-09
 40.91037     48.9 2.636e+04 1.415e-08
 40.91674     47.7 2.333e+04 3.846e-08
 40.92177     49.2 2.466e+04 2.476e-08
 40.93047     49.4 2.255e+04 5.124e-08
 40.93806     50.5 2.141e+04 8.200e-08
 40.94309     50.2 2.106e+04 9.967e-08
 40.95057     51.4 2.107e+04 9.752e-08
 40.96062     52.4 2.106e+04 7.886e-08
 40.97067     52.0 2.163e+04 4.679e-08
 40.97652     50.8 2.325e+04 2.032e-08
 40.98155     49.5 2.315e+04 2.026e-08
 40.99209     42.8 2.379e+04 8.364e-09
 41.00218     37.8 2.426e+04 4.783e-09
 41.01599     25.5 1.543e+04 1.780e-09
 41.03609     22.9 1.235e+04 1.401e-09
 41.05619     23.4 1.194e+04 1.228e-09
 41.07629     23.9 1.177e+04 1.092e-09
 41.09115     24.4 1.162e+04 9.321e-10
 41.10120     24.3 1.165e+04 9.360e-10
 41.11013     23.8 1.155e+04 8.266e-10
 41.12018     23.1 1.159e+04 8.388e-10
 41.13659     23.1 1.136e+04 7.919e-10
 41.15669     23.2 1.123e+04 8.039e-10
 41.17679     23.8 1.105e+04 8.028e-10
 41.19689     24.8 1.085e+04 7.768e-10
 41.21070     25.9 1.073e+04 7.031e-10
 41.22075     25.9 1.064e+04 6.543e-10
 41.22812     26.3 1.063e+04 6.178e-10
 41.23817     26.1 1.054e+04 5.751e-10
 41.25719     26.7 1.028e+04 4.640e-10
 41.27729     26.7 1.026e+04 4.491e-10
 41.30754     27.3 1.004e+04 3.806e-10
 41.33045     27.6 1.009e+04 3.886e-10
 41.33897     27.6 9.951e+03 3.739e-10
 41.35636     26.9 9.939e+03 4.029e-10
 41.38804     28.0 1.021e+04 5.515e-10
 41.42824     29.6 1.036e+04 6.592e-10
 41.46844     31.1 1.031e+04 6.398e-10
 41.50864     32.4 1.015e+04 5.629e-10
 41.54884     33.4 1.004e+04 5.103e-10
 41.56955     34.6 1.006e+04 5.297e-10
 41.57287     34.9 9.660e+03 3.995e-10
 41.59235     34.8 9.536e+03 3.743e-10
 41.62924     36.8 9.714e+03 4.507e-10
 41.66944     38.9 9.878e+03 4.873e-10
 41.70964     40.9 9.893e+03 4.757e-10
 41.74984     42.8 9.855e+03 4.276e-10
 41.78814     44.2 9.810e+03 3.781e-10
 41.80676     44.2 9.804e+03 3.676e-10
 41.80866     44.2 9.408e+03 2.586e-10
 41.83025     45.3 9.458e+03 2.774e-10
 41.87045     46.5 9.592e+03 3.231e-10
 41.91065     48.1 9.782e+03 3.741e-10
 41.95085     49.7 9.925e+03 3.931e-10
 41.99105     51.3 9.893e+03 3.687e-10
 42.02413     52.8 9.843e+03 3.159e-10
 42.04065     52.2 1.004e+04 3.489e-10
 42.04777     52.0 9.714e+03 2.699e-10
 42.07145     53.0 9.733e+03 2.330e-10
 42.11165     54.2 9.781e+03 2.368e-10
 42.14170     55.1 9.764e+03 2.417e-10
 42.15198     55.9 9.760e+03 2.592e-10
 42.15740     55.5 9.829e+03 2.711e-10
 42.16712     55.1 9.848e+03 2.594e-10
 42.18180     55.9 9.992e+03 2.958e-10
 42.20190     55.6 1.082e+04 3.999e-10
 42.22200     53.4 1.334e+04 7.842e-10
 42.24211     50.3 1.616e+04 2.096e-09
 42.25993     48.6 1.773e+04 5.216e-09
 42.26998     48.2 1.670e+04 7.110e-09
 42.27663     48.4 1.763e+04 1.027e-08
 42.28668     46.8 1.808e+04 7.834e-09
 42.30241     45.8 1.875e+04 1.088e-08
 42.32251     44.3 1.847e+04 1.064e-08
 42.34261     42.7 1.744e+04 8.727e-09
 42.36271     41.2 1.605e+04 6.112e-09
 42.37792     39.6 1.504e+04 4.039e-09
 42.38797     38.7 1.375e+04 3.288e-09
 42.39618     37.8 1.341e+04 2.461e-09
 42.40623     38.5 1.363e+04 2.174e-09
 42.42301     36.0 1.382e+04 1.513e-09
 42.44311     32.2 1.339e+04 1.224e-09
 42.46321     28.9 1.235e+04 1.201e-09
 42.48331     27.2 1.177e+04 1.231e-09
 42.49592     26.2 1.177e+04 1.255e-09
 42.50597     27.5 1.177e+04 1.286e-09
 42.51573     26.4 1.168e+04 1.223e-09
 42.52578     26.3 1.167e+04 1.150e-09
 42.54361     24.0 1.194e+04 1.106e-09
 42.56371     20.7 1.214e+04 1.076e-09
 42.58381     17.0 1.213e+04 1.176e-09
 42.60386     13.8 1.227e+04 1.355e-09
 42.62396     12.0 1.288e+04 1.740e-09
 42.63529     10.1 1.262e+04 2.014e-09
 42.64534     10.5 1.248e+04 1.890e-09
 42.66421      9.1 1.230e+04 1.885e-09
 42.68431      7.3 1.247e+04 1.749e-09
 42.70441      4.6 1.276e+04 1.542e-09
 42.72186      1.2 1.250e+04 1.386e-09
 42.73191     -0.4 1.391e+04 2.316e-09
 42.74461     -2.3 1.396e+04 2.299e-09
 42.75484     -4.8 1.390e+04 1.945e-09
 42.76489     -4.4 1.321e+04 1.609e-09
 42.78481     -9.5 1.477e+04 1.865e-09
 42.80491    -19.0 1.909e+04 3.634e-09
 42.82501    -27.4 2.174e+04 9.242e-09
 42.83985    -31.7 2.151e+04 1.694e-08
 42.84483    -32.8 2.219e+04 2.320e-08
 42.85004    -33.4 2.212e+04 2.450e-08
 42.86009    -34.6 2.037e+04 2.624e-08
 42.86927    -35.5 2.003e+04 2.055e-08
 42.87429    -34.8 2.049e+04 2.229e-08
 42.88019    -35.9 2.020e+04 1.685e-08
 42.89024    -37.1 2.036e+04 1.168e-08
 42.89875    -38.9 2.040e+04 7.073e-09
 42.90378    -41.5 2.006e+04 4.610e-09
 42.91034    -44.2 1.837e+04 2.785e-09
 42.92546    -46.1 1.708e+04 1.909e-09
 42.94561    -52.2 1.140e+04 6.729e-10
 42.95785    -53.0 1.021e+04 5.141e-10
 42.96790    -53.4 1.016e+04 5.471e-10
 42.98389    -52.9 1.007e+04 4.746e-10
 42.99394    -52.3 1.039e+04 6.120e-10
 43.00591    -52.1 1.029e+04 5.485e-10
 43.02601    -51.9 1.019e+04 5.098e-10
 43.04612    -51.8 1.010e+04 4.843e-10
 43.06579    -51.5 1.003e+04 4.642e-10
 43.07584    -51.9 1.017e+04 4.868e-10
 43.08632    -51.5 1.005e+04 4.530e-10
 43.10345    -51.0 9.876e+03 4.133e-10
 43.11350    -50.7 1.025e+04 5.442e-10
 43.12652    -50.1 9.973e+03 4.739e-10
 43.15676    -49.5 9.548e+03 3.667e-10
 43.18398    -48.5 9.295e+03 3.175e-10
 43.20408    -48.7 9.306e+03 3.026e-10
 43.22320    -47.6 8.818e+03 2.171e-10
 43.24330    -47.0 9.151e+03 2.937e-10
 43.27746    -45.5 8.785e+03 2.327e-10
 43.31766    -43.7 8.673e+03 2.167e-10
 43.35786    -42.0 8.655e+03 2.153e-10
 43.39806    -40.3 8.697e+03 2.316e-10
 43.41997    -38.6 8.762e+03 2.553e-10
 43.44007    -37.9 8.739e+03 2.484e-10
 43.46230    -36.0 8.782e+03 2.613e-10
 43.48240    -35.3 8.907e+03 2.987e-10
 43.51867    -33.6 8.920e+03 3.026e-10
 43.55887    -32.0 8.874e+03 2.923e-10
 43.59907    -30.5 8.788e+03 2.561e-10
 43.63586    -29.5 8.737e+03 2.226e-10
 43.65596    -28.0 8.587e+03 1.959e-10
 43.67947    -27.3 8.610e+03 1.832e-10
 43.70141    -27.0 8.664e+03 1.834e-10
 43.72151    -25.9 8.657e+03 1.790e-10
 43.75987    -26.9 9.185e+03 2.263e-10
 43.80007    -31.5 1.131e+04 5.764e-10
 43.84027    -36.5 1.282e+04 1.465e-09
 43.87032    -39.8 1.345e+04 2.810e-09
 43.88171    -41.1 1.342e+04 3.080e-09
 43.89176    -40.7 1.363e+04 3.462e-09
 43.91043    -41.6 1.328e+04 3.057e-09
 43.93027    -43.2 1.283e+04 1.953e-09
 43.94032    -42.9 1.306e+04 2.122e-09
 43.95063    -46.5 1.225e+04 1.207e-09
 43.97073    -50.5 1.119e+04 8.124e-10
 43.98965    -52.8 1.067e+04 7.100e-10
 43.99970    -53.4 1.062e+04 6.879e-10
 44.01093    -54.1 1.050e+04 6.684e-10
 44.03103    -54.6 1.041e+04 6.576e-10
 44.04982    -54.9 1.026e+04 6.308e-10
 44.05987    -54.6 1.043e+04 7.051e-10
 44.07123    -54.6 1.025e+04 6.452e-10
 44.09133    -54.7 1.004e+04 5.530e-10
 44.10774    -55.0 9.713e+03 4.034e-10
 44.11779    -54.9 9.859e+03 4.691e-10
 44.13153    -55.0 9.695e+03 3.948e-10
 44.15163    -55.3 9.576e+03 3.406e-10
 44.16938    -55.5 9.496e+03 3.053e-10
 44.17943    -55.3 9.531e+03 3.273e-10
 44.19183    -55.7 9.522e+03 3.102e-10
 44.21193    -56.5 9.567e+03 3.089e-10
 44.22564    -58.0 9.954e+03 3.264e-10
 44.23569    -58.1 1.014e+04 3.585e-10
 44.25213    -60.9 1.121e+04 4.762e-10
 44.27223    -63.7 1.223e+04 7.390e-10
 44.28893    -65.7 1.274e+04 1.163e-09
 44.29898    -65.1 1.255e+04 1.153e-09
 44.31243    -66.1 1.273e+04 1.664e-09
 44.33253    -66.4 1.270e+04 2.030e-09
 44.34363    -66.4 1.263e+04 2.111e-09
 44.35368    -66.9 1.348e+04 2.812e-09
 44.37273    -66.7 1.326e+04 2.049e-09
 44.39283    -67.3 1.319e+04 1.386e-09
 44.40848    -69.1 1.277e+04 9.563e-10
 44.41853    -69.1 1.256e+04 9.177e-10
 44.43303    -70.4 1.181e+04 6.759e-10
 44.45158    -70.9 1.132e+04 5.574e-10
 44.46163    -72.7 1.163e+04 9.566e-10
 44.47323    -72.0 1.141e+04 8.868e-10
 44.49333    -71.2 1.120e+04 7.821e-10
 44.51343    -70.3 1.099e+04 6.293e-10
 44.52803    -69.6 1.075e+04 4.483e-10
 44.53808    -69.6 1.065e+04 3.826e-10
 44.55962    -69.2 1.029e+04 2.795e-10
 44.57972    -69.0 1.042e+04 4.920e-10
 44.59383    -68.4 1.036e+04 3.922e-10
 44.61393    -68.1 1.032e+04 3.326e-10
 44.63403    -67.7 1.026e+04 3.101e-10
 44.64759    -67.2 1.025e+04 3.065e-10
 44.65764    -67.3 1.028e+04 3.071e-10
 44.67424    -66.6 1.026e+04 3.167e-10
 44.68757    -65.8 1.032e+04 3.609e-10
 44.69762    -66.1 1.070e+04 5.151e-10
 44.71444    -64.9 1.052e+04 4.737e-10
 44.73454    -64.1 1.039e+04 4.542e-10
 44.76478    -62.7 1.018e+04 4.307e-10
 44.79571    -60.3 9.722e+03 3.600e-10
 44.81581    -60.9 9.969e+03 4.283e-10
 44.84528    -58.9 9.587e+03 3.092e-10
 44.87684    -56.3 9.096e+03 2.114e-10
 44.89694    -55.9 9.094e+03 2.097e-10
 44.92568    -53.2 8.718e+03 1.468e-10
 44.96588    -50.6 8.511e+03 1.074e-10
 45.00608    -48.1 8.412e+03 8.246e-11
 45.03170    -45.7 8.346e+03 6.784e-11
 45.05180    -46.1 8.364e+03 7.816e-11
 45.08649    -43.5 8.305e+03 6.897e-11
 45.11594    -40.9 8.256e+03 6.469e-11
 45.13604    -40.3 8.228e+03 5.977e-11
 45.16689    -37.7 8.194e+03 5.815e-11
 45.20709    -35.1 8.184e+03 5.800e-11
 45.24729    -32.5 8.209e+03 6.082e-11
 45.26769    -30.0 8.250e+03 6.678e-11
 45.28779    -30.0 8.334e+03 7.128e-11
 45.32769    -27.4 8.366e+03 7.847e-11
 45.35505    -24.9 8.402e+03 8.628e-11
 45.37515    -24.3 8.371e+03 7.614e-11
 45.40809    -21.8 8.419e+03 8.793e-11
 45.44829    -19.3 8.474e+03 9.905e-11
 45.48358    -16.7 8.547e+03 1.105e-10
 45.50368    -16.8 8.539e+03 1.062e-10
 45.52869    -14.3 8.618e+03 1.186e-10
 45.56889    -11.9 8.699e+03 1.244e-10
 45.59416     -9.7 8.773e+03 1.290e-10
 45.61426     -9.1 8.853e+03 1.457e-10
 45.64929     -7.0 8.908e+03 1.480e-10
 45.68949     -4.9 8.953e+03 1.469e-10
 45.71957     -2.7 9.002e+03 1.405e-10
 45.73967     -2.6 8.955e+03 1.371e-10
 45.76989     -0.5 8.938e+03 1.206e-10
 45.81009      1.5 8.944e+03 1.029e-10
 45.83326      3.2 9.003e+03 9.046e-11
 45.85336      3.3 9.044e+03 9.919e-11
 45.89050      4.9 9.147e+03 1.005e-10
 45.93070      6.4 9.195e+03 1.142e-10
 45.95556      8.1 9.238e+03 1.347e-10
 45.97566      8.7 9.127e+03 1.072e-10
 46.01110     10.4 9.305e+03 1.208e-10
 46.05130     11.7 9.524e+03 1.404e-10
 46.07237     13.0 9.614e+03 1.649e-10
 46.09247     12.5 9.800e+03 2.298e-10
 46.13170     14.4 9.815e+03 2.662e-10
 46.17145     16.3 9.868e+03 2.524e-10
 46.19155     17.2 9.668e+03 2.022e-10
 46.21210     19.0 9.789e+03 1.565e-10
 46.25230     20.4 9.829e+03 1.173e-10
 46.29137     21.6 9.773e+03 9.521e-11
 46.31148     21.4 9.882e+03 1.117e-10
 46.33270     22.8 9.709e+03 1.017e-10
 46.37290     24.7 9.641e+03 1.018e-10
 46.40744     27.0 9.618e+03 1.001e-10
 46.42754     27.2 9.625e+03 9.622e-11
 46.45330     29.5 9.608e+03 9.376e-11
 46.49350     31.7 9.636e+03 8.639e-11
 46.53048     33.8 9.703e+03 8.294e-11
 46.55058     33.3 9.839e+03 9.932e-11
 46.57390     35.3 9.894e+03 1.022e-10
 46.61410     37.0 1.004e+04 1.170e-10
 46.64343     38.8 1.019e+04 1.600e-10
 46.66353     39.0 1.031e+04 1.558e-10
 46.69451     41.1 1.045e+04 2.123e-10
 46.73471     43.4 1.063e+04 2.970e-10
 46.76959     45.7 1.087e+04 3.876e-10
 46.78969     45.4 1.078e+04 3.085e-10
 46.81511     47.6 1.095e+04 3.233e-10
 46.85531     49.5 1.110e+04 3.347e-10
 46.87942     51.2 1.125e+04 3.596e-10
 46.89952     49.8 1.117e+04 3.243e-10
 46.93571     51.2 1.132e+04 4.798e-10
 46.97591     53.2 1.200e+04 8.293e-10
 47.00869     54.4 1.284e+04 1.302e-09
 47.02879     53.9 1.263e+04 1.180e-09
 47.05631     54.4 1.341e+04 1.672e-09
 47.08636     53.5 1.385e+04 2.147e-09
 47.10516     53.4 1.390e+04 2.459e-09
 47.11521     52.9 1.337e+04 2.328e-09
 47.12647     53.1 1.351e+04 2.501e-09
 47.13810     53.2 1.364e+04 2.493e-09
 47.14815     53.0 1.369e+04 2.667e-09
 47.16667     53.1 1.371e+04 2.630e-09
 47.18677     53.1 1.370e+04 2.495e-09
 47.20687     53.1 1.357e+04 2.281e-09
 47.22316     53.2 1.337e+04 2.047e-09
 47.23321     52.7 1.331e+04 1.692e-09
 47.24707     52.8 1.311e+04 1.605e-09
 47.25765     53.2 1.290e+04 1.509e-09
 47.26770     53.4 1.294e+04 1.600e-09
 47.28727     53.7 1.267e+04 1.408e-09
 47.30737     54.1 1.241e+04 1.249e-09
 47.32747     54.5 1.226e+04 1.117e-09
 47.34115     54.8 1.213e+04 1.014e-09
 47.35120     55.0 1.221e+04 1.103e-09
 47.36716     55.6 1.210e+04 1.027e-09
 47.37721     55.8 1.207e+04 1.040e-09
 47.38777     56.3 1.194e+04 9.535e-10
 47.40787     56.8 1.177e+04 8.817e-10
 47.42797     57.3 1.161e+04 8.682e-10
 47.44807     57.8 1.162e+04 8.780e-10
 47.45915     58.0 1.171e+04 9.247e-10
 47.46920     58.0 1.178e+04 8.368e-10
 47.48671     57.7 1.209e+04 9.564e-10
 47.49676     57.9 1.208e+04 1.017e-09
 47.50837     57.4 1.254e+04 1.303e-09
 47.52847     56.9 1.308e+04 1.825e-09
 47.54857     57.2 1.359e+04 2.511e-09
 47.56709     57.6 1.378e+04 2.863e-09
 47.57714     57.7 1.355e+04 2.145e-09
 47.58877     57.8 1.349e+04 2.158e-09
 47.60626     58.1 1.319e+04 1.964e-09
 47.61631     58.1 1.310e+04 1.738e-09
 47.62897     58.2 1.276e+04 1.478e-09
 47.65922     58.0 1.229e+04 1.127e-09
 47.69952     57.8 1.166e+04 7.553e-10
 47.72601     58.0 1.129e+04 5.965e-10
 47.74611     58.2 1.115e+04 6.527e-10
 47.77992     59.6 1.116e+04 6.664e-10
 47.80327     61.6 1.139e+04 7.848e-10
 47.82338     62.1 1.208e+04 1.217e-09
 47.84547     62.1 1.226e+04 1.337e-09
 47.85542     62.4 1.223e+04 1.323e-09
 47.87017     62.7 1.248e+04 1.523e-09
 47.89027     62.9 1.286e+04 1.902e-09
 47.91037     63.3 1.326e+04 2.500e-09
 47.92107     64.1 1.371e+04 3.298e-09
 47.93112     64.5 1.391e+04 3.666e-09
 47.95058     65.5 1.441e+04 4.508e-09
 47.96492     66.6 1.484e+04 5.043e-09
 47.97497     66.6 1.478e+04 4.986e-09
 47.99078     67.2 1.505e+04 5.078e-09
 48.01088     67.6 1.508e+04 5.000e-09
 48.02902     67.8 1.508e+04 4.821e-09
 48.03907     67.4 1.449e+04 4.257e-09
 48.05108     67.4 1.454e+04 4.315e-09
 48.07118     67.5 1.464e+04 4.576e-09
 48.08448     67.8 1.481e+04 5.050e-09
 48.09453     67.8 1.455e+04 4.752e-09
 48.11138     68.3 1.488e+04 5.276e-09
 48.13148     68.7 1.505e+04 5.360e-09
 48.14701     68.7 1.505e+04 5.231e-09
 48.15706     68.8 1.445e+04 4.517e-09
 48.17168     68.8 1.446e+04 4.256e-09
 48.19178     68.4 1.446e+04 4.037e-09
 48.20403     67.9 1.445e+04 4.003e-09
 48.21408     68.3 1.356e+04 2.680e-09
 48.23198     67.9 1.354e+04 2.691e-09
 48.25208     67.7 1.347e+04 2.693e-09
 48.26501     67.8 1.338e+04 2.692e-09
 48.27506     68.1 1.281e+04 2.127e-09
 48.29228     68.3 1.272e+04 2.018e-09
 48.31238     68.5 1.269e+04 2.018e-09
 48.34263     69.1 1.228e+04 1.604e-09
 48.38293     69.7 1.197e+04 1.393e-09
 48.42313     70.7 1.145e+04 1.109e-09
 48.46333     72.8 1.093e+04 8.548e-10
 48.49114     73.3 1.073e+04 7.568e-10
 48.51124     74.5 1.013e+04 5.068e-10
 48.54373     75.2 1.022e+04 5.265e-10
 48.58393     75.7 1.043e+04 5.786e-10
 48.62413     76.1 1.078e+04 6.597e-10
 48.66234     76.2 1.092e+04 6.847e-10
 48.68244     77.8 1.068e+04 5.771e-10
 48.70453     78.2 1.057e+04 5.181e-10
 48.72713     79.0 1.011e+04 4.389e-10
 48.74723     81.2 1.021e+04 4.940e-10
 48.78493     82.0 9.672e+03 3.863e-10
 48.82513     83.1 9.053e+03 2.878e-10
 48.86533     84.5 8.564e+03 2.268e-10
 48.90144     86.0 8.385e+03 2.059e-10
 48.92154     87.2 8.304e+03 2.006e-10
 48.94302     88.8 8.227e+03 1.910e-10
 48.96312     90.0 8.220e+03 1.982e-10
 48.98593     91.4 8.246e+03 2.066e-10
 49.02613     92.3 8.744e+03 2.822e-10
 49.06633     92.9 9.642e+03 4.794e-10
 49.10653     93.6 1.012e+04 6.634e-10
 49.13659     94.3 1.005e+04 6.515e-10
 49.15040     94.7 1.016e+04 7.083e-10
 49.16055     96.1 9.608e+03 4.968e-10
 49.17679     96.1 9.920e+03 6.209e-10
 49.18887     96.4 1.006e+04 7.187e-10
 49.19892     96.6 9.990e+03 6.948e-10
 49.21689     97.2 1.009e+04 7.753e-10
 49.23699     98.0 1.008e+04 7.825e-10
 49.25709     98.8 1.006e+04 7.542e-10
 49.26996     99.5 9.959e+03 6.619e-10
 49.28001    100.4 1.003e+04 7.451e-10
 49.29681    101.2 9.959e+03 6.372e-10
 49.30686    101.6 1.007e+04 7.137e-10
 49.31739    102.1 9.944e+03 5.960e-10
 49.34764    102.4 9.629e+03 4.152e-10
 49.37965    103.2 9.188e+03 2.788e-10
 49.39975    104.9 9.514e+03 3.466e-10
 49.41500    105.2 8.963e+03 2.197e-10
 49.43510    105.7 9.223e+03 2.945e-10
 49.46834    106.3 8.951e+03 2.477e-10
 49.50854    107.0 8.955e+03 2.500e-10
 49.54874    108.0 9.169e+03 2.813e-10
 49.58894    108.9 9.565e+03 3.481e-10
 49.61876    109.6 9.867e+03 4.125e-10
 49.63886    109.9 9.827e+03 4.104e-10
 49.65089    110.4 9.999e+03 4.615e-10
 49.66085    110.8 1.011e+04 5.281e-10
 49.67920    111.3 1.030e+04 5.590e-10
 49.69930    111.6 1.043e+04 5.615e-10
 49.71940    111.8 1.046e+04 5.589e-10
 49.73812    111.8 1.051e+04 5.470e-10
 49.74817    111.7 1.066e+04 6.149e-10
 49.75874    111.7 1.071e+04 5.940e-10
 49.76879    112.0 1.068e+04 5.875e-10
 49.77970    111.8 1.070e+04 5.430e-10
 49.79980    111.6 1.074e+04 4.996e-10
 49.81990    111.4 1.079e+04 4.650e-10
 49.84000    111.1 1.084e+04 4.495e-10
 49.85767    110.7 1.091e+04 4.505e-10
 49.86772    110.6 1.099e+04 4.533e-10
 49.87674    110.4 1.105e+04 4.566e-10
 49.88679    110.6 1.105e+04 4.481e-10
 49.90030    110.4 1.125e+04 4.735e-10
 49.92040    110.2 1.155e+04 5.504e-10
 49.94050    110.2 1.187e+04 6.874e-10
 49.96060    110.4 1.216e+04 8.703e-10
 49.97722    111.0 1.241e+04 1.053e-09
 49.98727    111.1 1.224e+04 8.980e-10
 49.99473    111.7 1.250e+04 1.022e-09
 50.00478    111.7 1.285e+04 1.211e-09
 50.02090    111.8 1.351e+04 1.471e-09
 50.04100    111.1 1.469e+04 1.807e-09
 50.06110    109.7 1.609e+04 2.166e-09
 50.07613    104.7 2.040e+04 4.075e-09
 50.08613    100.3 2.248e+04 7.717e-09
 50.09618     97.0 2.251e+04 1.420e-08
 50.10170     95.6 2.179e+04 2.342e-08
 50.10673     95.8 2.066e+04 4.228e-08
 50.11263     95.8 2.055e+04 5.979e-08
 50.11765     97.3 2.045e+04 7.826e-08
 50.12633     96.8 2.075e+04 8.037e-08
 50.13638     96.5 2.083e+04 7.368e-08
 50.14643     96.3 2.118e+04 5.331e-08
 50.15646     95.3 2.162e+04 3.255e-08
 50.16651     92.5 2.168e+04 1.675e-08
 50.18165     88.8 2.024e+04 7.437e-09
 50.20180     83.6 1.621e+04 3.641e-09
 50.21633     82.6 1.418e+04 2.862e-09
 50.22515     82.1 1.407e+04 2.651e-09
 50.23072     82.4 1.365e+04 1.724e-09
 50.24200     83.4 1.346e+04 1.699e-09
 50.26210     84.6 1.338e+04 1.709e-09
 50.28220     86.1 1.330e+04 1.689e-09
 50.31245     87.8 1.334e+04 1.795e-09
 50.33608     90.2 1.323e+04 1.696e-09
 50.34229     90.3 1.295e+04 1.496e-09
 50.35896     91.1 1.235e+04 8.812e-10
 50.39295     93.9 1.268e+04 1.160e-09
 50.43315     96.7 1.310e+04 1.501e-09
 50.45553     98.1 1.341e+04 1.807e-09
 50.45904     98.4 1.316e+04 1.599e-09
 50.46671     98.4 1.316e+04 1.567e-09
 50.48321    100.1 1.346e+04 1.839e-09
 50.50331    101.3 1.380e+04 2.146e-09
 50.52341    102.5 1.409e+04 2.454e-09
 50.54351    103.6 1.434e+04 2.758e-09
 50.56361    104.9 1.459e+04 3.021e-09
 50.57466    105.9 1.484e+04 3.260e-09
 50.57599    106.1 1.516e+04 4.076e-09
 50.58504    106.1 1.461e+04 3.129e-09
 50.60381    107.0 1.491e+04 3.597e-09
 50.62391    108.0 1.514e+04 4.066e-09
 50.64401    108.9 1.530e+04 4.563e-09
 50.66411    109.7 1.538e+04 5.053e-09
 50.68260    110.7 1.541e+04 5.494e-09
 50.69265    111.3 1.531e+04 5.435e-09
 50.69454    112.4 1.527e+04 5.556e-09
 50.70459    112.4 1.447e+04 3.870e-09
 50.72441    113.5 1.437e+04 3.762e-09
 50.74451    114.5 1.414e+04 3.490e-09
 50.76461    115.5 1.380e+04 3.082e-09
 50.78471    116.5 1.344e+04 2.650e-09
 50.80059    117.6 1.307e+04 2.227e-09
 50.80988    117.9 1.283e+04 1.790e-09
 50.81419    117.3 1.233e+04 1.352e-09
 50.83516    119.1 1.185e+04 1.048e-09
 50.87536    121.1 1.143e+04 8.359e-10
 50.91556    123.4 1.109e+04 7.467e-10
 50.95576    125.8 1.099e+04 7.335e-10
 50.99596    128.5 1.099e+04 7.464e-10
 51.02673    131.1 1.103e+04 7.911e-10
 51.04397    131.8 1.036e+04 4.452e-10
 51.05340    131.8 1.012e+04 4.101e-10
 51.07636    134.5 1.018e+04 4.426e-10
 51.11656    137.2 1.025e+04 4.768e-10
 51.15676    139.9 1.030e+04 5.001e-10
 51.19696    142.6 1.035e+04 5.097e-10
 51.23716    145.3 1.039e+04 4.980e-10
 51.26272    147.8 1.040e+04 4.685e-10
 51.27786    149.0 1.033e+04 5.672e-10
 51.29250    149.3 9.837e+03 4.039e-10
 51.31756    151.8 9.880e+03 3.863e-10
 51.35776    154.3 9.888e+03 3.542e-10
 51.39796    156.7 9.826e+03 3.166e-10
 51.43816    159.0 9.717e+03 2.816e-10
 51.47836    161.4 9.594e+03 2.615e-10
 51.49871    163.8 9.490e+03 2.588e-10
 51.51175    165.3 9.674e+03 2.854e-10
 51.53161    165.7 9.264e+03 2.214e-10
 51.55876    168.1 9.095e+03 2.160e-10
 51.59897    170.6 9.071e+03 2.191e-10
 51.63917    173.2 9.072e+03 2.273e-10
 51.67937    175.9 9.179e+03 2.548e-10
 51.71460    178.6 9.455e+03 3.117e-10
 51.73470    179.7 9.175e+03 2.594e-10
 51.75062    182.4 9.435e+03 3.211e-10
 51.77072    182.5 9.212e+03 2.754e-10
 51.79997    185.2 9.590e+03 3.542e-10
 51.84017    187.9 1.024e+04 5.121e-10
 51.88037    190.4 1.118e+04 8.114e-10
 51.92057    192.6 1.213e+04 1.263e-09
 51.95049    193.5 1.245e+04 1.492e-09
 51.97059    195.7 1.229e+04 1.235e-09
 51.98962    195.9 1.286e+04 1.587e-09
 52.00972    196.5 1.257e+04 1.396e-09
 52.04117    197.7 1.315e+04 1.910e-09
 52.08137    198.8 1.314e+04 1.925e-09
 52.12157    199.9 1.284e+04 1.689e-09
 52.16177    200.8 1.235e+04 1.371e-09
 52.18658    202.0 1.178e+04 1.025e-09
 52.20668    203.6 1.202e+04 1.135e-09
 52.22883    204.9 1.171e+04 9.902e-10
 52.24893    205.1 1.126e+04 8.135e-10
 52.28237    206.6 1.102e+04 7.071e-10
 52.32257    208.3 1.073e+04 5.864e-10
 52.36277    210.2 1.043e+04 4.805e-10
 52.40247    212.1 1.015e+04 3.970e-10
 52.42257    213.5 1.058e+04 5.497e-10
 52.44318    215.5 1.034e+04 4.892e-10
 52.46793    217.5 1.016e+04 4.614e-10
 52.48803    217.5 1.021e+04 4.735e-10
 52.52358    219.3 1.013e+04 4.618e-10
 52.56378    221.0 1.013e+04 4.636e-10
 52.60398    222.4 1.015e+04 4.742e-10
 52.63846    223.6 1.025e+04 5.072e-10
 52.65856    223.6 1.057e+04 6.185e-10
 52.68438    224.1 1.042e+04 5.439e-10
 52.70704    224.5 1.020e+04 4.588e-10
 52.72714    223.7 9.735e+03 3.778e-10
 52.76478    224.0 9.626e+03 3.658e-10
 52.80498    224.5 9.636e+03 3.718e-10
 52.84518    225.0 9.744e+03 4.086e-10
 52.87445    225.6 1.004e+04 5.038e-10
 52.89455    225.4 9.864e+03 4.499e-10
 52.92558    226.2 1.040e+04 6.352e-10
 52.94615    226.9 1.093e+04 8.759e-10
 52.96625    226.8 1.071e+04 7.610e-10
 53.00598    227.3 1.110e+04 9.670e-10
 53.04618    227.5 1.129e+04 1.090e-09
 53.08638    227.5 1.130e+04 1.096e-09
 53.11044    227.4 1.126e+04 1.078e-09
 53.13054    226.0 1.162e+04 1.295e-09
 53.16515    225.8 1.150e+04 1.229e-09
 53.18525    224.9 1.138e+04 1.149e-09
 53.20699    224.7 1.103e+04 9.824e-10
 53.24719    224.9 1.050e+04 7.632e-10
 53.28739    225.6 9.908e+03 5.642e-10
 53.32633    226.5 9.362e+03 4.239e-10
 53.34643    225.1 9.488e+03 4.787e-10
 53.36779    226.4 9.091e+03 3.873e-10
 53.40426    227.8 8.842e+03 3.310e-10
 53.42436    227.0 9.034e+03 3.699e-10
 53.44819    228.5 8.921e+03 3.355e-10
 53.48839    229.9 8.849e+03 3.083e-10
 53.52859    231.2 8.799e+03 2.860e-10
 53.56232    232.2 8.745e+03 2.586e-10
 53.58242    231.3 8.901e+03 2.972e-10
 53.60899    232.1 8.802e+03 2.616e-10
 53.64336    232.6 8.761e+03 2.430e-10
 53.66346    231.3 8.580e+03 2.096e-10
 53.68939    231.8 8.574e+03 2.080e-10
 53.72959    232.3 8.651e+03 2.154e-10
 53.76979    232.4 8.935e+03 2.506e-10
 53.79831    232.2 9.292e+03 3.114e-10
 53.81841    231.6 9.328e+03 3.384e-10
 53.84005    231.2 9.464e+03 3.710e-10
 53.86005    231.0 9.716e+03 4.320e-10
 53.88015    230.7 1.011e+04 5.462e-10
 53.89232    230.1 1.056e+04 7.045e-10
 53.90237    229.9 1.021e+04 5.801e-10
 53.91611    229.2 1.067e+04 7.451e-10
 53.92616    229.3 1.096e+04 8.606e-10
 53.94045    228.4 1.148e+04 1.103e-09
 53.96055    227.4 1.193e+04 1.374e-09
 53.98065    226.2 1.226e+04 1.615e-09
 54.00075    224.8 1.241e+04 1.700e-09
 54.01188    223.1 1.240e+04 1.694e-09
 54.02193    223.1 1.218e+04 1.577e-09
 54.03410    221.3 1.215e+04 1.555e-09
 54.04415    221.8 1.247e+04 1.720e-09
 54.06105    220.0 1.231e+04 1.602e-09
 54.08115    218.1 1.203e+04 1.399e-09
 54.10125    216.1 1.165e+04 1.154e-09
 54.12135    214.0 1.121e+04 9.136e-10
 54.14145    212.0 1.062e+04 6.312e-10
 54.15209    209.9 1.011e+04 4.655e-10
 54.16215    210.5 1.029e+04 5.142e-10
 54.18165    208.4 9.737e+03 3.854e-10
 54.20175    206.6 9.454e+03 3.574e-10
 54.22185    204.9 9.516e+03 3.675e-10
 54.24093    201.7 1.011e+04 4.506e-10
 54.25098    201.3 1.010e+04 4.312e-10
 54.26004    195.9 1.218e+04 9.425e-10
 54.27009    199.0 1.112e+04 6.445e-10
 54.28215    193.5 1.324e+04 1.600e-09
 54.30225    188.9 1.456e+04 3.463e-09
 54.32235    184.1 1.592e+04 5.024e-09
 54.33738    181.3 1.709e+04 5.411e-09
 54.34738    178.8 1.794e+04 5.446e-09
 54.35743    174.8 1.899e+04 5.454e-09
 54.36541    169.8 1.962e+04 5.321e-09
 54.37044    170.5 1.926e+04 4.985e-09
 54.37753    164.3 1.972e+04 4.936e-09
 54.38296    157.8 1.944e+04 4.840e-09
 54.38799    159.6 2.015e+04 5.727e-09
 54.39763    153.6 1.930e+04 5.426e-09
 54.40768    148.5 1.795e+04 5.450e-09
 54.41773    144.4 1.770e+04 5.701e-09
 54.42519    140.9 1.766e+04 6.395e-09
 54.43022    141.8 1.761e+04 6.320e-09
 54.43693    138.2 1.822e+04 6.733e-09
 54.44196    139.7 1.849e+04 7.563e-09
 54.44788    136.4 1.867e+04 7.491e-09
 54.46301    131.7 1.838e+04 6.154e-09
 54.48004    125.2 1.772e+04 3.800e-09
 54.49009    127.5 1.789e+04 4.365e-09
 54.49603    119.9 1.597e+04 1.913e-09
 54.50608    123.0 1.775e+04 3.006e-09
 54.52336    113.5 1.375e+04 9.786e-10
 54.54346    103.5 9.636e+03 4.159e-10
 54.56356     98.1 9.244e+03 3.726e-10
 54.58366     95.6 9.274e+03 3.801e-10
 54.59959     93.3 9.597e+03 4.448e-10
 54.60964     93.3 9.704e+03 4.741e-10
 54.61402     90.3 1.075e+04 7.360e-10
 54.62407     88.2 1.150e+04 1.005e-09
 54.64396     85.0 1.287e+04 1.813e-09
 54.66406     82.9 1.404e+04 3.042e-09
 54.68416     81.2 1.507e+04 4.199e-09
 54.70426     78.9 1.557e+04 4.310e-09
 54.71915     76.1 1.556e+04 3.938e-09
 54.72681     76.4 1.575e+04 4.210e-09
 54.73202     73.0 1.579e+04 4.085e-09
 54.74446     70.1 1.481e+04 3.077e-09
 54.76456     67.7 1.352e+04 2.171e-09
 54.78466     66.3 1.254e+04 1.603e-09
 54.81491     63.2 1.202e+04 1.120e-09
 54.83889     61.2 1.148e+04 8.459e-10
 54.85899     62.8 1.075e+04 5.439e-10
 54.89541     61.9 1.052e+04 5.202e-10
 54.93561     62.2 1.057e+04 6.004e-10
 54.95815     63.9 1.083e+04 7.427e-10
 54.97825     61.8 1.062e+04 7.091e-10
 55.01601     64.1 1.087e+04 7.865e-10
 55.05621     66.2 1.108e+04 8.111e-10
 55.07800     67.9 1.116e+04 8.070e-10
 55.09810     68.7 1.055e+04 6.123e-10
 55.12646     68.9 1.058e+04 6.103e-10
 55.14646     69.7 1.064e+04 6.263e-10
 55.16656     70.6 1.078e+04 6.630e-10
 55.18390     71.4 1.097e+04 7.128e-10
 55.19395     70.2 1.053e+04 6.016e-10
 55.19736     70.5 1.095e+04 7.183e-10
 55.20741     70.6 1.078e+04 6.729e-10
 55.22686     71.2 1.112e+04 8.053e-10
 55.24696     71.4 1.167e+04 1.028e-09
 55.26707     71.6 1.194e+04 1.168e-09
 55.28717     72.0 1.241e+04 1.439e-09
 55.30189     72.5 1.294e+04 1.814e-09
 55.31154     71.9 1.258e+04 1.635e-09
 55.31691     72.0 1.257e+04 1.602e-09
 55.32737     72.2 1.281e+04 1.825e-09
 55.34747     72.7 1.296e+04 1.963e-09
 55.36757     73.3 1.301e+04 1.980e-09
 55.38767     73.9 1.293e+04 1.867e-09
 55.40777     74.5 1.276e+04 1.640e-09
 55.41989     74.7 1.247e+04 1.323e-09
 55.42849     73.0 1.120e+04 7.495e-10
 55.43646     73.2 1.105e+04 6.966e-10
 55.44797     72.9 1.066e+04 5.810e-10
 55.46807     72.4 1.034e+04 5.059e-10
 55.48817     71.9 1.013e+04 4.821e-10
 55.50827     71.6 1.014e+04 4.877e-10
 55.52783     71.2 1.023e+04 5.255e-10
 55.53788     70.9 1.004e+04 4.464e-10
 55.54597     70.5 1.029e+04 5.346e-10
 55.55602     70.5 1.020e+04 5.050e-10
 55.56857     69.7 1.069e+04 6.706e-10
 55.58867     68.9 1.129e+04 9.334e-10
 55.60877     68.1 1.186e+04 1.297e-09
 55.62887     67.7 1.225e+04 1.645e-09
 55.64583     67.3 1.253e+04 1.809e-09
 55.65588     67.5 1.243e+04 1.725e-09
 55.66552     66.8 1.273e+04 1.764e-09
 55.67557     66.8 1.273e+04 1.797e-09
 55.68917     65.3 1.300e+04 1.603e-09
 55.70927     62.3 1.322e+04 1.448e-09
 55.72937     59.0 1.298e+04 1.373e-09
 55.74947     56.7 1.247e+04 1.321e-09
 55.76382     55.4 1.199e+04 1.231e-09
 55.77387     56.1 1.206e+04 1.233e-09
 55.78507     55.4 1.164e+04 1.088e-09
 55.79512     54.7 1.150e+04 1.033e-09
 55.80977     54.4 1.128e+04 9.150e-10
 55.82987     53.7 1.107e+04 7.705e-10
 55.84997     52.6 1.086e+04 6.449e-10
 55.87007     51.3 1.063e+04 5.787e-10
 55.88182     50.2 1.063e+04 5.882e-10
 55.89187     51.3 1.047e+04 5.403e-10
 55.90463     50.3 1.056e+04 5.728e-10
 55.91468     49.7 1.088e+04 7.099e-10
 55.93037     49.0 1.110e+04 8.281e-10
 55.95047     48.7 1.132e+04 9.805e-10
 55.97057     48.8 1.155e+04 1.151e-09
 55.98976     49.3 1.168e+04 1.255e-09
 55.99981     50.4 1.121e+04 1.001e-09
 56.01077     50.6 1.135e+04 1.023e-09
 56.02418     50.9 1.132e+04 9.680e-10
 56.03423     50.5 1.131e+04 9.144e-10
 56.06112     49.2 1.102e+04 7.264e-10
 56.09790     48.5 1.052e+04 6.014e-10
 56.11800     50.1 1.028e+04 5.237e-10
 56.14162     50.3 1.040e+04 6.157e-10
 56.18182     51.0 1.075e+04 7.233e-10
 56.21187     50.4 1.083e+04 6.858e-10
 56.22575     50.4 1.073e+04 6.688e-10
 56.23580     51.6 1.093e+04 7.361e-10
 56.25198     51.6 1.105e+04 7.808e-10
 56.26329     51.5 1.105e+04 8.191e-10
 56.27343     51.0 1.066e+04 6.738e-10
 56.30242     51.2 1.090e+04 8.630e-10
 56.33389     52.0 1.106e+04 9.863e-10
 56.35389     52.6 1.093e+04 8.883e-10
 56.37258     53.0 1.078e+04 8.194e-10
 56.38284     53.3 1.063e+04 7.328e-10
 56.39289     53.5 1.062e+04 7.477e-10
 56.41278     53.7 1.053e+04 6.631e-10
 56.43288     53.6 1.042e+04 5.718e-10
 56.45169     53.1 1.041e+04 5.419e-10
 56.46174     52.7 1.039e+04 5.373e-10
 56.47308     52.4 1.044e+04 5.519e-10
 56.49234     52.0 1.071e+04 6.255e-10
 56.50239     52.4 1.064e+04 6.120e-10
 56.51328     52.4 1.082e+04 6.897e-10
 56.53338     52.4 1.112e+04 7.890e-10
 56.55348     52.5 1.132e+04 8.632e-10
 56.56969     52.5 1.155e+04 9.351e-10
 56.57974     51.8 1.170e+04 9.827e-10
 56.59368     52.1 1.177e+04 9.918e-10
 56.62393     51.9 1.195e+04 9.720e-10
 56.66423     51.6 1.223e+04 1.064e-09
 56.68778     51.5 1.236e+04 1.121e-09
 56.69773     51.0 1.231e+04 1.125e-09
 56.71428     51.2 1.231e+04 1.155e-09
 56.73145     50.5 1.268e+04 1.359e-09
 56.74150     50.8 1.241e+04 1.107e-09
 56.75448     51.0 1.244e+04 1.169e-09
 56.78473     51.0 1.251e+04 1.275e-09
 56.80577     50.8 1.287e+04 1.791e-09
 56.82587     50.8 1.287e+04 1.978e-09
 56.86523     52.0 1.286e+04 1.965e-09
 56.90543     52.8 1.276e+04 1.686e-09
 56.94563     53.0 1.249e+04 1.389e-09
 56.97075     53.1 1.223e+04 1.299e-09
 56.99085     53.1 1.215e+04 1.326e-09
 57.02176     53.6 1.183e+04 1.186e-09
 57.04186     52.9 1.147e+04 1.004e-09
 57.06623     54.1 1.135e+04 9.938e-10
 57.10643     55.6 1.119e+04 9.376e-10
 57.14663     57.3 1.099e+04 8.336e-10
 57.18683     59.0 1.081e+04 7.296e-10
 57.20986     60.9 1.082e+04 7.095e-10
 57.22996     61.4 1.015e+04 4.463e-10
 57.25775     63.5 1.022e+04 4.582e-10
 57.27785     63.3 1.040e+04 5.407e-10
 57.30744     65.4 1.074e+04 6.535e-10
 57.34764     67.5 1.143e+04 9.033e-10
 57.38784     69.0 1.221e+04 1.312e-09
 57.41789     70.1 1.225e+04 1.391e-09
 57.43789     71.1 1.264e+04 1.727e-09
 57.44877     72.2 1.309e+04 2.142e-09
 57.45882     72.4 1.229e+04 1.435e-09
 57.47809     73.4 1.272e+04 1.795e-09
 57.49354     74.4 1.312e+04 2.192e-09
 57.50359     74.3 1.306e+04 2.057e-09
 57.51829     75.1 1.350e+04 2.423e-09
 57.53839     75.9 1.407e+04 2.857e-09
 57.55827     76.5 1.480e+04 3.426e-09
 57.56832     77.0 1.392e+04 2.835e-09
 57.57859     77.8 1.460e+04 3.394e-09
 57.59869     78.4 1.552e+04 4.185e-09
 57.61154     78.5 1.661e+04 5.427e-09
 57.62159     78.2 1.563e+04 4.162e-09
 57.63889     77.9 1.665e+04 5.345e-09
 57.65899     77.3 1.771e+04 7.353e-09
 57.67782     76.6 1.860e+04 1.040e-08
 57.68787     77.5 1.834e+04 9.528e-09
 57.69919     77.0 1.923e+04 1.355e-08
 57.71422     76.6 1.957e+04 1.517e-08
 57.72422     76.7 1.993e+04 1.713e-08
 57.72944     76.8 2.027e+04 1.794e-08
 57.73954     75.9 1.908e+04 9.797e-09
 57.75950     75.5 1.929e+04 9.572e-09
 57.77960     74.7 1.959e+04 8.708e-09
 57.79737     73.5 1.998e+04 7.802e-09
 57.80743     75.3 2.017e+04 9.006e-09
 57.81980     74.1 2.051e+04 8.302e-09
 57.83748     72.6 2.063e+04 8.627e-09
 57.84753     69.8 1.692e+04 6.518e-09
 57.86000     68.3 1.814e+04 9.024e-09
 57.88010     67.0 1.893e+04 1.188e-08
 57.90020     65.5 1.950e+04 1.434e-08
 57.91693     63.6 2.000e+04 1.654e-08
 57.92698     64.6 1.991e+04 1.498e-08
 57.94040     62.2 2.017e+04 1.743e-08
 57.95547     59.8 1.987e+04 1.737e-08
 57.96552     59.3 1.959e+04 1.559e-08
 57.98060     58.0 1.858e+04 1.248e-08
 58.00070     57.3 1.748e+04 8.644e-09
 58.02080     56.5 1.638e+04 5.503e-09
 58.03648     55.0 1.506e+04 2.940e-09
 58.04653     55.1 1.517e+04 3.413e-09
 58.06100     53.1 1.347e+04 1.777e-09
 58.07347     51.0 1.152e+04 9.121e-10
 58.08352     50.7 1.123e+04 8.784e-10
 58.10120     50.3 1.028e+04 5.813e-10
 58.12130     50.5 9.816e+03 4.065e-10
 58.14140     49.9 9.783e+03 2.963e-10
 58.15603     49.6 9.647e+03 2.710e-10
 58.16608     50.4 9.732e+03 2.867e-10
 58.18151     51.0 9.441e+03 2.322e-10
 58.20171     51.2 9.803e+03 2.923e-10
 58.23205     50.8 9.423e+03 2.589e-10
 58.27225     50.4 9.472e+03 2.830e-10
 58.31245     49.9 9.640e+03 3.428e-10
 58.34250     49.5 9.802e+03 4.498e-10
 58.36250     49.6 9.927e+03 5.249e-10
 58.38260     49.5 1.024e+04 6.149e-10
 58.39514     48.9 1.069e+04 7.293e-10
 58.40519     49.5 1.084e+04 8.065e-10
 58.41740     48.8 1.117e+04 9.126e-10
 58.42745     47.6 1.145e+04 1.042e-09
 58.44290     46.8 1.136e+04 1.037e-09
 58.46300     45.9 1.127e+04 1.005e-09
 58.48310     44.7 1.125e+04 9.541e-10
 58.50320     42.8 1.128e+04 9.166e-10
 58.51469     40.5 1.116e+04 8.865e-10
 58.52474     41.2 1.118e+04 8.858e-10
 58.53540     39.0 1.102e+04 8.813e-10
 58.54545     37.6 1.224e+04 1.034e-09
 58.55843     32.5 1.475e+04 1.257e-09
 58.56843     32.2 1.494e+04 1.318e-09
 58.57437     28.1 1.601e+04 1.879e-09
 58.57940     27.8 1.658e+04 2.164e-09
 58.58853     25.5 1.724e+04 2.788e-09
 58.59430     22.2 1.661e+04 3.505e-09
 58.59932     21.0 2.164e+04 7.223e-09
 58.60863     20.2 1.908e+04 6.645e-09
 58.61868     18.5 1.664e+04 5.632e-09
 58.62873     17.7 1.556e+04 4.951e-09
 58.63415     17.0 1.494e+04 4.376e-09
 58.63917     16.9 1.529e+04 4.931e-09
 58.64827     17.1 1.519e+04 4.623e-09
 58.65334     15.6 1.705e+04 8.056e-09
 58.66401     15.1 1.633e+04 5.166e-09
 58.68411     11.7 1.576e+04 3.621e-09
 58.70421      7.5 1.381e+04 2.362e-09
 58.72431      6.3 1.316e+04 2.032e-09
 58.74375      5.8 1.282e+04 1.870e-09
 58.75380      5.9 1.301e+04 2.035e-09
 58.76134      5.3 1.284e+04 1.937e-09
 58.77139      4.6 1.405e+04 3.007e-09
 58.78461      3.2 1.437e+04 3.065e-09
 58.80471      1.3 1.450e+04 3.074e-09
 58.82481     -0.8 1.422e+04 2.962e-09
 58.84491     -2.7 1.390e+04 2.885e-09
 58.86330     -4.0 1.380e+04 2.890e-09
 58.87335     -4.3 1.410e+04 3.319e-09
 58.87933     -6.1 1.498e+04 3.782e-09
 58.88938     -6.2 1.390e+04 3.263e-09
 58.90521     -7.6 1.441e+04 3.448e-09
 58.92531     -9.5 1.498e+04 3.748e-09
 58.94541    -11.6 1.543e+04 4.225e-09
 58.96551    -12.8 1.574e+04 4.933e-09
 58.98286    -12.8 1.604e+04 5.706e-09
 58.99286    -12.7 1.607e+04 5.746e-09
 58.99723    -12.8 1.612e+04 6.012e-09
 59.00733    -11.6 1.594e+04 4.586e-09
 59.02581    -12.0 1.649e+04 4.952e-09
 59.04591    -13.3 1.656e+04 5.027e-09
 59.06601    -15.2 1.575e+04 4.790e-09
 59.08611    -16.8 1.487e+04 4.648e-09
 59.10241    -17.2 1.436e+04 5.057e-09
 59.11152    -17.2 1.458e+04 5.721e-09
 59.11532    -17.5 1.434e+04 4.200e-09
 59.12631    -17.4 1.444e+04 5.187e-09
 59.14641    -16.3 1.464e+04 5.734e-09
 59.16651    -15.6 1.475e+04 5.879e-09
 59.18661    -15.0 1.485e+04 5.709e-09
 59.20671    -14.3 1.465e+04 4.723e-09
 59.22196    -13.7 1.441e+04 3.632e-09
 59.22847    -13.5 1.440e+04 3.615e-09
 59.23332    -13.0 1.379e+04 3.535e-09
 59.24691    -12.4 1.349e+04 2.941e-09
 59.26701    -11.6 1.328e+04 2.432e-09
 59.28711    -10.7 1.305e+04 1.961e-09
 59.30721    -10.1 1.253e+04 1.525e-09
 59.32731     -9.4 1.183e+04 1.182e-09
 59.34126     -8.6 1.124e+04 9.632e-10
 59.34541     -7.6 1.191e+04 1.287e-09
 59.35156     -7.4 1.232e+04 1.492e-09
 59.36752     -7.0 1.205e+04 1.374e-09
 59.38762     -6.5 1.197e+04 1.347e-09
 59.40772     -5.9 1.210e+04 1.434e-09
 59.42782     -5.0 1.242e+04 1.597e-09
 59.44792     -4.0 1.271e+04 1.777e-09
 59.45926     -3.1 1.287e+04 1.935e-09
 59.46236     -2.6 1.348e+04 3.120e-09
 59.47112     -3.1 1.440e+04 4.388e-09
 59.48812     -1.6 1.466e+04 4.783e-09
 59.50822     -0.2 1.497e+04 5.220e-09
 59.52832      1.3 1.521e+04 5.603e-09
 59.54842      3.1 1.550e+04 6.063e-09
 59.56720      5.1 1.603e+04 6.836e-09
 59.57725      5.2 1.654e+04 7.776e-09
 59.58062      7.1 1.689e+04 8.068e-09
 59.59067      6.8 1.669e+04 7.783e-09
 59.60872      8.9 1.682e+04 7.601e-09
 59.62882     11.3 1.719e+04 7.711e-09
 59.64892     13.6 1.825e+04 8.602e-09
 59.66902     15.9 2.041e+04 1.117e-08
 59.68405     17.3 2.089e+04 9.928e-09
 59.69012     18.6 2.259e+04 1.282e-08
 59.69520     16.2 2.121e+04 7.116e-09
 59.70012     18.7 2.396e+04 1.027e-08
 59.71018     17.1 2.460e+04 4.230e-09
 59.72425     21.2 2.792e+04 1.140e-08
 59.73425     23.2 2.911e+04 1.766e-08
 59.74410     25.5 2.838e+04 2.980e-08
 59.74912     20.1 3.667e+04 7.162e-09
 59.75435     20.5 3.887e+04 8.832e-09
 59.75985     20.5 4.064e+04 1.154e-08
 59.76488     17.1 4.260e+04 9.342e-09
 59.77445     15.5 4.388e+04 1.219e-08
 59.78450      9.4 4.634e+04 1.684e-08
 59.79455     -2.5 4.671e+04 2.120e-08
 59.80309    -19.0 4.393e+04 2.591e-08
 59.80812    -25.1 3.010e+04 2.442e-08
 59.81460    -35.3 3.017e+04 2.647e-08
 59.82465    -49.1 2.763e+04 1.910e-08
 59.83475    -56.2 2.549e+04 1.567e-08
 59.84480    -61.6 2.280e+04 1.389e-08
 59.85485    -64.7 2.128e+04 1.300e-08
 59.86209    -65.9 2.099e+04 1.256e-08
 59.86712    -67.5 1.980e+04 1.187e-08
 59.87438    -68.0 2.022e+04 1.079e-08
 59.87941    -68.3 1.854e+04 1.057e-08
 59.88500    -68.0 1.377e+04 8.996e-09
 59.89505    -68.9 1.396e+04 7.871e-09
 59.91017    -70.4 1.954e+04 6.377e-09
 59.92119    -72.6 1.631e+04 4.000e-09
 59.93014    -75.5 1.452e+04 2.588e-09
 59.93928    -73.6 1.412e+04 2.173e-09
 59.95042    -73.8 1.295e+04 1.405e-09
 59.97052    -73.5 1.206e+04 9.373e-10
 59.99062    -73.0 1.132e+04 6.495e-10
 60.01072    -72.5 1.081e+04 4.802e-10
 60.02913    -71.9 1.052e+04 3.896e-10
 60.03918    -71.7 1.042e+04 3.780e-10
 60.04878    -71.0 1.035e+04 3.603e-10
 60.05893    -70.4 1.006e+04 2.855e-10
 60.08127    -68.6 9.777e+03 2.361e-10
 60.12147    -66.5 9.466e+03 2.059e-10
 60.16167    -64.7 9.304e+03 1.997e-10
 60.20187    -63.1 9.225e+03 2.006e-10
 60.24207    -61.8 9.173e+03 2.147e-10
 60.26532    -60.5 9.189e+03 2.378e-10
 60.28118    -59.8 9.249e+03 2.511e-10
 60.29813    -57.6 8.900e+03 1.712e-10
 60.32247    -56.3 9.015e+03 2.103e-10
 60.36267    -54.9 9.096e+03 2.411e-10
 60.40287    -53.4 9.089e+03 2.525e-10
 60.44307    -51.9 9.026e+03 2.496e-10
 60.48121    -50.3 8.989e+03 2.445e-10
 60.50131    -50.4 8.951e+03 2.327e-10
 60.51714    -49.0 8.918e+03 2.173e-10
 60.53724    -46.7 8.839e+03 2.094e-10
 60.56368    -45.5 8.839e+03 1.995e-10
 60.60388    -44.4 8.995e+03 2.186e-10
 60.64408    -43.2 9.240e+03 2.677e-10
 60.68428    -41.8 9.433e+03 3.210e-10
 60.71720    -40.5 9.557e+03 3.597e-10
 60.73730    -41.1 9.259e+03 2.675e-10
 60.75625    -40.0 9.325e+03 2.825e-10
 60.77635    -38.3 9.083e+03 2.266e-10
 60.80488    -37.5 9.188e+03 2.487e-10
 60.84508    -36.8 9.313e+03 2.767e-10
 60.88528    -36.1 9.411e+03 3.045e-10
 60.92548    -35.3 9.430e+03 3.140e-10
 60.95318    -34.5 9.328e+03 2.941e-10
 60.97329    -34.8 8.841e+03 1.813e-10
 60.99535    -34.1 8.609e+03 1.333e-10
 61.01545    -32.9 8.604e+03 1.310e-10
 61.04608    -32.6 8.454e+03 1.018e-10
 61.08628    -32.5 8.415e+03 9.532e-11
 61.12648    -32.3 8.463e+03 1.009e-10
 61.16668    -32.0 8.576e+03 1.222e-10
 61.18917    -31.6 8.676e+03 1.417e-10
 61.20927    -31.9 8.762e+03 1.528e-10
 61.23446    -31.4 8.829e+03 1.682e-10
 61.25456    -30.5 9.030e+03 2.026e-10
 61.28728    -30.3 9.057e+03 2.085e-10
 61.32748    -30.1 8.973e+03 2.018e-10
 61.36769    -29.9 8.821e+03 1.827e-10
 61.40506    -29.9 8.708e+03 1.641e-10
 61.42516    -29.8 8.768e+03 1.767e-10
 61.44809    -29.8 8.732e+03 1.704e-10
 61.47356    -29.8 8.719e+03 1.642e-10
 61.49366    -29.3 8.818e+03 1.807e-10
 61.52849    -29.3 8.796e+03 1.712e-10
 61.56869    -29.5 8.791e+03 1.635e-10
 61.60889    -29.8 8.783e+03 1.603e-10
 61.64105    -30.0 8.758e+03 1.642e-10
 61.66115    -29.2 8.718e+03 1.546e-10
 61.68929    -29.2 8.612e+03 1.420e-10
 61.71267    -29.1 8.578e+03 1.378e-10
 61.73277    -28.8 8.634e+03 1.505e-10
 61.76969    -28.8 8.670e+03 1.567e-10
 61.80989    -29.1 9.035e+03 2.094e-10
 61.85009    -29.4 9.616e+03 3.113e-10
 61.87695    -29.7 1.009e+04 4.229e-10
 61.88690    -29.1 1.016e+04 4.394e-10
 61.90015    -30.4 1.071e+04 6.213e-10
 61.92025    -31.4 1.128e+04 8.836e-10
 61.94035    -32.0 1.169e+04 1.100e-09
 61.95168    -32.8 1.194e+04 1.226e-09
 61.97188    -33.0 1.173e+04 1.121e-09
 61.99494    -35.2 1.170e+04 1.191e-09
 62.00489    -34.2 1.172e+04 1.153e-09
 62.02075    -36.6 1.258e+04 1.139e-09
 62.04085    -46.8 2.395e+04 1.160e-09
 62.06095    -59.9 2.726e+04 5.033e-09
 62.07109    -64.9 2.463e+04 1.342e-08
 62.07606    -65.7 2.528e+04 1.340e-08
 62.08598    -66.9 2.262e+04 2.877e-08
 62.09603    -67.4 2.159e+04 4.749e-08
 62.10608    -67.9 2.226e+04 5.824e-08
 62.11274    -69.7 2.385e+04 5.902e-08
 62.11777    -68.5 2.320e+04 8.411e-08
 62.12579    -71.4 2.427e+04 8.320e-08
 62.13081    -70.7 2.394e+04 1.356e-07
 62.13623    -76.5 2.774e+04 6.741e-08
 62.14628    -86.9 3.027e+04 1.560e-08
 62.15633    -99.1 2.282e+04 3.890e-09
 62.16638   -104.6 1.502e+04 2.526e-09
 62.17174   -105.7 1.367e+04 2.315e-09
 62.17676   -105.4 1.412e+04 2.378e-09
 62.18556   -105.8 1.345e+04 2.265e-09
 62.19059   -106.1 1.358e+04 2.294e-09
 62.20160   -106.2 1.328e+04 2.199e-09
 62.22078   -105.7 1.260e+04 1.852e-09
 62.23083   -104.7 1.278e+04 1.792e-09
 62.24185   -103.8 1.202e+04 1.492e-09
 62.26195   -102.8 1.172e+04 1.206e-09
 62.28205   -102.1 1.146e+04 8.927e-10
 62.30019   -101.7 1.109e+04 6.212e-10
 62.31024   -101.5 1.112e+04 6.482e-10
 62.32225   -101.2 1.071e+04 4.521e-10
 62.33878   -101.1 1.031e+04 3.454e-10
 62.34883    -99.4 1.071e+04 4.269e-10
 62.36245    -99.2 1.038e+04 3.386e-10
 62.38255    -99.0 1.019e+04 3.043e-10
 62.40265    -98.4 1.013e+04 2.963e-10
 62.41974    -97.7 1.017e+04 2.966e-10
 62.42979    -97.6 1.013e+04 2.954e-10
 62.44285    -96.9 1.031e+04 3.126e-10
 62.45677    -96.4 1.054e+04 3.805e-10
 62.46682    -95.5 1.046e+04 3.775e-10
 62.48305    -95.0 1.073e+04 4.710e-10
 62.50315    -94.5 1.106e+04 6.077e-10
 62.52325    -93.9 1.146e+04 7.972e-10
 62.53930    -93.5 1.190e+04 1.045e-09
 62.54935    -93.3 1.174e+04 9.400e-10
 62.56345    -92.8 1.217e+04 1.211e-09
 62.57477    -92.4 1.254e+04 1.515e-09
 62.58482    -91.6 1.236e+04 1.329e-09
 62.60366    -91.1 1.265e+04 1.595e-09
 62.62376    -90.6 1.284e+04 1.857e-09
 62.64386    -90.1 1.295e+04 2.106e-09
 62.65885    -89.7 1.317e+04 2.371e-09
 62.66890    -89.6 1.285e+04 2.131e-09
 62.68271    -89.3 1.346e+04 2.466e-09
 62.69276    -87.9 1.263e+04 1.877e-09
 62.70416    -87.6 1.314e+04 2.256e-09
 62.72426    -88.7 1.526e+04 3.240e-09
 62.74436    -90.8 1.776e+04 5.516e-09
 62.76446    -93.1 1.943e+04 9.308e-09
 62.77840    -95.5 2.025e+04 1.315e-08
 62.78845    -96.9 2.030e+04 1.325e-08
 62.80071    -99.2 2.027e+04 1.475e-08
 62.81076    -97.4 2.108e+04 1.752e-08
 62.81968    -98.8 2.080e+04 1.799e-08
 62.82969    -99.4 2.060e+04 1.762e-08
 62.83808   -100.2 2.034e+04 1.559e-08
 62.84311   -101.5 2.080e+04 1.763e-08
 62.84979   -102.8 2.086e+04 1.455e-08
 62.85961   -104.9 2.056e+04 1.043e-08
 62.86463   -104.5 2.187e+04 1.844e-08
 62.86989   -107.0 2.140e+04 1.279e-08
 62.87994   -110.1 2.027e+04 8.376e-09
 62.88999   -113.2 1.860e+04 5.688e-09
 62.89786   -115.6 1.713e+04 4.295e-09
 62.90288   -117.1 1.796e+04 5.882e-09
 62.91009   -118.5 1.725e+04 4.954e-09
 62.91860   -119.3 1.688e+04 4.393e-09
 62.92363   -120.7 1.874e+04 7.363e-09
 62.93019   -121.6 1.856e+04 7.016e-09
 62.94024   -122.3 1.845e+04 7.034e-09
 62.95029   -122.7 1.838e+04 7.354e-09
 62.96541   -123.3 1.834e+04 7.890e-09
 62.98556   -124.0 1.795e+04 7.410e-09
 63.00566   -124.5 1.762e+04 7.196e-09
 63.01751   -124.7 1.741e+04 7.150e-09
 63.02756   -125.8 1.697e+04 6.524e-09
 63.03670   -125.3 1.669e+04 6.261e-09
 63.04675   -126.3 1.564e+04 4.211e-09
 63.06596   -125.7 1.523e+04 3.656e-09
 63.08606   -124.9 1.478e+04 3.007e-09
 63.10616   -124.1 1.428e+04 2.326e-09
 63.12626   -123.5 1.371e+04 1.652e-09
 63.13706   -122.6 1.310e+04 1.234e-09
 63.14721   -125.7 1.106e+04 6.084e-10
 63.17671   -124.4 9.824e+03 3.901e-10
 63.21691   -123.1 8.808e+03 2.644e-10
 63.25278   -121.4 8.440e+03 2.143e-10
 63.27288   -121.9 8.199e+03 1.900e-10
 63.29731   -119.5 8.050e+03 1.692e-10
 63.33751   -117.1 7.908e+03 1.502e-10
 63.36631   -114.6 7.785e+03 1.339e-10
 63.38641   -114.2 7.773e+03 1.331e-10
 63.41791   -111.8 7.678e+03 1.211e-10
 63.45811   -109.3 7.621e+03 1.142e-10
 63.48877   -106.9 7.604e+03 1.121e-10
 63.50887   -106.3 7.632e+03 1.207e-10
 63.53851   -103.9 7.632e+03 1.204e-10
 63.57871   -101.6 7.662e+03 1.217e-10
 63.60542    -99.7 7.912e+03 1.442e-10
 63.62552    -99.6 7.984e+03 1.580e-10
 63.65911    -97.8 8.437e+03 2.260e-10
 63.69931    -96.0 8.895e+03 3.229e-10
 63.72476    -94.3 9.329e+03 4.389e-10
 63.74486    -93.7 9.676e+03 5.480e-10
 63.77971    -92.2 9.978e+03 6.484e-10
 63.81992    -90.9 1.008e+04 6.813e-10
 63.84453    -89.8 1.009e+04 6.820e-10
 63.86463    -89.7 9.966e+03 6.275e-10
 63.90032    -88.5 9.838e+03 5.582e-10
 63.94052    -87.4 9.539e+03 4.404e-10
 63.98072    -85.9 9.062e+03 3.048e-10
 64.02092    -85.0 8.836e+03 2.526e-10
 64.06112    -84.1 8.631e+03 2.082e-10
 64.08363    -83.3 8.469e+03 1.780e-10
 64.10373    -83.3 8.761e+03 2.360e-10
 64.14152    -82.6 8.717e+03 2.294e-10
 64.17664    -81.8 8.707e+03 2.279e-10
 64.19674    -81.6 9.083e+03 3.065e-10
 64.22192    -80.8 9.087e+03 2.994e-10
 64.26212    -79.9 9.131e+03 2.821e-10
 64.30232    -79.0 9.156e+03 2.635e-10
 64.32274    -78.2 9.158e+03 2.538e-10
 64.34284    -78.4 9.324e+03 2.736e-10
 64.38272    -77.7 9.259e+03 2.621e-10
 64.41263    -77.0 9.224e+03 2.598e-10
 64.43273    -77.0 9.302e+03 2.928e-10
 64.46312    -76.0 9.131e+03 2.713e-10
 64.50332    -75.0 8.946e+03 2.425e-10
 64.54174    -73.7 8.706e+03 2.019e-10
 64.56184    -73.9 8.608e+03 1.855e-10
 64.58372    -72.4 8.323e+03 1.404e-10
 64.62393    -70.7 8.055e+03 1.040e-10
 64.64862    -69.0 7.807e+03 7.825e-11
 64.66872    -68.7 7.749e+03 7.600e-11
 64.70433    -66.9 7.596e+03 6.070e-11
 64.74453    -65.0 7.464e+03 4.886e-11
 64.78085    -63.1 7.354e+03 3.989e-11
 64.80095    -62.9 7.348e+03 3.986e-11
 64.82493    -60.9 7.267e+03 3.386e-11
 64.86451    -59.0 7.224e+03 3.091e-11
 64.88461    -58.7 7.309e+03 3.547e-11
 64.90533    -56.7 7.304e+03 3.508e-11
 64.94553    -54.9 7.311e+03 3.624e-11
 64.98573    -53.1 7.353e+03 4.289e-11
 65.01996    -51.2 7.408e+03 5.181e-11
 65.04006    -50.8 7.381e+03 5.319e-11
 65.06613    -48.8 7.413e+03 5.781e-11
 65.10050    -46.9 7.427e+03 5.875e-11
 65.12060    -46.5 7.452e+03 6.227e-11
 65.14653    -44.7 7.393e+03 5.257e-11
 65.18673    -43.1 7.335e+03 4.466e-11
 65.22693    -41.7 7.302e+03 4.210e-11
 65.25906    -40.3 7.289e+03 4.238e-11
 65.27916    -40.0 7.240e+03 4.236e-11
 65.30733    -38.6 7.309e+03 4.965e-11
 65.33649    -37.1 7.401e+03 6.178e-11
 65.35659    -36.6 7.467e+03 6.640e-11
 65.38773    -34.9 7.553e+03 7.890e-11
 65.42794    -33.2 7.628e+03 8.720e-11
 65.46814    -31.8 7.704e+03 9.271e-11
 65.49817    -30.6 7.804e+03 1.005e-10
 65.51827    -30.3 7.760e+03 9.522e-11
 65.54854    -29.4 7.912e+03 1.137e-10
 65.57248    -28.5 8.121e+03 1.466e-10
 65.59258    -28.2 8.211e+03 1.544e-10
 65.62894    -27.3 8.438e+03 1.942e-10
 65.66914    -26.4 8.645e+03 2.321e-10
 65.70934    -25.4 8.779e+03 2.624e-10
 65.73727    -24.5 8.855e+03 2.766e-10
 65.75737    -24.2 8.926e+03 2.887e-10
 65.78837    -23.4 8.937e+03 2.897e-10
 65.80847    -23.0 8.824e+03 2.548e-10
 65.82994    -22.0 8.692e+03 2.190e-10
 65.87014    -21.2 8.544e+03 1.821e-10
 65.91034    -20.5 8.487e+03 1.638e-10
 65.95054    -20.1 8.491e+03 1.612e-10
 65.97638    -20.0 8.750e+03 1.950e-10
 65.99648    -19.7 8.900e+03 2.247e-10
 66.02436    -19.5 9.378e+03 3.264e-10
 66.04446    -19.3 9.602e+03 3.684e-10
 66.07114    -19.1 1.013e+04 5.179e-10
 66.11134    -19.0 1.045e+04 6.140e-10
 66.15154    -19.2 1.050e+04 6.210e-10
 66.19174    -19.3 1.028e+04 4.962e-10
 66.21549    -19.3 9.811e+03 3.160e-10
 66.23559    -19.0 9.781e+03 3.120e-10
 66.26035    -19.4 9.449e+03 2.209e-10
 66.28045    -19.4 9.258e+03 1.788e-10
 66.31235    -19.4 9.093e+03 1.522e-10
 66.35255    -18.4 9.021e+03 1.417e-10
 66.39275    -17.4 9.010e+03 1.308e-10
 66.43295    -16.5 8.995e+03 1.163e-10
 66.45459    -15.7 8.985e+03 1.042e-10
 66.47469    -15.3 9.343e+03 1.609e-10
 66.49634    -14.5 9.418e+03 1.668e-10
 66.51644    -13.7 9.155e+03 1.098e-10
 66.55355    -12.8 9.302e+03 1.211e-10
 66.59375    -12.0 9.503e+03 1.499e-10
 66.63395    -11.5 9.830e+03 2.067e-10
 66.67360    -11.2 1.035e+04 3.115e-10
 66.69370    -10.2 1.056e+04 3.611e-10
 66.71223    -10.4 1.107e+04 4.901e-10
 66.73233     -9.5 1.131e+04 5.796e-10
 66.75455     -9.5 1.207e+04 8.820e-10
 66.79475     -9.6 1.269e+04 1.172e-09
 66.83495    -10.0 1.284e+04 1.236e-09
 66.87515    -10.7 1.262e+04 1.048e-09
 66.90521    -11.6 1.251e+04 9.876e-10
 66.92256    -12.0 1.253e+04 9.867e-10
 66.93261    -12.1 1.271e+04 1.054e-09
 66.94531    -12.6 1.275e+04 1.051e-09
 66.95807    -12.8 1.270e+04 1.039e-09
 66.96812    -12.5 1.268e+04 9.662e-10
 66.98551    -12.7 1.263e+04 9.600e-10
 67.00561    -12.7 1.251e+04 8.743e-10
 67.02571    -12.7 1.229e+04 6.943e-10
 67.04211    -13.2 1.204e+04 5.082e-10
 67.05216    -14.2 1.192e+04 4.480e-10
 67.06591    -15.4 1.160e+04 3.465e-10
 67.07607    -16.3 1.136e+04 2.995e-10
 67.08612    -16.0 1.141e+04 3.195e-10
 67.11626    -16.7 1.130e+04 2.821e-10
 67.15181    -17.3 1.109e+04 2.574e-10
 67.17191    -19.0 1.125e+04 2.894e-10
 67.18421    -19.9 1.126e+04 2.951e-10
 67.20431    -19.2 1.122e+04 3.100e-10
 67.23696    -20.2 1.148e+04 3.764e-10
 67.27716    -21.1 1.198e+04 5.229e-10
 67.31736    -21.5 1.233e+04 6.670e-10
 67.35756    -21.8 1.266e+04 7.837e-10
 67.38761    -22.4 1.280e+04 8.085e-10
 67.40077    -23.0 1.289e+04 8.401e-10
 67.41082    -24.7 1.288e+04 7.874e-10
 67.42000    -25.6 1.287e+04 7.502e-10
 67.43005    -25.0 1.268e+04 6.826e-10
 67.44781    -25.8 1.263e+04 6.555e-10
 67.46791    -26.8 1.245e+04 6.165e-10
 67.48802    -27.9 1.221e+04 5.662e-10
 67.50812    -28.9 1.196e+04 5.048e-10
 67.52032    -29.9 1.170e+04 4.389e-10
 67.53010    -31.3 1.162e+04 4.353e-10
 67.53799    -30.5 1.163e+04 4.133e-10
 67.54832    -31.4 1.132e+04 3.551e-10
 67.56842    -32.1 1.111e+04 3.196e-10
 67.58852    -33.2 1.108e+04 3.107e-10
 67.60862    -36.8 1.246e+04 3.524e-10
 67.62872    -42.5 1.512e+04 6.972e-10
 67.63988    -47.2 1.610e+04 1.781e-09
 67.64705    -49.7 1.647e+04 3.398e-09
 67.65599    -48.3 1.614e+04 2.509e-09
 67.66892    -49.5 1.645e+04 4.437e-09
 67.68902    -50.0 1.704e+04 5.738e-09
 67.70912    -51.5 1.743e+04 5.944e-09
 67.72922    -55.1 1.813e+04 4.965e-09
 67.74932    -61.0 1.772e+04 3.170e-09
 67.76393    -73.5 1.343e+04 1.220e-09
 67.77398    -71.8 1.443e+04 1.554e-09
 67.78952    -77.2 1.298e+04 1.329e-09
 67.80962    -80.3 1.284e+04 1.283e-09
 67.82972    -82.3 1.292e+04 1.254e-09
 67.84982    -84.9 1.277e+04 1.182e-09
 67.86903    -88.1 1.245e+04 1.028e-09
 67.88114    -89.7 1.217e+04 1.018e-09
 67.89217    -90.2 1.227e+04 9.767e-10
 67.92037    -98.1 1.196e+04 7.909e-10
 67.96057   -107.2 1.229e+04 7.714e-10
 67.98858   -113.2 1.321e+04 9.641e-10
 67.99789   -114.2 1.366e+04 1.054e-09
 67.99992   -115.8 1.445e+04 1.450e-09
 68.01062   -119.7 1.552e+04 2.986e-09
 68.03072   -122.9 1.593e+04 4.453e-09
 68.05082   -125.6 1.601e+04 4.897e-09
 68.07092   -128.2 1.584e+04 4.801e-09
 68.09102   -131.0 1.505e+04 3.362e-09
 68.10787   -134.6 1.387e+04 1.799e-09
 68.11484   -137.1 1.351e+04 1.469e-09
 68.11809   -137.8 1.345e+04 1.270e-09
 68.13122   -142.8 1.179e+04 6.844e-10
 68.15132   -145.9 1.091e+04 4.962e-10
 68.17142   -147.2 1.058e+04 4.391e-10
 68.19152   -147.9 1.041e+04 3.983e-10
 68.21162   -148.4 1.024e+04 3.633e-10
 68.24187   -149.1 1.018e+04 3.389e-10
 68.28217   -149.5 1.021e+04 3.231e-10
 68.32237   -150.1 1.025e+04 3.198e-10
 68.34396   -151.9 1.059e+04 3.887e-10
 68.34873   -154.0 1.073e+04 4.679e-10
 68.35720   -154.0 1.091e+04 5.568e-10
 68.37243   -154.3 1.124e+04 6.755e-10
 68.39253   -154.4 1.162e+04 8.155e-10
 68.41263   -154.5 1.199e+04 9.651e-10
 68.43273   -154.5 1.228e+04 1.101e-09
 68.45180   -154.6 1.241e+04 1.191e-09
 68.46185   -155.7 1.272e+04 1.437e-09
 68.46670   -155.6 1.267e+04 1.443e-09
 68.47675   -155.7 1.284e+04 1.540e-09
 68.49303   -155.5 1.256e+04 1.409e-09
 68.51313   -155.6 1.232e+04 1.238e-09
 68.53323   -155.7 1.214e+04 1.109e-09
 68.55333   -155.9 1.206e+04 1.046e-09
 68.56980   -156.3 1.206e+04 1.035e-09
 68.57985   -157.6 1.220e+04 1.055e-09
 68.58625   -159.8 1.261e+04 1.190e-09
 68.59630   -161.4 1.373e+04 1.580e-09
 68.61363   -165.3 1.572e+04 2.590e-09
 68.63373   -169.7 1.743e+04 4.281e-09
 68.65383   -174.3 1.853e+04 6.377e-09
 68.67393   -179.1 1.896e+04 8.147e-09
 68.68779   -184.0 1.887e+04 8.915e-09
 68.69784   -184.9 1.938e+04 9.944e-09
 68.70580   -189.0 1.861e+04 9.489e-09
 68.71078   -188.9 1.880e+04 1.032e-08
 68.71906   -190.5 1.853e+04 1.002e-08
 68.72911   -192.4 1.805e+04 9.673e-09
 68.73916   -193.6 1.790e+04 9.621e-09
 68.74669   -195.0 1.772e+04 9.568e-09
 68.75172   -195.1 1.776e+04 9.621e-09
 68.75926   -195.8 1.767e+04 9.807e-09
 68.76548   -196.6 1.749e+04 1.026e-08
 68.77051   -196.9 1.772e+04 1.147e-08
 68.77936   -197.4 1.795e+04 1.238e-08
 68.78941   -198.0 1.813e+04 1.318e-08
 68.79946   -198.7 1.819e+04 1.377e-08
 68.80569   -199.3 1.816e+04 1.403e-08
 68.81072   -198.9 1.769e+04 1.239e-08
 68.81956   -199.2 1.768e+04 1.256e-08
 68.82531   -199.6 1.764e+04 1.257e-08
 68.83033   -199.9 1.803e+04 1.440e-08
 68.83966   -200.0 1.797e+04 1.454e-08
 68.84971   -200.0 1.795e+04 1.481e-08
 68.85966   -200.0 1.801e+04 1.514e-08
 68.86469   -199.9 1.814e+04 1.541e-08
 68.86981   -199.9 1.823e+04 1.591e-08
 68.87986   -199.9 1.831e+04 1.625e-08
 68.89498   -200.1 1.838e+04 1.639e-08
 68.91373   -200.5 1.842e+04 1.633e-08
 68.92378   -199.8 1.865e+04 1.693e-08
 68.93486   -200.7 1.852e+04 1.657e-08
 68.94491   -200.7 1.847e+04 1.595e-08
 68.95533   -201.0 1.782e+04 1.306e-08
 68.97543   -201.0 1.683e+04 8.873e-09
 68.99553   -201.0 1.579e+04 5.659e-09
 69.01563   -201.5 1.488e+04 3.715e-09
 69.03173   -202.6 1.419e+04 2.660e-09
 69.04178   -202.4 1.500e+04 4.072e-09
 69.05441   -203.7 1.465e+04 3.405e-09
 69.06446   -203.5 1.498e+04 3.541e-09
 69.07593   -204.9 1.497e+04 3.418e-09
 69.09603   -206.4 1.496e+04 3.402e-09
 69.11614   -208.5 1.503e+04 3.531e-09
 69.13624   -211.8 1.588e+04 4.270e-09
 69.14972   -216.2 1.734e+04 5.849e-09
 69.15977   -217.8 1.945e+04 1.074e-08
 69.17136   -220.1 1.867e+04 9.917e-09
 69.17889   -223.0 1.987e+04 1.228e-08
 69.18392   -223.0 1.949e+04 1.200e-08
 69.19141   -225.7 2.042e+04 1.439e-08
 69.20146   -228.5 2.139e+04 1.817e-08
 69.20862   -231.3 2.201e+04 2.194e-08
 69.21365   -234.1 2.390e+04 3.406e-08
 69.22156   -236.3 2.386e+04 3.629e-08
 69.23161   -238.1 2.374e+04 3.654e-08
 69.23867   -239.2 2.293e+04 3.287e-08
 69.24370   -239.2 2.212e+04 2.217e-08
 69.25171   -240.1 2.136e+04 1.889e-08
 69.26176   -240.8 2.064e+04 1.589e-08
 69.26762   -241.4 2.006e+04 1.343e-08
 69.27264   -243.6 1.990e+04 1.166e-08
 69.28186   -244.4 1.906e+04 9.034e-09
 69.29191   -245.2 1.817e+04 7.088e-09
 69.29845   -245.9 1.720e+04 5.653e-09
 69.30352   -245.6 1.699e+04 5.123e-09
 69.31714   -246.1 1.580e+04 3.482e-09
 69.33724   -246.5 1.464e+04 2.401e-09
 69.35734   -247.0 1.349e+04 1.760e-09
 69.37566   -246.9 1.287e+04 1.444e-09
 69.38571   -248.2 1.237e+04 1.375e-09
 69.39754   -247.6 1.215e+04 1.207e-09
 69.41307   -246.9 1.195e+04 1.066e-09
 69.42312   -246.9 1.196e+04 9.216e-10
 69.43774   -246.1 1.185e+04 8.645e-10
 69.45784   -245.3 1.172e+04 7.938e-10
 69.47794   -244.6 1.159e+04 7.120e-10
 69.49366   -244.0 1.149e+04 6.321e-10
 69.50371   -244.6 1.098e+04 5.306e-10
 69.51814   -244.0 1.082e+04 4.522e-10
 69.53263   -243.4 1.080e+04 4.040e-10
 69.54268   -243.4 1.127e+04 4.850e-10
 69.55834   -243.2 1.129e+04 4.786e-10
 69.57844   -243.3 1.133e+04 4.786e-10
 69.59854   -243.7 1.182e+04 5.079e-10
 69.61165   -244.8 1.283e+04 6.786e-10
 69.62170   -247.1 1.290e+04 5.928e-10
 69.63874   -248.5 1.372e+04 8.941e-10
 69.65218   -249.6 1.413e+04 1.305e-09
 69.66223   -249.9 1.514e+04 1.842e-09
 69.67894   -250.7 1.517e+04 2.374e-09
 69.69904   -251.2 1.484e+04 2.807e-09
 69.71914   -251.6 1.456e+04 3.009e-09
 69.72965   -251.9 1.443e+04 3.057e-09
 69.73970   -252.8 1.380e+04 2.247e-09
 69.75934   -252.8 1.382e+04 2.244e-09
 69.77173   -252.7 1.385e+04 2.247e-09
 69.78178   -252.8 1.406e+04 2.461e-09
 69.79954   -252.5 1.408e+04 2.431e-09
 69.81964   -252.2 1.415e+04 2.435e-09
 69.83759   -252.1 1.411e+04 2.475e-09
 69.84764   -254.4 1.330e+04 1.789e-09
 69.85984   -254.1 1.334e+04 1.968e-09
 69.87994   -253.7 1.337e+04 2.146e-09
 69.89129   -253.3 1.338e+04 2.292e-09
 69.90134   -253.9 1.360e+04 2.462e-09
 69.92014   -253.6 1.360e+04 2.513e-09
 69.94025   -253.3 1.357e+04 2.518e-09
 69.95559   -252.8 1.333e+04 2.439e-09
 69.96564   -253.4 1.277e+04 2.180e-09
 69.98045   -252.6 1.244e+04 1.916e-09
 70.00055   -251.8 1.210e+04 1.634e-09
 70.01084   -251.0 1.180e+04 1.398e-09
 70.02089   -251.4 1.202e+04 1.505e-09
 70.04075   -250.7 1.178e+04 1.328e-09
 70.06085   -250.0 1.160e+04 1.206e-09
 70.07358   -249.2 1.147e+04 1.126e-09
 70.08363   -249.8 1.112e+04 9.008e-10
 70.10105   -249.0 1.108e+04 8.804e-10
 70.12034   -248.1 1.106e+04 8.751e-10
 70.13039   -248.5 1.130e+04 9.887e-10
 70.14125   -247.6 1.127e+04 9.845e-10
 70.16135   -246.8 1.124e+04 9.810e-10
 70.18145   -245.9 1.120e+04 9.766e-10
 70.20155   -245.6 1.111e+04 8.881e-10
 70.22165   -244.8 1.109e+04 8.940e-10
 70.23989   -244.0 1.106e+04 8.977e-10
 70.24994   -244.4 1.122e+04 1.012e-09
 70.26185   -243.6 1.120e+04 1.008e-09
 70.28195   -242.8 1.118e+04 1.001e-09
 70.29952   -242.0 1.115e+04 9.831e-10
 70.30957   -242.4 1.121e+04 9.752e-10
 70.32215   -241.6 1.117e+04 9.596e-10
 70.34225   -240.8 1.109e+04 9.253e-10
 70.35945   -239.9 1.095e+04 8.647e-10
 70.36950   -240.2 1.094e+04 8.254e-10
 70.38245   -239.3 1.073e+04 7.000e-10
 70.40255   -238.4 1.053e+04 5.692e-10
 70.41752   -237.6 1.033e+04 4.468e-10
 70.42757   -238.2 1.079e+04 6.063e-10
 70.44275   -237.4 1.064e+04 4.791e-10
 70.46285   -236.6 1.049e+04 3.666e-10
 70.47900   -236.0 1.032e+04 2.866e-10
 70.48905   -236.9 9.999e+03 2.390e-10
 70.50305   -236.4 9.922e+03 2.222e-10
 70.53330   -235.7 1.003e+04 2.083e-10
 70.57360   -233.4 9.556e+03 1.623e-10
 70.61380   -230.9 9.207e+03 1.318e-10
 70.64365   -228.4 9.149e+03 1.257e-10
 70.66375   -229.5 1.009e+04 2.848e-10
 70.69420   -227.0 1.003e+04 2.813e-10
 70.71830   -224.5 1.008e+04 3.028e-10
 70.73840   -225.1 1.017e+04 3.221e-10
 70.77460   -222.6 1.035e+04 3.894e-10
 70.81480   -220.3 1.073e+04 5.322e-10
 70.85500   -218.2 1.108e+04 6.962e-10
 70.87964   -216.2 1.135e+04 8.601e-10
 70.89974   -217.8 1.157e+04 1.003e-09
 70.93540   -216.3 1.154e+04 9.994e-10
 70.95741   -214.6 1.138e+04 9.164e-10
 70.97751   -214.4 1.104e+04 7.020e-10
 71.01580   -212.6 1.077e+04 5.724e-10
 71.05600   -210.9 1.049e+04 4.548e-10
 71.09553   -209.1 1.024e+04 3.666e-10
 71.11563   -209.7 9.978e+03 2.616e-10
 71.13641   -207.5 9.796e+03 2.173e-10
 71.17641   -205.2 9.691e+03 1.896e-10
 71.21661   -202.6 9.715e+03 1.929e-10
 71.25701   -200.2 9.713e+03 1.891e-10
 71.29721   -197.8 9.700e+03 1.848e-10
 71.33152   -195.4 9.669e+03 1.790e-10
 71.35162   -195.5 9.608e+03 1.372e-10
 71.37761   -193.2 9.676e+03 1.380e-10
 71.41552   -191.0 9.731e+03 1.517e-10
 71.43562   -190.9 9.828e+03 1.620e-10
 71.45801   -188.8 9.885e+03 2.007e-10
 71.49821   -186.8 9.992e+03 2.536e-10
 71.53841   -184.9 1.015e+04 3.174e-10
 71.56751   -183.1 1.030e+04 3.814e-10
 71.58761   -183.5 1.056e+04 4.142e-10
 71.61881   -182.0 1.063e+04 4.572e-10
 71.65463   -180.5 1.064e+04 4.671e-10
 71.67473   -180.3 1.043e+04 4.076e-10
 71.69921   -178.8 1.034e+04 3.929e-10
 71.73941   -177.3 1.020e+04 3.479e-10
 71.77961   -175.8 1.005e+04 2.985e-10
 71.80350   -174.3 9.906e+03 2.592e-10
 71.82360   -174.9 9.971e+03 2.612e-10
 71.86001   -173.4 9.935e+03 2.418e-10
 71.89373   -171.9 9.934e+03 2.362e-10
 71.91383   -172.2 1.011e+04 2.794e-10
 71.94041   -170.8 1.020e+04 3.067e-10
 71.98062   -169.3 1.026e+04 3.319e-10
 72.01939   -167.7 1.026e+04 3.431e-10
 72.03949   -168.4 1.031e+04 3.572e-10
 72.06102   -166.4 1.014e+04 3.248e-10
 72.10122   -164.3 9.941e+03 2.707e-10
 72.13284   -162.0 9.755e+03 2.207e-10
 72.15294   -162.3 9.577e+03 1.780e-10
 72.18162   -159.9 9.382e+03 1.318e-10
 72.22182   -157.4 9.219e+03 9.791e-11
 72.25538   -154.9 9.096e+03 7.304e-11
 72.27548   -155.0 9.090e+03 7.219e-11
 72.30222   -152.4 9.019e+03 5.477e-11
 72.34242   -149.9 8.985e+03 4.237e-11
 72.37194   -147.5 8.963e+03 3.394e-11
 72.39204   -147.9 8.852e+03 2.949e-11
 72.42282   -145.4 8.783e+03 2.701e-11
 72.46302   -142.8 8.714e+03 2.552e-11
 72.49137   -140.3 8.657e+03 2.474e-11
 72.51147   -140.0 8.738e+03 2.551e-11
 72.54342   -137.4 8.658e+03 2.441e-11
 72.58362   -134.7 8.601e+03 2.399e-11
 72.61105   -132.0 8.580e+03 2.393e-11
 72.63115   -132.0 8.620e+03 2.508e-11
 72.66402   -129.4 8.643e+03 2.516e-11
 72.70422   -126.9 8.730e+03 2.654e-11
 72.72736   -124.6 8.807e+03 3.067e-11
 72.74746   -124.3 8.826e+03 3.034e-11
 72.78463   -122.0 8.901e+03 3.854e-11
 72.82483   -119.7 8.978e+03 5.275e-11
 72.85016   -117.3 9.064e+03 7.529e-11
 72.87026   -117.6 9.153e+03 9.114e-11
 72.90523   -115.3 9.245e+03 1.159e-10
 72.94325   -113.0 9.347e+03 1.465e-10
 72.96335   -112.5 9.330e+03 1.269e-10
 72.98563   -110.4 9.423e+03 1.523e-10
 73.02583   -108.4 9.508e+03 1.789e-10
 73.06603   -106.6 9.579e+03 2.036e-10
 73.08926   -104.9 9.613e+03 2.219e-10
 73.10936   -105.9 9.540e+03 2.127e-10
 73.14643   -104.2 9.552e+03 2.361e-10
 73.17924   -102.4 9.542e+03 2.424e-10
 73.19934   -101.9 9.565e+03 2.314e-10
 73.22683   -100.1 9.541e+03 2.368e-10
 73.26703    -98.3 9.457e+03 2.308e-10
 73.30723    -96.4 9.355e+03 2.170e-10
 73.32837    -94.5 9.293e+03 2.051e-10
 73.34847    -94.6 9.107e+03 1.803e-10
 73.38763    -92.6 9.097e+03 1.705e-10
 73.41523    -90.5 9.096e+03 1.673e-10
 73.43533    -90.6 9.189e+03 1.689e-10
 73.46803    -88.8 9.322e+03 1.741e-10
 73.50823    -87.0 9.430e+03 1.830e-10
 73.54737    -85.2 9.480e+03 1.890e-10
 73.56748    -85.5 9.421e+03 1.396e-10
 73.58864    -83.5 9.423e+03 1.440e-10
 73.62884    -81.5 9.344e+03 1.409e-10
 73.65122    -79.4 9.216e+03 1.322e-10
 73.67132    -79.7 9.183e+03 1.247e-10
 73.70924    -77.8 9.019e+03 1.072e-10
 73.74944    -75.9 8.836e+03 1.012e-10
 73.78648    -73.9 8.759e+03 1.005e-10
 73.80658    -73.4 8.674e+03 9.014e-11
 73.82984    -71.3 8.630e+03 8.848e-11
 73.86711    -69.1 8.610e+03 8.877e-11
 73.88721    -69.6 8.528e+03 8.260e-11
 73.91024    -67.5 8.458e+03 8.985e-11
 73.95044    -65.4 8.411e+03 9.914e-11
 73.99064    -63.2 8.374e+03 1.076e-10
 74.02559    -60.9 8.318e+03 1.112e-10
 74.04569    -60.4 8.394e+03 1.227e-10
 74.07104    -58.1 8.354e+03 1.260e-10
 74.10309    -55.7 8.273e+03 1.203e-10
 74.12320    -55.6 8.028e+03 8.200e-11
 74.15144    -53.4 7.931e+03 6.966e-11
 74.19164    -51.3 7.848e+03 5.965e-11
 74.23184    -49.2 7.781e+03 5.449e-11
 74.26469    -47.2 7.758e+03 5.331e-11
 74.28479    -47.1 7.920e+03 6.632e-11
 74.31224    -45.1 7.904e+03 7.146e-11
 74.33908    -43.1 7.896e+03 8.490e-11
 74.35918    -42.9 7.762e+03 6.454e-11
 74.39265    -40.6 7.727e+03 7.161e-11
 74.43285    -38.0 7.709e+03 7.500e-11
 74.47305    -35.5 7.687e+03 7.466e-11
 74.50380    -33.0 7.645e+03 6.935e-11
 74.52390    -32.8 7.817e+03 8.277e-11
 74.55345    -30.5 7.803e+03 7.619e-11
 74.57507    -28.3 7.797e+03 7.446e-11
 74.59517    -28.3 7.719e+03 5.822e-11
 74.63385    -26.3 7.818e+03 6.675e-11
 74.67405    -24.2 7.953e+03 8.649e-11
 74.71425    -22.1 8.141e+03 1.198e-10
 74.74291    -19.9 8.337e+03 1.678e-10
 74.76301    -19.7 8.520e+03 2.041e-10
 74.79096    -16.9 8.701e+03 2.530e-10
 74.81106    -16.7 8.462e+03 1.850e-10
 74.83485    -14.0 8.493e+03 1.846e-10
 74.87505    -11.5 8.539e+03 1.500e-10
 74.91525     -9.5 8.511e+03 1.260e-10
 74.95545     -7.9 8.522e+03 1.154e-10
 74.98201     -6.1 8.538e+03 1.252e-10
 75.00211     -5.8 8.644e+03 1.281e-10
 75.02695     -4.3 8.918e+03 1.833e-10
 75.04705     -5.3 9.086e+03 2.113e-10
 75.07605     -4.0 9.670e+03 3.612e-10
 75.11625     -3.0 1.093e+04 7.149e-10
 75.14485     -3.0 1.178e+04 1.156e-09
 75.15480     -3.7 1.166e+04 1.037e-09
 75.16631     -3.7 1.198e+04 1.349e-09
 75.18641     -3.0 1.207e+04 1.601e-09
 75.20651     -2.4 1.212e+04 1.667e-09
 75.22092     -1.9 1.207e+04 1.540e-09
 75.23097     -1.9 1.189e+04 1.368e-09
 75.24671     -2.2 1.167e+04 1.266e-09
 75.26285     -1.2 1.110e+04 9.839e-10
 75.28304     -1.2 1.067e+04 7.032e-10
 75.31726      0.4 1.003e+04 4.420e-10
 75.35746      2.2 9.591e+03 2.890e-10
 75.39766      3.9 9.388e+03 2.147e-10
 75.43786      5.9 9.237e+03 1.936e-10
 75.46022      8.4 9.159e+03 1.973e-10
 75.48032      9.0 9.053e+03 1.943e-10
 75.49893     11.8 9.066e+03 2.073e-10
 75.51903     11.9 9.344e+03 2.678e-10
 75.55846     14.7 9.381e+03 2.741e-10
 75.59866     17.5 9.356e+03 2.707e-10
 75.63886     20.2 9.307e+03 2.621e-10
 75.67906     23.0 9.293e+03 2.634e-10
 75.71482     26.4 9.249e+03 2.592e-10
 75.73492     26.1 9.498e+03 3.163e-10
 75.75946     28.8 9.524e+03 3.351e-10
 75.79966     31.5 9.590e+03 3.702e-10
 75.83986     34.2 9.673e+03 4.096e-10
 75.88006     37.0 9.756e+03 4.400e-10
 75.91834     39.7 9.793e+03 4.460e-10
 75.93844     40.1 9.966e+03 5.227e-10
 75.95081     42.7 9.935e+03 5.053e-10
 75.97091     42.3 9.963e+03 5.145e-10
 76.00066     44.9 9.830e+03 4.552e-10
 76.04087     47.3 9.659e+03 3.904e-10
 76.08107     49.8 9.543e+03 3.591e-10
 76.12127     52.3 9.550e+03 3.609e-10
 76.15744     54.7 9.644e+03 3.900e-10
 76.17754     55.0 9.683e+03 4.229e-10
 76.18680     57.8 1.005e+04 5.386e-10
 76.20690     57.6 9.520e+03 3.225e-10
 76.23172     59.0 9.805e+03 4.174e-10
 76.25172     60.1 1.004e+04 4.898e-10
 76.27182     61.0 1.026e+04 5.708e-10
 76.28685     62.0 1.047e+04 6.691e-10
 76.29690     62.3 1.045e+04 6.776e-10
 76.30460     63.4 1.068e+04 7.928e-10
 76.31465     63.4 1.034e+04 5.953e-10
 76.33212     64.2 1.054e+04 6.813e-10
 76.36237     65.3 1.101e+04 9.271e-10
 76.39655     66.8 1.130e+04 1.103e-09
 76.41665     67.2 1.136e+04 1.107e-09
 76.44287     68.7 1.100e+04 9.018e-10
 76.48307     69.9 1.112e+04 9.840e-10
 76.52327     71.2 1.113e+04 9.785e-10
 76.55332     71.8 1.115e+04 9.947e-10
 76.57333     72.3 1.113e+04 9.909e-10
 76.59343     73.0 1.111e+04 9.847e-10
 76.61353     73.4 1.113e+04 9.894e-10
 76.63363     74.1 1.115e+04 1.013e-09
 76.64551     74.9 1.119e+04 1.046e-09
 76.65037     75.2 1.129e+04 1.135e-09
 76.65859     75.3 1.117e+04 1.024e-09
 76.67383     76.1 1.119e+04 1.021e-09
 76.69393     76.8 1.121e+04 1.005e-09
 76.71403     77.5 1.120e+04 9.770e-10
 76.73413     78.1 1.116e+04 9.416e-10
 76.75423     78.7 1.109e+04 8.972e-10
 76.76506     79.3 1.102e+04 8.462e-10
 76.76731     79.7 1.119e+04 9.345e-10
 76.77658     79.7 1.106e+04 8.665e-10
 76.79443     80.2 1.104e+04 8.635e-10
 76.81453     80.8 1.102e+04 8.538e-10
 76.83463     81.3 1.102e+04 8.439e-10
 76.85473     81.8 1.102e+04 8.429e-10
 76.87448     82.2 1.104e+04 8.486e-10
 76.88453     83.0 1.119e+04 9.384e-10
 76.89493     83.4 1.118e+04 9.265e-10
 76.91503     83.9 1.116e+04 9.085e-10
 76.93513     84.4 1.113e+04 8.842e-10
 76.95523     85.0 1.108e+04 8.502e-10
 76.97533     85.5 1.099e+04 8.044e-10
 76.99247     86.1 1.087e+04 7.427e-10
 77.00121     86.2 1.075e+04 6.777e-10
 77.00417     86.6 1.086e+04 7.354e-10
 77.01553     87.2 1.070e+04 6.699e-10
 77.03563     87.8 1.054e+04 5.837e-10
 77.05573     88.3 1.040e+04 4.995e-10
 77.08598     88.8 1.019e+04 3.884e-10
 77.11066     90.4 9.956e+03 3.129e-10
 77.11835     91.2 9.956e+03 3.200e-10
 77.13397     91.9 1.010e+04 3.798e-10
 77.16648     93.8 9.905e+03 3.198e-10
 77.20668     95.8 9.817e+03 2.949e-10
 77.24688     98.1 9.830e+03 2.963e-10
 77.28708    100.3 9.902e+03 3.089e-10
 77.32655    102.2 9.949e+03 3.299e-10
 77.34665    102.8 9.951e+03 3.176e-10
 77.35297    104.8 9.988e+03 3.234e-10
 77.37307    105.2 9.991e+03 3.621e-10
 77.39753    106.7 1.001e+04 3.716e-10
 77.41754    108.0 1.012e+04 4.001e-10
 77.43764    109.1 1.026e+04 4.329e-10
 77.45440    110.1 1.043e+04 4.698e-10
 77.46445    110.0 1.011e+04 3.451e-10
 77.47233    111.0 1.019e+04 3.549e-10
 77.48238    111.5 1.033e+04 4.218e-10
 77.49794    112.3 1.045e+04 4.369e-10
 77.51804    112.9 1.063e+04 4.645e-10
 77.53814    113.4 1.088e+04 5.125e-10
 77.55824    113.8 1.118e+04 5.879e-10
 77.57239    114.1 1.151e+04 6.956e-10
 77.58244    114.9 1.071e+04 4.249e-10
 77.59188    115.3 1.099e+04 5.080e-10
 77.60193    115.8 1.125e+04 5.732e-10
 77.61854    116.0 1.157e+04 6.877e-10
 77.63864    116.2 1.191e+04 8.467e-10
 77.65874    116.2 1.223e+04 1.062e-09
 77.67884    116.3 1.252e+04 1.338e-09
 77.69039    116.5 1.279e+04 1.656e-09
 77.70044    117.7 1.236e+04 1.272e-09
 77.71144    117.9 1.267e+04 1.600e-09
 77.72149    118.1 1.307e+04 1.890e-09
 77.73914    118.4 1.330e+04 2.110e-09
 77.75924    118.5 1.333e+04 2.108e-09
 77.77934    118.6 1.326e+04 2.014e-09
 77.79833    118.8 1.306e+04 1.790e-09
 77.80838    119.9 1.303e+04 1.787e-09
 77.81954    120.2 1.280e+04 1.547e-09
 77.83099    120.4 1.257e+04 1.332e-09
 77.84104    120.6 1.299e+04 1.479e-09
 77.85974    120.9 1.276e+04 1.310e-09
 77.87984    121.3 1.261e+04 1.268e-09
 77.89994    122.1 1.257e+04 1.307e-09
 77.91633    122.9 1.258e+04 1.457e-09
 77.92638    123.5 1.227e+04 9.373e-10
 77.94014    124.4 1.234e+04 9.875e-10
 77.95054    125.4 1.243e+04 1.095e-09
 77.96059    125.9 1.287e+04 1.277e-09
 77.98034    127.0 1.303e+04 1.445e-09
 78.00044    128.0 1.321e+04 1.643e-09
 78.02054    129.0 1.349e+04 1.910e-09
 78.03432    129.8 1.393e+04 2.305e-09
 78.04437    129.7 1.270e+04 1.007e-09
 78.06005    130.3 1.310e+04 1.228e-09
 78.07010    130.8 1.441e+04 1.795e-09
 78.08085    131.1 1.503e+04 2.313e-09
 78.10095    131.1 1.564e+04 2.950e-09
 78.12105    131.2 1.620e+04 3.822e-09
 78.14115    131.5 1.674e+04 5.075e-09
 78.15232    131.9 1.672e+04 5.345e-09
 78.16237    131.8 1.490e+04 2.494e-09
 78.17960    131.9 1.500e+04 2.710e-09
 78.18965    130.6 1.743e+04 4.461e-09
 78.20145    130.2 1.772e+04 4.804e-09
 78.22155    129.6 1.791e+04 4.972e-09
 78.24165    128.7 1.815e+04 5.224e-09
 78.26026    127.5 1.829e+04 5.651e-09
 78.27031    127.8 1.790e+04 5.505e-09
 78.28185    126.7 1.866e+04 7.007e-09
 78.29915    125.8 1.950e+04 9.918e-09
 78.30915    124.1 2.018e+04 1.534e-08
 78.31693    124.0 2.035e+04 1.799e-08
 78.32419    124.0 2.064e+04 2.199e-08
 78.32921    123.4 2.085e+04 3.366e-08
 78.33703    123.7 2.099e+04 4.770e-08
 78.34708    124.0 2.110e+04 6.188e-08
 78.35713    124.3 2.113e+04 6.714e-08
 78.36386    124.7 2.111e+04 6.594e-08
 78.36888    124.4 2.134e+04 7.208e-08
 78.37723    124.7 2.119e+04 5.418e-08
 78.38319    125.1 2.105e+04 3.880e-08
 78.38821    124.9 2.088e+04 6.867e-08
 78.39733    125.3 2.071e+04 4.533e-08
 78.40738    125.2 2.074e+04 3.005e-08
 78.41743    124.9 2.078e+04 2.226e-08
 78.42363    124.3 2.057e+04 1.671e-08
 78.42871    123.1 2.027e+04 1.260e-08
 78.44265    122.2 1.924e+04 9.068e-09
 78.46275    122.1 1.829e+04 8.050e-09
 78.48285    122.1 1.773e+04 7.607e-09
 78.49625    122.0 1.739e+04 7.232e-09
 78.50630    122.2 1.795e+04 9.612e-09
 78.52305    122.1 1.761e+04 8.895e-09
 78.53826    121.9 1.722e+04 7.954e-09
 78.54831    121.1 1.635e+04 5.723e-09
 78.56325    121.0 1.587e+04 4.767e-09
 78.58335    120.7 1.525e+04 3.722e-09
 78.60345    120.4 1.450e+04 2.749e-09
 78.61425    120.1 1.367e+04 1.958e-09
 78.62430    121.5 1.397e+04 2.546e-09
 78.64365    121.4 1.328e+04 1.856e-09
 78.65781    121.5 1.275e+04 1.401e-09
 78.66786    121.4 1.243e+04 1.176e-09
 78.69400    121.5 1.201e+04 7.401e-10
 78.72239    122.4 1.128e+04 3.818e-10
 78.74249    124.4 1.205e+04 9.406e-10
 78.76751    125.3 1.166e+04 6.253e-10
 78.78761    125.7 1.121e+04 3.878e-10
 78.81470    126.8 1.068e+04 2.316e-10
 78.85490    128.0 1.004e+04 1.534e-10
 78.89510    129.3 9.488e+03 1.221e-10
 78.93530    130.9 9.185e+03 1.121e-10
 78.95838    132.7 9.097e+03 1.113e-10
 78.97848    133.9 9.843e+03 2.686e-10
 79.00661    135.7 9.569e+03 2.359e-10
 79.02672    136.2 9.531e+03 2.100e-10
 79.05590    138.1 9.631e+03 2.243e-10
 79.09610    140.0 9.782e+03 2.562e-10
 79.13630    141.0 9.911e+03 2.983e-10
 79.16636    141.8 1.006e+04 3.665e-10
 79.18412    142.7 1.038e+04 4.820e-10
 79.19417    143.4 1.044e+04 5.295e-10
 79.20646    143.9 1.089e+04 6.905e-10
 79.22656    144.0 1.142e+04 9.308e-10
 79.24553    144.0 1.204e+04 1.290e-09
 79.25558    143.9 1.210e+04 1.307e-09
 79.26676    143.7 1.277e+04 1.820e-09
 79.28686    143.2 1.340e+04 2.392e-09
 79.30212    142.3 1.395e+04 2.882e-09
 79.31217    143.7 1.391e+04 2.971e-09
 79.32706    141.8 1.478e+04 3.656e-09
 79.34716    137.6 1.626e+04 4.645e-09
 79.36508    131.7 1.771e+04 5.961e-09
 79.37513    128.9 1.759e+04 5.590e-09
 79.38736    122.7 1.748e+04 5.456e-09
 79.40746    117.6 1.659e+04 4.497e-09
 79.42011    113.6 1.499e+04 2.750e-09
 79.43016    113.2 1.544e+04 2.799e-09
 79.44766    109.7 1.351e+04 1.211e-09
 79.46776    105.4 1.163e+04 4.957e-10
 79.48473    100.3 1.022e+04 2.649e-10
 79.50493     98.6 9.255e+03 2.339e-10
 79.53831     98.1 9.170e+03 2.351e-10
 79.57851     99.3 9.270e+03 2.573e-10
 79.60428     99.8 9.551e+03 3.046e-10
 79.61423    100.0 9.422e+03 2.928e-10
 79.62856    100.5 9.700e+03 3.514e-10
 79.64605    100.4 1.019e+04 4.623e-10
 79.65610     99.0 1.077e+04 5.901e-10
 79.66876     98.5 1.149e+04 8.918e-10
 79.68886     98.0 1.223e+04 1.360e-09
 79.70897     97.9 1.288e+04 2.068e-09
 79.72374     98.3 1.335e+04 2.894e-09
 79.73379     98.4 1.370e+04 2.933e-09
 79.74917     98.6 1.399e+04 3.518e-09
 79.76405     98.5 1.395e+04 3.494e-09
 79.77410     98.1 1.400e+04 3.603e-09
 79.78937     98.1 1.363e+04 2.948e-09
 79.80947     98.0 1.305e+04 2.009e-09
 79.82957     97.7 1.239e+04 1.406e-09
 79.85981     97.0 1.147e+04 8.265e-10
 79.88224     94.9 9.750e+03 3.496e-10
 79.90234     93.6 9.056e+03 2.031e-10
 79.94031     93.2 8.939e+03 1.973e-10
 79.96304     93.4 8.932e+03 2.049e-10
 79.98314     94.0 9.316e+03 2.784e-10
 80.02071     94.8 9.504e+03 3.485e-10
 80.05077     95.1 9.760e+03 4.267e-10
 80.07077     95.3 9.871e+03 4.582e-10
 80.08240     95.5 1.004e+04 4.873e-10
 80.09245     95.6 1.021e+04 5.525e-10
 80.10798     95.7 1.038e+04 5.991e-10
 80.11803     95.7 1.028e+04 5.514e-10
 80.14122     95.7 1.014e+04 4.836e-10
 80.18152     95.6 1.018e+04 4.798e-10
 80.20215     95.5 1.018e+04 4.578e-10
 80.22225     95.7 1.084e+04 7.052e-10
 80.26192     95.7 1.059e+04 5.973e-10
 80.30212     95.7 1.075e+04 5.544e-10
 80.33412     95.3 1.103e+04 6.036e-10
 80.35412     93.6 1.217e+04 9.006e-10
 80.37227     92.1 1.299e+04 1.256e-09
 80.39237     90.9 1.371e+04 1.993e-09
 80.41247     90.5 1.430e+04 3.212e-09
 80.43101     90.5 1.484e+04 4.550e-09
 80.44106     90.4 1.438e+04 3.483e-09
 80.45192     90.2 1.462e+04 4.065e-09
 80.46197     90.1 1.563e+04 6.229e-09
 80.47277     89.4 1.569e+04 6.007e-09
 80.49287     88.4 1.562e+04 5.202e-09
 80.51297     87.2 1.516e+04 4.142e-09
 80.53308     86.4 1.437e+04 3.100e-09
 80.55056     86.0 1.353e+04 2.323e-09
 80.56061     86.3 1.319e+04 2.033e-09
 80.57001     86.4 1.250e+04 1.386e-09
 80.59021     85.5 1.248e+04 1.509e-09
 80.62372     86.0 1.133e+04 8.135e-10
 80.66026     86.7 1.044e+04 4.515e-10
 80.68036     87.1 1.016e+04 3.498e-10
 80.70412     87.8 9.521e+03 2.442e-10
 80.74432     89.4 9.325e+03 2.362e-10
 80.78452     91.5 9.313e+03 2.370e-10
 80.80609     93.7 9.300e+03 2.464e-10
 80.82620     93.6 9.331e+03 2.622e-10
 80.86492     95.7 9.360e+03 2.835e-10
 80.89936     97.7 9.441e+03 3.233e-10
 80.91946     97.8 9.165e+03 2.635e-10
 80.94533     99.7 9.211e+03 2.968e-10
 80.98553    101.7 9.281e+03 3.289e-10
 81.02198    103.8 9.361e+03 3.507e-10
 81.04208    103.8 9.123e+03 2.972e-10
 81.06593    105.8 9.161e+03 3.039e-10
 81.10613    107.7 9.160e+03 3.022e-10
 81.13847    109.5 9.135e+03 2.915e-10
 81.15857    109.5 8.719e+03 1.783e-10
 81.18653    111.4 8.662e+03 1.653e-10
 81.22673    113.2 8.618e+03 1.581e-10
 81.25797    115.2 8.623e+03 1.595e-10
 81.27807    115.3 8.579e+03 1.497e-10
 81.30713    117.2 8.684e+03 1.710e-10
 81.34733    119.2 8.983e+03 2.242e-10
 81.37758    121.2 9.411e+03 3.113e-10
 81.39768    121.2 9.107e+03 2.421e-10
 81.42773    122.9 9.509e+03 3.312e-10
 81.46793    124.3 9.859e+03 4.195e-10
 81.49387    124.7 1.012e+04 5.053e-10
 81.50287    124.6 1.035e+04 5.935e-10
 81.50698    124.6 1.019e+04 5.220e-10
 81.51799    125.1 1.037e+04 5.651e-10
 81.53809    125.5 1.045e+04 5.673e-10
 81.55819    125.7 1.046e+04 5.620e-10
 81.57829    125.7 1.048e+04 5.386e-10
 81.59839    125.6 1.054e+04 5.147e-10
 81.61176    125.3 1.059e+04 5.143e-10
 81.61981    124.5 1.082e+04 5.544e-10
 81.62654    125.1 1.066e+04 5.195e-10
 81.63859    123.7 1.107e+04 5.942e-10
 81.65869    121.7 1.184e+04 8.362e-10
 81.67879    119.9 1.257e+04 1.275e-09
 81.69889    118.8 1.312e+04 1.870e-09
 81.71899    118.2 1.353e+04 2.416e-09
 81.72976    117.7 1.374e+04 2.559e-09
 81.73676    116.9 1.443e+04 3.244e-09
 81.74609    117.4 1.514e+04 4.564e-09
 81.75919    117.0 1.493e+04 3.948e-09
 81.77929    116.3 1.436e+04 2.933e-09
 81.79939    115.2 1.350e+04 1.961e-09
 81.81949    113.9 1.248e+04 1.286e-09
 81.83770    112.5 1.153e+04 9.278e-10
 81.84775    111.6 1.144e+04 9.763e-10
 81.85559    111.6 1.132e+04 9.550e-10
 81.86564    111.5 1.133e+04 9.544e-10
 81.87979    111.8 1.129e+04 9.489e-10
 81.89989    112.4 1.130e+04 9.536e-10
 81.91999    113.0 1.137e+04 9.879e-10
 81.94009    113.2 1.157e+04 1.087e-09
 81.95570    113.2 1.188e+04 1.264e-09
 81.96575    113.5 1.186e+04 1.269e-09
 81.97515    113.4 1.217e+04 1.498e-09
 81.98520    113.3 1.230e+04 1.568e-09
 82.00039    112.6 1.322e+04 2.174e-09
 82.02049    111.7 1.430e+04 3.135e-09
 82.03487    111.3 1.461e+04 3.524e-09
 82.03985    111.4 1.462e+04 3.580e-09
 82.04552    111.2 1.492e+04 3.897e-09
 82.05557    110.2 1.617e+04 4.675e-09
 82.06562    104.9 2.126e+04 8.028e-09
 82.07360     96.0 2.672e+04 2.928e-08
 82.07862     95.7 2.676e+04 2.903e-08
 82.08572     89.1 2.519e+04 1.444e-07
 82.09460     85.0 2.274e+04 4.951e-07
 82.09960     84.8 2.130e+04 1.281e-06
 82.10304     83.1 2.080e+04 1.481e-06
 82.10556     82.7 2.110e+04 1.251e-06
 82.10829     81.1 2.100e+04 1.223e-06
 82.11585     80.6 2.041e+04 1.611e-06
 82.12592     81.1 2.096e+04 7.170e-07
 82.13259     82.7 2.237e+04 1.761e-07
 82.13762     82.4 2.209e+04 1.463e-07
 82.14602     83.1 2.472e+04 2.401e-08
 82.16115     77.7 3.000e+04 1.265e-09
 82.18130     62.9 1.455e+04 4.563e-10
 82.19169     57.2 1.084e+04 3.756e-10
 82.20174     60.2 9.256e+03 3.630e-10
 82.23164     57.9 9.851e+03 2.695e-10
 82.27194     59.9 9.451e+03 2.102e-10
 82.31214     62.5 9.321e+03 1.731e-10
 82.33400     64.6 9.217e+03 1.446e-10
 82.35410     62.9 9.285e+03 1.299e-10
 82.39254     64.7 9.224e+03 1.217e-10
 82.41782     66.5 9.264e+03 1.246e-10
 82.43792     66.9 9.458e+03 1.845e-10
 82.47294     68.8 9.592e+03 2.015e-10
 82.51314     70.7 1.016e+04 2.508e-10
 82.53572     70.6 1.074e+04 2.876e-10
 82.54567     70.2 1.087e+04 3.471e-10
 82.56286     69.9 1.136e+04 4.842e-10
 82.57291     67.8 1.234e+04 1.101e-09
 82.58330     68.6 1.238e+04 1.388e-09
 82.60340     69.6 1.240e+04 1.674e-09
 82.62350     70.9 1.250e+04 1.858e-09
 82.64357     72.1 1.252e+04 1.853e-09
 82.66367     73.0 1.309e+04 2.233e-09
 82.68241     74.1 1.306e+04 2.009e-09
 82.69246     72.9 1.328e+04 1.471e-09
 82.70390     73.2 1.312e+04 1.046e-09
 82.72400     73.2 1.266e+04 7.244e-10
 82.74410     72.7 1.180e+04 5.186e-10
 82.76156     72.2 1.085e+04 4.101e-10
 82.77161     71.7 1.108e+04 5.432e-10
 82.78430     71.7 1.049e+04 4.960e-10
 82.80197     72.3 1.048e+04 4.998e-10
 82.81202     70.9 1.028e+04 4.262e-10
 82.82450     71.1 1.059e+04 4.795e-10
 82.84460     71.0 1.099e+04 5.847e-10
 82.86470     70.7 1.141e+04 7.558e-10
 82.87956     70.5 1.170e+04 9.992e-10
 82.88961     70.4 1.197e+04 1.241e-09
 82.90490     70.6 1.216e+04 1.513e-09
 82.92152     70.9 1.234e+04 1.781e-09
 82.93157     69.7 1.185e+04 1.588e-09
 82.94510     70.1 1.216e+04 1.753e-09
 82.96520     69.6 1.264e+04 1.923e-09
 82.98531     68.6 1.325e+04 2.176e-09
 82.99755     67.0 1.378e+04 2.591e-09
 83.00760     64.8 1.380e+04 3.111e-09
 83.02551     63.9 1.413e+04 3.890e-09
 83.04107     63.9 1.447e+04 4.709e-09
 83.05112     63.6 1.396e+04 3.489e-09
 83.06571     63.6 1.420e+04 3.910e-09
 83.08581     63.6 1.453e+04 3.892e-09
 83.10550     63.4 1.449e+04 3.910e-09
 83.11555     63.2 1.396e+04 3.465e-09
 83.12601     62.8 1.374e+04 2.774e-09
 83.14611     62.0 1.343e+04 2.126e-09
 83.16063     60.8 1.303e+04 1.614e-09
 83.17068     60.4 1.341e+04 2.215e-09
 83.18631     59.7 1.326e+04 1.979e-09
 83.20641     58.9 1.344e+04 1.819e-09
 83.22349     58.2 1.356e+04 1.829e-09
 83.23354     57.6 1.222e+04 8.031e-10
 83.24661     57.0 1.248e+04 8.237e-10
 83.26671     55.7 1.328e+04 9.528e-10
 83.28018     52.6 1.493e+04 1.448e-09
 83.29023     52.1 1.641e+04 3.773e-09
 83.30691     47.9 1.840e+04 7.440e-09
 83.32194     46.5 1.849e+04 7.959e-09
 83.33194     44.5 1.932e+04 1.031e-08
 83.33986     42.0 2.068e+04 1.674e-08
 83.34428     40.6 2.160e+04 2.431e-08
 83.34641     39.9 2.163e+04 2.294e-08
 83.35204     38.6 2.187e+04 4.202e-08
 83.36209     38.5 2.197e+04 7.802e-08
 83.37214     38.9 2.193e+04 1.347e-07
 83.38219     38.7 2.234e+04 1.751e-07
 83.39224     37.5 2.254e+04 1.604e-07
 83.39963     37.0 2.267e+04 1.012e-07
 83.40276     36.3 2.291e+04 4.590e-08
 83.40541     37.2 2.293e+04 9.173e-08
 83.41234     36.1 2.291e+04 3.411e-08
 83.42746     32.4 1.989e+04 8.409e-09
 83.44761     28.5 1.524e+04 2.219e-09
 83.45948     23.3 1.017e+04 6.971e-10
 83.46953     24.9 1.157e+04 7.639e-10
 83.48781     20.6 9.818e+03 3.323e-10
 83.50791     20.4 9.366e+03 3.139e-10
 83.51929     20.8 9.385e+03 3.204e-10
 83.52934     20.8 9.348e+03 2.910e-10
 83.54811     21.1 9.415e+03 3.134e-10
 83.56743     21.4 9.402e+03 3.332e-10
 83.57748     22.3 9.662e+03 3.716e-10
 83.58831     22.2 9.591e+03 3.843e-10
 83.60841     22.3 9.548e+03 3.967e-10
 83.63866     22.6 9.545e+03 3.994e-10
 83.67896     22.9 9.378e+03 3.766e-10
 83.71916     23.6 9.178e+03 3.334e-10
 83.74854     24.4 9.021e+03 2.915e-10
 83.76864     24.1 8.927e+03 2.574e-10
 83.79356     24.9 8.748e+03 2.219e-10
 83.81366     25.9 8.717e+03 2.142e-10
 83.83976     27.0 8.691e+03 2.099e-10
 83.87996     28.3 8.692e+03 2.102e-10
 83.92016     29.7 8.723e+03 2.170e-10
 83.96036     31.1 8.781e+03 2.269e-10
 83.98764     32.5 8.918e+03 2.480e-10
 84.00774     33.0 8.661e+03 1.956e-10
 84.02955     34.4 8.863e+03 2.228e-10
 84.04965     35.4 8.978e+03 2.535e-10
 84.08096     36.6 9.326e+03 3.116e-10
 84.12116     37.3 9.654e+03 3.888e-10
 84.14745     37.5 9.776e+03 4.345e-10
 84.15740     38.0 9.777e+03 4.376e-10
 84.17122     38.4 1.001e+04 5.258e-10
 84.19132     38.8 1.035e+04 6.594e-10
 84.21142     39.1 1.068e+04 7.229e-10
 84.22665     38.1 1.059e+04 6.250e-10
 84.24685     39.9 1.066e+04 6.916e-10
 84.26554     39.8 1.057e+04 5.598e-10
 84.28564     41.8 1.072e+04 6.527e-10
 84.32217     41.7 1.035e+04 3.821e-10
 84.36237     40.4 9.794e+03 1.934e-10
 84.40257     39.1 9.434e+03 1.588e-10
 84.44277     38.7 9.442e+03 1.710e-10
 84.46585     39.1 9.709e+03 2.395e-10
 84.48442     39.6 9.845e+03 2.813e-10
 84.50153     41.9 9.712e+03 2.241e-10
 84.52317     42.4 9.984e+03 3.155e-10
 84.56337     42.9 1.028e+04 4.258e-10
 84.58531     43.0 1.052e+04 5.375e-10
 84.59526     43.4 1.049e+04 5.025e-10
 84.60928     43.8 1.058e+04 5.165e-10
 84.61933     44.3 1.063e+04 5.555e-10
 84.64367     44.5 1.081e+04 5.786e-10
 84.68397     44.5 1.079e+04 5.342e-10
 84.70496     44.3 1.052e+04 4.536e-10
 84.71831     44.8 9.939e+03 2.645e-10
 84.73752     46.7 1.039e+04 3.651e-10
 84.76437     45.8 1.004e+04 3.388e-10
 84.80457     45.0 9.956e+03 3.564e-10
 84.84477     44.6 9.877e+03 3.763e-10
 84.88497     44.2 9.796e+03 3.597e-10
 84.92397     43.7 9.659e+03 3.184e-10
 84.94407     44.5 9.772e+03 3.537e-10
 84.95341     43.8 9.671e+03 3.416e-10
 84.97351     44.9 9.701e+03 3.498e-10
 85.00558     44.2 9.518e+03 3.265e-10
 85.04578     43.4 9.485e+03 3.381e-10
 85.08598     42.9 9.507e+03 3.658e-10
 85.12618     42.5 9.513e+03 3.760e-10
 85.16307     42.0 9.500e+03 3.763e-10
 85.18317     42.8 9.283e+03 3.207e-10
 85.18940     42.2 9.386e+03 3.579e-10
 85.19935     42.5 9.523e+03 3.931e-10
 85.21643     42.2 9.523e+03 4.074e-10
 85.24668     41.8 9.732e+03 4.813e-10
 85.28698     41.5 9.971e+03 6.089e-10
 85.32718     41.3 1.027e+04 7.564e-10
 85.36738     41.4 1.044e+04 8.231e-10
 85.40218     41.7 1.043e+04 8.081e-10
 85.41999     43.7 1.025e+04 7.500e-10
 85.42539     43.2 1.030e+04 7.662e-10
 85.44778     43.8 1.034e+04 7.879e-10
 85.48798     44.6 1.046e+04 8.441e-10
 85.52818     45.7 1.062e+04 9.302e-10
 85.56838     46.9 1.077e+04 9.941e-10
 85.60858     48.3 1.087e+04 1.026e-09
 85.64128     49.7 1.084e+04 9.761e-10
 85.66138     51.5 1.113e+04 1.138e-09
 85.68898     52.5 1.112e+04 1.051e-09
 85.71904     52.6 1.114e+04 1.035e-09
 85.73904     52.7 1.116e+04 1.035e-09
 85.75908     52.7 1.123e+04 1.055e-09
 85.77063     52.4 1.123e+04 1.077e-09
 85.78074     52.7 1.132e+04 1.221e-09
 85.79934     52.9 1.160e+04 1.363e-09
 85.81944     53.1 1.172e+04 1.430e-09
 85.83954     53.2 1.169e+04 1.413e-09
 85.85964     53.2 1.153e+04 1.324e-09
 85.87707     53.3 1.129e+04 1.156e-09
 85.88712     53.2 1.134e+04 1.188e-09
 85.89025     53.2 1.108e+04 9.952e-10
 85.90030     53.4 1.149e+04 1.098e-09
 85.91994     52.8 1.116e+04 8.943e-10
 85.94004     52.1 1.083e+04 7.782e-10
 85.97029     51.0 1.075e+04 7.915e-10
 86.01059     49.8 1.089e+04 9.086e-10
 86.05079     48.7 1.117e+04 1.070e-09
 86.08084     47.8 1.127e+04 1.100e-09
 86.10084     47.2 1.124e+04 1.088e-09
 86.11306     46.3 1.120e+04 1.035e-09
 86.12147     45.5 1.109e+04 9.813e-10
 86.13950     44.6 1.103e+04 8.887e-10
 86.17139     43.1 1.089e+04 8.222e-10
 86.21159     42.4 1.052e+04 6.401e-10
 86.25179     42.0 1.012e+04 4.540e-10
 86.29199     41.8 9.767e+03 3.134e-10
 86.32915     41.5 9.515e+03 2.317e-10
 86.34925     40.9 9.340e+03 1.972e-10
 86.35860     40.8 9.266e+03 1.719e-10
 86.37870     40.7 9.267e+03 1.603e-10
 86.41259     41.1 9.219e+03 1.530e-10
 86.45279     41.7 9.264e+03 1.541e-10
 86.49299     42.5 9.313e+03 1.629e-10
 86.53319     43.4 9.372e+03 1.826e-10
 86.56514     44.6 9.551e+03 2.217e-10
 86.58524     44.6 9.667e+03 2.496e-10
 86.59771     45.7 9.995e+03 3.028e-10
 86.61781     46.0 1.001e+04 2.692e-10
 86.64365     46.4 1.016e+04 3.027e-10
 86.66365     46.7 1.035e+04 3.393e-10
 86.68294     46.5 1.071e+04 4.043e-10
 86.69299     45.7 1.100e+04 4.708e-10
 86.70385     45.3 1.151e+04 6.216e-10
 86.71707     44.6 1.190e+04 8.297e-10
 86.72712     44.4 1.186e+04 1.131e-09
 86.74405     44.1 1.212e+04 1.464e-09
 86.76415     43.0 1.314e+04 2.045e-09
 86.78425     41.4 1.473e+04 3.226e-09
 86.80093     40.0 1.561e+04 4.827e-09
 86.81098     40.8 1.513e+04 3.329e-09
 86.82445     38.6 1.522e+04 3.992e-09
 86.83662     36.6 1.489e+04 3.935e-09
 86.84667     37.2 1.446e+04 2.572e-09
 86.86465     34.6 1.391e+04 2.670e-09
 86.88475     32.7 1.311e+04 2.625e-09
 86.90485     31.5 1.266e+04 2.415e-09
 86.91893     30.7 1.242e+04 2.093e-09
 86.92898     30.8 1.260e+04 2.427e-09
 86.94505     30.5 1.242e+04 2.034e-09
 86.95617     30.3 1.220e+04 1.539e-09
 86.96622     31.1 1.279e+04 2.285e-09
 86.98525     31.0 1.254e+04 1.754e-09
 87.01550     29.5 1.122e+04 6.841e-10
 87.03712     28.0 9.375e+03 3.266e-10
 87.05722     29.0 9.960e+03 3.729e-10
 87.09600     28.7 9.352e+03 3.432e-10
 87.13620     28.5 9.239e+03 3.537e-10
 87.17640     28.9 9.360e+03 4.450e-10
 87.21660     30.3 9.667e+03 5.986e-10
 87.25300     31.9 9.849e+03 6.784e-10
 87.27311     32.1 9.900e+03 7.008e-10
 87.29493     33.7 9.862e+03 6.846e-10
 87.31503     34.6 9.374e+03 4.874e-10
 87.33720     36.2 9.147e+03 3.965e-10
 87.37740     37.4 8.884e+03 2.937e-10
 87.41760     38.4 8.716e+03 2.564e-10
 87.45781     39.4 8.748e+03 2.638e-10
 87.48899     40.4 8.981e+03 3.233e-10
 87.50909     40.8 8.929e+03 2.725e-10
 87.52806     40.9 9.201e+03 3.477e-10
 87.54389     41.1 9.438e+03 4.276e-10
 87.55404     41.6 8.962e+03 2.811e-10
 87.57841     41.6 9.678e+03 4.941e-10
 87.61861     41.5 1.067e+04 9.311e-10
 87.64866     41.1 1.124e+04 1.285e-09
 87.66344     41.1 1.145e+04 1.461e-09
 87.67349     41.1 1.141e+04 1.387e-09
 87.68876     40.4 1.160e+04 1.464e-09
 87.70886     40.0 1.157e+04 1.454e-09
 87.72479     38.8 1.160e+04 1.435e-09
 87.74499     38.4 1.138e+04 1.313e-09
 87.77314     36.8 1.097e+04 1.115e-09
 87.79324     37.4 1.021e+04 7.190e-10
 87.81961     37.0 9.810e+03 5.799e-10
 87.84288     36.8 9.597e+03 5.434e-10
 87.85283     37.2 9.457e+03 4.931e-10
 87.86967     37.5 9.318e+03 4.571e-10
 87.89991     37.6 9.302e+03 4.295e-10
 87.94021     38.5 9.223e+03 4.035e-10
 87.96097     39.7 9.196e+03 3.765e-10
 87.98107     40.6 9.460e+03 4.452e-10
 88.01225     42.2 9.488e+03 4.369e-10
 88.03235     42.9 9.217e+03 3.636e-10
 88.06081     44.4 9.253e+03 3.559e-10
 88.10101     46.0 9.197e+03 3.104e-10
 88.14121     47.3 8.994e+03 2.410e-10
 88.17686     48.4 8.875e+03 2.158e-10
 88.19696     50.0 9.601e+03 3.716e-10
 88.21147     50.2 9.423e+03 3.236e-10
 88.23147     50.6 9.298e+03 3.096e-10
 88.25116     50.9 9.290e+03 3.170e-10
 88.26121     51.1 9.583e+03 3.868e-10
 88.27167     51.4 9.660e+03 4.458e-10
 88.29177     51.9 9.851e+03 5.314e-10
 88.30471     52.2 1.004e+04 6.199e-10
 88.31476     52.8 1.051e+04 7.439e-10
 88.33197     52.6 1.092e+04 8.710e-10
 88.35207     50.6 1.226e+04 1.244e-09
 88.37071     47.0 1.344e+04 1.982e-09
 88.38076     46.0 1.453e+04 3.602e-09
 88.39227     45.6 1.431e+04 4.399e-09
 88.41237     45.9 1.419e+04 4.432e-09
 88.42271     46.6 1.389e+04 3.995e-09
 88.43276     46.7 1.431e+04 4.886e-09
 88.45257     47.3 1.373e+04 3.584e-09
 88.47267     47.2 1.303e+04 2.153e-09
 88.49026     46.1 1.229e+04 1.199e-09
 88.51046     42.8 1.100e+04 4.452e-10
 88.54322     39.1 8.804e+03 1.704e-10
 88.58342     38.8 8.152e+03 1.380e-10
 88.62362     39.6 8.155e+03 1.400e-10
 88.64884     40.7 8.312e+03 1.604e-10
 88.66894     39.7 8.298e+03 1.549e-10
 88.70402     40.2 8.668e+03 2.010e-10
 88.72947     39.9 8.880e+03 2.374e-10
 88.73942     40.0 9.001e+03 2.485e-10
 88.75408     39.7 9.167e+03 3.004e-10
 88.76664     39.0 9.598e+03 4.164e-10
 88.77669     38.7 9.638e+03 3.817e-10
 88.79428     37.7 1.027e+04 5.936e-10
 88.81438     36.7 1.101e+04 9.727e-10
 88.83448     36.4 1.180e+04 1.530e-09
 88.84892     36.6 1.252e+04 2.088e-09
 88.85897     36.0 1.329e+04 2.379e-09
 88.87459     35.6 1.441e+04 2.867e-09
 88.89469     33.8 1.461e+04 3.163e-09
 88.91488     33.9 1.406e+04 2.601e-09
 88.93498     33.8 1.321e+04 1.881e-09
 88.95508     33.6 1.230e+04 1.323e-09
 88.96848     33.7 1.168e+04 9.635e-10
 88.97853     32.8 1.147e+04 1.017e-09
 88.99258     33.2 1.114e+04 7.788e-10
 89.00263     33.4 1.106e+04 6.675e-10
 89.01538     33.9 1.088e+04 5.348e-10
 89.03548     34.6 1.069e+04 4.495e-10
 89.05558     35.5 1.049e+04 3.942e-10
 89.07568     36.8 1.045e+04 3.841e-10
 89.08803     37.9 1.048e+04 3.890e-10
 89.09808     37.6 1.052e+04 3.851e-10
 89.11058     38.8 1.056e+04 3.967e-10
 89.12063     39.2 1.022e+04 3.511e-10
 89.13598     40.3 1.026e+04 3.737e-10
 89.15608     41.5 1.032e+04 4.068e-10
 89.17618     42.7 1.046e+04 4.526e-10
 89.19628     43.9 1.061e+04 5.017e-10
 89.20758     45.1 1.076e+04 5.522e-10
 89.21763     44.7 1.080e+04 6.581e-10
 89.22857     45.9 1.098e+04 7.494e-10
 89.23862     46.6 1.064e+04 6.609e-10
 89.25658     47.8 1.087e+04 7.422e-10
 89.27668     49.0 1.109e+04 8.188e-10
 89.29678     50.1 1.130e+04 8.916e-10
 89.31688     51.1 1.150e+04 9.699e-10
 89.32713     52.0 1.172e+04 1.070e-09
 89.33672     52.0 1.175e+04 1.310e-09
 89.34657     52.7 1.154e+04 1.137e-09
 89.35708     53.8 1.170e+04 1.224e-09
 89.37718     54.8 1.186e+04 1.314e-09
 89.39728     55.7 1.208e+04 1.439e-09
 89.41738     56.7 1.227e+04 1.567e-09
 89.43664     57.7 1.241e+04 1.642e-09
 89.44679     57.3 1.223e+04 1.544e-09
 89.46783     59.4 1.210e+04 1.340e-09
 89.50803     61.5 1.175e+04 9.613e-10
 89.54823     63.4 1.133e+04 6.220e-10
 89.57270     64.9 1.098e+04 4.228e-10
 89.59280     66.5 1.093e+04 5.942e-10
 89.62863     68.1 1.055e+04 4.052e-10
 89.66589     69.7 1.035e+04 3.241e-10
 89.68599     70.4 9.984e+03 2.795e-10
 89.70903     72.4 1.008e+04 2.637e-10
 89.74923     74.4 1.014e+04 2.659e-10
 89.78859     76.6 1.028e+04 2.836e-10
 89.80869     77.4 1.037e+04 3.514e-10
 89.81949     78.6 1.038e+04 3.437e-10
 89.83949     79.6 1.039e+04 3.389e-10
 89.86974     81.2 1.044e+04 3.530e-10
 89.90499     83.6 1.046e+04 3.767e-10
 89.92510     84.6 1.035e+04 3.619e-10
 89.95024     86.7 1.031e+04 3.679e-10
 89.98029     88.8 1.024e+04 3.612e-10
 90.00029     90.1 1.030e+04 3.788e-10
 90.02039     91.5 1.037e+04 4.015e-10
 90.03440     92.7 1.044e+04 4.277e-10
 90.04455     92.5 1.005e+04 2.823e-10
 90.07084     95.3 1.026e+04 3.161e-10
 90.11104     97.6 1.044e+04 3.546e-10
 90.14109     99.0 1.056e+04 4.078e-10
 90.15243    100.5 1.071e+04 4.797e-10
 90.15534    100.7 1.048e+04 3.711e-10
 90.16401    100.4 1.062e+04 3.178e-10
 90.18119    101.8 1.072e+04 3.664e-10
 90.20129    103.2 1.088e+04 4.285e-10
 90.22139    104.4 1.106e+04 4.984e-10
 90.24149    105.6 1.128e+04 5.736e-10
 90.26038    106.8 1.154e+04 6.567e-10
 90.27043    107.0 1.121e+04 5.416e-10
 90.27351    108.2 1.145e+04 6.149e-10
 90.28356    108.0 1.118e+04 6.413e-10
 90.30179    109.1 1.134e+04 7.080e-10
 90.32190    110.0 1.151e+04 7.376e-10
 90.34200    110.9 1.158e+04 7.374e-10
 90.36210    111.7 1.160e+04 7.305e-10
 90.37837    112.6 1.162e+04 7.025e-10
 90.38842    112.8 1.174e+04 5.409e-10
 90.39306    113.6 1.176e+04 4.947e-10
 90.40311    113.1 1.159e+04 5.273e-10
 90.43254    114.5 1.157e+04 5.835e-10
 90.46269    115.4 1.156e+04 5.966e-10
 90.48270    116.2 1.156e+04 6.202e-10
 90.49636    117.0 1.159e+04 6.684e-10
 90.50618    116.9 1.132e+04 5.177e-10
 90.51261    116.7 1.133e+04 5.292e-10
 90.52290    117.5 1.139e+04 5.779e-10
 90.54300    118.2 1.145e+04 6.383e-10
 90.56310    118.9 1.152e+04 7.029e-10
 90.58320    119.5 1.154e+04 7.584e-10
 90.60330    119.9 1.152e+04 7.761e-10
 90.61436    120.1 1.150e+04 7.738e-10
 90.62313    120.1 1.127e+04 6.662e-10
 90.63217    119.7 1.096e+04 6.970e-10
 90.64350    120.1 1.090e+04 6.610e-10
 90.66360    120.4 1.082e+04 6.108e-10
 90.68370    120.7 1.074e+04 5.530e-10
 90.70380    120.9 1.068e+04 4.951e-10
 90.72230    121.0 1.061e+04 4.450e-10
 90.73235    120.8 1.056e+04 4.166e-10
 90.74167    120.9 1.047e+04 4.051e-10
 90.75172    121.3 1.034e+04 3.773e-10
 90.76410    121.5 1.025e+04 3.755e-10
 90.78420    121.7 1.025e+04 3.787e-10
 90.80430    121.9 1.027e+04 3.960e-10
 90.82440    122.3 1.035e+04 4.364e-10
 90.84030    122.7 1.046e+04 4.962e-10
 90.85035    122.4 1.056e+04 5.172e-10
 90.86122    122.9 1.066e+04 5.813e-10
 90.87127    123.6 1.036e+04 4.314e-10
 90.88470    124.2 1.038e+04 4.604e-10
 90.90480    124.8 1.039e+04 4.758e-10
 90.92490    125.5 1.039e+04 4.766e-10
 90.94500    126.2 1.038e+04 4.737e-10
 90.95829    126.9 1.037e+04 4.667e-10
 90.96844    126.3 1.001e+04 4.188e-10
 90.99545    127.7 9.984e+03 3.841e-10
 91.03565    129.4 9.967e+03 3.475e-10
 91.07585    131.2 9.948e+03 3.197e-10
 91.10053    132.2 9.870e+03 3.113e-10
 91.12063    133.8 9.589e+03 2.722e-10
 91.15625    135.4 9.742e+03 2.987e-10
 91.18433    135.8 9.897e+03 3.374e-10
 91.19428    135.3 1.002e+04 4.235e-10
 91.20631    136.0 1.026e+04 5.094e-10
 91.21988    136.6 1.055e+04 6.334e-10
 91.22993    137.3 1.031e+04 5.686e-10
 91.24651    137.9 1.063e+04 7.140e-10
 91.26661    138.5 1.094e+04 8.782e-10
 91.28671    139.1 1.121e+04 1.046e-09
 91.30223    139.6 1.147e+04 1.212e-09
 91.31228    139.4 1.160e+04 1.397e-09
 91.32691    139.6 1.188e+04 1.549e-09
 91.33944    139.7 1.225e+04 1.751e-09
 91.34949    141.0 1.180e+04 1.416e-09
 91.36711    140.9 1.225e+04 1.649e-09
 91.38721    140.3 1.312e+04 2.230e-09
 91.40731    139.5 1.425e+04 3.352e-09
 91.42022    138.6 1.527e+04 4.807e-09
 91.43027    138.1 1.526e+04 4.420e-09
 91.44751    137.1 1.623e+04 6.800e-09
 91.45899    136.6 1.716e+04 1.014e-08
 91.46904    137.6 1.732e+04 9.202e-09
 91.48771    137.5 1.837e+04 1.357e-08
 91.50781    137.0 1.872e+04 1.494e-08
 91.52791    136.1 1.855e+04 1.426e-08
 91.53822    135.4 1.764e+04 1.090e-08
 91.54827    134.5 1.588e+04 5.312e-09
 91.56811    133.6 1.454e+04 3.310e-09
 91.57854    133.0 1.314e+04 2.018e-09
 91.58859    132.9 1.322e+04 1.919e-09
 91.60831    132.2 1.188e+04 1.177e-09
 91.63621    131.9 1.071e+04 6.923e-10
 91.65641    131.6 1.026e+04 5.859e-10
 91.67886    131.9 9.266e+03 3.406e-10
 91.71906    132.8 8.697e+03 2.165e-10
 91.75926    134.4 8.488e+03 1.610e-10
 91.79774    136.2 8.452e+03 1.378e-10
 91.81784    136.4 8.165e+03 1.206e-10
 91.83966    138.0 8.074e+03 1.033e-10
 91.87230    139.6 7.999e+03 9.400e-11
 91.89240    138.7 7.790e+03 8.124e-11
 91.92006    140.3 7.745e+03 8.100e-11
 91.96026    142.0 7.742e+03 8.115e-11
 92.00046    143.8 7.740e+03 8.286e-11
 92.03685    145.6 7.759e+03 8.962e-11
 92.05695    146.1 7.770e+03 9.143e-11
 92.08086    148.0 7.844e+03 1.056e-10
 92.10829    149.8 7.977e+03 1.269e-10
 92.12839    149.6 7.845e+03 1.071e-10
 92.16126    151.5 7.988e+03 1.227e-10
 92.20146    153.5 8.210e+03 1.479e-10
 92.24166    155.4 8.552e+03 1.901e-10
 92.27596    157.2 8.968e+03 2.562e-10
 92.29606    157.9 8.813e+03 2.090e-10
 92.32207    159.5 9.214e+03 2.775e-10
 92.34428    160.1 9.427e+03 3.396e-10
 92.36438    160.1 9.282e+03 2.901e-10
 92.39232    160.5 9.533e+03 3.670e-10
 92.40536    161.3 9.892e+03 4.930e-10
 92.41541    161.4 9.938e+03 4.921e-10
 92.43242    162.4 1.051e+04 7.168e-10
 92.45203    163.2 1.111e+04 1.016e-09
 92.46208    162.8 1.117e+04 1.010e-09
 92.47262    163.5 1.178e+04 1.382e-09
 92.49272    164.0 1.229e+04 1.756e-09
 92.51282    164.4 1.269e+04 2.077e-09
 92.52492    164.6 1.302e+04 2.330e-09
 92.53497    164.4 1.369e+04 3.182e-09
 92.55302    164.4 1.408e+04 3.604e-09
 92.57002    164.4 1.453e+04 4.117e-09
 92.58007    164.9 1.432e+04 3.613e-09
 92.59322    164.6 1.486e+04 4.161e-09
 92.61332    164.0 1.552e+04 5.133e-09
 92.63342    163.7 1.625e+04 6.694e-09
 92.64447    163.7 1.691e+04 8.556e-09
 92.65452    163.3 1.775e+04 1.054e-08
 92.67362    163.2 1.809e+04 1.146e-08
 92.68802    162.6 1.803e+04 1.119e-08
 92.69807    162.8 1.797e+04 1.101e-08
 92.71382    162.5 1.781e+04 1.052e-08
 92.73392    162.4 1.722e+04 8.583e-09
 92.75397    162.3 1.634e+04 6.049e-09
 92.77407    160.9 1.545e+04 4.592e-09
 92.79423    160.2 1.431e+04 3.216e-09
 92.80601    159.4 1.337e+04 2.442e-09
 92.81606    160.1 1.375e+04 3.017e-09
 92.83443    159.7 1.309e+04 2.490e-09
 92.85453    159.8 1.272e+04 2.204e-09
 92.87353    160.2 1.243e+04 1.987e-09
 92.88358    160.3 1.273e+04 2.213e-09
 92.89473    161.1 1.244e+04 1.986e-09
 92.91396    162.1 1.216e+04 1.771e-09
 92.92401    162.3 1.226e+04 1.836e-09
 92.93493    163.3 1.206e+04 1.658e-09
 92.95503    164.2 1.186e+04 1.497e-09
 92.97513    165.2 1.169e+04 1.356e-09
 92.99308    166.1 1.159e+04 1.250e-09
 93.00313    165.8 1.152e+04 1.203e-09
 93.01533    166.5 1.150e+04 1.146e-09
 93.03195    167.1 1.152e+04 1.107e-09
 93.04200    167.5 1.150e+04 1.137e-09
 93.05553    168.1 1.156e+04 1.113e-09
 93.07563    168.7 1.159e+04 1.108e-09
 93.09573    169.3 1.165e+04 1.114e-09
 93.11263    169.7 1.178e+04 1.146e-09
 93.12268    168.9 1.172e+04 1.159e-09
 93.13593    168.9 1.201e+04 1.271e-09
 93.14995    168.7 1.236e+04 1.434e-09
 93.16000    169.2 1.227e+04 1.448e-09
 93.17613    168.9 1.274e+04 1.694e-09
 93.19623    168.4 1.322e+04 2.006e-09
 93.21633    167.9 1.366e+04 2.324e-09
 93.23218    167.2 1.389e+04 2.450e-09
 93.24223    166.4 1.419e+04 2.999e-09
 93.25653    165.5 1.420e+04 2.973e-09
 93.26794    164.5 1.412e+04 2.756e-09
 93.27799    165.2 1.419e+04 2.927e-09
 93.29673    164.2 1.400e+04 2.507e-09
 93.31683    163.2 1.354e+04 1.886e-09
 93.33693    162.4 1.294e+04 1.341e-09
 93.35174    161.8 1.226e+04 9.132e-10
 93.36179    161.1 1.278e+04 1.355e-09
 93.37589    160.9 1.206e+04 9.179e-10
 93.38594    161.4 1.241e+04 1.336e-09
 93.39723    161.5 1.181e+04 9.517e-10
 93.41733    161.6 1.132e+04 7.002e-10
 93.43743    161.8 1.095e+04 5.452e-10
 93.45753    162.1 1.067e+04 4.540e-10
 93.47129    162.6 1.040e+04 4.236e-10
 93.48134    162.0 1.140e+04 7.375e-10
 93.49388    162.8 1.136e+04 7.364e-10
 93.50393    163.3 1.184e+04 9.696e-10
 93.51783    164.1 1.184e+04 9.662e-10
 93.53793    165.0 1.185e+04 9.693e-10
 93.55803    165.9 1.190e+04 9.872e-10
 93.57814    166.9 1.196e+04 1.030e-09
 93.59084    167.9 1.203e+04 1.095e-09
 93.60089    167.6 1.230e+04 1.336e-09
 93.61188    168.7 1.242e+04 1.362e-09
 93.62193    168.8 1.219e+04 1.348e-09
 93.63844    169.8 1.230e+04 1.321e-09
 93.65854    170.9 1.241e+04 1.301e-09
 93.67864    171.9 1.254e+04 1.276e-09
 93.69874    172.8 1.267e+04 1.237e-09
 93.71040    173.6 1.271e+04 1.195e-09
 93.72045    172.7 1.184e+04 1.013e-09
 93.72987    173.3 1.177e+04 9.586e-10
 93.73992    173.3 1.112e+04 8.442e-10
 93.75904    173.9 1.106e+04 8.112e-10
 93.77914    174.5 1.102e+04 7.896e-10
 93.79924    175.1 1.098e+04 7.774e-10
 93.81934    175.7 1.094e+04 7.713e-10
 93.82995    176.3 1.088e+04 7.683e-10
 93.83838    176.4 1.064e+04 7.284e-10
 93.84786    176.7 1.062e+04 6.862e-10
 93.85954    177.5 1.061e+04 6.830e-10
 93.87964    178.4 1.058e+04 6.801e-10
 93.89974    179.2 1.051e+04 6.760e-10
 93.91984    180.0 1.041e+04 6.685e-10
 93.93945    181.0 1.030e+04 6.557e-10
 93.94950    181.2 1.034e+04 6.491e-10
 93.95581    182.2 1.023e+04 6.414e-10
 93.96586    182.7 1.030e+04 6.508e-10
 93.98014    183.7 1.019e+04 6.550e-10
 94.00024    184.7 1.013e+04 6.633e-10
 94.02034    185.8 1.003e+04 6.845e-10
 94.04044    186.8 9.978e+03 7.108e-10
 94.05901    187.8 9.985e+03 7.296e-10
 94.06906    188.0 1.022e+04 7.657e-10
 94.07380    189.0 1.024e+04 8.143e-10
 94.08385    189.3 1.057e+04 8.942e-10
 94.10074    190.3 1.060e+04 9.501e-10
 94.12084    191.3 1.062e+04 9.823e-10
 94.14094    192.2 1.062e+04 9.823e-10
 94.16104    193.1 1.060e+04 9.717e-10
 94.17856    193.9 1.054e+04 9.332e-10
 94.18861    193.8 1.107e+04 1.130e-09
 94.19180    194.6 1.090e+04 1.067e-09
 94.20185    194.4 1.124e+04 1.242e-09
 94.22134    195.0 1.095e+04 1.128e-09
 94.24144    195.5 1.082e+04 1.077e-09
 94.26154    195.9 1.082e+04 1.079e-09
 94.28164    195.9 1.087e+04 1.101e-09
 94.29811    195.8 1.102e+04 1.186e-09
 94.30616    194.9 1.202e+04 1.623e-09
 94.30979    194.3 1.249e+04 1.872e-09
 94.32184    193.8 1.286e+04 2.205e-09
 94.34194    193.3 1.348e+04 2.756e-09
 94.36204    192.8 1.427e+04 3.556e-09
 94.38215    192.3 1.515e+04 4.631e-09
 94.40225    191.9 1.608e+04 5.970e-09
 94.41767    191.6 1.710e+04 7.567e-09
 94.42772    190.2 1.805e+04 1.102e-08
 94.44245    190.1 1.870e+04 1.436e-08
 94.46255    190.3 1.944e+04 1.902e-08
 94.48265    190.3 2.006e+04 2.347e-08
 94.50275    190.1 2.029e+04 2.424e-08
 94.52285    189.8 2.027e+04 2.341e-08
 94.53573    189.7 2.007e+04 1.991e-08
 94.54006    189.6 1.952e+04 2.174e-08
 94.54727    188.3 1.810e+04 1.610e-08
 94.56305    188.5 1.748e+04 1.310e-08
 94.58315    188.7 1.672e+04 9.741e-09
 94.60325    188.6 1.594e+04 7.009e-09
 94.62335    188.3 1.541e+04 5.329e-09
 94.64345    188.0 1.544e+04 4.948e-09
 94.65373    188.0 1.549e+04 4.955e-09
 94.65700    187.1 1.617e+04 4.206e-09
 94.66682    183.7 1.525e+04 2.715e-09
 94.68365    182.6 1.541e+04 2.913e-09
 94.70375    181.7 1.558e+04 3.311e-09
 94.72385    181.0 1.567e+04 3.790e-09
 94.74395    180.5 1.570e+04 4.227e-09
 94.76167    180.1 1.561e+04 4.338e-09
 94.77172    178.5 1.435e+04 3.333e-09
 94.77632    178.0 1.439e+04 3.308e-09
 94.78637    177.3 1.404e+04 2.907e-09
 94.80425    176.2 1.384e+04 2.564e-09
 94.82435    174.6 1.351e+04 2.198e-09
 94.84445    172.5 1.307e+04 1.874e-09
 94.86455    170.4 1.258e+04 1.615e-09
 94.87967    168.5 1.217e+04 1.422e-09
 94.88972    168.5 1.219e+04 1.463e-09
 94.89588    167.1 1.195e+04 1.319e-09
 94.90593    167.4 1.188e+04 1.304e-09
 94.92485    166.3 1.175e+04 1.207e-09
 94.94495    165.2 1.156e+04 1.105e-09
 94.96505    164.1 1.136e+04 1.030e-09
 94.98515    163.2 1.125e+04 1.015e-09
 94.99766    162.6 1.123e+04 1.021e-09
 95.00771    163.7 1.109e+04 9.673e-10
 95.01543    163.5 1.108e+04 9.751e-10
 95.02548    164.2 1.110e+04 9.900e-10
 95.04545    164.5 1.113e+04 1.034e-09
 95.06555    164.9 1.120e+04 1.099e-09
 95.08565    165.4 1.126e+04 1.161e-09
 95.10561    165.7 1.144e+04 1.243e-09
 95.11566    167.1 1.126e+04 1.140e-09
 95.12493    167.5 1.138e+04 1.175e-09
 95.13498    168.4 1.138e+04 1.213e-09
 95.14595    168.6 1.188e+04 1.370e-09
 95.16605    167.8 1.304e+04 1.705e-09
 95.18108    166.7 1.369e+04 1.942e-09
 95.18964    165.2 1.454e+04 2.315e-09
 95.19466    165.6 1.441e+04 2.299e-09
 95.20113    163.0 1.602e+04 3.241e-09
 95.21118    159.3 1.874e+04 5.462e-09
 95.22123    155.4 2.156e+04 9.931e-09
 95.22853    151.8 2.355e+04 1.726e-08
 95.23356    154.2 2.193e+04 9.210e-09
 95.24133    150.3 2.357e+04 1.531e-08
 95.24941    146.7 2.436e+04 2.140e-08
 95.25444    147.0 2.470e+04 2.210e-08
 95.26143    143.2 2.483e+04 2.289e-08
 95.27148    139.2 2.453e+04 2.163e-08
 95.28153    135.4 2.354e+04 1.724e-08
 95.28753    131.7 2.231e+04 1.253e-08
 95.29255    131.5 2.230e+04 1.655e-08
 95.30671    126.4 2.037e+04 8.628e-09
 95.32686    119.8 1.700e+04 4.657e-09
 95.34160    115.2 1.575e+04 4.080e-09
 95.35165    116.6 1.689e+04 5.539e-09
 95.36404    113.5 1.678e+04 5.168e-09
 95.37409    113.3 1.520e+04 3.707e-09
 95.38716    112.0 1.546e+04 3.913e-09
 95.40726    110.8 1.600e+04 4.649e-09
 95.42736    110.7 1.641e+04 5.890e-09
 95.44746    111.0 1.658e+04 7.236e-09
 95.45959    111.5 1.652e+04 7.933e-09
 95.46964    110.6 1.699e+04 8.645e-09
 95.48359    111.3 1.698e+04 9.024e-09
 95.49364    112.3 1.728e+04 1.030e-08
 95.50776    112.8 1.730e+04 1.046e-08
 95.52786    113.1 1.701e+04 9.794e-09
 95.54796    113.9 1.618e+04 7.636e-09
 95.56754    114.8 1.510e+04 5.155e-09
 95.57759    114.6 1.596e+04 6.461e-09
 95.58816    115.3 1.493e+04 4.340e-09
 95.60315    115.4 1.387e+04 2.879e-09
 95.61320    116.5 1.467e+04 3.732e-09
 95.62836    116.6 1.372e+04 2.642e-09
 95.64846    116.5 1.285e+04 1.997e-09
 95.66856    116.7 1.220e+04 1.649e-09
 95.68553    117.3 1.178e+04 1.460e-09
 95.69558    117.2 1.224e+04 1.774e-09
 95.70876    118.3 1.194e+04 1.633e-09
 95.72270    119.5 1.179e+04 1.564e-09
 95.73275    119.7 1.169e+04 1.441e-09
 95.74896    120.8 1.157e+04 1.432e-09
 95.76906    122.1 1.156e+04 1.434e-09
 95.78916    123.3 1.156e+04 1.453e-09
 95.80353    124.3 1.159e+04 1.503e-09
 95.81358    124.2 1.138e+04 1.463e-09
 95.82936    125.3 1.136e+04 1.510e-09
 95.84225    126.6 1.141e+04 1.583e-09
 95.85230    126.5 1.098e+04 1.272e-09
 95.86956    127.7 1.106e+04 1.332e-09
 95.88966    128.9 1.116e+04 1.394e-09
 95.90976    130.0 1.127e+04 1.450e-09
 95.92152    131.1 1.138e+04 1.468e-09
 95.93157    131.2 1.118e+04 1.262e-09
 95.94996    132.1 1.120e+04 1.256e-09
 95.96180    132.9 1.123e+04 1.220e-09
 95.97185    132.3 1.023e+04 7.240e-10
 95.99016    132.9 1.003e+04 6.610e-10
 96.01027    133.5 9.843e+03 6.047e-10
 96.02947    134.1 9.693e+03 5.588e-10
 96.03952    133.3 9.319e+03 4.045e-10
 96.05047    133.8 9.278e+03 3.868e-10
 96.07057    134.2 9.265e+03 3.750e-10
 96.08136    134.8 9.266e+03 3.637e-10
 96.10156    134.5 8.519e+03 2.491e-10
 96.14111    135.6 8.436e+03 2.361e-10
 96.18131    136.8 8.403e+03 2.326e-10
 96.22151    138.1 8.436e+03 2.368e-10
 96.25560    139.3 8.592e+03 2.601e-10
 96.27570    138.9 8.517e+03 2.678e-10
 96.30056    140.0 8.838e+03 3.182e-10
 96.32066    140.2 8.768e+03 3.126e-10
 96.34211    140.9 9.053e+03 3.641e-10
 96.37217    141.3 9.140e+03 3.902e-10
 96.38345    142.0 9.254e+03 4.176e-10
 96.39350    141.6 9.385e+03 4.302e-10
 96.41227    142.3 9.586e+03 4.640e-10
 96.42997    142.6 9.785e+03 4.945e-10
 96.44002    142.3 1.004e+04 5.176e-10
 96.45247    142.2 1.018e+04 5.453e-10
 96.47257    142.0 1.033e+04 5.891e-10
 96.49140    141.9 1.050e+04 6.660e-10
 96.50145    141.2 1.043e+04 7.325e-10
 96.51277    141.2 1.056e+04 8.282e-10
 96.53287    141.4 1.076e+04 9.452e-10
 96.54952    141.9 1.106e+04 1.081e-09
 96.55957    141.0 1.108e+04 1.061e-09
 96.57307    141.0 1.148e+04 1.180e-09
 96.59317    140.7 1.185e+04 1.275e-09
 96.60939    139.9 1.222e+04 1.371e-09
 96.61944    138.9 1.195e+04 1.105e-09
 96.63337    136.2 1.259e+04 1.317e-09
 96.65347    131.0 1.405e+04 2.227e-09
 96.66907    125.2 1.649e+04 5.512e-09
 96.67912    123.9 1.643e+04 6.065e-09
 96.69367    120.7 1.877e+04 1.384e-08
 96.71377    117.2 2.043e+04 1.891e-08
 96.72739    112.4 2.062e+04 1.769e-08
 96.73744    112.1 2.091e+04 2.035e-08
 96.75397    107.8 2.069e+04 1.323e-08
 96.77407    102.7 1.961e+04 5.131e-09
 96.78863     95.0 1.642e+04 1.280e-09
 96.79868     94.8 1.701e+04 1.244e-09
 96.82442     83.8 1.195e+04 6.348e-10
 96.86472     81.0 1.049e+04 4.319e-10
 96.90492     81.0 1.039e+04 3.824e-10
 96.94347     81.4 1.033e+04 3.446e-10
 96.96357     81.2 1.014e+04 2.252e-10
 96.98532     81.6 1.022e+04 2.250e-10
 97.01788     83.1 1.073e+04 2.974e-10
 97.03798     82.8 9.477e+03 1.130e-10
 97.06572     84.2 9.670e+03 1.284e-10
 97.10592     85.9 1.014e+04 1.771e-10
 97.14612     87.2 1.056e+04 2.386e-10
 97.17618     88.3 1.052e+04 2.503e-10
 97.18931     88.8 1.070e+04 2.934e-10
 97.19936     88.2 1.092e+04 3.089e-10
 97.21628     88.7 1.125e+04 4.144e-10
 97.23638     89.3 1.172e+04 5.973e-10
 97.25648     89.8 1.234e+04 8.663e-10
 97.26684     90.3 1.305e+04 1.239e-09
 97.27689     90.4 1.231e+04 8.266e-10
 97.29668     90.6 1.312e+04 1.254e-09
 97.30731     90.7 1.381e+04 1.852e-09
 97.31736     89.5 1.393e+04 2.093e-09
 97.33688     90.2 1.437e+04 2.864e-09
 97.35698     91.1 1.475e+04 3.438e-09
 97.37634     92.0 1.492e+04 3.477e-09
 97.38639     91.9 1.492e+04 3.223e-09
 97.39718     92.8 1.513e+04 3.236e-09
 97.41525     93.5 1.519e+04 3.092e-09
 97.42530     91.9 1.500e+04 2.463e-09
 97.43738     91.8 1.480e+04 1.938e-09
 97.45748     90.9 1.446e+04 1.446e-09
 97.47758     89.3 1.465e+04 1.308e-09
 97.49589     86.3 1.505e+04 1.405e-09
 97.50594     83.9 1.547e+04 1.994e-09
 97.51778     79.1 1.692e+04 3.242e-09
 97.53325     74.9 1.816e+04 6.234e-09
 97.54330     72.5 1.799e+04 7.603e-09
 97.55798     70.7 1.884e+04 1.205e-08
 97.57808     69.2 1.890e+04 1.238e-08
 97.59818     67.8 1.865e+04 1.105e-08
 97.61545     66.2 1.796e+04 6.891e-09
 97.62550     65.0 1.748e+04 5.221e-09
 97.63839     59.8 1.602e+04 2.179e-09
 97.65124     52.7 1.308e+04 8.583e-10
 97.66129     50.0 1.156e+04 6.186e-10
 97.67859     45.9 1.037e+04 4.026e-10
 97.69869     43.9 1.031e+04 3.635e-10
 97.71879     42.4 1.033e+04 3.648e-10
 97.73500     40.5 1.042e+04 3.726e-10
 97.74505     40.3 1.035e+04 3.620e-10
 97.75899     37.9 1.057e+04 3.956e-10
 97.76924     34.5 1.108e+04 4.984e-10
 97.77929     34.2 1.116e+04 5.363e-10
 97.79919     30.3 1.195e+04 8.202e-10
 97.81929     25.8 1.316e+04 1.396e-09
 97.83939     19.8 1.528e+04 2.575e-09
 97.85455     11.7 1.764e+04 4.459e-09
 97.86460     13.0 1.801e+04 5.357e-09
 97.87718     -0.2 2.210e+04 6.927e-09
 97.88723     -0.8 2.256e+04 7.192e-09
 97.89461    -28.9 4.287e+04 1.093e-08
 97.90462    -54.9 4.283e+04 2.756e-08
 97.91423    -69.5 3.125e+04 1.036e-07
 97.91926    -63.4 3.542e+04 5.802e-08
 97.92472    -75.8 2.768e+04 1.340e-07
 97.93477    -83.0 2.480e+04 1.624e-07
 97.94111    -87.3 2.302e+04 1.329e-07
 97.94613    -88.1 2.251e+04 2.087e-07
 97.95487    -91.2 2.230e+04 1.102e-07
 97.96492    -93.6 2.211e+04 4.546e-08
 97.97401    -95.8 2.218e+04 1.857e-08
 97.97903    -94.7 2.129e+04 3.058e-08
 97.98502    -96.3 2.106e+04 1.628e-08
 97.99507    -97.7 2.067e+04 9.135e-09
 98.00512    -98.2 2.102e+04 6.355e-09
 98.01517    -99.5 2.053e+04 3.796e-09
 98.02522   -100.2 1.993e+04 2.699e-09
 98.04034   -100.9 1.956e+04 1.846e-09
 98.06049   -104.6 1.477e+04 6.053e-10
 98.08059   -106.6 1.048e+04 4.200e-10
 98.09366   -106.7 9.523e+03 3.983e-10
 98.10371   -104.0 1.126e+04 4.556e-10
 98.11317   -104.8 9.686e+03 4.087e-10
 98.12322   -104.7 1.002e+04 4.938e-10
 98.14089   -104.7 9.797e+03 5.422e-10
 98.16099   -104.2 1.027e+04 7.043e-10
 98.18109   -103.7 1.063e+04 8.328e-10
 98.20119   -103.5 1.093e+04 9.508e-10
 98.21321   -103.3 1.120e+04 1.046e-09
 98.22309   -102.4 1.155e+04 1.244e-09
 98.23117   -102.2 1.176e+04 1.364e-09
 98.24139   -102.1 1.201e+04 1.471e-09
 98.26149   -102.5 1.214e+04 1.521e-09
 98.28159   -102.9 1.224e+04 1.545e-09
 98.30169   -103.9 1.250e+04 1.600e-09
 98.32179   -106.1 1.323e+04 1.860e-09
 98.33277   -109.5 1.453e+04 2.646e-09
 98.34004   -107.6 1.446e+04 2.474e-09
 98.34916   -108.0 1.431e+04 2.389e-09
 98.36199   -112.7 1.633e+04 4.693e-09
 98.38209   -115.7 1.787e+04 9.490e-09
 98.40219   -117.6 1.899e+04 1.553e-08
 98.42229   -119.7 1.959e+04 1.882e-08
 98.44227   -122.6 1.969e+04 1.905e-08
 98.45227   -123.4 2.030e+04 2.626e-08
 98.45701   -124.8 2.006e+04 2.295e-08
 98.46204   -124.9 1.999e+04 2.309e-08
 98.46742   -126.3 1.991e+04 1.991e-08
 98.47747   -128.8 1.982e+04 1.709e-08
 98.48752   -131.4 1.961e+04 1.526e-08
 98.49757   -133.7 1.939e+04 1.434e-08
 98.50697   -135.7 1.930e+04 1.403e-08
 98.51200   -136.2 1.965e+04 1.413e-08
 98.51601   -138.1 1.956e+04 1.384e-08
 98.52103   -137.4 1.910e+04 1.269e-08
 98.52772   -139.0 1.899e+04 1.238e-08
 98.53777   -140.4 1.890e+04 1.205e-08
 98.54782   -141.5 1.875e+04 1.150e-08
 98.55787   -142.5 1.850e+04 1.060e-08
 98.56675   -143.3 1.810e+04 9.362e-09
 98.57177   -144.6 1.772e+04 8.447e-09
 98.57501   -145.2 1.714e+04 7.389e-09
 98.58003   -144.7 1.695e+04 6.944e-09
 98.58802   -145.2 1.647e+04 6.131e-09
 98.60315   -145.6 1.586e+04 5.153e-09
 98.62330   -146.2 1.462e+04 3.695e-09
 98.64340   -146.4 1.363e+04 2.710e-09
 98.66350   -146.5 1.278e+04 2.011e-09
 98.68137   -146.2 1.215e+04 1.571e-09
 98.69087   -145.5 1.206e+04 1.567e-09
 98.69310   -144.4 1.226e+04 1.787e-09
 98.70370   -143.8 1.185e+04 1.487e-09
 98.72380   -143.2 1.151e+04 1.267e-09
 98.74390   -142.3 1.125e+04 1.103e-09
 98.76400   -141.4 1.105e+04 9.728e-10
 98.78410   -140.4 1.090e+04 8.652e-10
 98.80093   -139.5 1.079e+04 7.792e-10
 98.80782   -139.2 1.063e+04 7.357e-10
 98.81109   -138.4 1.070e+04 8.036e-10
 98.82430   -137.6 1.059e+04 7.350e-10
 98.84440   -136.8 1.054e+04 6.925e-10
 98.86450   -136.0 1.053e+04 6.782e-10
 98.88460   -135.1 1.053e+04 6.767e-10
 98.90470   -134.4 1.063e+04 7.023e-10
 98.91904   -133.9 1.082e+04 7.776e-10
 98.92477   -133.2 1.083e+04 7.776e-10
 98.93053   -133.1 1.055e+04 6.477e-10
 98.94490   -132.9 1.080e+04 7.345e-10
 98.96500   -132.8 1.125e+04 8.786e-10
 98.98510   -133.0 1.198e+04 1.134e-09
 99.00520   -133.7 1.298e+04 1.578e-09
 99.02530   -134.2 1.403e+04 2.294e-09
 99.03703   -134.6 1.494e+04 3.239e-09
 99.04171   -133.3 1.404e+04 2.448e-09
 99.05008   -133.8 1.327e+04 2.015e-09
 99.06550   -134.1 1.374e+04 2.450e-09
 99.08560   -134.5 1.406e+04 2.696e-09
 99.10570   -135.1 1.416e+04 2.746e-09
 99.12580   -135.9 1.425e+04 2.696e-09
 99.14498   -136.9 1.435e+04 2.507e-09
 99.15503   -135.2 1.330e+04 1.966e-09
 99.15959   -136.5 1.344e+04 1.878e-09
 99.16964   -136.2 1.286e+04 1.421e-09
 99.18610   -137.7 1.312e+04 1.412e-09
 99.20620   -139.0 1.360e+04 1.565e-09
 99.22630   -140.3 1.370e+04 1.768e-09
 99.24640   -141.0 1.364e+04 1.981e-09
 99.26297   -141.8 1.350e+04 2.042e-09
 99.28317   -140.4 1.288e+04 1.487e-09
 99.31695   -141.1 1.273e+04 1.552e-09
 99.34700   -141.4 1.217e+04 1.539e-09
 99.36701   -141.4 1.181e+04 1.288e-09
 99.38097   -141.4 1.146e+04 1.124e-09
 99.39102   -140.4 1.179e+04 1.218e-09
 99.39869   -140.3 1.152e+04 1.070e-09
 99.40874   -139.8 1.163e+04 1.119e-09
 99.42731   -139.7 1.130e+04 9.674e-10
 99.44741   -139.5 1.094e+04 8.111e-10
 99.46751   -139.0 1.054e+04 6.582e-10
 99.48761   -138.3 1.019e+04 5.334e-10
 99.49906   -137.6 9.926e+03 4.449e-10
 99.50911   -137.6 1.030e+04 5.130e-10
 99.51825   -137.1 1.008e+04 4.499e-10
 99.52830   -137.0 1.013e+04 4.546e-10
 99.55806   -136.3 9.868e+03 3.892e-10
 99.59835   -134.3 9.438e+03 3.017e-10
 99.62794   -132.8 9.338e+03 2.715e-10
 99.64804   -132.0 9.179e+03 2.235e-10
 99.67876   -130.2 9.066e+03 2.065e-10
 99.71505   -128.2 9.014e+03 1.987e-10
 99.73515   -127.7 9.024e+03 1.446e-10
 99.75916   -125.8 8.980e+03 1.430e-10
 99.79936   -123.9 8.951e+03 1.397e-10
 99.83956   -122.0 8.923e+03 1.327e-10
 99.86705   -120.2 8.890e+03 1.221e-10
 99.88715   -120.1 8.791e+03 7.994e-11
 99.91996   -118.3 8.752e+03 7.604e-11
 99.95104   -116.4 8.727e+03 7.228e-11
 99.97114   -116.3 8.637e+03 7.007e-11
100.00036   -114.4 8.620e+03 6.809e-11
