# Columns:
#   distance along LOS (in CHIMPs)
#   peculiar velocity  (in km/s)
#   temperature (K)
#   HI number density
# pos=(128.857,45.1045,242.121), angles=(0.30008,0.102347)
  0.01078   -229.8 1.054e+04 4.447e-10
  0.04200   -228.2 1.023e+04 3.593e-10
  0.06948   -226.6 9.966e+03 2.910e-10
  0.08993   -225.3 1.001e+04 2.815e-10
  0.12378   -223.7 9.772e+03 2.261e-10
  0.16467   -222.2 9.572e+03 1.863e-10
  0.19724   -220.6 9.436e+03 1.619e-10
  0.21768   -219.2 9.436e+03 1.516e-10
  0.24645   -217.6 9.345e+03 1.354e-10
  0.28734   -216.1 9.311e+03 1.309e-10
  0.32500   -214.6 9.309e+03 1.309e-10
  0.34544   -213.3 9.274e+03 1.198e-10
  0.36912   -211.7 9.272e+03 1.207e-10
  0.41001   -210.2 9.315e+03 1.317e-10
  0.45090   -208.8 9.398e+03 1.507e-10
  0.47320   -207.4 9.486e+03 1.704e-10
  0.49364   -206.0 9.417e+03 1.534e-10
  0.53268   -204.5 9.520e+03 1.731e-10
  0.57357   -203.1 9.619e+03 1.885e-10
  0.60095   -201.9 9.717e+03 1.992e-10
  0.62140   -200.5 9.693e+03 1.945e-10
  0.65535   -199.5 9.837e+03 2.046e-10
  0.69624   -198.9 1.002e+04 2.204e-10
  0.72871   -198.5 1.026e+04 2.553e-10
  0.74699   -197.1 1.023e+04 2.429e-10
  0.75541   -196.7 1.015e+04 2.126e-10
  0.77802   -196.6 1.063e+04 2.986e-10
  0.81891   -197.2 1.115e+04 4.746e-10
  0.85646   -198.4 1.163e+04 7.238e-10
  0.87691   -196.7 1.184e+04 8.188e-10
  0.90069   -198.5 1.219e+04 1.074e-09
  0.94158   -200.9 1.225e+04 1.166e-09
  0.98247   -203.4 1.217e+04 1.172e-09
  1.00467   -205.3 1.170e+04 1.029e-09
  1.02511   -204.1 1.157e+04 9.577e-10
  1.06425   -205.4 1.099e+04 7.194e-10
  1.10514   -206.0 1.066e+04 5.835e-10
  1.13242   -206.7 1.043e+04 5.025e-10
  1.14255   -205.1 1.040e+04 4.918e-10
  1.15605   -205.3 1.033e+04 4.721e-10
  1.17650   -205.5 1.026e+04 4.532e-10
  1.19610   -205.8 1.021e+04 4.354e-10
  1.20633   -205.0 1.027e+04 4.400e-10
  1.21739   -205.2 1.025e+04 4.255e-10
  1.23783   -205.7 1.026e+04 4.211e-10
  1.26008   -206.7 1.027e+04 4.140e-10
  1.28062   -205.6 1.033e+04 4.241e-10
  1.30959   -206.5 1.045e+04 4.256e-10
  1.35048   -208.1 1.056e+04 4.370e-10
  1.38793   -209.2 1.042e+04 4.214e-10
  1.40838   -209.5 1.087e+04 5.253e-10
  1.43226   -211.2 1.078e+04 5.299e-10
  1.47315   -213.5 1.121e+04 6.421e-10
  1.51404   -215.6 1.150e+04 7.635e-10
  1.53614   -217.3 1.150e+04 7.791e-10
  1.54626   -218.1 1.197e+04 1.049e-09
  1.56495   -219.3 1.184e+04 1.018e-09
  1.59572   -221.1 1.214e+04 1.183e-09
  1.63670   -222.7 1.217e+04 1.233e-09
  1.66379   -224.0 1.264e+04 1.642e-09
  1.67392   -224.3 1.283e+04 1.943e-09
  1.68762   -224.4 1.327e+04 2.401e-09
  1.70807   -224.4 1.380e+04 2.986e-09
  1.72757   -224.4 1.437e+04 3.701e-09
  1.73780   -224.7 1.469e+04 4.097e-09
  1.74896   -224.8 1.514e+04 4.792e-09
  1.76940   -225.1 1.536e+04 5.124e-09
  1.78985   -225.7 1.539e+04 5.175e-09
  1.80167   -225.9 1.510e+04 4.793e-09
  1.81190   -226.2 1.509e+04 4.847e-09
  1.83074   -226.1 1.444e+04 3.688e-09
  1.85118   -225.8 1.358e+04 2.527e-09
  1.86555   -225.4 1.269e+04 1.690e-09
  1.87577   -225.5 1.263e+04 1.689e-09
  1.89207   -224.9 1.195e+04 1.183e-09
  1.91251   -224.3 1.146e+04 9.017e-10
  1.92943   -223.5 1.106e+04 7.006e-10
  1.93965   -223.1 1.089e+04 6.550e-10
  1.95340   -222.2 1.064e+04 5.408e-10
  1.97385   -221.3 1.048e+04 4.628e-10
  2.00461   -220.5 1.028e+04 3.911e-10
  2.03592   -218.5 9.918e+03 2.974e-10
  2.05636   -218.5 9.804e+03 2.733e-10
  2.06760   -216.3 9.572e+03 2.237e-10
  2.08805   -215.8 9.567e+03 2.260e-10
  2.12738   -213.8 9.462e+03 1.979e-10
  2.16827   -211.9 9.431e+03 1.824e-10
  2.19536   -210.0 9.437e+03 1.728e-10
  2.21581   -209.4 9.347e+03 1.649e-10
  2.25005   -207.5 9.359e+03 1.593e-10
  2.29094   -205.7 9.362e+03 1.585e-10
  2.32312   -203.9 9.424e+03 1.618e-10
  2.34356   -203.0 9.293e+03 1.489e-10
  2.37272   -201.2 9.382e+03 1.528e-10
  2.41361   -199.5 9.513e+03 1.723e-10
  2.45087   -197.7 9.665e+03 2.067e-10
  2.47132   -196.7 9.556e+03 1.736e-10
  2.49539   -194.9 9.715e+03 2.147e-10
  2.53628   -193.3 9.951e+03 2.749e-10
  2.57717   -191.6 1.026e+04 3.486e-10
  2.59907   -190.0 1.058e+04 4.197e-10
  2.61952   -189.4 1.034e+04 3.822e-10
  2.65895   -187.9 1.070e+04 4.741e-10
  2.68630   -186.5 1.074e+04 4.793e-10
  2.69642   -186.6 1.083e+04 5.415e-10
  2.70987   -186.4 1.101e+04 6.089e-10
  2.72663   -186.1 1.121e+04 6.841e-10
  2.73686   -185.2 1.102e+04 6.419e-10
  2.75075   -185.0 1.114e+04 6.971e-10
  2.77120   -184.7 1.120e+04 7.305e-10
  2.79051   -184.4 1.121e+04 7.360e-10
  2.80074   -183.6 1.104e+04 6.763e-10
  2.81209   -183.2 1.105e+04 6.778e-10
  2.83253   -182.8 1.102e+04 6.601e-10
  2.85298   -182.2 1.095e+04 6.348e-10
  2.86461   -181.6 1.088e+04 6.048e-10
  2.87484   -180.6 1.066e+04 5.360e-10
  2.89387   -179.9 1.063e+04 5.065e-10
  2.91431   -179.3 1.066e+04 4.839e-10
  2.94508   -178.2 1.069e+04 4.615e-10
  2.98234   -177.7 1.074e+04 4.409e-10
  3.00279   -175.7 1.049e+04 4.042e-10
  3.02696   -174.4 1.046e+04 3.787e-10
  3.06785   -172.7 1.036e+04 3.361e-10
  3.10874   -171.0 1.023e+04 2.860e-10
  3.13054   -169.1 1.009e+04 2.388e-10
  3.15099   -167.1 1.011e+04 2.623e-10
  3.19051   -165.2 9.985e+03 2.051e-10
  3.23140   -163.2 9.878e+03 1.679e-10
  3.25830   -161.2 9.791e+03 1.464e-10
  3.27874   -159.2 9.804e+03 1.470e-10
  3.31318   -157.2 9.702e+03 1.298e-10
  3.33687   -155.3 9.607e+03 1.225e-10
  3.35731   -154.6 9.561e+03 1.125e-10
  3.38606   -152.7 9.517e+03 1.117e-10
  3.40650   -150.7 9.498e+03 1.092e-10
  3.43585   -148.9 9.457e+03 1.088e-10
  3.47674   -147.1 9.390e+03 1.154e-10
  3.51381   -145.4 9.356e+03 1.259e-10
  3.53426   -143.5 9.283e+03 1.129e-10
  3.55852   -141.8 9.239e+03 1.208e-10
  3.59941   -140.3 9.222e+03 1.312e-10
  3.64030   -138.8 9.240e+03 1.427e-10
  3.66201   -137.6 9.315e+03 1.561e-10
  3.68246   -135.7 9.119e+03 1.390e-10
  3.72208   -134.8 9.191e+03 1.498e-10
  3.76297   -134.2 9.345e+03 1.690e-10
  3.78977   -133.8 9.660e+03 2.122e-10
  3.81021   -132.0 9.394e+03 1.694e-10
  3.84475   -131.9 9.726e+03 2.107e-10
  3.87532   -132.0 9.919e+03 2.360e-10
  3.89567   -132.0 9.943e+03 2.496e-10
  3.91611   -132.5 1.018e+04 3.022e-10
  3.92755   -134.0 1.079e+04 4.065e-10
  3.93777   -132.3 9.956e+03 2.660e-10
  3.95700   -134.5 1.098e+04 4.318e-10
  3.97693   -137.0 1.267e+04 8.356e-10
  3.98715   -137.7 1.364e+04 1.360e-09
  3.99143   -139.7 1.461e+04 2.647e-09
  4.00165   -138.0 1.342e+04 1.415e-09
  4.01834   -139.8 1.410e+04 2.488e-09
  4.03878   -141.3 1.451e+04 3.831e-09
  4.05531   -143.1 1.517e+04 5.183e-09
  4.06553   -142.8 1.469e+04 3.814e-09
  4.07967   -147.6 1.710e+04 5.727e-09
  4.10012   -155.5 2.042e+04 8.372e-09
  4.11919   -166.2 2.292e+04 1.336e-08
  4.12936   -169.6 2.373e+04 2.090e-08
  4.13580   -174.8 2.410e+04 2.915e-08
  4.14602   -179.6 2.405e+04 3.756e-08
  4.15614   -184.2 2.383e+04 4.135e-08
  4.16125   -185.0 2.404e+04 4.711e-08
  4.16646   -188.8 2.313e+04 4.596e-08
  4.17669   -191.5 2.204e+04 3.612e-08
  4.18691   -193.6 2.109e+04 2.542e-08
  4.19319   -195.4 2.027e+04 1.734e-08
  4.19830   -196.8 2.045e+04 1.540e-08
  4.20735   -198.8 1.960e+04 1.040e-08
  4.21758   -200.8 1.868e+04 7.290e-09
  4.22513   -202.6 1.775e+04 5.395e-09
  4.23024   -204.2 1.757e+04 5.189e-09
  4.23802   -204.9 1.695e+04 4.303e-09
  4.24824   -205.3 1.663e+04 3.891e-09
  4.25712   -206.2 1.578e+04 3.107e-09
  4.26739   -208.7 1.662e+04 3.779e-09
  4.28412   -209.3 1.516e+04 2.786e-09
  4.30457   -209.3 1.415e+04 2.166e-09
  4.32104   -208.9 1.382e+04 1.874e-09
  4.33127   -210.3 1.466e+04 2.697e-09
  4.34546   -209.7 1.409e+04 2.322e-09
  4.36590   -209.0 1.349e+04 2.046e-09
  4.38492   -208.3 1.303e+04 1.886e-09
  4.39514   -208.7 1.346e+04 2.474e-09
  4.40679   -207.6 1.307e+04 2.274e-09
  4.42723   -206.5 1.290e+04 2.217e-09
  4.44768   -205.4 1.284e+04 2.217e-09
  4.45902   -204.3 1.283e+04 2.341e-09
  4.46924   -204.3 1.290e+04 2.400e-09
  4.48857   -203.1 1.284e+04 2.436e-09
  4.50901   -202.0 1.294e+04 2.491e-09
  4.52290   -200.9 1.303e+04 2.544e-09
  4.53312   -200.8 1.280e+04 2.258e-09
  4.54990   -199.7 1.284e+04 2.220e-09
  4.57035   -198.9 1.288e+04 2.198e-09
  4.58678   -198.2 1.296e+04 2.190e-09
  4.59700   -197.9 1.250e+04 1.750e-09
  4.61124   -197.2 1.250e+04 1.739e-09
  4.62740   -196.6 1.268e+04 1.756e-09
  4.63762   -197.3 1.331e+04 2.661e-09
  4.65066   -196.8 1.349e+04 2.820e-09
  4.66088   -196.2 1.312e+04 2.314e-09
  4.67257   -195.7 1.340e+04 2.567e-09
  4.69302   -195.1 1.368e+04 2.895e-09
  4.71346   -194.3 1.391e+04 3.218e-09
  4.72476   -193.5 1.406e+04 3.385e-09
  4.73498   -193.0 1.399e+04 3.178e-09
  4.75435   -192.1 1.417e+04 3.443e-09
  4.77480   -191.2 1.426e+04 3.524e-09
  4.78863   -190.1 1.433e+04 3.561e-09
  4.79886   -189.6 1.430e+04 3.600e-09
  4.81569   -188.4 1.438e+04 3.652e-09
  4.83613   -187.1 1.446e+04 3.738e-09
  4.85251   -185.8 1.457e+04 3.829e-09
  4.86273   -185.1 1.456e+04 3.879e-09
  4.87702   -184.0 1.483e+04 4.125e-09
  4.89747   -183.5 1.534e+04 4.659e-09
  4.91639   -183.3 1.616e+04 5.776e-09
  4.92661   -182.8 1.663e+04 6.323e-09
  4.93836   -182.7 1.807e+04 9.517e-09
  4.95880   -182.7 1.951e+04 1.455e-08
  4.97925   -183.1 2.049e+04 2.017e-08
  4.99049   -184.3 2.078e+04 2.334e-08
  5.00071   -184.4 2.106e+04 2.368e-08
  5.02014   -186.0 2.082e+04 2.383e-08
  5.04058   -186.4 1.979e+04 1.892e-08
  5.05437   -186.5 1.866e+04 1.331e-08
  5.06459   -186.5 1.880e+04 1.173e-08
  5.08147   -186.8 1.752e+04 7.469e-09
  5.10192   -186.9 1.643e+04 4.664e-09
  5.11825   -187.1 1.546e+04 2.538e-09
  5.12847   -188.0 1.594e+04 2.537e-09
  5.14281   -188.1 1.489e+04 1.371e-09
  5.16325   -188.2 1.426e+04 7.792e-10
  5.18212   -188.0 1.358e+04 4.851e-10
  5.19235   -188.7 1.447e+04 5.607e-10
  5.20414   -188.1 1.342e+04 3.995e-10
  5.22458   -187.4 1.262e+04 3.520e-10
  5.24503   -186.7 1.216e+04 3.314e-10
  5.25623   -185.5 1.202e+04 3.185e-10
  5.26645   -185.6 1.218e+04 3.372e-10
  5.27788   -184.1 1.204e+04 3.149e-10
  5.28810   -184.1 1.199e+04 3.306e-10
  5.30636   -182.3 1.195e+04 3.287e-10
  5.32010   -180.6 1.198e+04 3.292e-10
  5.33033   -180.6 1.203e+04 3.257e-10
  5.35757   -179.4 1.207e+04 3.217e-10
  5.38418   -177.2 1.206e+04 3.218e-10
  5.40462   -177.1 1.215e+04 3.005e-10
  5.43945   -174.7 1.204e+04 2.878e-10
  5.48034   -172.5 1.186e+04 2.755e-10
  5.51193   -170.4 1.165e+04 2.634e-10
  5.53238   -170.1 1.177e+04 2.594e-10
  5.56212   -168.3 1.164e+04 2.481e-10
  5.60301   -166.8 1.154e+04 2.339e-10
  5.63969   -165.5 1.149e+04 2.205e-10
  5.66013   -169.2 1.491e+04 4.537e-10
  5.68479   -168.4 1.469e+04 5.945e-10
  5.72568   -166.9 1.416e+04 7.887e-10
  5.76657   -165.3 1.362e+04 9.239e-10
  5.78789   -163.6 1.329e+04 9.514e-10
  5.79801   -164.9 1.406e+04 1.767e-09
  5.81749   -164.2 1.393e+04 1.713e-09
  5.84825   -163.6 1.387e+04 1.689e-09
  5.88924   -161.4 1.341e+04 1.449e-09
  5.91565   -159.2 1.327e+04 1.390e-09
  5.92419   -160.5 1.361e+04 1.773e-09
  5.92835   -160.4 1.398e+04 2.405e-09
  5.94016   -159.0 1.383e+04 2.311e-09
  5.96060   -157.9 1.375e+04 2.243e-09
  5.97933   -156.7 1.371e+04 2.192e-09
  5.98955   -157.2 1.345e+04 2.089e-09
  6.00149   -156.0 1.330e+04 1.937e-09
  6.02193   -154.8 1.321e+04 1.752e-09
  6.04238   -153.8 1.309e+04 1.554e-09
  6.05343   -152.7 1.291e+04 1.391e-09
  6.06365   -153.1 1.259e+04 1.050e-09
  6.08327   -152.0 1.250e+04 9.825e-10
  6.10371   -151.2 1.241e+04 9.077e-10
  6.13448   -150.3 1.222e+04 7.763e-10
  6.17116   -147.9 1.188e+04 6.620e-10
  6.19160   -148.6 1.148e+04 4.153e-10
  6.21636   -146.3 1.128e+04 3.838e-10
  6.25725   -144.0 1.107e+04 3.460e-10
  6.29814   -141.6 1.091e+04 3.095e-10
  6.31936   -139.1 1.076e+04 2.717e-10
  6.33980   -139.6 1.067e+04 2.239e-10
  6.37992   -137.2 1.058e+04 2.022e-10
  6.42081   -134.8 1.052e+04 1.837e-10
  6.44712   -132.6 1.049e+04 1.722e-10
  6.46756   -133.2 1.049e+04 1.707e-10
  6.50258   -131.1 1.049e+04 1.685e-10
  6.54347   -129.2 1.052e+04 1.680e-10
  6.57487   -127.4 1.054e+04 1.731e-10
  6.59532   -127.9 1.045e+04 1.745e-10
  6.62525   -126.1 1.040e+04 1.770e-10
  6.66614   -124.2 1.037e+04 1.785e-10
  6.70263   -122.3 1.034e+04 1.813e-10
  6.72307   -122.3 1.026e+04 1.714e-10
  6.74792   -120.3 1.028e+04 1.787e-10
  6.78881   -118.3 1.034e+04 1.995e-10
  6.82970   -116.3 1.043e+04 2.321e-10
  6.85083   -114.3 1.054e+04 2.715e-10
  6.87127   -113.9 1.055e+04 2.730e-10
  6.91148   -111.8 1.067e+04 3.118e-10
  6.95237   -109.7 1.077e+04 3.427e-10
  6.97858   -107.5 1.079e+04 3.580e-10
  6.99903   -107.0 1.076e+04 3.548e-10
  7.03415   -104.6 1.072e+04 3.445e-10
  7.07504   -102.3 1.070e+04 3.360e-10
  7.10634   -100.1 1.073e+04 3.362e-10
  7.12679    -99.0 1.065e+04 3.279e-10
  7.15682    -97.2 1.111e+04 3.520e-10
  7.19771    -96.0 1.198e+04 5.686e-10
  7.21928    -95.3 1.269e+04 1.091e-09
  7.23522    -93.0 1.221e+04 7.147e-10
  7.25454    -92.5 1.233e+04 6.958e-10
  7.26917    -92.7 1.298e+04 1.369e-09
  7.28952    -92.1 1.354e+04 2.061e-09
  7.30800    -91.6 1.417e+04 3.020e-09
  7.31822    -91.4 1.447e+04 3.134e-09
  7.33041    -90.9 1.522e+04 4.496e-09
  7.35085    -90.5 1.582e+04 5.770e-09
  7.37130    -90.2 1.613e+04 6.618e-09
  7.38210    -90.0 1.619e+04 6.747e-09
  7.39232    -89.9 1.654e+04 7.455e-09
  7.41219    -89.9 1.654e+04 7.371e-09
  7.43263    -90.4 1.632e+04 6.618e-09
  7.44598    -91.2 1.589e+04 5.563e-09
  7.45620    -90.6 1.606e+04 5.898e-09
  7.47352    -92.2 1.563e+04 5.182e-09
  7.49397    -94.4 1.536e+04 5.008e-09
  7.50986    -96.6 1.531e+04 5.182e-09
  7.52008    -97.5 1.772e+04 5.671e-09
  7.53486   -100.3 1.755e+04 6.200e-09
  7.54686   -101.4 1.644e+04 6.290e-09
  7.55192   -102.7 1.688e+04 6.891e-09
  7.56031   -103.5 1.686e+04 6.905e-09
  7.57369   -104.3 1.657e+04 6.411e-09
  7.58391   -106.3 1.729e+04 7.991e-09
  7.59098   -106.2 1.686e+04 6.570e-09
  7.60120   -106.5 1.644e+04 5.023e-09
  7.61069   -106.8 1.619e+04 4.337e-09
  7.61580   -107.8 1.780e+04 5.874e-09
  7.62165   -108.0 1.741e+04 4.506e-09
  7.63703   -108.6 1.734e+04 3.263e-09
  7.64784   -108.7 1.769e+04 2.075e-09
  7.65806   -111.5 2.090e+04 6.633e-09
  7.67797   -111.3 2.152e+04 5.679e-09
  7.69841   -111.4 2.229e+04 5.306e-09
  7.71172   -111.4 2.273e+04 5.495e-09
  7.71678   -112.5 2.241e+04 2.078e-08
  7.72387   -112.4 2.237e+04 2.219e-08
  7.73410   -112.3 2.227e+04 2.253e-08
  7.74356   -111.8 2.191e+04 2.081e-08
  7.74867   -112.1 2.177e+04 3.904e-08
  7.75454   -111.3 2.140e+04 3.134e-08
  7.76476   -110.6 2.108e+04 2.321e-08
  7.77554   -110.3 2.024e+04 1.372e-08
  7.78577   -110.0 2.050e+04 1.971e-08
  7.79543   -110.1 1.994e+04 1.568e-08
  7.80565   -110.0 1.941e+04 1.313e-08
  7.82104   -110.3 1.870e+04 1.033e-08
  7.83947   -110.0 1.766e+04 7.177e-09
  7.84969   -110.8 1.769e+04 7.598e-09
  7.85934   -110.5 1.676e+04 5.615e-09
  7.86956   -109.8 1.743e+04 6.863e-09
  7.88242   -109.7 1.659e+04 5.250e-09
  7.90286   -109.5 1.607e+04 4.556e-09
  7.91357   -109.6 1.561e+04 4.262e-09
  7.92379   -109.7 1.568e+04 4.398e-09
  7.94375   -109.8 1.555e+04 4.562e-09
  7.96420   -109.8 1.556e+04 5.205e-09
  7.97745   -109.7 1.568e+04 5.677e-09
  7.98767   -109.5 1.567e+04 5.884e-09
  8.00509   -109.3 1.569e+04 6.017e-09
  8.02553   -108.9 1.553e+04 5.721e-09
  8.04133   -108.6 1.527e+04 4.505e-09
  8.05155   -108.0 1.532e+04 5.128e-09
  8.06642   -108.8 1.536e+04 4.304e-09
  8.08687   -110.6 1.525e+04 3.688e-09
  8.10521   -112.2 1.511e+04 3.527e-09
  8.11543   -111.5 1.603e+04 5.123e-09
  8.12776   -112.9 1.615e+04 5.801e-09
  8.14820   -113.6 1.626e+04 6.670e-09
  8.16865   -114.3 1.631e+04 7.020e-09
  8.17931   -115.4 1.618e+04 6.884e-09
  8.18953   -115.4 1.658e+04 8.286e-09
  8.20954   -116.7 1.607e+04 6.746e-09
  8.22998   -118.4 1.605e+04 6.131e-09
  8.24318   -120.6 1.644e+04 6.257e-09
  8.25341   -120.5 1.587e+04 5.519e-09
  8.27087   -122.7 1.617e+04 5.887e-09
  8.29132   -124.4 1.637e+04 6.733e-09
  8.30706   -125.6 1.641e+04 7.245e-09
  8.31728   -126.5 1.539e+04 5.119e-09
  8.33221   -127.3 1.505e+04 4.881e-09
  8.35265   -127.6 1.458e+04 4.321e-09
  8.37094   -127.6 1.406e+04 3.559e-09
  8.38116   -128.4 1.283e+04 2.165e-09
  8.39354   -128.5 1.239e+04 1.715e-09
  8.41399   -128.7 1.205e+04 1.400e-09
  8.43443   -129.0 1.185e+04 1.246e-09
  8.44504   -129.3 1.180e+04 1.216e-09
  8.45526   -130.7 1.114e+04 8.569e-10
  8.47532   -133.5 1.247e+04 1.162e-09
  8.49576   -136.7 1.420e+04 2.157e-09
  8.50892   -138.7 1.573e+04 4.171e-09
  8.51274   -140.6 1.530e+04 3.895e-09
  8.52003   -139.4 1.485e+04 3.133e-09
  8.53665   -140.5 1.570e+04 4.803e-09
  8.55710   -141.3 1.624e+04 5.922e-09
  8.57280   -142.3 1.639e+04 6.112e-09
  8.58302   -144.1 1.493e+04 3.694e-09
  8.59799   -145.4 1.445e+04 2.858e-09
  8.61843   -147.1 1.380e+04 2.211e-09
  8.63668   -148.8 1.322e+04 1.874e-09
  8.64690   -150.1 1.175e+04 1.040e-09
  8.65932   -150.8 1.171e+04 1.019e-09
  8.67977   -151.1 1.176e+04 1.057e-09
  8.70021   -151.2 1.193e+04 1.231e-09
  8.71078   -151.2 1.210e+04 1.441e-09
  8.72100   -151.7 1.147e+04 9.632e-10
  8.74110   -151.5 1.169e+04 1.130e-09
  8.76155   -151.4 1.191e+04 1.306e-09
  8.77465   -151.2 1.212e+04 1.491e-09
  8.78488   -152.0 1.166e+04 1.129e-09
  8.80244   -151.8 1.187e+04 1.288e-09
  8.82288   -151.6 1.205e+04 1.441e-09
  8.83853   -151.3 1.221e+04 1.576e-09
  8.84875   -151.8 1.175e+04 1.230e-09
  8.86377   -151.5 1.182e+04 1.268e-09
  8.88422   -151.2 1.183e+04 1.273e-09
  8.90241   -150.9 1.181e+04 1.254e-09
  8.91263   -151.4 1.135e+04 9.657e-10
  8.92511   -151.1 1.129e+04 9.283e-10
  8.94555   -150.8 1.125e+04 9.075e-10
  8.96600   -150.5 1.123e+04 9.023e-10
  8.97651   -150.2 1.123e+04 9.176e-10
  8.98673   -150.4 1.096e+04 7.477e-10
  9.00689   -150.1 1.101e+04 7.844e-10
  9.02733   -149.6 1.107e+04 8.330e-10
  9.04039   -149.1 1.111e+04 8.744e-10
  9.05061   -149.1 1.090e+04 7.433e-10
  9.06822   -148.5 1.090e+04 7.611e-10
  9.08867   -147.7 1.088e+04 7.632e-10
  9.10427   -146.7 1.072e+04 7.196e-10
  9.11449   -146.4 1.055e+04 5.744e-10
  9.12956   -145.5 1.041e+04 4.911e-10
  9.16032   -144.6 1.023e+04 3.855e-10
  9.20131   -143.1 1.000e+04 3.137e-10
  9.23222   -141.1 9.688e+03 2.499e-10
  9.25266   -140.3 9.483e+03 2.293e-10
  9.28309   -137.9 9.371e+03 2.024e-10
  9.32398   -135.3 9.340e+03 1.888e-10
  9.35997   -132.6 9.346e+03 1.864e-10
  9.38042   -131.7 9.245e+03 1.811e-10
  9.40576   -129.0 9.338e+03 1.879e-10
  9.44665   -126.2 9.445e+03 1.993e-10
  9.48754   -123.4 9.578e+03 2.122e-10
  9.52843   -119.6 9.654e+03 2.276e-10
  9.56932   -116.6 9.844e+03 2.470e-10
  9.61021   -113.5 1.010e+04 2.664e-10
  9.63593   -110.8 1.030e+04 2.829e-10
  9.65638   -110.1 1.022e+04 3.069e-10
  9.68167   -108.3 1.039e+04 3.219e-10
  9.69961   -108.0 1.042e+04 3.501e-10
  9.70984   -107.6 1.041e+04 3.561e-10
  9.72246   -106.6 1.057e+04 4.223e-10
  9.74290   -106.2 1.075e+04 5.248e-10
  9.76335   -105.4 1.102e+04 6.971e-10
  9.77371   -104.4 1.134e+04 9.177e-10
  9.78394   -103.9 1.122e+04 8.821e-10
  9.80054   -102.8 1.157e+04 1.141e-09
  9.81076   -102.8 1.205e+04 1.507e-09
  9.82468   -101.7 1.245e+04 1.821e-09
  9.83759   -100.6 1.283e+04 2.124e-09
  9.84781   -100.0 1.253e+04 1.894e-09
  9.86557    -99.1 1.282e+04 2.117e-09
  9.88602    -98.2 1.307e+04 2.311e-09
  9.90147    -97.5 1.329e+04 2.490e-09
  9.91169    -96.9 1.296e+04 2.176e-09
  9.92691    -96.2 1.322e+04 2.392e-09
  9.94735    -95.7 1.354e+04 2.672e-09
  9.96535    -95.2 1.391e+04 2.992e-09
  9.97557    -94.8 1.370e+04 2.841e-09
  9.98824    -94.3 1.423e+04 3.374e-09
 10.00869    -93.8 1.460e+04 3.930e-09
 10.02913    -93.4 1.492e+04 4.317e-09
 10.04958    -92.7 1.504e+04 4.755e-09
 10.07002    -92.7 1.509e+04 4.635e-09
 10.09047    -92.8 1.514e+04 4.201e-09
 10.10333    -93.2 1.523e+04 4.047e-09
 10.11355    -92.9 1.512e+04 3.814e-09
 10.13135    -93.9 1.521e+04 3.761e-09
 10.14664    -94.8 1.535e+04 3.837e-09
 10.15681    -95.0 1.540e+04 3.911e-09
 10.16704    -95.7 1.548e+04 4.155e-09
 10.17222    -96.3 1.594e+04 4.637e-09
 10.17738    -95.8 1.531e+04 3.939e-09
 10.18753    -96.7 1.580e+04 4.801e-09
 10.19770    -97.4 1.643e+04 5.517e-09
 10.20416    -98.3 1.732e+04 6.765e-09
 10.20927    -97.2 1.621e+04 5.568e-09
 10.21815    -97.9 1.698e+04 6.422e-09
 10.22837    -98.8 1.792e+04 7.871e-09
 10.23610    -99.6 1.883e+04 9.634e-09
 10.24121    -98.1 1.775e+04 7.372e-09
 10.24882    -99.1 1.866e+04 9.005e-09
 10.25904    -99.6 1.905e+04 1.016e-08
 10.27442    -99.4 1.901e+04 1.010e-08
 10.29491   -100.6 1.941e+04 1.411e-08
 10.31536    -99.7 1.922e+04 1.515e-08
 10.33580    -99.9 1.904e+04 1.764e-08
 10.35625    -99.7 1.896e+04 1.815e-08
 10.36906    -99.3 1.853e+04 1.634e-08
 10.37928    -98.3 1.886e+04 1.900e-08
 10.39714    -97.7 1.840e+04 1.695e-08
 10.41758    -96.8 1.787e+04 1.081e-08
 10.43294    -96.3 1.743e+04 4.722e-09
 10.44316    -95.3 1.784e+04 1.060e-08
 10.45102    -95.0 1.761e+04 4.534e-09
 10.46124    -95.4 1.696e+04 3.730e-09
 10.47892    -96.2 1.671e+04 1.241e-09
 10.49682    -97.7 1.463e+04 4.092e-10
 10.50704    -94.8 1.674e+04 1.208e-09
 10.51981    -96.3 1.515e+04 3.576e-10
 10.55057    -98.1 1.162e+04 2.175e-10
 10.59156    -95.5 1.153e+04 1.929e-10
 10.63245    -92.4 1.114e+04 1.718e-10
 10.67334    -89.6 1.120e+04 1.575e-10
 10.69887    -86.7 1.121e+04 1.554e-10
 10.71931    -87.0 1.135e+04 1.797e-10
 10.75512    -84.2 1.136e+04 1.838e-10
 10.79601    -81.5 1.139e+04 1.975e-10
 10.82663    -79.0 1.144e+04 2.216e-10
 10.84707    -79.6 1.189e+04 2.891e-10
 10.87779    -77.6 1.221e+04 3.739e-10
 10.91868    -75.7 1.263e+04 5.383e-10
 10.95438    -73.9 1.305e+04 8.155e-10
 10.97483    -75.3 1.386e+04 1.586e-09
 11.00046    -73.6 1.405e+04 2.069e-09
 11.04135    -71.8 1.409e+04 2.205e-09
 11.08124    -70.2 1.405e+04 2.148e-09
 11.10159    -70.4 1.387e+04 1.932e-09
 11.12303    -70.8 1.345e+04 1.487e-09
 11.16402    -69.1 1.325e+04 1.332e-09
 11.20491    -67.3 1.322e+04 1.225e-09
 11.23024    -66.1 1.301e+04 9.958e-10
 11.25069    -66.3 1.254e+04 7.415e-10
 11.28669    -65.3 1.262e+04 7.649e-10
 11.31726    -64.1 1.265e+04 7.901e-10
 11.33760    -64.0 1.287e+04 8.740e-10
 11.35790    -63.2 1.352e+04 1.208e-09
 11.36812    -62.4 1.279e+04 7.671e-10
 11.37849    -62.6 1.313e+04 9.497e-10
 11.39894    -62.0 1.355e+04 1.414e-09
 11.41938    -61.7 1.363e+04 1.930e-09
 11.43200    -60.6 1.380e+04 2.527e-09
 11.44222    -60.5 1.349e+04 1.783e-09
 11.46027    -59.7 1.359e+04 2.279e-09
 11.48072    -58.5 1.374e+04 2.654e-09
 11.49588    -57.5 1.384e+04 2.656e-09
 11.50610    -57.5 1.345e+04 2.254e-09
 11.52161    -56.3 1.359e+04 2.318e-09
 11.54205    -55.4 1.377e+04 2.037e-09
 11.55976    -54.8 1.362e+04 1.712e-09
 11.56998    -54.5 1.348e+04 1.728e-09
 11.58294    -53.9 1.348e+04 1.551e-09
 11.60339    -53.9 1.331e+04 1.432e-09
 11.62363    -53.7 1.327e+04 1.425e-09
 11.63386    -53.0 1.297e+04 1.276e-09
 11.64428    -52.7 1.298e+04 1.254e-09
 11.66472    -52.8 1.303e+04 1.324e-09
 11.69549    -52.0 1.320e+04 1.514e-09
 11.72615    -50.8 1.321e+04 1.593e-09
 11.74174    -51.0 1.335e+04 1.690e-09
 11.75197    -51.1 1.330e+04 1.690e-09
 11.76161    -51.0 1.363e+04 2.011e-09
 11.77184    -50.0 1.326e+04 1.700e-09
 11.78739    -50.3 1.342e+04 1.846e-09
 11.81815    -49.6 1.353e+04 2.006e-09
 11.85914    -48.5 1.354e+04 2.224e-09
 11.88956    -47.4 1.309e+04 1.897e-09
 11.91001    -45.3 1.310e+04 1.850e-09
 11.94092    -44.0 1.285e+04 1.596e-09
 11.98181    -42.7 1.245e+04 1.366e-09
 12.01732    -41.0 1.206e+04 1.047e-09
 12.03777    -39.7 1.269e+04 1.625e-09
 12.06359    -38.0 1.247e+04 1.374e-09
 12.10448    -36.3 1.209e+04 7.906e-10
 12.14508    -35.2 1.158e+04 3.488e-10
 12.16552    -34.2 1.271e+04 1.158e-09
 12.18626    -33.9 1.211e+04 6.056e-10
 12.22715    -33.4 1.143e+04 4.609e-10
 12.26804    -31.9 1.112e+04 4.300e-10
 12.29328    -29.8 1.107e+04 4.399e-10
 12.31372    -30.0 1.168e+04 7.378e-10
 12.34982    -28.2 1.172e+04 6.611e-10
 12.38219    -26.4 1.177e+04 6.126e-10
 12.40264    -27.3 1.182e+04 6.817e-10
 12.42103    -25.8 1.191e+04 7.049e-10
 12.44148    -26.6 1.207e+04 7.504e-10
 12.47249    -24.7 1.230e+04 8.522e-10
 12.51338    -23.0 1.267e+04 9.283e-10
 12.54395    -21.8 1.315e+04 1.004e-09
 12.55882    -20.9 1.325e+04 1.077e-09
 12.56904    -21.9 1.335e+04 1.100e-09
 12.58474    -21.0 1.374e+04 1.300e-09
 12.60518    -20.7 1.455e+04 1.609e-09
 12.62270    -28.6 2.084e+04 3.513e-09
 12.63292    -30.5 2.069e+04 3.801e-09
 12.64607    -36.6 2.223e+04 1.617e-08
 12.65970    -39.3 1.978e+04 6.271e-08
 12.66476    -37.0 1.971e+04 3.506e-08
 12.67153    -36.3 1.879e+04 4.772e-08
 12.68176    -34.6 1.847e+04 5.337e-08
 12.69159    -32.6 1.843e+04 5.325e-08
 12.69670    -33.0 1.844e+04 2.483e-08
 12.70220    -31.7 2.011e+04 2.009e-08
 12.71225    -31.2 2.199e+04 1.250e-08
 12.71736    -30.5 2.146e+04 1.385e-08
 12.72781    -35.2 2.073e+04 5.256e-09
 12.74830    -41.8 1.584e+04 1.814e-09
 12.76067    -44.2 1.327e+04 1.230e-09
 12.77090    -43.4 1.309e+04 9.868e-10
 12.78919    -43.2 1.251e+04 8.956e-10
 12.80963    -42.4 1.234e+04 8.706e-10
 12.82455    -41.4 1.234e+04 8.581e-10
 12.83477    -41.2 1.226e+04 8.003e-10
 12.85052    -40.2 1.219e+04 8.200e-10
 12.87097    -38.9 1.209e+04 8.048e-10
 12.88843    -37.6 1.200e+04 7.117e-10
 12.89865    -37.2 1.199e+04 7.101e-10
 12.91186    -36.1 1.192e+04 5.956e-10
 12.93230    -35.6 1.189e+04 5.407e-10
 12.95241    -34.7 1.193e+04 3.747e-10
 12.97295    -33.6 1.185e+04 3.915e-10
 13.00406    -32.6 1.172e+04 3.272e-10
 13.04495    -31.7 1.159e+04 3.789e-10
 13.08026    -30.2 1.148e+04 4.841e-10
 13.10070    -29.1 1.176e+04 6.637e-10
 13.12672    -27.5 1.163e+04 6.856e-10
 13.16761    -25.6 1.144e+04 5.033e-10
 13.20802    -25.4 1.116e+04 3.083e-10
 13.22846    -23.4 1.146e+04 3.826e-10
 13.24939    -24.3 1.146e+04 2.955e-10
 13.29028    -25.9 1.157e+04 3.957e-10
 13.33117    -25.1 1.140e+04 7.118e-10
 13.35622    -23.9 1.123e+04 8.082e-10
 13.37666    -22.3 1.111e+04 6.742e-10
 13.41295    -20.5 1.099e+04 4.550e-10
 13.45384    -21.2 1.108e+04 2.644e-10
 13.48397    -21.8 1.097e+04 2.606e-10
 13.50442    -20.0 1.097e+04 2.588e-10
 13.53562    -21.8 1.131e+04 3.402e-10
 13.57651    -21.4 1.116e+04 6.350e-10
 13.61173    -21.8 1.151e+04 6.026e-10
 13.63217    -20.7 1.153e+04 7.246e-10
 13.65829    -21.2 1.195e+04 4.423e-10
 13.68314    -23.1 1.181e+04 3.731e-10
 13.70359    -21.4 1.157e+04 3.837e-10
 13.73948    -22.6 1.188e+04 3.774e-10
 13.75993    -23.3 1.221e+04 3.828e-10
 13.77064    -25.3 1.230e+04 6.361e-10
 13.79099    -25.6 1.223e+04 8.874e-10
 13.81143    -24.7 1.191e+04 1.159e-09
 13.82361    -23.5 1.200e+04 1.203e-09
 13.83383    -23.4 1.214e+04 1.352e-09
 13.85232    -22.8 1.252e+04 1.065e-09
 13.87277    -23.7 1.249e+04 8.260e-10
 13.88749    -25.0 1.196e+04 6.704e-10
 13.89771    -25.2 1.190e+04 6.895e-10
 13.91366    -25.5 1.124e+04 5.988e-10
 13.94442    -24.5 1.097e+04 4.102e-10
 13.98541    -24.2 1.069e+04 2.460e-10
 14.01544    -23.9 1.021e+04 1.626e-10
 14.03589    -23.9 1.024e+04 1.348e-10
 14.06719    -22.4 9.867e+03 1.424e-10
 14.10808    -20.2 9.688e+03 1.571e-10
 14.14320    -17.8 9.657e+03 1.434e-10
 14.16364    -17.1 9.762e+03 1.346e-10
 14.18986    -15.5 9.823e+03 1.150e-10
 14.23075    -14.2 9.842e+03 1.175e-10
 14.27095    -12.8 9.885e+03 1.374e-10
 14.29140    -12.0 9.905e+03 1.363e-10
 14.31253    -10.5 1.003e+04 1.684e-10
 14.35342     -9.1 1.027e+04 2.197e-10
 14.39431     -7.9 1.065e+04 3.194e-10
 14.41916     -7.1 1.089e+04 4.537e-10
 14.43960     -6.6 1.090e+04 3.714e-10
 14.46577     -6.1 1.099e+04 4.802e-10
 14.48284     -5.8 1.112e+04 5.734e-10
 14.49306     -5.8 1.115e+04 5.371e-10
 14.50656     -5.4 1.127e+04 6.106e-10
 14.52700     -4.9 1.144e+04 6.541e-10
 14.54672     -4.5 1.153e+04 6.602e-10
 14.55694     -4.3 1.144e+04 6.289e-10
 14.56789     -4.0 1.143e+04 6.145e-10
 14.58834     -3.4 1.130e+04 5.531e-10
 14.60878     -3.3 1.127e+04 5.232e-10
 14.62082     -2.8 1.117e+04 4.692e-10
 14.63104     -2.7 1.104e+04 3.956e-10
 14.64967     -2.7 1.106e+04 3.912e-10
 14.67457     -1.9 1.100e+04 4.052e-10
 14.69511     -1.6 1.077e+04 2.995e-10
 14.72142     -0.3 1.063e+04 2.796e-10
 14.76231      1.3 1.050e+04 2.555e-10
 14.80242      2.9 1.042e+04 2.270e-10
 14.82287      3.8 1.015e+04 1.769e-10
 14.84409      5.5 1.004e+04 1.659e-10
 14.88498      7.0 1.005e+04 1.685e-10
 14.92587      8.1 1.012e+04 1.949e-10
 14.95062      9.1 1.024e+04 2.764e-10
 14.96796     10.5 9.995e+03 2.107e-10
 14.98410     11.0 9.994e+03 2.088e-10
 15.00765     12.4 1.007e+04 3.086e-10
 15.04854     14.1 1.002e+04 3.694e-10
 15.07838     15.7 9.930e+03 3.543e-10
 15.09883     17.2 9.877e+03 3.323e-10
 15.13032     18.7 9.707e+03 3.106e-10
 15.17121     19.9 9.500e+03 2.984e-10
 15.20614     21.1 9.466e+03 3.072e-10
 15.22658     22.9 9.467e+03 3.006e-10
 15.25299     24.1 9.373e+03 3.182e-10
 15.29388     25.6 9.267e+03 3.170e-10
 15.33389     27.3 8.961e+03 2.943e-10
 15.35434     28.8 9.074e+03 2.948e-10
 15.37566     30.5 8.773e+03 2.501e-10
 15.41655     32.2 8.487e+03 1.939e-10
 15.45744     33.7 8.262e+03 1.473e-10
 15.48209     35.1 8.100e+03 1.242e-10
 15.50254     36.4 8.379e+03 1.759e-10
 15.53922     38.0 8.245e+03 1.595e-10
 15.58011     39.7 8.161e+03 1.504e-10
 15.60985     41.6 8.108e+03 1.456e-10
 15.63029     42.8 8.267e+03 1.884e-10
 15.66189     44.7 8.175e+03 1.715e-10
 15.70278     46.7 8.092e+03 1.584e-10
 15.73761     48.7 8.014e+03 1.510e-10
 15.75805     49.9 8.020e+03 1.475e-10
 15.78456     51.9 7.909e+03 1.356e-10
 15.82545     53.9 7.890e+03 1.355e-10
 15.86536     56.1 7.867e+03 1.425e-10
 15.88581     57.2 7.739e+03 1.264e-10
 15.90723     59.4 7.722e+03 1.355e-10
 15.94812     61.6 7.848e+03 1.535e-10
 15.98901     63.9 8.056e+03 1.796e-10
 16.01356     66.1 8.256e+03 2.124e-10
 16.03401     67.3 8.025e+03 1.603e-10
 16.07079     69.5 8.191e+03 1.763e-10
 16.11168     71.6 8.376e+03 2.040e-10
 16.14132     73.7 8.680e+03 2.620e-10
 16.16176     74.8 8.387e+03 1.880e-10
 16.19346     76.9 8.683e+03 2.482e-10
 16.23435     79.2 9.065e+03 3.408e-10
 16.26460     81.5 9.532e+03 4.578e-10
 16.27889     80.0 9.008e+03 3.284e-10
 16.28952     80.8 8.895e+03 2.974e-10
 16.31613     82.7 9.033e+03 3.081e-10
 16.35701     84.3 8.890e+03 2.766e-10
 16.39683     85.4 8.303e+03 1.938e-10
 16.41728     85.8 8.251e+03 1.820e-10
 16.43879     86.3 8.239e+03 1.402e-10
 16.47968     86.8 8.298e+03 1.458e-10
 16.52057     87.0 8.663e+03 1.869e-10
 16.54503     86.8 9.377e+03 2.834e-10
 16.55516     86.8 9.355e+03 3.207e-10
 16.57149     86.0 9.742e+03 4.369e-10
 16.59194     85.1 1.025e+04 6.889e-10
 16.60872     85.0 1.081e+04 1.079e-09
 16.61894     85.3 1.097e+04 1.232e-09
 16.63283     85.4 1.147e+04 1.501e-09
 16.65327     85.3 1.157e+04 1.507e-09
 16.67259     85.1 1.153e+04 1.418e-09
 16.68282     85.2 1.148e+04 1.325e-09
 16.69416     85.0 1.117e+04 1.024e-09
 16.71460     84.8 1.074e+04 7.187e-10
 16.73505     84.2 1.034e+04 4.778e-10
 16.76581     83.9 1.016e+04 3.591e-10
 16.80054     84.2 1.000e+04 2.897e-10
 16.82099     85.0 9.814e+03 2.476e-10
 16.84769     86.3 9.805e+03 2.501e-10
 16.88858     87.9 9.920e+03 2.782e-10
 16.92830     89.8 1.020e+04 3.506e-10
 16.94875     90.4 9.997e+03 3.101e-10
 16.97036     91.7 1.028e+04 4.129e-10
 17.00093     92.7 1.053e+04 5.644e-10
 17.01243     93.9 1.081e+04 7.482e-10
 17.02265     94.0 1.086e+04 7.400e-10
 17.04172     95.2 1.124e+04 9.900e-10
 17.06217     96.2 1.160e+04 1.247e-09
 17.07631     97.0 1.191e+04 1.494e-09
 17.08653     97.1 1.207e+04 1.489e-09
 17.10306     97.9 1.240e+04 1.820e-09
 17.12350     98.6 1.268e+04 2.147e-09
 17.14018     99.1 1.307e+04 2.503e-09
 17.15041     99.1 1.334e+04 2.456e-09
 17.16439     99.6 1.374e+04 3.073e-09
 17.18484    100.0 1.411e+04 3.679e-09
 17.20406    100.4 1.448e+04 4.255e-09
 17.21429    100.0 1.484e+04 4.182e-09
 17.22573    100.7 1.513e+04 4.909e-09
 17.24617    101.2 1.533e+04 5.162e-09
 17.26662    101.5 1.535e+04 5.152e-09
 17.27816    101.8 1.533e+04 5.008e-09
 17.28839    101.5 1.509e+04 4.066e-09
 17.30751    101.9 1.493e+04 3.717e-09
 17.32795    102.4 1.473e+04 3.271e-09
 17.34204    102.7 1.459e+04 2.937e-09
 17.35226    102.3 1.404e+04 2.181e-09
 17.36884    102.7 1.408e+04 2.212e-09
 17.38929    103.0 1.418e+04 2.338e-09
 17.40592    103.5 1.429e+04 2.542e-09
 17.41614    103.3 1.420e+04 2.252e-09
 17.43018    103.9 1.447e+04 2.657e-09
 17.45062    104.6 1.466e+04 3.013e-09
 17.46980    105.4 1.475e+04 3.194e-09
 17.48002    105.1 1.521e+04 3.596e-09
 17.49151    105.9 1.531e+04 3.806e-09
 17.51196    106.7 1.525e+04 3.703e-09
 17.53240    107.4 1.505e+04 3.336e-09
 17.54390    108.2 1.467e+04 2.723e-09
 17.55412    108.0 1.513e+04 3.898e-09
 17.56536    108.9 1.468e+04 3.022e-09
 17.57558    109.3 1.472e+04 2.903e-09
 17.59373    110.2 1.421e+04 2.169e-09
 17.60778    111.3 1.357e+04 1.538e-09
 17.61800    111.4 1.407e+04 2.415e-09
 17.63462    112.4 1.351e+04 1.599e-09
 17.65507    113.3 1.299e+04 1.040e-09
 17.67165    114.1 1.254e+04 7.015e-10
 17.68188    113.9 1.291e+04 1.134e-09
 17.69596    114.4 1.260e+04 7.968e-10
 17.71640    115.1 1.235e+04 6.074e-10
 17.73553    116.0 1.212e+04 5.071e-10
 17.74575    115.6 1.197e+04 8.484e-10
 17.75729    116.6 1.179e+04 7.388e-10
 17.77774    117.6 1.166e+04 6.688e-10
 17.79818    118.8 1.154e+04 6.178e-10
 17.80963    120.0 1.145e+04 5.725e-10
 17.81985    119.9 1.129e+04 8.168e-10
 17.83907    121.0 1.124e+04 7.578e-10
 17.85952    122.0 1.119e+04 7.057e-10
 17.87351    123.0 1.114e+04 6.636e-10
 17.88373    123.3 1.110e+04 8.417e-10
 17.90041    124.2 1.103e+04 8.041e-10
 17.92085    125.1 1.099e+04 7.798e-10
 17.93739    126.0 1.099e+04 7.717e-10
 17.94761    126.7 1.116e+04 8.404e-10
 17.96174    127.5 1.116e+04 8.286e-10
 17.98219    128.3 1.116e+04 8.238e-10
 18.00127    129.1 1.116e+04 8.274e-10
 18.01149    129.6 1.140e+04 8.446e-10
 18.02308    130.3 1.137e+04 8.548e-10
 18.04352    130.9 1.136e+04 8.807e-10
 18.06397    131.7 1.137e+04 9.156e-10
 18.07537    132.4 1.154e+04 9.453e-10
 18.08559    129.9 1.460e+04 1.428e-09
 18.10486    130.4 1.472e+04 1.695e-09
 18.12530    130.7 1.491e+04 2.011e-09
 18.13925    131.2 1.507e+04 2.328e-09
 18.14947    129.5 1.590e+04 5.407e-09
 18.16619    130.6 1.564e+04 5.843e-09
 18.18664    131.7 1.552e+04 5.895e-09
 18.20312    132.7 1.537e+04 5.780e-09
 18.21188    132.6 1.595e+04 7.193e-09
 18.21583    132.3 1.646e+04 8.526e-09
 18.22753    133.2 1.624e+04 7.944e-09
 18.24797    134.1 1.626e+04 7.943e-09
 18.26700    134.9 1.640e+04 8.165e-09
 18.27722    134.1 1.677e+04 6.724e-09
 18.28886    134.6 1.698e+04 7.118e-09
 18.30931    134.9 1.728e+04 8.095e-09
 18.32975    135.1 1.764e+04 9.637e-09
 18.34110    135.2 1.810e+04 1.181e-08
 18.35132    133.6 1.662e+04 5.039e-09
 18.37064    133.9 1.702e+04 6.553e-09
 18.39108    134.2 1.736e+04 8.059e-09
 18.40498    134.4 1.747e+04 9.042e-09
 18.41520    133.1 1.530e+04 3.608e-09
 18.43197    133.3 1.555e+04 4.242e-09
 18.45242    133.5 1.567e+04 4.697e-09
 18.46886    133.5 1.556e+04 4.905e-09
 18.47908    132.8 1.440e+04 3.032e-09
 18.49331    133.3 1.457e+04 3.358e-09
 18.51375    133.7 1.459e+04 3.412e-09
 18.53274    133.9 1.451e+04 3.332e-09
 18.54296    133.4 1.400e+04 2.542e-09
 18.55464    133.5 1.396e+04 2.514e-09
 18.57509    133.5 1.377e+04 2.363e-09
 18.59553    133.6 1.341e+04 2.054e-09
 18.60684    133.5 1.292e+04 1.654e-09
 18.61706    133.6 1.311e+04 1.766e-09
 18.63642    133.8 1.261e+04 1.379e-09
 18.65687    133.9 1.209e+04 1.030e-09
 18.67071    133.9 1.163e+04 7.559e-10
 18.68094    134.5 1.198e+04 8.431e-10
 18.69776    134.3 1.165e+04 6.234e-10
 18.71820    134.0 1.136e+04 4.907e-10
 18.73459    133.7 1.109e+04 4.610e-10
 18.74481    134.3 1.142e+04 5.155e-10
 18.75909    134.2 1.127e+04 5.109e-10
 18.77954    134.2 1.125e+04 5.200e-10
 18.79847    134.1 1.127e+04 5.704e-10
 18.80869    135.0 1.141e+04 6.133e-10
 18.82043    135.0 1.145e+04 6.886e-10
 18.84087    134.9 1.166e+04 8.474e-10
 18.85609    134.7 1.199e+04 1.121e-09
 18.86631    135.3 1.199e+04 1.044e-09
 18.87257    135.1 1.243e+04 1.509e-09
 18.88279    136.5 1.223e+04 1.094e-09
 18.90221    136.3 1.268e+04 1.525e-09
 18.92265    136.2 1.302e+04 2.119e-09
 18.93645    136.4 1.330e+04 2.716e-09
 18.94667    136.7 1.290e+04 1.886e-09
 18.96354    136.5 1.302e+04 2.390e-09
 18.98399    136.5 1.321e+04 2.506e-09
 19.00033    136.4 1.322e+04 2.401e-09
 19.01055    136.6 1.306e+04 2.323e-09
 19.02488    136.6 1.307e+04 2.222e-09
 19.04532    136.4 1.312e+04 1.861e-09
 19.06421    135.5 1.310e+04 1.320e-09
 19.07443    136.9 1.317e+04 1.847e-09
 19.08621    136.0 1.316e+04 1.234e-09
 19.10666    134.1 1.273e+04 7.315e-10
 19.12710    131.7 1.157e+04 4.943e-10
 19.13831    129.7 1.081e+04 4.694e-10
 19.14853    131.6 1.143e+04 4.885e-10
 19.16799    129.6 1.095e+04 4.860e-10
 19.18843    128.5 1.094e+04 4.934e-10
 19.20218    127.5 1.114e+04 5.609e-10
 19.21241    129.4 1.108e+04 5.441e-10
 19.22932    129.4 1.114e+04 5.757e-10
 19.26009    128.8 1.151e+04 8.221e-10
 19.30108    128.8 1.164e+04 1.011e-09
 19.33014    128.5 1.177e+04 1.188e-09
 19.35058    130.5 1.212e+04 1.412e-09
 19.38286    129.7 1.237e+04 1.714e-09
 19.42375    129.0 1.244e+04 1.867e-09
 19.45789    128.7 1.234e+04 1.832e-09
 19.47834    130.2 1.265e+04 2.032e-09
 19.50553    130.1 1.233e+04 1.881e-09
 19.54642    130.4 1.174e+04 1.492e-09
 19.58565    131.3 1.097e+04 1.023e-09
 19.60609    132.3 1.055e+04 7.853e-10
 19.62820    133.7 9.865e+03 5.089e-10
 19.66908    135.4 9.267e+03 3.214e-10
 19.70997    137.1 8.818e+03 2.119e-10
 19.73385    138.8 8.539e+03 1.530e-10
 19.75429    139.8 8.510e+03 1.323e-10
 19.79175    141.6 8.362e+03 1.141e-10
 19.83264    143.6 8.285e+03 1.071e-10
 19.86160    145.6 8.282e+03 1.102e-10
 19.88205    146.8 8.330e+03 1.093e-10
 19.91442    148.7 8.320e+03 1.130e-10
 19.95531    150.6 8.321e+03 1.158e-10
 19.98936    152.5 8.311e+03 1.167e-10
 20.00981    153.7 8.345e+03 1.244e-10
 20.03709    155.5 8.337e+03 1.229e-10
 20.07798    157.2 8.330e+03 1.200e-10
 20.11712    158.9 8.334e+03 1.185e-10
 20.13756    160.0 8.307e+03 1.281e-10
 20.14701    161.6 8.277e+03 1.277e-10
 20.16746    161.7 8.364e+03 1.325e-10
 20.20065    163.3 8.379e+03 1.426e-10
 20.24154    165.0 8.372e+03 1.503e-10
 20.26532    166.6 8.458e+03 1.499e-10
 20.28576    167.7 8.370e+03 1.544e-10
 20.32332    169.3 8.429e+03 1.537e-10
 20.36421    170.7 8.523e+03 1.556e-10
 20.39307    172.0 8.627e+03 1.637e-10
 20.41352    172.9 8.685e+03 1.787e-10
 20.44599    173.8 8.889e+03 2.026e-10
 20.48688    174.7 9.094e+03 2.301e-10
 20.52083    175.4 9.344e+03 2.733e-10
 20.54127    175.8 9.533e+03 3.374e-10
 20.56866    176.3 9.841e+03 4.208e-10
 20.60955    176.7 1.015e+04 5.149e-10
 20.64859    176.8 1.045e+04 5.801e-10
 20.66903    176.7 1.116e+04 8.510e-10
 20.69133    176.6 1.119e+04 8.441e-10
 20.73222    176.5 1.112e+04 7.744e-10
 20.77311    176.7 1.086e+04 6.055e-10
 20.79679    177.0 1.048e+04 4.313e-10
 20.81723    176.7 1.027e+04 3.815e-10
 20.85489    176.9 9.990e+03 3.045e-10
 20.89578    177.6 9.987e+03 3.014e-10
 20.92454    178.4 1.002e+04 3.107e-10
 20.94499    178.2 1.000e+04 3.091e-10
 20.97756    178.9 1.012e+04 3.381e-10
 21.01845    179.6 1.019e+04 3.627e-10
 21.04902    180.0 1.043e+04 4.265e-10
 21.06233    180.1 1.067e+04 4.973e-10
 21.07255    180.3 1.058e+04 4.716e-10
 21.08981    180.2 1.083e+04 5.528e-10
 21.11025    180.1 1.110e+04 6.518e-10
 21.12620    179.8 1.139e+04 7.790e-10
 21.13643    180.0 1.145e+04 7.740e-10
 21.15114    179.5 1.186e+04 9.604e-10
 21.17159    178.9 1.237e+04 1.219e-09
 21.19008    178.1 1.292e+04 1.539e-09
 21.20031    177.8 1.326e+04 1.781e-09
 21.21248    176.8 1.381e+04 2.220e-09
 21.23292    175.6 1.405e+04 2.340e-09
 21.25337    174.2 1.402e+04 2.302e-09
 21.26418    172.8 1.379e+04 2.105e-09
 21.27441    173.5 1.418e+04 2.751e-09
 21.29426    172.8 1.372e+04 2.175e-09
 21.31470    171.9 1.318e+04 1.625e-09
 21.32816    170.7 1.245e+04 1.050e-09
 21.34870    171.1 1.272e+04 1.162e-09
 21.38645    168.4 1.145e+04 5.912e-10
 21.42734    166.9 1.086e+04 4.533e-10
 21.45601    165.8 1.032e+04 3.551e-10
 21.47646    165.8 1.049e+04 4.041e-10
 21.49880    165.6 1.044e+04 4.271e-10
 21.51915    165.9 1.051e+04 4.835e-10
 21.52992    166.3 1.068e+04 5.743e-10
 21.54014    166.3 1.086e+04 6.861e-10
 21.56004    166.5 1.119e+04 8.843e-10
 21.58049    166.6 1.183e+04 1.256e-09
 21.59380    166.6 1.285e+04 1.974e-09
 21.60402    166.6 1.326e+04 2.586e-09
 21.62138    167.1 1.425e+04 4.025e-09
 21.63666    166.9 1.477e+04 4.945e-09
 21.64683    166.4 1.537e+04 6.217e-09
 21.65706    165.7 1.612e+04 8.387e-09
 21.66269    164.8 1.710e+04 1.167e-08
 21.66780    164.0 1.786e+04 1.398e-08
 21.67750    162.0 1.947e+04 2.216e-08
 21.68772    159.8 2.092e+04 3.546e-08
 21.69463    157.8 2.197e+04 4.827e-08
 21.69974    155.9 2.289e+04 6.855e-08
 21.70817    154.3 2.286e+04 6.749e-08
 21.71839    152.9 2.256e+04 6.050e-08
 21.72657    151.9 2.188e+04 4.462e-08
 21.73168    151.3 2.173e+04 4.646e-08
 21.73884    150.4 2.083e+04 2.172e-08
 21.74906    149.3 2.002e+04 1.303e-08
 21.76444    147.6 1.945e+04 6.016e-09
 21.78493    141.9 1.753e+04 1.250e-09
 21.79565    132.9 1.191e+04 5.217e-10
 21.80587    129.2 1.074e+04 5.527e-10
 21.82582    128.8 1.060e+04 5.504e-10
 21.84627    129.1 1.060e+04 5.619e-10
 21.85953    129.6 1.070e+04 6.199e-10
 21.86975    129.1 1.099e+04 7.731e-10
 21.88716    128.8 1.144e+04 9.723e-10
 21.90760    128.4 1.204e+04 1.312e-09
 21.92341    128.1 1.271e+04 1.857e-09
 21.93363    127.4 1.313e+04 2.393e-09
 21.94849    127.6 1.359e+04 3.215e-09
 21.96894    128.1 1.408e+04 4.187e-09
 21.98729    128.7 1.457e+04 5.155e-09
 21.99751    129.1 1.428e+04 3.982e-09
 22.00983    129.1 1.433e+04 3.874e-09
 22.03027    128.9 1.442e+04 3.432e-09
 22.05072    128.4 1.445e+04 2.844e-09
 22.06139    127.3 1.432e+04 2.322e-09
 22.07161    125.9 1.292e+04 1.253e-09
 22.08802    125.2 1.249e+04 1.214e-09
 22.09824    123.9 1.270e+04 1.298e-09
 22.11205    124.1 1.263e+04 1.280e-09
 22.12527    124.5 1.254e+04 1.236e-09
 22.13559    125.6 1.195e+04 9.601e-10
 22.16336    126.4 1.189e+04 9.305e-10
 22.20425    127.7 1.176e+04 8.936e-10
 22.24299    129.0 1.160e+04 8.450e-10
 22.26344    130.3 1.145e+04 7.540e-10
 22.28603    131.5 1.135e+04 7.436e-10
 22.32692    132.8 1.122e+04 7.143e-10
 22.36781    134.0 1.111e+04 6.713e-10
 22.39120    135.3 1.095e+04 6.111e-10
 22.41164    135.5 1.092e+04 5.118e-10
 22.44959    136.7 1.074e+04 4.390e-10
 22.49048    138.3 1.058e+04 3.662e-10
 22.51895    140.1 1.041e+04 3.075e-10
 22.53940    139.7 1.044e+04 3.983e-10
 22.57226    141.8 1.042e+04 4.013e-10
 22.61315    144.1 1.041e+04 4.232e-10
 22.64671    146.4 1.047e+04 4.477e-10
 22.66705    147.3 1.076e+04 6.417e-10
 22.68451    148.3 1.077e+04 6.448e-10
 22.70495    149.5 1.076e+04 6.395e-10
 22.72061    150.6 1.075e+04 6.260e-10
 22.73083    151.0 1.097e+04 7.283e-10
 22.73850    152.1 1.093e+04 7.102e-10
 22.74882    152.0 1.073e+04 5.965e-10
 22.76639    153.3 1.073e+04 5.953e-10
 22.78449    154.4 1.072e+04 5.729e-10
 22.79471    154.7 1.088e+04 6.579e-10
 22.80718    155.7 1.083e+04 6.089e-10
 22.82762    156.5 1.079e+04 5.588e-10
 22.84807    157.2 1.075e+04 5.198e-10
 22.85859    158.0 1.076e+04 5.125e-10
 22.86881    158.2 1.114e+04 6.386e-10
 22.88896    158.9 1.122e+04 6.454e-10
 22.90940    159.1 1.137e+04 6.790e-10
 22.92247    159.2 1.162e+04 7.749e-10
 22.93269    159.6 1.201e+04 1.007e-09
 22.95029    159.5 1.250e+04 1.244e-09
 22.97074    158.8 1.339e+04 1.793e-09
 22.98635    157.7 1.442e+04 2.858e-09
 22.99657    158.2 1.484e+04 3.303e-09
 23.01163    157.7 1.524e+04 4.023e-09
 23.02335    156.8 1.566e+04 4.858e-09
 23.02841    156.8 1.586e+04 4.992e-09
 23.03709    155.8 1.648e+04 6.038e-09
 23.04731    154.5 1.707e+04 7.496e-09
 23.05524    152.8 1.773e+04 9.346e-09
 23.06035    151.2 1.983e+04 1.168e-08
 23.06364    147.3 2.183e+04 1.614e-08
 23.06875    147.6 2.220e+04 1.597e-08
 23.07797    140.3 2.497e+04 3.598e-08
 23.08718    131.6 2.510e+04 1.078e-07
 23.09229    131.8 2.495e+04 1.273e-07
 23.09842    125.1 2.319e+04 2.888e-07
 23.10864    119.0 2.241e+04 3.504e-07
 23.11886    114.8 2.208e+04 3.137e-07
 23.12423    113.1 2.182e+04 1.878e-07
 23.12934    112.7 2.309e+04 1.141e-07
 23.13931    111.5 2.335e+04 4.042e-08
 23.14953    108.5 2.364e+04 1.260e-08
 23.15617    104.8 2.259e+04 3.911e-09
 23.16128    101.6 2.197e+04 2.334e-09
 23.17514     95.5 1.589e+04 1.501e-09
 23.18820     88.0 1.238e+04 1.295e-09
 23.19843     86.0 1.180e+04 1.128e-09
 23.21608     84.3 1.181e+04 1.150e-09
 23.23652     83.0 1.229e+04 1.347e-09
 23.25208     81.2 1.330e+04 1.927e-09
 23.26230     79.4 1.332e+04 1.949e-09
 23.27741     77.9 1.413e+04 2.868e-09
 23.29785     77.0 1.447e+04 3.656e-09
 23.31596     76.7 1.442e+04 3.717e-09
 23.32618     75.5 1.426e+04 3.458e-09
 23.33874     75.5 1.386e+04 2.978e-09
 23.35919     75.4 1.336e+04 2.323e-09
 23.37875     75.0 1.282e+04 1.707e-09
 23.38897     75.0 1.283e+04 1.714e-09
 23.39006     74.3 1.229e+04 1.246e-09
 23.40028     71.5 1.170e+04 9.295e-10
 23.42052     70.8 1.118e+04 7.792e-10
 23.44097     70.6 1.093e+04 7.101e-10
 23.45394     71.0 1.075e+04 6.991e-10
 23.46416     70.0 1.068e+04 7.331e-10
 23.48186     71.0 1.064e+04 7.316e-10
 23.50230     71.8 1.064e+04 7.298e-10
 23.51782     72.8 1.064e+04 7.325e-10
 23.52804     72.3 1.043e+04 7.025e-10
 23.54319     73.2 1.042e+04 6.893e-10
 23.56364     74.0 1.045e+04 6.797e-10
 23.58169     74.9 1.049e+04 6.798e-10
 23.59192     74.2 1.038e+04 5.626e-10
 23.60453     75.0 1.044e+04 5.625e-10
 23.62497     75.8 1.055e+04 5.671e-10
 23.64542     76.5 1.070e+04 5.822e-10
 23.65580     77.0 1.092e+04 6.170e-10
 23.66602     75.6 1.095e+04 5.678e-10
 23.68631     75.6 1.130e+04 6.549e-10
 23.70675     75.1 1.197e+04 8.169e-10
 23.71967     74.1 1.280e+04 1.215e-09
 23.72990     72.8 1.282e+04 1.515e-09
 23.74764     72.2 1.367e+04 2.503e-09
 23.76809     72.2 1.457e+04 3.984e-09
 23.78355     72.5 1.553e+04 5.994e-09
 23.79377     73.0 1.540e+04 6.120e-09
 23.80898     73.2 1.628e+04 7.974e-09
 23.82942     72.9 1.696e+04 8.221e-09
 23.84743     71.9 1.702e+04 8.050e-09
 23.85765     71.4 1.616e+04 5.015e-09
 23.87031     69.2 1.600e+04 4.445e-09
 23.89076     66.8 1.542e+04 3.882e-09
 23.91120     64.8 1.475e+04 3.461e-09
 23.92153     63.4 1.431e+04 3.188e-09
 23.93175     62.9 1.340e+04 2.548e-09
 23.95209     62.0 1.351e+04 2.574e-09
 23.97254     60.8 1.381e+04 2.699e-09
 23.98541     59.4 1.431e+04 3.026e-09
 23.99563     59.3 1.415e+04 2.964e-09
 24.01343     57.7 1.488e+04 3.675e-09
 24.02922     56.2 1.562e+04 4.775e-09
 24.03945     57.0 1.464e+04 3.309e-09
 24.04929     55.6 1.546e+04 4.473e-09
 24.05951     55.8 1.540e+04 4.480e-09
 24.07476     55.1 1.614e+04 6.130e-09
 24.09521     54.7 1.663e+04 7.669e-09
 24.11316     54.5 1.677e+04 8.208e-09
 24.12339     54.5 1.648e+04 7.347e-09
 24.13609     54.2 1.635e+04 7.125e-09
 24.15654     54.0 1.599e+04 6.369e-09
 24.17698     53.7 1.550e+04 5.466e-09
 24.19743     52.9 1.502e+04 5.058e-09
 24.21787     52.9 1.467e+04 4.598e-09
 24.23832     53.2 1.425e+04 3.897e-09
 24.25114     53.6 1.378e+04 3.066e-09
 24.26136     54.0 1.397e+04 3.412e-09
 24.27921     54.4 1.338e+04 2.474e-09
 24.29965     54.5 1.268e+04 1.791e-09
 24.33042     55.3 1.211e+04 1.450e-09
 24.36887     56.5 1.091e+04 8.942e-10
 24.38932     57.1 1.093e+04 8.992e-10
 24.41230     58.7 1.009e+04 5.867e-10
 24.45319     60.2 9.584e+03 4.307e-10
 24.49408     61.8 9.416e+03 3.709e-10
 24.51707     63.4 9.456e+03 3.632e-10
 24.53752     64.3 9.565e+03 3.827e-10
 24.56553     65.1 9.600e+03 3.840e-10
 24.58076     65.5 9.626e+03 3.801e-10
 24.59098     65.6 9.687e+03 3.981e-10
 24.60633     65.9 9.749e+03 4.124e-10
 24.62677     66.1 9.849e+03 4.550e-10
 24.64463     66.4 9.951e+03 5.212e-10
 24.65486     66.6 1.007e+04 6.181e-10
 24.66766     67.1 1.020e+04 7.104e-10
 24.67970     67.8 1.031e+04 7.947e-10
 24.68992     67.7 1.033e+04 7.949e-10
 24.70851     68.4 1.038e+04 8.294e-10
 24.72896     69.4 1.042e+04 8.048e-10
 24.74944     70.1 1.034e+04 7.363e-10
 24.76989     70.6 1.034e+04 6.951e-10
 24.78261     70.9 1.038e+04 6.983e-10
 24.79283     70.8 1.015e+04 5.533e-10
 24.81078     70.7 1.022e+04 5.691e-10
 24.83122     70.5 1.042e+04 6.304e-10
 24.84649     70.3 1.070e+04 7.492e-10
 24.85671     70.4 1.035e+04 6.154e-10
 24.87211     70.3 1.063e+04 7.507e-10
 24.89256     70.3 1.082e+04 8.621e-10
 24.91037     70.4 1.084e+04 8.710e-10
 24.92059     70.9 1.072e+04 8.120e-10
 24.93344     71.1 1.071e+04 7.934e-10
 24.95389     71.3 1.065e+04 7.159e-10
 24.97425     71.5 1.058e+04 5.774e-10
 24.99469     72.2 1.059e+04 4.777e-10
 25.02554     71.6 1.036e+04 3.109e-10
 25.04854     72.0 1.006e+04 2.119e-10
 25.06899     73.9 1.033e+04 3.097e-10
 25.10742     74.9 1.005e+04 2.360e-10
 25.14831     76.2 9.810e+03 1.727e-10
 25.17630     77.5 9.543e+03 1.397e-10
 25.19674     79.2 9.976e+03 1.986e-10
 25.23009     80.3 9.637e+03 1.625e-10
 25.27098     81.8 9.592e+03 1.681e-10
 25.30405     83.6 9.539e+03 1.962e-10
 25.32255     84.7 9.749e+03 2.275e-10
 25.33037     84.3 9.851e+03 2.880e-10
 25.35276     86.1 9.894e+03 3.130e-10
 25.39365     87.9 1.016e+04 4.211e-10
 25.43181     89.8 1.070e+04 6.344e-10
 25.45225     90.6 1.062e+04 5.685e-10
 25.47543     92.0 1.107e+04 7.755e-10
 25.51632     93.0 1.144e+04 9.366e-10
 25.55721     93.9 1.158e+04 9.452e-10
 25.57991     94.1 1.158e+04 9.359e-10
 25.60036     95.3 1.147e+04 8.311e-10
 25.62867     95.3 1.145e+04 8.020e-10
 25.64369     95.5 1.133e+04 7.270e-10
 25.65392     96.2 1.125e+04 6.734e-10
 25.66946     96.8 1.108e+04 5.673e-10
 25.68991     97.1 1.100e+04 4.760e-10
 25.70767     97.3 1.096e+04 4.196e-10
 25.72821     98.9 1.088e+04 3.766e-10
 25.76166     99.9 1.071e+04 2.892e-10
 25.80255    101.0 1.059e+04 2.357e-10
 25.83552    102.2 1.056e+04 2.163e-10
 25.85597    103.8 1.029e+04 1.916e-10
 25.88433    104.9 1.029e+04 1.923e-10
 25.92522    106.0 1.035e+04 2.035e-10
 25.96328    106.7 1.058e+04 2.392e-10
 25.98372    108.6 1.028e+04 2.089e-10
 26.00700    109.0 1.050e+04 2.550e-10
 26.03728    109.1 1.066e+04 2.926e-10
 26.04741    109.4 1.055e+04 2.800e-10
 26.05791    109.7 1.063e+04 3.146e-10
 26.07836    110.1 1.085e+04 3.943e-10
 26.09880    110.2 1.122e+04 5.403e-10
 26.11129    110.1 1.173e+04 7.776e-10
 26.12151    111.1 1.118e+04 5.361e-10
 26.13969    111.1 1.163e+04 7.434e-10
 26.16014    110.9 1.215e+04 1.041e-09
 26.17516    110.7 1.259e+04 1.432e-09
 26.18539    111.9 1.191e+04 8.615e-10
 26.20103    111.7 1.231e+04 1.124e-09
 26.22147    111.6 1.258e+04 1.409e-09
 26.23904    111.6 1.262e+04 1.559e-09
 26.24926    112.2 1.215e+04 9.936e-10
 26.26236    112.0 1.214e+04 1.066e-09
 26.28281    111.8 1.210e+04 1.057e-09
 26.30292    111.9 1.188e+04 9.979e-10
 26.31314    112.0 1.156e+04 7.983e-10
 26.32370    112.2 1.136e+04 7.472e-10
 26.34414    112.3 1.107e+04 6.530e-10
 26.36459    112.5 1.075e+04 5.562e-10
 26.37702    112.7 1.045e+04 4.832e-10
 26.38724    113.5 1.059e+04 4.701e-10
 26.40548    113.7 1.044e+04 4.068e-10
 26.42592    113.8 1.035e+04 3.856e-10
 26.44090    114.0 1.035e+04 3.837e-10
 26.45112    114.4 1.013e+04 3.863e-10
 26.46681    114.6 1.014e+04 3.885e-10
 26.48726    114.8 1.016e+04 4.019e-10
 26.50478    115.1 1.020e+04 4.333e-10
 26.51500    115.2 1.013e+04 3.811e-10
 26.52815    115.4 1.019e+04 4.095e-10
 26.54859    115.5 1.029e+04 4.459e-10
 26.56865    115.5 1.041e+04 4.872e-10
 26.57888    115.5 1.035e+04 4.494e-10
 26.58948    115.3 1.045e+04 4.818e-10
 26.61078    114.9 1.058e+04 5.303e-10
 26.63122    113.6 1.109e+04 7.168e-10
 26.64285    112.4 1.172e+04 1.064e-09
 26.66339    113.2 1.144e+04 8.693e-10
 26.70212    113.3 1.133e+04 8.763e-10
 26.74301    113.6 1.097e+04 7.936e-10
 26.77071    114.1 1.048e+04 6.189e-10
 26.79115    115.1 1.022e+04 4.613e-10
 26.82479    115.6 9.733e+03 3.383e-10
 26.86568    116.4 9.306e+03 2.513e-10
 26.89846    117.4 8.948e+03 1.917e-10
 26.91891    118.3 8.740e+03 1.503e-10
 26.94746    119.7 8.522e+03 1.301e-10
 26.98835    121.5 8.401e+03 1.151e-10
 27.02622    123.4 8.300e+03 1.026e-10
 27.04666    124.6 8.273e+03 1.065e-10
 27.07013    126.7 8.234e+03 1.037e-10
 27.11102    128.8 8.238e+03 1.034e-10
 27.15191    130.9 8.249e+03 1.037e-10
 27.17442    133.0 8.279e+03 1.058e-10
 27.19486    134.4 8.390e+03 1.278e-10
 27.23369    136.4 8.441e+03 1.342e-10
 27.27458    138.4 8.490e+03 1.442e-10
 27.30218    140.3 8.540e+03 1.589e-10
 27.32262    141.8 8.744e+03 2.022e-10
 27.35636    143.7 8.820e+03 2.205e-10
 27.39725    145.6 8.926e+03 2.489e-10
 27.42993    147.5 9.069e+03 2.917e-10
 27.45038    149.0 9.289e+03 3.360e-10
 27.47903    150.9 9.456e+03 3.919e-10
 27.51992    152.4 9.583e+03 4.519e-10
 27.55049    153.7 9.719e+03 5.329e-10
 27.56771    155.1 9.872e+03 6.176e-10
 27.57794    156.1 1.011e+04 7.184e-10
 27.59128    157.2 1.026e+04 7.710e-10
 27.61172    158.2 1.030e+04 7.715e-10
 27.63159    159.1 1.031e+04 7.611e-10
 27.64182    159.7 1.053e+04 8.655e-10
 27.65261    160.6 1.052e+04 8.371e-10
 27.67306    161.5 1.044e+04 7.694e-10
 27.69350    162.4 1.030e+04 6.725e-10
 27.70569    163.3 1.012e+04 5.704e-10
 27.71592    163.9 1.033e+04 6.612e-10
 27.73439    164.8 1.010e+04 5.319e-10
 27.76516    166.4 9.793e+03 4.097e-10
 27.80615    168.7 9.401e+03 3.262e-10
 27.83364    171.7 9.368e+03 2.957e-10
 27.85409    172.0 9.544e+03 3.335e-10
 27.88792    175.7 9.611e+03 3.229e-10
 27.91173    178.6 9.706e+03 3.433e-10
 27.92186    179.9 9.774e+03 3.994e-10
 27.93884    182.7 9.839e+03 4.142e-10
 27.95929    185.8 9.962e+03 4.263e-10
 27.97143    188.9 1.019e+04 4.394e-10
 27.98165    188.1 1.073e+04 5.370e-10
 28.00018    190.8 1.143e+04 6.236e-10
 28.02062    193.9 1.250e+04 7.765e-10
 28.03531    197.7 1.419e+04 1.047e-09
 28.04553    195.0 1.623e+04 2.032e-09
 28.06151    198.1 1.782e+04 2.435e-09
 28.07231    200.5 1.825e+04 2.280e-09
 28.07737    199.5 1.812e+04 2.402e-09
 28.08697    200.5 1.799e+04 2.415e-09
 28.09719    201.7 1.827e+04 2.719e-09
 28.10420    203.1 1.892e+04 3.330e-09
 28.10931    199.6 2.028e+04 5.632e-09
 28.11764    199.6 2.067e+04 6.747e-09
 28.12786    198.2 2.187e+04 8.665e-09
 28.13614    193.8 2.788e+04 1.581e-08
 28.14125    193.1 2.496e+04 1.998e-08
 28.14572    192.4 2.648e+04 2.546e-08
 28.15081    191.2 2.845e+04 3.021e-08
 28.15461    185.9 3.389e+04 4.371e-08
 28.15717    163.8 4.364e+04 1.062e-07
 28.15974    151.0 3.490e+04 5.284e-07
 28.16229    144.1 2.679e+04 1.959e-06
 28.16613    126.3 1.899e+04 1.856e-05
 28.17058    117.7 1.739e+04 3.330e-05
 28.17314     93.2 1.313e+04 9.764e-04
 28.17637     88.8 1.666e+04 3.828e-05
 28.18148     84.3 2.821e+04 2.266e-06
 28.18655     74.6 6.469e+04 5.060e-08
 28.18911     67.9 6.622e+04 3.690e-08
 28.19170     52.4 8.768e+04 5.932e-09
 28.19939     33.8 5.722e+04 7.707e-09
 28.20513     15.1 2.059e+04 9.638e-09
 28.21024     15.3 2.274e+04 9.345e-09
 28.22502     12.7 2.246e+04 7.723e-09
 28.23716     18.7 2.003e+04 6.981e-09
 28.24738     19.9 1.931e+04 4.172e-09
 28.26596     24.3 1.768e+04 3.915e-09
 28.28640     28.4 1.700e+04 3.751e-09
 28.30104     31.9 1.630e+04 3.503e-09
 28.31126     32.2 1.418e+04 2.071e-09
 28.32729     35.0 1.390e+04 2.007e-09
 28.34774     37.6 1.359e+04 1.902e-09
 28.36492     40.0 1.329e+04 1.771e-09
 28.37514     40.5 1.252e+04 1.275e-09
 28.38863     42.5 1.232e+04 1.235e-09
 28.40907     44.4 1.207e+04 1.171e-09
 28.42880     46.2 1.181e+04 1.097e-09
 28.43902     46.7 1.157e+04 9.156e-10
 28.44996     48.3 1.138e+04 8.591e-10
 28.47041     49.9 1.116e+04 7.908e-10
 28.49085     51.4 1.093e+04 7.099e-10
 28.50290     52.9 1.068e+04 6.232e-10
 28.51312     53.2 1.062e+04 5.568e-10
 28.53174     54.3 1.039e+04 4.821e-10
 28.55189     55.2 1.018e+04 4.303e-10
 28.56211     54.9 1.041e+04 4.529e-10
 28.56678     55.7 1.023e+04 4.416e-10
 28.57700     55.8 1.016e+04 4.076e-10
 28.59308     56.0 1.019e+04 4.171e-10
 28.61352     55.9 1.036e+04 4.780e-10
 28.63065     55.2 1.082e+04 6.640e-10
 28.64088     55.2 1.086e+04 6.516e-10
 28.65441     54.3 1.157e+04 1.050e-09
 28.67486     54.0 1.257e+04 1.746e-09
 28.69453     53.9 1.387e+04 2.795e-09
 28.70475     53.3 1.458e+04 2.906e-09
 28.71575     53.1 1.590e+04 4.252e-09
 28.73619     52.8 1.640e+04 4.639e-09
 28.75664     52.3 1.619e+04 4.434e-09
 28.76863     51.9 1.544e+04 3.577e-09
 28.77885     51.8 1.563e+04 4.143e-09
 28.79753     51.5 1.450e+04 2.967e-09
 28.81797     51.2 1.333e+04 2.149e-09
 28.83251     51.0 1.247e+04 1.738e-09
 28.84273     51.8 1.255e+04 1.799e-09
 28.86918     52.1 1.146e+04 1.218e-09
 28.89658     53.0 1.059e+04 8.995e-10
 28.91703     54.3 1.037e+04 7.222e-10
 28.95106     55.6 9.813e+03 5.582e-10
 28.99195     57.3 9.541e+03 4.734e-10
 29.02434     59.2 9.308e+03 4.014e-10
 29.04478     59.8 9.128e+03 3.382e-10
 29.07373     61.8 8.949e+03 3.068e-10
 29.11462     63.7 8.752e+03 2.653e-10
 29.15210     65.6 8.575e+03 2.255e-10
 29.17254     66.6 8.719e+03 2.582e-10
 29.19234     68.4 8.599e+03 2.346e-10
 29.21278     68.3 8.836e+03 2.535e-10
 29.23729     70.2 8.859e+03 2.540e-10
 29.27818     72.1 8.980e+03 2.684e-10
 29.30030     73.6 9.203e+03 3.108e-10
 29.32074     73.9 9.297e+03 3.440e-10
 29.34964     74.8 9.311e+03 3.634e-10
 29.36398     75.5 9.480e+03 4.184e-10
 29.37420     75.7 9.627e+03 4.649e-10
 29.39043     76.6 9.869e+03 5.691e-10
 29.41087     77.6 1.018e+04 7.038e-10
 29.42786     78.5 1.062e+04 8.761e-10
 29.43808     78.9 1.071e+04 9.281e-10
 29.45176     79.6 1.131e+04 1.157e-09
 29.47221     79.5 1.206e+04 1.525e-09
 29.49174     79.4 1.277e+04 2.075e-09
 29.50196     79.3 1.282e+04 2.093e-09
 29.51310     79.4 1.348e+04 2.952e-09
 29.53354     79.5 1.424e+04 4.187e-09
 29.55399     79.8 1.498e+04 5.981e-09
 29.56584     79.8 1.584e+04 8.902e-09
 29.57606     79.3 1.605e+04 9.299e-09
 29.59488     78.9 1.803e+04 1.726e-08
 29.61016     79.0 1.879e+04 2.045e-08
 29.62034     79.1 1.951e+04 2.104e-08
 29.62962     79.0 1.977e+04 2.051e-08
 29.63473     78.7 1.923e+04 1.954e-08
 29.64078     78.4 1.941e+04 1.832e-08
 29.65100     77.9 1.943e+04 1.692e-08
 29.66122     77.3 1.924e+04 1.390e-08
 29.67661     75.1 1.837e+04 1.089e-08
 29.69359     71.9 1.667e+04 5.791e-09
 29.70381     70.9 1.548e+04 5.050e-09
 29.71755     70.2 1.445e+04 4.132e-09
 29.73799     70.4 1.384e+04 3.638e-09
 29.75747     71.4 1.341e+04 2.990e-09
 29.76769     71.8 1.339e+04 3.041e-09
 29.77888     72.9 1.306e+04 2.445e-09
 29.79933     73.9 1.267e+04 1.771e-09
 29.81977     74.2 1.224e+04 1.186e-09
 29.83157     74.2 1.178e+04 7.760e-10
 29.84179     74.8 1.222e+04 9.958e-10
 29.85284     74.7 1.186e+04 7.114e-10
 29.86306     75.0 1.083e+04 5.381e-10
 29.88110     74.7 1.072e+04 4.550e-10
 29.89545     74.5 1.068e+04 4.540e-10
 29.90567     75.2 1.077e+04 4.923e-10
 29.92199     74.9 1.076e+04 4.995e-10
 29.94244     74.5 1.082e+04 5.399e-10
 29.95933     74.1 1.099e+04 6.405e-10
 29.96955     74.5 1.120e+04 6.972e-10
 29.98333     74.0 1.151e+04 8.512e-10
 30.00377     73.7 1.183e+04 1.039e-09
 30.02320     73.5 1.201e+04 1.190e-09
 30.03343     73.5 1.223e+04 1.317e-09
 30.04466     73.2 1.215e+04 1.316e-09
 30.06511     73.0 1.194e+04 1.277e-09
 30.08555     72.9 1.167e+04 1.190e-09
 30.09731     72.9 1.147e+04 1.078e-09
 30.10753     72.9 1.159e+04 1.201e-09
 30.12644     73.0 1.134e+04 1.122e-09
 30.14689     73.1 1.121e+04 1.041e-09
 30.16118     73.2 1.120e+04 9.891e-10
 30.17141     73.2 1.159e+04 1.193e-09
 30.18778     73.3 1.172e+04 1.218e-09
 30.20822     73.1 1.203e+04 1.324e-09
 30.22506     72.6 1.257e+04 1.590e-09
 30.23528     71.6 1.338e+04 2.274e-09
 30.24911     70.6 1.413e+04 3.166e-09
 30.26956     70.4 1.490e+04 4.617e-09
 30.28894     70.8 1.554e+04 6.386e-09
 30.29916     71.4 1.552e+04 6.309e-09
 30.31045     72.2 1.568e+04 6.847e-09
 30.33089     73.1 1.556e+04 6.493e-09
 30.35134     74.3 1.519e+04 5.201e-09
 30.36304     75.0 1.464e+04 3.403e-09
 30.37326     74.3 1.407e+04 1.762e-09
 30.39223     73.2 1.356e+04 9.676e-10
 30.41267     71.2 1.273e+04 5.512e-10
 30.42692     69.6 1.171e+04 3.686e-10
 30.43714     69.4 1.114e+04 3.201e-10
 30.45356     69.7 1.114e+04 2.996e-10
 30.47401     70.5 1.114e+04 2.997e-10
 30.49080     71.2 1.119e+04 3.075e-10
 30.49966     72.1 1.133e+04 2.842e-10
 30.50331     72.3 1.098e+04 2.374e-10
 30.51490     72.9 1.115e+04 2.501e-10
 30.53534     72.5 1.181e+04 3.256e-10
 30.55467     71.5 1.312e+04 6.260e-10
 30.56490     72.4 1.401e+04 5.435e-10
 30.57107     68.1 1.785e+04 1.031e-09
 30.58124     55.7 2.658e+04 3.828e-09
 30.59147     47.4 2.581e+04 1.533e-08
 30.59674     47.7 2.307e+04 3.796e-08
 30.60185     47.3 2.272e+04 4.786e-08
 30.61191     48.0 2.193e+04 6.050e-08
 30.62213     48.2 2.183e+04 5.850e-08
 30.62868     48.4 2.158e+04 4.676e-08
 30.63379     49.3 2.204e+04 5.458e-08
 30.64258     49.3 2.230e+04 3.132e-08
 30.65796     48.7 2.356e+04 1.103e-08
 30.67846     38.8 2.240e+04 1.579e-09
 30.69265     34.5 1.333e+04 8.922e-10
 30.70287     33.8 1.332e+04 9.064e-10
 30.71934     24.9 8.239e+03 5.349e-10
 30.74641     24.6 9.727e+03 4.726e-10
 30.76695     24.1 9.770e+03 5.114e-10
 30.79110     26.5 9.453e+03 4.178e-10
 30.83199     28.4 9.324e+03 3.342e-10
 30.87288     29.4 9.086e+03 2.741e-10
 30.89470     30.3 9.043e+03 2.752e-10
 30.91515     29.9 9.109e+03 2.822e-10
 30.95466     30.0 9.307e+03 3.389e-10
 30.99555     30.1 9.747e+03 4.926e-10
 31.02246     30.6 1.017e+04 7.045e-10
 31.04291     30.5 1.057e+04 9.399e-10
 31.07733     31.9 1.023e+04 7.860e-10
 31.11822     32.9 9.635e+03 5.225e-10
 31.15022     33.4 8.927e+03 2.748e-10
 31.17066     32.9 8.546e+03 1.575e-10
 31.19999     31.7 7.831e+03 7.082e-11
 31.24088     31.2 7.450e+03 5.592e-11
 31.27797     31.3 7.476e+03 5.884e-11
 31.29842     31.3 7.503e+03 6.196e-11
 31.32266     31.6 7.668e+03 8.765e-11
 31.36355     32.4 7.943e+03 1.369e-10
 31.40444     32.8 8.323e+03 2.008e-10
 31.42617     32.2 8.958e+03 2.780e-10
 31.44662     33.0 8.598e+03 2.093e-10
 31.48622     31.8 9.227e+03 3.308e-10
 31.52711     30.9 9.640e+03 4.758e-10
 31.55393     30.5 9.585e+03 4.692e-10
 31.57437     31.8 9.243e+03 3.491e-10
 31.60889     31.6 9.130e+03 2.960e-10
 31.64978     30.7 8.953e+03 2.366e-10
 31.68169     29.9 8.755e+03 2.246e-10
 31.70213     31.5 8.647e+03 1.851e-10
 31.73156     31.2 8.613e+03 2.003e-10
 31.77245     31.4 8.698e+03 2.367e-10
 31.79424     31.6 8.885e+03 2.840e-10
 31.81078     30.6 9.090e+03 3.505e-10
 31.82989     32.3 9.086e+03 3.477e-10
 31.85423     31.9 9.620e+03 4.860e-10
 31.89512     31.3 1.023e+04 7.159e-10
 31.93601     30.7 1.064e+04 9.036e-10
 31.95764     29.8 1.069e+04 9.097e-10
 31.97809     31.2 1.149e+04 1.375e-09
 32.01779     30.2 1.134e+04 1.230e-09
 32.05868     27.1 1.119e+04 8.518e-10
 32.08540     21.5 1.101e+04 6.678e-10
 32.10584     24.3 1.177e+04 8.925e-10
 32.14046     20.0 1.099e+04 7.171e-10
 32.18135     17.5 1.079e+04 7.054e-10
 32.21316     16.8 1.051e+04 7.795e-10
 32.23360     19.5 1.067e+04 7.373e-10
 32.26313     20.1 1.055e+04 8.023e-10
 32.30402     21.1 1.009e+04 6.588e-10
 32.34091     21.9 9.735e+03 3.886e-10
 32.36136     24.0 1.020e+04 6.265e-10
 32.38580     24.4 1.002e+04 4.330e-10
 32.42669     24.5 9.938e+03 3.856e-10
 32.46758     25.3 1.005e+04 4.624e-10
 32.48911     26.0 1.061e+04 6.148e-10
 32.50956     28.1 1.061e+04 6.217e-10
 32.54936     28.7 1.106e+04 7.843e-10
 32.57993     29.8 1.128e+04 9.413e-10
 32.60027     29.8 1.134e+04 9.572e-10
 32.61667     30.4 1.132e+04 1.003e-09
 32.62690     31.5 1.114e+04 8.670e-10
 32.64116     31.6 1.109e+04 8.660e-10
 32.67193     32.9 1.093e+04 7.309e-10
 32.71292     32.1 1.082e+04 7.106e-10
 32.74462     32.1 1.062e+04 7.303e-10
 32.76507     34.4 1.046e+04 6.978e-10
 32.79470     35.1 1.044e+04 6.877e-10
 32.83558     34.2 1.083e+04 6.441e-10
 32.87238     32.9 1.053e+04 7.327e-10
 32.89283     35.2 1.058e+04 6.378e-10
 32.91736     34.5 1.022e+04 7.022e-10
 32.95825     34.1 1.012e+04 5.842e-10
 32.99914     32.4 9.995e+03 4.967e-10
 33.02058     30.3 9.814e+03 4.749e-10
 33.04103     32.5 9.705e+03 4.361e-10
 33.07474     31.0 9.492e+03 4.100e-10
 33.09519     30.1 9.505e+03 4.228e-10
 33.12181     28.1 9.365e+03 3.600e-10
 33.14834     25.5 9.261e+03 3.317e-10
 33.16878     27.3 9.256e+03 3.248e-10
 33.20359     25.1 9.419e+03 3.938e-10
 33.24448     23.9 9.576e+03 4.360e-10
 33.27609     22.2 9.712e+03 4.131e-10
 33.29644     22.9 9.671e+03 4.144e-10
 33.31584     21.0 9.628e+03 4.004e-10
 33.33629     19.3 9.808e+03 4.212e-10
 33.35000     16.4 1.032e+04 5.640e-10
 33.36022     16.7 1.040e+04 5.632e-10
 33.37718     12.4 1.184e+04 1.030e-09
 33.39762      8.5 1.312e+04 2.061e-09
 33.41388      6.4 1.401e+04 3.518e-09
 33.42410      6.8 1.397e+04 3.564e-09
 33.43851      5.6 1.473e+04 4.639e-09
 33.45896      3.6 1.505e+04 4.928e-09
 33.47776      0.3 1.542e+04 3.961e-09
 33.48798      0.1 1.532e+04 3.594e-09
 33.49985     -5.7 1.420e+04 2.317e-09
 33.52029    -10.9 1.266e+04 1.651e-09
 33.54074    -13.5 1.182e+04 1.329e-09
 33.55186    -14.9 1.129e+04 1.047e-09
 33.56208    -14.7 1.128e+04 1.042e-09
 33.58163    -16.3 1.079e+04 7.557e-10
 33.60207    -18.0 1.038e+04 5.308e-10
 33.61573    -20.1 1.000e+04 3.896e-10
 33.62596    -20.5 9.992e+03 3.877e-10
 33.64296    -22.7 9.680e+03 3.374e-10
 33.66341    -24.6 9.613e+03 3.295e-10
 33.67961    -26.8 9.754e+03 3.553e-10
 33.68983    -27.0 9.767e+03 3.761e-10
 33.70430    -29.1 1.028e+04 4.921e-10
 33.72474    -31.2 1.085e+04 6.568e-10
 33.73525    -33.3 1.134e+04 8.515e-10
 33.74377    -31.7 1.119e+04 8.391e-10
 33.75371    -31.7 1.107e+04 7.613e-10
 33.76563    -33.9 1.134e+04 8.914e-10
 33.78608    -36.0 1.140e+04 9.744e-10
 33.80652    -38.0 1.139e+04 9.939e-10
 33.81759    -39.7 1.126e+04 9.937e-10
 33.82781    -39.5 1.106e+04 8.856e-10
 33.84741    -40.8 1.087e+04 8.527e-10
 33.86786    -41.8 1.068e+04 7.793e-10
 33.88147    -42.6 1.049e+04 6.991e-10
 33.89169    -42.3 1.034e+04 6.247e-10
 33.90875    -43.0 1.021e+04 5.650e-10
 33.92919    -43.7 1.011e+04 5.236e-10
 33.94535    -44.2 1.007e+04 5.051e-10
 33.95557    -43.8 9.947e+03 4.551e-10
 33.97008    -44.2 9.935e+03 4.510e-10
 33.99052    -44.5 9.944e+03 4.588e-10
 34.00922    -45.0 1.007e+04 4.953e-10
 34.01945    -44.7 9.957e+03 4.451e-10
 34.03141    -45.5 1.023e+04 5.346e-10
 34.05186    -46.5 1.062e+04 6.993e-10
 34.07230    -47.5 1.110e+04 9.561e-10
 34.08333    -48.2 1.159e+04 1.321e-09
 34.09355    -48.2 1.149e+04 1.232e-09
 34.11319    -48.5 1.191e+04 1.627e-09
 34.13364    -48.8 1.223e+04 1.929e-09
 34.14720    -49.1 1.236e+04 2.017e-09
 34.15743    -49.3 1.226e+04 1.892e-09
 34.17453    -50.0 1.227e+04 1.894e-09
 34.19497    -50.8 1.221e+04 1.732e-09
 34.21108    -52.1 1.205e+04 1.533e-09
 34.22130    -52.2 1.205e+04 1.490e-09
 34.23586    -53.7 1.189e+04 1.380e-09
 34.25631    -55.0 1.172e+04 1.311e-09
 34.27496    -56.0 1.153e+04 1.261e-09
 34.28518    -56.2 1.172e+04 1.358e-09
 34.29720    -56.9 1.166e+04 1.364e-09
 34.31764    -57.8 1.173e+04 1.392e-09
 34.33809    -58.8 1.192e+04 1.463e-09
 34.34906    -60.0 1.218e+04 1.602e-09
 34.35928    -60.6 1.287e+04 2.145e-09
 34.37550    -61.8 1.306e+04 2.452e-09
 34.38572    -62.6 1.331e+04 2.743e-09
 34.39942    -63.5 1.330e+04 2.748e-09
 34.41294    -64.2 1.318e+04 2.616e-09
 34.42316    -64.2 1.368e+04 3.030e-09
 34.44031    -65.2 1.350e+04 2.340e-09
 34.46076    -66.9 1.305e+04 1.682e-09
 34.47682    -68.8 1.253e+04 1.303e-09
 34.48704    -69.6 1.259e+04 1.214e-09
 34.51197    -71.9 1.225e+04 1.104e-09
 34.55295    -75.1 1.227e+04 1.204e-09
 34.59384    -77.7 1.240e+04 1.373e-09
 34.61499    -79.6 1.232e+04 1.358e-09
 34.63543    -80.3 1.255e+04 1.467e-09
 34.67562    -81.5 1.157e+04 8.082e-10
 34.71651    -82.9 1.053e+04 4.133e-10
 34.74275    -84.4 1.010e+04 3.138e-10
 34.76319    -85.1 9.888e+03 2.710e-10
 34.79829    -85.9 9.799e+03 2.591e-10
 34.83918    -86.5 9.808e+03 2.725e-10
 34.87050    -87.5 1.003e+04 3.322e-10
 34.89095    -87.9 9.752e+03 2.543e-10
 34.92096    -90.2 1.033e+04 3.692e-10
 34.96185    -93.1 1.100e+04 5.797e-10
 34.99826    -96.0 1.155e+04 8.541e-10
 35.01861    -97.2 1.175e+04 9.642e-10
 35.02598    -99.4 1.183e+04 1.107e-09
 35.03620    -99.3 1.203e+04 1.266e-09
 35.05366   -101.2 1.203e+04 1.311e-09
 35.07216   -103.0 1.182e+04 1.295e-09
 35.08239   -103.9 1.172e+04 1.265e-09
 35.09455   -105.2 1.110e+04 9.238e-10
 35.11499   -106.3 1.051e+04 6.179e-10
 35.13544   -107.6 9.911e+03 4.094e-10
 35.14636   -108.5 9.461e+03 2.954e-10
 35.16690   -109.5 9.193e+03 2.523e-10
 35.20719   -111.3 8.600e+03 1.564e-10
 35.24808   -112.4 8.339e+03 1.269e-10
 35.27422   -112.9 8.279e+03 1.222e-10
 35.29466   -113.3 8.353e+03 1.329e-10
 35.32986   -113.7 8.350e+03 1.334e-10
 35.37075   -114.0 8.414e+03 1.434e-10
 35.40197   -114.6 8.539e+03 1.617e-10
 35.42242   -115.1 8.712e+03 1.847e-10
 35.45253   -116.1 8.893e+03 2.208e-10
 35.49342   -117.2 9.062e+03 2.609e-10
 35.52973   -118.4 9.232e+03 3.042e-10
 35.55017   -119.2 9.491e+03 3.600e-10
 35.57520   -120.6 9.724e+03 4.263e-10
 35.61609   -122.0 1.002e+04 5.270e-10
 35.65620   -123.2 1.038e+04 6.764e-10
 35.67665   -123.5 1.037e+04 7.094e-10
 35.67793   -124.6 1.063e+04 8.091e-10
 35.69837   -125.3 1.097e+04 9.500e-10
 35.73876   -126.3 1.107e+04 9.727e-10
 35.77965   -127.3 1.103e+04 9.059e-10
 35.80568   -127.7 1.090e+04 7.979e-10
 35.81581   -127.6 1.094e+04 8.456e-10
 35.83056   -127.8 1.095e+04 8.141e-10
 35.85101   -128.1 1.079e+04 7.283e-10
 35.86937   -128.4 1.067e+04 6.430e-10
 35.87959   -128.7 1.064e+04 6.060e-10
 35.89190   -128.9 1.050e+04 5.310e-10
 35.91234   -129.2 1.037e+04 4.678e-10
 35.93279   -129.5 1.024e+04 4.175e-10
 35.94347   -129.7 1.013e+04 3.883e-10
 35.95379   -130.3 1.003e+04 3.482e-10
 35.98410   -129.6 9.836e+03 2.848e-10
 36.02499   -129.0 9.720e+03 2.364e-10
 36.06120   -128.6 9.674e+03 2.048e-10
 36.08164   -128.7 9.396e+03 1.319e-10
 36.10676   -128.1 9.402e+03 1.197e-10
 36.14765   -127.4 9.417e+03 1.161e-10
 36.18854   -126.7 9.443e+03 1.159e-10
 36.20940   -126.1 9.583e+03 1.330e-10
 36.22984   -125.7 9.540e+03 1.232e-10
 36.27032   -124.9 9.713e+03 1.780e-10
 36.31121   -123.9 9.924e+03 2.456e-10
 36.33715   -122.9 1.014e+04 3.081e-10
 36.35760   -122.4 1.013e+04 3.041e-10
 36.39299   -121.6 1.024e+04 3.291e-10
 36.43388   -120.7 1.026e+04 3.321e-10
 36.46491   -119.6 1.018e+04 2.965e-10
 36.48535   -119.1 1.007e+04 2.488e-10
 36.51566   -117.8 9.933e+03 1.711e-10
 36.55655   -116.7 9.846e+03 1.109e-10
 36.59267   -115.6 9.896e+03 7.927e-11
 36.61311   -115.4 9.893e+03 8.223e-11
 36.63833   -114.5 9.972e+03 7.472e-11
 36.67922   -113.9 1.002e+04 7.405e-11
 36.72011   -113.8 1.045e+04 9.357e-11
 36.74087   -113.6 1.067e+04 1.683e-10
 36.76131   -113.3 1.076e+04 2.342e-10
 36.80189   -113.0 1.100e+04 3.712e-10
 36.84278   -112.8 1.123e+04 4.982e-10
 36.86862   -112.9 1.138e+04 5.767e-10
 36.88907   -112.8 1.156e+04 6.745e-10
 36.92456   -113.0 1.167e+04 7.180e-10
 36.95715   -113.5 1.185e+04 7.743e-10
 36.97760   -114.3 1.147e+04 6.084e-10
 36.99602   -114.6 1.184e+04 7.458e-10
 37.00641   -115.9 1.236e+04 9.530e-10
 37.01663   -116.1 1.240e+04 9.422e-10
 37.03681   -117.5 1.306e+04 1.340e-09
 37.05726   -119.0 1.376e+04 1.945e-09
 37.07028   -120.8 1.440e+04 2.701e-09
 37.08051   -121.1 1.422e+04 2.521e-09
 37.09815   -123.7 1.475e+04 3.311e-09
 37.11859   -127.0 1.537e+04 4.222e-09
 37.13416   -130.6 1.621e+04 5.454e-09
 37.14438   -130.8 1.629e+04 5.399e-09
 37.15948   -134.4 1.730e+04 7.026e-09
 37.17993   -138.2 1.794e+04 8.342e-09
 37.19804   -142.3 1.806e+04 8.678e-09
 37.20826   -142.6 1.806e+04 8.590e-09
 37.22082   -146.7 1.765e+04 8.087e-09
 37.24126   -150.1 1.643e+04 5.862e-09
 37.26171   -153.1 1.485e+04 3.712e-09
 37.27214   -155.4 1.337e+04 2.384e-09
 37.28236   -155.7 1.336e+04 2.512e-09
 37.30259   -157.1 1.247e+04 1.875e-09
 37.32304   -158.0 1.207e+04 1.602e-09
 37.33602   -158.6 1.190e+04 1.514e-09
 37.34624   -158.3 1.187e+04 1.490e-09
 37.36393   -158.6 1.174e+04 1.414e-09
 37.38437   -158.8 1.168e+04 1.385e-09
 37.39990   -159.0 1.167e+04 1.387e-09
 37.41012   -159.0 1.155e+04 1.188e-09
 37.42526   -159.7 1.159e+04 1.187e-09
 37.44571   -160.9 1.192e+04 1.236e-09
 37.46378   -162.6 1.236e+04 1.393e-09
 37.47400   -163.2 1.222e+04 1.201e-09
 37.48660   -165.2 1.264e+04 1.489e-09
 37.50704   -167.3 1.296e+04 1.791e-09
 37.52749   -169.3 1.313e+04 1.978e-09
 37.53788   -171.4 1.316e+04 2.018e-09
 37.54810   -172.2 1.323e+04 1.955e-09
 37.56838   -173.9 1.312e+04 1.928e-09
 37.58882   -175.2 1.271e+04 1.697e-09
 37.60175   -176.3 1.222e+04 1.427e-09
 37.61014   -176.8 1.212e+04 1.420e-09
 37.61766   -175.3 1.197e+04 1.231e-09
 37.62971   -176.0 1.161e+04 1.075e-09
 37.65016   -176.6 1.138e+04 9.878e-10
 37.66563   -176.8 1.125e+04 9.453e-10
 37.67585   -177.0 1.121e+04 9.287e-10
 37.69105   -177.0 1.110e+04 8.927e-10
 37.71149   -176.8 1.098e+04 8.503e-10
 37.72951   -176.4 1.086e+04 7.982e-10
 37.73973   -176.4 1.077e+04 7.266e-10
 37.75238   -175.9 1.065e+04 6.390e-10
 37.77283   -175.4 1.053e+04 5.398e-10
 37.79327   -175.0 1.041e+04 4.500e-10
 37.80371   -174.8 1.026e+04 3.886e-10
 37.82425   -175.3 1.007e+04 3.155e-10
 37.86502   -173.7 9.775e+03 2.410e-10
 37.90591   -172.1 9.544e+03 1.868e-10
 37.93156   -170.4 9.460e+03 1.564e-10
 37.95201   -170.0 9.422e+03 1.494e-10
 37.98769   -168.0 9.442e+03 1.416e-10
 38.02858   -165.9 9.454e+03 1.408e-10
 38.05932   -164.4 9.521e+03 1.426e-10
 38.07976   -164.4 9.561e+03 1.470e-10
 38.11036   -164.6 9.945e+03 1.602e-10
 38.15125   -166.4 1.199e+04 3.439e-10
 38.18182   -166.9 1.346e+04 8.464e-10
 38.19710   -168.3 1.505e+04 1.980e-09
 38.20732   -169.4 1.589e+04 2.752e-09
 38.22261   -170.6 1.746e+04 5.852e-09
 38.24306   -172.6 1.873e+04 9.406e-09
 38.25791   -175.6 1.949e+04 1.085e-08
 38.26561   -174.0 2.073e+04 1.420e-08
 38.27120   -175.3 2.034e+04 1.346e-08
 38.28395   -180.2 2.053e+04 1.342e-08
 38.29798   -184.7 1.976e+04 9.644e-09
 38.30304   -185.6 1.889e+04 8.454e-09
 38.30941   -188.4 1.864e+04 7.110e-09
 38.31963   -192.3 1.853e+04 5.800e-09
 38.32985   -194.8 1.872e+04 5.403e-09
 38.34523   -199.2 1.833e+04 4.257e-09
 38.36573   -200.5 1.828e+04 4.436e-09
 38.38617   -200.6 1.777e+04 5.154e-09
 38.39896   -200.6 1.727e+04 5.592e-09
 38.40918   -200.4 1.577e+04 2.852e-09
 38.42706   -200.1 1.573e+04 3.366e-09
 38.44751   -199.5 1.563e+04 3.838e-09
 38.46284   -198.7 1.551e+04 4.224e-09
 38.47306   -198.5 1.504e+04 2.787e-09
 38.48840   -197.7 1.518e+04 3.233e-09
 38.50884   -196.9 1.533e+04 3.669e-09
 38.52671   -196.3 1.545e+04 4.093e-09
 38.53694   -196.4 1.525e+04 3.146e-09
 38.54973   -195.8 1.552e+04 3.778e-09
 38.57018   -195.3 1.573e+04 4.438e-09
 38.59059   -194.8 1.592e+04 5.029e-09
 38.61104   -194.6 1.601e+04 4.915e-09
 38.63151   -194.4 1.610e+04 5.415e-09
 38.65196   -194.3 1.611e+04 5.718e-09
 38.66469   -194.1 1.604e+04 5.916e-09
 38.67491   -194.7 1.608e+04 5.623e-09
 38.69285   -194.7 1.617e+04 6.172e-09
 38.71329   -194.7 1.620e+04 6.633e-09
 38.72857   -194.7 1.624e+04 6.947e-09
 38.73879   -195.4 1.626e+04 6.837e-09
 38.75418   -195.3 1.629e+04 7.214e-09
 38.77463   -195.1 1.628e+04 7.322e-09
 38.79245   -194.9 1.624e+04 7.366e-09
 38.80267   -195.2 1.576e+04 6.039e-09
 38.81552   -194.9 1.559e+04 5.624e-09
 38.83596   -194.6 1.539e+04 5.127e-09
 38.85633   -194.6 1.519e+04 4.647e-09
 38.87677   -195.4 1.439e+04 2.787e-09
 38.89730   -195.8 1.436e+04 2.761e-09
 38.90838   -196.3 1.429e+04 2.920e-09
 38.91861   -195.9 1.438e+04 3.268e-09
 38.93043   -196.3 1.468e+04 3.764e-09
 38.94065   -197.5 1.447e+04 3.297e-09
 38.95863   -197.9 1.520e+04 4.452e-09
 38.97907   -198.2 1.597e+04 5.818e-09
 38.99431   -198.9 1.651e+04 6.954e-09
 39.00453   -200.6 1.647e+04 6.732e-09
 39.01996   -201.7 1.664e+04 7.259e-09
 39.04041   -202.4 1.662e+04 7.290e-09
 39.05818   -202.8 1.625e+04 6.746e-09
 39.06841   -204.3 1.590e+04 6.182e-09
 39.08130   -204.5 1.529e+04 5.118e-09
 39.10174   -204.7 1.455e+04 3.973e-09
 39.12206   -204.7 1.381e+04 3.007e-09
 39.13228   -205.5 1.335e+04 2.628e-09
 39.14263   -205.3 1.275e+04 2.004e-09
 39.16308   -204.9 1.221e+04 1.528e-09
 39.18352   -204.4 1.174e+04 1.160e-09
 39.19616   -203.8 1.132e+04 8.744e-10
 39.20638   -204.3 1.109e+04 7.550e-10
 39.22441   -203.6 1.073e+04 5.661e-10
 39.24486   -203.0 1.045e+04 4.341e-10
 39.26004   -202.5 1.026e+04 3.604e-10
 39.27026   -203.1 1.014e+04 3.345e-10
 39.29607   -202.6 1.007e+04 3.099e-10
 39.33706   -201.4 9.925e+03 2.874e-10
 39.37777   -200.4 9.882e+03 2.816e-10
 39.41866   -199.7 9.803e+03 2.722e-10
 39.45972   -199.3 9.814e+03 2.696e-10
 39.50061   -199.2 9.792e+03 2.573e-10
 39.52597   -199.0 9.741e+03 2.413e-10
 39.54352   -199.2 9.815e+03 2.610e-10
 39.55906   -198.6 9.999e+03 3.280e-10
 39.58239   -198.5 1.008e+04 3.469e-10
 39.62328   -198.3 1.027e+04 3.931e-10
 39.65373   -198.2 1.050e+04 4.619e-10
 39.67417   -198.8 1.069e+04 5.701e-10
 39.70506   -198.6 1.071e+04 5.834e-10
 39.74595   -198.0 1.064e+04 5.493e-10
 39.77652   -197.4 1.048e+04 4.702e-10
 39.79151   -196.9 1.045e+04 4.646e-10
 39.80183   -197.2 1.018e+04 3.742e-10
 39.82773   -195.6 9.960e+03 2.820e-10
 39.86862   -194.2 9.719e+03 2.073e-10
 39.90924   -192.7 9.562e+03 1.660e-10
 39.92968   -192.7 9.287e+03 1.322e-10
 39.95040   -190.9 9.253e+03 1.290e-10
 39.99129   -189.0 9.252e+03 1.289e-10
 40.03218   -187.4 9.311e+03 1.438e-10
 40.05744   -186.0 9.688e+03 2.118e-10
 40.07788   -186.1 9.988e+03 2.685e-10
 40.11396   -184.7 1.067e+04 4.686e-10
 40.15485   -183.4 1.128e+04 7.327e-10
 40.18510   -183.4 1.136e+04 8.063e-10
 40.19522   -184.3 1.143e+04 9.687e-10
 40.19911   -184.1 1.159e+04 1.165e-09
 40.20934   -183.4 1.201e+04 1.539e-09
 40.22621   -183.0 1.216e+04 1.705e-09
 40.24666   -182.5 1.228e+04 1.819e-09
 40.25910   -182.0 1.234e+04 1.883e-09
 40.26932   -182.4 1.213e+04 1.741e-09
 40.28755   -182.0 1.217e+04 1.764e-09
 40.30799   -181.6 1.221e+04 1.795e-09
 40.32298   -181.1 1.229e+04 1.846e-09
 40.33320   -181.7 1.222e+04 1.782e-09
 40.34888   -181.3 1.250e+04 1.961e-09
 40.36933   -181.0 1.287e+04 2.220e-09
 40.38686   -180.8 1.328e+04 2.566e-09
 40.39708   -181.4 1.364e+04 3.011e-09
 40.41022   -181.2 1.414e+04 3.690e-09
 40.43066   -181.1 1.451e+04 4.376e-09
 40.45073   -181.1 1.471e+04 4.887e-09
 40.46096   -181.4 1.478e+04 4.996e-09
 40.47155   -181.4 1.478e+04 5.073e-09
 40.49200   -181.2 1.465e+04 5.046e-09
 40.51244   -180.8 1.447e+04 4.850e-09
 40.52484   -180.7 1.440e+04 4.678e-09
 40.53506   -181.3 1.440e+04 4.463e-09
 40.55333   -182.4 1.475e+04 4.497e-09
 40.57377   -185.1 1.629e+04 5.779e-09
 40.58871   -187.6 1.784e+04 9.593e-09
 40.59894   -189.5 1.798e+04 1.103e-08
 40.61466   -190.4 1.896e+04 1.717e-08
 40.62571   -190.4 1.980e+04 2.444e-08
 40.63078   -190.8 1.968e+04 2.358e-08
 40.64012   -191.4 2.013e+04 2.822e-08
 40.65035   -192.5 2.045e+04 3.304e-08
 40.65760   -194.0 2.050e+04 3.556e-08
 40.66272   -194.1 1.968e+04 2.364e-08
 40.67079   -195.1 1.966e+04 2.386e-08
 40.68101   -195.8 1.939e+04 2.351e-08
 40.68954   -196.2 1.891e+04 2.067e-08
 40.69465   -196.8 1.842e+04 1.475e-08
 40.70146   -197.4 1.788e+04 1.239e-08
 40.71168   -198.2 1.727e+04 1.020e-08
 40.72148   -199.1 1.656e+04 8.234e-09
 40.72664   -199.9 1.527e+04 5.094e-09
 40.73733   -201.5 1.415e+04 3.777e-09
 40.75778   -202.9 1.330e+04 2.962e-09
 40.77822   -204.2 1.273e+04 2.460e-09
 40.79057   -205.5 1.226e+04 2.120e-09
 40.80079   -206.4 1.182e+04 1.627e-09
 40.81911   -207.5 1.170e+04 1.538e-09
 40.83937   -208.6 1.160e+04 1.447e-09
 40.84959   -209.1 1.193e+04 1.741e-09
 40.85445   -210.3 1.177e+04 1.616e-09
 40.86467   -210.5 1.124e+04 1.227e-09
 40.88045   -211.7 1.122e+04 1.216e-09
 40.90089   -213.1 1.121e+04 1.217e-09
 40.91833   -214.6 1.137e+04 1.264e-09
 40.92855   -214.9 1.158e+04 1.244e-09
 40.94178   -216.5 1.187e+04 1.390e-09
 40.96223   -218.1 1.210e+04 1.550e-09
 40.98220   -219.7 1.219e+04 1.652e-09
 40.99243   -220.0 1.173e+04 1.291e-09
 41.00312   -221.3 1.171e+04 1.288e-09
 41.02356   -222.2 1.170e+04 1.282e-09
 41.04401   -223.5 1.154e+04 1.206e-09
 41.05630   -224.5 1.149e+04 1.136e-09
 41.06653   -225.2 1.143e+04 1.026e-09
 41.08490   -226.3 1.150e+04 1.030e-09
 41.10534   -227.2 1.186e+04 1.137e-09
 41.12018   -227.9 1.222e+04 1.326e-09
 41.13040   -228.3 1.232e+04 1.461e-09
 41.14623   -228.7 1.255e+04 1.690e-09
 41.16668   -229.1 1.262e+04 1.809e-09
 41.18406   -229.3 1.263e+04 1.832e-09
 41.19428   -229.1 1.264e+04 2.029e-09
 41.20757   -229.1 1.261e+04 1.996e-09
 41.22801   -229.0 1.249e+04 1.739e-09
 41.24794   -228.7 1.227e+04 1.415e-09
 41.25816   -228.5 1.222e+04 1.394e-09
 41.26890   -228.3 1.200e+04 1.116e-09
 41.28935   -228.1 1.176e+04 8.996e-10
 41.30979   -227.8 1.149e+04 7.360e-10
 41.32204   -227.3 1.120e+04 6.103e-10
 41.33226   -227.0 1.110e+04 5.736e-10
 41.35068   -226.2 1.091e+04 4.949e-10
 41.37113   -225.5 1.081e+04 4.494e-10
 41.38592   -225.0 1.078e+04 4.293e-10
 41.39624   -225.3 1.076e+04 3.832e-10
 41.42243   -224.3 1.060e+04 3.407e-10
 41.46332   -222.9 1.035e+04 2.938e-10
 41.50365   -221.2 1.009e+04 2.510e-10
 41.52409   -220.6 9.924e+03 1.966e-10
 41.54510   -218.9 9.779e+03 1.736e-10
 41.58599   -217.1 9.681e+03 1.561e-10
 41.62688   -215.2 9.632e+03 1.439e-10
 41.65185   -213.4 9.636e+03 1.376e-10
 41.67229   -213.1 9.699e+03 1.273e-10
 41.70866   -211.4 9.706e+03 1.276e-10
 41.74955   -209.7 9.761e+03 1.321e-10
 41.77960   -208.1 9.819e+03 1.407e-10
 41.80005   -208.1 9.853e+03 1.415e-10
 41.83133   -206.5 9.867e+03 1.475e-10
 41.87222   -204.7 9.869e+03 1.516e-10
 41.90736   -203.2 9.896e+03 1.548e-10
 41.92780   -204.2 1.004e+04 1.601e-10
 41.95400   -204.4 1.053e+04 1.785e-10
 41.99489   -205.3 1.103e+04 2.635e-10
 42.03512   -206.2 1.151e+04 4.681e-10
 42.05556   -208.1 1.172e+04 6.869e-10
 42.07667   -209.3 1.220e+04 9.386e-10
 42.11756   -211.6 1.255e+04 1.109e-09
 42.14051   -214.6 1.263e+04 1.158e-09
 42.16096   -215.4 1.224e+04 8.958e-10
 42.18332   -218.4 1.223e+04 9.070e-10
 42.20376   -220.7 1.190e+04 8.469e-10
 42.24023   -222.2 1.156e+04 8.322e-10
 42.28112   -222.9 1.124e+04 7.493e-10
 42.31107   -223.4 1.091e+04 6.285e-10
 42.33152   -223.3 1.074e+04 5.664e-10
 42.36290   -223.1 1.043e+04 4.447e-10
 42.40379   -222.2 1.013e+04 3.430e-10
 42.43883   -220.9 9.895e+03 2.660e-10
 42.45927   -220.4 9.871e+03 2.508e-10
 42.48557   -219.1 9.740e+03 2.072e-10
 42.52646   -217.7 9.656e+03 1.728e-10
 42.56658   -216.2 9.595e+03 1.473e-10
 42.58703   -215.7 9.591e+03 1.519e-10
 42.60824   -214.2 9.546e+03 1.343e-10
 42.64913   -212.6 9.529e+03 1.223e-10
 42.69001   -210.9 9.539e+03 1.171e-10
 42.71479   -209.2 9.547e+03 1.164e-10
 42.73523   -208.7 9.582e+03 1.164e-10
 42.77179   -207.1 9.694e+03 1.166e-10
 42.81268   -205.8 9.891e+03 1.195e-10
 42.84254   -205.2 1.005e+04 1.253e-10
 42.86299   -204.9 1.008e+04 1.537e-10
 42.89446   -204.9 1.013e+04 1.863e-10
 42.93535   -205.7 1.049e+04 3.647e-10
 42.97030   -208.5 1.260e+04 9.609e-10
 42.99074   -207.2 1.239e+04 9.682e-10
 43.00681   -210.1 1.327e+04 1.585e-09
 43.02716   -212.2 1.398e+04 2.361e-09
 43.04420   -214.6 1.455e+04 3.275e-09
 43.05443   -213.8 1.434e+04 2.846e-09
 43.06805   -216.5 1.462e+04 3.489e-09
 43.08849   -219.1 1.462e+04 3.691e-09
 43.10808   -221.2 1.448e+04 3.700e-09
 43.11830   -220.7 1.439e+04 3.327e-09
 43.12938   -222.2 1.394e+04 3.033e-09
 43.14983   -223.4 1.347e+04 2.483e-09
 43.17027   -224.2 1.304e+04 1.975e-09
 43.18218   -224.8 1.271e+04 1.593e-09
 43.19240   -224.4 1.282e+04 1.632e-09
 43.21116   -224.8 1.261e+04 1.398e-09
 43.23161   -225.1 1.244e+04 1.226e-09
 43.24606   -225.1 1.230e+04 1.089e-09
 43.25628   -224.5 1.236e+04 1.032e-09
 43.27250   -224.5 1.218e+04 9.018e-10
 43.30326   -224.5 1.198e+04 7.548e-10
 43.34425   -223.7 1.167e+04 5.806e-10
 43.37401   -222.9 1.153e+04 4.928e-10
 43.39446   -221.9 1.153e+04 5.093e-10
 43.42102   -221.1 1.138e+04 4.407e-10
 43.44146   -220.5 1.142e+04 5.038e-10
 43.46692   -219.6 1.129e+04 3.960e-10
 43.50177   -218.6 1.114e+04 3.065e-10
 43.52221   -217.4 1.133e+04 3.805e-10
 43.54870   -216.3 1.117e+04 3.034e-10
 43.58959   -215.1 1.102e+04 2.417e-10
 43.62952   -213.7 1.091e+04 1.937e-10
 43.64997   -212.7 1.101e+04 2.493e-10
 43.67137   -211.3 1.093e+04 2.091e-10
 43.71226   -209.8 1.090e+04 1.787e-10
 43.75315   -208.3 1.090e+04 1.557e-10
 43.77772   -206.8 1.091e+04 1.376e-10
 43.79817   -206.0 1.097e+04 1.804e-10
 43.83493   -204.5 1.096e+04 1.627e-10
 43.87582   -203.0 1.095e+04 1.501e-10
 43.90548   -201.5 1.093e+04 1.418e-10
 43.92593   -200.6 1.099e+04 1.654e-10
 43.95760   -199.2 1.099e+04 1.598e-10
 43.99849   -197.9 1.100e+04 1.597e-10
 44.03324   -196.7 1.103e+04 1.638e-10
 44.05368   -196.2 1.114e+04 1.885e-10
 44.08027   -195.1 1.122e+04 2.287e-10
 44.12116   -194.1 1.133e+04 3.000e-10
 44.16099   -193.1 1.145e+04 3.971e-10
 44.18144   -192.5 1.150e+04 4.537e-10
 44.20294   -191.5 1.159e+04 5.391e-10
 44.24383   -190.6 1.162e+04 5.945e-10
 44.28472   -189.6 1.160e+04 6.150e-10
 44.30919   -188.6 1.158e+04 6.177e-10
 44.32964   -187.8 1.150e+04 5.329e-10
 44.36649   -186.6 1.140e+04 4.883e-10
 44.40738   -185.4 1.130e+04 4.427e-10
 44.43695   -184.1 1.118e+04 4.102e-10
 44.45739   -183.6 1.110e+04 3.478e-10
 44.48916   -182.1 1.100e+04 3.450e-10
 44.53005   -180.6 1.098e+04 3.443e-10
 44.56471   -178.9 1.094e+04 3.471e-10
 44.58515   -178.4 1.091e+04 3.612e-10
 44.61183   -176.7 1.084e+04 3.714e-10
 44.65272   -175.2 1.082e+04 3.940e-10
 44.69246   -173.8 1.087e+04 4.413e-10
 44.71291   -173.2 1.084e+04 4.745e-10
 44.72197   -172.1 1.098e+04 5.644e-10
 44.74242   -171.7 1.086e+04 5.072e-10
 44.77539   -170.7 1.104e+04 6.731e-10
 44.81628   -170.1 1.121e+04 8.716e-10
 44.84066   -169.6 1.128e+04 1.021e-09
 44.86111   -169.2 1.136e+04 1.140e-09
 44.89806   -168.9 1.137e+04 1.200e-09
 44.93895   -168.6 1.135e+04 1.198e-09
 44.96842   -168.3 1.111e+04 1.104e-09
 44.97854   -168.1 1.121e+04 1.167e-09
 44.98987   -167.8 1.106e+04 1.090e-09
 45.01031   -167.5 1.088e+04 9.881e-10
 45.03076   -167.0 1.074e+04 9.029e-10
 45.04232   -166.4 1.059e+04 8.143e-10
 45.05255   -166.1 1.067e+04 8.564e-10
 45.07165   -165.5 1.055e+04 7.827e-10
 45.09608   -164.9 1.044e+04 7.079e-10
 45.11662   -163.8 1.050e+04 7.829e-10
 45.14340   -162.3 1.035e+04 6.960e-10
 45.18429   -161.0 1.033e+04 6.671e-10
 45.22393   -159.9 1.048e+04 6.981e-10
 45.24438   -158.6 1.048e+04 7.081e-10
 45.26607   -157.8 1.101e+04 8.548e-10
 45.30696   -157.5 1.175e+04 1.161e-09
 45.33753   -158.0 1.262e+04 1.887e-09
 45.35788   -158.2 1.301e+04 2.311e-09
 45.37194   -158.6 1.362e+04 2.996e-09
 45.37609   -158.0 1.407e+04 3.456e-09
 45.38247   -156.8 1.324e+04 2.169e-09
 45.39877   -157.5 1.423e+04 3.190e-09
 45.41921   -158.5 1.514e+04 4.678e-09
 45.43582   -159.6 1.585e+04 6.535e-09
 45.44604   -159.1 1.639e+04 7.903e-09
 45.46010   -160.3 1.668e+04 9.575e-09
 45.48055   -161.4 1.679e+04 1.057e-08
 45.49969   -162.2 1.677e+04 1.133e-08
 45.50992   -161.4 1.682e+04 1.147e-08
 45.52143   -161.7 1.650e+04 1.095e-08
 45.54188   -161.8 1.632e+04 1.039e-08
 45.56232   -161.8 1.623e+04 9.986e-09
 45.57379   -161.7 1.613e+04 9.590e-09
 45.58402   -161.0 1.574e+04 7.163e-09
 45.60321   -161.0 1.556e+04 6.765e-09
 45.62366   -160.7 1.524e+04 6.211e-09
 45.63767   -159.8 1.480e+04 5.510e-09
 45.64789   -159.1 1.457e+04 4.211e-09
 45.66455   -157.9 1.431e+04 3.929e-09
 45.68499   -156.7 1.422e+04 3.754e-09
 45.70155   -155.7 1.422e+04 3.711e-09
 45.71177   -154.9 1.419e+04 3.042e-09
 45.72588   -154.2 1.420e+04 3.264e-09
 45.74633   -153.8 1.450e+04 3.958e-09
 45.76543   -153.4 1.545e+04 5.624e-09
 45.77565   -152.1 1.605e+04 4.811e-09
 45.78722   -153.6 2.221e+04 6.604e-09
 45.80243   -152.3 2.113e+04 1.022e-08
 45.80749   -155.4 2.953e+04 8.343e-09
 45.81268   -161.0 3.571e+04 1.624e-08
 45.82290   -167.9 3.362e+04 5.747e-08
 45.83312   -174.3 2.720e+04 2.338e-07
 45.83943   -179.7 2.332e+04 5.977e-07
 45.84454   -185.8 2.204e+04 1.041e-06
 45.85099   -188.0 2.256e+04 8.598e-07
 45.85535   -188.9 2.267e+04 7.942e-07
 45.85791   -191.2 2.230e+04 7.904e-07
 45.85996   -194.1 2.267e+04 5.594e-07
 45.86252   -194.5 2.225e+04 7.506e-07
 45.86630   -196.9 2.303e+04 4.660e-07
 45.87132   -199.5 2.372e+04 2.864e-07
 45.87646   -202.0 2.441e+04 1.519e-07
 45.88423   -205.1 2.443e+04 8.040e-08
 45.89446   -209.0 2.348e+04 3.118e-08
 45.90331   -212.9 2.087e+04 1.416e-08
 45.90842   -215.7 1.741e+04 7.698e-09
 45.91490   -216.4 1.614e+04 6.630e-09
 45.92512   -216.4 1.583e+04 6.295e-09
 45.93525   -215.5 1.577e+04 6.179e-09
 45.94036   -215.2 1.550e+04 5.462e-09
 45.94557   -214.5 1.559e+04 5.549e-09
 45.95579   -214.2 1.563e+04 5.647e-09
 45.96601   -213.9 1.561e+04 5.712e-09
 45.97230   -213.7 1.556e+04 5.793e-09
 45.97746   -214.2 1.522e+04 4.465e-09
 45.99167   -213.9 1.508e+04 4.609e-09
 46.01211   -213.5 1.498e+04 4.854e-09
 46.02273   -213.0 1.488e+04 5.009e-09
 46.03156   -213.5 1.544e+04 6.001e-09
 46.04138   -213.6 1.443e+04 4.344e-09
 46.05300   -212.9 1.420e+04 4.167e-09
 46.07345   -212.0 1.380e+04 3.750e-09
 46.09389   -210.9 1.337e+04 3.114e-09
 46.10526   -209.8 1.290e+04 2.479e-09
 46.11549   -209.3 1.221e+04 1.919e-09
 46.13478   -208.1 1.185e+04 1.517e-09
 46.15523   -207.0 1.154e+04 1.191e-09
 46.16914   -205.8 1.128e+04 9.435e-10
 46.17936   -205.3 1.086e+04 7.755e-10
 46.19612   -203.9 1.068e+04 6.209e-10
 46.21656   -202.3 1.051e+04 5.196e-10
 46.23302   -200.6 1.043e+04 4.558e-10
 46.24324   -200.2 1.045e+04 4.301e-10
 46.25745   -199.0 1.050e+04 4.205e-10
 46.28677   -198.1 1.053e+04 4.077e-10
 46.30731   -197.8 1.034e+04 3.704e-10
 46.32920   -195.4 1.020e+04 3.291e-10
 46.37009   -193.0 1.009e+04 2.936e-10
 46.41098   -190.6 1.003e+04 2.679e-10
 46.43507   -188.1 1.001e+04 2.505e-10
 46.45552   -188.0 1.000e+04 2.609e-10
 46.49276   -185.6 9.991e+03 2.487e-10
 46.53365   -183.2 9.988e+03 2.388e-10
 46.56283   -180.8 1.000e+04 2.320e-10
 46.58327   -180.8 9.961e+03 2.326e-10
 46.61543   -178.4 9.966e+03 2.232e-10
 46.65632   -176.1 9.998e+03 2.196e-10
 46.69058   -173.8 1.001e+04 2.200e-10
 46.71103   -173.6 9.976e+03 2.018e-10
 46.73810   -171.3 9.990e+03 2.022e-10
 46.77899   -169.1 1.007e+04 2.035e-10
 46.81834   -166.9 1.020e+04 2.094e-10
 46.83878   -166.8 1.018e+04 1.847e-10
 46.86077   -164.8 1.029e+04 2.005e-10
 46.90166   -162.9 1.037e+04 2.276e-10
 46.94255   -161.0 1.048e+04 2.641e-10
 46.96654   -159.2 1.062e+04 3.047e-10
 46.98699   -159.1 1.062e+04 3.229e-10
 47.02433   -157.3 1.078e+04 3.684e-10
 47.06522   -155.6 1.091e+04 3.965e-10
 47.09430   -154.0 1.095e+04 4.053e-10
 47.11474   -153.9 1.093e+04 4.029e-10
 47.14700   -152.2 1.095e+04 3.986e-10
 47.18789   -150.4 1.096e+04 3.602e-10
 47.22205   -148.6 1.094e+04 3.146e-10
 47.24250   -148.5 1.096e+04 2.968e-10
 47.26967   -146.7 1.096e+04 2.665e-10
 47.30343   -144.8 1.099e+04 2.503e-10
 47.32387   -144.5 1.117e+04 2.996e-10
 47.34981   -142.6 1.118e+04 2.957e-10
 47.37025   -142.7 1.126e+04 3.062e-10
 47.39234   -140.9 1.125e+04 3.064e-10
 47.43323   -139.2 1.125e+04 3.051e-10
 47.47412   -137.5 1.123e+04 2.979e-10
 47.49801   -135.9 1.120e+04 2.840e-10
 47.51845   -136.1 1.116e+04 2.828e-10
 47.55590   -134.4 1.112e+04 2.703e-10
 47.59679   -132.7 1.111e+04 2.630e-10
 47.62577   -131.0 1.111e+04 2.623e-10
 47.64621   -131.1 1.114e+04 2.792e-10
 47.67856   -129.3 1.116e+04 2.837e-10
 47.71945   -127.6 1.116e+04 2.867e-10
 47.75352   -125.8 1.116e+04 2.892e-10
 47.77397   -126.1 1.125e+04 3.502e-10
 47.80123   -124.5 1.126e+04 3.527e-10
 47.84212   -123.1 1.137e+04 3.766e-10
 47.88128   -121.8 1.148e+04 4.440e-10
 47.90172   -122.1 1.153e+04 5.603e-10
 47.92390   -120.7 1.160e+04 6.784e-10
 47.96479   -119.4 1.161e+04 7.862e-10
 48.00568   -118.1 1.156e+04 8.236e-10
 48.02948   -116.8 1.149e+04 8.036e-10
 48.04992   -117.2 1.153e+04 7.845e-10
 48.08746   -116.0 1.146e+04 7.025e-10
 48.12835   -114.9 1.144e+04 6.561e-10
 48.15724   -113.7 1.143e+04 6.469e-10
 48.17768   -114.0 1.147e+04 6.851e-10
 48.21013   -112.6 1.149e+04 7.451e-10
 48.25102   -111.3 1.149e+04 8.098e-10
 48.28499   -109.8 1.143e+04 8.729e-10
 48.30544   -109.7 1.150e+04 9.114e-10
 48.33280   -107.9 1.146e+04 9.749e-10
 48.37369   -106.1 1.145e+04 1.004e-09
 48.41275   -104.5 1.144e+04 9.806e-10
 48.43319   -104.4 1.145e+04 9.353e-10
 48.45547   -102.9 1.142e+04 9.267e-10
 48.49636   -101.4 1.137e+04 8.996e-10
 48.53725    -99.9 1.128e+04 8.244e-10
 48.56095    -98.4 1.113e+04 6.968e-10
 48.58139    -98.1 1.110e+04 6.314e-10
 48.60438    -96.4 1.095e+04 5.212e-10
 48.62482    -96.4 1.097e+04 5.120e-10
 48.65992    -94.6 1.088e+04 4.508e-10
 48.68870    -92.6 1.082e+04 4.227e-10
 48.70915    -92.2 1.090e+04 5.052e-10
 48.74170    -90.1 1.088e+04 5.372e-10
 48.78259    -88.1 1.090e+04 5.815e-10
 48.81646    -85.9 1.093e+04 6.275e-10
 48.83691    -85.7 1.110e+04 8.596e-10
 48.86437    -83.6 1.112e+04 8.865e-10
 48.90526    -81.4 1.106e+04 8.683e-10
 48.94422    -79.3 1.100e+04 7.920e-10
 48.96466    -79.2 1.116e+04 9.216e-10
 48.98704    -77.2 1.117e+04 8.829e-10
 49.02793    -75.4 1.123e+04 8.638e-10
 49.06882    -73.8 1.130e+04 8.478e-10
 49.09242    -72.2 1.136e+04 8.229e-10
 49.11286    -72.7 1.123e+04 7.173e-10
 49.15060    -71.2 1.118e+04 6.022e-10
 49.19149    -69.8 1.107e+04 4.851e-10
 49.22017    -68.4 1.093e+04 4.065e-10
 49.24062    -69.0 1.077e+04 3.942e-10
 49.27326    -67.4 1.072e+04 3.898e-10
 49.31415    -65.7 1.070e+04 4.157e-10
 49.34793    -63.8 1.073e+04 4.682e-10
 49.36837    -64.1 1.070e+04 4.851e-10
 49.39593    -62.0 1.076e+04 5.159e-10
 49.43682    -59.9 1.080e+04 5.311e-10
 49.47569    -57.8 1.079e+04 5.004e-10
 49.49613    -57.9 1.070e+04 4.009e-10
 49.51860    -55.8 1.067e+04 3.500e-10
 49.55949    -53.9 1.065e+04 3.170e-10
 49.60038    -52.0 1.061e+04 2.954e-10
 49.62389    -50.1 1.059e+04 2.853e-10
 49.64433    -50.2 1.056e+04 2.682e-10
 49.68216    -48.2 1.062e+04 2.628e-10
 49.72305    -46.4 1.068e+04 2.462e-10
 49.75164    -44.6 1.068e+04 2.178e-10
 49.77209    -44.6 1.067e+04 2.244e-10
 49.80483    -42.9 1.058e+04 2.065e-10
 49.84572    -41.2 1.053e+04 1.960e-10
 49.87940    -39.3 1.052e+04 1.921e-10
 49.89812    -39.1 1.058e+04 2.156e-10
 49.90533    -39.1 1.017e+04 1.586e-10
 49.92750    -37.0 1.019e+04 1.506e-10
 49.96839    -34.9 1.023e+04 1.456e-10
 50.00716    -32.7 1.035e+04 1.473e-10
 50.02760    -32.3 1.038e+04 1.486e-10
 50.05017    -30.3 1.054e+04 1.701e-10
 50.09106    -28.3 1.063e+04 2.201e-10
 50.13195    -26.4 1.075e+04 3.162e-10
 50.15536    -24.3 1.098e+04 4.744e-10
 50.17580    -24.0 1.112e+04 5.096e-10
 50.21373    -21.8 1.138e+04 7.101e-10
 50.25462    -19.7 1.157e+04 8.623e-10
 50.28311    -17.7 1.165e+04 9.272e-10
 50.30356    -17.5 1.171e+04 9.541e-10
 50.33640    -15.6 1.171e+04 9.188e-10
 50.37729    -13.8 1.172e+04 8.931e-10
 50.41087    -12.1 1.179e+04 9.821e-10
 50.43131    -12.0 1.204e+04 1.261e-09
 50.45907    -10.3 1.233e+04 1.740e-09
 50.49996     -8.3 1.272e+04 2.426e-09
 50.53862     -6.1 1.299e+04 2.836e-09
 50.55907     -6.0 1.311e+04 2.883e-09
 50.58174     -4.3 1.297e+04 2.749e-09
 50.62263     -2.4 1.251e+04 1.938e-09
 50.66352     -1.3 1.203e+04 1.250e-09
 50.68683     -0.3 1.163e+04 9.000e-10
 50.70727     -0.4 1.160e+04 8.814e-10
 50.74530      1.3 1.133e+04 7.637e-10
 50.78619      3.4 1.113e+04 5.706e-10
 50.81458      5.4 1.104e+04 3.527e-10
 50.83503      5.9 1.109e+04 3.557e-10
 50.86797      7.3 1.092e+04 2.233e-10
 50.90885      9.0 1.060e+04 1.720e-10
 50.94234     11.2 1.048e+04 1.377e-10
 50.96278     11.4 1.053e+04 1.452e-10
 50.99063     13.3 1.062e+04 1.191e-10
 51.03152     15.3 1.074e+04 1.209e-10
 51.07009     16.4 1.073e+04 1.627e-10
 51.09054     16.8 1.079e+04 2.022e-10
 51.11330     19.3 1.069e+04 3.226e-10
 51.15419     22.2 1.081e+04 4.371e-10
 51.18584     24.7 1.098e+04 4.627e-10
 51.20628     24.3 1.085e+04 3.706e-10
 51.21830     26.5 1.087e+04 3.089e-10
 51.23874     26.8 1.088e+04 2.679e-10
 51.27686     28.4 1.089e+04 2.144e-10
 51.31775     29.9 1.076e+04 2.009e-10
 51.34605     31.4 1.066e+04 2.181e-10
 51.36650     31.5 1.063e+04 2.040e-10
 51.39953     33.4 1.051e+04 2.539e-10
 51.44042     35.6 1.053e+04 2.832e-10
 51.47381     37.8 1.058e+04 2.785e-10
 51.49425     38.1 1.067e+04 3.344e-10
 51.52220     40.2 1.069e+04 3.107e-10
 51.56309     42.3 1.068e+04 2.701e-10
 51.60156     44.1 1.066e+04 2.332e-10
 51.62201     44.3 1.073e+04 2.889e-10
 51.64487     46.2 1.069e+04 2.577e-10
 51.68576     48.1 1.066e+04 2.348e-10
 51.72665     50.1 1.063e+04 2.164e-10
 51.74976     52.2 1.060e+04 1.990e-10
 51.77021     52.4 1.064e+04 2.215e-10
 51.80843     54.5 1.061e+04 1.936e-10
 51.84932     56.5 1.059e+04 1.697e-10
 51.87752     58.6 1.056e+04 1.510e-10
 51.89797     58.8 1.057e+04 1.499e-10
 51.93110     60.9 1.052e+04 1.362e-10
 51.97199     63.1 1.045e+04 1.279e-10
 52.00528     65.4 1.037e+04 1.218e-10
 52.02572     65.6 1.040e+04 1.157e-10
 52.05377     68.0 1.035e+04 1.106e-10
 52.09466     70.3 1.034e+04 1.050e-10
 52.13303     72.7 1.034e+04 9.989e-11
 52.15348     72.8 1.038e+04 9.958e-11
 52.17644     75.0 1.038e+04 9.676e-11
 52.21733     77.2 1.038e+04 9.472e-11
 52.25822     79.4 1.038e+04 9.547e-11
 52.28123     81.4 1.040e+04 1.000e-10
 52.30168     81.4 1.044e+04 1.124e-10
 52.34000     83.3 1.048e+04 1.250e-10
 52.38089     85.2 1.060e+04 1.511e-10
 52.40899     87.0 1.067e+04 2.062e-10
 52.42943     86.9 1.074e+04 2.436e-10
 52.46267     88.8 1.080e+04 3.375e-10
 52.48679     90.7 1.087e+04 4.510e-10
 52.50723     91.0 1.086e+04 4.238e-10
 52.53675     92.8 1.097e+04 5.612e-10
 52.55719     92.5 1.098e+04 5.764e-10
 52.58533     94.1 1.102e+04 6.599e-10
 52.62622     95.6 1.102e+04 6.451e-10
 52.66450     97.2 1.098e+04 5.909e-10
 52.68495     96.5 1.090e+04 5.337e-10
 52.70800     98.1 1.080e+04 4.750e-10
 52.74889     99.7 1.076e+04 4.673e-10
 52.78978    101.5 1.079e+04 4.802e-10
 52.81270    103.0 1.086e+04 5.369e-10
 52.83315    102.3 1.090e+04 5.826e-10
 52.87156    104.0 1.108e+04 7.603e-10
 52.91245    105.7 1.140e+04 1.051e-09
 52.94046    107.3 1.174e+04 1.390e-09
 52.96090    106.6 1.146e+04 1.125e-09
 52.99423    108.0 1.170e+04 1.286e-09
 53.03512    109.1 1.191e+04 1.374e-09
 53.06822    110.1 1.205e+04 1.422e-09
 53.08866    109.2 1.167e+04 8.959e-10
 53.11690    110.1 1.180e+04 1.057e-09
 53.15779    111.0 1.191e+04 1.236e-09
 53.19597    111.8 1.201e+04 1.373e-09
 53.21642    110.8 1.218e+04 1.563e-09
 53.23957    111.1 1.255e+04 1.983e-09
 53.28046    111.1 1.304e+04 2.614e-09
 53.32135    111.1 1.351e+04 3.402e-09
 53.34417    111.2 1.365e+04 3.722e-09
 53.36462    109.8 1.364e+04 3.802e-09
 53.40313    110.7 1.312e+04 2.696e-09
 53.44402    111.9 1.247e+04 1.484e-09
 53.47193    112.7 1.200e+04 7.055e-10
 53.49237    110.0 1.132e+04 3.035e-10
 53.52580    110.9 1.088e+04 2.829e-10
 53.56669    112.6 1.079e+04 2.802e-10
 53.59968    114.5 1.078e+04 2.814e-10
 53.62013    114.3 1.069e+04 3.106e-10
 53.64847    116.1 1.074e+04 3.496e-10
 53.68936    117.6 1.088e+04 4.422e-10
 53.72744    119.0 1.116e+04 6.316e-10
 53.74789    118.6 1.132e+04 8.311e-10
 53.76730    119.6 1.172e+04 1.176e-09
 53.78774    120.1 1.161e+04 1.126e-09
 53.81203    120.8 1.199e+04 1.442e-09
 53.85292    120.8 1.210e+04 1.491e-09
 53.87564    120.6 1.205e+04 1.414e-09
 53.89609    120.1 1.205e+04 1.363e-09
 53.93470    120.5 1.171e+04 9.014e-10
 53.97559    121.3 1.136e+04 4.676e-10
 54.00340    121.9 1.111e+04 2.074e-10
 54.02384    121.4 1.082e+04 1.376e-10
 54.05737    121.9 1.029e+04 1.066e-10
 54.09826    123.2 1.020e+04 1.045e-10
 54.13115    125.1 1.019e+04 1.045e-10
 54.15160    125.5 1.023e+04 1.118e-10
 54.18003    127.5 1.021e+04 1.174e-10
 54.22092    129.3 1.022e+04 1.285e-10
 54.25891    130.9 1.025e+04 1.417e-10
 54.27935    131.4 1.034e+04 1.709e-10
 54.30270    132.8 1.040e+04 1.791e-10
 54.34359    134.0 1.042e+04 1.778e-10
 54.38448    135.1 1.044e+04 1.724e-10
 54.40711    136.3 1.044e+04 1.589e-10
 54.42756    136.8 1.047e+04 1.803e-10
 54.46626    138.1 1.045e+04 1.591e-10
 54.50715    139.5 1.043e+04 1.440e-10
 54.53487    141.1 1.041e+04 1.358e-10
 54.55531    141.5 1.046e+04 1.519e-10
 54.58893    143.1 1.046e+04 1.510e-10
 54.62982    144.8 1.046e+04 1.511e-10
 54.66262    146.5 1.047e+04 1.495e-10
 54.68307    146.8 1.049e+04 1.766e-10
 54.71160    148.6 1.051e+04 1.825e-10
 54.75249    150.5 1.054e+04 1.881e-10
 54.79038    152.6 1.059e+04 1.929e-10
 54.81082    153.1 1.067e+04 2.439e-10
 54.83427    155.3 1.074e+04 2.620e-10
 54.87516    157.6 1.082e+04 2.863e-10
 54.91605    159.8 1.095e+04 3.241e-10
 54.93858    161.9 1.112e+04 3.860e-10
 54.95903    162.6 1.131e+04 5.491e-10
 54.99783    164.6 1.164e+04 7.431e-10
 55.03872    166.5 1.204e+04 9.943e-10
 55.06634    167.9 1.241e+04 1.238e-09
 55.07542    168.3 1.287e+04 1.655e-09
 55.08869    167.0 1.309e+04 1.951e-09
 55.12050    167.4 1.333e+04 2.013e-09
 55.16139    167.3 1.339e+04 1.990e-09
 55.19409    166.7 1.353e+04 1.979e-09
 55.21444    166.1 1.417e+04 2.973e-09
 55.23275    165.4 1.432e+04 3.252e-09
 55.25320    164.7 1.430e+04 3.443e-09
 55.26800    164.0 1.423e+04 3.439e-09
 55.27822    163.9 1.455e+04 4.531e-09
 55.29409    163.1 1.430e+04 4.273e-09
 55.31453    162.3 1.397e+04 3.869e-09
 55.33188    161.4 1.362e+04 3.401e-09
 55.34210    161.1 1.355e+04 3.323e-09
 55.35542    159.9 1.315e+04 2.712e-09
 55.37586    158.7 1.285e+04 2.228e-09
 55.40663    156.5 1.238e+04 1.451e-09
 55.44762    153.8 1.175e+04 9.481e-10
 55.47005    151.9 1.104e+04 6.803e-10
 55.49049    151.4 1.016e+04 3.939e-10
 55.52940    151.4 1.015e+04 4.012e-10
 55.57029    151.8 1.006e+04 4.168e-10
 55.59781    152.6 9.970e+03 4.149e-10
 55.61825    153.5 9.747e+03 3.761e-10
 55.65207    154.7 9.655e+03 3.679e-10
 55.69296    156.0 9.458e+03 3.351e-10
 55.72556    157.4 9.257e+03 2.833e-10
 55.74601    158.2 9.252e+03 2.910e-10
 55.77474    159.6 9.073e+03 2.479e-10
 55.81563    160.9 8.885e+03 2.178e-10
 55.85332    162.3 8.691e+03 2.132e-10
 55.87376    162.7 8.794e+03 2.364e-10
 55.89740    163.9 8.730e+03 2.354e-10
 55.93829    165.2 8.701e+03 2.358e-10
 55.97918    166.4 8.660e+03 2.407e-10
 56.00152    167.5 8.642e+03 2.528e-10
 56.02196    167.4 8.680e+03 2.740e-10
 56.06096    168.3 8.620e+03 2.733e-10
 56.10185    168.8 8.554e+03 2.701e-10
 56.12928    169.2 8.467e+03 2.636e-10
 56.14972    169.0 8.453e+03 2.658e-10
 56.18363    169.1 8.338e+03 2.525e-10
 56.22452    169.0 8.227e+03 2.425e-10
 56.25703    168.9 8.215e+03 2.423e-10
 56.27748    169.0 8.056e+03 2.152e-10
 56.30630    169.0 8.059e+03 2.165e-10
 56.34719    168.8 8.104e+03 2.286e-10
 56.36920    168.5 8.284e+03 2.677e-10
 56.38635    168.1 8.302e+03 2.775e-10
 56.40523    168.4 8.135e+03 2.445e-10
 56.42897    168.0 8.356e+03 2.890e-10
 56.46986    167.3 8.701e+03 3.687e-10
 56.51075    166.6 8.971e+03 4.450e-10
 56.53289    166.1 9.165e+03 5.036e-10
 56.54302    166.5 8.993e+03 4.544e-10
 56.56167    165.9 9.284e+03 5.582e-10
 56.58211    165.2 9.553e+03 6.990e-10
 56.59667    163.8 1.016e+04 9.335e-10
 56.60689    163.0 1.064e+04 1.149e-09
 56.62300    157.8 1.344e+04 2.889e-09
 56.64345    151.9 1.699e+04 8.615e-09
 56.66055    147.0 1.906e+04 1.972e-08
 56.67077    146.6 1.989e+04 2.624e-08
 56.68434    142.2 2.027e+04 2.757e-08
 56.70478    138.3 1.979e+04 2.320e-08
 56.72443    136.3 1.824e+04 1.239e-08
 56.73465    135.5 1.748e+04 7.630e-09
 56.74567    132.5 1.440e+04 2.428e-09
 56.76612    127.8 1.090e+04 8.057e-10
 56.78840    124.0 1.103e+04 7.311e-10
 56.80895    121.2 1.091e+04 8.311e-10
 56.83787    120.3 1.107e+04 9.138e-10
 56.87876    119.8 1.141e+04 1.041e-09
 56.91626    119.2 1.150e+04 1.050e-09
 56.93670    118.4 1.145e+04 1.131e-09
 56.96054    118.2 1.138e+04 9.692e-10
 57.00143    118.4 1.114e+04 7.025e-10
 57.04232    118.9 1.085e+04 4.768e-10
 57.06446    119.5 1.065e+04 3.623e-10
 57.08490    119.4 1.043e+04 3.548e-10
 57.12410    120.4 1.041e+04 3.412e-10
 57.16499    121.6 1.042e+04 3.400e-10
 57.19221    122.7 1.053e+04 3.427e-10
 57.21266    122.7 1.049e+04 3.439e-10
 57.24677    123.7 1.061e+04 3.340e-10
 57.28766    124.4 1.078e+04 3.145e-10
 57.31997    125.0 1.095e+04 2.892e-10
 57.34041    125.1 1.102e+04 3.108e-10
 57.36944    125.7 1.117e+04 2.954e-10
 57.41033    126.3 1.124e+04 2.949e-10
 57.44773    127.1 1.139e+04 3.059e-10
 57.46817    127.5 1.154e+04 3.856e-10
 57.49210    128.5 1.162e+04 4.318e-10
 57.53299    129.4 1.165e+04 4.943e-10
 57.57388    130.2 1.146e+04 5.348e-10
 57.59593    130.9 1.140e+04 5.304e-10
 57.61637    131.4 1.160e+04 6.711e-10
 57.64970    132.3 1.146e+04 6.714e-10
 57.67015    132.8 1.181e+04 7.711e-10
 57.69655    133.9 1.177e+04 7.887e-10
 57.72368    134.9 1.174e+04 8.457e-10
 57.74413    135.5 1.183e+04 8.736e-10
 57.77833    136.5 1.187e+04 9.879e-10
 57.81922    137.5 1.194e+04 1.151e-09
 57.85144    138.3 1.198e+04 1.294e-09
 57.87188    139.2 1.192e+04 1.200e-09
 57.90100    139.8 1.189e+04 1.224e-09
 57.94189    140.3 1.181e+04 1.202e-09
 57.97920    141.0 1.154e+04 1.116e-09
 57.99964    142.1 1.146e+04 1.005e-09
 58.02367    143.1 1.118e+04 9.211e-10
 58.06456    144.3 1.087e+04 8.192e-10
 58.10545    145.6 1.054e+04 6.912e-10
 58.12740    147.0 1.015e+04 5.457e-10
 58.14784    147.9 1.050e+04 6.836e-10
 58.18723    149.2 1.016e+04 5.580e-10
 58.22812    150.6 9.779e+03 4.220e-10
 58.25515    152.0 9.415e+03 3.029e-10
 58.27560    152.6 9.914e+03 4.591e-10
 58.30990    153.9 9.495e+03 3.182e-10
 58.35079    155.3 9.088e+03 2.215e-10
 58.38291    156.7 8.637e+03 1.792e-10
 58.40335    157.3 8.854e+03 2.174e-10
 58.43257    158.9 8.554e+03 2.043e-10
 58.47346    160.8 8.537e+03 2.035e-10
 58.51066    162.7 8.530e+03 2.047e-10
 58.53111    163.4 8.622e+03 2.287e-10
 58.55524    165.2 8.614e+03 2.361e-10
 58.59613    166.8 8.644e+03 2.565e-10
 58.63702    168.0 8.742e+03 2.889e-10
 58.65887    168.8 8.909e+03 3.337e-10
 58.67931    169.6 9.077e+03 3.721e-10
 58.70848    169.6 9.083e+03 3.877e-10
 58.72255    169.4 9.125e+03 4.034e-10
 58.73277    169.5 9.227e+03 4.310e-10
 58.74927    169.1 9.352e+03 4.798e-10
 58.76971    168.3 9.535e+03 5.384e-10
 58.78643    167.1 9.772e+03 6.085e-10
 58.79665    166.4 1.012e+04 7.222e-10
 58.81060    164.7 1.040e+04 8.480e-10
 58.83105    163.1 1.058e+04 9.834e-10
 58.85030    161.8 1.063e+04 1.079e-09
 58.86053    161.0 1.083e+04 1.212e-09
 58.87194    159.9 1.077e+04 1.192e-09
 58.89238    159.0 1.058e+04 1.104e-09
 58.91283    157.9 1.033e+04 9.604e-10
 58.92440    156.5 1.007e+04 8.286e-10
 58.93463    155.0 1.008e+04 7.872e-10
 58.95046    152.7 1.011e+04 7.850e-10
 58.96068    153.8 9.873e+03 7.069e-10
 58.97416    151.5 9.895e+03 7.111e-10
 58.98828    149.0 1.004e+04 7.605e-10
 58.99851    147.5 9.938e+03 7.680e-10
 59.01505    145.8 1.017e+04 8.946e-10
 59.03550    144.4 1.042e+04 1.068e-09
 59.05216    143.5 1.063e+04 1.242e-09
 59.06238    142.4 1.041e+04 1.051e-09
 59.07639    141.2 1.062e+04 1.110e-09
 59.09683    139.6 1.084e+04 1.157e-09
 59.11604    137.5 1.116e+04 1.241e-09
 59.12626    134.0 1.143e+04 1.380e-09
 59.13772    131.4 1.190e+04 1.716e-09
 59.15817    129.7 1.214e+04 2.138e-09
 59.17861    129.2 1.210e+04 2.417e-09
 59.19014    129.1 1.207e+04 2.421e-09
 59.20036    128.8 1.188e+04 2.131e-09
 59.21950    128.8 1.156e+04 1.569e-09
 59.23995    127.8 1.104e+04 8.201e-10
 59.25402    127.0 1.062e+04 5.584e-10
 59.26424    126.4 1.029e+04 4.880e-10
 59.29116    125.6 9.547e+03 2.885e-10
 59.31809    124.0 8.076e+03 1.679e-10
 59.33854    121.3 7.533e+03 1.419e-10
 59.37303    122.4 7.530e+03 1.432e-10
 59.41392    123.8 7.586e+03 1.493e-10
 59.44585    125.1 7.690e+03 1.558e-10
 59.46629    124.4 7.705e+03 1.545e-10
 59.49570    125.7 7.710e+03 1.542e-10
 59.53659    127.0 7.721e+03 1.539e-10
 59.57360    128.3 7.746e+03 1.555e-10
 59.59405    128.3 7.732e+03 1.509e-10
 59.61837    129.9 7.769e+03 1.535e-10
 59.65926    131.4 7.881e+03 1.632e-10
 59.70015    132.9 8.063e+03 1.865e-10
 59.72180    134.3 8.311e+03 2.269e-10
 59.74225    134.4 8.029e+03 1.553e-10
 59.78193    135.8 8.261e+03 1.999e-10
 59.82282    137.0 8.538e+03 2.634e-10
 59.84956    138.2 8.803e+03 3.234e-10
 59.87001    138.8 8.520e+03 2.482e-10
 59.90460    140.0 8.748e+03 3.204e-10
 59.94549    141.1 8.945e+03 3.618e-10
 59.97732    142.2 9.057e+03 3.628e-10
 59.99776    142.9 8.982e+03 3.444e-10
 60.02727    144.1 9.093e+03 3.631e-10
 60.06816    145.5 9.294e+03 3.854e-10
 60.10507    146.9 9.648e+03 4.372e-10
 60.12542    146.2 9.734e+03 5.101e-10
 60.13952    146.4 9.944e+03 5.756e-10
 60.15997    146.8 1.011e+04 6.873e-10
 60.17898    147.3 1.030e+04 8.161e-10
 60.18920    147.6 1.015e+04 9.439e-10
 60.20086    148.2 1.039e+04 1.058e-09
 60.22130    148.9 1.066e+04 1.116e-09
 60.24119    149.5 1.091e+04 1.101e-09
 60.25141    149.4 1.103e+04 1.355e-09
 60.25308    150.0 1.126e+04 1.352e-09
 60.26330    150.0 1.153e+04 1.197e-09
 60.28264    150.1 1.172e+04 1.155e-09
 60.30308    149.9 1.186e+04 1.129e-09
 60.31696    149.6 1.195e+04 1.128e-09
 60.32718    149.1 1.170e+04 1.046e-09
 60.34397    148.7 1.199e+04 1.125e-09
 60.36441    148.6 1.212e+04 1.166e-09
 60.38093    148.4 1.259e+04 1.432e-09
 60.40147    147.5 1.239e+04 1.537e-09
 60.43617    147.7 1.251e+04 1.631e-09
 60.47706    148.1 1.246e+04 1.574e-09
 60.50879    148.5 1.223e+04 1.346e-09
 60.52923    148.4 1.220e+04 1.043e-09
 60.55884    149.2 1.194e+04 7.781e-10
 60.59973    150.1 1.159e+04 5.184e-10
 60.63654    151.1 1.122e+04 3.269e-10
 60.65699    151.0 1.093e+04 2.440e-10
 60.68151    152.3 1.066e+04 1.700e-10
 60.72240    153.7 1.048e+04 1.426e-10
 60.76328    155.4 1.047e+04 1.425e-10
 60.78474    157.3 1.045e+04 1.465e-10
 60.80519    157.3 1.051e+04 1.217e-10
 60.84506    159.1 1.050e+04 1.320e-10
 60.88595    160.8 1.059e+04 1.492e-10
 60.91250    162.5 1.070e+04 1.685e-10
 60.93294    162.5 1.069e+04 1.706e-10
 60.96773    164.0 1.076e+04 1.855e-10
 61.00862    165.5 1.080e+04 2.027e-10
 61.04026    166.9 1.082e+04 2.226e-10
 61.06070    166.9 1.087e+04 2.869e-10
 61.09040    168.3 1.097e+04 3.004e-10
 61.13129    169.8 1.109e+04 3.110e-10
 61.16801    171.2 1.123e+04 3.182e-10
 61.18846    171.1 1.153e+04 3.467e-10
 61.21307    172.3 1.165e+04 3.451e-10
 61.25396    173.4 1.174e+04 3.446e-10
 61.29485    174.4 1.175e+04 3.426e-10
 61.31621    175.3 1.179e+04 3.274e-10
 61.33666    175.3 1.164e+04 4.614e-10
 61.37663    176.4 1.159e+04 4.509e-10
 61.41752    177.6 1.148e+04 4.124e-10
 61.44397    179.0 1.137e+04 3.527e-10
 61.46441    179.5 1.167e+04 4.855e-10
 61.49930    181.0 1.159e+04 4.123e-10
 61.53211    182.6 1.150e+04 3.594e-10
 61.55256    182.0 1.155e+04 4.226e-10
 61.57172    183.8 1.156e+04 4.182e-10
 61.59217    184.2 1.176e+04 5.527e-10
 61.62197    185.9 1.183e+04 5.832e-10
 61.66286    187.5 1.194e+04 6.261e-10
 61.69948    189.0 1.202e+04 6.595e-10
 61.71993    188.7 1.219e+04 8.069e-10
 61.74464    190.0 1.216e+04 8.624e-10
 61.78553    191.2 1.212e+04 8.556e-10
 61.82642    192.4 1.195e+04 8.019e-10
 61.84768    193.7 1.168e+04 6.814e-10
 61.86813    193.6 1.163e+04 7.006e-10
 61.90820    195.1 1.135e+04 5.033e-10
 61.94909    196.5 1.105e+04 3.539e-10
 61.97544    197.9 1.073e+04 2.952e-10
 61.99588    198.1 1.055e+04 2.675e-10
 62.03087    199.8 1.052e+04 2.665e-10
 62.07176    201.6 1.051e+04 2.679e-10
 62.10319    203.3 1.047e+04 2.746e-10
 62.12364    204.3 1.046e+04 2.977e-10
 62.15354    205.9 1.043e+04 3.082e-10
 62.19443    207.5 1.040e+04 3.076e-10
 62.23095    209.1 1.034e+04 3.008e-10
 62.25139    210.2 1.052e+04 3.304e-10
 62.27621    211.7 1.040e+04 3.172e-10
 62.31710    213.3 1.029e+04 3.073e-10
 62.35799    214.8 1.027e+04 3.050e-10
 62.37915    216.3 1.029e+04 3.055e-10
 62.39960    217.2 1.054e+04 3.848e-10
 62.43976    218.4 1.059e+04 3.980e-10
 62.48065    219.4 1.062e+04 3.950e-10
 62.50691    220.1 1.064e+04 3.621e-10
 62.52735    220.8 1.111e+04 6.035e-10
 62.56243    221.0 1.097e+04 5.120e-10
 62.60332    221.3 1.065e+04 3.943e-10
 62.63466    221.6 1.027e+04 3.142e-10
 62.65511    221.2 1.057e+04 4.034e-10
 62.68510    221.3 1.021e+04 3.503e-10
 62.72599    221.7 1.017e+04 3.507e-10
 62.76242    222.3 1.016e+04 3.777e-10
 62.78286    221.2 1.052e+04 4.602e-10
 62.80777    221.0 1.075e+04 5.765e-10
 62.83306    220.3 1.085e+04 6.413e-10
 62.85351    218.2 1.087e+04 6.963e-10
 62.88955    217.6 1.080e+04 6.656e-10
 62.91062    217.3 1.053e+04 5.577e-10
 62.93107    215.4 1.018e+04 3.739e-10
 62.97133    215.5 9.790e+03 2.367e-10
 63.01222    215.5 9.406e+03 1.588e-10
 63.03838    215.8 9.158e+03 1.442e-10
 63.05882    214.6 9.160e+03 1.388e-10
 63.09400    215.6 9.140e+03 1.447e-10
 63.13489    216.8 9.229e+03 1.689e-10
 63.16613    217.9 9.454e+03 2.094e-10
 63.18658    217.5 9.921e+03 2.995e-10
 63.21667    218.3 1.024e+04 3.582e-10
 63.24014    218.6 1.039e+04 4.069e-10
 63.25026    218.3 1.064e+04 4.594e-10
 63.26759    218.5 1.093e+04 5.890e-10
 63.28803    218.9 1.116e+04 7.359e-10
 63.30392    219.4 1.144e+04 9.098e-10
 63.31414    219.2 1.170e+04 1.060e-09
 63.32892    219.8 1.201e+04 1.264e-09
 63.34937    220.3 1.240e+04 1.516e-09
 63.36779    220.8 1.286e+04 1.810e-09
 63.37802    220.6 1.266e+04 1.612e-09
 63.39026    220.8 1.297e+04 1.751e-09
 63.41070    220.7 1.324e+04 1.873e-09
 63.43115    220.5 1.344e+04 1.979e-09
 63.44189    220.1 1.359e+04 2.079e-09
 63.45212    219.3 1.297e+04 1.546e-09
 63.47204    218.7 1.308e+04 1.644e-09
 63.48334    217.9 1.321e+04 1.774e-09
 63.49357    218.4 1.391e+04 2.499e-09
 63.50577    217.3 1.426e+04 2.851e-09
 63.51599    216.9 1.377e+04 2.285e-09
 63.53337    215.9 1.440e+04 2.737e-09
 63.55382    214.6 1.507e+04 2.992e-09
 63.56965    212.8 1.517e+04 2.956e-09
 63.57987    212.3 1.433e+04 2.193e-09
 63.59470    209.9 1.432e+04 2.003e-09
 63.61515    207.2 1.404e+04 1.574e-09
 63.63353    204.5 1.342e+04 1.107e-09
 63.64375    204.4 1.282e+04 9.418e-10
 63.65604    201.9 1.208e+04 6.586e-10
 63.67648    199.7 1.135e+04 4.959e-10
 63.69693    198.0 1.104e+04 4.691e-10
 63.70763    197.1 1.105e+04 4.777e-10
 63.71785    198.3 1.112e+04 4.655e-10
 63.73782    197.9 1.117e+04 4.924e-10
 63.75826    197.6 1.140e+04 5.690e-10
 63.77151    197.3 1.174e+04 6.976e-10
 63.78173    198.3 1.155e+04 5.982e-10
 63.79915    198.0 1.183e+04 7.405e-10
 63.81960    198.0 1.208e+04 9.019e-10
 63.83539    198.1 1.229e+04 1.050e-09
 63.84561    198.9 1.211e+04 9.597e-10
 63.86049    199.1 1.227e+04 1.080e-09
 63.88093    199.4 1.237e+04 1.134e-09
 63.89926    199.7 1.242e+04 1.135e-09
 63.90949    200.3 1.241e+04 1.118e-09
 63.92182    200.6 1.250e+04 1.110e-09
 63.94227    200.8 1.257e+04 1.106e-09
 63.96271    200.8 1.266e+04 1.109e-09
 63.97336    200.7 1.284e+04 1.142e-09
 63.98359    201.1 1.292e+04 1.288e-09
 64.00360    200.7 1.317e+04 1.486e-09
 64.02405    200.3 1.345e+04 1.858e-09
 64.03724    200.2 1.376e+04 2.430e-09
 64.04746    200.6 1.413e+04 2.621e-09
 64.06494    200.8 1.448e+04 3.417e-09
 64.08538    201.1 1.482e+04 4.211e-09
 64.10112    201.2 1.512e+04 4.782e-09
 64.11134    201.5 1.511e+04 4.531e-09
 64.12360    201.4 1.538e+04 4.817e-09
 64.13382    201.1 1.527e+04 4.688e-09
 64.14672    200.8 1.564e+04 5.062e-09
 64.16500    200.2 1.589e+04 5.351e-09
 64.17522    200.2 1.577e+04 5.065e-09
 64.18245    199.7 1.598e+04 5.081e-09
 64.19262    199.4 1.620e+04 5.129e-09
 64.20195    198.9 1.685e+04 5.525e-09
 64.20706    199.0 1.636e+04 5.151e-09
 64.21306    198.6 1.686e+04 5.543e-09
 64.22329    197.9 1.759e+04 6.397e-09
 64.23351    197.5 1.809e+04 7.193e-09
 64.23900    196.8 1.859e+04 8.485e-09
 64.24927    197.0 1.799e+04 6.990e-09
 64.26939    195.7 1.851e+04 8.493e-09
 64.28983    194.1 1.846e+04 8.534e-09
 64.30298    192.5 1.809e+04 8.002e-09
 64.31320    192.4 1.634e+04 3.894e-09
 64.33072    190.9 1.607e+04 3.800e-09
 64.35117    189.9 1.549e+04 3.498e-09
 64.36685    189.3 1.479e+04 3.093e-09
 64.37708    189.4 1.420e+04 2.209e-09
 64.39206    189.2 1.386e+04 2.193e-09
 64.41250    189.4 1.358e+04 2.137e-09
 64.43073    189.6 1.338e+04 2.054e-09
 64.44095    190.2 1.318e+04 1.830e-09
 64.45339    190.5 1.315e+04 1.838e-09
 64.47383    190.9 1.308e+04 1.827e-09
 64.49428    191.4 1.305e+04 1.792e-09
 64.50483    191.8 1.306e+04 1.793e-09
 64.51506    192.3 1.317e+04 1.875e-09
 64.53517    192.5 1.327e+04 1.956e-09
 64.55561    192.7 1.343e+04 2.083e-09
 64.56871    192.7 1.371e+04 2.289e-09
 64.57893    193.0 1.412e+04 2.664e-09
 64.59650    192.8 1.450e+04 3.057e-09
 64.61695    192.5 1.490e+04 3.492e-09
 64.63259    191.9 1.515e+04 3.713e-09
 64.64281    192.2 1.557e+04 4.500e-09
 64.65784    191.5 1.557e+04 4.400e-09
 64.67828    190.6 1.542e+04 4.002e-09
 64.69647    189.6 1.494e+04 3.393e-09
 64.70669    190.5 1.522e+04 3.706e-09
 64.71917    189.6 1.457e+04 2.936e-09
 64.73962    188.7 1.374e+04 2.354e-09
 64.76006    188.0 1.297e+04 1.985e-09
 64.77057    187.7 1.250e+04 1.796e-09
 64.77436    188.5 1.268e+04 1.817e-09
 64.78430    188.6 1.228e+04 1.500e-09
 64.80095    188.7 1.215e+04 1.432e-09
 64.82140    188.8 1.205e+04 1.369e-09
 64.83445    188.7 1.196e+04 1.304e-09
 64.84467    189.7 1.214e+04 1.405e-09
 64.86229    189.3 1.199e+04 1.300e-09
 64.88273    188.8 1.179e+04 1.201e-09
 64.89832    188.0 1.154e+04 1.103e-09
 64.90855    188.6 1.156e+04 1.051e-09
 64.92362    187.6 1.130e+04 1.005e-09
 64.94407    186.4 1.125e+04 1.010e-09
 64.96220    185.3 1.127e+04 1.038e-09
 64.97242    185.4 1.208e+04 1.251e-09
 64.98496    183.9 1.231e+04 1.416e-09
 65.00540    182.7 1.257e+04 1.679e-09
 65.02585    181.9 1.271e+04 1.991e-09
 65.03630    181.7 1.278e+04 2.220e-09
 65.04652    181.6 1.340e+04 2.721e-09
 65.06674    181.4 1.315e+04 2.643e-09
 65.08718    181.3 1.288e+04 2.392e-09
 65.10018    181.3 1.254e+04 2.034e-09
 65.11040    181.2 1.249e+04 1.940e-09
 65.13839    180.6 1.198e+04 1.421e-09
 65.16425    180.1 1.099e+04 8.229e-10
 65.18470    179.3 1.058e+04 7.366e-10
 65.22027    179.2 9.810e+03 5.134e-10
 65.26116    179.4 9.403e+03 4.221e-10
 65.29201    180.3 9.379e+03 4.164e-10
 65.31245    180.9 9.694e+03 5.438e-10
 65.34294    182.0 9.740e+03 5.582e-10
 65.38383    182.9 9.870e+03 6.021e-10
 65.41452    183.3 9.965e+03 6.410e-10
 65.43002    183.8 9.693e+03 5.590e-10
 65.44021    184.4 1.003e+04 7.001e-10
 65.46561    184.6 9.918e+03 6.529e-10
 65.50650    184.8 9.663e+03 5.590e-10
 65.54739    184.9 9.339e+03 4.575e-10
 65.58828    185.4 8.741e+03 2.880e-10
 65.62917    185.5 8.455e+03 2.381e-10
 65.67006    186.0 8.236e+03 2.033e-10
 65.69572    186.8 8.049e+03 1.733e-10
 65.71617    187.4 8.092e+03 1.857e-10
 65.75183    188.5 7.944e+03 1.589e-10
 65.79272    189.6 7.768e+03 1.275e-10
 65.82348    190.6 7.584e+03 9.788e-11
 65.84392    191.2 7.678e+03 1.087e-10
 65.87450    192.1 7.471e+03 8.114e-11
 65.91539    192.8 7.291e+03 6.452e-11
 65.95124    193.8 7.202e+03 6.098e-11
 65.97168    194.3 7.213e+03 6.337e-11
 65.99717    195.4 7.212e+03 6.333e-11
 66.03806    196.5 7.228e+03 6.427e-11
 66.07895    197.6 7.282e+03 6.958e-11
 66.11984    199.2 7.444e+03 8.777e-11
 66.16073    200.3 7.673e+03 1.144e-10
 66.20162    201.4 8.026e+03 1.579e-10
 66.22719    202.1 8.462e+03 2.213e-10
 66.24764    202.5 8.316e+03 1.998e-10
 66.28340    202.6 8.681e+03 2.565e-10
 66.32429    202.3 9.043e+03 3.190e-10
 66.35495    201.7 9.327e+03 3.735e-10
 66.37539    202.3 9.089e+03 3.063e-10
 66.40607    201.5 9.343e+03 3.473e-10
 66.42895    200.7 9.571e+03 4.020e-10
 66.43908    200.8 9.487e+03 3.754e-10
 66.45699    200.2 9.720e+03 4.305e-10
 66.47743    199.2 1.018e+04 5.530e-10
 66.49273    198.1 1.071e+04 7.576e-10
 66.50295    198.5 1.042e+04 6.248e-10
 66.51832    197.4 1.091e+04 9.087e-10
 66.53877    196.0 1.128e+04 1.355e-09
 66.55661    192.4 1.312e+04 2.327e-09
 66.56683    193.4 1.247e+04 1.957e-09
 66.57966    187.3 1.561e+04 3.606e-09
 66.60010    178.7 1.852e+04 6.873e-09
 66.62049    170.2 1.903e+04 9.374e-09
 66.64093    165.6 1.810e+04 7.795e-09
 66.66144    160.6 1.712e+04 7.012e-09
 66.68188    157.6 1.572e+04 4.856e-09
 66.69459    155.6 1.419e+04 2.684e-09
 66.70481    156.8 1.442e+04 3.113e-09
 66.71528    154.7 1.325e+04 1.746e-09
 66.72550    155.1 1.414e+04 2.564e-09
 66.74322    153.0 1.312e+04 1.576e-09
 66.75847    150.7 1.232e+04 1.254e-09
 66.76869    152.1 1.271e+04 1.391e-09
 66.78411    150.8 1.233e+04 1.338e-09
 66.80455    149.8 1.239e+04 1.380e-09
 66.82234    149.3 1.236e+04 1.399e-09
 66.83257    150.0 1.240e+04 1.402e-09
 66.85576    148.8 1.246e+04 1.483e-09
 66.88642    148.1 1.226e+04 1.387e-09
 66.90686    148.7 1.225e+04 1.292e-09
 66.93764    148.1 1.175e+04 9.710e-10
 66.97853    148.0 1.106e+04 6.265e-10
 67.01417    148.0 1.030e+04 3.733e-10
 67.03462    148.2 9.963e+03 2.561e-10
 67.06031    148.4 9.462e+03 1.956e-10
 67.10120    149.3 9.319e+03 1.863e-10
 67.14193    150.8 9.292e+03 1.863e-10
 67.18282    153.4 9.339e+03 2.033e-10
 67.22387    155.2 9.426e+03 2.119e-10
 67.26476    156.7 9.447e+03 2.112e-10
 67.29013    158.1 9.468e+03 2.051e-10
 67.31058    158.8 9.644e+03 2.507e-10
 67.34653    160.0 9.643e+03 2.365e-10
 67.38742    161.1 9.585e+03 2.154e-10
 67.41789    162.4 9.544e+03 2.080e-10
 67.43833    163.1 9.693e+03 2.407e-10
 67.46920    164.4 9.703e+03 2.338e-10
 67.51009    165.8 9.745e+03 2.381e-10
 67.54564    167.1 9.857e+03 2.493e-10
 67.56609    167.8 9.899e+03 2.484e-10
 67.59187    169.0 9.934e+03 2.366e-10
 67.63276    170.2 9.934e+03 2.225e-10
 67.67340    171.5 9.909e+03 2.113e-10
 67.69384    172.3 9.885e+03 1.789e-10
 67.71454    173.7 9.863e+03 1.762e-10
 67.75543    175.1 9.877e+03 1.796e-10
 67.79632    176.5 9.957e+03 2.034e-10
 67.82160    177.8 1.022e+04 2.885e-10
 67.84205    178.5 1.008e+04 2.194e-10
 67.87810    179.9 1.046e+04 3.566e-10
 67.91899    181.3 1.096e+04 5.924e-10
 67.94936    182.7 1.147e+04 8.636e-10
 67.96980    183.4 1.110e+04 6.413e-10
 67.99598    184.6 1.146e+04 8.025e-10
 68.01642    184.6 1.104e+04 6.238e-10
 68.04166    185.6 1.111e+04 6.353e-10
 68.07711    186.7 1.106e+04 5.996e-10
 68.09756    187.9 1.094e+04 5.306e-10
 68.12344    189.3 1.084e+04 4.696e-10
 68.16433    191.0 1.060e+04 3.553e-10
 68.20487    192.9 1.031e+04 2.362e-10
 68.22531    193.9 1.033e+04 2.564e-10
 68.24611    195.8 1.012e+04 1.739e-10
 68.28700    197.6 9.916e+03 1.159e-10
 68.32789    199.6 9.774e+03 9.353e-11
 68.35307    201.7 9.757e+03 9.278e-11
 68.37351    202.7 9.769e+03 1.095e-10
 68.40967    204.8 9.776e+03 1.099e-10
 68.45056    206.8 9.824e+03 1.135e-10
 68.48083    208.7 9.923e+03 1.254e-10
 68.50127    209.5 9.979e+03 1.441e-10
 68.53234    211.1 1.009e+04 1.623e-10
 68.57323    212.5 1.022e+04 1.829e-10
 68.60858    213.8 1.035e+04 1.960e-10
 68.62903    214.3 1.042e+04 2.111e-10
 68.65501    215.3 1.043e+04 2.100e-10
 68.69590    216.2 1.044e+04 2.019e-10
 68.73634    217.0 1.040e+04 1.798e-10
 68.75678    217.4 1.044e+04 1.908e-10
 68.77768    218.3 1.035e+04 1.596e-10
 68.81857    219.3 1.027e+04 1.315e-10
 68.85946    220.2 1.018e+04 1.123e-10
 68.88454    221.2 1.009e+04 1.080e-10
 68.90498    221.8 1.019e+04 1.181e-10
 68.94124    222.9 1.015e+04 1.174e-10
 68.98213    224.0 1.014e+04 1.183e-10
 69.01230    225.2 1.013e+04 1.228e-10
 69.03274    225.7 1.020e+04 1.257e-10
 69.06390    226.9 1.020e+04 1.309e-10
 69.10479    228.1 1.021e+04 1.458e-10
 69.14005    229.3 1.027e+04 1.717e-10
 69.16050    229.7 1.025e+04 1.501e-10
 69.18657    231.0 1.030e+04 1.731e-10
 69.22746    232.1 1.035e+04 1.870e-10
 69.26781    233.0 1.035e+04 1.869e-10
 69.28825    233.3 1.024e+04 1.631e-10
 69.29693    234.1 1.022e+04 1.604e-10
 69.31738    233.9 1.043e+04 2.253e-10
 69.35013    234.7 1.037e+04 2.067e-10
 69.39102    235.4 1.026e+04 1.747e-10
 69.41601    236.0 1.016e+04 1.411e-10
 69.43645    236.5 1.016e+04 1.462e-10
 69.47280    237.2 1.005e+04 1.206e-10
 69.51369    237.9 9.904e+03 1.039e-10
 69.54376    238.8 9.780e+03 1.006e-10
 69.56421    239.5 9.801e+03 1.097e-10
 69.59547    240.6 9.784e+03 1.097e-10
 69.63636    242.0 9.773e+03 1.109e-10
 69.67152    243.4 9.768e+03 1.156e-10
 69.69197    244.0 9.802e+03 1.220e-10
 69.71814    245.5 9.817e+03 1.295e-10
 69.75903    247.0 9.842e+03 1.384e-10
 69.79928    248.5 9.874e+03 1.466e-10
 69.81972    249.2 9.915e+03 1.503e-10
 69.84081    250.7 9.966e+03 1.587e-10
 69.88170    252.1 1.002e+04 1.634e-10
 69.92259    253.5 1.004e+04 1.640e-10
 69.94748    254.8 1.006e+04 1.626e-10
 69.96792    255.4 1.005e+04 1.615e-10
 70.00437    256.7 1.007e+04 1.539e-10
 70.04526    258.1 1.005e+04 1.423e-10
 70.07523    259.6 1.002e+04 1.323e-10
 70.09568    260.0 9.995e+03 1.181e-10
 70.12704    261.4 9.987e+03 1.095e-10
 70.16793    262.8 1.000e+04 1.086e-10
 70.20299    264.1 1.002e+04 1.106e-10
 70.22343    264.5 9.842e+03 1.070e-10
 70.24971    265.5 9.857e+03 1.154e-10
 70.29060    266.3 9.922e+03 1.366e-10
 70.33075    266.8 1.006e+04 1.715e-10
 70.35119    267.4 1.006e+04 1.719e-10
 70.37238    267.8 1.022e+04 2.199e-10
 70.41327    268.0 1.036e+04 2.749e-10
 70.45416    268.1 1.048e+04 3.297e-10
 70.47895    268.3 1.058e+04 3.775e-10
 70.49939    269.0 1.063e+04 3.847e-10
 70.53594    269.2 1.070e+04 4.193e-10
 70.57683    269.4 1.077e+04 4.457e-10
 70.59788    269.4 1.086e+04 4.716e-10
 70.60732    269.7 1.076e+04 4.582e-10
 70.62715    270.2 1.071e+04 4.241e-10
 70.65860    270.1 1.089e+04 4.736e-10
 70.69949    269.9 1.113e+04 5.478e-10
 70.73446    269.3 1.136e+04 6.295e-10
 70.75490    269.8 1.113e+04 5.137e-10
 70.78127    269.1 1.124e+04 5.612e-10
 70.82216    268.3 1.124e+04 5.888e-10
 70.86222    267.7 1.119e+04 5.822e-10
 70.88266    268.6 1.095e+04 4.941e-10
 70.90394    268.5 1.085e+04 4.991e-10
 70.94483    268.5 1.076e+04 4.863e-10
 70.98572    268.7 1.066e+04 4.563e-10
 71.01042    269.0 1.052e+04 4.162e-10
 71.03086    270.2 1.057e+04 4.525e-10
 71.06750    270.5 1.050e+04 4.312e-10
 71.10839    271.0 1.040e+04 4.049e-10
 71.13817    271.6 1.030e+04 3.799e-10
 71.15862    272.4 1.040e+04 4.093e-10
 71.19017    273.0 1.024e+04 3.642e-10
 71.23106    273.6 1.008e+04 3.254e-10
 71.26593    274.5 9.948e+03 2.947e-10
 71.28637    275.0 9.800e+03 2.551e-10
 71.31284    276.0 9.646e+03 2.320e-10
 71.35373    277.2 9.553e+03 2.225e-10
 71.39368    278.6 9.498e+03 2.170e-10
 71.41413    279.1 9.328e+03 1.910e-10
 71.43551    280.8 9.302e+03 1.875e-10
 71.47640    282.7 9.264e+03 1.813e-10
 71.51729    284.6 9.219e+03 1.724e-10
 71.54189    286.6 9.177e+03 1.623e-10
 71.56233    287.4 9.102e+03 1.539e-10
 71.59907    289.4 9.074e+03 1.460e-10
 71.63996    291.4 9.055e+03 1.397e-10
 71.66964    293.4 9.047e+03 1.358e-10
 71.69009    294.1 8.963e+03 1.282e-10
 71.72174    296.1 8.961e+03 1.269e-10
 71.76263    298.2 8.960e+03 1.264e-10
 71.79740    300.3 8.945e+03 1.259e-10
 71.81784    301.1 8.838e+03 1.137e-10
 71.84441    303.3 8.809e+03 1.135e-10
 71.87839    305.6 8.767e+03 1.127e-10
 71.89883    305.3 8.863e+03 1.207e-10
 71.92515    307.7 8.761e+03 1.151e-10
 71.94560    308.6 8.689e+03 1.077e-10
 71.96708    311.2 8.673e+03 1.077e-10
 72.00797    313.8 8.671e+03 1.084e-10
 72.04886    316.4 8.669e+03 1.116e-10
 72.07335    319.0 8.683e+03 1.196e-10
 72.09380    320.0 8.636e+03 1.125e-10
 72.13064    322.6 8.677e+03 1.227e-10
 72.17153    325.0 8.756e+03 1.384e-10
 72.20111    327.3 8.962e+03 1.654e-10
 72.22156    328.4 8.853e+03 1.531e-10
 72.25331    330.5 9.045e+03 1.799e-10
 72.29419    332.4 9.364e+03 2.188e-10
 72.32887    333.5 9.689e+03 2.685e-10
 72.34931    335.1 9.457e+03 2.360e-10
 72.37597    336.2 9.753e+03 2.740e-10
 72.40287    336.1 1.008e+04 3.356e-10
 72.41299    336.8 9.749e+03 2.773e-10
 72.42689    337.4 9.882e+03 3.002e-10
 72.44734    337.7 1.031e+04 3.896e-10
 72.46665    337.9 1.083e+04 5.458e-10
 72.47687    339.1 1.009e+04 3.272e-10
 72.48823    339.0 1.051e+04 4.305e-10
 72.50867    338.8 1.092e+04 5.835e-10
 72.52867    338.7 1.126e+04 7.726e-10
 72.53889    338.8 1.148e+04 9.129e-10
 72.54075    339.0 1.179e+04 1.142e-09
 72.55097    339.7 1.129e+04 8.029e-10
 72.57001    340.0 1.167e+04 1.080e-09
 72.59045    340.5 1.204e+04 1.383e-09
 72.60463    341.2 1.237e+04 1.642e-09
 72.61485    342.0 1.219e+04 1.445e-09
 72.63134    342.7 1.250e+04 1.666e-09
 72.65178    343.4 1.257e+04 1.685e-09
 72.66851    344.0 1.256e+04 1.665e-09
 72.67873    344.6 1.236e+04 1.522e-09
 72.69267    345.4 1.227e+04 1.477e-09
 72.71312    346.3 1.206e+04 1.355e-09
 72.73239    347.3 1.175e+04 1.190e-09
 72.74261    347.8 1.158e+04 1.070e-09
 72.75401    348.7 1.140e+04 9.855e-10
 72.77445    349.5 1.139e+04 9.717e-10
 72.79490    350.0 1.143e+04 9.800e-10
 72.80649    350.1 1.157e+04 1.033e-09
 72.81671    350.4 1.152e+04 9.881e-10
 72.83579    350.4 1.197e+04 1.187e-09
 72.85623    350.3 1.264e+04 1.527e-09
 72.87036    350.0 1.341e+04 1.998e-09
 72.88059    350.4 1.350e+04 2.065e-09
 72.89712    349.9 1.429e+04 2.541e-09
 72.91757    348.8 1.472e+04 2.605e-09
 72.93424    347.0 1.475e+04 2.550e-09
 72.94446    347.7 1.502e+04 2.777e-09
 72.95846    345.4 1.507e+04 2.453e-09
 72.97890    342.6 1.475e+04 1.765e-09
 72.99812    339.3 1.388e+04 1.124e-09
 73.00834    339.9 1.436e+04 1.294e-09
 73.01979    336.5 1.306e+04 8.782e-10
 73.04024    333.3 1.203e+04 7.321e-10
 73.07100    330.2 1.199e+04 7.273e-10
 73.10167    327.6 1.207e+04 7.875e-10
 73.12202    326.4 1.223e+04 8.656e-10
 73.13610    325.4 1.260e+04 9.599e-10
 73.15664    326.2 1.301e+04 1.010e-09
 73.17924    323.7 1.384e+04 1.056e-09
 73.18937    321.1 1.494e+04 1.244e-09
 73.19998    319.0 1.564e+04 1.342e-09
 73.21020    321.4 1.410e+04 1.002e-09
 73.22424    320.1 1.443e+04 9.694e-10
 73.24469    319.1 1.475e+04 8.762e-10
 73.26385    318.0 1.451e+04 7.454e-10
 73.27408    319.9 1.398e+04 5.975e-10
 73.28558    318.6 1.324e+04 4.842e-10
 73.30602    317.2 1.233e+04 4.017e-10
 73.32647    316.1 1.158e+04 3.547e-10
 73.33795    315.3 1.113e+04 3.375e-10
 73.34818    316.1 1.104e+04 3.268e-10
 73.36736    315.5 1.083e+04 3.214e-10
 73.38780    315.4 1.073e+04 3.191e-10
 73.40183    315.3 1.062e+04 3.126e-10
 73.41206    315.7 1.063e+04 3.118e-10
 73.42869    315.6 1.046e+04 3.006e-10
 73.44914    315.6 1.026e+04 2.874e-10
 73.46571    315.6 1.009e+04 2.793e-10
 73.47593    315.9 1.027e+04 2.903e-10
 73.49002    315.8 1.025e+04 2.911e-10
 73.51047    315.7 1.025e+04 2.982e-10
 73.52959    315.5 1.031e+04 3.224e-10
 73.53981    315.4 1.063e+04 3.662e-10
 73.55136    315.1 1.083e+04 4.200e-10
 73.57180    314.8 1.108e+04 4.867e-10
 73.59225    314.5 1.134e+04 5.583e-10
 73.60369    314.1 1.155e+04 6.230e-10
 73.61391    313.4 1.186e+04 7.130e-10
 73.63314    312.9 1.192e+04 7.437e-10
 73.65358    312.3 1.193e+04 7.598e-10
 73.66757    311.1 1.207e+04 7.954e-10
 73.67779    307.1 1.345e+04 9.734e-10
 73.69447    302.9 1.446e+04 1.107e-09
 73.70976    300.3 1.497e+04 1.250e-09
 73.71993    298.2 1.594e+04 1.496e-09
 73.73015    293.2 1.855e+04 2.508e-09
 73.73646    284.8 2.275e+04 7.156e-09
 73.74157    272.6 2.654e+04 2.861e-08
 73.75060    265.3 2.770e+04 5.698e-08
 73.76082    259.7 2.866e+04 6.997e-08
 73.76840    254.6 2.902e+04 6.830e-08
 73.77351    247.4 2.999e+04 5.289e-08
 73.78127    242.1 3.237e+04 3.021e-08
 73.79149    235.6 3.603e+04 1.295e-08
 73.80034    227.6 3.966e+04 4.886e-09
 73.80550    217.6 3.932e+04 1.592e-09
 73.81714    198.5 1.950e+04 1.301e-09
 73.82962    187.1 1.417e+04 1.636e-09
 73.83984    187.2 1.490e+04 1.912e-09
 73.85803    179.6 1.521e+04 2.466e-09
 73.86942    171.5 1.700e+04 3.718e-09
 73.87965    167.1 1.762e+04 4.415e-09
 73.89892    159.2 1.832e+04 5.701e-09
 73.91937    151.6 1.840e+04 5.846e-09
 73.93330    143.7 1.855e+04 5.855e-09
 73.94352    143.0 1.787e+04 4.683e-09
 73.96026    134.4 1.830e+04 4.753e-09
 73.98070    123.5 1.993e+04 5.851e-09
 73.99718    113.1 2.144e+04 1.025e-08
 74.00740    115.3 2.026e+04 7.477e-09
 74.02159    108.1 2.141e+04 1.275e-08
 74.04204    102.5 2.177e+04 1.364e-08
 74.06106     97.8 2.153e+04 1.176e-08
 74.07128    100.6 2.150e+04 1.206e-08
 74.08293     95.8 2.100e+04 8.523e-09
 74.10337     89.8 1.935e+04 4.693e-09
 74.12382     83.1 1.680e+04 3.086e-09
 74.13516     78.5 1.589e+04 2.989e-09
 74.14538     81.8 1.636e+04 3.513e-09
 74.16471     78.7 1.637e+04 3.675e-09
 74.18515     76.6 1.652e+04 3.853e-09
 74.19904     74.9 1.638e+04 3.747e-09
 74.20926     77.1 1.682e+04 4.246e-09
 74.22604     75.8 1.641e+04 3.846e-09
 74.24649     74.6 1.556e+04 2.975e-09
 74.26292     73.5 1.444e+04 2.074e-09
 74.27314     75.3 1.500e+04 2.477e-09
 74.28737     73.4 1.393e+04 1.702e-09
 74.30782     72.6 1.269e+04 1.176e-09
 74.32679     70.9 1.235e+04 9.105e-10
 74.33702     72.2 1.261e+04 1.103e-09
 74.34871     72.5 1.228e+04 9.487e-10
 74.37947     72.1 1.243e+04 9.258e-10
 74.42046     70.6 1.151e+04 6.233e-10
 74.45474     69.9 1.045e+04 4.007e-10
 74.47368     71.2 1.100e+04 5.513e-10
 74.48029     71.3 1.105e+04 5.305e-10
 74.50224     71.3 1.013e+04 3.482e-10
 74.54313     71.7 9.465e+03 2.337e-10
 74.58250     72.5 9.044e+03 1.630e-10
 74.60295     73.3 9.427e+03 2.372e-10
 74.62491     74.0 9.056e+03 1.692e-10
 74.66580     74.9 8.904e+03 1.532e-10
 74.70669     75.9 8.892e+03 1.562e-10
 74.73070     77.3 8.949e+03 1.735e-10
 74.75115     77.2 9.021e+03 1.885e-10
 74.78847     78.0 9.329e+03 2.504e-10
 74.82936     77.9 9.986e+03 3.878e-10
 74.85846     77.3 1.090e+04 6.417e-10
 74.87890     78.1 1.062e+04 5.574e-10
 74.91114     76.6 1.152e+04 8.631e-10
 74.93246     73.7 1.230e+04 1.224e-09
 74.94259     74.1 1.215e+04 1.105e-09
 74.96206     73.6 1.238e+04 1.301e-09
 74.98250     72.3 1.279e+04 1.572e-09
 74.99624     70.9 1.314e+04 1.833e-09
 75.00646     70.7 1.275e+04 1.498e-09
 75.02339     68.7 1.315e+04 1.777e-09
 75.04384     66.7 1.346e+04 2.087e-09
 75.06012     64.0 1.342e+04 2.124e-09
 75.07034     64.0 1.317e+04 1.978e-09
 75.08473     64.3 1.246e+04 1.770e-09
 75.10517     62.4 1.291e+04 1.722e-09
 75.12035     62.0 1.280e+04 1.594e-09
 75.12895     62.5 1.200e+04 1.197e-09
 75.13422     62.5 1.208e+04 1.294e-09
 75.14606     59.6 1.252e+04 1.204e-09
 75.16650     59.2 1.224e+04 1.082e-09
 75.19727     55.8 1.177e+04 8.947e-10
 75.23826     53.0 1.051e+04 6.191e-10
 75.26217     52.7 9.783e+03 4.537e-10
 75.28262     52.6 9.959e+03 4.971e-10
 75.32004     52.4 9.695e+03 4.082e-10
 75.36093     51.9 1.001e+04 4.413e-10
 75.38983     48.3 1.092e+04 6.636e-10
 75.39995     48.0 1.122e+04 7.731e-10
 75.41184     48.9 1.115e+04 8.070e-10
 75.43229     47.3 1.203e+04 1.170e-09
 75.45273     48.4 1.168e+04 1.149e-09
 75.46383     48.2 1.204e+04 1.286e-09
 75.47405     47.7 1.224e+04 1.391e-09
 75.49362     47.7 1.244e+04 1.478e-09
 75.51407     47.2 1.273e+04 1.526e-09
 75.52771     45.8 1.317e+04 1.600e-09
 75.53793     45.2 1.318e+04 1.604e-09
 75.55496     43.5 1.324e+04 1.723e-09
 75.57540     42.3 1.307e+04 1.721e-09
 75.59159     41.8 1.287e+04 1.868e-09
 75.60181     41.7 1.287e+04 1.783e-09
 75.61629     40.8 1.327e+04 2.011e-09
 75.63674     36.7 1.532e+04 3.049e-09
 75.65547     32.7 1.650e+04 4.564e-09
 75.66569     30.2 1.718e+04 5.747e-09
 75.67763     28.9 1.702e+04 7.816e-09
 75.69807     28.9 1.652e+04 8.090e-09
 75.71852     30.2 1.559e+04 6.027e-09
 75.72957     30.5 1.472e+04 3.253e-09
 75.73979     30.2 1.574e+04 4.633e-09
 75.75941     26.6 1.574e+04 2.132e-09
 75.77082     20.9 1.260e+04 1.065e-09
 75.78105     22.1 1.281e+04 1.094e-09
 75.79344     20.2 1.114e+04 8.185e-10
 75.80367     19.4 1.158e+04 1.056e-09
 75.82074     20.9 1.109e+04 9.271e-10
 75.84119     22.7 1.100e+04 7.904e-10
 75.85732     24.1 1.086e+04 5.702e-10
 75.86755     23.4 1.102e+04 6.362e-10
 75.88208     23.7 1.007e+04 3.939e-10
 75.90252     25.2 9.865e+03 3.125e-10
 75.92130     24.5 9.871e+03 2.821e-10
 75.94184     23.5 9.996e+03 2.976e-10
 75.97427     24.2 9.650e+03 2.552e-10
 76.01516     26.4 9.584e+03 2.768e-10
 76.04915     28.8 9.506e+03 1.901e-10
 76.06960     28.2 9.765e+03 2.407e-10
 76.09694     29.6 9.097e+03 1.393e-10
 76.13783     31.0 8.677e+03 9.749e-11
 76.17691     33.1 8.539e+03 8.056e-11
 76.19735     32.9 8.530e+03 8.424e-11
 76.21961     35.2 8.480e+03 7.456e-11
 76.26050     37.4 8.493e+03 7.626e-11
 76.30139     39.3 8.538e+03 8.589e-11
 76.32511     41.8 8.518e+03 9.835e-11
 76.34555     41.6 8.486e+03 9.689e-11
 76.38317     44.1 8.560e+03 9.910e-11
 76.42406     46.1 8.644e+03 9.974e-11
 76.45287     47.9 8.733e+03 1.037e-10
 76.47331     48.0 8.745e+03 1.101e-10
 76.50584     50.0 8.745e+03 1.098e-10
 76.54673     52.3 8.683e+03 1.015e-10
 76.58062     54.7 8.598e+03 8.267e-11
 76.60107     55.2 8.555e+03 6.927e-11
 76.62851     57.4 8.540e+03 5.124e-11
 76.66940     59.4 8.524e+03 3.919e-11
 76.70838     61.7 8.456e+03 3.555e-11
 76.72882     62.2 8.457e+03 3.465e-11
 76.75118     64.8 8.459e+03 3.507e-11
 76.79207     67.6 8.482e+03 3.720e-11
 76.83296     70.4 8.535e+03 4.214e-11
 76.85658     73.2 8.639e+03 5.101e-11
 76.87702     74.0 8.651e+03 5.171e-11
 76.91474     76.8 8.802e+03 6.668e-11
 76.95563     79.6 9.008e+03 9.092e-11
 76.98434     82.2 9.242e+03 1.296e-10
 77.00478     83.1 9.355e+03 1.425e-10
 77.03741     86.0 9.585e+03 1.986e-10
 77.06175     89.2 1.008e+04 2.898e-10
 77.08219     88.6 1.003e+04 2.892e-10
 77.11209     90.6 1.054e+04 4.106e-10
 77.13254     91.3 1.104e+04 5.396e-10
 77.16008     93.4 1.143e+04 7.198e-10
 77.20097     96.2 1.168e+04 9.164e-10
 77.23153     97.4 1.189e+04 1.058e-09
 77.24987     99.5 1.191e+04 1.088e-09
 77.26010     99.3 1.219e+04 1.272e-09
 77.27233    100.9 1.234e+04 1.297e-09
 77.29277    101.5 1.247e+04 1.319e-09
 77.31322    103.2 1.255e+04 1.313e-09
 77.32397    104.3 1.259e+04 1.315e-09
 77.33420    104.8 1.283e+04 1.501e-09
 77.36443    106.4 1.286e+04 1.426e-09
 77.38805    109.2 1.295e+04 1.439e-09
 77.39817    108.4 1.320e+04 1.628e-09
 77.41544    109.4 1.318e+04 1.597e-09
 77.43589    111.5 1.322e+04 1.528e-09
 77.45173    112.7 1.327e+04 1.473e-09
 77.46195    112.9 1.313e+04 1.424e-09
 77.47678    114.4 1.319e+04 1.343e-09
 77.49722    116.0 1.336e+04 1.280e-09
 77.51561    117.4 1.364e+04 1.181e-09
 77.52583    117.1 1.297e+04 8.034e-10
 77.53811    118.0 1.331e+04 6.705e-10
 77.55856    118.7 1.385e+04 5.992e-10
 77.57900    119.5 1.414e+04 6.007e-10
 77.58971    120.4 1.442e+04 6.228e-10
 77.59993    119.8 1.320e+04 3.990e-10
 77.61989    120.8 1.323e+04 4.324e-10
 77.64033    121.8 1.304e+04 5.001e-10
 77.65359    122.8 1.286e+04 6.309e-10
 77.66381    122.5 1.195e+04 5.069e-10
 77.68122    123.8 1.250e+04 6.716e-10
 77.70167    125.4 1.312e+04 9.429e-10
 77.71203    127.2 1.355e+04 1.322e-09
 77.71760    127.2 1.219e+04 7.198e-10
 77.72769    127.2 1.235e+04 7.089e-10
 77.74256    128.9 1.328e+04 1.110e-09
 77.76300    130.9 1.419e+04 1.701e-09
 77.78134    133.4 1.544e+04 2.665e-09
 77.79157    133.4 1.644e+04 3.374e-09
 77.80389    135.3 1.721e+04 4.379e-09
 77.81835    136.7 1.747e+04 5.026e-09
 77.82341    136.3 1.771e+04 5.588e-09
 77.82935    137.6 1.808e+04 6.656e-09
 77.83957    138.9 1.846e+04 7.897e-09
 77.84980    140.4 1.881e+04 9.302e-09
 77.85535    141.8 1.907e+04 1.078e-08
 77.86046    141.8 1.944e+04 1.300e-08
 77.87024    143.3 1.960e+04 1.470e-08
 77.88046    144.9 1.974e+04 1.653e-08
 77.88729    146.4 1.987e+04 1.854e-08
 77.89240    146.1 2.076e+04 2.352e-08
 77.90091    147.5 2.087e+04 2.657e-08
 77.91113    149.0 2.096e+04 3.040e-08
 77.91922    150.7 2.114e+04 3.493e-08
 77.92434    149.6 2.203e+04 6.113e-08
 77.93158    151.2 2.243e+04 7.232e-08
 77.94180    152.9 2.318e+04 9.006e-08
 77.95116    154.2 2.492e+04 1.205e-07
 77.95627    151.6 2.440e+04 3.031e-07
 77.96224    150.4 2.594e+04 3.534e-07
 77.97247    145.6 3.049e+04 3.124e-07
 77.98011    138.8 3.266e+04 3.223e-07
 77.98520    129.4 3.566e+04 2.849e-07
 77.98817    114.4 4.059e+04 2.460e-07
 77.99330    103.5 4.593e+04 8.503e-08
 78.00313     89.9 5.098e+04 3.265e-08
 78.01336     79.9 4.612e+04 1.626e-08
 78.02015     72.9 3.507e+04 1.219e-08
 78.02526     70.6 2.429e+04 1.018e-08
 78.03206     70.5 2.426e+04 9.907e-09
 78.03717     67.0 4.245e+04 1.696e-08
 78.04402     66.9 4.702e+04 2.182e-08
 78.05209     66.8 4.513e+04 5.465e-08
 78.05720     63.9 4.736e+04 2.563e-08
 78.06447     65.1 3.851e+04 1.276e-07
 78.07469     66.8 3.031e+04 4.332e-07
 78.08403     66.8 2.959e+04 5.034e-07
 78.08914     66.7 4.758e+04 7.147e-08
 78.09514     66.6 4.807e+04 6.900e-08
 78.10536     64.1 4.819e+04 7.201e-08
 78.11300     83.0 7.375e+04 2.526e-09
 78.11809     30.1 4.777e+04 1.775e-07
 78.12103     38.1 5.500e+04 1.457e-07
 78.12359     35.0 6.180e+04 6.883e-08
 78.12831     16.2 4.164e+04 6.970e-07
 78.13342     -3.1 1.821e+04 3.073e-05
 78.13700    -14.4 1.252e+04 1.447e-03
 78.13956    -13.3 1.655e+04 5.740e-05
 78.14364    -19.8 1.529e+04 1.006e-04
 78.14875    -27.7 1.865e+04 1.527e-05
 78.15297    -41.2 3.978e+04 2.280e-07
 78.15553    -39.1 4.012e+04 2.257e-07
 78.15898    -56.5 6.626e+04 8.764e-09
 78.16667    -75.4 4.137e+04 4.332e-09
 78.17691    -84.2 1.930e+04 3.195e-09
 78.18496    -83.0 1.762e+04 3.057e-09
 78.19007    -79.6 1.714e+04 2.768e-09
 78.19736    -76.9 1.680e+04 2.690e-09
 78.21274    -74.9 1.636e+04 2.654e-09
 78.23324    -71.4 1.516e+04 2.418e-09
 78.24894    -68.8 1.486e+04 2.184e-09
 78.25916    -65.9 1.494e+04 2.269e-09
 78.27413    -64.4 1.473e+04 2.053e-09
 78.29457    -63.2 1.448e+04 1.825e-09
 78.31281    -62.4 1.430e+04 1.643e-09
 78.32304    -60.3 1.465e+04 1.881e-09
 78.33546    -59.7 1.447e+04 1.709e-09
 78.35228    -59.2 1.427e+04 1.599e-09
 78.36250    -59.1 1.406e+04 1.455e-09
 78.37635    -58.7 1.398e+04 1.460e-09
 78.38691    -58.2 1.381e+04 1.532e-09
 78.39714    -56.7 1.406e+04 1.623e-09
 78.41724    -56.3 1.389e+04 1.650e-09
 78.43768    -55.7 1.367e+04 1.647e-09
 78.45079    -55.0 1.332e+04 1.558e-09
 78.46101    -53.9 1.346e+04 1.602e-09
 78.47857    -53.2 1.308e+04 1.416e-09
 78.49902    -52.4 1.271e+04 1.217e-09
 78.51467    -51.8 1.240e+04 1.049e-09
 78.52489    -50.9 1.257e+04 1.037e-09
 78.53991    -50.5 1.227e+04 9.195e-10
 78.56035    -50.0 1.202e+04 8.362e-10
 78.57855    -49.5 1.179e+04 7.774e-10
 78.58877    -48.9 1.192e+04 7.570e-10
 78.60124    -48.3 1.169e+04 7.152e-10
 78.62169    -47.5 1.148e+04 6.821e-10
 78.64213    -46.6 1.126e+04 6.413e-10
 78.65265    -45.5 1.094e+04 5.749e-10
 78.66287    -45.2 1.099e+04 5.796e-10
 78.68302    -43.6 1.062e+04 4.949e-10
 78.70347    -41.6 1.042e+04 4.203e-10
 78.71653    -40.5 1.050e+04 3.851e-10
 78.72675    -39.9 1.047e+04 3.875e-10
 78.75468    -39.9 1.057e+04 3.586e-10
 78.79567    -40.6 1.050e+04 3.165e-10
 78.83426    -40.7 1.029e+04 2.785e-10
 78.85470    -39.6 1.039e+04 2.875e-10
 78.87744    -39.5 1.012e+04 2.540e-10
 78.91833    -39.2 9.846e+03 2.300e-10
 78.95922    -38.4 9.573e+03 2.096e-10
 78.98246    -37.6 9.380e+03 1.929e-10
 79.00290    -36.8 9.459e+03 1.967e-10
 79.04100    -36.2 9.247e+03 1.811e-10
 79.08189    -35.8 9.148e+03 1.762e-10
 79.11021    -35.6 9.104e+03 1.797e-10
 79.13066    -34.8 9.161e+03 1.963e-10
 79.16367    -35.2 9.903e+03 2.872e-10
 79.20456    -36.1 1.108e+04 4.726e-10
 79.23797    -37.2 1.204e+04 7.348e-10
 79.25832    -37.4 1.182e+04 7.169e-10
 79.27592    -38.4 1.160e+04 7.766e-10
 79.29637    -38.4 1.157e+04 8.128e-10
 79.31187    -39.3 1.154e+04 8.670e-10
 79.32210    -39.1 1.154e+04 8.393e-10
 79.33726    -39.6 1.148e+04 8.848e-10
 79.35770    -39.8 1.144e+04 9.050e-10
 79.37575    -39.8 1.136e+04 8.954e-10
 79.38597    -39.3 1.150e+04 9.524e-10
 79.39859    -39.4 1.143e+04 9.085e-10
 79.41904    -39.6 1.130e+04 8.193e-10
 79.43948    -40.1 1.124e+04 7.649e-10
 79.44985    -40.8 1.125e+04 7.567e-10
 79.46007    -40.1 1.148e+04 8.834e-10
 79.48037    -41.2 1.169e+04 9.094e-10
 79.50082    -42.2 1.204e+04 1.100e-09
 79.51373    -42.9 1.236e+04 1.413e-09
 79.52395    -42.0 1.253e+04 1.540e-09
 79.54171    -42.3 1.278e+04 1.856e-09
 79.56215    -42.5 1.293e+04 2.059e-09
 79.57761    -42.7 1.296e+04 2.104e-09
 79.58783    -42.2 1.311e+04 2.233e-09
 79.60304    -42.4 1.296e+04 2.183e-09
 79.62349    -42.6 1.284e+04 1.958e-09
 79.64149    -43.2 1.290e+04 1.737e-09
 79.65079    -42.7 1.304e+04 1.870e-09
 79.65323    -43.8 1.311e+04 1.981e-09
 79.66438    -45.3 1.325e+04 1.968e-09
 79.68482    -48.2 1.410e+04 2.168e-09
 79.70527    -51.5 1.496e+04 2.961e-09
 79.72571    -53.4 1.579e+04 4.519e-09
 79.74616    -55.3 1.614e+04 5.556e-09
 79.76660    -57.1 1.619e+04 5.778e-09
 79.77946    -58.5 1.571e+04 5.199e-09
 79.78969    -58.1 1.612e+04 5.635e-09
 79.80749    -59.6 1.503e+04 3.657e-09
 79.82794    -61.5 1.349e+04 2.095e-09
 79.84334    -63.6 1.195e+04 1.275e-09
 79.85357    -63.8 1.203e+04 1.319e-09
 79.86883    -65.3 1.148e+04 9.954e-10
 79.88927    -65.8 1.155e+04 9.344e-10
 79.90722    -66.3 1.224e+04 9.476e-10
 79.91744    -66.2 1.217e+04 1.010e-09
 79.93016    -66.6 1.295e+04 1.141e-09
 79.95061    -67.1 1.365e+04 1.433e-09
 79.97105    -67.5 1.425e+04 1.906e-09
 79.99150    -67.1 1.431e+04 2.357e-09
 80.01194    -66.7 1.491e+04 3.073e-09
 80.03239    -66.2 1.579e+04 3.983e-09
 80.04520    -65.9 1.696e+04 5.139e-09
 80.05542    -65.3 1.685e+04 4.718e-09
 80.07327    -65.1 1.836e+04 6.136e-09
 80.09372    -65.4 1.968e+04 8.012e-09
 80.10908    -65.9 2.071e+04 1.040e-08
 80.11930    -65.3 2.109e+04 9.713e-09
 80.13461    -65.8 2.163e+04 1.268e-08
 80.15505    -66.2 2.161e+04 1.551e-08
 80.17296    -66.4 2.115e+04 1.737e-08
 80.18313    -66.3 2.145e+04 1.941e-08
 80.19074    -66.3 2.095e+04 1.989e-08
 80.20096    -66.3 2.064e+04 1.978e-08
 80.20991    -66.2 2.010e+04 1.944e-08
 80.21502    -66.0 2.049e+04 2.291e-08
 80.22140    -65.8 2.023e+04 2.238e-08
 80.23162    -65.7 1.990e+04 2.141e-08
 80.24185    -65.6 1.956e+04 1.990e-08
 80.25207    -65.1 1.952e+04 2.216e-08
 80.26229    -64.7 1.920e+04 1.972e-08
 80.27251    -64.3 1.895e+04 1.762e-08
 80.27890    -64.1 1.866e+04 1.581e-08
 80.28401    -63.9 1.896e+04 1.751e-08
 80.29296    -63.6 1.858e+04 1.529e-08
 80.29850    -63.2 1.828e+04 1.351e-08
 80.30361    -63.3 1.758e+04 1.180e-08
 80.31084    -62.9 1.735e+04 1.012e-08
 80.31595    -62.8 1.758e+04 1.130e-08
 80.32363    -62.3 1.736e+04 9.682e-09
 80.33385    -61.8 1.723e+04 8.456e-09
 80.34278    -61.4 1.711e+04 7.432e-09
 80.34789    -61.2 1.725e+04 7.971e-09
 80.35945    -61.2 1.696e+04 6.482e-09
 80.37481    -60.2 1.657e+04 5.135e-09
 80.38503    -59.7 1.695e+04 6.510e-09
 80.40039    -59.1 1.675e+04 5.621e-09
 80.42084    -58.5 1.675e+04 5.135e-09
 80.43869    -58.2 1.680e+04 5.063e-09
 80.44891    -57.4 1.723e+04 6.196e-09
 80.46173    -57.0 1.723e+04 6.123e-09
 80.48217    -56.6 1.720e+04 6.104e-09
 80.50257    -56.1 1.706e+04 6.065e-09
 80.52301    -54.1 1.684e+04 5.674e-09
 80.54351    -53.2 1.647e+04 4.985e-09
 80.56395    -52.3 1.606e+04 4.137e-09
 80.57667    -51.4 1.565e+04 3.237e-09
 80.58689    -50.7 1.537e+04 2.543e-09
 80.60484    -50.3 1.479e+04 1.775e-09
 80.62529    -50.1 1.400e+04 1.175e-09
 80.64055    -50.0 1.288e+04 7.558e-10
 80.65077    -50.0 1.198e+04 6.217e-10
 80.66618    -49.7 1.091e+04 4.495e-10
 80.68662    -48.5 1.045e+04 3.619e-10
 80.70443    -47.1 1.044e+04 3.151e-10
 80.71465    -46.0 1.045e+04 3.222e-10
 80.72751    -44.6 1.055e+04 3.057e-10
 80.74796    -43.3 1.077e+04 2.998e-10
 80.76830    -42.3 1.091e+04 2.947e-10
 80.79907    -41.6 1.087e+04 2.718e-10
 80.83238    -38.7 1.062e+04 2.255e-10
 80.85282    -36.8 1.069e+04 2.280e-10
 80.88104    -34.5 1.054e+04 2.034e-10
 80.92193    -31.6 1.050e+04 1.969e-10
 80.94416    -28.9 1.075e+04 2.044e-10
 80.96191    -28.2 1.136e+04 2.997e-10
 80.98058    -26.5 1.118e+04 2.997e-10
 81.00371    -23.6 1.145e+04 3.288e-10
 81.04460    -21.0 1.180e+04 3.639e-10
 81.07517    -20.5 1.168e+04 3.660e-10
 81.09552    -19.4 1.148e+04 3.478e-10
 81.10814    -18.5 1.124e+04 3.417e-10
 81.11836    -16.9 1.091e+04 3.153e-10
 81.13641    -15.4 1.157e+04 4.357e-10
 81.15685    -14.1 1.240e+04 6.124e-10
 81.17202    -12.3 1.306e+04 8.302e-10
 81.18224    -10.6 1.299e+04 7.944e-10
 81.19774     -8.8 1.349e+04 1.008e-09
 81.21819     -6.8 1.387e+04 1.216e-09
 81.23589     -4.7 1.423e+04 1.424e-09
 81.24612     -3.0 1.407e+04 1.347e-09
 81.25908     -1.0 1.444e+04 1.554e-09
 81.27952     -0.1 1.497e+04 1.802e-09
 81.29977     -1.7 2.023e+04 1.867e-09
 81.30999      1.6 1.873e+04 1.658e-09
 81.31525    -14.6 1.597e+04 1.922e-09
 81.32543    -41.4 2.936e+04 2.303e-09
 81.33565    -36.3 4.107e+04 3.651e-09
 81.34184    -94.0 8.904e+04 7.384e-09
 81.34695    -78.6 9.838e+04 3.186e-09
 81.35351   -117.4 5.696e+04 9.159e-08
 81.35776   -135.6 3.736e+04 9.550e-07
 81.36031   -131.3 3.957e+04 6.587e-07
 81.36371   -148.6 2.872e+04 3.746e-06
 81.36882   -189.0 2.597e+04 4.802e-06
 81.37373   -245.2 1.984e+04 1.125e-06
 81.37628   -230.6 2.139e+04 2.077e-06
 81.37904   -286.2 1.920e+04 8.926e-08
 81.38416   -298.2 2.472e+04 1.661e-08
 81.38927   -300.2 2.451e+04 1.350e-08
 81.39696   -302.9 2.372e+04 1.222e-08
 81.40571   -308.0 2.167e+04 9.789e-09
 81.41083   -307.3 2.186e+04 9.582e-09
 81.41743   -310.4 2.068e+04 7.517e-09
 81.42765   -312.2 1.999e+04 5.851e-09
 81.43765   -313.9 1.911e+04 4.716e-09
 81.44276   -313.4 1.914e+04 4.702e-09
 81.44809   -314.3 1.861e+04 4.082e-09
 81.46348   -315.4 1.827e+04 3.567e-09
 81.48397   -317.5 1.737e+04 2.642e-09
 81.50163   -319.6 1.614e+04 1.886e-09
 81.51185   -318.9 1.620e+04 1.875e-09
 81.52486   -320.2 1.554e+04 1.599e-09
 81.54531   -321.2 1.534e+04 1.544e-09
 81.56551   -321.9 1.530e+04 1.539e-09
 81.57573   -321.5 1.540e+04 1.539e-09
 81.58422   -322.3 1.535e+04 1.601e-09
 81.59444   -322.4 1.527e+04 1.702e-09
 81.60664   -323.3 1.525e+04 1.766e-09
 81.62709   -324.3 1.523e+04 1.802e-09
 81.63961   -325.4 1.522e+04 1.803e-09
 81.64983   -325.2 1.529e+04 1.761e-09
 81.66798   -326.3 1.513e+04 1.694e-09
 81.68842   -327.3 1.491e+04 1.562e-09
 81.70349   -328.2 1.466e+04 1.415e-09
 81.71371   -328.1 1.473e+04 1.406e-09
 81.72931   -328.9 1.446e+04 1.294e-09
 81.74975   -329.7 1.426e+04 1.220e-09
 81.76736   -330.3 1.414e+04 1.201e-09
 81.77759   -330.1 1.429e+04 1.252e-09
 81.79064   -330.6 1.426e+04 1.256e-09
 81.81109   -331.0 1.408e+04 1.352e-09
 81.83124   -331.3 1.413e+04 1.515e-09
 81.84146   -331.0 1.435e+04 1.634e-09
 81.85198   -331.2 1.446e+04 1.852e-09
 81.87242   -331.3 1.463e+04 2.103e-09
 81.89287   -331.5 1.490e+04 2.403e-09
 81.90534   -332.0 1.525e+04 2.813e-09
 81.91556   -331.8 1.539e+04 2.930e-09
 81.93376   -332.5 1.584e+04 3.527e-09
 81.95420   -333.2 1.646e+04 4.426e-09
 81.96922   -334.0 1.727e+04 5.747e-09
 81.97944   -333.8 1.727e+04 5.747e-09
 81.99509   -334.6 1.816e+04 7.574e-09
 82.01554   -335.6 1.902e+04 9.796e-09
 82.03310   -337.2 1.964e+04 1.184e-08
 82.04332   -337.0 1.963e+04 1.177e-08
 82.05643   -339.1 1.986e+04 1.277e-08
 82.07687   -341.4 1.987e+04 1.287e-08
 82.09698   -343.4 1.953e+04 1.208e-08
 82.10720   -343.2 1.971e+04 1.216e-08
 82.11776   -345.1 1.920e+04 9.710e-09
 82.13821   -347.0 1.859e+04 6.977e-09
 82.15865   -349.2 1.790e+04 4.998e-09
 82.17108   -351.6 1.713e+04 3.846e-09
 82.18130   -351.7 1.719e+04 4.009e-09
 82.19954   -353.8 1.633e+04 3.341e-09
 82.21999   -355.3 1.568e+04 3.047e-09
 82.23469   -356.3 1.526e+04 2.958e-09
 82.23944   -357.4 1.465e+04 2.701e-09
 82.24518   -357.3 1.462e+04 2.680e-09
 82.26088   -357.5 1.460e+04 2.662e-09
 82.28132   -357.7 1.460e+04 2.725e-09
 82.29883   -358.1 1.518e+04 3.127e-09
 82.30906   -358.8 1.563e+04 3.184e-09
 82.32221   -359.9 1.722e+04 3.949e-09
 82.34266   -361.1 1.868e+04 4.811e-09
 82.36271   -362.4 1.962e+04 5.388e-09
 82.37293   -362.9 1.986e+04 5.482e-09
 82.38355   -363.6 2.000e+04 5.607e-09
 82.39883   -363.8 2.017e+04 5.663e-09
 82.40477   -364.1 2.005e+04 5.606e-09
 82.40989   -364.2 2.026e+04 5.823e-09
 82.41923   -364.6 1.986e+04 5.768e-09
 82.42945   -364.9 1.929e+04 5.390e-09
 82.43671   -365.2 1.854e+04 4.861e-09
 82.44183   -365.6 1.811e+04 4.837e-09
 82.44989   -365.8 1.742e+04 4.394e-09
 82.46012   -365.8 1.696e+04 4.081e-09
 82.46865   -365.6 1.683e+04 3.892e-09
 82.47376   -366.0 1.677e+04 4.006e-09
 82.48056   -365.9 1.676e+04 3.970e-09
 82.49078   -365.8 1.676e+04 3.960e-09
 82.50059   -365.7 1.682e+04 3.944e-09
 82.50570   -366.3 1.708e+04 4.305e-09
 82.51123   -366.1 1.714e+04 4.301e-09
 82.52145   -365.7 1.720e+04 4.300e-09
 82.53167   -365.3 1.728e+04 4.315e-09
 82.53764   -364.8 1.738e+04 4.380e-09
 82.54275   -365.6 1.804e+04 5.263e-09
 82.55212   -365.2 1.819e+04 5.444e-09
 82.55983   -364.9 1.833e+04 5.658e-09
 82.56494   -365.8 1.895e+04 6.551e-09
 82.56958   -365.4 1.909e+04 6.882e-09
 82.57469   -366.5 1.967e+04 8.786e-09
 82.58279   -366.1 1.968e+04 9.055e-09
 82.59301   -365.6 1.965e+04 9.168e-09
 82.60839   -364.9 1.956e+04 8.970e-09
 82.62845   -362.9 1.957e+04 8.870e-09
 82.63867   -363.1 2.059e+04 1.070e-08
 82.64933   -361.6 2.082e+04 1.101e-08
 82.66977   -360.1 2.091e+04 1.113e-08
 82.69022   -358.5 2.092e+04 1.111e-08
 82.70255   -356.8 2.084e+04 1.090e-08
 82.71277   -357.2 2.129e+04 1.074e-08
 82.73111   -355.4 2.136e+04 1.002e-08
 82.75155   -353.8 2.133e+04 9.174e-09
 82.76642   -352.2 2.113e+04 8.369e-09
 82.77665   -353.0 2.131e+04 7.825e-09
 82.79244   -351.5 2.084e+04 7.268e-09
 82.81289   -350.1 2.029e+04 6.800e-09
 82.83030   -348.7 1.976e+04 6.455e-09
 82.84052   -349.7 1.923e+04 5.186e-09
 82.85378   -348.3 1.860e+04 5.151e-09
 82.87422   -346.8 1.813e+04 5.159e-09
 82.88517   -345.4 1.781e+04 5.192e-09
 82.89490   -346.9 1.663e+04 5.028e-09
 82.90440   -347.1 1.563e+04 3.860e-09
 82.91511   -345.3 1.569e+04 4.074e-09
 82.93556   -343.6 1.588e+04 4.156e-09
 82.95600   -341.8 1.599e+04 4.146e-09
 82.96828   -340.1 1.614e+04 4.016e-09
 82.97850   -339.9 1.559e+04 3.269e-09
 82.99689   -338.4 1.579e+04 3.056e-09
 83.01734   -337.0 1.581e+04 2.711e-09
 83.03216   -336.0 1.564e+04 2.251e-09
 83.04238   -335.8 1.511e+04 2.108e-09
 83.05823   -335.0 1.463e+04 1.756e-09
 83.07867   -334.4 1.405e+04 1.374e-09
 83.09604   -333.9 1.320e+04 1.049e-09
 83.10626   -333.3 1.332e+04 1.257e-09
 83.11956   -332.7 1.263e+04 1.005e-09
 83.14001   -332.1 1.202e+04 8.125e-10
 83.15992   -331.3 1.151e+04 6.723e-10
 83.17014   -330.4 1.209e+04 8.914e-10
 83.18090   -329.6 1.166e+04 7.493e-10
 83.20134   -328.8 1.133e+04 6.450e-10
 83.22179   -328.0 1.108e+04 5.699e-10
 83.23402   -327.1 1.091e+04 5.187e-10
 83.24424   -326.5 1.125e+04 6.107e-10
 83.26268   -325.7 1.108e+04 5.566e-10
 83.28312   -324.8 1.098e+04 5.218e-10
 83.29789   -324.0 1.095e+04 5.023e-10
 83.30812   -323.4 1.104e+04 5.209e-10
 83.32401   -322.5 1.101e+04 4.995e-10
 83.34445   -321.6 1.101e+04 4.936e-10
 83.36177   -320.7 1.103e+04 4.943e-10
 83.37199   -320.1 1.100e+04 4.766e-10
 83.38534   -319.1 1.102e+04 4.775e-10
 83.40579   -318.2 1.114e+04 4.920e-10
 83.42565   -317.3 1.133e+04 5.272e-10
 83.43587   -316.7 1.115e+04 4.770e-10
 83.44668   -315.8 1.138e+04 5.216e-10
 83.46712   -315.0 1.164e+04 5.893e-10
 83.48757   -314.2 1.192e+04 6.782e-10
 83.49975   -313.3 1.219e+04 7.839e-10
 83.50997   -312.7 1.210e+04 7.372e-10
 83.52542   -311.8 1.240e+04 8.718e-10
 83.53564   -311.5 1.213e+04 7.540e-10
 83.54890   -310.6 1.244e+04 9.041e-10
 83.56363   -309.7 1.273e+04 1.059e-09
 83.57385   -309.1 1.270e+04 1.015e-09
 83.58979   -308.2 1.299e+04 1.195e-09
 83.61024   -307.3 1.324e+04 1.348e-09
 83.62751   -306.5 1.340e+04 1.463e-09
 83.63773   -305.9 1.348e+04 1.459e-09
 83.65113   -305.2 1.359e+04 1.552e-09
 83.67157   -304.5 1.360e+04 1.572e-09
 83.69138   -303.7 1.355e+04 1.564e-09
 83.70161   -303.1 1.376e+04 1.630e-09
 83.71246   -302.3 1.364e+04 1.587e-09
 83.73291   -301.3 1.346e+04 1.453e-09
 83.75335   -300.2 1.329e+04 1.295e-09
 83.76548   -299.1 1.315e+04 1.150e-09
 83.77571   -298.6 1.355e+04 1.361e-09
 83.79424   -297.5 1.349e+04 1.237e-09
 83.81469   -296.3 1.348e+04 1.146e-09
 83.82936   -295.1 1.350e+04 1.090e-09
 83.83959   -294.8 1.428e+04 1.522e-09
 83.85558   -293.8 1.446e+04 1.504e-09
 83.87602   -292.7 1.461e+04 1.511e-09
 83.89324   -291.8 1.475e+04 1.525e-09
 83.90346   -291.7 1.595e+04 2.581e-09
 83.91691   -290.9 1.615e+04 2.657e-09
 83.93736   -290.4 1.621e+04 2.674e-09
 83.95712   -290.0 1.619e+04 2.657e-09
 83.96734   -290.2 1.761e+04 4.859e-09
 83.97825   -290.0 1.768e+04 4.620e-09
 83.99869   -290.0 1.754e+04 4.071e-09
 84.01914   -290.2 1.724e+04 3.409e-09
 84.03122   -290.5 1.676e+04 2.754e-09
 84.04144   -291.0 1.825e+04 4.481e-09
 84.06003   -291.5 1.746e+04 3.121e-09
 84.08047   -292.1 1.631e+04 2.174e-09
 84.09510   -292.7 1.516e+04 1.658e-09
 84.10532   -293.6 1.584e+04 1.825e-09
 84.12136   -294.0 1.464e+04 1.373e-09
 84.14181   -294.4 1.385e+04 1.122e-09
 84.15898   -294.6 1.327e+04 9.575e-10
 84.16920   -295.3 1.351e+04 9.774e-10
 84.17590   -295.4 1.295e+04 8.602e-10
 84.18612   -295.3 1.507e+04 1.102e-09
 84.20314   -295.2 1.396e+04 8.339e-10
 84.22285   -294.9 1.302e+04 7.093e-10
 84.23308   -295.1 1.384e+04 7.707e-10
 84.24403   -294.4 1.285e+04 6.744e-10
 84.26447   -293.7 1.231e+04 6.337e-10
 84.28492   -292.9 1.214e+04 6.079e-10
 84.29695   -292.0 1.208e+04 5.979e-10
 84.30718   -292.0 1.222e+04 6.539e-10
 84.32581   -291.1 1.221e+04 6.516e-10
 84.34625   -290.1 1.220e+04 6.576e-10
 84.36083   -289.1 1.220e+04 6.933e-10
 84.37105   -289.0 1.249e+04 7.719e-10
 84.38714   -288.1 1.253e+04 8.272e-10
 84.40759   -287.1 1.257e+04 8.964e-10
 84.42471   -286.2 1.261e+04 9.702e-10
 84.43493   -286.2 1.295e+04 1.130e-09
 84.44848   -285.3 1.295e+04 1.237e-09
 84.46892   -284.4 1.296e+04 1.350e-09
 84.48859   -283.5 1.299e+04 1.472e-09
 84.49881   -283.4 1.326e+04 1.750e-09
 84.50981   -282.4 1.330e+04 1.899e-09
 84.53026   -281.4 1.341e+04 2.068e-09
 84.55070   -280.5 1.358e+04 2.261e-09
 84.56269   -279.6 1.383e+04 2.474e-09
 84.57291   -279.5 1.404e+04 2.566e-09
 84.59159   -279.0 1.431e+04 2.707e-09
 84.61204   -278.7 1.454e+04 2.881e-09
 84.62657   -278.6 1.480e+04 3.100e-09
 84.63679   -278.9 1.491e+04 2.957e-09
 84.65293   -278.9 1.524e+04 3.245e-09
 84.67337   -279.1 1.563e+04 3.659e-09
 84.69045   -279.4 1.596e+04 4.185e-09
 84.70067   -280.4 1.647e+04 4.482e-09
 84.71426   -280.9 1.691e+04 5.489e-09
 84.73471   -281.5 1.716e+04 6.411e-09
 84.75432   -282.0 1.717e+04 6.923e-09
 84.76455   -283.0 1.788e+04 8.428e-09
 84.77560   -283.5 1.787e+04 8.554e-09
 84.79604   -283.8 1.769e+04 8.485e-09
 84.81615   -284.0 1.708e+04 7.442e-09
 84.82637   -284.2 1.791e+04 1.075e-08
 84.82842   -283.9 1.690e+04 7.752e-09
 84.83865   -284.8 1.689e+04 7.597e-09
 84.85738   -283.9 1.573e+04 5.131e-09
 84.87782   -283.2 1.469e+04 3.417e-09
 84.89230   -282.6 1.382e+04 2.304e-09
 84.90252   -283.1 1.342e+04 1.804e-09
 84.91871   -282.6 1.269e+04 1.232e-09
 84.93916   -282.0 1.216e+04 8.845e-10
 84.95618   -281.3 1.180e+04 6.661e-10
 84.96640   -281.7 1.147e+04 5.292e-10
 84.98004   -281.1 1.130e+04 4.258e-10
 85.00049   -280.8 1.115e+04 3.561e-10
 85.02006   -280.7 1.101e+04 3.139e-10
 85.03028   -280.9 1.093e+04 3.068e-10
 85.05170   -280.5 1.088e+04 2.831e-10
 85.08413   -278.0 1.056e+04 2.378e-10
 85.10458   -277.3 1.034e+04 2.364e-10
 85.13358   -275.0 1.020e+04 2.122e-10
 85.17447   -272.8 1.016e+04 2.066e-10
 85.21189   -270.9 1.018e+04 2.070e-10
 85.23233   -270.8 1.027e+04 2.311e-10
 85.25625   -269.1 1.045e+04 2.610e-10
 85.29714   -267.6 1.060e+04 3.037e-10
 85.33803   -266.2 1.070e+04 3.433e-10
 85.36009   -264.7 1.078e+04 3.800e-10
 85.38053   -264.9 1.062e+04 3.474e-10
 85.41981   -263.3 1.060e+04 3.516e-10
 85.46069   -261.5 1.061e+04 3.496e-10
 85.48784   -259.5 1.070e+04 3.603e-10
 85.50829   -259.7 1.086e+04 3.649e-10
 85.54247   -258.4 1.110e+04 3.931e-10
 85.57304   -258.9 1.140e+04 4.356e-10
 85.59339   -259.6 1.143e+04 4.689e-10
 85.61384   -260.1 1.139e+04 5.020e-10
 85.62563   -260.3 1.134e+04 5.281e-10
 85.63585   -261.8 1.117e+04 5.312e-10
 85.65473   -261.8 1.105e+04 5.375e-10
 85.67517   -261.8 1.099e+04 5.296e-10
 85.68951   -261.9 1.094e+04 5.123e-10
 85.69973   -263.4 1.089e+04 4.728e-10
 85.71606   -263.8 1.091e+04 4.294e-10
 85.73651   -264.4 1.090e+04 3.829e-10
 85.75338   -264.9 1.082e+04 3.418e-10
 85.76370   -266.5 1.073e+04 3.369e-10
 85.78781   -266.5 1.058e+04 3.134e-10
 85.82870   -265.5 1.042e+04 2.978e-10
 85.86959   -264.3 1.039e+04 2.952e-10
 85.89156   -262.8 1.038e+04 3.057e-10
 85.91200   -263.2 1.021e+04 2.818e-10
 85.95137   -262.1 1.019e+04 2.857e-10
 85.99226   -260.9 1.024e+04 3.088e-10
 86.01931   -259.2 1.032e+04 3.397e-10
 86.03976   -259.8 9.929e+03 2.548e-10
 86.07404   -258.0 9.944e+03 2.680e-10
 86.10707   -256.0 1.010e+04 3.031e-10
 86.12752   -256.9 1.000e+04 2.665e-10
 86.14707   -255.2 1.037e+04 3.455e-10
 86.16751   -255.4 1.056e+04 3.551e-10
 86.18639   -253.5 1.079e+04 4.302e-10
 86.20674   -253.2 1.111e+04 4.944e-10
 86.22097   -253.0 1.158e+04 6.250e-10
 86.23120   -255.4 1.208e+04 7.962e-10
 86.24763   -256.2 1.244e+04 1.082e-09
 86.26807   -256.6 1.266e+04 1.404e-09
 86.28485   -256.6 1.278e+04 1.646e-09
 86.29508   -257.9 1.305e+04 2.035e-09
 86.30896   -257.5 1.304e+04 2.125e-09
 86.32941   -257.0 1.303e+04 2.140e-09
 86.34873   -256.3 1.283e+04 2.033e-09
 86.35895   -257.4 1.279e+04 2.011e-09
 86.37030   -256.5 1.241e+04 1.751e-09
 86.39074   -255.5 1.201e+04 1.485e-09
 86.41119   -254.4 1.165e+04 1.243e-09
 86.42283   -253.5 1.136e+04 1.052e-09
 86.43305   -254.6 1.112e+04 8.636e-10
 86.45208   -253.9 1.091e+04 7.405e-10
 86.47252   -253.2 1.077e+04 6.494e-10
 86.48671   -252.7 1.068e+04 5.785e-10
 86.49693   -254.6 1.054e+04 4.628e-10
 86.51341   -254.4 1.042e+04 4.185e-10
 86.53386   -254.1 1.029e+04 3.893e-10
 86.55059   -253.6 1.019e+04 3.740e-10
 86.57113   -254.2 9.866e+03 3.361e-10
 86.60561   -252.4 9.774e+03 3.284e-10
 86.64650   -251.1 9.714e+03 3.268e-10
 86.67854   -250.1 9.671e+03 3.328e-10
 86.69898   -251.2 9.528e+03 3.176e-10
 86.72828   -250.1 9.551e+03 3.317e-10
 86.76917   -249.0 9.589e+03 3.447e-10
 86.80630   -247.9 9.608e+03 3.512e-10
 86.82674   -248.8 9.681e+03 3.462e-10
 86.85095   -247.7 9.770e+03 3.570e-10
 86.89184   -246.5 9.871e+03 3.688e-10
 86.93273   -245.1 9.995e+03 3.829e-10
 86.95440   -244.5 1.015e+04 4.062e-10
 86.96452   -245.7 1.043e+04 4.539e-10
 86.98364   -245.7 1.063e+04 4.980e-10
 87.00409   -245.8 1.088e+04 5.645e-10
 87.01818   -246.2 1.114e+04 6.411e-10
 87.02840   -247.5 1.146e+04 7.499e-10
 87.04498   -248.2 1.173e+04 8.820e-10
 87.06542   -248.2 1.191e+04 9.463e-10
 87.08215   -248.2 1.204e+04 9.704e-10
 87.10270   -250.7 1.233e+04 1.095e-09
 87.13717   -251.0 1.238e+04 1.121e-09
 87.17806   -251.5 1.235e+04 1.085e-09
 87.21001   -251.6 1.214e+04 9.476e-10
 87.23036   -253.4 1.180e+04 7.772e-10
 87.24943   -254.5 1.148e+04 6.343e-10
 87.26987   -255.4 1.130e+04 5.420e-10
 87.28391   -256.5 1.108e+04 4.614e-10
 87.29414   -258.4 1.068e+04 3.685e-10
 87.31076   -258.5 1.060e+04 3.577e-10
 87.33767   -258.4 1.066e+04 3.695e-10
 87.35821   -259.4 1.031e+04 2.986e-10
 87.38251   -259.2 1.040e+04 3.176e-10
 87.40802   -258.8 1.065e+04 3.716e-10
 87.42847   -258.5 1.052e+04 3.582e-10
 87.46429   -257.9 1.072e+04 3.881e-10
 87.48597   -257.2 1.079e+04 3.983e-10
 87.49609   -258.9 1.098e+04 4.898e-10
 87.51521   -259.1 1.097e+04 4.915e-10
 87.53565   -258.8 1.085e+04 4.706e-10
 87.54965   -258.2 1.073e+04 4.259e-10
 87.55987   -259.2 1.074e+04 4.380e-10
 87.58686   -257.5 1.072e+04 3.689e-10
 87.61372   -256.9 1.073e+04 3.417e-10
 87.63417   -257.5 1.075e+04 3.426e-10
 87.66874   -256.4 1.079e+04 3.403e-10
 87.70963   -255.0 1.084e+04 3.463e-10
 87.74148   -253.3 1.091e+04 3.604e-10
 87.76192   -253.6 1.097e+04 3.840e-10
 87.79141   -252.1 1.104e+04 3.995e-10
 87.81548   -250.9 1.109e+04 4.227e-10
 87.82561   -251.9 1.118e+04 4.456e-10
 87.84233   -251.3 1.121e+04 4.475e-10
 87.86277   -250.8 1.125e+04 4.494e-10
 87.87926   -250.2 1.127e+04 4.523e-10
 87.88948   -251.3 1.139e+04 4.967e-10
 87.90366   -250.8 1.138e+04 5.034e-10
 87.92411   -250.2 1.137e+04 5.051e-10
 87.94314   -249.6 1.132e+04 5.062e-10
 87.95336   -250.5 1.141e+04 5.785e-10
 87.96500   -249.8 1.125e+04 5.734e-10
 87.98544   -248.9 1.111e+04 5.463e-10
 88.00589   -247.8 1.097e+04 5.080e-10
 88.01724   -246.5 1.086e+04 4.668e-10
 88.02746   -247.8 1.103e+04 5.312e-10
 88.04678   -246.5 1.091e+04 4.977e-10
 88.05830   -244.8 1.083e+04 4.678e-10
 88.06853   -243.6 1.077e+04 4.362e-10
 88.08112   -242.4 1.075e+04 4.262e-10
 88.09134   -243.3 1.078e+04 4.650e-10
 88.10811   -241.8 1.077e+04 4.476e-10
 88.12856   -240.7 1.080e+04 4.377e-10
 88.14509   -239.5 1.084e+04 4.252e-10
 88.16564   -240.6 1.083e+04 4.195e-10
 88.20031   -238.6 1.074e+04 3.919e-10
 88.24120   -236.2 1.049e+04 3.502e-10
 88.27295   -233.5 1.018e+04 3.028e-10
 88.29339   -234.0 9.928e+03 2.513e-10
 88.32298   -231.0 9.640e+03 2.110e-10
 88.36387   -228.1 9.433e+03 1.784e-10
 88.40070   -225.2 9.287e+03 1.525e-10
 88.42115   -225.3 9.228e+03 1.294e-10
 88.44565   -222.4 9.167e+03 1.177e-10
 88.48654   -219.5 9.119e+03 1.093e-10
 88.52743   -216.6 9.066e+03 1.026e-10
 88.54890   -213.8 9.023e+03 9.632e-11
 88.56935   -213.8 9.170e+03 1.097e-10
 88.60921   -210.9 9.178e+03 1.131e-10
 88.65010   -208.2 9.177e+03 1.156e-10
 88.67666   -205.4 9.153e+03 1.172e-10
 88.69465   -205.5 9.505e+03 1.679e-10
 88.70898   -204.5 8.902e+03 8.850e-11
 88.73187   -201.6 8.910e+03 9.086e-11
 88.77276   -198.7 8.930e+03 9.357e-11
 88.80442   -195.9 8.949e+03 9.705e-11
 88.82486   -195.8 9.165e+03 1.374e-10
 88.85454   -192.9 9.187e+03 1.449e-10
 88.89543   -190.1 9.205e+03 1.520e-10
 88.93217   -187.2 9.222e+03 1.581e-10
 88.95262   -187.0 9.466e+03 1.980e-10
 88.97721   -184.1 9.489e+03 1.989e-10
 89.01810   -181.2 9.508e+03 1.989e-10
 89.05899   -178.4 9.532e+03 1.983e-10
 89.08037   -175.8 9.607e+03 1.985e-10
 89.10082   -176.0 9.917e+03 2.299e-10
 89.14077   -173.6 1.010e+04 2.683e-10
 89.18166   -171.5 1.029e+04 3.279e-10
 89.20813   -169.3 1.049e+04 3.996e-10
 89.22857   -169.7 1.053e+04 4.041e-10
 89.26344   -167.7 1.065e+04 4.518e-10
 89.30433   -165.7 1.071e+04 4.700e-10
 89.33589   -163.7 1.078e+04 4.617e-10
 89.35633   -163.9 1.053e+04 3.363e-10
 89.38611   -162.0 1.050e+04 3.019e-10
 89.42700   -160.1 1.051e+04 2.735e-10
 89.46364   -158.2 1.051e+04 2.597e-10
 89.48409   -158.5 1.030e+04 2.019e-10
 89.50878   -156.5 1.029e+04 1.975e-10
 89.54967   -154.4 1.027e+04 1.904e-10
 89.59056   -152.2 1.023e+04 1.797e-10
 89.61184   -150.0 1.020e+04 1.665e-10
 89.63229   -149.8 1.001e+04 1.117e-10
 89.67234   -147.5 1.002e+04 9.459e-11
 89.71323   -145.4 1.003e+04 8.141e-11
 89.73960   -143.3 1.004e+04 7.255e-11
 89.76004   -143.1 9.967e+03 4.931e-11
 89.79501   -141.1 9.966e+03 4.867e-11
 89.83590   -139.2 1.006e+04 5.025e-11
 89.86736   -137.3 1.008e+04 5.851e-11
 89.88780   -137.0 1.007e+04 5.898e-11
 89.91768   -135.1 1.007e+04 7.437e-11
 89.95857   -133.1 1.009e+04 9.497e-11
 89.98948   -131.1 1.014e+04 1.195e-10
 90.00558   -129.8 1.007e+04 9.849e-11
 90.01556   -129.4 1.007e+04 1.029e-10
 90.04035   -127.4 1.012e+04 1.220e-10
 90.08124   -125.4 1.018e+04 1.354e-10
 90.12213   -123.6 1.021e+04 1.425e-10
 90.14331   -121.8 1.020e+04 1.453e-10
 90.16376   -121.5 1.023e+04 1.622e-10
 90.20391   -119.8 1.018e+04 1.661e-10
 90.24480   -118.0 1.012e+04 1.736e-10
 90.27107   -116.2 1.006e+04 1.857e-10
 90.29151   -116.0 1.009e+04 2.215e-10
 90.32658   -114.0 1.002e+04 2.304e-10
 90.36746   -112.1 1.001e+04 2.364e-10
 90.39882   -110.3 1.006e+04 2.397e-10
 90.41927   -110.2 1.008e+04 2.405e-10
 90.44924   -108.6 1.020e+04 2.416e-10
 90.49013   -107.2 1.031e+04 2.538e-10
 90.52658   -105.7 1.031e+04 2.779e-10
 90.54703   -105.7 1.036e+04 3.212e-10
 90.57191   -103.9 1.029e+04 3.585e-10
 90.61280   -101.8 1.028e+04 3.707e-10
 90.65369   -100.1 1.017e+04 3.563e-10
 90.67478    -98.6 1.000e+04 3.239e-10
 90.69523    -98.5 1.017e+04 3.433e-10
 90.73547    -96.8 9.945e+03 2.808e-10
 90.77636    -94.8 9.684e+03 2.370e-10
 90.80254    -92.7 9.488e+03 2.084e-10
 90.82298    -93.1 9.356e+03 1.831e-10
 90.85814    -91.1 9.256e+03 1.721e-10
 90.89903    -89.1 9.227e+03 1.711e-10
 90.93029    -87.1 9.179e+03 1.839e-10
 90.95074    -87.3 9.082e+03 1.748e-10
 90.98081    -85.3 9.123e+03 2.026e-10
 91.02170    -83.2 9.166e+03 2.270e-10
 91.05805    -81.3 9.188e+03 2.380e-10
 91.07849    -81.1 9.130e+03 2.239e-10
 91.10348    -79.3 9.131e+03 2.237e-10
 91.14437    -77.5 9.075e+03 2.124e-10
 91.18526    -75.9 8.991e+03 1.963e-10
 91.20625    -74.2 8.948e+03 1.859e-10
 91.22670    -73.8 8.915e+03 1.815e-10
 91.26704    -72.0 8.906e+03 1.813e-10
 91.29043    -70.3 8.947e+03 1.968e-10
 91.31088    -70.4 9.367e+03 2.835e-10
 91.33401    -68.8 9.501e+03 3.189e-10
 91.35445    -68.1 9.441e+03 3.060e-10
 91.38971    -66.5 9.566e+03 3.444e-10
 91.43060    -64.8 9.639e+03 3.678e-10
 91.46176    -63.3 9.657e+03 3.736e-10
 91.48221    -62.8 9.590e+03 3.444e-10
 91.51238    -61.4 9.595e+03 3.432e-10
 91.55327    -60.2 9.577e+03 3.233e-10
 91.58952    -59.1 9.587e+03 3.015e-10
 91.60996    -58.8 9.532e+03 2.800e-10
 91.63505    -58.1 9.569e+03 2.678e-10
 91.67594    -57.8 9.601e+03 2.597e-10
 91.71683    -57.8 9.605e+03 2.575e-10
 91.73772    -58.6 9.934e+03 2.836e-10
 91.75817    -57.5 9.939e+03 2.825e-10
 91.79861    -58.8 1.048e+04 4.113e-10
 91.83950    -60.3 1.087e+04 5.768e-10
 91.86548    -61.9 1.099e+04 6.477e-10
 91.88592    -59.9 1.130e+04 7.991e-10
 91.92128    -61.3 1.133e+04 8.102e-10
 91.96217    -62.2 1.120e+04 6.140e-10
 91.99323    -63.4 1.069e+04 3.336e-10
 92.01358    -62.7 1.069e+04 3.213e-10
 92.04385    -62.9 1.055e+04 2.626e-10
 92.08483    -63.3 1.029e+04 1.880e-10
 92.12099    -63.3 1.010e+04 1.497e-10
 92.14143    -62.3 1.040e+04 1.949e-10
 92.16661    -62.3 1.032e+04 1.844e-10
 92.20750    -61.9 1.030e+04 1.850e-10
 92.24839    -61.4 1.030e+04 2.008e-10
 92.26919    -60.9 1.030e+04 2.150e-10
 92.28963    -60.8 1.068e+04 2.955e-10
 92.33017    -60.7 1.076e+04 3.040e-10
 92.36074    -61.0 1.095e+04 3.264e-10
 92.38109    -62.0 1.120e+04 3.766e-10
 92.39675    -63.4 1.150e+04 4.950e-10
 92.40697    -64.2 1.163e+04 6.334e-10
 92.42198    -65.1 1.191e+04 8.370e-10
 92.45274    -66.0 1.226e+04 1.090e-09
 92.49373    -67.8 1.269e+04 1.431e-09
 92.52470    -71.0 1.275e+04 1.547e-09
 92.54515    -71.8 1.246e+04 1.367e-09
 92.57094    -73.7 1.173e+04 8.223e-10
 92.59138    -73.8 1.174e+04 8.284e-10
 92.61640    -75.4 1.074e+04 3.761e-10
 92.65246    -76.5 9.754e+03 1.717e-10
 92.67290    -76.6 9.523e+03 1.159e-10
 92.69818    -76.8 9.222e+03 7.252e-11
 92.73907    -76.7 8.849e+03 5.389e-11
 92.77996    -75.7 8.742e+03 5.063e-11
 92.80066    -74.3 8.718e+03 4.993e-11
 92.82110    -73.7 8.731e+03 5.061e-11
 92.86174    -72.6 8.752e+03 5.106e-11
 92.90263    -71.6 8.880e+03 5.855e-11
 92.92841    -70.9 9.048e+03 7.883e-11
 92.94886    -70.7 9.192e+03 9.931e-11
 92.98441    -70.3 9.518e+03 1.514e-10
 93.02530    -70.0 9.931e+03 2.375e-10
 93.05617    -70.0 1.036e+04 3.541e-10
 93.07662    -70.2 1.055e+04 3.976e-10
 93.10708    -70.4 1.078e+04 4.571e-10
 93.14797    -70.5 1.087e+04 4.704e-10
 93.18393    -70.2 1.086e+04 4.344e-10
 93.20437    -70.2 1.071e+04 3.535e-10
 93.22975    -69.7 1.056e+04 2.845e-10
 93.27064    -69.0 1.046e+04 2.398e-10
 93.31153    -68.0 1.044e+04 2.265e-10
 93.35242    -67.4 1.051e+04 2.047e-10
 93.39331    -66.6 1.060e+04 2.687e-10
 93.43420    -65.6 1.071e+04 3.559e-10
 93.45988    -64.7 1.080e+04 4.282e-10
 93.48033    -65.1 1.076e+04 3.916e-10
 93.51598    -64.3 1.078e+04 4.032e-10
 93.55687    -63.4 1.071e+04 3.912e-10
 93.58764    -62.2 1.053e+04 3.178e-10
 93.60809    -62.7 1.031e+04 2.338e-10
 93.63865    -61.5 1.010e+04 1.603e-10
 93.67953    -60.3 9.939e+03 1.035e-10
 93.71540    -59.3 9.823e+03 6.702e-11
 93.73584    -60.0 9.642e+03 5.217e-11
 93.76131    -59.1 9.624e+03 4.775e-11
 93.80220    -58.3 9.654e+03 4.711e-11
 93.84309    -57.7 9.782e+03 5.303e-11
 93.87189    -57.0 9.766e+03 1.095e-10
 93.89234    -56.1 9.695e+03 7.331e-11
 93.92487    -54.9 9.725e+03 1.159e-10
 93.96576    -53.5 9.839e+03 1.633e-10
 93.99135    -52.0 9.990e+03 1.952e-10
 94.01180    -51.9 1.002e+04 1.948e-10
 94.04754    -50.8 1.008e+04 1.988e-10
 94.08843    -50.0 1.017e+04 1.993e-10
 94.11911    -49.6 1.034e+04 2.049e-10
 94.13955    -50.0 1.034e+04 1.758e-10
 94.17021    -49.8 1.059e+04 2.680e-10
 94.21110    -49.3 1.077e+04 3.945e-10
 94.24687    -48.6 1.087e+04 4.826e-10
 94.26731    -49.0 1.094e+04 5.039e-10
 94.29288    -48.5 1.095e+04 5.147e-10
 94.33377    -47.8 1.070e+04 4.687e-10
 94.37462    -46.7 1.033e+04 3.887e-10
 94.41551    -46.3 1.018e+04 3.589e-10
 94.45644    -45.2 1.014e+04 3.733e-10
 94.49733    -44.0 1.015e+04 4.116e-10
 94.52282    -42.9 1.020e+04 4.269e-10
 94.54327    -43.9 1.005e+04 4.120e-10
 94.57911    -42.6 9.826e+03 3.924e-10
 94.62000    -41.1 9.621e+03 3.571e-10
 94.65058    -39.7 9.440e+03 3.354e-10
 94.67102    -40.3 9.260e+03 3.119e-10
 94.70178    -38.7 9.181e+03 3.049e-10
 94.74267    -36.9 9.121e+03 3.000e-10
 94.77834    -35.1 9.087e+03 2.949e-10
 94.79878    -35.5 8.879e+03 2.520e-10
 94.82445    -33.6 8.808e+03 2.345e-10
 94.86534    -31.6 8.746e+03 2.180e-10
 94.90609    -29.7 8.702e+03 2.047e-10
 94.94698    -28.2 8.397e+03 1.495e-10
 94.98801    -26.4 8.373e+03 1.403e-10
 95.02890    -24.6 8.355e+03 1.352e-10
 95.05429    -22.9 8.327e+03 1.333e-10
 95.07474    -23.5 8.248e+03 1.227e-10
 95.11068    -21.8 8.362e+03 1.365e-10
 95.15157    -20.9 8.639e+03 1.675e-10
 95.17284    -21.4 9.264e+03 2.854e-10
 95.18288    -23.3 1.030e+04 4.598e-10
 95.20249    -23.3 9.956e+03 4.260e-10
 95.23335    -25.1 1.192e+04 1.114e-09
 95.25605    -25.9 1.338e+04 2.544e-09
 95.26618    -25.9 1.311e+04 2.252e-09
 95.28426    -26.2 1.422e+04 3.737e-09
 95.30471    -26.1 1.497e+04 4.938e-09
 95.31983    -26.2 1.517e+04 5.205e-09
 95.33005    -26.7 1.522e+04 5.298e-09
 95.34560    -27.3 1.516e+04 4.796e-09
 95.36604    -28.4 1.427e+04 3.055e-09
 95.38371    -30.6 1.283e+04 1.759e-09
 95.39393    -30.0 1.321e+04 2.319e-09
 95.40693    -31.7 1.204e+04 1.531e-09
 95.42738    -32.6 1.140e+04 1.190e-09
 95.44759    -32.8 1.107e+04 1.035e-09
 95.45781    -32.6 1.128e+04 1.144e-09
 95.46827    -32.7 1.106e+04 1.033e-09
 95.48871    -32.6 1.094e+04 9.732e-10
 95.50916    -32.3 1.087e+04 9.381e-10
 95.52169    -32.2 1.084e+04 9.230e-10
 95.53191    -32.7 1.088e+04 9.275e-10
 95.55005    -32.7 1.087e+04 9.230e-10
 95.57049    -32.7 1.088e+04 9.293e-10
 95.58557    -32.7 1.090e+04 9.425e-10
 95.59579    -33.5 1.086e+04 9.225e-10
 95.61138    -33.6 1.086e+04 9.317e-10
 95.63183    -33.7 1.084e+04 9.333e-10
 95.64944    -33.6 1.076e+04 9.139e-10
 95.65967    -34.4 1.057e+04 8.368e-10
 95.67271    -34.3 1.045e+04 7.800e-10
 95.69316    -34.2 1.031e+04 7.011e-10
 95.71332    -34.1 1.015e+04 6.161e-10
 95.72354    -35.0 9.928e+03 5.268e-10
 95.73405    -35.2 9.802e+03 4.681e-10
 95.75449    -35.4 9.771e+03 4.386e-10
 95.77494    -35.8 9.792e+03 4.334e-10
 95.78742    -36.2 9.914e+03 4.516e-10
 95.79765    -37.6 9.984e+03 4.673e-10
 95.81290    -38.1 1.013e+04 5.266e-10
 95.82312    -37.7 1.010e+04 5.108e-10
 95.83627    -38.1 1.025e+04 5.882e-10
 95.85130    -38.4 1.043e+04 6.867e-10
 95.86152    -39.7 1.057e+04 7.658e-10
 95.87716    -39.9 1.077e+04 8.638e-10
 95.89761    -40.2 1.090e+04 9.220e-10
 95.91518    -40.5 1.093e+04 9.361e-10
 95.92540    -42.2 1.101e+04 9.682e-10
 95.93850    -42.6 1.103e+04 9.536e-10
 95.95894    -43.0 1.101e+04 9.190e-10
 95.97906    -43.5 1.099e+04 8.929e-10
 95.98928    -45.3 1.105e+04 9.887e-10
 95.99983    -45.6 1.087e+04 9.093e-10
 96.02028    -45.8 1.072e+04 8.404e-10
 96.04072    -45.8 1.058e+04 7.996e-10
 96.05316    -45.8 1.051e+04 7.623e-10
 96.06338    -46.7 1.037e+04 7.176e-10
 96.09193    -45.6 1.040e+04 7.066e-10
 96.11723    -44.3 1.028e+04 6.430e-10
 96.13768    -46.0 9.533e+03 3.732e-10
 96.17381    -44.9 9.211e+03 2.788e-10
 96.21470    -43.6 8.929e+03 2.104e-10
 96.24499    -42.5 8.674e+03 1.646e-10
 96.26543    -44.0 8.196e+03 1.014e-10
 96.29648    -42.7 8.291e+03 1.124e-10
 96.33737    -41.3 8.444e+03 1.368e-10
 96.37274    -39.8 8.601e+03 1.655e-10
 96.39319    -40.2 8.578e+03 1.663e-10
 96.41915    -38.7 8.717e+03 1.868e-10
 96.45335    -37.4 8.774e+03 1.928e-10
 96.47379    -37.0 8.687e+03 1.667e-10
 96.50050    -35.8 8.731e+03 1.628e-10
 96.52094    -36.3 8.635e+03 1.553e-10
 96.54182    -35.3 8.632e+03 1.478e-10
 96.58271    -34.3 8.603e+03 1.403e-10
 96.62360    -33.3 8.561e+03 1.307e-10
 96.64870    -32.2 8.509e+03 1.167e-10
 96.66915    -32.4 8.510e+03 1.191e-10
 96.70538    -31.2 8.461e+03 1.015e-10
 96.74627    -30.1 8.422e+03 8.651e-11
 96.77646    -29.1 8.406e+03 7.775e-11
 96.79690    -29.1 8.420e+03 8.322e-11
 96.82805    -27.9 8.423e+03 8.135e-11
 96.86894    -27.1 8.477e+03 8.176e-11
 96.90421    -27.2 8.859e+03 9.152e-11
 96.92466    -27.6 9.016e+03 1.208e-10
 96.95071    -28.2 9.477e+03 2.261e-10
 96.99160    -28.5 1.006e+04 4.249e-10
 97.02217    -28.8 1.060e+04 6.901e-10
 97.04200    -29.2 1.069e+04 7.502e-10
 97.05232    -29.1 1.104e+04 9.226e-10
 97.06306    -29.7 1.096e+04 9.216e-10
 97.08341    -29.7 1.079e+04 8.544e-10
 97.10363    -30.0 1.037e+04 6.658e-10
 97.11385    -29.6 1.053e+04 7.383e-10
 97.11610    -29.8 1.015e+04 5.624e-10
 97.12632    -30.2 1.013e+04 5.434e-10
 97.15507    -30.4 9.637e+03 3.787e-10
 97.18017    -30.2 9.031e+03 2.137e-10
 97.20061    -31.0 8.930e+03 2.007e-10
 97.23694    -30.5 8.481e+03 1.292e-10
 97.27783    -29.7 8.336e+03 1.020e-10
 97.30793    -28.7 8.264e+03 9.119e-11
 97.32837    -28.7 8.366e+03 1.116e-10
 97.35961    -27.6 8.305e+03 1.000e-10
 97.40050    -26.5 8.263e+03 9.204e-11
 97.43568    -25.5 8.240e+03 8.693e-11
 97.45613    -25.3 8.257e+03 8.833e-11
 97.48228    -24.2 8.258e+03 8.431e-11
 97.52317    -23.4 8.275e+03 8.361e-11
 97.56344    -23.1 8.397e+03 8.534e-11
 97.58388    -23.1 8.496e+03 9.421e-11
 97.60495    -23.5 8.869e+03 1.301e-10
 97.64584    -24.1 9.480e+03 2.437e-10
 97.68673    -24.4 1.025e+04 4.689e-10
 97.71164    -24.8 1.093e+04 7.496e-10
 97.73208    -24.8 1.123e+04 7.840e-10
 97.75430    -26.1 1.174e+04 1.005e-09
 97.77474    -24.4 1.121e+04 6.894e-10
 97.80940    -26.2 1.165e+04 8.789e-10
 97.83940    -27.6 1.198e+04 1.100e-09
 97.84952    -28.5 1.262e+04 1.492e-09
 97.86032    -28.8 1.286e+04 1.736e-09
 97.88076    -29.2 1.298e+04 1.971e-09
 97.90121    -29.4 1.293e+04 1.982e-09
 97.91330    -29.4 1.261e+04 1.731e-09
 97.92352    -29.7 1.283e+04 1.884e-09
 97.94210    -30.1 1.223e+04 1.394e-09
 97.96254    -30.6 1.166e+04 1.060e-09
 97.97718    -30.9 1.111e+04 8.071e-10
 97.98740    -31.7 1.094e+04 7.418e-10
 98.00343    -31.9 1.046e+04 5.706e-10
 98.02388    -32.0 1.008e+04 4.533e-10
 98.05464    -31.9 9.734e+03 3.625e-10
 98.09491    -31.7 9.350e+03 2.986e-10
 98.11535    -32.0 9.227e+03 2.908e-10
 98.13652    -31.2 9.137e+03 2.786e-10
 98.17741    -30.2 9.056e+03 2.659e-10
 98.21830    -29.1 8.886e+03 2.368e-10
 98.24311    -27.9 8.659e+03 1.884e-10
 98.26355    -27.6 8.494e+03 1.590e-10
 98.30008    -26.5 8.345e+03 1.265e-10
 98.34097    -25.8 8.326e+03 1.180e-10
 98.37086    -25.7 8.381e+03 1.287e-10
 98.39131    -26.3 8.485e+03 1.458e-10
 98.42275    -27.1 9.746e+03 3.639e-10
 98.46364    -27.4 1.144e+04 9.369e-10
 98.49421    -27.2 1.266e+04 1.716e-09
 98.50865    -28.0 1.335e+04 2.371e-09
 98.51887    -28.4 1.315e+04 2.184e-09
 98.53500    -28.9 1.407e+04 3.221e-09
 98.55544    -30.3 1.520e+04 4.198e-09
 98.57253    -33.4 1.697e+04 5.592e-09
 98.58275    -38.0 1.789e+04 6.302e-09
 98.59633    -42.7 1.875e+04 8.959e-09
 98.61678    -46.2 1.853e+04 1.036e-08
 98.63640    -47.7 1.743e+04 1.043e-08
 98.64658    -48.5 1.662e+04 8.635e-09
 98.65762    -48.8 1.550e+04 5.170e-09
 98.67811    -49.6 1.481e+04 2.861e-09
 98.69856    -53.1 1.345e+04 7.981e-10
 98.71050    -60.8 1.031e+04 1.961e-10
 98.72073    -63.9 8.993e+03 1.446e-10
 98.73945    -65.0 8.355e+03 1.180e-10
 98.75989    -64.5 8.258e+03 1.085e-10
 98.77448    -63.3 8.184e+03 9.962e-11
 98.79502    -63.2 8.343e+03 1.206e-10
 98.83164    -61.4 8.318e+03 1.154e-10
 98.87253    -59.8 8.344e+03 1.162e-10
 98.90233    -58.3 8.474e+03 1.322e-10
 98.92278    -58.8 8.717e+03 1.711e-10
 98.95431    -57.0 8.863e+03 1.974e-10
 98.99520    -55.2 8.995e+03 2.191e-10
 99.03009    -53.5 9.106e+03 2.296e-10
 99.04925    -54.0 9.120e+03 2.381e-10
 99.05525    -55.0 9.364e+03 2.822e-10
 99.07698    -53.4 9.492e+03 3.153e-10
 99.11787    -51.6 9.625e+03 3.557e-10
 99.15785    -49.7 9.762e+03 3.923e-10
 99.17829    -49.3 9.696e+03 4.282e-10
 99.19965    -47.3 9.768e+03 4.360e-10
 99.24054    -45.5 9.729e+03 4.013e-10
 99.28143    -43.9 9.608e+03 3.465e-10
 99.30605    -42.2 9.441e+03 2.965e-10
 99.31617    -41.9 9.514e+03 3.386e-10
 99.33235    -41.2 9.461e+03 3.191e-10
 99.35279    -40.2 9.442e+03 2.994e-10
 99.36973    -39.7 9.430e+03 2.910e-10
 99.37995    -39.3 9.494e+03 3.110e-10
 99.39368    -38.5 9.477e+03 2.979e-10
 99.41413    -38.0 9.479e+03 2.973e-10
 99.43361    -37.4 9.509e+03 3.025e-10
 99.44383    -37.5 9.770e+03 3.758e-10
 99.45502    -37.3 9.889e+03 4.088e-10
 99.47546    -37.0 1.004e+04 4.543e-10
 99.49591    -36.7 1.015e+04 4.987e-10
 99.50771    -36.1 1.020e+04 5.268e-10
 99.51793    -36.5 1.100e+04 8.400e-10
 99.53680    -35.8 1.098e+04 8.438e-10
 99.55724    -34.9 1.079e+04 8.137e-10
 99.57159    -33.9 1.058e+04 7.286e-10
 99.58181    -33.9 1.120e+04 1.105e-09
 99.59813    -33.1 1.087e+04 9.299e-10
 99.61858    -32.4 1.054e+04 7.603e-10
 99.63546    -31.9 1.024e+04 6.199e-10
 99.64569    -31.8 1.061e+04 8.203e-10
 99.65947    -31.4 1.029e+04 6.717e-10
 99.67991    -31.1 9.996e+03 5.716e-10
 99.69531    -30.6 9.714e+03 5.051e-10
 99.70452    -31.2 9.685e+03 5.010e-10
 99.70956    -31.0 9.776e+03 5.376e-10
 99.72080    -30.2 9.568e+03 4.769e-10
 99.74125    -29.2 9.409e+03 4.302e-10
 99.76169    -28.3 9.328e+03 3.930e-10
 99.77344    -27.7 9.285e+03 3.589e-10
 99.78367    -27.7 9.252e+03 3.395e-10
 99.81290    -26.8 9.221e+03 3.166e-10
 99.83752    -25.3 8.960e+03 2.548e-10
 99.84764    -25.7 8.906e+03 2.542e-10
 99.86391    -25.2 8.803e+03 2.346e-10
 99.88436    -24.2 8.712e+03 2.113e-10
 99.90120    -23.7 8.604e+03 1.963e-10
 99.91142    -23.4 8.620e+03 2.012e-10
 99.92525    -22.6 8.589e+03 1.850e-10
 99.94569    -22.4 8.713e+03 1.805e-10
 99.96508    -26.2 1.218e+04 2.120e-10
 99.97530    -32.2 1.660e+04 5.137e-10
 99.98658    -38.5 1.760e+04 1.846e-09
100.00703    -40.5 1.679e+04 4.777e-09
