# Columns:
#   distance along LOS (in CHIMPs)
#   peculiar velocity  (in km/s)
#   temperature (K)
#   HI number density
# pos=(101.791,230.398,234.493), angles=(1.49198,2.87856)
  0.00344    100.3 1.459e+04 3.226e-09
  0.01039     97.5 1.428e+04 3.227e-09
  0.02054     96.9 1.405e+04 2.914e-09
  0.03731     95.3 1.379e+04 2.852e-09
  0.05469     94.2 1.357e+04 2.604e-09
  0.06484     93.9 1.337e+04 2.323e-09
  0.07789     92.7 1.288e+04 1.670e-09
  0.09818     90.7 1.228e+04 1.126e-09
  0.11846     88.1 1.158e+04 7.732e-10
  0.13295     85.6 1.091e+04 5.761e-10
  0.14309     84.9 1.029e+04 4.095e-10
  0.15904     83.6 1.005e+04 3.708e-10
  0.17933     82.5 1.004e+04 3.721e-10
  0.19962     81.9 1.002e+04 3.744e-10
  0.21120     81.2 1.000e+04 3.737e-10
  0.23159     81.0 9.859e+03 3.086e-10
  0.27083     80.4 9.686e+03 2.946e-10
  0.31141     79.9 9.413e+03 2.467e-10
  0.34762     79.4 9.080e+03 1.833e-10
  0.36791     80.1 9.018e+03 1.763e-10
  0.39257     79.8 8.858e+03 1.542e-10
  0.43315     79.8 8.874e+03 1.560e-10
  0.47373     79.8 9.057e+03 1.824e-10
  0.50203     79.4 9.201e+03 2.145e-10
  0.51204     78.3 9.237e+03 2.376e-10
  0.52422     78.6 9.425e+03 3.053e-10
  0.54455     78.4 9.613e+03 4.010e-10
  0.56484     77.7 1.026e+04 6.997e-10
  0.58219     75.0 1.282e+04 1.721e-09
  0.59233     75.3 1.247e+04 1.383e-09
  0.60542     71.6 1.520e+04 3.315e-09
  0.62059     68.9 1.683e+04 5.856e-09
  0.62629     68.3 1.766e+04 8.789e-09
  0.63047     68.4 1.754e+04 8.406e-09
  0.63487     68.7 1.732e+04 7.760e-09
  0.64595     67.5 1.842e+04 1.167e-08
  0.66044     65.7 1.843e+04 1.153e-08
  0.67059     66.9 1.828e+04 1.160e-08
  0.68658     65.5 1.790e+04 9.628e-09
  0.70687     63.9 1.676e+04 5.385e-09
  0.72716     60.6 1.486e+04 2.322e-09
  0.73870     56.0 1.218e+04 1.039e-09
  0.74884     59.0 1.310e+04 1.265e-09
  0.75785     55.9 1.146e+04 7.638e-10
  0.76800     56.2 1.147e+04 7.756e-10
  0.79676     54.3 1.055e+04 5.823e-10
  0.81715     55.5 1.007e+04 4.799e-10
  0.83895     55.0 9.234e+03 3.045e-10
  0.87953     55.2 8.919e+03 2.349e-10
  0.92011     55.2 8.918e+03 2.027e-10
  0.95337     54.7 9.159e+03 2.171e-10
  0.97366     55.7 8.998e+03 2.186e-10
  0.99367     54.6 9.420e+03 2.791e-10
  1.01387     53.2 9.856e+03 3.735e-10
  1.03143     52.6 1.010e+04 5.243e-10
  1.05172     53.7 1.026e+04 6.392e-10
  1.07209     53.7 1.054e+04 7.724e-10
  1.09238     53.9 1.071e+04 8.604e-10
  1.10978     53.7 1.072e+04 8.310e-10
  1.13017     55.3 1.008e+04 5.573e-10
  1.16359     54.9 9.742e+03 4.262e-10
  1.20417     54.1 9.295e+03 2.768e-10
  1.24475     53.2 8.823e+03 1.861e-10
  1.26639     52.7 8.644e+03 1.603e-10
  1.28668     53.9 8.725e+03 1.782e-10
  1.32591     53.9 8.819e+03 1.943e-10
  1.36649     54.2 8.914e+03 2.208e-10
  1.40261     54.4 8.906e+03 2.253e-10
  1.42290     55.3 9.045e+03 2.646e-10
  1.44765     55.5 9.010e+03 2.582e-10
  1.48522     55.8 8.860e+03 2.295e-10
  1.50551     56.1 8.880e+03 2.317e-10
  1.52881     56.5 8.670e+03 1.781e-10
  1.55912     56.6 8.534e+03 1.387e-10
  1.57941     57.0 8.490e+03 1.180e-10
  1.60997     56.8 8.486e+03 1.157e-10
  1.65055     56.4 8.601e+03 1.260e-10
  1.69113     55.2 9.076e+03 1.840e-10
  1.71563     53.4 9.657e+03 2.867e-10
  1.72567     54.1 9.521e+03 2.625e-10
  1.74094     52.9 9.891e+03 3.511e-10
  1.75108     53.2 9.894e+03 3.530e-10
  1.76195     52.1 1.047e+04 5.441e-10
  1.78224     51.1 1.113e+04 8.454e-10
  1.79369     49.9 1.184e+04 1.242e-09
  1.80383     49.8 1.203e+04 1.341e-09
  1.82282     48.2 1.275e+04 1.847e-09
  1.84311     46.1 1.341e+04 2.297e-09
  1.86180     43.4 1.373e+04 2.391e-09
  1.87194     42.6 1.394e+04 2.685e-09
  1.88369     39.9 1.382e+04 2.563e-09
  1.90398     37.1 1.336e+04 2.219e-09
  1.92427     34.5 1.274e+04 1.761e-09
  1.94005     32.3 1.210e+04 1.376e-09
  1.95020     32.6 1.182e+04 1.288e-09
  1.96485     30.5 1.123e+04 9.541e-10
  1.98514     29.3 1.077e+04 7.755e-10
  1.99685     27.8 1.048e+04 5.826e-10
  2.00983     27.9 1.048e+04 5.600e-10
  2.02865     28.6 1.023e+04 5.709e-10
  2.05635     26.8 9.940e+03 4.498e-10
  2.09693     25.0 1.004e+04 3.704e-10
  2.13751     22.9 1.014e+04 3.680e-10
  2.16487     20.3 1.026e+04 4.190e-10
  2.18516     21.8 1.077e+04 6.588e-10
  2.21867     19.8 1.066e+04 6.509e-10
  2.25925     18.4 1.044e+04 5.901e-10
  2.29983     16.8 1.034e+04 5.016e-10
  2.32138     14.2 1.053e+04 5.176e-10
  2.34167     14.9 1.057e+04 5.062e-10
  2.38099     12.3 1.101e+04 7.614e-10
  2.42157     11.1 1.092e+04 7.854e-10
  2.45760     11.4 1.060e+04 5.924e-10
  2.47789     12.2 1.086e+04 7.736e-10
  2.48859     11.8 1.039e+04 4.708e-10
  2.50888     13.0 1.040e+04 5.091e-10
  2.54331     11.6 9.972e+03 2.689e-10
  2.58389      9.7 9.903e+03 2.234e-10
  2.61401      8.5 9.833e+03 2.302e-10
  2.62405      9.9 9.642e+03 2.118e-10
  2.63442     10.3 9.624e+03 2.158e-10
  2.65471      8.3 1.031e+04 3.093e-10
  2.67500      6.1 1.125e+04 5.897e-10
  2.69216      4.2 1.246e+04 1.386e-09
  2.70231      6.0 1.146e+04 8.025e-10
  2.71558      4.4 1.285e+04 1.967e-09
  2.73417      3.5 1.469e+04 4.132e-09
  2.74431      4.1 1.448e+04 3.778e-09
  2.75616      3.2 1.607e+04 6.569e-09
  2.77042      2.6 1.713e+04 8.891e-09
  2.78056      2.8 1.670e+04 8.335e-09
  2.79674      1.7 1.773e+04 9.813e-09
  2.81703     -0.8 1.815e+04 9.507e-09
  2.83732     -4.2 1.722e+04 6.849e-09
  2.84867     -7.8 1.555e+04 4.639e-09
  2.85882     -6.0 1.616e+04 5.851e-09
  2.87790     -8.3 1.459e+04 3.945e-09
  2.89819     -9.3 1.350e+04 2.697e-09
  2.91678     -9.8 1.277e+04 1.855e-09
  2.92693     -9.4 1.284e+04 1.904e-09
  2.94901    -10.7 1.225e+04 1.357e-09
  2.98014    -12.5 1.162e+04 9.760e-10
  3.00043    -14.0 1.212e+04 1.295e-09
  3.03027    -14.3 1.185e+04 1.159e-09
  3.06060    -14.4 1.147e+04 1.020e-09
  3.07329    -13.1 1.160e+04 1.040e-09
  3.08344    -12.7 1.146e+04 9.250e-10
  3.11133    -13.2 1.101e+04 6.792e-10
  3.15201    -12.4 1.037e+04 3.965e-10
  3.19259    -11.7 9.897e+03 2.220e-10
  3.21985    -11.3 9.649e+03 1.311e-10
  3.24014    -11.9 9.248e+03 1.004e-10
  3.27375    -11.2 9.129e+03 9.530e-11
  3.31433     -9.8 9.164e+03 1.009e-10
  3.35491     -8.0 9.104e+03 1.074e-10
  3.37636     -6.2 9.131e+03 9.990e-11
  3.39665     -5.3 9.081e+03 9.636e-11
  3.43607     -3.9 9.208e+03 7.878e-11
  3.47168     -2.9 9.247e+03 8.095e-11
  3.49197     -3.6 9.232e+03 8.011e-11
  3.51258     -2.5 9.197e+03 9.525e-11
  3.53287     -1.5 9.144e+03 9.245e-11
  3.55781      0.3 9.195e+03 1.301e-10
  3.59839      2.4 9.406e+03 1.673e-10
  3.63897      4.1 9.652e+03 2.019e-10
  3.66909      5.7 9.916e+03 2.537e-10
  3.68938      6.6 9.784e+03 2.106e-10
  3.72013      7.5 1.016e+04 2.518e-10
  3.76071      7.5 1.077e+04 3.465e-10
  3.79104      6.1 1.107e+04 5.327e-10
  3.81124      6.2 1.142e+04 7.031e-10
  3.82541      6.3 1.185e+04 1.061e-09
  3.83555      6.4 1.188e+04 1.057e-09
  3.85182      6.5 1.244e+04 1.315e-09
  3.87211      6.8 1.267e+04 1.614e-09
  3.89240      6.9 1.300e+04 1.579e-09
  3.90366      6.6 1.278e+04 1.576e-09
  3.91381      6.9 1.279e+04 1.596e-09
  3.93297      6.8 1.295e+04 1.391e-09
  3.96173      5.4 1.274e+04 1.357e-09
  3.98173      6.3 1.260e+04 1.261e-09
  3.98351      5.7 1.199e+04 9.970e-10
  4.00419      5.2 1.154e+04 5.425e-10
  4.04476      3.6 1.082e+04 3.881e-10
  4.08534      3.2 1.058e+04 3.533e-10
  4.11833      3.4 1.051e+04 3.849e-10
  4.13862      4.0 1.038e+04 3.508e-10
  4.16650      4.1 1.058e+04 4.201e-10
  4.20708      3.0 1.121e+04 5.746e-10
  4.24766      1.6 1.174e+04 9.486e-10
  4.27484      0.8 1.244e+04 1.380e-09
  4.29513      1.9 1.223e+04 1.189e-09
  4.31858     -0.8 1.248e+04 1.118e-09
  4.33877     -3.1 1.287e+04 1.302e-09
  4.35290     -5.5 1.315e+04 1.598e-09
  4.36305     -5.2 1.306e+04 1.446e-09
  4.37935     -6.7 1.278e+04 1.755e-09
  4.39964     -7.6 1.241e+04 1.818e-09
  4.41993     -7.6 1.227e+04 1.779e-09
  4.43116     -7.4 1.206e+04 1.337e-09
  4.44130     -6.8 1.197e+04 1.443e-09
  4.46051     -7.0 1.180e+04 9.933e-10
  4.47486     -8.7 1.102e+04 6.445e-10
  4.48501     -8.0 1.111e+04 6.679e-10
  4.49927     -8.6 1.066e+04 5.175e-10
  4.50941     -7.3 1.088e+04 5.882e-10
  4.53163     -8.6 1.063e+04 4.360e-10
  4.56757    -10.1 1.044e+04 3.554e-10
  4.58786     -7.2 1.026e+04 3.884e-10
  4.61288     -8.0 1.121e+04 4.625e-10
  4.65346    -11.1 1.312e+04 1.064e-09
  4.68380    -12.4 1.359e+04 2.157e-09
  4.70399    -12.1 1.397e+04 3.374e-09
  4.72063    -11.2 1.431e+04 4.149e-09
  4.73038    -11.0 1.426e+04 3.860e-09
  4.73403     -9.7 1.434e+04 3.606e-09
  4.74457     -9.2 1.465e+04 4.286e-09
  4.76486     -8.8 1.479e+04 4.391e-09
  4.78515     -9.2 1.548e+04 3.466e-09
  4.80214    -13.9 1.572e+04 2.231e-09
  4.81229    -11.6 1.677e+04 4.519e-09
  4.82573    -15.8 1.640e+04 3.555e-09
  4.84602    -18.5 1.528e+04 3.021e-09
  4.86631    -20.9 1.430e+04 2.697e-09
  4.88040    -24.9 1.681e+04 3.838e-09
  4.89054    -21.3 1.530e+04 3.989e-09
  4.90689    -27.5 2.075e+04 6.131e-09
  4.91948    -34.9 2.401e+04 1.349e-08
  4.92450    -33.9 2.465e+04 1.026e-08
  4.93216    -38.5 2.424e+04 2.228e-08
  4.94230    -41.9 2.282e+04 5.202e-08
  4.95245    -43.5 2.178e+04 1.203e-07
  4.95856    -44.2 2.172e+04 2.191e-07
  4.96363    -44.9 2.155e+04 2.792e-07
  4.97138    -46.1 2.167e+04 4.121e-07
  4.97645    -47.7 2.148e+04 4.384e-07
  4.98288    -50.3 2.162e+04 4.597e-07
  4.99261    -53.9 2.291e+04 2.889e-07
  4.99768    -54.1 2.217e+04 4.254e-07
  5.00317    -58.8 2.409e+04 1.450e-07
  5.01332    -64.7 2.509e+04 3.724e-08
  5.02346    -70.1 2.147e+04 1.314e-08
  5.03174    -73.3 1.773e+04 8.112e-09
  5.03681    -72.3 1.892e+04 1.030e-08
  5.04375    -74.2 1.679e+04 7.318e-09
  5.05390    -75.2 1.631e+04 5.851e-09
  5.06404    -75.9 1.594e+04 5.104e-09
  5.07087    -76.5 1.561e+04 4.800e-09
  5.07594    -76.6 1.561e+04 4.944e-09
  5.08945    -77.2 1.539e+04 4.707e-09
  5.10502    -78.1 1.493e+04 4.103e-09
  5.11516    -78.0 1.505e+04 4.311e-09
  5.13008    -78.9 1.460e+04 3.839e-09
  5.15037    -79.4 1.414e+04 3.236e-09
  5.17066    -79.7 1.364e+04 2.563e-09
  5.18327    -80.1 1.310e+04 1.931e-09
  5.19342    -79.8 1.335e+04 2.237e-09
  5.21124    -80.2 1.278e+04 1.666e-09
  5.22232    -80.6 1.215e+04 1.198e-09
  5.23247    -80.9 1.222e+04 1.261e-09
  5.25138    -81.1 1.159e+04 8.817e-10
  5.26153    -80.9 1.171e+04 9.456e-10
  5.27211    -81.0 1.116e+04 6.629e-10
  5.29240    -81.1 1.074e+04 4.627e-10
  5.31269    -81.3 1.053e+04 3.566e-10
  5.32974    -81.7 1.040e+04 2.963e-10
  5.35012    -81.2 1.045e+04 3.045e-10
  5.38390    -82.0 1.025e+04 2.470e-10
  5.42448    -82.7 1.006e+04 2.152e-10
  5.45814    -83.2 1.001e+04 2.097e-10
  5.47843    -84.0 1.020e+04 2.435e-10
  5.48634    -84.2 1.010e+04 2.521e-10
  5.50663    -84.0 1.028e+04 3.080e-10
  5.54622    -84.0 1.018e+04 3.107e-10
  5.58680    -83.7 1.015e+04 3.112e-10
  5.62256    -83.4 1.015e+04 3.141e-10
  5.64285    -83.7 1.022e+04 3.049e-10
  5.66796    -83.5 1.026e+04 3.183e-10
  5.70854    -83.2 1.032e+04 3.445e-10
  5.74912    -82.8 1.038e+04 3.819e-10
  5.77898    -82.6 1.039e+04 3.970e-10
  5.78902    -83.0 1.042e+04 4.184e-10
  5.79965    -82.9 1.046e+04 4.483e-10
  5.81994    -82.8 1.055e+04 4.925e-10
  5.84023    -82.9 1.068e+04 5.392e-10
  5.85713    -83.1 1.084e+04 6.106e-10
  5.86728    -83.5 1.093e+04 6.119e-10
  5.88081    -83.9 1.116e+04 6.905e-10
  5.90110    -84.3 1.141e+04 7.951e-10
  5.92139    -84.9 1.167e+04 9.212e-10
  5.93539    -85.6 1.192e+04 1.060e-09
  5.94553    -86.1 1.189e+04 1.049e-09
  5.95964    -86.7 1.204e+04 1.147e-09
  5.96978    -86.3 1.188e+04 1.052e-09
  5.98226    -86.8 1.200e+04 1.129e-09
  6.00255    -87.6 1.204e+04 1.146e-09
  6.01364    -88.4 1.193e+04 1.107e-09
  6.02379    -88.4 1.153e+04 8.895e-10
  6.04313    -89.3 1.135e+04 7.731e-10
  6.06342    -90.2 1.118e+04 6.740e-10
  6.08175    -91.1 1.102e+04 6.000e-10
  6.09200    -90.2 1.074e+04 4.998e-10
  6.11434    -91.0 1.045e+04 4.060e-10
  6.15492    -91.6 1.022e+04 3.431e-10
  6.19550    -91.7 1.005e+04 3.124e-10
  6.22831    -91.4 9.964e+03 2.985e-10
  6.24860    -90.0 9.756e+03 2.479e-10
  6.27666    -89.5 9.861e+03 2.813e-10
  6.31724    -88.9 9.980e+03 3.112e-10
  6.35782    -88.4 1.013e+04 3.369e-10
  6.38482    -88.1 1.037e+04 3.731e-10
  6.40511    -86.7 1.059e+04 4.758e-10
  6.43898    -86.9 1.097e+04 5.530e-10
  6.46152    -87.7 1.134e+04 6.684e-10
  6.48181    -85.9 1.162e+04 8.518e-10
  6.52014    -87.2 1.186e+04 9.810e-10
  6.54133    -88.9 1.186e+04 9.998e-10
  6.56162    -88.1 1.218e+04 1.135e-09
  6.60130    -89.7 1.191e+04 1.040e-09
  6.64188    -90.6 1.150e+04 8.484e-10
  6.67755    -91.2 1.120e+04 7.095e-10
  6.69784    -90.9 1.130e+04 7.344e-10
  6.70719    -91.5 1.106e+04 6.561e-10
  6.71724    -91.3 1.118e+04 7.121e-10
  6.73299    -91.4 1.116e+04 7.042e-10
  6.75328    -91.6 1.114e+04 6.986e-10
  6.76576    -91.8 1.115e+04 7.013e-10
  6.77590    -91.6 1.126e+04 7.413e-10
  6.79386    -91.8 1.127e+04 7.527e-10
  6.81415    -91.9 1.127e+04 7.546e-10
  6.83387    -92.1 1.123e+04 7.428e-10
  6.84401    -91.9 1.147e+04 8.380e-10
  6.85473    -92.2 1.145e+04 8.366e-10
  6.87502    -92.6 1.138e+04 8.060e-10
  6.89531    -92.8 1.132e+04 7.677e-10
  6.92584    -93.4 1.117e+04 6.957e-10
  6.95306    -93.9 1.073e+04 5.113e-10
  6.97335    -93.8 1.078e+04 4.988e-10
  6.99057    -94.5 1.052e+04 3.980e-10
  7.01086    -94.2 1.109e+04 6.283e-10
  7.04768    -94.6 1.088e+04 5.313e-10
  7.08826    -94.7 1.075e+04 4.746e-10
  7.12679    -94.6 1.069e+04 4.425e-10
  7.14708    -94.0 1.094e+04 5.674e-10
  7.16942    -93.6 1.077e+04 4.912e-10
  7.21000    -93.0 1.076e+04 4.745e-10
  7.25058    -92.5 1.087e+04 4.950e-10
  7.28330    -92.2 1.127e+04 6.064e-10
  7.30359    -91.5 1.110e+04 5.687e-10
  7.33174    -91.1 1.170e+04 7.885e-10
  7.37232    -90.5 1.227e+04 1.090e-09
  7.41290    -89.9 1.275e+04 1.388e-09
  7.43981    -89.2 1.303e+04 1.560e-09
  7.45123    -88.9 1.325e+04 1.769e-09
  7.46490    -89.9 1.300e+04 1.551e-09
  7.48381    -89.0 1.319e+04 1.691e-09
  7.50401    -88.5 1.330e+04 1.784e-09
  7.51787    -87.6 1.352e+04 1.974e-09
  7.52802    -87.6 1.353e+04 2.008e-09
  7.54459    -86.8 1.387e+04 2.235e-09
  7.56488    -86.6 1.432e+04 2.569e-09
  7.58517    -86.7 1.491e+04 3.142e-09
  7.59613    -87.2 1.578e+04 4.262e-09
  7.60627    -87.0 1.549e+04 3.655e-09
  7.62575    -87.5 1.655e+04 5.200e-09
  7.64604    -87.7 1.765e+04 7.700e-09
  7.66424    -87.8 1.854e+04 1.072e-08
  7.67438    -88.5 1.745e+04 6.808e-09
  7.68662    -88.9 1.781e+04 8.286e-09
  7.70033    -89.5 1.788e+04 8.710e-09
  7.71047    -89.5 1.787e+04 8.728e-09
  7.72719    -90.8 1.795e+04 8.428e-09
  7.74249    -93.6 1.851e+04 7.419e-09
  7.75264    -93.4 1.695e+04 5.818e-09
  7.76777    -96.7 1.747e+04 5.666e-09
  7.78806   -101.3 1.896e+04 6.214e-09
  7.80835   -105.8 1.979e+04 8.414e-09
  7.82075   -109.4 1.982e+04 1.106e-08
  7.83089   -105.9 1.941e+04 9.344e-09
  7.84893   -109.0 1.951e+04 1.128e-08
  7.86922   -111.6 1.937e+04 1.212e-08
  7.88886   -113.7 1.893e+04 1.139e-08
  7.89900   -111.2 1.940e+04 1.284e-08
  7.90980   -113.4 1.905e+04 1.200e-08
  7.93009   -115.0 1.836e+04 9.701e-09
  7.94610   -116.0 1.723e+04 6.469e-09
  7.95624   -116.4 1.567e+04 3.433e-09
  7.96711   -116.8 1.427e+04 2.206e-09
  7.97726   -115.2 1.597e+04 3.950e-09
  7.99096   -115.4 1.442e+04 2.362e-09
  8.01125   -115.3 1.281e+04 1.362e-09
  8.03154   -115.1 1.182e+04 8.864e-10
  8.04537   -114.6 1.111e+04 6.105e-10
  8.05551   -113.8 1.223e+04 1.022e-09
  8.07212   -113.4 1.147e+04 7.271e-10
  8.09241   -112.7 1.092e+04 5.510e-10
  8.11270   -112.0 1.058e+04 4.464e-10
  8.12362   -111.2 1.040e+04 3.814e-10
  8.13377   -110.9 1.102e+04 6.118e-10
  8.15328   -110.1 1.076e+04 5.279e-10
  8.17357   -109.4 1.058e+04 4.667e-10
  8.19173   -108.6 1.046e+04 4.251e-10
  8.19988   -108.2 1.112e+04 6.923e-10
  8.20201   -107.7 1.075e+04 5.252e-10
  8.21415   -107.0 1.060e+04 4.675e-10
  8.23444   -106.4 1.048e+04 4.248e-10
  8.25473   -105.8 1.038e+04 3.915e-10
  8.26999   -105.2 1.031e+04 3.687e-10
  8.28013   -105.0 1.070e+04 5.173e-10
  8.29531   -104.5 1.056e+04 4.736e-10
  8.31560   -104.0 1.046e+04 4.418e-10
  8.33589   -103.3 1.039e+04 4.153e-10
  8.34824   -102.7 1.033e+04 3.933e-10
  8.35839   -102.7 1.068e+04 5.390e-10
  8.37647   -102.0 1.056e+04 4.902e-10
  8.39676   -101.3 1.045e+04 4.501e-10
  8.41635   -100.6 1.037e+04 4.201e-10
  8.42650   -100.5 1.066e+04 5.296e-10
  8.43734    -99.8 1.053e+04 4.803e-10
  8.44779    -99.0 1.049e+04 4.558e-10
  8.45793    -98.6 1.029e+04 4.026e-10
  8.47792    -97.9 1.030e+04 3.968e-10
  8.49461    -97.1 1.042e+04 4.082e-10
  8.51499    -96.6 1.042e+04 3.915e-10
  8.54913    -95.2 1.045e+04 3.882e-10
  8.58971    -93.8 1.064e+04 4.256e-10
  8.63029    -92.8 1.105e+04 5.594e-10
  8.65131    -91.9 1.137e+04 7.349e-10
  8.67160    -90.4 1.113e+04 5.874e-10
  8.71145    -89.3 1.147e+04 7.918e-10
  8.75203    -88.0 1.161e+04 9.104e-10
  8.78753    -86.7 1.157e+04 9.079e-10
  8.80772    -85.8 1.179e+04 1.027e-09
  8.82285    -85.4 1.175e+04 1.035e-09
  8.84314    -84.8 1.160e+04 1.029e-09
  8.86343    -84.0 1.129e+04 9.546e-10
  8.87574    -82.9 1.094e+04 8.046e-10
  8.88588    -82.5 1.128e+04 9.855e-10
  8.90401    -81.3 1.087e+04 7.752e-10
  8.92430    -79.9 1.047e+04 5.685e-10
  8.93943    -78.7 1.001e+04 3.536e-10
  8.94883    -78.4 1.032e+04 5.262e-10
  8.95399    -77.9 1.048e+04 6.029e-10
  8.96488    -76.5 1.017e+04 4.469e-10
  8.99541    -74.8 1.003e+04 3.644e-10
  9.03609    -73.5 9.826e+03 2.887e-10
  9.07667    -71.3 9.499e+03 2.233e-10
  9.10055    -68.7 9.345e+03 1.962e-10
  9.12084    -67.6 9.392e+03 2.044e-10
  9.15783    -64.8 9.339e+03 1.938e-10
  9.19841    -62.0 9.367e+03 1.935e-10
  9.23677    -59.5 9.542e+03 2.009e-10
  9.25706    -57.7 9.509e+03 2.057e-10
  9.27957    -55.0 9.812e+03 2.258e-10
  9.32015    -52.6 1.117e+04 3.044e-10
  9.36073    -50.8 1.294e+04 6.022e-10
  9.39107    -48.2 1.352e+04 8.056e-10
  9.40323    -47.7 1.385e+04 1.065e-09
  9.41338    -45.9 1.316e+04 6.810e-10
  9.43087    -45.2 1.413e+04 1.333e-09
  9.44102    -43.9 1.376e+04 1.048e-09
  9.45184    -43.2 1.484e+04 2.008e-09
  9.47134    -42.4 1.571e+04 3.399e-09
  9.48149    -40.9 1.561e+04 2.498e-09
  9.49242    -40.1 1.648e+04 4.361e-09
  9.51271    -39.6 1.749e+04 6.470e-09
  9.53300    -39.6 1.869e+04 8.715e-09
  9.54960    -40.6 2.024e+04 1.000e-08
  9.55974    -37.7 1.998e+04 1.115e-08
  9.57358    -38.9 2.144e+04 1.219e-08
  9.58867    -41.3 2.186e+04 1.108e-08
  9.59370    -38.6 2.202e+04 1.252e-08
  9.59884    -39.6 2.246e+04 1.268e-08
  9.60899    -41.9 2.256e+04 1.217e-08
  9.61913    -44.6 2.217e+04 1.070e-08
  9.62775    -48.0 1.987e+04 8.363e-09
  9.63283    -45.9 2.189e+04 9.941e-09
  9.63942    -49.5 1.922e+04 7.577e-09
  9.64957    -52.3 1.734e+04 5.986e-09
  9.65971    -54.0 1.683e+04 5.197e-09
  9.66688    -55.3 1.674e+04 4.816e-09
  9.67195    -55.8 1.830e+04 6.128e-09
  9.68000    -57.4 1.841e+04 5.975e-09
  9.68669    -59.2 1.861e+04 5.708e-09
  9.69176    -56.3 1.790e+04 5.249e-09
  9.70029    -58.0 1.799e+04 4.901e-09
  9.70601    -60.0 1.808e+04 4.627e-09
  9.71108    -62.4 2.200e+04 8.987e-09
  9.72058    -65.5 2.239e+04 9.183e-09
  9.73073    -69.2 2.301e+04 9.865e-09
  9.74006    -73.3 2.351e+04 1.101e-08
  9.74514    -76.1 2.534e+04 2.644e-08
  9.75102    -79.1 2.507e+04 2.665e-08
  9.76116    -81.7 2.464e+04 2.623e-08
  9.77131    -84.0 2.417e+04 2.503e-08
  9.77919    -86.0 2.360e+04 2.288e-08
  9.78426    -86.6 2.434e+04 2.943e-08
  9.79160    -88.8 2.376e+04 2.257e-08
  9.80174    -90.9 2.268e+04 1.619e-08
  9.80958    -92.7 2.125e+04 1.149e-08
  9.81465    -90.6 2.151e+04 1.300e-08
  9.81832    -92.4 2.048e+04 9.633e-09
  9.82339    -93.1 2.056e+04 9.645e-09
  9.83218    -94.8 1.963e+04 7.441e-09
  9.84232    -96.2 1.878e+04 5.929e-09
  9.85242    -98.2 1.776e+04 4.513e-09
  9.86262    -99.6 1.730e+04 4.273e-09
  9.87793   -103.7 1.442e+04 2.531e-09
  9.89822   -106.4 1.335e+04 1.891e-09
  9.91851   -107.7 1.294e+04 1.576e-09
  9.93073   -108.9 1.258e+04 1.340e-09
  9.93463   -108.0 1.262e+04 1.370e-09
  9.94271   -107.3 1.290e+04 1.557e-09
  9.95909   -108.6 1.276e+04 1.357e-09
  9.97938   -111.1 1.283e+04 1.323e-09
  9.99884   -116.7 1.407e+04 1.325e-09
 10.00898   -117.5 1.450e+04 1.543e-09
 10.01996   -124.7 1.804e+04 2.098e-09
 10.03513   -130.2 2.030e+04 3.186e-09
 10.04294   -131.9 2.058e+04 3.787e-09
 10.04801   -131.7 2.060e+04 3.885e-09
 10.05535   -135.3 2.120e+04 5.715e-09
 10.06549   -138.6 2.195e+04 8.655e-09
 10.07566   -141.2 2.264e+04 1.245e-08
 10.08207   -143.9 2.327e+04 1.683e-08
 10.08714   -144.0 2.293e+04 1.609e-08
 10.09595   -146.5 2.317e+04 1.839e-08
 10.10609   -149.2 2.321e+04 1.896e-08
 10.11612   -151.7 2.310e+04 1.888e-08
 10.12119   -151.5 2.272e+04 1.589e-08
 10.12638   -154.1 2.234e+04 1.416e-08
 10.13653   -156.6 2.185e+04 1.230e-08
 10.14667   -159.1 2.143e+04 1.092e-08
 10.15525   -161.2 2.113e+04 1.012e-08
 10.16544   -161.7 2.111e+04 9.301e-09
 10.17833   -165.6 2.068e+04 9.507e-09
 10.18848   -166.2 2.064e+04 8.814e-09
 10.20257   -170.5 2.008e+04 9.460e-09
 10.22286   -173.2 1.994e+04 9.832e-09
 10.23360   -174.8 1.973e+04 9.578e-09
 10.24375   -175.0 2.057e+04 1.202e-08
 10.26344   -176.2 2.036e+04 1.200e-08
 10.28373   -176.7 1.953e+04 1.071e-08
 10.30171   -176.8 1.870e+04 8.341e-09
 10.31186   -177.2 2.032e+04 1.086e-08
 10.32431   -177.4 1.990e+04 9.954e-09
 10.33948   -177.4 1.923e+04 7.985e-09
 10.34581   -177.4 1.911e+04 7.510e-09
 10.35089   -177.8 1.982e+04 9.508e-09
 10.35972   -177.8 1.964e+04 8.842e-09
 10.36986   -177.7 1.948e+04 8.242e-09
 10.37987   -177.6 1.929e+04 7.612e-09
 10.38494   -178.3 2.014e+04 1.079e-08
 10.39015   -178.2 2.019e+04 1.075e-08
 10.40030   -178.0 2.039e+04 1.078e-08
 10.41044   -178.0 2.073e+04 1.092e-08
 10.41900   -178.1 2.112e+04 1.106e-08
 10.42407   -180.3 2.284e+04 2.972e-08
 10.42908   -180.9 2.322e+04 3.568e-08
 10.43415   -182.4 2.342e+04 4.857e-08
 10.44088   -183.4 2.349e+04 5.161e-08
 10.45102   -184.2 2.348e+04 5.218e-08
 10.45812   -184.6 2.310e+04 5.160e-08
 10.46320   -186.7 2.357e+04 1.141e-07
 10.47131   -186.8 2.341e+04 9.433e-08
 10.48146   -187.0 2.338e+04 7.404e-08
 10.49160   -186.9 2.346e+04 5.720e-08
 10.49725   -186.4 2.376e+04 4.428e-08
 10.50232   -187.7 2.552e+04 4.315e-08
 10.51189   -187.5 2.573e+04 3.303e-08
 10.52204   -187.6 2.578e+04 2.570e-08
 10.53131   -187.9 2.567e+04 2.009e-08
 10.53638   -190.6 2.661e+04 1.522e-08
 10.54233   -190.9 2.602e+04 1.232e-08
 10.55197   -190.9 2.577e+04 1.036e-08
 10.55704   -190.9 2.571e+04 1.021e-08
 10.56774   -191.0 2.561e+04 8.798e-09
 10.58808   -190.0 2.570e+04 6.559e-09
 10.60459   -189.2 2.581e+04 5.304e-09
 10.61473   -194.8 2.484e+04 1.644e-09
 10.62866   -193.9 2.368e+04 1.290e-09
 10.64895   -193.0 2.223e+04 1.047e-09
 10.66924   -192.0 2.090e+04 8.829e-10
 10.68002   -191.0 1.979e+04 7.657e-10
 10.68348   -194.4 1.628e+04 8.493e-10
 10.69299   -201.0 1.517e+04 1.220e-09
 10.70982   -199.5 1.493e+04 1.191e-09
 10.73011   -197.9 1.477e+04 1.172e-09
 10.75040   -196.5 1.470e+04 1.165e-09
 10.76110   -195.1 1.479e+04 1.186e-09
 10.77124   -199.4 1.722e+04 3.814e-09
 10.79098   -197.9 1.742e+04 4.159e-09
 10.81127   -196.3 1.770e+04 4.730e-09
 10.82921   -194.8 1.812e+04 5.677e-09
 10.83935   -197.2 1.904e+04 8.679e-09
 10.85185   -195.9 1.988e+04 1.039e-08
 10.87214   -194.9 2.108e+04 1.266e-08
 10.89243   -194.0 2.240e+04 1.566e-08
 10.90741   -194.7 2.392e+04 2.030e-08
 10.91756   -196.8 2.458e+04 1.723e-08
 10.92574   -195.7 2.544e+04 2.444e-08
 10.93077   -196.6 2.615e+04 2.631e-08
 10.93798   -196.4 2.619e+04 3.340e-08
 10.94649   -196.2 2.595e+04 4.666e-08
 10.95156   -197.5 2.725e+04 2.762e-08
 10.95827   -196.9 2.697e+04 3.757e-08
 10.96842   -196.1 2.665e+04 5.139e-08
 10.97856   -195.4 2.657e+04 6.658e-08
 10.98562   -195.3 2.679e+04 7.606e-08
 10.99069   -196.4 2.868e+04 1.837e-08
 10.99885   -196.8 2.902e+04 1.484e-08
 11.00900   -197.4 2.923e+04 1.167e-08
 11.01914   -199.7 2.925e+04 7.370e-09
 11.03441   -207.0 2.586e+04 2.759e-09
 11.05383   -209.7 2.456e+04 1.953e-09
 11.06397   -216.5 1.269e+04 6.731e-10
 11.07504   -216.8 1.261e+04 6.140e-10
 11.09533   -216.5 1.344e+04 5.585e-10
 11.11562   -215.2 1.536e+04 5.049e-10
 11.13208   -213.6 1.801e+04 4.701e-10
 11.14223   -215.8 1.057e+04 4.463e-10
 11.15620   -214.7 1.062e+04 4.422e-10
 11.17156   -213.7 1.071e+04 4.422e-10
 11.18171   -215.0 1.063e+04 4.357e-10
 11.19678   -214.1 1.072e+04 4.372e-10
 11.21034   -213.2 1.085e+04 4.477e-10
 11.22048   -214.8 1.049e+04 3.504e-10
 11.23736   -214.0 1.052e+04 3.494e-10
 11.25765   -213.2 1.072e+04 3.539e-10
 11.27794   -212.5 1.096e+04 3.675e-10
 11.30847   -212.5 1.125e+04 3.958e-10
 11.34675   -213.6 1.135e+04 4.191e-10
 11.36704   -216.5 9.979e+03 2.418e-10
 11.38973   -217.8 9.287e+03 2.452e-10
 11.41743   -223.6 7.591e+03 3.153e-10
 11.42748   -227.9 9.296e+03 4.578e-10
 11.43496   -234.5 1.366e+04 8.865e-10
 11.44510   -233.1 1.295e+04 9.268e-10
 11.46055   -237.1 1.680e+04 1.903e-09
 11.48083   -242.4 2.096e+04 4.323e-09
 11.50112   -247.9 2.294e+04 8.707e-09
 11.51316   -251.0 2.314e+04 1.070e-08
 11.52331   -250.5 2.116e+04 6.419e-09
 11.54170   -255.4 2.057e+04 8.703e-09
 11.56199   -258.6 1.980e+04 9.293e-09
 11.58132   -260.4 1.919e+04 8.315e-09
 11.59147   -257.5 1.776e+04 5.484e-09
 11.60257   -258.2 1.692e+04 5.276e-09
 11.62286   -258.0 1.784e+04 4.897e-09
 11.64315   -257.0 3.378e+04 3.332e-09
 11.65832   -250.9 5.062e+04 1.857e-09
 11.66455   -250.7 5.522e+04 2.466e-09
 11.66933   -254.0 2.153e+04 3.172e-09
 11.67325   -252.4 2.050e+04 2.801e-09
 11.68373   -250.6 3.771e+04 2.066e-09
 11.70402   -248.9 5.317e+04 2.104e-09
 11.71919   -242.9 6.486e+04 1.038e-09
 11.72929   -244.0 6.401e+04 1.466e-09
 11.73773   -245.8 5.818e+04 2.556e-09
 11.74793   -244.6 3.930e+04 1.984e-09
 11.75977   -243.5 4.495e+04 3.748e-09
 11.76987   -243.8 4.304e+04 5.159e-09
 11.77686   -245.9 3.756e+04 9.597e-09
 11.78193   -240.3 4.824e+04 1.819e-09
 11.79016   -241.8 4.439e+04 2.929e-09
 11.79604   -243.8 3.919e+04 5.150e-09
 11.80111   -245.0 3.193e+04 8.459e-09
 11.81045   -246.7 2.863e+04 1.495e-08
 11.81599   -248.3 2.644e+04 2.478e-08
 11.82106   -244.6 2.664e+04 1.107e-08
 11.83074   -246.2 2.570e+04 1.708e-08
 11.84088   -247.7 2.511e+04 2.621e-08
 11.85004   -248.8 2.489e+04 3.795e-08
 11.85511   -246.5 2.483e+04 1.954e-08
 11.86117   -247.7 2.468e+04 2.876e-08
 11.87132   -248.6 2.463e+04 4.026e-08
 11.88146   -249.2 2.469e+04 5.228e-08
 11.88917   -249.6 2.485e+04 6.225e-08
 11.89424   -248.6 2.414e+04 4.248e-08
 11.90175   -249.2 2.418e+04 5.081e-08
 11.91190   -249.8 2.421e+04 5.590e-08
 11.91893   -250.1 2.421e+04 5.729e-08
 11.92400   -250.0 2.432e+04 6.147e-08
 11.92830   -250.0 2.426e+04 5.620e-08
 11.93337   -249.3 2.361e+04 5.218e-08
 11.94233   -249.2 2.353e+04 4.909e-08
 11.95248   -248.8 2.350e+04 4.502e-08
 11.96235   -248.5 2.343e+04 4.090e-08
 11.96742   -247.7 2.298e+04 3.963e-08
 11.97277   -247.3 2.302e+04 3.684e-08
 11.98291   -246.8 2.297e+04 3.385e-08
 11.99306   -246.5 2.280e+04 3.073e-08
 12.00148   -246.2 2.258e+04 2.734e-08
 12.00655   -245.8 2.255e+04 2.763e-08
 12.01335   -245.4 2.223e+04 2.489e-08
 12.02349   -244.9 2.193e+04 2.240e-08
 12.03364   -244.3 2.173e+04 2.006e-08
 12.04061   -243.8 2.159e+04 1.791e-08
 12.04371   -243.2 2.163e+04 1.883e-08
 12.04688   -242.9 2.169e+04 1.956e-08
 12.05393   -242.4 2.151e+04 1.771e-08
 12.06919   -241.9 2.122e+04 1.598e-08
 12.08953   -240.4 2.050e+04 1.314e-08
 12.10881   -239.1 2.018e+04 1.106e-08
 12.11896   -238.7 1.963e+04 1.190e-08
 12.13011   -237.9 1.897e+04 9.859e-09
 12.15040   -237.2 1.861e+04 8.264e-09
 12.16480   -236.6 1.846e+04 6.994e-09
 12.17494   -236.2 1.795e+04 6.658e-09
 12.18707   -235.5 1.751e+04 5.700e-09
 12.19721   -235.5 1.756e+04 6.197e-09
 12.21127   -235.0 1.691e+04 5.029e-09
 12.23156   -234.4 1.619e+04 4.059e-09
 12.25185   -233.7 1.585e+04 3.340e-09
 12.26532   -233.0 1.589e+04 2.909e-09
 12.27547   -233.5 1.440e+04 2.738e-09
 12.29243   -232.8 1.390e+04 2.298e-09
 12.31272   -232.0 1.358e+04 2.030e-09
 12.33301   -231.1 1.359e+04 1.894e-09
 12.34358   -229.9 1.365e+04 1.872e-09
 12.35372   -230.3 1.316e+04 1.839e-09
 12.37359   -229.0 1.316e+04 1.826e-09
 12.39388   -227.8 1.319e+04 1.824e-09
 12.41057   -226.5 1.325e+04 1.823e-09
 12.41823   -226.2 1.319e+04 1.660e-09
 12.42183   -226.4 1.310e+04 1.664e-09
 12.43446   -225.0 1.310e+04 1.647e-09
 12.45475   -223.6 1.310e+04 1.614e-09
 12.47504   -222.1 1.310e+04 1.564e-09
 12.48994   -220.6 1.317e+04 1.503e-09
 12.50009   -220.9 1.284e+04 1.469e-09
 12.51562   -219.4 1.280e+04 1.399e-09
 12.53591   -218.0 1.273e+04 1.336e-09
 12.55620   -216.5 1.266e+04 1.275e-09
 12.56820   -214.9 1.265e+04 1.217e-09
 12.57834   -215.4 1.211e+04 1.118e-09
 12.59678   -213.9 1.204e+04 1.060e-09
 12.61707   -212.5 1.199e+04 1.013e-09
 12.63631   -210.9 1.199e+04 9.815e-10
 12.64645   -211.4 1.142e+04 8.334e-10
 12.65634   -209.8 1.139e+04 8.040e-10
 12.66648   -209.5 1.155e+04 8.391e-10
 12.67794   -208.0 1.161e+04 8.215e-10
 12.69823   -206.6 1.175e+04 8.143e-10
 12.71456   -205.3 1.195e+04 8.148e-10
 12.72471   -206.4 1.117e+04 4.979e-10
 12.73881   -205.4 1.110e+04 4.516e-10
 12.76934   -204.2 1.108e+04 4.237e-10
 12.81002   -200.8 1.131e+04 3.868e-10
 12.85060   -197.5 1.169e+04 3.539e-10
 12.87127   -194.0 1.240e+04 3.520e-10
 12.89156   -197.5 9.081e+03 1.448e-10
 12.91245   -194.9 9.223e+03 1.270e-10
 12.93274   -194.6 9.706e+03 1.326e-10
 12.97234   -192.2 9.928e+03 1.267e-10
 13.00749   -190.0 1.022e+04 1.274e-10
 13.02778   -193.7 8.806e+03 1.191e-10
 13.05350   -192.3 8.823e+03 1.196e-10
 13.09408   -191.2 9.055e+03 1.377e-10
 13.13466   -190.2 9.497e+03 1.892e-10
 13.16400   -189.5 9.840e+03 2.737e-10
 13.18429   -191.6 9.668e+03 2.878e-10
 13.21582   -191.1 9.896e+03 3.597e-10
 13.25640   -190.5 1.015e+04 4.212e-10
 13.29698   -189.8 1.060e+04 4.856e-10
 13.32051   -188.8 1.108e+04 5.426e-10
 13.34080   -190.0 1.042e+04 3.820e-10
 13.37814   -188.9 1.061e+04 3.940e-10
 13.40399   -187.9 1.089e+04 4.279e-10
 13.42428   -190.2 1.126e+04 5.247e-10
 13.45673   -188.9 1.162e+04 6.375e-10
 13.47702   -189.9 1.157e+04 5.751e-10
 13.49988   -188.0 1.205e+04 7.837e-10
 13.54046   -185.8 1.240e+04 1.015e-09
 13.57080   -183.6 1.264e+04 1.204e-09
 13.59099   -182.4 1.276e+04 1.292e-09
 13.61128   -181.1 1.289e+04 1.375e-09
 13.62319   -180.2 1.309e+04 1.464e-09
 13.63333   -180.5 1.350e+04 1.788e-09
 13.64957   -180.4 1.425e+04 1.948e-09
 13.65972   -184.2 1.859e+04 2.464e-09
 13.67215   -185.7 2.070e+04 3.841e-09
 13.69130   -186.9 2.154e+04 5.952e-09
 13.70140   -187.0 2.362e+04 8.214e-09
 13.70756   -187.4 2.347e+04 1.042e-08
 13.71770   -187.6 2.333e+04 1.237e-08
 13.72785   -187.6 2.303e+04 1.493e-08
 13.73540   -187.6 2.280e+04 1.704e-08
 13.74047   -188.6 2.431e+04 2.976e-08
 13.74814   -188.3 2.394e+04 3.320e-08
 13.75828   -188.1 2.384e+04 3.666e-08
 13.76843   -188.2 2.411e+04 4.022e-08
 13.77453   -189.1 2.476e+04 4.405e-08
 13.77846   -190.5 2.572e+04 7.280e-08
 13.78250   -194.7 2.583e+04 7.239e-08
 13.78872   -197.4 2.635e+04 7.265e-08
 13.79886   -200.5 2.656e+04 6.919e-08
 13.80858   -203.7 2.621e+04 6.171e-08
 13.81366   -206.8 2.602e+04 5.769e-08
 13.81915   -209.8 2.490e+04 4.360e-08
 13.82930   -212.2 2.372e+04 3.237e-08
 13.83944   -214.4 2.298e+04 2.425e-08
 13.84771   -216.6 2.282e+04 1.850e-08
 13.85278   -220.0 2.172e+04 1.121e-08
 13.85973   -222.8 2.143e+04 8.576e-09
 13.86988   -225.5 2.128e+04 7.209e-09
 13.88002   -228.0 2.126e+04 6.830e-09
 13.88684   -230.1 2.130e+04 6.785e-09
 13.89191   -232.4 1.745e+04 4.655e-09
 13.90031   -233.7 1.760e+04 5.023e-09
 13.91046   -232.6 1.620e+04 3.648e-09
 13.92060   -233.3 1.694e+04 4.247e-09
 13.92597   -233.9 1.763e+04 5.256e-09
 13.93104   -234.0 1.655e+04 3.593e-09
 13.94089   -234.0 1.741e+04 4.315e-09
 13.95104   -234.1 1.811e+04 5.480e-09
 13.96002   -234.2 1.862e+04 7.312e-09
 13.96509   -234.2 1.809e+04 4.737e-09
 13.97133   -234.1 1.880e+04 5.970e-09
 13.98147   -233.9 1.929e+04 7.613e-09
 13.99162   -233.7 1.946e+04 9.780e-09
 13.99915   -233.5 1.922e+04 1.228e-08
 14.00427   -233.8 1.806e+04 4.791e-09
 14.01708   -234.1 1.909e+04 6.695e-09
 14.02832   -235.3 2.127e+04 1.142e-08
 14.03335   -232.8 1.899e+04 8.377e-09
 14.03828   -233.9 2.106e+04 1.111e-08
 14.04335   -233.9 2.022e+04 6.746e-09
 14.05249   -235.8 2.348e+04 9.378e-09
 14.06263   -238.4 2.549e+04 3.588e-08
 14.07233   -241.0 2.519e+04 1.443e-07
 14.07740   -241.5 2.559e+04 6.457e-08
 14.08292   -244.0 2.448e+04 2.664e-07
 14.09307   -247.1 2.342e+04 6.939e-07
 14.10321   -251.3 2.288e+04 1.088e-06
 14.11146   -256.2 2.278e+04 1.170e-06
 14.11653   -256.4 2.252e+04 1.251e-06
 14.12350   -260.3 2.244e+04 1.223e-06
 14.13365   -263.2 2.324e+04 7.784e-07
 14.14379   -265.1 2.480e+04 3.734e-07
 14.15059   -265.9 2.775e+04 1.581e-07
 14.15288   -265.1 2.551e+04 3.378e-07
 14.15623   -264.5 2.402e+04 6.704e-07
 14.16408   -264.1 2.494e+04 5.418e-07
 14.17423   -261.2 2.553e+04 5.040e-07
 14.18437   -255.7 2.714e+04 5.043e-07
 14.18969   -251.3 3.086e+04 3.892e-07
 14.19220   -254.0 3.058e+04 3.903e-07
 14.19701   -252.6 2.808e+04 8.270e-07
 14.20208   -251.5 2.381e+04 2.519e-06
 14.20669   -250.0 1.902e+04 1.150e-05
 14.20923   -257.8 2.109e+04 5.065e-06
 14.21222   -263.1 2.004e+04 1.014e-05
 14.21509   -271.7 1.996e+04 1.251e-05
 14.21763   -278.8 1.558e+04 1.519e-04
 14.22237   -290.8 1.535e+04 1.589e-04
 14.22626   -296.3 1.659e+04 5.023e-05
 14.22879   -297.0 1.921e+04 1.109e-05
 14.23251   -296.8 1.912e+04 8.106e-06
 14.23758   -295.0 2.058e+04 3.175e-06
 14.24266   -293.7 2.374e+04 8.878e-07
 14.24582   -293.5 2.769e+04 3.053e-07
 14.24836   -292.4 2.476e+04 8.186e-07
 14.25280   -294.1 2.901e+04 2.908e-07
 14.25787   -296.1 3.134e+04 1.686e-07
 14.26287   -298.9 3.287e+04 1.112e-07
 14.26541   -299.4 2.938e+04 3.328e-07
 14.26802   -302.3 2.974e+04 2.949e-07
 14.27309   -305.0 2.976e+04 2.804e-07
 14.27653   -307.0 2.966e+04 2.785e-07
 14.27907   -307.9 2.964e+04 2.602e-07
 14.28241   -309.4 2.961e+04 2.255e-07
 14.28495   -319.3 2.107e+04 4.286e-06
 14.28831   -319.9 2.278e+04 2.748e-06
 14.29338   -317.4 2.606e+04 1.122e-06
 14.29845   -313.6 3.015e+04 4.002e-07
 14.30197   -311.2 3.263e+04 1.614e-07
 14.30451   -314.1 2.518e+04 1.027e-06
 14.30860   -311.5 2.791e+04 2.168e-07
 14.31367   -311.0 2.725e+04 1.213e-07
 14.31874   -310.6 2.650e+04 1.050e-07
 14.32638   -309.2 2.537e+04 9.873e-08
 14.33608   -305.0 2.411e+04 8.265e-08
 14.34115   -307.0 2.388e+04 1.279e-07
 14.34669   -303.0 2.329e+04 1.107e-07
 14.35684   -299.7 2.329e+04 9.478e-08
 14.36698   -297.2 2.349e+04 8.190e-08
 14.37521   -295.0 2.380e+04 7.028e-08
 14.38028   -295.7 2.323e+04 1.119e-07
 14.38727   -293.6 2.352e+04 9.561e-08
 14.39693   -291.7 2.381e+04 8.268e-08
 14.40201   -292.2 2.360e+04 9.496e-08
 14.40756   -290.5 2.374e+04 8.486e-08
 14.41433   -288.8 2.384e+04 7.576e-08
 14.41941   -289.0 2.375e+04 1.078e-07
 14.42785   -287.5 2.395e+04 9.460e-08
 14.43800   -286.2 2.403e+04 8.230e-08
 14.44814   -284.9 2.399e+04 7.135e-08
 14.45346   -283.6 2.389e+04 6.216e-08
 14.45853   -283.7 2.389e+04 8.658e-08
 14.46843   -282.4 2.387e+04 7.421e-08
 14.47858   -281.0 2.387e+04 6.502e-08
 14.48752   -279.7 2.391e+04 5.801e-08
 14.49259   -279.6 2.400e+04 8.076e-08
 14.49887   -278.5 2.418e+04 7.234e-08
 14.50901   -277.8 2.432e+04 6.377e-08
 14.51916   -277.1 2.434e+04 5.486e-08
 14.52489   -276.3 2.420e+04 4.669e-08
 14.52731   -276.5 2.286e+04 4.512e-08
 14.53172   -276.5 2.304e+04 4.480e-08
 14.53945   -275.4 2.262e+04 4.210e-08
 14.54959   -274.1 2.244e+04 3.958e-08
 14.55974   -272.9 2.241e+04 3.772e-08
 14.56577   -271.7 2.258e+04 3.576e-08
 14.57084   -271.7 2.245e+04 3.658e-08
 14.58003   -270.8 2.244e+04 3.627e-08
 14.59017   -270.1 2.241e+04 3.521e-08
 14.59983   -269.5 2.233e+04 3.347e-08
 14.60490   -269.4 2.205e+04 3.114e-08
 14.61046   -268.6 2.186e+04 3.053e-08
 14.62061   -267.6 2.171e+04 3.010e-08
 14.63075   -266.7 2.169e+04 2.978e-08
 14.63895   -265.8 2.177e+04 2.936e-08
 14.64403   -265.9 2.133e+04 2.864e-08
 14.64778   -265.1 2.126e+04 2.953e-08
 14.65285   -265.0 2.058e+04 1.737e-08
 14.66119   -264.2 2.051e+04 1.881e-08
 14.67133   -263.5 2.045e+04 2.034e-08
 14.67808   -262.9 2.042e+04 2.195e-08
 14.68315   -263.2 2.051e+04 1.958e-08
 14.69162   -262.5 2.043e+04 2.191e-08
 14.70177   -261.9 2.042e+04 2.451e-08
 14.71191   -261.3 2.045e+04 2.736e-08
 14.71721   -260.7 2.045e+04 3.032e-08
 14.72228   -260.9 2.074e+04 2.804e-08
 14.73220   -260.4 2.078e+04 3.115e-08
 14.74235   -259.8 2.080e+04 3.354e-08
 14.75126   -259.2 2.072e+04 3.516e-08
 14.75634   -259.5 2.112e+04 3.198e-08
 14.76264   -259.0 2.102e+04 3.285e-08
 14.77066   -258.6 2.076e+04 3.322e-08
 14.77574   -258.7 2.133e+04 2.116e-08
 14.78293   -258.1 2.119e+04 2.318e-08
 14.79039   -257.4 2.118e+04 2.546e-08
 14.79546   -258.1 2.180e+04 1.986e-08
 14.80322   -257.6 2.202e+04 2.211e-08
 14.81336   -257.5 2.226e+04 2.414e-08
 14.82351   -257.6 2.241e+04 2.569e-08
 14.82952   -257.7 2.244e+04 2.671e-08
 14.83459   -258.7 2.249e+04 2.018e-08
 14.84380   -259.0 2.241e+04 2.060e-08
 14.85394   -259.4 2.224e+04 2.077e-08
 14.86357   -260.0 2.212e+04 2.032e-08
 14.86865   -260.7 2.164e+04 1.768e-08
 14.87423   -261.2 2.147e+04 1.754e-08
 14.88438   -261.7 2.137e+04 1.718e-08
 14.89355   -262.1 2.133e+04 1.657e-08
 14.89862   -263.8 2.070e+04 1.405e-08
 14.90275   -265.5 2.022e+04 1.229e-08
 14.91294   -266.9 1.896e+04 1.040e-08
 14.93013   -269.5 1.794e+04 7.970e-09
 14.95042   -272.6 1.667e+04 5.515e-09
 14.97071   -275.8 1.523e+04 3.738e-09
 14.98105   -278.7 1.397e+04 2.643e-09
 14.99120   -278.8 1.383e+04 2.510e-09
 15.01129   -280.7 1.317e+04 2.005e-09
 15.03158   -282.2 1.273e+04 1.690e-09
 15.04916   -283.4 1.234e+04 1.439e-09
 15.05931   -283.2 1.221e+04 1.377e-09
 15.07216   -284.1 1.181e+04 1.164e-09
 15.09245   -284.9 1.145e+04 9.907e-10
 15.11274   -285.5 1.113e+04 8.564e-10
 15.12742   -286.0 1.088e+04 7.575e-10
 15.13756   -285.3 1.077e+04 7.391e-10
 15.14449   -285.5 1.059e+04 6.769e-10
 15.15464   -286.3 1.042e+04 6.171e-10
 15.17361   -286.0 1.023e+04 5.538e-10
 15.19390   -285.4 1.007e+04 4.963e-10
 15.20567   -284.6 9.942e+03 4.508e-10
 15.21582   -283.8 9.880e+03 4.305e-10
 15.23448   -283.3 9.853e+03 4.154e-10
 15.25477   -282.9 9.828e+03 4.038e-10
 15.27378   -282.3 9.789e+03 3.887e-10
 15.29417   -279.7 9.743e+03 3.729e-10
 15.32598   -278.3 9.670e+03 3.486e-10
 15.36656   -276.7 9.612e+03 3.246e-10
 15.39036   -275.0 9.505e+03 3.000e-10
 15.41065   -275.6 9.360e+03 2.756e-10
 15.43049   -273.7 9.499e+03 2.945e-10
 15.45078   -272.0 9.251e+03 2.605e-10
 15.48829   -270.0 9.537e+03 3.074e-10
 15.52887   -268.1 9.952e+03 3.817e-10
 15.56671   -266.4 1.045e+04 4.986e-10
 15.58700   -264.6 1.011e+04 4.384e-10
 15.61003   -262.9 1.057e+04 5.469e-10
 15.63613   -261.8 1.114e+04 7.043e-10
 15.64618   -261.9 1.081e+04 6.023e-10
 15.65491   -261.4 1.102e+04 6.467e-10
 15.66506   -261.1 1.080e+04 6.039e-10
 15.68085   -260.3 1.099e+04 6.425e-10
 15.70114   -259.8 1.114e+04 6.874e-10
 15.72143   -259.1 1.137e+04 7.574e-10
 15.73317   -258.5 1.170e+04 8.585e-10
 15.74331   -257.5 1.087e+04 5.987e-10
 15.76201   -257.0 1.114e+04 6.704e-10
 15.78230   -256.5 1.159e+04 7.773e-10
 15.80128   -256.2 1.225e+04 9.853e-10
 15.81142   -255.4 1.089e+04 6.132e-10
 15.82288   -255.1 1.169e+04 7.946e-10
 15.84317   -254.8 1.269e+04 1.136e-09
 15.86346   -254.4 1.369e+04 1.695e-09
 15.87953   -254.0 1.460e+04 2.506e-09
 15.88773   -253.3 1.334e+04 1.453e-09
 15.89195   -253.7 1.148e+04 8.466e-10
 15.90404   -253.3 1.247e+04 1.164e-09
 15.92433   -252.9 1.339e+04 1.581e-09
 15.94462   -252.6 1.412e+04 2.060e-09
 15.95779   -252.3 1.459e+04 2.534e-09
 15.96793   -251.7 1.291e+04 1.315e-09
 15.98520   -251.3 1.336e+04 1.524e-09
 16.00549   -250.9 1.364e+04 1.686e-09
 16.02578   -250.3 1.378e+04 1.782e-09
 16.03604   -249.5 1.384e+04 1.823e-09
 16.04619   -249.2 1.227e+04 8.593e-10
 16.06636   -248.5 1.247e+04 8.616e-10
 16.08665   -247.7 1.260e+04 8.641e-10
 16.10415   -247.0 1.269e+04 8.643e-10
 16.11430   -246.9 1.103e+04 4.043e-10
 16.12723   -246.2 1.115e+04 3.988e-10
 16.13772   -245.5 1.129e+04 3.942e-10
 16.14787   -246.3 9.658e+03 2.132e-10
 16.16781   -245.7 9.715e+03 2.058e-10
 16.18241   -245.1 9.760e+03 2.016e-10
 16.19255   -244.4 9.156e+03 1.637e-10
 16.20839   -243.8 9.188e+03 1.577e-10
 16.22868   -243.3 9.249e+03 1.571e-10
 16.24897   -242.6 9.340e+03 1.553e-10
 16.26066   -242.2 9.375e+03 1.582e-10
 16.27081   -242.1 9.137e+03 1.456e-10
 16.28955   -241.5 9.169e+03 1.450e-10
 16.30984   -241.1 9.181e+03 1.452e-10
 16.32877   -240.5 9.218e+03 1.453e-10
 16.33892   -240.1 9.070e+03 1.418e-10
 16.35042   -239.8 9.080e+03 1.420e-10
 16.37071   -239.4 9.085e+03 1.423e-10
 16.38349   -239.2 9.119e+03 1.432e-10
 16.39374   -240.1 8.999e+03 1.367e-10
 16.42163   -239.3 9.039e+03 1.397e-10
 16.45197   -238.6 9.206e+03 1.598e-10
 16.47216   -238.6 9.595e+03 1.984e-10
 16.48528   -238.6 1.020e+04 2.763e-10
 16.49543   -237.6 9.821e+03 2.305e-10
 16.51274   -237.7 1.049e+04 3.286e-10
 16.53303   -237.7 1.120e+04 4.968e-10
 16.55332   -237.9 1.179e+04 7.504e-10
 16.57361   -237.3 1.182e+04 8.099e-10
 16.59390   -237.4 1.211e+04 1.042e-09
 16.61419   -237.5 1.219e+04 1.191e-09
 16.62926   -237.6 1.218e+04 1.231e-09
 16.63658   -237.2 1.214e+04 1.131e-09
 16.64179   -236.5 1.199e+04 1.009e-09
 16.65477   -236.6 1.197e+04 1.045e-09
 16.67506   -236.5 1.189e+04 1.043e-09
 16.69535   -236.2 1.168e+04 9.259e-10
 16.70990   -235.8 1.142e+04 7.360e-10
 16.72005   -235.1 1.147e+04 7.586e-10
 16.73593   -234.5 1.124e+04 5.698e-10
 16.75622   -233.8 1.102e+04 4.249e-10
 16.77811   -233.5 1.074e+04 3.236e-10
 16.79840   -232.1 1.077e+04 3.043e-10
 16.82733   -231.6 1.066e+04 2.777e-10
 16.86509   -230.2 1.044e+04 2.380e-10
 16.88538   -229.7 1.045e+04 2.385e-10
 16.90859   -227.8 1.026e+04 2.107e-10
 16.93472   -225.8 1.022e+04 2.031e-10
 16.95501   -224.8 1.049e+04 2.405e-10
 16.98975   -222.9 1.049e+04 2.473e-10
 17.03033   -221.2 1.059e+04 2.592e-10
 17.07091   -219.4 1.068e+04 2.703e-10
 17.11149   -217.2 1.102e+04 3.262e-10
 17.15207   -215.5 1.104e+04 3.170e-10
 17.19265   -213.9 1.106e+04 3.029e-10
 17.22745   -212.4 1.112e+04 2.939e-10
 17.24774   -212.1 1.132e+04 3.400e-10
 17.27381   -210.6 1.140e+04 3.482e-10
 17.31439   -209.5 1.153e+04 3.689e-10
 17.35497   -208.9 1.174e+04 4.047e-10
 17.37692   -208.7 1.216e+04 5.070e-10
 17.38562   -209.6 1.270e+04 7.975e-10
 17.40425   -209.2 1.287e+04 9.911e-10
 17.43613   -209.5 1.309e+04 1.103e-09
 17.47671   -210.1 1.334e+04 1.262e-09
 17.51729   -210.6 1.361e+04 1.431e-09
 17.54037   -211.1 1.364e+04 1.406e-09
 17.55042   -211.7 1.325e+04 1.161e-09
 17.56782   -212.3 1.330e+04 1.279e-09
 17.58811   -212.7 1.342e+04 1.444e-09
 17.60838   -213.0 1.357e+04 1.645e-09
 17.62248   -213.1 1.334e+04 1.353e-09
 17.63264   -213.5 1.347e+04 1.448e-09
 17.64898   -213.7 1.357e+04 1.530e-09
 17.66927   -213.8 1.361e+04 1.560e-09
 17.68664   -213.9 1.361e+04 1.530e-09
 17.69678   -214.0 1.312e+04 9.966e-10
 17.70985   -214.0 1.301e+04 9.090e-10
 17.73014   -214.0 1.284e+04 8.253e-10
 17.75043   -214.0 1.265e+04 7.495e-10
 17.76489   -213.8 1.245e+04 6.868e-10
 17.77504   -213.5 1.219e+04 4.507e-10
 17.79101   -212.9 1.214e+04 4.331e-10
 17.81130   -212.3 1.213e+04 4.312e-10
 17.83159   -211.8 1.214e+04 4.354e-10
 17.84315   -211.4 1.216e+04 4.780e-10
 17.85329   -210.8 1.204e+04 3.436e-10
 17.86827   -210.2 1.214e+04 4.169e-10
 17.88866   -209.8 1.200e+04 3.836e-10
 17.91135   -208.9 1.215e+04 5.302e-10
 17.92140   -208.7 1.209e+04 4.768e-10
 17.93304   -208.2 1.211e+04 5.557e-10
 17.95333   -207.4 1.210e+04 6.101e-10
 17.97362   -206.8 1.209e+04 6.261e-10
 17.98951   -206.1 1.208e+04 6.315e-10
 17.99966   -205.9 1.204e+04 6.146e-10
 18.01420   -205.1 1.198e+04 6.066e-10
 18.03449   -204.2 1.190e+04 5.700e-10
 18.05478   -203.3 1.184e+04 5.290e-10
 18.06777   -202.4 1.179e+04 4.932e-10
 18.07791   -202.2 1.178e+04 4.841e-10
 18.09536   -201.1 1.174e+04 4.595e-10
 18.12583   -200.0 1.173e+04 4.361e-10
 18.16651   -197.4 1.170e+04 4.345e-10
 18.20715   -195.7 1.174e+04 4.410e-10
 18.24773   -194.2 1.178e+04 4.669e-10
 18.27806   -192.8 1.183e+04 5.111e-10
 18.29239   -192.2 1.184e+04 5.235e-10
 18.30263   -193.2 1.202e+04 6.161e-10
 18.32889   -191.5 1.207e+04 6.375e-10
 18.36001   -189.8 1.209e+04 6.455e-10
 18.38030   -189.5 1.200e+04 6.404e-10
 18.41005   -187.9 1.197e+04 6.058e-10
 18.43895   -186.3 1.189e+04 5.390e-10
 18.45924   -186.2 1.193e+04 5.832e-10
 18.49121   -184.8 1.177e+04 4.885e-10
 18.53179   -183.3 1.160e+04 3.954e-10
 18.57237   -181.7 1.140e+04 3.065e-10
 18.59546   -180.1 1.123e+04 2.313e-10
 18.61575   -179.8 1.136e+04 2.361e-10
 18.65353   -178.0 1.118e+04 1.769e-10
 18.69411   -176.1 1.104e+04 1.380e-10
 18.73168   -174.1 1.094e+04 1.144e-10
 18.75197   -173.7 1.099e+04 1.193e-10
 18.77527   -171.8 1.087e+04 1.071e-10
 18.81585   -170.0 1.079e+04 1.017e-10
 18.85155   -168.2 1.075e+04 1.006e-10
 18.87184   -167.9 1.079e+04 1.013e-10
 18.88819   -166.1 1.076e+04 1.014e-10
 18.90848   -165.7 1.084e+04 1.166e-10
 18.93759   -163.9 1.077e+04 1.204e-10
 18.97817   -162.2 1.073e+04 1.263e-10
 19.01875   -160.5 1.071e+04 1.304e-10
 19.04470   -158.7 1.070e+04 1.322e-10
 19.06499   -158.3 1.077e+04 1.594e-10
 19.09991   -156.3 1.068e+04 1.528e-10
 19.14049   -154.3 1.061e+04 1.425e-10
 19.18092   -152.1 1.058e+04 1.334e-10
 19.22150   -149.6 1.066e+04 1.488e-10
 19.26222   -147.7 1.068e+04 1.493e-10
 19.30280   -146.3 1.086e+04 1.655e-10
 19.33743   -145.2 1.118e+04 2.535e-10
 19.35742   -145.4 1.132e+04 3.515e-10
 19.36338   -145.4 1.131e+04 3.595e-10
 19.38396   -144.3 1.157e+04 5.391e-10
 19.42454   -143.5 1.179e+04 7.130e-10
 19.46512   -143.1 1.197e+04 8.538e-10
 19.49394   -142.9 1.201e+04 9.237e-10
 19.51423   -143.2 1.168e+04 7.088e-10
 19.54628   -143.2 1.158e+04 6.816e-10
 19.58686   -143.1 1.148e+04 6.444e-10
 19.62744   -143.0 1.139e+04 6.127e-10
 19.65045   -142.9 1.131e+04 5.839e-10
 19.67074   -142.9 1.112e+04 4.892e-10
 19.70860   -142.4 1.103e+04 4.761e-10
 19.74918   -141.7 1.098e+04 4.491e-10
 19.78667   -140.9 1.093e+04 4.220e-10
 19.80696   -140.7 1.085e+04 3.899e-10
 19.83034   -140.1 1.084e+04 3.732e-10
 19.85493   -139.8 1.086e+04 3.633e-10
 19.87522   -139.1 1.104e+04 4.065e-10
 19.91150   -139.2 1.126e+04 4.810e-10
 19.94318   -139.6 1.165e+04 6.481e-10
 19.96347   -139.8 1.152e+04 6.059e-10
 19.99266   -140.6 1.185e+04 7.969e-10
 20.03324   -141.9 1.203e+04 9.446e-10
 20.07382   -143.3 1.206e+04 9.879e-10
 20.09969   -144.6 1.197e+04 9.741e-10
 20.11998   -144.6 1.188e+04 9.082e-10
 20.15498   -145.7 1.179e+04 8.812e-10
 20.19556   -146.6 1.167e+04 7.865e-10
 20.23591   -147.4 1.166e+04 6.841e-10
 20.25620   -147.2 1.183e+04 7.964e-10
 20.26648   -147.0 1.191e+04 7.357e-10
 20.28667   -147.1 1.193e+04 7.057e-10
 20.30696   -147.4 1.197e+04 6.273e-10
 20.32411   -147.8 1.197e+04 5.966e-10
 20.33426   -148.0 1.195e+04 6.428e-10
 20.34627   -148.4 1.196e+04 5.955e-10
 20.35642   -148.0 1.201e+04 6.954e-10
 20.36783   -148.2 1.203e+04 6.812e-10
 20.38812   -148.3 1.207e+04 6.679e-10
 20.40237   -148.4 1.211e+04 6.537e-10
 20.41251   -148.6 1.214e+04 7.414e-10
 20.42870   -148.7 1.219e+04 7.336e-10
 20.44899   -148.8 1.220e+04 7.066e-10
 20.46928   -148.9 1.217e+04 6.680e-10
 20.48062   -148.8 1.212e+04 6.275e-10
 20.49077   -149.2 1.224e+04 7.251e-10
 20.50986   -149.2 1.220e+04 6.907e-10
 20.53015   -149.1 1.219e+04 6.773e-10
 20.54873   -149.0 1.220e+04 6.766e-10
 20.55888   -150.0 1.231e+04 7.924e-10
 20.57073   -150.1 1.245e+04 8.517e-10
 20.59102   -150.3 1.266e+04 1.025e-09
 20.60219   -150.4 1.286e+04 1.265e-09
 20.61234   -150.7 1.300e+04 1.396e-09
 20.62699   -150.6 1.318e+04 1.646e-09
 20.63713   -151.4 1.315e+04 1.613e-09
 20.65189   -151.3 1.323e+04 1.756e-09
 20.67218   -151.2 1.325e+04 1.798e-09
 20.69247   -150.9 1.316e+04 1.770e-09
 20.70524   -150.6 1.298e+04 1.582e-09
 20.71539   -151.3 1.275e+04 1.179e-09
 20.73305   -151.0 1.258e+04 9.632e-10
 20.75334   -150.7 1.243e+04 7.686e-10
 20.77335   -150.4 1.228e+04 6.162e-10
 20.78350   -151.1 1.215e+04 5.153e-10
 20.79392   -150.4 1.208e+04 4.922e-10
 20.81421   -149.7 1.206e+04 4.884e-10
 20.83792   -148.5 1.203e+04 4.793e-10
 20.85512   -149.4 1.196e+04 4.493e-10
 20.86195   -150.2 1.185e+04 4.555e-10
 20.88542   -148.3 1.197e+04 4.844e-10
 20.92600   -146.5 1.208e+04 5.253e-10
 20.96658   -144.9 1.216e+04 5.751e-10
 20.99692   -144.1 1.214e+04 6.510e-10
 21.00812   -143.6 1.210e+04 7.184e-10
 21.01826   -144.1 1.215e+04 7.321e-10
 21.03740   -143.4 1.222e+04 7.994e-10
 21.05769   -142.8 1.232e+04 8.779e-10
 21.07622   -142.2 1.241e+04 9.658e-10
 21.08637   -142.7 1.238e+04 9.085e-10
 21.09373   -142.0 1.243e+04 9.593e-10
 21.10388   -142.6 1.227e+04 8.115e-10
 21.11856   -142.0 1.227e+04 8.280e-10
 21.13885   -141.3 1.226e+04 8.417e-10
 21.15448   -140.6 1.226e+04 8.583e-10
 21.17487   -140.8 1.206e+04 7.232e-10
 21.21006   -139.1 1.196e+04 7.142e-10
 21.25064   -137.5 1.188e+04 7.107e-10
 21.29090   -135.8 1.185e+04 7.086e-10
 21.31119   -136.1 1.155e+04 5.136e-10
 21.32956   -134.3 1.163e+04 5.646e-10
 21.34985   -134.6 1.143e+04 3.918e-10
 21.37238   -132.8 1.153e+04 4.432e-10
 21.41296   -131.0 1.161e+04 4.891e-10
 21.44741   -129.3 1.164e+04 5.189e-10
 21.46770   -129.3 1.150e+04 4.389e-10
 21.49412   -127.5 1.147e+04 4.485e-10
 21.53470   -125.6 1.143e+04 4.535e-10
 21.57528   -123.6 1.139e+04 4.598e-10
 21.60392   -121.5 1.137e+04 4.679e-10
 21.62420   -121.2 1.122e+04 3.776e-10
 21.65644   -119.1 1.122e+04 3.801e-10
 21.69702   -116.8 1.122e+04 3.620e-10
 21.73760   -114.5 1.122e+04 3.206e-10
 21.76042   -112.2 1.119e+04 2.590e-10
 21.78071   -111.8 1.119e+04 2.449e-10
 21.81876   -109.5 1.116e+04 2.142e-10
 21.84139   -107.3 1.113e+04 1.862e-10
 21.86168   -106.9 1.117e+04 2.098e-10
 21.89664   -104.7 1.113e+04 1.961e-10
 21.91693   -104.4 1.119e+04 2.168e-10
 21.94050   -102.3 1.117e+04 2.146e-10
 21.98108   -100.2 1.116e+04 2.179e-10
 22.02166    -98.2 1.119e+04 2.331e-10
 22.05315    -96.1 1.128e+04 2.637e-10
 22.07344    -96.2 1.142e+04 3.365e-10
 22.10282    -94.2 1.154e+04 3.958e-10
 22.14340    -92.3 1.165e+04 4.558e-10
 22.18398    -90.4 1.171e+04 5.003e-10
 22.20966    -88.6 1.175e+04 5.216e-10
 22.22995    -89.0 1.187e+04 5.693e-10
 22.26514    -87.1 1.186e+04 5.627e-10
 22.30572    -85.3 1.190e+04 5.653e-10
 22.33293    -83.8 1.194e+04 6.035e-10
 22.34298    -84.0 1.195e+04 5.921e-10
 22.35583    -83.3 1.198e+04 6.018e-10
 22.36598    -83.8 1.198e+04 5.801e-10
 22.37654    -83.5 1.215e+04 6.315e-10
 22.39683    -83.6 1.235e+04 7.544e-10
 22.41712    -84.1 1.273e+04 1.012e-09
 22.43409    -84.9 1.335e+04 1.581e-09
 22.44423    -86.3 1.362e+04 1.929e-09
 22.45770    -87.1 1.443e+04 3.239e-09
 22.47799    -87.7 1.511e+04 4.901e-09
 22.49828    -88.6 1.549e+04 5.958e-09
 22.51234    -89.7 1.553e+04 6.144e-09
 22.52249    -91.0 1.539e+04 5.947e-09
 22.53886    -91.6 1.479e+04 4.911e-09
 22.55915    -92.3 1.399e+04 3.114e-09
 22.57851    -93.2 1.319e+04 1.772e-09
 22.58865    -92.9 1.320e+04 1.879e-09
 22.59060    -93.8 1.250e+04 1.083e-09
 22.60074    -94.1 1.240e+04 1.061e-09
 22.62002    -94.5 1.198e+04 6.648e-10
 22.64031    -94.8 1.166e+04 4.845e-10
 22.65881    -94.9 1.137e+04 3.876e-10
 22.67919    -95.3 1.142e+04 3.741e-10
 22.71152    -93.1 1.094e+04 2.667e-10
 22.75210    -90.5 1.069e+04 2.063e-10
 22.79268    -88.2 1.068e+04 1.783e-10
 22.81541    -86.0 1.065e+04 1.621e-10
 22.82692    -85.9 1.075e+04 1.816e-10
 22.84477    -85.4 1.078e+04 1.796e-10
 22.87384    -83.2 1.066e+04 1.702e-10
 22.91442    -81.2 1.058e+04 1.612e-10
 22.95163    -79.1 1.053e+04 1.529e-10
 22.97192    -79.1 1.092e+04 1.640e-10
 22.99557    -77.1 1.084e+04 1.525e-10
 23.03615    -75.2 1.072e+04 1.407e-10
 23.07673    -73.5 1.072e+04 1.283e-10
 23.10814    -72.0 1.083e+04 1.217e-10
 23.12843    -73.0 1.137e+04 1.492e-10
 23.15789    -72.1 1.163e+04 1.808e-10
 23.19847    -71.2 1.176e+04 2.514e-10
 23.23905    -70.2 1.177e+04 3.630e-10
 23.26465    -68.9 1.175e+04 4.888e-10
 23.28494    -70.1 1.204e+04 7.593e-10
 23.31602    -68.7 1.197e+04 7.729e-10
 23.33631    -69.8 1.197e+04 8.011e-10
 23.36079    -68.1 1.174e+04 6.889e-10
 23.40087    -66.3 1.152e+04 5.498e-10
 23.42116    -67.1 1.154e+04 5.616e-10
 23.44195    -65.1 1.135e+04 4.249e-10
 23.48253    -63.1 1.124e+04 3.404e-10
 23.52311    -61.0 1.119e+04 2.917e-10
 23.55738    -58.9 1.116e+04 2.627e-10
 23.57767    -59.4 1.113e+04 2.415e-10
 23.60427    -57.2 1.108e+04 2.211e-10
 23.64485    -54.9 1.106e+04 2.078e-10
 23.68543    -52.7 1.104e+04 1.997e-10
 23.71389    -50.4 1.104e+04 1.977e-10
 23.73418    -50.7 1.097e+04 1.661e-10
 23.76659    -48.5 1.096e+04 1.673e-10
 23.80717    -46.3 1.099e+04 1.744e-10
 23.82785    -44.2 1.102e+04 1.853e-10
 23.84814    -44.1 1.098e+04 1.832e-10
 23.87040    -42.0 1.102e+04 1.981e-10
 23.89069    -42.0 1.099e+04 1.904e-10
 23.92891    -40.1 1.105e+04 2.179e-10
 23.96949    -38.3 1.116e+04 2.646e-10
 24.00662    -36.6 1.127e+04 3.392e-10
 24.02691    -36.8 1.131e+04 4.108e-10
 24.05065    -34.9 1.147e+04 5.542e-10
 24.09123    -33.0 1.158e+04 6.443e-10
 24.13181    -31.4 1.158e+04 6.368e-10
 24.16313    -29.6 1.142e+04 5.259e-10
 24.18342    -29.5 1.131e+04 4.539e-10
 24.21297    -27.9 1.112e+04 3.292e-10
 24.25355    -26.2 1.090e+04 2.519e-10
 24.29413    -24.3 1.075e+04 2.097e-10
 24.31940    -22.3 1.068e+04 1.856e-10
 24.32462    -22.1 1.064e+04 1.867e-10
 24.33993    -22.4 1.063e+04 1.915e-10
 24.37529    -20.4 1.065e+04 2.045e-10
 24.41587    -18.4 1.068e+04 2.410e-10
 24.45586    -16.1 1.071e+04 2.897e-10
 24.47615    -16.1 1.076e+04 2.995e-10
 24.49703    -13.8 1.078e+04 3.083e-10
 24.53761    -11.6 1.080e+04 3.005e-10
 24.57819     -9.8 1.081e+04 2.897e-10
 24.61237     -8.0 1.095e+04 2.920e-10
 24.63266     -8.1 1.080e+04 2.356e-10
 24.65935     -6.6 1.078e+04 2.886e-10
 24.69993     -4.6 1.082e+04 3.597e-10
 24.74051     -2.2 1.095e+04 4.235e-10
 24.76888     -0.4 1.100e+04 4.326e-10
 24.78917     -0.2 1.093e+04 3.326e-10
 24.81094      1.5 1.101e+04 3.158e-10
 24.83123      1.5 1.089e+04 2.662e-10
 24.86225      3.0 1.083e+04 2.816e-10
 24.90283      5.0 1.076e+04 2.998e-10
 24.92539      7.3 1.078e+04 2.936e-10
 24.94568      7.6 1.076e+04 2.778e-10
 24.98399      9.6 1.085e+04 2.542e-10
 25.02457     11.3 1.087e+04 2.555e-10
 25.06161     12.9 1.090e+04 2.803e-10
 25.08190     13.0 1.088e+04 2.285e-10
 25.10573     14.9 1.089e+04 2.753e-10
 25.14631     17.0 1.094e+04 3.129e-10
 25.18689     19.2 1.098e+04 3.121e-10
 25.21812     21.4 1.098e+04 2.916e-10
 25.23841     21.5 1.098e+04 2.845e-10
 25.26805     23.7 1.097e+04 2.599e-10
 25.30248     25.8 1.098e+04 2.320e-10
 25.32277     25.9 1.091e+04 2.063e-10
 25.34921     27.8 1.094e+04 1.927e-10
 25.37463     29.8 1.096e+04 1.950e-10
 25.39492     30.1 1.095e+04 1.924e-10
 25.43037     31.9 1.101e+04 2.070e-10
 25.47095     33.6 1.105e+04 2.502e-10
 25.51085     35.3 1.112e+04 3.206e-10
 25.53114     35.7 1.110e+04 2.855e-10
 25.55211     37.5 1.111e+04 3.171e-10
 25.59269     39.4 1.110e+04 3.081e-10
 25.63327     41.3 1.108e+04 2.800e-10
 25.66736     43.2 1.105e+04 2.396e-10
 25.68765     43.6 1.102e+04 2.066e-10
 25.71443     45.5 1.099e+04 1.866e-10
 25.75501     47.4 1.095e+04 1.713e-10
 25.79403     49.4 1.091e+04 1.604e-10
 25.81432     49.3 1.079e+04 1.510e-10
 25.82387     51.4 1.074e+04 1.456e-10
 25.84416     52.1 1.073e+04 1.492e-10
 25.87675     54.3 1.072e+04 1.426e-10
 25.91733     56.5 1.074e+04 1.352e-10
 25.95791     58.8 1.078e+04 1.320e-10
 25.98038     61.0 1.080e+04 1.337e-10
 26.00067     61.8 1.082e+04 1.409e-10
 26.03907     63.8 1.087e+04 1.468e-10
 26.07965     65.6 1.093e+04 1.708e-10
 26.11660     67.3 1.103e+04 2.447e-10
 26.13689     68.3 1.105e+04 2.487e-10
 26.16081     70.1 1.130e+04 3.900e-10
 26.20139     71.2 1.150e+04 5.676e-10
 26.23172     72.1 1.152e+04 6.457e-10
 26.25192     72.5 1.156e+04 6.848e-10
 26.27221     73.3 1.158e+04 6.992e-10
 26.28306     73.6 1.159e+04 6.980e-10
 26.29321     74.2 1.165e+04 7.300e-10
 26.30566     74.9 1.163e+04 7.011e-10
 26.32605     75.1 1.151e+04 5.920e-10
 26.36371     76.1 1.146e+04 5.305e-10
 26.40429     77.3 1.134e+04 4.103e-10
 26.42962     78.2 1.120e+04 3.167e-10
 26.44991     78.8 1.127e+04 3.459e-10
 26.48545     79.7 1.126e+04 3.363e-10
 26.52603     80.6 1.125e+04 3.517e-10
 26.56584     81.5 1.132e+04 3.898e-10
 26.58613     82.3 1.142e+04 4.076e-10
 26.60719     83.2 1.151e+04 4.505e-10
 26.64777     84.1 1.150e+04 4.506e-10
 26.68835     85.1 1.143e+04 4.272e-10
 26.72235     86.3 1.132e+04 3.602e-10
 26.74264     87.0 1.135e+04 3.374e-10
 26.76950     88.3 1.123e+04 2.541e-10
 26.79740     89.7 1.116e+04 1.917e-10
 26.81769     90.5 1.115e+04 1.799e-10
 26.85066     92.0 1.114e+04 1.420e-10
 26.87886     93.5 1.112e+04 1.156e-10
 26.89915     94.2 1.110e+04 9.561e-11
 26.93182     95.8 1.105e+04 7.953e-11
 26.97240     97.5 1.093e+04 7.484e-11
 27.01298     99.2 1.092e+04 7.525e-11
 27.03537    100.9 1.093e+04 8.053e-11
 27.05566    101.8 1.085e+04 7.274e-11
 27.09414    103.4 1.089e+04 8.514e-11
 27.13472    105.1 1.088e+04 1.131e-10
 27.17159    106.9 1.087e+04 1.543e-10
 27.19188    107.8 1.087e+04 1.314e-10
 27.21588    109.6 1.088e+04 1.679e-10
 27.25646    111.4 1.090e+04 2.021e-10
 27.28894    113.0 1.097e+04 2.200e-10
 27.30923    113.5 1.091e+04 2.302e-10
 27.32810    114.9 1.095e+04 2.432e-10
 27.34839    115.7 1.095e+04 2.211e-10
 27.37820    117.0 1.098e+04 2.308e-10
 27.41878    118.1 1.097e+04 2.294e-10
 27.45936    119.1 1.092e+04 2.231e-10
 27.48461    120.2 1.086e+04 2.161e-10
 27.50490    120.7 1.092e+04 2.323e-10
 27.54052    121.8 1.088e+04 2.343e-10
 27.58110    123.0 1.083e+04 2.408e-10
 27.62083    124.2 1.080e+04 2.509e-10
 27.64112    124.5 1.089e+04 2.707e-10
 27.66226    125.7 1.092e+04 2.845e-10
 27.70284    127.0 1.107e+04 3.169e-10
 27.74342    127.9 1.126e+04 3.761e-10
 27.77376    127.9 1.133e+04 4.303e-10
 27.78729    128.0 1.144e+04 5.312e-10
 27.79392    127.5 1.157e+04 6.178e-10
 27.80058    127.6 1.151e+04 6.179e-10
 27.81424    127.6 1.180e+04 8.811e-10
 27.83453    127.6 1.211e+04 1.234e-09
 27.85482    127.7 1.241e+04 1.598e-09
 27.86555    127.6 1.266e+04 1.786e-09
 27.87569    127.0 1.250e+04 1.596e-09
 27.89540    126.5 1.249e+04 1.428e-09
 27.91569    125.8 1.236e+04 1.184e-09
 27.93375    125.6 1.208e+04 8.177e-10
 27.95414    123.4 1.148e+04 5.321e-10
 27.98690    122.1 1.068e+04 2.633e-10
 28.02748    121.1 1.011e+04 1.864e-10
 28.06806    121.1 1.004e+04 1.841e-10
 28.09036    121.9 1.009e+04 1.917e-10
 28.11065    121.2 1.023e+04 2.153e-10
 28.14922    121.3 1.044e+04 2.605e-10
 28.17956    121.6 1.044e+04 2.894e-10
 28.19975    121.8 1.046e+04 3.131e-10
 28.22004    121.6 1.068e+04 4.171e-10
 28.23653    121.0 1.141e+04 6.894e-10
 28.24668    120.2 1.190e+04 8.778e-10
 28.26062    118.9 1.325e+04 1.746e-09
 28.28091    117.8 1.447e+04 3.365e-09
 28.29213    117.0 1.536e+04 5.351e-09
 28.30227    118.1 1.484e+04 4.024e-09
 28.31479    117.3 1.555e+04 5.619e-09
 28.32493    115.9 1.618e+04 6.904e-09
 28.34178    114.8 1.620e+04 6.759e-09
 28.36207    113.8 1.602e+04 5.966e-09
 28.38236    112.7 1.555e+04 4.339e-09
 28.39304    111.5 1.481e+04 2.818e-09
 28.40319    109.5 1.498e+04 2.937e-09
 28.42294    108.4 1.402e+04 2.058e-09
 28.44323    107.9 1.327e+04 1.567e-09
 28.47376    107.7 1.286e+04 1.395e-09
 28.51444    108.0 1.207e+04 9.021e-10
 28.53960    109.4 1.150e+04 6.113e-10
 28.55989    107.9 1.150e+04 5.956e-10
 28.59560    109.6 1.115e+04 4.318e-10
 28.63618    111.5 1.097e+04 3.707e-10
 28.67582    113.4 1.092e+04 3.578e-10
 28.69611    112.0 1.086e+04 3.626e-10
 28.71734    114.1 1.088e+04 3.848e-10
 28.75792    116.1 1.101e+04 4.355e-10
 28.78386    118.0 1.120e+04 4.877e-10
 28.80415    119.1 1.144e+04 7.270e-10
 28.83233    120.7 1.162e+04 7.718e-10
 28.85262    119.5 1.147e+04 6.936e-10
 28.87966    120.7 1.146e+04 6.639e-10
 28.92024    121.9 1.133e+04 5.540e-10
 28.96082    123.0 1.107e+04 4.033e-10
 28.98884    124.0 1.073e+04 2.745e-10
 29.00913    122.5 1.048e+04 2.273e-10
 29.04198    123.6 1.032e+04 2.007e-10
 29.08256    125.0 1.034e+04 2.025e-10
 29.12314    126.1 1.049e+04 2.220e-10
 29.14535    126.4 1.068e+04 2.674e-10
 29.15540    124.8 1.063e+04 2.674e-10
 29.17367    125.4 1.067e+04 2.906e-10
 29.19396    125.6 1.084e+04 3.703e-10
 29.21327    125.3 1.118e+04 5.293e-10
 29.22341    124.0 1.154e+04 6.783e-10
 29.23454    123.3 1.215e+04 1.014e-09
 29.25483    122.3 1.278e+04 1.482e-09
 29.27512    121.2 1.328e+04 2.056e-09
 29.29152    120.5 1.320e+04 2.211e-09
 29.30167    118.5 1.320e+04 2.211e-09
 29.31570    117.2 1.313e+04 2.177e-09
 29.33599    116.4 1.299e+04 2.098e-09
 29.36652    115.3 1.252e+04 1.725e-09
 29.40720    114.4 1.185e+04 1.222e-09
 29.43808    114.1 1.109e+04 7.565e-10
 29.45837    112.9 1.046e+04 4.295e-10
 29.48836    113.0 9.992e+03 2.843e-10
 29.52894    113.5 9.656e+03 2.218e-10
 29.56952    114.5 9.488e+03 2.034e-10
 29.59459    116.0 9.464e+03 2.024e-10
 29.61488    116.5 9.471e+03 2.197e-10
 29.65068    118.0 9.485e+03 2.228e-10
 29.69126    119.6 9.550e+03 2.377e-10
 29.73081    121.1 9.656e+03 2.664e-10
 29.75110    121.5 9.697e+03 2.728e-10
 29.76695    123.0 9.830e+03 3.157e-10
 29.78724    122.9 9.662e+03 2.733e-10
 29.81300    124.5 9.750e+03 3.027e-10
 29.85358    126.2 9.848e+03 3.302e-10
 29.88732    127.9 9.951e+03 3.561e-10
 29.90761    128.1 9.980e+03 3.609e-10
 29.93474    129.8 1.005e+04 3.686e-10
 29.97532    131.6 1.012e+04 3.707e-10
 30.01590    133.4 1.016e+04 3.693e-10
 30.04383    135.2 1.020e+04 3.644e-10
 30.06412    135.1 1.002e+04 3.022e-10
 30.09706    136.9 1.003e+04 3.004e-10
 30.13764    138.8 1.007e+04 3.053e-10
 30.17822    140.8 1.016e+04 3.219e-10
 30.20034    142.8 1.030e+04 3.489e-10
 30.22063    142.7 1.017e+04 3.238e-10
 30.25849    144.6 1.031e+04 3.512e-10
 30.27878    145.8 1.034e+04 3.558e-10
 30.29996    147.7 1.053e+04 3.941e-10
 30.33656    149.4 1.072e+04 4.269e-10
 30.35685    149.0 1.048e+04 3.786e-10
 30.38112    150.3 1.062e+04 3.995e-10
 30.42170    151.2 1.076e+04 4.240e-10
 30.46228    151.8 1.089e+04 4.465e-10
 30.49307    152.0 1.094e+04 4.682e-10
 30.51336    152.2 1.124e+04 6.137e-10
 30.54343    152.4 1.150e+04 6.579e-10
 30.58401    152.6 1.151e+04 6.497e-10
 30.62459    153.1 1.150e+04 6.244e-10
 30.64958    153.8 1.147e+04 5.463e-10
 30.66987    153.9 1.191e+04 7.577e-10
 30.70575    154.9 1.167e+04 5.801e-10
 30.74633    156.2 1.142e+04 4.339e-10
 30.77033    157.7 1.117e+04 3.344e-10
 30.78950    157.8 1.118e+04 3.187e-10
 30.80609    157.5 1.132e+04 4.334e-10
 30.82749    159.2 1.101e+04 3.497e-10
 30.86807    160.9 1.077e+04 3.021e-10
 30.90865    162.7 1.065e+04 2.881e-10
 30.94231    164.7 1.065e+04 2.879e-10
 30.96260    163.7 1.089e+04 3.639e-10
 30.98981    165.9 1.093e+04 3.796e-10
 31.03039    168.0 1.114e+04 4.387e-10
 31.07097    170.3 1.169e+04 6.164e-10
 31.09882    172.7 1.213e+04 8.652e-10
 31.11911    172.1 1.231e+04 1.207e-09
 31.15213    174.4 1.279e+04 1.526e-09
 31.17698    175.3 1.341e+04 1.952e-09
 31.18702    175.2 1.325e+04 1.838e-09
 31.20266    175.8 1.361e+04 2.045e-09
 31.22295    176.6 1.392e+04 2.045e-09
 31.24324    177.3 1.422e+04 2.043e-09
 31.25513    178.1 1.446e+04 1.943e-09
 31.26342    177.6 1.340e+04 1.137e-09
 31.27182    176.4 1.445e+04 2.159e-09
 31.28382    176.6 1.462e+04 2.278e-09
 31.30411    176.8 1.471e+04 2.434e-09
 31.32324    176.7 1.481e+04 2.700e-09
 31.33339    176.2 1.381e+04 2.115e-09
 31.34469    176.3 1.396e+04 2.523e-09
 31.36498    176.5 1.421e+04 3.141e-09
 31.38527    177.0 1.462e+04 4.060e-09
 31.40150    177.9 1.510e+04 5.151e-09
 31.41164    178.2 1.434e+04 4.080e-09
 31.42585    179.1 1.487e+04 4.997e-09
 31.44058    179.3 1.531e+04 5.769e-09
 31.44560    179.3 1.531e+04 5.753e-09
 31.45112    179.3 1.561e+04 6.232e-09
 31.46126    179.5 1.588e+04 6.814e-09
 31.47141    179.7 1.619e+04 7.529e-09
 31.47966    179.9 1.658e+04 8.405e-09
 31.48985    180.4 1.599e+04 6.653e-09
 31.50701    180.2 1.713e+04 9.226e-09
 31.51754    179.9 1.749e+04 1.003e-08
 31.51922    178.9 1.662e+04 7.511e-09
 31.52386    178.9 1.662e+04 7.491e-09
 31.53228    178.8 1.704e+04 8.465e-09
 31.54754    178.4 1.709e+04 8.250e-09
 31.55801    178.3 1.763e+04 9.479e-09
 31.56815    177.9 1.699e+04 8.869e-09
 31.58817    177.4 1.710e+04 9.017e-09
 31.60846    176.5 1.697e+04 8.674e-09
 31.62612    175.7 1.639e+04 7.146e-09
 31.63626    175.9 1.629e+04 7.760e-09
 31.64904    175.9 1.551e+04 5.759e-09
 31.66933    176.0 1.442e+04 3.552e-09
 31.68962    175.9 1.314e+04 1.917e-09
 31.70437    175.3 1.180e+04 1.003e-09
 31.71452    176.2 1.241e+04 1.441e-09
 31.73020    175.3 1.138e+04 8.602e-10
 31.75049    174.4 1.067e+04 6.184e-10
 31.76336    174.4 1.026e+04 5.593e-10
 31.77351    174.1 1.042e+04 5.879e-10
 31.78263    174.3 1.036e+04 5.809e-10
 31.79277    174.9 1.051e+04 6.311e-10
 31.81136    175.1 1.042e+04 6.150e-10
 31.83165    175.7 1.040e+04 6.114e-10
 31.85074    176.3 1.040e+04 6.123e-10
 31.86088    176.4 1.040e+04 6.212e-10
 31.87223    177.0 1.039e+04 6.217e-10
 31.89252    177.6 1.039e+04 6.274e-10
 31.91281    178.2 1.043e+04 6.461e-10
 31.92899    178.7 1.049e+04 6.721e-10
 31.93914    178.9 1.048e+04 6.709e-10
 31.95339    179.3 1.053e+04 6.901e-10
 31.97368    179.7 1.057e+04 6.890e-10
 31.99397    179.9 1.058e+04 6.784e-10
 32.00725    180.0 1.062e+04 6.451e-10
 32.01227    180.3 1.059e+04 6.398e-10
 32.01928    178.9 1.050e+04 5.202e-10
 32.03455    178.8 1.043e+04 4.446e-10
 32.05484    178.6 1.028e+04 3.928e-10
 32.08537    179.8 1.030e+04 3.768e-10
 32.12605    180.3 1.015e+04 3.175e-10
 32.15381    180.7 1.001e+04 2.750e-10
 32.17410    182.4 9.991e+03 2.775e-10
 32.20721    183.1 9.879e+03 2.441e-10
 32.24496    184.1 9.849e+03 2.194e-10
 32.26525    182.9 9.832e+03 2.045e-10
 32.28837    184.4 9.872e+03 2.016e-10
 32.31032    186.2 9.929e+03 2.028e-10
 32.33061    187.8 9.957e+03 2.111e-10
 32.36953    190.0 1.024e+04 2.207e-10
 32.41011    191.8 1.061e+04 2.392e-10
 32.44045    192.9 1.069e+04 2.492e-10
 32.45649    193.8 1.098e+04 2.694e-10
 32.46663    194.7 1.095e+04 2.893e-10
 32.48093    194.9 1.140e+04 3.429e-10
 32.50068    194.8 1.212e+04 5.204e-10
 32.51082    193.5 1.249e+04 7.648e-10
 32.52151    193.2 1.363e+04 1.507e-09
 32.53474    193.3 1.479e+04 2.962e-09
 32.54489    194.3 1.455e+04 2.519e-09
 32.56209    194.2 1.564e+04 4.070e-09
 32.57382    194.2 1.632e+04 5.286e-09
 32.57885    194.5 1.620e+04 5.140e-09
 32.58735    194.3 1.699e+04 6.761e-09
 32.59750    193.6 1.808e+04 9.866e-09
 32.60764    193.0 1.917e+04 1.489e-08
 32.61290    192.9 1.978e+04 2.358e-08
 32.61797    193.3 2.008e+04 2.109e-08
 32.62793    193.2 2.038e+04 3.013e-08
 32.63361    192.9 2.096e+04 3.253e-08
 32.63868    192.2 1.981e+04 2.051e-08
 32.64696    190.9 1.989e+04 1.914e-08
 32.65203    190.8 1.992e+04 1.679e-08
 32.65837    189.1 1.950e+04 1.469e-08
 32.66851    188.1 1.893e+04 1.287e-08
 32.68106    187.6 1.915e+04 1.381e-08
 32.69125    187.8 1.892e+04 1.143e-08
 32.70412    186.6 1.779e+04 6.785e-09
 32.72441    185.1 1.567e+04 2.936e-09
 32.74470    182.6 1.244e+04 1.146e-09
 32.75660    180.9 1.073e+04 5.454e-10
 32.76121    181.2 1.096e+04 5.749e-10
 32.77985    180.1 1.114e+04 6.275e-10
 32.81591    181.1 1.059e+04 4.796e-10
 32.85649    183.2 1.046e+04 4.404e-10
 32.89578    185.7 1.047e+04 4.399e-10
 32.91607    185.0 1.038e+04 4.198e-10
 32.93765    187.0 1.041e+04 4.342e-10
 32.96799    187.9 1.042e+04 4.624e-10
 32.98398    188.7 1.044e+04 5.234e-10
 32.99413    188.4 1.038e+04 4.759e-10
 33.00237    189.5 1.038e+04 5.247e-10
 33.01251    189.2 1.035e+04 4.944e-10
 33.02876    190.2 1.037e+04 5.104e-10
 33.04905    191.2 1.040e+04 5.078e-10
 33.06224    192.1 1.041e+04 4.982e-10
 33.07248    190.3 1.021e+04 3.674e-10
 33.08973    191.5 1.010e+04 3.411e-10
 33.10992    192.0 1.006e+04 3.342e-10
 33.13021    192.7 9.957e+03 3.240e-10
 33.14049    193.3 9.908e+03 3.236e-10
 33.15064    193.0 9.805e+03 3.027e-10
 33.17079    194.1 9.733e+03 3.036e-10
 33.19108    195.3 9.700e+03 3.193e-10
 33.20860    196.5 9.751e+03 3.538e-10
 33.21875    196.4 9.774e+03 3.507e-10
 33.23166    197.7 9.890e+03 3.907e-10
 33.24814    198.8 1.003e+04 4.323e-10
 33.25828    198.5 9.988e+03 4.185e-10
 33.27224    198.5 1.041e+04 5.093e-10
 33.28686    197.5 1.150e+04 7.411e-10
 33.29700    193.7 1.361e+04 1.624e-09
 33.31282    192.4 1.497e+04 3.178e-09
 33.33311    192.2 1.600e+04 5.911e-09
 33.35340    192.9 1.683e+04 9.704e-09
 33.36511    193.8 1.751e+04 1.280e-08
 33.37526    193.5 1.746e+04 1.117e-08
 33.39398    193.5 1.744e+04 1.042e-08
 33.41427    193.4 1.727e+04 8.034e-09
 33.43322    192.8 1.691e+04 5.084e-09
 33.44337    189.9 1.592e+04 1.896e-09
 33.45485    186.9 1.420e+04 1.076e-09
 33.47514    184.4 1.188e+04 7.394e-10
 33.49391    183.9 1.087e+04 6.296e-10
 33.50406    183.6 1.081e+04 6.210e-10
 33.51148    184.0 1.069e+04 5.906e-10
 33.52162    184.6 1.088e+04 6.053e-10
 33.53601    185.5 1.090e+04 5.914e-10
 33.55630    186.3 1.091e+04 5.705e-10
 33.57659    187.1 1.089e+04 5.510e-10
 33.58973    187.7 1.088e+04 5.432e-10
 33.59988    187.9 1.101e+04 5.801e-10
 33.61717    188.5 1.106e+04 5.853e-10
 33.63746    189.1 1.115e+04 6.069e-10
 33.65775    189.7 1.122e+04 6.352e-10
 33.67804    190.5 1.148e+04 7.550e-10
 33.69833    190.8 1.147e+04 7.494e-10
 33.71862    191.0 1.139e+04 7.198e-10
 33.73610    191.0 1.122e+04 6.598e-10
 33.74624    191.6 1.155e+04 7.982e-10
 33.74983    191.5 1.131e+04 6.948e-10
 33.75997    191.2 1.107e+04 5.908e-10
 33.77949    190.7 1.093e+04 5.562e-10
 33.79978    189.9 1.093e+04 5.570e-10
 33.81435    188.7 1.101e+04 5.799e-10
 33.82450    189.1 1.121e+04 6.537e-10
 33.84036    187.6 1.140e+04 7.264e-10
 33.86065    185.9 1.187e+04 9.472e-10
 33.88094    184.2 1.248e+04 1.356e-09
 33.89261    182.7 1.300e+04 1.931e-09
 33.90275    183.7 1.296e+04 1.801e-09
 33.92152    182.2 1.327e+04 2.240e-09
 33.94181    180.5 1.333e+04 2.344e-09
 33.96072    178.5 1.331e+04 2.318e-09
 33.97086    179.0 1.350e+04 2.210e-09
 33.98239    176.7 1.331e+04 2.139e-09
 33.99560    174.5 1.300e+04 1.974e-09
 34.00574    174.0 1.287e+04 1.880e-09
 34.02297    172.2 1.269e+04 1.760e-09
 34.03897    170.6 1.263e+04 1.671e-09
 34.04912    170.7 1.296e+04 1.986e-09
 34.06355    169.5 1.298e+04 1.987e-09
 34.08384    168.4 1.305e+04 2.005e-09
 34.10413    167.2 1.323e+04 2.088e-09
 34.11723    165.7 1.370e+04 2.410e-09
 34.12737    165.9 1.395e+04 2.687e-09
 34.14471    164.1 1.471e+04 3.539e-09
 34.16500    162.8 1.527e+04 4.491e-09
 34.18016    162.3 1.561e+04 5.162e-09
 34.19026    161.8 1.611e+04 6.174e-09
 34.19539    161.1 1.675e+04 7.813e-09
 34.20046    160.9 1.670e+04 7.457e-09
 34.21055    160.4 1.735e+04 9.397e-09
 34.22069    159.9 1.807e+04 1.170e-08
 34.22944    159.3 1.879e+04 1.455e-08
 34.23451    158.8 1.864e+04 1.317e-08
 34.24098    157.8 1.973e+04 1.622e-08
 34.24634    156.3 2.121e+04 2.081e-08
 34.25142    158.5 2.016e+04 1.866e-08
 34.26127    157.1 2.145e+04 2.300e-08
 34.26857    155.2 2.281e+04 2.950e-08
 34.27364    153.5 2.337e+04 2.632e-08
 34.28156    151.3 2.441e+04 3.457e-08
 34.29171    149.1 2.501e+04 4.476e-08
 34.30185    147.0 2.536e+04 5.387e-08
 34.30770    144.9 2.581e+04 5.698e-08
 34.31277    143.4 2.548e+04 4.498e-08
 34.32214    141.4 2.582e+04 4.440e-08
 34.33229    139.0 2.645e+04 4.436e-08
 34.34175    135.8 2.787e+04 4.265e-08
 34.34682    134.9 2.722e+04 3.387e-08
 34.35258    131.1 2.897e+04 3.101e-08
 34.36272    126.9 3.036e+04 2.655e-08
 34.36923    122.3 3.074e+04 2.086e-08
 34.37430    128.3 3.084e+04 3.978e-08
 34.38088    123.8 3.183e+04 3.121e-08
 34.38595    123.9 3.102e+04 2.857e-08
 34.39316    119.7 3.043e+04 2.091e-08
 34.40330    115.3 2.710e+04 1.366e-08
 34.41345    112.5 2.354e+04 9.432e-09
 34.42005    107.9 1.740e+04 4.921e-09
 34.43025    109.9 1.788e+04 7.425e-09
 34.44905    108.8 1.572e+04 4.309e-09
 34.46934    107.6 1.378e+04 2.154e-09
 34.48714    105.9 1.175e+04 1.053e-09
 34.49587    105.8 1.118e+04 1.133e-09
 34.49836    108.4 1.255e+04 1.602e-09
 34.52017    104.9 1.029e+04 5.479e-10
 34.55652    105.0 9.939e+03 2.454e-10
 34.57681    106.8 1.026e+04 3.178e-10
 34.60142    107.9 9.667e+03 2.544e-10
 34.64200    110.1 9.497e+03 2.253e-10
 34.68258    113.1 9.441e+03 2.057e-10
 34.71303    116.1 9.415e+03 1.983e-10
 34.73312    117.3 9.591e+03 2.459e-10
 34.74325    117.6 9.479e+03 2.239e-10
 34.76374    120.6 9.499e+03 2.271e-10
 34.80432    123.2 9.560e+03 2.411e-10
 34.84490    125.5 9.721e+03 2.842e-10
 34.86954    127.4 1.014e+04 3.987e-10
 34.88983    128.6 1.060e+04 5.641e-10
 34.92606    130.1 1.121e+04 8.141e-10
 34.96664    130.8 1.147e+04 9.219e-10
 35.00576    131.3 1.143e+04 8.948e-10
 35.02605    131.9 1.184e+04 1.127e-09
 35.04780    132.4 1.153e+04 9.149e-10
 35.07814    132.5 1.135e+04 8.154e-10
 35.09396    132.7 1.109e+04 6.757e-10
 35.10411    133.0 1.117e+04 7.076e-10
 35.11862    133.1 1.085e+04 5.296e-10
 35.13891    133.1 1.064e+04 4.548e-10
 35.16217    134.1 1.034e+04 3.639e-10
 35.18246    134.3 1.037e+04 3.654e-10
 35.21002    135.9 1.024e+04 3.314e-10
 35.23480    137.4 1.010e+04 3.034e-10
 35.25509    136.7 1.008e+04 3.042e-10
 35.29128    138.5 1.015e+04 3.196e-10
 35.31878    140.3 1.023e+04 3.307e-10
 35.33907    140.9 1.034e+04 3.683e-10
 35.37244    142.7 1.035e+04 3.658e-10
 35.41302    144.4 1.035e+04 3.435e-10
 35.45360    146.1 1.028e+04 2.911e-10
 35.47529    147.6 1.016e+04 2.334e-10
 35.49558    148.6 1.028e+04 2.889e-10
 35.53476    150.1 1.015e+04 2.500e-10
 35.57534    151.6 1.012e+04 2.489e-10
 35.61151    153.1 1.015e+04 2.625e-10
 35.63180    154.1 1.019e+04 2.968e-10
 35.65650    155.3 1.032e+04 3.339e-10
 35.69708    156.3 1.052e+04 3.991e-10
 35.72634    156.3 1.073e+04 4.750e-10
 35.73639    156.3 1.084e+04 5.411e-10
 35.74761    156.2 1.095e+04 6.077e-10
 35.76782    156.1 1.108e+04 6.510e-10
 35.78811    156.5 1.133e+04 7.288e-10
 35.80848    156.2 1.135e+04 7.269e-10
 35.82877    155.9 1.139e+04 7.173e-10
 35.84608    155.5 1.142e+04 7.022e-10
 35.85622    155.8 1.153e+04 7.809e-10
 35.86935    155.3 1.156e+04 7.543e-10
 35.88964    154.6 1.157e+04 7.267e-10
 35.90993    153.9 1.162e+04 6.949e-10
 35.92433    153.2 1.167e+04 6.568e-10
 35.93448    153.2 1.177e+04 6.992e-10
 35.95051    152.3 1.178e+04 6.396e-10
 35.97080    151.5 1.174e+04 5.801e-10
 35.98206    150.8 1.166e+04 5.208e-10
 35.99221    150.1 1.160e+04 4.905e-10
 36.00259    149.4 1.145e+04 4.315e-10
 36.01273    149.3 1.143e+04 4.328e-10
 36.03167    149.0 1.134e+04 4.018e-10
 36.06065    149.3 1.127e+04 3.775e-10
 36.08104    149.6 1.111e+04 3.675e-10
 36.10288    149.5 1.094e+04 3.162e-10
 36.14346    149.8 1.087e+04 2.870e-10
 36.18404    150.3 1.087e+04 2.833e-10
 36.21726    151.0 1.090e+04 2.867e-10
 36.23081    151.5 1.073e+04 2.669e-10
 36.23817    151.2 1.049e+04 1.937e-10
 36.26520    152.3 1.056e+04 2.013e-10
 36.30578    153.3 1.069e+04 2.250e-10
 36.34636    154.1 1.083e+04 2.624e-10
 36.37377    155.0 1.095e+04 3.111e-10
 36.39406    155.4 1.091e+04 3.164e-10
 36.42752    156.4 1.101e+04 3.840e-10
 36.46810    157.7 1.127e+04 4.674e-10
 36.49844    158.1 1.144e+04 5.176e-10
 36.51863    158.2 1.161e+04 5.664e-10
 36.53008    158.2 1.177e+04 6.208e-10
 36.54023    158.1 1.178e+04 6.538e-10
 36.55921    157.9 1.189e+04 6.874e-10
 36.57950    157.5 1.209e+04 7.222e-10
 36.59819    156.4 1.240e+04 8.061e-10
 36.60834    156.6 1.226e+04 7.598e-10
 36.62008    154.7 1.272e+04 8.947e-10
 36.64037    152.1 1.393e+04 1.345e-09
 36.66066    149.5 1.510e+04 2.290e-09
 36.67645    147.0 1.616e+04 3.519e-09
 36.68659    144.6 1.746e+04 5.017e-09
 36.70124    142.1 1.819e+04 8.150e-09
 36.71938    139.9 1.866e+04 1.160e-08
 36.72952    138.3 1.894e+04 1.488e-08
 36.74182    136.5 1.906e+04 1.681e-08
 36.75470    135.0 1.927e+04 1.913e-08
 36.76485    135.3 1.942e+04 2.058e-08
 36.78240    133.6 1.909e+04 1.841e-08
 36.80269    132.2 1.845e+04 1.496e-08
 36.82281    131.6 1.751e+04 1.041e-08
 36.83296    131.6 1.667e+04 6.800e-09
 36.84327    130.8 1.562e+04 4.225e-09
 36.86356    129.9 1.455e+04 2.478e-09
 36.88385    129.1 1.365e+04 1.622e-09
 36.91438    128.9 1.310e+04 1.125e-09
 36.95506    128.9 1.273e+04 7.748e-10
 36.97952    129.2 1.246e+04 5.676e-10
 36.99981    130.5 1.239e+04 4.864e-10
 37.03622    130.9 1.199e+04 3.718e-10
 37.07680    131.9 1.179e+04 3.636e-10
 37.11574    133.3 1.174e+04 3.646e-10
 37.13603    134.6 1.172e+04 3.569e-10
 37.15796    136.1 1.170e+04 3.675e-10
 37.19854    137.6 1.168e+04 3.652e-10
 37.22126    139.2 1.164e+04 3.474e-10
 37.24155    138.8 1.162e+04 3.490e-10
 37.27225    140.5 1.156e+04 3.085e-10
 37.29254    141.3 1.160e+04 3.371e-10
 37.32028    142.9 1.153e+04 2.848e-10
 37.36086    144.6 1.145e+04 2.466e-10
 37.40144    146.3 1.137e+04 2.349e-10
 37.42876    148.1 1.134e+04 2.355e-10
 37.44905    148.8 1.130e+04 2.193e-10
 37.48260    150.6 1.127e+04 2.225e-10
 37.52318    152.4 1.125e+04 2.315e-10
 37.56376    154.2 1.123e+04 2.404e-10
 37.58527    156.0 1.121e+04 2.435e-10
 37.60556    156.7 1.118e+04 2.262e-10
 37.64492    158.4 1.116e+04 2.221e-10
 37.68550    160.0 1.110e+04 2.087e-10
 37.71280    161.6 1.101e+04 1.875e-10
 37.72850    161.2 1.097e+04 1.369e-10
 37.74178    161.9 1.093e+04 1.344e-10
 37.76666    163.6 1.084e+04 1.172e-10
 37.80724    165.3 1.076e+04 1.002e-10
 37.84782    167.1 1.067e+04 8.614e-11
 37.87800    168.9 1.056e+04 7.568e-11
 37.89829    169.5 1.052e+04 7.399e-11
 37.92898    171.4 1.042e+04 6.620e-11
 37.96956    173.5 1.032e+04 6.099e-11
 38.01014    175.6 1.024e+04 5.768e-11
 38.03451    177.8 1.016e+04 5.600e-11
 38.05480    178.5 1.016e+04 5.300e-11
 38.09130    180.7 1.012e+04 5.265e-11
 38.13187    183.0 1.011e+04 5.287e-11
 38.17073    185.4 1.009e+04 5.372e-11
 38.19102    186.1 1.010e+04 5.002e-11
 38.20435    188.4 1.010e+04 5.214e-11
 38.22464    188.1 1.017e+04 4.142e-11
 38.25361    190.5 1.018e+04 4.400e-11
 38.29419    192.8 1.021e+04 4.815e-11
 38.32724    195.1 1.025e+04 5.349e-11
 38.34753    195.7 1.027e+04 5.630e-11
 38.37535    198.0 1.031e+04 6.564e-11
 38.41593    200.2 1.033e+04 7.557e-11
 38.45651    202.4 1.035e+04 8.469e-11
 38.48375    204.4 1.036e+04 9.177e-11
 38.50404    205.1 1.045e+04 1.083e-10
 38.53767    207.1 1.059e+04 1.196e-10
 38.57825    208.9 1.074e+04 1.384e-10
 38.61883    210.7 1.088e+04 1.711e-10
 38.64026    212.4 1.102e+04 2.247e-10
 38.66055    213.0 1.114e+04 2.568e-10
 38.69589    214.6 1.132e+04 3.406e-10
 38.71618    214.1 1.145e+04 3.708e-10
 38.74057    215.4 1.157e+04 4.565e-10
 38.77648    216.4 1.157e+04 5.176e-10
 38.79677    216.7 1.166e+04 5.545e-10
 38.82173    217.6 1.163e+04 5.666e-10
 38.86231    218.5 1.160e+04 5.682e-10
 38.90289    219.5 1.158e+04 5.735e-10
 38.93299    220.6 1.157e+04 6.039e-10
 38.95328    220.7 1.167e+04 6.660e-10
 38.98405    221.7 1.185e+04 7.789e-10
 39.02463    222.2 1.203e+04 8.914e-10
 39.06521    222.0 1.205e+04 9.050e-10
 39.08950    221.9 1.200e+04 8.812e-10
 39.10979    221.6 1.193e+04 8.543e-10
 39.14637    221.7 1.166e+04 7.207e-10
 39.18695    222.0 1.129e+04 5.440e-10
 39.20772    222.5 1.090e+04 3.880e-10
 39.22620    222.4 1.088e+04 3.842e-10
 39.24601    222.4 1.078e+04 3.536e-10
 39.26811    223.0 1.049e+04 2.716e-10
 39.30869    223.6 1.028e+04 2.220e-10
 39.34927    224.3 1.014e+04 1.937e-10
 39.38223    225.2 1.003e+04 1.761e-10
 39.40252    225.1 1.005e+04 1.794e-10
 39.43043    226.0 9.943e+03 1.628e-10
 39.47101    227.0 9.840e+03 1.466e-10
 39.51159    228.2 9.739e+03 1.313e-10
 39.53874    229.4 9.647e+03 1.183e-10
 39.55903    229.1 9.678e+03 1.318e-10
 39.59275    230.4 9.596e+03 1.236e-10
 39.63333    231.8 9.530e+03 1.170e-10
 39.67391    233.2 9.480e+03 1.122e-10
 39.69525    234.6 9.438e+03 1.101e-10
 39.70031    234.2 9.493e+03 1.273e-10
 39.71956    233.7 9.477e+03 1.185e-10
 39.75507    235.0 9.471e+03 1.190e-10
 39.79565    236.4 9.457e+03 1.214e-10
 39.83147    237.8 9.452e+03 1.259e-10
 39.85176    237.2 9.474e+03 1.339e-10
 39.87681    238.5 9.458e+03 1.334e-10
 39.91739    239.7 9.441e+03 1.312e-10
 39.95797    240.9 9.416e+03 1.283e-10
 39.98798    242.1 9.376e+03 1.264e-10
 40.00827    241.3 9.371e+03 1.272e-10
 40.03913    242.4 9.373e+03 1.274e-10
 40.07971    243.6 9.394e+03 1.291e-10
 40.12029    244.8 9.419e+03 1.365e-10
 40.14449    246.1 9.430e+03 1.537e-10
 40.16478    245.5 9.569e+03 1.930e-10
 40.19081    247.0 9.641e+03 2.287e-10
 40.21110    246.0 9.830e+03 2.823e-10
 40.24203    247.5 9.965e+03 3.289e-10
 40.28071    248.7 1.011e+04 3.665e-10
 40.30099    247.8 1.015e+04 3.707e-10
 40.32319    248.5 1.015e+04 3.687e-10
 40.36377    249.0 1.009e+04 3.522e-10
 40.40435    249.4 9.953e+03 3.129e-10
 40.43721    249.7 9.765e+03 2.635e-10
 40.45750    249.1 9.817e+03 2.825e-10
 40.48551    249.7 9.640e+03 2.412e-10
 40.52609    250.3 9.474e+03 2.092e-10
 40.56667    251.1 9.329e+03 1.884e-10
 40.59372    252.0 9.207e+03 1.764e-10
 40.61401    251.6 9.279e+03 1.889e-10
 40.64783    252.6 9.094e+03 1.784e-10
 40.68235    253.6 9.049e+03 1.785e-10
 40.70264    253.0 9.125e+03 1.937e-10
 40.72899    254.1 9.129e+03 1.952e-10
 40.75023    255.1 9.155e+03 2.043e-10
 40.77052    255.7 9.419e+03 2.293e-10
 40.81015    257.1 9.653e+03 2.612e-10
 40.84049    257.8 9.685e+03 2.761e-10
 40.86068    258.3 9.790e+03 2.985e-10
 40.88097    258.2 9.966e+03 3.385e-10
 40.89640    258.0 1.022e+04 4.032e-10
 40.90655    257.6 1.061e+04 4.978e-10
 40.92155    257.2 1.094e+04 6.263e-10
 40.93807    256.7 1.135e+04 8.058e-10
 40.94822    255.4 1.195e+04 1.178e-09
 40.96213    254.7 1.248e+04 1.553e-09
 40.97466    253.9 1.311e+04 2.097e-09
 40.98480    253.8 1.365e+04 2.759e-09
 41.00271    252.9 1.434e+04 3.615e-09
 41.02300    251.8 1.497e+04 4.493e-09
 41.04277    250.4 1.543e+04 4.917e-09
 41.05291    250.5 1.567e+04 5.400e-09
 41.06358    248.4 1.599e+04 5.380e-09
 41.08387    245.7 1.609e+04 5.292e-09
 41.10416    241.8 1.629e+04 4.808e-09
 41.12102    236.6 1.751e+04 3.872e-09
 41.13117    235.2 1.821e+04 4.487e-09
 41.14474    230.4 1.845e+04 4.565e-09
 41.16503    225.5 1.831e+04 4.814e-09
 41.18385    221.9 1.764e+04 4.953e-09
 41.19399    219.1 1.730e+04 5.461e-09
 41.19928    217.6 1.623e+04 4.577e-09
 41.20942    217.1 1.622e+04 4.455e-09
 41.22590    215.7 1.526e+04 2.858e-09
 41.24619    213.3 1.409e+04 1.495e-09
 41.26648    210.2 1.260e+04 6.976e-10
 41.27753    207.0 1.089e+04 3.429e-10
 41.28768    205.0 1.010e+04 2.571e-10
 41.30706    203.4 9.508e+03 2.132e-10
 41.33560    204.2 9.570e+03 2.066e-10
 41.35598    203.2 9.405e+03 2.039e-10
 41.37827    204.9 9.327e+03 2.069e-10
 41.41885    206.2 9.311e+03 2.168e-10
 41.45943    207.2 9.372e+03 2.397e-10
 41.49220    207.8 9.496e+03 2.733e-10
 41.51249    207.8 9.527e+03 2.772e-10
 41.54059    208.1 9.720e+03 3.227e-10
 41.58117    207.9 9.901e+03 3.693e-10
 41.62175    207.8 1.005e+04 4.089e-10
 41.64871    207.7 1.019e+04 4.450e-10
 41.66900    207.1 1.095e+04 7.301e-10
 41.68573    207.1 1.112e+04 8.157e-10
 41.70602    207.0 1.110e+04 8.243e-10
 41.74349    207.6 1.132e+04 9.495e-10
 41.78407    208.2 1.160e+04 1.117e-09
 41.80522    208.8 1.190e+04 1.287e-09
 41.82551    207.1 1.181e+04 1.243e-09
 41.86523    208.0 1.188e+04 1.256e-09
 41.90580    208.6 1.211e+04 1.312e-09
 41.93140    208.0 1.208e+04 1.255e-09
 41.94145    208.0 1.224e+04 1.324e-09
 41.95139    207.3 1.263e+04 1.457e-09
 41.96154    206.5 1.208e+04 1.172e-09
 41.97662    205.2 1.272e+04 1.382e-09
 41.99691    203.4 1.365e+04 1.814e-09
 42.01720    201.4 1.456e+04 2.474e-09
 42.02965    199.3 1.514e+04 3.136e-09
 42.03979    196.9 1.439e+04 2.666e-09
 42.05778    194.3 1.437e+04 2.876e-09
 42.07807    191.6 1.422e+04 2.828e-09
 42.09776    189.3 1.371e+04 2.564e-09
 42.10790    187.9 1.361e+04 2.624e-09
 42.11865    187.0 1.306e+04 2.201e-09
 42.13894    187.0 1.264e+04 1.737e-09
 42.15923    186.2 1.216e+04 1.356e-09
 42.17717    183.5 1.122e+04 8.307e-10
 42.19756    183.4 1.132e+04 9.166e-10
 42.23044    181.7 1.006e+04 5.289e-10
 42.25446    181.0 9.591e+03 4.136e-10
 42.27475    179.5 9.404e+03 3.949e-10
 42.31160    179.0 9.266e+03 3.459e-10
 42.35218    178.8 9.239e+03 3.414e-10
 42.39068    178.9 9.224e+03 3.389e-10
 42.41097    177.3 9.108e+03 3.118e-10
 42.43334    177.4 8.986e+03 2.841e-10
 42.47392    177.5 8.853e+03 2.523e-10
 42.51450    177.6 8.688e+03 2.208e-10
 42.54719    177.8 8.509e+03 1.904e-10
 42.56748    175.9 8.500e+03 1.951e-10
 42.59566    176.2 8.427e+03 1.816e-10
 42.63624    176.7 8.390e+03 1.700e-10
 42.66882    177.4 8.358e+03 1.547e-10
 42.68911    177.3 8.372e+03 1.533e-10
 42.70370    178.1 8.329e+03 1.337e-10
 42.72399    175.7 8.692e+03 1.958e-10
 42.75798    176.9 8.609e+03 1.878e-10
 42.79856    178.5 8.584e+03 1.863e-10
 42.83914    180.4 8.587e+03 1.871e-10
 42.86021    182.5 8.628e+03 1.924e-10
 42.88050    180.9 9.384e+03 3.100e-10
 42.92030    181.8 9.654e+03 3.287e-10
 42.95064    182.2 9.788e+03 3.412e-10
 42.97083    182.8 9.997e+03 3.780e-10
 42.99112    183.6 1.021e+04 4.710e-10
 43.00638    184.9 1.037e+04 6.131e-10
 43.01653    184.6 1.064e+04 9.141e-10
 43.03170    185.9 1.091e+04 1.114e-09
 43.05199    186.0 1.176e+04 1.503e-09
 43.07228    185.9 1.325e+04 2.186e-09
 43.08459    185.6 1.388e+04 2.566e-09
 43.08961    183.7 1.562e+04 3.004e-09
 43.09755    178.6 2.148e+04 5.101e-09
 43.10769    169.4 2.712e+04 2.090e-08
 43.11784    161.3 2.589e+04 1.047e-07
 43.12367    155.5 2.416e+04 2.978e-07
 43.12874    152.8 2.217e+04 6.557e-07
 43.13813    148.6 2.217e+04 6.389e-07
 43.14827    145.1 2.250e+04 4.756e-07
 43.15772    142.6 2.361e+04 2.129e-07
 43.16280    140.8 2.502e+04 1.127e-07
 43.16856    137.8 2.788e+04 2.025e-08
 43.17528    133.3 2.920e+04 4.284e-09
 43.18036    136.1 3.133e+04 4.364e-09
 43.19397    118.9 2.385e+04 1.320e-09
 43.21431    106.1 1.254e+04 9.815e-10
 43.23100    104.0 1.170e+04 7.788e-10
 43.24115    103.7 1.202e+04 8.656e-10
 43.25489    103.5 1.193e+04 8.522e-10
 43.27518    103.3 1.189e+04 8.389e-10
 43.29547    103.1 1.188e+04 8.252e-10
 43.30926    102.9 1.190e+04 8.160e-10
 43.31940    102.3 1.192e+04 8.259e-10
 43.33605    102.1 1.194e+04 8.275e-10
 43.35634    101.7 1.201e+04 8.457e-10
 43.37663    101.1 1.219e+04 9.085e-10
 43.38751    100.1 1.255e+04 1.047e-09
 43.39766     99.0 1.276e+04 1.128e-09
 43.41608     97.3 1.339e+04 1.460e-09
 43.42622     97.1 1.336e+04 1.438e-09
 43.43750     94.9 1.406e+04 1.911e-09
 43.45562     92.1 1.487e+04 2.574e-09
 43.46577     90.0 1.525e+04 3.025e-09
 43.47808     86.9 1.578e+04 3.780e-09
 43.49837     83.8 1.604e+04 4.304e-09
 43.51866     81.0 1.597e+04 4.247e-09
 43.53388     78.6 1.559e+04 3.764e-09
 43.54402     77.1 1.507e+04 2.998e-09
 43.55924     74.5 1.432e+04 1.917e-09
 43.57953     71.4 1.328e+04 1.175e-09
 43.60209     69.2 1.257e+04 8.853e-10
 43.62238     66.0 1.186e+04 7.017e-10
 43.64040     64.2 1.149e+04 6.353e-10
 43.66069     62.7 1.128e+04 6.020e-10
 43.67200     61.6 1.116e+04 5.727e-10
 43.68140     61.6 1.125e+04 6.003e-10
 43.69039     60.4 1.123e+04 6.058e-10
 43.70127     59.6 1.102e+04 5.239e-10
 43.72156     58.5 1.081e+04 4.222e-10
 43.74185     57.9 1.066e+04 3.763e-10
 43.75860     57.8 1.054e+04 3.389e-10
 43.77898     56.0 1.045e+04 3.120e-10
 43.81306     55.0 1.035e+04 2.871e-10
 43.85364     54.4 1.049e+04 3.103e-10
 43.89422     53.8 1.077e+04 3.701e-10
 43.91511     53.1 1.103e+04 4.647e-10
 43.91846     52.1 1.142e+04 6.454e-10
 43.92791     52.0 1.135e+04 6.084e-10
 43.94475     51.7 1.157e+04 6.899e-10
 43.96504     51.3 1.172e+04 7.321e-10
 43.98312     50.9 1.173e+04 7.294e-10
 43.99326     50.3 1.185e+04 7.685e-10
 44.00562     50.1 1.173e+04 6.917e-10
 44.02591     50.0 1.164e+04 6.477e-10
 44.04620     49.8 1.150e+04 5.837e-10
 44.06137     49.7 1.136e+04 5.324e-10
 44.07162     49.2 1.140e+04 5.420e-10
 44.09712     48.6 1.105e+04 4.174e-10
 44.13770     48.3 1.069e+04 3.248e-10
 44.16374     48.1 1.046e+04 2.811e-10
 44.18402     49.0 1.046e+04 2.804e-10
 44.20793     48.9 1.033e+04 2.656e-10
 44.22822     48.1 1.008e+04 2.418e-10
 44.25944     48.3 1.012e+04 2.660e-10
 44.30002     48.0 1.027e+04 3.061e-10
 44.33036     47.2 1.061e+04 4.268e-10
 44.35055     46.8 1.114e+04 6.158e-10
 44.36425     46.2 1.197e+04 9.569e-10
 44.37439     45.9 1.196e+04 9.668e-10
 44.39113     45.2 1.291e+04 1.517e-09
 44.40931     44.3 1.387e+04 2.293e-09
 44.41946     44.5 1.387e+04 2.293e-09
 44.43171     43.7 1.472e+04 3.273e-09
 44.44250     43.0 1.536e+04 4.246e-09
 44.45265     42.7 1.449e+04 3.099e-09
 44.47229     41.7 1.462e+04 3.224e-09
 44.49258     40.7 1.455e+04 3.163e-09
 44.51061     39.9 1.419e+04 2.812e-09
 44.52076     39.2 1.316e+04 1.965e-09
 44.53316     38.6 1.257e+04 1.541e-09
 44.55345     38.0 1.184e+04 1.081e-09
 44.57374     37.1 1.107e+04 6.911e-10
 44.58887     35.8 1.035e+04 4.394e-10
 44.59901     35.4 1.015e+04 4.045e-10
 44.61432     34.0 9.710e+03 2.968e-10
 44.63461     33.4 9.566e+03 2.765e-10
 44.65490     32.4 9.394e+03 2.607e-10
 44.66523     32.1 9.335e+03 2.590e-10
 44.66731     32.2 9.411e+03 2.665e-10
 44.67736     32.9 9.643e+03 2.942e-10
 44.69557     32.0 9.402e+03 2.664e-10
 44.71577     31.5 9.376e+03 2.687e-10
 44.73523     30.4 9.491e+03 3.017e-10
 44.74538     31.2 9.515e+03 2.995e-10
 44.75635     28.4 1.033e+04 4.516e-10
 44.77664     23.7 1.289e+04 1.177e-09
 44.79693     19.8 1.557e+04 3.275e-09
 44.81349     17.7 1.695e+04 6.744e-09
 44.82363     19.5 1.638e+04 5.295e-09
 44.83751     18.1 1.698e+04 7.878e-09
 44.85780     16.9 1.691e+04 7.844e-09
 44.87809     16.2 1.631e+04 6.396e-09
 44.89174     15.4 1.539e+04 4.357e-09
 44.90189     16.9 1.539e+04 4.640e-09
 44.91100     15.8 1.443e+04 2.954e-09
 44.92114     14.7 1.430e+04 2.596e-09
 44.93896     12.8 1.320e+04 1.551e-09
 44.95925     11.2 1.222e+04 1.091e-09
 44.97000     11.0 1.181e+04 9.964e-10
 44.98014     12.5 1.207e+04 1.123e-09
 44.99983     12.8 1.199e+04 1.127e-09
 45.02012     13.2 1.203e+04 1.152e-09
 45.03811     13.6 1.214e+04 1.218e-09
 45.04825     14.7 1.231e+04 1.314e-09
 45.06070     14.9 1.251e+04 1.437e-09
 45.08099     15.1 1.278e+04 1.636e-09
 45.10128     15.2 1.307e+04 1.900e-09
 45.11636     15.5 1.334e+04 2.178e-09
 45.12651     16.4 1.363e+04 2.423e-09
 45.14186     16.5 1.410e+04 2.875e-09
 45.15677     16.4 1.437e+04 3.071e-09
 45.16692     15.3 1.469e+04 3.305e-09
 45.18244     15.1 1.464e+04 3.142e-09
 45.19462     15.1 1.442e+04 2.721e-09
 45.20476     15.1 1.512e+04 3.773e-09
 45.22302     15.2 1.480e+04 3.221e-09
 45.24331     15.2 1.437e+04 2.584e-09
 45.26273     15.1 1.387e+04 2.052e-09
 45.27287     15.3 1.438e+04 2.758e-09
 45.28389     15.1 1.386e+04 2.230e-09
 45.30418     15.1 1.339e+04 1.883e-09
 45.32447     15.2 1.295e+04 1.652e-09
 45.34098     15.5 1.263e+04 1.481e-09
 45.35113     15.6 1.267e+04 1.550e-09
 45.36505     16.0 1.242e+04 1.384e-09
 45.38534     16.7 1.223e+04 1.271e-09
 45.40254     17.4 1.201e+04 1.171e-09
 45.41269     16.7 1.176e+04 1.038e-09
 45.41924     17.5 1.154e+04 9.313e-10
 45.42938     17.8 1.102e+04 6.807e-10
 45.44621     18.4 1.085e+04 5.904e-10
 45.46650     19.1 1.068e+04 5.187e-10
 45.48679     19.6 1.057e+04 4.760e-10
 45.49749     20.3 1.046e+04 4.625e-10
 45.50764     20.5 1.003e+04 3.345e-10
 45.52737     21.0 1.004e+04 3.370e-10
 45.54766     22.2 1.004e+04 3.449e-10
 45.56560     22.8 1.007e+04 3.553e-10
 45.57584     23.0 9.879e+03 2.904e-10
 45.59858     24.9 9.908e+03 3.105e-10
 45.63836     26.6 9.898e+03 3.425e-10
 45.65865     25.8 9.911e+03 3.271e-10
 45.66949     27.6 9.847e+03 3.392e-10
 45.68968     28.3 9.865e+03 3.499e-10
 45.70997     29.3 9.910e+03 3.818e-10
 45.72211     29.9 1.000e+04 4.143e-10
 45.73235     30.1 9.849e+03 3.453e-10
 45.75065     31.1 9.926e+03 3.914e-10
 45.77084     31.8 1.007e+04 4.548e-10
 45.79022     32.4 1.027e+04 5.327e-10
 45.80037     32.9 1.007e+04 4.606e-10
 45.81142     33.6 1.024e+04 5.341e-10
 45.83171     34.3 1.039e+04 5.973e-10
 45.85200     35.0 1.051e+04 6.507e-10
 45.86848     35.6 1.056e+04 6.922e-10
 45.87862     36.2 1.050e+04 6.418e-10
 45.89258     36.7 1.057e+04 6.717e-10
 45.90423     36.7 1.081e+04 7.432e-10
 45.91438     35.0 1.129e+04 7.397e-10
 45.93316     27.8 1.817e+04 1.576e-09
 45.94673     18.9 2.465e+04 4.601e-09
 45.95688     25.4 2.071e+04 2.773e-09
 45.96862     19.8 2.461e+04 5.415e-09
 45.97872     15.2 2.589e+04 1.194e-08
 45.98576     12.3 2.418e+04 2.935e-08
 45.99083     15.4 2.575e+04 1.830e-08
 45.99901     13.2 2.384e+04 4.240e-08
 46.00915     13.5 2.222e+04 6.541e-08
 46.01930     14.1 2.170e+04 7.006e-08
 46.02489     14.6 2.178e+04 6.372e-08
 46.02754     15.2 2.188e+04 7.767e-08
 46.03209     14.5 2.207e+04 7.485e-08
 46.03959     14.7 2.260e+04 5.509e-08
 46.04973     14.2 2.548e+04 2.681e-08
 46.05894     11.5 3.192e+04 7.787e-09
 46.06402     14.5 2.719e+04 2.176e-08
 46.07002     10.8 3.505e+04 4.963e-09
 46.08017      2.8 3.955e+04 8.485e-10
 46.09305     -8.9 2.019e+04 4.311e-10
 46.10319     -5.6 2.511e+04 4.808e-10
 46.11572     -9.5 1.771e+04 3.527e-10
 46.13606    -13.8 9.502e+03 3.545e-10
 46.15000    -13.3 9.086e+03 3.102e-10
 46.16015    -13.8 9.141e+03 3.152e-10
 46.17135    -13.9 9.146e+03 3.010e-10
 46.18150    -12.9 9.339e+03 3.471e-10
 46.19693    -12.1 9.217e+03 3.105e-10
 46.21722    -12.2 9.211e+03 3.046e-10
 46.24776    -11.1 9.096e+03 2.841e-10
 46.28843     -9.9 9.018e+03 2.789e-10
 46.31791     -8.6 9.131e+03 3.007e-10
 46.33820     -7.5 9.347e+03 3.379e-10
 46.36959     -5.9 9.467e+03 3.628e-10
 46.41017     -4.2 9.546e+03 3.867e-10
 46.45075     -2.6 9.646e+03 4.098e-10
 46.47442     -0.9 9.661e+03 4.062e-10
 46.49471      0.5 9.696e+03 4.227e-10
 46.53191      2.1 9.594e+03 3.835e-10
 46.57249      3.9 9.565e+03 3.605e-10
 46.61064      5.6 9.863e+03 3.854e-10
 46.63093      5.9 1.026e+04 4.817e-10
 46.64164      6.5 1.041e+04 4.965e-10
 46.65169      5.2 1.038e+04 4.785e-10
 46.66360      5.2 1.072e+04 5.756e-10
 46.68389      5.2 1.112e+04 7.015e-10
 46.69885      5.1 1.182e+04 9.121e-10
 46.70899      5.5 1.182e+04 9.973e-10
 46.72447      5.3 1.267e+04 1.321e-09
 46.74476      4.8 1.380e+04 1.883e-09
 46.76505      3.6 1.500e+04 2.822e-09
 46.77710      2.0 1.586e+04 3.918e-09
 46.78725      1.6 1.627e+04 3.831e-09
 46.80563      0.4 1.692e+04 4.956e-09
 46.81618     -0.1 1.665e+04 5.393e-09
 46.82120     -0.3 1.690e+04 5.493e-09
 46.83090     -0.7 1.688e+04 5.782e-09
 46.84104     -1.0 1.692e+04 6.086e-09
 46.85019     -1.2 1.698e+04 6.240e-09
 46.85526     -2.2 1.746e+04 6.719e-09
 46.86133     -2.6 1.769e+04 7.001e-09
 46.87148     -2.9 1.797e+04 7.222e-09
 46.88162     -3.4 1.855e+04 7.654e-09
 46.88931     -4.0 1.920e+04 8.154e-09
 46.89439     -5.2 2.001e+04 9.281e-09
 46.89741     -4.8 2.026e+04 9.086e-09
 46.90249     -4.7 1.952e+04 7.964e-09
 46.91206     -4.7 1.957e+04 7.719e-09
 46.92220     -4.9 2.014e+04 8.052e-09
 46.92844     -4.6 2.099e+04 8.806e-09
 46.93356     -4.7 1.939e+04 6.888e-09
 46.94766     -3.6 2.244e+04 7.185e-09
 46.96254     -3.1 2.420e+04 7.510e-09
 46.96757     -1.3 2.293e+04 5.260e-09
 46.97293     -1.0 2.485e+04 5.289e-09
 46.98307     -0.8 3.238e+04 6.345e-09
 46.99322     -1.0 3.649e+04 1.405e-08
 47.00162      1.6 2.999e+04 5.543e-08
 47.00670      2.3 4.458e+04 7.619e-09
 47.01351      5.8 4.007e+04 2.521e-08
 47.02023      7.5 2.729e+04 1.588e-07
 47.02274      5.9 2.733e+04 2.108e-07
 47.02367      6.1 2.682e+04 2.688e-07
 47.02621      7.4 2.725e+04 2.207e-07
 47.03121      5.1 2.667e+04 6.711e-07
 47.03628    -11.9 2.148e+04 8.635e-06
 47.04070    -42.5 2.575e+04 5.005e-06
 47.04324    -20.5 2.048e+04 1.309e-05
 47.04643    -57.6 4.297e+04 4.668e-07
 47.05150   -104.6 6.845e+04 1.257e-08
 47.05657   -136.7 3.528e+04 8.092e-09
 47.06027   -146.1 3.107e+04 5.594e-09
 47.06280   -150.7 3.495e+04 4.455e-09
 47.06672   -155.9 3.091e+04 3.289e-09
 47.07435   -162.5 2.292e+04 2.068e-09
 47.07988   -165.9 1.965e+04 1.436e-09
 47.08495   -180.4 3.115e+04 1.410e-09
 47.09467   -176.2 2.216e+04 1.370e-09
 47.10481   -172.7 1.832e+04 1.224e-09
 47.11393   -170.7 1.689e+04 1.134e-09
 47.11901   -173.4 1.683e+04 1.067e-09
 47.13022   -169.2 1.452e+04 1.014e-09
 47.14323   -162.1 1.265e+04 9.799e-10
 47.15090   -160.3 1.258e+04 9.843e-10
 47.15823   -163.6 1.404e+04 1.465e-09
 47.17085   -157.4 1.326e+04 1.410e-09
 47.19114   -153.6 1.303e+04 1.392e-09
 47.21143   -150.1 1.286e+04 1.399e-09
 47.22634   -147.3 1.270e+04 1.431e-09
 47.23649   -147.3 1.288e+04 1.540e-09
 47.25201   -144.8 1.265e+04 1.446e-09
 47.27230   -142.9 1.248e+04 1.371e-09
 47.29259   -141.5 1.234e+04 1.316e-09
 47.30460   -140.3 1.220e+04 1.271e-09
 47.31474   -140.4 1.180e+04 1.062e-09
 47.33317   -139.5 1.158e+04 1.008e-09
 47.35346   -138.7 1.137e+04 9.682e-10
 47.37271   -138.0 1.117e+04 9.339e-10
 47.38285   -137.6 1.097e+04 8.476e-10
 47.38901   -136.8 1.085e+04 8.369e-10
 47.39915   -136.6 1.073e+04 7.948e-10
 47.41433   -135.6 1.056e+04 7.746e-10
 47.43462   -134.7 1.038e+04 7.213e-10
 47.45096   -133.9 1.015e+04 6.257e-10
 47.46111   -133.4 1.016e+04 6.409e-10
 47.47520   -132.8 9.871e+03 5.190e-10
 47.49549   -132.4 9.545e+03 4.146e-10
 47.51578   -132.1 9.342e+03 3.655e-10
 47.52931   -131.7 9.305e+03 3.540e-10
 47.54970   -130.4 9.245e+03 3.477e-10
 47.58699   -130.2 9.212e+03 3.392e-10
 47.60757   -129.9 9.249e+03 3.487e-10
 47.61762   -129.9 9.256e+03 3.494e-10
 47.63478   -130.1 9.333e+03 3.667e-10
 47.64502   -130.2 9.227e+03 3.368e-10
 47.65791   -130.9 9.877e+03 5.043e-10
 47.67558   -131.7 1.056e+04 7.608e-10
 47.68573   -131.7 1.065e+04 7.923e-10
 47.69839   -131.9 1.141e+04 1.156e-09
 47.71868   -132.1 1.205e+04 1.515e-09
 47.73897   -132.5 1.243e+04 1.763e-09
 47.75384   -133.3 1.252e+04 1.829e-09
 47.76398   -133.5 1.242e+04 1.745e-09
 47.77955   -134.2 1.229e+04 1.665e-09
 47.79984   -135.1 1.187e+04 1.339e-09
 47.82013   -136.4 1.136e+04 1.029e-09
 47.83209   -138.0 1.095e+04 8.466e-10
 47.84224   -138.1 1.066e+04 7.245e-10
 47.86071   -139.6 1.034e+04 6.464e-10
 47.88055   -140.4 1.023e+04 6.254e-10
 47.89069   -140.2 1.033e+04 6.514e-10
 47.90020   -140.8 1.029e+04 6.425e-10
 47.91035   -140.7 9.968e+03 5.499e-10
 47.92158   -141.2 9.974e+03 5.494e-10
 47.94187   -141.8 1.002e+04 5.277e-10
 47.96216   -142.6 9.953e+03 4.790e-10
 47.97855   -144.1 9.772e+03 4.188e-10
 47.99894   -143.0 9.528e+03 4.053e-10
 48.03337   -144.4 9.786e+03 4.390e-10
 48.07395   -145.8 1.033e+04 5.758e-10
 48.11453   -147.1 1.068e+04 7.040e-10
 48.13506   -147.5 1.086e+04 7.701e-10
 48.13691   -148.4 1.109e+04 8.609e-10
 48.15695   -148.0 1.111e+04 8.754e-10
 48.19569   -149.4 1.087e+04 7.121e-10
 48.23627   -150.7 1.021e+04 4.709e-10
 48.27138   -151.3 9.663e+03 3.495e-10
 48.29167   -151.3 9.615e+03 3.366e-10
 48.31743   -151.5 9.401e+03 2.849e-10
 48.35801   -151.5 9.262e+03 2.464e-10
 48.39859   -151.3 9.058e+03 1.985e-10
 48.42789   -151.1 8.838e+03 1.530e-10
 48.44818   -151.0 9.002e+03 1.833e-10
 48.47975   -150.8 8.869e+03 1.564e-10
 48.52033   -150.7 8.819e+03 1.458e-10
 48.56091   -150.7 8.813e+03 1.444e-10
 48.58440   -150.8 8.923e+03 1.520e-10
 48.60469   -150.8 9.161e+03 2.130e-10
 48.62820   -151.0 9.299e+03 2.274e-10
 48.64849   -150.4 9.460e+03 2.536e-10
 48.68265   -150.7 9.592e+03 2.725e-10
 48.72062   -150.9 9.632e+03 2.769e-10
 48.74091   -151.7 9.633e+03 2.793e-10
 48.76381   -152.0 9.604e+03 2.632e-10
 48.80439   -152.2 9.485e+03 2.309e-10
 48.84497   -152.4 9.370e+03 2.088e-10
 48.87713   -152.6 9.339e+03 2.042e-10
 48.89742   -153.1 9.134e+03 1.794e-10
 48.92613   -153.2 9.234e+03 1.897e-10
 48.96671   -153.3 9.770e+03 2.639e-10
 49.00729   -153.2 1.031e+04 3.828e-10
 49.03354   -152.9 1.065e+04 4.818e-10
 49.04359   -153.6 1.069e+04 4.994e-10
 49.05782   -153.8 1.075e+04 5.247e-10
 49.07811   -154.3 1.108e+04 7.008e-10
 49.09840   -154.6 1.139e+04 8.633e-10
 49.11170   -154.6 1.169e+04 1.015e-09
 49.12184   -154.8 1.157e+04 9.744e-10
 49.12970   -154.8 1.181e+04 1.083e-09
 49.13984   -154.7 1.191e+04 1.159e-09
 49.15927   -154.8 1.201e+04 1.210e-09
 49.17956   -155.0 1.203e+04 1.218e-09
 49.18995   -155.1 1.192e+04 1.151e-09
 49.20010   -155.6 1.175e+04 9.842e-10
 49.22014   -156.1 1.128e+04 7.689e-10
 49.25067   -156.3 1.083e+04 6.196e-10
 49.29135   -155.6 1.016e+04 4.280e-10
 49.32637   -155.0 9.492e+03 2.886e-10
 49.34666   -154.2 9.439e+03 2.898e-10
 49.37251   -153.4 9.273e+03 2.393e-10
 49.41309   -152.6 9.217e+03 2.225e-10
 49.45367   -151.8 9.209e+03 2.196e-10
 49.48288   -151.1 9.252e+03 2.224e-10
 49.50317   -151.0 9.699e+03 3.032e-10
 49.53482   -150.4 9.877e+03 3.481e-10
 49.57540   -149.8 1.008e+04 3.975e-10
 49.61129   -149.3 1.028e+04 4.409e-10
 49.63158   -149.4 1.025e+04 4.422e-10
 49.63939   -149.3 1.033e+04 4.663e-10
 49.65968   -149.8 1.069e+04 6.277e-10
 49.69714   -149.9 1.068e+04 6.253e-10
 49.73772   -149.9 1.067e+04 6.254e-10
 49.77561   -149.7 1.075e+04 6.516e-10
 49.79590   -149.9 1.089e+04 7.600e-10
 49.81888   -149.5 1.100e+04 7.383e-10
 49.85946   -149.5 1.141e+04 7.795e-10
 49.88980   -149.6 1.204e+04 9.108e-10
 49.90999   -150.9 1.277e+04 1.076e-09
 49.93028   -152.2 1.348e+04 1.324e-09
 49.94207   -153.2 1.394e+04 1.599e-09
 49.95221   -154.2 1.396e+04 2.318e-09
 49.97086   -154.6 1.393e+04 2.583e-09
 49.99115   -154.9 1.387e+04 2.719e-09
 50.01018   -155.0 1.384e+04 2.742e-09
 50.02032   -154.7 1.316e+04 2.617e-09
 50.03173   -154.6 1.276e+04 2.224e-09
 50.05202   -154.5 1.240e+04 1.845e-09
 50.07231   -154.6 1.213e+04 1.525e-09
 50.08843   -155.0 1.194e+04 1.309e-09
 50.10871   -155.8 1.198e+04 3.773e-10
 50.14341   -155.5 1.177e+04 3.808e-10
 50.18410   -154.2 1.133e+04 3.399e-10
 50.22468   -153.0 1.102e+04 3.198e-10
 50.26526   -152.3 1.014e+04 1.998e-10
 50.30584   -151.2 1.007e+04 2.096e-10
 50.34642   -150.1 1.005e+04 2.121e-10
 50.38136   -148.9 1.004e+04 2.138e-10
 50.40165   -149.2 9.952e+03 2.109e-10
 50.42758   -148.1 9.954e+03 2.304e-10
 50.46816   -146.9 9.920e+03 2.418e-10
 50.50874   -145.6 9.898e+03 2.444e-10
 50.53787   -144.3 9.804e+03 2.317e-10
 50.55816   -144.4 9.870e+03 2.019e-10
 50.58990   -143.4 9.857e+03 1.882e-10
 50.61467   -142.5 9.865e+03 1.855e-10
 50.63496   -143.0 9.941e+03 2.181e-10
 50.67106   -142.3 9.941e+03 2.231e-10
 50.69438   -141.4 9.900e+03 2.345e-10
 50.71467   -142.0 1.004e+04 3.366e-10
 50.75222   -140.8 1.001e+04 3.538e-10
 50.79280   -139.6 9.954e+03 3.561e-10
 50.83060   -138.1 9.770e+03 3.383e-10
 50.85089   -138.1 9.934e+03 4.055e-10
 50.87396   -136.6 9.811e+03 3.519e-10
 50.91454   -135.0 9.717e+03 3.035e-10
 50.95512   -133.5 9.631e+03 2.668e-10
 50.98711   -131.8 9.581e+03 2.445e-10
 51.00740   -132.5 9.686e+03 2.375e-10
 51.03628   -131.0 9.675e+03 2.310e-10
 51.07686   -129.7 9.721e+03 2.341e-10
 51.10621   -129.1 1.011e+04 2.884e-10
 51.12650   -127.7 9.858e+03 2.438e-10
 51.14362   -127.5 1.054e+04 3.819e-10
 51.16391   -129.2 1.072e+04 4.393e-10
 51.19860   -129.6 1.142e+04 6.593e-10
 51.23918   -130.7 1.191e+04 8.525e-10
 51.27976   -132.9 1.201e+04 8.938e-10
 51.31010   -137.2 1.198e+04 8.243e-10
 51.33029   -138.0 1.211e+04 8.134e-10
 51.35058   -141.0 1.206e+04 7.448e-10
 51.36193   -143.7 1.182e+04 7.359e-10
 51.36925   -142.6 1.174e+04 6.705e-10
 51.37819   -143.9 1.160e+04 7.068e-10
 51.39116   -145.2 1.132e+04 7.641e-10
 51.41145   -145.7 1.130e+04 8.509e-10
 51.43174   -146.0 1.132e+04 8.750e-10
 51.44630   -146.5 1.135e+04 7.888e-10
 51.45644   -147.1 1.128e+04 7.288e-10
 51.47232   -148.5 1.102e+04 5.103e-10
 51.49261   -150.2 1.056e+04 3.524e-10
 51.52314   -151.5 9.996e+03 2.668e-10
 51.56382   -151.8 9.774e+03 2.302e-10
 51.59286   -155.0 1.008e+04 2.252e-10
 51.60650   -162.0 1.390e+04 2.590e-10
 51.61804   -157.0 1.220e+04 2.932e-10
 51.63474   -166.1 1.535e+04 3.165e-10
 51.65493   -170.9 1.576e+04 6.509e-10
 51.67092   -173.1 1.521e+04 1.416e-09
 51.68106   -175.4 1.551e+04 2.686e-09
 51.69551   -176.2 1.586e+04 4.764e-09
 51.71580   -176.8 1.616e+04 5.645e-09
 51.73609   -178.2 1.631e+04 5.437e-09
 51.74917   -181.4 1.584e+04 3.194e-09
 51.75932   -187.2 1.578e+04 2.164e-09
 51.77667   -194.7 1.298e+04 9.539e-10
 51.79696   -199.9 1.151e+04 7.466e-10
 51.81725   -201.6 1.127e+04 7.385e-10
 51.83754   -204.4 1.169e+04 1.052e-09
 51.85347   -205.0 1.190e+04 1.163e-09
 51.86362   -204.9 1.176e+04 1.092e-09
 51.87812   -205.8 1.180e+04 1.105e-09
 51.89554   -206.9 1.179e+04 1.086e-09
 51.90568   -209.2 1.149e+04 9.423e-10
 51.91870   -210.3 1.138e+04 8.903e-10
 51.93899   -211.4 1.129e+04 8.499e-10
 51.95928   -212.6 1.124e+04 8.290e-10
 51.97379   -213.7 1.124e+04 8.260e-10
 51.98394   -214.8 1.096e+04 7.241e-10
 51.99986   -215.8 1.113e+04 7.624e-10
 52.02015   -217.0 1.133e+04 8.317e-10
 52.04044   -218.5 1.149e+04 8.933e-10
 52.05205   -220.3 1.154e+04 9.216e-10
 52.06219   -221.0 1.131e+04 8.155e-10
 52.08102   -222.7 1.121e+04 8.113e-10
 52.09925   -224.3 1.102e+04 7.797e-10
 52.10939   -223.3 1.126e+04 8.640e-10
 52.12016   -224.9 1.100e+04 7.994e-10
 52.13030   -225.1 1.074e+04 6.936e-10
 52.14189   -226.3 1.056e+04 6.412e-10
 52.16218   -227.5 1.040e+04 5.853e-10
 52.18247   -228.6 1.026e+04 5.263e-10
 52.19841   -229.8 1.012e+04 4.704e-10
 52.20856   -229.6 1.004e+04 4.485e-10
 52.22305   -230.3 9.944e+03 4.232e-10
 52.25358   -230.3 9.915e+03 4.106e-10
 52.29426   -231.6 1.000e+04 4.216e-10
 52.33483   -233.8 1.074e+04 5.788e-10
 52.37541   -234.7 1.117e+04 7.061e-10
 52.41600   -237.1 1.156e+04 9.262e-10
 52.45658   -238.9 1.162e+04 9.801e-10
 52.48691   -239.4 1.139e+04 8.840e-10
 52.50129   -240.1 1.136e+04 8.741e-10
 52.51143   -239.3 1.127e+04 8.553e-10
 52.52740   -240.7 1.101e+04 7.994e-10
 52.54769   -241.9 1.088e+04 7.326e-10
 52.56798   -243.1 1.087e+04 7.207e-10
 52.57954   -244.5 1.095e+04 7.314e-10
 52.58969   -243.3 1.096e+04 7.268e-10
 52.60093   -244.9 1.124e+04 8.086e-10
 52.61108   -244.0 1.103e+04 7.406e-10
 52.62885   -245.5 1.134e+04 8.705e-10
 52.64765   -247.1 1.153e+04 9.922e-10
 52.65780   -246.0 1.159e+04 1.005e-09
 52.66943   -247.6 1.166e+04 1.069e-09
 52.68972   -249.2 1.167e+04 1.080e-09
 52.71001   -250.5 1.156e+04 1.072e-09
 52.72591   -251.4 1.136e+04 1.015e-09
 52.73605   -250.8 1.145e+04 1.031e-09
 52.75059   -251.5 1.118e+04 9.330e-10
 52.77088   -251.9 1.097e+04 8.477e-10
 52.79117   -252.0 1.082e+04 7.867e-10
 52.80416   -252.0 1.076e+04 7.458e-10
 52.81431   -251.4 1.060e+04 6.847e-10
 52.83175   -251.2 1.056e+04 6.517e-10
 52.84671   -251.0 1.059e+04 6.322e-10
 52.85685   -250.7 1.049e+04 6.115e-10
 52.87227   -250.4 1.052e+04 5.969e-10
 52.89256   -249.3 1.038e+04 5.335e-10
 52.91291   -249.2 1.039e+04 5.185e-10
 52.93320   -249.0 1.037e+04 5.032e-10
 52.95053   -248.8 1.035e+04 4.902e-10
 52.96067   -247.5 1.033e+04 4.374e-10
 52.98402   -247.1 1.036e+04 4.224e-10
 53.02470   -246.4 1.032e+04 4.217e-10
 53.06528   -245.1 1.036e+04 4.243e-10
 53.09267   -243.7 1.036e+04 4.190e-10
 53.10420   -242.8 1.059e+04 4.902e-10
 53.11738   -240.2 1.021e+04 4.040e-10
 53.14644   -238.8 1.035e+04 4.383e-10
 53.18702   -237.2 1.049e+04 4.528e-10
 53.22760   -235.9 1.066e+04 4.437e-10
 53.25360   -234.8 1.086e+04 4.199e-10
 53.27389   -232.6 1.082e+04 4.309e-10
 53.30875   -231.9 1.111e+04 4.309e-10
 53.34933   -231.4 1.130e+04 4.314e-10
 53.38982   -231.2 1.143e+04 4.424e-10
 53.43040   -229.7 1.169e+04 5.335e-10
 53.47107   -229.9 1.152e+04 5.338e-10
 53.51165   -229.8 1.121e+04 4.843e-10
 53.54633   -229.6 1.090e+04 4.142e-10
 53.56662   -228.2 1.105e+04 4.642e-10
 53.58422   -228.0 1.082e+04 4.031e-10
 53.60451   -227.3 1.115e+04 5.225e-10
 53.63339   -226.7 1.088e+04 4.341e-10
 53.67397   -226.1 1.063e+04 3.682e-10
 53.70284   -225.5 1.050e+04 3.357e-10
 53.72313   -224.7 1.080e+04 4.152e-10
 53.75513   -224.4 1.064e+04 3.754e-10
 53.79571   -223.9 1.055e+04 3.497e-10
 53.83629   -223.4 1.052e+04 3.246e-10
 53.85935   -222.8 1.051e+04 2.963e-10
 53.87964   -222.4 1.056e+04 3.008e-10
 53.91745   -221.7 1.055e+04 2.753e-10
 53.95803   -221.0 1.057e+04 2.654e-10
 53.99557   -220.1 1.058e+04 2.651e-10
 54.01586   -220.1 1.068e+04 2.852e-10
 54.03919   -219.3 1.082e+04 3.044e-10
 54.07576   -218.6 1.091e+04 3.252e-10
 54.09605   -218.2 1.094e+04 3.117e-10
 54.12035   -217.4 1.098e+04 3.243e-10
 54.15208   -216.5 1.098e+04 3.270e-10
 54.17237   -216.4 1.087e+04 2.868e-10
 54.20151   -215.3 1.085e+04 2.379e-10
 54.24209   -214.2 1.085e+04 1.893e-10
 54.28267   -213.1 1.086e+04 1.502e-10
 54.30859   -212.1 1.094e+04 1.257e-10
 54.32888   -211.6 1.081e+04 1.030e-10
 54.36383   -210.6 1.084e+04 1.008e-10
 54.40441   -210.0 1.106e+04 1.043e-10
 54.44481   -209.7 1.152e+04 1.480e-10
 54.48539   -208.1 1.180e+04 2.608e-10
 54.52615   -207.5 1.209e+04 4.266e-10
 54.56673   -207.1 1.235e+04 6.070e-10
 54.58759   -206.9 1.247e+04 7.245e-10
 54.60189   -206.0 1.236e+04 6.587e-10
 54.62161   -204.0 1.230e+04 5.756e-10
 54.64789   -203.6 1.228e+04 6.017e-10
 54.68847   -203.3 1.225e+04 6.091e-10
 54.72905   -202.6 1.205e+04 5.994e-10
 54.75783   -201.6 1.191e+04 5.692e-10
 54.77812   -199.9 1.203e+04 5.044e-10
 54.81021   -198.9 1.198e+04 4.875e-10
 54.85079   -197.8 1.197e+04 4.708e-10
 54.89137   -196.8 1.199e+04 4.607e-10
 54.91434   -196.1 1.204e+04 4.607e-10
 54.93463   -194.4 1.207e+04 4.188e-10
 54.97253   -193.9 1.232e+04 4.624e-10
 55.01311   -193.7 1.268e+04 6.027e-10
 55.05056   -193.9 1.303e+04 8.200e-10
 55.07085   -191.9 1.292e+04 7.338e-10
 55.07914   -192.6 1.302e+04 8.443e-10
 55.09943   -193.1 1.301e+04 8.501e-10
 55.13485   -193.9 1.277e+04 8.088e-10
 55.17543   -194.0 1.261e+04 7.098e-10
 55.20707   -193.2 1.275e+04 6.924e-10
 55.22736   -192.6 1.227e+04 5.162e-10
 55.25659   -192.6 1.228e+04 4.900e-10
 55.29717   -192.1 1.338e+04 5.509e-10
 55.32481   -191.7 1.365e+04 6.632e-10
 55.33486   -192.0 1.372e+04 7.366e-10
 55.34770   -192.0 1.391e+04 7.747e-10
 55.36338   -192.1 1.434e+04 9.943e-10
 55.38377   -191.1 1.358e+04 5.150e-10
 55.41891   -190.5 1.421e+04 8.912e-10
 55.44173   -190.2 1.398e+04 1.326e-09
 55.45178   -189.4 1.364e+04 8.016e-10
 55.46944   -189.3 1.387e+04 1.058e-09
 55.48973   -189.2 1.400e+04 1.385e-09
 55.50975   -189.2 1.410e+04 1.734e-09
 55.51999   -187.7 1.371e+04 9.301e-10
 55.53041   -186.8 1.343e+04 1.014e-09
 55.55060   -186.9 1.359e+04 1.137e-09
 55.57048   -186.9 1.367e+04 1.359e-09
 55.58063   -186.4 1.322e+04 9.255e-10
 55.58800   -186.6 1.332e+04 1.037e-09
 55.59815   -185.9 1.313e+04 8.236e-10
 55.61147   -185.7 1.322e+04 8.744e-10
 55.63176   -185.8 1.318e+04 9.283e-10
 55.65205   -185.8 1.310e+04 9.533e-10
 55.66626   -185.6 1.285e+04 9.334e-10
 55.67650   -183.7 1.255e+04 5.965e-10
 55.69273   -183.6 1.248e+04 6.759e-10
 55.71292   -183.3 1.222e+04 6.400e-10
 55.73321   -182.5 1.203e+04 5.659e-10
 55.74451   -181.8 1.192e+04 5.086e-10
 55.75466   -181.4 1.198e+04 4.935e-10
 55.78403   -181.4 1.180e+04 4.672e-10
 55.81282   -180.8 1.141e+04 4.010e-10
 55.83311   -178.8 1.124e+04 3.318e-10
 55.86529   -177.7 1.086e+04 2.795e-10
 55.90587   -176.6 1.051e+04 2.381e-10
 55.94645   -175.3 1.026e+04 2.114e-10
 55.96933   -174.0 1.012e+04 2.010e-10
 55.98962   -172.3 1.016e+04 1.649e-10
 56.02761   -171.1 1.012e+04 1.630e-10
 56.06222   -169.9 1.003e+04 1.706e-10
 56.08251   -169.5 1.004e+04 1.612e-10
 56.10555   -168.6 9.968e+03 1.901e-10
 56.12584   -167.0 1.005e+04 1.562e-10
 56.14935   -166.3 1.009e+04 2.212e-10
 56.18993   -165.6 1.019e+04 3.133e-10
 56.23051   -164.8 1.029e+04 3.958e-10
 56.26206   -164.1 1.032e+04 4.323e-10
 56.28235   -162.8 1.074e+04 5.320e-10
 56.31167   -162.3 1.077e+04 5.556e-10
 56.35225   -162.1 1.060e+04 5.331e-10
 56.39283   -162.1 1.030e+04 4.671e-10
 56.41857   -161.9 1.026e+04 4.543e-10
 56.42861   -161.8 1.071e+04 6.219e-10
 56.44336   -161.7 1.073e+04 6.377e-10
 56.47389   -161.7 1.077e+04 6.650e-10
 56.51457   -162.2 1.129e+04 8.977e-10
 56.55377   -164.3 1.223e+04 1.483e-09
 56.57370   -165.6 1.212e+04 1.500e-09
 56.57508   -165.1 1.262e+04 1.893e-09
 56.58548   -166.4 1.295e+04 2.247e-09
 56.60568   -167.6 1.326e+04 2.744e-09
 56.62597   -168.6 1.331e+04 3.096e-09
 56.64299   -169.4 1.329e+04 3.175e-09
 56.65314   -169.3 1.324e+04 3.014e-09
 56.66655   -169.7 1.288e+04 2.905e-09
 56.68684   -170.0 1.247e+04 2.469e-09
 56.70713   -170.3 1.199e+04 1.968e-09
 56.72125   -170.6 1.151e+04 1.528e-09
 56.73139   -170.8 1.129e+04 1.377e-09
 56.74771   -171.2 1.090e+04 1.128e-09
 56.76800   -171.5 1.059e+04 9.640e-10
 56.78829   -171.8 1.039e+04 8.787e-10
 56.79950   -171.8 1.033e+04 8.550e-10
 56.80965   -171.4 1.032e+04 8.404e-10
 56.81963   -171.4 1.032e+04 8.384e-10
 56.82978   -170.7 9.993e+03 6.928e-10
 56.84916   -170.8 1.003e+04 7.027e-10
 56.86761   -171.5 1.039e+04 8.229e-10
 56.87776   -171.0 1.046e+04 7.957e-10
 56.88974   -172.2 1.117e+04 1.087e-09
 56.91003   -173.4 1.188e+04 1.541e-09
 56.93031   -174.4 1.244e+04 2.053e-09
 56.94587   -175.5 1.276e+04 2.433e-09
 56.95601   -175.6 1.335e+04 3.018e-09
 56.97089   -176.7 1.342e+04 3.215e-09
 56.99118   -177.9 1.340e+04 3.213e-09
 57.01147   -179.1 1.293e+04 2.534e-09
 57.02412   -180.6 1.207e+04 1.678e-09
 57.03427   -180.5 1.260e+04 1.989e-09
 57.05205   -182.4 1.134e+04 1.145e-09
 57.06540   -184.1 1.014e+04 7.151e-10
 57.07555   -182.9 1.044e+04 7.807e-10
 57.09223   -184.4 9.477e+03 5.262e-10
 57.10238   -184.6 9.486e+03 5.023e-10
 57.11292   -185.0 9.172e+03 4.255e-10
 57.13321   -184.9 9.102e+03 4.073e-10
 57.16044   -184.3 9.164e+03 4.093e-10
 57.18073   -184.4 9.121e+03 4.051e-10
 57.19408   -184.4 9.366e+03 4.590e-10
 57.21437   -185.1 9.692e+03 5.595e-10
 57.23466   -186.1 9.991e+03 7.020e-10
 57.24874   -186.8 1.019e+04 8.370e-10
 57.25889   -186.3 1.041e+04 9.149e-10
 57.27524   -186.8 1.057e+04 1.043e-09
 57.29553   -187.4 1.063e+04 1.105e-09
 57.31118   -188.0 1.064e+04 1.125e-09
 57.32132   -186.9 1.045e+04 1.027e-09
 57.32700   -187.5 1.047e+04 1.054e-09
 57.33714   -187.2 1.080e+04 1.211e-09
 57.35640   -188.1 1.084e+04 1.248e-09
 57.37669   -189.1 1.093e+04 1.294e-09
 57.39511   -190.1 1.108e+04 1.354e-09
 57.40525   -189.7 1.130e+04 1.504e-09
 57.41727   -190.7 1.134e+04 1.523e-09
 57.43756   -191.6 1.137e+04 1.513e-09
 57.45785   -192.5 1.135e+04 1.408e-09
 57.47336   -193.5 1.120e+04 1.193e-09
 57.48351   -193.2 1.115e+04 1.102e-09
 57.49843   -194.0 1.082e+04 8.769e-10
 57.52897   -194.6 1.045e+04 7.010e-10
 57.55714   -194.1 9.810e+03 4.946e-10
 57.57743   -193.2 1.006e+04 5.833e-10
 57.60978   -192.6 9.546e+03 4.388e-10
 57.63007   -191.0 9.340e+03 3.406e-10
 57.65080   -190.0 8.881e+03 2.531e-10
 57.69138   -188.4 8.720e+03 2.271e-10
 57.73196   -186.5 8.581e+03 2.065e-10
 57.76629   -184.7 8.463e+03 1.882e-10
 57.78658   -183.9 8.430e+03 1.733e-10
 57.81312   -181.9 8.338e+03 1.600e-10
 57.85370   -179.8 8.268e+03 1.488e-10
 57.89428   -177.6 8.217e+03 1.401e-10
 57.92280   -175.2 8.183e+03 1.345e-10
 57.94309   -174.7 8.216e+03 1.365e-10
 57.97544   -172.4 8.206e+03 1.348e-10
 58.01602   -170.0 8.205e+03 1.346e-10
 58.04869   -167.6 8.217e+03 1.349e-10
 58.06898   -167.6 8.208e+03 1.344e-10
 58.07931   -165.3 8.261e+03 1.379e-10
 58.09960   -165.2 8.331e+03 1.455e-10
 58.13776   -163.1 8.432e+03 1.551e-10
 58.17834   -161.0 8.542e+03 1.773e-10
 58.21553   -159.0 8.679e+03 2.099e-10
 58.23582   -158.9 8.542e+03 1.666e-10
 58.25950   -156.9 8.621e+03 1.799e-10
 58.30008   -155.0 8.723e+03 1.958e-10
 58.34066   -153.2 8.867e+03 2.163e-10
 58.37204   -151.6 9.090e+03 2.491e-10
 58.39233   -151.9 8.773e+03 1.401e-10
 58.42182   -150.9 9.010e+03 1.770e-10
 58.46240   -150.1 9.411e+03 2.545e-10
 58.50298   -149.6 9.947e+03 3.869e-10
 58.52855   -149.2 1.047e+04 5.584e-10
 58.54550   -149.5 9.980e+03 4.054e-10
 58.56052   -149.0 9.713e+03 3.554e-10
 58.58414   -148.7 1.006e+04 4.333e-10
 58.62472   -148.6 1.027e+04 4.620e-10
 58.66477   -148.2 1.029e+04 4.599e-10
 58.68506   -147.8 1.021e+04 4.147e-10
 58.70588   -147.2 1.035e+04 4.349e-10
 58.74646   -146.4 1.050e+04 4.513e-10
 58.78704   -145.5 1.064e+04 4.652e-10
 58.82128   -144.5 1.072e+04 4.677e-10
 58.84157   -144.3 1.091e+04 5.686e-10
 58.86820   -143.1 1.094e+04 5.695e-10
 58.90878   -141.8 1.106e+04 5.326e-10
 58.94936   -140.3 1.116e+04 4.690e-10
 58.97778   -138.8 1.126e+04 4.149e-10
 58.99807   -138.3 1.141e+04 4.489e-10
 59.03052   -136.7 1.139e+04 3.818e-10
 59.05206   -135.0 1.143e+04 3.474e-10
 59.07235   -134.6 1.143e+04 3.449e-10
 59.11168   -133.0 1.151e+04 3.426e-10
 59.13429   -131.4 1.167e+04 3.690e-10
 59.15458   -130.7 1.133e+04 3.070e-10
 59.19284   -129.0 1.143e+04 3.099e-10
 59.23342   -127.4 1.161e+04 3.244e-10
 59.27051   -125.8 1.176e+04 3.470e-10
 59.29080   -124.9 1.124e+04 3.107e-10
 59.31458   -123.3 1.132e+04 3.346e-10
 59.35516   -121.8 1.144e+04 3.742e-10
 59.39574   -120.3 1.156e+04 4.321e-10
 59.42702   -118.9 1.172e+04 5.083e-10
 59.44731   -117.2 1.161e+04 5.065e-10
 59.47690   -115.5 1.176e+04 6.014e-10
 59.51748   -113.9 1.194e+04 7.162e-10
 59.54361   -112.1 1.218e+04 8.496e-10
 59.56390   -111.9 1.212e+04 8.242e-10
 59.58353   -110.0 1.231e+04 9.527e-10
 59.60382   -108.5 1.227e+04 9.745e-10
 59.63922   -106.5 1.246e+04 1.120e-09
 59.67980   -104.5 1.265e+04 1.276e-09
 59.71975   -102.3 1.287e+04 1.434e-09
 59.74004   -101.2 1.292e+04 1.647e-09
 59.76096    -98.9 1.316e+04 1.817e-09
 59.78928    -97.5 1.344e+04 1.904e-09
 59.79933    -97.0 1.334e+04 1.857e-09
 59.80796    -96.8 1.337e+04 1.879e-09
 59.81810    -96.4 1.328e+04 1.921e-09
 59.83178    -95.2 1.346e+04 2.015e-09
 59.85207    -94.3 1.358e+04 2.110e-09
 59.87236    -93.0 1.373e+04 2.266e-09
 59.88621    -91.7 1.387e+04 2.443e-09
 59.89636    -91.5 1.385e+04 2.441e-09
 59.91294    -90.1 1.401e+04 2.676e-09
 59.93323    -88.8 1.424e+04 2.982e-09
 59.95352    -88.0 1.469e+04 3.451e-09
 59.96447    -87.8 1.568e+04 4.443e-09
 59.97461    -88.1 1.533e+04 4.257e-09
 59.99410    -88.6 1.689e+04 6.407e-09
 60.01439    -89.3 1.882e+04 1.151e-08
 60.02956    -89.6 1.973e+04 1.530e-08
 60.03755    -90.1 2.043e+04 2.284e-08
 60.04268    -89.3 1.922e+04 1.361e-08
 60.04510    -90.6 2.050e+04 1.971e-08
 60.05524    -90.1 2.031e+04 1.734e-08
 60.07014    -91.6 2.139e+04 2.934e-08
 60.07668    -92.6 2.170e+04 3.307e-08
 60.08175    -92.7 2.136e+04 1.897e-08
 60.09038    -94.1 2.174e+04 1.976e-08
 60.10052    -95.7 2.191e+04 2.041e-08
 60.11067    -97.6 2.191e+04 2.059e-08
 60.11581    -99.7 2.172e+04 2.058e-08
 60.12093    -98.5 2.090e+04 1.214e-08
 60.13613   -102.1 2.062e+04 1.396e-08
 60.15642   -105.2 2.010e+04 1.516e-08
 60.17671   -107.9 1.955e+04 1.599e-08
 60.18909   -109.7 1.879e+04 1.600e-08
 60.19923   -108.6 1.860e+04 1.321e-08
 60.21729   -109.6 1.807e+04 1.294e-08
 60.23758   -109.9 1.726e+04 1.141e-08
 60.25720   -109.8 1.634e+04 9.059e-09
 60.26734   -109.1 1.616e+04 7.073e-09
 60.27816   -109.0 1.528e+04 5.498e-09
 60.29087   -108.9 1.450e+04 4.297e-09
 60.30101   -109.6 1.402e+04 3.116e-09
 60.31874   -109.2 1.351e+04 2.694e-09
 60.33545   -108.2 1.314e+04 2.412e-09
 60.34560   -108.0 1.286e+04 1.715e-09
 60.35932   -106.9 1.258e+04 1.561e-09
 60.37961   -105.9 1.234e+04 1.409e-09
 60.39990   -104.9 1.210e+04 1.287e-09
 60.41371   -104.3 1.202e+04 1.252e-09
 60.42385   -104.5 1.192e+04 1.171e-09
 60.45072   -102.8 1.201e+04 1.241e-09
 60.48201   -101.2 1.188e+04 1.362e-09
 60.50230   -100.3 1.175e+04 1.262e-09
 60.52669    -98.5 1.215e+04 1.502e-09
 60.54698    -99.0 1.148e+04 9.562e-10
 60.56017    -97.9 1.181e+04 1.166e-09
 60.57022    -97.4 1.157e+04 9.822e-10
 60.58251    -97.0 1.159e+04 1.042e-09
 60.60280    -96.3 1.159e+04 1.078e-09
 60.62309    -95.8 1.156e+04 1.070e-09
 60.63833    -95.2 1.149e+04 1.049e-09
 60.64847    -94.9 1.112e+04 7.552e-10
 60.66367    -94.3 1.103e+04 7.300e-10
 60.68396    -93.7 1.092e+04 6.976e-10
 60.70425    -92.9 1.080e+04 6.561e-10
 60.71658    -92.1 1.067e+04 6.005e-10
 60.72673    -91.9 1.051e+04 5.198e-10
 60.74482    -91.0 1.040e+04 4.908e-10
 60.76511    -90.1 1.029e+04 4.568e-10
 60.78241    -89.3 1.022e+04 4.283e-10
 60.79185    -89.4 1.022e+04 3.929e-10
 60.79484    -88.9 1.019e+04 3.969e-10
 60.81594    -87.5 1.017e+04 4.056e-10
 60.85661    -86.1 1.011e+04 3.759e-10
 60.89719    -84.4 9.998e+03 3.327e-10
 60.93125    -82.5 9.905e+03 3.022e-10
 60.95154    -81.8 9.824e+03 2.824e-10
 60.97835    -79.9 9.738e+03 2.547e-10
 61.01824    -77.9 9.719e+03 2.469e-10
 61.03853    -77.3 9.853e+03 2.741e-10
 61.05951    -75.4 9.898e+03 2.774e-10
 61.08776    -73.5 9.943e+03 2.857e-10
 61.10805    -72.5 9.782e+03 2.439e-10
 61.14067    -70.5 9.842e+03 2.633e-10
 61.18125    -68.4 9.900e+03 2.878e-10
 61.22183    -66.2 9.960e+03 3.058e-10
 61.24427    -64.0 1.002e+04 3.179e-10
 61.26456    -62.9 1.001e+04 3.144e-10
 61.30299    -60.6 1.014e+04 3.422e-10
 61.34357    -58.3 1.028e+04 3.715e-10
 61.38049    -56.0 1.041e+04 4.025e-10
 61.40069    -55.2 1.045e+04 4.355e-10
 61.41439    -53.8 1.049e+04 4.476e-10
 61.43468    -53.3 1.054e+04 4.708e-10
 61.45497    -52.2 1.064e+04 5.067e-10
 61.46870    -51.3 1.072e+04 5.195e-10
 61.47884    -51.0 1.081e+04 5.541e-10
 61.49555    -50.0 1.083e+04 5.442e-10
 61.51584    -49.1 1.087e+04 5.331e-10
 61.52987    -48.3 1.090e+04 5.199e-10
 61.54002    -47.6 1.096e+04 5.584e-10
 61.54695    -46.8 1.103e+04 5.609e-10
 61.55710    -46.6 1.102e+04 5.556e-10
 61.57671    -45.9 1.106e+04 5.471e-10
 61.59700    -45.2 1.115e+04 5.466e-10
 61.62754    -44.2 1.143e+04 6.073e-10
 61.66821    -43.5 1.170e+04 6.878e-10
 61.69351    -42.9 1.210e+04 8.647e-10
 61.71380    -42.4 1.162e+04 5.967e-10
 61.74937    -41.9 1.188e+04 7.544e-10
 61.78995    -41.4 1.195e+04 8.530e-10
 61.82973    -41.2 1.179e+04 8.453e-10
 61.85002    -40.5 1.144e+04 6.731e-10
 61.87111    -40.1 1.119e+04 6.389e-10
 61.90145    -39.1 1.093e+04 5.783e-10
 61.91794    -39.1 1.082e+04 5.303e-10
 61.92808    -38.8 1.088e+04 5.502e-10
 61.95217    -39.2 1.035e+04 4.079e-10
 61.98624    -38.6 9.926e+03 3.462e-10
 62.00653    -37.5 9.980e+03 3.728e-10
 62.02161    -36.2 9.672e+03 2.975e-10
 62.04190    -35.0 9.685e+03 2.977e-10
 62.07401    -33.3 9.316e+03 2.253e-10
 62.11459    -31.5 9.027e+03 1.681e-10
 62.14275    -29.9 8.867e+03 1.374e-10
 62.16304    -28.8 8.927e+03 1.496e-10
 62.19575    -27.3 8.898e+03 1.440e-10
 62.23633    -26.0 8.958e+03 1.483e-10
 62.27691    -25.1 9.220e+03 1.962e-10
 62.29926    -24.2 9.605e+03 2.861e-10
 62.31955    -23.1 9.901e+03 3.634e-10
 62.34783    -23.1 1.004e+04 4.256e-10
 62.36718    -23.2 1.013e+04 4.837e-10
 62.37732    -22.8 1.025e+04 5.592e-10
 62.39855    -22.8 1.037e+04 6.212e-10
 62.43548    -23.0 1.053e+04 6.865e-10
 62.45568    -22.6 1.068e+04 7.856e-10
 62.46947    -23.3 1.073e+04 7.994e-10
 62.48976    -23.9 1.084e+04 8.223e-10
 62.51005    -25.0 1.119e+04 9.964e-10
 62.52310    -26.0 1.153e+04 1.228e-09
 62.52660    -26.0 1.159e+04 1.250e-09
 62.53383    -25.5 1.169e+04 1.291e-09
 62.55063    -26.3 1.195e+04 1.555e-09
 62.57092    -26.8 1.211e+04 1.695e-09
 62.59121    -27.3 1.214e+04 1.715e-09
 62.60194    -27.9 1.201e+04 1.525e-09
 62.61209    -27.1 1.243e+04 1.877e-09
 62.63179    -28.0 1.213e+04 1.505e-09
 62.65208    -29.4 1.176e+04 1.213e-09
 62.67005    -30.9 1.148e+04 1.089e-09
 62.68020    -30.2 1.186e+04 1.307e-09
 62.69266    -31.5 1.175e+04 1.266e-09
 62.71295    -32.6 1.174e+04 1.284e-09
 62.73324    -33.3 1.188e+04 1.425e-09
 62.74831    -33.9 1.201e+04 1.545e-09
 62.75845    -33.2 1.207e+04 1.620e-09
 62.76888    -33.6 1.204e+04 1.566e-09
 62.77902    -34.3 1.177e+04 1.384e-09
 62.79411    -34.7 1.158e+04 1.161e-09
 62.81440    -35.3 1.139e+04 9.647e-10
 62.82656    -36.0 1.119e+04 8.184e-10
 62.83671    -35.3 1.098e+04 7.244e-10
 62.85498    -35.8 1.080e+04 6.216e-10
 62.87527    -36.0 1.063e+04 5.647e-10
 62.89467    -36.1 1.049e+04 5.305e-10
 62.90482    -35.5 1.033e+04 4.503e-10
 62.91585    -35.3 1.020e+04 4.207e-10
 62.93614    -35.0 1.010e+04 3.964e-10
 62.95643    -34.5 1.004e+04 3.693e-10
 62.97293    -34.3 1.001e+04 3.508e-10
 62.98307    -34.0 9.973e+03 3.463e-10
 63.00460    -33.4 9.968e+03 3.124e-10
 63.02499    -33.3 9.872e+03 2.708e-10
 63.04123    -32.2 9.704e+03 2.041e-10
 63.06152    -31.0 9.805e+03 2.415e-10
 63.08851    -29.9 9.721e+03 2.034e-10
 63.12909    -28.7 9.682e+03 1.875e-10
 63.16967    -27.4 9.671e+03 1.848e-10
 63.19774    -26.2 9.736e+03 1.978e-10
 63.21803    -24.8 1.006e+04 2.593e-10
 63.25083    -23.6 1.007e+04 2.768e-10
 63.29141    -22.2 1.005e+04 2.887e-10
 63.33199    -20.7 1.001e+04 2.914e-10
 63.35425    -19.2 9.956e+03 2.872e-10
 63.37454    -18.5 1.016e+04 3.430e-10
 63.41315    -16.8 1.016e+04 3.386e-10
 63.45373    -15.2 1.017e+04 3.281e-10
 63.49047    -13.6 1.016e+04 3.226e-10
 63.51076    -13.3 1.038e+04 3.988e-10
 63.51643    -11.4 1.035e+04 3.846e-10
 63.53672    -10.7 1.020e+04 3.526e-10
 63.57547     -9.1 1.035e+04 3.967e-10
 63.60581     -8.2 1.046e+04 4.561e-10
 63.62600     -8.1 1.050e+04 4.941e-10
 63.64629     -7.7 1.060e+04 5.755e-10
 63.65693     -7.4 1.066e+04 6.411e-10
 63.66708     -7.1 1.083e+04 7.369e-10
 63.68687     -6.6 1.090e+04 8.010e-10
 63.70716     -6.5 1.107e+04 8.602e-10
 63.72504     -7.2 1.174e+04 1.017e-09
 63.73519     -7.7 1.217e+04 1.158e-09
 63.74774    -10.6 1.333e+04 1.831e-09
 63.76211    -12.8 1.402e+04 3.167e-09
 63.77225    -12.1 1.374e+04 2.899e-09
 63.78832    -12.7 1.414e+04 4.334e-09
 63.80330    -12.6 1.441e+04 5.083e-09
 63.81344    -12.4 1.464e+04 5.561e-09
 63.82890    -12.4 1.455e+04 4.862e-09
 63.84919    -12.5 1.390e+04 2.702e-09
 63.86948    -15.7 1.258e+04 1.226e-09
 63.88155    -19.0 1.096e+04 6.748e-10
 63.89170    -19.6 1.063e+04 6.331e-10
 63.91006    -20.0 1.021e+04 5.626e-10
 63.93035    -19.5 1.009e+04 5.362e-10
 63.94966    -18.5 1.007e+04 5.048e-10
 63.95981    -18.6 1.018e+04 5.534e-10
 63.97093    -18.0 1.020e+04 5.352e-10
 63.99122    -17.6 1.023e+04 5.330e-10
 64.00788    -17.1 1.027e+04 5.371e-10
 64.02827    -15.9 1.022e+04 5.206e-10
 64.06243    -15.0 1.028e+04 5.293e-10
 64.09622    -14.2 1.024e+04 4.840e-10
 64.11651    -14.5 1.023e+04 4.761e-10
 64.14359    -13.8 9.978e+03 3.864e-10
 64.18417    -13.0 9.646e+03 3.102e-10
 64.22475    -12.0 9.367e+03 2.497e-10
 64.25273    -11.0 9.206e+03 2.178e-10
 64.27302    -11.4 9.172e+03 2.153e-10
 64.30591    -10.4 9.154e+03 2.090e-10
 64.34649     -9.7 9.278e+03 2.223e-10
 64.38707     -9.0 9.510e+03 2.672e-10
 64.40924     -8.3 9.689e+03 3.150e-10
 64.42953     -8.8 9.781e+03 3.403e-10
 64.46823     -8.0 9.797e+03 3.474e-10
 64.49962     -6.9 9.583e+03 2.954e-10
 64.51991     -6.0 9.394e+03 2.661e-10
 64.54546     -4.7 9.153e+03 2.010e-10
 64.56575     -5.1 9.126e+03 1.873e-10
 64.58997     -3.7 8.857e+03 1.228e-10
 64.63054     -2.3 8.677e+03 8.670e-11
 64.67112     -0.8 8.568e+03 6.743e-11
 64.70197      1.0 8.481e+03 5.556e-11
 64.72226      0.8 8.478e+03 5.636e-11
 64.75228      3.0 8.415e+03 4.958e-11
 64.79286      5.3 8.391e+03 4.490e-11
 64.83344      7.6 8.385e+03 4.126e-11
 64.85848      9.9 8.385e+03 3.847e-11
 64.87877      9.8 8.440e+03 4.113e-11
 64.91460     12.2 8.440e+03 3.933e-11
 64.95518     14.6 8.440e+03 3.891e-11
 64.99116     17.0 8.520e+03 4.060e-11
 65.01039     17.7 8.442e+03 3.796e-11
 65.01499     17.5 8.517e+03 4.305e-11
 65.03634     19.6 8.594e+03 5.083e-11
 65.07692     21.8 8.681e+03 6.531e-11
 65.11750     24.2 8.809e+03 8.863e-11
 65.15121     26.6 8.938e+03 1.196e-10
 65.17150     26.3 9.049e+03 1.522e-10
 65.19866     28.8 9.223e+03 1.898e-10
 65.23924     31.1 9.422e+03 2.163e-10
 65.27982     33.1 9.625e+03 2.450e-10
 65.30772     35.0 9.766e+03 2.871e-10
 65.32801     34.6 9.810e+03 2.988e-10
 65.36098     36.8 9.857e+03 2.908e-10
 65.40156     39.0 9.843e+03 2.540e-10
 65.44214     40.8 9.871e+03 2.194e-10
 65.46423     42.5 9.804e+03 2.093e-10
 65.48450     42.1 9.819e+03 2.179e-10
 65.52328     44.9 9.837e+03 2.324e-10
 65.56388     47.0 9.942e+03 2.680e-10
 65.60045     49.2 1.013e+04 3.217e-10
 65.62074     49.0 1.026e+04 3.543e-10
 65.64504     50.9 1.044e+04 4.029e-10
 65.68562     52.7 1.070e+04 5.012e-10
 65.72620     54.2 1.104e+04 6.631e-10
 65.75696     55.6 1.133e+04 8.707e-10
 65.77725     55.2 1.112e+04 7.517e-10
 65.80736     56.8 1.132e+04 8.929e-10
 65.84794     58.2 1.140e+04 8.989e-10
 65.88852     59.6 1.133e+04 8.233e-10
 65.91347     61.1 1.110e+04 6.651e-10
 65.93376     61.3 1.095e+04 6.454e-10
 65.96968     62.9 1.082e+04 5.180e-10
 65.99454     64.6 1.065e+04 3.957e-10
 66.01483     64.9 1.066e+04 3.967e-10
 66.04969     66.9 1.039e+04 2.885e-10
 66.06998     67.5 1.036e+04 3.037e-10
 66.09142     69.7 1.010e+04 2.299e-10
 66.13200     72.0 9.876e+03 1.929e-10
 66.17258     74.5 9.800e+03 1.903e-10
 66.20620     77.1 9.810e+03 1.972e-10
 66.22649     77.6 9.809e+03 2.012e-10
 66.25374     80.1 9.912e+03 2.325e-10
 66.29432     82.6 1.010e+04 2.828e-10
 66.33490     85.0 1.030e+04 3.174e-10
 66.36271     87.2 1.033e+04 3.100e-10
 66.38300     87.5 1.051e+04 3.860e-10
 66.41606     89.6 1.050e+04 3.656e-10
 66.45664     91.6 1.047e+04 3.142e-10
 66.48608     93.4 1.043e+04 2.576e-10
 66.50637     93.8 1.047e+04 2.705e-10
 66.51922     95.6 1.049e+04 2.519e-10
 66.53951     95.9 1.064e+04 3.105e-10
 66.57838     97.7 1.071e+04 3.225e-10
 66.61896     99.3 1.088e+04 3.498e-10
 66.65544    100.8 1.109e+04 3.817e-10
 66.67563    100.9 1.123e+04 4.824e-10
 66.68978    101.6 1.140e+04 5.605e-10
 66.71007    102.3 1.162e+04 6.585e-10
 66.73036    102.8 1.188e+04 7.831e-10
 66.74180    103.4 1.216e+04 9.310e-10
 66.74494    103.5 1.232e+04 1.030e-09
 66.75379    103.7 1.262e+04 1.223e-09
 66.78118    104.4 1.282e+04 1.218e-09
 66.81162    104.9 1.307e+04 1.319e-09
 66.82190    105.2 1.325e+04 1.368e-09
 66.83205    104.6 1.319e+04 1.307e-09
 66.85210    104.8 1.320e+04 1.301e-09
 66.87239    104.9 1.317e+04 1.271e-09
 66.89001    105.3 1.306e+04 1.197e-09
 66.90016    105.1 1.289e+04 1.070e-09
 66.91297    105.6 1.272e+04 9.612e-10
 66.93326    106.3 1.247e+04 8.453e-10
 66.95355    106.9 1.224e+04 7.317e-10
 66.96827    107.9 1.193e+04 6.022e-10
 66.98210    107.9 1.176e+04 5.274e-10
 66.99791    108.0 1.177e+04 4.612e-10
 67.02476    109.9 1.132e+04 3.590e-10
 67.06534    111.9 1.096e+04 3.168e-10
 67.10468    114.2 1.087e+04 3.172e-10
 67.12497    113.7 1.084e+04 3.014e-10
 67.14650    116.0 1.082e+04 3.146e-10
 67.18708    118.3 1.085e+04 3.392e-10
 67.22766    120.7 1.085e+04 3.596e-10
 67.26119    123.0 1.086e+04 3.682e-10
 67.28148    121.6 1.086e+04 3.615e-10
 67.30882    123.7 1.084e+04 3.701e-10
 67.34940    125.9 1.081e+04 3.666e-10
 67.38998    127.7 1.079e+04 3.599e-10
 67.41760    128.5 1.077e+04 3.659e-10
 67.42765    127.9 1.086e+04 3.933e-10
 67.44051    128.7 1.087e+04 4.150e-10
 67.46080    129.4 1.087e+04 4.476e-10
 67.47912    130.2 1.091e+04 5.046e-10
 67.48926    130.8 1.129e+04 7.144e-10
 67.49576    131.4 1.144e+04 8.168e-10
 67.50591    130.8 1.170e+04 9.311e-10
 67.52167    131.3 1.191e+04 1.082e-09
 67.54196    131.8 1.222e+04 1.304e-09
 67.56225    132.2 1.265e+04 1.642e-09
 67.57402    132.5 1.319e+04 2.136e-09
 67.58416    131.7 1.341e+04 2.153e-09
 67.60283    131.8 1.392e+04 2.774e-09
 67.62312    132.0 1.439e+04 3.496e-09
 67.64213    132.1 1.474e+04 4.022e-09
 67.65227    130.8 1.473e+04 3.681e-09
 67.66370    130.5 1.474e+04 3.654e-09
 67.68399    130.3 1.463e+04 3.435e-09
 67.70428    130.0 1.430e+04 2.940e-09
 67.72038    129.4 1.389e+04 2.424e-09
 67.73052    127.9 1.366e+04 2.183e-09
 67.73503    127.3 1.328e+04 1.900e-09
 67.74518    127.6 1.312e+04 1.668e-09
 67.76515    127.2 1.279e+04 1.466e-09
 67.78544    126.9 1.253e+04 1.329e-09
 67.79863    126.8 1.231e+04 1.217e-09
 67.80878    126.0 1.209e+04 1.040e-09
 67.82602    126.0 1.186e+04 9.261e-10
 67.84631    126.0 1.162e+04 8.170e-10
 67.86660    125.9 1.137e+04 7.185e-10
 67.87689    125.8 1.114e+04 6.406e-10
 67.88703    125.3 1.099e+04 5.681e-10
 67.90718    125.4 1.086e+04 5.396e-10
 67.92747    125.5 1.077e+04 5.257e-10
 67.94500    125.8 1.071e+04 5.255e-10
 67.95514    125.8 1.072e+04 5.079e-10
 67.96805    126.2 1.071e+04 5.277e-10
 67.98081    126.7 1.072e+04 5.487e-10
 67.99095    127.4 1.066e+04 5.237e-10
 68.00863    127.9 1.069e+04 5.622e-10
 68.02325    128.6 1.074e+04 5.903e-10
 68.03340    128.4 1.086e+04 6.129e-10
 68.04921    128.9 1.093e+04 6.566e-10
 68.06950    129.7 1.096e+04 6.826e-10
 68.08979    129.9 1.098e+04 6.917e-10
 68.12032    131.0 1.122e+04 7.905e-10
 68.15967    132.1 1.122e+04 8.188e-10
 68.17996    131.6 1.169e+04 1.050e-09
 68.20158    132.4 1.176e+04 1.133e-09
 68.24216    133.4 1.189e+04 1.198e-09
 68.27249    133.7 1.203e+04 1.296e-09
 68.29268    134.2 1.215e+04 1.376e-09
 68.31297    134.6 1.229e+04 1.464e-09
 68.32613    135.0 1.245e+04 1.563e-09
 68.33627    134.1 1.240e+04 1.527e-09
 68.35355    134.5 1.257e+04 1.644e-09
 68.37384    134.8 1.276e+04 1.798e-09
 68.39413    135.0 1.302e+04 2.023e-09
 68.40438    135.2 1.336e+04 2.372e-09
 68.41453    134.4 1.303e+04 2.055e-09
 68.43471    134.6 1.341e+04 2.456e-09
 68.45500    134.8 1.388e+04 3.014e-09
 68.47235    135.1 1.438e+04 3.713e-09
 68.47969    135.8 1.426e+04 3.597e-09
 68.48264    135.2 1.333e+04 2.440e-09
 68.49558    135.3 1.373e+04 2.930e-09
 68.51587    135.3 1.410e+04 3.428e-09
 68.53616    135.1 1.429e+04 3.798e-09
 68.55075    134.8 1.425e+04 3.825e-09
 68.56089    134.4 1.332e+04 2.796e-09
 68.57674    134.3 1.331e+04 2.847e-09
 68.59703    134.4 1.320e+04 2.732e-09
 68.61732    134.5 1.300e+04 2.494e-09
 68.62900    134.6 1.280e+04 2.227e-09
 68.63915    134.7 1.261e+04 2.136e-09
 68.65790    134.8 1.260e+04 2.106e-09
 68.67819    134.8 1.263e+04 2.061e-09
 68.69711    134.7 1.268e+04 2.054e-09
 68.70726    135.3 1.289e+04 2.448e-09
 68.71812    135.3 1.308e+04 2.564e-09
 68.72827    136.6 1.239e+04 1.852e-09
 68.73906    136.5 1.261e+04 1.978e-09
 68.75935    136.1 1.291e+04 2.191e-09
 68.77537    135.5 1.325e+04 2.526e-09
 68.78551    136.7 1.367e+04 3.085e-09
 68.79993    136.1 1.405e+04 3.492e-09
 68.82022    135.3 1.441e+04 3.794e-09
 68.84051    134.3 1.456e+04 3.810e-09
 68.85362    133.2 1.455e+04 3.679e-09
 68.86377    134.0 1.498e+04 4.187e-09
 68.88109    132.6 1.481e+04 3.837e-09
 68.90138    131.1 1.447e+04 3.342e-09
 68.92167    129.5 1.392e+04 2.863e-09
 68.94196    128.7 1.375e+04 3.006e-09
 68.96225    127.6 1.355e+04 2.832e-09
 68.97404    126.5 1.360e+04 2.840e-09
 68.98418    128.1 1.371e+04 3.098e-09
 68.99999    127.0 1.388e+04 3.298e-09
 69.01013    127.6 1.427e+04 3.867e-09
 69.02312    126.3 1.475e+04 4.320e-09
 69.04341    124.9 1.530e+04 4.654e-09
 69.06370    123.3 1.541e+04 4.634e-09
 69.07824    121.8 1.529e+04 4.353e-09
 69.08839    122.4 1.540e+04 4.486e-09
 69.10428    121.2 1.484e+04 3.498e-09
 69.12457    120.1 1.394e+04 2.323e-09
 69.14486    119.0 1.287e+04 1.410e-09
 69.17540    118.5 1.195e+04 8.464e-10
 69.21466    116.7 1.034e+04 4.083e-10
 69.23495    117.4 1.035e+04 4.102e-10
 69.25665    117.2 9.720e+03 2.622e-10
 69.29723    117.6 9.832e+03 2.571e-10
 69.33781    118.1 9.840e+03 2.666e-10
 69.37117    118.4 9.984e+03 3.066e-10
 69.39146    118.9 9.643e+03 2.340e-10
 69.41897    119.0 9.964e+03 2.942e-10
 69.44931    118.1 1.050e+04 4.348e-10
 69.46558    117.8 1.074e+04 5.212e-10
 69.47572    118.3 1.073e+04 6.722e-10
 69.48979    117.6 1.113e+04 9.618e-10
 69.51008    117.0 1.146e+04 1.231e-09
 69.52748    116.3 1.155e+04 1.267e-09
 69.53763    116.7 1.146e+04 1.234e-09
 69.55066    115.9 1.144e+04 1.214e-09
 69.57095    115.1 1.137e+04 1.124e-09
 69.59124    113.9 1.122e+04 9.438e-10
 69.60574    112.4 1.098e+04 8.153e-10
 69.61588    113.1 1.115e+04 9.132e-10
 69.63182    111.7 1.117e+04 9.152e-10
 69.65211    109.1 1.162e+04 1.035e-09
 69.67240    104.3 1.331e+04 1.733e-09
 69.68399    100.5 1.501e+04 3.788e-09
 69.69414    100.7 1.544e+04 4.528e-09
 69.71135     99.1 1.604e+04 7.229e-09
 69.72150     99.2 1.551e+04 5.237e-09
 69.73327     97.8 1.540e+04 5.640e-09
 69.75210     97.1 1.502e+04 5.118e-09
 69.76225     97.0 1.513e+04 5.398e-09
 69.77385     96.1 1.446e+04 3.629e-09
 69.79414     93.8 1.376e+04 1.984e-09
 69.81443     90.5 1.253e+04 1.001e-09
 69.83036     87.4 1.095e+04 5.684e-10
 69.84050     87.1 1.098e+04 6.164e-10
 69.85501     85.7 1.004e+04 4.332e-10
 69.87530     85.0 9.865e+03 3.396e-10
 69.89559     84.4 9.861e+03 2.852e-10
 69.90861     84.1 9.833e+03 2.785e-10
 69.91876     84.0 9.926e+03 3.058e-10
 69.94641     84.2 9.751e+03 2.965e-10
 69.96746     84.7 9.416e+03 2.558e-10
 69.97758     85.4 9.177e+03 1.760e-10
 69.99721     85.2 9.624e+03 2.940e-10
 70.02767     86.1 9.500e+03 2.833e-10
 70.06825     87.2 9.456e+03 2.652e-10
 70.10883     88.3 9.494e+03 2.628e-10
 70.13343     89.6 9.545e+03 2.763e-10
 70.15372     89.3 9.917e+03 3.940e-10
 70.18999     90.7 9.935e+03 3.967e-10
 70.23057     92.4 9.922e+03 3.888e-10
 70.26965     94.2 9.875e+03 3.594e-10
 70.28994     93.9 1.008e+04 4.305e-10
 70.31173     95.9 1.003e+04 3.558e-10
 70.35231     97.9 9.955e+03 2.798e-10
 70.39289    100.0 9.868e+03 2.166e-10
 70.42616    102.0 9.779e+03 1.701e-10
 70.44645    101.5 9.880e+03 1.710e-10
 70.45901    103.5 9.722e+03 1.413e-10
 70.47930    103.7 1.002e+04 1.998e-10
 70.51463    105.6 9.914e+03 1.735e-10
 70.55521    107.6 9.774e+03 1.602e-10
 70.58267    109.6 9.753e+03 1.593e-10
 70.60296    108.9 9.885e+03 1.701e-10
 70.63637    110.6 9.947e+03 1.872e-10
 70.67695    112.1 1.009e+04 2.370e-10
 70.71753    113.6 1.033e+04 3.265e-10
 70.73918    115.1 1.057e+04 4.239e-10
 70.75947    114.5 1.092e+04 5.791e-10
 70.79869    115.5 1.094e+04 5.879e-10
 70.83927    116.7 1.082e+04 5.455e-10
 70.87540    118.1 1.050e+04 4.168e-10
 70.89569    117.6 1.099e+04 6.110e-10
 70.92043    118.9 1.062e+04 4.441e-10
 70.95055    120.1 1.030e+04 3.250e-10
 70.97084    119.3 1.029e+04 2.902e-10
 71.00159    120.7 1.013e+04 2.659e-10
 71.03191    122.5 1.006e+04 2.624e-10
 71.05220    121.8 1.058e+04 4.135e-10
 71.08275    123.8 1.049e+04 3.900e-10
 71.12333    125.8 1.041e+04 3.562e-10
 71.16391    128.0 1.034e+04 3.110e-10
 71.18842    130.3 1.023e+04 2.668e-10
 71.20871    129.4 1.031e+04 2.492e-10
 71.24507    131.7 1.020e+04 1.924e-10
 71.28565    133.8 1.009e+04 1.541e-10
 71.32464    136.0 9.949e+03 1.367e-10
 71.34493    135.2 9.918e+03 1.140e-10
 71.36681    137.6 9.862e+03 1.139e-10
 71.40739    140.1 9.855e+03 1.153e-10
 71.44209    142.6 9.848e+03 1.213e-10
 71.46238    142.4 9.855e+03 1.220e-10
 71.48115    144.8 9.913e+03 1.367e-10
 71.50144    144.2 9.891e+03 1.192e-10
 71.52913    146.6 9.993e+03 1.343e-10
 71.56971    148.8 1.012e+04 1.546e-10
 71.61029    151.0 1.027e+04 1.811e-10
 71.63766    153.0 1.041e+04 2.126e-10
 71.65795    152.3 1.019e+04 1.626e-10
 71.69145    154.2 1.025e+04 1.853e-10
 71.73203    156.0 1.024e+04 2.128e-10
 71.77261    157.7 1.021e+04 2.450e-10
 71.79417    159.4 1.021e+04 2.617e-10
 71.81446    158.7 1.020e+04 2.724e-10
 71.85377    160.3 1.019e+04 2.730e-10
 71.89435    161.8 1.011e+04 2.624e-10
 71.93039    163.4 9.968e+03 2.266e-10
 71.94939    162.6 1.010e+04 2.679e-10
 71.95393    161.5 1.011e+04 2.630e-10
 71.97551    163.1 9.930e+03 1.932e-10
 72.01609    164.7 9.681e+03 1.510e-10
 72.05667    166.5 9.388e+03 1.444e-10
 72.08690    168.5 9.383e+03 1.442e-10
 72.10719    167.7 9.459e+03 1.580e-10
 72.13783    170.0 9.461e+03 1.588e-10
 72.17841    172.3 9.465e+03 1.634e-10
 72.21898    174.7 9.478e+03 1.718e-10
 72.24341    177.0 9.511e+03 1.837e-10
 72.26370    176.6 9.655e+03 2.143e-10
 72.30014    178.9 9.819e+03 2.459e-10
 72.34072    180.7 9.996e+03 2.873e-10
 72.37106    181.3 1.010e+04 3.253e-10
 72.38958    181.9 1.024e+04 3.790e-10
 72.39972    181.6 1.048e+04 4.834e-10
 72.41154    182.5 1.079e+04 6.548e-10
 72.43183    183.3 1.118e+04 8.814e-10
 72.44527    184.0 1.166e+04 1.155e-09
 72.45542    183.0 1.253e+04 1.484e-09
 72.46783    183.2 1.329e+04 1.878e-09
 72.47798    181.9 1.426e+04 2.497e-09
 72.49270    181.8 1.475e+04 2.974e-09
 72.51299    181.6 1.502e+04 3.230e-09
 72.53328    181.3 1.503e+04 3.236e-09
 72.54609    180.9 1.484e+04 3.050e-09
 72.55623    179.7 1.475e+04 2.980e-09
 72.57386    179.3 1.420e+04 2.352e-09
 72.59415    178.9 1.358e+04 1.748e-09
 72.61420    178.5 1.295e+04 1.257e-09
 72.62434    176.1 1.233e+04 8.623e-10
 72.63473    175.5 1.164e+04 6.163e-10
 72.65502    175.0 1.107e+04 4.752e-10
 72.67531    174.8 1.064e+04 4.022e-10
 72.69105    175.0 1.032e+04 3.748e-10
 72.69804    174.0 9.980e+03 3.375e-10
 72.70260    173.0 9.859e+03 3.149e-10
 72.71589    173.9 1.012e+04 3.393e-10
 72.73618    172.6 1.269e+04 3.982e-10
 72.75135    171.0 1.501e+04 4.725e-10
 72.76145    168.9 1.838e+04 5.699e-10
 72.77061    165.2 2.688e+04 6.870e-10
 72.77568    158.2 3.370e+04 1.445e-09
 72.78174    153.9 3.453e+04 3.257e-09
 72.79188    151.0 3.170e+04 7.311e-09
 72.80203    150.0 2.838e+04 1.462e-08
 72.80974    149.7 2.573e+04 2.570e-08
 72.81481    149.3 2.270e+04 4.559e-08
 72.81891    149.7 2.180e+04 5.493e-08
 72.82398    149.1 2.121e+04 6.181e-08
 72.83246    149.7 2.137e+04 5.784e-08
 72.84261    150.1 2.180e+04 4.814e-08
 72.84886    150.0 2.312e+04 3.358e-08
 72.85394    148.1 2.670e+04 1.602e-08
 72.86290    147.3 2.866e+04 1.041e-08
 72.87816    143.9 3.215e+04 4.480e-09
 72.89850    136.4 3.558e+04 1.227e-09
 72.91707    125.9 2.673e+04 5.346e-10
 72.92722    116.0 1.143e+04 5.748e-10
 72.93682    113.8 1.123e+04 6.357e-10
 72.94696    111.7 1.106e+04 6.502e-10
 72.95937    110.4 1.157e+04 8.548e-10
 72.97966    108.7 1.228e+04 1.180e-09
 72.99533    106.8 1.302e+04 1.569e-09
 73.00547    105.3 1.334e+04 1.739e-09
 73.02024    103.0 1.374e+04 1.842e-09
 73.04053    100.2 1.371e+04 1.794e-09
 73.06082     97.1 1.341e+04 1.554e-09
 73.07358     93.9 1.273e+04 1.195e-09
 73.08373     92.4 1.255e+04 1.160e-09
 73.10140     89.5 1.184e+04 8.878e-10
 73.12169     86.9 1.128e+04 7.088e-10
 73.14169     84.1 1.089e+04 5.704e-10
 73.15184     83.7 1.082e+04 5.598e-10
 73.16227     81.5 1.046e+04 4.811e-10
 73.19280     79.0 1.006e+04 4.011e-10
 73.23348     76.3 9.619e+03 3.197e-10
 73.27406     74.2 9.357e+03 2.629e-10
 73.29840     72.5 9.181e+03 2.181e-10
 73.31869     72.7 9.159e+03 2.226e-10
 73.35522     71.3 8.963e+03 1.849e-10
 73.39580     70.2 8.767e+03 1.677e-10
 73.42856     70.1 8.821e+03 1.706e-10
 73.44698     69.4 9.052e+03 1.756e-10
 73.45471     67.5 1.048e+04 2.366e-10
 73.46662     60.9 1.400e+04 5.589e-10
 73.48691     55.3 1.600e+04 1.914e-09
 73.50720     52.5 1.747e+04 6.151e-09
 73.52282     51.2 1.888e+04 1.202e-08
 73.53292     53.2 1.806e+04 1.135e-08
 73.54261     52.3 1.892e+04 1.489e-08
 73.55276     51.2 1.982e+04 1.990e-08
 73.56129     50.2 2.068e+04 2.454e-08
 73.56532     50.0 2.086e+04 2.202e-08
 73.56692     50.7 2.036e+04 1.651e-08
 73.57305     48.4 2.182e+04 1.775e-08
 73.58319     45.7 2.286e+04 1.743e-08
 73.59334     42.7 2.287e+04 1.691e-08
 73.60098     39.9 2.251e+04 1.576e-08
 73.60605     38.6 2.028e+04 1.198e-08
 73.61363     36.5 1.963e+04 1.216e-08
 73.62377     35.2 1.948e+04 1.252e-08
 73.63392     34.5 1.962e+04 1.328e-08
 73.64011     34.0 2.022e+04 1.467e-08
 73.64518     34.9 1.918e+04 1.217e-08
 73.65421     34.0 2.037e+04 1.456e-08
 73.66435     31.3 2.248e+04 2.007e-08
 73.67416     26.8 2.432e+04 3.243e-08
 73.67923     27.0 2.518e+04 2.673e-08
 73.68418     22.7 2.402e+04 5.129e-08
 73.68925     21.7 2.317e+04 4.083e-08
 73.69479     19.9 2.060e+04 6.238e-08
 73.70493     19.3 1.951e+04 8.988e-08
 73.71329     19.0 1.993e+04 1.013e-07
 73.71836     18.9 1.961e+04 8.044e-08
 73.72522     18.5 1.986e+04 7.907e-08
 73.73537     18.5 2.019e+04 6.903e-08
 73.74551     18.7 2.051e+04 4.904e-08
 73.75242     18.6 2.100e+04 3.065e-08
 73.75749     17.8 2.075e+04 2.579e-08
 73.77092     17.6 1.971e+04 1.410e-08
 73.79126     16.5 1.837e+04 7.247e-09
 73.81155     15.2 1.712e+04 4.124e-09
 73.82570     15.1 1.582e+04 2.650e-09
 73.83584     16.0 1.511e+04 3.163e-09
 73.85213     16.8 1.469e+04 2.422e-09
 73.87242     18.1 1.436e+04 1.943e-09
 73.89271     19.9 1.398e+04 1.580e-09
 73.90395     21.6 1.349e+04 1.278e-09
 73.91410     22.7 1.356e+04 1.733e-09
 73.93005     24.5 1.348e+04 1.444e-09
 73.94019     24.3 1.391e+04 1.645e-09
 73.95358     26.0 1.379e+04 1.402e-09
 73.97206     27.0 1.365e+04 1.248e-09
 73.98221     29.9 1.402e+04 1.666e-09
 73.99416     31.1 1.432e+04 1.417e-09
 74.01445     31.6 1.488e+04 1.468e-09
 74.03474     30.6 1.596e+04 1.719e-09
 74.05032     28.6 1.600e+04 2.505e-09
 74.06046     35.5 1.684e+04 1.910e-09
 74.07532     31.5 1.686e+04 2.775e-09
 74.08940     23.2 1.765e+04 3.131e-09
 74.09442     20.9 2.110e+04 2.895e-09
 74.10058     -4.8 2.931e+04 6.101e-09
 74.11073    -16.7 3.927e+04 2.144e-08
 74.12087    -31.2 2.878e+04 1.543e-07
 74.12847    -40.3 2.553e+04 2.413e-07
 74.13355    -45.1 2.576e+04 2.082e-07
 74.14116    -58.2 3.330e+04 1.845e-08
 74.15131    -78.8 2.405e+04 1.819e-09
 74.16145    -87.8 1.389e+04 7.905e-10
 74.17577    -89.1 1.277e+04 5.210e-10
 74.18597    -86.7 1.370e+04 7.695e-10
 74.19668    -86.0 1.179e+04 3.662e-10
 74.20683    -90.3 9.916e+03 2.378e-10
 74.21735    -87.9 9.609e+03 2.014e-10
 74.23764    -85.0 9.536e+03 1.871e-10
 74.25793    -83.1 9.510e+03 1.810e-10
 74.28846    -81.6 9.518e+03 1.804e-10
 74.32914    -77.7 9.271e+03 1.727e-10
 74.35339    -75.0 9.262e+03 1.986e-10
 74.37368    -75.7 9.643e+03 2.807e-10
 74.41030    -73.1 9.595e+03 2.975e-10
 74.43193    -70.8 9.625e+03 3.086e-10
 74.45222    -70.1 9.335e+03 2.413e-10
 74.48961    -68.4 9.342e+03 2.450e-10
 74.50990    -68.9 9.537e+03 2.956e-10
 74.53204    -67.4 9.656e+03 3.074e-10
 74.57262    -66.1 9.809e+03 3.216e-10
 74.61320    -65.1 9.860e+03 3.270e-10
 74.64612    -64.1 9.875e+03 3.289e-10
 74.66631    -64.3 1.034e+04 4.614e-10
 74.67751    -63.5 1.025e+04 4.198e-10
 74.68765    -62.9 1.010e+04 3.653e-10
 74.70431    -62.4 1.009e+04 3.454e-10
 74.72418    -61.9 1.010e+04 3.370e-10
 74.73432    -62.2 1.027e+04 3.689e-10
 74.74489    -62.0 1.023e+04 3.606e-10
 74.77542    -61.6 1.020e+04 3.658e-10
 74.80263    -60.5 1.018e+04 3.800e-10
 74.81267    -60.7 1.034e+04 4.287e-10
 74.82605    -60.1 1.038e+04 4.487e-10
 74.84634    -59.7 1.041e+04 4.640e-10
 74.86663    -59.1 1.047e+04 4.937e-10
 74.89716    -58.7 1.051e+04 5.084e-10
 74.92348    -57.4 1.044e+04 5.134e-10
 74.94377    -56.6 1.058e+04 5.630e-10
 74.95914    -55.6 1.048e+04 5.611e-10
 74.97943    -56.6 1.036e+04 5.218e-10
 75.01900    -55.5 1.021e+04 4.985e-10
 75.05958    -54.2 1.005e+04 4.639e-10
 75.09536    -52.7 9.832e+03 4.009e-10
 75.11565    -53.3 9.729e+03 3.522e-10
 75.14074    -51.8 9.482e+03 2.920e-10
 75.18132    -50.3 9.275e+03 2.498e-10
 75.22190    -48.6 9.137e+03 2.175e-10
 75.25187    -46.7 9.017e+03 1.899e-10
 75.27216    -46.7 9.113e+03 2.095e-10
 75.30306    -44.6 9.003e+03 1.840e-10
 75.34364    -42.5 8.916e+03 1.608e-10
 75.38422    -40.6 8.870e+03 1.473e-10
 75.40838    -38.6 8.861e+03 1.442e-10
 75.41889    -38.1 8.859e+03 1.417e-10
 75.43531    -38.3 8.780e+03 1.205e-10
 75.46538    -36.2 8.772e+03 1.184e-10
 75.50596    -34.1 8.840e+03 1.267e-10
 75.54460    -32.0 8.953e+03 1.429e-10
 75.56489    -31.9 9.025e+03 1.328e-10
 75.58712    -30.1 9.192e+03 1.615e-10
 75.62770    -28.7 9.534e+03 2.111e-10
 75.66828    -27.5 9.918e+03 3.382e-10
 75.69861    -26.0 1.026e+04 4.937e-10
 75.71106    -25.8 1.036e+04 5.218e-10
 75.72130    -26.0 1.043e+04 6.646e-10
 75.73919    -25.1 1.036e+04 8.068e-10
 75.75939    -23.9 1.058e+04 9.233e-10
 75.77917    -22.7 1.079e+04 1.117e-09
 75.78931    -22.3 1.058e+04 9.564e-10
 75.79997    -21.1 1.071e+04 9.416e-10
 75.82026    -20.1 1.056e+04 8.931e-10
 75.84055    -19.3 1.054e+04 8.064e-10
 75.85742    -18.7 1.071e+04 7.303e-10
 75.86757    -18.9 1.011e+04 4.586e-10
 75.88112    -18.6 1.001e+04 4.607e-10
 75.90141    -17.8 1.000e+04 4.430e-10
 75.91651    -17.3 1.003e+04 4.436e-10
 75.92675    -17.2 9.687e+03 3.484e-10
 75.95234    -15.6 9.691e+03 3.680e-10
 75.99291    -13.9 9.553e+03 3.720e-10
 76.01413    -12.0 9.541e+03 3.665e-10
 76.03442    -12.0 9.173e+03 2.605e-10
 76.07407    -10.4 9.241e+03 2.683e-10
 76.11465     -8.9 9.371e+03 2.783e-10
 76.15035     -8.1 9.625e+03 3.138e-10
 76.17064     -7.5 9.313e+03 2.556e-10
 76.19581     -7.3 9.714e+03 3.287e-10
 76.23639     -7.7 1.045e+04 5.822e-10
 76.27697     -7.3 1.111e+04 9.532e-10
 76.30686     -6.7 1.109e+04 9.304e-10
 76.32715     -6.4 1.090e+04 8.956e-10
 76.35813     -5.0 1.046e+04 6.472e-10
 76.39811     -4.5 9.921e+03 3.806e-10
 76.41840     -4.3 9.935e+03 3.739e-10
 76.43929     -4.1 9.384e+03 2.237e-10
 76.46337     -3.0 8.958e+03 1.605e-10
 76.48366     -2.5 8.858e+03 1.380e-10
 76.52045     -0.9 8.679e+03 1.065e-10
 76.56103      0.7 8.612e+03 9.393e-11
 76.59959      2.5 8.619e+03 9.479e-11
 76.61988      2.6 8.607e+03 9.450e-11
 76.64219      4.4 8.654e+03 1.030e-10
 76.68277      6.1 8.727e+03 1.189e-10
 76.72335      7.9 8.809e+03 1.362e-10
 76.75610      9.6 8.842e+03 1.490e-10
 76.77639      9.7 9.050e+03 1.679e-10
 76.80451     11.4 8.978e+03 1.572e-10
 76.84509     13.2 8.793e+03 1.346e-10
 76.88567     14.9 8.630e+03 1.065e-10
 76.90994     16.5 8.530e+03 8.040e-11
 76.91658     16.2 8.575e+03 7.873e-11
 76.93290     16.3 8.599e+03 7.761e-11
 76.96683     17.8 8.422e+03 6.356e-11
 77.00741     19.6 8.300e+03 6.141e-11
 77.04799     21.7 8.289e+03 6.272e-11
 77.06912     24.0 8.310e+03 6.663e-11
 77.08941     24.5 8.248e+03 5.575e-11
 77.12915     26.8 8.258e+03 5.672e-11
 77.16973     29.1 8.287e+03 5.822e-11
 77.20534     31.4 8.331e+03 6.099e-11
 77.22563     31.9 8.304e+03 4.925e-11
 77.25089     34.1 8.362e+03 5.505e-11
 77.29147     36.3 8.432e+03 6.312e-11
 77.33205     38.4 8.522e+03 7.284e-11
 77.36185     40.4 8.631e+03 8.431e-11
 77.38214     40.9 8.608e+03 8.218e-11
 77.40148     42.8 8.736e+03 9.749e-11
 77.42177     42.5 8.765e+03 9.602e-11
 77.45379     44.1 8.880e+03 1.103e-10
 77.49437     45.4 9.008e+03 1.249e-10
 77.51836     46.5 9.149e+03 1.411e-10
 77.53864     47.0 9.146e+03 1.382e-10
 77.57553     47.7 9.322e+03 1.643e-10
 77.61611     48.2 9.587e+03 2.121e-10
 77.65457     48.5 9.955e+03 2.876e-10
 77.67486     48.4 1.010e+04 2.976e-10
 77.69727     48.3 1.037e+04 3.684e-10
 77.72761     48.4 1.035e+04 3.938e-10
 77.74278     48.6 1.038e+04 4.171e-10
 77.75292     48.4 1.053e+04 4.725e-10
 77.76809     48.7 1.061e+04 4.946e-10
 77.78838     49.0 1.073e+04 5.119e-10
 77.80867     49.0 1.091e+04 5.416e-10
 77.82103     48.9 1.119e+04 6.086e-10
 77.83118     48.2 1.134e+04 7.609e-10
 77.84925     48.0 1.168e+04 9.495e-10
 77.86954     47.9 1.211e+04 1.244e-09
 77.88914     47.8 1.255e+04 1.652e-09
 77.89929     47.9 1.259e+04 1.848e-09
 77.90297     48.0 1.302e+04 2.294e-09
 77.91312     48.6 1.292e+04 2.173e-09
 77.93041     48.9 1.327e+04 2.635e-09
 77.95070     49.3 1.350e+04 2.991e-09
 77.96740     49.6 1.352e+04 3.024e-09
 77.97754     49.7 1.306e+04 2.250e-09
 77.99128     49.9 1.300e+04 2.155e-09
 78.01157     50.0 1.288e+04 2.017e-09
 78.03186     49.8 1.273e+04 1.852e-09
 78.04565     49.6 1.259e+04 1.755e-09
 78.05580     48.7 1.188e+04 1.211e-09
 78.07244     48.6 1.187e+04 1.275e-09
 78.09273     48.5 1.189e+04 1.356e-09
 78.11302     48.4 1.194e+04 1.446e-09
 78.12391     48.3 1.205e+04 1.516e-09
 78.13405     48.3 1.158e+04 1.272e-09
 78.14875     48.2 1.181e+04 1.485e-09
 78.15889     48.8 1.160e+04 1.322e-09
 78.17389     48.5 1.192e+04 1.545e-09
 78.19202     47.5 1.276e+04 1.957e-09
 78.20216     48.2 1.223e+04 1.709e-09
 78.21447     47.0 1.337e+04 2.418e-09
 78.23476     45.6 1.458e+04 3.539e-09
 78.25505     44.1 1.510e+04 4.430e-09
 78.27027     42.6 1.507e+04 4.385e-09
 78.28042     43.9 1.526e+04 4.313e-09
 78.29563     41.7 1.521e+04 4.275e-09
 78.31592     39.3 1.487e+04 3.843e-09
 78.33621     37.1 1.453e+04 3.138e-09
 78.34853     35.0 1.433e+04 2.416e-09
 78.35867     35.8 1.488e+04 4.206e-09
 78.37679     34.7 1.469e+04 3.477e-09
 78.39452     33.7 1.451e+04 2.641e-09
 78.40466     33.1 1.490e+04 2.642e-09
 78.41664     30.9 1.487e+04 2.027e-09
 78.42678     32.8 1.578e+04 3.534e-09
 78.43766     29.4 1.621e+04 3.348e-09
 78.45795     25.5 1.674e+04 4.415e-09
 78.47824     23.9 1.721e+04 7.071e-09
 78.49489     23.6 1.763e+04 9.793e-09
 78.50504     24.6 1.802e+04 1.088e-08
 78.51882     24.4 1.837e+04 1.220e-08
 78.53911     23.6 1.947e+04 1.325e-08
 78.55940     21.8 2.063e+04 1.427e-08
 78.57315     19.8 1.982e+04 1.379e-08
 78.58329     22.8 1.983e+04 9.151e-09
 78.59998     20.7 1.916e+04 8.134e-09
 78.62027     19.1 1.740e+04 7.221e-09
 78.64029     18.9 1.599e+04 6.614e-09
 78.65043     18.0 1.535e+04 6.124e-09
 78.65140     18.6 1.451e+04 5.381e-09
 78.66155     18.4 1.485e+04 4.725e-09
 78.68114     19.2 1.442e+04 4.698e-09
 78.70143     20.5 1.415e+04 4.531e-09
 78.71951     21.7 1.403e+04 4.046e-09
 78.72966     21.6 1.430e+04 4.390e-09
 78.74201     22.9 1.424e+04 4.102e-09
 78.76230     23.9 1.426e+04 3.494e-09
 78.78259     24.4 1.423e+04 2.778e-09
 78.79777     24.7 1.391e+04 2.148e-09
 78.80791     25.3 1.415e+04 2.965e-09
 78.82317     25.7 1.398e+04 2.362e-09
 78.84346     25.9 1.359e+04 1.945e-09
 78.86375     26.3 1.303e+04 1.694e-09
 78.87602     27.0 1.262e+04 1.569e-09
 78.88617     27.1 1.307e+04 1.825e-09
 78.89621     27.6 1.273e+04 1.717e-09
 78.90635     27.3 1.283e+04 1.573e-09
 78.92462     27.8 1.275e+04 1.579e-09
 78.94413     27.9 1.281e+04 1.688e-09
 78.95428     27.9 1.332e+04 2.215e-09
 78.96520     27.8 1.361e+04 2.575e-09
 78.98549     27.8 1.398e+04 3.195e-09
 79.00578     28.1 1.436e+04 3.991e-09
 79.02239     28.6 1.470e+04 4.779e-09
 79.03253     28.7 1.506e+04 5.365e-09
 79.04636     29.3 1.505e+04 5.455e-09
 79.06665     29.9 1.494e+04 5.320e-09
 79.08694     30.5 1.474e+04 4.919e-09
 79.10064     30.9 1.455e+04 4.392e-09
 79.11079     30.7 1.461e+04 3.933e-09
 79.12752     30.7 1.456e+04 3.569e-09
 79.14198     30.8 1.461e+04 3.563e-09
 79.15212     30.2 1.478e+04 3.680e-09
 79.16810     30.0 1.507e+04 3.931e-09
 79.17890     29.3 1.547e+04 4.820e-09
 79.18904     28.6 1.566e+04 4.664e-09
 79.20868     28.8 1.680e+04 7.286e-09
 79.22384     28.7 1.753e+04 9.367e-09
 79.23394     28.3 1.864e+04 1.250e-08
 79.24409     27.4 1.962e+04 1.688e-08
 79.25198     26.5 2.026e+04 2.391e-08
 79.25706     26.7 2.014e+04 1.667e-08
 79.26438     26.8 2.089e+04 2.201e-08
 79.26984     27.2 2.153e+04 2.631e-08
 79.27491     27.5 2.110e+04 1.907e-08
 79.28467     27.6 2.153e+04 1.957e-08
 79.29111     27.6 2.149e+04 1.856e-08
 79.29618     25.8 1.935e+04 1.180e-08
 79.31008     26.6 2.015e+04 1.436e-08
 79.32526     25.6 1.868e+04 8.883e-09
 79.33541     23.9 1.623e+04 5.574e-09
 79.35071     22.2 1.532e+04 3.771e-09
 79.37100     20.6 1.429e+04 2.535e-09
 79.38775     19.7 1.328e+04 1.715e-09
 79.39789     20.4 1.357e+04 2.138e-09
 79.40352     20.8 1.287e+04 1.545e-09
 79.41366     21.4 1.270e+04 1.591e-09
 79.43187     22.1 1.198e+04 9.925e-10
 79.45216     22.1 1.165e+04 7.510e-10
 79.47173     23.1 1.105e+04 4.389e-10
 79.49211     24.2 1.115e+04 5.898e-10
 79.52337     24.5 1.043e+04 3.145e-10
 79.56395     25.0 1.008e+04 3.083e-10
 79.60453     26.2 9.863e+03 3.426e-10
 79.62833     27.9 9.792e+03 3.454e-10
 79.64862     28.2 1.003e+04 3.463e-10
 79.68569     29.7 9.620e+03 2.976e-10
 79.72627     31.0 9.240e+03 2.399e-10
 79.76455     32.1 9.008e+03 1.929e-10
 79.78484     32.5 9.009e+03 1.787e-10
 79.80742     33.5 8.703e+03 1.425e-10
 79.84800     34.6 8.553e+03 1.209e-10
 79.87949     35.7 8.525e+03 1.051e-10
 79.89978     36.7 8.663e+03 1.196e-10
 79.92106     37.9 8.649e+03 1.061e-10
 79.94135     38.4 8.432e+03 1.032e-10
 79.96974     39.8 8.442e+03 1.032e-10
 80.01032     41.2 8.507e+03 1.045e-10
 80.05090     42.5 8.658e+03 1.120e-10
 80.07757     43.9 8.794e+03 1.340e-10
 80.09786     44.6 8.709e+03 1.169e-10
 80.13206     46.1 8.855e+03 1.364e-10
 80.17264     47.6 9.031e+03 1.615e-10
 80.21322     48.9 9.221e+03 1.986e-10
 80.23408     49.9 9.462e+03 2.688e-10
 80.25437     50.2 9.308e+03 1.657e-10
 80.29438     51.2 9.573e+03 2.605e-10
 80.33496     52.4 9.884e+03 3.962e-10
 80.37030     53.5 9.989e+03 4.463e-10
 80.38608     54.0 9.803e+03 3.862e-10
 80.39132     54.3 9.992e+03 4.256e-10
 80.41612     55.3 9.923e+03 4.077e-10
 80.45670     56.7 9.633e+03 3.167e-10
 80.49728     58.3 9.276e+03 1.894e-10
 80.52681     59.6 9.070e+03 9.297e-11
 80.54710     60.1 9.032e+03 8.784e-11
 80.57844     60.9 8.770e+03 4.693e-11
 80.61902     62.0 8.516e+03 4.017e-11
 80.65960     63.8 8.484e+03 4.001e-11
 80.68332     65.9 8.488e+03 4.070e-11
 80.70361     66.9 8.500e+03 4.191e-11
 80.74076     69.0 8.530e+03 4.365e-11
 80.78134     71.2 8.596e+03 4.637e-11
 80.81954     73.3 8.671e+03 4.931e-11
 80.83983     74.4 8.679e+03 4.969e-11
 80.86250     76.5 8.743e+03 5.242e-11
 80.90308     78.8 8.831e+03 5.600e-11
 80.94366     80.8 8.912e+03 6.160e-11
 80.97605     82.8 8.992e+03 6.936e-11
 80.99634     83.9 9.010e+03 7.366e-11
 81.02482     86.0 9.094e+03 8.460e-11
 81.06540     88.1 9.180e+03 9.490e-11
 81.10598     90.2 9.240e+03 1.018e-10
 81.13256     92.2 9.280e+03 1.040e-10
 81.15285     93.4 9.324e+03 1.192e-10
 81.18714     95.4 9.386e+03 1.123e-10
 81.22772     97.4 9.415e+03 1.042e-10
 81.26830     99.4 9.440e+03 1.012e-10
 81.28907    101.5 9.447e+03 1.021e-10
 81.30936    102.5 9.487e+03 9.070e-11
 81.34946    104.5 9.497e+03 9.191e-11
 81.37441    106.6 9.547e+03 9.783e-11
 81.39470    106.9 9.486e+03 8.128e-11
 81.42529    109.1 9.550e+03 9.197e-11
 81.44558    110.1 9.537e+03 7.030e-11
 81.47120    112.3 9.565e+03 8.166e-11
 81.51178    114.5 9.591e+03 9.648e-11
 81.55236    116.7 9.628e+03 1.132e-10
 81.58180    118.8 9.682e+03 1.304e-10
 81.60209    119.7 9.602e+03 1.010e-10
 81.63352    121.8 9.652e+03 1.156e-10
 81.67410    123.7 9.716e+03 1.278e-10
 81.71468    125.6 9.769e+03 1.350e-10
 81.73831    127.3 9.777e+03 1.358e-10
 81.75860    128.4 9.686e+03 1.091e-10
 81.79584    130.1 9.670e+03 1.041e-10
 81.83642    131.8 9.623e+03 9.464e-11
 81.86595    133.6 9.530e+03 8.739e-11
 81.88377    134.1 9.650e+03 9.987e-11
 81.89482    135.1 9.542e+03 9.451e-11
 81.91758    136.9 9.481e+03 8.907e-11
 81.95816    138.7 9.428e+03 8.843e-11
 81.99874    140.6 9.415e+03 8.962e-11
 82.03104    142.6 9.363e+03 9.477e-11
 82.05133    143.7 9.296e+03 8.970e-11
 82.07990    145.8 9.246e+03 9.421e-11
 82.12048    148.0 9.197e+03 1.024e-10
 82.16106    150.4 9.164e+03 1.136e-10
 82.18755    152.9 9.154e+03 1.284e-10
 82.20784    153.9 9.081e+03 1.106e-10
 82.24222    156.4 9.086e+03 1.258e-10
 82.28280    159.0 9.131e+03 1.467e-10
 82.32338    161.5 9.227e+03 1.736e-10
 82.34406    164.0 9.376e+03 2.071e-10
 82.35789    165.0 9.291e+03 1.890e-10
 82.37778    165.2 9.145e+03 1.529e-10
 82.40454    167.7 9.291e+03 1.831e-10
 82.44512    170.1 9.455e+03 2.192e-10
 82.48028    172.4 9.621e+03 2.605e-10
 82.50057    173.3 9.417e+03 2.253e-10
 82.52628    175.7 9.563e+03 2.641e-10
 82.56686    178.0 9.723e+03 3.063e-10
 82.60744    180.6 9.891e+03 3.473e-10
 82.63679    182.8 1.007e+04 3.933e-10
 82.65708    184.0 9.780e+03 3.286e-10
 82.68860    186.3 9.987e+03 3.822e-10
 82.72918    188.6 1.024e+04 4.498e-10
 82.76976    190.9 1.058e+04 5.352e-10
 82.79330    192.9 1.093e+04 6.316e-10
 82.81359    194.1 1.036e+04 4.800e-10
 82.84904    196.2 1.068e+04 5.442e-10
 82.86933    196.4 1.066e+04 5.335e-10
 82.89150    198.3 1.081e+04 5.859e-10
 82.92952    200.5 1.102e+04 5.897e-10
 82.94981    201.6 1.061e+04 4.910e-10
 82.97266    203.5 1.071e+04 4.941e-10
 83.01324    205.6 1.076e+04 4.892e-10
 83.04357    206.7 1.072e+04 4.682e-10
 83.06377    207.7 1.069e+04 4.440e-10
 83.08406    208.7 1.065e+04 4.250e-10
 83.09598    209.7 1.064e+04 4.061e-10
 83.10622    211.2 1.045e+04 3.794e-10
 83.11500    212.3 1.041e+04 3.501e-10
 83.12505    212.0 1.049e+04 3.923e-10
 83.14493    213.0 1.053e+04 4.092e-10
 83.16409    213.8 1.062e+04 4.328e-10
 83.17424    214.8 1.040e+04 3.903e-10
 83.18551    215.3 1.054e+04 4.216e-10
 83.20580    215.4 1.098e+04 5.291e-10
 83.22609    214.8 1.223e+04 9.305e-10
 83.24235    214.0 1.393e+04 1.965e-09
 83.25249    215.8 1.306e+04 1.381e-09
 83.26667    215.6 1.493e+04 3.098e-09
 83.28143    215.4 1.599e+04 4.978e-09
 83.28645    215.8 1.554e+04 4.209e-09
 83.29193    215.8 1.616e+04 5.579e-09
 83.30720    216.0 1.714e+04 8.731e-09
 83.32060    216.4 1.794e+04 1.216e-08
 83.32563    216.9 1.759e+04 1.037e-08
 83.33251    217.0 1.785e+04 1.172e-08
 83.34778    217.7 1.823e+04 1.310e-08
 83.36068    217.9 1.840e+04 1.306e-08
 83.37082    217.1 1.849e+04 1.314e-08
 83.38841    216.6 1.864e+04 1.079e-08
 83.39886    215.4 1.856e+04 5.756e-09
 83.40900    217.7 1.844e+04 9.168e-09
 83.42899    216.1 1.844e+04 4.741e-09
 83.44927    212.8 1.761e+04 1.790e-09
 83.46697    208.2 1.421e+04 8.137e-10
 83.47711    212.8 1.732e+04 1.767e-09
 83.48985    208.3 1.398e+04 9.376e-10
 83.51014    205.1 1.112e+04 8.312e-10
 83.53043    203.8 1.095e+04 8.378e-10
 83.54522    203.3 1.098e+04 8.525e-10
 83.55537    204.2 1.118e+04 9.287e-10
 83.57101    203.3 1.121e+04 9.383e-10
 83.59130    202.1 1.134e+04 9.756e-10
 83.60645    199.7 1.169e+04 1.092e-09
 83.61659    198.8 1.161e+04 1.075e-09
 83.62348    195.8 1.227e+04 1.446e-09
 83.63362    196.6 1.245e+04 1.556e-09
 83.65217    193.6 1.327e+04 2.370e-09
 83.67246    191.3 1.398e+04 3.567e-09
 83.69159    189.3 1.445e+04 4.147e-09
 83.70173    189.9 1.452e+04 4.210e-09
 83.71304    187.6 1.453e+04 4.117e-09
 83.73333    184.9 1.439e+04 3.427e-09
 83.75362    181.4 1.394e+04 2.095e-09
 83.76984    176.1 1.296e+04 1.066e-09
 83.77999    177.4 1.308e+04 1.132e-09
 83.79420    170.7 1.123e+04 7.540e-10
 83.81449    165.1 1.051e+04 7.569e-10
 83.83478    161.6 1.047e+04 7.884e-10
 83.84810    159.3 1.066e+04 9.083e-10
 83.85539    160.1 1.086e+04 1.021e-09
 83.86236    160.7 1.087e+04 1.017e-09
 83.87536    158.6 1.127e+04 1.174e-09
 83.89565    155.9 1.165e+04 1.259e-09
 83.91594    152.4 1.200e+04 1.300e-09
 83.92635    147.9 1.216e+04 1.358e-09
 83.93650    149.2 1.245e+04 1.511e-09
 83.95652    144.4 1.239e+04 1.523e-09
 83.97681    140.2 1.222e+04 1.515e-09
 83.99446    137.0 1.184e+04 1.448e-09
 84.00461    137.2 1.220e+04 1.664e-09
 84.01739    134.8 1.185e+04 1.489e-09
 84.03768    132.5 1.161e+04 1.182e-09
 84.05797    129.1 1.190e+04 9.799e-10
 84.07272    124.4 1.206e+04 9.967e-10
 84.08286    124.0 1.275e+04 1.356e-09
 84.09799    118.3 1.320e+04 1.584e-09
 84.10814    118.1 1.275e+04 1.425e-09
 84.11884    114.3 1.305e+04 2.052e-09
 84.13913    112.5 1.338e+04 2.800e-09
 84.15097    111.3 1.355e+04 2.963e-09
 84.16112    109.7 1.396e+04 3.282e-09
 84.17971    108.8 1.377e+04 2.985e-09
 84.20000    108.1 1.313e+04 2.118e-09
 84.21908    107.0 1.234e+04 1.197e-09
 84.22923    105.4 1.219e+04 1.035e-09
 84.24058    102.6 1.114e+04 4.828e-10
 84.26087     99.2 9.946e+03 2.910e-10
 84.28116     97.7 9.615e+03 2.786e-10
 84.29734     97.5 9.612e+03 2.820e-10
 84.30748     96.5 9.612e+03 2.858e-10
 84.32174     96.3 9.650e+03 3.118e-10
 84.34203     96.2 9.819e+03 3.767e-10
 84.35391     96.0 1.015e+04 4.954e-10
 84.36405     97.3 1.011e+04 4.816e-10
 84.37559     97.1 1.062e+04 6.795e-10
 84.38574     95.8 1.087e+04 7.697e-10
 84.40290     95.4 1.169e+04 1.173e-09
 84.42319     95.0 1.267e+04 1.806e-09
 84.44348     94.5 1.337e+04 2.542e-09
 84.45385     93.8 1.439e+04 3.213e-09
 84.46399     93.2 1.330e+04 2.720e-09
 84.48406     92.3 1.327e+04 2.745e-09
 84.50435     90.5 1.494e+04 2.724e-09
 84.52196     86.7 1.835e+04 2.692e-09
 84.53210     87.1 1.073e+04 6.452e-10
 84.54493     81.8 1.237e+04 3.474e-10
 84.56522     76.7 1.336e+04 3.170e-10
 84.58551     73.6 1.502e+04 7.151e-10
 84.59968     71.5 1.615e+04 2.254e-09
 84.60423     70.8 1.645e+04 1.597e-09
 84.61036     71.3 1.308e+04 5.612e-10
 84.62609     70.2 1.386e+04 7.669e-10
 84.64638     69.5 1.552e+04 1.599e-09
 84.66667     69.0 1.633e+04 2.609e-09
 84.67847     68.6 1.684e+04 3.682e-09
 84.68861     69.0 1.272e+04 1.415e-09
 84.70725     68.6 1.325e+04 1.875e-09
 84.72754     68.4 1.322e+04 1.863e-09
 84.74658     68.4 1.288e+04 1.680e-09
 84.75672     69.2 1.246e+04 1.587e-09
 84.76812     69.2 1.240e+04 1.426e-09
 84.78841     69.3 1.220e+04 1.152e-09
 84.80870     69.1 1.191e+04 9.176e-10
 84.82483     68.9 1.160e+04 7.700e-10
 84.83498     69.6 1.168e+04 8.973e-10
 84.84545     69.3 1.141e+04 7.625e-10
 84.85560     69.5 1.127e+04 7.011e-10
 84.86957     69.5 1.098e+04 6.052e-10
 84.88986     69.8 1.070e+04 5.336e-10
 84.90309     70.2 1.052e+04 4.546e-10
 84.91323     70.1 1.058e+04 4.759e-10
 84.93044     70.1 1.045e+04 3.734e-10
 84.96097     69.3 1.047e+04 2.659e-10
 85.00165     69.1 1.024e+04 2.409e-10
 85.03950     68.6 1.032e+04 2.698e-10
 85.05979     66.7 1.040e+04 2.782e-10
 85.08281     66.3 1.062e+04 3.573e-10
 85.11315     66.6 1.089e+04 4.990e-10
 85.12771     66.6 1.116e+04 6.242e-10
 85.13785     65.8 1.111e+04 5.982e-10
 85.15363     65.6 1.123e+04 6.172e-10
 85.17392     65.3 1.121e+04 6.094e-10
 85.19421     65.0 1.108e+04 5.738e-10
 85.20596     64.7 1.090e+04 5.220e-10
 85.21611     63.5 1.089e+04 5.235e-10
 85.23479     62.7 1.088e+04 5.036e-10
 85.25508     62.4 1.082e+04 4.891e-10
 85.27407     61.5 1.091e+04 5.266e-10
 85.28422     60.8 1.102e+04 6.006e-10
 85.29566     60.7 1.105e+04 6.263e-10
 85.32619     60.3 1.137e+04 7.800e-10
 85.34733     59.4 1.207e+04 1.315e-09
 85.35327     59.1 1.226e+04 1.475e-09
 85.37281     57.4 1.233e+04 1.571e-09
 85.40745     57.2 1.233e+04 1.587e-09
 85.44803     57.6 1.186e+04 1.286e-09
 85.48861     58.5 1.102e+04 7.629e-10
 85.52919     57.1 9.770e+03 3.189e-10
 85.56977     57.0 9.209e+03 2.071e-10
 85.61035     57.5 9.063e+03 1.935e-10
 85.64525     58.4 9.058e+03 2.025e-10
 85.66554     58.4 9.201e+03 2.458e-10
 85.69151     59.2 9.308e+03 2.854e-10
 85.73209     59.7 9.455e+03 3.439e-10
 85.77267     60.0 9.515e+03 3.906e-10
 85.80166     60.1 9.614e+03 4.567e-10
 85.81171     60.3 9.805e+03 5.217e-10
 85.82320     60.5 9.878e+03 5.661e-10
 85.83868     60.5 9.934e+03 6.058e-10
 85.84883     60.5 9.934e+03 6.117e-10
 85.86378     60.6 9.906e+03 6.260e-10
 85.87982     60.8 9.844e+03 6.212e-10
 85.88997     61.0 9.990e+03 6.724e-10
 85.90436     61.2 9.901e+03 6.572e-10
 85.92465     61.5 9.799e+03 6.300e-10
 85.94494     61.8 9.679e+03 5.942e-10
 85.95808     62.1 9.480e+03 5.260e-10
 85.96822     62.2 9.660e+03 5.844e-10
 85.98552     62.4 9.448e+03 5.183e-10
 86.00581     62.4 9.225e+03 4.514e-10
 86.02610     62.4 9.118e+03 4.229e-10
 86.05663     62.6 9.062e+03 4.095e-10
 86.09449     62.9 8.999e+03 4.020e-10
 86.11478     63.2 9.073e+03 4.166e-10
 86.13789     63.7 9.006e+03 4.082e-10
 86.17847     64.0 8.913e+03 3.844e-10
 86.21905     64.1 8.871e+03 3.639e-10
 86.25100     64.3 8.804e+03 3.554e-10
 86.27129     63.8 8.892e+03 3.639e-10
 86.30021     63.6 8.926e+03 3.812e-10
 86.33042     63.1 9.149e+03 4.376e-10
 86.35071     64.2 9.013e+03 4.119e-10
 86.38137     63.4 9.555e+03 5.573e-10
 86.40751     62.4 1.012e+04 7.130e-10
 86.42780     61.1 9.867e+03 6.175e-10
 86.45228     59.8 1.006e+04 6.550e-10
 86.47248     58.8 1.011e+04 6.802e-10
 86.48557     57.8 1.006e+04 6.945e-10
 86.49571     57.0 1.005e+04 6.940e-10
 86.51306     56.4 9.986e+03 6.888e-10
 86.53335     56.2 9.908e+03 6.723e-10
 86.55364     56.2 9.814e+03 6.399e-10
 86.57393     55.7 9.718e+03 6.019e-10
 86.58614     55.9 9.592e+03 5.395e-10
 86.59629     56.2 9.485e+03 5.134e-10
 86.61451     56.1 9.378e+03 4.628e-10
 86.63193     56.0 9.336e+03 4.336e-10
 86.64208     55.2 9.338e+03 4.402e-10
 86.65509     55.2 9.393e+03 4.463e-10
 86.67538     55.3 9.474e+03 4.571e-10
 86.69567     55.3 9.582e+03 4.829e-10
 86.71019     55.4 9.621e+03 4.923e-10
 86.72033     54.8 9.653e+03 5.112e-10
 86.74649     54.7 9.912e+03 5.858e-10
 86.78717     56.0 1.011e+04 6.181e-10
 86.81750     56.4 1.002e+04 5.918e-10
 86.83191     57.4 9.907e+03 5.505e-10
 86.84206     57.8 9.904e+03 5.448e-10
 86.85665     59.2 1.006e+04 5.626e-10
 86.87704     57.4 9.409e+03 3.733e-10
 86.90891     58.2 9.546e+03 3.535e-10
 86.94949     58.9 9.660e+03 3.683e-10
 86.97982     58.8 9.628e+03 3.659e-10
 87.00002     59.3 9.718e+03 3.933e-10
 87.01306     60.1 9.947e+03 4.588e-10
 87.02321     59.3 9.957e+03 4.639e-10
 87.04060     60.2 1.025e+04 5.583e-10
 87.06089     61.1 1.061e+04 6.821e-10
 87.07768     61.9 1.101e+04 8.451e-10
 87.08783     62.2 1.092e+04 7.989e-10
 87.10146     60.9 1.193e+04 1.185e-09
 87.12176     60.2 1.334e+04 1.828e-09
 87.14205     59.8 1.477e+04 2.960e-09
 87.15943     60.2 1.571e+04 4.231e-09
 87.16953     59.0 1.631e+04 5.410e-09
 87.17745     59.1 1.677e+04 6.404e-09
 87.18760     59.5 1.717e+04 7.682e-09
 87.19774     59.9 1.752e+04 9.056e-09
 87.20353     60.5 1.792e+04 1.033e-08
 87.20626     59.9 1.825e+04 1.259e-08
 87.21062     59.2 1.833e+04 1.198e-08
 87.21803     58.9 1.897e+04 1.352e-08
 87.22818     57.7 2.027e+04 1.654e-08
 87.23759     54.1 2.369e+04 2.456e-08
 87.24266     48.4 2.617e+04 3.152e-08
 87.24847     42.3 2.779e+04 5.329e-08
 87.25861     38.1 2.635e+04 8.681e-08
 87.26876     34.9 2.448e+04 1.285e-07
 87.27671     32.7 2.406e+04 1.225e-07
 87.28179     29.3 2.429e+04 5.382e-08
 87.28905     26.7 2.429e+04 3.188e-08
 87.29919     23.3 2.399e+04 1.534e-08
 87.30934     18.6 2.297e+04 9.116e-09
 87.31584     10.8 2.361e+04 4.962e-09
 87.32484      4.4 1.798e+04 2.607e-09
 87.33360      2.8 1.694e+04 2.339e-09
 87.34494     -9.8 1.609e+04 1.946e-09
 87.36523    -15.9 1.606e+04 3.222e-09
 87.38405    -16.7 1.559e+04 5.043e-09
 87.39419    -14.0 1.460e+04 3.440e-09
 87.40581    -13.6 1.450e+04 4.281e-09
 87.42610    -12.3 1.442e+04 4.489e-09
 87.44639    -11.7 1.416e+04 3.656e-09
 87.46230    -13.3 1.402e+04 2.744e-09
 87.47245    -12.0 1.362e+04 2.033e-09
 87.48697    -14.3 1.280e+04 1.606e-09
 87.50726    -15.6 1.230e+04 1.480e-09
 87.52755    -16.0 1.194e+04 1.593e-09
 87.54056    -16.4 1.243e+04 2.070e-09
 87.55070    -14.8 1.212e+04 1.738e-09
 87.56813    -15.3 1.272e+04 2.357e-09
 87.57937    -15.6 1.371e+04 3.201e-09
 87.58952    -17.3 1.547e+04 4.598e-09
 87.60867    -17.3 1.657e+04 5.944e-09
 87.62896    -16.1 1.667e+04 5.989e-09
 87.64929    -15.6 1.682e+04 5.968e-09
 87.66958    -15.4 1.580e+04 3.500e-09
 87.68692    -17.4 1.367e+04 1.863e-09
 87.69707    -16.0 1.407e+04 2.085e-09
 87.71016    -16.9 1.223e+04 1.235e-09
 87.73045    -16.8 1.164e+04 8.908e-10
 87.75074    -15.7 1.115e+04 6.593e-10
 87.76518    -14.7 1.080e+04 4.975e-10
 87.77532    -14.1 1.085e+04 5.322e-10
 87.79132    -13.1 1.045e+04 4.079e-10
 87.81161    -12.0 1.036e+04 3.451e-10
 87.82514    -10.9 1.036e+04 3.226e-10
 87.83529    -11.9 1.078e+04 4.505e-10
 87.84343    -11.1 1.073e+04 4.425e-10
 87.85358    -10.8 1.061e+04 4.096e-10
 87.87248     -9.9 1.085e+04 4.492e-10
 87.89277     -9.5 1.097e+04 5.221e-10
 87.91154     -8.5 1.119e+04 6.536e-10
 87.92169     -8.2 1.092e+04 5.613e-10
 87.93335     -7.5 1.126e+04 6.807e-10
 87.95364     -7.0 1.167e+04 8.531e-10
 87.97393     -6.6 1.198e+04 1.070e-09
 87.98980     -6.1 1.218e+04 1.328e-09
 87.99994     -6.9 1.222e+04 1.338e-09
 88.01451     -6.3 1.259e+04 1.770e-09
 88.03480     -5.8 1.326e+04 2.324e-09
 88.05509     -5.9 1.401e+04 3.027e-09
 88.06805     -6.7 1.470e+04 3.871e-09
 88.07373     -6.6 1.442e+04 3.722e-09
 88.08106     -7.0 1.428e+04 3.712e-09
 88.09567     -7.0 1.447e+04 4.133e-09
 88.11596     -6.9 1.460e+04 4.122e-09
 88.13616     -6.6 1.465e+04 3.651e-09
 88.15645     -9.3 1.384e+04 1.971e-09
 88.17683    -11.2 1.257e+04 1.439e-09
 88.19712    -12.8 1.140e+04 1.152e-09
 88.21442    -13.3 1.105e+04 9.832e-10
 88.22456    -13.0 1.112e+04 1.057e-09
 88.23770    -13.3 1.090e+04 9.260e-10
 88.25799    -13.1 1.093e+04 8.769e-10
 88.27828    -13.8 1.061e+04 7.745e-10
 88.29267    -13.6 1.060e+04 7.593e-10
 88.30282    -13.5 1.052e+04 7.137e-10
 88.31679    -13.8 1.039e+04 6.785e-10
 88.33717    -13.4 1.040e+04 7.001e-10
 88.36098    -13.1 1.031e+04 6.812e-10
 88.38127    -13.7 1.039e+04 7.365e-10
 88.41036    -13.1 1.042e+04 7.837e-10
 88.45094    -12.3 1.029e+04 7.484e-10
 88.49152    -11.9 1.010e+04 6.628e-10
 88.51749    -12.1 1.002e+04 6.474e-10
 88.53778    -12.5 9.941e+03 6.293e-10
 88.57268    -12.6 1.022e+04 7.121e-10
 88.59565    -13.1 1.075e+04 9.364e-10
 88.60569    -13.4 1.067e+04 8.741e-10
 88.62321    -14.2 1.098e+04 1.001e-09
 88.64350    -15.1 1.156e+04 1.441e-09
 88.66366    -15.9 1.207e+04 1.887e-09
 88.67390    -15.8 1.136e+04 1.263e-09
 88.68418    -16.5 1.230e+04 2.111e-09
 88.70437    -17.1 1.277e+04 2.502e-09
 88.72466    -18.0 1.325e+04 2.863e-09
 88.74191    -18.8 1.342e+04 3.078e-09
 88.75206    -17.8 1.264e+04 2.222e-09
 88.76524    -18.6 1.260e+04 2.184e-09
 88.78553    -19.2 1.247e+04 2.067e-09
 88.80582    -19.8 1.211e+04 1.844e-09
 88.81838    -20.4 1.182e+04 1.636e-09
 88.82258    -19.8 1.154e+04 1.449e-09
 88.83041    -18.5 1.095e+04 1.054e-09
 88.84650    -19.7 1.068e+04 1.001e-09
 88.86669    -19.6 1.071e+04 9.994e-10
 88.88698    -19.9 1.051e+04 9.459e-10
 88.89842    -19.6 1.053e+04 9.297e-10
 88.90857    -18.8 1.048e+04 9.007e-10
 88.93780    -19.2 1.020e+04 7.998e-10
 88.96673    -19.2 1.003e+04 7.058e-10
 88.98702    -17.3 1.027e+04 7.931e-10
 89.00882    -18.9 1.000e+04 7.021e-10
 89.02901    -18.7 9.941e+03 6.536e-10
 89.04479    -19.7 9.890e+03 6.088e-10
 89.05493    -19.1 1.023e+04 7.352e-10
 89.06415    -20.6 1.049e+04 7.778e-10
 89.07429    -19.5 1.046e+04 7.480e-10
 89.08988    -21.6 1.082e+04 8.926e-10
 89.11017    -23.2 1.130e+04 1.143e-09
 89.12304    -24.3 1.174e+04 1.385e-09
 89.13319    -24.8 1.255e+04 2.079e-09
 89.15075    -25.3 1.284e+04 2.248e-09
 89.17104    -25.8 1.286e+04 2.204e-09
 89.19115    -26.7 1.229e+04 1.677e-09
 89.20130    -26.6 1.288e+04 1.902e-09
 89.21162    -28.8 1.132e+04 1.144e-09
 89.23191    -30.1 1.052e+04 8.332e-10
 89.25936    -30.7 1.005e+04 6.433e-10
 89.27975    -32.1 9.875e+03 5.893e-10
 89.29997    -31.5 9.120e+03 3.632e-10
 89.32026    -29.9 9.338e+03 4.005e-10
 89.34370    -29.3 8.617e+03 2.372e-10
 89.38428    -29.0 8.232e+03 1.704e-10
 89.41597    -28.3 8.127e+03 1.546e-10
 89.43626    -28.4 8.178e+03 1.703e-10
 89.46544    -27.6 8.411e+03 2.041e-10
 89.50602    -26.6 8.667e+03 2.559e-10
 89.54660    -25.5 8.927e+03 2.979e-10
 89.57248    -24.6 9.030e+03 3.103e-10
 89.59277    -24.4 9.205e+03 3.659e-10
 89.62776    -23.7 9.161e+03 3.231e-10
 89.66834    -23.0 9.023e+03 2.740e-10
 89.70870    -22.5 8.945e+03 2.550e-10
 89.72899    -22.6 9.048e+03 2.764e-10
 89.74950    -22.0 9.162e+03 2.915e-10
 89.79008    -21.2 9.361e+03 3.435e-10
 89.81180    -20.3 9.580e+03 4.019e-10
 89.83209    -19.5 9.298e+03 3.129e-10
 89.86521    -18.9 9.490e+03 3.478e-10
 89.88550    -19.9 9.671e+03 3.858e-10
 89.91182    -19.8 9.834e+03 4.275e-10
 89.95240    -20.2 1.008e+04 4.887e-10
 89.98274    -25.2 9.295e+03 4.961e-10
 90.00293    -34.6 1.334e+04 7.376e-10
 90.02152    -38.1 2.026e+04 9.684e-10
 90.03167    -46.6 2.413e+04 1.984e-09
 90.03839    -57.5 2.421e+04 1.099e-08
 90.04848    -60.9 2.337e+04 3.609e-08
 90.05728    -62.3 2.294e+04 8.202e-08
 90.06235    -61.9 2.287e+04 9.878e-08
 90.06563    -62.3 2.325e+04 1.199e-07
 90.07070    -64.1 2.359e+04 1.173e-07
 90.07892    -66.9 2.474e+04 7.259e-08
 90.08906    -73.6 2.568e+04 1.570e-08
 90.09921    -87.0 2.088e+04 1.957e-09
 90.10475    -97.6 1.397e+04 6.691e-10
 90.10983    -98.6 1.304e+04 6.046e-10
 90.12462   -101.6 1.154e+04 3.955e-10
 90.14496   -106.1 9.253e+03 1.764e-10
 90.16525   -107.3 8.461e+03 1.353e-10
 90.17813   -107.3 8.307e+03 1.211e-10
 90.19852   -107.1 8.446e+03 1.425e-10
 90.23646   -106.9 8.121e+03 1.080e-10
 90.27704   -105.6 7.963e+03 9.301e-11
 90.30335   -104.2 7.948e+03 9.118e-11
 90.32047   -104.9 7.963e+03 9.041e-11
 90.33474   -104.1 8.061e+03 1.117e-10
 90.35820   -102.5 8.071e+03 1.113e-10
 90.39878   -100.6 8.127e+03 1.135e-10
 90.43936    -98.5 8.196e+03 1.191e-10
 90.47096    -96.5 8.272e+03 1.278e-10
 90.49125    -96.5 8.443e+03 1.484e-10
 90.52052    -96.0 8.666e+03 1.909e-10
 90.56110    -96.2 9.781e+03 3.631e-10
 90.60168    -96.8 1.137e+04 8.925e-10
 90.62737    -97.1 1.255e+04 2.018e-09
 90.63742    -97.1 1.259e+04 1.912e-09
 90.65221    -97.4 1.356e+04 2.779e-09
 90.67250    -98.8 1.499e+04 4.257e-09
 90.69279   -101.1 1.679e+04 7.018e-09
 90.70553   -103.4 1.862e+04 1.216e-08
 90.71567   -104.6 1.874e+04 1.173e-08
 90.73337   -107.6 2.038e+04 2.129e-08
 90.74461   -109.9 2.127e+04 3.328e-08
 90.74963   -110.6 2.133e+04 3.310e-08
 90.75863   -112.1 2.168e+04 4.262e-08
 90.76878   -113.9 2.162e+04 4.844e-08
 90.77861   -115.6 2.149e+04 4.920e-08
 90.78368   -116.0 2.146e+04 4.686e-08
 90.78907   -117.1 2.067e+04 4.300e-08
 90.79921   -117.6 1.976e+04 3.394e-08
 90.80474   -117.9 1.893e+04 2.512e-08
 90.80981   -117.8 1.849e+04 1.976e-08
 90.81774   -118.5 1.782e+04 1.442e-08
 90.82281   -118.9 1.765e+04 1.301e-08
 90.82965   -119.8 1.690e+04 9.419e-09
 90.83979   -120.9 1.599e+04 6.667e-09
 90.84994   -122.0 1.506e+04 4.936e-09
 90.85687   -122.7 1.446e+04 4.022e-09
 90.86199   -122.6 1.440e+04 3.560e-09
 90.87540   -124.0 1.329e+04 2.207e-09
 90.89569   -125.2 1.236e+04 1.392e-09
 90.91598   -126.4 1.158e+04 9.346e-10
 90.93015   -127.2 1.113e+04 7.121e-10
 90.94029   -127.4 1.115e+04 6.499e-10
 90.95656   -127.8 1.103e+04 5.862e-10
 90.97685   -128.4 1.101e+04 5.721e-10
 90.99714   -129.7 1.116e+04 5.759e-10
 91.00840   -132.0 1.212e+04 7.561e-10
 91.01855   -131.7 1.175e+04 7.186e-10
 91.03771   -133.5 1.249e+04 1.104e-09
 91.05061   -134.9 1.305e+04 1.608e-09
 91.06076   -135.3 1.307e+04 1.664e-09
 91.07651   -136.5 1.330e+04 1.946e-09
 91.08666   -136.0 1.285e+04 1.703e-09
 91.09858   -137.1 1.288e+04 1.752e-09
 91.11887   -138.0 1.267e+04 1.674e-09
 91.13916   -138.4 1.214e+04 1.311e-09
 91.15477   -138.8 1.155e+04 9.419e-10
 91.16491   -138.4 1.152e+04 9.344e-10
 91.17974   -138.8 1.108e+04 7.199e-10
 91.20003   -139.0 1.073e+04 5.909e-10
 91.22032   -139.0 1.051e+04 5.168e-10
 91.23302   -138.9 1.041e+04 4.807e-10
 91.24317   -138.5 1.051e+04 5.371e-10
 91.26090   -138.3 1.049e+04 5.342e-10
 91.28119   -138.2 1.053e+04 5.441e-10
 91.29638   -138.3 1.070e+04 6.076e-10
 91.30618   -138.4 1.092e+04 7.036e-10
 91.31128   -138.1 1.108e+04 7.129e-10
 91.32177   -138.2 1.135e+04 8.534e-10
 91.34206   -138.3 1.163e+04 1.007e-09
 91.36235   -138.5 1.184e+04 1.124e-09
 91.37939   -138.8 1.193e+04 1.179e-09
 91.38963   -139.3 1.154e+04 8.614e-10
 91.41327   -139.5 1.147e+04 8.733e-10
 91.45385   -139.3 1.105e+04 7.420e-10
 91.49443   -138.9 1.044e+04 5.041e-10
 91.52595   -138.1 9.823e+03 3.203e-10
 91.54624   -138.0 9.474e+03 2.304e-10
 91.57559   -136.7 9.051e+03 1.516e-10
 91.61617   -135.3 8.782e+03 1.084e-10
 91.65675   -133.6 8.616e+03 8.486e-11
 91.68246   -131.9 8.502e+03 7.242e-11
 91.70275   -131.6 8.479e+03 6.013e-11
 91.73791   -129.8 8.425e+03 5.695e-11
 91.77798   -128.0 8.413e+03 5.628e-11
 91.79827   -128.1 8.354e+03 5.562e-11
 91.81868   -126.3 8.355e+03 5.550e-11
 91.83897   -126.1 8.312e+03 5.033e-11
 91.85965   -124.3 8.330e+03 5.254e-11
 91.90023   -122.6 8.361e+03 5.812e-11
 91.94081   -120.9 8.384e+03 6.409e-11
 91.97519   -119.1 8.407e+03 6.843e-11
 91.99548   -118.7 8.386e+03 5.064e-11
 92.02197   -117.0 8.428e+03 5.017e-11
 92.06255   -115.3 8.448e+03 4.994e-11
 92.10313   -113.9 8.505e+03 5.000e-11
 92.13170   -112.6 8.650e+03 5.437e-11
 92.15199   -112.7 8.515e+03 5.127e-11
 92.18429   -111.4 8.620e+03 6.834e-11
 92.22487   -110.0 8.743e+03 8.977e-11
 92.26545   -108.9 8.893e+03 1.130e-10
 92.28821   -108.1 9.095e+03 1.404e-10
 92.29227   -108.4 9.208e+03 1.638e-10
 92.31010   -108.6 9.366e+03 1.920e-10
 92.34661   -108.5 9.754e+03 2.733e-10
 92.38719   -108.6 1.022e+04 4.049e-10
 92.42443   -108.8 1.071e+04 5.910e-10
 92.44472   -109.4 1.096e+04 7.129e-10
 92.46835   -109.8 1.134e+04 8.637e-10
 92.50893   -111.0 1.161e+04 9.522e-10
 92.54951   -112.5 1.180e+04 1.008e-09
 92.58094   -114.1 1.195e+04 1.080e-09
 92.60123   -115.7 1.137e+04 8.247e-10
 92.63067   -117.3 1.132e+04 8.269e-10
 92.67125   -118.5 1.118e+04 8.057e-10
 92.71183   -119.2 1.088e+04 6.814e-10
 92.73745   -119.6 1.051e+04 4.857e-10
 92.75774   -120.1 1.031e+04 3.772e-10
 92.78135   -120.4 9.974e+03 2.834e-10
 92.80164   -120.2 9.817e+03 2.469e-10
 92.83357   -119.7 9.415e+03 1.766e-10
 92.87367   -118.8 9.039e+03 1.262e-10
 92.89396   -118.6 9.050e+03 1.209e-10
 92.91473   -117.3 8.858e+03 9.384e-11
 92.95531   -115.9 8.750e+03 7.858e-11
 92.99589   -114.3 8.684e+03 6.910e-11
 93.03018   -112.6 8.630e+03 6.235e-11
 93.05047   -112.1 8.598e+03 5.853e-11
 93.07705   -110.3 8.547e+03 5.252e-11
 93.11763   -108.6 8.528e+03 5.038e-11
 93.15821   -106.9 8.525e+03 5.014e-11
 93.18669   -105.4 8.557e+03 5.447e-11
 93.20698   -104.4 8.525e+03 5.638e-11
 93.23937   -102.8 8.616e+03 7.301e-11
 93.27290   -101.1 8.719e+03 9.015e-11
 93.29319   -101.2 8.760e+03 9.085e-11
 93.32053    -99.5 8.825e+03 1.002e-10
 93.34320    -97.9 8.840e+03 1.017e-10
 93.36349    -96.5 8.880e+03 1.243e-10
 93.40169    -94.8 8.854e+03 1.177e-10
 93.44227    -92.9 8.724e+03 9.029e-11
 93.47942    -91.1 8.631e+03 6.667e-11
 93.49971    -89.8 8.734e+03 8.489e-11
 93.52343    -88.2 8.713e+03 6.492e-11
 93.56401    -86.7 8.732e+03 6.041e-11
 93.60459    -85.4 8.783e+03 6.060e-11
 93.63593    -84.4 9.034e+03 8.433e-11
 93.65622    -82.8 9.014e+03 9.465e-11
 93.68575    -81.7 9.293e+03 1.495e-10
 93.72633    -80.6 9.618e+03 2.362e-10
 93.76444    -79.5 9.988e+03 3.303e-10
 93.78473    -81.4 1.029e+04 4.039e-10
 93.79244    -80.7 1.060e+04 4.675e-10
 93.81273    -79.1 1.096e+04 5.764e-10
 93.84807    -78.4 1.105e+04 5.966e-10
 93.88865    -77.8 1.111e+04 5.782e-10
 93.92866    -77.5 1.133e+04 5.701e-10
 93.94895    -74.9 1.182e+04 7.995e-10
 93.96981    -74.1 1.199e+04 7.756e-10
 94.00014    -74.7 1.218e+04 7.198e-10
 94.01686    -75.0 1.274e+04 8.048e-10
 94.02683    -72.5 1.256e+04 8.212e-10
 94.03031    -74.1 1.287e+04 9.429e-10
 94.04063    -73.5 1.316e+04 9.385e-10
 94.06092    -74.7 1.470e+04 1.285e-09
 94.08121    -76.2 1.585e+04 2.204e-09
 94.09512    -77.3 1.650e+04 3.930e-09
 94.10526    -73.9 1.656e+04 2.803e-09
 94.12179    -74.9 1.721e+04 5.004e-09
 94.14208    -75.4 1.789e+04 7.451e-09
 94.16237    -76.2 1.843e+04 9.034e-09
 94.17337    -78.0 1.864e+04 8.820e-09
 94.18352    -74.7 1.942e+04 1.123e-08
 94.20295    -77.3 1.962e+04 1.051e-08
 94.22324    -80.7 1.928e+04 7.883e-09
 94.24148    -84.4 1.855e+04 5.438e-09
 94.25158    -84.0 1.902e+04 6.660e-09
 94.25865    -87.5 1.766e+04 4.854e-09
 94.26879    -89.0 1.711e+04 4.201e-09
 94.27598    -90.8 1.641e+04 3.628e-09
 94.28105    -92.1 1.622e+04 3.872e-09
 94.28558    -93.0 1.607e+04 3.676e-09
 94.29066    -92.7 1.646e+04 4.122e-09
 94.29923    -94.1 1.636e+04 3.812e-09
 94.30937    -95.9 1.649e+04 3.669e-09
 94.31969    -99.8 1.711e+04 3.721e-09
 94.32983   -101.0 1.874e+04 4.385e-09
 94.33981   -106.0 2.155e+04 5.205e-09
 94.34995   -109.2 2.354e+04 6.801e-09
 94.35877   -113.3 2.447e+04 1.002e-08
 94.36384   -115.8 2.624e+04 1.946e-08
 94.37024   -118.3 2.559e+04 2.658e-08
 94.38039   -120.4 2.493e+04 3.421e-08
 94.39053   -122.2 2.466e+04 4.055e-08
 94.39789   -124.0 2.474e+04 4.638e-08
 94.40115   -125.7 2.482e+04 4.412e-08
 94.40394   -127.9 2.475e+04 3.146e-08
 94.41082   -130.0 2.535e+04 2.252e-08
 94.42097   -132.9 2.615e+04 1.415e-08
 94.43111   -136.8 2.664e+04 8.133e-09
 94.43702   -142.0 2.563e+04 4.820e-09
 94.44209   -149.1 1.896e+04 2.091e-09
 94.45140   -152.3 1.719e+04 1.871e-09
 94.46155   -153.6 1.663e+04 1.796e-09
 94.47108   -154.2 1.641e+04 1.716e-09
 94.47615   -157.4 1.393e+04 1.067e-09
 94.48184   -158.1 1.310e+04 1.075e-09
 94.49198   -158.3 1.278e+04 1.089e-09
 94.50213   -158.4 1.253e+04 1.117e-09
 94.51020   -158.3 1.243e+04 1.150e-09
 94.51528   -158.5 1.237e+04 1.117e-09
 94.52175   -158.0 1.221e+04 1.162e-09
 94.53194   -156.7 1.214e+04 1.083e-09
 94.54436   -155.7 1.200e+04 1.103e-09
 94.55450   -155.8 1.096e+04 7.008e-10
 94.56817   -154.6 1.091e+04 7.057e-10
 94.58846   -153.3 1.064e+04 6.896e-10
 94.60875   -151.9 1.051e+04 6.249e-10
 94.62261   -150.6 1.044e+04 5.658e-10
 94.63276   -150.8 1.007e+04 3.975e-10
 94.64933   -149.7 9.995e+03 3.654e-10
 94.66962   -148.8 1.002e+04 3.484e-10
 94.68991   -147.9 1.013e+04 3.440e-10
 94.70087   -147.2 1.023e+04 3.562e-10
 94.71101   -147.2 9.730e+03 2.995e-10
 94.73049   -146.6 9.860e+03 3.147e-10
 94.75078   -146.1 1.003e+04 3.540e-10
 94.76762   -145.5 1.019e+04 4.073e-10
 94.77568   -144.8 9.970e+03 3.675e-10
 94.77912   -144.4 9.913e+03 3.642e-10
 94.79136   -143.6 1.009e+04 4.201e-10
 94.81164   -142.7 1.025e+04 4.746e-10
 94.83193   -141.8 1.037e+04 5.162e-10
 94.84723   -140.8 1.041e+04 5.392e-10
 94.85738   -140.3 1.045e+04 5.483e-10
 94.87251   -139.4 1.045e+04 5.523e-10
 94.89280   -138.4 1.042e+04 5.481e-10
 94.91309   -137.3 1.032e+04 5.268e-10
 94.92549   -136.2 1.021e+04 5.063e-10
 94.93563   -135.9 1.030e+04 5.079e-10
 94.95367   -134.8 1.018e+04 4.784e-10
 94.97396   -133.7 1.011e+04 4.570e-10
 94.99360   -132.6 1.008e+04 4.461e-10
 95.00374   -132.9 1.075e+04 5.076e-10
 95.01339   -131.9 1.070e+04 5.003e-10
 95.02354   -131.5 1.078e+04 4.653e-10
 95.03483   -130.6 1.076e+04 4.613e-10
 95.05512   -129.8 1.087e+04 4.742e-10
 95.07185   -129.1 1.101e+04 5.299e-10
 95.08200   -131.1 1.390e+04 1.402e-09
 95.09570   -130.1 1.374e+04 1.606e-09
 95.11599   -129.0 1.363e+04 1.837e-09
 95.13628   -128.0 1.361e+04 2.089e-09
 95.15011   -126.9 1.365e+04 2.362e-09
 95.16025   -127.6 1.578e+04 5.400e-09
 95.17686   -126.5 1.584e+04 5.591e-09
 95.19715   -125.5 1.588e+04 5.736e-09
 95.21744   -124.7 1.588e+04 5.880e-09
 95.22836   -124.2 1.584e+04 6.131e-09
 95.23851   -124.1 1.543e+04 5.659e-09
 95.25802   -123.5 1.524e+04 5.998e-09
 95.26931   -123.0 1.535e+04 6.573e-09
 95.27945   -122.3 1.500e+04 5.685e-09
 95.29647   -121.8 1.508e+04 6.121e-09
 95.30662   -121.9 1.466e+04 4.225e-09
 95.31889   -121.3 1.486e+04 4.542e-09
 95.33918   -120.7 1.500e+04 4.792e-09
 95.35947   -120.1 1.506e+04 4.922e-09
 95.37473   -119.4 1.507e+04 4.961e-09
 95.38487   -120.2 1.454e+04 2.953e-09
 95.40005   -119.4 1.437e+04 2.956e-09
 95.42034   -118.7 1.411e+04 2.809e-09
 95.44063   -117.9 1.385e+04 2.502e-09
 95.45298   -117.2 1.349e+04 2.105e-09
 95.46313   -118.1 1.242e+04 1.716e-09
 95.48121   -117.3 1.221e+04 1.523e-09
 95.50150   -116.6 1.199e+04 1.298e-09
 95.51508   -116.0 1.173e+04 1.070e-09
 95.52452   -115.5 1.173e+04 1.121e-09
 95.53124   -115.8 1.171e+04 1.198e-09
 95.54208   -115.3 1.140e+04 9.869e-10
 95.56237   -114.7 1.109e+04 8.130e-10
 95.58266   -114.0 1.083e+04 6.840e-10
 95.59934   -113.3 1.063e+04 5.935e-10
 95.60949   -113.2 1.072e+04 6.986e-10
 95.62324   -112.5 1.055e+04 6.234e-10
 95.64353   -111.6 1.043e+04 5.710e-10
 95.66382   -110.6 1.034e+04 5.348e-10
 95.67760   -109.7 1.027e+04 5.075e-10
 95.68774   -109.8 1.029e+04 5.808e-10
 95.70440   -108.8 1.020e+04 5.516e-10
 95.72469   -107.8 1.016e+04 5.305e-10
 95.74498   -106.9 1.016e+04 5.218e-10
 95.75585   -106.1 1.019e+04 5.213e-10
 95.76158   -106.2 1.027e+04 5.591e-10
 95.77100   -105.7 1.008e+04 4.915e-10
 95.78556   -104.8 1.009e+04 4.883e-10
 95.80585   -104.1 1.011e+04 4.887e-10
 95.82396   -103.2 1.013e+04 4.911e-10
 95.83411   -103.3 1.015e+04 4.983e-10
 95.84643   -102.6 1.015e+04 5.003e-10
 95.86672   -101.7 1.016e+04 5.021e-10
 95.88701   -100.9 1.014e+04 5.019e-10
 95.90222   -100.0 1.009e+04 4.971e-10
 95.92261    -99.4 1.003e+04 4.652e-10
 95.95822    -97.9 9.922e+03 4.439e-10
 95.99880    -96.6 9.771e+03 3.998e-10
 96.03864    -95.1 9.546e+03 3.436e-10
 96.05893    -94.9 9.267e+03 2.956e-10
 96.07996    -93.1 9.106e+03 2.548e-10
 96.12054    -91.4 8.988e+03 2.282e-10
 96.16112    -89.7 8.949e+03 2.138e-10
 96.19515    -88.1 8.949e+03 2.099e-10
 96.21543    -88.1 8.848e+03 1.905e-10
 96.24228    -86.8 8.956e+03 2.042e-10
 96.28286    -85.9 9.179e+03 2.321e-10
 96.32344    -85.0 9.432e+03 2.949e-10
 96.35165    -84.1 9.767e+03 3.835e-10
 96.37194    -84.8 1.013e+04 4.954e-10
 96.40460    -83.9 1.015e+04 5.220e-10
 96.44518    -83.2 1.006e+04 5.163e-10
 96.47552    -82.5 9.969e+03 4.862e-10
 96.49571    -82.4 9.962e+03 4.864e-10
 96.50797    -82.1 1.000e+04 4.947e-10
 96.51043    -82.2 9.971e+03 4.621e-10
 96.51846    -82.0 9.916e+03 4.362e-10
 96.53629    -81.8 1.004e+04 4.515e-10
 96.55658    -81.7 1.014e+04 4.898e-10
 96.57608    -81.4 1.025e+04 5.490e-10
 96.58622    -81.5 1.028e+04 5.236e-10
 96.59716    -81.3 1.048e+04 6.056e-10
 96.61745    -81.3 1.080e+04 7.163e-10
 96.63774    -81.5 1.121e+04 8.650e-10
 96.65433    -81.9 1.158e+04 1.050e-09
 96.66448    -82.2 1.172e+04 1.073e-09
 96.67832    -82.4 1.202e+04 1.314e-09
 96.69861    -82.4 1.211e+04 1.507e-09
 96.71890    -82.1 1.209e+04 1.576e-09
 96.73259    -81.5 1.189e+04 1.464e-09
 96.74273    -81.6 1.215e+04 1.702e-09
 96.75408    -80.8 1.187e+04 1.409e-09
 96.76423    -80.3 1.201e+04 1.636e-09
 96.77977    -79.4 1.178e+04 1.312e-09
 96.80006    -79.0 1.156e+04 8.295e-10
 96.81084    -79.2 1.114e+04 4.609e-10
 96.82099    -79.0 1.146e+04 8.427e-10
 96.85088    -78.8 1.125e+04 6.818e-10
 96.89156    -78.7 1.073e+04 4.268e-10
 96.93214    -78.0 1.031e+04 2.730e-10
 96.95740    -77.5 1.027e+04 2.216e-10
 96.96745    -78.8 1.070e+04 5.634e-10
 96.98267    -78.4 1.081e+04 6.275e-10
 96.99985    -78.1 1.092e+04 6.633e-10
 97.01000    -77.5 1.114e+04 8.053e-10
 97.02325    -77.5 1.122e+04 8.529e-10
 97.03546    -77.2 1.146e+04 9.928e-10
 97.04561    -77.2 1.151e+04 1.024e-09
 97.06383    -77.1 1.169e+04 1.136e-09
 97.08412    -76.8 1.211e+04 1.490e-09
 97.10357    -76.8 1.221e+04 1.597e-09
 97.11372    -76.4 1.238e+04 1.770e-09
 97.12470    -76.4 1.282e+04 2.080e-09
 97.14499    -76.8 1.304e+04 2.359e-09
 97.16528    -77.1 1.311e+04 2.529e-09
 97.18183    -77.5 1.310e+04 2.546e-09
 97.19197    -77.1 1.290e+04 2.267e-09
 97.20586    -77.6 1.286e+04 2.290e-09
 97.22615    -78.1 1.280e+04 2.359e-09
 97.24563    -78.5 1.280e+04 2.417e-09
 97.25577    -78.2 1.265e+04 2.230e-09
 97.26008    -78.4 1.261e+04 2.257e-09
 97.27023    -78.3 1.247e+04 1.840e-09
 97.28702    -78.4 1.240e+04 1.926e-09
 97.30731    -78.4 1.235e+04 1.886e-09
 97.32760    -78.3 1.233e+04 1.647e-09
 97.33834    -78.2 1.235e+04 1.289e-09
 97.34848    -78.5 1.223e+04 1.552e-09
 97.36818    -78.4 1.220e+04 1.217e-09
 97.38847    -79.1 1.203e+04 9.042e-10
 97.40645    -80.1 1.163e+04 7.032e-10
 97.41659    -79.5 1.184e+04 8.193e-10
 97.42905    -80.8 1.146e+04 6.930e-10
 97.44934    -81.9 1.130e+04 6.665e-10
 97.46963    -82.7 1.121e+04 6.761e-10
 97.50016    -83.1 1.119e+04 7.528e-10
 97.54084    -83.3 1.141e+04 9.277e-10
 97.56315    -83.4 1.171e+04 1.141e-09
 97.58344    -84.8 1.124e+04 9.106e-10
 97.62200    -84.6 1.123e+04 9.225e-10
 97.66258    -83.9 1.103e+04 8.382e-10
 97.69937    -83.0 1.074e+04 6.764e-10
 97.71966    -83.7 1.018e+04 4.839e-10
 97.73736    -82.6 1.009e+04 4.377e-10
 97.75765    -82.1 9.975e+03 3.830e-10
 97.78432    -80.7 1.004e+04 4.086e-10
 97.82490    -79.2 1.018e+04 4.340e-10
 97.85588    -77.7 1.025e+04 4.408e-10
 97.87617    -77.9 1.012e+04 4.187e-10
 97.90606    -76.7 1.021e+04 4.292e-10
 97.94664    -75.8 1.043e+04 4.590e-10
 97.98722    -75.6 1.104e+04 5.552e-10
 98.01230    -76.5 1.224e+04 8.042e-10
 98.02234    -80.6 1.315e+04 1.336e-09
 98.03775    -84.9 1.517e+04 2.743e-09
 98.05804    -87.6 1.635e+04 5.933e-09
 98.07833    -88.5 1.706e+04 1.021e-08
 98.09045    -88.7 1.759e+04 1.278e-08
 98.10060    -89.1 1.727e+04 1.120e-08
 98.11891    -89.3 1.708e+04 9.146e-09
 98.13920    -90.1 1.617e+04 4.602e-09
 98.15856    -93.8 1.430e+04 1.880e-09
 98.16871    -97.0 1.204e+04 8.612e-10
 98.17978    -99.5 1.069e+04 5.256e-10
 98.20007   -100.0 1.028e+04 4.437e-10
 98.22036   -100.0 1.014e+04 4.098e-10
 98.23682    -99.5 9.976e+03 3.736e-10
 98.24518    -99.9 9.729e+03 3.066e-10
 98.24900    -99.5 9.747e+03 2.962e-10
 98.27118    -98.6 9.809e+03 3.171e-10
 98.30512    -97.6 9.709e+03 3.119e-10
 98.32541    -97.3 9.216e+03 2.186e-10
 98.35244    -95.9 9.113e+03 2.314e-10
 98.39302    -94.5 9.127e+03 2.468e-10
 98.43360    -93.0 9.165e+03 2.661e-10
 98.46163    -91.5 9.244e+03 2.912e-10
 98.48192    -91.4 9.216e+03 2.963e-10
 98.51476    -89.9 9.467e+03 3.792e-10
 98.55534    -88.5 9.728e+03 4.794e-10
 98.58567    -87.2 9.914e+03 5.679e-10
 98.60586    -87.1 9.927e+03 5.904e-10
 98.61795    -86.3 9.984e+03 6.473e-10
 98.62809    -86.0 1.018e+04 6.959e-10
 98.64644    -85.5 1.011e+04 6.961e-10
 98.66673    -84.7 9.980e+03 6.802e-10
 98.68606    -83.8 9.795e+03 6.353e-10
 98.69620    -83.5 9.610e+03 5.836e-10
 98.70731    -82.6 9.474e+03 5.302e-10
 98.72760    -81.9 9.347e+03 4.845e-10
 98.74055    -81.0 9.237e+03 4.436e-10
 98.75706    -80.4 9.266e+03 4.483e-10
 98.77465    -80.7 9.138e+03 3.885e-10
 98.79881    -79.0 8.908e+03 3.386e-10
 98.83939    -77.1 8.689e+03 2.958e-10
 98.87997    -75.2 8.521e+03 2.633e-10
 98.91087    -73.3 8.457e+03 2.478e-10
 98.93116    -72.8 8.282e+03 2.287e-10
 98.96113    -70.9 8.284e+03 2.272e-10
 99.00171    -69.0 8.383e+03 2.342e-10
 99.04229    -67.1 8.542e+03 2.604e-10
 99.06738    -65.2 8.674e+03 2.922e-10
 99.08767    -64.6 8.747e+03 3.266e-10
 99.12345    -62.6 8.816e+03 3.474e-10
 99.16403    -60.4 8.809e+03 3.498e-10
 99.20360    -58.0 8.651e+03 3.258e-10
 99.22389    -57.1 8.729e+03 3.515e-10
 99.23228    -54.6 8.416e+03 2.749e-10
 99.25257    -54.8 8.701e+03 3.399e-10
 99.28577    -52.4 8.413e+03 2.684e-10
 99.32635    -50.1 8.118e+03 2.012e-10
 99.36011    -47.9 7.845e+03 1.483e-10
 99.38040    -47.8 7.676e+03 1.316e-10
 99.40751    -45.8 7.464e+03 1.084e-10
 99.44809    -43.7 7.352e+03 9.862e-11
 99.48867    -41.4 7.342e+03 1.072e-10
 99.51662    -38.9 7.482e+03 1.189e-10
 99.53691    -38.9 7.385e+03 1.067e-10
 99.56983    -37.0 7.551e+03 1.134e-10
 99.61041    -35.5 7.888e+03 1.286e-10
 99.65099    -34.5 8.325e+03 1.682e-10
 99.67313    -33.6 8.711e+03 2.553e-10
 99.69342    -33.8 8.532e+03 2.479e-10
 99.72191    -32.9 8.974e+03 3.339e-10
 99.73378    -33.3 9.043e+03 3.642e-10
 99.74287    -33.4 9.101e+03 3.623e-10
 99.75119    -33.4 9.026e+03 3.436e-10
 99.76239    -33.6 9.793e+03 4.505e-10
 99.78268    -35.7 1.029e+04 6.021e-10
 99.80297    -37.5 1.100e+04 8.874e-10
 99.81930    -39.9 1.220e+04 1.428e-09
 99.82945    -40.0 1.219e+04 1.466e-09
 99.84355    -41.9 1.326e+04 2.185e-09
 99.86384    -44.2 1.413e+04 3.178e-09
 99.87901    -44.8 1.418e+04 3.668e-09
 99.88911    -45.1 1.427e+04 3.880e-09
 99.89746    -46.5 1.474e+04 4.953e-09
 99.90253    -45.3 1.414e+04 3.902e-09
 99.90940    -47.2 1.575e+04 5.388e-09
 99.91954    -49.8 1.845e+04 9.045e-09
 99.92969    -52.2 2.090e+04 1.478e-08
 99.93659    -54.0 2.231e+04 2.175e-08
 99.94166    -54.1 2.189e+04 2.022e-08
 99.94998    -55.7 2.242e+04 2.801e-08
 99.96012    -56.7 2.248e+04 3.287e-08
 99.97027    -57.8 2.248e+04 3.266e-08
 99.97571    -58.6 2.232e+04 3.183e-08
 99.97983    -57.5 2.192e+04 3.849e-08
 99.98452    -56.5 2.226e+04 3.949e-08
 99.99056    -57.2 2.233e+04 4.160e-08
100.00070    -57.8 2.225e+04 3.948e-08
