# Columns:
#   distance along LOS (in CHIMPs)
#   peculiar velocity  (in km/s)
#   temperature (K)
#   HI number density
# pos=(13.8435,57.573,135.97), angles=(0.107555,2.71953)
  0.00257    188.0 1.125e+04 6.255e-10
  0.02479    186.5 1.130e+04 6.270e-10
  0.05416    185.4 1.125e+04 6.149e-10
  0.07371    184.7 1.116e+04 5.879e-10
  0.09335    184.2 1.103e+04 5.466e-10
  0.11300    184.0 1.087e+04 4.972e-10
  0.13264    183.8 1.071e+04 4.522e-10
  0.14593    183.7 1.069e+04 4.358e-10
  0.15575    183.4 1.091e+04 4.931e-10
  0.17193    183.2 1.097e+04 5.017e-10
  0.18333    182.6 1.126e+04 5.505e-10
  0.19315    183.4 1.099e+04 4.948e-10
  0.21122    182.6 1.149e+04 6.070e-10
  0.23087    181.5 1.222e+04 8.760e-10
  0.25051    180.7 1.293e+04 1.373e-09
  0.27016    180.6 1.357e+04 2.151e-09
  0.28980    180.8 1.406e+04 3.100e-09
  0.30945    181.3 1.448e+04 3.988e-09
  0.32909    181.9 1.472e+04 4.544e-09
  0.34388    182.4 1.468e+04 4.517e-09
  0.35370    181.9 1.470e+04 4.675e-09
  0.36838    182.6 1.426e+04 3.932e-09
  0.38803    183.3 1.371e+04 3.035e-09
  0.40767    183.9 1.312e+04 2.260e-09
  0.42732    184.1 1.256e+04 1.715e-09
  0.44696    184.5 1.213e+04 1.397e-09
  0.46661    185.3 1.191e+04 1.252e-09
  0.48625    186.3 1.188e+04 1.248e-09
  0.50589    187.5 1.190e+04 1.258e-09
  0.52554    189.0 1.198e+04 1.299e-09
  0.54183    190.5 1.213e+04 1.385e-09
  0.55165    190.0 1.229e+04 1.412e-09
  0.56483    191.2 1.273e+04 1.624e-09
  0.58447    192.4 1.319e+04 1.935e-09
  0.60412    193.6 1.365e+04 2.327e-09
  0.62150    194.9 1.412e+04 2.786e-09
  0.63132    195.0 1.397e+04 2.632e-09
  0.64341    196.2 1.443e+04 3.151e-09
  0.66305    197.4 1.487e+04 3.717e-09
  0.68270    198.6 1.528e+04 4.320e-09
  0.70234    199.8 1.565e+04 4.980e-09
  0.72199    201.1 1.607e+04 5.729e-09
  0.73977    202.5 1.636e+04 6.319e-09
  0.74955    202.1 1.661e+04 6.801e-09
  0.75627    202.6 1.681e+04 7.164e-09
  0.76609    203.0 1.714e+04 7.715e-09
  0.77591    203.3 1.758e+04 8.479e-09
  0.78573    203.6 1.810e+04 9.470e-09
  0.79556    203.8 1.865e+04 1.070e-08
  0.80538    204.0 1.921e+04 1.214e-08
  0.81520    204.1 1.972e+04 1.378e-08
  0.82502    204.2 2.015e+04 1.559e-08
  0.83485    204.3 2.047e+04 1.753e-08
  0.84356    204.5 2.075e+04 1.965e-08
  0.84847    203.4 2.057e+04 1.940e-08
  0.85031    203.7 2.053e+04 2.074e-08
  0.85522    204.4 2.172e+04 1.669e-08
  0.86431    204.7 2.187e+04 1.765e-08
  0.87414    204.9 2.195e+04 1.847e-08
  0.88396    205.0 2.195e+04 1.846e-08
  0.89378    205.1 2.193e+04 1.807e-08
  0.90360    205.2 2.166e+04 1.719e-08
  0.91343    205.2 2.122e+04 1.569e-08
  0.92325    205.1 2.077e+04 1.338e-08
  0.93307    204.9 2.023e+04 1.067e-08
  0.94253    204.6 1.935e+04 8.054e-09
  0.94744    202.2 1.654e+04 4.865e-09
  0.95272    201.7 1.601e+04 3.726e-09
  0.96254    201.3 1.554e+04 2.868e-09
  0.97732    200.5 1.497e+04 2.052e-09
  0.99701    199.5 1.446e+04 1.472e-09
  1.01666    198.3 1.421e+04 1.370e-09
  1.03630    197.1 1.429e+04 1.432e-09
  1.05595    195.8 1.494e+04 1.743e-09
  1.06949    195.0 1.584e+04 2.356e-09
  1.07436    192.5 1.612e+04 2.554e-09
  1.08041    192.4 1.671e+04 2.919e-09
  1.09023    191.6 1.815e+04 3.850e-09
  1.10005    189.8 1.980e+04 6.088e-09
  1.10987    187.8 2.073e+04 1.066e-08
  1.11970    186.5 2.083e+04 1.945e-08
  1.12952    186.3 2.081e+04 3.589e-08
  1.13934    186.3 2.097e+04 6.299e-08
  1.14539    186.2 2.138e+04 9.008e-08
  1.15030    186.9 2.149e+04 1.006e-07
  1.15899    186.0 2.164e+04 1.014e-07
  1.16881    184.9 2.158e+04 9.393e-08
  1.17863    184.3 2.126e+04 7.076e-08
  1.18845    184.3 2.077e+04 4.132e-08
  1.19827    184.0 2.018e+04 2.130e-08
  1.21306    183.6 1.851e+04 4.921e-09
  1.23275    179.2 1.419e+04 9.288e-10
  1.25240    175.4 1.240e+04 6.415e-10
  1.27204    175.0 1.179e+04 5.805e-10
  1.29169    175.7 1.152e+04 5.469e-10
  1.31133    177.5 1.136e+04 5.228e-10
  1.33097    179.7 1.127e+04 5.079e-10
  1.34344    181.6 1.125e+04 4.965e-10
  1.35326    181.5 1.113e+04 3.398e-10
  1.37026    183.2 1.112e+04 3.322e-10
  1.38991    184.8 1.111e+04 3.202e-10
  1.40955    186.3 1.111e+04 3.103e-10
  1.42920    187.7 1.113e+04 3.089e-10
  1.44884    189.1 1.112e+04 3.088e-10
  1.47841    191.4 1.128e+04 3.840e-10
  1.50786    194.2 1.110e+04 3.546e-10
  1.52750    193.8 1.040e+04 2.259e-10
  1.55708    196.6 1.036e+04 2.344e-10
  1.59637    199.2 1.039e+04 2.483e-10
  1.63566    201.8 1.047e+04 2.703e-10
  1.67495    204.2 1.059e+04 2.984e-10
  1.71424    206.4 1.072e+04 3.305e-10
  1.73952    208.4 1.084e+04 3.660e-10
  1.75917    208.3 1.084e+04 3.615e-10
  1.79282    210.0 1.106e+04 4.409e-10
  1.83211    211.3 1.129e+04 5.336e-10
  1.87140    211.8 1.145e+04 6.083e-10
  1.91069    211.7 1.152e+04 6.434e-10
  1.94998    211.4 1.160e+04 6.523e-10
  1.98927    210.9 1.180e+04 6.607e-10
  2.01864    209.8 1.196e+04 6.737e-10
  2.03819    208.6 1.210e+04 6.884e-10
  2.05783    206.9 1.211e+04 6.812e-10
  2.07748    205.3 1.206e+04 6.647e-10
  2.09712    203.8 1.188e+04 6.292e-10
  2.11677    202.7 1.163e+04 5.701e-10
  2.13522    201.4 1.142e+04 4.712e-10
  2.15497    199.4 1.109e+04 3.300e-10
  2.18572    198.9 1.087e+04 2.748e-10
  2.22501    198.4 1.097e+04 2.624e-10
  2.26430    197.7 1.100e+04 2.696e-10
  2.30359    196.8 1.106e+04 2.942e-10
  2.34288    195.3 1.120e+04 3.748e-10
  2.38217    193.5 1.149e+04 5.353e-10
  2.40384    191.8 1.163e+04 6.488e-10
  2.42349    193.5 1.146e+04 5.711e-10
  2.46074    191.9 1.146e+04 5.850e-10
  2.50003    190.8 1.135e+04 5.520e-10
  2.53131    190.2 1.108e+04 4.629e-10
  2.55096    189.4 1.095e+04 4.041e-10
  2.57861    189.5 1.068e+04 3.478e-10
  2.61790    189.7 1.061e+04 3.369e-10
  2.65719    190.4 1.062e+04 3.396e-10
  2.69648    191.3 1.065e+04 3.465e-10
  2.73577    192.3 1.067e+04 3.487e-10
  2.77506    193.4 1.065e+04 3.436e-10
  2.81435    194.6 1.058e+04 3.338e-10
  2.85364    196.0 1.050e+04 3.173e-10
  2.89293    197.5 1.041e+04 2.958e-10
  2.92721    199.0 1.032e+04 2.742e-10
  2.94685    199.1 1.022e+04 2.331e-10
  2.97151    200.8 1.012e+04 2.135e-10
  3.01080    202.7 1.003e+04 1.965e-10
  3.05009    204.7 9.956e+03 1.816e-10
  3.08938    206.7 9.945e+03 1.714e-10
  3.12867    208.8 9.963e+03 1.698e-10
  3.16796    210.9 9.990e+03 1.705e-10
  3.20725    212.9 1.007e+04 1.752e-10
  3.24653    214.6 1.015e+04 1.846e-10
  3.28018    216.2 1.022e+04 1.949e-10
  3.29983    216.1 1.041e+04 2.558e-10
  3.32310    217.7 1.041e+04 2.683e-10
  3.34275    218.0 1.053e+04 2.698e-10
  3.36440    219.7 1.061e+04 2.889e-10
  3.40369    221.2 1.067e+04 3.058e-10
  3.44298    222.8 1.073e+04 3.245e-10
  3.47235    223.0 1.071e+04 3.278e-10
  3.49190    223.4 1.070e+04 3.286e-10
  3.51154    223.8 1.072e+04 3.396e-10
  3.53067    224.2 1.078e+04 3.668e-10
  3.54050    224.3 1.083e+04 3.818e-10
  3.55083    224.8 1.092e+04 4.282e-10
  3.57048    225.3 1.103e+04 4.738e-10
  3.59012    225.4 1.109e+04 4.910e-10
  3.60977    225.4 1.109e+04 4.891e-10
  3.62941    225.2 1.106e+04 4.693e-10
  3.64906    224.9 1.098e+04 4.282e-10
  3.66870    224.6 1.083e+04 3.782e-10
  3.68835    224.5 1.066e+04 3.365e-10
  3.71791    224.6 1.059e+04 3.189e-10
  3.73864    224.7 1.036e+04 3.033e-10
  3.75828    225.3 1.022e+04 2.909e-10
  3.79659    226.2 1.013e+04 2.884e-10
  3.83588    227.2 1.009e+04 2.872e-10
  3.87517    228.2 1.003e+04 2.829e-10
  3.91446    229.1 9.955e+03 2.751e-10
  3.95375    230.1 9.973e+03 2.696e-10
  3.99304    231.2 1.000e+04 2.724e-10
  4.03233    232.2 1.009e+04 2.838e-10
  4.07161    232.8 1.019e+04 3.021e-10
  4.11090    233.1 1.037e+04 3.396e-10
  4.13453    233.3 1.062e+04 4.040e-10
  4.14426    233.0 1.099e+04 5.106e-10
  4.15982    232.9 1.129e+04 5.998e-10
  4.17597    232.7 1.162e+04 7.165e-10
  4.18580    231.8 1.196e+04 9.603e-10
  4.19911    231.7 1.229e+04 1.210e-09
  4.21876    231.7 1.268e+04 1.555e-09
  4.23840    231.7 1.314e+04 2.053e-09
  4.25804    231.7 1.374e+04 2.779e-09
  4.27769    231.7 1.450e+04 3.884e-09
  4.29733    231.9 1.539e+04 5.523e-09
  4.31698    232.2 1.631e+04 7.619e-09
  4.33228    232.1 1.710e+04 9.296e-09
  4.34211    232.2 1.740e+04 1.012e-08
  4.35627    231.4 1.761e+04 1.027e-08
  4.37591    230.0 1.750e+04 9.846e-09
  4.39556    229.5 1.695e+04 8.185e-09
  4.41520    229.6 1.601e+04 5.832e-09
  4.43485    229.7 1.477e+04 3.720e-09
  4.45449    229.5 1.351e+04 2.371e-09
  4.47414    229.1 1.256e+04 1.657e-09
  4.49378    229.0 1.248e+04 1.476e-09
  4.51343    229.2 1.247e+04 1.420e-09
  4.53033    230.2 1.244e+04 1.384e-09
  4.54015    228.9 1.289e+04 1.708e-09
  4.55272    229.6 1.289e+04 1.699e-09
  4.57236    230.2 1.295e+04 1.744e-09
  4.59201    230.6 1.283e+04 1.614e-09
  4.62157    230.7 1.286e+04 1.537e-09
  4.66096    231.3 1.207e+04 9.815e-10
  4.70025    232.5 1.113e+04 5.612e-10
  4.73954    234.0 1.020e+04 3.233e-10
  4.77883    235.6 9.558e+03 2.179e-10
  4.81812    237.5 9.398e+03 1.917e-10
  4.85741    239.8 9.339e+03 1.871e-10
  4.89670    242.2 9.318e+03 1.854e-10
  4.92632    244.7 9.300e+03 1.823e-10
  4.94597    244.4 9.294e+03 1.845e-10
  4.97527    246.8 9.250e+03 1.761e-10
  5.01456    249.2 9.171e+03 1.598e-10
  5.05251    251.4 9.069e+03 1.365e-10
  5.07216    251.5 9.282e+03 1.830e-10
  5.09314    253.7 9.139e+03 1.530e-10
  5.13243    256.0 8.979e+03 1.213e-10
  5.17172    258.4 8.818e+03 9.367e-11
  5.21101    260.7 8.656e+03 7.295e-11
  5.25030    263.0 8.475e+03 6.049e-11
  5.28959    265.4 8.337e+03 5.735e-11
  5.32221    268.0 8.331e+03 5.728e-11
  5.34186    267.6 8.305e+03 5.435e-11
  5.36817    270.2 8.294e+03 5.533e-11
  5.40746    272.8 8.289e+03 5.909e-11
  5.44675    275.3 8.314e+03 6.688e-11
  5.48604    277.8 8.377e+03 8.096e-11
  5.52533    280.3 8.524e+03 1.035e-10
  5.56462    282.7 8.754e+03 1.365e-10
  5.60391    285.0 9.046e+03 1.816e-10
  5.64320    287.1 9.363e+03 2.369e-10
  5.68249    288.8 9.647e+03 2.923e-10
  5.71811    290.1 9.844e+03 3.270e-10
  5.73775    289.8 9.721e+03 2.835e-10
  5.76106    290.8 9.726e+03 2.818e-10
  5.80035    291.8 9.731e+03 2.777e-10
  5.83964    292.7 9.769e+03 2.738e-10
  5.87893    293.5 9.846e+03 2.778e-10
  5.91822    294.0 1.009e+04 3.005e-10
  5.94850    294.7 1.038e+04 3.427e-10
  5.96814    295.1 1.058e+04 4.089e-10
  5.99680    296.2 1.084e+04 4.698e-10
  6.02617    295.7 1.098e+04 5.053e-10
  6.04572    295.6 1.103e+04 5.545e-10
  6.06536    295.6 1.102e+04 5.906e-10
  6.08501    295.9 1.095e+04 6.097e-10
  6.10465    296.3 1.088e+04 6.193e-10
  6.12363    297.0 1.083e+04 6.341e-10
  6.13345    296.4 1.105e+04 7.964e-10
  6.14394    297.2 1.106e+04 8.029e-10
  6.16359    297.6 1.114e+04 8.463e-10
  6.18323    297.6 1.141e+04 9.618e-10
  6.20288    297.5 1.192e+04 1.188e-09
  6.22252    297.4 1.266e+04 1.591e-09
  6.24217    297.0 1.355e+04 2.201e-09
  6.26181    296.1 1.444e+04 2.907e-09
  6.28146    294.4 1.531e+04 3.291e-09
  6.30110    291.8 1.564e+04 3.264e-09
  6.32075    288.7 1.582e+04 3.051e-09
  6.33140    285.4 1.620e+04 2.259e-09
  6.34122    282.2 2.239e+04 2.808e-09
  6.36003    278.9 2.373e+04 2.451e-09
  6.37968    274.0 2.618e+04 2.457e-09
  6.39436    261.3 3.362e+04 4.577e-09
  6.40111    257.3 3.486e+04 6.762e-09
  6.40602    256.3 3.206e+04 2.396e-08
  6.41396    252.9 2.853e+04 5.809e-08
  6.42378    250.8 2.617e+04 8.381e-08
  6.43027    249.2 2.584e+04 8.246e-08
  6.43519    249.3 2.273e+04 2.814e-07
  6.44343    248.1 2.246e+04 2.585e-07
  6.45325    247.2 2.252e+04 1.846e-07
  6.46307    246.4 2.299e+04 1.050e-07
  6.47289    245.4 2.392e+04 5.250e-08
  6.48272    244.1 2.518e+04 2.766e-08
  6.49254    242.5 2.668e+04 1.812e-08
  6.50236    241.2 2.686e+04 1.396e-08
  6.51714    238.2 2.554e+04 1.187e-08
  6.52935    236.7 2.424e+04 8.517e-09
  6.53917    235.2 2.638e+04 3.499e-09
  6.55648    232.7 1.898e+04 2.771e-09
  6.57613    231.8 1.428e+04 2.289e-09
  6.59577    231.9 1.262e+04 1.896e-09
  6.61542    233.2 1.264e+04 1.640e-09
  6.63506    234.9 1.267e+04 1.530e-09
  6.65471    236.6 1.261e+04 1.448e-09
  6.67435    238.1 1.253e+04 1.349e-09
  6.69400    239.5 1.245e+04 1.232e-09
  6.71364    240.6 1.239e+04 1.115e-09
  6.72729    241.5 1.238e+04 1.013e-09
  6.73712    240.6 1.075e+04 6.024e-10
  6.75293    241.2 1.055e+04 5.271e-10
  6.77257    241.8 1.054e+04 4.769e-10
  6.79222    242.5 1.062e+04 4.653e-10
  6.81186    243.3 1.067e+04 4.647e-10
  6.83151    244.3 1.083e+04 4.759e-10
  6.84429    245.3 1.100e+04 5.269e-10
  6.85411    244.3 1.032e+04 3.883e-10
  6.87080    245.7 1.044e+04 4.571e-10
  6.89044    247.1 1.076e+04 5.552e-10
  6.91009    248.6 1.121e+04 6.719e-10
  6.92524    250.3 1.168e+04 8.023e-10
  6.93506    250.3 1.103e+04 5.972e-10
  6.94938    252.1 1.143e+04 7.011e-10
  6.96902    254.0 1.183e+04 8.025e-10
  6.98867    256.0 1.224e+04 9.023e-10
  7.00831    257.9 1.273e+04 1.019e-09
  7.02796    259.9 1.337e+04 1.186e-09
  7.04760    261.6 1.434e+04 1.465e-09
  7.06725    263.2 1.563e+04 1.936e-09
  7.08689    264.6 1.708e+04 2.674e-09
  7.10654    266.2 1.878e+04 3.756e-09
  7.12319    268.4 2.013e+04 4.844e-09
  7.13296    267.4 1.949e+04 4.247e-09
  7.14082    268.4 2.009e+04 4.748e-09
  7.15064    269.4 2.065e+04 5.234e-09
  7.16046    270.4 2.128e+04 5.791e-09
  7.17028    271.4 2.218e+04 6.557e-09
  7.18011    272.5 2.341e+04 7.512e-09
  7.18993    273.7 2.472e+04 8.610e-09
  7.19975    275.1 2.591e+04 9.790e-09
  7.20957    276.8 2.685e+04 1.084e-08
  7.21940    278.9 2.752e+04 1.148e-08
  7.22697    281.4 2.785e+04 1.149e-08
  7.23189    277.4 2.750e+04 1.183e-08
  7.23904    279.7 2.756e+04 1.163e-08
  7.24886    282.1 2.770e+04 1.103e-08
  7.25869    284.5 2.798e+04 1.000e-08
  7.26851    286.7 2.820e+04 8.730e-09
  7.27833    288.5 2.874e+04 7.123e-09
  7.28727    289.3 2.833e+04 5.755e-09
  7.29218    293.5 2.919e+04 4.435e-09
  7.29797    292.5 5.172e+04 2.199e-09
  7.30780    284.9 1.647e+05 3.588e-10
  7.31762    282.7 2.913e+05 1.340e-10
  7.32595    285.2 3.184e+05 1.054e-10
  7.33086    274.9 4.174e+04 1.095e-09
  7.33726    263.1 4.355e+04 8.001e-10
  7.34709    252.1 4.130e+04 6.398e-10
  7.35691    242.8 4.048e+04 5.602e-10
  7.36673    231.9 4.194e+04 5.370e-10
  7.37655    206.2 9.015e+04 3.130e-10
  7.38638     93.8 2.292e+05 4.226e-10
  7.39372     71.5 1.628e+05 1.656e-09
  7.39861     41.9 6.761e+04 5.211e-08
  7.40167     25.6 3.406e+04 7.250e-07
  7.40413      8.9 2.167e+04 2.698e-06
  7.40843     10.3 1.960e+04 2.194e-06
  7.41334     12.9 1.966e+04 1.343e-06
  7.41825     15.2 2.138e+04 8.681e-07
  7.42316     17.4 2.199e+04 7.853e-07
  7.42733     19.2 2.238e+04 7.618e-07
  7.42978     22.7 2.196e+04 7.683e-07
  7.43298     26.5 2.286e+04 6.548e-07
  7.43789     30.5 2.351e+04 6.084e-07
  7.44281     33.6 2.814e+04 4.109e-07
  7.44772     35.6 3.048e+04 3.618e-07
  7.45263     40.7 3.194e+04 3.438e-07
  7.45754     44.3 3.573e+04 2.461e-07
  7.46493     51.9 3.196e+04 3.881e-07
  7.47478     49.6 9.924e+04 2.690e-09
  7.48460     42.9 1.999e+05 1.204e-10
  7.49938     -6.1 9.595e+04 1.095e-10
  7.51908    -13.4 2.480e+04 2.834e-10
  7.53872    -10.0 2.874e+04 3.363e-10
  7.56829    -20.4 1.481e+04 3.308e-10
  7.60767    -13.5 1.112e+04 3.689e-10
  7.64696     -4.4 1.069e+04 3.378e-10
  7.68625      4.0 1.045e+04 3.003e-10
  7.71722     10.8 1.026e+04 2.652e-10
  7.73215     10.9 9.983e+03 2.372e-10
  7.74047     11.6 9.973e+03 2.434e-10
  7.76483     17.7 9.765e+03 2.290e-10
  7.80412     23.1 9.733e+03 2.309e-10
  7.84341     27.7 9.751e+03 2.427e-10
  7.88270     31.5 9.915e+03 2.829e-10
  7.92199     34.6 1.026e+04 3.667e-10
  7.96128     37.8 1.084e+04 5.116e-10
  7.99065     39.1 1.138e+04 6.698e-10
  8.01020     40.0 1.161e+04 7.486e-10
  8.02984     39.9 1.194e+04 8.599e-10
  8.04948     40.7 1.201e+04 9.233e-10
  8.06913     41.8 1.224e+04 1.009e-09
  8.08877     42.7 1.233e+04 1.074e-09
  8.10842     43.4 1.225e+04 1.059e-09
  8.12274     44.1 1.201e+04 1.017e-09
  8.13257     44.3 1.174e+04 8.964e-10
  8.14771     44.8 1.176e+04 9.142e-10
  8.16735     45.0 1.193e+04 9.955e-10
  8.17844     45.3 1.215e+04 1.122e-09
  8.18826     46.0 1.180e+04 9.916e-10
  8.20664     46.4 1.190e+04 1.072e-09
  8.22629     46.8 1.200e+04 1.157e-09
  8.24593     47.2 1.218e+04 1.267e-09
  8.26558     47.5 1.251e+04 1.421e-09
  8.28522     47.5 1.306e+04 1.629e-09
  8.30487     47.4 1.380e+04 1.938e-09
  8.32069     46.9 1.457e+04 2.364e-09
  8.33051     47.4 1.432e+04 2.351e-09
  8.34416     46.5 1.502e+04 2.784e-09
  8.36380     44.9 1.570e+04 3.434e-09
  8.38345     43.6 1.590e+04 4.145e-09
  8.40309     42.6 1.591e+04 4.794e-09
  8.42274     41.7 1.618e+04 5.341e-09
  8.44238     38.9 1.755e+04 6.779e-09
  8.46202     35.6 1.868e+04 8.312e-09
  8.48167     32.7 1.856e+04 8.317e-09
  8.50131     30.5 1.787e+04 7.103e-09
  8.51864     28.2 1.690e+04 5.192e-09
  8.52846     29.8 1.729e+04 6.459e-09
  8.54060     27.5 1.647e+04 4.434e-09
  8.56025     24.7 1.528e+04 2.993e-09
  8.57989     22.6 1.381e+04 2.177e-09
  8.59954     22.4 1.294e+04 1.806e-09
  8.61661     22.8 1.263e+04 1.558e-09
  8.62643     22.8 1.321e+04 1.583e-09
  8.63883     22.8 1.300e+04 1.423e-09
  8.66839     23.3 1.253e+04 1.037e-09
  8.70778     24.4 1.169e+04 6.689e-10
  8.73715     24.5 1.094e+04 4.157e-10
  8.75670     24.7 1.075e+04 3.544e-10
  8.77634     25.2 1.076e+04 3.580e-10
  8.79599     25.4 1.078e+04 3.617e-10
  8.81563     26.3 1.078e+04 3.816e-10
  8.83528     26.7 1.086e+04 3.998e-10
  8.85492     26.5 1.105e+04 4.451e-10
  8.87456     26.8 1.124e+04 4.891e-10
  8.89421     26.4 1.177e+04 6.085e-10
  8.91385     26.3 1.193e+04 7.247e-10
  8.92435     25.7 1.226e+04 9.179e-10
  8.93418     26.5 1.192e+04 7.869e-10
  8.95314     26.5 1.230e+04 9.857e-10
  8.97279     26.2 1.288e+04 1.272e-09
  8.99243     27.0 1.326e+04 1.560e-09
  9.02200     28.3 1.340e+04 1.659e-09
  9.06139     29.2 1.343e+04 1.712e-09
  9.10067     30.5 1.313e+04 1.469e-09
  9.13996     31.6 1.252e+04 1.012e-09
  9.17925     31.9 1.200e+04 7.903e-10
  9.21854     32.1 1.201e+04 8.211e-10
  9.25783     32.6 1.232e+04 1.024e-09
  9.29712     33.8 1.253e+04 1.241e-09
  9.32044     35.3 1.244e+04 1.184e-09
  9.34009     37.2 1.328e+04 1.751e-09
  9.37570     38.9 1.296e+04 1.518e-09
  9.41499     40.5 1.241e+04 1.042e-09
  9.45428     41.1 1.169e+04 6.127e-10
  9.49315     41.2 1.083e+04 3.753e-10
  9.51279     41.2 1.029e+04 2.725e-10
  9.53286     41.6 1.004e+04 2.681e-10
  9.57215     42.2 1.010e+04 3.051e-10
  9.61144     42.9 1.021e+04 3.645e-10
  9.65073     43.4 1.009e+04 3.566e-10
  9.69002     43.2 1.028e+04 3.669e-10
  9.71634     42.9 1.028e+04 3.413e-10
  9.72606     44.5 1.052e+04 4.033e-10
  9.73893     45.1 1.029e+04 3.517e-10
  9.76850     44.5 1.016e+04 2.989e-10
  9.80789     43.1 1.001e+04 2.900e-10
  9.83726     39.8 1.023e+04 3.226e-10
  9.85680     41.4 1.002e+04 3.309e-10
  9.88637     40.8 1.051e+04 4.635e-10
  9.92576     39.9 1.126e+04 7.244e-10
  9.96504     38.3 1.152e+04 7.715e-10
 10.00433     36.6 1.135e+04 6.999e-10
 10.04362     35.2 1.082e+04 5.691e-10
 10.08291     34.2 1.037e+04 4.907e-10
 10.11223     34.2 1.011e+04 4.485e-10
 10.13188     35.4 1.033e+04 5.066e-10
 10.16149     35.8 1.026e+04 5.029e-10
 10.20078     36.2 1.021e+04 4.713e-10
 10.24007     36.1 1.018e+04 4.169e-10
 10.27936     35.5 1.012e+04 3.837e-10
 10.31865     34.8 9.981e+03 3.785e-10
 10.35794     34.5 9.853e+03 3.699e-10
 10.38913     34.6 9.663e+03 3.410e-10
 10.40878     33.7 9.663e+03 3.236e-10
 10.43652     32.4 9.780e+03 3.154e-10
 10.47581     30.5 9.832e+03 3.052e-10
 10.50813     26.8 1.078e+04 4.907e-10
 10.52777     26.0 1.145e+04 7.517e-10
 10.55439     24.0 1.231e+04 1.248e-09
 10.59368     23.9 1.259e+04 1.408e-09
 10.63297     22.5 1.241e+04 1.263e-09
 10.67226     20.9 1.138e+04 8.029e-10
 10.71155     19.2 1.005e+04 4.276e-10
 10.75084     17.4 9.458e+03 2.885e-10
 10.79012     14.8 9.919e+03 3.504e-10
 10.82941     13.5 1.066e+04 5.591e-10
 10.86870     12.5 1.147e+04 7.948e-10
 10.90402      9.7 1.257e+04 1.100e-09
 10.92366      7.3 1.340e+04 1.658e-09
 10.94728      4.9 1.359e+04 1.908e-09
 10.98657      1.9 1.371e+04 1.954e-09
 11.01594     -0.2 1.248e+04 1.135e-09
 11.03549     -0.9 1.108e+04 7.304e-10
 11.05513     -3.0 1.176e+04 9.360e-10
 11.07478     -4.1 1.226e+04 1.077e-09
 11.09442     -5.4 1.261e+04 1.292e-09
 11.11159     -6.8 1.294e+04 1.494e-09
 11.12142     -8.9 1.296e+04 1.498e-09
 11.13371    -10.3 1.282e+04 1.645e-09
 11.15336    -11.0 1.289e+04 1.776e-09
 11.17300    -11.9 1.284e+04 1.784e-09
 11.19265    -12.4 1.293e+04 1.700e-09
 11.21229    -13.4 1.283e+04 1.446e-09
 11.23194    -15.8 1.274e+04 1.242e-09
 11.25158    -19.9 1.314e+04 1.213e-09
 11.27123    -24.8 1.454e+04 1.732e-09
 11.28492    -28.8 1.521e+04 2.631e-09
 11.29475    -29.0 1.587e+04 4.151e-09
 11.30954    -30.1 1.604e+04 5.296e-09
 11.31936    -32.8 1.701e+04 5.343e-09
 11.33016    -34.3 1.847e+04 6.940e-09
 11.34981    -36.3 1.899e+04 7.769e-09
 11.36945    -39.5 1.841e+04 7.414e-09
 11.38909    -41.1 1.738e+04 6.987e-09
 11.40874    -41.3 1.700e+04 6.865e-09
 11.42838    -40.7 1.665e+04 6.061e-09
 11.44803    -40.1 1.611e+04 4.724e-09
 11.46767    -40.0 1.572e+04 3.656e-09
 11.48732    -40.5 1.540e+04 3.002e-09
 11.50696    -41.4 1.503e+04 2.551e-09
 11.51731    -41.9 1.456e+04 2.247e-09
 11.52713    -44.7 1.427e+04 2.061e-09
 11.54625    -45.1 1.448e+04 2.248e-09
 11.56590    -45.4 1.525e+04 2.802e-09
 11.58554    -45.6 1.631e+04 3.721e-09
 11.60519    -46.2 1.776e+04 5.235e-09
 11.62483    -48.0 1.959e+04 7.774e-09
 11.64448    -51.0 2.131e+04 1.127e-08
 11.66412    -54.5 2.266e+04 1.495e-08
 11.68377    -58.0 2.325e+04 1.685e-08
 11.69845    -64.3 2.338e+04 1.080e-08
 11.70822    -64.9 2.342e+04 9.998e-09
 11.71516    -71.0 2.270e+04 6.393e-09
 11.72007    -76.6 2.107e+04 4.500e-09
 11.72787    -80.2 1.995e+04 3.827e-09
 11.74265    -86.5 1.788e+04 3.410e-09
 11.76235    -92.4 1.629e+04 3.327e-09
 11.78199    -96.6 1.562e+04 3.323e-09
 11.80163    -99.4 1.518e+04 3.107e-09
 11.82128   -101.7 1.487e+04 2.502e-09
 11.84092   -104.6 1.425e+04 1.815e-09
 11.86057   -108.3 1.336e+04 1.275e-09
 11.88021   -112.1 1.282e+04 1.014e-09
 11.89986   -116.4 1.282e+04 9.718e-10
 11.91320   -122.8 1.362e+04 1.008e-09
 11.92303   -127.8 1.533e+04 1.206e-09
 11.93915   -134.7 1.773e+04 2.615e-09
 11.95879   -139.6 1.893e+04 5.116e-09
 11.97844   -143.2 1.944e+04 7.322e-09
 11.99808   -146.5 1.951e+04 7.894e-09
 12.01773   -149.0 1.892e+04 7.216e-09
 12.03737   -150.9 1.754e+04 4.397e-09
 12.05702   -153.0 1.568e+04 2.144e-09
 12.07666   -155.6 1.337e+04 1.028e-09
 12.09631   -157.7 1.152e+04 5.586e-10
 12.11115   -158.6 1.081e+04 3.880e-10
 12.12097   -159.5 1.158e+04 5.637e-10
 12.13560   -159.6 1.118e+04 4.417e-10
 12.15524   -159.5 1.099e+04 3.791e-10
 12.17109   -159.0 1.097e+04 3.470e-10
 12.18091   -159.5 1.069e+04 3.115e-10
 12.20445   -159.8 1.066e+04 2.969e-10
 12.24384   -158.4 1.094e+04 2.698e-10
 12.27321   -156.7 1.138e+04 2.779e-10
 12.29275   -160.0 1.501e+04 2.940e-10
 12.30910   -165.9 2.579e+04 2.634e-10
 12.31892   -172.7 2.756e+04 1.340e-09
 12.32708   -176.2 2.486e+04 6.016e-09
 12.33686   -177.4 2.402e+04 1.132e-08
 12.34668   -178.4 2.315e+04 2.091e-08
 12.35650   -179.3 2.287e+04 3.713e-08
 12.36632   -180.2 2.298e+04 6.119e-08
 12.37615   -181.2 2.355e+04 9.413e-08
 12.38597   -182.5 2.446e+04 1.312e-07
 12.39499   -184.1 2.554e+04 1.664e-07
 12.39990   -181.8 2.380e+04 1.418e-07
 12.40561   -183.0 2.513e+04 1.918e-07
 12.41288   -185.7 2.666e+04 2.314e-07
 12.41780   -189.4 2.790e+04 2.136e-07
 12.42526   -195.9 3.084e+04 1.642e-07
 12.43508   -204.9 3.334e+04 9.021e-08
 12.44490   -215.4 3.252e+04 4.419e-08
 12.45473   -225.6 2.798e+04 2.345e-08
 12.46455   -234.1 2.382e+04 1.510e-08
 12.47437   -241.4 2.161e+04 1.114e-08
 12.48419   -248.1 2.072e+04 9.168e-09
 12.49402   -254.0 2.044e+04 8.614e-09
 12.50384   -259.0 2.038e+04 8.542e-09
 12.51186   -263.4 2.031e+04 9.288e-09
 12.51677   -262.1 1.995e+04 7.721e-09
 12.52348   -265.9 2.001e+04 9.158e-09
 12.53330   -269.0 2.009e+04 1.088e-08
 12.54313   -271.7 2.024e+04 1.255e-08
 12.55295   -274.2 2.042e+04 1.389e-08
 12.56277   -276.7 2.057e+04 1.468e-08
 12.57259   -279.0 2.073e+04 1.499e-08
 12.58242   -281.3 2.099e+04 1.501e-08
 12.59224   -283.7 2.132e+04 1.496e-08
 12.60206   -286.5 2.153e+04 1.489e-08
 12.61083   -289.5 2.166e+04 1.432e-08
 12.61574   -288.7 2.232e+04 1.798e-08
 12.61898   -292.0 2.239e+04 1.670e-08
 12.62389   -291.8 2.233e+04 1.619e-08
 12.63153   -294.9 2.183e+04 1.402e-08
 12.64135   -297.8 2.104e+04 1.186e-08
 12.65117   -300.0 2.028e+04 1.023e-08
 12.66596   -302.3 1.975e+04 9.162e-09
 12.68565   -304.8 1.936e+04 8.470e-09
 12.70499   -308.7 1.876e+04 7.603e-09
 12.71481   -309.4 1.900e+04 8.029e-09
 12.72494   -313.8 1.818e+04 6.867e-09
 12.74458   -317.1 1.746e+04 5.927e-09
 12.76423   -319.5 1.676e+04 4.966e-09
 12.78387   -321.4 1.603e+04 4.025e-09
 12.80352   -323.1 1.530e+04 3.213e-09
 12.82316   -325.0 1.464e+04 2.592e-09
 12.84281   -327.0 1.409e+04 2.160e-09
 12.86245   -329.0 1.365e+04 1.868e-09
 12.88210   -331.0 1.328e+04 1.652e-09
 12.90174   -332.7 1.295e+04 1.461e-09
 12.91276   -334.4 1.260e+04 1.272e-09
 12.92258   -335.7 1.224e+04 1.103e-09
 12.94103   -337.0 1.192e+04 9.485e-10
 12.96068   -338.3 1.158e+04 8.082e-10
 12.98032   -339.5 1.128e+04 6.950e-10
 12.99997   -340.6 1.104e+04 6.175e-10
 13.01961   -341.6 1.090e+04 5.763e-10
 13.03926   -342.5 1.086e+04 5.636e-10
 13.05725   -343.2 1.085e+04 5.612e-10
 13.06707   -342.7 1.087e+04 5.661e-10
 13.07854   -343.4 1.087e+04 5.664e-10
 13.09819   -344.1 1.091e+04 5.810e-10
 13.11071   -344.6 1.098e+04 6.041e-10
 13.12053   -345.6 1.112e+04 6.444e-10
 13.13748   -346.1 1.121e+04 6.713e-10
 13.15712   -346.6 1.127e+04 6.900e-10
 13.17677   -347.1 1.131e+04 6.995e-10
 13.19641   -347.6 1.134e+04 7.028e-10
 13.21606   -348.2 1.136e+04 7.040e-10
 13.23570   -348.9 1.141e+04 7.051e-10
 13.25535   -349.6 1.154e+04 7.164e-10
 13.27499   -350.5 1.173e+04 7.616e-10
 13.29464   -351.4 1.199e+04 8.602e-10
 13.30865   -352.5 1.235e+04 1.030e-09
 13.31848   -354.7 1.289e+04 1.274e-09
 13.33393   -356.5 1.340e+04 1.547e-09
 13.35357   -359.1 1.416e+04 1.915e-09
 13.37322   -362.5 1.528e+04 2.477e-09
 13.39286   -366.3 1.659e+04 3.423e-09
 13.41251   -370.4 1.770e+04 4.721e-09
 13.43215   -375.0 1.831e+04 6.146e-09
 13.45180   -379.9 1.824e+04 7.149e-09
 13.47144   -384.5 1.805e+04 7.397e-09
 13.49108   -388.0 1.715e+04 6.886e-09
 13.50524   -390.0 1.623e+04 5.578e-09
 13.51010   -389.3 1.671e+04 6.371e-09
 13.51142   -390.1 1.646e+04 5.670e-09
 13.51633   -390.7 1.604e+04 4.789e-09
 13.53033   -392.3 1.576e+04 4.081e-09
 13.55002   -394.9 1.512e+04 3.226e-09
 13.56966   -397.3 1.429e+04 2.457e-09
 13.58931   -398.8 1.359e+04 1.926e-09
 13.60895   -400.0 1.308e+04 1.579e-09
 13.62860   -401.0 1.278e+04 1.356e-09
 13.64824   -401.9 1.260e+04 1.210e-09
 13.66789   -402.8 1.252e+04 1.117e-09
 13.68753   -403.7 1.253e+04 1.074e-09
 13.70455   -404.6 1.255e+04 1.065e-09
 13.71437   -404.1 1.225e+04 9.414e-10
 13.72682   -404.9 1.241e+04 9.768e-10
 13.74647   -405.6 1.254e+04 1.040e-09
 13.76611   -406.1 1.260e+04 1.095e-09
 13.78576   -406.6 1.259e+04 1.121e-09
 13.80540   -406.8 1.257e+04 1.125e-09
 13.82505   -406.8 1.246e+04 1.113e-09
 13.84469   -406.7 1.232e+04 1.057e-09
 13.86434   -406.6 1.215e+04 9.635e-10
 13.88398   -406.3 1.196e+04 8.553e-10
 13.90250   -406.0 1.176e+04 7.491e-10
 13.91232   -405.6 1.187e+04 8.149e-10
 13.92327   -405.3 1.170e+04 7.220e-10
 13.94291   -405.1 1.155e+04 6.429e-10
 13.95323   -404.9 1.140e+04 5.741e-10
 13.96306   -404.9 1.132e+04 5.005e-10
 13.98220   -404.6 1.117e+04 4.417e-10
 14.00185   -403.8 1.104e+04 3.870e-10
 14.02149   -402.3 1.097e+04 3.448e-10
 14.04114   -400.3 1.097e+04 3.230e-10
 14.06078   -399.2 1.096e+04 3.210e-10
 14.09035   -398.4 1.102e+04 3.217e-10
 14.11046   -397.0 1.103e+04 3.258e-10
 14.13010   -397.4 1.086e+04 2.985e-10
 14.16902   -396.3 1.086e+04 2.959e-10
 14.20831   -395.4 1.092e+04 2.995e-10
 14.24760   -394.8 1.134e+04 3.215e-10
 14.27697   -395.3 1.163e+04 3.971e-10
 14.29652   -396.4 1.187e+04 5.419e-10
 14.30821   -397.1 1.215e+04 7.453e-10
 14.31803   -396.4 1.224e+04 7.113e-10
 14.33581   -397.2 1.256e+04 9.888e-10
 14.35545   -397.6 1.289e+04 1.248e-09
 14.37510   -398.0 1.311e+04 1.437e-09
 14.39141   -398.4 1.321e+04 1.517e-09
 14.40123   -398.1 1.358e+04 1.770e-09
 14.41439   -398.6 1.359e+04 1.781e-09
 14.43403   -399.1 1.352e+04 1.754e-09
 14.45368   -399.5 1.332e+04 1.584e-09
 14.47332   -399.8 1.304e+04 1.363e-09
 14.49297   -400.1 1.272e+04 1.162e-09
 14.50616   -400.4 1.246e+04 1.009e-09
 14.51598   -400.1 1.234e+04 9.702e-10
 14.53226   -400.4 1.213e+04 8.590e-10
 14.55190   -400.7 1.197e+04 7.860e-10
 14.57155   -400.9 1.184e+04 7.403e-10
 14.59119   -401.1 1.172e+04 7.137e-10
 14.61084   -401.2 1.162e+04 6.987e-10
 14.63048   -401.2 1.152e+04 6.884e-10
 14.65013   -401.1 1.142e+04 6.770e-10
 14.66977   -400.9 1.131e+04 6.603e-10
 14.68942   -400.6 1.122e+04 6.383e-10
 14.70411   -400.3 1.114e+04 6.115e-10
 14.71393   -400.2 1.099e+04 5.516e-10
 14.72871   -400.0 1.095e+04 5.337e-10
 14.74835   -399.7 1.093e+04 5.046e-10
 14.76799   -399.3 1.093e+04 4.620e-10
 14.78764   -398.9 1.095e+04 4.184e-10
 14.80728   -398.8 1.093e+04 3.899e-10
 14.82967   -399.1 1.086e+04 3.693e-10
 14.84942   -399.1 1.078e+04 3.536e-10
 14.87624   -398.9 1.056e+04 3.127e-10
 14.90225   -398.3 1.031e+04 2.750e-10
 14.92189   -397.9 1.035e+04 2.880e-10
 14.95482   -396.9 1.016e+04 2.602e-10
 14.99410   -395.9 1.008e+04 2.496e-10
 15.03339   -394.8 1.007e+04 2.482e-10
 15.07268   -393.8 1.008e+04 2.511e-10
 15.11197   -392.7 1.011e+04 2.570e-10
 15.15126   -391.6 1.015e+04 2.595e-10
 15.19055   -390.4 1.017e+04 2.590e-10
 15.22984   -389.2 1.015e+04 2.533e-10
 15.26913   -388.0 1.012e+04 2.433e-10
 15.29814   -386.8 1.008e+04 2.287e-10
 15.31779   -386.4 1.009e+04 2.284e-10
 15.34771   -385.2 1.003e+04 2.095e-10
 15.38700   -384.1 9.938e+03 1.871e-10
 15.42629   -383.0 9.815e+03 1.628e-10
 15.46558   -381.9 9.668e+03 1.416e-10
 15.50487   -380.9 9.520e+03 1.261e-10
 15.54416   -379.7 9.384e+03 1.169e-10
 15.58345   -378.5 9.266e+03 1.134e-10
 15.62274   -377.3 9.204e+03 1.127e-10
 15.66203   -375.9 9.187e+03 1.126e-10
 15.69404   -374.5 9.166e+03 1.134e-10
 15.71368   -373.5 9.160e+03 1.130e-10
 15.72576   -372.0 9.061e+03 1.203e-10
 15.74540   -371.4 9.144e+03 1.140e-10
 15.77990   -369.9 9.019e+03 1.207e-10
 15.81918   -368.4 8.925e+03 1.338e-10
 15.85847   -367.0 8.962e+03 1.569e-10
 15.89776   -365.9 9.256e+03 1.998e-10
 15.93705   -364.9 9.833e+03 2.752e-10
 15.97634   -364.4 1.075e+04 4.046e-10
 16.01563   -364.1 1.197e+04 6.449e-10
 16.04500   -364.5 1.249e+04 7.950e-10
 16.06455   -367.0 1.328e+04 1.200e-09
 16.08419   -369.6 1.389e+04 1.886e-09
 16.09956   -371.8 1.424e+04 2.624e-09
 16.10938   -370.2 1.398e+04 2.101e-09
 16.12348   -372.3 1.423e+04 2.811e-09
 16.14313   -373.7 1.436e+04 3.218e-09
 16.16277   -374.9 1.439e+04 3.319e-09
 16.17355   -375.8 1.437e+04 3.303e-09
 16.18338   -376.1 1.459e+04 3.523e-09
 16.20206   -376.8 1.428e+04 3.045e-09
 16.22171   -377.4 1.377e+04 2.475e-09
 16.24135   -378.1 1.337e+04 2.012e-09
 16.26100   -378.6 1.302e+04 1.707e-09
 16.28064   -379.1 1.277e+04 1.547e-09
 16.29750   -379.3 1.261e+04 1.496e-09
 16.30733   -378.2 1.252e+04 1.437e-09
 16.31993   -378.2 1.244e+04 1.421e-09
 16.33958   -378.2 1.241e+04 1.421e-09
 16.35922   -377.9 1.237e+04 1.426e-09
 16.37887   -377.5 1.234e+04 1.433e-09
 16.39851   -376.9 1.230e+04 1.430e-09
 16.41815   -376.4 1.227e+04 1.398e-09
 16.43780   -375.8 1.221e+04 1.339e-09
 16.45744   -375.2 1.212e+04 1.275e-09
 16.47709   -374.7 1.205e+04 1.225e-09
 16.49545   -374.1 1.197e+04 1.197e-09
 16.50527   -373.2 1.184e+04 1.127e-09
 16.51638   -372.7 1.176e+04 1.091e-09
 16.53602   -372.2 1.173e+04 1.077e-09
 16.55567   -371.8 1.174e+04 1.097e-09
 16.57531   -371.4 1.178e+04 1.140e-09
 16.59496   -371.0 1.183e+04 1.196e-09
 16.61172   -370.6 1.187e+04 1.254e-09
 16.62155   -371.1 1.203e+04 1.368e-09
 16.63425   -370.7 1.202e+04 1.396e-09
 16.65389   -370.2 1.201e+04 1.402e-09
 16.67354   -369.7 1.190e+04 1.386e-09
 16.69318   -369.0 1.175e+04 1.302e-09
 16.70322   -368.4 1.164e+04 1.184e-09
 16.71304   -367.8 1.146e+04 1.077e-09
 16.73247   -367.1 1.146e+04 1.010e-09
 16.75212   -366.6 1.154e+04 9.739e-10
 16.77176   -366.4 1.213e+04 9.419e-10
 16.79141   -366.2 1.268e+04 1.023e-09
 16.81105   -366.0 1.340e+04 1.152e-09
 16.83070   -365.8 1.420e+04 1.363e-09
 16.85034   -365.4 1.483e+04 1.649e-09
 16.86998   -365.0 1.541e+04 1.940e-09
 16.88963   -364.5 1.616e+04 2.402e-09
 16.90117   -364.0 1.690e+04 3.036e-09
 16.91099   -363.4 1.667e+04 2.775e-09
 16.92396   -363.5 1.787e+04 4.313e-09
 16.93373   -363.2 1.831e+04 5.042e-09
 16.94355   -362.9 1.870e+04 5.860e-09
 16.95338   -362.6 1.898e+04 6.742e-09
 16.96320   -362.3 1.911e+04 7.606e-09
 16.97302   -361.9 1.913e+04 8.405e-09
 16.98284   -361.6 1.907e+04 9.074e-09
 16.99267   -361.2 1.900e+04 9.534e-09
 17.00004   -360.9 1.890e+04 9.856e-09
 17.00495   -360.6 1.882e+04 9.541e-09
 17.01231   -360.2 1.868e+04 9.773e-09
 17.02213   -359.6 1.856e+04 9.891e-09
 17.03196   -358.9 1.863e+04 9.660e-09
 17.04674   -358.2 1.866e+04 9.623e-09
 17.05972   -356.7 1.879e+04 1.012e-08
 17.06954   -358.1 1.891e+04 9.176e-09
 17.08608   -357.1 1.920e+04 8.846e-09
 17.09911   -356.3 1.956e+04 8.305e-09
 17.10894   -355.8 1.968e+04 9.664e-09
 17.12537   -355.1 2.019e+04 9.089e-09
 17.14501   -354.8 2.033e+04 8.186e-09
 17.16466   -354.8 2.022e+04 7.243e-09
 17.18430   -354.9 2.009e+04 6.539e-09
 17.20395   -355.4 2.001e+04 6.438e-09
 17.22359   -356.2 1.987e+04 6.583e-09
 17.24324   -357.2 1.956e+04 7.669e-09
 17.26288   -358.4 1.961e+04 9.163e-09
 17.28252   -359.9 1.977e+04 1.085e-08
 17.29706   -361.2 1.993e+04 1.232e-08
 17.30688   -361.2 1.971e+04 1.243e-08
 17.32181   -362.2 1.952e+04 1.255e-08
 17.34146   -363.2 1.920e+04 1.228e-08
 17.36110   -363.7 1.895e+04 1.197e-08
 17.38075   -363.9 1.879e+04 1.165e-08
 17.40039   -363.9 1.870e+04 1.151e-08
 17.42004   -363.9 1.854e+04 1.117e-08
 17.43968   -363.9 1.822e+04 1.033e-08
 17.45933   -363.8 1.774e+04 9.083e-09
 17.47897   -363.6 1.712e+04 7.819e-09
 17.49501   -363.0 1.645e+04 6.723e-09
 17.50410   -362.6 1.687e+04 7.487e-09
 17.50771   -362.3 1.710e+04 8.073e-09
 17.51826   -361.4 1.656e+04 7.060e-09
 17.53791   -360.4 1.608e+04 6.248e-09
 17.55755   -359.6 1.568e+04 5.679e-09
 17.57720   -358.6 1.535e+04 5.289e-09
 17.59684   -357.6 1.508e+04 4.963e-09
 17.61649   -356.5 1.481e+04 4.637e-09
 17.63613   -355.3 1.452e+04 4.265e-09
 17.65578   -354.1 1.421e+04 3.848e-09
 17.67542   -352.8 1.390e+04 3.419e-09
 17.69295   -351.4 1.361e+04 3.014e-09
 17.70278   -351.5 1.398e+04 3.451e-09
 17.71471   -350.2 1.375e+04 3.097e-09
 17.73435   -349.0 1.353e+04 2.785e-09
 17.75400   -347.7 1.333e+04 2.519e-09
 17.77364   -346.3 1.313e+04 2.298e-09
 17.79329   -345.0 1.298e+04 2.112e-09
 17.81293   -343.8 1.284e+04 1.949e-09
 17.83258   -342.5 1.272e+04 1.804e-09
 17.85222   -341.2 1.260e+04 1.680e-09
 17.87187   -339.9 1.250e+04 1.580e-09
 17.89090   -338.7 1.240e+04 1.496e-09
 17.90072   -339.1 1.277e+04 1.730e-09
 17.91116   -337.9 1.263e+04 1.594e-09
 17.93080   -336.7 1.248e+04 1.479e-09
 17.94588   -335.6 1.235e+04 1.386e-09
 17.95570   -336.4 1.236e+04 1.373e-09
 17.97009   -335.1 1.224e+04 1.282e-09
 17.98974   -333.8 1.215e+04 1.206e-09
 18.00938   -332.5 1.206e+04 1.143e-09
 18.02903   -331.2 1.201e+04 1.098e-09
 18.04867   -330.0 1.198e+04 1.071e-09
 18.06832   -328.8 1.198e+04 1.060e-09
 18.08796   -327.6 1.199e+04 1.061e-09
 18.09867   -326.5 1.204e+04 1.089e-09
 18.10849   -327.3 1.183e+04 9.428e-10
 18.12725   -326.2 1.188e+04 9.704e-10
 18.14689   -325.1 1.195e+04 1.025e-09
 18.16654   -324.2 1.205e+04 1.098e-09
 18.18618   -323.4 1.216e+04 1.183e-09
 18.20583   -322.7 1.226e+04 1.267e-09
 18.22547   -322.0 1.236e+04 1.343e-09
 18.24512   -321.3 1.243e+04 1.402e-09
 18.26476   -320.7 1.247e+04 1.432e-09
 18.28441   -320.1 1.247e+04 1.438e-09
 18.29662   -319.5 1.244e+04 1.417e-09
 18.30644   -319.7 1.218e+04 1.206e-09
 18.32370   -319.1 1.216e+04 1.179e-09
 18.34334   -318.5 1.212e+04 1.124e-09
 18.36299   -317.9 1.205e+04 1.058e-09
 18.38263   -317.3 1.196e+04 9.942e-10
 18.39387   -316.6 1.190e+04 9.453e-10
 18.40369   -316.7 1.191e+04 9.356e-10
 18.42192   -316.0 1.189e+04 9.232e-10
 18.44157   -315.4 1.189e+04 9.234e-10
 18.46121   -314.7 1.201e+04 9.598e-10
 18.48086   -314.1 1.221e+04 1.098e-09
 18.49457   -313.5 1.250e+04 1.313e-09
 18.50439   -313.4 1.245e+04 1.255e-09
 18.52014   -312.8 1.275e+04 1.495e-09
 18.53979   -312.2 1.306e+04 1.730e-09
 18.55943   -311.7 1.332e+04 1.898e-09
 18.57908   -311.4 1.347e+04 1.951e-09
 18.59872   -311.1 1.350e+04 1.957e-09
 18.61837   -310.8 1.349e+04 1.924e-09
 18.63801   -310.3 1.345e+04 1.846e-09
 18.65766   -309.7 1.340e+04 1.779e-09
 18.67730   -309.1 1.337e+04 1.762e-09
 18.69251   -308.4 1.337e+04 1.763e-09
 18.70233   -307.9 1.318e+04 1.496e-09
 18.71659   -307.2 1.320e+04 1.510e-09
 18.73624   -306.5 1.324e+04 1.548e-09
 18.75588   -305.7 1.326e+04 1.578e-09
 18.77553   -305.0 1.325e+04 1.585e-09
 18.79517   -304.1 1.321e+04 1.528e-09
 18.81482   -303.3 1.313e+04 1.404e-09
 18.83204   -302.5 1.303e+04 1.248e-09
 18.84187   -303.2 1.283e+04 1.068e-09
 18.85411   -302.4 1.270e+04 9.543e-10
 18.87375   -301.7 1.256e+04 8.668e-10
 18.89046   -301.0 1.245e+04 7.992e-10
 18.90028   -300.8 1.238e+04 8.160e-10
 18.91304   -300.0 1.228e+04 7.639e-10
 18.93269   -299.2 1.219e+04 7.262e-10
 18.95233   -298.4 1.213e+04 7.056e-10
 18.97197   -297.6 1.210e+04 7.010e-10
 18.99162   -296.8 1.208e+04 7.101e-10
 19.01126   -296.0 1.206e+04 7.522e-10
 19.03091   -295.2 1.203e+04 8.112e-10
 19.05055   -294.3 1.199e+04 8.707e-10
 19.07020   -293.4 1.194e+04 9.146e-10
 19.08841   -292.4 1.190e+04 9.298e-10
 19.09823   -291.9 1.169e+04 7.962e-10
 19.10949   -290.7 1.158e+04 7.946e-10
 19.12913   -289.5 1.145e+04 7.639e-10
 19.14878   -288.2 1.127e+04 7.075e-10
 19.16842   -286.9 1.109e+04 6.303e-10
 19.18807   -285.5 1.093e+04 5.478e-10
 19.20771   -284.2 1.079e+04 4.778e-10
 19.22736   -282.8 1.070e+04 4.275e-10
 19.24700   -281.6 1.065e+04 4.001e-10
 19.26665   -280.5 1.063e+04 3.915e-10
 19.28004   -279.9 1.059e+04 3.852e-10
 19.28996   -281.1 1.007e+04 2.678e-10
 19.31595   -277.4 9.800e+03 2.187e-10
 19.35524   -274.7 9.623e+03 1.961e-10
 19.39453   -272.0 9.474e+03 1.846e-10
 19.43382   -269.3 9.384e+03 1.817e-10
 19.47311   -266.6 9.349e+03 1.829e-10
 19.51240   -263.9 9.280e+03 1.908e-10
 19.55169   -261.3 9.253e+03 2.017e-10
 19.59098   -258.6 9.228e+03 2.086e-10
 19.63027   -255.9 9.219e+03 2.127e-10
 19.66956   -253.2 9.201e+03 2.177e-10
 19.69226   -250.5 9.176e+03 2.213e-10
 19.71191   -249.8 9.307e+03 2.390e-10
 19.74814   -247.2 9.334e+03 2.524e-10
 19.78743   -244.7 9.359e+03 2.671e-10
 19.82672   -242.4 9.401e+03 2.852e-10
 19.86601   -240.1 9.463e+03 3.067e-10
 19.90530   -238.1 9.542e+03 3.310e-10
 19.94459   -236.1 9.629e+03 3.557e-10
 19.98388   -234.3 9.715e+03 3.782e-10
 20.02316   -232.4 9.790e+03 3.907e-10
 20.06245   -230.5 9.820e+03 3.941e-10
 20.08816   -228.3 9.836e+03 3.967e-10
 20.10780   -228.4 9.804e+03 4.095e-10
 20.14103   -226.2 9.749e+03 3.939e-10
 20.16639   -224.0 9.650e+03 3.864e-10
 20.18604   -224.4 9.785e+03 4.710e-10
 20.21961   -222.3 9.678e+03 4.614e-10
 20.25890   -220.2 9.566e+03 4.542e-10
 20.29819   -218.3 9.435e+03 4.349e-10
 20.33748   -216.4 9.276e+03 4.046e-10
 20.37677   -214.3 9.024e+03 3.624e-10
 20.41606   -211.9 8.765e+03 3.137e-10
 20.45535   -209.3 8.506e+03 2.662e-10
 20.48405   -207.0 8.339e+03 2.286e-10
 20.50370   -206.2 8.297e+03 2.094e-10
 20.53393   -203.9 8.178e+03 1.825e-10
 20.57322   -201.7 8.140e+03 1.677e-10
 20.61251   -200.0 8.153e+03 1.641e-10
 20.65180   -198.6 8.256e+03 1.721e-10
 20.69109   -197.6 8.776e+03 2.445e-10
 20.73038   -196.6 9.424e+03 3.966e-10
 20.76967   -195.7 1.005e+04 6.023e-10
 20.80896   -195.2 1.061e+04 8.175e-10
 20.83832   -194.9 1.094e+04 9.607e-10
 20.85787   -194.9 1.101e+04 9.853e-10
 20.87752   -194.9 1.112e+04 1.025e-09
 20.88957   -195.0 1.114e+04 1.030e-09
 20.89940   -195.2 1.118e+04 1.049e-09
 20.91681   -195.1 1.119e+04 1.048e-09
 20.93645   -194.9 1.118e+04 1.023e-09
 20.95610   -194.7 1.112e+04 9.770e-10
 20.97574   -194.4 1.101e+04 9.075e-10
 20.99539   -194.1 1.086e+04 8.252e-10
 21.01503   -193.6 1.066e+04 7.363e-10
 21.03467   -193.0 1.045e+04 6.494e-10
 21.05236   -192.2 1.027e+04 5.722e-10
 21.06218   -190.9 1.007e+04 4.492e-10
 21.08388   -189.7 9.986e+03 3.983e-10
 21.12327   -188.0 9.903e+03 3.814e-10
 21.16256   -185.8 9.808e+03 3.673e-10
 21.20185   -183.6 9.777e+03 3.620e-10
 21.23122   -181.8 9.723e+03 3.530e-10
 21.25077   -181.5 9.763e+03 3.560e-10
 21.27041   -181.0 1.004e+04 3.899e-10
 21.28547   -180.9 1.054e+04 4.783e-10
 21.29529   -180.2 1.005e+04 3.899e-10
 21.30970   -180.2 1.059e+04 4.974e-10
 21.32935   -180.5 1.128e+04 7.313e-10
 21.34899   -180.6 1.198e+04 1.159e-09
 21.36864   -180.4 1.260e+04 1.784e-09
 21.38828   -180.1 1.309e+04 2.485e-09
 21.40793   -179.8 1.342e+04 2.990e-09
 21.42757   -179.7 1.352e+04 3.141e-09
 21.44722   -179.8 1.346e+04 3.050e-09
 21.46686   -180.4 1.308e+04 2.510e-09
 21.48341   -181.2 1.245e+04 1.857e-09
 21.49324   -181.1 1.311e+04 2.520e-09
 21.50035   -181.8 1.239e+04 1.814e-09
 21.51018   -180.1 1.324e+04 2.520e-09
 21.52579   -181.0 1.239e+04 1.763e-09
 21.54544   -182.0 1.152e+04 1.260e-09
 21.56508   -182.8 1.086e+04 9.778e-10
 21.58473   -183.2 1.059e+04 8.529e-10
 21.60437   -183.4 1.055e+04 8.222e-10
 21.62402   -183.4 1.054e+04 8.131e-10
 21.64366   -183.3 1.057e+04 8.193e-10
 21.66331   -183.2 1.064e+04 8.381e-10
 21.68136   -183.0 1.074e+04 8.806e-10
 21.69118   -182.9 1.067e+04 8.342e-10
 21.70260   -182.8 1.081e+04 8.954e-10
 21.72224   -182.6 1.097e+04 9.844e-10
 21.74189   -182.3 1.116e+04 1.103e-09
 21.76153   -181.9 1.139e+04 1.258e-09
 21.78118   -181.5 1.164e+04 1.447e-09
 21.80082   -181.0 1.189e+04 1.658e-09
 21.82047   -180.4 1.213e+04 1.884e-09
 21.84011   -179.7 1.236e+04 2.105e-09
 21.85976   -179.0 1.254e+04 2.272e-09
 21.87931   -178.4 1.261e+04 2.337e-09
 21.89895   -178.0 1.205e+04 1.816e-09
 21.91869   -177.5 1.195e+04 1.733e-09
 21.93833   -176.9 1.178e+04 1.612e-09
 21.94835   -176.4 1.158e+04 1.468e-09
 21.95817   -176.5 1.218e+04 1.881e-09
 21.97762   -176.0 1.191e+04 1.656e-09
 21.99727   -175.5 1.161e+04 1.425e-09
 22.01691   -175.0 1.129e+04 1.205e-09
 22.03656   -174.5 1.098e+04 1.013e-09
 22.05620   -173.9 1.070e+04 8.564e-10
 22.07585   -173.3 1.048e+04 7.383e-10
 22.08708   -172.5 1.033e+04 6.591e-10
 22.09690   -172.5 1.016e+04 6.199e-10
 22.11514   -171.5 1.006e+04 5.693e-10
 22.13478   -170.4 1.008e+04 5.450e-10
 22.15443   -169.6 1.009e+04 5.373e-10
 22.17407   -168.9 1.029e+04 5.753e-10
 22.19372   -168.3 1.077e+04 6.964e-10
 22.21336   -167.9 1.142e+04 9.494e-10
 22.23301   -167.4 1.210e+04 1.392e-09
 22.25265   -166.8 1.276e+04 2.089e-09
 22.27230   -166.0 1.344e+04 3.095e-09
 22.28502   -165.0 1.415e+04 4.381e-09
 22.29485   -164.3 1.343e+04 3.133e-09
 22.31158   -163.4 1.422e+04 4.670e-09
 22.33123   -162.4 1.500e+04 6.571e-09
 22.35087   -161.4 1.581e+04 8.354e-09
 22.37052   -160.7 1.635e+04 9.886e-09
 22.38652   -160.2 1.678e+04 1.153e-08
 22.39634   -160.7 1.716e+04 1.263e-08
 22.40981   -160.3 1.726e+04 1.323e-08
 22.42945   -159.9 1.720e+04 1.294e-08
 22.44910   -159.6 1.694e+04 1.155e-08
 22.46874   -159.3 1.642e+04 9.433e-09
 22.48297   -159.0 1.569e+04 7.118e-09
 22.49279   -157.8 1.695e+04 1.128e-08
 22.50803   -157.6 1.621e+04 8.471e-09
 22.52768   -157.3 1.531e+04 5.913e-09
 22.54732   -157.0 1.435e+04 3.936e-09
 22.56697   -156.6 1.338e+04 2.501e-09
 22.58661   -156.1 1.258e+04 1.590e-09
 22.60626   -155.6 1.200e+04 1.050e-09
 22.62590   -155.0 1.166e+04 7.490e-10
 22.64555   -154.3 1.146e+04 5.987e-10
 22.66519   -153.5 1.135e+04 5.328e-10
 22.68092   -152.5 1.128e+04 4.993e-10
 22.69074   -152.1 1.178e+04 6.469e-10
 22.70448   -151.1 1.166e+04 5.990e-10
 22.72412   -149.9 1.158e+04 5.794e-10
 22.74377   -148.8 1.155e+04 5.762e-10
 22.76341   -147.8 1.154e+04 5.963e-10
 22.78306   -146.7 1.154e+04 6.283e-10
 22.80270   -145.6 1.158e+04 6.728e-10
 22.82235   -144.5 1.161e+04 7.343e-10
 22.83451   -143.5 1.166e+04 8.009e-10
 22.84433   -142.7 1.167e+04 7.902e-10
 22.86164   -141.7 1.173e+04 8.683e-10
 22.87887   -140.5 1.179e+04 9.694e-10
 22.88869   -140.3 1.179e+04 9.253e-10
 22.90093   -139.2 1.186e+04 1.007e-09
 22.92057   -138.1 1.192e+04 1.106e-09
 22.94022   -136.9 1.189e+04 1.177e-09
 22.95986   -135.6 1.183e+04 1.177e-09
 22.97951   -134.3 1.171e+04 1.111e-09
 22.99915   -133.0 1.156e+04 1.000e-09
 23.01880   -131.7 1.139e+04 8.648e-10
 23.03844   -130.4 1.120e+04 7.195e-10
 23.05809   -129.4 1.102e+04 6.049e-10
 23.07681   -128.1 1.087e+04 5.079e-10
 23.08663   -128.1 1.084e+04 4.881e-10
 23.09738   -127.2 1.074e+04 4.405e-10
 23.11702   -125.8 1.064e+04 3.961e-10
 23.13666   -124.9 1.058e+04 3.827e-10
 23.16623   -123.0 1.054e+04 3.683e-10
 23.20562   -120.8 1.044e+04 3.356e-10
 23.24491   -118.6 1.034e+04 3.111e-10
 23.27495   -116.4 1.029e+04 3.027e-10
 23.29460   -116.3 1.003e+04 2.312e-10
 23.32349   -114.0 9.986e+03 2.225e-10
 23.36278   -111.6 9.971e+03 2.272e-10
 23.40206   -109.4 1.006e+04 2.483e-10
 23.44135   -107.3 1.022e+04 2.980e-10
 23.48064   -105.3 1.044e+04 3.791e-10
 23.51993   -103.4 1.064e+04 4.749e-10
 23.54930   -101.5 1.069e+04 5.136e-10
 23.56885   -101.2 1.071e+04 5.415e-10
 23.58849    -99.9 1.075e+04 6.023e-10
 23.60814    -99.5 1.074e+04 6.121e-10
 23.62778    -98.3 1.072e+04 6.208e-10
 23.64743    -97.7 1.066e+04 5.809e-10
 23.67075    -97.0 1.059e+04 5.062e-10
 23.69049    -96.1 1.061e+04 4.930e-10
 23.71105    -95.1 1.051e+04 4.262e-10
 23.73069    -94.7 1.057e+04 4.539e-10
 23.75567    -94.0 1.041e+04 3.800e-10
 23.79496    -93.2 1.029e+04 3.345e-10
 23.83425    -92.5 1.026e+04 3.225e-10
 23.87354    -91.9 1.035e+04 3.339e-10
 23.91283    -91.5 1.052e+04 3.754e-10
 23.95212    -91.1 1.061e+04 4.004e-10
 23.99141    -90.9 1.058e+04 3.811e-10
 24.03070    -90.7 1.038e+04 3.026e-10
 24.06674    -90.6 1.008e+04 2.129e-10
 24.08639    -89.0 1.033e+04 2.495e-10
 24.10928    -89.3 9.975e+03 1.594e-10
 24.14857    -89.3 9.766e+03 1.182e-10
 24.18786    -88.9 9.659e+03 9.088e-11
 24.22714    -88.4 9.600e+03 7.337e-11
 24.26643    -88.0 9.690e+03 6.676e-11
 24.30572    -88.4 9.646e+03 7.064e-11
 24.34501    -91.0 1.022e+04 1.312e-10
 24.38430    -93.0 1.220e+04 6.273e-10
 24.41367    -94.2 1.367e+04 2.135e-09
 24.43322    -93.8 1.454e+04 3.721e-09
 24.45286    -93.3 1.514e+04 5.191e-09
 24.47226    -93.1 1.529e+04 5.495e-09
 24.48209    -93.8 1.587e+04 6.993e-09
 24.49215    -93.7 1.519e+04 5.028e-09
 24.51180    -93.8 1.417e+04 2.983e-09
 24.53144    -94.6 1.311e+04 1.641e-09
 24.55109    -95.5 1.211e+04 9.860e-10
 24.57073    -95.9 1.141e+04 6.966e-10
 24.59038    -95.6 1.096e+04 5.441e-10
 24.60684    -94.3 1.072e+04 4.474e-10
 24.61666    -94.5 1.062e+04 3.885e-10
 24.62967    -94.0 1.056e+04 3.306e-10
 24.65923    -93.9 1.049e+04 2.956e-10
 24.69862    -93.3 1.047e+04 2.884e-10
 24.73791    -94.0 1.106e+04 4.194e-10
 24.77720    -94.7 1.226e+04 9.846e-10
 24.80657    -94.9 1.293e+04 1.627e-09
 24.82611    -95.1 1.317e+04 1.867e-09
 24.84576    -95.6 1.329e+04 2.084e-09
 24.86540    -95.8 1.309e+04 2.035e-09
 24.87798    -95.8 1.268e+04 1.754e-09
 24.88780    -96.8 1.266e+04 1.709e-09
 24.90469    -96.9 1.220e+04 1.355e-09
 24.92434    -96.8 1.178e+04 1.079e-09
 24.94398    -96.4 1.143e+04 8.759e-10
 24.96363    -95.9 1.121e+04 7.367e-10
 24.98327    -95.3 1.105e+04 6.448e-10
 25.00292    -94.7 1.094e+04 5.922e-10
 25.02256    -93.9 1.091e+04 5.744e-10
 25.04221    -93.1 1.091e+04 5.713e-10
 25.05483    -92.3 1.097e+04 5.874e-10
 25.06465    -92.5 1.082e+04 5.030e-10
 25.07593    -91.7 1.089e+04 5.381e-10
 25.08575    -92.3 1.076e+04 4.500e-10
 25.10114    -91.4 1.078e+04 4.767e-10
 25.12079    -90.4 1.080e+04 5.033e-10
 25.14043    -89.6 1.079e+04 5.178e-10
 25.16008    -88.6 1.078e+04 5.220e-10
 25.17972    -87.6 1.069e+04 5.111e-10
 25.19937    -86.5 1.062e+04 4.864e-10
 25.21901    -85.8 1.060e+04 4.805e-10
 25.24857    -84.5 1.068e+04 5.025e-10
 25.27407    -82.5 1.043e+04 4.342e-10
 25.29371    -82.9 1.008e+04 3.303e-10
 25.32725    -80.7 9.923e+03 2.997e-10
 25.36654    -78.4 9.865e+03 2.825e-10
 25.40583    -76.0 9.873e+03 2.826e-10
 25.44512    -73.8 9.986e+03 2.993e-10
 25.48337    -71.7 1.013e+04 3.274e-10
 25.50302    -71.0 1.002e+04 2.888e-10
 25.52370    -69.0 1.018e+04 3.276e-10
 25.55307    -67.3 1.014e+04 3.401e-10
 25.57262    -67.2 1.018e+04 3.621e-10
 25.59226    -66.1 1.031e+04 4.473e-10
 25.61191    -65.4 1.039e+04 5.334e-10
 25.63155    -64.3 1.057e+04 6.752e-10
 25.65119    -63.4 1.087e+04 8.378e-10
 25.66987    -62.0 1.144e+04 1.149e-09
 25.67969    -62.6 1.055e+04 7.496e-10
 25.69048    -61.8 1.075e+04 8.720e-10
 25.72005    -60.8 1.077e+04 8.865e-10
 25.75944    -59.5 1.080e+04 9.328e-10
 25.79873    -58.5 1.073e+04 9.256e-10
 25.83802    -57.6 1.059e+04 8.971e-10
 25.87731    -56.6 1.043e+04 8.690e-10
 25.91659    -55.4 1.029e+04 8.506e-10
 25.94109    -53.9 1.023e+04 8.347e-10
 25.95081    -53.8 1.025e+04 8.424e-10
 25.96551    -53.7 1.023e+04 8.380e-10
 25.98516    -52.6 1.015e+04 8.225e-10
 26.00480    -51.6 1.005e+04 7.901e-10
 26.02445    -50.6 9.982e+03 7.462e-10
 26.04409    -49.8 9.825e+03 6.736e-10
 26.06374    -48.7 9.705e+03 6.144e-10
 26.07548    -47.9 9.558e+03 5.539e-10
 26.08531    -47.9 9.549e+03 5.487e-10
 26.10302    -46.8 9.415e+03 4.978e-10
 26.12267    -45.7 9.284e+03 4.620e-10
 26.15223    -44.4 9.224e+03 4.369e-10
 26.19162    -41.9 9.141e+03 4.237e-10
 26.23091    -39.2 9.136e+03 4.356e-10
 26.27020    -36.6 9.201e+03 4.722e-10
 26.30949    -33.9 9.253e+03 4.990e-10
 26.34878    -31.4 9.317e+03 5.134e-10
 26.37936    -29.1 9.420e+03 5.303e-10
 26.39900    -29.4 9.026e+03 4.040e-10
 26.42736    -27.4 9.180e+03 4.745e-10
 26.46175    -25.3 9.475e+03 5.951e-10
 26.48140    -25.8 9.302e+03 4.977e-10
 26.50594    -24.6 9.808e+03 6.710e-10
 26.54523    -23.9 1.041e+04 9.663e-10
 26.58452    -23.2 1.089e+04 1.318e-09
 26.62381    -22.5 1.105e+04 1.464e-09
 26.66310    -21.6 1.055e+04 1.106e-09
 26.70239    -21.8 9.477e+03 5.541e-10
 26.73175    -22.3 8.980e+03 3.645e-10
 26.75130    -22.3 8.936e+03 3.584e-10
 26.78087    -22.1 8.761e+03 3.322e-10
 26.82025    -21.0 8.524e+03 3.000e-10
 26.85764    -19.5 8.325e+03 2.706e-10
 26.87729    -19.2 8.170e+03 2.467e-10
 26.89883    -17.6 8.071e+03 1.998e-10
 26.93812    -16.6 8.008e+03 1.663e-10
 26.97741    -15.8 8.102e+03 1.669e-10
 27.01670    -15.3 8.582e+03 2.165e-10
 27.05599    -14.4 8.949e+03 3.246e-10
 27.09528    -12.1 8.986e+03 4.447e-10
 27.13457     -9.7 9.185e+03 4.688e-10
 27.17386     -8.7 9.378e+03 4.373e-10
 27.21315     -6.9 9.188e+03 3.626e-10
 27.25244     -5.4 9.108e+03 3.226e-10
 27.27318     -3.4 9.108e+03 3.188e-10
 27.27644     -1.9 8.987e+03 3.041e-10
 27.29499     -0.9 9.226e+03 3.741e-10
 27.33102      1.0 9.323e+03 3.862e-10
 27.37031      3.0 9.399e+03 4.063e-10
 27.40960      5.1 9.444e+03 4.086e-10
 27.44889      7.3 9.438e+03 3.898e-10
 27.48818      9.7 9.360e+03 3.489e-10
 27.52747     12.0 9.282e+03 3.071e-10
 27.56675     14.2 9.240e+03 2.778e-10
 27.60604     16.4 9.204e+03 2.597e-10
 27.64533     18.5 9.205e+03 2.518e-10
 27.66908     20.7 9.251e+03 2.539e-10
 27.68872     21.7 9.113e+03 2.340e-10
 27.72391     23.7 9.167e+03 2.399e-10
 27.76320     25.8 9.259e+03 2.462e-10
 27.80249     27.6 9.381e+03 2.510e-10
 27.84178     29.4 9.534e+03 2.603e-10
 27.88107     31.2 9.648e+03 2.751e-10
 27.92036     32.9 9.929e+03 3.313e-10
 27.95965     34.4 1.030e+04 4.436e-10
 27.99894     36.0 1.066e+04 5.768e-10
 28.03823     37.6 1.097e+04 6.635e-10
 28.06497     39.2 1.100e+04 6.331e-10
 28.07470     40.0 1.087e+04 6.493e-10
 28.08715     40.7 1.096e+04 6.592e-10
 28.10679     41.8 1.096e+04 6.191e-10
 28.12644     42.5 1.095e+04 5.737e-10
 28.15159     44.2 1.068e+04 4.641e-10
 28.17133     44.6 1.106e+04 5.539e-10
 28.19539     46.3 1.069e+04 3.919e-10
 28.23468     48.4 1.033e+04 2.671e-10
 28.27397     50.6 1.004e+04 1.874e-10
 28.31326     52.7 9.917e+03 1.452e-10
 28.35255     54.9 9.948e+03 1.393e-10
 28.39184     57.4 9.971e+03 1.406e-10
 28.43112     59.8 1.006e+04 1.452e-10
 28.46087     62.1 1.018e+04 1.558e-10
 28.48051     63.7 9.983e+03 1.302e-10
 28.50970     66.0 1.012e+04 1.471e-10
 28.54899     68.3 1.028e+04 1.765e-10
 28.58828     70.6 1.048e+04 2.201e-10
 28.62757     73.0 1.073e+04 2.717e-10
 28.66686     75.3 1.097e+04 3.151e-10
 28.70615     77.4 1.115e+04 3.490e-10
 28.74544     79.4 1.128e+04 3.501e-10
 28.78473     81.3 1.131e+04 3.306e-10
 28.82402     83.1 1.129e+04 2.928e-10
 28.85676     84.9 1.117e+04 2.607e-10
 28.87640     86.8 1.124e+04 3.138e-10
 28.90260     88.5 1.107e+04 2.831e-10
 28.94189     90.2 1.097e+04 2.810e-10
 28.98118     91.7 1.097e+04 2.920e-10
 29.02047     93.1 1.099e+04 3.279e-10
 29.04767     94.4 1.099e+04 3.796e-10
 29.06731     94.8 1.074e+04 3.492e-10
 29.09905     96.2 1.074e+04 4.107e-10
 29.13834     97.5 1.064e+04 4.537e-10
 29.17763     98.7 1.059e+04 4.516e-10
 29.21692     99.9 1.046e+04 4.341e-10
 29.25265    101.0 1.024e+04 3.784e-10
 29.27230    103.0 1.038e+04 4.338e-10
 29.29549    104.3 1.016e+04 3.860e-10
 29.33478    105.6 9.918e+03 3.258e-10
 29.37407    107.1 9.811e+03 2.900e-10
 29.41336    108.9 9.846e+03 2.894e-10
 29.45265    110.6 1.003e+04 3.186e-10
 29.49194    111.8 1.023e+04 3.766e-10
 29.52131    112.8 1.032e+04 4.290e-10
 29.54086    113.5 1.047e+04 5.230e-10
 29.56050    114.3 1.068e+04 6.490e-10
 29.58015    115.1 1.087e+04 7.540e-10
 29.59979    115.6 1.097e+04 7.682e-10
 29.61944    115.9 1.097e+04 7.516e-10
 29.63908    116.2 1.087e+04 6.664e-10
 29.65817    116.4 1.068e+04 5.733e-10
 29.66800    116.9 1.067e+04 5.873e-10
 29.68829    117.8 1.027e+04 4.427e-10
 29.72768    119.1 9.754e+03 2.986e-10
 29.76697    120.5 9.274e+03 2.061e-10
 29.80626    122.2 9.156e+03 1.843e-10
 29.84555    124.3 9.158e+03 1.843e-10
 29.88484    126.5 9.185e+03 1.897e-10
 29.92401    128.6 9.295e+03 2.117e-10
 29.96330    131.2 9.556e+03 2.846e-10
 30.00271    132.6 9.753e+03 3.429e-10
 30.03208    132.9 9.819e+03 3.800e-10
 30.05162    133.4 9.909e+03 4.284e-10
 30.06389    134.2 1.006e+04 5.101e-10
 30.07371    134.6 1.013e+04 5.586e-10
 30.09091    135.4 1.030e+04 6.408e-10
 30.11056    136.1 1.046e+04 7.104e-10
 30.13020    136.6 1.060e+04 7.652e-10
 30.14985    137.0 1.070e+04 8.127e-10
 30.16949    137.3 1.080e+04 8.596e-10
 30.18914    137.5 1.090e+04 9.131e-10
 30.20878    137.6 1.108e+04 9.918e-10
 30.22843    137.5 1.143e+04 1.122e-09
 30.24807    137.3 1.196e+04 1.331e-09
 30.26184    136.8 1.263e+04 1.636e-09
 30.27166    138.8 1.164e+04 1.216e-09
 30.28736    138.5 1.232e+04 1.518e-09
 30.30700    137.9 1.316e+04 1.966e-09
 30.32665    137.0 1.397e+04 2.562e-09
 30.34629    135.9 1.457e+04 3.205e-09
 30.36594    134.9 1.486e+04 3.708e-09
 30.38163    134.0 1.475e+04 3.830e-09
 30.39145    135.4 1.493e+04 3.859e-09
 30.40523    134.5 1.473e+04 3.699e-09
 30.42487    133.7 1.419e+04 3.096e-09
 30.44452    133.0 1.348e+04 2.250e-09
 30.45978    132.0 1.267e+04 1.482e-09
 30.46961    135.0 1.362e+04 2.438e-09
 30.48381    134.0 1.274e+04 1.584e-09
 30.50345    132.6 1.188e+04 1.043e-09
 30.52310    131.1 1.104e+04 7.857e-10
 30.54274    130.2 1.043e+04 7.240e-10
 30.56239    130.1 1.028e+04 7.167e-10
 30.58203    130.2 1.025e+04 7.173e-10
 30.60168    130.3 1.025e+04 7.232e-10
 30.62132    130.4 1.028e+04 7.230e-10
 30.64097    130.5 1.028e+04 7.161e-10
 30.65773    130.4 1.028e+04 6.896e-10
 30.66755    131.8 1.065e+04 8.511e-10
 30.68026    131.6 1.057e+04 7.939e-10
 30.69990    131.2 1.041e+04 7.037e-10
 30.71954    130.9 1.021e+04 5.907e-10
 30.73919    130.4 1.004e+04 4.837e-10
 30.75883    129.7 1.003e+04 4.275e-10
 30.77848    129.1 1.012e+04 4.318e-10
 30.79812    127.9 1.086e+04 4.752e-10
 30.81777    125.8 1.295e+04 6.609e-10
 30.82962    123.6 1.515e+04 1.188e-09
 30.83944    124.0 1.498e+04 1.173e-09
 30.85568    122.4 1.646e+04 2.074e-09
 30.86550    119.8 1.730e+04 4.965e-09
 30.87174    120.0 1.691e+04 5.565e-09
 30.88152    120.2 1.682e+04 5.863e-09
 30.89134    120.5 1.687e+04 6.428e-09
 30.90116    120.6 1.696e+04 7.094e-09
 30.91098    120.7 1.720e+04 7.650e-09
 30.92081    121.0 1.679e+04 8.265e-09
 30.93063    121.3 1.667e+04 8.244e-09
 30.94045    121.7 1.644e+04 8.077e-09
 30.95027    122.2 1.622e+04 7.630e-09
 30.95947    122.6 1.611e+04 7.133e-09
 30.96438    122.0 1.557e+04 5.070e-09
 30.96992    122.3 1.559e+04 4.421e-09
 30.97974    122.4 1.558e+04 3.999e-09
 30.98956    122.6 1.568e+04 3.492e-09
 30.99938    122.6 1.565e+04 3.192e-09
 31.00921    122.6 1.559e+04 2.561e-09
 31.01903    122.5 1.549e+04 2.318e-09
 31.02885    122.3 1.521e+04 1.779e-09
 31.03867    122.2 1.497e+04 1.597e-09
 31.04850    121.8 1.448e+04 1.213e-09
 31.05352    121.6 1.420e+04 1.105e-09
 31.05843    120.8 1.410e+04 1.026e-09
 31.06335    120.4 1.359e+04 8.659e-10
 31.07322    118.0 1.071e+04 3.713e-10
 31.09280    118.2 1.002e+04 3.216e-10
 31.11244    118.8 9.643e+03 2.942e-10
 31.13208    119.6 9.393e+03 2.755e-10
 31.15173    120.7 9.203e+03 2.623e-10
 31.17137    121.8 9.103e+03 2.520e-10
 31.19102    122.9 9.037e+03 2.469e-10
 31.21066    124.1 8.977e+03 2.488e-10
 31.23031    125.4 8.979e+03 2.527e-10
 31.24995    126.5 8.999e+03 2.616e-10
 31.26139    127.6 9.055e+03 2.795e-10
 31.26941    126.8 8.961e+03 2.571e-10
 31.27761    126.1 9.081e+03 2.815e-10
 31.28924    126.9 9.182e+03 3.132e-10
 31.30889    127.4 9.466e+03 3.830e-10
 31.32853    127.7 1.006e+04 5.164e-10
 31.34818    127.6 1.075e+04 7.348e-10
 31.36782    126.9 1.175e+04 1.133e-09
 31.38747    125.3 1.357e+04 2.005e-09
 31.40711    123.0 1.527e+04 3.598e-09
 31.42676    121.2 1.673e+04 5.977e-09
 31.44640    120.2 1.791e+04 8.913e-09
 31.45934    119.0 1.895e+04 1.140e-08
 31.46916    120.8 1.862e+04 1.204e-08
 31.48569    119.4 1.941e+04 1.302e-08
 31.50534    117.9 1.970e+04 1.106e-08
 31.52498    115.8 1.988e+04 6.426e-09
 31.54462    112.0 1.882e+04 2.571e-09
 31.56427    106.6 1.423e+04 1.023e-09
 31.58391    102.7 1.128e+04 7.291e-10
 31.60356    102.4 1.084e+04 6.196e-10
 31.62320    102.4 1.065e+04 5.311e-10
 31.64285    102.8 1.062e+04 4.277e-10
 31.65729    103.0 1.048e+04 3.847e-10
 31.66721    103.3 1.036e+04 3.024e-10
 31.69216    104.4 9.914e+03 2.134e-10
 31.71598    105.9 9.748e+03 1.555e-10
 31.73563    105.4 9.731e+03 1.540e-10
 31.77073    106.7 9.452e+03 1.229e-10
 31.81002    108.0 9.324e+03 1.104e-10
 31.84931    109.4 9.205e+03 1.097e-10
 31.88860    111.0 9.129e+03 1.105e-10
 31.92789    112.5 9.188e+03 1.114e-10
 31.96718    114.2 9.236e+03 1.183e-10
 32.00647    115.9 9.264e+03 1.353e-10
 32.04356    117.8 9.336e+03 1.640e-10
 32.06320    118.5 9.362e+03 1.772e-10
 32.08505    120.5 9.471e+03 2.176e-10
 32.12434    122.7 9.589e+03 2.655e-10
 32.16363    125.1 9.702e+03 3.146e-10
 32.20292    127.9 9.831e+03 3.619e-10
 32.24221    130.5 9.961e+03 4.131e-10
 32.28150    133.1 1.013e+04 4.646e-10
 32.31087    134.6 1.018e+04 4.993e-10
 32.33042    136.0 1.025e+04 5.369e-10
 32.35006    137.3 1.032e+04 5.806e-10
 32.36970    138.7 1.039e+04 6.187e-10
 32.38935    140.0 1.044e+04 6.519e-10
 32.40899    141.2 1.047e+04 6.815e-10
 32.42864    142.6 1.050e+04 7.109e-10
 32.44828    144.0 1.053e+04 7.457e-10
 32.45890    145.4 1.056e+04 7.865e-10
 32.46872    145.6 1.065e+04 8.314e-10
 32.48757    147.0 1.067e+04 8.690e-10
 32.50722    148.6 1.071e+04 9.163e-10
 32.52686    150.2 1.083e+04 9.876e-10
 32.54651    151.6 1.101e+04 1.093e-09
 32.56615    153.0 1.124e+04 1.236e-09
 32.58580    154.4 1.152e+04 1.429e-09
 32.60195    155.8 1.185e+04 1.684e-09
 32.61177    155.8 1.186e+04 1.693e-09
 32.62509    157.1 1.221e+04 2.013e-09
 32.64473    158.4 1.262e+04 2.412e-09
 32.65685    159.6 1.311e+04 2.928e-09
 32.66667    160.1 1.290e+04 2.248e-09
 32.68402    161.3 1.314e+04 2.434e-09
 32.70367    162.3 1.339e+04 2.585e-09
 32.72331    163.1 1.354e+04 2.739e-09
 32.74296    163.4 1.364e+04 2.913e-09
 32.76260    163.4 1.378e+04 3.067e-09
 32.78225    163.3 1.403e+04 3.155e-09
 32.80189    163.4 1.413e+04 3.175e-09
 32.82153    163.5 1.413e+04 3.139e-09
 32.84118    163.9 1.421e+04 3.158e-09
 32.85479    164.4 1.443e+04 3.242e-09
 32.86461    163.5 1.466e+04 2.501e-09
 32.88047    164.1 1.538e+04 2.997e-09
 32.90011    164.7 1.612e+04 3.732e-09
 32.91976    165.2 1.684e+04 4.804e-09
 32.93940    165.8 1.747e+04 6.215e-09
 32.95905    166.3 1.793e+04 7.831e-09
 32.97869    166.8 1.819e+04 9.295e-09
 32.99834    167.4 1.829e+04 1.011e-08
 33.01798    168.1 1.805e+04 1.027e-08
 33.03763    168.7 1.781e+04 9.865e-09
 33.04994    169.0 1.756e+04 9.137e-09
 33.05523    170.3 1.685e+04 7.064e-09
 33.06256    169.0 1.665e+04 7.426e-09
 33.07692    169.2 1.669e+04 7.452e-09
 33.09656    169.2 1.673e+04 7.221e-09
 33.11621    168.9 1.678e+04 6.887e-09
 33.13585    168.2 1.680e+04 6.557e-09
 33.15550    167.1 1.673e+04 6.234e-09
 33.17514    165.8 1.657e+04 5.810e-09
 33.19479    164.5 1.615e+04 5.167e-09
 33.21443    163.3 1.556e+04 4.413e-09
 33.23407    162.0 1.498e+04 3.689e-09
 33.25069    160.5 1.452e+04 3.071e-09
 33.26051    159.3 1.337e+04 2.399e-09
 33.27336    158.2 1.307e+04 1.970e-09
 33.29301    157.0 1.291e+04 1.660e-09
 33.31265    155.6 1.276e+04 1.487e-09
 33.33230    154.2 1.277e+04 1.381e-09
 33.35194    152.9 1.285e+04 1.462e-09
 33.37159    152.1 1.296e+04 1.610e-09
 33.39123    151.6 1.308e+04 1.762e-09
 33.41088    151.4 1.320e+04 1.885e-09
 33.43052    151.3 1.334e+04 1.939e-09
 33.44863    151.1 1.354e+04 1.929e-09
 33.45846    152.3 1.304e+04 1.775e-09
 33.46981    152.2 1.336e+04 1.804e-09
 33.48811    151.9 1.366e+04 1.844e-09
 33.49793    153.2 1.347e+04 1.860e-09
 33.50910    152.5 1.396e+04 1.969e-09
 33.52875    151.5 1.434e+04 2.101e-09
 33.54839    150.3 1.456e+04 2.294e-09
 33.56804    149.2 1.453e+04 2.561e-09
 33.58768    148.2 1.440e+04 2.728e-09
 33.60733    147.4 1.427e+04 2.719e-09
 33.62697    146.7 1.396e+04 2.651e-09
 33.64658    146.2 1.367e+04 2.451e-09
 33.66622    146.8 1.342e+04 1.947e-09
 33.68590    146.6 1.311e+04 1.578e-09
 33.70555    146.4 1.278e+04 1.257e-09
 33.72519    146.2 1.245e+04 1.020e-09
 33.74484    146.1 1.209e+04 8.513e-10
 33.76448    146.2 1.170e+04 7.347e-10
 33.78413    146.5 1.135e+04 6.600e-10
 33.80377    147.0 1.103e+04 6.214e-10
 33.82342    147.5 1.087e+04 6.197e-10
 33.84306    148.3 1.081e+04 6.368e-10
 33.85435    149.1 1.077e+04 6.712e-10
 33.86417    149.3 1.050e+04 5.561e-10
 33.88235    150.2 1.054e+04 6.276e-10
 33.90200    151.2 1.066e+04 6.986e-10
 33.92164    152.0 1.086e+04 7.643e-10
 33.93610    152.5 1.113e+04 8.204e-10
 33.94593    152.2 1.107e+04 8.229e-10
 33.96093    152.6 1.129e+04 8.751e-10
 33.98058    152.4 1.213e+04 9.833e-10
 34.00022    151.6 1.349e+04 1.345e-09
 34.01987    150.3 1.509e+04 2.310e-09
 34.03951    149.4 1.609e+04 3.635e-09
 34.05225    148.5 1.673e+04 4.796e-09
 34.06207    148.6 1.603e+04 3.368e-09
 34.07880    147.8 1.636e+04 4.592e-09
 34.09348    147.0 1.700e+04 6.028e-09
 34.10326    146.4 1.742e+04 7.212e-09
 34.11308    146.0 1.755e+04 7.744e-09
 34.12290    145.6 1.747e+04 7.565e-09
 34.13273    145.3 1.723e+04 6.991e-09
 34.14255    144.9 1.689e+04 6.140e-09
 34.15117    144.3 1.650e+04 5.022e-09
 34.15608    144.1 1.646e+04 5.062e-09
 34.16000    143.9 1.633e+04 4.753e-09
 34.16491    143.8 1.635e+04 5.242e-09
 34.17697    143.3 1.609e+04 4.064e-09
 34.19667    142.4 1.619e+04 3.289e-09
 34.21631    141.1 1.651e+04 2.575e-09
 34.23596    139.7 1.642e+04 2.102e-09
 34.25024    138.6 1.574e+04 1.865e-09
 34.25511    140.2 1.705e+04 2.652e-09
 34.26042    139.8 1.691e+04 2.457e-09
 34.27024    139.3 1.665e+04 2.318e-09
 34.28006    138.9 1.641e+04 2.242e-09
 34.28988    138.5 1.620e+04 2.258e-09
 34.29971    138.3 1.621e+04 2.277e-09
 34.30953    138.0 1.635e+04 2.396e-09
 34.31935    137.7 1.665e+04 2.623e-09
 34.32917    137.5 1.709e+04 3.081e-09
 34.33900    137.2 1.780e+04 3.809e-09
 34.34882    136.9 1.885e+04 5.035e-09
 34.35403    136.7 2.005e+04 7.088e-09
 34.35894    137.1 2.032e+04 7.264e-09
 34.36846    137.0 2.138e+04 1.018e-08
 34.37828    137.0 2.237e+04 1.478e-08
 34.38400    137.0 2.317e+04 2.186e-08
 34.38891    134.8 2.395e+04 4.722e-08
 34.39793    135.2 2.399e+04 6.370e-08
 34.40775    135.6 2.394e+04 8.271e-08
 34.41757    135.9 2.396e+04 9.988e-08
 34.42740    136.1 2.405e+04 1.131e-07
 34.43722    136.3 2.421e+04 1.236e-07
 34.44704    136.5 2.415e+04 1.315e-07
 34.45300    136.8 2.401e+04 1.312e-07
 34.45792    137.9 2.361e+04 1.526e-07
 34.46669    138.6 2.342e+04 1.557e-07
 34.47651    139.1 2.331e+04 1.488e-07
 34.48633    139.2 2.332e+04 1.313e-07
 34.49615    139.2 2.342e+04 1.080e-07
 34.50598    139.2 2.352e+04 8.156e-08
 34.51580    139.2 2.368e+04 5.890e-08
 34.52562    139.0 2.393e+04 3.999e-08
 34.53544    138.4 2.415e+04 2.792e-08
 34.54527    137.1 2.431e+04 1.807e-08
 34.55198    136.1 2.426e+04 1.342e-08
 34.55689    138.0 2.474e+04 1.492e-08
 34.56987    132.5 2.354e+04 4.745e-09
 34.58956    126.8 2.084e+04 2.598e-09
 34.60921    122.1 1.808e+04 1.891e-09
 34.62885    121.4 1.668e+04 1.918e-09
 34.64614    121.5 1.614e+04 2.167e-09
 34.65596    120.8 1.553e+04 2.061e-09
 34.66814    121.5 1.576e+04 2.646e-09
 34.68779    121.8 1.641e+04 3.506e-09
 34.70743    121.7 1.743e+04 5.043e-09
 34.72708    121.7 1.834e+04 7.554e-09
 34.74672    121.6 1.915e+04 1.126e-08
 34.76141    121.1 1.958e+04 1.317e-08
 34.77118    120.5 2.020e+04 1.663e-08
 34.78100    120.2 2.065e+04 1.974e-08
 34.79082    119.3 2.129e+04 2.650e-08
 34.80065    118.7 2.170e+04 3.194e-08
 34.81047    118.4 2.198e+04 3.480e-08
 34.82029    118.1 2.200e+04 3.373e-08
 34.82708    117.7 2.188e+04 2.996e-08
 34.83204    118.4 2.100e+04 2.124e-08
 34.84408    117.7 2.078e+04 1.884e-08
 34.85391    117.4 2.098e+04 1.888e-08
 34.86459    116.7 2.028e+04 1.412e-08
 34.88423    115.6 1.925e+04 9.827e-09
 34.90388    113.9 1.787e+04 5.703e-09
 34.92352    112.0 1.592e+04 3.263e-09
 34.94317    110.6 1.402e+04 2.111e-09
 34.96281    110.4 1.295e+04 1.614e-09
 34.98246    110.7 1.251e+04 1.354e-09
 35.00210    111.3 1.233e+04 1.189e-09
 35.03167    112.3 1.232e+04 1.070e-09
 35.07106    114.3 1.182e+04 9.447e-10
 35.11035    116.3 1.178e+04 9.495e-10
 35.14963    118.0 1.190e+04 9.971e-10
 35.17900    118.6 1.206e+04 1.087e-09
 35.19855    119.3 1.217e+04 1.168e-09
 35.21820    120.4 1.221e+04 1.227e-09
 35.23784    121.6 1.215e+04 1.292e-09
 35.24980    122.8 1.216e+04 1.356e-09
 35.25962    122.6 1.205e+04 1.359e-09
 35.27026    123.6 1.213e+04 1.385e-09
 35.28008    123.1 1.252e+04 1.566e-09
 35.29678    124.1 1.274e+04 1.726e-09
 35.31642    125.0 1.302e+04 1.947e-09
 35.33606    126.0 1.332e+04 2.213e-09
 35.35571    126.9 1.361e+04 2.494e-09
 35.37535    127.8 1.390e+04 2.772e-09
 35.39500    128.5 1.421e+04 3.076e-09
 35.41464    129.1 1.463e+04 3.505e-09
 35.43429    129.3 1.521e+04 4.200e-09
 35.44775    129.3 1.589e+04 5.301e-09
 35.45757    128.6 1.610e+04 5.311e-09
 35.47358    128.8 1.691e+04 7.314e-09
 35.49322    129.2 1.759e+04 9.737e-09
 35.51287    129.7 1.801e+04 1.190e-08
 35.53251    130.3 1.822e+04 1.269e-08
 35.55216    131.1 1.823e+04 1.243e-08
 35.57180    131.7 1.799e+04 1.118e-08
 35.59145    131.6 1.819e+04 9.688e-09
 35.61109    130.9 1.865e+04 9.797e-09
 35.63074    128.5 2.035e+04 1.098e-08
 35.64542    125.4 2.220e+04 1.347e-08
 35.65051    122.5 2.309e+04 1.881e-08
 35.65542    119.9 2.271e+04 3.683e-08
 35.66502    119.9 2.163e+04 5.680e-08
 35.67484    120.3 2.109e+04 7.769e-08
 35.68466    120.6 2.097e+04 8.079e-08
 35.69448    121.1 2.071e+04 7.630e-08
 35.70431    122.3 2.020e+04 6.162e-08
 35.71324    123.7 1.969e+04 4.381e-08
 35.71815    123.3 1.967e+04 3.231e-08
 35.72891    124.1 1.898e+04 1.538e-08
 35.74860    124.8 1.764e+04 7.565e-09
 35.76825    125.1 1.623e+04 4.454e-09
 35.78789    125.2 1.506e+04 2.843e-09
 35.80754    125.7 1.385e+04 2.064e-09
 35.82718    126.9 1.314e+04 1.613e-09
 35.85675    127.5 1.220e+04 8.491e-10
 35.89614    129.4 1.131e+04 5.340e-10
 35.93543    131.7 1.064e+04 3.302e-10
 35.97471    134.0 1.020e+04 2.130e-10
 36.01400    136.1 9.915e+03 1.513e-10
 36.04178    138.2 9.756e+03 1.223e-10
 36.06143    138.1 9.658e+03 1.061e-10
 36.09258    140.3 9.620e+03 1.011e-10
 36.13187    142.6 9.627e+03 9.926e-11
 36.15662    144.9 9.653e+03 9.781e-11
 36.17626    144.7 9.693e+03 1.203e-10
 36.21045    146.8 9.716e+03 1.163e-10
 36.24974    148.8 9.753e+03 1.105e-10
 36.28903    150.6 9.802e+03 1.034e-10
 36.32832    152.3 9.851e+03 9.635e-11
 36.36761    154.0 9.866e+03 9.201e-11
 36.40690    155.6 9.865e+03 9.194e-11
 36.43768    157.2 9.856e+03 9.300e-11
 36.45732    157.2 9.827e+03 8.695e-11
 36.48548    158.7 9.812e+03 8.829e-11
 36.52477    160.1 9.790e+03 9.347e-11
 36.56406    161.5 9.807e+03 1.055e-10
 36.60335    162.8 9.855e+03 1.254e-10
 36.64264    164.1 9.919e+03 1.525e-10
 36.68193    165.4 1.000e+04 1.837e-10
 36.72122    166.7 1.012e+04 2.165e-10
 36.76051    168.0 1.025e+04 2.502e-10
 36.79979    169.2 1.039e+04 2.872e-10
 36.83357    170.3 1.052e+04 3.291e-10
 36.85322    170.5 1.026e+04 2.761e-10
 36.87837    171.6 1.031e+04 2.941e-10
 36.91766    172.5 1.034e+04 3.031e-10
 36.95695    173.3 1.035e+04 3.033e-10
 36.99624    174.0 1.034e+04 2.938e-10
 37.03296    174.6 1.033e+04 2.815e-10
 37.05260    173.5 1.023e+04 2.541e-10
 37.07482    174.2 1.023e+04 2.425e-10
 37.11411    174.8 1.025e+04 2.446e-10
 37.15340    175.2 1.038e+04 2.619e-10
 37.19269    175.3 1.065e+04 3.103e-10
 37.22947    175.2 1.086e+04 3.677e-10
 37.24911    174.2 1.081e+04 3.609e-10
 37.26135    174.2 1.114e+04 4.825e-10
 37.28090    174.1 1.143e+04 6.094e-10
 37.30054    173.8 1.170e+04 7.345e-10
 37.32019    173.3 1.192e+04 8.141e-10
 37.33983    172.5 1.208e+04 8.464e-10
 37.35948    171.4 1.220e+04 8.696e-10
 37.37912    170.0 1.235e+04 9.165e-10
 37.39876    168.3 1.260e+04 1.030e-09
 37.41841    166.2 1.299e+04 1.277e-09
 37.43704    164.0 1.345e+04 1.702e-09
 37.44686    163.0 1.390e+04 2.062e-09
 37.45770    161.1 1.435e+04 2.761e-09
 37.47734    159.5 1.457e+04 3.269e-09
 37.49058    158.0 1.457e+04 3.307e-09
 37.50040    156.8 1.524e+04 4.343e-09
 37.51663    155.3 1.488e+04 3.695e-09
 37.53628    153.7 1.418e+04 2.680e-09
 37.55592    151.9 1.332e+04 1.885e-09
 37.58549    151.5 1.261e+04 1.309e-09
 37.62488    149.5 1.150e+04 7.732e-10
 37.64500    148.4 1.067e+04 4.993e-10
 37.66465    147.5 1.082e+04 5.757e-10
 37.70345    147.3 1.038e+04 4.373e-10
 37.74274    147.6 1.007e+04 3.507e-10
 37.78203    148.4 9.827e+03 2.847e-10
 37.82132    149.5 9.606e+03 2.295e-10
 37.86061    150.7 9.365e+03 1.877e-10
 37.89990    152.1 9.089e+03 1.707e-10
 37.92894    153.7 9.038e+03 1.713e-10
 37.94859    152.8 9.017e+03 1.715e-10
 37.97848    154.5 9.030e+03 1.834e-10
 38.01777    156.1 9.177e+03 2.340e-10
 38.04090    157.5 9.590e+03 3.443e-10
 38.06054    157.3 9.723e+03 3.812e-10
 38.09635    158.4 1.010e+04 5.181e-10
 38.13564    158.9 1.029e+04 5.880e-10
 38.17493    159.1 1.029e+04 5.841e-10
 38.21422    159.3 1.019e+04 5.449e-10
 38.25351    159.6 9.976e+03 4.703e-10
 38.29280    159.7 9.730e+03 3.958e-10
 38.33209    159.8 9.520e+03 3.408e-10
 38.37138    160.0 9.392e+03 3.103e-10
 38.41067    160.3 9.348e+03 3.001e-10
 38.43679    160.7 9.374e+03 3.080e-10
 38.45644    161.0 9.602e+03 3.815e-10
 38.48924    161.3 9.874e+03 4.595e-10
 38.52853    161.6 1.022e+04 5.683e-10
 38.56782    161.8 1.049e+04 6.641e-10
 38.60711    162.0 1.057e+04 6.912e-10
 38.64640    162.2 1.054e+04 6.781e-10
 38.68569    162.8 1.038e+04 6.121e-10
 38.72498    163.7 1.012e+04 5.153e-10
 38.76427    164.9 9.867e+03 4.504e-10
 38.80356    166.3 9.797e+03 4.449e-10
 38.82493    167.9 9.808e+03 4.572e-10
 38.83441    166.4 9.611e+03 3.685e-10
 38.85233    165.9 9.616e+03 3.791e-10
 38.88214    167.5 9.499e+03 3.473e-10
 38.92143    169.1 9.359e+03 3.100e-10
 38.96072    170.7 9.183e+03 2.688e-10
 39.00001    172.2 8.994e+03 2.332e-10
 39.03930    173.8 8.870e+03 2.157e-10
 39.07859    175.3 8.858e+03 2.152e-10
 39.11788    176.7 8.876e+03 2.206e-10
 39.15717    178.0 8.971e+03 2.414e-10
 39.19646    179.0 9.119e+03 2.740e-10
 39.22858    179.9 9.277e+03 3.083e-10
 39.24822    180.1 9.113e+03 2.675e-10
 39.27504    180.8 9.230e+03 2.916e-10
 39.31432    181.5 9.320e+03 3.086e-10
 39.35361    182.1 9.407e+03 3.223e-10
 39.39290    182.7 9.508e+03 3.398e-10
 39.43219    183.0 9.628e+03 3.659e-10
 39.46156    183.1 9.685e+03 3.894e-10
 39.48111    183.4 9.823e+03 4.327e-10
 39.50075    183.9 1.010e+04 5.254e-10
 39.52040    184.3 1.044e+04 6.526e-10
 39.54004    184.5 1.077e+04 8.016e-10
 39.55969    184.6 1.111e+04 9.664e-10
 39.57933    184.6 1.145e+04 1.132e-09
 39.59898    184.6 1.176e+04 1.233e-09
 39.61862    184.4 1.186e+04 1.235e-09
 39.63410    184.0 1.187e+04 1.212e-09
 39.64392    183.9 1.169e+04 1.053e-09
 39.65791    183.4 1.164e+04 9.581e-10
 39.67756    182.9 1.146e+04 8.077e-10
 39.69720    182.3 1.119e+04 6.633e-10
 39.71090    181.6 1.099e+04 5.947e-10
 39.72072    181.2 1.096e+04 5.986e-10
 39.73649    180.7 1.096e+04 5.984e-10
 39.75614    180.2 1.101e+04 6.131e-10
 39.77578    179.5 1.125e+04 6.819e-10
 39.79543    178.6 1.176e+04 8.638e-10
 39.81507    177.6 1.242e+04 1.213e-09
 39.83205    176.7 1.312e+04 1.776e-09
 39.84187    175.8 1.341e+04 2.197e-09
 39.85436    175.2 1.401e+04 3.062e-09
 39.87401    174.6 1.458e+04 3.986e-09
 39.89365    173.7 1.514e+04 4.957e-09
 39.91330    172.7 1.563e+04 5.788e-09
 39.93294    171.4 1.596e+04 6.283e-09
 39.95258    169.8 1.600e+04 6.249e-09
 39.97223    167.9 1.588e+04 5.706e-09
 39.99187    166.4 1.526e+04 4.385e-09
 40.01152    165.3 1.431e+04 2.758e-09
 40.02999    164.1 1.304e+04 1.429e-09
 40.03982    163.9 1.296e+04 1.416e-09
 40.05081    162.2 1.151e+04 6.945e-10
 40.07045    160.3 1.045e+04 4.760e-10
 40.09010    159.9 1.036e+04 4.675e-10
 40.10974    160.0 1.037e+04 4.706e-10
 40.12939    160.2 1.050e+04 4.964e-10
 40.14903    160.2 1.093e+04 5.981e-10
 40.16868    161.2 1.092e+04 5.929e-10
 40.18832    161.1 1.165e+04 8.176e-10
 40.20797    161.0 1.252e+04 1.205e-09
 40.22761    160.6 1.348e+04 1.854e-09
 40.23776    160.1 1.440e+04 2.875e-09
 40.24759    160.5 1.432e+04 2.915e-09
 40.26690    159.9 1.523e+04 4.308e-09
 40.28655    159.0 1.619e+04 6.240e-09
 40.30619    158.0 1.725e+04 8.941e-09
 40.32584    156.8 1.830e+04 1.218e-08
 40.34548    155.1 1.909e+04 1.397e-08
 40.36512    152.9 1.917e+04 1.376e-08
 40.38477    150.8 1.895e+04 1.189e-08
 40.40441    149.0 1.804e+04 7.424e-09
 40.42406    147.1 1.629e+04 3.244e-09
 40.43571    143.5 1.368e+04 1.134e-09
 40.44553    146.0 1.495e+04 1.852e-09
 40.46335    140.7 1.347e+04 9.302e-10
 40.48299    135.2 1.355e+04 9.873e-10
 40.50264    131.3 1.433e+04 1.371e-09
 40.51732    130.2 1.456e+04 1.613e-09
 40.52710    129.1 1.504e+04 1.969e-09
 40.53459    125.7 1.766e+04 3.118e-09
 40.53950    122.5 2.106e+04 4.067e-09
 40.54674    117.0 2.569e+04 9.600e-09
 40.55656    112.6 2.699e+04 2.705e-08
 40.56639    109.3 2.474e+04 1.012e-07
 40.57621    106.9 2.316e+04 2.572e-07
 40.58355    104.9 2.253e+04 4.301e-07
 40.58648    103.2 2.193e+04 6.628e-07
 40.58894    102.8 2.184e+04 6.182e-07
 40.59583     99.0 2.155e+04 8.094e-07
 40.60187     93.5 2.158e+04 7.013e-07
 40.60679     94.5 2.161e+04 6.064e-07
 40.61550     90.9 2.175e+04 3.332e-07
 40.62532     89.9 2.147e+04 1.229e-07
 40.63356     89.3 2.055e+04 3.472e-08
 40.64343     87.7 1.960e+04 9.118e-09
 40.65980     83.7 1.323e+04 2.238e-09
 40.67944     81.7 1.184e+04 7.784e-10
 40.69909     81.6 1.130e+04 6.003e-10
 40.72865     82.3 1.062e+04 4.577e-10
 40.76804     84.1 9.683e+03 2.959e-10
 40.80733     86.5 9.083e+03 2.329e-10
 40.83180     89.0 8.944e+03 2.357e-10
 40.85145     88.6 8.723e+03 2.116e-10
 40.88591     91.2 8.812e+03 2.498e-10
 40.92520     93.7 8.968e+03 2.967e-10
 40.96449     95.8 9.025e+03 3.118e-10
 41.00377     97.8 8.998e+03 3.048e-10
 41.04306     99.7 8.858e+03 2.668e-10
 41.08235    101.7 8.597e+03 2.015e-10
 41.12164    103.4 8.266e+03 1.419e-10
 41.16093    105.1 7.971e+03 1.111e-10
 41.20022    107.0 7.928e+03 1.095e-10
 41.22769    108.9 7.938e+03 1.138e-10
 41.24734    108.9 7.923e+03 1.096e-10
 41.27880    110.6 7.995e+03 1.337e-10
 41.31809    112.4 8.388e+03 2.057e-10
 41.35738    114.3 8.985e+03 3.440e-10
 41.39667    116.2 9.559e+03 5.345e-10
 41.43596    117.8 9.932e+03 6.693e-10
 41.47360    119.0 9.953e+03 6.709e-10
 41.49324    117.8 9.917e+03 6.412e-10
 41.51454    119.0 9.678e+03 5.439e-10
 41.55383    120.4 9.223e+03 3.829e-10
 41.59312    121.9 8.639e+03 2.342e-10
 41.62359    123.4 8.031e+03 1.354e-10
 41.64323    122.8 7.693e+03 8.227e-11
 41.67170    124.1 7.358e+03 6.035e-11
 41.71099    125.9 7.315e+03 5.935e-11
 41.75028    128.0 7.307e+03 5.989e-11
 41.78957    130.1 7.303e+03 6.334e-11
 41.82886    132.1 7.365e+03 7.222e-11
 41.86814    134.0 7.508e+03 8.814e-11
 41.90743    135.8 7.720e+03 1.125e-10
 41.94672    137.4 7.971e+03 1.453e-10
 41.98601    138.9 8.234e+03 1.842e-10
 42.01948    140.2 8.480e+03 2.240e-10
 42.03913    140.0 8.471e+03 2.152e-10
 42.06459    141.2 8.701e+03 2.512e-10
 42.10388    142.2 8.928e+03 2.695e-10
 42.14317    143.0 8.989e+03 2.696e-10
 42.18246    143.9 9.020e+03 2.643e-10
 42.22175    145.0 9.071e+03 2.571e-10
 42.26104    146.1 9.130e+03 2.572e-10
 42.29041    146.3 9.190e+03 2.636e-10
 42.30996    146.7 9.307e+03 2.781e-10
 42.32960    147.1 9.583e+03 3.262e-10
 42.34925    147.1 1.002e+04 4.372e-10
 42.36889    146.8 1.062e+04 6.652e-10
 42.37921    146.3 1.154e+04 1.127e-09
 42.38903    145.0 1.260e+04 1.971e-09
 42.40818    144.4 1.408e+04 3.457e-09
 42.42500    144.0 1.552e+04 5.666e-09
 42.43483    143.6 1.611e+04 6.855e-09
 42.44747    143.0 1.721e+04 9.313e-09
 42.46711    142.1 1.748e+04 9.501e-09
 42.48676    141.1 1.739e+04 8.624e-09
 42.50640    140.4 1.678e+04 5.951e-09
 42.52605    139.6 1.558e+04 3.067e-09
 42.54569    138.3 1.374e+04 1.306e-09
 42.57526    133.4 1.149e+04 3.684e-10
 42.61465    130.2 9.969e+03 2.459e-10
 42.65394    129.9 9.919e+03 2.473e-10
 42.69322    130.4 9.954e+03 2.719e-10
 42.73251    131.1 1.023e+04 3.713e-10
 42.77180    131.5 1.077e+04 5.632e-10
 42.81109    131.6 1.145e+04 8.102e-10
 42.85038    131.6 1.214e+04 1.026e-09
 42.88967    130.4 1.217e+04 1.000e-09
 42.92896    128.6 1.201e+04 9.094e-10
 42.96825    126.7 1.178e+04 8.422e-10
 43.00754    125.4 1.160e+04 8.228e-10
 43.04683    125.1 1.149e+04 8.119e-10
 43.08612    125.2 1.127e+04 7.794e-10
 43.12541    125.9 1.091e+04 6.610e-10
 43.16470    127.2 1.051e+04 4.940e-10
 43.20399    128.6 1.016e+04 3.466e-10
 43.22681    130.0 9.928e+03 2.513e-10
 43.24645    129.8 9.898e+03 1.899e-10
 43.26557    131.4 9.910e+03 1.838e-10
 43.28521    131.0 9.982e+03 1.900e-10
 43.32186    132.5 9.982e+03 1.915e-10
 43.36115    134.2 9.990e+03 2.045e-10
 43.40044    135.8 1.006e+04 2.475e-10
 43.43973    137.4 1.022e+04 3.228e-10
 43.47902    139.2 1.043e+04 4.250e-10
 43.51830    140.9 1.068e+04 5.296e-10
 43.55759    142.4 1.086e+04 6.007e-10
 43.59688    143.8 1.108e+04 6.074e-10
 43.62270    145.1 1.113e+04 5.993e-10
 43.64235    145.2 1.112e+04 5.533e-10
 43.67546    146.3 1.117e+04 5.389e-10
 43.71475    147.2 1.123e+04 5.324e-10
 43.75404    147.9 1.126e+04 5.313e-10
 43.79333    148.4 1.124e+04 5.209e-10
 43.83262    148.9 1.110e+04 4.721e-10
 43.87191    149.3 1.085e+04 3.744e-10
 43.91120    149.9 1.056e+04 2.517e-10
 43.95049    150.6 1.022e+04 1.416e-10
 43.98978    151.1 9.891e+03 7.543e-11
 44.01860    151.7 9.569e+03 6.216e-11
 44.03824    152.2 9.816e+03 9.178e-11
 44.06836    153.2 9.623e+03 8.474e-11
 44.10765    154.6 9.596e+03 8.650e-11
 44.14191    156.3 9.564e+03 9.368e-11
 44.16155    156.1 9.692e+03 1.012e-10
 44.18623    157.9 9.689e+03 1.122e-10
 44.22552    159.7 9.724e+03 1.250e-10
 44.26481    161.6 9.756e+03 1.367e-10
 44.30410    163.5 9.763e+03 1.459e-10
 44.34339    165.4 9.741e+03 1.526e-10
 44.38267    167.3 9.706e+03 1.563e-10
 44.41449    169.1 9.700e+03 1.565e-10
 44.43414    169.5 9.831e+03 1.852e-10
 44.46125    171.3 9.830e+03 1.850e-10
 44.50054    173.2 9.814e+03 1.833e-10
 44.53983    175.0 9.781e+03 1.799e-10
 44.57912    176.9 9.758e+03 1.786e-10
 44.61841    178.9 9.757e+03 1.794e-10
 44.65770    180.8 9.769e+03 1.851e-10
 44.69699    182.8 9.839e+03 2.043e-10
 44.73628    184.7 9.987e+03 2.394e-10
 44.77557    186.6 1.017e+04 2.881e-10
 44.81038    188.5 1.038e+04 3.448e-10
 44.83003    188.3 1.053e+04 3.657e-10
 44.85415    189.9 1.061e+04 3.815e-10
 44.89344    191.3 1.061e+04 3.717e-10
 44.93273    192.9 1.055e+04 3.337e-10
 44.97202    194.4 1.042e+04 2.798e-10
 45.01131    196.0 1.027e+04 2.349e-10
 45.03789    197.7 1.015e+04 2.215e-10
 45.05754    198.1 1.033e+04 2.460e-10
 45.08989    199.9 1.028e+04 2.465e-10
 45.12918    201.8 1.025e+04 2.582e-10
 45.16847    203.7 1.031e+04 2.851e-10
 45.20628    205.6 1.039e+04 3.211e-10
 45.22592    205.2 1.021e+04 3.048e-10
 45.24704    207.1 1.031e+04 3.430e-10
 45.28633    209.1 1.037e+04 3.661e-10
 45.32562    211.1 1.040e+04 3.792e-10
 45.36491    213.1 1.045e+04 3.876e-10
 45.40420    215.2 1.051e+04 3.941e-10
 45.44349    217.3 1.054e+04 3.944e-10
 45.48278    219.2 1.055e+04 3.914e-10
 45.51215    220.6 1.043e+04 3.656e-10
 45.53170    221.5 1.040e+04 3.620e-10
 45.55134    222.8 1.040e+04 3.668e-10
 45.57099    224.4 1.043e+04 3.878e-10
 45.59063    225.9 1.058e+04 4.296e-10
 45.61028    227.2 1.077e+04 4.834e-10
 45.62162    228.2 1.095e+04 5.403e-10
 45.63144    227.9 1.077e+04 5.207e-10
 45.64957    228.9 1.094e+04 5.762e-10
 45.66921    229.7 1.107e+04 6.256e-10
 45.68886    230.4 1.117e+04 6.706e-10
 45.70850    231.1 1.124e+04 7.127e-10
 45.72815    231.7 1.128e+04 7.527e-10
 45.74779    232.3 1.132e+04 7.930e-10
 45.76744    232.8 1.136e+04 8.384e-10
 45.78708    233.3 1.144e+04 8.944e-10
 45.80672    233.7 1.156e+04 9.662e-10
 45.81957    233.9 1.171e+04 1.048e-09
 45.82939    233.3 1.186e+04 1.077e-09
 45.84601    233.2 1.216e+04 1.244e-09
 45.86566    233.1 1.246e+04 1.455e-09
 45.88530    233.0 1.274e+04 1.704e-09
 45.90495    233.0 1.303e+04 1.992e-09
 45.92386    233.1 1.335e+04 2.324e-09
 45.93368    233.9 1.317e+04 1.755e-09
 45.94424    234.0 1.361e+04 2.160e-09
 45.96388    234.1 1.418e+04 2.685e-09
 45.98353    234.2 1.484e+04 3.307e-09
 46.00317    234.1 1.546e+04 3.916e-09
 46.01752    234.0 1.603e+04 4.288e-09
 46.02734    232.4 1.781e+04 7.687e-09
 46.04246    231.8 1.805e+04 7.756e-09
 46.06211    231.0 1.806e+04 7.663e-09
 46.08175    230.1 1.799e+04 7.221e-09
 46.10140    229.0 1.767e+04 6.711e-09
 46.12104    227.8 1.739e+04 6.648e-09
 46.14069    226.6 1.733e+04 6.826e-09
 46.16033    225.5 1.737e+04 7.543e-09
 46.17998    224.2 1.776e+04 8.592e-09
 46.19962    222.8 1.832e+04 9.556e-09
 46.21546    221.3 1.895e+04 1.007e-08
 46.22528    219.8 1.964e+04 1.195e-08
 46.23891    218.3 2.006e+04 1.271e-08
 46.25855    216.9 2.019e+04 1.289e-08
 46.27820    215.8 2.017e+04 1.273e-08
 46.29784    214.9 1.998e+04 1.202e-08
 46.31749    214.4 1.953e+04 1.079e-08
 46.33713    214.4 1.896e+04 9.347e-09
 46.35678    214.5 1.838e+04 7.938e-09
 46.37185    214.5 1.784e+04 6.681e-09
 46.38168    214.9 1.858e+04 8.676e-09
 46.39607    215.2 1.822e+04 7.591e-09
 46.41341    215.4 1.811e+04 6.755e-09
 46.42323    214.6 1.789e+04 7.462e-09
 46.43536    214.5 1.801e+04 7.257e-09
 46.45500    214.3 1.828e+04 7.091e-09
 46.47465    213.8 1.852e+04 6.815e-09
 46.49429    212.9 1.853e+04 6.437e-09
 46.51394    211.6 1.824e+04 5.812e-09
 46.53358    210.3 1.756e+04 4.959e-09
 46.55323    208.9 1.652e+04 4.038e-09
 46.57287    207.5 1.530e+04 3.205e-09
 46.59252    206.3 1.413e+04 2.539e-09
 46.61136    205.3 1.323e+04 2.051e-09
 46.62118    204.4 1.287e+04 1.805e-09
 46.63180    203.3 1.219e+04 1.377e-09
 46.65145    202.3 1.181e+04 1.082e-09
 46.67109    201.2 1.162e+04 9.177e-10
 46.69074    200.1 1.161e+04 9.016e-10
 46.71038    198.5 1.167e+04 9.190e-10
 46.73003    196.0 1.199e+04 1.039e-09
 46.74967    192.5 1.296e+04 1.522e-09
 46.76932    188.8 1.412e+04 2.546e-09
 46.78896    185.8 1.499e+04 3.803e-09
 46.80861    183.1 1.536e+04 4.124e-09
 46.81913    180.5 1.531e+04 3.934e-09
 46.82054    181.8 1.502e+04 3.721e-09
 46.82967    181.4 1.500e+04 3.741e-09
 46.84790    179.4 1.454e+04 2.908e-09
 46.86754    177.7 1.368e+04 1.828e-09
 46.89711    175.5 1.212e+04 6.902e-10
 46.93649    171.0 8.548e+03 1.272e-10
 46.97578    168.0 7.636e+03 7.447e-11
 47.01507    168.1 7.524e+03 7.210e-11
 47.05436    168.9 7.507e+03 7.205e-11
 47.09365    170.3 7.508e+03 7.402e-11
 47.13294    172.0 7.581e+03 8.483e-11
 47.17223    173.6 7.941e+03 1.136e-10
 47.20539    174.3 8.496e+03 1.686e-10
 47.22504    174.8 8.421e+03 1.579e-10
 47.25081    174.9 8.964e+03 2.314e-10
 47.29010    174.3 9.378e+03 3.068e-10
 47.31947    173.9 1.003e+04 4.530e-10
 47.33902    173.6 1.093e+04 7.443e-10
 47.35866    173.3 1.193e+04 1.248e-09
 47.37831    173.1 1.285e+04 1.907e-09
 47.39795    172.5 1.363e+04 2.508e-09
 47.41297    171.5 1.427e+04 2.634e-09
 47.42279    171.9 1.384e+04 2.530e-09
 47.43724    170.6 1.423e+04 2.570e-09
 47.45689    169.0 1.427e+04 2.481e-09
 47.47653    167.2 1.420e+04 2.259e-09
 47.49617    165.8 1.400e+04 1.997e-09
 47.52574    162.4 1.354e+04 1.244e-09
 47.56513    158.3 1.294e+04 7.552e-10
 47.60129    154.3 1.191e+04 4.303e-10
 47.62093    156.7 1.312e+04 8.840e-10
 47.64371    152.5 1.189e+04 4.717e-10
 47.68300    149.2 1.096e+04 3.398e-10
 47.70620    146.1 1.074e+04 3.319e-10
 47.71593    146.3 1.077e+04 3.470e-10
 47.73191    145.1 1.077e+04 3.532e-10
 47.75156    143.6 1.078e+04 3.839e-10
 47.77120    142.5 1.083e+04 4.274e-10
 47.79085    141.3 1.093e+04 4.638e-10
 47.80886    140.2 1.095e+04 4.671e-10
 47.81868    139.8 1.094e+04 4.525e-10
 47.83014    138.6 1.087e+04 4.153e-10
 47.84978    138.0 1.076e+04 3.784e-10
 47.87935    136.7 1.061e+04 3.126e-10
 47.91873    134.5 1.017e+04 2.420e-10
 47.95802    132.5 9.867e+03 2.280e-10
 47.99718    131.2 9.823e+03 2.293e-10
 48.03647    130.4 9.672e+03 2.219e-10
 48.07589    129.5 9.932e+03 2.623e-10
 48.11518    128.3 1.037e+04 3.343e-10
 48.15447    127.2 1.064e+04 3.956e-10
 48.18384    127.0 1.094e+04 4.808e-10
 48.20339    127.0 1.122e+04 5.675e-10
 48.21458    126.9 1.151e+04 6.680e-10
 48.22440    126.7 1.140e+04 6.541e-10
 48.24268    126.8 1.164e+04 7.625e-10
 48.26232    126.9 1.183e+04 8.491e-10
 48.28197    127.1 1.185e+04 8.578e-10
 48.30161    127.3 1.181e+04 8.421e-10
 48.32125    127.7 1.165e+04 7.745e-10
 48.34090    128.1 1.137e+04 6.608e-10
 48.36054    128.7 1.100e+04 5.210e-10
 48.38019    128.8 1.065e+04 4.042e-10
 48.39983    128.8 1.040e+04 3.364e-10
 48.41262    129.7 1.038e+04 3.336e-10
 48.43236    129.3 9.828e+03 2.304e-10
 48.46879    130.3 9.471e+03 1.848e-10
 48.50808    131.7 9.266e+03 1.645e-10
 48.54736    133.3 9.198e+03 1.567e-10
 48.58255    134.8 9.258e+03 1.552e-10
 48.60219    134.8 9.298e+03 1.638e-10
 48.62594    136.2 9.374e+03 1.686e-10
 48.66523    137.3 9.580e+03 1.862e-10
 48.70452    138.7 1.012e+04 2.465e-10
 48.74381    138.9 1.062e+04 3.316e-10
 48.77318    138.7 1.080e+04 3.741e-10
 48.79273    139.0 1.107e+04 4.406e-10
 48.80842    139.3 1.148e+04 5.605e-10
 48.81824    139.0 1.143e+04 5.453e-10
 48.83202    139.1 1.186e+04 6.954e-10
 48.85166    139.0 1.227e+04 8.547e-10
 48.87131    138.8 1.271e+04 1.019e-09
 48.89095    138.1 1.318e+04 1.200e-09
 48.91060    137.1 1.362e+04 1.429e-09
 48.93024    136.2 1.401e+04 1.730e-09
 48.94989    135.4 1.432e+04 2.097e-09
 48.96953    134.7 1.452e+04 2.442e-09
 48.98918    134.2 1.464e+04 2.688e-09
 49.00636    133.8 1.474e+04 2.893e-09
 49.01619    132.9 1.517e+04 3.472e-09
 49.02847    132.6 1.518e+04 3.417e-09
 49.04017    132.3 1.518e+04 3.210e-09
 49.04999    132.5 1.576e+04 4.180e-09
 49.06776    132.3 1.575e+04 4.090e-09
 49.08740    132.0 1.564e+04 3.789e-09
 49.10705    131.5 1.553e+04 3.305e-09
 49.12669    130.3 1.574e+04 2.807e-09
 49.14634    127.7 1.642e+04 2.840e-09
 49.16598    124.5 1.748e+04 3.227e-09
 49.18562    122.2 1.784e+04 4.004e-09
 49.20031    120.8 1.799e+04 4.728e-09
 49.20913    119.9 1.815e+04 5.744e-09
 49.21404    118.6 1.819e+04 7.519e-09
 49.21991    118.6 1.841e+04 9.494e-09
 49.22973    118.5 1.892e+04 1.182e-08
 49.23955    118.2 1.970e+04 1.494e-08
 49.24937    117.5 2.055e+04 2.031e-08
 49.25915    117.1 2.119e+04 2.988e-08
 49.26897    116.8 2.175e+04 2.711e-08
 49.27884    116.5 2.253e+04 2.983e-08
 49.28866    116.0 2.293e+04 2.919e-08
 49.29848    115.0 2.352e+04 2.603e-08
 49.30810    113.7 2.429e+04 2.071e-08
 49.31301    113.1 2.456e+04 1.684e-08
 49.31813    111.6 2.377e+04 1.298e-08
 49.32795    107.6 2.372e+04 9.402e-09
 49.33777    102.8 2.973e+04 5.051e-09
 49.34760     82.7 4.817e+04 3.492e-09
 49.35742     40.4 8.560e+04 2.909e-09
 49.36724      0.5 5.494e+04 5.810e-08
 49.37706    -26.5 2.981e+04 7.743e-07
 49.38689    -57.0 4.565e+04 6.716e-08
 49.39671    -90.9 3.094e+04 7.217e-09
 49.40653   -102.6 1.951e+04 2.992e-09
 49.41198   -108.3 1.790e+04 1.674e-09
 49.41689   -110.7 1.766e+04 1.495e-09
 49.42618   -116.1 1.610e+04 9.718e-10
 49.44096   -123.4 1.404e+04 6.023e-10
 49.46065   -132.2 1.138e+04 3.973e-10
 49.47834   -134.5 1.128e+04 3.819e-10
 49.48816   -134.7 1.125e+04 3.758e-10
 49.49994   -136.9 1.135e+04 3.845e-10
 49.51959   -139.1 1.143e+04 4.099e-10
 49.53923   -141.0 1.148e+04 4.333e-10
 49.55888   -142.5 1.149e+04 4.474e-10
 49.57852   -143.8 1.149e+04 4.529e-10
 49.59816   -144.9 1.141e+04 4.533e-10
 49.61003   -145.5 1.133e+04 4.452e-10
 49.61985   -145.8 1.123e+04 4.308e-10
 49.63745   -146.2 1.111e+04 4.179e-10
 49.65710   -146.4 1.105e+04 4.106e-10
 49.67674   -146.5 1.104e+04 4.088e-10
 49.69639   -146.5 1.104e+04 4.113e-10
 49.71603   -146.3 1.109e+04 4.393e-10
 49.73568   -146.0 1.120e+04 4.840e-10
 49.75532   -145.5 1.129e+04 5.295e-10
 49.77497   -144.8 1.137e+04 5.627e-10
 49.79461   -144.1 1.142e+04 5.780e-10
 49.80797   -143.5 1.142e+04 5.791e-10
 49.81780   -143.3 1.150e+04 6.144e-10
 49.83390   -142.6 1.146e+04 5.977e-10
 49.85355   -141.8 1.134e+04 5.467e-10
 49.87319   -141.1 1.120e+04 4.922e-10
 49.89284   -140.5 1.114e+04 4.559e-10
 49.92240   -140.0 1.118e+04 4.310e-10
 49.96179   -138.1 1.111e+04 4.340e-10
 49.99629   -136.2 1.118e+04 4.583e-10
 50.01594   -136.2 1.111e+04 4.610e-10
 50.04037   -134.3 1.130e+04 4.996e-10
 50.07966   -132.6 1.171e+04 5.770e-10
 50.11895   -131.3 1.221e+04 7.385e-10
 50.14832   -130.8 1.270e+04 9.616e-10
 50.16786   -130.6 1.300e+04 1.155e-09
 50.18751   -130.3 1.334e+04 1.426e-09
 50.20387   -129.7 1.355e+04 1.611e-09
 50.21369   -129.4 1.379e+04 1.762e-09
 50.22680   -128.7 1.387e+04 1.867e-09
 50.24644   -128.1 1.383e+04 1.868e-09
 50.26609   -127.2 1.346e+04 1.636e-09
 50.28573   -126.6 1.298e+04 1.242e-09
 50.30538   -126.6 1.262e+04 9.304e-10
 50.32502   -127.9 1.281e+04 8.137e-10
 50.34467   -130.3 1.404e+04 8.590e-10
 50.36431   -132.6 1.580e+04 1.279e-09
 50.37432   -134.2 1.690e+04 2.276e-09
 50.38414   -134.8 1.891e+04 7.522e-09
 50.40182   -135.3 1.939e+04 1.020e-08
 50.41164   -133.9 1.980e+04 1.203e-08
 50.42324   -134.6 2.005e+04 1.389e-08
 50.44289   -135.5 2.004e+04 1.411e-08
 50.46253   -136.2 1.927e+04 1.159e-08
 50.48218   -136.6 1.800e+04 7.933e-09
 50.50182   -137.2 1.662e+04 5.235e-09
 50.52147   -138.0 1.539e+04 3.639e-09
 50.54111   -138.6 1.446e+04 2.780e-09
 50.56076   -138.7 1.386e+04 2.328e-09
 50.58040   -138.6 1.347e+04 2.068e-09
 50.59976   -137.9 1.316e+04 1.889e-09
 50.60959   -137.5 1.374e+04 2.355e-09
 50.61969   -136.7 1.350e+04 2.181e-09
 50.63934   -135.8 1.328e+04 2.032e-09
 50.65898   -135.1 1.313e+04 1.912e-09
 50.67863   -134.7 1.315e+04 1.879e-09
 50.69827   -134.5 1.355e+04 1.985e-09
 50.71792   -134.5 1.427e+04 2.276e-09
 50.73756   -134.6 1.502e+04 2.707e-09
 50.75721   -134.7 1.554e+04 3.138e-09
 50.77685   -135.0 1.569e+04 3.350e-09
 50.79650   -135.3 1.564e+04 3.372e-09
 50.80753   -135.2 1.502e+04 2.976e-09
 50.81371   -135.2 1.611e+04 4.163e-09
 50.82231   -136.4 1.752e+04 7.215e-09
 50.83578   -135.8 1.599e+04 4.579e-09
 50.85543   -135.3 1.447e+04 2.814e-09
 50.87507   -134.8 1.320e+04 1.805e-09
 50.90464   -134.3 1.228e+04 1.255e-09
 50.94403   -132.5 1.150e+04 9.143e-10
 50.98332   -130.0 1.095e+04 7.442e-10
 51.02261   -127.6 1.082e+04 7.004e-10
 51.06190   -125.2 1.079e+04 6.924e-10
 51.10118   -123.1 1.085e+04 7.126e-10
 51.14047   -121.3 1.112e+04 8.269e-10
 51.17976   -119.8 1.151e+04 1.009e-09
 51.20362   -118.6 1.190e+04 1.235e-09
 51.22327   -119.3 1.211e+04 1.364e-09
 51.25086   -119.3 1.220e+04 1.444e-09
 51.27050   -120.9 1.164e+04 1.207e-09
 51.28771   -120.7 1.190e+04 1.369e-09
 51.30726   -121.8 1.255e+04 1.474e-09
 51.32690   -128.8 1.635e+04 1.867e-09
 51.34655   -140.5 2.278e+04 1.064e-08
 51.36123   -144.0 2.271e+04 4.431e-08
 51.37101   -144.8 2.278e+04 9.840e-08
 51.38083   -145.6 2.295e+04 1.444e-07
 51.39065   -146.9 2.301e+04 1.548e-07
 51.40047   -148.3 2.307e+04 1.304e-07
 51.40619   -149.6 2.340e+04 6.190e-08
 51.41110   -148.7 2.268e+04 4.673e-08
 51.42012   -151.9 2.327e+04 1.814e-08
 51.42994   -158.4 2.251e+04 5.829e-09
 51.43976   -166.5 1.883e+04 2.260e-09
 51.44959   -171.9 1.582e+04 1.557e-09
 51.46437   -175.7 1.439e+04 1.330e-09
 51.48406   -181.4 1.220e+04 1.071e-09
 51.50371   -184.3 1.167e+04 1.009e-09
 51.52335   -185.5 1.151e+04 1.085e-09
 51.54300   -186.5 1.167e+04 1.230e-09
 51.56264   -187.6 1.176e+04 1.296e-09
 51.58229   -189.0 1.175e+04 1.289e-09
 51.59932   -190.4 1.163e+04 1.224e-09
 51.60914   -190.9 1.170e+04 1.277e-09
 51.62158   -192.4 1.157e+04 1.203e-09
 51.64122   -194.2 1.142e+04 1.099e-09
 51.66087   -196.2 1.137e+04 1.023e-09
 51.68051   -198.6 1.139e+04 1.004e-09
 51.69865   -201.1 1.164e+04 1.031e-09
 51.70848   -199.8 1.091e+04 7.981e-10
 51.71980   -202.0 1.117e+04 8.452e-10
 51.73944   -204.2 1.154e+04 9.804e-10
 51.75909   -206.2 1.191e+04 1.180e-09
 51.77873   -208.1 1.227e+04 1.428e-09
 51.79727   -209.9 1.266e+04 1.726e-09
 51.80709   -210.5 1.291e+04 1.861e-09
 51.81802   -212.4 1.341e+04 2.265e-09
 51.83767   -214.3 1.395e+04 2.734e-09
 51.85731   -216.3 1.447e+04 3.093e-09
 51.87696   -218.4 1.466e+04 3.237e-09
 51.89660   -220.5 1.466e+04 3.257e-09
 51.91625   -222.4 1.448e+04 3.057e-09
 51.93589   -224.6 1.411e+04 2.535e-09
 51.95554   -227.3 1.381e+04 2.088e-09
 51.97518   -230.6 1.376e+04 1.895e-09
 51.99483   -234.1 1.378e+04 1.870e-09
 52.00504   -237.5 1.406e+04 2.165e-09
 52.01486   -237.1 1.373e+04 1.974e-09
 52.03412   -239.6 1.425e+04 2.609e-09
 52.05376   -241.5 1.474e+04 3.342e-09
 52.07341   -243.4 1.510e+04 3.799e-09
 52.09305   -245.7 1.519e+04 3.912e-09
 52.11269   -248.3 1.516e+04 3.791e-09
 52.13234   -251.3 1.479e+04 3.215e-09
 52.14665   -254.9 1.429e+04 2.656e-09
 52.15647   -252.3 1.463e+04 3.002e-09
 52.17163   -256.2 1.408e+04 2.487e-09
 52.19127   -260.2 1.383e+04 2.238e-09
 52.20298   -264.0 1.377e+04 2.171e-09
 52.21281   -262.2 1.411e+04 2.454e-09
 52.23056   -266.1 1.408e+04 2.436e-09
 52.25021   -269.8 1.399e+04 2.405e-09
 52.26985   -273.0 1.369e+04 2.263e-09
 52.28950   -275.6 1.324e+04 1.984e-09
 52.30914   -277.5 1.271e+04 1.640e-09
 52.32879   -278.8 1.218e+04 1.306e-09
 52.34843   -279.8 1.167e+04 1.023e-09
 52.36808   -280.5 1.121e+04 8.048e-10
 52.38772   -280.9 1.082e+04 6.469e-10
 52.40093   -281.1 1.053e+04 5.367e-10
 52.41075   -281.4 1.054e+04 5.468e-10
 52.42701   -281.4 1.041e+04 4.880e-10
 52.44666   -281.1 1.036e+04 4.559e-10
 52.46630   -280.6 1.036e+04 4.483e-10
 52.48595   -280.1 1.037e+04 4.479e-10
 52.50559   -279.6 1.043e+04 4.534e-10
 52.52523   -279.1 1.048e+04 4.652e-10
 52.54488   -278.7 1.051e+04 4.792e-10
 52.56452   -278.2 1.051e+04 4.907e-10
 52.58417   -277.7 1.050e+04 4.938e-10
 52.59464   -277.3 1.058e+04 4.922e-10
 52.59953   -276.3 1.034e+04 4.215e-10
 52.60870   -276.7 1.040e+04 4.350e-10
 52.62346   -276.3 1.040e+04 4.408e-10
 52.64310   -275.9 1.045e+04 4.439e-10
 52.66275   -275.5 1.055e+04 4.502e-10
 52.68239   -275.1 1.069e+04 4.656e-10
 52.70204   -274.8 1.096e+04 4.947e-10
 52.72168   -274.7 1.143e+04 5.544e-10
 52.74133   -274.8 1.214e+04 6.755e-10
 52.76097   -274.9 1.299e+04 9.070e-10
 52.78062   -274.9 1.381e+04 1.275e-09
 52.79682   -274.8 1.435e+04 1.768e-09
 52.80665   -275.2 1.463e+04 1.985e-09
 52.81991   -274.8 1.496e+04 2.716e-09
 52.83955   -274.0 1.518e+04 3.473e-09
 52.85920   -273.1 1.536e+04 4.085e-09
 52.87884   -272.2 1.548e+04 4.344e-09
 52.89849   -271.3 1.551e+04 4.394e-09
 52.91813   -270.3 1.547e+04 4.192e-09
 52.93777   -269.4 1.522e+04 3.803e-09
 52.95742   -268.4 1.498e+04 3.256e-09
 52.97706   -267.5 1.468e+04 2.659e-09
 52.99477   -266.7 1.429e+04 2.162e-09
 53.00459   -267.3 1.424e+04 2.097e-09
 53.01635   -266.4 1.372e+04 1.663e-09
 53.03281   -265.6 1.322e+04 1.349e-09
 53.04263   -264.4 1.321e+04 1.300e-09
 53.05564   -263.6 1.274e+04 1.040e-09
 53.07529   -262.8 1.236e+04 8.556e-10
 53.09493   -261.8 1.206e+04 7.363e-10
 53.11458   -260.8 1.182e+04 6.660e-10
 53.13422   -259.7 1.165e+04 6.291e-10
 53.15387   -258.4 1.156e+04 6.162e-10
 53.17351   -257.1 1.153e+04 6.143e-10
 53.19272   -255.9 1.152e+04 6.168e-10
 53.20254   -256.0 1.137e+04 5.643e-10
 53.21280   -254.8 1.137e+04 5.749e-10
 53.23245   -253.6 1.140e+04 5.935e-10
 53.25209   -252.4 1.141e+04 6.132e-10
 53.27174   -251.2 1.139e+04 6.287e-10
 53.29138   -250.0 1.136e+04 6.364e-10
 53.31103   -248.9 1.135e+04 6.383e-10
 53.33067   -247.9 1.126e+04 6.409e-10
 53.35031   -246.8 1.111e+04 6.314e-10
 53.36996   -245.8 1.095e+04 5.932e-10
 53.38960   -244.6 1.077e+04 5.293e-10
 53.40049   -243.1 1.056e+04 4.519e-10
 53.41031   -242.8 1.053e+04 4.331e-10
 53.42889   -241.1 1.042e+04 3.776e-10
 53.45846   -239.5 1.037e+04 3.439e-10
 53.49785   -238.2 1.028e+04 3.102e-10
 53.53714   -236.3 1.022e+04 2.863e-10
 53.57643   -234.3 1.022e+04 2.823e-10
 53.59863   -232.4 1.050e+04 2.930e-10
 53.61827   -233.2 1.056e+04 2.978e-10
 53.65500   -232.6 1.154e+04 4.661e-10
 53.68437   -231.1 1.208e+04 6.211e-10
 53.70392   -230.9 1.246e+04 8.161e-10
 53.72357   -230.8 1.302e+04 1.245e-09
 53.74321   -230.8 1.359e+04 1.794e-09
 53.76286   -230.8 1.419e+04 2.450e-09
 53.78250   -230.8 1.472e+04 3.058e-09
 53.79638   -231.1 1.520e+04 3.521e-09
 53.80620   -231.5 1.543e+04 3.398e-09
 53.82179   -232.0 1.590e+04 3.458e-09
 53.84143   -232.7 1.629e+04 3.387e-09
 53.86108   -233.4 1.673e+04 3.205e-09
 53.88072   -234.1 1.716e+04 3.021e-09
 53.90037   -234.7 1.754e+04 2.868e-09
 53.91897   -235.4 1.782e+04 2.743e-09
 53.92880   -233.0 1.800e+04 7.419e-09
 53.93966   -233.6 1.848e+04 7.596e-09
 53.95930   -234.3 1.865e+04 7.678e-09
 53.97895   -235.0 1.862e+04 7.638e-09
 53.99433   -235.5 1.859e+04 7.011e-09
 54.00415   -235.9 1.996e+04 4.710e-09
 54.01824   -236.2 1.895e+04 3.752e-09
 54.03788   -236.4 1.778e+04 2.887e-09
 54.05753   -236.4 1.657e+04 2.193e-09
 54.07717   -236.1 1.538e+04 1.659e-09
 54.09682   -235.3 1.423e+04 1.273e-09
 54.11646   -234.4 1.319e+04 1.006e-09
 54.13611   -233.4 1.233e+04 8.220e-10
 54.15575   -232.2 1.167e+04 6.968e-10
 54.17540   -230.8 1.119e+04 6.099e-10
 54.19228   -229.3 1.086e+04 5.493e-10
 54.20210   -229.5 1.041e+04 5.025e-10
 54.21468   -227.9 1.034e+04 4.735e-10
 54.23433   -226.1 1.033e+04 4.550e-10
 54.25397   -224.3 1.034e+04 4.460e-10
 54.27362   -222.4 1.038e+04 4.421e-10
 54.29326   -220.5 1.047e+04 4.413e-10
 54.31291   -218.6 1.058e+04 4.459e-10
 54.33255   -216.7 1.073e+04 4.565e-10
 54.35220   -214.8 1.098e+04 4.778e-10
 54.36697   -213.0 1.137e+04 5.178e-10
 54.37679   -211.8 1.087e+04 4.720e-10
 54.39022   -209.7 1.102e+04 5.047e-10
 54.40004   -210.1 1.107e+04 5.089e-10
 54.41113   -208.0 1.133e+04 5.619e-10
 54.43078   -205.7 1.170e+04 6.421e-10
 54.45042   -203.3 1.215e+04 7.506e-10
 54.47007   -200.8 1.263e+04 8.867e-10
 54.48971   -198.1 1.312e+04 1.047e-09
 54.50936   -195.4 1.355e+04 1.231e-09
 54.52900   -192.5 1.393e+04 1.430e-09
 54.54865   -189.5 1.441e+04 1.643e-09
 54.56829   -186.2 1.516e+04 1.906e-09
 54.58794   -182.6 1.633e+04 2.264e-09
 54.59799   -178.6 1.769e+04 2.634e-09
 54.60781   -178.9 1.584e+04 2.165e-09
 54.62722   -174.8 1.675e+04 2.420e-09
 54.64687   -170.5 1.763e+04 2.647e-09
 54.66651   -165.9 1.835e+04 2.838e-09
 54.68616   -161.2 1.901e+04 2.997e-09
 54.70580   -156.2 2.020e+04 3.235e-09
 54.72545   -150.7 2.141e+04 3.519e-09
 54.74013   -145.7 2.080e+04 3.293e-09
 54.74991   -144.3 2.078e+04 3.340e-09
 54.75973   -140.0 2.112e+04 3.587e-09
 54.76955   -136.7 2.154e+04 3.678e-09
 54.77937   -132.8 2.225e+04 3.825e-09
 54.78920   -129.0 2.269e+04 3.911e-09
 54.79584   -124.8 2.331e+04 4.022e-09
 54.80075   -125.9 2.189e+04 3.246e-09
 54.80884   -121.8 2.211e+04 3.181e-09
 54.81486   -120.2 2.762e+04 2.828e-09
 54.81977   -119.0 2.917e+04 5.517e-09
 54.82849   -125.3 8.191e+04 2.440e-09
 54.83831   -137.9 7.787e+04 1.567e-08
 54.84530   -147.1 3.127e+04 1.777e-06
 54.84773   -141.2 7.177e+04 2.806e-08
 54.85054   -145.0 3.384e+04 1.347e-06
 54.85545   -151.8 1.870e+04 2.135e-05
 54.86036   -161.7 1.708e+04 4.945e-05
 54.86527   -176.1 1.852e+04 2.579e-05
 54.87018   -194.9 2.755e+04 3.476e-06
 54.87509   -215.3 7.284e+04 3.448e-08
 54.88000   -231.6 1.821e+05 7.275e-10
 54.88492   -245.6 1.789e+05 3.333e-10
 54.88983   -248.4 1.441e+05 4.242e-10
 54.89479   -235.1 1.296e+05 5.240e-10
 54.89970   -219.0 9.625e+04 1.057e-09
 54.90704   -216.8 5.754e+04 7.289e-09
 54.91689   -218.4 1.888e+04 7.413e-07
 54.92423   -219.1 1.824e+04 5.964e-06
 54.92681   -221.0 1.760e+04 1.338e-05
 54.92927   -222.8 1.764e+04 1.413e-05
 54.93403   -224.5 1.745e+04 1.693e-05
 54.93894   -226.3 1.767e+04 1.451e-05
 54.94385   -231.1 1.956e+04 5.730e-06
 54.94671   -244.6 2.753e+04 7.328e-07
 54.94916   -238.5 2.649e+04 1.562e-06
 54.95367   -264.1 6.755e+04 2.441e-08
 54.95858   -289.0 1.960e+05 5.278e-10
 54.96597   -305.8 2.854e+05 1.638e-10
 54.97582   -337.5 2.512e+05 1.353e-10
 54.98564   -376.4 1.033e+05 3.218e-10
 54.99384   -391.7 5.105e+04 6.649e-10
 54.99875   -398.3 7.857e+04 8.564e-10
 55.00529   -405.5 5.085e+04 1.435e-09
 55.02007   -412.1 3.845e+04 2.295e-09
 55.03976   -416.8 2.551e+04 4.180e-09
 55.05941   -417.9 2.574e+04 5.675e-09
 55.07905   -418.0 2.595e+04 6.324e-09
 55.09870   -417.2 2.530e+04 6.671e-09
 55.11834   -415.8 2.335e+04 6.778e-09
 55.13799   -414.3 2.167e+04 6.381e-09
 55.15763   -412.6 2.034e+04 5.765e-09
 55.17728   -410.8 1.921e+04 5.012e-09
 55.19183   -409.0 1.822e+04 4.240e-09
 55.20165   -411.6 1.843e+04 4.283e-09
 55.21657   -409.3 1.754e+04 3.601e-09
 55.23621   -407.2 1.686e+04 3.210e-09
 55.25313   -405.3 1.629e+04 3.092e-09
 55.26295   -403.6 1.550e+04 2.457e-09
 55.27550   -402.0 1.514e+04 2.260e-09
 55.29515   -400.4 1.493e+04 2.229e-09
 55.31479   -398.8 1.486e+04 2.243e-09
 55.33444   -397.2 1.474e+04 2.328e-09
 55.35408   -395.5 1.470e+04 2.433e-09
 55.37373   -393.9 1.467e+04 2.516e-09
 55.38978   -392.3 1.463e+04 2.545e-09
 55.39960   -392.6 1.461e+04 2.752e-09
 55.41302   -391.0 1.455e+04 2.763e-09
 55.43266   -389.4 1.434e+04 2.695e-09
 55.45230   -388.0 1.408e+04 2.488e-09
 55.47195   -386.5 1.376e+04 2.212e-09
 55.49159   -385.2 1.340e+04 1.919e-09
 55.51124   -383.9 1.305e+04 1.647e-09
 55.53088   -382.8 1.273e+04 1.417e-09
 55.55053   -381.8 1.246e+04 1.233e-09
 55.57017   -381.0 1.224e+04 1.093e-09
 55.58773   -380.2 1.208e+04 9.920e-10
 55.59755   -380.6 1.207e+04 9.881e-10
 55.60946   -379.8 1.193e+04 9.045e-10
 55.62911   -379.1 1.181e+04 8.407e-10
 55.64875   -378.4 1.171e+04 7.878e-10
 55.66840   -377.6 1.160e+04 7.384e-10
 55.68804   -376.8 1.148e+04 6.883e-10
 55.70112   -376.0 1.135e+04 6.356e-10
 55.71094   -375.8 1.139e+04 6.438e-10
 55.72733   -375.0 1.126e+04 5.906e-10
 55.74698   -374.2 1.113e+04 5.382e-10
 55.76662   -373.3 1.100e+04 4.905e-10
 55.78567   -372.5 1.089e+04 4.498e-10
 55.79550   -372.6 1.075e+04 4.078e-10
 55.80591   -371.7 1.066e+04 3.753e-10
 55.82556   -370.6 1.057e+04 3.479e-10
 55.84520   -369.2 1.050e+04 3.269e-10
 55.86484   -367.5 1.047e+04 3.151e-10
 55.88449   -365.7 1.045e+04 3.110e-10
 55.90413   -364.5 1.043e+04 3.087e-10
 55.92378   -363.0 1.041e+04 3.061e-10
 55.94342   -361.9 1.038e+04 3.027e-10
 55.96307   -360.3 1.034e+04 2.979e-10
 55.98271   -359.3 1.031e+04 2.937e-10
 55.99344   -357.6 1.028e+04 2.890e-10
 56.01318   -357.0 1.027e+04 2.841e-10
 56.05167   -354.3 1.026e+04 2.804e-10
 56.09096   -351.5 1.032e+04 2.841e-10
 56.12032   -349.5 1.041e+04 2.900e-10
 56.13929   -348.9 1.059e+04 3.181e-10
 56.14911   -349.7 1.081e+04 3.725e-10
 56.15952   -349.0 1.099e+04 4.357e-10
 56.17916   -348.3 1.114e+04 5.183e-10
 56.19139   -347.2 1.128e+04 6.141e-10
 56.20121   -346.1 1.101e+04 4.619e-10
 56.21845   -345.2 1.113e+04 5.348e-10
 56.23810   -344.1 1.126e+04 6.122e-10
 56.25774   -342.9 1.140e+04 6.936e-10
 56.27739   -341.6 1.156e+04 7.826e-10
 56.29703   -340.3 1.174e+04 8.806e-10
 56.31667   -339.1 1.193e+04 9.923e-10
 56.33632   -337.8 1.211e+04 1.123e-09
 56.35596   -336.5 1.230e+04 1.279e-09
 56.37561   -335.2 1.251e+04 1.462e-09
 56.38934   -334.0 1.273e+04 1.675e-09
 56.39916   -333.8 1.253e+04 1.392e-09
 56.41490   -332.5 1.284e+04 1.647e-09
 56.43454   -331.2 1.318e+04 1.947e-09
 56.45419   -330.0 1.351e+04 2.272e-09
 56.47383   -328.9 1.381e+04 2.585e-09
 56.49348   -327.8 1.403e+04 2.842e-09
 56.51312   -326.8 1.417e+04 3.010e-09
 56.53277   -326.0 1.422e+04 3.078e-09
 56.55241   -325.0 1.422e+04 3.093e-09
 56.57206   -324.1 1.416e+04 3.050e-09
 56.58728   -323.0 1.405e+04 2.974e-09
 56.59711   -323.3 1.414e+04 2.865e-09
 56.61135   -322.3 1.422e+04 2.972e-09
 56.63099   -321.4 1.430e+04 3.046e-09
 56.65064   -320.5 1.439e+04 3.110e-09
 56.67028   -319.7 1.447e+04 3.145e-09
 56.68993   -319.1 1.450e+04 3.146e-09
 56.70957   -318.4 1.436e+04 3.132e-09
 56.72921   -317.7 1.419e+04 2.975e-09
 56.74886   -316.9 1.391e+04 2.717e-09
 56.76850   -316.1 1.357e+04 2.421e-09
 56.78523   -315.2 1.316e+04 2.117e-09
 56.79505   -315.2 1.297e+04 2.009e-09
 56.80779   -314.3 1.258e+04 1.739e-09
 56.82744   -313.3 1.224e+04 1.525e-09
 56.84708   -312.4 1.194e+04 1.359e-09
 56.86673   -311.5 1.169e+04 1.230e-09
 56.88637   -310.5 1.149e+04 1.131e-09
 56.90602   -309.5 1.130e+04 1.049e-09
 56.92566   -308.5 1.112e+04 9.775e-10
 56.94531   -307.5 1.097e+04 9.108e-10
 56.96495   -306.5 1.082e+04 8.466e-10
 56.98318   -305.6 1.068e+04 7.840e-10
 56.99300   -305.4 1.058e+04 7.558e-10
 57.00424   -304.5 1.040e+04 6.893e-10
 57.02389   -303.4 1.020e+04 6.145e-10
 57.03528   -302.0 9.962e+03 5.322e-10
 57.04510   -302.2 9.916e+03 5.138e-10
 57.06318   -300.4 9.730e+03 4.489e-10
 57.08282   -298.5 9.632e+03 4.140e-10
 57.11239   -297.0 9.648e+03 4.051e-10
 57.15177   -295.2 9.620e+03 3.931e-10
 57.18132   -293.0 9.593e+03 3.893e-10
 57.20096   -292.9 9.324e+03 3.280e-10
 57.23035   -290.6 9.306e+03 3.254e-10
 57.26964   -288.4 9.349e+03 3.378e-10
 57.30893   -286.4 9.459e+03 3.703e-10
 57.34822   -284.5 9.557e+03 4.060e-10
 57.37759   -283.6 9.669e+03 4.569e-10
 57.38889   -283.1 9.724e+03 4.832e-10
 57.39872   -282.2 9.575e+03 4.293e-10
 57.41678   -281.4 9.637e+03 4.551e-10
 57.43643   -281.1 9.687e+03 4.762e-10
 57.45607   -280.6 9.746e+03 5.056e-10
 57.47345   -280.2 9.811e+03 5.249e-10
 57.48327   -280.5 9.975e+03 5.549e-10
 57.49536   -280.2 1.009e+04 5.765e-10
 57.51501   -279.8 1.018e+04 5.826e-10
 57.53465   -279.6 1.023e+04 5.740e-10
 57.55429   -279.5 1.023e+04 4.946e-10
 57.57712   -279.7 1.004e+04 3.971e-10
 57.59676   -276.9 1.007e+04 4.262e-10
 57.62315   -276.4 9.944e+03 3.821e-10
 57.66254   -275.7 9.505e+03 2.820e-10
 57.70183   -275.0 8.944e+03 1.925e-10
 57.74112   -274.2 8.488e+03 1.397e-10
 57.78040   -273.2 8.346e+03 1.225e-10
 57.81969   -272.0 8.309e+03 1.183e-10
 57.85898   -270.7 8.306e+03 1.192e-10
 57.89827   -269.5 8.399e+03 1.286e-10
 57.93756   -268.5 8.544e+03 1.430e-10
 57.97311   -267.6 8.681e+03 1.549e-10
 57.99275   -265.4 8.582e+03 1.398e-10
 58.01614   -264.5 8.724e+03 1.534e-10
 58.05543   -263.7 8.828e+03 1.603e-10
 58.09472   -263.0 8.887e+03 1.629e-10
 58.13401   -262.3 8.919e+03 1.644e-10
 58.17330   -261.4 8.961e+03 1.656e-10
 58.21259   -260.3 9.020e+03 1.701e-10
 58.25188   -259.0 9.080e+03 1.788e-10
 58.29117   -257.4 9.122e+03 1.853e-10
 58.33046   -255.7 9.133e+03 1.860e-10
 58.35981   -253.9 9.140e+03 1.806e-10
 58.37870   -252.6 9.121e+03 1.837e-10
 58.38865   -251.9 9.353e+03 2.308e-10
 58.40904   -250.1 9.439e+03 2.451e-10
 58.44833   -248.2 9.510e+03 2.506e-10
 58.48762   -246.1 9.529e+03 2.508e-10
 58.52691   -244.0 9.538e+03 2.480e-10
 58.56620   -241.9 9.525e+03 2.421e-10
 58.60549   -239.6 9.495e+03 2.335e-10
 58.64477   -237.2 9.466e+03 2.249e-10
 58.68406   -234.7 9.459e+03 2.196e-10
 58.72335   -232.0 9.464e+03 2.188e-10
 58.76264   -229.3 9.490e+03 2.203e-10
 58.78454   -226.6 9.548e+03 2.240e-10
 58.80418   -226.3 9.725e+03 2.790e-10
 58.84122   -223.5 9.827e+03 2.877e-10
 58.88051   -220.9 9.941e+03 3.024e-10
 58.91980   -218.3 1.005e+04 3.174e-10
 58.95909   -215.8 1.013e+04 3.269e-10
 58.99838   -213.5 1.017e+04 3.291e-10
 59.03767   -211.2 1.022e+04 3.240e-10
 59.07696   -208.9 1.020e+04 3.198e-10
 59.11625   -206.7 1.021e+04 3.181e-10
 59.15554   -204.6 1.024e+04 3.194e-10
 59.18043   -202.7 1.043e+04 3.563e-10
 59.20008   -202.5 1.050e+04 4.243e-10
 59.23412   -200.7 1.063e+04 4.643e-10
 59.25579   -199.2 1.084e+04 5.517e-10
 59.27544   -199.1 1.112e+04 7.512e-10
 59.31270   -198.0 1.140e+04 9.505e-10
 59.35199   -197.4 1.170e+04 1.170e-09
 59.39128   -197.2 1.195e+04 1.342e-09
 59.43057   -197.2 1.216e+04 1.437e-09
 59.46985   -198.6 1.226e+04 1.466e-09
 59.50914   -200.9 1.225e+04 1.396e-09
 59.53851   -202.9 1.223e+04 1.421e-09
 59.55806   -204.1 1.209e+04 1.330e-09
 59.57623   -205.6 1.174e+04 1.141e-09
 59.58605   -205.2 1.209e+04 1.541e-09
 59.59735   -206.4 1.188e+04 1.333e-09
 59.61700   -207.2 1.171e+04 1.126e-09
 59.63664   -207.7 1.146e+04 9.435e-10
 59.65628   -207.9 1.127e+04 8.118e-10
 59.67593   -208.1 1.118e+04 6.993e-10
 59.70549   -208.5 1.140e+04 6.156e-10
 59.74488   -208.5 1.137e+04 4.876e-10
 59.78417   -208.8 1.144e+04 4.790e-10
 59.82346   -209.5 1.169e+04 5.632e-10
 59.86275   -210.3 1.178e+04 7.534e-10
 59.90204   -210.7 1.163e+04 9.057e-10
 59.94133   -210.7 1.146e+04 9.352e-10
 59.97222   -210.7 1.131e+04 9.245e-10
 59.99187   -211.4 1.178e+04 1.224e-09
 60.01991   -210.5 1.153e+04 1.103e-09
 60.05920   -209.6 1.123e+04 9.435e-10
 60.09849   -208.5 1.089e+04 7.484e-10
 60.13213   -207.3 1.054e+04 5.611e-10
 60.15178   -206.5 1.045e+04 5.053e-10
 60.17707   -205.2 1.004e+04 3.421e-10
 60.21636   -203.8 9.690e+03 2.300e-10
 60.25565   -202.4 9.393e+03 1.588e-10
 60.29494   -200.9 9.088e+03 1.202e-10
 60.33422   -199.4 8.966e+03 1.022e-10
 60.36812   -197.8 8.975e+03 9.553e-11
 60.38776   -196.5 9.021e+03 9.711e-11
 60.41280   -195.0 8.998e+03 9.244e-11
 60.45209   -193.5 9.008e+03 9.243e-11
 60.49138   -192.4 9.219e+03 9.363e-11
 60.53067   -191.6 9.696e+03 1.171e-10
 60.56996   -190.8 1.001e+04 1.812e-10
 60.60925   -190.0 1.028e+04 2.880e-10
 60.64854   -189.1 1.060e+04 4.334e-10
 60.68783   -188.3 1.094e+04 6.036e-10
 60.72712   -187.5 1.128e+04 7.710e-10
 60.76401   -186.8 1.155e+04 8.887e-10
 60.78365   -185.5 1.139e+04 8.484e-10
 60.80570   -184.9 1.152e+04 8.970e-10
 60.84499   -184.2 1.154e+04 9.041e-10
 60.88428   -183.4 1.155e+04 8.601e-10
 60.92357   -182.2 1.148e+04 7.806e-10
 60.95294   -182.2 1.141e+04 7.715e-10
 60.97158   -181.6 1.124e+04 6.974e-10
 60.98141   -180.9 1.127e+04 6.826e-10
 60.99213   -180.5 1.114e+04 6.454e-10
 61.01177   -179.9 1.105e+04 6.105e-10
 61.02792   -179.2 1.099e+04 5.872e-10
 61.03774   -179.1 1.105e+04 6.029e-10
 61.05106   -178.4 1.103e+04 5.934e-10
 61.07071   -177.6 1.103e+04 5.934e-10
 61.09035   -177.0 1.106e+04 5.946e-10
 61.11000   -176.5 1.122e+04 6.117e-10
 61.12964   -176.0 1.137e+04 6.608e-10
 61.14929   -175.6 1.152e+04 7.295e-10
 61.16893   -175.2 1.167e+04 8.115e-10
 61.17935   -175.0 1.182e+04 8.984e-10
 61.18918   -174.6 1.186e+04 8.989e-10
 61.20822   -174.5 1.200e+04 9.907e-10
 61.22787   -174.4 1.209e+04 1.050e-09
 61.24751   -174.5 1.213e+04 1.070e-09
 61.26716   -174.6 1.213e+04 1.075e-09
 61.28680   -174.7 1.205e+04 1.054e-09
 61.30645   -174.7 1.195e+04 1.010e-09
 61.32609   -174.7 1.186e+04 9.698e-10
 61.34573   -174.6 1.181e+04 9.417e-10
 61.36538   -174.6 1.178e+04 9.226e-10
 61.37730   -174.6 1.175e+04 9.084e-10
 61.38712   -174.6 1.189e+04 9.503e-10
 61.40467   -174.6 1.187e+04 9.396e-10
 61.42431   -174.7 1.183e+04 9.217e-10
 61.44396   -174.8 1.176e+04 8.963e-10
 61.46360   -174.9 1.168e+04 8.666e-10
 61.47591   -174.9 1.161e+04 8.366e-10
 61.48574   -174.4 1.167e+04 8.910e-10
 61.50289   -174.4 1.166e+04 8.717e-10
 61.52254   -174.2 1.167e+04 8.538e-10
 61.54218   -174.0 1.169e+04 8.365e-10
 61.56183   -173.9 1.170e+04 8.164e-10
 61.57525   -173.8 1.167e+04 7.904e-10
 61.58507   -174.1 1.171e+04 7.942e-10
 61.60112   -173.9 1.165e+04 7.594e-10
 61.62076   -173.6 1.157e+04 7.218e-10
 61.64041   -173.2 1.149e+04 6.863e-10
 61.66005   -172.7 1.145e+04 6.583e-10
 61.67970   -172.1 1.144e+04 6.424e-10
 61.69934   -171.4 1.146e+04 6.391e-10
 61.71899   -170.7 1.148e+04 6.418e-10
 61.73863   -170.1 1.161e+04 6.464e-10
 61.75827   -169.8 1.181e+04 6.643e-10
 61.77319   -169.7 1.201e+04 7.061e-10
 61.78302   -170.5 1.220e+04 7.163e-10
 61.79756   -170.7 1.240e+04 8.301e-10
 61.81721   -171.0 1.269e+04 1.049e-09
 61.83685   -171.5 1.310e+04 1.415e-09
 61.85650   -172.2 1.356e+04 1.902e-09
 61.87614   -173.1 1.397e+04 2.399e-09
 61.89579   -174.2 1.421e+04 2.718e-09
 61.91409   -175.4 1.426e+04 2.809e-09
 61.92391   -174.9 1.385e+04 2.233e-09
 61.93508   -175.9 1.385e+04 2.262e-09
 61.95472   -176.6 1.367e+04 2.052e-09
 61.97114   -177.2 1.334e+04 1.695e-09
 61.99088   -177.1 1.285e+04 1.192e-09
 62.02367   -177.4 1.240e+04 9.335e-10
 62.06296   -176.9 1.205e+04 7.332e-10
 62.10225   -175.7 1.173e+04 5.620e-10
 62.14154   -174.3 1.166e+04 4.888e-10
 62.18083   -173.2 1.166e+04 4.540e-10
 62.22012   -172.3 1.161e+04 4.262e-10
 62.25941   -171.3 1.156e+04 4.071e-10
 62.29870   -170.4 1.156e+04 3.947e-10
 62.33799   -169.5 1.158e+04 3.800e-10
 62.36723   -168.6 1.155e+04 3.533e-10
 62.38687   -168.6 1.164e+04 3.816e-10
 62.41657   -167.8 1.155e+04 3.384e-10
 62.45586   -166.9 1.143e+04 3.009e-10
 62.49515   -165.8 1.132e+04 2.709e-10
 62.53444   -164.7 1.123e+04 2.466e-10
 62.57373   -163.3 1.116e+04 2.276e-10
 62.61302   -161.8 1.111e+04 2.186e-10
 62.65231   -160.1 1.109e+04 2.182e-10
 62.69160   -158.3 1.102e+04 2.276e-10
 62.73089   -156.3 1.097e+04 2.422e-10
 62.76312   -154.2 1.092e+04 2.591e-10
 62.78277   -154.6 1.106e+04 3.758e-10
 62.80044   -152.4 1.102e+04 3.719e-10
 62.82009   -152.1 1.122e+04 4.458e-10
 62.84875   -149.9 1.117e+04 4.350e-10
 62.88804   -147.7 1.112e+04 4.201e-10
 62.92733   -145.5 1.108e+04 4.085e-10
 62.96662   -143.3 1.104e+04 4.051e-10
 63.00591   -141.2 1.102e+04 4.076e-10
 63.04520   -139.1 1.100e+04 4.199e-10
 63.08449   -137.0 1.098e+04 4.324e-10
 63.12378   -135.0 1.097e+04 4.387e-10
 63.15902   -133.1 1.090e+04 4.339e-10
 63.17866   -133.3 1.088e+04 3.739e-10
 63.20236   -131.3 1.082e+04 3.521e-10
 63.24165   -129.3 1.074e+04 3.245e-10
 63.28094   -127.2 1.065e+04 2.958e-10
 63.32023   -125.1 1.057e+04 2.664e-10
 63.35952   -122.9 1.051e+04 2.380e-10
 63.39881   -120.6 1.045e+04 2.116e-10
 63.43810   -118.2 1.041e+04 1.883e-10
 63.47739   -115.8 1.037e+04 1.683e-10
 63.51668   -113.3 1.033e+04 1.514e-10
 63.55491   -110.9 1.029e+04 1.369e-10
 63.57456   -110.8 1.023e+04 1.117e-10
 63.59526   -108.4 1.022e+04 9.953e-11
 63.63455   -106.0 1.021e+04 8.934e-11
 63.67383   -103.6 1.020e+04 8.108e-11
 63.69643   -101.2 1.019e+04 7.439e-11
 63.71607   -101.0 1.019e+04 7.123e-11
 63.75241    -98.6 1.018e+04 6.573e-11
 63.79170    -96.3 1.015e+04 6.139e-11
 63.83099    -93.9 1.013e+04 5.882e-11
 63.87028    -91.5 1.013e+04 5.830e-11
 63.90957    -89.2 1.013e+04 5.833e-11
 63.94886    -87.0 1.015e+04 6.269e-11
 63.97045    -84.8 1.014e+04 7.391e-11
 63.99010    -84.6 1.013e+04 6.952e-11
 64.02744    -82.4 1.014e+04 8.264e-11
 64.06673    -80.3 1.017e+04 9.749e-11
 64.10602    -78.2 1.022e+04 1.134e-10
 64.14531    -76.3 1.028e+04 1.316e-10
 64.18460    -74.6 1.035e+04 1.570e-10
 64.22389    -73.1 1.044e+04 1.972e-10
 64.26318    -71.5 1.056e+04 2.635e-10
 64.30247    -70.0 1.071e+04 3.547e-10
 64.34176    -68.5 1.085e+04 4.445e-10
 64.36634    -67.1 1.090e+04 4.865e-10
 64.38599    -66.8 1.075e+04 3.927e-10
 64.42034    -65.3 1.074e+04 3.927e-10
 64.45963    -63.7 1.063e+04 3.413e-10
 64.49891    -61.9 1.059e+04 2.736e-10
 64.53820    -60.2 1.056e+04 2.297e-10
 64.57277    -58.5 1.056e+04 2.136e-10
 64.59241    -57.7 1.062e+04 2.444e-10
 64.61678    -55.9 1.061e+04 2.712e-10
 64.65607    -54.1 1.064e+04 3.281e-10
 64.69536    -52.3 1.071e+04 4.068e-10
 64.73465    -50.4 1.081e+04 4.845e-10
 64.76224    -48.7 1.085e+04 5.176e-10
 64.78188    -48.2 1.080e+04 4.904e-10
 64.81323    -46.4 1.080e+04 4.757e-10
 64.85252    -44.6 1.073e+04 4.006e-10
 64.89181    -42.7 1.069e+04 3.276e-10
 64.93110    -40.8 1.066e+04 2.732e-10
 64.97039    -39.0 1.066e+04 2.417e-10
 65.00968    -37.3 1.067e+04 2.315e-10
 65.04897    -35.6 1.073e+04 2.413e-10
 65.08826    -34.0 1.076e+04 2.843e-10
 65.12755    -32.3 1.079e+04 3.361e-10
 65.15813    -30.4 1.082e+04 4.022e-10
 65.17778    -29.8 1.069e+04 3.274e-10
 65.20613    -27.9 1.070e+04 3.501e-10
 65.24542    -25.9 1.072e+04 3.798e-10
 65.28471    -23.7 1.075e+04 4.108e-10
 65.32400    -21.4 1.079e+04 4.286e-10
 65.36328    -19.0 1.087e+04 4.228e-10
 65.40257    -16.4 1.082e+04 3.632e-10
 65.44186    -14.1 1.069e+04 3.002e-10
 65.46875    -11.7 1.065e+04 2.560e-10
 65.48840    -11.6 1.071e+04 2.935e-10
 65.52044     -9.2 1.065e+04 2.685e-10
 65.55403     -6.8 1.062e+04 2.589e-10
 65.57367     -6.2 1.059e+04 2.307e-10
 65.59902     -3.8 1.056e+04 2.289e-10
 65.63831     -1.2 1.047e+04 2.371e-10
 65.67760      1.6 1.044e+04 2.197e-10
 65.71689      4.3 1.046e+04 1.806e-10
 65.75618      6.5 1.056e+04 1.496e-10
 65.79547      8.8 1.047e+04 1.455e-10
 65.83476     11.4 1.043e+04 1.480e-10
 65.87405     14.0 1.042e+04 1.509e-10
 65.91334     16.6 1.046e+04 1.515e-10
 65.94992     19.2 1.053e+04 1.537e-10
 65.96956     19.7 1.047e+04 1.509e-10
 65.99192     22.1 1.054e+04 1.546e-10
 66.03121     24.3 1.062e+04 1.668e-10
 66.07050     26.2 1.074e+04 2.015e-10
 66.10979     28.1 1.080e+04 2.764e-10
 66.14908     30.1 1.084e+04 3.699e-10
 66.18836     32.0 1.087e+04 4.276e-10
 66.22765     33.8 1.084e+04 4.422e-10
 66.26694     35.7 1.079e+04 4.262e-10
 66.30623     37.7 1.074e+04 3.930e-10
 66.34510     39.8 1.072e+04 3.557e-10
 66.36474     39.8 1.083e+04 4.166e-10
 66.36546     42.1 1.078e+04 3.754e-10
 66.38510     42.6 1.080e+04 3.966e-10
 66.42410     45.1 1.064e+04 3.178e-10
 66.46339     47.6 1.046e+04 2.356e-10
 66.50268     50.0 1.036e+04 1.750e-10
 66.54197     52.2 1.032e+04 1.389e-10
 66.58126     54.5 1.031e+04 1.218e-10
 66.62055     56.9 1.027e+04 1.195e-10
 66.65984     59.3 1.027e+04 1.193e-10
 66.69913     61.8 1.031e+04 1.208e-10
 66.73842     64.1 1.038e+04 1.265e-10
 66.76135     66.5 1.047e+04 1.387e-10
 66.78100     67.0 1.040e+04 1.446e-10
 66.81700     69.4 1.050e+04 1.623e-10
 66.85629     71.8 1.062e+04 1.840e-10
 66.89558     74.2 1.074e+04 2.038e-10
 66.93487     76.5 1.082e+04 2.228e-10
 66.97416     78.9 1.087e+04 2.406e-10
 67.01344     81.3 1.091e+04 2.614e-10
 67.05273     83.7 1.098e+04 2.905e-10
 67.09202     86.0 1.110e+04 3.347e-10
 67.13131     88.3 1.127e+04 3.995e-10
 67.15725     90.4 1.144e+04 4.824e-10
 67.17689     91.1 1.138e+04 4.296e-10
 67.20989     93.1 1.157e+04 5.347e-10
 67.24108     94.6 1.162e+04 6.210e-10
 67.26063     94.5 1.158e+04 6.673e-10
 67.27845     95.8 1.162e+04 7.285e-10
 67.29810     97.0 1.173e+04 7.843e-10
 67.31774     98.0 1.184e+04 8.155e-10
 67.33739     98.8 1.190e+04 8.281e-10
 67.36695    100.2 1.205e+04 8.875e-10
 67.40634    101.6 1.220e+04 9.519e-10
 67.44563    103.0 1.228e+04 1.008e-09
 67.48492    104.3 1.229e+04 1.047e-09
 67.52421    105.7 1.227e+04 1.041e-09
 67.55314    107.2 1.220e+04 1.003e-09
 67.57279    107.7 1.191e+04 8.394e-10
 67.60279    109.3 1.182e+04 7.951e-10
 67.64208    111.0 1.177e+04 7.646e-10
 67.68137    112.9 1.174e+04 7.361e-10
 67.72066    114.8 1.171e+04 6.931e-10
 67.75995    116.8 1.163e+04 6.408e-10
 67.79924    118.9 1.149e+04 5.983e-10
 67.83853    121.2 1.136e+04 5.795e-10
 67.87781    123.5 1.134e+04 5.782e-10
 67.91710    126.0 1.132e+04 5.931e-10
 67.94903    128.4 1.137e+04 6.308e-10
 67.96868    128.9 1.147e+04 7.103e-10
 67.99568    131.3 1.159e+04 7.658e-10
 68.03497    133.6 1.171e+04 8.451e-10
 68.07426    136.0 1.188e+04 9.503e-10
 68.11355    138.2 1.204e+04 1.073e-09
 68.13707    140.4 1.220e+04 1.203e-09
 68.15671    139.6 1.227e+04 1.224e-09
 68.19213    141.7 1.241e+04 1.312e-09
 68.23142    143.8 1.260e+04 1.420e-09
 68.27071    145.9 1.289e+04 1.566e-09
 68.31000    147.6 1.319e+04 1.716e-09
 68.33937    148.2 1.368e+04 2.199e-09
 68.35456    148.9 1.414e+04 2.826e-09
 68.36438    149.0 1.436e+04 3.285e-09
 68.37856    149.8 1.488e+04 4.344e-09
 68.39821    150.6 1.529e+04 5.351e-09
 68.41785    151.2 1.539e+04 5.578e-09
 68.43750    151.7 1.535e+04 5.490e-09
 68.45714    152.2 1.511e+04 5.096e-09
 68.47678    152.8 1.462e+04 4.305e-09
 68.49643    153.5 1.395e+04 3.375e-09
 68.51607    154.3 1.321e+04 2.537e-09
 68.53572    154.8 1.252e+04 1.902e-09
 68.55250    155.2 1.199e+04 1.488e-09
 68.56232    155.9 1.217e+04 1.647e-09
 68.57501    156.2 1.174e+04 1.284e-09
 68.59465    156.6 1.161e+04 1.287e-09
 68.61430    156.9 1.158e+04 1.276e-09
 68.63394    157.3 1.158e+04 1.274e-09
 68.65359    157.8 1.160e+04 1.287e-09
 68.67323    158.1 1.163e+04 1.307e-09
 68.69288    158.4 1.163e+04 1.306e-09
 68.71252    158.7 1.161e+04 1.288e-09
 68.73217    158.9 1.151e+04 1.226e-09
 68.75045    159.0 1.134e+04 1.106e-09
 68.76027    159.9 1.140e+04 1.093e-09
 68.77146    159.9 1.120e+04 9.461e-10
 68.79110    160.0 1.095e+04 7.818e-10
 68.81075    159.8 1.066e+04 6.355e-10
 68.83039    159.5 1.035e+04 5.335e-10
 68.85004    159.4 1.005e+04 4.721e-10
 68.86968    159.4 9.915e+03 4.584e-10
 68.89924    159.9 9.755e+03 4.363e-10
 68.93863    161.3 9.624e+03 4.357e-10
 68.97792    162.9 9.724e+03 4.990e-10
 69.01341    164.4 1.011e+04 6.311e-10
 69.03305    163.9 1.110e+04 1.106e-09
 69.05650    165.2 1.145e+04 1.314e-09
 69.09579    166.3 1.155e+04 1.351e-09
 69.13508    167.5 1.149e+04 1.315e-09
 69.15636    168.9 1.129e+04 1.216e-09
 69.17601    169.5 1.153e+04 1.345e-09
 69.21366    171.2 1.116e+04 1.155e-09
 69.25295    173.0 1.083e+04 9.948e-10
 69.29224    175.0 1.057e+04 8.702e-10
 69.33153    177.0 1.037e+04 7.791e-10
 69.37082    178.9 1.023e+04 7.067e-10
 69.41011    180.8 1.007e+04 6.221e-10
 69.44940    182.4 9.811e+03 5.169e-10
 69.48869    183.9 9.380e+03 3.932e-10
 69.52798    185.4 8.737e+03 2.723e-10
 69.55225    187.0 8.130e+03 1.827e-10
 69.57190    187.3 8.255e+03 1.842e-10
 69.60655    189.1 7.912e+03 1.276e-10
 69.64584    191.2 7.673e+03 9.435e-11
 69.68513    193.5 7.515e+03 7.668e-11
 69.72442    196.2 7.470e+03 7.313e-11
 69.76371    199.0 7.470e+03 7.320e-11
 69.80300    202.0 7.479e+03 7.393e-11
 69.84229    205.0 7.498e+03 7.589e-11
 69.88158    208.0 7.509e+03 7.884e-11
 69.90939    211.0 7.511e+03 8.265e-11
 69.92904    210.8 7.488e+03 7.894e-11
 69.94815    213.7 7.514e+03 8.460e-11
 69.96779    213.6 7.435e+03 8.068e-11
 69.99945    216.5 7.491e+03 8.853e-11
 70.03874    219.4 7.565e+03 9.867e-11
 70.07803    222.2 7.652e+03 1.116e-10
 70.11732    225.0 7.769e+03 1.284e-10
 70.15661    227.6 7.951e+03 1.515e-10
 70.19590    229.9 8.216e+03 1.832e-10
 70.23519    231.9 8.538e+03 2.229e-10
 70.26456    232.2 8.759e+03 2.515e-10
 70.28410    232.4 8.934e+03 2.920e-10
 70.30375    232.8 9.096e+03 3.495e-10
 70.32339    233.4 9.252e+03 4.205e-10
 70.34304    234.3 9.460e+03 5.058e-10
 70.35367    235.3 9.710e+03 6.126e-10
 70.35800    235.3 1.011e+04 7.638e-10
 70.36701    235.4 1.005e+04 6.532e-10
 70.38233    236.1 1.038e+04 8.068e-10
 70.40197    236.1 1.076e+04 1.030e-09
 70.42162    235.9 1.147e+04 1.441e-09
 70.44126    235.0 1.305e+04 2.362e-09
 70.46091    233.8 1.548e+04 4.520e-09
 70.48055    232.7 1.784e+04 8.944e-09
 70.50020    231.6 1.949e+04 1.535e-08
 70.51984    230.2 2.038e+04 1.881e-08
 70.53949    228.4 2.039e+04 1.844e-08
 70.55162    227.2 1.989e+04 1.550e-08
 70.56144    230.0 1.981e+04 1.627e-08
 70.57877    228.9 1.929e+04 1.342e-08
 70.59842    228.2 1.804e+04 8.603e-09
 70.61806    227.4 1.597e+04 4.589e-09
 70.63771    225.9 1.330e+04 2.316e-09
 70.65735    224.5 1.252e+04 1.567e-09
 70.67700    224.5 1.246e+04 1.516e-09
 70.69664    224.9 1.245e+04 1.508e-09
 70.71629    225.7 1.247e+04 1.518e-09
 70.73593    226.6 1.259e+04 1.593e-09
 70.74956    227.3 1.297e+04 1.890e-09
 70.75939    227.7 1.290e+04 2.218e-09
 70.77522    228.4 1.348e+04 2.778e-09
 70.79487    229.1 1.414e+04 3.601e-09
 70.80518    230.0 1.495e+04 4.809e-09
 70.81500    230.2 1.487e+04 4.391e-09
 70.83416    231.1 1.595e+04 6.334e-09
 70.85380    231.9 1.708e+04 9.078e-09
 70.87345    232.2 1.809e+04 1.238e-08
 70.89309    232.2 1.880e+04 1.496e-08
 70.91274    231.8 1.902e+04 1.530e-08
 70.93238    231.1 1.896e+04 1.464e-08
 70.94751    230.8 1.854e+04 1.213e-08
 70.95733    231.4 1.744e+04 7.189e-09
 70.97167    231.2 1.670e+04 5.308e-09
 70.99131    231.1 1.563e+04 3.717e-09
 71.01096    230.9 1.437e+04 2.668e-09
 71.03060    230.9 1.322e+04 2.155e-09
 71.05025    231.1 1.282e+04 1.996e-09
 71.06989    231.7 1.279e+04 2.001e-09
 71.08954    232.8 1.278e+04 2.056e-09
 71.10918    234.1 1.290e+04 2.225e-09
 71.12883    235.2 1.320e+04 2.520e-09
 71.14546    236.3 1.357e+04 2.897e-09
 71.15528    237.2 1.250e+04 1.797e-09
 71.16812    238.2 1.304e+04 2.207e-09
 71.18776    239.2 1.361e+04 2.750e-09
 71.20741    240.1 1.417e+04 3.350e-09
 71.22705    240.9 1.468e+04 3.923e-09
 71.24335    241.5 1.498e+04 4.236e-09
 71.25318    240.5 1.457e+04 3.733e-09
 71.26634    240.9 1.456e+04 3.694e-09
 71.28599    241.2 1.438e+04 3.466e-09
 71.30563    241.5 1.396e+04 2.896e-09
 71.32528    241.7 1.340e+04 2.219e-09
 71.34340    241.8 1.279e+04 1.612e-09
 71.35323    243.6 1.336e+04 2.255e-09
 71.36457    243.7 1.282e+04 1.724e-09
 71.38421    243.6 1.239e+04 1.312e-09
 71.40385    243.2 1.204e+04 1.023e-09
 71.42350    242.5 1.175e+04 8.378e-10
 71.44314    241.7 1.145e+04 7.403e-10
 71.46279    240.8 1.121e+04 7.006e-10
 71.48243    239.8 1.107e+04 6.866e-10
 71.50208    238.9 1.097e+04 6.883e-10
 71.52172    237.8 1.094e+04 6.881e-10
 71.54135    236.6 1.093e+04 6.836e-10
 71.56100    236.2 1.129e+04 8.711e-10
 71.58066    234.5 1.130e+04 8.690e-10
 71.60030    232.6 1.137e+04 8.772e-10
 71.61995    230.6 1.152e+04 9.123e-10
 71.63959    228.6 1.180e+04 1.019e-09
 71.65924    226.6 1.224e+04 1.251e-09
 71.67888    224.8 1.278e+04 1.662e-09
 71.69135    223.5 1.339e+04 2.279e-09
 71.70117    222.2 1.372e+04 2.652e-09
 71.71817    221.2 1.438e+04 3.331e-09
 71.73782    220.0 1.501e+04 3.908e-09
 71.74912    218.6 1.551e+04 4.361e-09
 71.75894    216.2 1.550e+04 4.074e-09
 71.77711    213.7 1.616e+04 4.619e-09
 71.79675    211.4 1.677e+04 5.302e-09
 71.81639    208.9 1.765e+04 6.297e-09
 71.83108    208.6 1.752e+04 6.476e-09
 71.84085    208.4 1.729e+04 6.641e-09
 71.84800    207.9 1.713e+04 6.863e-09
 71.85291    206.6 1.796e+04 7.574e-09
 71.86050    206.4 1.791e+04 7.850e-09
 71.87032    206.2 1.798e+04 8.141e-09
 71.88014    206.1 1.823e+04 8.505e-09
 71.88997    205.8 1.868e+04 9.030e-09
 71.89979    205.2 1.932e+04 9.767e-09
 71.90961    204.4 2.012e+04 1.072e-08
 71.91524    203.3 2.097e+04 1.190e-08
 71.92016    202.0 2.101e+04 1.149e-08
 71.92925    200.7 2.175e+04 1.253e-08
 71.93908    199.3 2.241e+04 1.363e-08
 71.94697    197.9 2.290e+04 1.472e-08
 71.95188    194.6 2.678e+04 1.697e-08
 71.95872    193.4 2.586e+04 1.785e-08
 71.96854    192.4 2.493e+04 1.881e-08
 71.97837    191.5 2.423e+04 1.986e-08
 71.98819    190.6 2.379e+04 2.098e-08
 71.99801    189.2 2.357e+04 2.219e-08
 72.00783    187.3 2.371e+04 2.351e-08
 72.01766    184.7 2.414e+04 2.534e-08
 72.02748    181.4 2.467e+04 2.813e-08
 72.03730    177.8 2.494e+04 3.229e-08
 72.04594    174.5 2.478e+04 3.746e-08
 72.05085    173.9 2.466e+04 6.144e-08
 72.05695    171.6 2.430e+04 6.179e-08
 72.06677    169.9 2.354e+04 5.939e-08
 72.07659    168.6 2.270e+04 5.117e-08
 72.08641    167.6 2.184e+04 4.127e-08
 72.09624    166.6 2.114e+04 3.269e-08
 72.10606    165.4 2.076e+04 2.597e-08
 72.11588    164.0 2.073e+04 2.095e-08
 72.12570    162.5 2.097e+04 1.746e-08
 72.13433    160.8 2.139e+04 1.492e-08
 72.13924    161.8 2.112e+04 1.710e-08
 72.14492    160.0 2.212e+04 1.482e-08
 72.14983    160.0 2.336e+04 6.116e-09
 72.15517    157.8 2.360e+04 5.593e-09
 72.16499    155.7 2.369e+04 5.577e-09
 72.17481    153.7 2.381e+04 5.614e-09
 72.18464    151.7 2.382e+04 5.831e-09
 72.19446    149.2 2.370e+04 6.502e-09
 72.20428    146.3 2.357e+04 8.071e-09
 72.21410    142.9 2.402e+04 1.131e-08
 72.22393    138.7 2.539e+04 1.844e-08
 72.23375    134.5 2.626e+04 3.901e-08
 72.24357    131.2 2.589e+04 9.262e-08
 72.24880    128.5 2.508e+04 1.884e-07
 72.25371    130.9 2.554e+04 1.146e-07
 72.26322    128.5 2.489e+04 2.140e-07
 72.27304    125.8 2.497e+04 2.425e-07
 72.28286    122.9 2.497e+04 2.174e-07
 72.29268    120.3 2.500e+04 1.387e-07
 72.30251    117.8 2.430e+04 6.907e-08
 72.31233    115.2 2.214e+04 3.393e-08
 72.32215    112.6 1.943e+04 2.074e-08
 72.33197    111.7 1.946e+04 1.721e-08
 72.34179    111.8 1.973e+04 1.618e-08
 72.34778    111.8 2.013e+04 1.517e-08
 72.35269    111.8 1.988e+04 1.940e-08
 72.35833    112.1 2.014e+04 1.895e-08
 72.36324    112.2 1.987e+04 2.682e-08
 72.37126    112.8 2.009e+04 2.778e-08
 72.38108    113.3 2.087e+04 3.162e-08
 72.39091    113.5 2.215e+04 3.656e-08
 72.40073    113.2 2.388e+04 3.737e-08
 72.41055    112.0 2.454e+04 3.548e-08
 72.42037    110.3 2.519e+04 2.940e-08
 72.43020    108.4 2.460e+04 2.209e-08
 72.44002    106.5 2.271e+04 1.783e-08
 72.44675    105.0 2.067e+04 1.744e-08
 72.45166    106.7 2.385e+04 2.579e-08
 72.45966    105.0 2.229e+04 2.373e-08
 72.46949    103.7 2.129e+04 2.308e-08
 72.47931    102.8 2.072e+04 2.196e-08
 72.48913    102.7 2.045e+04 2.087e-08
 72.50391    102.9 1.984e+04 1.750e-08
 72.52361    103.0 1.923e+04 1.435e-08
 72.54091    103.0 1.823e+04 1.005e-08
 72.55073    102.6 1.923e+04 1.247e-08
 72.56290    102.2 1.792e+04 8.702e-09
 72.57751    101.9 1.682e+04 6.322e-09
 72.58733    102.3 1.625e+04 5.641e-09
 72.60219    101.9 1.537e+04 4.176e-09
 72.62183    101.7 1.502e+04 3.629e-09
 72.64148    101.6 1.504e+04 3.647e-09
 72.66112    101.4 1.517e+04 3.809e-09
 72.68076    100.8 1.561e+04 4.445e-09
 72.70041    100.0 1.648e+04 5.870e-09
 72.72005     99.2 1.747e+04 8.378e-09
 72.73886     98.5 1.815e+04 1.104e-08
 72.74863     98.4 1.849e+04 1.231e-08
 72.75433     97.8 1.860e+04 1.301e-08
 72.76416     97.4 1.858e+04 1.298e-08
 72.77894     97.0 1.841e+04 1.246e-08
 72.79863     96.6 1.792e+04 1.078e-08
 72.81828     96.4 1.719e+04 8.313e-09
 72.83792     96.0 1.621e+04 5.646e-09
 72.85757     95.3 1.508e+04 3.692e-09
 72.87721     95.0 1.405e+04 2.526e-09
 72.89686     94.9 1.332e+04 1.898e-09
 72.91650     95.0 1.284e+04 1.574e-09
 72.93615     95.5 1.261e+04 1.496e-09
 72.94663     96.6 1.260e+04 1.500e-09
 72.95645     96.4 1.266e+04 1.499e-09
 72.97544     97.3 1.270e+04 1.540e-09
 72.99508     98.0 1.282e+04 1.643e-09
 73.01473     98.7 1.298e+04 1.788e-09
 73.02550     99.2 1.319e+04 1.966e-09
 73.03532     98.6 1.375e+04 2.629e-09
 73.05402     99.0 1.417e+04 3.074e-09
 73.07366     99.1 1.466e+04 3.597e-09
 73.09330     99.1 1.519e+04 4.203e-09
 73.11295     99.0 1.567e+04 4.750e-09
 73.13259     98.8 1.592e+04 5.139e-09
 73.14457     98.6 1.599e+04 5.334e-09
 73.15439     97.4 1.608e+04 5.195e-09
 73.17188     97.2 1.599e+04 5.101e-09
 73.19153     97.1 1.576e+04 4.763e-09
 73.21117     97.0 1.543e+04 4.479e-09
 73.23082     97.2 1.534e+04 4.470e-09
 73.25046     97.1 1.541e+04 4.653e-09
 73.27011     96.6 1.598e+04 5.271e-09
 73.28975     95.3 1.728e+04 6.755e-09
 73.30940     93.3 1.872e+04 9.636e-09
 73.32904     91.2 1.970e+04 1.412e-08
 73.34252     89.5 2.018e+04 1.888e-08
 73.35234     87.2 2.052e+04 1.961e-08
 73.36833     86.0 2.028e+04 1.752e-08
 73.38798     84.8 2.019e+04 1.288e-08
 73.40762     83.5 2.009e+04 7.378e-09
 73.42727     81.4 1.954e+04 3.206e-09
 73.44691     78.2 1.712e+04 1.282e-09
 73.46367     74.5 1.265e+04 7.036e-10
 73.47349     72.7 1.075e+04 7.131e-10
 73.48620     72.5 1.074e+04 6.319e-10
 73.50584     72.2 1.017e+04 5.475e-10
 73.53074     72.9 1.066e+04 5.646e-10
 73.55048     72.2 1.025e+04 4.837e-10
 73.56488     73.6 1.029e+04 5.129e-10
 73.58442     74.7 1.040e+04 5.525e-10
 73.60407     76.1 1.049e+04 6.078e-10
 73.62371     77.2 1.061e+04 6.725e-10
 73.64336     78.9 1.075e+04 7.631e-10
 73.66300     80.2 1.094e+04 8.700e-10
 73.68265     81.7 1.113e+04 9.870e-10
 73.70229     83.1 1.134e+04 1.112e-09
 73.72194     84.7 1.157e+04 1.256e-09
 73.73841     85.9 1.178e+04 1.402e-09
 73.74824     85.4 1.203e+04 1.551e-09
 73.76123     86.6 1.228e+04 1.750e-09
 73.78087     88.0 1.257e+04 1.981e-09
 73.80052     89.0 1.293e+04 2.280e-09
 73.82016     89.9 1.331e+04 2.650e-09
 73.83981     91.0 1.377e+04 3.143e-09
 73.85945     91.8 1.425e+04 3.811e-09
 73.87910     92.5 1.469e+04 4.661e-09
 73.89874     93.4 1.512e+04 5.734e-09
 73.91166     94.3 1.558e+04 7.059e-09
 73.92149     94.2 1.514e+04 5.658e-09
 73.93636     94.9 1.569e+04 6.936e-09
 73.94618     94.3 1.593e+04 8.874e-09
 73.95767     95.5 1.687e+04 1.138e-08
 73.97732     95.5 1.745e+04 1.247e-08
 73.99696     95.3 1.743e+04 1.219e-08
 74.01661     95.7 1.727e+04 1.062e-08
 74.03625     96.4 1.709e+04 8.104e-09
 74.05590     96.4 1.685e+04 5.648e-09
 74.07554     96.1 1.642e+04 3.789e-09
 74.09519     95.0 1.557e+04 2.611e-09
 74.11483     93.9 1.435e+04 1.968e-09
 74.13431     93.5 1.328e+04 1.665e-09
 74.14413     92.6 1.225e+04 1.515e-09
 74.15412     92.7 1.164e+04 1.313e-09
 74.17377     93.4 1.131e+04 1.210e-09
 74.19341     94.4 1.121e+04 1.153e-09
 74.21306     95.6 1.123e+04 1.101e-09
 74.23270     96.8 1.138e+04 1.038e-09
 74.25235     97.2 1.159e+04 9.638e-10
 74.27199     97.2 1.176e+04 8.792e-10
 74.29164     96.9 1.175e+04 8.300e-10
 74.31128     96.2 1.161e+04 8.391e-10
 74.33092     95.1 1.158e+04 8.796e-10
 74.34208     93.8 1.163e+04 1.022e-09
 74.35116     94.3 1.090e+04 7.302e-10
 74.35966     95.1 1.106e+04 7.721e-10
 74.37021     94.2 1.125e+04 8.945e-10
 74.38986     93.5 1.143e+04 1.025e-09
 74.40950     92.9 1.150e+04 1.074e-09
 74.42915     92.4 1.148e+04 1.067e-09
 74.44879     92.1 1.135e+04 1.022e-09
 74.46844     91.7 1.109e+04 9.367e-10
 74.48808     91.2 1.083e+04 8.779e-10
 74.50773     90.9 1.079e+04 8.767e-10
 74.52737     90.7 1.082e+04 9.019e-10
 74.54002     90.3 1.099e+04 1.008e-09
 74.54985     90.8 1.093e+04 9.058e-10
 74.56666     89.3 1.163e+04 1.230e-09
 74.58631     86.9 1.305e+04 2.107e-09
 74.60595     85.0 1.465e+04 4.079e-09
 74.62560     84.0 1.582e+04 6.677e-09
 74.64524     82.8 1.617e+04 7.201e-09
 74.66489     81.4 1.598e+04 6.551e-09
 74.68453     80.1 1.527e+04 4.306e-09
 74.70418     78.0 1.408e+04 2.217e-09
 74.72382     74.7 1.241e+04 1.040e-09
 74.73807     69.5 1.099e+04 7.509e-10
 74.74789     70.1 1.107e+04 7.532e-10
 74.76311     68.8 1.077e+04 7.209e-10
 74.79267     68.1 1.078e+04 7.657e-10
 74.83206     68.1 1.100e+04 9.163e-10
 74.86143     68.0 1.120e+04 1.031e-09
 74.88098     67.9 1.144e+04 1.145e-09
 74.90062     67.9 1.169e+04 1.286e-09
 74.92027     67.9 1.191e+04 1.408e-09
 74.93592     67.9 1.199e+04 1.437e-09
 74.94574     67.6 1.214e+04 1.563e-09
 74.95956     67.5 1.214e+04 1.554e-09
 74.97920     67.4 1.207e+04 1.496e-09
 74.99885     67.4 1.190e+04 1.371e-09
 75.01849     67.5 1.164e+04 1.213e-09
 75.03814     67.7 1.134e+04 1.054e-09
 75.05778     68.1 1.105e+04 9.193e-10
 75.07743     68.4 1.079e+04 8.177e-10
 75.09707     68.8 1.056e+04 7.496e-10
 75.11672     69.4 1.038e+04 7.082e-10
 75.13386     69.9 1.026e+04 6.847e-10
 75.14369     69.8 1.017e+04 6.933e-10
 75.15601     70.6 1.014e+04 6.855e-10
 75.17565     71.5 1.013e+04 6.830e-10
 75.19529     72.4 1.011e+04 6.779e-10
 75.21494     73.3 1.008e+04 6.653e-10
 75.23458     74.3 1.008e+04 6.522e-10
 75.24582     75.3 1.010e+04 6.348e-10
 75.25564     75.4 1.011e+04 6.342e-10
 75.27387     76.3 1.011e+04 6.099e-10
 75.29352     77.3 1.013e+04 5.827e-10
 75.31316     78.1 1.014e+04 5.549e-10
 75.33181     78.8 1.016e+04 5.242e-10
 75.34163     78.9 1.009e+04 4.523e-10
 75.35245     79.6 1.009e+04 4.460e-10
 75.37210     80.2 1.010e+04 4.474e-10
 75.39174     80.8 1.014e+04 4.537e-10
 75.41139     81.3 1.023e+04 4.692e-10
 75.43103     81.8 1.038e+04 4.996e-10
 75.45068     82.2 1.051e+04 5.496e-10
 75.47032     82.9 1.062e+04 6.113e-10
 75.48997     83.6 1.065e+04 6.284e-10
 75.50961     83.7 1.066e+04 6.290e-10
 75.52986     84.9 1.052e+04 5.558e-10
 75.54960     85.5 1.052e+04 5.413e-10
 75.57856     86.9 1.027e+04 4.447e-10
 75.61785     88.3 9.951e+03 3.383e-10
 75.65714     89.7 9.659e+03 2.750e-10
 75.69643     91.3 9.597e+03 2.693e-10
 75.73572     93.0 9.616e+03 2.752e-10
 75.77501     94.8 9.726e+03 3.024e-10
 75.81430     96.6 9.910e+03 3.411e-10
 75.85359     97.9 1.000e+04 3.665e-10
 75.88296     98.7 9.901e+03 3.640e-10
 75.90251     99.6 9.891e+03 3.781e-10
 75.92215    100.4 9.969e+03 4.129e-10
 75.93547    101.2 1.008e+04 4.565e-10
 75.94530    101.0 9.919e+03 4.162e-10
 75.96144    101.8 1.009e+04 4.846e-10
 75.98109    102.4 1.031e+04 5.687e-10
 76.00073    103.1 1.058e+04 6.825e-10
 76.02037    103.6 1.094e+04 8.507e-10
 76.04002    103.9 1.141e+04 1.106e-09
 76.05966    104.1 1.200e+04 1.486e-09
 76.07931    104.2 1.264e+04 2.006e-09
 76.09895    104.1 1.335e+04 2.704e-09
 76.11860    104.0 1.411e+04 3.610e-09
 76.13198    104.0 1.473e+04 4.293e-09
 76.13698    103.0 1.394e+04 3.203e-09
 76.14324    103.0 1.440e+04 3.813e-09
 76.15789    102.8 1.436e+04 3.618e-09
 76.17753    102.3 1.405e+04 2.959e-09
 76.19718    101.6 1.336e+04 2.035e-09
 76.21682    100.5 1.240e+04 1.214e-09
 76.23647     98.8 1.138e+04 6.747e-10
 76.25611     96.6 1.048e+04 3.972e-10
 76.27576     94.5 9.628e+03 2.729e-10
 76.29540     93.6 9.310e+03 2.553e-10
 76.32164     93.6 9.120e+03 2.451e-10
 76.34129     94.2 9.013e+03 2.377e-10
 76.35434     94.2 9.028e+03 2.413e-10
 76.37398     94.2 9.058e+03 2.504e-10
 76.39363     94.3 9.117e+03 2.664e-10
 76.41327     94.4 9.217e+03 2.922e-10
 76.43291     94.5 9.419e+03 3.412e-10
 76.45256     94.6 9.715e+03 4.234e-10
 76.47220     94.9 1.010e+04 5.504e-10
 76.49185     95.0 1.055e+04 7.404e-10
 76.51149     95.0 1.106e+04 1.027e-09
 76.52932     94.7 1.166e+04 1.482e-09
 76.53914     94.8 1.159e+04 1.484e-09
 76.55078     94.8 1.220e+04 2.022e-09
 76.57015     94.9 1.293e+04 2.809e-09
 76.57998     94.3 1.365e+04 3.371e-09
 76.59007     94.0 1.474e+04 4.893e-09
 76.60972     93.8 1.595e+04 6.944e-09
 76.62936     93.6 1.676e+04 8.212e-09
 76.64901     93.2 1.691e+04 8.222e-09
 76.66865     92.7 1.683e+04 7.645e-09
 76.68830     92.1 1.632e+04 5.992e-09
 76.70794     91.1 1.537e+04 4.368e-09
 76.72726     90.0 1.442e+04 3.158e-09
 76.73708     90.2 1.370e+04 2.988e-09
 76.74723     90.0 1.333e+04 2.398e-09
 76.76688     89.8 1.296e+04 1.789e-09
 76.78652     89.6 1.260e+04 1.317e-09
 76.80617     89.5 1.220e+04 9.329e-10
 76.82581     89.4 1.186e+04 7.622e-10
 76.84546     88.9 1.134e+04 5.930e-10
 76.87502     89.5 1.129e+04 6.787e-10
 76.91441     88.1 1.048e+04 6.167e-10
 76.95370     87.5 1.053e+04 6.795e-10
 76.99299     87.2 1.105e+04 9.015e-10
 77.01834     87.0 1.174e+04 1.276e-09
 77.03799     87.8 1.123e+04 9.937e-10
 77.07157     87.8 1.185e+04 1.350e-09
 77.11085     87.9 1.217e+04 1.538e-09
 77.13317     88.0 1.214e+04 1.519e-09
 77.15282     87.6 1.207e+04 1.433e-09
 77.18943     88.3 1.167e+04 1.133e-09
 77.22872     89.4 1.131e+04 7.966e-10
 77.26801     90.7 1.097e+04 5.962e-10
 77.29738     91.4 1.086e+04 5.354e-10
 77.31693     92.2 1.081e+04 5.066e-10
 77.33093     93.0 1.074e+04 4.924e-10
 77.34075     92.9 1.048e+04 4.358e-10
 77.35622     93.9 1.046e+04 4.367e-10
 77.37586     94.9 1.045e+04 4.483e-10
 77.39551     95.8 1.050e+04 4.831e-10
 77.41515     96.7 1.056e+04 5.379e-10
 77.43480     97.7 1.064e+04 6.120e-10
 77.45444     98.8 1.076e+04 7.077e-10
 77.46614     99.9 1.093e+04 8.270e-10
 77.47596     99.8 1.101e+04 8.651e-10
 77.49373    100.9 1.117e+04 9.778e-10
 77.51338    101.8 1.136e+04 1.105e-09
 77.52887    102.7 1.153e+04 1.215e-09
 77.53869    102.6 1.163e+04 1.328e-09
 77.55267    103.2 1.166e+04 1.332e-09
 77.57231    103.8 1.160e+04 1.290e-09
 77.59196    104.4 1.140e+04 1.170e-09
 77.61160    105.0 1.110e+04 1.004e-09
 77.63125    105.5 1.074e+04 8.317e-10
 77.65089    105.8 1.042e+04 6.898e-10
 77.67054    106.0 1.019e+04 5.768e-10
 77.69018    106.2 9.978e+03 4.840e-10
 77.70982    106.2 9.757e+03 4.177e-10
 77.72682    106.3 9.546e+03 3.862e-10
 77.73664    106.2 9.427e+03 3.479e-10
 77.74911    106.5 9.381e+03 3.459e-10
 77.76876    106.8 9.393e+03 3.508e-10
 77.78840    107.3 9.475e+03 3.725e-10
 77.80805    107.6 9.685e+03 4.213e-10
 77.82769    107.6 9.985e+03 5.025e-10
 77.84734    107.6 1.040e+04 6.349e-10
 77.86698    107.3 1.095e+04 8.540e-10
 77.88663    106.8 1.163e+04 1.210e-09
 77.90431    106.4 1.233e+04 1.737e-09
 77.91413    107.3 1.259e+04 2.079e-09
 77.92477    106.9 1.325e+04 2.819e-09
 77.93459    107.6 1.319e+04 2.751e-09
 77.94556    107.2 1.375e+04 3.435e-09
 77.96521    106.6 1.399e+04 3.679e-09
 77.98485    105.9 1.396e+04 3.633e-09
 78.00450    105.1 1.378e+04 3.410e-09
 78.02414    104.5 1.353e+04 3.015e-09
 78.04379    104.0 1.331e+04 2.540e-09
 78.06343    103.7 1.305e+04 1.998e-09
 78.08308    103.3 1.285e+04 1.571e-09
 78.10272    102.9 1.282e+04 1.307e-09
 78.12236    102.8 1.274e+04 1.168e-09
 78.13254    103.0 1.253e+04 1.068e-09
 78.14236    104.2 1.276e+04 1.930e-09
 78.16165    104.7 1.250e+04 1.603e-09
 78.18130    105.1 1.232e+04 1.381e-09
 78.20094    105.3 1.234e+04 1.358e-09
 78.22059    105.4 1.241e+04 1.400e-09
 78.24023    105.1 1.265e+04 1.610e-09
 78.25988    104.9 1.298e+04 2.065e-09
 78.27952    105.0 1.333e+04 2.708e-09
 78.29917    105.3 1.354e+04 3.132e-09
 78.31881    105.4 1.351e+04 3.111e-09
 78.33048    105.5 1.331e+04 2.838e-09
 78.34030    105.9 1.394e+04 3.599e-09
 78.35230    105.3 1.370e+04 3.109e-09
 78.36212    105.9 1.408e+04 3.641e-09
 78.37775    104.9 1.375e+04 2.883e-09
 78.39739    103.0 1.317e+04 2.101e-09
 78.41704    100.4 1.230e+04 1.606e-09
 78.43668     98.4 1.155e+04 1.476e-09
 78.45633     98.3 1.146e+04 1.493e-09
 78.47597     98.3 1.140e+04 1.549e-09
 78.49562     98.8 1.141e+04 1.607e-09
 78.51526     99.4 1.152e+04 1.692e-09
 78.52843    100.1 1.171e+04 1.816e-09
 78.53825     99.5 1.157e+04 1.654e-09
 78.55455    100.0 1.175e+04 1.749e-09
 78.57419    100.6 1.197e+04 1.880e-09
 78.59384    101.3 1.224e+04 2.044e-09
 78.61348    102.0 1.255e+04 2.233e-09
 78.63313    102.8 1.292e+04 2.444e-09
 78.65277    103.6 1.334e+04 2.680e-09
 78.67242    104.5 1.378e+04 2.970e-09
 78.69206    105.5 1.418e+04 3.247e-09
 78.71171    106.2 1.455e+04 3.496e-09
 78.72638    106.5 1.502e+04 3.992e-09
 78.73620    105.8 1.548e+04 4.226e-09
 78.75100    106.1 1.567e+04 4.516e-09
 78.76568    106.1 1.601e+04 4.973e-09
 78.77546    106.0 1.625e+04 5.281e-09
 78.78528    105.6 1.658e+04 5.723e-09
 78.79510    104.7 1.712e+04 6.479e-09
 78.80020    103.1 1.802e+04 7.788e-09
 78.80511    103.1 1.905e+04 1.070e-08
 78.81475    100.6 2.038e+04 1.386e-08
 78.82457     97.3 2.177e+04 1.866e-08
 78.83016     94.5 2.244e+04 2.451e-08
 78.83507     93.1 2.270e+04 2.919e-08
 78.84421     91.0 2.247e+04 2.951e-08
 78.85403     89.1 2.182e+04 2.798e-08
 78.86386     87.7 2.058e+04 2.137e-08
 78.87368     87.1 1.977e+04 1.769e-08
 78.88846     86.2 1.858e+04 1.059e-08
 78.90816     84.0 1.666e+04 3.527e-09
 78.92432     79.0 1.450e+04 8.026e-10
 78.93415     74.4 1.298e+04 4.037e-10
 78.94744     69.7 1.014e+04 2.882e-10
 78.96709     69.9 9.816e+03 2.663e-10
 78.98673     71.3 9.770e+03 2.639e-10
 79.00638     72.7 9.820e+03 2.714e-10
 79.02602     73.7 9.912e+03 2.944e-10
 79.04567     74.5 1.001e+04 3.314e-10
 79.06531     75.2 1.016e+04 3.854e-10
 79.08496     75.8 1.034e+04 4.611e-10
 79.10460     76.4 1.060e+04 5.679e-10
 79.12227     76.9 1.094e+04 7.109e-10
 79.13209     77.0 1.087e+04 7.033e-10
 79.14389     77.6 1.119e+04 8.604e-10
 79.16354     77.9 1.154e+04 1.032e-09
 79.18318     78.3 1.191e+04 1.217e-09
 79.20283     78.5 1.228e+04 1.416e-09
 79.22247     78.7 1.261e+04 1.616e-09
 79.23846     79.1 1.287e+04 1.801e-09
 79.24829     78.4 1.308e+04 1.789e-09
 79.27168     79.4 1.278e+04 1.540e-09
 79.31107     80.4 1.274e+04 1.422e-09
 79.35036     81.6 1.250e+04 1.119e-09
 79.38965     82.7 1.208e+04 7.634e-10
 79.42894     83.7 1.142e+04 4.957e-10
 79.46823     84.9 1.074e+04 3.613e-10
 79.50752     86.3 1.038e+04 3.299e-10
 79.52818     88.3 1.032e+04 3.321e-10
 79.54783     88.4 1.029e+04 3.929e-10
 79.58610     90.3 1.039e+04 4.454e-10
 79.62538     92.0 1.053e+04 4.946e-10
 79.66467     93.4 1.082e+04 5.717e-10
 79.68656     93.8 1.088e+04 5.698e-10
 79.70620     93.8 1.068e+04 4.381e-10
 79.74325     94.4 1.123e+04 5.249e-10
 79.77262     94.2 1.165e+04 5.773e-10
 79.79217     94.0 1.201e+04 6.655e-10
 79.81181     93.0 1.254e+04 8.826e-10
 79.83146     91.3 1.330e+04 1.429e-09
 79.85110     89.7 1.425e+04 2.633e-09
 79.87075     89.4 1.529e+04 4.706e-09
 79.89039     89.0 1.598e+04 6.356e-09
 79.91004     88.0 1.599e+04 6.296e-09
 79.92388     87.5 1.557e+04 5.315e-09
 79.93370     87.4 1.529e+04 4.799e-09
 79.94933     86.9 1.449e+04 3.382e-09
 79.96897     86.2 1.363e+04 2.169e-09
 79.98862     85.3 1.277e+04 1.392e-09
 80.01818     84.2 1.170e+04 7.726e-10
 80.05757     83.2 1.080e+04 3.816e-10
 80.09686     83.3 1.088e+04 3.257e-10
 80.13615     83.8 1.090e+04 3.336e-10
 80.17544     84.0 1.108e+04 4.092e-10
 80.21473     84.1 1.141e+04 5.959e-10
 80.25402     84.2 1.193e+04 9.485e-10
 80.29331     84.4 1.242e+04 1.403e-09
 80.31997     84.8 1.252e+04 1.635e-09
 80.33961     86.3 1.188e+04 1.004e-09
 80.37189     86.6 1.188e+04 1.078e-09
 80.40126     86.8 1.176e+04 1.051e-09
 80.42080     87.2 1.166e+04 1.026e-09
 80.44045     87.5 1.146e+04 9.781e-10
 80.46009     88.0 1.118e+04 8.827e-10
 80.47974     88.7 1.088e+04 7.665e-10
 80.49938     89.2 1.058e+04 6.486e-10
 80.51772     89.9 1.027e+04 5.334e-10
 80.52754     90.2 1.039e+04 5.616e-10
 80.53867     91.0 1.016e+04 4.690e-10
 80.56290     92.0 9.716e+03 3.494e-10
 80.58254     92.8 9.979e+03 4.219e-10
 80.60753     94.7 9.878e+03 3.962e-10
 80.64691     96.8 9.505e+03 2.923e-10
 80.68620     99.1 9.166e+03 2.047e-10
 80.71586    101.4 8.919e+03 1.409e-10
 80.73551    101.6 9.081e+03 1.913e-10
 80.76478    103.9 8.949e+03 1.511e-10
 80.80407    106.1 8.880e+03 1.239e-10
 80.84336    108.3 8.866e+03 1.101e-10
 80.88265    110.5 8.879e+03 1.103e-10
 80.92194    112.6 8.919e+03 1.161e-10
 80.96123    114.7 9.086e+03 1.390e-10
 81.00052    116.5 9.396e+03 1.859e-10
 81.03981    117.8 9.668e+03 2.437e-10
 81.06918    118.3 9.868e+03 2.909e-10
 81.08872    118.7 1.009e+04 3.462e-10
 81.10837    119.0 1.036e+04 4.201e-10
 81.12138    119.1 1.064e+04 5.027e-10
 81.13121    118.9 1.086e+04 5.624e-10
 81.14766    118.9 1.112e+04 6.417e-10
 81.16730    118.8 1.133e+04 7.037e-10
 81.18695    118.6 1.152e+04 7.504e-10
 81.20659    118.4 1.167e+04 7.915e-10
 81.22624    118.2 1.182e+04 8.408e-10
 81.24588    118.0 1.199e+04 9.125e-10
 81.26553    117.9 1.220e+04 1.014e-09
 81.28517    117.9 1.238e+04 1.136e-09
 81.30482    118.0 1.249e+04 1.259e-09
 81.31933    118.5 1.250e+04 1.362e-09
 81.32915    118.6 1.260e+04 1.484e-09
 81.34411    119.2 1.252e+04 1.566e-09
 81.36375    120.0 1.245e+04 1.589e-09
 81.38340    121.0 1.234e+04 1.590e-09
 81.40304    122.1 1.218e+04 1.546e-09
 81.42269    123.4 1.206e+04 1.458e-09
 81.44233    124.6 1.198e+04 1.339e-09
 81.45878    125.7 1.191e+04 1.209e-09
 81.46861    125.1 1.206e+04 1.195e-09
 81.48162    126.1 1.193e+04 1.062e-09
 81.50126    127.1 1.180e+04 9.493e-10
 81.51728    128.1 1.168e+04 8.665e-10
 81.52710    128.4 1.204e+04 1.119e-09
 81.54055    129.3 1.198e+04 1.060e-09
 81.56020    130.2 1.188e+04 1.026e-09
 81.57984    131.1 1.176e+04 1.013e-09
 81.59949    132.0 1.171e+04 1.013e-09
 81.61913    132.9 1.171e+04 1.032e-09
 81.63878    133.5 1.179e+04 1.125e-09
 81.65842    133.5 1.215e+04 1.360e-09
 81.67807    133.2 1.278e+04 1.826e-09
 81.69771    132.7 1.358e+04 2.657e-09
 81.71523    132.4 1.445e+04 3.962e-09
 81.72505    132.1 1.507e+04 5.353e-09
 81.73700    132.2 1.573e+04 7.361e-09
 81.75665    132.3 1.630e+04 8.710e-09
 81.77629    132.0 1.655e+04 8.758e-09
 81.79594    131.2 1.661e+04 7.858e-09
 81.81558    129.7 1.641e+04 5.633e-09
 81.83523    127.2 1.570e+04 3.307e-09
 81.85487    123.4 1.426e+04 1.777e-09
 81.87452    119.1 1.229e+04 1.065e-09
 81.90345    114.2 1.130e+04 7.908e-10
 81.92309    112.4 1.122e+04 8.463e-10
 81.93345    110.5 1.132e+04 8.620e-10
 81.95309    108.6 1.150e+04 9.203e-10
 81.97274    106.5 1.175e+04 1.025e-09
 81.99238    104.8 1.190e+04 1.117e-09
 82.01203    103.0 1.192e+04 1.126e-09
 82.03167    101.5 1.186e+04 1.100e-09
 82.05132    100.2 1.166e+04 9.934e-10
 82.07096     99.2 1.144e+04 8.676e-10
 82.10053     97.7 1.156e+04 8.084e-10
 82.13991     97.6 1.086e+04 5.348e-10
 82.17920     97.9 1.020e+04 3.470e-10
 82.21849     98.9 9.703e+03 2.290e-10
 82.25778    100.2 9.332e+03 1.585e-10
 82.29707    101.7 9.107e+03 1.348e-10
 82.31908    103.5 9.101e+03 1.351e-10
 82.33769    104.3 9.469e+03 2.029e-10
 82.35496    104.9 9.385e+03 1.937e-10
 82.37565    106.4 9.424e+03 1.979e-10
 82.41494    107.0 9.596e+03 2.223e-10
 82.45423    106.9 9.899e+03 2.720e-10
 82.48360    106.4 1.013e+04 3.112e-10
 82.50315    105.8 1.042e+04 3.650e-10
 82.51684    105.2 1.072e+04 4.431e-10
 82.52666    104.6 1.082e+04 5.532e-10
 82.54244    104.0 1.095e+04 6.368e-10
 82.56208    103.5 1.101e+04 6.925e-10
 82.58173    103.0 1.100e+04 7.342e-10
 82.60137    102.6 1.096e+04 7.780e-10
 82.62102    102.4 1.102e+04 8.163e-10
 82.64066    102.4 1.108e+04 8.127e-10
 82.66031    102.4 1.113e+04 7.861e-10
 82.67995    102.4 1.111e+04 7.396e-10
 82.69960    102.3 1.140e+04 6.720e-10
 82.71478    102.1 1.156e+04 6.615e-10
 82.72461     99.4 1.315e+04 9.735e-10
 82.73888     98.9 1.333e+04 1.044e-09
 82.75853     98.5 1.332e+04 1.170e-09
 82.77817     98.2 1.307e+04 1.350e-09
 82.79294     98.1 1.285e+04 1.650e-09
 82.80276     99.0 1.276e+04 1.825e-09
 82.81746     99.2 1.259e+04 2.188e-09
 82.83711     99.7 1.260e+04 2.573e-09
 82.85675    100.6 1.280e+04 3.039e-09
 82.87640    101.8 1.318e+04 3.684e-09
 82.89604    103.1 1.387e+04 4.312e-09
 82.91273    104.4 1.467e+04 4.576e-09
 82.92255    104.1 1.425e+04 2.758e-09
 82.93533    104.3 1.457e+04 2.328e-09
 82.95498    104.4 1.443e+04 1.935e-09
 82.97462    104.3 1.377e+04 1.618e-09
 82.99427    104.2 1.288e+04 1.394e-09
 83.01391    104.2 1.218e+04 1.329e-09
 83.03356    104.7 1.208e+04 1.336e-09
 83.05320    105.4 1.207e+04 1.401e-09
 83.07285    106.3 1.222e+04 1.483e-09
 83.09249    107.1 1.234e+04 1.480e-09
 83.11068    107.9 1.235e+04 1.446e-09
 83.13042    108.1 1.144e+04 7.860e-10
 83.16144    109.5 1.147e+04 7.933e-10
 83.20073    110.9 1.145e+04 7.690e-10
 83.23131    112.2 1.128e+04 6.714e-10
 83.25095    112.2 1.202e+04 1.100e-09
 83.27931    113.0 1.180e+04 9.351e-10
 83.31860    113.8 1.143e+04 7.032e-10
 83.35789    114.5 1.098e+04 4.673e-10
 83.39718    115.2 1.053e+04 2.806e-10
 83.43647    115.6 1.014e+04 1.651e-10
 83.47576    116.0 9.796e+03 1.199e-10
 83.50677    117.0 9.676e+03 1.170e-10
 83.52641    116.5 9.736e+03 1.476e-10
 83.55434    117.8 9.667e+03 1.452e-10
 83.59363    119.4 9.654e+03 1.481e-10
 83.63292    121.0 9.684e+03 1.595e-10
 83.67221    122.5 9.808e+03 1.775e-10
 83.71150    124.0 9.970e+03 1.935e-10
 83.75079    125.1 1.007e+04 1.953e-10
 83.79008    125.9 1.008e+04 1.925e-10
 83.82936    126.3 1.008e+04 1.820e-10
 83.86865    126.6 1.000e+04 1.670e-10
 83.90266    126.7 9.908e+03 1.563e-10
 83.92230    126.8 9.948e+03 1.572e-10
 83.94723    127.0 9.896e+03 1.541e-10
 83.98652    127.3 9.883e+03 1.561e-10
 84.02581    127.6 9.883e+03 1.651e-10
 84.06510    128.0 9.905e+03 1.771e-10
 84.10439    128.4 9.940e+03 1.858e-10
 84.12729    128.8 1.001e+04 1.918e-10
 84.14694    129.2 1.039e+04 2.651e-10
 84.18297    129.3 1.062e+04 2.794e-10
 84.22226    129.1 1.084e+04 3.041e-10
 84.25163    128.9 1.087e+04 3.204e-10
 84.27118    128.7 1.092e+04 3.451e-10
 84.29082    128.6 1.107e+04 4.332e-10
 84.30818    128.4 1.128e+04 5.903e-10
 84.31800    129.5 1.148e+04 5.793e-10
 84.33011    129.1 1.189e+04 8.503e-10
 84.34976    128.5 1.248e+04 1.238e-09
 84.36940    127.8 1.316e+04 1.706e-09
 84.38905    126.9 1.382e+04 2.091e-09
 84.40869    125.8 1.414e+04 2.134e-09
 84.42833    124.2 1.413e+04 2.096e-09
 84.44798    122.4 1.396e+04 1.986e-09
 84.46762    120.5 1.369e+04 1.952e-09
 84.48727    118.7 1.358e+04 2.001e-09
 84.50613    117.1 1.347e+04 2.238e-09
 84.51595    117.2 1.398e+04 2.876e-09
 84.52656    115.6 1.417e+04 2.886e-09
 84.54620    114.2 1.429e+04 2.828e-09
 84.56527    112.8 1.458e+04 2.517e-09
 84.57509    112.2 1.457e+04 2.719e-09
 84.58549    110.5 1.496e+04 2.185e-09
 84.60514    108.2 1.494e+04 1.718e-09
 84.62478    105.8 1.422e+04 1.445e-09
 84.64443    104.1 1.313e+04 1.342e-09
 84.66407    103.6 1.238e+04 1.359e-09
 84.68372    103.6 1.226e+04 1.373e-09
 84.70336    103.9 1.231e+04 1.359e-09
 84.71390    104.0 1.247e+04 1.313e-09
 84.72372    103.1 1.215e+04 8.314e-10
 84.74265    102.8 1.216e+04 7.207e-10
 84.76230    102.2 1.203e+04 6.401e-10
 84.78194    101.5 1.181e+04 6.233e-10
 84.80159    100.8 1.178e+04 6.310e-10
 84.82123     99.9 1.185e+04 6.759e-10
 84.84087     98.9 1.209e+04 7.809e-10
 84.86052     98.0 1.246e+04 9.875e-10
 84.89008     98.0 1.241e+04 1.027e-09
 84.92947     97.5 1.263e+04 1.339e-09
 84.96876     97.3 1.264e+04 1.417e-09
 85.00363     97.0 1.258e+04 1.364e-09
 85.02328     94.1 1.254e+04 1.364e-09
 85.04734     93.1 1.218e+04 1.253e-09
 85.08663     91.9 1.196e+04 1.227e-09
 85.10999     90.6 1.190e+04 1.216e-09
 85.11971     92.2 1.275e+04 1.812e-09
 85.13555     91.3 1.268e+04 1.783e-09
 85.15519     90.2 1.269e+04 1.763e-09
 85.17484     89.1 1.275e+04 1.732e-09
 85.19448     87.9 1.288e+04 1.672e-09
 85.21413     86.4 1.300e+04 1.569e-09
 85.23377     84.8 1.305e+04 1.406e-09
 85.25341     83.2 1.292e+04 1.179e-09
 85.27306     81.4 1.255e+04 9.536e-10
 85.29270     79.5 1.204e+04 7.884e-10
 85.30774     77.7 1.161e+04 7.017e-10
 85.31756     78.4 1.249e+04 8.185e-10
 85.33199     76.7 1.219e+04 7.999e-10
 85.35164     75.1 1.202e+04 8.010e-10
 85.37128     73.6 1.185e+04 8.125e-10
 85.39093     72.3 1.177e+04 8.628e-10
 85.41057     70.5 1.225e+04 1.055e-09
 85.43022     67.4 1.425e+04 1.781e-09
 85.44986     65.0 1.585e+04 3.132e-09
 85.46125     61.8 1.923e+04 7.273e-09
 85.46611     62.7 1.873e+04 4.785e-09
 85.47432     60.2 2.079e+04 8.060e-09
 85.48414     58.0 2.218e+04 1.428e-08
 85.49397     56.9 2.265e+04 2.404e-08
 85.50379     56.6 2.262e+04 3.746e-08
 85.51050     56.4 2.250e+04 5.402e-08
 85.51541     55.8 2.231e+04 5.975e-08
 85.52343     55.3 2.257e+04 7.209e-08
 85.53326     54.0 2.342e+04 7.026e-08
 85.54308     52.4 2.374e+04 6.347e-08
 85.55290     51.1 2.409e+04 4.737e-08
 85.56272     49.7 2.417e+04 3.045e-08
 85.57254     47.8 2.374e+04 1.930e-08
 85.58733     44.6 2.057e+04 8.229e-09
 85.60702     41.6 1.620e+04 3.513e-09
 85.62667     39.2 1.268e+04 1.745e-09
 85.64631     37.8 1.082e+04 9.980e-10
 85.66595     37.6 1.023e+04 6.557e-10
 85.68560     37.8 1.003e+04 4.942e-10
 85.70363     38.2 9.821e+03 4.102e-10
 85.71345     37.7 9.804e+03 4.023e-10
 85.72489     38.0 9.587e+03 3.470e-10
 85.74453     38.5 9.460e+03 3.182e-10
 85.76418     39.0 9.325e+03 3.013e-10
 85.79374     40.7 9.391e+03 3.079e-10
 85.83313     41.8 9.500e+03 3.287e-10
 85.87242     42.2 1.003e+04 4.091e-10
 85.89962     42.0 1.126e+04 5.871e-10
 85.90933     40.2 1.198e+04 6.835e-10
 85.92132     36.7 1.321e+04 1.462e-09
 85.94098     36.5 1.374e+04 2.004e-09
 85.96063     36.6 1.412e+04 2.570e-09
 85.98027     37.0 1.438e+04 3.061e-09
 85.99992     37.2 1.452e+04 3.297e-09
 86.01956     37.3 1.461e+04 3.269e-09
 86.03921     36.7 1.477e+04 3.238e-09
 86.05885     35.0 1.523e+04 3.374e-09
 86.07850     32.1 1.609e+04 3.856e-09
 86.09814     29.3 1.595e+04 4.262e-09
 86.10935     27.8 1.570e+04 4.619e-09
 86.11917     25.6 1.401e+04 3.125e-09
 86.13743     24.9 1.370e+04 2.963e-09
 86.15707     24.1 1.383e+04 2.807e-09
 86.17672     22.5 1.379e+04 2.474e-09
 86.19636     19.8 1.339e+04 2.085e-09
 86.21601     17.1 1.286e+04 1.891e-09
 86.23565     15.3 1.236e+04 1.801e-09
 86.25530     14.5 1.224e+04 1.786e-09
 86.27494     14.1 1.226e+04 1.794e-09
 86.29459     13.4 1.243e+04 1.897e-09
 86.30730     12.5 1.274e+04 2.093e-09
 86.31712     11.3 1.314e+04 2.403e-09
 86.33388     10.0 1.357e+04 2.586e-09
 86.34741      5.4 1.606e+04 3.769e-09
 86.35724     -0.0 1.757e+04 5.616e-09
 86.37317     -6.8 2.022e+04 1.166e-08
 86.39281    -10.0 2.005e+04 1.840e-08
 86.40622    -10.5 1.956e+04 2.287e-08
 86.41108    -11.0 1.922e+04 2.527e-08
 86.41727    -10.9 1.860e+04 2.556e-08
 86.42709    -10.8 1.836e+04 2.261e-08
 86.43691    -10.9 1.853e+04 1.852e-08
 86.44674    -11.4 1.925e+04 1.306e-08
 86.45656    -12.5 1.986e+04 9.047e-09
 86.47134    -19.0 1.770e+04 2.636e-09
 86.49104    -25.9 1.283e+04 1.218e-09
 86.50524    -28.4 1.050e+04 7.380e-10
 86.51506    -27.2 1.121e+04 9.860e-10
 86.53032    -27.0 1.085e+04 8.631e-10
 86.54997    -26.2 1.043e+04 7.267e-10
 86.56961    -25.5 9.978e+03 5.802e-10
 86.58926    -24.8 9.521e+03 4.578e-10
 86.60890    -24.3 9.067e+03 3.461e-10
 86.62855    -24.1 8.758e+03 2.988e-10
 86.65811    -22.6 8.625e+03 2.632e-10
 86.69356    -20.9 8.078e+03 2.031e-10
 86.71321    -19.7 8.445e+03 2.354e-10
 86.73679    -18.2 8.146e+03 2.101e-10
 86.77596    -16.5 8.161e+03 2.313e-10
 86.81525    -14.4 8.249e+03 2.408e-10
 86.85466    -12.2 8.596e+03 2.822e-10
 86.89395    -10.5 8.847e+03 3.129e-10
 86.93324     -9.0 8.966e+03 3.414e-10
 86.97253     -7.3 8.997e+03 3.517e-10
 87.01182     -5.3 8.875e+03 3.264e-10
 87.05111     -3.6 8.726e+03 2.840e-10
 87.08946     -2.1 8.565e+03 2.395e-10
 87.10910     -2.8 9.110e+03 3.449e-10
 87.12969     -1.7 9.011e+03 3.281e-10
 87.16897     -0.3 8.981e+03 3.295e-10
 87.20826      1.2 8.986e+03 3.367e-10
 87.24755      3.0 9.009e+03 3.387e-10
 87.28684      4.7 9.128e+03 3.386e-10
 87.30695      5.4 9.179e+03 3.405e-10
 87.31667      5.3 9.130e+03 3.249e-10
 87.33576      5.6 9.152e+03 3.250e-10
 87.35540      5.5 9.411e+03 3.736e-10
 87.37505      6.1 9.511e+03 3.990e-10
 87.39469      3.2 1.133e+04 6.114e-10
 87.41434     -0.2 1.326e+04 1.002e-09
 87.43398     -4.5 1.457e+04 2.867e-09
 87.45363     -3.8 1.474e+04 4.934e-09
 87.47327     -2.6 1.467e+04 5.742e-09
 87.49292     -0.6 1.430e+04 5.087e-09
 87.50480      0.7 1.408e+04 3.552e-09
 87.51462      1.8 1.358e+04 2.705e-09
 87.53221     -0.5 1.377e+04 1.381e-09
 87.55185     -5.4 1.186e+04 5.860e-10
 87.57150     -9.4 9.227e+03 3.491e-10
 87.59114     -9.4 9.145e+03 3.111e-10
 87.61079     -9.1 9.123e+03 3.074e-10
 87.64035     -7.5 9.126e+03 3.058e-10
 87.67194     -6.2 8.918e+03 2.615e-10
 87.69159     -6.7 8.649e+03 2.148e-10
 87.71903     -5.5 8.575e+03 1.970e-10
 87.75832     -4.3 8.581e+03 1.845e-10
 87.79761     -3.3 8.639e+03 1.774e-10
 87.83690     -2.4 8.680e+03 1.850e-10
 87.87619     -1.5 8.741e+03 1.941e-10
 87.90089     -0.5 8.749e+03 1.898e-10
 87.92053     -0.3 9.080e+03 2.696e-10
 87.95477      0.6 9.062e+03 2.475e-10
 87.99405      1.4 8.974e+03 2.140e-10
 88.03334      2.4 8.909e+03 1.735e-10
 88.07263      3.0 8.925e+03 1.393e-10
 88.11192      3.4 8.770e+03 1.286e-10
 88.15121      2.2 9.200e+03 1.478e-10
 88.19050     -2.1 1.127e+04 3.259e-10
 88.21987     -6.6 1.261e+04 1.119e-09
 88.23942     -7.7 1.324e+04 1.682e-09
 88.25906     -9.0 1.448e+04 3.187e-09
 88.27871     -9.9 1.523e+04 4.091e-09
 88.29659    -10.8 1.544e+04 3.844e-09
 88.30641    -10.7 1.632e+04 6.734e-09
 88.31800    -10.0 1.550e+04 4.088e-09
 88.33764     -9.7 1.431e+04 1.677e-09
 88.35729    -13.1 1.330e+04 5.541e-10
 88.37693    -17.5 1.167e+04 1.864e-10
 88.39658    -19.8 1.007e+04 1.189e-10
 88.41622    -19.9 9.694e+03 9.053e-11
 88.43587    -19.9 9.652e+03 8.952e-11
 88.46543    -19.0 9.542e+03 8.445e-11
 88.50482    -18.5 9.555e+03 8.956e-11
 88.54411    -18.6 9.795e+03 1.399e-10
 88.56793    -17.9 1.027e+04 2.605e-10
 88.58757    -18.8 1.005e+04 2.107e-10
 88.62269    -17.5 1.026e+04 3.244e-10
 88.66198    -16.3 1.051e+04 3.720e-10
 88.69268    -16.4 1.066e+04 3.525e-10
 88.71232    -17.4 1.061e+04 3.331e-10
 88.74056    -17.6 1.041e+04 3.548e-10
 88.77985    -16.9 1.018e+04 3.909e-10
 88.81914    -16.0 1.020e+04 3.713e-10
 88.85842    -15.7 1.017e+04 3.364e-10
 88.89771    -15.8 1.014e+04 3.443e-10
 88.93700    -15.3 1.029e+04 3.960e-10
 88.97629    -14.2 1.017e+04 3.643e-10
 89.01558    -13.8 9.984e+03 2.880e-10
 89.05487    -14.4 9.891e+03 2.295e-10
 89.08857    -14.9 9.898e+03 2.524e-10
 89.10822    -15.8 9.887e+03 2.553e-10
 89.12353    -16.3 1.004e+04 3.109e-10
 89.14308    -16.7 1.013e+04 3.300e-10
 89.16272    -17.6 1.044e+04 5.034e-10
 89.18237    -18.4 1.112e+04 7.483e-10
 89.20201    -19.9 1.216e+04 1.205e-09
 89.22166    -21.5 1.297e+04 1.853e-09
 89.24130    -22.3 1.312e+04 2.659e-09
 89.26095    -21.8 1.340e+04 3.176e-09
 89.28059    -22.0 1.346e+04 3.028e-09
 89.29614    -22.4 1.308e+04 2.235e-09
 89.30597    -22.9 1.296e+04 2.204e-09
 89.31988    -24.2 1.245e+04 1.677e-09
 89.33953    -26.2 1.254e+04 1.322e-09
 89.35917    -29.5 1.323e+04 1.194e-09
 89.37882    -34.3 1.355e+04 1.281e-09
 89.39846    -37.6 1.306e+04 1.711e-09
 89.41811    -38.4 1.307e+04 2.358e-09
 89.43775    -37.3 1.329e+04 2.789e-09
 89.45390    -36.0 1.333e+04 2.748e-09
 89.46372    -36.5 1.259e+04 1.989e-09
 89.47704    -35.8 1.246e+04 1.783e-09
 89.49409    -35.6 1.218e+04 1.430e-09
 89.50391    -36.1 1.241e+04 1.470e-09
 89.51633    -36.4 1.196e+04 1.045e-09
 89.53597    -36.6 1.139e+04 7.907e-10
 89.55562    -36.6 1.102e+04 6.519e-10
 89.57526    -36.3 1.085e+04 5.782e-10
 89.59491    -35.7 1.082e+04 5.584e-10
 89.61455    -35.0 1.084e+04 5.559e-10
 89.63420    -34.6 1.105e+04 5.875e-10
 89.65384    -34.6 1.135e+04 6.684e-10
 89.67349    -34.7 1.177e+04 8.463e-10
 89.69204    -35.2 1.209e+04 1.098e-09
 89.70186    -36.3 1.205e+04 1.120e-09
 89.71278    -36.5 1.248e+04 1.422e-09
 89.73242    -36.5 1.277e+04 1.648e-09
 89.75207    -36.6 1.302e+04 1.597e-09
 89.77171    -37.7 1.339e+04 1.209e-09
 89.79136    -41.2 1.332e+04 7.549e-10
 89.81100    -45.8 1.336e+04 6.310e-10
 89.83065    -54.1 1.203e+04 5.180e-10
 89.85029    -58.0 1.233e+04 7.343e-10
 89.86993    -61.2 1.272e+04 1.129e-09
 89.88958    -63.7 1.344e+04 1.312e-09
 89.89981    -67.4 1.394e+04 1.364e-09
 89.90229    -66.3 1.352e+04 1.168e-09
 89.91171    -68.7 1.397e+04 1.396e-09
 89.92887    -72.9 1.365e+04 1.363e-09
 89.94851    -76.5 1.320e+04 1.371e-09
 89.96816    -78.8 1.282e+04 1.469e-09
 89.98780    -80.5 1.283e+04 1.526e-09
 90.00745    -82.3 1.278e+04 1.521e-09
 90.02709    -84.2 1.259e+04 1.418e-09
 90.04674    -86.3 1.241e+04 1.287e-09
 90.06638    -88.5 1.227e+04 1.199e-09
 90.08603    -90.6 1.215e+04 1.164e-09
 90.09775    -92.4 1.204e+04 1.155e-09
 90.10758    -91.8 1.185e+04 1.061e-09
 90.12532    -93.3 1.176e+04 1.058e-09
 90.14496    -94.6 1.165e+04 1.030e-09
 90.16461    -96.0 1.159e+04 9.516e-10
 90.18425    -97.6 1.157e+04 8.620e-10
 90.20390    -99.5 1.155e+04 8.074e-10
 90.22354   -101.5 1.151e+04 7.934e-10
 90.24319   -103.4 1.147e+04 7.927e-10
 90.26283   -105.2 1.139e+04 7.969e-10
 90.28247   -106.8 1.132e+04 7.879e-10
 90.29570   -108.5 1.124e+04 7.691e-10
 90.30552   -107.4 1.126e+04 7.963e-10
 90.32176   -109.1 1.124e+04 7.921e-10
 90.34006   -110.8 1.123e+04 7.934e-10
 90.34988   -109.9 1.140e+04 8.899e-10
 90.36105   -111.6 1.136e+04 8.862e-10
 90.38070   -113.3 1.132e+04 8.947e-10
 90.40034   -115.0 1.132e+04 9.093e-10
 90.41999   -116.9 1.137e+04 9.214e-10
 90.43963   -118.8 1.139e+04 9.244e-10
 90.45928   -120.9 1.140e+04 8.924e-10
 90.47892   -123.0 1.120e+04 8.040e-10
 90.49365   -124.9 1.089e+04 6.767e-10
 90.50347   -124.1 1.104e+04 7.261e-10
 90.51821   -125.9 1.057e+04 5.513e-10
 90.53786   -127.5 1.003e+04 4.058e-10
 90.55750   -128.3 9.566e+03 3.193e-10
 90.58707   -128.6 9.288e+03 2.635e-10
 90.62645   -129.2 8.623e+03 1.672e-10
 90.66574   -129.5 8.074e+03 1.065e-10
 90.69179   -129.6 7.772e+03 7.575e-11
 90.71144   -128.5 7.793e+03 7.433e-11
 90.74432   -128.4 7.612e+03 5.732e-11
 90.78361   -128.0 7.500e+03 4.842e-11
 90.82290   -127.5 7.446e+03 4.406e-11
 90.86219   -127.1 7.433e+03 4.270e-11
 90.90148   -126.6 7.431e+03 4.258e-11
 90.94077   -126.2 7.443e+03 4.367e-11
 90.98006   -125.8 7.463e+03 4.540e-11
 91.01935   -125.3 7.473e+03 4.619e-11
 91.05864   -124.9 7.480e+03 4.592e-11
 91.08768   -124.5 7.480e+03 4.421e-11
 91.10733   -124.0 7.553e+03 5.158e-11
 91.13722   -123.8 7.553e+03 5.017e-11
 91.17651   -123.6 7.555e+03 4.984e-11
 91.21580   -123.6 7.594e+03 5.118e-11
 91.23624   -123.5 7.689e+03 5.800e-11
 91.25588   -123.0 7.725e+03 5.786e-11
 91.29438   -122.9 7.796e+03 6.608e-11
 91.33367   -122.5 7.836e+03 7.035e-11
 91.37295   -122.1 7.840e+03 7.085e-11
 91.41224   -121.5 7.835e+03 6.559e-11
 91.45153   -121.1 7.854e+03 5.475e-11
 91.48358   -120.9 7.904e+03 4.667e-11
 91.50322   -121.4 8.115e+03 6.819e-11
 91.53011   -122.1 8.345e+03 7.173e-11
 91.56940   -123.3 8.895e+03 1.166e-10
 91.60869   -123.9 9.406e+03 2.305e-10
 91.64798   -124.0 9.879e+03 3.945e-10
 91.68727   -124.0 1.025e+04 5.347e-10
 91.72656   -124.0 1.041e+04 5.808e-10
 91.76585   -124.0 1.043e+04 5.810e-10
 91.80514   -123.8 1.037e+04 5.393e-10
 91.84443   -123.0 1.027e+04 4.878e-10
 91.87947   -122.0 1.023e+04 4.544e-10
 91.89912   -122.8 1.026e+04 4.565e-10
 91.92301   -121.5 1.028e+04 4.512e-10
 91.96230   -120.1 1.033e+04 4.516e-10
 92.00159   -118.5 1.043e+04 4.567e-10
 92.04088   -116.9 1.055e+04 4.885e-10
 92.08017   -115.4 1.074e+04 5.417e-10
 92.11258   -114.0 1.100e+04 6.051e-10
 92.13222   -112.8 1.063e+04 4.798e-10
 92.15875   -111.7 1.106e+04 6.350e-10
 92.19803   -110.9 1.155e+04 8.034e-10
 92.23732   -110.6 1.196e+04 9.537e-10
 92.27537   -110.6 1.221e+04 1.074e-09
 92.29501   -111.8 1.273e+04 1.425e-09
 92.31590   -112.4 1.274e+04 1.432e-09
 92.35519   -113.2 1.272e+04 1.394e-09
 92.39448   -113.9 1.281e+04 1.413e-09
 92.42385   -114.4 1.341e+04 1.769e-09
 92.44340   -115.2 1.386e+04 2.312e-09
 92.46304   -115.7 1.403e+04 2.855e-09
 92.48269   -115.8 1.418e+04 3.122e-09
 92.49276   -115.8 1.428e+04 3.307e-09
 92.50259   -116.5 1.397e+04 2.908e-09
 92.52198   -116.5 1.379e+04 2.847e-09
 92.54162   -116.4 1.348e+04 2.486e-09
 92.56038   -116.3 1.300e+04 1.958e-09
 92.57020   -115.2 1.368e+04 2.715e-09
 92.58091   -115.0 1.319e+04 2.153e-09
 92.60056   -115.0 1.262e+04 1.599e-09
 92.62020   -115.0 1.202e+04 1.144e-09
 92.63985   -115.0 1.144e+04 8.121e-10
 92.65949   -114.9 1.094e+04 5.957e-10
 92.67914   -114.8 1.054e+04 4.629e-10
 92.69071   -114.6 1.022e+04 3.849e-10
 92.70053   -115.1 1.012e+04 3.739e-10
 92.71843   -114.7 9.963e+03 3.436e-10
 92.74799   -113.9 9.867e+03 3.315e-10
 92.78738   -111.9 9.815e+03 3.303e-10
 92.82667   -110.0 9.849e+03 3.538e-10
 92.86596   -108.1 9.928e+03 3.829e-10
 92.90525   -106.2 1.001e+04 4.133e-10
 92.94454   -104.3 1.009e+04 4.449e-10
 92.98383   -102.5 1.015e+04 4.728e-10
 93.00857   -100.6 1.018e+04 4.900e-10
 93.02821   -100.1 1.016e+04 4.897e-10
 93.06240    -98.2 1.018e+04 5.001e-10
 93.08680    -96.4 1.019e+04 5.051e-10
 93.10644    -96.0 9.914e+03 4.122e-10
 93.14098    -94.9 1.010e+04 4.544e-10
 93.18027    -95.3 1.095e+04 5.997e-10
 93.20964    -97.2 1.197e+04 8.828e-10
 93.22919    -99.2 1.389e+04 1.931e-09
 93.24883    -99.8 1.546e+04 4.184e-09
 93.26848    -99.5 1.661e+04 7.487e-09
 93.28455    -99.2 1.729e+04 9.773e-09
 93.29437    -98.8 1.730e+04 9.932e-09
 93.30777    -98.7 1.760e+04 1.071e-08
 93.32741    -99.3 1.770e+04 1.015e-08
 93.34706   -102.4 1.846e+04 8.862e-09
 93.36670   -109.2 1.981e+04 7.911e-09
 93.38635   -119.6 1.980e+04 7.264e-09
 93.40599   -129.7 1.842e+04 6.835e-09
 93.42564   -137.4 1.688e+04 5.924e-09
 93.44528   -142.6 1.560e+04 4.274e-09
 93.45636   -146.6 1.417e+04 2.566e-09
 93.46619   -144.9 1.410e+04 2.383e-09
 93.48250   -148.5 1.259e+04 1.315e-09
 93.49232   -149.5 1.210e+04 1.046e-09
 93.50422   -152.1 1.093e+04 6.544e-10
 93.52386   -153.0 1.048e+04 5.082e-10
 93.54351   -153.2 1.033e+04 4.490e-10
 93.56315   -153.3 1.022e+04 4.159e-10
 93.58280   -152.8 1.015e+04 3.947e-10
 93.60244   -151.9 1.014e+04 3.882e-10
 93.62209   -150.9 1.016e+04 3.880e-10
 93.64173   -149.9 1.022e+04 3.939e-10
 93.66137   -148.7 1.028e+04 4.052e-10
 93.68044   -147.3 1.034e+04 4.192e-10
 93.69027   -147.5 1.034e+04 4.155e-10
 93.70066   -146.1 1.042e+04 4.342e-10
 93.72031   -144.5 1.051e+04 4.598e-10
 93.73995   -142.9 1.060e+04 4.975e-10
 93.75960   -141.2 1.071e+04 5.401e-10
 93.77924   -139.4 1.080e+04 5.879e-10
 93.79889   -137.6 1.090e+04 6.454e-10
 93.81853   -135.7 1.105e+04 7.171e-10
 93.83818   -133.8 1.123e+04 8.025e-10
 93.85782   -132.0 1.142e+04 8.976e-10
 93.87747   -130.2 1.164e+04 1.004e-09
 93.88821   -128.4 1.193e+04 1.135e-09
 93.89546   -128.7 1.192e+04 1.232e-09
 93.90436   -128.8 1.180e+04 1.019e-09
 93.91676   -127.2 1.213e+04 1.180e-09
 93.93640   -125.7 1.252e+04 1.387e-09
 93.95605   -124.3 1.300e+04 1.669e-09
 93.97569   -122.9 1.354e+04 2.045e-09
 93.99534   -121.8 1.413e+04 2.506e-09
 94.01498   -121.1 1.491e+04 3.124e-09
 94.03463   -121.0 1.614e+04 4.030e-09
 94.05427   -122.0 1.806e+04 5.801e-09
 94.07391   -124.5 2.022e+04 9.347e-09
 94.08611   -126.2 2.181e+04 1.348e-08
 94.09593   -126.1 2.173e+04 1.278e-08
 94.10824   -129.0 2.211e+04 3.110e-08
 94.11802   -129.4 2.139e+04 5.948e-08
 94.12334   -129.2 2.118e+04 9.862e-08
 94.12825   -128.1 2.156e+04 5.692e-08
 94.13766   -127.8 2.139e+04 8.000e-08
 94.14748   -127.5 2.151e+04 9.345e-08
 94.15731   -127.4 2.158e+04 9.689e-08
 94.16713   -127.3 2.199e+04 8.735e-08
 94.17695   -127.2 2.254e+04 5.926e-08
 94.18504   -127.4 2.342e+04 3.367e-08
 94.18995   -126.9 2.226e+04 5.864e-08
 94.19660   -127.1 2.282e+04 3.136e-08
 94.20642   -128.1 2.318e+04 1.744e-08
 94.21624   -129.7 2.262e+04 1.059e-08
 94.22606   -131.6 2.119e+04 7.181e-09
 94.23589   -133.6 2.018e+04 5.706e-09
 94.24571   -135.6 2.020e+04 5.333e-09
 94.25553   -138.1 2.242e+04 5.461e-09
 94.26535   -140.9 2.398e+04 7.284e-09
 94.27518   -143.5 2.349e+04 1.113e-08
 94.28401   -145.1 2.199e+04 1.757e-08
 94.28892   -143.0 2.339e+04 1.445e-08
 94.29482   -144.2 2.162e+04 2.356e-08
 94.30464   -144.5 2.019e+04 3.634e-08
 94.31447   -144.5 1.963e+04 5.077e-08
 94.32429   -144.3 1.958e+04 6.382e-08
 94.33411   -144.1 1.977e+04 7.373e-08
 94.34243   -143.9 2.014e+04 7.981e-08
 94.34734   -144.7 1.990e+04 6.636e-08
 94.35376   -144.6 2.052e+04 7.598e-08
 94.36358   -144.9 2.164e+04 7.665e-08
 94.37340   -146.7 2.250e+04 7.230e-08
 94.38298   -149.6 2.441e+04 5.046e-08
 94.38789   -146.1 2.284e+04 8.139e-08
 94.39304   -149.8 2.492e+04 4.920e-08
 94.40287   -155.0 2.599e+04 2.193e-08
 94.41269   -161.8 2.346e+04 8.342e-09
 94.42251   -168.4 1.756e+04 3.670e-09
 94.43233   -172.1 1.459e+04 2.512e-09
 94.44216   -173.3 1.391e+04 2.121e-09
 94.45198   -173.9 1.364e+04 1.875e-09
 94.46676   -174.9 1.319e+04 1.554e-09
 94.48205   -177.6 1.134e+04 9.364e-10
 94.49188   -177.2 1.159e+04 1.051e-09
 94.50610   -178.7 1.044e+04 7.369e-10
 94.52574   -179.5 1.002e+04 5.999e-10
 94.54539   -180.1 9.779e+03 5.163e-10
 94.56503   -180.9 9.474e+03 4.401e-10
 94.58468   -181.5 9.141e+03 3.728e-10
 94.60432   -182.0 8.932e+03 3.255e-10
 94.62397   -183.1 8.974e+03 3.121e-10
 94.64361   -188.6 1.259e+04 2.858e-10
 94.66326   -197.8 2.020e+04 6.550e-10
 94.68000   -204.4 2.067e+04 2.624e-09
 94.68982   -205.8 2.086e+04 4.228e-09
 94.70255   -208.7 1.956e+04 8.143e-09
 94.72219   -210.5 1.883e+04 1.027e-08
 94.74184   -212.0 1.847e+04 1.062e-08
 94.76148   -213.1 1.740e+04 9.397e-09
 94.78070   -214.6 1.658e+04 6.240e-09
 94.79052   -212.5 1.727e+04 8.973e-09
 94.80077   -214.1 1.657e+04 6.519e-09
 94.82042   -216.2 1.576e+04 4.250e-09
 94.84006   -218.7 1.449e+04 2.746e-09
 94.85971   -220.9 1.297e+04 1.917e-09
 94.87795   -222.4 1.185e+04 1.525e-09
 94.88777   -222.1 1.156e+04 1.411e-09
 94.89899   -222.8 1.136e+04 1.343e-09
 94.91864   -223.2 1.130e+04 1.297e-09
 94.93828   -223.7 1.123e+04 1.207e-09
 94.95793   -224.3 1.106e+04 1.060e-09
 94.97757   -225.1 1.082e+04 9.030e-10
 94.99722   -226.1 1.056e+04 7.666e-10
 95.01686   -227.1 1.033e+04 6.659e-10
 95.03651   -228.1 1.016e+04 5.997e-10
 95.05615   -228.8 1.007e+04 5.586e-10
 95.07580   -229.4 9.981e+03 5.284e-10
 95.08572   -229.6 9.868e+03 4.944e-10
 95.09554   -229.4 9.914e+03 5.105e-10
 95.11509   -229.5 9.774e+03 4.642e-10
 95.13473   -229.4 9.636e+03 4.183e-10
 95.15438   -229.2 9.529e+03 3.853e-10
 95.18394   -229.1 9.436e+03 3.585e-10
 95.22333   -228.3 9.275e+03 3.198e-10
 95.26262   -227.0 9.236e+03 2.960e-10
 95.30191   -225.5 9.269e+03 2.913e-10
 95.34120   -224.0 9.355e+03 2.948e-10
 95.38049   -222.5 9.421e+03 3.056e-10
 95.41978   -221.5 9.882e+03 4.024e-10
 95.45907   -220.6 1.039e+04 5.767e-10
 95.48181   -219.8 1.082e+04 7.915e-10
 95.50145   -219.4 1.082e+04 7.873e-10
 95.53765   -219.0 1.108e+04 9.405e-10
 95.57693   -218.9 1.112e+04 9.659e-10
 95.61622   -218.9 1.108e+04 9.233e-10
 95.65551   -219.2 1.096e+04 8.335e-10
 95.67688   -219.5 1.089e+04 7.609e-10
 95.69652   -217.2 1.179e+04 1.253e-09
 95.73409   -218.3 1.167e+04 1.112e-09
 95.76346   -219.9 1.134e+04 9.413e-10
 95.78301   -220.6 1.146e+04 9.464e-10
 95.80265   -221.5 1.163e+04 9.914e-10
 95.82230   -222.2 1.184e+04 1.067e-09
 95.84194   -223.0 1.207e+04 1.173e-09
 95.86159   -223.7 1.224e+04 1.279e-09
 95.87751   -224.4 1.233e+04 1.393e-09
 95.88733   -225.1 1.208e+04 1.316e-09
 95.90088   -225.5 1.208e+04 1.326e-09
 95.92052   -225.8 1.197e+04 1.311e-09
 95.94017   -226.0 1.177e+04 1.171e-09
 95.95981   -226.2 1.161e+04 1.064e-09
 95.97946   -226.2 1.144e+04 9.574e-10
 95.99910   -226.2 1.129e+04 8.433e-10
 96.01875   -226.1 1.114e+04 7.233e-10
 96.03839   -225.8 1.099e+04 5.962e-10
 96.05804   -225.3 1.084e+04 4.734e-10
 96.08760   -224.9 1.065e+04 3.612e-10
 96.12699   -224.3 1.051e+04 3.080e-10
 96.16628   -223.1 1.022e+04 2.415e-10
 96.20557   -221.4 9.933e+03 1.856e-10
 96.24486   -219.4 9.723e+03 1.448e-10
 96.27360   -217.3 9.611e+03 1.157e-10
 96.29324   -216.7 9.582e+03 1.134e-10
 96.32344   -214.5 9.530e+03 9.331e-11
 96.36273   -212.2 9.516e+03 7.968e-11
 96.40201   -209.9 9.533e+03 7.154e-11
 96.44130   -207.5 9.568e+03 6.828e-11
 96.48059   -205.1 9.581e+03 6.782e-11
 96.51988   -202.7 9.600e+03 6.800e-11
 96.55322   -200.4 9.660e+03 6.899e-11
 96.57286   -200.4 9.645e+03 7.063e-11
 96.59846   -198.1 9.661e+03 7.094e-11
 96.63775   -195.8 9.666e+03 7.163e-11
 96.66949   -193.5 9.660e+03 7.320e-11
 96.68913   -193.0 9.567e+03 6.822e-11
 96.71633   -190.7 9.559e+03 6.870e-11
 96.75562   -188.5 9.557e+03 7.202e-11
 96.79491   -186.3 9.583e+03 7.849e-11
 96.83420   -184.2 9.624e+03 8.758e-11
 96.87349   -182.2 9.677e+03 9.812e-11
 96.91278   -180.2 9.739e+03 1.089e-10
 96.95207   -178.3 9.808e+03 1.183e-10
 96.99136   -176.4 9.868e+03 1.249e-10
 97.03065   -174.5 9.906e+03 1.273e-10
 97.06538   -172.6 9.920e+03 1.275e-10
 97.08503   -171.7 9.892e+03 1.196e-10
 97.10923   -169.8 9.907e+03 1.201e-10
 97.14852   -167.8 9.929e+03 1.149e-10
 97.18781   -165.9 9.898e+03 1.059e-10
 97.22709   -164.0 9.864e+03 9.609e-11
 97.26638   -162.1 9.836e+03 8.893e-11
 97.30567   -160.3 9.807e+03 8.494e-11
 97.34496   -158.5 9.794e+03 8.390e-11
 97.38425   -156.6 9.765e+03 8.484e-11
 97.42354   -154.7 9.724e+03 8.945e-11
 97.44920   -152.7 9.693e+03 9.435e-11
 97.46729   -152.6 9.728e+03 1.146e-10
 97.48092   -151.7 9.846e+03 1.292e-10
 97.50212   -149.6 9.818e+03 1.355e-10
 97.54141   -147.5 9.805e+03 1.370e-10
 97.58070   -145.3 9.776e+03 1.315e-10
 97.61999   -143.1 9.776e+03 1.225e-10
 97.65928   -140.8 9.781e+03 1.126e-10
 97.69857   -138.5 9.786e+03 1.039e-10
 97.73786   -136.2 9.790e+03 9.738e-11
 97.77715   -133.8 9.803e+03 9.301e-11
 97.81644   -131.5 9.838e+03 9.044e-11
 97.85573   -129.1 9.875e+03 8.979e-11
 97.87682   -126.8 9.958e+03 9.351e-11
 97.89646   -125.8 1.004e+04 1.228e-10
 97.93431   -123.5 1.008e+04 1.306e-10
 97.97360   -121.3 1.011e+04 1.373e-10
 98.01289   -119.1 1.011e+04 1.431e-10
 98.05218   -116.9 1.012e+04 1.463e-10
 98.09146   -114.7 1.013e+04 1.493e-10
 98.13075   -112.6 1.017e+04 1.513e-10
 98.17004   -110.5 1.025e+04 1.531e-10
 98.20933   -108.6 1.036e+04 1.600e-10
 98.24862   -106.7 1.047e+04 1.748e-10
 98.27271   -104.6 1.053e+04 1.971e-10
 98.29235   -104.4 1.062e+04 2.208e-10
 98.32554   -102.0 1.073e+04 2.289e-10
 98.34519   -103.4 1.061e+04 2.187e-10
 98.36649   -101.8 1.055e+04 2.112e-10
 98.40578   -100.2 1.056e+04 2.052e-10
 98.44507    -98.8 1.060e+04 2.028e-10
 98.48436    -97.6 1.136e+04 1.866e-10
 98.52365    -97.1 1.447e+04 1.785e-10
 98.55302    -94.0 2.035e+04 4.791e-10
 98.57257    -93.2 2.018e+04 4.947e-10
 98.59221    -96.3 2.089e+04 7.787e-10
 98.61186    -97.4 2.378e+04 9.860e-10
 98.63150    -99.7 2.648e+04 1.446e-09
 98.65115   -101.3 2.893e+04 2.295e-09
 98.66841   -103.0 3.001e+04 4.551e-09
 98.67818   -102.7 2.849e+04 5.064e-09
 98.68543   -103.1 2.959e+04 6.314e-09
 98.69525   -104.1 2.922e+04 1.018e-08
 98.70507   -104.9 2.804e+04 1.723e-08
 98.71489   -105.6 2.626e+04 3.182e-08
 98.72472   -106.2 2.454e+04 5.699e-08
 98.73454   -106.7 2.329e+04 9.355e-08
 98.74436   -107.2 2.250e+04 1.312e-07
 98.75418   -107.7 2.206e+04 1.532e-07
 98.76400   -108.1 2.185e+04 1.577e-07
 98.77220   -108.1 2.152e+04 1.470e-07
 98.77711   -108.0 2.156e+04 1.637e-07
 98.78307   -107.8 2.141e+04 1.392e-07
 98.78798   -106.9 2.194e+04 1.221e-07
 98.79347   -106.5 2.163e+04 1.050e-07
 98.80329   -105.9 2.156e+04 8.897e-08
 98.81312   -105.4 2.176e+04 7.632e-08
 98.82294   -105.1 2.204e+04 6.717e-08
 98.83276   -104.8 2.197e+04 6.154e-08
 98.84258   -104.4 2.163e+04 5.753e-08
 98.85241   -104.1 2.137e+04 5.321e-08
 98.86223   -103.8 2.147e+04 4.733e-08
 98.87117   -103.6 2.186e+04 4.001e-08
 98.87608   -103.6 2.179e+04 3.213e-08
 98.88187   -103.6 2.214e+04 2.451e-08
 98.89170   -103.6 2.247e+04 1.761e-08
 98.90152   -103.8 2.267e+04 1.189e-08
 98.91134   -104.2 2.254e+04 7.539e-09
 98.92116   -104.8 2.175e+04 4.580e-09
 98.93099   -105.4 2.025e+04 2.747e-09
 98.94081   -106.0 1.833e+04 1.872e-09
 98.95063   -106.4 1.667e+04 1.447e-09
 98.96045   -106.6 1.526e+04 1.155e-09
 98.97014   -106.7 1.437e+04 1.017e-09
 98.97505   -106.7 1.393e+04 9.662e-10
 98.98010   -106.5 1.337e+04 8.489e-10
 98.98992   -106.3 1.346e+04 8.424e-10
 99.00470   -105.5 1.397e+04 8.371e-10
 99.02440   -105.1 1.306e+04 7.176e-10
 99.04404   -104.6 1.249e+04 6.365e-10
 99.06369   -104.2 1.215e+04 5.844e-10
 99.07412   -103.7 1.212e+04 5.688e-10
 99.08395   -103.0 1.194e+04 4.776e-10
 99.10297   -102.6 1.208e+04 4.856e-10
 99.12262   -102.2 1.218e+04 5.510e-10
 99.14226   -101.8 1.218e+04 6.422e-10
 99.16191   -101.3 1.214e+04 7.450e-10
 99.18155   -100.8 1.209e+04 8.394e-10
 99.20120   -100.3 1.204e+04 9.015e-10
 99.22084    -99.7 1.205e+04 9.210e-10
 99.23116    -99.2 1.199e+04 9.049e-10
 99.24098    -98.6 1.240e+04 1.176e-09
 99.26013    -98.1 1.214e+04 1.017e-09
 99.27207    -97.6 1.204e+04 8.761e-10
 99.28189    -96.7 1.213e+04 9.736e-10
 99.29942    -96.3 1.208e+04 8.470e-10
 99.31907    -96.1 1.200e+04 7.460e-10
 99.33871    -95.9 1.188e+04 6.758e-10
 99.35836    -95.9 1.176e+04 6.296e-10
 99.37800    -95.8 1.165e+04 5.903e-10
 99.39765    -95.8 1.155e+04 5.493e-10
 99.41729    -95.7 1.142e+04 5.023e-10
 99.43694    -95.5 1.123e+04 4.481e-10
 99.45658    -95.3 1.096e+04 3.945e-10
 99.47002    -95.1 1.070e+04 3.530e-10
 99.47984    -93.6 1.086e+04 3.931e-10
 99.49587    -93.3 1.077e+04 3.438e-10
 99.51551    -93.2 1.074e+04 3.217e-10
 99.54508    -92.9 1.075e+04 3.009e-10
 99.58447    -93.1 1.076e+04 2.909e-10
 99.61384    -93.7 1.090e+04 2.988e-10
 99.63338    -94.3 1.107e+04 3.424e-10
 99.65303    -95.4 1.135e+04 4.668e-10
 99.66797    -96.1 1.151e+04 6.195e-10
 99.67444    -95.2 1.142e+04 5.956e-10
 99.67915    -95.1 1.150e+04 6.711e-10
 99.69232    -95.5 1.159e+04 7.382e-10
 99.71196    -96.1 1.161e+04 7.491e-10
 99.73161    -96.7 1.146e+04 7.073e-10
 99.75125    -97.3 1.119e+04 5.848e-10
 99.77090    -97.9 1.094e+04 4.552e-10
 99.79054    -98.6 1.072e+04 3.606e-10
 99.81019    -99.2 1.064e+04 3.132e-10
 99.82983   -100.0 1.064e+04 3.039e-10
 99.84948   -101.4 1.079e+04 3.049e-10
 99.86591   -103.7 1.159e+04 4.026e-10
 99.87573   -102.5 1.133e+04 3.385e-10
 99.88877   -104.7 1.202e+04 6.197e-10
 99.90841   -105.9 1.264e+04 1.163e-09
 99.92805   -106.7 1.326e+04 1.909e-09
 99.94770   -107.6 1.381e+04 2.641e-09
 99.96734   -108.7 1.424e+04 3.188e-09
 99.98699   -110.3 1.458e+04 3.536e-09
100.00663   -112.2 1.486e+04 3.753e-09
