# Columns:
#   distance along LOS (in CHIMPs)
#   peculiar velocity  (in km/s)
#   temperature (K)
#   HI number density
# pos=(232.355,148.486,3.40926), angles=(1.69881,1.52764)
  0.00127    -87.0 1.113e+04 7.856e-11
  0.02226    -86.2 1.113e+04 9.802e-11
  0.06168    -85.2 1.111e+04 1.110e-10
  0.10110    -84.3 1.110e+04 1.137e-10
  0.14052    -83.3 1.101e+04 1.055e-10
  0.17777    -82.3 1.093e+04 8.149e-11
  0.19749    -81.4 1.093e+04 1.277e-10
  0.21937    -80.6 1.084e+04 9.137e-11
  0.25879    -79.8 1.081e+04 6.997e-11
  0.29821    -78.9 1.080e+04 6.409e-11
  0.33763    -77.7 1.080e+04 6.341e-11
  0.37705    -76.6 1.079e+04 7.017e-11
  0.41647    -75.4 1.075e+04 8.936e-11
  0.45590    -74.1 1.075e+04 1.164e-10
  0.48845    -72.9 1.083e+04 1.540e-10
  0.50816    -72.2 1.087e+04 2.240e-10
  0.52325    -71.0 1.098e+04 2.728e-10
  0.54296    -70.8 1.108e+04 2.543e-10
  0.57416    -69.8 1.126e+04 3.296e-10
  0.61358    -69.1 1.149e+04 4.328e-10
  0.65300    -68.9 1.175e+04 5.606e-10
  0.69242    -68.8 1.201e+04 7.048e-10
  0.72189    -68.7 1.202e+04 6.725e-10
  0.74151    -68.9 1.205e+04 7.512e-10
  0.76122    -69.1 1.206e+04 8.335e-10
  0.78093    -69.4 1.211e+04 9.409e-10
  0.79893    -69.6 1.224e+04 1.083e-09
  0.80878    -68.9 1.212e+04 9.268e-10
  0.82035    -69.1 1.230e+04 1.109e-09
  0.84006    -69.3 1.244e+04 1.240e-09
  0.85977    -69.6 1.248e+04 1.285e-09
  0.87948    -69.8 1.235e+04 1.269e-09
  0.89919    -69.7 1.207e+04 1.134e-09
  0.91890    -69.6 1.179e+04 9.332e-10
  0.93861    -69.6 1.155e+04 7.211e-10
  0.95426    -69.7 1.133e+04 5.404e-10
  0.96412    -68.7 1.155e+04 7.037e-10
  0.97793    -69.0 1.136e+04 5.577e-10
  0.98779    -69.2 1.126e+04 4.948e-10
  0.99775    -69.4 1.106e+04 4.145e-10
  1.01746    -69.6 1.092e+04 3.849e-10
  1.04712    -69.7 1.087e+04 3.809e-10
  1.08664    -69.6 1.081e+04 3.835e-10
  1.10980    -69.7 1.061e+04 3.798e-10
  1.11955    -69.0 1.078e+04 4.285e-10
  1.13572    -69.1 1.069e+04 4.202e-10
  1.15543    -69.3 1.053e+04 4.085e-10
  1.17514    -69.4 1.044e+04 4.011e-10
  1.19485    -69.5 1.035e+04 3.898e-10
  1.21456    -69.6 1.036e+04 3.866e-10
  1.23427    -69.9 1.037e+04 3.823e-10
  1.25399    -70.3 1.052e+04 4.059e-10
  1.26494    -70.7 1.064e+04 4.499e-10
  1.27479    -71.8 1.094e+04 6.254e-10
  1.29341    -72.1 1.099e+04 7.557e-10
  1.31312    -72.3 1.100e+04 8.838e-10
  1.33283    -72.1 1.093e+04 9.584e-10
  1.35254    -71.6 1.088e+04 9.815e-10
  1.37225    -70.9 1.071e+04 9.242e-10
  1.39196    -70.4 1.058e+04 7.669e-10
  1.41042    -70.1 1.052e+04 6.291e-10
  1.42027    -71.1 1.055e+04 5.184e-10
  1.43291    -71.5 1.028e+04 3.874e-10
  1.45272    -71.7 1.035e+04 3.887e-10
  1.48085    -71.7 9.928e+03 3.070e-10
  1.52028    -70.7 9.535e+03 2.406e-10
  1.55970    -69.6 9.285e+03 1.868e-10
  1.59912    -68.7 9.065e+03 1.362e-10
  1.63854    -67.8 8.888e+03 9.761e-11
  1.67796    -67.2 8.745e+03 7.812e-11
  1.71143    -66.8 8.734e+03 7.371e-11
  1.73114    -66.1 8.564e+03 7.063e-11
  1.75680    -65.5 8.729e+03 7.541e-11
  1.79623    -65.1 8.948e+03 1.025e-10
  1.83565    -64.6 9.175e+03 1.483e-10
  1.87507    -64.1 9.442e+03 2.075e-10
  1.91449    -63.8 9.705e+03 2.676e-10
  1.95391    -63.6 9.928e+03 3.104e-10
  1.99333    -63.8 1.012e+04 3.331e-10
  2.02211    -64.2 1.032e+04 3.566e-10
  2.04182    -62.5 1.062e+04 4.661e-10
  2.07218    -63.5 1.103e+04 5.729e-10
  2.11160    -64.8 1.139e+04 7.449e-10
  2.14107    -66.3 1.135e+04 8.470e-10
  2.16068    -67.1 1.149e+04 1.013e-09
  2.17725    -67.8 1.160e+04 1.177e-09
  2.18710    -67.5 1.196e+04 1.386e-09
  2.20010    -68.3 1.214e+04 1.433e-09
  2.21981    -69.3 1.225e+04 1.435e-09
  2.23952    -70.6 1.239e+04 1.351e-09
  2.25923    -72.4 1.246e+04 1.264e-09
  2.27894    -74.2 1.240e+04 1.226e-09
  2.29865    -75.8 1.229e+04 1.199e-09
  2.31837    -77.2 1.215e+04 1.145e-09
  2.33259    -78.6 1.207e+04 1.055e-09
  2.34244    -79.5 1.196e+04 9.604e-10
  2.35243    -81.2 1.206e+04 8.958e-10
  2.36228    -82.1 1.227e+04 1.037e-09
  2.37750    -84.4 1.239e+04 1.033e-09
  2.39721    -86.7 1.253e+04 1.133e-09
  2.41692    -88.4 1.252e+04 1.305e-09
  2.43663    -89.4 1.246e+04 1.397e-09
  2.45634    -90.2 1.241e+04 1.405e-09
  2.47605    -90.8 1.213e+04 1.131e-09
  2.48792    -91.7 1.184e+04 7.739e-10
  2.49778    -91.9 1.165e+04 5.637e-10
  2.51547    -93.5 1.133e+04 3.907e-10
  2.54514    -94.6 1.100e+04 3.108e-10
  2.58466    -94.9 1.062e+04 2.348e-10
  2.62374    -94.9 1.035e+04 1.856e-10
  2.64346    -94.3 1.021e+04 1.565e-10
  2.66350    -93.7 1.019e+04 1.420e-10
  2.70292    -93.1 1.020e+04 1.353e-10
  2.74234    -92.4 1.022e+04 1.342e-10
  2.78176    -91.8 1.032e+04 1.389e-10
  2.82118    -91.3 1.040e+04 1.471e-10
  2.86061    -91.0 1.045e+04 1.591e-10
  2.90003    -90.6 1.046e+04 1.739e-10
  2.93442    -90.3 1.046e+04 1.891e-10
  2.95413    -90.1 1.040e+04 1.860e-10
  2.97887    -89.8 1.037e+04 1.967e-10
  3.01829    -89.5 1.036e+04 2.000e-10
  3.05771    -88.9 1.023e+04 1.976e-10
  3.09714    -88.1 1.013e+04 1.759e-10
  3.13656    -87.2 1.003e+04 1.502e-10
  3.17598    -86.2 9.927e+03 1.255e-10
  3.21540    -85.1 9.835e+03 1.083e-10
  3.24509    -83.9 9.771e+03 9.881e-11
  3.26251    -84.1 9.779e+03 1.010e-10
  3.27224    -84.1 9.852e+03 1.154e-10
  3.29424    -82.8 9.811e+03 1.110e-10
  3.33366    -81.4 9.795e+03 1.089e-10
  3.37309    -79.9 9.778e+03 1.062e-10
  3.41251    -78.3 9.740e+03 9.971e-11
  3.45193    -76.7 9.694e+03 8.816e-11
  3.49135    -75.0 9.666e+03 7.381e-11
  3.53077    -73.3 9.642e+03 6.158e-11
  3.55577    -71.6 9.630e+03 5.411e-11
  3.57548    -71.8 9.672e+03 5.681e-11
  3.60961    -70.1 9.667e+03 5.569e-11
  3.64904    -68.5 9.666e+03 5.777e-11
  3.68846    -66.8 9.698e+03 6.329e-11
  3.72788    -65.1 9.719e+03 7.102e-11
  3.76730    -63.4 9.723e+03 7.743e-11
  3.80672    -61.7 9.714e+03 7.983e-11
  3.84614    -60.1 9.683e+03 8.026e-11
  3.86644    -58.4 9.571e+03 7.551e-11
  3.88615    -58.6 9.511e+03 6.665e-11
  3.92499    -57.0 9.435e+03 5.920e-11
  3.96441    -55.3 9.358e+03 5.295e-11
  4.00383    -53.7 9.276e+03 4.763e-11
  4.04325    -51.9 9.205e+03 4.265e-11
  4.08267    -50.2 9.146e+03 3.891e-11
  4.12209    -48.4 9.140e+03 3.739e-11
  4.15740    -47.0 9.163e+03 3.730e-11
  4.17711    -47.2 9.140e+03 4.019e-11
  4.18200    -46.5 9.376e+03 4.707e-11
  4.20171    -46.3 9.439e+03 4.832e-11
  4.24036    -46.1 9.521e+03 8.736e-11
  4.27978    -45.5 9.551e+03 1.752e-10
  4.31920    -44.5 9.685e+03 2.823e-10
  4.35862    -43.7 9.754e+03 3.247e-10
  4.39804    -43.2 9.661e+03 3.113e-10
  4.43747    -42.5 9.291e+03 1.967e-10
  4.46808    -42.3 8.934e+03 1.110e-10
  4.48779    -42.0 8.897e+03 1.102e-10
  4.51631    -41.8 8.749e+03 8.853e-11
  4.55573    -41.3 8.711e+03 8.539e-11
  4.59515    -40.7 8.727e+03 9.637e-11
  4.63457    -40.1 8.798e+03 1.284e-10
  4.67399    -39.3 8.863e+03 1.642e-10
  4.71342    -38.5 8.908e+03 1.884e-10
  4.75284    -37.9 8.922e+03 2.001e-10
  4.77875    -37.4 8.930e+03 2.090e-10
  4.79846    -37.4 8.983e+03 2.377e-10
  4.83168    -36.9 8.999e+03 2.569e-10
  4.87110    -36.3 9.015e+03 2.703e-10
  4.91052    -35.8 9.041e+03 2.776e-10
  4.94995    -35.4 9.094e+03 2.879e-10
  4.98937    -35.3 9.172e+03 3.012e-10
  5.02879    -35.3 9.283e+03 3.299e-10
  5.06821    -35.2 9.366e+03 3.607e-10
  5.08943    -35.0 9.380e+03 3.720e-10
  5.09326    -35.2 9.515e+03 4.319e-10
  5.11147    -34.3 9.511e+03 4.417e-10
  5.14705    -33.9 9.506e+03 4.487e-10
  5.18647    -33.1 9.289e+03 3.879e-10
  5.22590    -32.3 8.984e+03 2.894e-10
  5.26532    -31.6 8.767e+03 2.299e-10
  5.30474    -30.9 8.729e+03 2.188e-10
  5.34416    -30.3 8.851e+03 2.424e-10
  5.38039    -29.9 9.137e+03 3.256e-10
  5.40010    -29.7 9.029e+03 3.003e-10
  5.42300    -28.9 9.438e+03 4.507e-10
  5.46242    -28.4 9.882e+03 6.402e-10
  5.50185    -28.2 1.046e+04 8.704e-10
  5.54127    -29.9 1.132e+04 1.190e-09
  5.58069    -32.9 1.230e+04 1.670e-09
  5.61016    -34.7 1.271e+04 2.002e-09
  5.62977    -36.6 1.286e+04 2.155e-09
  5.64948    -38.5 1.274e+04 2.139e-09
  5.66919    -40.4 1.239e+04 1.768e-09
  5.68890    -43.2 1.199e+04 1.346e-09
  5.70072    -46.4 1.165e+04 1.155e-09
  5.71058    -46.0 1.174e+04 1.231e-09
  5.72832    -48.8 1.168e+04 1.220e-09
  5.74803    -51.3 1.188e+04 1.378e-09
  5.76775    -53.6 1.241e+04 1.652e-09
  5.78746    -56.3 1.302e+04 1.930e-09
  5.80717    -59.7 1.352e+04 2.227e-09
  5.82688    -63.3 1.374e+04 2.466e-09
  5.84620    -66.8 1.377e+04 2.562e-09
  5.85606    -66.0 1.379e+04 2.579e-09
  5.86630    -69.2 1.365e+04 2.573e-09
  5.88601    -71.9 1.332e+04 2.352e-09
  5.90572    -74.2 1.290e+04 1.935e-09
  5.92543    -76.3 1.239e+04 1.498e-09
  5.94514    -78.1 1.188e+04 1.125e-09
  5.96485    -79.4 1.141e+04 8.217e-10
  5.98456    -80.6 1.100e+04 5.873e-10
  6.00132    -81.6 1.068e+04 4.286e-10
  6.00845    -81.4 1.074e+04 4.683e-10
  6.01140    -81.2 1.095e+04 5.884e-10
  6.02399    -82.0 1.063e+04 4.425e-10
  6.04370    -82.5 1.049e+04 3.674e-10
  6.06341    -82.7 1.048e+04 3.489e-10
  6.09307    -82.9 1.053e+04 3.527e-10
  6.13259    -83.0 1.060e+04 3.392e-10
  6.17201    -82.6 1.063e+04 3.133e-10
  6.21143    -82.1 1.063e+04 2.907e-10
  6.25085    -81.5 1.061e+04 2.807e-10
  6.29028    -80.8 1.059e+04 2.804e-10
  6.31241    -80.0 1.056e+04 2.847e-10
  6.33212    -80.8 1.078e+04 3.799e-10
  6.36912    -80.0 1.060e+04 3.761e-10
  6.40854    -78.9 1.031e+04 3.307e-10
  6.44796    -77.6 1.001e+04 2.660e-10
  6.48738    -76.2 9.775e+03 2.094e-10
  6.52680    -74.6 9.600e+03 1.757e-10
  6.56623    -73.1 9.534e+03 1.593e-10
  6.60337    -71.5 9.517e+03 1.561e-10
  6.62308    -72.4 9.627e+03 2.051e-10
  6.64507    -71.3 9.722e+03 2.160e-10
  6.68449    -70.9 1.022e+04 3.121e-10
  6.72391    -70.8 1.099e+04 5.578e-10
  6.76333    -70.7 1.180e+04 9.551e-10
  6.79280    -71.3 1.271e+04 1.628e-09
  6.81241    -71.7 1.300e+04 2.106e-09
  6.83213    -71.6 1.303e+04 2.393e-09
  6.85184    -71.0 1.279e+04 2.429e-09
  6.87155    -70.5 1.252e+04 1.978e-09
  6.89126    -70.4 1.225e+04 1.427e-09
  6.91097    -70.7 1.182e+04 9.448e-10
  6.92094    -71.3 1.130e+04 6.065e-10
  6.92382    -71.6 1.126e+04 5.645e-10
  6.93356    -74.5 1.071e+04 4.387e-10
  6.96034    -75.3 1.011e+04 3.346e-10
  6.99986    -74.5 9.947e+03 2.695e-10
  7.03928    -73.5 9.872e+03 2.507e-10
  7.07871    -72.4 9.934e+03 2.668e-10
  7.11813    -71.0 1.007e+04 2.944e-10
  7.15755    -69.6 1.026e+04 3.358e-10
  7.19697    -68.1 1.045e+04 3.799e-10
  7.22472    -66.7 1.064e+04 4.169e-10
  7.23448    -68.2 1.083e+04 5.867e-10
  7.24605    -67.7 1.090e+04 6.085e-10
  7.26576    -67.2 1.099e+04 6.484e-10
  7.28547    -66.7 1.112e+04 6.750e-10
  7.30518    -66.3 1.129e+04 7.085e-10
  7.32489    -65.9 1.147e+04 7.440e-10
  7.34460    -65.5 1.159e+04 7.816e-10
  7.36432    -65.2 1.166e+04 8.170e-10
  7.37582    -64.8 1.166e+04 8.517e-10
  7.38151    -64.8 1.169e+04 8.431e-10
  7.38972    -67.1 1.248e+04 1.281e-09
  7.40374    -67.6 1.337e+04 1.553e-09
  7.42345    -68.4 1.438e+04 2.002e-09
  7.44316    -69.2 1.508e+04 2.669e-09
  7.46287    -69.6 1.529e+04 3.453e-09
  7.48258    -69.8 1.510e+04 4.051e-09
  7.50229    -69.7 1.506e+04 4.357e-09
  7.52200    -69.3 1.501e+04 4.654e-09
  7.53520    -68.8 1.481e+04 4.597e-09
  7.54506    -70.2 1.424e+04 2.369e-09
  7.56142    -70.3 1.417e+04 1.724e-09
  7.58113    -70.8 1.368e+04 1.183e-09
  7.60084    -71.4 1.269e+04 8.064e-10
  7.62056    -71.8 1.161e+04 6.024e-10
  7.64027    -71.4 1.097e+04 4.923e-10
  7.65998    -70.4 1.087e+04 4.191e-10
  7.67969    -69.2 1.092e+04 3.459e-10
  7.70935    -67.9 1.091e+04 2.757e-10
  7.74887    -65.5 1.079e+04 2.017e-10
  7.78829    -62.9 1.062e+04 1.451e-10
  7.82104    -60.7 1.041e+04 1.245e-10
  7.83940    -61.3 1.057e+04 1.612e-10
  7.84607    -61.8 1.006e+04 1.870e-10
  7.86713    -59.2 1.022e+04 1.847e-10
  7.90656    -56.8 1.056e+04 1.986e-10
  7.94598    -54.9 1.093e+04 2.476e-10
  7.98540    -53.4 1.126e+04 3.763e-10
  8.02482    -51.9 1.158e+04 6.267e-10
  8.06424    -50.2 1.191e+04 9.639e-10
  8.10366    -48.5 1.215e+04 1.218e-09
  8.13703    -47.0 1.219e+04 1.273e-09
  8.15665    -47.1 1.256e+04 8.467e-10
  8.18241    -46.9 1.238e+04 5.846e-10
  8.22193    -46.0 1.171e+04 3.618e-10
  8.26135    -45.0 1.086e+04 2.630e-10
  8.30077    -43.9 1.063e+04 2.502e-10
  8.34019    -43.7 1.059e+04 3.038e-10
  8.37961    -44.1 1.127e+04 6.047e-10
  8.41904    -44.4 1.213e+04 1.221e-09
  8.44761    -45.5 1.273e+04 2.436e-09
  8.45737    -44.8 1.302e+04 3.531e-09
  8.46812    -43.9 1.327e+04 4.056e-09
  8.48783    -43.7 1.336e+04 4.152e-09
  8.50754    -43.8 1.344e+04 4.138e-09
  8.52725    -44.2 1.361e+04 4.142e-09
  8.54696    -44.7 1.362e+04 4.142e-09
  8.56667    -44.9 1.358e+04 4.185e-09
  8.58638    -44.8 1.361e+04 4.138e-09
  8.60285    -44.3 1.359e+04 3.837e-09
  8.61270    -45.3 1.452e+04 5.211e-09
  8.62580    -44.6 1.430e+04 4.954e-09
  8.64551    -44.0 1.398e+04 4.140e-09
  8.66522    -43.7 1.377e+04 3.092e-09
  8.68494    -43.7 1.362e+04 2.242e-09
  8.70465    -44.4 1.333e+04 1.721e-09
  8.72436    -45.2 1.279e+04 1.411e-09
  8.74046    -45.6 1.229e+04 1.305e-09
  8.75042    -46.6 1.160e+04 8.999e-10
  8.75838    -46.5 1.132e+04 9.091e-10
  8.76814    -45.4 1.248e+04 1.526e-09
  8.78349    -45.3 1.228e+04 1.462e-09
  8.80320    -45.0 1.215e+04 1.415e-09
  8.82291    -44.8 1.194e+04 1.336e-09
  8.85257    -44.3 1.199e+04 1.316e-09
  8.89209    -44.1 1.144e+04 1.115e-09
  8.93151    -43.9 1.125e+04 1.048e-09
  8.97094    -43.1 1.122e+04 1.031e-09
  9.01036    -42.1 1.118e+04 9.789e-10
  9.04934    -40.7 1.085e+04 7.979e-10
  9.06905    -40.5 1.149e+04 1.218e-09
  9.08920    -38.8 1.121e+04 1.115e-09
  9.12862    -37.2 1.084e+04 8.885e-10
  9.16804    -35.7 1.054e+04 6.842e-10
  9.20747    -34.5 1.039e+04 5.859e-10
  9.24689    -33.1 1.036e+04 5.698e-10
  9.28631    -31.8 1.050e+04 6.414e-10
  9.32573    -30.4 1.074e+04 8.022e-10
  9.36002    -28.7 1.096e+04 9.236e-10
  9.37973    -28.1 1.186e+04 1.305e-09
  9.39462    -27.0 1.164e+04 1.273e-09
  9.41423    -26.1 1.149e+04 1.204e-09
  9.44390    -24.6 1.125e+04 1.025e-09
  9.48342    -22.5 1.089e+04 7.932e-10
  9.52284    -20.7 1.063e+04 6.030e-10
  9.56226    -18.9 1.033e+04 4.677e-10
  9.60168    -16.9 1.006e+04 3.949e-10
  9.64056    -14.7 9.808e+03 3.385e-10
  9.66027    -15.0 9.779e+03 3.024e-10
  9.67069    -12.8 9.596e+03 2.534e-10
  9.69040    -12.1 9.677e+03 3.083e-10
  9.71994    -10.4 9.515e+03 2.407e-10
  9.75937     -9.3 9.490e+03 2.212e-10
  9.79879     -8.9 9.697e+03 2.478e-10
  9.83821     -8.9 9.813e+03 3.707e-10
  9.87763     -8.6 1.003e+04 5.389e-10
  9.91705     -8.6 1.026e+04 6.334e-10
  9.95647     -9.5 1.044e+04 6.514e-10
  9.98137    -11.2 1.039e+04 6.021e-10
  9.99112     -9.6 9.937e+03 4.448e-10
 10.00555    -10.0 9.953e+03 4.382e-10
 10.02527    -11.0 9.952e+03 4.614e-10
 10.04498    -11.4 9.920e+03 5.063e-10
 10.06469    -11.4 1.013e+04 6.268e-10
 10.08440    -11.3 1.016e+04 6.914e-10
 10.10411    -10.7 1.040e+04 7.905e-10
 10.11496    -10.7 1.037e+04 8.466e-10
 10.12481    -10.8 1.060e+04 9.708e-10
 10.13651    -10.1 1.059e+04 1.001e-09
 10.14636     -9.1 1.027e+04 8.677e-10
 10.16324     -8.3 1.020e+04 8.134e-10
 10.19290     -7.7 1.015e+04 7.739e-10
 10.23242     -6.6 1.002e+04 6.938e-10
 10.27185     -6.0 1.014e+04 6.778e-10
 10.29194     -6.0 1.024e+04 6.957e-10
 10.30170     -4.9 1.022e+04 7.210e-10
 10.32093     -4.9 1.047e+04 8.071e-10
 10.34064     -5.0 1.097e+04 1.030e-09
 10.36035     -5.9 1.161e+04 1.410e-09
 10.38006     -6.9 1.269e+04 2.191e-09
 10.39977     -8.3 1.425e+04 3.523e-09
 10.41948    -11.5 1.645e+04 5.842e-09
 10.43733    -16.4 1.882e+04 1.039e-08
 10.44718    -15.1 1.741e+04 8.256e-09
 10.45890    -19.7 1.917e+04 1.463e-08
 10.47861    -22.6 1.962e+04 2.123e-08
 10.49832    -24.4 1.930e+04 2.232e-08
 10.51803    -24.6 1.800e+04 1.625e-08
 10.53774    -23.8 1.682e+04 7.482e-09
 10.55746    -25.1 1.569e+04 2.422e-09
 10.56984    -32.7 1.336e+04 7.341e-10
 10.57969    -35.1 1.081e+04 3.674e-10
 10.59266    -37.7 9.052e+03 2.444e-10
 10.60252    -37.6 9.444e+03 2.896e-10
 10.61659    -38.2 9.153e+03 2.769e-10
 10.63630    -38.3 9.358e+03 3.257e-10
 10.65601    -38.0 9.711e+03 4.093e-10
 10.67572    -37.4 9.920e+03 4.906e-10
 10.69543    -36.7 1.012e+04 5.690e-10
 10.71514    -36.0 1.037e+04 6.423e-10
 10.73485    -35.5 1.066e+04 7.053e-10
 10.74800    -35.2 1.095e+04 7.543e-10
 10.75786    -35.5 1.205e+04 1.360e-09
 10.77427    -35.3 1.220e+04 1.425e-09
 10.79398    -35.0 1.224e+04 1.443e-09
 10.81370    -34.6 1.209e+04 1.404e-09
 10.83341    -34.0 1.185e+04 1.278e-09
 10.85312    -33.3 1.165e+04 1.128e-09
 10.87283    -32.8 1.151e+04 9.907e-10
 10.89254    -32.4 1.150e+04 8.841e-10
 10.90334    -32.3 1.155e+04 8.362e-10
 10.91319    -32.3 1.183e+04 9.856e-10
 10.93196    -32.2 1.185e+04 9.579e-10
 10.95167    -32.1 1.190e+04 9.585e-10
 10.97138    -31.9 1.195e+04 1.011e-09
 10.99109    -31.6 1.196e+04 1.054e-09
 11.01080    -31.0 1.196e+04 1.062e-09
 11.02472    -30.4 1.186e+04 1.032e-09
 11.03458    -30.3 1.157e+04 8.767e-10
 11.04882    -29.5 1.138e+04 7.528e-10
 11.05867    -29.1 1.169e+04 9.328e-10
 11.06993    -28.2 1.148e+04 7.713e-10
 11.08965    -27.6 1.120e+04 6.010e-10
 11.10936    -27.3 1.091e+04 4.585e-10
 11.13902    -27.3 1.064e+04 3.423e-10
 11.17854    -25.7 1.016e+04 1.926e-10
 11.20435    -24.6 9.881e+03 1.453e-10
 11.21411    -24.4 1.011e+04 1.902e-10
 11.22762    -23.8 1.000e+04 1.734e-10
 11.24733    -22.8 9.809e+03 1.466e-10
 11.26704    -22.4 9.772e+03 1.429e-10
 11.29671    -21.0 1.009e+04 1.822e-10
 11.33623    -19.3 1.008e+04 1.931e-10
 11.37565    -17.4 1.012e+04 2.254e-10
 11.41507    -15.4 1.018e+04 2.806e-10
 11.45449    -13.2 1.024e+04 3.443e-10
 11.47980    -10.9 1.034e+04 3.961e-10
 11.49951    -10.1 9.995e+03 2.796e-10
 11.51502     -7.7 1.009e+04 3.330e-10
 11.53474     -7.5 1.083e+04 5.738e-10
 11.57275     -5.6 1.094e+04 5.921e-10
 11.61218     -4.3 1.120e+04 6.655e-10
 11.65160     -3.1 1.143e+04 8.117e-10
 11.69102     -1.3 1.161e+04 9.764e-10
 11.72049     -0.3 1.180e+04 1.076e-09
 11.74010      0.5 1.183e+04 1.033e-09
 11.75981      1.2 1.183e+04 9.130e-10
 11.77952     -1.2 1.542e+04 9.939e-10
 11.79923     -8.6 2.261e+04 2.138e-09
 11.81565    -14.0 2.283e+04 7.997e-09
 11.82550    -14.2 1.981e+04 1.054e-08
 11.83368    -14.7 2.013e+04 1.695e-08
 11.84348    -14.6 2.008e+04 2.779e-08
 11.85334    -14.3 1.986e+04 4.230e-08
 11.86319    -13.1 1.993e+04 5.708e-08
 11.87305    -11.8 2.009e+04 6.726e-08
 11.88291    -10.8 2.032e+04 7.129e-08
 11.89276    -10.2 2.098e+04 6.893e-08
 11.89815    -10.8 2.161e+04 6.309e-08
 11.90307    -10.9 2.269e+04 3.766e-08
 11.91247    -12.5 2.441e+04 2.836e-08
 11.92233    -14.6 2.526e+04 2.210e-08
 11.93218    -17.9 2.507e+04 1.785e-08
 11.93931    -20.8 2.440e+04 1.598e-08
 11.94424    -17.7 2.531e+04 1.890e-08
 11.95189    -20.6 2.515e+04 1.753e-08
 11.96175    -23.2 2.495e+04 1.754e-08
 11.97089    -25.8 2.454e+04 1.971e-08
 11.97582    -28.1 2.308e+04 1.667e-08
 11.98146    -30.6 2.225e+04 2.174e-08
 11.99131    -32.7 2.130e+04 2.956e-08
 12.00117    -33.5 2.067e+04 3.947e-08
 12.01103    -33.5 2.040e+04 4.947e-08
 12.02088    -32.8 2.032e+04 5.209e-08
 12.03074    -32.1 1.992e+04 4.964e-08
 12.04059    -31.4 1.975e+04 3.668e-08
 12.04856    -31.4 1.984e+04 2.357e-08
 12.05348    -31.7 1.935e+04 2.868e-08
 12.06030    -33.0 1.962e+04 1.819e-08
 12.07016    -35.8 1.935e+04 1.193e-08
 12.08001    -39.0 1.837e+04 7.901e-09
 12.08987    -42.1 1.778e+04 5.626e-09
 12.09972    -44.5 1.732e+04 4.544e-09
 12.10958    -46.4 1.694e+04 4.094e-09
 12.11943    -47.4 1.701e+04 4.069e-09
 12.12627    -50.0 1.634e+04 3.953e-09
 12.13120    -47.1 1.702e+04 4.540e-09
 12.13915    -47.4 1.705e+04 4.510e-09
 12.15398    -48.5 1.652e+04 4.399e-09
 12.17374    -49.1 1.527e+04 3.745e-09
 12.19345    -49.2 1.413e+04 3.050e-09
 12.21316    -49.0 1.332e+04 2.359e-09
 12.23287    -48.8 1.268e+04 1.683e-09
 12.25258    -48.7 1.207e+04 1.152e-09
 12.27180    -49.2 1.154e+04 8.140e-10
 12.28166    -48.2 1.212e+04 1.040e-09
 12.29200    -48.9 1.139e+04 7.386e-10
 12.31171    -49.1 1.095e+04 6.061e-10
 12.33142    -49.0 1.081e+04 5.560e-10
 12.35113    -48.6 1.078e+04 5.366e-10
 12.37084    -48.3 1.078e+04 5.298e-10
 12.38936    -48.1 1.085e+04 5.282e-10
 12.39922    -48.4 1.079e+04 4.911e-10
 12.41027    -48.0 1.090e+04 5.140e-10
 12.42714    -47.4 1.093e+04 5.627e-10
 12.43700    -46.3 1.068e+04 4.595e-10
 12.44969    -45.7 1.074e+04 4.746e-10
 12.46940    -45.1 1.077e+04 5.014e-10
 12.48911    -44.3 1.076e+04 5.129e-10
 12.51877    -43.2 1.068e+04 4.688e-10
 12.55829    -41.7 1.060e+04 5.001e-10
 12.59771    -40.2 1.063e+04 5.533e-10
 12.63713    -38.7 1.065e+04 6.199e-10
 12.66660    -37.1 1.086e+04 7.183e-10
 12.68622    -36.2 1.078e+04 7.048e-10
 12.70593    -35.5 1.070e+04 6.451e-10
 12.72564    -35.0 1.056e+04 5.913e-10
 12.73791    -34.1 1.010e+04 4.307e-10
 12.75772    -31.3 1.125e+04 8.415e-10
 12.79482    -29.5 1.102e+04 5.958e-10
 12.83424    -29.3 1.028e+04 3.737e-10
 12.87366    -28.7 1.008e+04 3.310e-10
 12.91308    -27.5 1.008e+04 3.307e-10
 12.95251    -26.1 1.008e+04 3.355e-10
 12.99193    -24.6 1.000e+04 3.297e-10
 13.02897    -23.3 9.858e+03 3.001e-10
 13.04868    -22.0 1.007e+04 3.341e-10
 13.07077    -21.5 1.020e+04 3.596e-10
 13.10024    -21.6 9.990e+03 3.881e-10
 13.11985    -21.6 1.008e+04 4.259e-10
 13.13956    -22.0 1.013e+04 5.101e-10
 13.15927    -24.7 1.229e+04 5.566e-10
 13.17898    -29.4 2.023e+04 1.261e-09
 13.19397    -34.9 2.231e+04 5.680e-09
 13.20378    -35.0 2.229e+04 8.563e-09
 13.21338    -36.5 2.248e+04 1.739e-08
 13.22324    -37.3 2.194e+04 3.426e-08
 13.23309    -37.3 2.132e+04 5.862e-08
 13.24295    -37.0 2.092e+04 8.372e-08
 13.25280    -36.5 2.076e+04 1.069e-07
 13.26266    -35.6 2.073e+04 1.245e-07
 13.27154    -34.7 2.076e+04 1.242e-07
 13.27647    -34.9 2.098e+04 1.204e-07
 13.28237    -34.1 2.117e+04 1.049e-07
 13.29222    -33.6 2.154e+04 7.955e-08
 13.30208    -33.3 2.211e+04 4.727e-08
 13.30888    -33.1 2.312e+04 2.135e-08
 13.31381    -32.9 2.220e+04 7.092e-08
 13.32179    -32.7 2.404e+04 2.342e-08
 13.33164    -34.5 2.543e+04 7.822e-09
 13.34150    -39.9 2.224e+04 3.191e-09
 13.34921    -43.5 1.668e+04 1.740e-09
 13.35414    -44.4 1.479e+04 1.856e-09
 13.36121    -44.8 1.379e+04 1.622e-09
 13.37604    -44.0 1.361e+04 1.491e-09
 13.39580    -42.9 1.251e+04 9.947e-10
 13.41551    -41.9 1.172e+04 7.773e-10
 13.43522    -40.7 1.131e+04 6.312e-10
 13.45493    -39.4 1.116e+04 5.733e-10
 13.47465    -38.1 1.110e+04 5.457e-10
 13.49436    -36.9 1.106e+04 5.340e-10
 13.50464    -35.8 1.109e+04 5.408e-10
 13.51450    -35.0 1.094e+04 5.277e-10
 13.53378    -34.1 1.109e+04 5.443e-10
 13.55349    -33.5 1.127e+04 6.177e-10
 13.57320    -32.8 1.145e+04 7.517e-10
 13.59291    -32.2 1.166e+04 9.510e-10
 13.61262    -31.5 1.186e+04 1.192e-09
 13.63233    -30.7 1.206e+04 1.421e-09
 13.65013    -29.9 1.221e+04 1.565e-09
 13.65998    -29.6 1.178e+04 1.179e-09
 13.67175    -28.8 1.183e+04 1.280e-09
 13.69146    -28.1 1.184e+04 1.303e-09
 13.71117    -27.3 1.173e+04 1.199e-09
 13.73089    -26.6 1.151e+04 1.001e-09
 13.75060    -25.8 1.121e+04 7.831e-10
 13.76386    -25.0 1.090e+04 5.910e-10
 13.77371    -24.9 1.077e+04 5.170e-10
 13.79002    -24.5 1.053e+04 4.024e-10
 13.81968    -23.8 1.036e+04 3.459e-10
 13.85920    -22.2 9.929e+03 2.597e-10
 13.89862    -20.2 9.567e+03 2.025e-10
 13.93804    -18.3 9.369e+03 1.684e-10
 13.96099    -16.5 9.283e+03 1.469e-10
 13.98071    -15.2 9.237e+03 1.518e-10
 14.01689    -13.2 9.157e+03 1.393e-10
 14.05631    -11.3 9.080e+03 1.282e-10
 14.09573     -9.3 8.995e+03 1.191e-10
 14.13515     -7.1 8.892e+03 1.099e-10
 14.17457     -4.8 8.767e+03 9.830e-11
 14.20908     -2.3 8.630e+03 8.421e-11
 14.22879     -1.9 8.648e+03 9.532e-11
 14.25196      0.7 8.534e+03 7.821e-11
 14.27167      1.7 8.587e+03 9.452e-11
 14.29284      4.2 8.496e+03 7.339e-11
 14.33226      6.6 8.423e+03 5.731e-11
 14.37168      9.0 8.356e+03 4.586e-11
 14.41110     11.5 8.286e+03 3.850e-11
 14.45052     14.1 8.239e+03 3.234e-11
 14.48994     16.7 8.255e+03 2.687e-11
 14.52937     19.0 8.318e+03 2.345e-11
 14.56263     21.0 8.501e+03 2.367e-11
 14.58234     22.0 8.479e+03 2.503e-11
 14.60821     23.1 8.518e+03 3.265e-11
 14.64763     25.2 8.446e+03 5.285e-11
 14.68705     27.6 8.528e+03 7.863e-11
 14.72647     29.8 8.868e+03 1.033e-10
 14.76589     31.3 9.162e+03 1.329e-10
 14.80532     32.6 9.305e+03 1.647e-10
 14.84474     34.1 9.251e+03 1.982e-10
 14.87331     36.2 9.181e+03 1.913e-10
 14.89302     37.2 9.189e+03 1.888e-10
 14.92358     39.4 9.134e+03 1.700e-10
 14.96300     41.3 9.090e+03 1.288e-10
 15.00242     42.9 9.119e+03 9.553e-11
 15.04184     44.3 9.124e+03 7.629e-11
 15.08127     45.6 9.166e+03 6.671e-11
 15.11884     46.9 9.227e+03 6.991e-11
 15.13855     47.5 9.127e+03 6.233e-11
 15.16011     48.5 9.242e+03 6.834e-11
 15.18398     49.1 9.446e+03 9.511e-11
 15.20369     50.5 9.496e+03 1.210e-10
 15.23895     50.8 9.923e+03 2.133e-10
 15.27837     51.0 1.046e+04 4.107e-10
 15.31780     51.6 1.064e+04 5.354e-10
 15.35722     52.6 1.039e+04 4.703e-10
 15.39664     53.8 1.011e+04 2.848e-10
 15.43606     53.9 1.005e+04 1.366e-10
 15.47494     53.6 9.917e+03 8.278e-11
 15.49465     54.3 9.977e+03 8.196e-11
 15.51490     54.7 9.731e+03 8.023e-11
 15.55432     56.0 9.793e+03 8.738e-11
 15.59375     57.6 9.909e+03 1.130e-10
 15.63317     59.2 1.005e+04 1.555e-10
 15.67259     60.6 1.025e+04 2.202e-10
 15.71201     61.9 1.043e+04 3.101e-10
 15.75143     63.1 1.066e+04 4.043e-10
 15.78562     64.2 1.089e+04 4.793e-10
 15.80533     64.6 1.101e+04 4.791e-10
 15.83027     65.3 1.110e+04 4.771e-10
 15.86970     65.9 1.118e+04 4.492e-10
 15.90912     66.7 1.116e+04 3.864e-10
 15.94854     67.7 1.107e+04 3.114e-10
 15.98796     69.1 1.099e+04 2.367e-10
 16.02738     70.6 1.098e+04 1.736e-10
 16.04831     72.0 1.100e+04 1.292e-10
 16.06802     72.5 1.101e+04 1.432e-10
 16.09629     74.1 1.099e+04 1.418e-10
 16.11600     74.2 1.097e+04 1.328e-10
 16.14565     75.8 1.098e+04 1.357e-10
 16.18507     77.3 1.102e+04 1.497e-10
 16.22449     78.6 1.110e+04 1.812e-10
 16.26391     79.8 1.120e+04 2.290e-10
 16.30333     80.7 1.134e+04 2.944e-10
 16.34275     81.3 1.154e+04 3.758e-10
 16.38218     81.6 1.171e+04 4.437e-10
 16.40687     81.1 1.185e+04 4.660e-10
 16.42658     82.5 1.170e+04 4.431e-10
 16.46102     82.1 1.182e+04 4.486e-10
 16.50044     81.7 1.177e+04 4.308e-10
 16.53986     81.8 1.164e+04 4.085e-10
 16.57928     82.1 1.157e+04 3.794e-10
 16.61870     82.7 1.160e+04 3.829e-10
 16.65813     83.5 1.168e+04 4.173e-10
 16.69755     84.8 1.180e+04 4.884e-10
 16.71764     86.8 1.178e+04 5.443e-10
 16.73735     88.6 1.149e+04 3.107e-10
 16.77639     90.4 1.161e+04 3.928e-10
 16.81581     92.1 1.174e+04 5.155e-10
 16.85523     93.9 1.192e+04 6.826e-10
 16.89465     95.6 1.209e+04 8.583e-10
 16.93408     97.3 1.226e+04 1.032e-09
 16.95807     99.0 1.236e+04 1.136e-09
 16.97778     98.4 1.252e+04 1.257e-09
 17.00860     99.9 1.251e+04 1.233e-09
 17.02831    101.6 1.265e+04 1.392e-09
 17.05234    103.0 1.268e+04 1.392e-09
 17.09176    104.3 1.270e+04 1.380e-09
 17.13118    105.7 1.259e+04 1.236e-09
 17.17060    107.1 1.236e+04 1.013e-09
 17.21003    108.5 1.211e+04 7.847e-10
 17.24945    109.9 1.188e+04 5.968e-10
 17.28887    111.5 1.169e+04 4.521e-10
 17.31928    113.2 1.155e+04 3.391e-10
 17.33899    113.8 1.163e+04 3.866e-10
 17.36771    115.5 1.148e+04 2.522e-10
 17.40713    117.1 1.143e+04 1.514e-10
 17.44656    118.6 1.130e+04 1.029e-10
 17.48598    120.2 1.116e+04 9.923e-11
 17.52540    121.7 1.120e+04 1.042e-10
 17.56482    122.9 1.148e+04 1.510e-10
 17.60424    124.1 1.200e+04 3.613e-10
 17.62995    125.4 1.252e+04 7.989e-10
 17.64966    126.7 1.213e+04 5.287e-10
 17.68308    128.0 1.279e+04 1.099e-09
 17.72251    128.8 1.323e+04 1.695e-09
 17.76193    129.3 1.334e+04 1.922e-09
 17.80135    130.2 1.323e+04 1.845e-09
 17.84077    131.5 1.288e+04 1.572e-09
 17.86783    133.1 1.244e+04 1.204e-09
 17.88754    133.8 1.235e+04 1.082e-09
 17.91961    135.7 1.193e+04 7.874e-10
 17.94062    137.7 1.154e+04 5.594e-10
 17.96033    139.0 1.198e+04 8.743e-10
 17.99846    141.2 1.160e+04 6.313e-10
 18.03788    143.5 1.125e+04 4.592e-10
 18.07730    146.1 1.097e+04 3.507e-10
 18.11672    148.7 1.078e+04 2.882e-10
 18.15614    151.5 1.069e+04 2.556e-10
 18.19556    154.4 1.065e+04 2.519e-10
 18.23159    157.5 1.064e+04 2.646e-10
 18.25130    158.6 1.061e+04 2.824e-10
 18.27441    161.8 1.063e+04 2.948e-10
 18.31383    164.9 1.073e+04 3.241e-10
 18.35325    168.1 1.098e+04 3.628e-10
 18.39267    171.4 1.139e+04 4.204e-10
 18.43209    173.7 1.166e+04 4.917e-10
 18.46156    175.6 1.168e+04 5.597e-10
 18.48117    177.3 1.173e+04 6.657e-10
 18.50088    179.0 1.184e+04 7.835e-10
 18.52060    180.5 1.201e+04 8.936e-10
 18.54031    182.0 1.218e+04 9.904e-10
 18.55192    183.4 1.232e+04 1.076e-09
 18.56178    184.1 1.220e+04 1.063e-09
 18.57973    185.5 1.234e+04 1.151e-09
 18.59944    187.0 1.246e+04 1.226e-09
 18.61915    188.4 1.257e+04 1.285e-09
 18.63886    189.8 1.267e+04 1.334e-09
 18.65857    191.1 1.274e+04 1.381e-09
 18.67828    192.5 1.281e+04 1.428e-09
 18.69740    193.8 1.284e+04 1.474e-09
 18.70726    194.7 1.284e+04 1.549e-09
 18.71770    196.1 1.284e+04 1.592e-09
 18.73741    197.5 1.288e+04 1.599e-09
 18.75712    199.0 1.289e+04 1.601e-09
 18.77683    200.5 1.291e+04 1.593e-09
 18.78725    202.0 1.295e+04 1.577e-09
 18.79711    202.5 1.295e+04 1.528e-09
 18.81626    204.0 1.300e+04 1.508e-09
 18.83597    205.4 1.306e+04 1.508e-09
 18.85274    206.7 1.315e+04 1.534e-09
 18.86260    208.0 1.310e+04 1.546e-09
 18.87539    209.4 1.319e+04 1.559e-09
 18.89510    210.7 1.332e+04 1.626e-09
 18.91481    212.1 1.349e+04 1.747e-09
 18.93452    213.5 1.366e+04 1.913e-09
 18.95423    215.0 1.383e+04 2.090e-09
 18.97394    216.5 1.401e+04 2.207e-09
 18.99365    217.9 1.413e+04 2.234e-09
 19.00808    219.2 1.417e+04 2.213e-09
 19.01793    220.8 1.413e+04 2.143e-09
 19.03307    222.0 1.421e+04 2.126e-09
 19.05279    223.2 1.429e+04 2.100e-09
 19.07250    224.3 1.439e+04 2.112e-09
 19.09221    225.3 1.460e+04 2.192e-09
 19.11192    226.1 1.485e+04 2.328e-09
 19.13163    226.6 1.504e+04 2.456e-09
 19.15134    227.2 1.527e+04 2.575e-09
 19.16341    227.9 1.547e+04 2.713e-09
 19.17327    230.8 1.601e+04 3.365e-09
 19.19076    231.9 1.639e+04 3.614e-09
 19.21047    232.9 1.681e+04 3.839e-09
 19.23018    233.3 1.699e+04 3.875e-09
 19.24213    233.5 1.703e+04 3.852e-09
 19.25199    231.5 1.694e+04 3.469e-09
 19.26960    231.1 1.685e+04 3.326e-09
 19.28931    230.3 1.649e+04 3.164e-09
 19.30890    229.3 1.600e+04 3.016e-09
 19.31875    233.1 1.653e+04 3.486e-09
 19.32874    231.6 1.574e+04 3.168e-09
 19.34845    230.0 1.502e+04 2.882e-09
 19.36816    228.4 1.437e+04 2.580e-09
 19.38787    226.7 1.352e+04 2.187e-09
 19.40758    225.1 1.270e+04 1.815e-09
 19.42729    223.9 1.227e+04 1.518e-09
 19.44700    223.2 1.192e+04 1.304e-09
 19.46423    223.1 1.155e+04 1.082e-09
 19.47409    223.9 1.160e+04 1.116e-09
 19.48642    223.8 1.126e+04 9.368e-10
 19.50613    224.0 1.093e+04 8.020e-10
 19.52584    224.6 1.066e+04 6.954e-10
 19.54555    225.5 1.045e+04 6.137e-10
 19.56526    226.9 1.028e+04 5.703e-10
 19.58498    228.7 1.022e+04 5.544e-10
 19.60469    230.9 1.022e+04 5.544e-10
 19.61957    233.5 1.025e+04 5.564e-10
 19.62942    233.4 1.077e+04 6.662e-10
 19.64411    236.3 1.101e+04 6.744e-10
 19.66382    239.7 1.131e+04 7.001e-10
 19.68353    243.4 1.173e+04 7.502e-10
 19.69701    247.3 1.216e+04 8.183e-10
 19.70687    247.4 1.093e+04 7.335e-10
 19.72295    251.4 1.114e+04 7.656e-10
 19.74266    255.6 1.130e+04 7.980e-10
 19.76237    259.8 1.159e+04 8.059e-10
 19.77491    265.0 1.291e+04 8.523e-10
 19.78476    265.4 1.687e+04 1.680e-09
 19.79682    267.9 1.743e+04 1.590e-09
 19.80662    270.4 1.734e+04 1.541e-09
 19.81648    273.2 1.803e+04 1.534e-09
 19.82633    271.0 2.730e+04 1.522e-09
 19.83619    249.7 6.833e+04 2.886e-09
 19.84604    224.1 5.178e+04 3.701e-08
 19.85245    213.6 3.647e+04 2.364e-07
 19.85489    218.2 4.344e+04 1.172e-07
 19.85832    210.0 2.893e+04 7.313e-07
 19.86324    201.9 2.307e+04 1.887e-06
 19.86817    193.9 2.300e+04 1.828e-06
 19.87310    188.9 2.721e+04 7.982e-07
 19.87803    186.8 4.272e+04 9.118e-08
 19.88295    183.4 5.539e+04 1.657e-08
 19.88788    182.1 4.446e+04 2.342e-08
 19.89530    185.1 3.341e+04 4.083e-08
 19.90518    183.7 2.929e+04 6.841e-08
 19.91503    180.6 2.892e+04 9.620e-08
 19.92436    176.7 3.004e+04 9.825e-08
 19.92928    182.4 2.584e+04 1.934e-07
 19.93015    181.6 2.539e+04 1.975e-07
 19.93259    189.8 2.343e+04 3.550e-07
 19.93716    190.0 2.360e+04 3.478e-07
 19.94457    191.6 2.394e+04 3.122e-07
 19.95445    180.9 6.196e+04 1.693e-08
 19.96431    166.9 1.073e+05 2.243e-09
 19.97914    124.6 3.319e+05 7.205e-11
 19.99890     46.3 9.816e+04 1.451e-10
 20.01861     23.8 1.366e+04 5.885e-10
 20.03832     22.1 1.321e+04 6.845e-10
 20.05803     21.4 1.326e+04 7.120e-10
 20.07573     21.4 1.318e+04 7.193e-10
 20.08558     18.0 1.337e+04 7.190e-10
 20.09745     19.0 1.315e+04 6.856e-10
 20.11717     20.2 1.282e+04 6.591e-10
 20.13688     21.6 1.259e+04 6.285e-10
 20.15189     23.2 1.246e+04 6.161e-10
 20.16175     26.3 1.225e+04 5.846e-10
 20.17630     27.5 1.214e+04 5.765e-10
 20.19601     28.7 1.206e+04 5.715e-10
 20.21572     30.0 1.198e+04 5.845e-10
 20.23106     31.4 1.190e+04 5.941e-10
 20.24092     30.1 1.188e+04 5.774e-10
 20.25514     31.7 1.182e+04 5.856e-10
 20.27485     33.5 1.169e+04 5.870e-10
 20.29456     35.4 1.154e+04 5.757e-10
 20.31427     37.2 1.151e+04 5.462e-10
 20.33398     38.7 1.124e+04 5.145e-10
 20.36365     41.2 1.129e+04 5.092e-10
 20.38659     44.5 1.113e+04 4.839e-10
 20.39635     43.9 1.104e+04 4.666e-10
 20.41283     44.1 1.103e+04 4.657e-10
 20.43254     47.4 1.076e+04 4.367e-10
 20.45225     48.2 1.083e+04 4.589e-10
 20.47196     49.3 1.090e+04 5.057e-10
 20.49167     50.1 1.158e+04 6.403e-10
 20.51138     50.4 1.231e+04 8.903e-10
 20.53109     51.3 1.283e+04 1.230e-09
 20.54174     52.4 1.324e+04 1.748e-09
 20.55159     52.3 1.306e+04 1.540e-09
 20.57051     53.8 1.344e+04 1.987e-09
 20.59022     55.4 1.373e+04 2.328e-09
 20.60677     56.7 1.386e+04 2.466e-09
 20.61663     58.0 1.345e+04 2.114e-09
 20.62964     59.3 1.347e+04 2.152e-09
 20.64936     60.4 1.341e+04 2.037e-09
 20.66907     61.2 1.332e+04 1.860e-09
 20.68722     61.6 1.324e+04 1.709e-09
 20.69707     61.6 1.369e+04 2.167e-09
 20.70849     62.0 1.378e+04 2.226e-09
 20.72820     62.3 1.400e+04 2.397e-09
 20.74791     62.6 1.431e+04 2.711e-09
 20.76762     62.9 1.476e+04 3.208e-09
 20.78733     63.4 1.513e+04 3.821e-09
 20.80704     64.1 1.546e+04 4.303e-09
 20.82675     64.4 1.571e+04 4.549e-09
 20.84255     64.0 1.606e+04 4.750e-09
 20.85241     63.7 1.708e+04 6.695e-09
 20.86617     62.9 1.745e+04 7.182e-09
 20.88588     62.3 1.724e+04 7.391e-09
 20.90062     62.7 1.709e+04 7.313e-09
 20.91043     62.6 1.712e+04 7.358e-09
 20.92013     62.3 1.720e+04 7.715e-09
 20.92505     62.1 1.742e+04 8.147e-09
 20.93014     62.0 1.735e+04 8.030e-09
 20.94497     62.4 1.683e+04 6.982e-09
 20.96473     63.0 1.647e+04 6.209e-09
 20.98444     63.7 1.595e+04 4.895e-09
 20.99789     64.0 1.532e+04 3.333e-09
 21.00775     63.5 1.473e+04 2.043e-09
 21.02386     63.2 1.382e+04 1.189e-09
 21.04357     62.6 1.283e+04 7.827e-10
 21.06165     62.3 1.204e+04 5.973e-10
 21.07151     62.5 1.192e+04 5.132e-10
 21.08299     62.8 1.163e+04 4.774e-10
 21.10270     63.4 1.171e+04 5.297e-10
 21.12241     64.1 1.175e+04 6.287e-10
 21.14212     65.1 1.181e+04 7.465e-10
 21.15323     66.2 1.189e+04 8.704e-10
 21.16308     66.4 1.184e+04 8.298e-10
 21.18155     67.6 1.197e+04 9.659e-10
 21.20126     68.8 1.209e+04 1.076e-09
 21.22097     69.8 1.221e+04 1.174e-09
 21.24068     70.8 1.229e+04 1.264e-09
 21.26039     71.9 1.237e+04 1.342e-09
 21.28010     72.9 1.239e+04 1.368e-09
 21.29871     73.9 1.238e+04 1.363e-09
 21.30857     74.2 1.244e+04 1.385e-09
 21.31952     75.3 1.241e+04 1.348e-09
 21.33923     76.3 1.239e+04 1.281e-09
 21.35894     77.2 1.233e+04 1.207e-09
 21.37865     78.1 1.233e+04 1.162e-09
 21.39836     78.8 1.235e+04 1.153e-09
 21.41807     79.5 1.231e+04 1.155e-09
 21.43779     80.5 1.228e+04 1.170e-09
 21.45405     81.6 1.231e+04 1.212e-09
 21.46390     82.0 1.238e+04 1.162e-09
 21.47721     83.1 1.242e+04 1.243e-09
 21.49692     84.3 1.249e+04 1.310e-09
 21.51653     85.6 1.271e+04 1.436e-09
 21.53625     86.8 1.309e+04 1.682e-09
 21.55605     87.0 1.352e+04 2.082e-09
 21.57576     86.9 1.411e+04 2.714e-09
 21.59547     86.7 1.467e+04 3.569e-09
 21.60938     86.9 1.500e+04 4.286e-09
 21.61924     87.5 1.616e+04 5.694e-09
 21.63489     87.6 1.658e+04 6.867e-09
 21.65460     87.4 1.697e+04 7.524e-09
 21.67431     86.6 1.713e+04 7.550e-09
 21.69402     85.3 1.704e+04 6.827e-09
 21.71374     84.0 1.676e+04 5.673e-09
 21.73345     83.4 1.620e+04 4.515e-09
 21.75316     83.1 1.542e+04 3.409e-09
 21.76472     82.4 1.472e+04 2.740e-09
 21.77458     81.3 1.608e+04 4.615e-09
 21.79258     80.6 1.534e+04 3.731e-09
 21.81229     80.0 1.496e+04 3.375e-09
 21.83200     79.6 1.483e+04 3.421e-09
 21.85171     79.4 1.486e+04 3.721e-09
 21.87142     79.6 1.481e+04 3.912e-09
 21.89113     80.0 1.467e+04 3.799e-09
 21.91020     80.9 1.431e+04 3.302e-09
 21.92006     80.5 1.403e+04 3.017e-09
 21.93055     81.3 1.352e+04 2.249e-09
 21.95026     81.9 1.297e+04 1.561e-09
 21.96998     82.2 1.245e+04 1.077e-09
 21.98127     82.2 1.196e+04 7.767e-10
 21.99113     82.3 1.177e+04 6.639e-10
 22.00940     82.4 1.130e+04 5.131e-10
 22.02911     82.8 1.100e+04 4.478e-10
 22.04882     83.9 1.085e+04 4.031e-10
 22.06554     84.5 1.090e+04 3.870e-10
 22.07539     84.4 1.089e+04 4.180e-10
 22.08824     85.9 1.083e+04 3.853e-10
 22.10795     86.4 1.085e+04 3.849e-10
 22.13761     88.4 1.074e+04 3.668e-10
 22.17713     90.3 1.063e+04 3.537e-10
 22.21122     92.2 1.057e+04 3.484e-10
 22.23083     92.2 1.066e+04 3.911e-10
 22.24593     93.6 1.060e+04 3.936e-10
 22.26564     94.2 1.062e+04 4.027e-10
 22.28535     95.7 1.057e+04 4.099e-10
 22.30506     96.6 1.059e+04 4.183e-10
 22.32477     98.0 1.057e+04 4.176e-10
 22.34448     99.0 1.061e+04 4.231e-10
 22.36419    100.1 1.063e+04 4.298e-10
 22.37621    101.1 1.069e+04 4.450e-10
 22.38607    100.5 1.104e+04 5.762e-10
 22.40361    101.4 1.111e+04 6.206e-10
 22.42332    102.4 1.114e+04 6.821e-10
 22.43615    103.6 1.115e+04 7.517e-10
 22.44601    103.5 1.108e+04 7.462e-10
 22.46274    104.9 1.111e+04 8.242e-10
 22.48245    106.2 1.119e+04 9.004e-10
 22.50217    107.5 1.130e+04 9.745e-10
 22.52170    108.8 1.149e+04 1.056e-09
 22.53155    107.3 1.277e+04 1.722e-09
 22.54159    108.3 1.309e+04 1.926e-09
 22.56130    109.2 1.337e+04 2.136e-09
 22.58101    110.0 1.362e+04 2.357e-09
 22.60072    110.7 1.386e+04 2.604e-09
 22.62043    111.2 1.411e+04 2.895e-09
 22.64014    111.6 1.447e+04 3.318e-09
 22.65985    111.7 1.498e+04 3.975e-09
 22.67703    111.5 1.562e+04 5.003e-09
 22.68689    109.7 1.688e+04 6.906e-09
 22.69927    109.4 1.769e+04 8.500e-09
 22.71898    109.0 1.849e+04 1.048e-08
 22.73869    108.3 1.910e+04 1.252e-08
 22.75840    107.5 1.927e+04 1.368e-08
 22.77812    106.4 1.917e+04 1.350e-08
 22.79783    105.3 1.874e+04 1.220e-08
 22.81754    104.1 1.800e+04 9.663e-09
 22.83237    103.0 1.701e+04 6.918e-09
 22.84222    101.6 1.708e+04 6.779e-09
 22.85696    100.6 1.601e+04 4.629e-09
 22.87667     99.8 1.490e+04 3.152e-09
 22.89103     99.2 1.390e+04 2.288e-09
 22.90089     98.5 1.396e+04 2.166e-09
 22.92604     99.0 1.309e+04 1.488e-09
 22.96556     99.3 1.243e+04 1.032e-09
 23.00498    100.8 1.190e+04 8.119e-10
 23.04441    102.6 1.152e+04 7.029e-10
 23.08383    104.5 1.124e+04 6.094e-10
 23.12325    106.5 1.110e+04 5.581e-10
 23.14324    108.5 1.114e+04 5.660e-10
 23.16295    108.5 1.127e+04 6.594e-10
 23.20209    110.1 1.160e+04 7.517e-10
 23.24151    111.4 1.204e+04 9.420e-10
 23.28093    112.7 1.244e+04 1.177e-09
 23.32036    113.8 1.276e+04 1.331e-09
 23.34601    113.4 1.298e+04 1.412e-09
 23.36572    112.1 1.293e+04 1.237e-09
 23.38925    111.3 1.323e+04 1.394e-09
 23.40886    109.7 1.383e+04 1.841e-09
 23.42857    107.7 1.462e+04 2.744e-09
 23.44386    106.2 1.555e+04 4.333e-09
 23.45372    106.8 1.572e+04 4.303e-09
 23.46799    105.8 1.658e+04 6.625e-09
 23.48770    105.1 1.667e+04 7.505e-09
 23.50741    105.0 1.640e+04 6.879e-09
 23.52712    105.1 1.576e+04 4.958e-09
 23.54683    105.0 1.492e+04 2.936e-09
 23.56655    104.0 1.406e+04 1.616e-09
 23.58626    102.9 1.310e+04 9.472e-10
 23.59920    102.1 1.240e+04 7.977e-10
 23.60905    102.4 1.273e+04 1.012e-09
 23.63563    103.2 1.239e+04 9.045e-10
 23.66520    104.7 1.219e+04 9.012e-10
 23.68481    106.2 1.197e+04 8.039e-10
 23.70452    107.4 1.177e+04 7.018e-10
 23.72423    108.4 1.160e+04 6.161e-10
 23.74394    109.2 1.147e+04 5.477e-10
 23.75454    110.0 1.139e+04 4.927e-10
 23.76439    110.7 1.168e+04 6.021e-10
 23.78336    111.3 1.161e+04 5.523e-10
 23.80079    111.9 1.164e+04 5.489e-10
 23.81065    111.9 1.190e+04 5.708e-10
 23.82278    112.1 1.195e+04 5.786e-10
 23.84250    112.1 1.217e+04 6.204e-10
 23.86221    111.7 1.253e+04 7.352e-10
 23.88192    111.3 1.289e+04 9.355e-10
 23.90002    110.9 1.325e+04 1.224e-09
 23.90987    110.9 1.392e+04 1.773e-09
 23.92134    110.6 1.424e+04 2.269e-09
 23.94105    110.3 1.447e+04 2.662e-09
 23.96076    109.9 1.459e+04 2.904e-09
 23.98047    109.4 1.458e+04 2.950e-09
 24.00018    108.9 1.444e+04 2.804e-09
 24.01989    108.3 1.419e+04 2.482e-09
 24.03960    107.7 1.382e+04 2.076e-09
 24.05535    107.1 1.347e+04 1.647e-09
 24.06521    106.4 1.353e+04 1.651e-09
 24.07902    105.4 1.319e+04 1.304e-09
 24.09874    104.2 1.290e+04 1.090e-09
 24.11845    102.9 1.257e+04 1.074e-09
 24.13816    102.0 1.239e+04 1.077e-09
 24.15787    101.6 1.223e+04 1.064e-09
 24.17758    101.3 1.206e+04 9.886e-10
 24.19729    101.0 1.197e+04 8.425e-10
 24.21069    100.1 1.192e+04 7.016e-10
 24.22055     99.4 1.212e+04 7.436e-10
 24.23671     97.9 1.200e+04 6.877e-10
 24.25567     96.3 1.203e+04 7.121e-10
 24.26553     97.4 1.220e+04 8.186e-10
 24.27613     96.1 1.226e+04 9.072e-10
 24.29584     95.2 1.231e+04 1.132e-09
 24.31555     95.2 1.237e+04 1.448e-09
 24.33526     95.5 1.240e+04 1.699e-09
 24.35497     95.8 1.237e+04 1.716e-09
 24.36603     96.2 1.227e+04 1.637e-09
 24.37588     95.9 1.274e+04 2.078e-09
 24.39440     96.2 1.254e+04 1.741e-09
 24.41411     96.1 1.229e+04 1.364e-09
 24.43382     95.7 1.206e+04 1.074e-09
 24.45353     95.3 1.182e+04 8.958e-10
 24.47324     94.9 1.161e+04 8.072e-10
 24.49295     94.9 1.140e+04 7.847e-10
 24.51151     95.0 1.129e+04 7.758e-10
 24.52137     94.4 1.135e+04 8.342e-10
 24.54232     96.5 1.138e+04 8.496e-10
 24.58184     98.0 1.129e+04 8.563e-10
 24.62127     99.5 1.118e+04 8.208e-10
 24.65719    100.9 1.107e+04 7.556e-10
 24.67690    100.7 1.115e+04 7.777e-10
 24.70011    102.4 1.109e+04 7.366e-10
 24.73953    104.1 1.105e+04 7.173e-10
 24.77895    105.7 1.095e+04 6.903e-10
 24.81837    107.4 1.078e+04 6.310e-10
 24.85779    109.0 1.053e+04 5.460e-10
 24.89722    110.8 1.026e+04 4.484e-10
 24.93664    112.7 1.003e+04 3.595e-10
 24.96786    114.7 9.829e+03 2.880e-10
 24.98757    115.0 1.012e+04 3.727e-10
 25.01548    117.0 9.940e+03 3.033e-10
 25.05490    119.1 9.753e+03 2.515e-10
 25.09432    121.2 9.611e+03 2.144e-10
 25.13374    123.3 9.558e+03 1.892e-10
 25.16563    125.4 9.570e+03 1.702e-10
 25.18534    125.5 9.598e+03 1.734e-10
 25.21259    127.6 9.597e+03 1.517e-10
 25.25201    129.6 9.595e+03 1.380e-10
 25.27853    131.6 9.605e+03 1.353e-10
 25.29825    131.7 9.670e+03 1.470e-10
 25.33085    133.7 9.680e+03 1.478e-10
 25.37027    135.6 9.732e+03 1.532e-10
 25.40969    137.4 9.809e+03 1.651e-10
 25.44912    139.1 9.889e+03 1.790e-10
 25.48854    140.7 9.974e+03 1.886e-10
 25.52796    142.3 1.004e+04 1.891e-10
 25.56738    143.8 1.005e+04 1.868e-10
 25.58921    145.3 1.007e+04 1.778e-10
 25.60892    145.5 1.008e+04 1.756e-10
 25.64622    147.1 1.011e+04 1.590e-10
 25.68565    148.7 1.011e+04 1.374e-10
 25.72507    150.2 1.013e+04 1.149e-10
 25.76449    151.7 1.014e+04 9.611e-11
 25.80391    153.1 1.016e+04 8.540e-11
 25.84333    154.7 1.018e+04 8.448e-11
 25.88017    156.3 1.021e+04 8.625e-11
 25.89988    156.9 1.022e+04 9.346e-11
 25.92217    158.6 1.028e+04 9.622e-11
 25.96160    160.3 1.036e+04 1.026e-10
 26.00102    162.0 1.046e+04 1.098e-10
 26.04044    163.8 1.057e+04 1.152e-10
 26.07539    165.6 1.069e+04 1.192e-10
 26.09510    165.2 1.069e+04 1.223e-10
 26.11928    166.8 1.082e+04 1.279e-10
 26.15870    168.3 1.098e+04 1.396e-10
 26.19085    169.6 1.127e+04 1.868e-10
 26.21056    170.3 1.110e+04 1.615e-10
 26.23755    171.7 1.148e+04 2.378e-10
 26.27697    173.2 1.188e+04 3.490e-10
 26.30644    173.1 1.212e+04 4.632e-10
 26.32605    173.1 1.231e+04 6.056e-10
 26.34576    173.1 1.252e+04 7.695e-10
 26.35584    173.1 1.270e+04 8.999e-10
 26.36570    173.5 1.269e+04 9.084e-10
 26.39513    173.8 1.272e+04 9.078e-10
 26.43465    174.2 1.270e+04 9.117e-10
 26.47407    174.4 1.264e+04 8.799e-10
 26.50152    174.5 1.250e+04 7.832e-10
 26.52123    175.0 1.253e+04 8.038e-10
 26.55292    175.2 1.228e+04 6.418e-10
 26.59234    175.6 1.203e+04 5.028e-10
 26.63176    176.1 1.181e+04 4.193e-10
 26.67118    177.0 1.161e+04 3.840e-10
 26.71060    178.1 1.150e+04 3.743e-10
 26.75003    179.4 1.151e+04 3.831e-10
 26.78945    180.7 1.152e+04 4.023e-10
 26.81219    181.9 1.158e+04 4.397e-10
 26.83190    182.4 1.162e+04 4.595e-10
 26.86829    183.5 1.173e+04 5.205e-10
 26.90771    184.6 1.183e+04 5.905e-10
 26.94713    185.9 1.204e+04 6.792e-10
 26.98515    187.3 1.238e+04 8.189e-10
 27.00486    187.2 1.255e+04 8.496e-10
 27.02598    188.0 1.304e+04 1.070e-09
 27.05544    187.4 1.349e+04 1.338e-09
 27.07506    186.6 1.432e+04 1.895e-09
 27.09477    185.3 1.551e+04 3.062e-09
 27.11282    183.9 1.658e+04 4.849e-09
 27.12267    184.4 1.544e+04 3.217e-09
 27.13419    183.0 1.604e+04 4.312e-09
 27.15390    181.7 1.621e+04 4.750e-09
 27.17361    180.6 1.613e+04 4.646e-09
 27.19332    179.8 1.590e+04 4.273e-09
 27.21303    179.0 1.564e+04 3.774e-09
 27.23274    178.1 1.546e+04 3.372e-09
 27.25245    177.2 1.534e+04 3.132e-09
 27.26815    176.4 1.519e+04 2.958e-09
 27.27801    177.9 1.458e+04 2.204e-09
 27.29188    177.5 1.447e+04 2.149e-09
 27.31159    177.2 1.428e+04 2.033e-09
 27.33130    177.1 1.406e+04 1.858e-09
 27.35101    177.0 1.385e+04 1.673e-09
 27.37072    176.9 1.369e+04 1.521e-09
 27.39043    176.6 1.357e+04 1.419e-09
 27.41014    176.3 1.348e+04 1.345e-09
 27.42349    176.1 1.332e+04 1.290e-09
 27.43335    177.2 1.342e+04 1.277e-09
 27.44956    177.1 1.328e+04 1.239e-09
 27.45955    177.2 1.308e+04 1.160e-09
 27.46940    176.8 1.321e+04 1.199e-09
 27.48898    176.9 1.302e+04 1.075e-09
 27.50869    176.7 1.303e+04 9.844e-10
 27.52840    176.4 1.312e+04 9.823e-10
 27.54811    175.5 1.341e+04 1.070e-09
 27.56783    174.0 1.404e+04 1.406e-09
 27.57883    171.9 1.506e+04 2.349e-09
 27.58868    173.7 1.462e+04 1.779e-09
 27.60725    171.4 1.606e+04 3.548e-09
 27.62696    169.8 1.753e+04 7.215e-09
 27.64667    168.3 1.865e+04 1.112e-08
 27.66638    165.9 1.887e+04 1.134e-08
 27.68609    163.7 1.861e+04 1.003e-08
 27.70580    162.1 1.771e+04 6.183e-09
 27.72431    159.6 1.633e+04 2.868e-09
 27.73416    161.2 1.672e+04 3.521e-09
 27.74522    157.5 1.505e+04 1.623e-09
 27.76493    153.4 1.309e+04 8.551e-10
 27.78464    150.3 1.183e+04 5.665e-10
 27.80435    148.5 1.144e+04 3.954e-10
 27.82407    147.2 1.128e+04 2.947e-10
 27.84378    147.0 1.093e+04 2.326e-10
 27.86349    146.8 1.084e+04 2.245e-10
 27.89315    146.9 1.041e+04 2.110e-10
 27.91462    146.5 1.004e+04 2.083e-10
 27.93433    146.3 1.011e+04 2.148e-10
 27.97209    146.1 1.010e+04 2.263e-10
 28.01151    145.8 1.022e+04 2.540e-10
 28.03518    145.6 1.038e+04 2.914e-10
 28.05489    144.9 1.052e+04 3.459e-10
 28.09036    145.0 1.063e+04 3.859e-10
 28.12978    144.9 1.077e+04 4.656e-10
 28.16920    143.9 1.119e+04 6.061e-10
 28.20862    142.8 1.159e+04 7.364e-10
 28.24804    142.0 1.186e+04 8.538e-10
 28.28746    141.1 1.197e+04 9.258e-10
 28.32614    139.7 1.206e+04 1.004e-09
 28.34585    139.4 1.224e+04 1.133e-09
 28.36631    137.2 1.237e+04 1.210e-09
 28.40573    135.5 1.227e+04 1.253e-09
 28.43520    134.5 1.231e+04 1.283e-09
 28.45481    133.1 1.273e+04 1.413e-09
 28.47452    128.5 1.461e+04 2.100e-09
 28.49114    121.9 1.811e+04 5.968e-09
 28.50099    121.8 1.758e+04 4.548e-09
 28.51394    117.2 1.973e+04 1.281e-08
 28.53365    113.7 1.988e+04 1.723e-08
 28.55336    111.6 1.928e+04 1.513e-08
 28.57307    110.9 1.772e+04 8.846e-09
 28.59278    109.4 1.551e+04 3.550e-09
 28.61249    104.8 1.270e+04 1.107e-09
 28.63221     99.6 9.470e+03 3.487e-10
 28.64648     96.9 9.243e+03 2.298e-10
 28.65633     97.4 9.296e+03 2.458e-10
 28.68158     98.3 9.063e+03 1.930e-10
 28.72110     99.8 8.522e+03 1.388e-10
 28.76052    101.3 8.264e+03 1.209e-10
 28.79994    102.7 8.278e+03 1.222e-10
 28.82438    103.8 8.371e+03 1.340e-10
 28.84409    104.7 8.533e+03 1.466e-10
 28.87879    105.6 9.063e+03 2.054e-10
 28.91821    106.0 9.676e+03 2.915e-10
 28.94739    106.2 9.975e+03 3.583e-10
 28.95715    106.6 9.908e+03 3.590e-10
 28.96729    105.7 1.047e+04 5.080e-10
 28.98700    105.1 1.098e+04 7.510e-10
 29.00671    105.3 1.147e+04 1.051e-09
 29.02642    105.8 1.186e+04 1.315e-09
 29.04613    106.4 1.207e+04 1.356e-09
 29.06584    107.1 1.209e+04 1.292e-09
 29.08555    107.6 1.207e+04 1.144e-09
 29.10263    108.0 1.223e+04 1.067e-09
 29.11249    109.5 1.276e+04 1.351e-09
 29.12497    110.1 1.331e+04 1.390e-09
 29.13971    110.3 1.356e+04 1.382e-09
 29.14952    110.1 1.469e+04 1.426e-09
 29.15937     96.7 3.574e+04 2.286e-09
 29.16674     70.0 5.338e+04 1.271e-08
 29.17013     67.1 3.552e+04 1.374e-07
 29.17259     63.7 4.035e+04 7.833e-08
 29.17657     66.4 2.154e+04 2.677e-06
 29.18150     71.2 1.804e+04 1.193e-05
 29.18508     62.9 2.145e+04 7.440e-06
 29.18755     63.1 2.319e+04 8.275e-06
 29.19135     48.5 2.271e+04 3.818e-06
 29.19628     38.2 2.300e+04 1.190e-06
 29.20121     36.0 2.258e+04 7.909e-07
 29.20862     37.4 2.564e+04 3.522e-07
 29.21850     42.8 3.779e+04 4.237e-08
 29.22836     40.4 8.117e+04 1.239e-09
 29.24319     23.9 7.812e+04 6.990e-10
 29.25797    -15.8 1.754e+04 6.664e-10
 29.26782    -18.4 1.187e+04 7.926e-10
 29.27907    -17.0 1.158e+04 8.948e-10
 29.28892    -16.9 1.180e+04 1.001e-09
 29.30237    -15.7 1.189e+04 1.025e-09
 29.32208    -14.8 1.181e+04 9.643e-10
 29.34179    -14.3 1.156e+04 8.028e-10
 29.36150    -14.2 1.129e+04 6.710e-10
 29.38121    -14.2 1.102e+04 5.929e-10
 29.40092    -14.0 1.069e+04 5.306e-10
 29.41331    -13.2 1.051e+04 5.042e-10
 29.42316    -13.0 1.075e+04 5.868e-10
 29.44035    -11.8 1.068e+04 5.714e-10
 29.46006    -10.8 1.066e+04 5.552e-10
 29.47977     -9.9 1.065e+04 5.350e-10
 29.49948     -9.4 1.064e+04 5.169e-10
 29.51919     -8.9 1.065e+04 5.133e-10
 29.53890     -8.6 1.066e+04 5.199e-10
 29.55861     -8.0 1.063e+04 5.428e-10
 29.56864     -7.3 1.062e+04 5.712e-10
 29.57850     -7.3 1.071e+04 6.052e-10
 29.59803     -6.4 1.072e+04 6.167e-10
 29.61774     -5.6 1.075e+04 6.212e-10
 29.63745     -4.9 1.082e+04 6.247e-10
 29.65716     -4.4 1.095e+04 6.541e-10
 29.67687     -4.1 1.112e+04 7.291e-10
 29.69659     -3.7 1.135e+04 8.563e-10
 29.71412     -3.2 1.163e+04 1.021e-09
 29.72398     -3.7 1.188e+04 1.140e-09
 29.73395     -3.1 1.222e+04 1.375e-09
 29.74380     -3.0 1.273e+04 1.739e-09
 29.75572     -2.5 1.300e+04 1.978e-09
 29.77543     -1.9 1.320e+04 2.156e-09
 29.79514     -1.3 1.330e+04 2.250e-09
 29.81485     -0.7 1.333e+04 2.252e-09
 29.83456     -0.3 1.332e+04 2.183e-09
 29.85427      0.0 1.331e+04 2.104e-09
 29.86946      0.3 1.333e+04 2.071e-09
 29.87932     -0.9 1.341e+04 2.075e-09
 29.89369     -0.8 1.345e+04 2.107e-09
 29.91340     -0.6 1.353e+04 2.216e-09
 29.93311     -0.2 1.362e+04 2.373e-09
 29.95283     -0.0 1.392e+04 2.607e-09
 29.97254     -1.2 1.514e+04 3.257e-09
 29.99225     -7.6 2.003e+04 5.557e-09
 30.00698    -17.1 2.377e+04 1.133e-08
 30.01679    -21.1 2.446e+04 1.759e-08
 30.02470    -24.4 2.493e+04 2.526e-08
 30.03460    -26.0 2.425e+04 7.872e-09
 30.04640    -33.4 2.736e+04 8.583e-09
 30.05621    -36.7 2.707e+04 8.699e-09
 30.07104    -44.2 2.285e+04 8.951e-09
 30.09080    -48.9 1.929e+04 1.003e-08
 30.11051    -52.1 1.704e+04 7.506e-09
 30.13022    -53.2 1.538e+04 4.917e-09
 30.14993    -53.3 1.434e+04 3.297e-09
 30.16964    -53.4 1.337e+04 2.272e-09
 30.18014    -53.3 1.261e+04 1.672e-09
 30.18946    -53.0 1.262e+04 1.656e-09
 30.19868    -53.3 1.236e+04 1.514e-09
 30.20907    -53.0 1.203e+04 1.211e-09
 30.22878    -52.8 1.184e+04 1.001e-09
 30.24849    -52.8 1.171e+04 8.496e-10
 30.26820    -52.9 1.155e+04 7.472e-10
 30.28791    -53.1 1.137e+04 6.856e-10
 30.30762    -53.2 1.119e+04 6.545e-10
 30.32562    -52.9 1.107e+04 6.181e-10
 30.33547    -53.6 1.107e+04 6.105e-10
 30.34704    -53.2 1.097e+04 5.352e-10
 30.37670    -52.3 1.080e+04 4.464e-10
 30.41622    -50.7 1.050e+04 3.457e-10
 30.45564    -49.1 1.011e+04 2.558e-10
 30.48115    -47.7 9.854e+03 2.078e-10
 30.50086    -49.3 9.699e+03 1.765e-10
 30.53449    -47.8 9.667e+03 1.757e-10
 30.57391    -46.3 9.752e+03 1.985e-10
 30.61333    -44.8 9.838e+03 2.210e-10
 30.64390    -43.4 9.846e+03 2.259e-10
 30.66361    -43.3 9.699e+03 2.043e-10
 30.69217    -41.7 9.619e+03 1.723e-10
 30.73159    -40.2 9.466e+03 1.222e-10
 30.77102    -38.9 9.297e+03 8.445e-11
 30.79182    -37.7 9.115e+03 6.522e-11
 30.81153    -38.6 9.111e+03 6.564e-11
 30.84986    -37.0 8.988e+03 5.886e-11
 30.88928    -35.3 8.964e+03 5.546e-11
 30.92870    -33.4 8.962e+03 5.440e-11
 30.96812    -31.4 8.975e+03 5.430e-11
 31.00755    -29.5 9.053e+03 5.625e-11
 31.04697    -27.8 9.134e+03 6.103e-11
 31.08279    -26.1 9.233e+03 6.810e-11
 31.10250    -26.9 9.333e+03 7.626e-11
 31.12581    -25.5 9.445e+03 8.905e-11
 31.16523    -24.2 9.549e+03 1.046e-10
 31.20465    -22.9 9.640e+03 1.192e-10
 31.24407    -21.7 9.733e+03 1.280e-10
 31.28350    -20.5 9.788e+03 1.303e-10
 31.32292    -19.4 9.847e+03 1.288e-10
 31.36234    -18.4 9.918e+03 1.256e-10
 31.39346    -17.4 1.000e+04 1.240e-10
 31.41317    -18.4 1.008e+04 1.288e-10
 31.44118    -17.5 1.016e+04 1.247e-10
 31.48060    -16.8 1.022e+04 1.229e-10
 31.52002    -16.3 1.038e+04 1.249e-10
 31.55366    -15.9 1.051e+04 1.413e-10
 31.57337    -15.4 1.048e+04 1.361e-10
 31.59887    -15.0 1.056e+04 1.717e-10
 31.63829    -14.2 1.064e+04 2.200e-10
 31.67771    -13.1 1.073e+04 2.516e-10
 31.70413    -12.0 1.074e+04 2.427e-10
 31.72384    -13.1 1.075e+04 2.281e-10
 31.75655    -12.2 1.062e+04 1.798e-10
 31.79598    -12.0 1.032e+04 1.395e-10
 31.83540    -12.0 1.015e+04 1.281e-10
 31.87482    -12.0 1.001e+04 1.300e-10
 31.91424    -11.8 9.843e+03 1.623e-10
 31.95366    -11.4 9.871e+03 2.153e-10
 31.99308    -11.0 9.925e+03 2.645e-10
 32.01481    -11.1 9.957e+03 3.029e-10
 32.03452    -12.7 1.004e+04 3.427e-10
 32.07193    -13.1 9.931e+03 3.460e-10
 32.11135    -13.6 9.891e+03 3.432e-10
 32.15077    -14.0 9.814e+03 3.335e-10
 32.19019    -14.5 9.635e+03 3.110e-10
 32.22961    -15.0 9.529e+03 3.015e-10
 32.26903    -15.5 9.470e+03 3.082e-10
 32.30577    -15.8 9.464e+03 3.333e-10
 32.32548    -17.1 9.260e+03 2.974e-10
 32.34788    -17.2 9.258e+03 3.038e-10
 32.38730    -17.4 9.215e+03 3.007e-10
 32.42672    -17.6 9.206e+03 2.994e-10
 32.46342    -17.9 9.348e+03 3.389e-10
 32.48314    -17.6 9.375e+03 3.511e-10
 32.50556    -17.7 9.592e+03 4.262e-10
 32.54498    -17.6 9.693e+03 4.598e-10
 32.58440    -17.5 9.693e+03 4.558e-10
 32.61645    -17.5 9.529e+03 3.851e-10
 32.63616    -19.1 9.490e+03 3.807e-10
 32.66325    -19.4 9.218e+03 3.093e-10
 32.70267    -19.6 8.984e+03 2.749e-10
 32.74209    -19.5 8.848e+03 2.647e-10
 32.78151    -19.1 8.790e+03 2.570e-10
 32.82093    -18.7 8.684e+03 2.460e-10
 32.86036    -18.4 8.545e+03 2.304e-10
 32.89978    -18.1 8.463e+03 2.204e-10
 32.92712    -17.8 8.430e+03 2.267e-10
 32.94683    -18.9 8.472e+03 2.624e-10
 32.97862    -18.2 8.477e+03 2.729e-10
 33.01804    -17.5 8.431e+03 2.571e-10
 33.05746    -17.0 8.325e+03 2.222e-10
 33.09688    -16.8 8.206e+03 1.968e-10
 33.13631    -16.8 8.128e+03 1.926e-10
 33.17573    -16.6 8.262e+03 2.083e-10
 33.21515    -16.3 8.466e+03 2.479e-10
 33.23779    -15.9 8.748e+03 2.914e-10
 33.25750    -16.9 8.676e+03 2.792e-10
 33.29399    -17.2 9.037e+03 3.263e-10
 33.33341    -18.6 9.741e+03 4.592e-10
 33.37283    -20.1 1.060e+04 7.329e-10
 33.39290    -21.2 1.141e+04 1.100e-09
 33.41261    -21.2 1.131e+04 1.030e-09
 33.45168    -22.1 1.157e+04 1.126e-09
 33.49110    -23.2 1.134e+04 8.242e-10
 33.52876    -25.1 1.028e+04 4.561e-10
 33.54847    -26.9 8.927e+03 2.524e-10
 33.56994    -27.9 8.829e+03 2.250e-10
 33.60936    -28.0 9.049e+03 2.474e-10
 33.64878    -27.4 9.281e+03 2.746e-10
 33.68821    -27.0 9.476e+03 3.006e-10
 33.72763    -26.7 9.647e+03 3.259e-10
 33.76705    -26.6 9.810e+03 3.554e-10
 33.80647    -26.4 9.903e+03 3.786e-10
 33.83943    -26.3 9.911e+03 3.884e-10
 33.85914    -26.9 9.958e+03 3.882e-10
 33.87536    -26.3 9.944e+03 3.902e-10
 33.89497    -26.5 9.955e+03 3.929e-10
 33.91468    -26.7 9.971e+03 3.981e-10
 33.93440    -27.2 1.003e+04 4.076e-10
 33.95411    -28.4 1.011e+04 5.029e-10
 33.97382    -32.1 1.138e+04 9.706e-10
 33.99353    -36.6 1.405e+04 2.371e-09
 34.00443    -40.4 1.686e+04 6.143e-09
 34.01428    -43.1 1.795e+04 8.318e-09
 34.03295    -46.6 1.989e+04 1.621e-08
 34.04768    -48.3 2.059e+04 1.847e-08
 34.05749    -50.1 2.097e+04 1.883e-08
 34.07232    -55.3 2.120e+04 1.824e-08
 34.09208    -63.3 2.005e+04 1.038e-08
 34.11179    -73.2 1.665e+04 4.575e-09
 34.13150    -80.1 1.425e+04 2.920e-09
 34.14991    -83.1 1.354e+04 2.480e-09
 34.15976    -85.3 1.356e+04 2.347e-09
 34.17092    -87.6 1.354e+04 2.257e-09
 34.19063    -90.2 1.344e+04 2.104e-09
 34.21035    -92.7 1.319e+04 1.929e-09
 34.23006    -94.7 1.290e+04 1.724e-09
 34.24977    -96.1 1.261e+04 1.501e-09
 34.26948    -96.9 1.226e+04 1.270e-09
 34.28919    -97.2 1.198e+04 1.101e-09
 34.30246    -97.4 1.184e+04 9.865e-10
 34.30866    -97.5 1.157e+04 8.831e-10
 34.31510    -99.2 1.171e+04 8.963e-10
 34.32861   -100.0 1.127e+04 7.284e-10
 34.34832   -100.8 1.093e+04 6.200e-10
 34.36803   -101.2 1.079e+04 5.595e-10
 34.39770   -101.2 1.070e+04 5.124e-10
 34.43721   -101.5 1.058e+04 4.934e-10
 34.46078   -101.9 1.041e+04 4.665e-10
 34.48049   -103.6 9.850e+03 3.126e-10
 34.51606   -103.8 9.568e+03 2.623e-10
 34.55548   -103.9 9.447e+03 2.465e-10
 34.59490   -104.1 9.407e+03 2.437e-10
 34.63432   -104.3 9.409e+03 2.555e-10
 34.67374   -104.2 9.414e+03 2.774e-10
 34.71316   -103.7 9.412e+03 2.913e-10
 34.75174   -103.0 9.416e+03 2.983e-10
 34.77145   -103.0 9.394e+03 2.860e-10
 34.79201   -102.2 9.422e+03 2.977e-10
 34.83143   -101.4 9.410e+03 2.984e-10
 34.87085   -100.5 9.281e+03 2.790e-10
 34.91027    -99.4 9.056e+03 2.360e-10
 34.94969    -98.2 8.792e+03 1.892e-10
 34.98912    -96.9 8.562e+03 1.512e-10
 35.02854    -95.5 8.394e+03 1.222e-10
 35.06242    -94.0 8.274e+03 1.011e-10
 35.08213    -94.1 8.386e+03 1.123e-10
 35.10738    -92.6 8.279e+03 9.495e-11
 35.14680    -91.0 8.212e+03 8.515e-11
 35.18622    -89.3 8.175e+03 8.139e-11
 35.21242    -87.6 8.166e+03 8.051e-11
 35.23213    -88.0 8.194e+03 8.766e-11
 35.26507    -86.3 8.264e+03 9.321e-11
 35.30449    -84.4 8.357e+03 1.022e-10
 35.34391    -82.6 8.445e+03 1.126e-10
 35.37309    -80.8 8.520e+03 1.240e-10
 35.39280    -81.2 8.752e+03 1.735e-10
 35.42275    -79.3 8.771e+03 1.756e-10
 35.46217    -77.5 8.779e+03 1.660e-10
 35.50159    -75.6 8.806e+03 1.495e-10
 35.54102    -73.8 8.807e+03 1.328e-10
 35.58044    -71.9 8.790e+03 1.235e-10
 35.61986    -69.9 8.824e+03 1.191e-10
 35.65928    -68.1 8.867e+03 1.183e-10
 35.68376    -66.3 8.995e+03 1.200e-10
 35.70347    -66.9 9.043e+03 1.133e-10
 35.73812    -65.2 9.213e+03 1.317e-10
 35.77754    -63.6 9.389e+03 1.556e-10
 35.81697    -62.1 9.569e+03 1.795e-10
 35.85639    -60.9 9.728e+03 2.032e-10
 35.89581    -60.1 9.866e+03 2.385e-10
 35.93523    -59.5 1.007e+04 3.109e-10
 35.97465    -58.9 1.041e+04 4.443e-10
 36.01407    -58.4 1.043e+04 4.813e-10
 36.05350    -58.0 1.077e+04 5.866e-10
 36.09292    -57.9 1.101e+04 6.468e-10
 36.12218    -58.1 1.115e+04 6.334e-10
 36.14189    -59.0 1.065e+04 3.892e-10
 36.17176    -59.7 1.057e+04 3.373e-10
 36.21118    -60.3 1.047e+04 3.170e-10
 36.25060    -61.0 1.061e+04 3.806e-10
 36.28540    -62.2 1.128e+04 5.955e-10
 36.30511    -62.7 1.146e+04 6.294e-10
 36.32945    -64.3 1.252e+04 1.057e-09
 36.35891    -65.5 1.369e+04 2.007e-09
 36.37853    -66.1 1.386e+04 2.204e-09
 36.39824    -66.4 1.418e+04 2.551e-09
 36.41795    -67.0 1.410e+04 2.425e-09
 36.44761    -68.5 1.302e+04 1.441e-09
 36.48713    -69.4 1.211e+04 1.003e-09
 36.52655    -69.8 1.149e+04 7.152e-10
 36.56597    -69.6 1.129e+04 5.907e-10
 36.58682    -69.3 1.109e+04 5.075e-10
 36.59657    -69.6 1.124e+04 5.816e-10
 36.60573    -69.6 1.115e+04 5.549e-10
 36.61559    -69.8 1.117e+04 5.826e-10
 36.63477    -69.7 1.112e+04 5.847e-10
 36.65448    -69.6 1.105e+04 5.823e-10
 36.67419    -69.6 1.097e+04 5.820e-10
 36.69390    -69.6 1.088e+04 5.807e-10
 36.71361    -69.7 1.081e+04 5.750e-10
 36.73332    -69.8 1.078e+04 5.692e-10
 36.75122    -70.1 1.078e+04 5.667e-10
 36.76107    -70.6 1.077e+04 5.626e-10
 36.77274    -71.1 1.079e+04 5.576e-10
 36.79245    -71.7 1.084e+04 5.609e-10
 36.81216    -72.4 1.088e+04 5.729e-10
 36.83187    -73.0 1.086e+04 5.866e-10
 36.85158    -73.5 1.075e+04 5.968e-10
 36.87130    -73.7 1.059e+04 5.801e-10
 36.89101    -73.9 1.037e+04 5.099e-10
 36.90655    -74.3 1.007e+04 4.061e-10
 36.92636    -74.7 9.921e+03 3.633e-10
 36.96019    -74.6 9.389e+03 2.563e-10
 36.99961    -74.4 8.958e+03 1.947e-10
 37.03194    -74.2 8.870e+03 1.805e-10
 37.05165    -75.4 8.728e+03 1.770e-10
 37.07845    -75.1 8.905e+03 2.001e-10
 37.11788    -74.7 9.154e+03 2.626e-10
 37.15730    -74.1 9.320e+03 3.235e-10
 37.19672    -73.5 9.369e+03 3.441e-10
 37.21742    -72.8 9.307e+03 3.407e-10
 37.23713    -73.5 9.094e+03 3.008e-10
 37.27556    -72.6 8.768e+03 2.299e-10
 37.31498    -71.5 8.449e+03 1.694e-10
 37.35440    -70.4 8.213e+03 1.284e-10
 37.39383    -68.9 8.074e+03 1.042e-10
 37.43325    -67.2 8.048e+03 9.320e-11
 37.47267    -65.2 8.040e+03 9.043e-11
 37.50839    -63.1 8.056e+03 9.043e-11
 37.52810    -63.4 8.146e+03 1.087e-10
 37.55151    -61.2 8.276e+03 1.214e-10
 37.59093    -59.0 8.439e+03 1.398e-10
 37.63035    -56.9 8.635e+03 1.640e-10
 37.66978    -54.9 8.851e+03 1.913e-10
 37.70920    -53.1 9.052e+03 2.229e-10
 37.74862    -51.5 9.271e+03 2.582e-10
 37.78804    -50.1 9.574e+03 2.981e-10
 37.81906    -49.2 1.002e+04 3.482e-10
 37.83867    -48.7 1.033e+04 4.294e-10
 37.85683    -48.7 1.075e+04 5.107e-10
 37.87654    -49.1 1.108e+04 6.139e-10
 37.89625    -49.3 1.157e+04 8.598e-10
 37.91596    -49.5 1.182e+04 1.035e-09
 37.93568    -49.4 1.225e+04 1.431e-09
 37.95136    -49.2 1.251e+04 1.631e-09
 37.96122    -50.1 1.355e+04 2.842e-09
 37.97420    -49.6 1.363e+04 2.988e-09
 37.98406    -49.4 1.412e+04 3.419e-09
 37.99481    -49.0 1.395e+04 2.943e-09
 38.01452    -48.8 1.348e+04 2.149e-09
 38.03423    -49.1 1.298e+04 1.547e-09
 38.05394    -49.4 1.261e+04 1.200e-09
 38.07365    -49.5 1.247e+04 1.003e-09
 38.10331    -49.0 1.228e+04 8.381e-10
 38.12973    -47.4 1.211e+04 7.169e-10
 38.13949    -47.3 1.245e+04 8.794e-10
 38.15249    -46.8 1.247e+04 8.763e-10
 38.17220    -46.0 1.259e+04 8.792e-10
 38.19192    -46.1 1.279e+04 8.775e-10
 38.21163    -48.7 1.437e+04 1.154e-09
 38.23134    -52.9 1.639e+04 2.587e-09
 38.25105    -55.7 1.821e+04 6.285e-09
 38.27076    -57.1 1.948e+04 1.194e-08
 38.28483    -58.6 2.009e+04 1.533e-08
 38.28971    -59.6 2.057e+04 1.858e-08
 38.29530    -60.3 2.080e+04 2.055e-08
 38.30515    -61.1 2.087e+04 2.185e-08
 38.31501    -62.2 2.076e+04 2.226e-08
 38.32487    -63.4 2.050e+04 2.011e-08
 38.33472    -64.5 2.009e+04 1.715e-08
 38.34458    -65.8 1.953e+04 1.423e-08
 38.35443    -67.0 1.898e+04 1.205e-08
 38.36926    -68.3 1.852e+04 1.034e-08
 38.38902    -69.8 1.777e+04 8.173e-09
 38.40624    -71.1 1.686e+04 6.661e-09
 38.41610    -71.5 1.632e+04 5.377e-09
 38.42844    -72.1 1.545e+04 4.610e-09
 38.44021    -72.1 1.501e+04 4.104e-09
 38.45007    -73.2 1.483e+04 3.489e-09
 38.46787    -72.6 1.479e+04 3.063e-09
 38.48758    -72.0 1.467e+04 2.576e-09
 38.50729    -71.4 1.442e+04 2.058e-09
 38.52700    -70.6 1.405e+04 1.556e-09
 38.54671    -69.8 1.362e+04 1.135e-09
 38.56642    -69.2 1.314e+04 8.160e-10
 38.58569    -68.6 1.261e+04 5.988e-10
 38.59555    -69.8 1.195e+04 4.922e-10
 38.60584    -69.1 1.153e+04 4.005e-10
 38.62555    -68.2 1.124e+04 3.476e-10
 38.64526    -67.0 1.109e+04 3.220e-10
 38.66497    -65.8 1.104e+04 3.136e-10
 38.68468    -64.6 1.103e+04 3.114e-10
 38.70439    -63.4 1.110e+04 3.128e-10
 38.72411    -62.1 1.116e+04 3.292e-10
 38.74103    -60.8 1.128e+04 3.625e-10
 38.75089    -61.0 1.139e+04 4.224e-10
 38.76353    -60.0 1.176e+04 4.928e-10
 38.78324    -59.2 1.235e+04 6.180e-10
 38.80295    -59.0 1.306e+04 8.345e-10
 38.82266    -59.1 1.375e+04 1.212e-09
 38.84237    -59.2 1.437e+04 1.861e-09
 38.86112    -59.0 1.493e+04 2.850e-09
 38.87098    -59.2 1.458e+04 3.205e-09
 38.88179    -58.7 1.516e+04 3.935e-09
 38.89637    -58.3 1.557e+04 4.668e-09
 38.90622    -57.7 1.594e+04 5.011e-09
 38.92121    -57.5 1.615e+04 4.771e-09
 38.94092    -57.9 1.616e+04 4.463e-09
 38.96063    -58.8 1.600e+04 4.238e-09
 38.98035    -59.7 1.580e+04 4.164e-09
 39.00006    -60.7 1.547e+04 4.349e-09
 39.01977    -61.2 1.543e+04 4.856e-09
 39.03948    -61.2 1.558e+04 5.372e-09
 39.05170    -61.0 1.561e+04 5.436e-09
 39.06156    -61.5 1.588e+04 6.706e-09
 39.07890    -60.8 1.600e+04 7.228e-09
 39.09861    -60.3 1.584e+04 6.821e-09
 39.11832    -59.8 1.532e+04 5.429e-09
 39.13803    -59.5 1.453e+04 3.681e-09
 39.15774    -59.6 1.353e+04 2.341e-09
 39.17745    -60.5 1.248e+04 1.532e-09
 39.19716    -61.1 1.158e+04 1.103e-09
 39.21687    -61.1 1.192e+04 1.267e-09
 39.23658    -61.1 1.132e+04 1.019e-09
 39.25630    -60.3 1.087e+04 8.477e-10
 39.27601    -59.4 1.058e+04 7.238e-10
 39.29572    -58.6 1.034e+04 6.309e-10
 39.32538    -57.4 9.994e+03 5.323e-10
 39.35272    -54.9 9.358e+03 3.645e-10
 39.37243    -55.9 9.890e+03 4.522e-10
 39.40432    -55.4 9.943e+03 3.749e-10
 39.43379    -57.0 1.003e+04 2.887e-10
 39.45340    -64.7 1.263e+04 4.842e-10
 39.47311    -72.3 1.657e+04 8.807e-10
 39.49282    -79.6 2.170e+04 8.828e-09
 39.50756    -82.4 2.382e+04 2.125e-08
 39.51269    -84.3 2.522e+04 2.863e-08
 39.51767    -82.4 2.300e+04 1.354e-08
 39.53225    -91.7 2.372e+04 1.504e-08
 39.55196   -105.3 2.061e+04 6.305e-09
 39.57167   -120.0 1.321e+04 1.688e-09
 39.59138   -125.7 1.135e+04 1.194e-09
 39.61109   -129.5 1.137e+04 1.156e-09
 39.63080   -135.8 1.304e+04 1.340e-09
 39.65051   -142.0 1.456e+04 2.344e-09
 39.66320   -146.4 1.527e+04 3.992e-09
 39.67305   -146.6 1.574e+04 4.837e-09
 39.68993   -149.4 1.594e+04 6.433e-09
 39.70964   -151.5 1.597e+04 6.861e-09
 39.72935   -152.9 1.565e+04 6.616e-09
 39.74906   -153.8 1.494e+04 5.119e-09
 39.76877   -155.1 1.416e+04 3.456e-09
 39.78074   -157.1 1.337e+04 2.240e-09
 39.79059   -160.4 1.327e+04 2.061e-09
 39.80820   -162.1 1.217e+04 1.588e-09
 39.81853   -162.6 1.147e+04 1.314e-09
 39.82839   -162.8 1.138e+04 1.379e-09
 39.84762   -162.7 1.099e+04 1.194e-09
 39.86733   -161.7 1.076e+04 1.094e-09
 39.88704   -160.7 1.072e+04 1.056e-09
 39.90675   -159.7 1.074e+04 1.051e-09
 39.92646   -158.9 1.100e+04 1.095e-09
 39.94617   -158.4 1.141e+04 1.194e-09
 39.96402   -157.9 1.190e+04 1.408e-09
 39.97387   -157.9 1.176e+04 1.260e-09
 39.98559   -157.5 1.225e+04 1.571e-09
 40.00530   -156.8 1.277e+04 2.030e-09
 40.02501   -155.9 1.330e+04 2.638e-09
 40.04473   -154.9 1.382e+04 3.363e-09
 40.06444   -153.9 1.430e+04 4.127e-09
 40.08415   -153.1 1.471e+04 4.836e-09
 40.10386   -152.9 1.505e+04 5.438e-09
 40.11935   -152.9 1.536e+04 6.004e-09
 40.12921   -153.6 1.542e+04 5.878e-09
 40.14328   -153.8 1.575e+04 6.620e-09
 40.16299   -153.9 1.621e+04 7.584e-09
 40.18270   -153.9 1.676e+04 8.801e-09
 40.20241   -154.0 1.727e+04 1.022e-08
 40.22212   -154.4 1.770e+04 1.151e-08
 40.23562   -155.5 1.778e+04 1.184e-08
 40.24547   -155.4 1.750e+04 9.403e-09
 40.26154   -156.2 1.714e+04 8.366e-09
 40.27469   -156.7 1.651e+04 6.670e-09
 40.28455   -157.2 1.536e+04 4.210e-09
 40.30096   -157.7 1.463e+04 3.322e-09
 40.32068   -158.0 1.382e+04 2.623e-09
 40.34039   -158.2 1.311e+04 2.130e-09
 40.36010   -158.2 1.255e+04 1.788e-09
 40.37981   -158.0 1.215e+04 1.556e-09
 40.39952   -157.9 1.198e+04 1.407e-09
 40.41923   -158.0 1.199e+04 1.358e-09
 40.43003   -159.9 1.488e+04 1.682e-09
 40.43988   -158.6 1.163e+04 1.304e-09
 40.45865   -159.9 1.284e+04 1.641e-09
 40.47836   -162.8 1.531e+04 2.482e-09
 40.49807   -166.1 1.783e+04 4.129e-09
 40.51778   -168.7 1.949e+04 6.719e-09
 40.53749   -170.2 1.995e+04 9.491e-09
 40.55720   -170.9 1.968e+04 1.084e-08
 40.57551   -171.0 1.909e+04 1.111e-08
 40.58536   -169.4 1.672e+04 5.063e-09
 40.59663   -169.5 1.666e+04 5.130e-09
 40.61634   -169.4 1.610e+04 4.807e-09
 40.63605   -169.0 1.539e+04 4.037e-09
 40.65576   -168.5 1.451e+04 3.194e-09
 40.67547   -167.7 1.369e+04 2.461e-09
 40.69050   -166.8 1.293e+04 1.888e-09
 40.70035   -166.8 1.272e+04 1.999e-09
 40.71489   -165.8 1.220e+04 1.565e-09
 40.73085   -164.8 1.180e+04 1.234e-09
 40.74070   -164.7 1.148e+04 1.035e-09
 40.75431   -163.7 1.116e+04 8.521e-10
 40.77402   -162.6 1.089e+04 7.130e-10
 40.79373   -161.6 1.064e+04 6.101e-10
 40.81344   -160.5 1.043e+04 5.351e-10
 40.83315   -159.4 1.025e+04 4.806e-10
 40.85287   -158.2 1.011e+04 4.402e-10
 40.87258   -157.0 1.001e+04 4.080e-10
 40.88618   -155.8 9.952e+03 3.806e-10
 40.90599   -155.0 1.003e+04 3.711e-10
 40.94176   -152.7 9.870e+03 3.197e-10
 40.98118   -150.5 9.786e+03 2.828e-10
 41.02060   -148.3 9.793e+03 2.677e-10
 41.06002   -146.2 9.794e+03 2.647e-10
 41.09945   -144.8 1.000e+04 2.922e-10
 41.13887   -144.0 1.101e+04 5.010e-10
 41.17734   -143.2 1.198e+04 9.864e-10
 41.19705   -140.9 1.071e+04 3.932e-10
 41.21771   -140.1 1.155e+04 7.439e-10
 41.25713   -139.3 1.209e+04 1.181e-09
 41.29655   -138.5 1.223e+04 1.415e-09
 41.33597   -137.9 1.210e+04 1.411e-09
 41.37540   -136.9 1.155e+04 1.099e-09
 41.41482   -135.5 1.083e+04 7.153e-10
 41.45424   -133.9 1.019e+04 4.480e-10
 41.48801   -132.5 9.935e+03 3.274e-10
 41.50763   -131.3 1.013e+04 3.804e-10
 41.52303   -130.8 1.006e+04 3.497e-10
 41.54274   -130.3 1.004e+04 3.387e-10
 41.56245   -129.7 1.005e+04 3.360e-10
 41.58216   -129.3 1.014e+04 3.383e-10
 41.60026   -128.9 1.030e+04 3.552e-10
 41.61011   -128.8 1.032e+04 3.621e-10
 41.62158   -128.5 1.041e+04 3.781e-10
 41.64130   -128.3 1.047e+04 3.896e-10
 41.65301   -128.1 1.047e+04 3.911e-10
 41.66287   -127.7 1.089e+04 5.625e-10
 41.68072   -127.6 1.089e+04 5.643e-10
 41.70043   -127.3 1.082e+04 5.489e-10
 41.72014   -126.9 1.069e+04 4.975e-10
 41.73985   -126.3 1.049e+04 4.164e-10
 41.76951   -125.7 1.025e+04 3.229e-10
 41.79869   -124.5 1.007e+04 2.755e-10
 41.80845   -125.0 1.070e+04 5.445e-10
 41.81869   -124.5 1.060e+04 5.190e-10
 41.84836   -123.5 1.044e+04 4.656e-10
 41.88787   -121.2 1.002e+04 3.566e-10
 41.92730   -119.2 9.808e+03 2.889e-10
 41.96672   -117.0 9.588e+03 2.243e-10
 42.00614   -114.8 9.437e+03 1.730e-10
 42.04556   -112.7 9.335e+03 1.353e-10
 42.08498   -110.6 9.251e+03 1.108e-10
 42.10936   -108.4 9.231e+03 9.553e-11
 42.12907   -108.3 9.274e+03 1.156e-10
 42.16383   -106.2 9.293e+03 1.069e-10
 42.20325   -104.1 9.305e+03 1.052e-10
 42.24267   -102.2 9.326e+03 1.052e-10
 42.28209   -100.8 9.628e+03 1.134e-10
 42.32151   -100.0 9.949e+03 1.672e-10
 42.36093    -99.6 1.040e+04 2.799e-10
 42.40033    -99.4 1.110e+04 4.800e-10
 42.43975    -98.2 1.135e+04 5.939e-10
 42.47920    -98.9 1.195e+04 8.557e-10
 42.51021    -99.7 1.228e+04 1.057e-09
 42.52993    -98.1 1.223e+04 9.932e-10
 42.55804    -98.8 1.234e+04 1.038e-09
 42.58751    -99.2 1.237e+04 1.083e-09
 42.60712    -99.3 1.222e+04 1.027e-09
 42.62683    -99.4 1.198e+04 9.253e-10
 42.64654    -99.5 1.169e+04 8.019e-10
 42.66625    -99.6 1.145e+04 6.954e-10
 42.68596    -99.6 1.125e+04 5.983e-10
 42.70568    -99.5 1.105e+04 5.068e-10
 42.72066    -99.3 1.085e+04 4.327e-10
 42.73052    -99.2 1.116e+04 5.393e-10
 42.74510    -98.8 1.092e+04 4.530e-10
 42.76481    -98.2 1.073e+04 3.836e-10
 42.78452    -97.6 1.063e+04 3.374e-10
 42.80423    -97.2 1.059e+04 3.124e-10
 42.82394    -96.6 1.056e+04 2.922e-10
 42.84365    -96.1 1.055e+04 2.889e-10
 42.87331    -95.1 1.057e+04 3.014e-10
 42.91283    -93.7 1.054e+04 3.012e-10
 42.95225    -92.1 1.049e+04 3.020e-10
 42.99168    -90.6 1.047e+04 3.017e-10
 43.02167    -89.6 1.054e+04 3.228e-10
 43.04129    -89.1 1.058e+04 3.928e-10
 43.06047    -88.8 1.075e+04 4.466e-10
 43.08018    -88.8 1.095e+04 5.143e-10
 43.09989    -88.8 1.119e+04 6.091e-10
 43.11960    -88.9 1.152e+04 7.283e-10
 43.13931    -89.5 1.190e+04 8.501e-10
 43.15902    -90.8 1.227e+04 9.631e-10
 43.17682    -92.6 1.272e+04 1.098e-09
 43.18667    -92.2 1.274e+04 1.082e-09
 43.19844    -94.4 1.301e+04 1.272e-09
 43.21815    -96.6 1.326e+04 1.523e-09
 43.23787    -98.5 1.341e+04 1.880e-09
 43.25758   -100.1 1.352e+04 2.217e-09
 43.27729   -101.6 1.357e+04 2.367e-09
 43.29700   -103.0 1.353e+04 2.383e-09
 43.31671   -104.1 1.317e+04 2.181e-09
 43.33215   -105.2 1.274e+04 1.803e-09
 43.34201   -105.7 1.311e+04 2.083e-09
 43.35613   -107.1 1.267e+04 1.648e-09
 43.37584   -108.5 1.230e+04 1.335e-09
 43.39555   -109.8 1.198e+04 1.132e-09
 43.41526   -110.8 1.170e+04 1.001e-09
 43.42964   -111.4 1.143e+04 9.110e-10
 43.43949   -111.6 1.149e+04 9.354e-10
 43.45468   -112.0 1.129e+04 8.815e-10
 43.47439   -112.2 1.107e+04 8.322e-10
 43.48749   -112.2 1.082e+04 7.822e-10
 43.49734   -112.8 1.079e+04 8.262e-10
 43.51382   -112.4 1.051e+04 7.441e-10
 43.53353   -111.8 1.031e+04 6.725e-10
 43.55324   -111.3 1.014e+04 6.143e-10
 43.57295   -110.6 1.002e+04 5.610e-10
 43.59266   -109.9 9.940e+03 5.149e-10
 43.61237   -109.2 9.896e+03 4.834e-10
 43.63208   -108.7 9.851e+03 4.645e-10
 43.64292   -107.9 9.844e+03 4.714e-10
 43.66273   -109.2 9.854e+03 4.659e-10
 43.70126   -108.0 9.775e+03 4.494e-10
 43.74068   -106.4 9.636e+03 4.185e-10
 43.78011   -104.7 9.477e+03 3.815e-10
 43.81953   -102.8 9.347e+03 3.475e-10
 43.85895   -100.9 9.277e+03 3.246e-10
 43.89837    -98.9 9.269e+03 3.171e-10
 43.93398    -96.9 9.275e+03 3.166e-10
 43.95370    -97.2 9.063e+03 2.630e-10
 43.97721    -95.3 9.214e+03 2.945e-10
 44.01663    -93.6 9.435e+03 3.589e-10
 44.05606    -92.0 9.809e+03 4.651e-10
 44.09548    -90.9 1.036e+04 6.440e-10
 44.13490    -90.3 1.104e+04 9.209e-10
 44.17432    -90.0 1.170e+04 1.278e-09
 44.21374    -90.1 1.221e+04 1.601e-09
 44.24466    -90.4 1.243e+04 1.734e-09
 44.26437    -91.5 1.210e+04 1.504e-09
 44.28263    -91.4 1.192e+04 1.344e-09
 44.30225    -91.4 1.178e+04 1.187e-09
 44.32196    -91.7 1.145e+04 9.607e-10
 44.33940    -92.1 1.129e+04 8.592e-10
 44.34925    -92.1 1.101e+04 7.271e-10
 44.36138    -92.4 1.094e+04 6.964e-10
 44.38109    -92.5 1.093e+04 6.912e-10
 44.39980    -92.8 1.094e+04 6.923e-10
 44.40966    -92.8 1.085e+04 6.735e-10
 44.42051    -93.1 1.099e+04 7.120e-10
 44.44022    -93.4 1.111e+04 7.593e-10
 44.45993    -93.7 1.118e+04 8.068e-10
 44.47964    -94.0 1.118e+04 8.275e-10
 44.49935    -94.1 1.114e+04 8.289e-10
 44.51906    -94.1 1.101e+04 7.914e-10
 44.53877    -94.0 1.088e+04 7.098e-10
 44.55514    -93.9 1.075e+04 6.191e-10
 44.56499    -93.7 1.076e+04 6.329e-10
 44.57820    -93.6 1.066e+04 5.543e-10
 44.59791    -93.5 1.061e+04 4.988e-10
 44.61762    -93.5 1.060e+04 4.625e-10
 44.63733    -93.3 1.060e+04 4.365e-10
 44.65704    -93.2 1.061e+04 4.164e-10
 44.67675    -93.0 1.063e+04 3.982e-10
 44.69646    -92.8 1.062e+04 3.811e-10
 44.71047    -92.4 1.059e+04 3.606e-10
 44.72033    -92.2 1.062e+04 3.841e-10
 44.73588    -92.0 1.055e+04 3.529e-10
 44.76555    -91.8 1.046e+04 3.167e-10
 44.80506    -91.0 1.042e+04 3.037e-10
 44.84449    -90.2 1.048e+04 3.089e-10
 44.86601    -89.4 1.047e+04 3.484e-10
 44.87576    -90.0 1.061e+04 4.402e-10
 44.89357    -89.7 1.063e+04 4.621e-10
 44.91328    -89.2 1.066e+04 4.917e-10
 44.93299    -88.8 1.067e+04 5.048e-10
 44.95270    -88.4 1.068e+04 5.197e-10
 44.97241    -88.0 1.068e+04 5.228e-10
 45.00207    -87.4 1.065e+04 5.183e-10
 45.04159    -86.0 1.043e+04 4.105e-10
 45.08101    -84.6 1.018e+04 2.946e-10
 45.12044    -83.0 9.942e+03 2.067e-10
 45.15697    -81.3 9.813e+03 1.583e-10
 45.17668    -82.0 9.886e+03 1.755e-10
 45.19928    -80.0 9.892e+03 1.612e-10
 45.23870    -78.0 9.900e+03 1.597e-10
 45.25921    -76.3 1.003e+04 1.634e-10
 45.27892    -76.5 1.005e+04 1.488e-10
 45.31754    -75.4 1.037e+04 2.128e-10
 45.35697    -74.5 1.078e+04 3.665e-10
 45.39639    -73.7 1.132e+04 6.417e-10
 45.43581    -73.1 1.185e+04 9.954e-10
 45.46764    -72.7 1.215e+04 1.222e-09
 45.48735    -73.6 1.223e+04 1.285e-09
 45.51465    -73.5 1.215e+04 1.195e-09
 45.55407    -73.3 1.174e+04 8.427e-10
 45.59349    -73.3 1.129e+04 5.570e-10
 45.63292    -73.3 1.092e+04 4.128e-10
 45.67234    -72.8 1.065e+04 3.525e-10
 45.71176    -71.9 1.045e+04 3.189e-10
 45.75118    -70.8 1.029e+04 2.893e-10
 45.77832    -69.5 1.015e+04 2.533e-10
 45.79803    -69.3 1.012e+04 2.540e-10
 45.83002    -68.1 9.992e+03 2.145e-10
 45.86944    -66.8 9.879e+03 1.791e-10
 45.90887    -65.5 9.783e+03 1.476e-10
 45.94829    -64.2 9.701e+03 1.223e-10
 45.98771    -62.9 9.628e+03 1.058e-10
 46.02713    -61.5 9.551e+03 9.760e-11
 46.06655    -60.0 9.477e+03 9.431e-11
 46.08899    -58.3 9.453e+03 9.269e-11
 46.10870    -58.3 9.458e+03 9.466e-11
 46.14539    -56.5 9.445e+03 9.465e-11
 46.16897    -55.3 9.532e+03 9.867e-11
 46.18868    -55.1 9.474e+03 8.358e-11
 46.22424    -55.0 9.722e+03 1.131e-10
 46.26366    -55.7 1.046e+04 2.768e-10
 46.30308    -56.0 1.140e+04 7.596e-10
 46.34250    -56.0 1.219e+04 1.466e-09
 46.37996    -56.8 1.252e+04 1.743e-09
 46.39967    -56.4 1.231e+04 1.496e-09
 46.42135    -57.9 1.232e+04 1.522e-09
 46.46077    -59.1 1.174e+04 1.010e-09
 46.50019    -60.2 1.097e+04 4.955e-10
 46.53961    -61.4 1.041e+04 2.456e-10
 46.57903    -62.5 1.024e+04 1.738e-10
 46.61845    -63.7 1.024e+04 1.638e-10
 46.65787    -65.6 1.066e+04 2.231e-10
 46.69063    -67.1 1.143e+04 6.021e-10
 46.71034    -66.6 1.126e+04 6.040e-10
 46.73672    -67.2 1.180e+04 1.046e-09
 46.77614    -68.2 1.197e+04 1.182e-09
 46.81556    -69.3 1.176e+04 1.055e-09
 46.85498    -70.2 1.105e+04 6.227e-10
 46.89440    -70.9 1.038e+04 3.526e-10
 46.93382    -71.1 1.004e+04 2.503e-10
 46.97325    -70.8 9.833e+03 2.044e-10
 47.00130    -69.6 9.671e+03 1.792e-10
 47.02101    -69.1 9.876e+03 2.489e-10
 47.05209    -68.1 9.742e+03 2.471e-10
 47.07873    -67.0 9.622e+03 2.506e-10
 47.09844    -66.7 9.722e+03 2.763e-10
 47.13093    -65.4 9.606e+03 2.646e-10
 47.17035    -63.9 9.554e+03 2.491e-10
 47.20977    -62.6 9.549e+03 2.351e-10
 47.24920    -61.3 9.550e+03 2.236e-10
 47.28862    -60.0 9.564e+03 2.164e-10
 47.31198    -58.7 9.554e+03 2.102e-10
 47.33169    -58.3 9.378e+03 1.748e-10
 47.36746    -57.1 9.389e+03 1.700e-10
 47.40688    -56.2 9.468e+03 1.730e-10
 47.44630    -55.8 9.772e+03 2.265e-10
 47.48573    -55.3 1.012e+04 3.485e-10
 47.52515    -54.7 1.051e+04 5.294e-10
 47.56457    -54.0 1.085e+04 7.163e-10
 47.59404    -53.4 1.100e+04 8.078e-10
 47.61260    -53.1 1.101e+04 8.111e-10
 47.62246    -53.1 1.095e+04 7.949e-10
 47.64331    -53.0 1.093e+04 7.884e-10
 47.68283    -52.2 1.058e+04 5.974e-10
 47.72225    -51.4 1.014e+04 3.981e-10
 47.76168    -50.6 9.799e+03 2.738e-10
 47.80110    -49.5 9.608e+03 2.163e-10
 47.84052    -48.0 9.490e+03 1.943e-10
 47.87994    -46.4 9.430e+03 1.821e-10
 47.91361    -44.5 9.371e+03 1.655e-10
 47.93332    -44.6 9.358e+03 1.721e-10
 47.95878    -42.8 9.316e+03 1.570e-10
 47.98849    -41.1 9.272e+03 1.391e-10
 48.00820    -40.6 9.261e+03 1.311e-10
 48.03763    -39.0 9.237e+03 1.130e-10
 48.07705    -37.3 9.227e+03 1.016e-10
 48.11647    -35.7 9.226e+03 9.822e-11
 48.15589    -34.2 9.260e+03 9.986e-11
 48.19531    -32.7 9.335e+03 1.091e-10
 48.22429    -31.4 9.452e+03 1.207e-10
 48.24400    -31.9 9.422e+03 1.158e-10
 48.27415    -31.4 9.666e+03 1.302e-10
 48.31358    -31.5 9.960e+03 1.745e-10
 48.35300    -31.8 1.026e+04 2.824e-10
 48.39242    -32.0 1.062e+04 4.621e-10
 48.43184    -32.1 1.101e+04 6.087e-10
 48.47126    -32.9 1.116e+04 6.424e-10
 48.50073    -33.4 1.107e+04 5.531e-10
 48.52034    -33.6 1.114e+04 5.150e-10
 48.53477    -34.6 1.115e+04 5.031e-10
 48.54462    -34.3 1.096e+04 4.223e-10
 48.55977    -34.9 1.106e+04 4.462e-10
 48.57948    -35.2 1.107e+04 5.124e-10
 48.59919    -35.2 1.122e+04 5.878e-10
 48.61890    -35.2 1.142e+04 6.423e-10
 48.63861    -35.2 1.154e+04 6.649e-10
 48.65832    -35.5 1.155e+04 6.671e-10
 48.67803    -35.6 1.154e+04 6.568e-10
 48.70769    -36.7 1.150e+04 6.419e-10
 48.74721    -37.9 1.146e+04 6.332e-10
 48.77668    -38.3 1.141e+04 6.343e-10
 48.79629    -38.7 1.140e+04 6.314e-10
 48.82583    -40.0 1.112e+04 5.430e-10
 48.86535    -40.8 1.094e+04 4.816e-10
 48.89825    -41.7 1.051e+04 3.007e-10
 48.91796    -40.3 1.088e+04 4.197e-10
 48.94432    -40.9 1.057e+04 2.918e-10
 48.98374    -41.2 1.030e+04 2.334e-10
 49.02316    -40.9 1.000e+04 1.921e-10
 49.06258    -39.7 9.748e+03 1.583e-10
 49.10201    -38.3 9.601e+03 1.292e-10
 49.13660    -36.9 9.477e+03 1.052e-10
 49.15631    -37.7 9.478e+03 1.097e-10
 49.18085    -36.1 9.372e+03 9.246e-11
 49.22027    -34.3 9.302e+03 8.415e-11
 49.25969    -32.3 9.271e+03 7.981e-11
 49.29911    -30.4 9.289e+03 7.776e-11
 49.33854    -28.7 9.304e+03 7.834e-11
 49.37796    -27.2 9.480e+03 8.445e-11
 49.41738    -26.0 9.611e+03 1.122e-10
 49.44727    -24.6 9.678e+03 1.621e-10
 49.46698    -24.9 9.587e+03 1.459e-10
 49.49622    -23.4 9.651e+03 1.950e-10
 49.53564    -21.8 9.743e+03 2.443e-10
 49.57506    -20.3 9.817e+03 2.837e-10
 49.61449    -18.7 9.887e+03 3.123e-10
 49.65391    -17.4 9.947e+03 3.335e-10
 49.69333    -16.2 1.002e+04 3.636e-10
 49.73275    -15.1 1.014e+04 4.115e-10
 49.75795    -13.9 1.028e+04 4.666e-10
 49.77766    -13.3 1.028e+04 5.029e-10
 49.80801    -12.0 1.050e+04 6.104e-10
 49.82772    -12.2 1.083e+04 7.410e-10
 49.85101    -10.8 1.120e+04 8.536e-10
 49.89044    -10.5 1.139e+04 8.887e-10
 49.92986    -11.0 1.170e+04 9.364e-10
 49.96928    -12.2 1.229e+04 1.227e-09
 49.99875    -12.1 1.234e+04 1.254e-09
 50.01836    -13.2 1.295e+04 1.544e-09
 50.03807    -15.0 1.318e+04 1.909e-09
 50.05778    -15.9 1.344e+04 2.384e-09
 50.06843    -16.7 1.357e+04 2.636e-09
 50.07828    -16.2 1.404e+04 3.213e-09
 50.09720    -17.4 1.412e+04 3.332e-09
 50.11691    -18.8 1.379e+04 2.888e-09
 50.13662    -20.3 1.340e+04 2.274e-09
 50.15634    -21.6 1.303e+04 1.795e-09
 50.17605    -22.9 1.276e+04 1.362e-09
 50.19576    -24.3 1.250e+04 1.097e-09
 50.21391    -25.4 1.235e+04 1.023e-09
 50.22376    -25.3 1.236e+04 1.031e-09
 50.23518    -26.0 1.232e+04 1.017e-09
 50.25489    -26.7 1.252e+04 1.086e-09
 50.27255    -27.6 1.280e+04 1.316e-09
 50.28241    -27.4 1.261e+04 1.144e-09
 50.29431    -28.1 1.297e+04 1.515e-09
 50.31402    -28.8 1.332e+04 2.081e-09
 50.33373    -28.9 1.363e+04 2.854e-09
 50.35344    -28.7 1.392e+04 3.718e-09
 50.36924    -28.1 1.412e+04 4.255e-09
 50.37910    -27.7 1.374e+04 3.278e-09
 50.39286    -27.3 1.373e+04 3.291e-09
 50.41258    -27.0 1.357e+04 2.864e-09
 50.43229    -26.9 1.340e+04 2.387e-09
 50.45200    -27.6 1.317e+04 2.101e-09
 50.47171    -28.3 1.289e+04 1.943e-09
 50.49142    -28.7 1.274e+04 1.877e-09
 50.51113    -28.8 1.273e+04 1.889e-09
 50.52458    -28.9 1.281e+04 1.928e-09
 50.53444    -28.9 1.275e+04 1.944e-09
 50.55055    -29.2 1.281e+04 2.020e-09
 50.57026    -29.4 1.291e+04 2.143e-09
 50.58997    -29.5 1.298e+04 2.257e-09
 50.60968    -29.4 1.301e+04 2.297e-09
 50.62939    -29.1 1.290e+04 2.250e-09
 50.64910    -28.6 1.265e+04 1.964e-09
 50.67016    -28.6 1.223e+04 1.515e-09
 50.68997    -28.6 1.231e+04 1.653e-09
 50.71777    -28.8 1.178e+04 1.167e-09
 50.73748    -29.0 1.162e+04 9.339e-10
 50.75771    -29.3 1.131e+04 7.747e-10
 50.79713    -29.0 1.122e+04 7.785e-10
 50.83655    -28.2 1.120e+04 8.617e-10
 50.87597    -26.9 1.097e+04 7.926e-10
 50.91539    -25.3 1.065e+04 5.944e-10
 50.95482    -24.2 1.052e+04 4.778e-10
 50.98093    -23.0 1.046e+04 4.304e-10
 51.00064    -23.2 1.067e+04 5.281e-10
 51.03366    -21.9 1.062e+04 4.959e-10
 51.07308    -20.1 1.053e+04 4.765e-10
 51.11250    -18.1 1.050e+04 4.738e-10
 51.15192    -16.0 1.049e+04 4.685e-10
 51.19134    -13.9 1.043e+04 4.366e-10
 51.23077    -11.6 1.040e+04 3.986e-10
 51.27019     -9.4 1.040e+04 3.809e-10
 51.29161     -7.0 1.041e+04 3.788e-10
 51.31132     -7.2 1.074e+04 5.268e-10
 51.34903     -5.1 1.080e+04 5.636e-10
 51.37850     -3.4 1.109e+04 6.624e-10
 51.39811     -3.2 1.103e+04 6.731e-10
 51.41782     -1.5 1.140e+04 8.766e-10
 51.43689     -1.4 1.139e+04 9.017e-10
 51.44675     -1.5 1.142e+04 1.018e-09
 51.45724      0.5 1.205e+04 1.313e-09
 51.47696      0.9 1.229e+04 1.383e-09
 51.49667      0.8 1.282e+04 1.554e-09
 51.51638      0.3 1.347e+04 1.992e-09
 51.53609     -0.3 1.363e+04 2.942e-09
 51.55580      0.3 1.391e+04 4.395e-09
 51.57551      1.3 1.443e+04 5.612e-09
 51.59223      2.0 1.492e+04 6.292e-09
 51.60208      1.4 1.491e+04 5.792e-09
 51.61493      1.2 1.489e+04 5.726e-09
 51.63464      1.3 1.461e+04 5.341e-09
 51.64705      1.7 1.416e+04 4.642e-09
 51.65690      2.1 1.452e+04 5.540e-09
 51.67406      3.0 1.410e+04 4.507e-09
 51.69377      3.6 1.376e+04 3.475e-09
 51.71348      3.8 1.358e+04 2.709e-09
 51.73319      3.8 1.329e+04 2.163e-09
 51.74757      4.1 1.303e+04 1.904e-09
 51.75742      3.8 1.286e+04 1.760e-09
 51.77262      4.5 1.262e+04 1.648e-09
 51.79233      5.7 1.234e+04 1.510e-09
 51.81204      6.9 1.223e+04 1.357e-09
 51.83175      8.0 1.203e+04 1.245e-09
 51.85146      8.9 1.194e+04 1.063e-09
 51.87117      9.9 1.160e+04 9.658e-10
 51.89088     11.2 1.141e+04 7.652e-10
 51.90290     12.4 1.100e+04 6.724e-10
 51.91276     12.0 1.100e+04 5.265e-10
 51.94026     13.6 1.105e+04 4.110e-10
 51.97977     15.3 1.095e+04 3.838e-10
 52.01920     17.1 1.081e+04 3.963e-10
 52.05862     19.3 1.052e+04 3.834e-10
 52.09804     22.0 1.029e+04 3.439e-10
 52.13746     24.7 1.014e+04 2.892e-10
 52.17688     27.2 9.951e+03 2.296e-10
 52.20392     29.5 9.849e+03 1.846e-10
 52.22363     29.9 9.898e+03 1.435e-10
 52.25572     31.5 9.772e+03 1.104e-10
 52.29515     33.5 9.720e+03 1.122e-10
 52.33457     35.3 9.666e+03 1.327e-10
 52.37399     37.5 9.618e+03 1.843e-10
 52.41341     40.0 9.698e+03 2.375e-10
 52.45283     42.4 9.764e+03 2.416e-10
 52.49225     44.8 9.720e+03 2.131e-10
 52.51459     47.1 9.670e+03 1.658e-10
 52.53430     47.3 9.662e+03 1.945e-10
 52.55700     49.5 9.585e+03 1.379e-10
 52.57671     49.4 9.643e+03 1.265e-10
 52.61052     51.4 9.588e+03 9.315e-11
 52.64994     53.3 9.495e+03 7.763e-11
 52.68936     55.5 9.371e+03 7.071e-11
 52.72878     57.8 9.268e+03 6.985e-11
 52.76820     60.3 9.247e+03 7.101e-11
 52.80555     62.9 9.221e+03 7.404e-11
 52.82527     63.1 9.220e+03 7.210e-11
 52.84705     65.7 9.206e+03 7.439e-11
 52.88647     68.3 9.213e+03 7.840e-11
 52.92589     70.9 9.236e+03 8.351e-11
 52.96531     73.5 9.272e+03 8.970e-11
 53.00473     76.0 9.322e+03 9.709e-11
 53.04415     78.6 9.390e+03 1.066e-10
 53.08358     81.2 9.477e+03 1.201e-10
 53.11623     83.7 9.586e+03 1.404e-10
 53.13594     83.9 9.514e+03 1.296e-10
 53.16242     86.4 9.645e+03 1.579e-10
 53.20184     88.8 9.817e+03 1.954e-10
 53.24126     91.1 9.964e+03 2.463e-10
 53.28068     93.4 1.012e+04 3.140e-10
 53.32010     95.7 1.028e+04 4.033e-10
 53.35953     97.8 1.046e+04 5.166e-10
 53.39895    100.0 1.067e+04 6.475e-10
 53.42690    102.1 1.091e+04 7.850e-10
 53.44661    102.5 1.082e+04 6.654e-10
 53.46676    104.5 1.103e+04 7.909e-10
 53.48648    104.7 1.103e+04 7.908e-10
 53.51721    106.7 1.121e+04 8.941e-10
 53.55663    108.6 1.135e+04 9.655e-10
 53.59606    110.6 1.146e+04 1.019e-09
 53.63548    112.6 1.160e+04 1.091e-09
 53.67490    114.7 1.184e+04 1.243e-09
 53.71432    116.9 1.236e+04 1.594e-09
 53.73758    118.8 1.295e+04 2.127e-09
 53.75729    119.0 1.290e+04 2.138e-09
 53.78321    119.0 1.332e+04 2.657e-09
 53.80282    119.1 1.380e+04 3.442e-09
 53.82253    119.3 1.431e+04 4.745e-09
 53.84224    119.8 1.475e+04 6.322e-09
 53.86195    120.5 1.511e+04 7.445e-09
 53.88167    121.0 1.517e+04 7.511e-09
 53.89272    121.4 1.511e+04 7.215e-09
 53.90257    121.3 1.485e+04 5.864e-09
 53.92109    121.6 1.463e+04 5.170e-09
 53.93131    122.0 1.429e+04 4.351e-09
 53.94116    122.4 1.433e+04 4.403e-09
 53.96051    122.9 1.398e+04 3.664e-09
 53.98022    123.4 1.353e+04 2.892e-09
 53.99993    124.0 1.305e+04 2.126e-09
 54.01964    124.8 1.264e+04 1.540e-09
 54.03820    125.7 1.228e+04 9.991e-10
 54.04815    125.1 1.237e+04 1.000e-09
 54.06911    126.7 1.185e+04 5.673e-10
 54.10853    128.5 1.144e+04 3.276e-10
 54.14796    130.6 1.117e+04 2.020e-10
 54.18738    132.7 1.100e+04 1.412e-10
 54.22680    135.0 1.085e+04 1.196e-10
 54.26622    137.6 1.077e+04 1.177e-10
 54.30564    140.1 1.077e+04 1.239e-10
 54.33921    142.8 1.080e+04 1.414e-10
 54.35892    143.3 1.084e+04 1.422e-10
 54.37653    145.9 1.089e+04 1.658e-10
 54.39624    146.4 1.097e+04 1.640e-10
 54.42391    149.0 1.101e+04 1.988e-10
 54.46333    151.6 1.101e+04 2.534e-10
 54.50275    154.1 1.106e+04 3.211e-10
 54.54217    156.6 1.114e+04 4.000e-10
 54.58159    159.1 1.126e+04 4.678e-10
 54.62101    161.5 1.137e+04 5.160e-10
 54.64989    163.7 1.145e+04 5.436e-10
 54.66960    164.1 1.166e+04 7.235e-10
 54.69986    166.2 1.175e+04 7.889e-10
 54.73928    168.1 1.178e+04 8.192e-10
 54.76875    169.4 1.174e+04 7.574e-10
 54.78836    170.5 1.175e+04 7.240e-10
 54.80503    171.9 1.178e+04 7.333e-10
 54.81488    171.9 1.198e+04 1.035e-09
 54.82778    173.1 1.205e+04 1.107e-09
 54.84107    174.3 1.210e+04 1.187e-09
 54.85092    174.6 1.208e+04 1.196e-09
 54.86720    175.9 1.214e+04 1.274e-09
 54.88691    177.3 1.218e+04 1.366e-09
 54.90662    178.4 1.240e+04 1.435e-09
 54.92633    179.0 1.293e+04 1.660e-09
 54.94605    179.2 1.394e+04 2.459e-09
 54.96037    179.3 1.519e+04 4.420e-09
 54.97022    178.5 1.540e+04 7.079e-09
 54.98547    178.6 1.681e+04 1.363e-08
 55.00020    178.5 1.734e+04 1.793e-08
 55.01001    178.4 1.785e+04 2.290e-08
 55.01986    178.3 1.851e+04 3.184e-08
 55.02972    178.3 1.920e+04 4.756e-08
 55.03794    178.4 1.981e+04 7.538e-08
 55.04286    178.6 1.991e+04 6.071e-08
 55.04943    178.7 2.049e+04 7.500e-08
 55.05928    178.6 2.082e+04 7.719e-08
 55.06841    178.0 2.089e+04 7.416e-08
 55.07334    177.9 2.101e+04 1.016e-07
 55.07900    177.2 2.103e+04 9.020e-08
 55.08885    176.8 2.084e+04 6.661e-08
 55.09871    176.8 2.047e+04 4.787e-08
 55.10856    176.8 2.002e+04 2.949e-08
 55.11565    176.7 1.936e+04 1.532e-08
 55.12556    174.3 1.807e+04 6.710e-09
 55.14315    171.9 1.506e+04 3.130e-09
 55.16286    170.7 1.314e+04 2.513e-09
 55.18257    170.9 1.296e+04 2.432e-09
 55.20229    172.0 1.296e+04 2.413e-09
 55.22200    173.5 1.301e+04 2.432e-09
 55.24171    174.8 1.315e+04 2.505e-09
 55.26118    176.1 1.330e+04 2.607e-09
 55.27104    176.3 1.343e+04 3.308e-09
 55.28113    177.4 1.355e+04 3.536e-09
 55.29595    178.4 1.369e+04 3.814e-09
 55.30580    178.6 1.399e+04 4.289e-09
 55.32055    179.6 1.405e+04 4.350e-09
 55.34026    180.3 1.419e+04 4.489e-09
 55.35997    180.4 1.446e+04 4.907e-09
 55.37968    180.3 1.499e+04 6.008e-09
 55.39939    180.0 1.577e+04 8.302e-09
 55.41652    179.8 1.664e+04 1.217e-08
 55.42638    179.9 1.667e+04 1.255e-08
 55.43881    180.0 1.752e+04 1.832e-08
 55.45852    180.3 1.802e+04 2.356e-08
 55.47824    180.6 1.818e+04 2.518e-08
 55.49795    181.0 1.804e+04 2.245e-08
 55.51766    181.4 1.755e+04 1.743e-08
 55.53737    181.7 1.718e+04 1.419e-08
 55.55210    182.0 1.708e+04 1.323e-08
 55.56191    182.0 1.698e+04 1.226e-08
 55.57181    181.6 1.653e+04 9.363e-09
 55.58167    181.6 1.729e+04 1.085e-08
 55.59147    181.0 1.714e+04 9.782e-09
 55.60133    180.6 1.694e+04 9.035e-09
 55.61119    180.2 1.674e+04 8.481e-09
 55.62104    179.8 1.657e+04 8.129e-09
 55.63090    179.4 1.645e+04 7.945e-09
 55.64075    179.1 1.635e+04 7.854e-09
 55.64943    178.8 1.635e+04 7.869e-09
 55.65436    178.5 1.665e+04 8.129e-09
 55.66046    178.3 1.657e+04 8.034e-09
 55.67032    178.1 1.651e+04 8.040e-09
 55.68017    177.9 1.643e+04 8.009e-09
 55.69003    177.7 1.637e+04 8.008e-09
 55.69988    177.5 1.628e+04 7.981e-09
 55.70974    177.2 1.615e+04 8.018e-09
 55.71959    176.9 1.605e+04 8.033e-09
 55.72715    176.6 1.587e+04 7.681e-09
 55.73705    176.4 1.609e+04 7.164e-09
 55.75083    175.9 1.610e+04 7.123e-09
 55.76063    175.2 1.666e+04 8.733e-09
 55.76887    174.7 1.671e+04 8.803e-09
 55.77873    174.5 1.674e+04 8.871e-09
 55.78858    174.1 1.690e+04 9.501e-09
 55.79844    173.9 1.700e+04 9.920e-09
 55.81327    173.4 1.766e+04 1.351e-08
 55.83303    173.5 1.778e+04 1.521e-08
 55.84776    173.4 1.778e+04 1.588e-08
 55.85757    173.2 1.784e+04 1.659e-08
 55.86743    173.1 1.803e+04 1.830e-08
 55.87728    173.1 1.831e+04 2.056e-08
 55.88243    173.1 1.871e+04 2.205e-08
 55.88736    173.1 1.866e+04 3.038e-08
 55.89699    173.3 1.918e+04 3.233e-08
 55.90685    173.3 1.933e+04 3.196e-08
 55.91670    173.2 1.946e+04 3.064e-08
 55.92656    172.8 1.961e+04 2.803e-08
 55.93641    172.2 1.960e+04 2.597e-08
 55.94627    171.7 1.942e+04 2.463e-08
 55.95518    171.5 1.931e+04 2.418e-08
 55.96010    171.7 1.930e+04 2.602e-08
 55.97096    171.6 1.919e+04 2.172e-08
 55.99071    171.3 1.849e+04 1.346e-08
 56.01043    170.3 1.741e+04 7.231e-09
 56.02801    168.3 1.598e+04 4.048e-09
 56.03787    170.4 1.742e+04 6.765e-09
 56.04985    168.0 1.609e+04 3.688e-09
 56.06956    166.0 1.456e+04 2.395e-09
 56.08927    165.4 1.353e+04 1.864e-09
 56.10898    165.3 1.316e+04 1.582e-09
 56.12869    165.4 1.300e+04 1.333e-09
 56.14840    165.6 1.279e+04 1.077e-09
 56.16811    165.5 1.262e+04 9.210e-10
 56.18345    166.1 1.231e+04 8.013e-10
 56.19330    165.7 1.234e+04 8.890e-10
 56.20571    165.7 1.228e+04 8.659e-10
 56.21566    165.5 1.233e+04 8.866e-10
 56.23729    166.3 1.229e+04 8.796e-10
 56.27672    166.9 1.231e+04 9.131e-10
 56.31614    167.3 1.243e+04 9.584e-10
 56.35556    167.5 1.247e+04 9.484e-10
 56.39498    167.7 1.245e+04 9.097e-10
 56.43440    168.0 1.237e+04 8.029e-10
 56.47382    168.7 1.226e+04 6.504e-10
 56.49422    169.5 1.214e+04 4.945e-10
 56.51393    169.4 1.212e+04 5.311e-10
 56.55267    170.6 1.200e+04 3.967e-10
 56.59209    172.0 1.187e+04 3.198e-10
 56.63151    173.6 1.184e+04 2.912e-10
 56.67093    175.4 1.183e+04 2.835e-10
 56.71035    177.2 1.185e+04 2.850e-10
 56.74977    178.9 1.190e+04 2.867e-10
 56.78518    180.5 1.194e+04 2.803e-10
 56.80489    180.7 1.207e+04 3.079e-10
 56.82862    182.1 1.207e+04 2.962e-10
 56.86804    183.4 1.196e+04 2.924e-10
 56.90746    184.8 1.191e+04 2.924e-10
 56.94688    186.1 1.182e+04 3.019e-10
 56.98630    187.6 1.175e+04 3.281e-10
 57.02572    189.1 1.174e+04 3.649e-10
 57.06515    190.7 1.176e+04 3.971e-10
 57.09586    192.4 1.175e+04 4.133e-10
 57.11557    192.7 1.180e+04 3.888e-10
 57.12552    194.3 1.174e+04 3.703e-10
 57.14523    194.2 1.160e+04 3.211e-10
 57.18341    195.9 1.158e+04 3.223e-10
 57.22283    197.4 1.156e+04 3.124e-10
 57.26225    198.9 1.153e+04 2.996e-10
 57.30167    200.4 1.152e+04 2.910e-10
 57.34110    201.9 1.153e+04 2.894e-10
 57.38052    203.4 1.155e+04 2.921e-10
 57.40653    204.7 1.162e+04 3.056e-10
 57.42624    205.1 1.153e+04 2.746e-10
 57.45936    206.4 1.168e+04 3.121e-10
 57.49878    207.6 1.188e+04 3.672e-10
 57.53820    208.5 1.205e+04 4.354e-10
 57.57762    208.4 1.213e+04 4.943e-10
 57.60709    208.6 1.226e+04 5.987e-10
 57.62671    208.8 1.238e+04 6.885e-10
 57.65637    209.1 1.249e+04 7.888e-10
 57.69589    209.1 1.268e+04 9.004e-10
 57.71721    208.6 1.274e+04 8.922e-10
 57.73692    209.1 1.259e+04 7.585e-10
 57.77473    208.1 1.250e+04 6.706e-10
 57.81415    207.0 1.228e+04 5.150e-10
 57.85358    206.1 1.194e+04 3.635e-10
 57.89300    205.4 1.163e+04 2.757e-10
 57.93242    205.1 1.154e+04 2.623e-10
 57.97184    205.1 1.155e+04 2.634e-10
 58.00817    205.2 1.156e+04 2.815e-10
 58.02788    206.0 1.157e+04 2.517e-10
 58.03528    206.1 1.160e+04 2.951e-10
 58.05499    205.9 1.151e+04 2.871e-10
 58.09010    206.1 1.155e+04 3.461e-10
 58.12953    206.6 1.161e+04 4.131e-10
 58.16895    207.1 1.174e+04 4.726e-10
 58.20837    207.7 1.189e+04 5.219e-10
 58.24779    208.0 1.200e+04 5.496e-10
 58.28721    208.1 1.204e+04 5.501e-10
 58.31884    208.2 1.206e+04 5.538e-10
 58.33855    209.2 1.209e+04 6.192e-10
 58.36605    209.0 1.211e+04 6.431e-10
 58.40548    208.6 1.214e+04 6.864e-10
 58.44490    207.9 1.219e+04 7.246e-10
 58.48432    206.9 1.219e+04 7.229e-10
 58.52374    205.8 1.209e+04 6.882e-10
 58.56316    204.9 1.185e+04 6.012e-10
 58.60258    204.4 1.153e+04 4.911e-10
 58.62952    204.1 1.121e+04 3.921e-10
 58.64923    205.3 1.113e+04 3.555e-10
 58.68143    205.5 1.092e+04 3.033e-10
 58.72085    205.7 1.078e+04 2.636e-10
 58.76027    206.3 1.063e+04 2.266e-10
 58.79969    207.1 1.050e+04 1.931e-10
 58.83911    208.2 1.039e+04 1.665e-10
 58.87853    209.5 1.026e+04 1.502e-10
 58.91796    211.1 1.014e+04 1.413e-10
 58.94019    212.9 1.006e+04 1.352e-10
 58.94756    214.0 1.005e+04 1.417e-10
 58.96475    214.4 1.014e+04 1.606e-10
 58.99680    216.3 1.011e+04 1.584e-10
 59.03622    218.2 1.010e+04 1.561e-10
 59.07564    220.1 1.009e+04 1.536e-10
 59.11506    222.0 1.008e+04 1.505e-10
 59.15448    223.9 1.007e+04 1.467e-10
 59.19391    225.8 1.005e+04 1.420e-10
 59.23115    227.6 1.003e+04 1.360e-10
 59.25086    228.2 1.004e+04 1.520e-10
 59.27275    229.9 1.000e+04 1.450e-10
 59.31217    231.5 9.955e+03 1.357e-10
 59.35159    233.1 9.908e+03 1.250e-10
 59.39101    234.6 9.869e+03 1.142e-10
 59.43043    236.0 9.846e+03 1.052e-10
 59.46986    237.4 9.847e+03 9.973e-11
 59.50928    238.7 9.849e+03 9.896e-11
 59.54183    239.9 9.850e+03 9.944e-11
 59.56154    240.7 9.835e+03 1.128e-10
 59.58812    241.9 9.843e+03 1.135e-10
 59.62754    243.1 9.876e+03 1.168e-10
 59.66696    244.2 9.936e+03 1.230e-10
 59.70639    245.2 1.002e+04 1.308e-10
 59.74581    246.2 1.011e+04 1.373e-10
 59.78523    247.1 1.018e+04 1.397e-10
 59.82465    247.9 1.019e+04 1.386e-10
 59.85250    248.8 1.023e+04 1.330e-10
 59.86294    249.2 1.023e+04 1.334e-10
 59.87451    249.0 1.031e+04 1.466e-10
 59.90349    249.9 1.031e+04 1.307e-10
 59.94291    251.0 1.028e+04 1.178e-10
 59.98234    252.3 1.020e+04 1.141e-10
 60.02176    253.8 1.019e+04 1.145e-10
 60.06118    255.4 1.017e+04 1.178e-10
 60.10060    257.2 1.018e+04 1.277e-10
 60.14002    258.9 1.025e+04 1.437e-10
 60.16318    260.7 1.032e+04 1.633e-10
 60.18289    261.5 1.029e+04 1.592e-10
 60.21886    263.3 1.039e+04 1.820e-10
 60.25829    265.2 1.045e+04 2.010e-10
 60.29771    267.0 1.050e+04 2.139e-10
 60.33713    268.9 1.055e+04 2.200e-10
 60.37655    270.8 1.064e+04 2.203e-10
 60.41597    272.7 1.074e+04 2.214e-10
 60.45414    274.6 1.091e+04 2.278e-10
 60.47385    275.3 1.093e+04 2.630e-10
 60.49481    276.7 1.114e+04 2.870e-10
 60.53424    277.5 1.125e+04 3.163e-10
 60.57366    278.2 1.120e+04 3.410e-10
 60.60313    278.7 1.117e+04 3.575e-10
 60.61914    279.7 1.120e+04 3.866e-10
 60.62899    281.0 1.120e+04 4.421e-10
 60.64245    282.5 1.143e+04 5.274e-10
 60.66216    283.6 1.168e+04 5.953e-10
 60.68187    284.4 1.184e+04 6.320e-10
 60.70158    284.9 1.196e+04 6.389e-10
 60.72129    285.2 1.200e+04 6.342e-10
 60.74100    285.4 1.204e+04 6.298e-10
 60.76071    285.4 1.206e+04 6.313e-10
 60.77422    285.2 1.217e+04 6.545e-10
 60.77812    284.1 1.221e+04 6.598e-10
 60.78433    283.9 1.244e+04 7.498e-10
 60.80014    283.4 1.280e+04 9.332e-10
 60.81985    282.7 1.323e+04 1.233e-09
 60.83956    282.1 1.366e+04 1.647e-09
 60.85927    281.4 1.405e+04 2.112e-09
 60.87898    280.6 1.436e+04 2.472e-09
 60.89869    279.7 1.447e+04 2.549e-09
 60.91840    278.7 1.447e+04 2.472e-09
 60.92981    277.8 1.428e+04 2.174e-09
 60.93967    277.6 1.496e+04 2.832e-09
 60.95782    276.8 1.442e+04 2.114e-09
 60.97753    275.9 1.372e+04 1.515e-09
 60.99724    274.9 1.301e+04 1.137e-09
 61.01695    273.9 1.239e+04 9.907e-10
 61.03666    273.2 1.218e+04 9.890e-10
 61.05638    272.6 1.216e+04 9.926e-10
 61.07529    272.1 1.212e+04 1.010e-09
 61.08515    272.0 1.222e+04 1.103e-09
 61.09580    271.6 1.219e+04 1.116e-09
 61.11551    270.9 1.218e+04 1.149e-09
 61.13522    270.1 1.221e+04 1.249e-09
 61.15493    269.1 1.243e+04 1.465e-09
 61.17464    268.1 1.280e+04 1.822e-09
 61.19435    267.1 1.319e+04 2.226e-09
 61.21406    266.2 1.343e+04 2.386e-09
 61.22910    265.1 1.343e+04 2.362e-09
 61.23581    265.9 1.362e+04 2.555e-09
 61.24048    265.4 1.360e+04 2.528e-09
 61.25348    264.4 1.357e+04 2.423e-09
 61.27319    263.4 1.332e+04 2.033e-09
 61.29290    262.4 1.285e+04 1.581e-09
 61.32257    261.5 1.216e+04 1.092e-09
 61.36209    260.1 1.127e+04 7.052e-10
 61.38606    259.3 1.093e+04 6.104e-10
 61.39582    258.9 1.093e+04 6.119e-10
 61.41117    258.5 1.072e+04 5.418e-10
 61.43088    258.1 1.049e+04 4.775e-10
 61.45059    258.1 1.033e+04 4.407e-10
 61.48025    258.7 1.007e+04 3.911e-10
 61.51977    260.0 9.874e+03 3.648e-10
 61.55919    261.8 9.731e+03 3.414e-10
 61.59862    263.8 9.631e+03 3.173e-10
 61.63804    265.8 9.552e+03 2.900e-10
 61.67432    268.0 9.470e+03 2.636e-10
 61.69370    268.0 9.819e+03 3.651e-10
 61.69683    267.3 9.870e+03 3.625e-10
 61.71688    269.4 9.868e+03 3.599e-10
 61.75630    271.6 9.867e+03 3.603e-10
 61.79572    273.5 9.871e+03 3.617e-10
 61.83515    275.4 9.854e+03 3.573e-10
 61.87457    277.4 9.805e+03 3.428e-10
 61.91399    279.3 9.743e+03 3.241e-10
 61.95341    281.2 9.682e+03 3.065e-10
 61.98780    283.0 9.659e+03 2.943e-10
 62.00751    280.7 9.956e+03 3.462e-10
 62.03225    282.2 1.009e+04 3.675e-10
 62.07167    283.9 1.009e+04 3.797e-10
 62.11110    285.1 1.010e+04 3.871e-10
 62.15052    286.0 1.017e+04 4.048e-10
 62.18994    286.6 1.027e+04 4.331e-10
 62.22936    287.2 1.039e+04 4.667e-10
 62.26878    287.6 1.050e+04 4.955e-10
 62.29847    287.8 1.054e+04 5.006e-10
 62.31818    285.8 1.052e+04 4.975e-10
 62.34762    285.7 1.041e+04 4.420e-10
 62.38705    285.7 1.023e+04 3.648e-10
 62.42647    285.6 9.967e+03 2.837e-10
 62.46589    285.6 9.651e+03 2.184e-10
 62.50531    285.9 9.367e+03 1.833e-10
 62.54473    286.5 9.302e+03 1.796e-10
 62.58408    287.5 9.304e+03 1.814e-10
 62.60908    288.2 9.533e+03 2.344e-10
 62.62886    287.3 9.403e+03 2.161e-10
 62.66300    288.2 9.609e+03 2.550e-10
 62.70242    288.8 9.832e+03 2.969e-10
 62.74184    289.1 1.001e+04 3.324e-10
 62.78126    289.1 1.013e+04 3.587e-10
 62.82068    289.0 1.025e+04 3.885e-10
 62.86010    288.9 1.046e+04 4.411e-10
 62.89953    288.6 1.084e+04 5.410e-10
 62.91982    288.7 1.122e+04 6.670e-10
 62.93953    287.2 1.127e+04 6.914e-10
 62.97837    286.9 1.188e+04 8.976e-10
 63.00784    286.0 1.219e+04 1.036e-09
 63.02745    285.4 1.251e+04 1.184e-09
 63.04716    284.5 1.292e+04 1.419e-09
 63.05848    283.3 1.341e+04 1.771e-09
 63.06657    283.1 1.318e+04 1.573e-09
 63.07496    282.6 1.305e+04 1.483e-09
 63.08658    281.3 1.336e+04 1.687e-09
 63.10629    279.9 1.363e+04 1.864e-09
 63.12600    278.4 1.375e+04 1.957e-09
 63.14571    276.8 1.374e+04 1.956e-09
 63.16542    275.2 1.371e+04 1.945e-09
 63.18514    273.5 1.368e+04 1.923e-09
 63.20485    271.9 1.364e+04 1.892e-09
 63.22044    270.3 1.361e+04 1.822e-09
 63.23030    270.2 1.355e+04 1.755e-09
 63.25422    267.2 1.341e+04 1.431e-09
 63.29374    263.8 1.259e+04 9.033e-10
 63.33316    262.0 1.153e+04 5.279e-10
 63.37258    260.6 1.063e+04 3.302e-10
 63.41200    259.6 1.054e+04 3.004e-10
 63.45143    258.9 1.054e+04 3.031e-10
 63.49085    258.2 1.059e+04 3.188e-10
 63.51355    257.4 1.072e+04 3.400e-10
 63.52445    259.7 1.060e+04 3.037e-10
 63.54117    259.1 1.038e+04 2.644e-10
 63.56969    258.5 1.034e+04 2.580e-10
 63.60911    257.9 1.031e+04 2.509e-10
 63.64853    257.5 1.029e+04 2.457e-10
 63.68795    257.3 1.029e+04 2.485e-10
 63.72738    257.2 1.031e+04 2.555e-10
 63.76680    257.3 1.034e+04 2.604e-10
 63.80622    257.4 1.038e+04 2.648e-10
 63.83213    257.6 1.045e+04 2.769e-10
 63.85184    258.7 1.009e+04 2.129e-10
 63.88506    258.9 1.029e+04 2.422e-10
 63.92448    259.1 1.052e+04 2.868e-10
 63.96391    259.3 1.079e+04 3.504e-10
 64.00333    259.8 1.097e+04 4.140e-10
 64.03280    260.8 1.103e+04 4.698e-10
 64.05241    261.3 1.109e+04 5.456e-10
 64.07212    261.7 1.099e+04 5.943e-10
 64.09183    262.2 1.096e+04 5.925e-10
 64.11154    262.7 1.090e+04 5.763e-10
 64.13125    263.3 1.080e+04 5.466e-10
 64.14261    263.9 1.070e+04 5.096e-10
 64.15246    264.3 1.099e+04 6.146e-10
 64.17067    264.8 1.091e+04 5.761e-10
 64.19038    265.0 1.095e+04 5.394e-10
 64.21009    265.0 1.117e+04 5.565e-10
 64.22980    264.7 1.184e+04 6.455e-10
 64.24952    264.2 1.280e+04 8.915e-10
 64.26923    263.8 1.374e+04 1.390e-09
 64.28809    263.6 1.457e+04 2.214e-09
 64.29795    264.1 1.419e+04 1.700e-09
 64.30865    263.9 1.482e+04 2.480e-09
 64.32836    263.7 1.533e+04 3.351e-09
 64.34807    263.4 1.576e+04 4.115e-09
 64.36778    262.9 1.616e+04 4.670e-09
 64.38749    261.9 1.662e+04 5.343e-09
 64.40720    260.6 1.708e+04 5.534e-09
 64.42312    258.9 1.708e+04 5.122e-09
 64.43298    261.2 1.794e+04 7.666e-09
 64.44343    259.5 1.802e+04 7.299e-09
 64.45328    259.7 1.796e+04 7.486e-09
 64.46633    257.8 1.801e+04 7.224e-09
 64.48604    255.4 1.795e+04 6.370e-09
 64.50576    252.9 1.740e+04 5.049e-09
 64.52547    250.7 1.634e+04 3.690e-09
 64.54518    248.9 1.495e+04 2.640e-09
 64.56489    247.6 1.366e+04 1.985e-09
 64.58460    247.0 1.292e+04 1.618e-09
 64.59877    246.8 1.278e+04 1.412e-09
 64.60862    246.9 1.328e+04 1.845e-09
 64.62402    246.8 1.339e+04 1.733e-09
 64.64373    246.6 1.355e+04 1.651e-09
 64.66344    246.2 1.363e+04 1.544e-09
 64.68315    245.5 1.356e+04 1.410e-09
 64.70286    244.7 1.334e+04 1.266e-09
 64.72257    243.6 1.303e+04 1.138e-09
 64.74228    242.5 1.270e+04 1.031e-09
 64.75410    241.4 1.238e+04 9.383e-10
 64.76396    241.9 1.379e+04 1.367e-09
 64.78171    240.6 1.337e+04 1.164e-09
 64.80142    239.1 1.281e+04 9.703e-10
 64.82113    237.5 1.234e+04 8.346e-10
 64.84084    236.0 1.205e+04 7.654e-10
 64.86055    234.4 1.190e+04 7.344e-10
 64.87800    233.0 1.182e+04 7.284e-10
 64.88786    234.1 1.187e+04 7.348e-10
 64.89958    232.6 1.184e+04 7.324e-10
 64.90944    231.8 1.209e+04 8.453e-10
 64.91968    230.3 1.210e+04 8.683e-10
 64.93939    228.9 1.219e+04 9.341e-10
 64.95910    227.5 1.232e+04 1.043e-09
 64.97881    226.2 1.246e+04 1.144e-09
 64.99852    225.0 1.252e+04 1.165e-09
 65.01823    223.6 1.251e+04 1.150e-09
 65.03795    222.1 1.246e+04 1.078e-09
 65.05492    220.4 1.229e+04 9.530e-10
 65.06478    219.3 1.224e+04 9.086e-10
 65.07737    217.1 1.194e+04 7.880e-10
 65.09708    215.0 1.181e+04 7.719e-10
 65.11679    213.2 1.180e+04 7.781e-10
 65.13650    211.7 1.184e+04 8.216e-10
 65.15621    210.3 1.203e+04 9.311e-10
 65.17592    209.2 1.230e+04 1.086e-09
 65.19563    208.1 1.256e+04 1.245e-09
 65.21026    206.9 1.279e+04 1.354e-09
 65.22011    206.0 1.281e+04 1.391e-09
 65.23505    204.8 1.299e+04 1.415e-09
 65.25476    203.3 1.301e+04 1.412e-09
 65.27447    201.6 1.302e+04 1.388e-09
 65.29418    199.7 1.300e+04 1.323e-09
 65.31390    197.5 1.296e+04 1.252e-09
 65.33288    195.2 1.289e+04 1.190e-09
 65.34274    195.0 1.273e+04 1.070e-09
 65.35332    192.4 1.259e+04 1.037e-09
 65.36559    189.9 1.260e+04 1.045e-09
 65.37545    188.9 1.280e+04 1.159e-09
 65.39274    185.8 1.302e+04 1.245e-09
 65.41245    182.1 1.371e+04 1.576e-09
 65.43216    178.4 1.459e+04 2.280e-09
 65.45187    175.4 1.510e+04 3.140e-09
 65.47158    172.8 1.515e+04 3.405e-09
 65.49129    170.6 1.500e+04 3.263e-09
 65.51100    168.4 1.449e+04 2.663e-09
 65.53071    165.7 1.366e+04 1.536e-09
 65.55042    161.0 1.325e+04 9.933e-10
 65.57014    155.2 1.305e+04 9.282e-10
 65.58985    150.4 1.291e+04 9.530e-10
 65.60956    147.4 1.266e+04 1.043e-09
 65.62927    146.0 1.250e+04 1.099e-09
 65.64898    145.4 1.241e+04 1.080e-09
 65.66641    144.9 1.223e+04 9.898e-10
 65.67627    146.6 1.161e+04 7.261e-10
 65.68840    146.0 1.143e+04 6.597e-10
 65.70811    145.4 1.116e+04 5.798e-10
 65.72782    144.9 1.088e+04 5.169e-10
 65.74753    144.7 1.068e+04 4.795e-10
 65.76724    144.6 1.065e+04 4.584e-10
 65.78695    144.8 1.074e+04 4.545e-10
 65.79762    144.9 1.088e+04 4.546e-10
 65.80747    145.5 1.073e+04 4.513e-10
 65.82175    145.6 1.086e+04 4.543e-10
 65.83161    146.7 1.070e+04 3.871e-10
 65.84609    146.8 1.080e+04 3.898e-10
 65.86580    147.0 1.089e+04 3.960e-10
 65.88551    147.1 1.095e+04 4.037e-10
 65.90522    147.1 1.101e+04 4.173e-10
 65.92493    147.1 1.106e+04 4.396e-10
 65.94464    146.9 1.117e+04 4.833e-10
 65.96435    146.7 1.134e+04 5.601e-10
 65.97709    146.4 1.159e+04 6.644e-10
 65.98694    147.8 1.140e+04 4.892e-10
 66.00377    147.3 1.160e+04 6.078e-10
 66.02348    146.9 1.191e+04 7.683e-10
 66.04319    146.5 1.229e+04 9.937e-10
 66.06290    146.2 1.277e+04 1.293e-09
 66.08261    146.0 1.333e+04 1.663e-09
 66.10233    145.8 1.387e+04 2.072e-09
 66.12204    145.6 1.432e+04 2.276e-09
 66.13242    145.0 1.436e+04 2.244e-09
 66.14228    146.0 1.472e+04 2.589e-09
 66.16146    145.4 1.467e+04 2.511e-09
 66.18117    144.8 1.439e+04 2.174e-09
 66.20088    144.3 1.382e+04 1.641e-09
 66.22059    143.8 1.305e+04 1.130e-09
 66.24030    142.8 1.228e+04 7.351e-10
 66.25250    141.8 1.163e+04 4.730e-10
 66.26235    141.3 1.159e+04 4.768e-10
 66.27791    139.5 1.121e+04 3.577e-10
 66.28776    140.8 1.131e+04 3.828e-10
 66.29943    140.1 1.127e+04 3.478e-10
 66.32910    139.5 1.114e+04 3.501e-10
 66.36862    138.4 1.104e+04 3.528e-10
 66.39808    137.8 1.106e+04 3.610e-10
 66.41770    137.9 1.096e+04 3.936e-10
 66.43324    138.1 1.104e+04 4.745e-10
 66.44310    138.9 1.107e+04 4.810e-10
 66.45712    139.0 1.149e+04 6.291e-10
 66.47683    139.0 1.203e+04 8.494e-10
 66.49654    138.9 1.262e+04 1.154e-09
 66.51625    139.0 1.319e+04 1.521e-09
 66.53596    139.0 1.368e+04 1.772e-09
 66.55567    138.6 1.378e+04 1.776e-09
 66.57538    138.1 1.374e+04 1.701e-09
 66.58858    137.5 1.350e+04 1.466e-09
 66.59844    138.5 1.352e+04 1.494e-09
 66.61480    137.9 1.307e+04 1.162e-09
 66.63452    137.0 1.251e+04 8.714e-10
 66.65423    136.2 1.191e+04 6.681e-10
 66.67394    135.7 1.143e+04 5.430e-10
 66.69365    135.8 1.117e+04 4.718e-10
 66.70738    135.6 1.105e+04 4.068e-10
 66.71723    135.4 1.103e+04 3.951e-10
 66.73307    135.3 1.100e+04 3.776e-10
 66.76273    136.5 1.084e+04 3.407e-10
 66.80225    137.4 1.052e+04 2.754e-10
 66.84167    138.3 1.011e+04 2.165e-10
 66.87974    139.4 9.786e+03 1.773e-10
 66.89945    140.8 1.021e+04 2.354e-10
 66.92052    141.9 9.947e+03 1.935e-10
 66.95994    142.7 1.001e+04 1.898e-10
 66.99936    142.8 1.021e+04 2.029e-10
 67.03878    142.1 1.061e+04 2.408e-10
 67.06825    141.2 1.088e+04 2.716e-10
 67.08786    140.9 1.099e+04 2.956e-10
 67.10757    140.2 1.124e+04 3.829e-10
 67.12728    139.6 1.166e+04 5.703e-10
 67.14699    139.1 1.227e+04 8.796e-10
 67.16226    138.8 1.302e+04 1.324e-09
 67.17211    138.4 1.332e+04 1.525e-09
 67.18642    137.8 1.415e+04 2.134e-09
 67.20007    136.8 1.487e+04 2.757e-09
 67.20993    137.5 1.467e+04 2.504e-09
 67.22584    136.1 1.527e+04 3.160e-09
 67.24555    134.2 1.563e+04 3.592e-09
 67.26526    131.7 1.588e+04 3.832e-09
 67.28497    128.5 1.618e+04 4.048e-09
 67.30468    125.1 1.647e+04 4.308e-09
 67.32439    121.9 1.658e+04 4.474e-09
 67.34410    119.0 1.646e+04 4.420e-09
 67.35541    116.8 1.609e+04 4.039e-09
 67.36526    115.9 1.584e+04 3.544e-09
 67.38352    113.5 1.513e+04 2.707e-09
 67.40323    110.7 1.444e+04 2.050e-09
 67.42295    107.7 1.387e+04 1.690e-09
 67.44266    105.0 1.342e+04 1.546e-09
 67.46237    103.2 1.313e+04 1.510e-09
 67.48208    102.3 1.298e+04 1.499e-09
 67.50089    101.9 1.290e+04 1.488e-09
 67.51075    101.0 1.323e+04 1.663e-09
 67.52150    100.7 1.321e+04 1.622e-09
 67.54121    100.0 1.313e+04 1.527e-09
 67.56092     99.0 1.309e+04 1.422e-09
 67.58063     97.8 1.310e+04 1.383e-09
 67.60034     96.6 1.317e+04 1.402e-09
 67.61714     95.2 1.343e+04 1.503e-09
 67.62699     93.9 1.302e+04 1.303e-09
 67.63976     92.3 1.353e+04 1.551e-09
 67.65623     90.5 1.429e+04 2.024e-09
 67.66608     89.3 1.482e+04 2.492e-09
 67.67918     88.0 1.545e+04 3.162e-09
 67.69890     86.7 1.596e+04 3.789e-09
 67.71861     84.9 1.661e+04 4.422e-09
 67.73832     81.7 1.758e+04 5.575e-09
 67.75803     78.0 1.861e+04 7.407e-09
 67.77774     75.3 1.877e+04 8.740e-09
 67.79745     73.6 1.843e+04 8.516e-09
 67.81152     73.0 1.802e+04 8.033e-09
 67.81639     72.4 1.849e+04 9.779e-09
 67.82199     72.2 1.809e+04 8.687e-09
 67.83185     71.7 1.792e+04 7.486e-09
 67.84170     70.6 1.805e+04 6.587e-09
 67.84941     68.2 1.871e+04 5.955e-09
 67.85434     68.6 1.886e+04 6.429e-09
 67.86141     66.2 1.919e+04 5.870e-09
 67.87127     62.5 1.939e+04 5.561e-09
 67.88112     59.9 1.919e+04 5.355e-09
 67.88914     56.3 1.849e+04 5.099e-09
 67.89406     55.7 1.910e+04 7.503e-09
 67.90083     53.9 1.832e+04 7.110e-09
 67.91069     53.0 1.760e+04 6.343e-09
 67.92054     52.6 1.719e+04 5.894e-09
 67.93040     52.4 1.678e+04 5.104e-09
 67.94025     52.2 1.656e+04 4.648e-09
 67.95509     52.4 1.575e+04 3.391e-09
 67.96690     50.3 1.494e+04 2.089e-09
 67.97676     48.8 1.633e+04 3.047e-09
 67.99456     43.9 1.507e+04 1.912e-09
 68.01427     40.4 1.390e+04 1.589e-09
 68.03398     39.6 1.386e+04 1.648e-09
 68.05369     39.0 1.429e+04 1.929e-09
 68.07202     39.2 1.461e+04 2.190e-09
 68.08187     38.9 1.475e+04 2.328e-09
 68.09311     39.7 1.483e+04 2.482e-09
 68.11238     40.9 1.470e+04 2.406e-09
 68.12224     40.7 1.438e+04 2.105e-09
 68.13253     42.0 1.418e+04 1.812e-09
 68.15224     42.9 1.407e+04 1.485e-09
 68.17195     43.1 1.393e+04 1.186e-09
 68.19166     43.3 1.356e+04 9.520e-10
 68.21137     43.5 1.311e+04 8.212e-10
 68.23109     44.2 1.268e+04 7.526e-10
 68.25080     45.8 1.253e+04 7.362e-10
 68.26772     47.7 1.265e+04 7.596e-10
 68.27758     47.3 1.273e+04 7.818e-10
 68.29022     48.4 1.337e+04 9.067e-10
 68.30993     49.5 1.404e+04 1.102e-09
 68.32964     50.6 1.471e+04 1.394e-09
 68.34935     51.5 1.544e+04 1.833e-09
 68.36906     52.6 1.632e+04 2.447e-09
 68.38877     54.8 1.736e+04 3.243e-09
 68.40351     55.2 1.787e+04 3.786e-09
 68.41331     56.3 1.778e+04 4.073e-09
 68.42296     57.4 1.781e+04 4.306e-09
 68.42789     56.9 1.752e+04 3.938e-09
 68.43302     57.9 1.754e+04 3.888e-09
 68.44288     54.8 2.669e+04 4.303e-09
 68.45273     40.3 4.766e+04 1.279e-08
 68.46010     25.7 4.985e+04 5.363e-08
 68.46421     16.8 2.878e+04 7.389e-07
 68.46667     16.5 3.827e+04 1.859e-07
 68.46993      8.2 2.281e+04 1.525e-06
 68.47486      1.5 1.999e+04 3.415e-06
 68.47979     -8.8 1.864e+04 1.461e-05
 68.48471    -26.7 1.684e+04 6.637e-05
 68.48964    -51.5 1.873e+04 2.079e-05
 68.49457    -74.0 2.580e+04 8.763e-07
 68.49950    -81.1 2.587e+04 2.327e-07
 68.50304    -83.1 2.632e+04 1.468e-07
 68.50551    -82.7 2.608e+04 1.814e-07
 68.50935    -84.9 2.651e+04 1.187e-07
 68.51428    -85.6 2.687e+04 9.463e-08
 68.52170    -89.5 2.704e+04 4.213e-08
 68.53158    -95.1 2.568e+04 1.306e-08
 68.53666    -99.8 2.304e+04 5.871e-09
 68.54158    -97.8 2.400e+04 6.937e-09
 68.55129   -102.7 2.013e+04 3.476e-09
 68.56114   -106.4 1.766e+04 2.405e-09
 68.57100   -108.2 1.701e+04 2.100e-09
 68.57835   -110.7 1.641e+04 1.888e-09
 68.58327   -109.7 1.707e+04 1.923e-09
 68.59071   -110.6 1.708e+04 1.854e-09
 68.60554   -113.8 1.662e+04 1.724e-09
 68.62530   -119.0 1.609e+04 1.736e-09
 68.64501   -122.7 1.675e+04 1.963e-09
 68.66472   -125.8 1.759e+04 2.397e-09
 68.68443   -129.1 1.771e+04 2.601e-09
 68.70414   -132.4 1.722e+04 2.591e-09
 68.72385   -135.1 1.650e+04 2.445e-09
 68.74356   -136.8 1.630e+04 2.564e-09
 68.76328   -137.9 1.580e+04 2.420e-09
 68.78299   -138.4 1.531e+04 2.235e-09
 68.80270   -138.7 1.482e+04 1.960e-09
 68.82241   -139.0 1.437e+04 1.652e-09
 68.84212   -139.3 1.398e+04 1.400e-09
 68.86183   -139.7 1.374e+04 1.250e-09
 68.87921   -140.2 1.372e+04 1.203e-09
 68.88907   -141.3 1.397e+04 1.259e-09
 68.90125   -142.9 1.469e+04 1.365e-09
 68.92096   -145.1 1.622e+04 1.982e-09
 68.94067   -147.2 1.782e+04 3.391e-09
 68.96038   -149.1 1.917e+04 5.800e-09
 68.98009   -151.0 2.015e+04 8.821e-09
 68.99163   -153.3 2.085e+04 1.136e-08
 69.00149   -149.7 2.088e+04 1.067e-08
 69.01952   -152.4 2.143e+04 1.299e-08
 69.03455   -155.6 2.155e+04 1.363e-08
 69.04441   -158.0 2.134e+04 1.290e-08
 69.05894   -162.4 2.058e+04 9.117e-09
 69.07865   -168.2 1.913e+04 5.144e-09
 69.09836   -175.2 1.681e+04 2.784e-09
 69.11807   -181.7 1.466e+04 1.819e-09
 69.13778   -186.3 1.392e+04 1.534e-09
 69.15749   -189.1 1.373e+04 1.465e-09
 69.17720   -190.9 1.359e+04 1.416e-09
 69.18989   -192.5 1.335e+04 1.274e-09
 69.19974   -195.1 1.330e+04 1.167e-09
 69.21662   -197.0 1.290e+04 8.865e-10
 69.23633   -199.1 1.244e+04 6.237e-10
 69.25604   -201.3 1.191e+04 4.319e-10
 69.27575   -203.2 1.144e+04 3.250e-10
 69.29547   -204.0 1.121e+04 2.837e-10
 69.32513   -204.3 1.111e+04 2.633e-10
 69.34542   -207.2 1.064e+04 2.269e-10
 69.36513   -212.3 1.060e+04 2.319e-10
 69.40407   -214.6 1.044e+04 2.265e-10
 69.44349   -216.2 1.041e+04 2.304e-10
 69.48291   -217.5 1.056e+04 2.596e-10
 69.52233   -218.6 1.085e+04 3.005e-10
 69.56176   -219.6 1.127e+04 3.404e-10
 69.60118   -220.2 1.172e+04 3.830e-10
 69.63065   -222.0 1.177e+04 4.024e-10
 69.64604   -223.8 1.187e+04 4.548e-10
 69.65600   -225.6 1.183e+04 4.005e-10
 69.67007   -226.4 1.199e+04 5.350e-10
 69.68968   -227.3 1.228e+04 7.098e-10
 69.70939   -228.0 1.255e+04 9.220e-10
 69.72910   -228.4 1.274e+04 1.046e-09
 69.74881   -228.6 1.282e+04 1.102e-09
 69.76852   -228.8 1.283e+04 1.109e-09
 69.78823   -228.9 1.276e+04 1.082e-09
 69.80138   -229.0 1.262e+04 9.969e-10
 69.81123   -229.9 1.239e+04 9.452e-10
 69.82766   -230.1 1.226e+04 8.808e-10
 69.84737   -230.4 1.225e+04 8.619e-10
 69.86708   -231.1 1.227e+04 8.600e-10
 69.88679   -232.2 1.265e+04 9.050e-10
 69.90140   -233.4 1.324e+04 1.129e-09
 69.91125   -234.7 1.342e+04 1.196e-09
 69.92621   -235.4 1.398e+04 1.639e-09
 69.94592   -235.6 1.435e+04 2.097e-09
 69.95672   -235.7 1.451e+04 2.411e-09
 69.96657   -236.4 1.442e+04 2.383e-09
 69.98534   -236.4 1.442e+04 2.452e-09
 70.00505   -236.2 1.435e+04 2.449e-09
 70.02476   -235.6 1.390e+04 2.217e-09
 70.04447   -234.6 1.330e+04 1.780e-09
 70.06418   -233.6 1.269e+04 1.373e-09
 70.08390   -232.6 1.214e+04 1.069e-09
 70.10220   -231.8 1.172e+04 8.589e-10
 70.11205   -232.3 1.161e+04 7.771e-10
 70.12332   -231.4 1.133e+04 6.657e-10
 70.14303   -230.3 1.113e+04 5.953e-10
 70.16274   -229.2 1.100e+04 5.538e-10
 70.18245   -228.0 1.093e+04 5.319e-10
 70.20216   -226.9 1.089e+04 5.212e-10
 70.22187   -225.8 1.089e+04 5.183e-10
 70.24158   -224.8 1.095e+04 5.315e-10
 70.25753   -223.9 1.111e+04 5.698e-10
 70.26739   -224.6 1.143e+04 6.765e-10
 70.28100   -223.8 1.165e+04 7.691e-10
 70.30071   -223.0 1.188e+04 8.904e-10
 70.32042   -222.1 1.212e+04 1.036e-09
 70.34013   -221.2 1.233e+04 1.192e-09
 70.35628   -220.2 1.250e+04 1.335e-09
 70.36613   -221.0 1.286e+04 1.572e-09
 70.37956   -219.9 1.290e+04 1.625e-09
 70.39927   -218.8 1.290e+04 1.644e-09
 70.41287   -217.7 1.284e+04 1.606e-09
 70.42273   -218.3 1.273e+04 1.392e-09
 70.43869   -217.4 1.258e+04 1.255e-09
 70.45840   -216.4 1.236e+04 1.120e-09
 70.47811   -215.4 1.213e+04 9.937e-10
 70.49782   -214.5 1.189e+04 8.844e-10
 70.51753   -213.6 1.165e+04 7.938e-10
 70.53724   -212.6 1.141e+04 7.205e-10
 70.55695   -211.6 1.120e+04 6.617e-10
 70.56821   -210.5 1.100e+04 6.139e-10
 70.57806   -211.0 1.083e+04 5.730e-10
 70.59637   -209.8 1.071e+04 5.500e-10
 70.61609   -208.6 1.058e+04 5.264e-10
 70.63580   -207.3 1.047e+04 4.988e-10
 70.65551   -205.7 1.040e+04 4.707e-10
 70.67522   -204.4 1.038e+04 4.520e-10
 70.70488   -203.5 1.038e+04 4.418e-10
 70.74440   -201.4 1.030e+04 4.214e-10
 70.78382   -199.1 1.014e+04 3.913e-10
 70.81135   -196.8 9.968e+03 3.637e-10
 70.83106   -196.9 9.779e+03 3.257e-10
 70.85937   -194.5 9.627e+03 3.021e-10
 70.87908   -193.9 9.888e+03 3.655e-10
 70.90209   -191.5 9.764e+03 3.442e-10
 70.94151   -189.1 9.664e+03 3.250e-10
 70.98093   -186.7 9.591e+03 3.110e-10
 71.02035   -184.2 9.572e+03 3.039e-10
 71.05977   -181.8 9.569e+03 3.030e-10
 71.09919   -179.4 9.620e+03 3.053e-10
 71.13862   -177.2 9.849e+03 3.333e-10
 71.17004   -174.9 1.019e+04 4.087e-10
 71.18975   -173.9 9.773e+03 3.061e-10
 71.21746   -171.8 1.021e+04 3.828e-10
 71.24693   -170.0 1.043e+04 4.715e-10
 71.26604   -169.9 1.059e+04 5.406e-10
 71.27589   -170.7 1.080e+04 6.498e-10
 71.28625   -170.0 1.095e+04 8.117e-10
 71.30596   -169.2 1.104e+04 9.223e-10
 71.32518   -168.3 1.113e+04 1.002e-09
 71.33504   -167.9 1.114e+04 9.548e-10
 71.34538   -167.0 1.124e+04 1.052e-09
 71.36509   -166.1 1.133e+04 1.120e-09
 71.38480   -165.2 1.139e+04 1.172e-09
 71.40451   -164.2 1.140e+04 1.203e-09
 71.42423   -163.3 1.140e+04 1.211e-09
 71.44394   -162.4 1.135e+04 1.185e-09
 71.46365   -161.5 1.123e+04 1.124e-09
 71.48052   -160.7 1.109e+04 1.058e-09
 71.49038   -160.4 1.136e+04 1.148e-09
 71.50307   -159.5 1.126e+04 1.108e-09
 71.52278   -158.6 1.115e+04 1.063e-09
 71.54249   -157.8 1.105e+04 1.014e-09
 71.56220   -157.0 1.101e+04 9.710e-10
 71.58191   -156.5 1.103e+04 9.474e-10
 71.60162   -156.2 1.107e+04 9.433e-10
 71.62133   -156.2 1.131e+04 9.686e-10
 71.63586   -156.4 1.163e+04 1.066e-09
 71.64571   -155.7 1.163e+04 1.039e-09
 71.66075   -156.4 1.207e+04 1.197e-09
 71.68047   -157.3 1.248e+04 1.439e-09
 71.70018   -158.3 1.278e+04 1.713e-09
 71.71989   -159.2 1.292e+04 1.943e-09
 71.73077   -159.9 1.297e+04 2.038e-09
 71.74063   -161.8 1.276e+04 1.979e-09
 71.75931   -162.2 1.248e+04 1.794e-09
 71.77902   -162.6 1.207e+04 1.504e-09
 71.79119   -163.1 1.157e+04 1.166e-09
 71.80105   -162.8 1.191e+04 1.332e-09
 71.81844   -163.5 1.122e+04 9.289e-10
 71.83815   -164.5 1.052e+04 6.419e-10
 71.85786   -165.5 9.941e+03 4.673e-10
 71.87757   -166.1 9.584e+03 3.786e-10
 71.89728   -166.3 9.439e+03 3.429e-10
 71.92695   -166.5 9.261e+03 3.120e-10
 71.96647   -164.9 8.988e+03 2.689e-10
 72.00589   -163.5 8.721e+03 2.290e-10
 72.04531   -162.0 8.605e+03 2.094e-10
 72.08235   -160.5 8.594e+03 2.055e-10
 72.10206   -160.7 8.649e+03 2.110e-10
 72.12415   -159.1 8.697e+03 2.133e-10
 72.16357   -157.6 8.857e+03 2.350e-10
 72.20300   -156.2 9.034e+03 2.676e-10
 72.24242   -154.8 9.231e+03 3.088e-10
 72.28184   -153.2 9.460e+03 3.578e-10
 72.32126   -151.5 9.708e+03 4.119e-10
 72.35073   -150.2 9.920e+03 4.666e-10
 72.37034   -149.7 1.005e+04 5.133e-10
 72.39005   -149.0 1.021e+04 5.722e-10
 72.40269   -148.3 1.035e+04 6.072e-10
 72.41264   -148.7 1.024e+04 5.428e-10
 72.43952   -147.3 1.042e+04 5.895e-10
 72.47895   -146.1 1.047e+04 5.904e-10
 72.51837   -144.9 1.048e+04 5.692e-10
 72.55779   -144.0 1.045e+04 5.523e-10
 72.59721   -143.4 1.054e+04 5.550e-10
 72.63087   -143.4 1.105e+04 6.833e-10
 72.65058   -142.9 1.070e+04 5.755e-10
 72.66610   -143.6 1.112e+04 7.594e-10
 72.68571   -144.2 1.144e+04 9.367e-10
 72.70351   -144.7 1.186e+04 1.185e-09
 72.71336   -145.4 1.195e+04 1.289e-09
 72.72513   -146.0 1.224e+04 1.503e-09
 72.74485   -146.5 1.249e+04 1.689e-09
 72.76456   -147.1 1.269e+04 1.858e-09
 72.78427   -147.8 1.281e+04 1.968e-09
 72.80398   -148.4 1.288e+04 2.025e-09
 72.82369   -148.8 1.290e+04 2.049e-09
 72.84340   -149.3 1.293e+04 2.067e-09
 72.85884   -150.8 1.306e+04 2.126e-09
 72.86870   -152.6 1.276e+04 1.624e-09
 72.88282   -157.6 1.513e+04 2.194e-09
 72.90253   -163.1 1.790e+04 4.634e-09
 72.92224   -167.5 1.961e+04 9.860e-09
 72.94195   -171.1 2.062e+04 1.745e-08
 72.95669   -173.1 2.074e+04 2.310e-08
 72.96649   -174.5 2.072e+04 2.499e-08
 72.97635   -175.8 2.071e+04 2.544e-08
 72.98620   -177.3 2.069e+04 2.492e-08
 72.99606   -178.9 2.069e+04 2.167e-08
 73.00591   -181.1 2.082e+04 1.733e-08
 73.01408   -183.9 2.108e+04 1.351e-08
 73.02399   -189.1 2.038e+04 6.762e-09
 73.04051   -198.6 1.927e+04 5.429e-09
 73.06022   -207.4 1.810e+04 5.318e-09
 73.07495   -212.6 1.701e+04 6.038e-09
 73.08476   -215.0 1.719e+04 7.454e-09
 73.09175   -217.3 1.739e+04 8.890e-09
 73.09668   -216.5 1.739e+04 8.162e-09
 73.10024   -217.9 1.761e+04 8.969e-09
 73.10517   -218.5 1.791e+04 9.894e-09
 73.11432   -220.0 1.810e+04 1.079e-08
 73.12418   -221.3 1.842e+04 1.168e-08
 73.13403   -222.5 1.878e+04 1.251e-08
 73.14389   -223.8 1.908e+04 1.315e-08
 73.15375   -224.9 1.923e+04 1.340e-08
 73.16360   -225.6 1.930e+04 1.345e-08
 73.16942   -226.0 1.941e+04 1.347e-08
 73.17435   -224.7 1.808e+04 9.679e-09
 73.18331   -225.2 1.827e+04 9.630e-09
 73.19317   -225.7 1.846e+04 9.598e-09
 73.20302   -225.9 1.863e+04 9.607e-09
 73.21288   -226.1 1.878e+04 9.706e-09
 73.22273   -226.2 1.887e+04 9.854e-09
 73.23259   -226.3 1.886e+04 1.001e-08
 73.24216   -226.1 1.880e+04 1.011e-08
 73.24709   -225.7 1.797e+04 7.040e-09
 73.25230   -225.6 1.796e+04 7.181e-09
 73.26215   -225.4 1.792e+04 7.262e-09
 73.27201   -225.2 1.776e+04 7.303e-09
 73.28187   -224.9 1.754e+04 7.225e-09
 73.29172   -224.5 1.728e+04 7.072e-09
 73.30158   -223.9 1.705e+04 6.905e-09
 73.31143   -223.3 1.684e+04 6.736e-09
 73.31983   -222.8 1.665e+04 6.547e-09
 73.32476   -223.0 1.609e+04 4.939e-09
 73.33612   -222.3 1.586e+04 4.839e-09
 73.35588   -220.7 1.551e+04 4.543e-09
 73.37559   -219.2 1.521e+04 4.179e-09
 73.39530   -217.7 1.482e+04 3.692e-09
 73.41501   -216.2 1.443e+04 3.204e-09
 73.43472   -214.8 1.408e+04 2.782e-09
 73.45443   -213.4 1.372e+04 2.431e-09
 73.47033   -212.0 1.342e+04 2.153e-09
 73.48019   -212.2 1.293e+04 1.584e-09
 73.49385   -210.8 1.279e+04 1.513e-09
 73.51356   -209.3 1.270e+04 1.472e-09
 73.53327   -208.0 1.268e+04 1.458e-09
 73.55029   -206.6 1.268e+04 1.458e-09
 73.56015   -206.3 1.292e+04 1.734e-09
 73.57270   -205.0 1.301e+04 1.755e-09
 73.59241   -203.9 1.318e+04 1.833e-09
 73.61212   -203.2 1.346e+04 2.004e-09
 73.62567   -202.6 1.380e+04 2.297e-09
 73.63553   -202.9 1.332e+04 1.875e-09
 73.65154   -202.4 1.357e+04 2.141e-09
 73.67125   -201.8 1.386e+04 2.475e-09
 73.69096   -201.4 1.414e+04 2.838e-09
 73.71067   -201.0 1.439e+04 3.157e-09
 73.73038   -200.7 1.451e+04 3.336e-09
 73.75009   -200.5 1.453e+04 3.373e-09
 73.76980   -200.5 1.447e+04 3.209e-09
 73.78101   -200.3 1.407e+04 2.786e-09
 73.79086   -200.7 1.288e+04 1.123e-09
 73.80923   -200.6 1.247e+04 9.416e-10
 73.82894   -200.3 1.195e+04 7.564e-10
 73.84865   -199.9 1.141e+04 5.869e-10
 73.86836   -199.4 1.092e+04 4.481e-10
 73.88807   -198.9 1.053e+04 3.483e-10
 73.90778   -198.3 1.025e+04 2.939e-10
 73.92659   -197.8 1.007e+04 2.640e-10
 73.94640   -197.4 9.568e+03 1.911e-10
 73.97696   -195.6 9.247e+03 1.536e-10
 74.01638   -193.4 8.964e+03 1.238e-10
 74.05580   -191.2 8.854e+03 1.091e-10
 74.09523   -189.0 8.829e+03 1.039e-10
 74.13465   -186.8 8.822e+03 1.030e-10
 74.17407   -184.7 8.839e+03 1.036e-10
 74.21349   -182.6 8.884e+03 1.076e-10
 74.23736   -180.6 8.902e+03 1.116e-10
 74.25707   -180.8 8.903e+03 1.125e-10
 74.29233   -178.7 8.902e+03 1.135e-10
 74.33176   -176.5 8.870e+03 1.124e-10
 74.37118   -174.3 8.802e+03 1.067e-10
 74.41060   -172.1 8.783e+03 1.009e-10
 74.45002   -170.2 8.803e+03 9.892e-11
 74.47010   -169.1 8.850e+03 9.929e-11
 74.48982   -168.5 8.767e+03 9.733e-11
 74.52832   -167.7 8.865e+03 9.854e-11
 74.54803   -167.6 8.980e+03 9.371e-11
 74.56828   -167.3 9.750e+03 1.417e-10
 74.60771   -167.1 1.048e+04 2.799e-10
 74.64713   -166.7 1.103e+04 4.967e-10
 74.68655   -166.3 1.140e+04 7.060e-10
 74.72597   -166.2 1.153e+04 7.952e-10
 74.76539   -166.0 1.151e+04 8.016e-10
 74.80481   -165.5 1.121e+04 6.721e-10
 74.83900   -164.2 1.081e+04 5.002e-10
 74.85871   -163.1 1.102e+04 6.026e-10
 74.88366   -161.7 1.067e+04 4.423e-10
 74.92308   -160.3 1.051e+04 3.541e-10
 74.96250   -159.0 1.050e+04 3.198e-10
 75.00192   -157.7 1.050e+04 3.099e-10
 75.04134   -156.5 1.050e+04 3.063e-10
 75.08076   -155.2 1.050e+04 3.010e-10
 75.12018   -153.9 1.049e+04 2.875e-10
 75.14967   -152.6 1.046e+04 2.657e-10
 75.16938   -151.9 1.126e+04 4.110e-10
 75.19903   -150.6 1.124e+04 3.590e-10
 75.23845   -149.3 1.107e+04 2.988e-10
 75.26792   -148.3 1.050e+04 2.293e-10
 75.28753   -147.8 1.045e+04 2.231e-10
 75.30481   -147.0 1.043e+04 2.193e-10
 75.31467   -147.2 1.072e+04 2.543e-10
 75.32695   -146.3 1.067e+04 2.466e-10
 75.35662   -145.2 1.063e+04 2.349e-10
 75.37987   -143.6 1.078e+04 2.475e-10
 75.39958   -143.3 1.083e+04 2.640e-10
 75.42560   -142.2 1.104e+04 2.978e-10
 75.44522   -141.9 1.113e+04 3.234e-10
 75.46015   -141.3 1.135e+04 3.934e-10
 75.47000   -142.2 1.170e+04 4.690e-10
 75.48464   -141.5 1.180e+04 5.284e-10
 75.50435   -140.7 1.191e+04 5.895e-10
 75.52406   -139.8 1.203e+04 6.418e-10
 75.54377   -139.0 1.212e+04 6.733e-10
 75.56348   -138.2 1.215e+04 6.819e-10
 75.58319   -137.4 1.214e+04 6.819e-10
 75.60290   -136.6 1.211e+04 6.584e-10
 75.61549   -135.7 1.204e+04 6.170e-10
 75.62534   -135.9 1.229e+04 6.951e-10
 75.64232   -135.0 1.221e+04 6.649e-10
 75.66204   -134.1 1.214e+04 6.411e-10
 75.68175   -133.1 1.212e+04 6.303e-10
 75.70146   -132.2 1.212e+04 6.284e-10
 75.72117   -131.3 1.213e+04 6.289e-10
 75.74088   -130.4 1.221e+04 6.556e-10
 75.76059   -129.6 1.232e+04 7.206e-10
 75.77082   -128.7 1.243e+04 8.008e-10
 75.78068   -128.7 1.269e+04 9.109e-10
 75.80001   -127.8 1.284e+04 1.028e-09
 75.81972   -127.0 1.301e+04 1.149e-09
 75.83455   -126.3 1.319e+04 1.258e-09
 75.84441   -126.4 1.331e+04 1.290e-09
 75.85914   -125.8 1.348e+04 1.347e-09
 75.87885   -125.2 1.364e+04 1.387e-09
 75.89856   -124.8 1.376e+04 1.417e-09
 75.91630   -124.6 1.384e+04 1.441e-09
 75.92616   -125.3 1.525e+04 2.662e-09
 75.93799   -125.1 1.530e+04 2.704e-09
 75.95770   -124.8 1.516e+04 2.682e-09
 75.97741   -124.4 1.483e+04 2.489e-09
 75.99712   -123.9 1.436e+04 2.212e-09
 76.01683   -123.3 1.390e+04 1.914e-09
 76.03654   -122.7 1.347e+04 1.641e-09
 76.05625   -122.0 1.311e+04 1.410e-09
 76.07164   -121.3 1.284e+04 1.264e-09
 76.08150   -121.8 1.312e+04 1.002e-09
 76.09567   -121.1 1.279e+04 8.891e-10
 76.11538   -120.3 1.275e+04 8.516e-10
 76.13509   -119.7 1.276e+04 8.466e-10
 76.15480   -119.6 1.329e+04 9.066e-10
 76.17451   -119.8 1.388e+04 1.239e-09
 76.19423   -119.9 1.437e+04 1.923e-09
 76.21394   -119.5 1.483e+04 2.976e-09
 76.22698   -118.9 1.526e+04 4.222e-09
 76.23683   -118.7 1.513e+04 2.364e-09
 76.25336   -118.1 1.539e+04 3.267e-09
 76.27307   -117.5 1.557e+04 3.994e-09
 76.28943   -117.0 1.565e+04 4.307e-09
 76.29929   -117.9 1.567e+04 4.206e-09
 76.31249   -117.8 1.571e+04 4.148e-09
 76.33220   -117.7 1.572e+04 3.939e-09
 76.35191   -117.7 1.573e+04 3.787e-09
 76.37162   -117.5 1.570e+04 3.680e-09
 76.38232   -117.2 1.564e+04 3.622e-09
 76.39217   -115.9 1.630e+04 4.597e-09
 76.41104   -115.4 1.643e+04 4.716e-09
 76.43075   -115.0 1.661e+04 4.639e-09
 76.45046   -114.6 1.653e+04 4.347e-09
 76.47018   -114.3 1.643e+04 3.839e-09
 76.48989   -114.3 1.639e+04 3.220e-09
 76.50960   -114.7 1.635e+04 2.599e-09
 76.52780   -115.6 1.617e+04 2.073e-09
 76.53765   -113.0 2.040e+04 5.012e-09
 76.54902   -115.1 1.984e+04 3.598e-09
 76.56873   -117.6 1.825e+04 2.802e-09
 76.58844   -120.3 1.650e+04 2.567e-09
 76.60815   -122.2 1.609e+04 2.780e-09
 76.62786   -123.4 1.612e+04 3.417e-09
 76.64757   -124.2 1.634e+04 4.089e-09
 76.66728   -124.9 1.649e+04 4.483e-09
 76.68313   -125.4 1.652e+04 4.560e-09
 76.69299   -125.4 1.697e+04 5.757e-09
 76.70670   -125.8 1.699e+04 5.599e-09
 76.72642   -126.1 1.691e+04 5.057e-09
 76.74431   -126.5 1.669e+04 4.360e-09
 76.75417   -126.1 1.533e+04 2.268e-09
 76.76584   -126.5 1.545e+04 2.249e-09
 76.78555   -127.4 1.615e+04 2.452e-09
 76.80526   -128.5 1.690e+04 3.526e-09
 76.82497   -129.2 1.765e+04 5.754e-09
 76.83847   -129.5 1.835e+04 8.909e-09
 76.84833   -129.1 1.948e+04 1.423e-08
 76.86439   -129.6 2.007e+04 1.894e-08
 76.88410   -130.5 2.012e+04 2.028e-08
 76.89884   -131.1 1.918e+04 1.664e-08
 76.90864   -131.0 1.877e+04 1.517e-08
 76.91604   -130.9 1.816e+04 1.263e-08
 76.92097   -130.9 1.855e+04 1.455e-08
 76.92835   -130.7 1.801e+04 1.166e-08
 76.93821   -130.8 1.747e+04 9.186e-09
 76.94806   -130.9 1.697e+04 7.308e-09
 76.96290   -130.9 1.638e+04 5.549e-09
 76.98265   -130.9 1.544e+04 3.411e-09
 76.99381   -130.8 1.460e+04 2.158e-09
 77.00366   -130.6 1.509e+04 2.787e-09
 77.02208   -130.5 1.431e+04 1.802e-09
 77.04179   -130.3 1.388e+04 1.344e-09
 77.06150   -129.6 1.359e+04 1.092e-09
 77.08121   -128.9 1.338e+04 9.393e-10
 77.10092   -128.1 1.324e+04 8.424e-10
 77.12063   -127.3 1.315e+04 7.731e-10
 77.13929   -126.4 1.309e+04 7.154e-10
 77.14915   -126.1 1.324e+04 8.429e-10
 77.16005   -125.2 1.317e+04 7.868e-10
 77.17976   -124.2 1.313e+04 7.366e-10
 77.19919   -123.1 1.309e+04 6.986e-10
 77.20905   -123.3 1.334e+04 7.893e-10
 77.21918   -122.3 1.334e+04 7.574e-10
 77.23889   -121.2 1.335e+04 7.500e-10
 77.25861   -120.5 1.344e+04 7.550e-10
 77.27832   -120.3 1.376e+04 7.959e-10
 77.29463   -122.0 1.471e+04 9.845e-10
 77.30448   -120.1 1.430e+04 9.800e-10
 77.31774   -123.4 1.640e+04 1.974e-09
 77.33745   -126.3 1.926e+04 6.487e-09
 77.35716   -128.0 2.106e+04 1.961e-08
 77.37189   -128.9 2.208e+04 4.171e-08
 77.37713   -129.4 2.278e+04 6.365e-08
 77.38205   -128.9 2.256e+04 5.707e-08
 77.39155   -130.0 2.297e+04 7.456e-08
 77.40141   -131.6 2.306e+04 7.985e-08
 77.41127   -132.9 2.284e+04 7.687e-08
 77.42112   -133.5 2.216e+04 5.468e-08
 77.43098   -134.0 2.117e+04 3.164e-08
 77.43639   -134.9 1.990e+04 1.766e-08
 77.44132   -135.6 1.923e+04 1.418e-08
 77.44992   -136.2 1.835e+04 9.808e-09
 77.45982   -135.4 1.882e+04 1.191e-08
 77.47542   -136.0 1.718e+04 6.036e-09
 77.49513   -136.7 1.527e+04 2.630e-09
 77.51484   -138.1 1.310e+04 1.229e-09
 77.53456   -138.6 1.219e+04 8.288e-10
 77.55427   -138.5 1.182e+04 6.872e-10
 77.57398   -137.0 1.150e+04 5.644e-10
 77.59369   -135.6 1.129e+04 4.590e-10
 77.60530   -134.8 1.115e+04 3.854e-10
 77.61516   -134.3 1.128e+04 4.328e-10
 77.63311   -133.6 1.115e+04 3.743e-10
 77.65282   -133.0 1.103e+04 3.512e-10
 77.68248   -132.0 1.089e+04 3.379e-10
 77.72200   -130.3 1.060e+04 3.236e-10
 77.76142   -128.8 1.049e+04 3.216e-10
 77.80085   -127.4 1.032e+04 3.388e-10
 77.84027   -126.3 1.021e+04 3.625e-10
 77.87969   -125.4 1.016e+04 3.681e-10
 77.90631   -124.5 1.001e+04 3.641e-10
 77.92603   -124.1 1.009e+04 4.067e-10
 77.95853   -123.2 9.864e+03 3.697e-10
 77.99795   -122.3 9.622e+03 3.168e-10
 78.03737   -121.5 9.389e+03 2.662e-10
 78.07680   -120.8 9.193e+03 2.295e-10
 78.10915   -120.2 9.042e+03 2.085e-10
 78.12886   -120.9 9.223e+03 2.532e-10
 78.15564   -120.4 9.128e+03 2.436e-10
 78.19506   -119.8 9.094e+03 2.404e-10
 78.21699   -119.2 9.064e+03 2.388e-10
 78.23670   -118.9 9.018e+03 2.415e-10
 78.27390   -118.2 8.977e+03 2.366e-10
 78.31333   -117.6 8.934e+03 2.301e-10
 78.35275   -117.1 8.882e+03 2.235e-10
 78.39217   -116.6 8.860e+03 2.194e-10
 78.43159   -116.3 8.861e+03 2.180e-10
 78.47101   -116.2 8.972e+03 2.363e-10
 78.50795   -116.3 9.338e+03 3.077e-10
 78.52766   -117.0 9.626e+03 3.958e-10
 78.54985   -117.0 1.012e+04 5.697e-10
 78.57379   -116.5 1.030e+04 6.599e-10
 78.58354   -116.9 1.030e+04 6.635e-10
 78.59894   -117.4 1.045e+04 7.825e-10
 78.61865   -117.6 1.054e+04 8.676e-10
 78.63836   -117.6 1.057e+04 8.860e-10
 78.65807   -117.6 1.062e+04 8.969e-10
 78.67295   -117.6 1.065e+04 8.981e-10
 78.68280   -118.2 1.047e+04 8.171e-10
 78.69749   -118.5 1.036e+04 7.498e-10
 78.71720   -118.9 1.020e+04 6.723e-10
 78.73691   -119.2 1.001e+04 6.088e-10
 78.75662   -119.1 9.927e+03 5.863e-10
 78.78629   -118.8 9.923e+03 5.806e-10
 78.81863   -118.0 9.566e+03 4.516e-10
 78.83834   -118.6 8.918e+03 2.674e-10
 78.86523   -118.2 8.520e+03 1.888e-10
 78.90465   -117.9 8.201e+03 1.447e-10
 78.94407   -117.6 8.109e+03 1.342e-10
 78.98349   -117.6 8.169e+03 1.361e-10
 79.01891   -117.9 8.716e+03 1.921e-10
 79.03862   -117.4 8.605e+03 1.760e-10
 79.06233   -117.6 9.285e+03 3.099e-10
 79.10175   -117.7 9.959e+03 5.379e-10
 79.12930   -117.9 1.050e+04 7.890e-10
 79.14901   -118.0 1.042e+04 7.706e-10
 79.18060   -118.6 1.064e+04 8.708e-10
 79.22002   -119.3 1.071e+04 8.927e-10
 79.25944   -119.9 1.073e+04 8.950e-10
 79.29886   -120.6 1.082e+04 9.241e-10
 79.33828   -121.4 1.103e+04 1.008e-09
 79.37771   -122.3 1.128e+04 1.101e-09
 79.41713   -123.5 1.144e+04 1.158e-09
 79.43997   -125.0 1.147e+04 1.163e-09
 79.45968   -125.4 1.148e+04 1.170e-09
 79.49597   -127.1 1.154e+04 1.207e-09
 79.53539   -128.5 1.164e+04 1.271e-09
 79.57481   -129.7 1.169e+04 1.300e-09
 79.61423   -130.6 1.166e+04 1.267e-09
 79.65366   -131.1 1.138e+04 1.021e-09
 79.69308   -131.3 1.084e+04 6.999e-10
 79.73094   -131.5 1.028e+04 4.455e-10
 79.75065   -132.1 9.692e+03 2.878e-10
 79.77192   -132.3 9.278e+03 1.811e-10
 79.81134   -132.4 9.070e+03 1.375e-10
 79.85076   -132.1 9.006e+03 1.277e-10
 79.89018   -131.7 9.012e+03 1.273e-10
 79.92867   -131.4 9.215e+03 1.470e-10
 79.94838   -131.7 9.222e+03 1.506e-10
 79.96903   -131.3 9.536e+03 2.157e-10
 80.00845   -130.7 9.824e+03 3.040e-10
 80.04161   -130.2 1.005e+04 3.866e-10
 80.06132   -130.0 9.557e+03 2.183e-10
 80.08729   -129.3 9.651e+03 2.540e-10
 80.12671   -128.5 9.654e+03 2.697e-10
 80.16613   -127.4 9.621e+03 2.701e-10
 80.20556   -126.0 9.489e+03 2.453e-10
 80.24498   -124.4 9.364e+03 2.091e-10
 80.28440   -122.7 9.282e+03 1.784e-10
 80.32382   -120.8 9.280e+03 1.614e-10
 80.35228   -119.0 9.318e+03 1.556e-10
 80.37200   -118.4 9.220e+03 1.531e-10
 80.40266   -116.5 9.267e+03 1.553e-10
 80.44209   -114.6 9.331e+03 1.609e-10
 80.48151   -112.7 9.419e+03 1.699e-10
 80.52093   -110.7 9.499e+03 1.775e-10
 80.56035   -108.8 9.575e+03 1.814e-10
 80.59977   -107.0 9.665e+03 1.790e-10
 80.63919   -105.1 9.723e+03 1.715e-10
 80.66296   -103.4 9.783e+03 1.627e-10
 80.68267   -102.8 9.729e+03 1.758e-10
 80.71804   -101.1 9.778e+03 1.639e-10
 80.75746    -99.6 9.833e+03 1.538e-10
 80.79688    -98.1 9.874e+03 1.507e-10
 80.83630    -96.7 9.947e+03 1.541e-10
 80.85814    -95.3 1.001e+04 1.603e-10
 80.87785    -95.3 9.954e+03 1.475e-10
 80.91514    -93.9 1.002e+04 1.527e-10
 80.95392    -92.6 1.003e+04 1.535e-10
 80.97363    -92.1 9.960e+03 1.322e-10
 80.99399    -90.8 9.975e+03 1.312e-10
 81.03341    -89.5 1.000e+04 1.194e-10
 81.07283    -88.1 1.002e+04 1.013e-10
 81.11225    -86.6 1.003e+04 8.221e-11
 81.15167    -85.1 1.001e+04 6.619e-11
 81.19109    -83.5 9.967e+03 5.719e-11
 81.23051    -81.7 9.923e+03 5.398e-11
 81.26460    -79.7 9.911e+03 5.352e-11
 81.28431    -79.3 9.966e+03 4.814e-11
 81.30936    -77.3 9.972e+03 4.806e-11
 81.34878    -75.6 1.008e+04 4.848e-11
 81.38820    -74.2 1.024e+04 5.835e-11
 81.42762    -72.9 1.023e+04 8.926e-11
 81.46704    -71.5 1.028e+04 1.502e-10
 81.50647    -70.0 1.043e+04 2.429e-10
 81.54589    -68.6 1.060e+04 3.466e-10
 81.57527    -67.5 1.075e+04 4.268e-10
 81.59498    -66.7 1.078e+04 4.032e-10
 81.62473    -65.7 1.088e+04 4.733e-10
 81.66415    -64.8 1.086e+04 5.000e-10
 81.70357    -63.7 1.062e+04 4.798e-10
 81.74299    -62.5 1.032e+04 3.868e-10
 81.76790    -61.1 1.004e+04 2.837e-10
 81.78761    -60.0 1.001e+04 2.718e-10
 81.82184    -58.6 9.840e+03 2.031e-10
 81.86126    -57.2 9.685e+03 1.613e-10
 81.88594    -55.8 9.614e+03 1.459e-10
 81.90565    -55.6 9.628e+03 1.631e-10
 81.94010    -54.3 9.584e+03 1.566e-10
 81.97952    -53.0 9.578e+03 1.611e-10
 82.01894    -51.8 9.565e+03 1.752e-10
 82.05837    -50.8 9.556e+03 1.800e-10
 82.09779    -49.9 9.499e+03 1.756e-10
 82.13721    -49.2 9.441e+03 1.679e-10
 82.17663    -48.6 9.423e+03 1.656e-10
 82.19662    -48.2 9.409e+03 1.795e-10
 82.21633    -47.2 9.406e+03 1.649e-10
 82.25547    -46.7 9.494e+03 2.211e-10
 82.29489    -46.0 9.617e+03 2.898e-10
 82.33432    -45.1 9.732e+03 3.301e-10
 82.37374    -44.4 9.744e+03 3.364e-10
 82.41316    -43.7 9.484e+03 2.913e-10
 82.45258    -42.9 9.186e+03 2.330e-10
 82.48758    -42.0 8.959e+03 1.981e-10
 82.50729    -41.2 9.173e+03 2.478e-10
 82.53142    -40.0 8.971e+03 2.156e-10
 82.57085    -38.5 8.905e+03 2.071e-10
 82.61027    -36.9 8.907e+03 2.138e-10
 82.64969    -35.3 9.013e+03 2.436e-10
 82.67766    -33.6 9.139e+03 2.819e-10
 82.69737    -33.1 9.011e+03 2.680e-10
 82.72853    -31.5 9.046e+03 2.801e-10
 82.76795    -29.8 9.021e+03 2.759e-10
 82.79826    -28.2 8.940e+03 2.522e-10
 82.81797    -27.3 9.176e+03 3.135e-10
 82.84680    -25.7 9.062e+03 2.799e-10
 82.88622    -24.2 8.890e+03 2.400e-10
 82.92564    -22.7 8.737e+03 2.110e-10
 82.96506    -21.1 8.635e+03 1.956e-10
 83.00448    -19.4 8.593e+03 1.893e-10
 83.04390    -18.3 8.657e+03 1.918e-10
 83.08332    -18.6 9.189e+03 2.274e-10
 83.10893    -22.1 1.136e+04 7.219e-10
 83.12864    -21.9 1.168e+04 6.924e-10
 83.15221    -23.5 1.279e+04 1.916e-09
 83.17183    -23.7 1.368e+04 3.535e-09
 83.19154    -23.0 1.412e+04 4.559e-09
 83.21125    -22.4 1.419e+04 4.624e-09
 83.23096    -21.9 1.381e+04 2.962e-09
 83.25067    -23.6 1.269e+04 1.264e-09
 83.26407    -28.5 1.093e+04 5.966e-10
 83.27393    -29.1 1.077e+04 5.612e-10
 83.29009    -31.1 9.938e+03 4.392e-10
 83.30980    -31.6 9.830e+03 4.247e-10
 83.32951    -31.9 9.905e+03 4.516e-10
 83.34922    -32.2 1.009e+04 5.399e-10
 83.36893    -32.2 1.027e+04 6.431e-10
 83.38865    -32.2 1.040e+04 7.366e-10
 83.40836    -31.9 1.049e+04 8.002e-10
 83.41941    -31.7 1.053e+04 8.251e-10
 83.42926    -31.7 1.056e+04 8.245e-10
 83.44778    -31.5 1.055e+04 8.278e-10
 83.46749    -31.3 1.049e+04 7.945e-10
 83.48720    -31.2 1.040e+04 7.338e-10
 83.50691    -31.1 1.028e+04 6.635e-10
 83.52662    -31.2 1.015e+04 6.063e-10
 83.54633    -31.4 1.004e+04 5.751e-10
 83.56489    -31.4 9.988e+03 5.666e-10
 83.57474    -31.3 9.958e+03 5.240e-10
 83.58575    -31.3 9.942e+03 5.382e-10
 83.59708    -31.0 9.958e+03 5.832e-10
 83.60694    -30.6 9.950e+03 5.954e-10
 83.62517    -30.2 1.000e+04 6.247e-10
 83.64489    -30.0 1.006e+04 6.495e-10
 83.66460    -30.5 1.047e+04 7.090e-10
 83.68431    -35.2 1.312e+04 1.168e-09
 83.70402    -40.3 1.514e+04 2.780e-09
 83.72023    -42.4 1.589e+04 5.804e-09
 83.73008    -42.6 1.617e+04 7.212e-09
 83.74344    -42.9 1.653e+04 9.478e-09
 83.76315    -43.0 1.655e+04 9.837e-09
 83.78286    -43.0 1.602e+04 7.484e-09
 83.80257    -43.6 1.533e+04 4.550e-09
 83.82228    -47.4 1.418e+04 2.554e-09
 83.84199    -52.2 1.258e+04 1.707e-09
 83.86170    -54.4 1.205e+04 1.554e-09
 83.87556    -55.1 1.196e+04 1.608e-09
 83.88542    -55.0 1.246e+04 2.036e-09
 83.90113    -55.2 1.267e+04 2.263e-09
 83.92084    -55.5 1.274e+04 2.379e-09
 83.94055    -55.7 1.272e+04 2.401e-09
 83.96026    -55.8 1.264e+04 2.399e-09
 83.97997    -55.8 1.251e+04 2.323e-09
 83.99968    -55.8 1.247e+04 2.160e-09
 84.01939    -56.1 1.252e+04 2.056e-09
 84.03090    -57.3 1.265e+04 2.036e-09
 84.04076    -57.7 1.300e+04 2.320e-09
 84.05196    -59.4 1.346e+04 2.471e-09
 84.06182    -59.8 1.340e+04 2.364e-09
 84.07852    -61.8 1.413e+04 2.989e-09
 84.09823    -63.0 1.484e+04 4.102e-09
 84.11794    -63.7 1.543e+04 5.189e-09
 84.13765    -64.4 1.567e+04 5.616e-09
 84.15736    -65.3 1.560e+04 5.536e-09
 84.17638    -65.6 1.489e+04 4.219e-09
 84.18624    -65.2 1.478e+04 4.067e-09
 84.19679    -65.5 1.381e+04 2.705e-09
 84.21650    -66.1 1.282e+04 1.797e-09
 84.23621    -66.8 1.199e+04 1.292e-09
 84.25592    -67.0 1.139e+04 1.021e-09
 84.27563    -66.9 1.103e+04 8.777e-10
 84.29534    -66.4 1.087e+04 7.984e-10
 84.31505    -65.8 1.084e+04 7.736e-10
 84.33182    -65.2 1.090e+04 7.734e-10
 84.34167    -64.8 1.091e+04 7.766e-10
 84.35447    -64.4 1.092e+04 7.800e-10
 84.38414    -63.6 1.115e+04 8.527e-10
 84.42365    -62.8 1.143e+04 9.949e-10
 84.46308    -62.6 1.173e+04 1.171e-09
 84.49718    -62.7 1.197e+04 1.283e-09
 84.51689    -63.3 1.174e+04 1.166e-09
 84.54192    -63.9 1.178e+04 1.175e-09
 84.58134    -64.2 1.167e+04 9.959e-10
 84.61081    -64.5 1.145e+04 8.239e-10
 84.63042    -65.0 1.125e+04 7.000e-10
 84.64239    -65.7 1.096e+04 5.519e-10
 84.65225    -65.6 1.125e+04 6.804e-10
 84.66984    -66.4 1.090e+04 5.231e-10
 84.68955    -67.3 1.062e+04 4.187e-10
 84.70927    -68.1 1.048e+04 3.583e-10
 84.72898    -68.7 1.043e+04 3.300e-10
 84.74869    -69.1 1.041e+04 3.232e-10
 84.77835    -69.7 1.045e+04 3.299e-10
 84.81787    -70.5 1.056e+04 3.449e-10
 84.85729    -71.2 1.064e+04 3.561e-10
 84.89671    -71.9 1.065e+04 3.521e-10
 84.93355    -72.2 1.051e+04 3.375e-10
 84.95326    -71.4 1.046e+04 3.234e-10
 84.97556    -71.3 1.028e+04 3.052e-10
 85.01498    -70.8 1.023e+04 3.053e-10
 85.05440    -70.2 1.021e+04 3.218e-10
 85.09382    -69.6 1.022e+04 3.348e-10
 85.13324    -68.9 1.017e+04 3.331e-10
 85.17266    -67.9 9.932e+03 2.884e-10
 85.21208    -66.6 9.658e+03 2.260e-10
 85.24423    -65.3 9.388e+03 1.705e-10
 85.26394    -64.7 9.491e+03 1.880e-10
 85.29093    -63.3 9.327e+03 1.571e-10
 85.33035    -61.9 9.210e+03 1.346e-10
 85.36977    -60.4 9.118e+03 1.170e-10
 85.40694    -58.9 9.042e+03 1.024e-10
 85.42666    -59.0 9.004e+03 9.976e-11
 85.44861    -57.6 8.944e+03 8.875e-11
 85.48804    -56.2 8.928e+03 8.266e-11
 85.52746    -54.8 8.937e+03 8.102e-11
 85.55490    -53.6 8.955e+03 8.137e-11
 85.57461    -53.2 9.057e+03 8.905e-11
 85.60630    -52.2 9.180e+03 9.811e-11
 85.64572    -51.4 9.224e+03 1.193e-10
 85.68514    -50.5 9.309e+03 1.453e-10
 85.72456    -49.7 9.444e+03 1.732e-10
 85.76399    -49.0 9.581e+03 1.990e-10
 85.80341    -48.7 9.713e+03 2.165e-10
 85.84283    -48.7 9.815e+03 2.284e-10
 85.86557    -48.8 9.930e+03 2.423e-10
 85.88528    -48.8 1.005e+04 2.685e-10
 85.92167    -49.2 1.012e+04 2.714e-10
 85.96109    -50.0 1.022e+04 2.635e-10
 86.00051    -51.1 1.029e+04 2.341e-10
 86.03994    -52.7 1.029e+04 1.978e-10
 86.07936    -54.3 1.024e+04 1.869e-10
 86.11878    -55.7 1.022e+04 1.841e-10
 86.15654    -56.7 1.016e+04 1.791e-10
 86.17625    -56.5 1.015e+04 1.805e-10
 86.19762    -57.1 1.001e+04 1.614e-10
 86.23704    -57.7 9.906e+03 1.388e-10
 86.27646    -58.3 9.890e+03 1.328e-10
 86.31589    -58.8 9.913e+03 1.430e-10
 86.33642    -59.2 9.942e+03 1.801e-10
 86.35613    -60.1 9.915e+03 2.009e-10
 86.39473    -60.2 9.916e+03 2.267e-10
 86.43415    -60.3 9.900e+03 2.307e-10
 86.46721    -60.4 9.797e+03 2.160e-10
 86.48692    -60.3 9.749e+03 2.011e-10
 86.51299    -60.4 9.751e+03 1.941e-10
 86.55242    -60.4 9.782e+03 1.995e-10
 86.59184    -60.3 9.839e+03 2.166e-10
 86.63126    -60.2 9.884e+03 2.338e-10
 86.67068    -59.9 9.886e+03 2.391e-10
 86.71010    -59.3 9.805e+03 2.186e-10
 86.74952    -58.5 9.698e+03 1.807e-10
 86.77788    -57.5 9.615e+03 1.466e-10
 86.79760    -57.5 9.570e+03 1.336e-10
 86.82837    -56.5 9.549e+03 1.233e-10
 86.86779    -55.3 9.555e+03 1.217e-10
 86.90721    -54.1 9.606e+03 1.233e-10
 86.94663    -53.1 9.715e+03 1.416e-10
 86.98605    -51.9 9.816e+03 1.752e-10
 87.02547    -50.6 9.940e+03 2.131e-10
 87.06489    -49.3 1.009e+04 2.408e-10
 87.08856    -48.0 1.017e+04 2.488e-10
 87.10827    -47.7 1.019e+04 2.523e-10
 87.14374    -46.5 1.022e+04 2.526e-10
 87.18316    -45.2 1.026e+04 2.390e-10
 87.22258    -43.7 1.026e+04 2.238e-10
 87.24618    -42.0 1.026e+04 2.198e-10
 87.26589    -42.3 1.027e+04 2.563e-10
 87.30142    -40.9 1.036e+04 2.608e-10
 87.34084    -40.5 1.100e+04 3.516e-10
 87.37952    -40.2 1.181e+04 7.082e-10
 87.39923    -40.2 1.184e+04 6.973e-10
 87.41969    -39.6 1.267e+04 1.381e-09
 87.45911    -39.2 1.336e+04 2.002e-09
 87.49853    -39.5 1.351e+04 2.102e-09
 87.53795    -39.7 1.299e+04 1.440e-09
 87.57737    -39.3 1.187e+04 6.191e-10
 87.61680    -38.9 1.110e+04 2.912e-10
 87.65622    -37.9 1.088e+04 2.205e-10
 87.69020    -36.2 1.083e+04 2.107e-10
 87.70991    -36.6 1.104e+04 2.482e-10
 87.73506    -35.1 1.106e+04 2.467e-10
 87.77448    -33.9 1.130e+04 2.757e-10
 87.81390    -33.0 1.153e+04 3.555e-10
 87.85332    -32.3 1.189e+04 4.989e-10
 87.89275    -31.7 1.233e+04 7.238e-10
 87.93217    -31.3 1.279e+04 1.019e-09
 87.97159    -30.7 1.319e+04 1.322e-09
 88.00087    -30.0 1.346e+04 1.557e-09
 88.02058    -29.8 1.291e+04 1.098e-09
 88.05043    -29.0 1.315e+04 1.293e-09
 88.08985    -28.4 1.328e+04 1.406e-09
 88.12927    -27.8 1.339e+04 1.492e-09
 88.15594    -27.5 1.360e+04 1.658e-09
 88.17565    -28.4 1.345e+04 1.532e-09
 88.20812    -28.0 1.349e+04 1.572e-09
 88.24754    -27.6 1.341e+04 1.489e-09
 88.28696    -27.3 1.312e+04 1.210e-09
 88.31154    -27.2 1.273e+04 8.570e-10
 88.33125    -26.8 1.263e+04 8.113e-10
 88.36580    -27.1 1.230e+04 5.879e-10
 88.40522    -27.8 1.216e+04 4.948e-10
 88.44465    -29.1 1.238e+04 5.136e-10
 88.48407    -31.4 1.337e+04 1.087e-09
 88.51354    -32.6 1.394e+04 2.252e-09
 88.53315    -32.9 1.422e+04 2.845e-09
 88.55286    -33.1 1.441e+04 3.256e-09
 88.57257    -33.3 1.430e+04 2.854e-09
 88.59228    -33.6 1.382e+04 1.897e-09
 88.61062    -34.8 1.295e+04 1.113e-09
 88.62048    -34.5 1.322e+04 1.279e-09
 88.62212    -35.6 1.241e+04 8.396e-10
 88.64193    -35.8 1.167e+04 5.645e-10
 88.68118    -35.9 1.091e+04 3.353e-10
 88.72060    -34.7 1.053e+04 2.423e-10
 88.76002    -33.2 1.036e+04 1.988e-10
 88.79944    -31.8 1.025e+04 1.721e-10
 88.83886    -30.1 1.015e+04 1.512e-10
 88.87828    -28.4 1.010e+04 1.335e-10
 88.91318    -26.8 1.008e+04 1.199e-10
 88.93289    -26.3 9.989e+03 1.028e-10
 88.95713    -24.7 9.994e+03 9.971e-11
 88.99655    -23.3 1.004e+04 1.001e-10
 89.03597    -22.1 1.013e+04 1.160e-10
 89.06570    -20.9 1.020e+04 1.499e-10
 89.08541    -20.2 1.025e+04 1.601e-10
 89.11481    -19.0 1.040e+04 2.226e-10
 89.15423    -18.1 1.065e+04 2.888e-10
 89.19365    -17.5 1.094e+04 3.310e-10
 89.22385    -17.2 1.103e+04 3.421e-10
 89.24357    -16.3 1.104e+04 3.847e-10
 89.27250    -16.4 1.106e+04 3.928e-10
 89.31192    -16.4 1.087e+04 3.512e-10
 89.35134    -16.3 1.059e+04 2.794e-10
 89.39076    -15.9 1.035e+04 2.096e-10
 89.43018    -15.3 1.017e+04 1.589e-10
 89.46960    -14.4 1.004e+04 1.288e-10
 89.50903    -13.2 9.978e+03 1.121e-10
 89.53453    -12.0 1.003e+04 1.031e-10
 89.55424    -11.3 9.950e+03 1.079e-10
 89.58787     -9.8 1.000e+04 1.033e-10
 89.62729     -8.7 1.017e+04 1.068e-10
 89.66671     -7.9 1.035e+04 1.350e-10
 89.70613     -6.9 1.042e+04 1.902e-10
 89.74556     -5.8 1.053e+04 2.471e-10
 89.78498     -4.6 1.062e+04 2.748e-10
 89.82440     -3.4 1.063e+04 2.790e-10
 89.84520     -2.0 1.057e+04 2.261e-10
 89.86491     -1.1 1.063e+04 2.655e-10
 89.90324      0.1 1.058e+04 1.758e-10
 89.94266      1.2 1.053e+04 1.188e-10
 89.97546      2.2 1.041e+04 9.146e-11
 89.99517      3.2 1.049e+04 1.021e-10
 90.02151      4.3 1.036e+04 8.703e-11
 90.06093      5.7 1.030e+04 8.248e-11
 90.10035      7.1 1.028e+04 8.175e-11
 90.13617      8.4 1.024e+04 8.471e-11
 90.15588      9.2 1.033e+04 8.989e-11
 90.17919     10.7 1.031e+04 9.591e-11
 90.21861     12.2 1.031e+04 1.004e-10
 90.25803     13.6 1.031e+04 1.016e-10
 90.29746     14.9 1.030e+04 9.882e-11
 90.33688     16.3 1.028e+04 9.451e-11
 90.37630     17.6 1.025e+04 9.047e-11
 90.41572     19.0 1.023e+04 8.677e-11
 90.44684     20.5 1.022e+04 8.317e-11
 90.46655     21.2 1.029e+04 9.060e-11
 90.49456     22.7 1.029e+04 8.578e-11
 90.53398     24.0 1.028e+04 8.277e-11
 90.57341     25.5 1.026e+04 8.164e-11
 90.61283     26.9 1.026e+04 8.196e-11
 90.65225     28.4 1.028e+04 8.079e-11
 90.69167     29.7 1.030e+04 7.561e-11
 90.73109     30.9 1.032e+04 6.912e-11
 90.75751     31.8 1.028e+04 6.787e-11
 90.77722     32.4 1.030e+04 6.869e-11
 90.80994     33.4 1.024e+04 7.308e-11
 90.84936     34.4 1.024e+04 8.087e-11
 90.88522     35.2 1.031e+04 9.058e-11
 90.90493     35.4 1.026e+04 9.699e-11
 90.92820     36.5 1.022e+04 1.143e-10
 90.96762     37.6 1.037e+04 1.187e-10
 91.00704     38.0 1.049e+04 1.178e-10
 91.04646     38.6 1.034e+04 1.319e-10
 91.06819     39.7 1.027e+04 1.329e-10
 91.08790     40.7 1.027e+04 1.288e-10
 91.12531     42.0 1.032e+04 1.245e-10
 91.16473     42.9 1.040e+04 1.153e-10
 91.20415     43.4 1.047e+04 1.227e-10
 91.24357     43.9 1.047e+04 1.574e-10
 91.28299     45.2 1.039e+04 2.170e-10
 91.32241     46.5 1.050e+04 2.521e-10
 91.35915     47.3 1.070e+04 2.514e-10
 91.37886     48.3 1.076e+04 2.717e-10
 91.40126     48.5 1.083e+04 2.628e-10
 91.44068     49.1 1.068e+04 2.503e-10
 91.48010     50.1 1.053e+04 2.162e-10
 91.51952     50.8 1.060e+04 1.859e-10
 91.55894     51.7 1.051e+04 1.786e-10
 91.59836     52.9 1.046e+04 1.728e-10
 91.63779     54.4 1.045e+04 1.622e-10
 91.66982     55.8 1.049e+04 1.492e-10
 91.68954     56.5 1.050e+04 1.466e-10
 91.71663     58.0 1.050e+04 1.377e-10
 91.75605     59.5 1.049e+04 1.309e-10
 91.79498     61.3 1.046e+04 1.248e-10
 91.81469     61.6 1.044e+04 1.267e-10
 91.83489     63.5 1.043e+04 1.174e-10
 91.87432     65.2 1.044e+04 1.087e-10
 91.91374     66.9 1.048e+04 1.040e-10
 91.95316     68.5 1.051e+04 1.056e-10
 91.98050     70.1 1.057e+04 1.131e-10
 92.00021     70.7 1.059e+04 1.176e-10
 92.03200     72.3 1.061e+04 1.363e-10
 92.07142     74.1 1.065e+04 1.514e-10
 92.11084     75.8 1.068e+04 1.565e-10
 92.15027     77.4 1.072e+04 1.586e-10
 92.18969     78.7 1.077e+04 1.646e-10
 92.22911     80.0 1.080e+04 1.866e-10
 92.26853     81.3 1.082e+04 2.238e-10
 92.29117     82.7 1.086e+04 2.488e-10
 92.31088     82.8 1.081e+04 2.441e-10
 92.34737     84.0 1.081e+04 2.402e-10
 92.38679     85.1 1.079e+04 2.226e-10
 92.42622     86.0 1.079e+04 2.063e-10
 92.46564     86.9 1.081e+04 2.033e-10
 92.50506     87.7 1.082e+04 2.044e-10
 92.54448     88.6 1.083e+04 2.034e-10
 92.58214     89.5 1.088e+04 1.941e-10
 92.60185     89.6 1.088e+04 1.928e-10
 92.62332     90.5 1.087e+04 1.891e-10
 92.66274     91.4 1.092e+04 2.008e-10
 92.70217     91.9 1.112e+04 2.532e-10
 92.72445     92.3 1.144e+04 3.784e-10
 92.74416     92.8 1.132e+04 3.110e-10
 92.78101     93.3 1.161e+04 4.488e-10
 92.82043     93.9 1.181e+04 5.098e-10
 92.85985     94.1 1.183e+04 5.031e-10
 92.89281     94.1 1.185e+04 4.879e-10
 92.91252     94.6 1.213e+04 6.093e-10
 92.93870     94.5 1.214e+04 6.085e-10
 92.96816     94.0 1.212e+04 6.039e-10
 92.98778     93.9 1.211e+04 6.066e-10
 93.01744     94.1 1.215e+04 6.478e-10
 93.05696     94.4 1.213e+04 6.267e-10
 93.09638     95.1 1.197e+04 5.295e-10
 93.13580     95.9 1.170e+04 4.030e-10
 93.17522     96.6 1.146e+04 2.988e-10
 93.20348     97.3 1.128e+04 2.396e-10
 93.22319     96.8 1.152e+04 3.191e-10
 93.25407     97.4 1.128e+04 2.727e-10
 93.29349     98.0 1.119e+04 2.642e-10
 93.33291     98.6 1.119e+04 2.762e-10
 93.37233     99.3 1.119e+04 3.072e-10
 93.41175    100.0 1.120e+04 3.616e-10
 93.45117    100.3 1.125e+04 4.454e-10
 93.49060    100.2 1.145e+04 5.615e-10
 93.51416     99.9 1.166e+04 6.661e-10
 93.53387     99.3 1.173e+04 7.024e-10
 93.56944     98.8 1.180e+04 7.038e-10
 93.60886     99.0 1.162e+04 6.289e-10
 93.63421     98.9 1.131e+04 4.740e-10
 93.65392     99.1 1.131e+04 4.796e-10
 93.68770     99.3 1.104e+04 3.285e-10
 93.72712     99.4 1.086e+04 2.318e-10
 93.76655     99.9 1.076e+04 2.034e-10
 93.80512    100.8 1.077e+04 2.070e-10
 93.82483    100.3 1.093e+04 2.608e-10
 93.84539    101.5 1.105e+04 2.923e-10
 93.88481    102.8 1.115e+04 3.364e-10
 93.92423    104.2 1.119e+04 3.952e-10
 93.96365    105.3 1.137e+04 5.339e-10
 94.00308    106.4 1.174e+04 7.775e-10
 94.04250    107.3 1.213e+04 1.051e-09
 94.08192    107.8 1.232e+04 1.128e-09
 94.11579    108.2 1.227e+04 1.071e-09
 94.13551    107.3 1.242e+04 1.189e-09
 94.16076    108.1 1.209e+04 9.114e-10
 94.20018    108.9 1.172e+04 6.400e-10
 94.23960    109.5 1.143e+04 4.698e-10
 94.27903    110.3 1.127e+04 4.270e-10
 94.31845    111.3 1.126e+04 4.266e-10
 94.35787    112.3 1.128e+04 4.275e-10
 94.39729    113.4 1.127e+04 4.214e-10
 94.42647    114.4 1.122e+04 3.889e-10
 94.44618    113.4 1.137e+04 4.239e-10
 94.47613    114.1 1.131e+04 3.609e-10
 94.51555    114.7 1.134e+04 3.466e-10
 94.54397    114.8 1.149e+04 3.673e-10
 94.56368    114.2 1.157e+04 3.660e-10
 94.59440    113.8 1.181e+04 4.428e-10
 94.63382    113.7 1.199e+04 5.857e-10
 94.67324    113.8 1.221e+04 7.638e-10
 94.71266    113.6 1.237e+04 8.190e-10
 94.73714    113.4 1.234e+04 7.714e-10
 94.75685    111.4 1.217e+04 6.570e-10
 94.79151    111.7 1.195e+04 4.774e-10
 94.83093    112.2 1.171e+04 3.259e-10
 94.87035    112.9 1.156e+04 2.319e-10
 94.90977    113.8 1.143e+04 1.881e-10
 94.94919    115.0 1.118e+04 1.827e-10
 94.98861    116.5 1.116e+04 1.813e-10
 95.02803    118.1 1.115e+04 1.830e-10
 95.06746    119.0 1.115e+04 1.931e-10
 95.10688    120.5 1.122e+04 2.201e-10
 95.14630    121.8 1.131e+04 2.541e-10
 95.18572    123.1 1.148e+04 2.900e-10
 95.22514    124.4 1.156e+04 3.103e-10
 95.26456    125.5 1.155e+04 3.089e-10
 95.30398    126.7 1.155e+04 2.959e-10
 95.33878    128.0 1.154e+04 2.789e-10
 95.35849    127.2 1.146e+04 2.632e-10
 95.38283    128.5 1.140e+04 2.455e-10
 95.42225    129.8 1.129e+04 2.333e-10
 95.45373    131.4 1.127e+04 2.159e-10
 95.47345    131.4 1.104e+04 1.689e-10
 95.50109    133.2 1.099e+04 1.592e-10
 95.54051    135.2 1.097e+04 1.459e-10
 95.57993    137.3 1.095e+04 1.391e-10
 95.61936    139.5 1.097e+04 1.409e-10
 95.64945    141.6 1.103e+04 1.531e-10
 95.66916    141.1 1.108e+04 2.065e-10
 95.69820    143.1 1.122e+04 2.600e-10
 95.73762    145.2 1.142e+04 3.451e-10
 95.77704    147.2 1.166e+04 4.539e-10
 95.81646    149.2 1.188e+04 5.510e-10
 95.85589    151.0 1.207e+04 6.146e-10
 95.89531    152.6 1.217e+04 6.267e-10
 95.93473    154.4 1.215e+04 6.111e-10
 95.96013    156.2 1.210e+04 5.757e-10
 95.97984    155.7 1.201e+04 5.264e-10
 96.01357    157.7 1.200e+04 5.150e-10
 96.05299    159.9 1.200e+04 5.108e-10
 96.09241    162.1 1.203e+04 5.171e-10
 96.13184    164.3 1.214e+04 5.425e-10
 96.17126    166.5 1.230e+04 5.877e-10
 96.21068    168.6 1.247e+04 6.303e-10
 96.25010    171.0 1.256e+04 6.568e-10
 96.27070    171.7 1.253e+04 6.367e-10
 96.29041    172.1 1.240e+04 5.429e-10
 96.31899    173.0 1.239e+04 6.033e-10
 96.33860    174.0 1.239e+04 6.680e-10
 96.35831    175.0 1.243e+04 7.334e-10
 96.37316    175.9 1.251e+04 8.012e-10
 96.38301    176.0 1.249e+04 8.466e-10
 96.39774    176.9 1.260e+04 9.357e-10
 96.41609    177.8 1.274e+04 1.023e-09
 96.42594    177.4 1.257e+04 8.507e-10
 96.43716    178.2 1.267e+04 8.908e-10
 96.45687    179.0 1.276e+04 9.186e-10
 96.47658    179.6 1.286e+04 9.379e-10
 96.49629    179.9 1.298e+04 9.790e-10
 96.51600    179.8 1.319e+04 1.066e-09
 96.53571    179.5 1.344e+04 1.256e-09
 96.55542    179.0 1.375e+04 1.503e-09
 96.57143    178.4 1.414e+04 1.888e-09
 96.58128    177.3 1.468e+04 2.653e-09
 96.59484    177.1 1.505e+04 3.495e-09
 96.61455    176.9 1.528e+04 4.181e-09
 96.63426    176.9 1.539e+04 4.553e-09
 96.65397    176.7 1.536e+04 4.485e-09
 96.67369    176.5 1.530e+04 4.241e-09
 96.69340    175.9 1.507e+04 3.770e-09
 96.71311    175.1 1.480e+04 3.389e-09
 96.72676    174.3 1.453e+04 3.107e-09
 96.73662    173.6 1.452e+04 3.232e-09
 96.75253    173.2 1.449e+04 3.279e-09
 96.77224    172.9 1.448e+04 3.315e-09
 96.79195    172.7 1.445e+04 3.279e-09
 96.81166    172.5 1.440e+04 3.157e-09
 96.82804    172.4 1.432e+04 2.984e-09
 96.83789    172.6 1.407e+04 2.700e-09
 96.85108    172.4 1.401e+04 2.561e-09
 96.87079    172.2 1.394e+04 2.438e-09
 96.88210    172.1 1.385e+04 2.306e-09
 96.89195    171.7 1.412e+04 2.445e-09
 96.91021    171.5 1.388e+04 2.181e-09
 96.92993    171.4 1.364e+04 1.991e-09
 96.94964    171.4 1.352e+04 1.871e-09
 96.96935    171.3 1.353e+04 1.824e-09
 96.98906    171.3 1.357e+04 1.850e-09
 97.00877    171.1 1.372e+04 1.937e-09
 97.02758    170.7 1.388e+04 2.012e-09
 97.03744    170.5 1.354e+04 1.640e-09
 97.04819    169.8 1.357e+04 1.639e-09
 97.06790    169.0 1.352e+04 1.592e-09
 97.08761    168.3 1.337e+04 1.456e-09
 97.10732    167.7 1.313e+04 1.260e-09
 97.12703    167.2 1.293e+04 1.072e-09
 97.14674    166.7 1.285e+04 9.524e-10
 97.16645    166.3 1.278e+04 8.895e-10
 97.18292    166.3 1.277e+04 8.680e-10
 97.19277    165.8 1.299e+04 9.887e-10
 97.20588    165.8 1.300e+04 1.019e-09
 97.22559    165.9 1.302e+04 1.066e-09
 97.24530    166.0 1.305e+04 1.128e-09
 97.26501    166.3 1.309e+04 1.208e-09
 97.28292    166.7 1.315e+04 1.309e-09
 97.29277    167.3 1.300e+04 1.095e-09
 97.30443    167.7 1.311e+04 1.232e-09
 97.32414    168.1 1.321e+04 1.382e-09
 97.33825    168.6 1.325e+04 1.493e-09
 97.34811    168.0 1.347e+04 1.862e-09
 97.36356    168.6 1.345e+04 1.865e-09
 97.38327    169.2 1.338e+04 1.828e-09
 97.40298    169.9 1.322e+04 1.644e-09
 97.42269    170.6 1.304e+04 1.372e-09
 97.44240    171.0 1.288e+04 1.115e-09
 97.46212    171.4 1.274e+04 9.131e-10
 97.48183    171.6 1.258e+04 7.886e-10
 97.49359    171.8 1.242e+04 7.192e-10
 97.50345    171.3 1.242e+04 7.318e-10
 97.52125    171.4 1.238e+04 7.253e-10
 97.55091    172.5 1.248e+04 7.707e-10
 97.59043    174.0 1.245e+04 7.916e-10
 97.62985    175.5 1.247e+04 8.278e-10
 97.66927    176.6 1.267e+04 9.060e-10
 97.69874    177.0 1.281e+04 9.883e-10
 97.71835    177.5 1.294e+04 1.044e-09
 97.73780    178.0 1.306e+04 1.106e-09
 97.74765    177.5 1.307e+04 1.095e-09
 97.75778    177.9 1.317e+04 1.146e-09
 97.77749    178.3 1.326e+04 1.191e-09
 97.79441    178.6 1.332e+04 1.231e-09
 97.80427    178.5 1.338e+04 1.283e-09
 97.81691    178.9 1.343e+04 1.299e-09
 97.83662    179.2 1.346e+04 1.309e-09
 97.85633    179.5 1.350e+04 1.322e-09
 97.87604    179.8 1.355e+04 1.344e-09
 97.89575    180.1 1.362e+04 1.377e-09
 97.91546    180.3 1.370e+04 1.423e-09
 97.93517    180.8 1.386e+04 1.531e-09
 97.94975    181.1 1.397e+04 1.609e-09
 97.95960    180.9 1.401e+04 1.583e-09
 97.98455    181.7 1.423e+04 1.757e-09
 98.02407    183.0 1.433e+04 1.865e-09
 98.06349    184.4 1.430e+04 1.854e-09
 98.09542    185.9 1.423e+04 1.793e-09
 98.11513    185.0 1.405e+04 1.615e-09
 98.14233    186.8 1.380e+04 1.478e-09
 98.18175    189.0 1.355e+04 1.355e-09
 98.20273    191.5 1.351e+04 1.308e-09
 98.22244    190.9 1.347e+04 1.265e-09
 98.26060    193.3 1.354e+04 1.317e-09
 98.29006    194.2 1.363e+04 1.416e-09
 98.30968    195.2 1.378e+04 1.538e-09
 98.32939    196.0 1.399e+04 1.699e-09
 98.34910    196.6 1.424e+04 1.890e-09
 98.36881    196.9 1.450e+04 2.115e-09
 98.38852    197.1 1.473e+04 2.360e-09
 98.40590    197.2 1.489e+04 2.591e-09
 98.41576    196.5 1.457e+04 2.321e-09
 98.42794    196.4 1.466e+04 2.477e-09
 98.44765    196.2 1.480e+04 2.677e-09
 98.46736    195.9 1.497e+04 2.921e-09
 98.48707    195.5 1.520e+04 3.205e-09
 98.50678    194.8 1.538e+04 3.490e-09
 98.52650    194.0 1.531e+04 3.539e-09
 98.54621    193.0 1.507e+04 3.434e-09
 98.56124    192.6 1.466e+04 3.128e-09
 98.57109    191.7 1.460e+04 3.075e-09
 98.58563    191.8 1.418e+04 2.616e-09
 98.60534    192.2 1.385e+04 2.089e-09
 98.62505    192.2 1.359e+04 1.690e-09
 98.65471    192.2 1.300e+04 1.156e-09
 98.69423    192.1 1.219e+04 7.181e-10
 98.71677    192.8 1.140e+04 4.686e-10
 98.73648    191.6 1.061e+04 2.681e-10
 98.77307    193.5 1.024e+04 2.243e-10
 98.81250    195.7 1.011e+04 2.083e-10
 98.85192    198.1 1.008e+04 2.031e-10
 98.89134    200.5 1.007e+04 2.000e-10
 98.93076    202.8 1.007e+04 1.970e-10
 98.97018    205.0 1.008e+04 1.934e-10
 99.00774    207.1 1.008e+04 1.896e-10
 99.02745    206.9 9.989e+03 1.777e-10
 99.04903    209.0 9.993e+03 1.798e-10
 99.08845    211.1 9.992e+03 1.838e-10
 99.11249    213.2 9.992e+03 1.898e-10
 99.13220    212.5 1.013e+04 2.146e-10
 99.16729    214.7 1.009e+04 2.086e-10
 99.20671    217.0 1.006e+04 2.045e-10
 99.24613    219.2 1.003e+04 2.021e-10
 99.28555    221.4 1.002e+04 1.971e-10
 99.31841    223.6 1.001e+04 1.896e-10
 99.33812    223.6 1.000e+04 2.032e-10
 99.36440    225.8 1.001e+04 1.978e-10
 99.40382    228.1 1.001e+04 1.969e-10
 99.44324    230.4 1.003e+04 1.996e-10
 99.48266    232.8 1.006e+04 2.057e-10
 99.52208    235.1 1.011e+04 2.150e-10
 99.56150    237.5 1.019e+04 2.313e-10
 99.60093    239.9 1.030e+04 2.552e-10
 99.62908    242.5 1.044e+04 2.867e-10
 99.64879    242.7 1.075e+04 3.938e-10
 99.67977    245.2 1.098e+04 4.528e-10
 99.71919    247.5 1.123e+04 5.317e-10
 99.75861    250.0 1.150e+04 6.382e-10
 99.78432    250.5 1.164e+04 7.170e-10
 99.79408    250.3 1.176e+04 7.624e-10
 99.80769    250.9 1.201e+04 8.950e-10
 99.82740    251.9 1.229e+04 1.066e-09
 99.84711    253.0 1.255e+04 1.249e-09
 99.86683    254.2 1.280e+04 1.420e-09
 99.88654    255.3 1.300e+04 1.549e-09
 99.90625    256.5 1.312e+04 1.612e-09
 99.92596    257.5 1.316e+04 1.617e-09
 99.93956    258.5 1.317e+04 1.597e-09
 99.94942    257.7 1.309e+04 1.478e-09
 99.96538    258.5 1.314e+04 1.409e-09
 99.98509    258.8 1.321e+04 1.407e-09
100.00480    258.5 1.341e+04 1.447e-09
