# Columns:
#   distance along LOS (in CHIMPs)
#   peculiar velocity  (in km/s)
#   temperature (K)
#   HI number density
# pos=(237.173,8.41271,153.731), angles=(1.37457,0.0324993)
  0.00627    172.1 1.162e+04 8.819e-10
  0.01393    172.4 1.188e+04 1.055e-09
  0.02389    172.1 1.176e+04 8.994e-10
  0.04242    172.2 1.207e+04 1.090e-09
  0.06235    172.0 1.244e+04 1.334e-09
  0.08227    171.7 1.289e+04 1.679e-09
  0.10220    171.1 1.344e+04 2.196e-09
  0.11383    170.3 1.407e+04 2.958e-09
  0.12379    169.3 1.426e+04 3.118e-09
  0.14204    168.8 1.484e+04 4.100e-09
  0.16197    168.4 1.524e+04 4.762e-09
  0.18189    167.8 1.527e+04 4.777e-09
  0.20182    167.0 1.515e+04 4.537e-09
  0.21373    166.4 1.474e+04 3.770e-09
  0.22369    165.5 1.451e+04 2.874e-09
  0.24166    164.7 1.386e+04 2.141e-09
  0.26159    163.9 1.312e+04 1.575e-09
  0.28151    163.1 1.258e+04 1.220e-09
  0.30143    162.6 1.226e+04 1.035e-09
  0.31363    162.5 1.205e+04 9.216e-10
  0.32359    162.2 1.191e+04 8.837e-10
  0.34128    162.3 1.172e+04 8.134e-10
  0.36121    162.4 1.155e+04 7.395e-10
  0.38113    162.7 1.151e+04 6.348e-10
  0.40105    162.3 1.502e+04 5.544e-10
  0.41353    161.2 2.498e+04 4.566e-10
  0.42210    163.2 1.140e+04 5.555e-10
  0.42955    162.5 1.166e+04 5.597e-10
  0.44090    161.8 1.736e+04 4.654e-10
  0.46083    160.4 3.025e+04 4.136e-10
  0.48075    159.1 3.846e+04 6.486e-10
  0.50067    159.1 3.634e+04 1.417e-09
  0.51342    160.2 3.230e+04 2.640e-09
  0.52339    164.8 2.402e+04 4.771e-10
  0.54052    165.4 2.610e+04 5.455e-10
  0.56045    165.7 2.603e+04 7.154e-10
  0.58037    165.5 2.515e+04 1.333e-09
  0.60029    164.8 2.403e+04 2.509e-09
  0.61332    163.5 2.301e+04 6.999e-09
  0.62329    167.1 1.809e+04 9.453e-10
  0.64014    166.0 2.056e+04 2.226e-09
  0.66007    165.2 2.171e+04 5.846e-09
  0.67496    165.7 2.146e+04 5.912e-09
  0.68487    165.8 2.166e+04 6.941e-09
  0.69483    165.8 2.194e+04 9.735e-09
  0.70480    165.8 2.217e+04 1.442e-08
  0.71313    165.6 2.237e+04 2.084e-08
  0.71811    167.3 2.183e+04 8.978e-09
  0.72472    166.8 2.205e+04 1.353e-08
  0.73209    166.7 2.208e+04 1.922e-08
  0.73707    166.9 2.225e+04 2.121e-08
  0.74464    167.2 2.244e+04 2.733e-08
  0.75461    167.6 2.264e+04 3.308e-08
  0.76307    168.1 2.311e+04 3.753e-08
  0.76806    168.6 2.239e+04 2.890e-08
  0.77453    169.0 2.267e+04 3.612e-08
  0.78449    169.4 2.323e+04 4.136e-08
  0.79445    169.8 2.318e+04 4.771e-08
  0.80442    170.3 2.390e+04 4.790e-08
  0.81302    170.7 2.400e+04 4.496e-08
  0.81800    171.5 2.344e+04 5.706e-08
  0.82434    171.8 2.367e+04 5.550e-08
  0.83430    172.0 2.393e+04 4.980e-08
  0.84426    172.1 2.403e+04 4.082e-08
  0.85423    171.7 2.383e+04 3.124e-08
  0.86297    171.4 2.319e+04 2.340e-08
  0.86795    172.3 2.402e+04 4.093e-08
  0.87415    172.0 2.353e+04 2.787e-08
  0.88411    171.8 2.271e+04 1.934e-08
  0.89910    171.3 2.084e+04 1.183e-08
  0.91302    170.6 1.842e+04 7.538e-09
  0.92298    172.9 2.046e+04 9.996e-09
  0.93900    171.6 1.782e+04 5.833e-09
  0.95892    170.6 1.521e+04 4.512e-09
  0.97885    171.0 1.499e+04 4.530e-09
  0.99877    172.0 1.501e+04 4.582e-09
  1.01292    173.1 1.507e+04 4.778e-09
  1.02288    173.1 1.420e+04 3.358e-09
  1.03483    174.3 1.439e+04 3.651e-09
  1.04479    174.5 1.432e+04 3.818e-09
  1.05854    175.8 1.457e+04 4.145e-09
  1.07847    176.8 1.494e+04 4.628e-09
  1.09839    177.8 1.530e+04 5.275e-09
  1.11282    178.7 1.566e+04 6.081e-09
  1.12278    178.8 1.488e+04 4.273e-09
  1.13824    179.8 1.533e+04 5.147e-09
  1.15816    180.8 1.577e+04 6.059e-09
  1.17809    181.6 1.603e+04 6.437e-09
  1.19801    182.2 1.603e+04 6.391e-09
  1.21272    182.8 1.590e+04 6.000e-09
  1.22268    182.6 1.493e+04 3.619e-09
  1.23786    183.3 1.458e+04 3.103e-09
  1.25778    184.1 1.403e+04 2.428e-09
  1.27771    185.0 1.338e+04 1.791e-09
  1.29763    185.7 1.273e+04 1.288e-09
  1.31262    186.1 1.212e+04 9.298e-10
  1.32258    185.2 1.086e+04 5.791e-10
  1.33748    185.7 1.094e+04 4.993e-10
  1.35740    186.7 1.096e+04 5.025e-10
  1.37733    187.9 1.110e+04 5.196e-10
  1.39725    189.1 1.115e+04 5.402e-10
  1.41252    190.0 1.114e+04 5.539e-10
  1.42248    189.8 1.059e+04 4.128e-10
  1.43710    190.9 1.052e+04 4.087e-10
  1.45702    191.9 1.042e+04 3.995e-10
  1.47695    193.0 1.030e+04 3.875e-10
  1.49687    194.0 1.016e+04 3.810e-10
  1.51241    195.0 1.012e+04 3.823e-10
  1.52238    195.4 9.708e+03 3.177e-10
  1.53672    196.5 9.712e+03 3.191e-10
  1.55664    197.6 9.737e+03 3.263e-10
  1.57656    198.8 9.805e+03 3.416e-10
  1.59649    199.9 9.901e+03 3.638e-10
  1.61231    200.9 1.000e+04 3.901e-10
  1.62227    201.5 9.855e+03 3.653e-10
  1.63634    202.7 9.921e+03 3.841e-10
  1.65007    203.8 1.000e+04 4.064e-10
  1.66003    203.1 1.003e+04 4.153e-10
  1.67618    204.2 1.010e+04 4.356e-10
  1.69611    205.2 1.017e+04 4.506e-10
  1.71221    206.0 1.019e+04 4.540e-10
  1.72217    206.8 1.026e+04 4.756e-10
  1.73596    207.6 1.033e+04 4.833e-10
  1.75588    208.2 1.033e+04 4.810e-10
  1.77580    208.9 1.030e+04 4.678e-10
  1.79573    209.4 1.023e+04 4.434e-10
  1.81211    209.9 1.012e+04 4.079e-10
  1.82207    209.9 1.078e+04 5.598e-10
  1.83558    210.2 1.069e+04 5.060e-10
  1.85550    210.5 1.048e+04 4.067e-10
  1.87542    210.6 1.027e+04 3.372e-10
  1.89535    210.7 9.953e+03 2.736e-10
  1.91201    210.8 9.656e+03 2.346e-10
  1.92197    210.7 1.085e+04 3.519e-10
  1.94525    210.6 9.893e+03 2.497e-10
  1.98520    210.8 9.864e+03 2.574e-10
  2.01210    210.6 9.953e+03 3.112e-10
  2.02197    209.8 1.162e+04 5.996e-10
  2.03481    209.8 1.158e+04 6.205e-10
  2.05474    209.6 1.153e+04 6.863e-10
  2.07466    209.4 1.149e+04 7.299e-10
  2.10465    208.8 1.214e+04 1.047e-09
  2.14459    207.5 1.196e+04 1.062e-09
  2.18444    205.6 1.171e+04 9.850e-10
  2.21190    203.5 1.148e+04 8.729e-10
  2.23183    202.5 1.120e+04 7.240e-10
  2.26413    200.7 1.095e+04 6.788e-10
  2.30398    199.6 1.083e+04 6.373e-10
  2.34383    198.9 1.063e+04 5.623e-10
  2.38368    198.2 1.035e+04 4.652e-10
  2.41170    197.6 1.003e+04 3.589e-10
  2.43162    198.3 1.070e+04 5.480e-10
  2.46337    198.2 1.027e+04 4.032e-10
  2.50322    198.3 9.807e+03 2.876e-10
  2.54307    198.5 9.421e+03 2.214e-10
  2.58292    198.9 9.216e+03 1.995e-10
  2.61150    199.9 9.166e+03 1.968e-10
  2.63142    201.1 9.301e+03 2.255e-10
  2.66261    202.3 9.296e+03 2.257e-10
  2.70246    203.6 9.300e+03 2.288e-10
  2.74231    204.9 9.295e+03 2.284e-10
  2.78216    206.1 9.269e+03 2.245e-10
  2.81130    207.2 9.222e+03 2.144e-10
  2.83122    208.3 9.423e+03 2.508e-10
  2.86082    209.2 9.325e+03 2.283e-10
  2.88075    209.2 9.310e+03 2.277e-10
  2.90170    210.1 9.200e+03 2.095e-10
  2.94155    210.9 9.108e+03 1.962e-10
  2.98140    211.7 9.083e+03 1.947e-10
  3.01109    212.4 9.097e+03 1.993e-10
  3.03102    212.9 9.101e+03 1.967e-10
  3.06109    213.5 9.138e+03 2.069e-10
  3.10094    213.8 9.291e+03 2.453e-10
  3.14079    214.0 9.557e+03 3.174e-10
  3.18063    213.9 9.866e+03 4.209e-10
  3.21089    213.7 1.015e+04 5.313e-10
  3.23081    213.2 9.886e+03 4.105e-10
  3.26033    212.5 9.936e+03 4.127e-10
  3.30018    211.4 9.911e+03 3.876e-10
  3.34003    210.0 9.698e+03 3.158e-10
  3.37987    208.5 9.358e+03 2.511e-10
  3.41069    206.9 9.105e+03 2.233e-10
  3.43061    206.0 8.552e+03 1.308e-10
  3.45957    204.7 8.575e+03 1.429e-10
  3.49942    203.4 8.755e+03 1.906e-10
  3.53926    202.4 9.156e+03 2.783e-10
  3.57911    201.1 9.543e+03 3.731e-10
  3.61049    200.2 9.826e+03 4.681e-10
  3.63041    200.9 9.823e+03 4.506e-10
  3.65881    199.9 9.965e+03 4.929e-10
  3.69866    198.8 9.968e+03 4.911e-10
  3.73850    197.9 9.932e+03 4.742e-10
  3.77835    197.3 9.779e+03 4.213e-10
  3.81028    197.0 9.504e+03 3.437e-10
  3.83021    198.1 9.428e+03 3.244e-10
  3.85805    198.2 9.149e+03 2.654e-10
  3.89789    198.3 8.925e+03 2.275e-10
  3.93774    198.6 8.899e+03 2.240e-10
  3.97759    199.3 8.927e+03 2.293e-10
  4.01008    199.9 9.114e+03 2.611e-10
  4.03001    201.3 9.099e+03 2.580e-10
  4.05729    201.6 9.394e+03 3.140e-10
  4.08707    201.4 9.580e+03 3.619e-10
  4.10107    201.5 9.793e+03 4.330e-10
  4.11103    201.3 9.821e+03 4.408e-10
  4.11975    201.8 1.019e+04 5.829e-10
  4.12971    202.3 1.011e+04 5.596e-10
  4.14675    202.8 1.054e+04 7.510e-10
  4.16667    203.1 1.097e+04 9.644e-10
  4.18660    203.2 1.132e+04 1.144e-09
  4.20652    203.2 1.158e+04 1.269e-09
  4.21965    203.1 1.176e+04 1.352e-09
  4.22961    203.3 1.201e+04 1.571e-09
  4.24637    203.0 1.225e+04 1.720e-09
  4.26629    202.5 1.250e+04 1.877e-09
  4.28622    201.8 1.284e+04 2.105e-09
  4.30614    200.8 1.333e+04 2.471e-09
  4.31955    199.6 1.398e+04 3.027e-09
  4.32951    198.9 1.465e+04 3.969e-09
  4.34599    197.4 1.542e+04 5.122e-09
  4.36591    195.8 1.600e+04 6.062e-09
  4.38584    194.1 1.613e+04 6.144e-09
  4.40576    192.2 1.609e+04 5.997e-09
  4.41944    190.5 1.584e+04 5.381e-09
  4.42941    190.0 1.601e+04 5.810e-09
  4.44561    188.7 1.546e+04 4.702e-09
  4.46553    187.2 1.484e+04 3.686e-09
  4.48545    185.9 1.423e+04 2.868e-09
  4.50538    184.7 1.369e+04 2.272e-09
  4.53536    183.2 1.325e+04 1.736e-09
  4.57531    181.6 1.264e+04 1.268e-09
  4.60948    181.0 1.207e+04 9.333e-10
  4.62940    179.6 1.225e+04 1.081e-09
  4.65500    179.5 1.183e+04 8.597e-10
  4.69485    179.7 1.140e+04 6.827e-10
  4.73470    180.4 1.106e+04 5.552e-10
  4.77455    181.4 1.089e+04 4.885e-10
  4.80927    182.5 1.085e+04 4.786e-10
  4.82920    180.9 1.056e+04 3.211e-10
  4.85424    181.8 1.043e+04 3.054e-10
  4.89409    182.8 1.043e+04 3.069e-10
  4.93394    183.6 1.042e+04 3.181e-10
  4.97379    184.3 1.046e+04 3.585e-10
  5.00907    185.1 1.066e+04 4.348e-10
  5.02899    183.7 1.026e+04 3.075e-10
  5.05348    184.7 1.047e+04 3.811e-10
  5.09333    185.9 1.061e+04 4.489e-10
  5.13318    186.7 1.076e+04 5.154e-10
  5.17302    187.7 1.084e+04 5.664e-10
  5.20887    188.8 1.102e+04 6.550e-10
  5.22879    188.1 1.074e+04 5.146e-10
  5.25272    189.1 1.089e+04 5.947e-10
  5.29257    189.8 1.135e+04 7.861e-10
  5.31863    189.3 1.173e+04 9.639e-10
  5.32783    189.4 1.160e+04 9.141e-10
  5.33155    188.4 1.136e+04 8.055e-10
  5.34218    188.2 1.175e+04 9.880e-10
  5.36211    187.9 1.234e+04 1.299e-09
  5.38203    187.2 1.303e+04 1.832e-09
  5.40195    186.4 1.354e+04 2.451e-09
  5.41843    185.5 1.372e+04 2.795e-09
  5.42849    186.2 1.281e+04 1.767e-09
  5.45196    184.1 1.285e+04 1.809e-09
  5.49181    181.6 1.251e+04 1.542e-09
  5.53166    179.3 1.160e+04 1.019e-09
  5.57150    177.7 1.033e+04 6.126e-10
  5.60846    177.0 9.739e+03 5.023e-10
  5.62839    178.3 9.562e+03 4.313e-10
  5.65120    178.5 9.581e+03 4.424e-10
  5.69105    178.6 9.800e+03 5.150e-10
  5.73089    178.9 1.027e+04 6.688e-10
  5.77074    179.2 1.059e+04 7.762e-10
  5.80826    179.3 1.060e+04 7.665e-10
  5.82819    180.6 1.090e+04 8.816e-10
  5.85044    180.7 1.079e+04 8.171e-10
  5.89029    181.3 1.034e+04 6.124e-10
  5.93013    182.0 9.620e+03 3.877e-10
  5.96998    182.8 8.810e+03 2.378e-10
  6.00806    183.8 8.292e+03 1.700e-10
  6.02798    185.3 8.843e+03 2.715e-10
  6.04968    186.8 8.705e+03 2.351e-10
  6.08952    188.6 8.651e+03 2.237e-10
  6.12937    190.7 8.602e+03 2.123e-10
  6.16922    192.8 8.510e+03 1.962e-10
  6.20786    194.9 8.453e+03 1.800e-10
  6.22778    196.3 8.964e+03 2.787e-10
  6.24892    198.3 8.946e+03 2.594e-10
  6.28876    200.3 8.970e+03 2.465e-10
  6.32861    202.3 9.018e+03 2.364e-10
  6.36846    204.2 9.114e+03 2.282e-10
  6.40766    206.1 9.185e+03 2.318e-10
  6.42758    207.3 9.460e+03 2.907e-10
  6.44815    209.3 9.616e+03 2.803e-10
  6.48800    211.1 9.713e+03 2.919e-10
  6.52785    212.7 9.867e+03 3.249e-10
  6.55227    213.8 9.958e+03 3.693e-10
  6.57219    213.4 1.001e+04 4.022e-10
  6.59749    214.6 1.006e+04 4.418e-10
  6.61722    216.5 1.017e+04 5.057e-10
  6.63714    219.0 1.032e+04 5.926e-10
  6.65716    220.6 1.052e+04 6.780e-10
  6.67708    221.8 1.069e+04 7.247e-10
  6.69701    223.0 1.077e+04 7.394e-10
  6.71693    224.0 1.083e+04 7.397e-10
  6.72708    225.2 1.084e+04 7.370e-10
  6.73704    225.7 1.098e+04 8.187e-10
  6.75678    226.8 1.104e+04 8.199e-10
  6.77670    227.9 1.105e+04 8.183e-10
  6.79663    229.0 1.106e+04 8.187e-10
  6.81655    230.0 1.107e+04 8.235e-10
  6.82698    231.1 1.108e+04 8.411e-10
  6.83694    231.5 1.126e+04 9.091e-10
  6.85640    232.5 1.126e+04 9.165e-10
  6.87632    233.5 1.127e+04 9.359e-10
  6.89625    234.5 1.128e+04 9.724e-10
  6.91617    235.5 1.133e+04 1.005e-09
  6.92688    236.4 1.137e+04 1.092e-09
  6.93684    236.8 1.142e+04 1.039e-09
  6.95602    237.8 1.141e+04 1.114e-09
  6.97594    238.4 1.171e+04 1.290e-09
  6.99587    238.6 1.244e+04 1.624e-09
  7.01579    238.8 1.338e+04 2.175e-09
  7.02678    238.9 1.414e+04 2.754e-09
  7.03674    240.5 1.365e+04 2.290e-09
  7.05061    240.1 1.416e+04 2.653e-09
  7.06052    239.6 1.508e+04 3.143e-09
  7.07048    238.4 1.716e+04 4.327e-09
  7.07663    236.6 1.959e+04 6.912e-09
  7.08161    238.4 1.864e+04 5.182e-09
  7.09041    236.5 2.100e+04 8.742e-09
  7.10037    234.7 2.241e+04 1.568e-08
  7.11033    233.2 2.298e+04 2.863e-08
  7.12029    231.9 2.313e+04 5.165e-08
  7.12658    230.6 2.324e+04 8.823e-08
  7.13156    232.3 2.313e+04 7.467e-08
  7.14022    231.2 2.312e+04 1.274e-07
  7.15018    229.9 2.330e+04 1.815e-07
  7.16014    228.4 2.374e+04 1.869e-07
  7.16722    226.7 2.394e+04 1.759e-07
  7.17220    226.5 2.369e+04 2.207e-07
  7.17653    224.8 2.482e+04 1.351e-07
  7.18151    227.2 2.383e+04 2.267e-07
  7.19003    225.2 2.528e+04 1.218e-07
  7.19999    222.4 2.664e+04 5.355e-08
  7.20995    218.7 2.620e+04 2.230e-08
  7.21991    215.2 2.226e+04 1.230e-08
  7.22653    212.9 1.815e+04 9.178e-09
  7.23151    214.9 2.102e+04 1.067e-08
  7.23984    213.3 1.822e+04 9.690e-09
  7.25483    213.1 1.729e+04 8.590e-09
  7.27480    211.6 1.579e+04 6.187e-09
  7.29473    210.2 1.477e+04 4.109e-09
  7.31465    209.0 1.400e+04 2.852e-09
  7.32647    207.9 1.346e+04 2.158e-09
  7.33644    208.4 1.438e+04 3.283e-09
  7.35450    207.2 1.412e+04 2.735e-09
  7.37442    206.1 1.388e+04 2.364e-09
  7.39434    205.1 1.361e+04 2.049e-09
  7.41427    204.2 1.329e+04 1.749e-09
  7.42637    203.3 1.300e+04 1.491e-09
  7.43634    203.0 1.387e+04 2.073e-09
  7.45412    201.7 1.367e+04 1.882e-09
  7.47404    200.3 1.366e+04 1.886e-09
  7.49396    199.0 1.367e+04 1.937e-09
  7.51389    197.8 1.372e+04 2.121e-09
  7.52627    197.2 1.385e+04 2.415e-09
  7.53623    196.3 1.431e+04 2.965e-09
  7.55374    196.0 1.436e+04 3.134e-09
  7.57366    195.8 1.433e+04 3.096e-09
  7.59358    195.6 1.414e+04 2.851e-09
  7.61351    195.6 1.370e+04 2.312e-09
  7.62617    195.4 1.312e+04 1.674e-09
  7.63613    194.7 1.312e+04 1.667e-09
  7.65336    194.4 1.232e+04 1.082e-09
  7.67328    193.3 1.149e+04 6.908e-10
  7.69320    192.1 1.079e+04 4.827e-10
  7.71313    191.1 1.046e+04 3.941e-10
  7.72607    190.6 1.036e+04 3.774e-10
  7.73603    190.4 1.033e+04 3.825e-10
  7.75298    190.3 1.030e+04 3.822e-10
  7.77259    190.3 1.030e+04 3.827e-10
  7.78265    190.4 1.025e+04 3.554e-10
  7.80298    190.3 1.024e+04 3.610e-10
  7.82616    190.4 1.025e+04 3.758e-10
  7.84609    190.6 1.021e+04 3.803e-10
  7.88268    191.3 1.022e+04 3.861e-10
  7.92252    191.8 1.020e+04 3.843e-10
  7.95231    192.1 1.009e+04 3.736e-10
  7.97214    192.4 9.998e+03 3.601e-10
  7.99206    192.6 9.928e+03 3.461e-10
  8.01199    192.8 9.919e+03 3.443e-10
  8.02577    192.9 9.925e+03 3.442e-10
  8.04579    194.1 9.962e+03 3.412e-10
  8.07186    193.9 1.001e+04 3.590e-10
  8.09168    194.1 1.008e+04 3.829e-10
  8.11161    194.2 1.030e+04 4.312e-10
  8.12567    194.4 1.070e+04 5.104e-10
  8.13563    195.8 1.027e+04 4.603e-10
  8.15145    196.3 1.065e+04 5.407e-10
  8.17138    196.6 1.110e+04 6.493e-10
  8.19130    196.8 1.155e+04 7.877e-10
  8.21122    197.0 1.194e+04 9.511e-10
  8.22556    197.2 1.228e+04 1.127e-09
  8.23553    198.9 1.222e+04 1.056e-09
  8.25107    198.9 1.262e+04 1.285e-09
  8.27100    199.1 1.294e+04 1.535e-09
  8.29092    199.3 1.320e+04 1.795e-09
  8.31084    199.0 1.355e+04 2.072e-09
  8.32546    198.1 1.396e+04 2.351e-09
  8.33543    200.6 1.401e+04 2.386e-09
  8.35069    199.8 1.440e+04 2.613e-09
  8.37062    198.6 1.481e+04 2.806e-09
  8.38783    197.2 1.522e+04 2.928e-09
  8.39780    198.2 1.515e+04 2.819e-09
  8.41046    196.8 1.551e+04 2.865e-09
  8.42536    195.5 1.565e+04 2.833e-09
  8.43532    199.0 1.551e+04 2.862e-09
  8.45031    197.9 1.561e+04 2.705e-09
  8.47024    196.8 1.561e+04 2.396e-09
  8.49016    195.4 1.553e+04 2.036e-09
  8.51008    193.8 1.572e+04 2.093e-09
  8.52526    192.0 1.612e+04 2.541e-09
  8.53522    195.0 1.545e+04 1.817e-09
  8.54993    193.1 1.614e+04 2.393e-09
  8.56986    192.9 1.705e+04 4.017e-09
  8.58978    193.7 1.781e+04 6.117e-09
  8.60467    194.1 1.787e+04 6.309e-09
  8.61459    194.2 1.818e+04 7.016e-09
  8.62455    194.1 1.870e+04 8.328e-09
  8.63004    194.2 1.920e+04 9.849e-09
  8.63502    194.6 1.871e+04 8.252e-09
  8.64447    194.6 1.931e+04 1.017e-08
  8.65443    194.7 1.979e+04 1.174e-08
  8.66440    194.8 2.000e+04 1.280e-08
  8.67436    194.5 2.036e+04 1.365e-08
  8.67999    192.7 2.200e+04 1.620e-08
  8.68497    193.2 2.147e+04 1.605e-08
  8.69428    187.9 2.504e+04 2.388e-08
  8.70034    177.4 2.783e+04 7.388e-08
  8.70532    173.6 2.832e+04 1.357e-07
  8.71169    168.0 2.721e+04 2.765e-07
  8.71665    162.8 2.472e+04 5.564e-07
  8.72163    157.3 2.343e+04 8.090e-07
  8.72661    151.2 2.340e+04 8.007e-07
  8.72992    142.8 2.391e+04 6.434e-07
  8.73241    144.9 2.276e+04 1.071e-06
  8.73657    142.6 2.277e+04 9.336e-07
  8.74407    137.2 2.512e+04 4.579e-07
  8.75405    126.3 3.818e+04 2.595e-08
  8.76402    106.8 2.497e+04 6.029e-09
  8.77398    101.4 1.706e+04 5.785e-09
  8.77989    101.6 1.660e+04 5.223e-09
  8.78487    100.6 1.679e+04 5.540e-09
  8.79390    100.9 1.670e+04 5.217e-09
  8.80386    101.0 1.646e+04 4.768e-09
  8.81383    101.0 1.640e+04 4.674e-09
  8.82491    101.3 1.589e+04 4.082e-09
  8.83492     99.7 1.635e+04 4.634e-09
  8.84879     99.9 1.591e+04 3.957e-09
  8.86871     99.8 1.556e+04 3.426e-09
  8.88864     99.9 1.536e+04 3.114e-09
  8.90856    100.2 1.523e+04 2.988e-09
  8.92486    101.1 1.510e+04 2.848e-09
  8.93482     99.9 1.488e+04 2.418e-09
  8.94841    101.1 1.460e+04 2.218e-09
  8.96833    102.5 1.432e+04 2.044e-09
  8.98826    103.9 1.408e+04 1.895e-09
  9.00307    105.1 1.381e+04 1.790e-09
  9.01304    107.4 1.403e+04 2.041e-09
  9.02476    108.6 1.383e+04 1.960e-09
  9.03472    108.5 1.366e+04 1.782e-09
  9.04803    109.9 1.336e+04 1.746e-09
  9.06795    111.5 1.334e+04 1.703e-09
  9.08788    112.5 1.358e+04 1.742e-09
  9.10780    112.0 1.475e+04 2.039e-09
  9.12465    111.5 1.847e+04 3.417e-09
  9.13462    115.0 1.402e+04 2.179e-09
  9.14765    114.9 1.721e+04 3.161e-09
  9.16757    115.0 2.028e+04 4.460e-09
  9.18750    114.6 2.345e+04 5.524e-09
  9.20742    112.9 2.743e+04 5.447e-09
  9.22455    109.2 2.819e+04 6.250e-09
  9.23452    111.4 2.590e+04 3.671e-09
  9.24727    106.5 2.481e+04 4.851e-09
  9.26719    102.8 2.279e+04 5.283e-09
  9.28712    100.2 1.985e+04 5.333e-09
  9.30704     98.1 1.754e+04 4.584e-09
  9.32445     96.6 1.598e+04 3.269e-09
  9.33441     97.3 1.637e+04 3.410e-09
  9.34689     96.2 1.524e+04 2.299e-09
  9.36681     95.2 1.401e+04 1.561e-09
  9.38674     94.4 1.293e+04 1.173e-09
  9.40666     94.4 1.234e+04 1.083e-09
  9.42435     94.8 1.222e+04 1.091e-09
  9.43431     95.5 1.257e+04 1.298e-09
  9.44651     96.2 1.250e+04 1.346e-09
  9.46643     97.1 1.252e+04 1.428e-09
  9.48635     98.0 1.262e+04 1.519e-09
  9.50628     98.8 1.281e+04 1.640e-09
  9.52425     99.2 1.305e+04 1.816e-09
  9.53421    100.0 1.345e+04 2.139e-09
  9.54613    100.1 1.365e+04 2.395e-09
  9.56605    100.4 1.382e+04 2.722e-09
  9.58597    101.1 1.401e+04 3.111e-09
  9.60590    101.9 1.407e+04 3.325e-09
  9.61832    102.8 1.402e+04 3.290e-09
  9.62660    102.4 1.391e+04 3.098e-09
  9.63411    102.9 1.396e+04 3.051e-09
  9.64575    103.8 1.362e+04 2.651e-09
  9.66567    104.6 1.314e+04 2.161e-09
  9.68559    105.1 1.259e+04 1.709e-09
  9.70552    105.4 1.203e+04 1.349e-09
  9.72405    105.7 1.153e+04 1.094e-09
  9.73401    106.0 1.141e+04 9.937e-10
  9.74537    106.4 1.102e+04 8.325e-10
  9.76529    107.0 1.080e+04 7.344e-10
  9.78521    107.8 1.065e+04 6.494e-10
  9.80514    108.6 1.053e+04 5.824e-10
  9.82395    109.4 1.036e+04 4.798e-10
  9.83391    109.7 1.030e+04 4.599e-10
  9.84499    110.1 1.019e+04 4.128e-10
  9.86491    110.8 1.007e+04 3.674e-10
  9.88483    110.9 9.958e+03 3.395e-10
  9.90476    111.4 9.908e+03 3.300e-10
  9.92385    111.6 9.854e+03 3.280e-10
  9.93381    111.8 9.823e+03 3.241e-10
  9.94460    112.1 9.885e+03 3.411e-10
  9.96453    112.2 9.889e+03 3.514e-10
  9.98445    112.5 9.950e+03 3.828e-10
 10.00438    112.8 9.991e+03 4.041e-10
 10.02375    113.3 1.006e+04 4.339e-10
 10.03371    113.6 1.003e+04 4.398e-10
 10.04422    114.2 1.016e+04 4.736e-10
 10.06415    114.6 1.031e+04 5.074e-10
 10.08407    114.5 1.047e+04 5.389e-10
 10.10400    114.3 1.066e+04 5.837e-10
 10.12364    113.8 1.086e+04 6.499e-10
 10.13361    114.1 1.086e+04 6.483e-10
 10.14384    113.6 1.101e+04 7.252e-10
 10.16377    113.2 1.113e+04 8.020e-10
 10.18369    112.9 1.112e+04 8.140e-10
 10.20362    112.7 1.109e+04 8.015e-10
 10.22354    112.6 1.094e+04 7.442e-10
 10.24346    111.8 1.045e+04 5.040e-10
 10.27345    111.4 1.028e+04 3.862e-10
 10.31339    111.3 1.017e+04 3.210e-10
 10.35324    110.8 9.971e+03 2.551e-10
 10.39309    110.5 9.862e+03 2.414e-10
 10.42354    110.3 9.884e+03 2.555e-10
 10.44346    109.8 1.005e+04 2.880e-10
 10.47278    109.3 1.013e+04 3.477e-10
 10.51263    109.3 1.018e+04 4.058e-10
 10.53330    109.6 1.027e+04 4.383e-10
 10.54316    109.6 1.036e+04 4.916e-10
 10.56225    109.8 1.051e+04 5.482e-10
 10.58217    109.9 1.061e+04 5.750e-10
 10.60209    110.1 1.062e+04 5.566e-10
 10.62324    109.8 1.051e+04 4.838e-10
 10.64326    108.6 1.054e+04 4.828e-10
 10.67202    106.6 1.026e+04 4.276e-10
 10.71187    105.0 1.025e+04 4.410e-10
 10.75172    103.5 1.041e+04 5.144e-10
 10.79157    102.1 1.082e+04 6.508e-10
 10.82313    100.3 1.131e+04 8.376e-10
 10.84306     99.7 1.097e+04 6.969e-10
 10.87126     97.7 1.151e+04 9.597e-10
 10.91111     95.7 1.196e+04 1.244e-09
 10.95096     94.0 1.233e+04 1.497e-09
 10.99080     92.7 1.235e+04 1.522e-09
 11.02293     92.1 1.213e+04 1.420e-09
 11.04285     91.4 1.230e+04 1.455e-09
 11.07050     91.3 1.185e+04 1.204e-09
 11.11035     91.0 1.137e+04 9.758e-10
 11.15020     90.8 1.108e+04 8.789e-10
 11.17998     90.8 1.099e+04 8.684e-10
 11.19981     91.6 1.101e+04 8.838e-10
 11.21973     92.3 1.104e+04 9.012e-10
 11.23249     93.0 1.105e+04 9.073e-10
 11.24246     92.6 1.112e+04 9.336e-10
 11.25958     93.2 1.115e+04 9.545e-10
 11.27951     94.0 1.117e+04 9.750e-10
 11.29943     94.6 1.122e+04 1.003e-09
 11.31935     95.3 1.127e+04 1.035e-09
 11.33239     96.0 1.132e+04 1.066e-09
 11.34235     95.4 1.167e+04 1.237e-09
 11.35920     96.1 1.179e+04 1.280e-09
 11.37913     96.7 1.185e+04 1.283e-09
 11.39905     97.2 1.186e+04 1.275e-09
 11.41897     97.9 1.180e+04 1.214e-09
 11.43229     98.6 1.166e+04 1.125e-09
 11.44225     97.9 1.195e+04 1.253e-09
 11.45408     98.6 1.167e+04 1.073e-09
 11.46404     98.8 1.166e+04 1.065e-09
 11.47875     99.6 1.150e+04 9.284e-10
 11.50873    100.2 1.107e+04 7.020e-10
 11.54867    101.5 1.038e+04 4.683e-10
 11.58852    103.1 9.984e+03 3.637e-10
 11.62232    105.2 9.927e+03 3.517e-10
 11.64225    103.5 9.722e+03 2.889e-10
 11.66822    106.2 9.680e+03 2.823e-10
 11.70807    109.0 9.667e+03 2.787e-10
 11.74791    111.7 9.637e+03 2.741e-10
 11.78776    114.5 9.618e+03 2.729e-10
 11.82212    117.2 9.617e+03 2.751e-10
 11.84204    116.0 9.282e+03 2.217e-10
 11.86746    118.8 9.339e+03 2.304e-10
 11.90730    121.5 9.415e+03 2.435e-10
 11.94715    124.1 9.539e+03 2.643e-10
 11.98700    126.7 9.771e+03 3.002e-10
 12.02192    128.9 1.007e+04 3.471e-10
 12.04184    128.4 9.801e+03 3.025e-10
 12.06670    130.2 1.004e+04 3.392e-10
 12.09648    130.7 1.020e+04 3.927e-10
 12.11631    131.9 1.049e+04 4.852e-10
 12.13158    133.0 1.106e+04 6.518e-10
 12.14155    132.9 1.091e+04 6.004e-10
 12.15616    133.8 1.157e+04 8.232e-10
 12.17608    134.7 1.227e+04 1.110e-09
 12.19601    135.4 1.288e+04 1.411e-09
 12.21593    135.7 1.338e+04 1.691e-09
 12.23148    136.0 1.362e+04 1.845e-09
 12.24154    136.6 1.336e+04 1.615e-09
 12.25588    136.2 1.370e+04 1.857e-09
 12.27570    136.6 1.370e+04 1.886e-09
 12.29563    137.4 1.361e+04 1.838e-09
 12.31555    138.2 1.339e+04 1.692e-09
 12.33138    139.2 1.310e+04 1.479e-09
 12.34134    139.2 1.309e+04 1.462e-09
 12.35540    140.2 1.279e+04 1.255e-09
 12.37532    141.2 1.248e+04 1.041e-09
 12.39524    141.7 1.228e+04 9.353e-10
 12.41517    143.2 1.201e+04 7.946e-10
 12.43128    144.1 1.184e+04 7.264e-10
 12.44124    144.2 1.178e+04 6.710e-10
 12.45502    146.1 1.162e+04 5.955e-10
 12.47494    147.2 1.157e+04 5.698e-10
 12.49486    148.8 1.150e+04 5.377e-10
 12.51479    150.4 1.144e+04 5.200e-10
 12.53118    152.6 1.147e+04 5.051e-10
 12.54114    152.8 1.144e+04 4.672e-10
 12.55464    154.3 1.148e+04 4.662e-10
 12.57456    156.1 1.148e+04 4.621e-10
 12.59448    158.3 1.149e+04 4.631e-10
 12.61441    160.6 1.152e+04 4.674e-10
 12.63108    162.9 1.163e+04 4.798e-10
 12.64104    162.8 1.158e+04 4.463e-10
 12.65426    165.1 1.176e+04 4.761e-10
 12.67418    167.2 1.198e+04 5.175e-10
 12.68456    169.3 1.221e+04 5.676e-10
 12.69452    168.2 1.200e+04 5.262e-10
 12.71403    170.6 1.231e+04 5.949e-10
 12.73098    173.1 1.267e+04 6.842e-10
 12.74094    173.1 1.266e+04 6.783e-10
 12.75388    175.6 1.305e+04 7.895e-10
 12.77380    178.2 1.342e+04 9.106e-10
 12.79372    181.0 1.379e+04 1.034e-09
 12.81365    183.8 1.414e+04 1.139e-09
 12.83088    186.5 1.452e+04 1.198e-09
 12.84084    186.7 1.452e+04 1.207e-09
 12.85349    189.2 1.487e+04 1.198e-09
 12.87342    191.5 1.502e+04 1.181e-09
 12.89334    193.8 1.577e+04 1.178e-09
 12.90824    194.4 1.609e+04 1.202e-09
 12.91815    193.3 1.856e+04 1.188e-09
 12.92811    172.1 5.373e+04 1.127e-09
 12.93566    140.6 8.033e+04 2.103e-09
 12.94064    150.3 8.224e+04 1.404e-09
 12.94552    124.7 8.266e+04 3.654e-09
 12.95048    117.1 5.874e+04 1.724e-08
 12.95546    111.3 3.882e+04 1.970e-07
 12.96044     90.1 2.023e+04 9.506e-06
 12.96308     66.3 2.046e+04 1.178e-05
 12.96557     75.4 1.935e+04 1.578e-05
 12.97040     58.7 2.185e+04 6.965e-06
 12.97538     30.8 3.185e+04 8.065e-07
 12.98036      0.8 6.544e+04 2.306e-08
 12.98558    -22.4 6.676e+04 5.090e-09
 12.98981     14.9 7.403e+04 1.181e-08
 12.99208    -25.8 4.746e+04 1.193e-08
 12.99785    -42.9 3.773e+04 3.254e-09
 13.01284    -55.5 2.466e+04 1.114e-09
 13.03067    -61.0 1.371e+04 7.946e-10
 13.04064    -60.9 1.347e+04 7.792e-10
 13.05273    -59.3 1.227e+04 6.434e-10
 13.07266    -57.2 1.204e+04 5.961e-10
 13.09258    -55.4 1.194e+04 5.145e-10
 13.11251    -54.2 1.174e+04 4.324e-10
 13.13057    -53.3 1.158e+04 3.710e-10
 13.14054    -53.4 1.160e+04 3.891e-10
 13.15235    -52.7 1.150e+04 3.522e-10
 13.17228    -52.0 1.143e+04 3.419e-10
 13.19220    -51.3 1.136e+04 3.427e-10
 13.22061    -50.6 1.125e+04 3.455e-10
 13.24053    -50.4 1.119e+04 3.513e-10
 13.26203    -49.3 1.110e+04 3.575e-10
 13.30198    -47.7 1.108e+04 3.640e-10
 13.34183    -46.4 1.108e+04 3.754e-10
 13.37161    -46.0 1.105e+04 3.819e-10
 13.39144    -45.2 1.088e+04 3.802e-10
 13.41136    -44.1 1.077e+04 3.859e-10
 13.43027    -42.9 1.102e+04 4.497e-10
 13.44023    -42.1 1.095e+04 4.445e-10
 13.45121    -41.4 1.129e+04 5.113e-10
 13.47114    -41.1 1.176e+04 6.149e-10
 13.49106    -40.8 1.234e+04 7.766e-10
 13.51098    -40.8 1.296e+04 1.015e-09
 13.53017    -40.9 1.351e+04 1.322e-09
 13.54013    -40.1 1.290e+04 1.011e-09
 13.55083    -40.4 1.339e+04 1.292e-09
 13.57076    -40.6 1.382e+04 1.620e-09
 13.59068    -40.9 1.417e+04 1.973e-09
 13.61060    -41.3 1.442e+04 2.302e-09
 13.63007    -41.5 1.450e+04 2.511e-09
 13.64003    -40.7 1.432e+04 2.299e-09
 13.65045    -40.9 1.436e+04 2.444e-09
 13.67037    -41.1 1.419e+04 2.429e-09
 13.69030    -41.5 1.392e+04 2.214e-09
 13.71022    -42.5 1.380e+04 1.975e-09
 13.72997    -44.8 1.385e+04 1.895e-09
 13.73993    -43.7 1.394e+04 1.962e-09
 13.75007    -47.5 1.431e+04 1.981e-09
 13.76999    -51.9 1.514e+04 2.556e-09
 13.78992    -55.1 1.571e+04 3.690e-09
 13.80984    -57.0 1.601e+04 4.627e-09
 13.82977    -58.4 1.606e+04 4.822e-09
 13.83983    -59.3 1.561e+04 4.473e-09
 13.84979    -59.1 1.558e+04 4.411e-09
 13.86961    -59.5 1.466e+04 3.021e-09
 13.88954    -60.0 1.343e+04 1.746e-09
 13.90508    -60.9 1.215e+04 9.521e-10
 13.91504    -62.3 1.221e+04 1.017e-09
 13.92939    -63.3 1.127e+04 6.102e-10
 13.93973    -64.2 1.064e+04 4.163e-10
 13.94969    -64.5 1.049e+04 3.907e-10
 13.96923    -64.8 1.029e+04 3.491e-10
 13.98916    -64.7 1.026e+04 3.408e-10
 14.01914    -65.4 1.019e+04 3.351e-10
 14.03982    -65.4 1.008e+04 3.242e-10
 14.05974    -64.6 1.021e+04 3.590e-10
 14.09893    -64.0 1.011e+04 3.507e-10
 14.13878    -63.1 1.005e+04 3.462e-10
 14.17863    -62.1 1.004e+04 3.466e-10
 14.21848    -61.2 1.007e+04 3.442e-10
 14.23962    -60.4 1.015e+04 3.391e-10
 14.25954    -59.8 1.025e+04 3.584e-10
 14.29817    -59.3 1.033e+04 3.619e-10
 14.33802    -58.8 1.038e+04 3.624e-10
 14.37787    -58.1 1.041e+04 3.698e-10
 14.41772    -57.4 1.045e+04 3.797e-10
 14.43932    -56.9 1.047e+04 3.760e-10
 14.44918    -56.7 1.044e+04 3.821e-10
 14.46733    -56.7 1.044e+04 3.803e-10
 14.48725    -56.8 1.041e+04 3.843e-10
 14.50718    -57.3 1.058e+04 4.191e-10
 14.52032    -57.9 1.091e+04 4.988e-10
 14.53028    -58.6 1.119e+04 6.063e-10
 14.53912    -59.3 1.166e+04 7.634e-10
 14.54908    -59.0 1.158e+04 7.268e-10
 14.56695    -59.8 1.197e+04 8.854e-10
 14.58687    -60.6 1.223e+04 1.023e-09
 14.60680    -61.4 1.231e+04 1.080e-09
 14.62672    -62.4 1.229e+04 1.085e-09
 14.63902    -63.6 1.220e+04 1.054e-09
 14.64898    -63.6 1.181e+04 8.696e-10
 14.66657    -65.5 1.183e+04 8.565e-10
 14.68649    -68.9 1.220e+04 8.868e-10
 14.70642    -73.6 1.349e+04 1.203e-09
 14.72634    -77.9 1.452e+04 2.027e-09
 14.73892    -80.8 1.497e+04 3.113e-09
 14.74888    -80.5 1.523e+04 3.374e-09
 14.76619    -82.2 1.552e+04 4.309e-09
 14.78611    -84.6 1.631e+04 4.573e-09
 14.80604    -90.2 1.903e+04 4.378e-09
 14.82596   -100.4 2.373e+04 4.081e-09
 14.83882   -111.6 2.472e+04 5.171e-09
 14.84878   -109.5 2.465e+04 4.569e-09
 14.86078   -115.3 2.282e+04 6.811e-09
 14.87069   -115.6 2.256e+04 7.245e-09
 14.88065   -116.4 2.195e+04 9.649e-09
 14.88867   -117.0 2.251e+04 1.259e-08
 14.89365   -116.4 2.285e+04 1.245e-08
 14.90058   -117.0 2.291e+04 1.527e-08
 14.91054   -117.5 2.300e+04 1.637e-08
 14.92050   -118.3 2.297e+04 1.639e-08
 14.93046   -119.1 2.280e+04 1.450e-08
 14.93862   -119.8 2.260e+04 1.222e-08
 14.94360   -119.8 2.283e+04 1.306e-08
 14.95039   -120.3 2.261e+04 1.113e-08
 14.96035   -121.0 2.196e+04 9.206e-09
 14.97031   -122.1 2.053e+04 7.380e-09
 14.98027   -123.4 1.848e+04 5.903e-09
 14.98857   -124.5 1.672e+04 4.983e-09
 14.99355   -124.5 1.684e+04 5.527e-09
 15.00020   -124.8 1.628e+04 5.175e-09
 15.01016   -124.8 1.619e+04 5.126e-09
 15.02012   -124.7 1.635e+04 5.400e-09
 15.03008   -124.5 1.695e+04 6.022e-09
 15.03852   -124.3 1.772e+04 6.873e-09
 15.04350   -124.3 1.852e+04 8.510e-09
 15.05001   -123.9 1.939e+04 9.945e-09
 15.05997   -123.5 2.013e+04 1.152e-08
 15.06993   -123.2 2.067e+04 1.289e-08
 15.08492   -122.9 2.132e+04 1.464e-08
 15.09987   -122.0 2.198e+04 1.806e-08
 15.10978   -121.7 2.235e+04 2.124e-08
 15.11974   -121.5 2.290e+04 2.895e-08
 15.12970   -121.2 2.325e+04 4.556e-08
 15.13546   -120.4 2.327e+04 7.786e-08
 15.13919   -119.7 2.287e+04 6.937e-08
 15.14340   -119.8 2.333e+04 1.027e-07
 15.14963   -118.5 2.332e+04 1.990e-07
 15.15959   -117.7 2.331e+04 3.539e-07
 15.16955   -117.9 2.340e+04 5.110e-07
 15.17951   -121.3 2.348e+04 5.636e-07
 15.18837   -123.9 2.317e+04 5.222e-07
 15.19335   -125.8 2.340e+04 5.524e-07
 15.19944   -126.4 2.328e+04 3.515e-07
 15.20940   -126.2 2.366e+04 2.096e-07
 15.21936   -126.1 2.410e+04 1.340e-07
 15.22932   -126.1 2.426e+04 9.412e-08
 15.23831   -126.1 2.418e+04 7.055e-08
 15.24330   -126.9 2.417e+04 5.862e-08
 15.24925   -127.0 2.405e+04 4.836e-08
 15.25921   -127.3 2.407e+04 4.261e-08
 15.26917   -128.2 2.415e+04 4.104e-08
 15.27913   -130.7 2.425e+04 4.099e-08
 15.28826   -134.9 2.536e+04 4.660e-08
 15.29325   -136.1 2.490e+04 4.609e-08
 15.29906   -140.4 2.546e+04 7.999e-08
 15.30902   -145.3 2.555e+04 1.449e-07
 15.31898   -151.5 2.554e+04 2.186e-07
 15.32894   -158.8 2.534e+04 2.545e-07
 15.33821   -166.1 2.519e+04 2.566e-07
 15.34319   -164.7 2.453e+04 3.618e-07
 15.34887   -171.1 2.425e+04 2.972e-07
 15.35883   -176.1 2.482e+04 1.609e-07
 15.36879   -180.2 2.543e+04 7.344e-08
 15.37875   -183.9 2.506e+04 3.338e-08
 15.38816   -187.3 2.323e+04 1.651e-08
 15.39314   -185.3 2.412e+04 2.538e-08
 15.39868   -188.5 2.203e+04 1.329e-08
 15.40864   -191.3 1.945e+04 7.881e-09
 15.41860   -193.4 1.731e+04 5.424e-09
 15.42856   -194.4 1.618e+04 4.341e-09
 15.43810   -194.7 1.584e+04 3.967e-09
 15.44308   -193.2 1.654e+04 4.933e-09
 15.44849   -194.0 1.602e+04 4.393e-09
 15.45845   -194.4 1.588e+04 4.207e-09
 15.46841   -194.7 1.586e+04 4.165e-09
 15.47837   -195.1 1.582e+04 4.159e-09
 15.48806   -195.5 1.580e+04 4.162e-09
 15.49304   -195.6 1.601e+04 4.531e-09
 15.49830   -196.2 1.598e+04 4.553e-09
 15.50826   -196.7 1.595e+04 4.610e-09
 15.51822   -197.4 1.598e+04 4.809e-09
 15.52818   -197.9 1.624e+04 5.156e-09
 15.53801   -198.5 1.655e+04 5.685e-09
 15.54299   -199.0 1.729e+04 7.336e-09
 15.54811   -199.4 1.770e+04 8.378e-09
 15.55807   -199.8 1.816e+04 9.587e-09
 15.56803   -200.1 1.860e+04 1.065e-08
 15.57799   -200.7 1.891e+04 1.126e-08
 15.58795   -201.8 1.898e+04 1.136e-08
 15.59791   -203.7 1.894e+04 1.043e-08
 15.60788   -204.6 1.823e+04 8.668e-09
 15.61784   -205.3 1.737e+04 6.845e-09
 15.62780   -205.8 1.657e+04 5.472e-09
 15.63796   -205.9 1.602e+04 4.574e-09
 15.64797   -206.9 1.587e+04 4.017e-09
 15.66277   -207.3 1.504e+04 2.682e-09
 15.68269   -208.9 1.376e+04 1.537e-09
 15.70261   -210.8 1.219e+04 8.893e-10
 15.72254   -212.1 1.089e+04 5.882e-10
 15.73791   -212.7 1.028e+04 4.598e-10
 15.74625   -213.2 1.033e+04 4.732e-10
 15.75080   -212.9 1.040e+04 5.126e-10
 15.76238   -212.9 1.024e+04 4.522e-10
 15.78231   -213.0 1.008e+04 4.056e-10
 15.80223   -212.8 9.971e+03 3.716e-10
 15.82216   -212.5 9.983e+03 3.571e-10
 15.83781   -212.6 1.001e+04 3.554e-10
 15.84777   -214.3 1.030e+04 4.489e-10
 15.86200   -214.8 1.044e+04 4.690e-10
 15.88193   -215.5 1.058e+04 5.027e-10
 15.90185   -216.3 1.070e+04 5.471e-10
 15.92178   -217.0 1.079e+04 5.911e-10
 15.93770   -217.6 1.088e+04 6.279e-10
 15.94767   -219.1 1.131e+04 7.848e-10
 15.96162   -219.7 1.144e+04 8.252e-10
 15.98155   -220.4 1.157e+04 8.756e-10
 16.00147   -221.1 1.167e+04 9.376e-10
 16.02140   -221.6 1.173e+04 1.008e-09
 16.03760   -222.0 1.175e+04 1.078e-09
 16.04757   -223.4 1.195e+04 1.270e-09
 16.06124   -223.4 1.181e+04 1.236e-09
 16.08117   -223.2 1.161e+04 1.162e-09
 16.10109   -222.7 1.146e+04 1.097e-09
 16.12101   -222.1 1.131e+04 1.024e-09
 16.13750   -221.5 1.115e+04 9.253e-10
 16.14746   -222.4 1.098e+04 7.761e-10
 16.16086   -222.1 1.079e+04 6.352e-10
 16.18079   -222.0 1.055e+04 5.025e-10
 16.20071   -221.9 1.027e+04 4.063e-10
 16.22063   -221.2 1.008e+04 3.645e-10
 16.23750   -219.7 9.973e+03 3.456e-10
 16.25752   -220.6 9.508e+03 2.717e-10
 16.29056   -217.9 9.038e+03 2.171e-10
 16.33041   -215.6 8.752e+03 1.817e-10
 16.35627   -213.3 8.671e+03 1.652e-10
 16.37620   -213.3 8.470e+03 1.355e-10
 16.41011   -210.9 8.468e+03 1.331e-10
 16.43739   -208.7 8.470e+03 1.329e-10
 16.45732   -209.3 8.466e+03 1.331e-10
 16.48980   -207.3 8.566e+03 1.387e-10
 16.52965   -205.7 8.796e+03 1.686e-10
 16.56950   -204.3 9.107e+03 2.246e-10
 16.60935   -203.2 9.525e+03 3.107e-10
 16.63719   -202.4 1.003e+04 4.331e-10
 16.65712   -203.2 1.019e+04 4.595e-10
 16.68904   -202.6 1.081e+04 6.467e-10
 16.72889   -202.0 1.131e+04 8.432e-10
 16.75868   -202.3 1.163e+04 9.906e-10
 16.77850   -203.2 1.175e+04 1.065e-09
 16.79843   -204.0 1.176e+04 1.094e-09
 16.81835   -204.5 1.155e+04 1.084e-09
 16.83679   -204.7 1.136e+04 9.794e-10
 16.84676   -205.4 1.128e+04 9.381e-10
 16.85820   -205.5 1.108e+04 8.058e-10
 16.87812   -205.7 1.091e+04 6.990e-10
 16.89805   -205.8 1.081e+04 6.246e-10
 16.91797   -206.1 1.073e+04 5.815e-10
 16.93669   -206.4 1.072e+04 5.567e-10
 16.94666   -207.5 1.089e+04 5.992e-10
 16.95782   -208.0 1.109e+04 6.338e-10
 16.97132   -208.7 1.137e+04 6.951e-10
 16.98128   -208.7 1.121e+04 6.296e-10
 16.99767   -209.5 1.147e+04 7.106e-10
 17.01759   -210.5 1.184e+04 8.252e-10
 17.03659   -211.6 1.222e+04 9.943e-10
 17.04655   -213.4 1.292e+04 1.487e-09
 17.05744   -214.4 1.321e+04 1.787e-09
 17.07736   -215.3 1.348e+04 2.105e-09
 17.09729   -216.3 1.370e+04 2.377e-09
 17.11721   -217.2 1.390e+04 2.490e-09
 17.13649   -218.3 1.396e+04 2.508e-09
 17.14645   -220.0 1.400e+04 2.444e-09
 17.15706   -221.3 1.391e+04 2.279e-09
 17.17698   -222.8 1.361e+04 1.945e-09
 17.19691   -223.9 1.314e+04 1.622e-09
 17.21683   -224.4 1.270e+04 1.415e-09
 17.23649   -224.5 1.240e+04 1.252e-09
 17.25651   -224.8 1.180e+04 9.882e-10
 17.28676   -224.6 1.112e+04 7.376e-10
 17.32661   -224.0 1.063e+04 5.535e-10
 17.36645   -223.1 1.020e+04 4.029e-10
 17.40630   -221.9 9.829e+03 2.895e-10
 17.43638   -220.6 9.544e+03 2.108e-10
 17.45631   -221.1 9.488e+03 1.945e-10
 17.48600   -219.7 9.316e+03 1.590e-10
 17.52585   -218.1 9.205e+03 1.348e-10
 17.56569   -216.4 9.137e+03 1.195e-10
 17.58676   -214.6 9.108e+03 1.112e-10
 17.60668   -214.8 9.259e+03 1.491e-10
 17.63618   -212.9 9.239e+03 1.438e-10
 17.65611   -213.3 9.296e+03 1.598e-10
 17.68524   -211.4 9.299e+03 1.597e-10
 17.72508   -209.4 9.314e+03 1.600e-10
 17.76493   -207.5 9.344e+03 1.600e-10
 17.80478   -205.5 9.396e+03 1.591e-10
 17.83598   -203.6 9.452e+03 1.589e-10
 17.85590   -204.0 9.478e+03 1.661e-10
 17.88448   -202.2 9.489e+03 1.576e-10
 17.92432   -200.3 9.505e+03 1.507e-10
 17.96417   -198.5 9.530e+03 1.448e-10
 18.00402   -196.8 9.564e+03 1.402e-10
 18.03578   -195.1 9.591e+03 1.367e-10
 18.05570   -195.3 9.442e+03 1.050e-10
 18.08371   -193.8 9.457e+03 1.039e-10
 18.12356   -192.3 9.528e+03 1.072e-10
 18.16341   -190.9 9.564e+03 1.156e-10
 18.20326   -189.4 9.574e+03 1.240e-10
 18.23557   -187.7 9.566e+03 1.272e-10
 18.25550   -188.0 9.593e+03 1.314e-10
 18.28295   -186.3 9.597e+03 1.338e-10
 18.32280   -184.5 9.606e+03 1.346e-10
 18.36265   -182.7 9.640e+03 1.354e-10
 18.40250   -181.0 9.741e+03 1.422e-10
 18.43537   -179.3 9.900e+03 1.639e-10
 18.45530   -180.2 1.004e+04 1.983e-10
 18.48219   -178.7 1.022e+04 2.474e-10
 18.52204   -177.4 1.042e+04 3.066e-10
 18.56189   -176.2 1.059e+04 3.615e-10
 18.60174   -175.2 1.071e+04 3.978e-10
 18.63517   -174.3 1.075e+04 4.129e-10
 18.65509   -175.7 1.073e+04 4.113e-10
 18.68143   -174.7 1.054e+04 4.015e-10
 18.72128   -173.5 1.031e+04 3.571e-10
 18.76113   -172.0 1.000e+04 2.988e-10
 18.79731   -170.3 9.657e+03 2.391e-10
 18.81724   -170.1 9.646e+03 2.115e-10
 18.83497   -168.3 9.390e+03 1.727e-10
 18.85489   -168.6 9.147e+03 1.502e-10
 18.88067   -166.3 9.134e+03 1.414e-10
 18.92052   -163.8 9.140e+03 1.403e-10
 18.96037   -161.5 9.292e+03 1.468e-10
 19.00021   -159.4 9.612e+03 1.867e-10
 19.03477   -157.3 9.954e+03 2.582e-10
 19.05469   -157.1 9.841e+03 2.339e-10
 19.07991   -154.9 1.022e+04 3.253e-10
 19.11976   -152.9 1.060e+04 4.347e-10
 19.15961   -150.9 1.091e+04 5.419e-10
 19.19945   -148.8 1.114e+04 6.265e-10
 19.23456   -146.7 1.123e+04 6.667e-10
 19.25449   -146.3 1.128e+04 6.902e-10
 19.27915   -144.5 1.137e+04 7.279e-10
 19.30894   -143.0 1.140e+04 7.533e-10
 19.32876   -142.3 1.136e+04 7.318e-10
 19.34423   -141.4 1.132e+04 7.075e-10
 19.35419   -141.1 1.150e+04 7.845e-10
 19.36861   -140.4 1.149e+04 7.686e-10
 19.38854   -139.6 1.150e+04 7.605e-10
 19.40846   -139.0 1.150e+04 7.546e-10
 19.42232   -138.4 1.150e+04 7.513e-10
 19.43228   -138.5 1.150e+04 7.164e-10
 19.44413   -138.0 1.164e+04 7.671e-10
 19.45419   -138.1 1.174e+04 7.740e-10
 19.46833   -137.4 1.185e+04 8.275e-10
 19.48815   -137.3 1.221e+04 9.381e-10
 19.50808   -137.3 1.266e+04 1.079e-09
 19.52800   -137.7 1.324e+04 1.283e-09
 19.54403   -138.3 1.392e+04 1.597e-09
 19.55399   -138.3 1.401e+04 1.699e-09
 19.56785   -138.8 1.455e+04 2.191e-09
 19.58777   -139.1 1.502e+04 2.811e-09
 19.60770   -139.2 1.535e+04 3.441e-09
 19.62762   -139.4 1.540e+04 3.798e-09
 19.64393   -139.8 1.532e+04 3.823e-09
 19.65389   -139.7 1.468e+04 3.162e-09
 19.66747   -140.3 1.423e+04 2.637e-09
 19.68739   -140.9 1.363e+04 2.007e-09
 19.70732   -141.7 1.297e+04 1.469e-09
 19.72724   -142.4 1.237e+04 1.092e-09
 19.74383   -143.0 1.192e+04 8.500e-10
 19.75379   -143.3 1.188e+04 8.308e-10
 19.76709   -143.5 1.163e+04 7.172e-10
 19.78701   -143.6 1.143e+04 6.368e-10
 19.80694   -143.5 1.127e+04 5.830e-10
 19.82686   -143.1 1.115e+04 5.520e-10
 19.84372   -142.8 1.108e+04 5.399e-10
 19.85369   -143.4 1.113e+04 6.019e-10
 19.86671   -143.1 1.107e+04 5.944e-10
 19.88663   -142.7 1.103e+04 5.925e-10
 19.90656   -142.2 1.100e+04 5.960e-10
 19.92648   -141.7 1.099e+04 6.019e-10
 19.94362   -141.1 1.101e+04 6.020e-10
 19.95358   -141.9 1.090e+04 5.906e-10
 19.96633   -141.2 1.090e+04 5.808e-10
 19.98625   -140.7 1.092e+04 5.784e-10
 20.00618   -140.7 1.099e+04 5.905e-10
 20.02610   -141.2 1.145e+04 6.563e-10
 20.03756   -142.8 1.242e+04 9.446e-10
 20.04502   -143.6 1.391e+04 1.667e-09
 20.05348   -145.0 1.414e+04 1.937e-09
 20.06595   -145.3 1.530e+04 3.387e-09
 20.08587   -144.7 1.649e+04 5.816e-09
 20.10580   -143.7 1.759e+04 9.075e-09
 20.12572   -143.1 1.848e+04 1.213e-08
 20.14342   -143.2 1.902e+04 1.392e-08
 20.15338   -144.0 1.849e+04 1.195e-08
 20.16557   -144.2 1.848e+04 1.147e-08
 20.18549   -144.1 1.796e+04 8.328e-09
 20.20542   -144.2 1.694e+04 4.921e-09
 20.22534   -145.4 1.546e+04 2.634e-09
 20.24332   -147.5 1.358e+04 1.414e-09
 20.25328   -149.8 1.176e+04 9.057e-10
 20.26519   -151.4 1.065e+04 6.579e-10
 20.28511   -152.0 1.034e+04 5.799e-10
 20.30503   -152.1 1.014e+04 5.324e-10
 20.32496   -151.9 1.000e+04 4.871e-10
 20.34322   -151.5 9.902e+03 4.423e-10
 20.35318   -151.4 9.905e+03 4.517e-10
 20.36481   -151.1 9.857e+03 4.194e-10
 20.38473   -150.9 9.848e+03 3.945e-10
 20.40465   -150.9 9.877e+03 3.773e-10
 20.42458   -150.9 9.914e+03 3.710e-10
 20.44312   -151.3 1.005e+04 3.718e-10
 20.45318   -150.9 9.860e+03 3.650e-10
 20.47458   -150.7 1.011e+04 3.799e-10
 20.51443   -150.6 1.085e+04 5.149e-10
 20.54311   -151.3 1.151e+04 7.881e-10
 20.55298   -150.4 1.126e+04 7.142e-10
 20.56405   -150.3 1.155e+04 9.034e-10
 20.58397   -150.2 1.184e+04 1.119e-09
 20.60389   -150.0 1.208e+04 1.307e-09
 20.62382   -149.7 1.227e+04 1.474e-09
 20.64284   -149.5 1.241e+04 1.597e-09
 20.65280   -148.5 1.284e+04 1.844e-09
 20.66367   -148.2 1.297e+04 1.960e-09
 20.68359   -147.9 1.299e+04 1.987e-09
 20.70351   -147.4 1.295e+04 1.963e-09
 20.72344   -146.6 1.274e+04 1.811e-09
 20.74281   -145.7 1.248e+04 1.619e-09
 20.75278   -144.6 1.272e+04 1.777e-09
 20.76328   -143.8 1.250e+04 1.613e-09
 20.78321   -142.8 1.227e+04 1.471e-09
 20.80313   -141.8 1.213e+04 1.366e-09
 20.82306   -140.7 1.206e+04 1.290e-09
 20.84271   -139.7 1.204e+04 1.229e-09
 20.85268   -138.9 1.241e+04 1.439e-09
 20.86290   -137.9 1.242e+04 1.384e-09
 20.88283   -136.9 1.244e+04 1.333e-09
 20.90275   -135.9 1.247e+04 1.287e-09
 20.92268   -135.0 1.246e+04 1.248e-09
 20.94260   -134.0 1.245e+04 1.215e-09
 20.96252   -132.3 1.283e+04 1.470e-09
 20.98245   -131.3 1.283e+04 1.458e-09
 21.00237   -130.2 1.280e+04 1.442e-09
 21.02230   -129.3 1.275e+04 1.419e-09
 21.04222   -128.4 1.271e+04 1.394e-09
 21.05247   -127.7 1.271e+04 1.384e-09
 21.06243   -127.2 1.314e+04 1.777e-09
 21.08207   -126.9 1.319e+04 1.813e-09
 21.10199   -126.8 1.331e+04 1.955e-09
 21.12191   -126.8 1.358e+04 2.246e-09
 21.14184   -126.5 1.393e+04 2.668e-09
 21.15237   -126.0 1.423e+04 3.100e-09
 21.16233   -125.5 1.513e+04 4.298e-09
 21.18169   -125.2 1.541e+04 4.694e-09
 21.20161   -125.1 1.555e+04 4.864e-09
 21.22153   -125.2 1.544e+04 4.620e-09
 21.24146   -125.5 1.529e+04 4.231e-09
 21.25227   -126.2 1.524e+04 3.908e-09
 21.25893   -126.2 1.563e+04 4.395e-09
 21.26800   -125.9 1.598e+04 4.449e-09
 21.27623   -126.5 1.592e+04 4.339e-09
 21.28619   -127.0 1.591e+04 4.317e-09
 21.29615   -127.8 1.592e+04 4.311e-09
 21.30212   -128.5 1.596e+04 4.381e-09
 21.30710   -129.1 1.614e+04 4.769e-09
 21.31608   -129.9 1.623e+04 5.120e-09
 21.32604   -130.5 1.636e+04 5.615e-09
 21.33600   -130.9 1.648e+04 6.207e-09
 21.34596   -131.2 1.656e+04 6.721e-09
 21.35207   -131.4 1.658e+04 7.032e-09
 21.35705   -131.4 1.696e+04 8.091e-09
 21.36589   -131.4 1.706e+04 8.475e-09
 21.38088   -131.3 1.713e+04 8.791e-09
 21.40085   -131.3 1.661e+04 7.306e-09
 21.42077   -131.3 1.628e+04 5.712e-09
 21.44070   -131.8 1.625e+04 4.691e-09
 21.45202   -132.0 1.626e+04 4.023e-09
 21.45695   -131.5 1.628e+04 3.949e-09
 21.46550   -131.9 1.625e+04 3.795e-09
 21.47547   -132.6 1.628e+04 3.707e-09
 21.48543   -133.7 1.647e+04 3.732e-09
 21.49539   -136.3 1.961e+04 3.788e-09
 21.50192   -140.5 2.433e+04 5.032e-09
 21.50690   -144.8 2.702e+04 8.520e-09
 21.51531   -148.1 2.658e+04 1.832e-08
 21.52528   -149.9 2.476e+04 3.967e-08
 21.53524   -150.5 2.311e+04 7.825e-08
 21.54520   -150.7 2.214e+04 1.292e-07
 21.55187   -150.6 2.175e+04 1.696e-07
 21.55685   -150.7 2.171e+04 2.473e-07
 21.56512   -150.9 2.161e+04 2.493e-07
 21.57059   -151.0 2.162e+04 2.136e-07
 21.57557   -150.3 2.164e+04 2.136e-07
 21.58505   -150.2 2.169e+04 1.595e-07
 21.59501   -149.7 2.170e+04 1.036e-07
 21.60182   -148.9 2.180e+04 6.135e-08
 21.60680   -150.0 2.260e+04 4.224e-08
 21.61493   -150.3 2.287e+04 2.207e-08
 21.62490   -151.6 2.243e+04 1.267e-08
 21.63486   -152.6 2.130e+04 8.692e-09
 21.64482   -152.8 2.034e+04 7.279e-09
 21.65182   -152.0 1.959e+04 6.534e-09
 21.66183   -155.2 1.816e+04 4.292e-09
 21.67978   -154.9 1.561e+04 2.804e-09
 21.69971   -154.0 1.403e+04 2.177e-09
 21.71963   -152.9 1.329e+04 1.849e-09
 21.73956   -151.3 1.286e+04 1.510e-09
 21.75177   -149.2 1.235e+04 1.227e-09
 21.76173   -149.3 1.248e+04 1.378e-09
 21.77940   -147.5 1.253e+04 1.284e-09
 21.79933   -147.5 1.354e+04 1.221e-09
 21.81925   -154.2 3.358e+04 7.854e-10
 21.83918   -163.8 4.491e+04 1.957e-09
 21.85162   -166.5 4.204e+04 6.221e-09
 21.85655   -167.4 4.229e+04 8.062e-09
 21.86398   -169.9 3.477e+04 2.026e-08
 21.87323   -172.1 2.769e+04 4.789e-08
 21.87821   -169.3 3.503e+04 3.845e-08
 21.88391   -171.7 2.832e+04 9.540e-08
 21.89387   -174.3 2.486e+04 1.743e-07
 21.90152   -176.9 2.449e+04 2.221e-07
 21.90650   -178.8 2.380e+04 4.787e-07
 21.91128   -181.6 2.539e+04 2.826e-07
 21.91623   -184.2 2.608e+04 2.721e-07
 21.92122   -188.3 2.700e+04 2.368e-07
 21.92620   -190.6 2.682e+04 2.531e-07
 21.92893   -192.0 2.649e+04 2.641e-07
 21.93142   -191.8 2.223e+04 8.037e-07
 21.93616   -192.3 2.265e+04 7.095e-07
 21.94114   -193.0 2.489e+04 4.203e-07
 21.94612   -195.5 2.923e+04 1.836e-07
 21.95110   -199.1 3.544e+04 6.413e-08
 21.95391   -202.1 3.755e+04 3.572e-08
 21.95640   -208.7 3.811e+04 3.344e-08
 21.96358   -212.9 3.621e+04 2.682e-08
 21.97356   -220.8 3.060e+04 1.738e-08
 21.98353   -225.7 2.573e+04 1.511e-08
 21.99349   -227.1 2.492e+04 1.494e-08
 22.00141   -227.9 2.498e+04 1.648e-08
 22.00640   -230.7 2.535e+04 2.606e-08
 22.01341   -231.6 2.564e+04 3.196e-08
 22.02337   -232.8 2.557e+04 4.218e-08
 22.03334   -234.0 2.524e+04 5.857e-08
 22.04330   -235.0 2.513e+04 8.140e-08
 22.05136   -236.1 2.485e+04 1.108e-07
 22.05635   -237.7 2.368e+04 8.136e-08
 22.06322   -238.9 2.359e+04 8.439e-08
 22.07318   -240.2 2.320e+04 8.190e-08
 22.08315   -241.6 2.280e+04 6.081e-08
 22.09311   -242.9 2.225e+04 3.692e-08
 22.10131   -244.2 2.153e+04 1.952e-08
 22.10629   -245.8 2.085e+04 1.024e-08
 22.11303   -247.1 2.016e+04 7.306e-09
 22.12299   -248.4 1.952e+04 5.460e-09
 22.13296   -249.5 1.886e+04 4.186e-09
 22.14292   -250.7 1.821e+04 3.365e-09
 22.15131   -252.9 1.685e+04 2.448e-09
 22.16132   -256.9 1.418e+04 1.276e-09
 22.17788   -258.6 1.313e+04 1.184e-09
 22.19781   -259.3 1.280e+04 1.196e-09
 22.21773   -259.4 1.290e+04 1.436e-09
 22.23765   -259.5 1.320e+04 1.655e-09
 22.25126   -259.5 1.342e+04 1.890e-09
 22.26122   -259.8 1.341e+04 1.864e-09
 22.27750   -259.9 1.361e+04 2.044e-09
 22.29743   -260.1 1.377e+04 2.180e-09
 22.31735   -260.5 1.389e+04 2.272e-09
 22.33727   -261.0 1.397e+04 2.310e-09
 22.35116   -261.6 1.399e+04 2.315e-09
 22.36112   -261.8 1.365e+04 1.813e-09
 22.37712   -262.4 1.362e+04 1.752e-09
 22.39704   -263.0 1.353e+04 1.680e-09
 22.41697   -263.6 1.339e+04 1.598e-09
 22.43689   -263.9 1.321e+04 1.505e-09
 22.45106   -264.1 1.301e+04 1.401e-09
 22.46102   -263.7 1.264e+04 1.184e-09
 22.47674   -263.6 1.254e+04 1.157e-09
 22.48856   -263.3 1.242e+04 1.109e-09
 22.49853   -262.6 1.258e+04 1.172e-09
 22.51659   -262.2 1.249e+04 1.127e-09
 22.53651   -261.6 1.236e+04 1.048e-09
 22.55096   -261.0 1.220e+04 9.448e-10
 22.56092   -260.4 1.239e+04 1.059e-09
 22.57636   -259.7 1.225e+04 9.695e-10
 22.59628   -258.9 1.209e+04 8.694e-10
 22.61621   -258.1 1.191e+04 7.769e-10
 22.63613   -257.2 1.176e+04 7.008e-10
 22.65086   -256.3 1.163e+04 6.434e-10
 22.66082   -256.1 1.197e+04 8.125e-10
 22.67598   -255.2 1.180e+04 7.398e-10
 22.69590   -254.1 1.165e+04 6.817e-10
 22.71583   -253.0 1.152e+04 6.351e-10
 22.73575   -251.8 1.141e+04 5.965e-10
 22.75075   -250.4 1.131e+04 5.630e-10
 22.76072   -250.4 1.141e+04 6.328e-10
 22.77560   -249.0 1.130e+04 5.880e-10
 22.79552   -247.6 1.123e+04 5.523e-10
 22.81545   -246.2 1.118e+04 5.234e-10
 22.83537   -244.7 1.115e+04 5.007e-10
 22.85065   -243.2 1.117e+04 4.866e-10
 22.86062   -243.4 1.143e+04 5.499e-10
 22.87522   -241.9 1.144e+04 5.479e-10
 22.89514   -240.5 1.149e+04 5.500e-10
 22.91507   -239.2 1.157e+04 5.623e-10
 22.93499   -237.9 1.163e+04 5.789e-10
 22.95055   -236.6 1.168e+04 5.964e-10
 22.96051   -237.0 1.185e+04 6.906e-10
 22.97484   -235.7 1.184e+04 6.951e-10
 22.99476   -234.5 1.176e+04 6.985e-10
 23.01469   -233.2 1.171e+04 6.862e-10
 23.03461   -231.9 1.164e+04 6.665e-10
 23.05045   -230.7 1.157e+04 6.381e-10
 23.06041   -231.4 1.168e+04 6.681e-10
 23.07446   -230.2 1.161e+04 6.302e-10
 23.09384   -229.0 1.157e+04 5.969e-10
 23.10381   -229.6 1.189e+04 7.204e-10
 23.11431   -228.5 1.186e+04 6.963e-10
 23.13423   -227.3 1.186e+04 6.894e-10
 23.15035   -226.1 1.188e+04 6.907e-10
 23.16031   -227.3 1.232e+04 9.893e-10
 23.17408   -226.2 1.239e+04 1.063e-09
 23.19400   -225.0 1.246e+04 1.154e-09
 23.21392   -223.8 1.254e+04 1.259e-09
 23.23385   -222.5 1.261e+04 1.373e-09
 23.25025   -221.3 1.268e+04 1.484e-09
 23.26021   -221.9 1.298e+04 1.964e-09
 23.27370   -220.7 1.297e+04 1.970e-09
 23.29362   -219.4 1.290e+04 1.898e-09
 23.31354   -218.1 1.283e+04 1.794e-09
 23.33347   -216.9 1.283e+04 1.714e-09
 23.35015   -216.0 1.291e+04 1.652e-09
 23.36011   -217.6 1.317e+04 1.702e-09
 23.37332   -217.2 1.390e+04 1.834e-09
 23.39324   -216.8 1.460e+04 2.087e-09
 23.41316   -216.4 1.513e+04 2.331e-09
 23.43309   -216.2 1.540e+04 2.480e-09
 23.45005   -216.3 1.545e+04 2.513e-09
 23.46001   -217.4 1.519e+04 3.191e-09
 23.47294   -217.5 1.500e+04 3.087e-09
 23.49286   -217.6 1.468e+04 2.789e-09
 23.51278   -217.6 1.431e+04 2.445e-09
 23.53271   -217.7 1.393e+04 2.143e-09
 23.54995   -217.7 1.356e+04 1.926e-09
 23.55991   -217.9 1.320e+04 2.220e-09
 23.57256   -217.5 1.295e+04 2.069e-09
 23.59248   -216.8 1.276e+04 1.945e-09
 23.61240   -216.2 1.260e+04 1.830e-09
 23.63233   -215.5 1.248e+04 1.712e-09
 23.64984   -214.8 1.239e+04 1.591e-09
 23.65981   -214.3 1.211e+04 1.180e-09
 23.67217   -213.7 1.198e+04 1.038e-09
 23.69210   -213.0 1.184e+04 9.201e-10
 23.70908   -212.3 1.174e+04 8.386e-10
 23.71905   -213.0 1.185e+04 8.523e-10
 23.73195   -212.5 1.175e+04 8.107e-10
 23.74974   -212.2 1.166e+04 7.846e-10
 23.75971   -212.0 1.152e+04 6.379e-10
 23.77179   -211.3 1.134e+04 5.660e-10
 23.79172   -210.5 1.131e+04 5.496e-10
 23.81164   -209.7 1.130e+04 5.327e-10
 23.83157   -208.9 1.131e+04 5.170e-10
 23.84964   -208.0 1.132e+04 5.010e-10
 23.85960   -207.8 1.109e+04 3.552e-10
 23.87141   -207.4 1.096e+04 3.247e-10
 23.90140   -207.2 1.073e+04 2.906e-10
 23.94134   -205.6 1.057e+04 2.796e-10
 23.98119   -204.4 1.051e+04 2.763e-10
 24.02104   -203.3 1.051e+04 2.997e-10
 24.04964   -202.5 1.062e+04 3.692e-10
 24.06956   -201.3 1.022e+04 2.610e-10
 24.10073   -200.4 1.045e+04 3.301e-10
 24.14058   -199.5 1.068e+04 4.459e-10
 24.18043   -198.3 1.088e+04 5.912e-10
 24.22028   -196.9 1.103e+04 7.263e-10
 24.24943   -195.5 1.106e+04 7.981e-10
 24.26936   -195.1 1.096e+04 7.344e-10
 24.29997   -193.8 1.095e+04 7.605e-10
 24.33982   -192.4 1.086e+04 7.565e-10
 24.37967   -190.8 1.059e+04 6.767e-10
 24.41952   -189.1 1.032e+04 5.737e-10
 24.44923   -187.3 1.009e+04 4.872e-10
 24.46915   -187.2 9.773e+03 3.283e-10
 24.49921   -185.7 9.600e+03 2.657e-10
 24.53906   -184.4 9.495e+03 2.259e-10
 24.57891   -183.3 9.430e+03 2.030e-10
 24.61876   -182.4 9.367e+03 1.913e-10
 24.64903   -181.5 9.305e+03 1.877e-10
 24.66895   -182.2 9.152e+03 1.581e-10
 24.69845   -181.2 9.169e+03 1.798e-10
 24.73830   -179.9 9.195e+03 2.032e-10
 24.77815   -178.4 9.234e+03 2.249e-10
 24.81799   -176.9 9.277e+03 2.424e-10
 24.84883   -175.3 9.309e+03 2.544e-10
 24.86875   -176.1 9.400e+03 2.576e-10
 24.89769   -174.6 9.481e+03 2.669e-10
 24.92980   -173.1 9.587e+03 2.761e-10
 24.94972   -173.7 9.746e+03 2.923e-10
 24.97739   -172.2 9.858e+03 3.189e-10
 25.01723   -170.6 9.888e+03 3.385e-10
 25.04862   -168.9 9.874e+03 3.474e-10
 25.06855   -169.7 9.969e+03 3.855e-10
 25.09693   -167.5 9.787e+03 3.354e-10
 25.13678   -165.3 9.639e+03 2.954e-10
 25.17662   -163.0 9.531e+03 2.604e-10
 25.21647   -161.0 9.515e+03 2.323e-10
 25.24842   -159.0 9.535e+03 2.152e-10
 25.26835   -159.3 9.527e+03 1.832e-10
 25.29617   -157.4 9.607e+03 1.833e-10
 25.33602   -155.6 9.825e+03 2.047e-10
 25.37586   -153.8 1.004e+04 2.441e-10
 25.41571   -151.8 1.022e+04 2.908e-10
 25.44822   -150.1 1.039e+04 3.359e-10
 25.46814   -150.7 1.092e+04 5.894e-10
 25.49541   -149.5 1.118e+04 7.037e-10
 25.52520   -148.7 1.085e+04 6.482e-10
 25.54485   -149.4 1.186e+04 9.032e-10
 25.55481   -150.1 1.215e+04 1.047e-09
 25.55789   -150.4 1.278e+04 1.349e-09
 25.56785   -151.0 1.354e+04 1.520e-09
 25.58487   -153.0 1.605e+04 2.884e-09
 25.60479   -154.7 1.807e+04 5.863e-09
 25.62472   -155.9 1.925e+04 9.646e-09
 25.64464   -157.3 1.958e+04 1.145e-08
 25.65778   -158.6 1.949e+04 1.156e-08
 25.66775   -159.8 1.952e+04 1.290e-08
 25.68449   -159.8 1.822e+04 8.500e-09
 25.70441   -159.6 1.648e+04 4.061e-09
 25.72434   -160.9 1.487e+04 1.802e-09
 25.74426   -163.0 1.383e+04 1.079e-09
 25.75768   -164.4 1.335e+04 9.446e-10
 25.76765   -163.0 1.284e+04 6.528e-10
 25.78411   -163.8 1.278e+04 6.081e-10
 25.80403   -164.0 1.278e+04 6.517e-10
 25.82396   -163.8 1.284e+04 9.171e-10
 25.84388   -163.3 1.280e+04 1.270e-09
 25.85758   -162.5 1.280e+04 1.571e-09
 25.86754   -162.0 1.287e+04 1.015e-09
 25.88373   -161.3 1.278e+04 1.261e-09
 25.90365   -160.6 1.273e+04 1.402e-09
 25.92358   -160.1 1.272e+04 1.432e-09
 25.94350   -159.7 1.270e+04 1.400e-09
 25.95748   -159.3 1.264e+04 1.278e-09
 25.96744   -158.9 1.264e+04 1.187e-09
 25.98335   -158.7 1.255e+04 1.135e-09
 26.00327   -158.5 1.249e+04 1.069e-09
 26.02320   -158.3 1.244e+04 1.021e-09
 26.04752   -158.3 1.239e+04 9.671e-10
 26.06754   -157.5 1.257e+04 9.942e-10
 26.09312   -157.2 1.272e+04 1.055e-09
 26.13297   -157.0 1.277e+04 1.087e-09
 26.16028   -157.6 1.277e+04 1.082e-09
 26.18021   -155.9 1.281e+04 1.197e-09
 26.21267   -156.5 1.280e+04 1.144e-09
 26.24246   -157.8 1.266e+04 1.052e-09
 26.25718   -158.4 1.264e+04 1.040e-09
 26.26714   -159.8 1.359e+04 1.576e-09
 26.28221   -160.9 1.352e+04 1.598e-09
 26.30213   -161.9 1.343e+04 1.621e-09
 26.32205   -162.8 1.329e+04 1.637e-09
 26.34198   -163.4 1.294e+04 1.654e-09
 26.35708   -163.7 1.244e+04 1.592e-09
 26.36704   -164.0 1.274e+04 2.041e-09
 26.38183   -164.1 1.223e+04 1.623e-09
 26.40175   -164.2 1.169e+04 1.234e-09
 26.42167   -164.3 1.119e+04 9.363e-10
 26.44160   -164.4 1.074e+04 7.259e-10
 26.45698   -164.5 1.039e+04 5.820e-10
 26.46694   -165.6 1.070e+04 6.618e-10
 26.48145   -165.9 1.065e+04 6.157e-10
 26.50137   -166.0 1.064e+04 6.007e-10
 26.52129   -165.7 1.064e+04 5.953e-10
 26.54122   -165.2 1.063e+04 5.898e-10
 26.55687   -164.3 1.054e+04 5.799e-10
 26.56684   -165.5 1.048e+04 7.637e-10
 26.58106   -164.2 1.010e+04 6.479e-10
 26.61105   -162.6 9.863e+03 5.140e-10
 26.64701   -161.6 9.531e+03 4.315e-10
 26.66693   -162.7 9.210e+03 3.568e-10
 26.69084   -160.9 8.719e+03 2.525e-10
 26.73069   -159.0 8.297e+03 1.888e-10
 26.77054   -157.3 8.147e+03 1.684e-10
 26.81038   -155.8 8.122e+03 1.655e-10
 26.84680   -154.6 8.175e+03 1.771e-10
 26.86673   -155.5 8.217e+03 1.882e-10
 26.89008   -154.5 8.290e+03 2.113e-10
 26.92993   -153.4 8.300e+03 2.169e-10
 26.96978   -152.3 8.265e+03 2.141e-10
 27.00962   -151.2 8.164e+03 1.870e-10
 27.04660   -150.2 8.078e+03 1.546e-10
 27.06653   -151.0 7.910e+03 1.289e-10
 27.08932   -150.2 7.912e+03 1.205e-10
 27.12917   -149.5 7.920e+03 1.192e-10
 27.16902   -149.0 8.041e+03 1.212e-10
 27.20886   -148.7 8.166e+03 1.303e-10
 27.24640   -148.5 8.245e+03 1.393e-10
 27.26632   -149.2 8.433e+03 1.656e-10
 27.28856   -149.1 8.444e+03 1.667e-10
 27.32841   -148.9 8.422e+03 1.614e-10
 27.36825   -148.5 8.391e+03 1.474e-10
 27.39076   -147.8 8.368e+03 1.332e-10
 27.41069   -147.3 8.652e+03 1.778e-10
 27.44620   -146.7 8.606e+03 1.607e-10
 27.46612   -147.0 8.896e+03 1.970e-10
 27.48780   -146.3 8.749e+03 1.657e-10
 27.52765   -145.3 8.650e+03 1.437e-10
 27.56749   -144.1 8.623e+03 1.287e-10
 27.60734   -142.8 8.655e+03 1.189e-10
 27.64600   -141.5 8.771e+03 1.120e-10
 27.66592   -141.9 9.110e+03 1.420e-10
 27.68704   -140.7 9.267e+03 1.505e-10
 27.72688   -139.5 9.382e+03 1.578e-10
 27.76673   -138.5 9.490e+03 1.632e-10
 27.80658   -137.9 9.742e+03 1.737e-10
 27.84579   -137.8 1.034e+04 2.201e-10
 27.86572   -140.3 1.228e+04 7.805e-10
 27.88628   -140.5 1.270e+04 1.141e-09
 27.92612   -140.3 1.274e+04 1.319e-09
 27.96597   -139.9 1.257e+04 1.318e-09
 28.00582   -139.3 1.216e+04 1.093e-09
 28.04559   -138.5 1.171e+04 7.967e-10
 28.07538   -138.6 1.153e+04 8.192e-10
 28.09528   -137.8 1.124e+04 6.427e-10
 28.11521   -137.0 1.102e+04 5.004e-10
 28.13513   -136.3 1.092e+04 4.033e-10
 28.16511   -135.7 1.092e+04 3.446e-10
 28.20506   -134.8 1.090e+04 2.973e-10
 28.24491   -134.3 1.093e+04 2.845e-10
 28.26522   -134.9 1.127e+04 3.302e-10
 28.27508   -136.2 1.175e+04 4.522e-10
 28.29452   -136.9 1.198e+04 6.504e-10
 28.31444   -137.5 1.233e+04 9.541e-10
 28.33437   -138.1 1.287e+04 1.388e-09
 28.35429   -138.9 1.354e+04 1.955e-09
 28.36502   -139.8 1.422e+04 2.585e-09
 28.37498   -141.0 1.477e+04 2.933e-09
 28.39414   -142.3 1.528e+04 3.343e-09
 28.41406   -143.5 1.543e+04 3.526e-09
 28.43399   -144.4 1.538e+04 3.576e-09
 28.45391   -144.8 1.498e+04 3.368e-09
 28.46492   -145.1 1.449e+04 2.960e-09
 28.47488   -145.9 1.407e+04 2.994e-09
 28.49376   -145.4 1.376e+04 2.597e-09
 28.51368   -144.7 1.337e+04 2.190e-09
 28.53361   -144.0 1.303e+04 1.759e-09
 28.55353   -143.2 1.270e+04 1.357e-09
 28.56481   -142.6 1.241e+04 1.023e-09
 28.57478   -143.0 1.232e+04 8.264e-10
 28.59338   -142.4 1.215e+04 6.300e-10
 28.61109   -141.8 1.203e+04 4.985e-10
 28.62105   -142.1 1.197e+04 4.496e-10
 28.64329   -141.4 1.188e+04 4.115e-10
 28.66491   -139.6 1.170e+04 3.685e-10
 28.68483   -139.9 1.176e+04 3.508e-10
 28.72308   -138.0 1.168e+04 3.561e-10
 28.76293   -136.1 1.163e+04 3.583e-10
 28.80278   -134.2 1.158e+04 3.538e-10
 28.84262   -132.3 1.154e+04 3.497e-10
 28.86471   -130.5 1.153e+04 3.489e-10
 28.88463   -130.9 1.159e+04 3.286e-10
 28.92232   -129.3 1.161e+04 3.434e-10
 28.96217   -127.8 1.174e+04 3.757e-10
 29.00201   -126.5 1.188e+04 4.147e-10
 29.04186   -125.5 1.196e+04 4.382e-10
 29.06450   -124.6 1.196e+04 4.418e-10
 29.08443   -124.9 1.181e+04 3.752e-10
 29.12156   -123.9 1.174e+04 3.681e-10
 29.16141   -122.7 1.157e+04 3.382e-10
 29.20125   -121.3 1.142e+04 3.060e-10
 29.24110   -119.9 1.132e+04 2.839e-10
 29.26430   -118.4 1.125e+04 2.681e-10
 29.28423   -118.7 1.130e+04 2.901e-10
 29.32080   -117.3 1.122e+04 2.750e-10
 29.36064   -115.8 1.118e+04 2.641e-10
 29.40049   -114.4 1.115e+04 2.571e-10
 29.44034   -113.0 1.115e+04 2.524e-10
 29.46410   -111.6 1.116e+04 2.494e-10
 29.48402   -112.4 1.117e+04 2.473e-10
 29.52004   -111.1 1.112e+04 2.286e-10
 29.55988   -109.5 1.106e+04 1.909e-10
 29.59973   -107.7 1.098e+04 1.451e-10
 29.63958   -105.9 1.092e+04 1.061e-10
 29.66390   -104.2 1.089e+04 7.921e-11
 29.68382   -104.9 1.090e+04 7.816e-11
 29.71927   -103.2 1.085e+04 6.512e-11
 29.75912   -101.4 1.082e+04 6.198e-11
 29.79897    -99.8 1.083e+04 6.167e-11
 29.83180    -98.6 1.095e+04 6.836e-11
 29.85173    -97.7 1.084e+04 6.785e-11
 29.86370    -96.4 1.079e+04 8.932e-11
 29.88362    -96.6 1.076e+04 8.680e-11
 29.91851    -95.3 1.078e+04 1.172e-10
 29.95836    -93.9 1.080e+04 1.730e-10
 29.99821    -92.5 1.084e+04 2.431e-10
 30.03806    -91.2 1.084e+04 2.946e-10
 30.06349    -90.0 1.082e+04 3.060e-10
 30.08342    -90.2 1.083e+04 3.031e-10
 30.11775    -88.8 1.074e+04 3.037e-10
 30.15760    -87.0 1.051e+04 2.641e-10
 30.19745    -85.1 1.032e+04 2.013e-10
 30.23730    -83.1 1.024e+04 1.538e-10
 30.26329    -81.1 1.017e+04 1.286e-10
 30.28322    -81.3 1.028e+04 1.397e-10
 30.31699    -79.2 1.019e+04 1.284e-10
 30.35684    -77.0 1.014e+04 1.259e-10
 30.39669    -74.7 1.012e+04 1.261e-10
 30.43654    -72.3 1.006e+04 1.308e-10
 30.46309    -69.9 1.002e+04 1.383e-10
 30.48301    -69.8 1.013e+04 1.612e-10
 30.51623    -67.4 1.016e+04 1.857e-10
 30.55608    -65.1 1.027e+04 2.286e-10
 30.59593    -63.0 1.050e+04 3.093e-10
 30.63577    -61.2 1.084e+04 4.531e-10
 30.66289    -59.5 1.125e+04 6.676e-10
 30.68281    -59.4 1.192e+04 1.103e-09
 30.71547    -57.9 1.238e+04 1.486e-09
 30.75532    -56.6 1.249e+04 1.602e-09
 30.79517    -55.2 1.210e+04 1.339e-09
 30.83501    -53.9 1.142e+04 8.858e-10
 30.86269    -52.5 1.077e+04 5.439e-10
 30.88261    -52.5 1.115e+04 6.546e-10
 30.91471    -51.2 1.070e+04 4.478e-10
 30.95456    -50.0 1.036e+04 3.299e-10
 30.99440    -48.7 1.002e+04 2.515e-10
 31.03425    -47.4 9.742e+03 2.000e-10
 31.06229    -45.8 9.542e+03 1.732e-10
 31.07059    -45.2 9.442e+03 1.677e-10
 31.08241    -44.9 9.625e+03 2.032e-10
 31.11395    -43.3 9.446e+03 1.651e-10
 31.15380    -41.7 9.267e+03 1.341e-10
 31.19364    -40.1 9.088e+03 1.161e-10
 31.23349    -38.3 8.968e+03 1.060e-10
 31.26228    -36.5 8.903e+03 9.904e-11
 31.28220    -37.0 9.133e+03 1.070e-10
 31.31319    -35.3 9.185e+03 1.052e-10
 31.35304    -33.8 9.210e+03 1.088e-10
 31.39288    -32.3 9.207e+03 1.282e-10
 31.43273    -30.5 9.220e+03 1.579e-10
 31.46208    -28.4 9.310e+03 1.862e-10
 31.48200    -28.6 9.525e+03 2.498e-10
 31.51243    -26.7 9.581e+03 2.582e-10
 31.55227    -25.1 9.581e+03 2.618e-10
 31.59212    -23.5 9.548e+03 2.715e-10
 31.63197    -21.7 9.490e+03 2.737e-10
 31.66188    -19.8 9.271e+03 2.523e-10
 31.68180    -19.8 9.252e+03 2.359e-10
 31.71167    -17.5 9.081e+03 1.956e-10
 31.75151    -15.4 9.043e+03 1.343e-10
 31.79136    -14.0 9.020e+03 9.410e-11
 31.83121    -12.9 8.898e+03 8.431e-11
 31.86167    -11.2 8.875e+03 8.968e-11
 31.88160    -10.9 8.881e+03 8.821e-11
 31.91090     -8.8 8.802e+03 1.027e-10
 31.95075     -6.5 8.808e+03 1.122e-10
 31.99060     -4.6 8.948e+03 1.260e-10
 32.03045     -3.2 9.133e+03 1.591e-10
 32.06147     -1.3 9.231e+03 2.303e-10
 32.08140     -1.4 9.317e+03 2.424e-10
 32.11014      1.2 9.383e+03 3.049e-10
 32.14999      3.6 9.465e+03 3.099e-10
 32.18984      5.7 9.458e+03 2.842e-10
 32.22969      7.4 9.484e+03 2.619e-10
 32.26127      9.0 9.550e+03 2.696e-10
 32.28119      8.5 9.591e+03 2.693e-10
 32.29277     10.3 9.661e+03 3.050e-10
 32.31269     11.0 9.642e+03 2.934e-10
 32.34923     12.8 9.734e+03 3.310e-10
 32.38908     14.6 9.850e+03 3.456e-10
 32.42893     16.2 9.883e+03 3.412e-10
 32.46107     17.6 9.985e+03 3.332e-10
 32.48099     16.4 1.002e+04 3.296e-10
 32.50862     17.3 1.016e+04 3.544e-10
 32.54847     18.1 1.035e+04 3.999e-10
 32.58832     18.8 1.050e+04 4.567e-10
 32.62816     19.2 1.066e+04 5.249e-10
 32.66087     19.6 1.090e+04 6.372e-10
 32.68079     17.8 1.085e+04 6.073e-10
 32.70786     17.7 1.118e+04 6.799e-10
 32.73765     17.3 1.147e+04 7.967e-10
 32.75748     16.7 1.162e+04 9.167e-10
 32.77053     16.3 1.174e+04 1.033e-09
 32.78049     16.0 1.162e+04 9.013e-10
 32.79732     15.8 1.164e+04 9.194e-10
 32.81725     15.8 1.161e+04 8.872e-10
 32.83717     15.7 1.164e+04 8.029e-10
 32.85709     15.3 1.172e+04 7.016e-10
 32.87043     14.6 1.167e+04 6.297e-10
 32.88039     14.7 1.167e+04 6.672e-10
 32.89694     14.7 1.166e+04 6.830e-10
 32.90781     14.7 1.167e+04 6.920e-10
 32.91777     14.9 1.174e+04 7.824e-10
 32.94685     15.4 1.171e+04 7.483e-10
 32.98680     16.3 1.167e+04 7.107e-10
 33.02664     17.2 1.160e+04 6.519e-10
 33.06046     18.0 1.163e+04 6.229e-10
 33.08039     18.5 1.150e+04 5.572e-10
 33.10634     19.1 1.156e+04 4.979e-10
 33.14619     19.2 1.173e+04 5.541e-10
 33.18603     19.4 1.193e+04 7.160e-10
 33.22588     20.2 1.213e+04 9.205e-10
 33.25567     21.4 1.228e+04 1.049e-09
 33.27003     21.7 1.247e+04 1.155e-09
 33.28009     21.5 1.244e+04 1.124e-09
 33.29552     22.2 1.275e+04 1.343e-09
 33.31534     22.0 1.327e+04 1.674e-09
 33.33527     21.2 1.378e+04 2.142e-09
 33.35519     20.5 1.422e+04 2.741e-09
 33.36992     20.0 1.432e+04 3.358e-09
 33.37989     20.5 1.458e+04 3.699e-09
 33.39504     19.9 1.447e+04 3.816e-09
 33.41496     19.6 1.415e+04 3.541e-09
 33.43489     19.8 1.350e+04 2.818e-09
 33.45481     20.0 1.274e+04 1.950e-09
 33.46982     20.1 1.200e+04 1.226e-09
 33.47979     20.5 1.211e+04 1.414e-09
 33.49466     20.8 1.144e+04 8.038e-10
 33.51309     20.1 1.109e+04 4.493e-10
 33.52305     21.3 1.128e+04 5.965e-10
 33.53451     21.3 1.067e+04 3.008e-10
 33.55443     20.9 1.045e+04 2.563e-10
 33.58441     22.9 9.999e+03 1.841e-10
 33.62436     24.6 9.380e+03 1.127e-10
 33.65985     26.6 9.070e+03 7.952e-11
 33.67978     27.5 9.064e+03 7.651e-11
 33.70406     29.6 8.894e+03 6.253e-11
 33.74390     32.0 8.811e+03 5.587e-11
 33.78375     34.4 8.770e+03 5.401e-11
 33.82360     36.7 8.786e+03 5.589e-11
 33.85965     38.9 8.826e+03 6.187e-11
 33.87958     39.6 8.742e+03 5.651e-11
 33.90329     41.6 8.780e+03 6.602e-11
 33.94314     43.4 8.841e+03 8.274e-11
 33.98299     45.2 9.024e+03 1.246e-10
 34.02284     47.1 9.274e+03 2.035e-10
 34.05945     49.1 9.550e+03 3.114e-10
 34.07937     49.7 9.228e+03 2.186e-10
 34.10253     51.5 9.441e+03 2.974e-10
 34.14238     53.2 9.672e+03 3.696e-10
 34.18223     54.5 9.908e+03 4.319e-10
 34.22208     55.7 1.013e+04 4.883e-10
 34.25925     56.8 1.028e+04 5.288e-10
 34.27917     57.7 9.659e+03 3.194e-10
 34.30177     58.8 9.787e+03 3.401e-10
 34.34162     59.9 9.834e+03 3.605e-10
 34.38147     61.1 9.831e+03 3.699e-10
 34.42132     62.3 9.799e+03 3.740e-10
 34.45905     63.6 9.786e+03 3.843e-10
 34.47897     64.5 9.392e+03 2.691e-10
 34.50101     65.9 9.460e+03 2.996e-10
 34.54086     67.4 9.542e+03 3.366e-10
 34.58071     68.9 9.604e+03 3.659e-10
 34.62056     70.5 9.601e+03 3.679e-10
 34.65884     72.1 9.527e+03 3.467e-10
 34.67877     73.1 9.343e+03 3.018e-10
 34.70025     74.7 9.271e+03 2.820e-10
 34.73381     76.3 9.115e+03 2.500e-10
 34.75373     77.6 8.903e+03 2.042e-10
 34.77995     79.3 8.803e+03 1.941e-10
 34.81979     81.2 8.702e+03 1.899e-10
 34.85864     83.1 8.600e+03 1.888e-10
 34.87857     84.0 8.635e+03 1.909e-10
 34.89949     86.0 8.554e+03 1.930e-10
 34.93934     88.1 8.489e+03 1.917e-10
 34.97919     90.2 8.444e+03 1.883e-10
 35.01903     92.4 8.345e+03 1.802e-10
 35.05844     94.6 8.264e+03 1.679e-10
 35.07836     95.1 8.346e+03 1.842e-10
 35.09873     97.2 8.256e+03 1.746e-10
 35.13858     99.3 8.183e+03 1.657e-10
 35.17842    101.4 8.112e+03 1.572e-10
 35.21827    103.5 8.029e+03 1.454e-10
 35.25812    105.6 7.925e+03 1.281e-10
 35.29797    108.5 7.800e+03 1.183e-10
 35.33782    110.8 7.666e+03 9.602e-11
 35.37766    113.0 7.537e+03 7.675e-11
 35.41751    115.1 7.446e+03 6.470e-11
 35.45736    117.4 7.440e+03 6.292e-11
 35.47796    119.6 7.442e+03 6.385e-11
 35.49788    120.5 7.465e+03 6.937e-11
 35.53706    122.6 7.512e+03 7.356e-11
 35.57690    124.7 7.619e+03 8.408e-11
 35.61675    126.6 7.810e+03 1.034e-10
 35.65660    128.4 8.021e+03 1.301e-10
 35.67776    130.1 8.215e+03 1.606e-10
 35.69768    130.7 8.340e+03 1.856e-10
 35.73629    132.2 8.630e+03 2.347e-10
 35.77614    133.6 8.997e+03 2.968e-10
 35.81599    134.9 9.348e+03 3.652e-10
 35.84578    135.4 9.569e+03 4.296e-10
 35.86560    135.3 9.791e+03 5.176e-10
 35.87736    135.4 1.003e+04 6.273e-10
 35.89738    135.6 1.031e+04 7.335e-10
 35.93553    135.9 1.072e+04 8.744e-10
 35.96429    135.8 1.119e+04 1.050e-09
 35.98421    137.5 1.078e+04 9.037e-10
 36.01523    136.9 1.138e+04 1.120e-09
 36.05508    136.6 1.193e+04 1.376e-09
 36.07725    135.6 1.223e+04 1.541e-09
 36.09718    135.8 1.199e+04 1.418e-09
 36.12471    134.6 1.216e+04 1.500e-09
 36.14454    133.7 1.205e+04 1.483e-09
 36.16446    133.3 1.167e+04 1.348e-09
 36.17706    133.0 1.130e+04 1.149e-09
 36.18702    132.9 1.149e+04 1.237e-09
 36.20431    132.7 1.133e+04 1.117e-09
 36.22423    132.4 1.136e+04 1.098e-09
 36.24416    131.9 1.142e+04 1.112e-09
 36.26408    131.2 1.160e+04 1.189e-09
 36.27695    130.4 1.183e+04 1.366e-09
 36.28692    130.4 1.234e+04 1.678e-09
 36.30393    129.9 1.250e+04 1.900e-09
 36.32385    129.4 1.257e+04 1.990e-09
 36.34378    128.8 1.255e+04 1.970e-09
 36.36370    128.1 1.244e+04 1.849e-09
 36.37685    127.5 1.213e+04 1.590e-09
 36.38682    127.9 1.214e+04 1.514e-09
 36.40355    127.1 1.164e+04 1.208e-09
 36.42347    126.3 1.113e+04 9.844e-10
 36.44340    125.6 1.070e+04 8.409e-10
 36.46332    125.1 1.041e+04 7.522e-10
 36.47675    124.8 1.019e+04 6.819e-10
 36.49677    124.8 1.022e+04 6.659e-10
 36.53325    125.0 9.919e+03 5.614e-10
 36.57310    125.7 9.691e+03 4.790e-10
 36.61295    126.5 9.633e+03 4.428e-10
 36.65279    127.5 9.639e+03 4.408e-10
 36.67665    128.0 9.482e+03 4.031e-10
 36.69657    129.8 9.010e+03 3.020e-10
 36.73249    131.8 9.182e+03 3.320e-10
 36.76228    132.1 9.278e+03 3.555e-10
 36.77645    132.6 9.405e+03 3.973e-10
 36.78641    133.5 9.141e+03 3.351e-10
 36.80203    134.5 9.213e+03 3.561e-10
 36.82195    135.6 9.241e+03 3.858e-10
 36.84188    136.5 9.282e+03 4.159e-10
 36.86180    136.5 1.021e+04 4.953e-10
 36.87635    135.0 1.407e+04 8.525e-10
 36.88631    138.7 9.807e+03 4.388e-10
 36.90165    137.5 1.386e+04 7.422e-10
 36.92157    135.2 1.751e+04 2.024e-09
 36.94149    134.5 1.805e+04 4.181e-09
 36.95639    134.6 1.814e+04 5.078e-09
 36.96630    134.6 1.808e+04 6.269e-09
 36.97615    134.8 1.786e+04 8.050e-09
 36.98113    136.5 1.916e+04 5.134e-09
 36.98623    136.1 1.900e+04 7.454e-09
 36.99619    136.2 1.864e+04 1.029e-08
 37.00615    136.4 1.823e+04 1.315e-08
 37.01611    136.6 1.795e+04 1.597e-08
 37.02607    136.4 1.796e+04 1.910e-08
 37.03604    137.0 1.889e+04 2.436e-08
 37.04600    136.3 1.923e+04 3.124e-08
 37.05596    135.1 1.995e+04 4.322e-08
 37.06592    133.6 2.096e+04 6.437e-08
 37.07588    132.1 2.228e+04 9.339e-08
 37.08103    129.9 2.464e+04 1.013e-07
 37.08601    131.8 2.221e+04 2.148e-07
 37.09581    128.9 2.351e+04 2.145e-07
 37.10577    125.2 2.465e+04 1.712e-07
 37.11573    120.0 2.791e+04 7.100e-08
 37.12569    113.9 3.105e+04 1.697e-08
 37.13098    111.6 2.620e+04 9.408e-09
 37.13596    112.6 2.711e+04 1.420e-08
 37.14562    105.4 2.443e+04 5.852e-09
 37.16061     95.4 1.487e+04 3.848e-09
 37.17604     94.6 1.345e+04 2.913e-09
 37.18601     93.3 1.371e+04 3.567e-09
 37.19458     93.5 1.271e+04 2.565e-09
 37.20454     93.5 1.268e+04 2.602e-09
 37.22043     93.3 1.225e+04 1.732e-09
 37.24035     92.8 1.165e+04 1.130e-09
 37.26028     92.4 1.079e+04 7.535e-10
 37.27594     92.1 1.001e+04 5.359e-10
 37.28591     92.4 1.041e+04 6.520e-10
 37.30013     92.5 9.934e+03 5.093e-10
 37.32005     92.6 9.631e+03 4.148e-10
 37.33997     92.4 9.401e+03 3.594e-10
 37.35990     92.6 9.442e+03 3.424e-10
 37.37584     92.6 9.428e+03 3.397e-10
 37.38580     92.9 9.502e+03 3.502e-10
 37.40980     92.3 9.404e+03 3.191e-10
 37.44975     91.8 9.255e+03 2.908e-10
 37.47594     91.1 9.231e+03 2.879e-10
 37.48580     91.9 9.332e+03 3.010e-10
 37.49936     91.6 9.327e+03 3.015e-10
 37.51929     91.1 9.301e+03 3.003e-10
 37.53921     90.7 9.336e+03 3.086e-10
 37.55914     90.0 9.532e+03 3.471e-10
 37.57564     88.9 9.930e+03 4.346e-10
 37.58560     88.1 1.031e+04 5.297e-10
 37.59898     86.7 1.079e+04 6.898e-10
 37.61891     85.4 1.139e+04 9.097e-10
 37.63883     84.2 1.192e+04 1.138e-09
 37.65876     83.2 1.223e+04 1.305e-09
 37.67554     82.2 1.235e+04 1.390e-09
 37.68550     80.5 1.288e+04 1.630e-09
 37.69860     79.1 1.293e+04 1.649e-09
 37.71853     77.3 1.300e+04 1.617e-09
 37.73845     76.0 1.296e+04 1.526e-09
 37.75838     73.8 1.312e+04 1.431e-09
 37.77544     72.8 1.319e+04 1.406e-09
 37.78540     71.6 1.316e+04 1.371e-09
 37.80828     68.3 1.346e+04 1.357e-09
 37.84823     65.8 1.346e+04 1.321e-09
 37.87543     61.7 1.311e+04 1.262e-09
 37.88530     57.5 1.253e+04 1.156e-09
 37.89784     55.6 1.252e+04 1.294e-09
 37.91777     53.9 1.265e+04 1.486e-09
 37.93769     52.7 1.278e+04 1.644e-09
 37.95761     51.6 1.279e+04 1.641e-09
 37.97524     50.2 1.277e+04 1.589e-09
 37.98520     47.9 1.302e+04 1.946e-09
 37.99746     45.6 1.345e+04 2.045e-09
 38.01739     43.1 1.395e+04 2.252e-09
 38.03731     41.0 1.385e+04 2.353e-09
 38.05723     40.4 1.350e+04 2.243e-09
 38.07514     40.2 1.288e+04 1.947e-09
 38.08510     38.6 1.239e+04 1.689e-09
 38.09708     38.7 1.168e+04 1.185e-09
 38.11701     38.5 1.120e+04 8.155e-10
 38.13693     37.9 1.082e+04 5.852e-10
 38.15685     37.0 1.052e+04 4.516e-10
 38.17503     36.1 1.062e+04 3.908e-10
 38.18500     31.2 1.274e+04 6.817e-10
 38.19670     30.6 1.314e+04 9.002e-10
 38.21662     30.4 1.350e+04 1.232e-09
 38.23655     30.7 1.394e+04 1.701e-09
 38.25647     30.4 1.453e+04 2.376e-09
 38.27493     29.6 1.545e+04 3.477e-09
 38.28489     27.8 1.578e+04 4.530e-09
 38.29632     27.0 1.643e+04 6.030e-09
 38.31624     26.8 1.714e+04 8.743e-09
 38.33617     27.5 1.791e+04 1.232e-08
 38.35609     28.2 1.839e+04 1.298e-08
 38.37483     28.9 1.844e+04 1.081e-08
 38.38479     27.2 1.765e+04 2.899e-09
 38.39594     25.8 1.643e+04 1.480e-09
 38.41510     22.8 1.400e+04 7.501e-10
 38.42506     20.1 1.161e+04 4.154e-10
 38.43579     20.0 1.064e+04 4.002e-10
 38.45571     20.2 1.055e+04 4.046e-10
 38.47483     23.0 1.094e+04 4.943e-10
 38.49485     21.3 1.022e+04 3.415e-10
 38.52564     23.1 1.017e+04 3.544e-10
 38.56549     24.9 1.012e+04 3.577e-10
 38.60534     26.7 1.013e+04 3.587e-10
 38.64518     28.7 1.013e+04 3.531e-10
 38.67472     30.6 1.016e+04 3.535e-10
 38.69465     28.7 1.028e+04 4.040e-10
 38.72488     30.1 1.041e+04 4.449e-10
 38.76473     31.1 1.073e+04 5.747e-10
 38.80458     32.0 1.114e+04 7.830e-10
 38.84442     32.9 1.145e+04 1.007e-09
 38.87421     33.0 1.165e+04 1.181e-09
 38.88429     33.5 1.161e+04 1.187e-09
 38.89425     32.4 1.170e+04 1.257e-09
 38.91396     32.8 1.165e+04 1.223e-09
 38.93389     33.1 1.153e+04 1.142e-09
 38.95381     33.4 1.132e+04 1.028e-09
 38.97373     33.6 1.106e+04 9.066e-10
 38.98419     34.0 1.074e+04 7.746e-10
 38.99415     33.1 1.088e+04 8.750e-10
 39.01358     33.6 1.057e+04 7.409e-10
 39.03034     34.4 1.023e+04 5.807e-10
 39.04030     34.7 1.037e+04 6.423e-10
 39.05343     35.0 1.017e+04 5.457e-10
 39.07422     36.2 9.782e+03 3.897e-10
 39.09415     35.7 9.820e+03 4.165e-10
 39.12326     37.1 9.258e+03 2.821e-10
 39.16321     38.9 8.734e+03 1.836e-10
 39.20305     40.8 8.441e+03 1.372e-10
 39.24290     43.0 8.300e+03 1.154e-10
 39.27412     45.4 8.217e+03 1.029e-10
 39.29404     45.0 8.133e+03 9.032e-11
 39.32260     47.4 8.075e+03 8.346e-11
 39.36244     49.8 8.028e+03 7.818e-11
 39.40229     52.3 8.008e+03 7.661e-11
 39.44214     54.7 8.012e+03 7.712e-11
 39.47392     57.1 8.039e+03 8.044e-11
 39.49384     56.9 8.014e+03 7.555e-11
 39.52184     59.2 8.084e+03 8.403e-11
 39.56168     61.5 8.183e+03 9.753e-11
 39.60153     63.8 8.306e+03 1.156e-10
 39.63581     66.2 8.465e+03 1.384e-10
 39.65573     66.4 8.392e+03 1.239e-10
 39.67371     68.7 8.505e+03 1.351e-10
 39.69364     68.4 8.304e+03 1.017e-10
 39.72107     70.6 8.363e+03 1.020e-10
 39.76092     72.8 8.407e+03 1.025e-10
 39.80077     75.0 8.440e+03 1.037e-10
 39.84062     77.1 8.487e+03 1.071e-10
 39.87351     79.3 8.551e+03 1.152e-10
 39.89343     79.1 8.304e+03 8.803e-11
 39.92031     81.2 8.376e+03 9.936e-11
 39.96016     83.3 8.484e+03 1.173e-10
 40.00001     85.1 8.650e+03 1.469e-10
 40.03986     86.9 8.894e+03 1.952e-10
 40.07331     88.4 9.193e+03 2.639e-10
 40.09323     88.2 9.168e+03 2.601e-10
 40.11955     89.6 9.471e+03 3.354e-10
 40.15940     90.5 9.651e+03 3.553e-10
 40.19925     91.2 9.642e+03 3.508e-10
 40.23910     91.9 9.570e+03 3.258e-10
 40.27311     92.8 9.423e+03 2.872e-10
 40.29303     92.7 9.363e+03 2.672e-10
 40.31879     93.8 9.280e+03 2.437e-10
 40.35864     95.1 9.293e+03 2.426e-10
 40.39849     96.3 9.325e+03 2.481e-10
 40.43834     97.5 9.408e+03 2.609e-10
 40.47290     98.8 9.546e+03 2.848e-10
 40.49283     98.9 9.539e+03 2.853e-10
 40.51803    100.3 9.674e+03 3.119e-10
 40.55788    101.7 9.743e+03 3.190e-10
 40.59773    103.1 9.737e+03 3.095e-10
 40.63757    104.6 9.689e+03 2.806e-10
 40.67270    106.2 9.627e+03 2.464e-10
 40.69263    106.6 9.565e+03 2.322e-10
 40.71727    108.3 9.571e+03 2.151e-10
 40.75712    109.9 9.587e+03 2.154e-10
 40.79697    111.6 9.641e+03 2.233e-10
 40.83681    113.2 9.712e+03 2.358e-10
 40.86629    114.8 9.779e+03 2.474e-10
 40.88205    116.2 9.793e+03 2.417e-10
 40.89242    116.5 9.800e+03 2.385e-10
 40.91651    118.0 9.822e+03 2.332e-10
 40.95636    119.4 9.814e+03 2.187e-10
 40.99620    121.0 9.795e+03 2.049e-10
 41.03605    122.6 9.816e+03 2.011e-10
 41.07230    124.4 9.845e+03 2.032e-10
 41.09222    124.3 9.841e+03 2.008e-10
 41.11575    126.1 1.004e+04 2.189e-10
 41.15560    127.8 1.047e+04 2.810e-10
 41.19544    129.3 1.077e+04 3.553e-10
 41.22523    129.6 1.090e+04 4.413e-10
 41.24506    130.3 1.098e+04 5.143e-10
 41.26498    131.2 1.111e+04 5.814e-10
 41.28186    131.9 1.133e+04 6.514e-10
 41.29182    131.3 1.172e+04 6.598e-10
 41.30483    130.4 1.325e+04 8.640e-10
 41.32475    128.9 1.480e+04 1.478e-09
 41.34468    127.7 1.592e+04 2.855e-09
 41.36460    127.3 1.673e+04 5.321e-09
 41.38176    127.3 1.740e+04 8.855e-09
 41.39172    126.9 1.749e+04 1.091e-08
 41.40445    127.2 1.810e+04 1.411e-08
 41.42437    127.3 1.862e+04 1.704e-08
 41.44430    127.3 1.890e+04 1.795e-08
 41.46422    126.9 1.892e+04 1.714e-08
 41.48134    126.4 1.873e+04 1.500e-08
 41.48881    126.8 1.946e+04 1.987e-08
 41.49162    125.8 1.885e+04 1.215e-08
 41.50407    125.2 1.850e+04 1.101e-08
 41.52399    124.5 1.811e+04 9.867e-09
 41.54392    123.8 1.789e+04 9.380e-09
 41.56384    123.4 1.774e+04 9.311e-09
 41.58156    123.3 1.766e+04 9.378e-09
 41.59152    122.5 1.690e+04 5.633e-09
 41.60369    122.4 1.704e+04 6.150e-09
 41.62361    122.1 1.716e+04 6.434e-09
 41.64354    121.5 1.727e+04 6.571e-09
 41.66346    120.7 1.750e+04 6.790e-09
 41.68146    119.9 1.753e+04 7.242e-09
 41.69142    118.3 1.784e+04 9.782e-09
 41.70331    117.9 1.775e+04 9.733e-09
 41.72323    117.7 1.743e+04 9.123e-09
 41.73634    117.8 1.681e+04 7.241e-09
 41.74127    117.6 1.687e+04 7.584e-09
 41.74804    117.3 1.645e+04 6.451e-09
 41.75800    117.1 1.597e+04 5.288e-09
 41.76796    116.9 1.578e+04 4.898e-09
 41.78131    117.0 1.551e+04 4.284e-09
 41.79132    116.1 1.554e+04 4.342e-09
 41.80293    115.6 1.477e+04 3.151e-09
 41.82285    114.9 1.397e+04 2.235e-09
 41.84278    114.2 1.333e+04 1.669e-09
 41.86270    113.8 1.289e+04 1.335e-09
 41.88126    113.6 1.260e+04 1.155e-09
 41.89122    113.0 1.256e+04 1.179e-09
 41.90255    113.1 1.237e+04 1.107e-09
 41.92247    113.4 1.226e+04 1.076e-09
 41.94239    113.8 1.224e+04 1.076e-09
 41.96232    114.2 1.229e+04 1.100e-09
 41.98115    114.5 1.242e+04 1.158e-09
 41.99112    114.4 1.232e+04 1.164e-09
 42.00217    114.7 1.245e+04 1.258e-09
 42.02209    114.9 1.262e+04 1.391e-09
 42.04201    115.1 1.284e+04 1.573e-09
 42.06194    115.2 1.316e+04 1.814e-09
 42.08105    115.4 1.357e+04 2.157e-09
 42.09102    115.8 1.306e+04 1.795e-09
 42.09658    116.0 1.337e+04 2.026e-09
 42.10654    116.2 1.330e+04 1.940e-09
 42.12171    116.4 1.368e+04 2.196e-09
 42.14163    116.5 1.408e+04 2.532e-09
 42.16156    116.7 1.447e+04 2.940e-09
 42.18095    116.8 1.463e+04 3.282e-09
 42.19091    117.4 1.359e+04 1.891e-09
 42.20141    117.5 1.366e+04 2.039e-09
 42.22133    117.7 1.360e+04 2.106e-09
 42.24125    118.0 1.349e+04 2.086e-09
 42.26118    118.6 1.315e+04 1.935e-09
 42.28085    119.4 1.269e+04 1.618e-09
 42.29081    119.8 1.234e+04 1.222e-09
 42.30103    120.7 1.198e+04 1.046e-09
 42.32095    121.6 1.160e+04 8.308e-10
 42.34087    122.6 1.125e+04 6.126e-10
 42.36080    122.9 1.106e+04 4.574e-10
 42.39078    123.7 1.107e+04 3.782e-10
 42.43073    125.4 1.071e+04 3.095e-10
 42.47057    127.7 1.027e+04 2.866e-10
 42.49081    130.1 1.015e+04 2.884e-10
 42.51073    131.2 1.036e+04 2.951e-10
 42.55027    133.1 1.034e+04 3.015e-10
 42.59012    135.1 1.031e+04 3.181e-10
 42.62996    137.0 1.036e+04 3.578e-10
 42.66981    138.8 1.050e+04 4.124e-10
 42.69060    140.4 1.069e+04 4.855e-10
 42.71053    141.3 1.061e+04 4.459e-10
 42.74951    142.9 1.080e+04 5.192e-10
 42.78936    143.9 1.106e+04 6.090e-10
 42.82920    144.3 1.123e+04 6.577e-10
 42.86905    144.5 1.124e+04 6.512e-10
 42.89040    144.8 1.113e+04 5.853e-10
 42.91033    146.4 1.131e+04 6.673e-10
 42.94875    146.5 1.118e+04 5.810e-10
 42.98860    146.6 1.089e+04 4.377e-10
 43.02844    146.5 1.047e+04 3.113e-10
 43.06829    146.6 1.008e+04 2.404e-10
 43.09020    146.8 9.829e+03 2.167e-10
 43.11012    147.7 1.012e+04 2.685e-10
 43.14799    147.9 9.900e+03 2.361e-10
 43.18783    148.6 9.768e+03 2.146e-10
 43.22768    149.8 9.658e+03 1.914e-10
 43.26753    151.2 9.541e+03 1.651e-10
 43.29000    152.7 9.422e+03 1.380e-10
 43.30988    152.9 9.446e+03 1.305e-10
 43.34718    154.4 9.318e+03 1.052e-10
 43.38707    156.2 9.255e+03 8.766e-11
 43.42692    158.0 9.217e+03 7.493e-11
 43.46677    160.0 9.185e+03 6.549e-11
 43.48980    162.0 9.151e+03 5.816e-11
 43.50972    162.3 9.167e+03 5.466e-11
 43.54646    164.5 9.136e+03 4.938e-11
 43.58631    166.7 9.109e+03 4.535e-11
 43.62616    169.0 9.091e+03 4.300e-11
 43.66601    171.4 9.088e+03 4.265e-11
 43.68959    173.9 9.091e+03 4.279e-11
 43.70952    174.3 9.110e+03 3.852e-11
 43.74570    176.9 9.114e+03 3.861e-11
 43.78555    179.5 9.126e+03 3.908e-11
 43.82540    182.0 9.146e+03 4.002e-11
 43.86525    184.6 9.169e+03 4.154e-11
 43.88939    187.2 9.197e+03 4.378e-11
 43.90931    187.6 9.190e+03 3.794e-11
 43.94494    190.2 9.223e+03 4.062e-11
 43.98479    192.8 9.262e+03 4.445e-11
 44.02464    195.3 9.307e+03 4.956e-11
 44.06449    197.8 9.356e+03 5.593e-11
 44.08919    200.3 9.410e+03 6.332e-11
 44.10911    200.7 9.394e+03 5.734e-11
 44.14418    203.1 9.444e+03 6.473e-11
 44.18403    205.5 9.500e+03 7.241e-11
 44.22388    207.9 9.562e+03 8.027e-11
 44.26373    210.2 9.629e+03 8.895e-11
 44.28899    212.5 9.703e+03 1.002e-10
 44.30891    212.9 9.680e+03 9.182e-11
 44.34342    215.1 9.767e+03 1.070e-10
 44.38327    217.3 9.896e+03 1.302e-10
 44.42312    219.4 1.008e+04 1.637e-10
 44.46296    221.3 1.033e+04 2.049e-10
 44.48878    222.8 1.060e+04 2.412e-10
 44.50871    223.1 1.059e+04 2.265e-10
 44.53781    224.3 1.084e+04 2.399e-10
 44.55774    224.4 1.085e+04 2.431e-10
 44.58251    225.2 1.087e+04 2.391e-10
 44.62236    226.0 1.091e+04 2.219e-10
 44.66220    226.8 1.087e+04 1.987e-10
 44.68858    227.9 1.085e+04 1.891e-10
 44.70851    228.3 1.087e+04 1.882e-10
 44.74190    229.4 1.087e+04 1.881e-10
 44.78175    230.6 1.092e+04 1.928e-10
 44.82159    231.8 1.102e+04 2.105e-10
 44.86144    232.8 1.113e+04 2.354e-10
 44.88838    233.8 1.122e+04 2.477e-10
 44.90830    234.3 1.114e+04 2.102e-10
 44.94114    235.2 1.114e+04 2.105e-10
 44.98099    236.2 1.113e+04 2.082e-10
 45.02083    237.3 1.109e+04 2.012e-10
 45.06068    238.5 1.104e+04 1.932e-10
 45.08818    239.8 1.098e+04 1.878e-10
 45.10810    240.3 1.095e+04 1.825e-10
 45.14038    241.5 1.089e+04 1.810e-10
 45.18022    242.9 1.083e+04 1.788e-10
 45.22007    244.2 1.075e+04 1.760e-10
 45.25992    245.7 1.063e+04 1.727e-10
 45.28798    247.1 1.046e+04 1.703e-10
 45.30790    247.4 1.041e+04 1.690e-10
 45.33962    248.9 1.020e+04 1.702e-10
 45.37946    250.5 1.016e+04 1.710e-10
 45.41931    252.1 1.010e+04 1.745e-10
 45.45916    253.6 1.003e+04 1.805e-10
 45.48777    255.0 9.966e+03 1.853e-10
 45.50770    255.2 9.948e+03 1.839e-10
 45.53885    256.5 9.908e+03 1.854e-10
 45.57870    257.8 9.845e+03 1.872e-10
 45.61855    259.1 9.817e+03 1.896e-10
 45.65840    260.3 9.800e+03 1.968e-10
 45.68757    261.4 9.837e+03 2.163e-10
 45.70750    261.2 9.871e+03 2.317e-10
 45.73809    262.3 9.968e+03 2.650e-10
 45.76830    263.3 1.008e+04 3.008e-10
 45.78822    263.0 9.978e+03 2.952e-10
 45.81779    264.0 9.971e+03 3.051e-10
 45.85764    265.0 9.941e+03 3.024e-10
 45.88737    266.3 9.847e+03 2.910e-10
 45.90729    266.0 9.632e+03 2.548e-10
 45.93733    267.5 9.479e+03 2.407e-10
 45.97718    269.4 9.427e+03 2.391e-10
 46.01703    271.4 9.434e+03 2.420e-10
 46.05688    273.5 9.477e+03 2.565e-10
 46.08717    275.6 9.601e+03 2.851e-10
 46.10709    275.5 9.330e+03 2.462e-10
 46.13657    277.5 9.418e+03 2.674e-10
 46.17642    279.4 9.517e+03 2.911e-10
 46.21627    281.2 9.529e+03 2.992e-10
 46.25612    283.0 9.516e+03 2.977e-10
 46.28696    284.7 9.452e+03 2.927e-10
 46.30689    285.7 8.989e+03 2.262e-10
 46.33581    288.0 8.994e+03 2.285e-10
 46.37566    290.2 9.064e+03 2.406e-10
 46.41551    292.6 9.229e+03 2.638e-10
 46.45535    294.5 9.382e+03 2.869e-10
 46.48514    295.4 9.420e+03 3.001e-10
 46.49653    296.8 9.554e+03 3.360e-10
 46.50649    297.4 9.612e+03 3.416e-10
 46.52489    298.4 1.017e+04 4.653e-10
 46.54482    299.0 1.108e+04 7.180e-10
 46.56474    299.3 1.219e+04 1.169e-09
 46.58466    299.5 1.335e+04 1.908e-09
 46.59643    299.7 1.446e+04 3.016e-09
 46.60639    299.9 1.487e+04 3.494e-09
 46.62451    300.4 1.582e+04 5.158e-09
 46.64444    301.1 1.657e+04 6.824e-09
 46.65933    301.0 1.705e+04 8.026e-09
 46.66924    300.9 1.755e+04 9.358e-09
 46.67921    300.6 1.804e+04 1.100e-08
 46.68917    300.5 1.842e+04 1.272e-08
 46.69584    300.4 1.864e+04 1.424e-08
 46.69793    301.3 1.855e+04 1.335e-08
 46.70121    301.4 1.887e+04 1.497e-08
 46.70909    301.4 1.916e+04 1.731e-08
 46.71905    301.4 1.953e+04 1.908e-08
 46.72902    301.3 1.967e+04 2.079e-08
 46.73898    301.0 1.972e+04 2.053e-08
 46.74618    300.4 1.986e+04 1.964e-08
 46.75116    300.3 2.032e+04 2.269e-08
 46.75890    299.3 2.064e+04 2.088e-08
 46.76886    297.7 2.122e+04 1.866e-08
 46.77883    295.5 2.193e+04 1.647e-08
 46.78879    292.8 2.252e+04 1.454e-08
 46.79613    289.7 2.290e+04 1.293e-08
 46.80111    288.4 2.369e+04 1.492e-08
 46.80871    284.9 2.359e+04 1.394e-08
 46.81867    281.3 2.295e+04 1.431e-08
 46.82863    278.0 2.269e+04 1.534e-08
 46.83860    275.0 2.257e+04 1.723e-08
 46.84608    272.4 2.248e+04 1.924e-08
 46.85106    271.0 2.264e+04 2.431e-08
 46.85852    268.9 2.228e+04 2.512e-08
 46.86848    267.0 2.191e+04 2.494e-08
 46.87844    265.4 2.150e+04 2.387e-08
 46.88841    263.7 2.113e+04 2.217e-08
 46.89603    262.0 2.087e+04 2.022e-08
 46.90101    260.9 2.073e+04 2.042e-08
 46.90833    259.2 2.044e+04 1.871e-08
 46.91829    257.6 2.010e+04 1.743e-08
 46.92825    256.0 1.971e+04 1.658e-08
 46.93822    254.6 1.935e+04 1.615e-08
 46.94598    253.4 1.919e+04 1.612e-08
 46.95096    253.0 1.916e+04 1.615e-08
 46.95814    252.0 1.915e+04 1.624e-08
 46.96810    250.8 1.919e+04 1.676e-08
 46.97806    249.5 1.955e+04 1.746e-08
 46.98803    247.9 2.011e+04 1.822e-08
 46.99593    245.8 2.084e+04 1.850e-08
 47.00091    244.5 2.061e+04 1.473e-08
 47.00347    241.4 2.069e+04 1.437e-08
 47.00845    243.3 2.141e+04 1.756e-08
 47.01791    239.6 2.164e+04 1.601e-08
 47.02787    235.8 2.124e+04 1.375e-08
 47.03784    231.4 2.014e+04 1.121e-08
 47.04588    229.6 1.937e+04 1.028e-08
 47.05086    229.6 1.902e+04 9.740e-09
 47.06279    226.3 1.903e+04 9.678e-09
 47.08276    221.3 1.826e+04 7.389e-09
 47.09592    215.6 1.708e+04 4.618e-09
 47.10588    215.5 1.651e+04 3.955e-09
 47.12261    210.0 1.493e+04 2.395e-09
 47.14253    205.0 1.278e+04 1.460e-09
 47.16246    201.1 1.110e+04 1.004e-09
 47.18238    198.5 1.103e+04 8.981e-10
 47.19582    197.2 1.102e+04 8.956e-10
 47.20578    197.3 1.138e+04 1.030e-09
 47.22223    196.0 1.156e+04 1.097e-09
 47.24215    194.5 1.206e+04 1.288e-09
 47.26208    192.9 1.274e+04 1.629e-09
 47.28200    191.3 1.343e+04 2.117e-09
 47.29572    190.0 1.400e+04 2.684e-09
 47.30568    189.3 1.500e+04 3.675e-09
 47.32185    187.9 1.513e+04 3.941e-09
 47.34177    186.6 1.508e+04 3.892e-09
 47.36170    185.5 1.485e+04 3.587e-09
 47.38162    184.6 1.432e+04 2.919e-09
 47.39562    183.8 1.351e+04 2.133e-09
 47.40558    182.7 1.350e+04 2.005e-09
 47.42147    181.7 1.229e+04 1.282e-09
 47.44139    180.5 1.103e+04 8.242e-10
 47.46132    179.1 1.015e+04 6.069e-10
 47.48124    178.4 9.918e+03 5.489e-10
 47.49552    178.2 9.917e+03 5.524e-10
 47.50548    177.2 1.014e+04 6.210e-10
 47.52109    177.5 1.019e+04 6.553e-10
 47.54101    178.0 1.042e+04 7.453e-10
 47.56094    178.7 1.076e+04 8.858e-10
 47.58086    179.4 1.114e+04 1.066e-09
 47.59542    180.2 1.152e+04 1.276e-09
 47.60538    179.6 1.177e+04 1.409e-09
 47.61382    180.4 1.206e+04 1.598e-09
 47.62378    179.1 1.218e+04 1.641e-09
 47.64063    180.0 1.240e+04 1.790e-09
 47.66056    180.8 1.260e+04 1.945e-09
 47.68048    181.7 1.279e+04 2.073e-09
 47.69532    182.4 1.291e+04 2.129e-09
 47.70528    181.9 1.274e+04 1.936e-09
 47.72033    182.5 1.274e+04 1.933e-09
 47.74025    183.2 1.270e+04 1.902e-09
 47.76017    184.0 1.258e+04 1.806e-09
 47.78010    184.8 1.239e+04 1.659e-09
 47.79522    185.6 1.216e+04 1.484e-09
 47.80518    185.3 1.192e+04 1.360e-09
 47.81995    186.1 1.175e+04 1.250e-09
 47.83987    186.9 1.160e+04 1.152e-09
 47.85979    187.7 1.145e+04 1.071e-09
 47.87972    188.5 1.134e+04 1.012e-09
 47.89511    189.4 1.125e+04 9.749e-10
 47.90508    189.6 1.131e+04 1.063e-09
 47.91957    190.6 1.127e+04 1.047e-09
 47.93949    191.6 1.124e+04 1.021e-09
 47.95941    192.7 1.118e+04 9.800e-10
 47.97934    193.7 1.109e+04 9.259e-10
 47.99501    194.8 1.099e+04 8.629e-10
 48.00497    195.1 1.098e+04 8.716e-10
 48.01919    196.1 1.084e+04 7.878e-10
 48.03911    197.1 1.075e+04 7.365e-10
 48.05903    198.2 1.074e+04 7.310e-10
 48.07896    199.3 1.074e+04 7.331e-10
 48.09491    200.4 1.077e+04 7.433e-10
 48.10487    200.7 1.074e+04 7.208e-10
 48.11881    201.8 1.084e+04 7.625e-10
 48.13873    202.9 1.101e+04 8.399e-10
 48.15865    204.1 1.124e+04 9.558e-10
 48.17858    205.2 1.152e+04 1.112e-09
 48.19481    206.4 1.181e+04 1.308e-09
 48.20477    206.7 1.187e+04 1.331e-09
 48.21842    207.9 1.220e+04 1.588e-09
 48.22906    209.2 1.256e+04 1.882e-09
 48.23903    209.1 1.249e+04 1.753e-09
 48.25827    210.2 1.292e+04 2.129e-09
 48.27820    211.4 1.338e+04 2.565e-09
 48.29471    212.4 1.401e+04 3.115e-09
 48.30467    212.5 1.413e+04 3.233e-09
 48.31804    213.1 1.500e+04 4.162e-09
 48.33797    213.5 1.592e+04 5.549e-09
 48.35789    213.7 1.683e+04 7.409e-09
 48.37782    213.7 1.765e+04 9.583e-09
 48.39461    213.7 1.833e+04 1.153e-08
 48.40457    213.7 1.891e+04 1.434e-08
 48.41766    213.5 1.928e+04 1.511e-08
 48.43759    213.0 1.929e+04 1.475e-08
 48.45751    212.5 1.910e+04 1.324e-08
 48.47744    212.3 1.856e+04 1.066e-08
 48.49451    212.3 1.781e+04 8.056e-09
 48.50447    212.3 1.846e+04 1.045e-08
 48.51728    212.2 1.774e+04 8.085e-09
 48.53721    212.1 1.707e+04 6.534e-09
 48.55713    212.2 1.654e+04 5.629e-09
 48.57706    212.5 1.614e+04 5.136e-09
 48.59441    213.4 1.587e+04 4.900e-09
 48.60437    213.7 1.634e+04 5.666e-09
 48.61690    214.8 1.609e+04 5.353e-09
 48.63683    216.1 1.593e+04 5.157e-09
 48.65675    217.5 1.584e+04 5.026e-09
 48.67667    218.8 1.579e+04 4.965e-09
 48.69431    220.1 1.575e+04 4.955e-09
 48.70427    220.2 1.584e+04 5.017e-09
 48.71652    221.5 1.584e+04 5.069e-09
 48.73645    223.0 1.591e+04 5.219e-09
 48.75637    224.3 1.604e+04 5.501e-09
 48.77629    225.7 1.625e+04 5.935e-09
 48.79420    227.2 1.656e+04 6.547e-09
 48.80417    227.3 1.654e+04 6.609e-09
 48.81614    228.7 1.695e+04 7.547e-09
 48.83434    230.1 1.739e+04 8.670e-09
 48.84430    229.8 1.814e+04 1.044e-08
 48.85599    230.9 1.847e+04 1.121e-08
 48.87591    232.0 1.864e+04 1.141e-08
 48.89410    233.0 1.862e+04 1.134e-08
 48.90407    233.4 1.888e+04 1.277e-08
 48.91576    234.3 1.887e+04 1.256e-08
 48.93569    235.1 1.872e+04 1.177e-08
 48.95561    235.9 1.836e+04 1.060e-08
 48.97553    236.7 1.789e+04 9.283e-09
 48.99400    237.6 1.739e+04 7.999e-09
 49.00396    237.6 1.743e+04 8.112e-09
 49.01538    238.2 1.692e+04 6.880e-09
 49.03530    238.8 1.645e+04 5.847e-09
 49.05523    239.4 1.599e+04 5.025e-09
 49.07515    239.9 1.566e+04 4.371e-09
 49.09390    240.5 1.537e+04 3.887e-09
 49.10386    239.6 1.523e+04 3.524e-09
 49.11500    240.1 1.496e+04 3.242e-09
 49.13492    240.8 1.479e+04 3.028e-09
 49.15485    241.7 1.472e+04 2.885e-09
 49.17477    242.7 1.478e+04 2.854e-09
 49.19380    243.8 1.492e+04 2.910e-09
 49.20376    242.1 1.585e+04 3.946e-09
 49.21462    243.3 1.607e+04 4.387e-09
 49.23454    244.5 1.626e+04 4.911e-09
 49.25447    245.9 1.644e+04 5.471e-09
 49.27439    247.4 1.665e+04 6.026e-09
 49.29370    249.0 1.682e+04 6.449e-09
 49.30366    248.2 1.764e+04 7.864e-09
 49.31424    249.7 1.765e+04 7.791e-09
 49.33416    251.2 1.766e+04 7.699e-09
 49.35409    252.6 1.764e+04 7.522e-09
 49.37401    253.9 1.758e+04 6.982e-09
 49.39360    255.1 1.735e+04 6.146e-09
 49.40356    253.9 1.721e+04 4.741e-09
 49.41386    255.0 1.661e+04 3.615e-09
 49.43378    256.0 1.590e+04 2.700e-09
 49.44958    256.8 1.511e+04 2.035e-09
 49.45955    255.1 1.314e+04 1.021e-09
 49.47363    255.9 1.240e+04 8.615e-10
 49.49350    256.9 1.196e+04 7.916e-10
 49.51342    257.3 1.164e+04 7.614e-10
 49.53340    258.9 1.176e+04 7.827e-10
 49.55333    260.3 1.191e+04 8.202e-10
 49.57325    261.8 1.206e+04 8.725e-10
 49.59317    263.2 1.222e+04 9.383e-10
 49.60336    264.6 1.239e+04 1.017e-09
 49.61332    264.2 1.284e+04 1.351e-09
 49.63302    265.4 1.292e+04 1.399e-09
 49.65295    266.6 1.298e+04 1.433e-09
 49.67287    267.8 1.297e+04 1.425e-09
 49.69279    268.9 1.292e+04 1.387e-09
 49.70326    270.0 1.283e+04 1.305e-09
 49.71322    269.2 1.272e+04 1.380e-09
 49.73264    270.1 1.245e+04 1.221e-09
 49.75257    270.9 1.220e+04 1.091e-09
 49.77249    271.7 1.207e+04 1.024e-09
 49.79241    272.4 1.204e+04 9.963e-10
 49.80316    273.2 1.207e+04 1.011e-09
 49.81312    272.0 1.257e+04 1.261e-09
 49.83226    272.7 1.280e+04 1.371e-09
 49.85218    273.5 1.315e+04 1.558e-09
 49.87211    274.2 1.359e+04 1.828e-09
 49.89203    274.9 1.406e+04 2.182e-09
 49.90305    275.6 1.451e+04 2.617e-09
 49.91302    274.3 1.487e+04 3.264e-09
 49.93188    275.0 1.519e+04 3.730e-09
 49.95180    275.9 1.545e+04 4.135e-09
 49.97173    276.8 1.565e+04 4.449e-09
 49.99165    277.8 1.582e+04 4.570e-09
 50.00295    278.8 1.589e+04 4.585e-09
 50.01292    277.5 1.560e+04 4.443e-09
 50.03150    278.4 1.547e+04 4.190e-09
 50.05142    279.2 1.528e+04 3.775e-09
 50.06482    280.1 1.502e+04 3.293e-09
 50.07479    279.2 1.461e+04 2.668e-09
 50.09127    279.9 1.426e+04 2.269e-09
 50.10285    280.4 1.392e+04 1.988e-09
 50.11281    277.9 1.323e+04 1.564e-09
 50.13112    278.3 1.317e+04 1.574e-09
 50.15104    278.8 1.317e+04 1.626e-09
 50.17097    279.4 1.330e+04 1.716e-09
 50.19089    279.9 1.354e+04 1.864e-09
 50.20275    279.6 1.390e+04 2.116e-09
 50.21271    276.8 1.392e+04 2.177e-09
 50.23074    276.3 1.432e+04 2.501e-09
 50.25066    275.7 1.478e+04 2.891e-09
 50.27059    274.9 1.534e+04 3.337e-09
 50.29051    274.0 1.598e+04 3.795e-09
 50.30265    272.4 1.658e+04 4.172e-09
 50.31261    270.1 1.534e+04 3.090e-09
 50.33036    268.3 1.568e+04 3.120e-09
 50.35028    265.7 1.570e+04 3.049e-09
 50.37021    262.1 1.560e+04 2.821e-09
 50.39013    258.3 1.535e+04 2.515e-09
 50.40255    254.5 1.500e+04 2.188e-09
 50.41251    252.8 1.371e+04 1.528e-09
 50.42998    250.1 1.335e+04 1.372e-09
 50.44990    248.0 1.295e+04 1.219e-09
 50.46983    246.4 1.254e+04 1.080e-09
 50.48975    245.5 1.222e+04 9.850e-10
 50.50245    245.3 1.215e+04 9.561e-10
 50.51241    246.2 1.180e+04 8.325e-10
 50.52960    246.3 1.180e+04 8.189e-10
 50.54952    246.5 1.181e+04 8.211e-10
 50.56945    247.0 1.185e+04 8.358e-10
 50.58937    247.6 1.199e+04 8.818e-10
 50.60235    248.4 1.222e+04 9.695e-10
 50.61231    249.0 1.182e+04 7.919e-10
 50.62922    249.8 1.215e+04 9.122e-10
 50.64914    250.8 1.256e+04 1.088e-09
 50.66907    252.0 1.302e+04 1.328e-09
 50.68007    253.3 1.350e+04 1.633e-09
 50.69003    252.3 1.411e+04 2.139e-09
 50.70225    253.8 1.466e+04 2.608e-09
 50.71221    254.0 1.398e+04 2.017e-09
 50.72884    255.7 1.441e+04 2.378e-09
 50.74876    257.6 1.492e+04 2.806e-09
 50.76868    259.8 1.568e+04 3.423e-09
 50.78861    261.5 1.681e+04 4.287e-09
 50.80210    262.8 1.726e+04 4.422e-09
 50.81206    263.0 1.684e+04 3.580e-09
 50.82846    264.5 1.769e+04 3.969e-09
 50.84335    266.8 1.819e+04 4.397e-09
 50.85200    268.1 1.863e+04 4.727e-09
 50.85698    267.2 1.828e+04 3.994e-09
 50.86323    268.6 1.859e+04 4.124e-09
 50.87319    270.0 1.889e+04 4.314e-09
 50.88315    271.9 1.921e+04 4.617e-09
 50.89311    273.8 1.968e+04 5.014e-09
 50.90195    275.9 2.016e+04 5.526e-09
 50.90693    274.0 1.970e+04 4.142e-09
 50.91304    276.1 1.981e+04 4.371e-09
 50.92300    278.6 1.973e+04 4.631e-09
 50.93296    281.8 1.973e+04 4.780e-09
 50.94292    286.0 2.015e+04 4.920e-09
 50.95190    287.4 2.249e+04 5.363e-09
 50.95688    282.9 2.084e+04 4.001e-09
 50.96284    278.8 2.740e+04 5.883e-09
 50.97281    260.2 4.347e+04 1.650e-08
 50.98261    240.5 4.910e+04 3.938e-08
 50.98756    228.4 4.140e+04 8.370e-08
 50.99019    220.5 3.681e+04 1.502e-07
 50.99517    209.0 3.508e+04 2.319e-07
 51.00015    194.8 3.562e+04 2.646e-07
 51.00429    179.2 3.669e+04 2.463e-07
 51.00678    177.9 3.892e+04 1.762e-07
 51.01012    162.9 3.934e+04 1.636e-07
 51.01510    149.1 3.871e+04 1.523e-07
 51.02008    137.5 3.554e+04 1.547e-07
 51.02506    128.6 3.130e+04 1.788e-07
 51.02926    122.8 3.051e+04 1.923e-07
 51.03175    122.5 2.612e+04 1.689e-07
 51.03502    118.8 2.524e+04 1.901e-07
 51.04000    116.3 2.373e+04 2.773e-07
 51.04498    113.9 2.333e+04 4.428e-07
 51.04996    111.3 2.306e+04 7.001e-07
 51.05424    108.4 2.245e+04 1.074e-06
 51.05673    111.8 2.257e+04 8.242e-07
 51.05993    108.6 2.252e+04 1.095e-06
 51.06491    105.9 2.272e+04 1.201e-06
 51.07240    101.8 2.402e+04 9.180e-07
 51.08239     94.4 2.621e+04 5.341e-07
 51.09235     87.7 3.112e+04 1.674e-07
 51.10174     82.4 3.415e+04 4.971e-08
 51.10672     89.1 3.259e+04 9.784e-08
 51.11227     85.0 3.268e+04 3.919e-08
 51.12224     81.9 2.709e+04 2.562e-08
 51.13220     81.3 2.359e+04 2.317e-08
 51.14216     82.0 2.370e+04 2.123e-08
 51.15169     82.9 2.415e+04 1.928e-08
 51.15667     85.1 2.362e+04 2.174e-08
 51.16208     85.6 2.397e+04 2.035e-08
 51.17205     86.1 2.432e+04 1.809e-08
 51.18201     86.2 2.443e+04 1.570e-08
 51.19197     86.3 2.417e+04 1.250e-08
 51.20169     85.3 2.367e+04 9.028e-09
 51.20667     88.3 2.375e+04 1.296e-08
 51.21189     87.9 2.321e+04 9.445e-09
 51.22689     89.2 2.286e+04 8.447e-09
 51.24686     87.8 1.945e+04 3.824e-09
 51.26678     86.9 1.506e+04 2.186e-09
 51.28534     86.6 1.275e+04 1.484e-09
 51.29531     87.3 1.307e+04 1.521e-09
 51.30164     88.1 1.271e+04 1.116e-09
 51.31160     89.8 1.261e+04 1.199e-09
 51.32655     90.5 1.230e+04 9.184e-10
 51.34648     91.2 1.199e+04 7.424e-10
 51.36640     91.8 1.161e+04 6.216e-10
 51.38633     92.6 1.118e+04 5.352e-10
 51.40154     93.9 1.080e+04 4.744e-10
 51.41150     95.1 1.081e+04 4.636e-10
 51.42617     96.5 1.048e+04 4.077e-10
 51.44610     98.0 1.036e+04 3.770e-10
 51.47608     98.9 1.039e+04 3.601e-10
 51.50163    101.7 1.033e+04 3.440e-10
 51.52156    102.3 1.010e+04 3.278e-10
 51.55587    105.9 1.011e+04 3.309e-10
 51.59572    109.7 1.018e+04 3.423e-10
 51.63557    113.3 1.025e+04 3.569e-10
 51.67542    116.5 1.016e+04 3.738e-10
 51.70133    120.3 1.013e+04 4.050e-10
 51.72126    121.6 1.007e+04 3.697e-10
 51.74505    124.3 1.009e+04 4.071e-10
 51.76488    126.7 1.021e+04 4.491e-10
 51.78480    128.8 1.038e+04 4.980e-10
 51.80113    130.6 1.057e+04 5.550e-10
 51.81110    130.3 1.009e+04 4.069e-10
 51.82465    132.3 1.017e+04 4.399e-10
 51.84458    134.1 1.031e+04 4.807e-10
 51.86450    135.8 1.046e+04 5.243e-10
 51.88442    137.4 1.062e+04 5.748e-10
 51.90059    139.0 1.079e+04 6.334e-10
 51.90723    139.4 1.122e+04 8.041e-10
 51.91099    139.5 1.050e+04 5.513e-10
 51.92427    141.1 1.067e+04 6.061e-10
 51.94419    142.6 1.085e+04 6.690e-10
 51.96412    144.2 1.104e+04 7.398e-10
 51.98404    145.7 1.123e+04 8.158e-10
 52.00093    147.2 1.141e+04 8.934e-10
 52.01089    147.6 1.081e+04 6.586e-10
 52.02389    149.2 1.102e+04 7.348e-10
 52.04381    150.7 1.123e+04 8.116e-10
 52.06374    152.2 1.142e+04 8.845e-10
 52.08366    153.7 1.159e+04 9.504e-10
 52.10083    155.1 1.176e+04 1.011e-09
 52.11079    155.8 1.128e+04 8.180e-10
 52.12351    157.3 1.144e+04 8.762e-10
 52.14343    158.8 1.160e+04 9.324e-10
 52.16336    160.2 1.177e+04 9.898e-10
 52.18328    161.6 1.193e+04 1.050e-09
 52.20073    163.0 1.208e+04 1.111e-09
 52.21069    163.8 1.173e+04 9.536e-10
 52.22313    165.3 1.188e+04 1.015e-09
 52.24305    166.8 1.203e+04 1.077e-09
 52.26298    168.3 1.217e+04 1.143e-09
 52.28290    169.9 1.232e+04 1.215e-09
 52.30063    171.5 1.248e+04 1.295e-09
 52.31059    172.0 1.219e+04 1.161e-09
 52.32275    173.5 1.239e+04 1.266e-09
 52.34267    175.0 1.260e+04 1.383e-09
 52.36260    176.6 1.283e+04 1.514e-09
 52.38252    178.1 1.311e+04 1.643e-09
 52.40053    179.7 1.340e+04 1.771e-09
 52.41049    180.2 1.308e+04 1.671e-09
 52.42237    181.7 1.343e+04 1.864e-09
 52.44229    183.2 1.376e+04 2.062e-09
 52.46222    184.8 1.408e+04 2.275e-09
 52.48214    186.3 1.438e+04 2.515e-09
 52.50043    187.8 1.468e+04 2.805e-09
 52.51039    188.3 1.463e+04 2.779e-09
 52.51583    189.7 1.507e+04 3.206e-09
 52.52579    189.2 1.495e+04 3.086e-09
 52.54191    190.6 1.537e+04 3.483e-09
 52.56184    191.8 1.586e+04 3.972e-09
 52.58176    193.0 1.633e+04 4.468e-09
 52.60032    193.9 1.676e+04 4.869e-09
 52.61029    193.7 1.713e+04 5.485e-09
 52.62161    194.5 1.765e+04 6.141e-09
 52.64153    195.2 1.810e+04 6.548e-09
 52.66146    195.8 1.832e+04 6.571e-09
 52.68138    196.2 1.836e+04 6.453e-09
 52.70022    196.5 1.834e+04 6.132e-09
 52.71019    195.7 1.909e+04 8.287e-09
 52.72123    196.0 1.890e+04 7.496e-09
 52.74115    196.7 1.851e+04 6.432e-09
 52.76107    197.7 1.804e+04 5.384e-09
 52.78100    198.7 1.759e+04 4.516e-09
 52.80012    199.6 1.723e+04 3.857e-09
 52.81008    198.5 1.731e+04 4.144e-09
 52.82085    199.1 1.707e+04 3.539e-09
 52.84077    199.7 1.691e+04 3.208e-09
 52.86069    200.3 1.704e+04 3.074e-09
 52.88062    201.1 1.704e+04 3.089e-09
 52.90002    201.8 1.711e+04 3.172e-09
 52.90998    199.8 1.678e+04 3.473e-09
 52.92047    200.4 1.704e+04 3.707e-09
 52.94039    201.2 1.742e+04 4.127e-09
 52.96031    201.9 1.783e+04 4.713e-09
 52.98024    202.5 1.814e+04 5.407e-09
 52.99992    203.0 1.843e+04 6.094e-09
 53.00988    201.6 1.722e+04 4.825e-09
 53.02009    201.8 1.745e+04 4.831e-09
 53.04001    202.1 1.745e+04 4.482e-09
 53.05993    202.4 1.721e+04 4.121e-09
 53.07986    202.8 1.693e+04 3.773e-09
 53.09978    203.0 1.666e+04 3.451e-09
 53.11971    201.9 1.527e+04 2.081e-09
 53.13107    201.5 1.499e+04 1.979e-09
 53.14103    201.5 1.498e+04 2.040e-09
 53.15955    201.1 1.480e+04 1.972e-09
 53.17948    200.4 1.464e+04 1.971e-09
 53.19940    199.4 1.465e+04 2.030e-09
 53.20968    198.1 1.474e+04 2.221e-09
 53.21964    197.0 1.416e+04 1.960e-09
 53.23925    195.8 1.491e+04 2.617e-09
 53.25917    194.4 1.581e+04 3.577e-09
 53.27910    193.1 1.634e+04 4.286e-09
 53.29399    192.5 1.671e+04 4.911e-09
 53.30390    191.6 1.734e+04 5.693e-09
 53.30948    190.0 1.824e+04 6.949e-09
 53.31446    190.5 1.789e+04 6.663e-09
 53.32383    189.0 1.876e+04 8.063e-09
 53.33379    187.1 1.970e+04 1.009e-08
 53.34375    185.8 2.029e+04 1.196e-08
 53.35371    184.3 2.078e+04 1.369e-08
 53.35943    183.2 2.107e+04 1.482e-08
 53.36441    183.7 2.072e+04 1.310e-08
 53.37867    181.2 2.110e+04 1.473e-08
 53.39864    178.5 2.102e+04 1.418e-08
 53.40948    176.1 2.046e+04 1.126e-08
 53.41944    175.2 1.990e+04 8.375e-09
 53.43849    172.4 1.865e+04 5.462e-09
 53.45338    171.1 1.760e+04 4.229e-09
 53.45933    170.0 1.774e+04 3.158e-09
 53.46431    168.9 1.854e+04 3.823e-09
 53.47326    159.7 2.457e+04 5.556e-09
 53.48322    140.8 3.009e+04 3.851e-08
 53.49318    123.4 2.557e+04 3.152e-07
 53.50314    116.0 2.287e+04 6.891e-07
 53.50925    113.0 2.191e+04 9.570e-07
 53.51172    112.2 2.142e+04 1.283e-06
 53.51555    110.0 2.166e+04 1.173e-06
 53.52053    107.1 2.345e+04 7.585e-07
 53.52551    104.9 2.467e+04 5.375e-07
 53.53300     99.4 3.291e+04 1.755e-07
 53.54299     83.2 5.750e+04 1.395e-08
 53.55295     52.9 5.433e+04 3.935e-09
 53.55923     31.4 2.351e+04 8.126e-09
 53.56421     30.4 2.246e+04 7.496e-09
 53.57288     22.5 2.279e+04 9.154e-09
 53.58284     18.1 2.237e+04 9.033e-09
 53.59783      9.6 2.186e+04 8.168e-09
 53.60928     -1.7 2.047e+04 5.589e-09
 53.61924     -1.3 2.120e+04 6.867e-09
 53.63773    -12.4 1.898e+04 4.197e-09
 53.65765    -20.3 1.611e+04 2.621e-09
 53.67757    -24.7 1.432e+04 1.834e-09
 53.69750    -27.1 1.344e+04 1.336e-09
 53.70917    -29.0 1.271e+04 9.512e-10
 53.71914    -28.5 1.265e+04 9.222e-10
 53.73635    -30.9 1.182e+04 6.308e-10
 53.74631    -30.5 1.169e+04 6.285e-10
 53.75727    -32.3 1.125e+04 5.005e-10
 53.77719    -33.7 1.121e+04 4.802e-10
 53.79712    -35.2 1.134e+04 5.130e-10
 53.80907    -37.2 1.180e+04 6.120e-10
 53.81904    -37.1 1.164e+04 5.746e-10
 53.83697    -38.4 1.178e+04 7.095e-10
 53.85689    -38.4 1.183e+04 8.482e-10
 53.87681    -38.1 1.173e+04 8.690e-10
 53.89674    -37.6 1.150e+04 8.109e-10
 53.90897    -37.3 1.119e+04 6.805e-10
 53.91893    -36.5 1.104e+04 6.415e-10
 53.93659    -36.6 1.062e+04 4.787e-10
 53.95651    -36.6 1.028e+04 3.663e-10
 53.98649    -40.6 1.053e+04 3.561e-10
 54.02644    -43.1 1.035e+04 3.549e-10
 54.06629    -44.0 1.028e+04 3.684e-10
 54.09900    -43.9 1.024e+04 3.882e-10
 54.11893    -42.6 1.012e+04 3.764e-10
 54.14598    -41.9 1.016e+04 3.784e-10
 54.18583    -41.2 1.021e+04 3.834e-10
 54.22568    -40.8 1.027e+04 3.691e-10
 54.26553    -41.0 1.017e+04 3.392e-10
 54.29880    -41.1 1.005e+04 2.838e-10
 54.31873    -39.8 9.973e+03 2.826e-10
 54.34182    -41.4 1.044e+04 3.255e-10
 54.36165    -41.6 1.056e+04 3.413e-10
 54.37491    -44.5 1.069e+04 4.201e-10
 54.39484    -44.4 1.073e+04 5.172e-10
 54.40847    -43.8 1.088e+04 7.228e-10
 54.41843    -42.8 1.097e+04 7.747e-10
 54.43468    -41.8 1.139e+04 9.489e-10
 54.45461    -41.2 1.181e+04 1.047e-09
 54.47453    -41.4 1.195e+04 1.063e-09
 54.49445    -41.3 1.172e+04 9.893e-10
 54.50837    -41.4 1.143e+04 8.783e-10
 54.51833    -40.6 1.138e+04 8.493e-10
 54.53430    -40.9 1.124e+04 7.444e-10
 54.55423    -41.6 1.124e+04 6.682e-10
 54.57415    -42.3 1.109e+04 6.415e-10
 54.59407    -42.7 1.097e+04 6.500e-10
 54.60826    -43.1 1.109e+04 6.929e-10
 54.61823    -42.4 1.107e+04 6.863e-10
 54.63392    -42.9 1.147e+04 7.456e-10
 54.65385    -43.6 1.180e+04 8.656e-10
 54.67377    -44.5 1.219e+04 9.574e-10
 54.69369    -45.2 1.218e+04 1.103e-09
 54.70816    -45.9 1.222e+04 1.187e-09
 54.71813    -44.8 1.238e+04 1.257e-09
 54.73354    -45.3 1.239e+04 1.354e-09
 54.75347    -45.6 1.250e+04 1.385e-09
 54.77339    -45.9 1.245e+04 1.405e-09
 54.79331    -46.3 1.249e+04 1.325e-09
 54.80806    -47.1 1.268e+04 1.309e-09
 54.81802    -46.1 1.281e+04 1.424e-09
 54.83316    -47.2 1.312e+04 1.434e-09
 54.85308    -48.0 1.315e+04 1.523e-09
 54.87301    -48.6 1.295e+04 1.558e-09
 54.89293    -48.7 1.267e+04 1.657e-09
 54.90796    -48.8 1.315e+04 1.675e-09
 54.91792    -47.6 1.312e+04 1.666e-09
 54.93278    -48.9 1.380e+04 1.673e-09
 54.95270    -50.8 1.395e+04 1.774e-09
 54.96683    -51.9 1.367e+04 2.018e-09
 54.97679    -51.4 1.371e+04 2.010e-09
 54.99255    -51.4 1.386e+04 2.435e-09
 55.00786    -50.9 1.406e+04 2.751e-09
 55.01782    -50.2 1.386e+04 2.479e-09
 55.03240    -49.8 1.386e+04 2.593e-09
 55.05232    -49.4 1.351e+04 2.395e-09
 55.07225    -48.7 1.302e+04 1.935e-09
 55.09217    -48.1 1.252e+04 1.444e-09
 55.10776    -47.8 1.211e+04 1.040e-09
 55.11772    -46.7 1.204e+04 1.085e-09
 55.13202    -46.7 1.162e+04 7.865e-10
 55.15194    -46.9 1.125e+04 6.417e-10
 55.17187    -46.9 1.131e+04 5.799e-10
 55.19179    -47.8 1.189e+04 6.448e-10
 55.20766    -49.8 1.248e+04 8.705e-10
 55.21762    -48.4 1.242e+04 8.071e-10
 55.23164    -50.1 1.265e+04 1.240e-09
 55.25156    -50.6 1.298e+04 1.936e-09
 55.27149    -50.2 1.360e+04 2.744e-09
 55.29141    -49.5 1.408e+04 3.191e-09
 55.30756    -49.7 1.415e+04 3.025e-09
 55.31752    -48.5 1.399e+04 2.888e-09
 55.33126    -49.2 1.369e+04 2.387e-09
 55.35118    -50.4 1.280e+04 1.800e-09
 55.37111    -51.6 1.202e+04 1.343e-09
 55.39103    -52.2 1.168e+04 1.108e-09
 55.40746    -53.0 1.141e+04 9.450e-10
 55.41742    -51.9 1.141e+04 9.401e-10
 55.43088    -52.9 1.124e+04 8.649e-10
 55.45080    -53.7 1.120e+04 8.509e-10
 55.47073    -54.6 1.122e+04 9.229e-10
 55.49065    -55.1 1.128e+04 1.037e-09
 55.50736    -55.1 1.162e+04 1.191e-09
 55.51732    -54.1 1.144e+04 1.131e-09
 55.53050    -54.1 1.171e+04 1.201e-09
 55.55042    -54.7 1.204e+04 1.236e-09
 55.57035    -56.8 1.229e+04 1.234e-09
 55.58207    -59.2 1.219e+04 1.345e-09
 55.59203    -57.6 1.250e+04 1.421e-09
 55.60725    -59.5 1.234e+04 1.619e-09
 55.61722    -58.8 1.222e+04 1.440e-09
 55.63012    -59.6 1.229e+04 1.718e-09
 55.65004    -59.7 1.261e+04 2.085e-09
 55.66997    -60.4 1.327e+04 2.516e-09
 55.68989    -62.1 1.434e+04 3.063e-09
 55.70715    -65.0 1.531e+04 3.673e-09
 55.71711    -62.9 1.416e+04 2.668e-09
 55.72974    -66.1 1.475e+04 3.052e-09
 55.74966    -68.8 1.489e+04 3.595e-09
 55.76958    -70.3 1.479e+04 4.025e-09
 55.78951    -71.1 1.469e+04 4.210e-09
 55.80705    -72.0 1.459e+04 3.475e-09
 55.81701    -70.2 1.425e+04 3.479e-09
 55.82936    -71.3 1.397e+04 2.784e-09
 55.84928    -73.4 1.356e+04 2.150e-09
 55.86920    -76.2 1.296e+04 1.628e-09
 55.88913    -78.8 1.227e+04 1.344e-09
 55.90695    -80.8 1.183e+04 1.262e-09
 55.91691    -78.2 1.229e+04 1.375e-09
 55.92898    -80.2 1.206e+04 1.342e-09
 55.94890    -81.9 1.204e+04 1.439e-09
 55.96882    -83.9 1.256e+04 1.660e-09
 55.98875    -86.2 1.311e+04 1.903e-09
 56.00685    -88.9 1.346e+04 2.120e-09
 56.01681    -87.2 1.373e+04 2.374e-09
 56.02860    -89.9 1.396e+04 2.608e-09
 56.04852    -92.5 1.399e+04 2.666e-09
 56.06844    -94.9 1.376e+04 2.587e-09
 56.08837    -97.1 1.329e+04 2.188e-09
 56.10675    -99.4 1.273e+04 1.709e-09
 56.11671    -98.6 1.316e+04 1.993e-09
 56.12821   -101.2 1.247e+04 1.472e-09
 56.14814   -103.7 1.199e+04 1.179e-09
 56.16806   -106.0 1.176e+04 1.059e-09
 56.18735   -107.9 1.166e+04 1.013e-09
 56.19731   -107.6 1.178e+04 1.083e-09
 56.20665   -109.4 1.174e+04 1.081e-09
 56.21661   -108.4 1.142e+04 9.339e-10
 56.22783   -109.8 1.131e+04 8.943e-10
 56.24776   -110.9 1.121e+04 8.654e-10
 56.26768   -111.8 1.116e+04 8.530e-10
 56.28761   -112.4 1.115e+04 8.537e-10
 56.30655   -113.0 1.118e+04 8.628e-10
 56.31651   -112.1 1.077e+04 6.664e-10
 56.32745   -112.7 1.085e+04 6.846e-10
 56.34738   -113.3 1.105e+04 7.257e-10
 56.36730   -114.0 1.136e+04 7.999e-10
 56.38723   -114.8 1.176e+04 9.280e-10
 56.40645   -115.6 1.220e+04 1.131e-09
 56.41641   -114.8 1.177e+04 9.370e-10
 56.42707   -115.4 1.223e+04 1.167e-09
 56.44700   -115.8 1.267e+04 1.445e-09
 56.46692   -116.2 1.307e+04 1.735e-09
 56.48685   -116.5 1.340e+04 1.971e-09
 56.50634   -117.0 1.365e+04 2.060e-09
 56.51631   -116.0 1.327e+04 1.823e-09
 56.52669   -116.5 1.354e+04 1.909e-09
 56.54662   -117.2 1.375e+04 1.921e-09
 56.56654   -118.1 1.384e+04 1.853e-09
 56.58646   -119.0 1.401e+04 1.816e-09
 56.60624   -119.8 1.423e+04 1.738e-09
 56.61620   -118.4 1.431e+04 1.994e-09
 56.62631   -119.0 1.451e+04 2.049e-09
 56.64624   -119.6 1.473e+04 1.942e-09
 56.66616   -120.2 1.473e+04 1.726e-09
 56.68608   -121.1 1.449e+04 1.406e-09
 56.70601   -122.2 1.385e+04 1.060e-09
 56.71610   -123.7 1.262e+04 7.561e-10
 56.72607   -121.5 1.543e+04 1.614e-09
 56.74586   -122.9 1.447e+04 1.139e-09
 56.76578   -124.4 1.261e+04 7.729e-10
 56.78570   -125.7 1.126e+04 5.286e-10
 56.80259   -127.0 1.078e+04 4.286e-10
 56.81255   -127.2 1.080e+04 4.874e-10
 56.81600   -128.1 1.065e+04 4.284e-10
 56.82596   -126.1 1.146e+04 6.975e-10
 56.84548   -127.2 1.086e+04 4.947e-10
 56.86540   -128.0 1.072e+04 4.075e-10
 56.88532   -128.6 1.051e+04 3.552e-10
 56.90525   -128.9 1.041e+04 3.189e-10
 56.91590   -129.1 1.043e+04 3.049e-10
 56.92586   -129.1 1.758e+04 4.451e-10
 56.94509   -129.7 1.931e+04 3.749e-10
 56.96502   -130.5 1.717e+04 3.724e-10
 56.98494   -131.6 1.636e+04 3.755e-10
 57.00487   -133.1 1.494e+04 4.370e-10
 57.01580   -135.0 1.386e+04 7.899e-10
 57.02576   -136.5 2.054e+04 3.509e-09
 57.04471   -137.2 1.825e+04 3.936e-09
 57.06464   -137.0 1.727e+04 4.899e-09
 57.08456   -136.5 1.702e+04 5.885e-09
 57.10449   -135.3 1.694e+04 6.594e-09
 57.11570   -134.2 1.702e+04 6.900e-09
 57.12566   -135.1 1.824e+04 7.696e-09
 57.14433   -134.6 1.757e+04 6.834e-09
 57.16426   -134.3 1.722e+04 5.841e-09
 57.18418   -134.1 1.682e+04 4.654e-09
 57.20411   -134.0 1.626e+04 3.661e-09
 57.21560   -134.1 1.569e+04 2.994e-09
 57.22556   -135.5 1.497e+04 2.371e-09
 57.24395   -135.4 1.468e+04 2.308e-09
 57.26388   -135.1 1.452e+04 2.342e-09
 57.28380   -134.5 1.450e+04 2.442e-09
 57.30373   -133.9 1.448e+04 2.564e-09
 57.31550   -133.2 1.447e+04 2.666e-09
 57.32546   -133.2 1.453e+04 2.659e-09
 57.34357   -132.5 1.453e+04 2.728e-09
 57.36350   -132.0 1.452e+04 2.746e-09
 57.38342   -131.5 1.445e+04 2.732e-09
 57.40334   -131.0 1.437e+04 2.698e-09
 57.41540   -130.6 1.434e+04 2.671e-09
 57.41992   -130.8 1.408e+04 2.343e-09
 57.42779   -131.0 1.384e+04 2.137e-09
 57.44319   -130.5 1.383e+04 2.150e-09
 57.46312   -130.1 1.392e+04 2.201e-09
 57.48304   -129.6 1.410e+04 2.307e-09
 57.50296   -129.1 1.435e+04 2.465e-09
 57.51530   -128.6 1.463e+04 2.673e-09
 57.52526   -128.8 1.367e+04 1.851e-09
 57.54281   -128.5 1.380e+04 1.933e-09
 57.56274   -128.2 1.399e+04 2.045e-09
 57.58266   -127.9 1.428e+04 2.210e-09
 57.60258   -127.8 1.465e+04 2.461e-09
 57.61519   -127.6 1.503e+04 2.790e-09
 57.62516   -127.4 1.297e+04 1.474e-09
 57.64243   -127.1 1.308e+04 1.503e-09
 57.66236   -126.9 1.324e+04 1.550e-09
 57.68228   -126.7 1.345e+04 1.614e-09
 57.70220   -126.5 1.362e+04 1.672e-09
 57.71509   -126.3 1.370e+04 1.729e-09
 57.72505   -126.0 1.205e+04 9.200e-10
 57.74205   -125.7 1.219e+04 9.788e-10
 57.76197   -125.3 1.227e+04 1.051e-09
 57.78190   -124.7 1.228e+04 1.121e-09
 57.80182   -123.8 1.224e+04 1.172e-09
 57.81499   -122.8 1.217e+04 1.192e-09
 57.82495   -122.2 1.168e+04 8.826e-10
 57.84167   -121.2 1.169e+04 9.071e-10
 57.86159   -120.0 1.162e+04 9.123e-10
 57.88152   -118.8 1.157e+04 8.640e-10
 57.90144   -117.7 1.146e+04 7.858e-10
 57.91489   -116.7 1.135e+04 6.923e-10
 57.92485   -116.2 1.127e+04 7.009e-10
 57.94129   -115.1 1.118e+04 6.343e-10
 57.96121   -114.1 1.102e+04 5.484e-10
 57.98114   -112.9 1.079e+04 4.519e-10
 58.00106   -111.3 1.060e+04 3.679e-10
 58.01479   -109.6 1.060e+04 3.351e-10
 58.02475   -109.5 1.068e+04 3.833e-10
 58.03317   -108.3 1.069e+04 3.294e-10
 58.05319   -108.4 1.055e+04 3.390e-10
 58.09091   -106.9 1.058e+04 3.229e-10
 58.11488   -105.0 1.054e+04 3.156e-10
 58.13481   -103.9 1.056e+04 3.152e-10
 58.17061   -102.1 1.045e+04 2.930e-10
 58.21046    -99.9 1.039e+04 2.803e-10
 58.25031    -97.7 1.039e+04 2.784e-10
 58.29015    -95.8 1.051e+04 2.924e-10
 58.31468    -94.8 1.086e+04 3.552e-10
 58.33461    -94.6 1.082e+04 3.528e-10
 58.36985    -94.6 1.147e+04 5.114e-10
 58.40970    -95.7 1.245e+04 8.099e-10
 58.43949    -95.6 1.248e+04 9.624e-10
 58.45931    -96.8 1.353e+04 1.337e-09
 58.47924    -99.9 1.467e+04 1.889e-09
 58.49916   -103.4 1.593e+04 2.772e-09
 58.51428   -107.4 1.698e+04 4.062e-09
 58.52425   -105.4 1.634e+04 3.384e-09
 58.53901   -109.0 1.713e+04 4.672e-09
 58.55893   -112.4 1.751e+04 5.588e-09
 58.57886   -115.6 1.759e+04 5.838e-09
 58.59878   -118.7 1.749e+04 5.758e-09
 58.61418   -121.6 1.719e+04 5.081e-09
 58.62415   -118.5 1.650e+04 4.250e-09
 58.63835   -121.1 1.624e+04 3.550e-09
 58.64831   -121.6 1.617e+04 3.482e-09
 58.65855   -124.4 1.619e+04 3.373e-09
 58.67847   -128.4 1.665e+04 3.804e-09
 58.69840   -134.3 1.938e+04 6.930e-09
 58.71408   -141.7 2.235e+04 1.478e-08
 58.72400   -143.5 2.288e+04 1.744e-08
 58.73317   -147.1 2.443e+04 3.131e-08
 58.74313   -151.4 2.629e+04 5.337e-08
 58.75309   -157.1 2.721e+04 7.428e-08
 58.76305   -164.2 2.732e+04 8.021e-08
 58.76891   -171.5 2.625e+04 7.384e-08
 58.77390   -170.7 2.579e+04 1.341e-07
 58.78298   -179.8 2.622e+04 7.549e-08
 58.79294   -191.4 2.882e+04 4.615e-08
 58.80290   -204.7 3.102e+04 4.119e-08
 58.81286   -217.4 3.167e+04 4.628e-08
 58.81886   -227.4 3.012e+04 5.394e-08
 58.82385   -233.5 2.818e+04 6.812e-08
 58.83279   -239.0 2.511e+04 7.192e-08
 58.84275   -244.4 2.427e+04 5.559e-08
 58.85271   -252.0 2.523e+04 3.513e-08
 58.86267   -262.8 2.723e+04 2.007e-08
 58.86881   -275.8 2.782e+04 1.227e-08
 58.87379   -285.0 2.688e+04 1.141e-08
 58.88260   -295.0 2.365e+04 1.003e-08
 58.89256   -301.3 2.179e+04 9.926e-09
 58.90252   -305.5 2.109e+04 9.955e-09
 58.91248   -308.7 2.047e+04 9.931e-09
 58.91876   -311.3 1.981e+04 9.481e-09
 58.92374   -313.5 1.965e+04 9.247e-09
 58.93241   -315.8 1.899e+04 7.704e-09
 58.94237   -318.0 1.822e+04 6.193e-09
 58.95736   -321.4 1.700e+04 4.450e-09
 58.97733   -324.6 1.594e+04 3.338e-09
 58.99726   -328.8 1.384e+04 2.234e-09
 59.01378   -330.7 1.262e+04 1.671e-09
 59.02374   -332.3 1.246e+04 1.564e-09
 59.03710   -332.5 1.229e+04 1.436e-09
 59.05703   -332.6 1.205e+04 1.294e-09
 59.07695   -332.6 1.175e+04 1.129e-09
 59.09688   -332.5 1.143e+04 9.716e-10
 59.11368   -332.3 1.113e+04 8.333e-10
 59.12364   -333.3 1.093e+04 7.318e-10
 59.13672   -333.1 1.065e+04 6.287e-10
 59.15665   -332.9 1.041e+04 5.529e-10
 59.17657   -332.5 1.024e+04 5.026e-10
 59.19650   -332.1 1.016e+04 4.745e-10
 59.21358   -331.6 1.016e+04 4.650e-10
 59.22354   -332.9 1.018e+04 4.516e-10
 59.23634   -332.9 1.023e+04 4.587e-10
 59.25359   -333.2 1.057e+04 5.035e-10
 59.26355   -333.5 1.043e+04 4.516e-10
 59.27619   -333.8 1.074e+04 5.414e-10
 59.29612   -334.3 1.115e+04 6.900e-10
 59.31348   -335.1 1.187e+04 9.771e-10
 59.33350   -339.1 1.275e+04 1.327e-09
 59.35598   -338.4 1.411e+04 2.147e-09
 59.37581   -339.6 1.544e+04 3.155e-09
 59.39574   -341.5 1.663e+04 4.587e-09
 59.41337   -344.1 1.755e+04 6.299e-09
 59.42334   -345.2 1.604e+04 3.732e-09
 59.43558   -347.9 1.650e+04 4.528e-09
 59.45551   -350.4 1.668e+04 5.337e-09
 59.47543   -352.5 1.665e+04 6.033e-09
 59.49535   -353.8 1.654e+04 6.225e-09
 59.51025   -354.1 1.603e+04 5.737e-09
 59.51816   -354.3 1.594e+04 5.733e-09
 59.52319   -355.1 1.536e+04 4.569e-09
 59.53520   -355.5 1.523e+04 4.666e-09
 59.55513   -356.0 1.507e+04 4.396e-09
 59.57505   -356.5 1.466e+04 3.879e-09
 59.59497   -356.8 1.415e+04 3.149e-09
 59.61317   -357.1 1.357e+04 2.435e-09
 59.62313   -357.4 1.314e+04 2.127e-09
 59.63482   -357.5 1.269e+04 1.718e-09
 59.65475   -357.6 1.227e+04 1.398e-09
 59.67467   -357.7 1.193e+04 1.170e-09
 59.69459   -357.6 1.172e+04 1.032e-09
 59.71307   -357.6 1.168e+04 9.757e-10
 59.72303   -357.6 1.156e+04 9.226e-10
 59.73444   -357.6 1.157e+04 9.082e-10
 59.75437   -357.9 1.169e+04 9.042e-10
 59.77429   -358.6 1.247e+04 1.022e-09
 59.79421   -359.5 1.342e+04 1.390e-09
 59.81297   -360.1 1.420e+04 2.048e-09
 59.82293   -359.5 1.335e+04 1.503e-09
 59.83406   -359.5 1.396e+04 2.140e-09
 59.85398   -359.4 1.436e+04 2.864e-09
 59.86883   -359.2 1.456e+04 3.438e-09
 59.87879   -360.3 1.437e+04 3.284e-09
 59.89383   -360.0 1.436e+04 3.340e-09
 59.91287   -359.6 1.407e+04 3.277e-09
 59.92283   -359.5 1.358e+04 2.430e-09
 59.93368   -359.3 1.329e+04 2.306e-09
 59.95360   -359.0 1.295e+04 2.040e-09
 59.97353   -359.0 1.261e+04 1.750e-09
 59.99345   -359.1 1.230e+04 1.498e-09
 60.01277   -359.2 1.205e+04 1.304e-09
 60.02273   -359.5 1.182e+04 1.207e-09
 60.03330   -359.6 1.167e+04 1.105e-09
 60.05322   -359.7 1.154e+04 1.014e-09
 60.07315   -359.8 1.140e+04 9.263e-10
 60.09307   -359.9 1.125e+04 8.390e-10
 60.11267   -359.9 1.108e+04 7.518e-10
 60.12263   -360.0 1.072e+04 6.036e-10
 60.13292   -359.9 1.050e+04 5.175e-10
 60.15284   -359.8 1.029e+04 4.485e-10
 60.17277   -359.4 1.012e+04 4.002e-10
 60.19269   -359.0 1.002e+04 3.724e-10
 60.21257   -358.6 9.965e+03 3.582e-10
 60.24255   -357.8 9.930e+03 3.357e-10
 60.28254   -357.3 9.940e+03 3.344e-10
 60.31266   -356.7 9.949e+03 3.369e-10
 60.33258   -357.1 9.818e+03 2.968e-10
 60.36224   -356.2 9.811e+03 2.970e-10
 60.40209   -355.2 9.880e+03 2.992e-10
 60.44194   -354.3 1.010e+04 3.155e-10
 60.47431   -353.5 1.037e+04 3.534e-10
 60.49423   -355.1 1.037e+04 3.544e-10
 60.51246   -354.5 1.070e+04 4.137e-10
 60.53238   -354.3 1.068e+04 4.335e-10
 60.56148   -353.8 1.103e+04 5.212e-10
 60.60133   -353.4 1.132e+04 5.789e-10
 60.64117   -352.9 1.143e+04 5.969e-10
 60.67096   -352.1 1.148e+04 6.141e-10
 60.69079   -351.8 1.149e+04 6.079e-10
 60.71071   -351.2 1.143e+04 5.370e-10
 60.72202   -350.4 1.124e+04 4.351e-10
 60.73198   -350.9 1.133e+04 4.829e-10
 60.75056   -350.1 1.111e+04 3.799e-10
 60.77048   -349.5 1.097e+04 3.336e-10
 60.80047   -349.4 1.090e+04 3.106e-10
 60.84041   -347.4 1.066e+04 2.650e-10
 60.88026   -345.1 1.043e+04 2.311e-10
 60.91205   -342.7 1.027e+04 2.082e-10
 60.93198   -343.4 1.023e+04 2.185e-10
 60.95996   -340.8 1.015e+04 1.991e-10
 60.99980   -338.4 1.015e+04 1.880e-10
 61.03965   -336.0 1.019e+04 1.828e-10
 61.07950   -333.7 1.020e+04 1.816e-10
 61.11185   -331.5 1.021e+04 1.814e-10
 61.13178   -331.8 1.030e+04 2.015e-10
 61.15920   -329.7 1.031e+04 2.026e-10
 61.19904   -327.7 1.033e+04 2.026e-10
 61.23889   -325.5 1.037e+04 2.038e-10
 61.27874   -323.4 1.039e+04 2.105e-10
 61.31165   -321.2 1.037e+04 2.178e-10
 61.33157   -321.0 1.034e+04 2.191e-10
 61.35843   -318.6 1.034e+04 2.173e-10
 61.39828   -316.2 1.029e+04 2.202e-10
 61.43813   -313.8 1.027e+04 2.269e-10
 61.47798   -311.5 1.026e+04 2.392e-10
 61.51145   -309.3 1.023e+04 2.556e-10
 61.53137   -308.5 1.027e+04 2.544e-10
 61.55767   -306.5 1.022e+04 2.696e-10
 61.59752   -304.7 1.016e+04 2.784e-10
 61.63737   -303.0 1.015e+04 2.812e-10
 61.67722   -301.5 1.014e+04 2.822e-10
 61.70479   -300.3 1.015e+04 2.837e-10
 61.71889   -301.4 1.020e+04 2.907e-10
 61.73117   -302.4 1.084e+04 3.673e-10
 61.75691   -301.7 1.164e+04 6.178e-10
 61.79676   -301.0 1.236e+04 9.789e-10
 61.83661   -300.5 1.288e+04 1.372e-09
 61.87646   -300.5 1.313e+04 1.659e-09
 61.91104   -300.7 1.318e+04 1.774e-09
 61.93097   -302.2 1.300e+04 1.581e-09
 61.95615   -301.7 1.269e+04 1.437e-09
 61.99600   -301.1 1.217e+04 1.153e-09
 62.03585   -299.9 1.158e+04 8.703e-10
 62.07570   -298.3 1.106e+04 6.726e-10
 62.11084   -296.4 1.073e+04 5.655e-10
 62.13076   -296.0 1.066e+04 4.984e-10
 62.15539   -293.9 1.061e+04 4.873e-10
 62.19524   -291.8 1.060e+04 4.901e-10
 62.23509   -289.8 1.064e+04 5.228e-10
 62.27493   -287.9 1.073e+04 5.639e-10
 62.31064   -286.2 1.080e+04 5.920e-10
 62.33056   -285.6 1.098e+04 6.206e-10
 62.35463   -283.8 1.101e+04 6.308e-10
 62.39448   -282.1 1.099e+04 6.269e-10
 62.43433   -280.4 1.095e+04 6.096e-10
 62.47417   -278.6 1.088e+04 5.877e-10
 62.51044   -276.9 1.080e+04 5.592e-10
 62.53036   -276.1 1.101e+04 6.189e-10
 62.55387   -274.4 1.099e+04 6.206e-10
 62.59372   -272.7 1.092e+04 6.003e-10
 62.63356   -271.0 1.079e+04 5.533e-10
 62.67341   -269.0 1.060e+04 4.676e-10
 62.71023   -266.9 1.037e+04 3.616e-10
 62.73016   -266.3 1.083e+04 5.502e-10
 62.75311   -264.2 1.057e+04 4.256e-10
 62.79296   -262.0 1.031e+04 3.025e-10
 62.83280   -259.9 1.006e+04 2.081e-10
 62.87265   -257.8 9.857e+03 1.479e-10
 62.91003   -255.8 9.702e+03 1.179e-10
 62.92996   -254.7 1.010e+04 1.729e-10
 62.93527   -252.6 1.004e+04 1.348e-10
 62.95519   -252.7 9.765e+03 9.970e-11
 62.99220   -250.6 9.720e+03 9.582e-11
 63.03204   -248.5 9.959e+03 1.071e-10
 63.07189   -246.4 1.008e+04 1.301e-10
 63.10983   -244.3 1.014e+04 1.571e-10
 63.12975   -243.1 1.018e+04 1.566e-10
 63.15159   -241.1 1.022e+04 1.790e-10
 63.19143   -239.0 1.025e+04 1.951e-10
 63.23128   -236.9 1.028e+04 2.063e-10
 63.27113   -234.8 1.032e+04 2.189e-10
 63.30963   -232.8 1.040e+04 2.405e-10
 63.32955   -231.7 1.042e+04 2.357e-10
 63.35083   -229.7 1.057e+04 2.740e-10
 63.39067   -227.9 1.083e+04 3.402e-10
 63.43052   -226.2 1.117e+04 4.470e-10
 63.47037   -224.8 1.152e+04 5.903e-10
 63.50942   -223.6 1.186e+04 7.551e-10
 63.52935   -222.4 1.222e+04 9.343e-10
 63.55006   -221.4 1.251e+04 1.117e-09
 63.58991   -220.7 1.274e+04 1.242e-09
 63.62976   -220.1 1.289e+04 1.303e-09
 63.66961   -219.4 1.297e+04 1.312e-09
 63.69940   -217.4 1.294e+04 1.263e-09
 63.71899   -217.2 1.292e+04 1.314e-09
 63.72905   -216.6 1.286e+04 1.185e-09
 63.73924   -215.6 1.287e+04 1.178e-09
 63.75907   -215.3 1.313e+04 1.310e-09
 63.77899   -217.3 1.555e+04 1.701e-09
 63.79892   -221.4 1.944e+04 3.313e-09
 63.81884   -225.6 2.192e+04 9.650e-09
 63.83374   -227.8 2.317e+04 1.627e-08
 63.84365   -229.1 2.300e+04 3.993e-08
 63.85286   -230.2 2.279e+04 9.204e-08
 63.85784   -229.4 2.242e+04 2.328e-07
 63.86357   -230.8 2.216e+04 3.555e-07
 63.87353   -233.0 2.203e+04 3.877e-07
 63.87870   -234.6 2.168e+04 3.538e-07
 63.88368   -234.8 2.179e+04 6.323e-07
 63.89346   -235.2 2.169e+04 3.841e-07
 63.90342   -235.1 2.191e+04 1.515e-07
 63.91338   -235.0 2.167e+04 5.520e-08
 63.92334   -235.9 2.081e+04 2.272e-08
 63.92865   -237.5 1.945e+04 1.243e-08
 63.93363   -236.5 2.062e+04 1.613e-08
 63.94327   -238.2 1.913e+04 1.037e-08
 63.95323   -239.1 1.777e+04 7.895e-09
 63.96319   -239.5 1.686e+04 6.527e-09
 63.97315   -239.5 1.631e+04 5.690e-09
 63.97860   -239.4 1.598e+04 5.281e-09
 63.98358   -239.2 1.612e+04 5.447e-09
 63.99811   -239.1 1.590e+04 5.214e-09
 64.01808   -239.1 1.573e+04 5.066e-09
 64.02865   -239.1 1.552e+04 4.893e-09
 64.03861   -238.5 1.576e+04 5.442e-09
 64.05793   -238.6 1.572e+04 5.481e-09
 64.07785   -238.5 1.559e+04 5.451e-09
 64.09778   -238.4 1.521e+04 4.906e-09
 64.11770   -238.0 1.468e+04 3.856e-09
 64.12855   -237.7 1.400e+04 2.780e-09
 64.13851   -237.2 1.419e+04 3.007e-09
 64.15559   -237.1 1.349e+04 2.107e-09
 64.16556   -237.7 1.338e+04 1.935e-09
 64.17747   -237.7 1.269e+04 1.379e-09
 64.19740   -237.7 1.209e+04 1.015e-09
 64.21732   -237.4 1.163e+04 7.807e-10
 64.22845   -236.9 1.129e+04 6.294e-10
 64.23841   -236.6 1.149e+04 7.304e-10
 64.25717   -236.0 1.125e+04 6.253e-10
 64.27709   -235.3 1.112e+04 5.606e-10
 64.29702   -234.6 1.107e+04 5.255e-10
 64.31694   -233.8 1.107e+04 5.140e-10
 64.32834   -233.1 1.107e+04 5.122e-10
 64.33831   -232.8 1.125e+04 5.954e-10
 64.35679   -232.1 1.126e+04 5.946e-10
 64.37671   -231.4 1.134e+04 6.155e-10
 64.39664   -230.6 1.145e+04 6.591e-10
 64.41656   -229.7 1.156e+04 7.121e-10
 64.42824   -228.8 1.165e+04 7.564e-10
 64.43821   -228.7 1.167e+04 7.577e-10
 64.45641   -227.8 1.171e+04 7.745e-10
 64.47633   -227.0 1.171e+04 7.752e-10
 64.49625   -226.2 1.165e+04 7.446e-10
 64.51618   -225.3 1.148e+04 6.763e-10
 64.52814   -224.3 1.128e+04 5.954e-10
 64.53810   -224.2 1.125e+04 5.635e-10
 64.55603   -223.2 1.104e+04 4.919e-10
 64.57595   -222.2 1.086e+04 4.341e-10
 64.59587   -221.3 1.072e+04 3.938e-10
 64.61580   -220.3 1.064e+04 3.665e-10
 64.62804   -219.4 1.059e+04 3.484e-10
 64.63800   -219.3 1.057e+04 3.389e-10
 64.65565   -218.4 1.055e+04 3.246e-10
 64.67557   -217.5 1.054e+04 3.150e-10
 64.69549   -216.6 1.055e+04 3.093e-10
 64.71542   -215.9 1.056e+04 3.080e-10
 64.72794   -215.0 1.058e+04 3.076e-10
 64.73790   -214.8 1.054e+04 2.918e-10
 64.75527   -214.2 1.059e+04 2.910e-10
 64.77084   -213.6 1.071e+04 2.962e-10
 64.78080   -214.0 1.086e+04 3.639e-10
 64.79511   -213.6 1.100e+04 3.946e-10
 64.81504   -213.1 1.113e+04 4.343e-10
 64.82784   -212.7 1.123e+04 4.719e-10
 64.83780   -212.4 1.106e+04 4.048e-10
 64.85488   -212.2 1.112e+04 4.267e-10
 64.87481   -212.1 1.125e+04 4.409e-10
 64.89473   -212.2 1.164e+04 4.722e-10
 64.91466   -213.3 1.236e+04 5.763e-10
 64.92774   -214.8 1.318e+04 8.415e-10
 64.93770   -214.0 1.262e+04 6.832e-10
 64.95450   -215.3 1.335e+04 1.059e-09
 64.97443   -216.4 1.392e+04 1.626e-09
 64.99435   -217.3 1.429e+04 2.253e-09
 65.01428   -218.2 1.440e+04 2.664e-09
 65.02764   -219.0 1.439e+04 2.755e-09
 65.03760   -218.3 1.408e+04 2.288e-09
 65.05412   -218.9 1.390e+04 2.278e-09
 65.07405   -219.1 1.337e+04 2.004e-09
 65.09397   -219.1 1.281e+04 1.601e-09
 65.11390   -219.1 1.229e+04 1.248e-09
 65.12754   -219.1 1.182e+04 9.864e-10
 65.13750   -218.9 1.167e+04 8.815e-10
 65.15374   -218.8 1.132e+04 7.407e-10
 65.17367   -218.1 1.105e+04 6.523e-10
 65.19359   -217.4 1.089e+04 6.023e-10
 65.21352   -216.6 1.080e+04 5.733e-10
 65.22744   -215.7 1.076e+04 5.541e-10
 65.23740   -215.6 1.072e+04 5.270e-10
 65.25336   -214.7 1.071e+04 5.238e-10
 65.27329   -213.9 1.073e+04 5.267e-10
 65.29321   -213.0 1.080e+04 5.314e-10
 65.31313   -212.3 1.087e+04 5.338e-10
 65.32733   -211.7 1.095e+04 5.365e-10
 65.33730   -212.1 1.087e+04 5.211e-10
 65.35298   -212.0 1.099e+04 5.403e-10
 65.37291   -212.0 1.114e+04 5.610e-10
 65.38608   -212.3 1.127e+04 5.887e-10
 65.39604   -210.4 1.134e+04 6.566e-10
 65.41275   -210.6 1.155e+04 6.671e-10
 65.42723   -211.4 1.172e+04 7.027e-10
 65.43719   -212.0 1.158e+04 7.358e-10
 65.45260   -212.7 1.168e+04 7.830e-10
 65.47253   -213.3 1.178e+04 8.353e-10
 65.49245   -213.8 1.184e+04 8.908e-10
 65.51237   -214.2 1.187e+04 9.325e-10
 65.52713   -214.4 1.185e+04 9.487e-10
 65.53709   -214.0 1.169e+04 9.148e-10
 65.55222   -214.1 1.161e+04 8.965e-10
 65.57215   -214.2 1.150e+04 8.770e-10
 65.59207   -214.1 1.143e+04 8.693e-10
 65.61199   -214.0 1.141e+04 8.668e-10
 65.62703   -213.6 1.144e+04 8.747e-10
 65.63699   -213.1 1.120e+04 7.720e-10
 65.65184   -212.6 1.119e+04 7.675e-10
 65.67176   -212.2 1.127e+04 7.798e-10
 65.69169   -211.9 1.140e+04 8.135e-10
 65.71161   -211.8 1.159e+04 8.789e-10
 65.72693   -211.7 1.184e+04 9.775e-10
 65.73689   -210.9 1.134e+04 7.834e-10
 65.75146   -210.9 1.167e+04 9.056e-10
 65.77138   -211.0 1.208e+04 1.082e-09
 65.79131   -211.3 1.248e+04 1.309e-09
 65.81123   -211.7 1.282e+04 1.561e-09
 65.82683   -212.2 1.304e+04 1.778e-09
 65.83679   -211.4 1.280e+04 1.504e-09
 65.85108   -212.1 1.295e+04 1.672e-09
 65.87100   -212.8 1.297e+04 1.723e-09
 65.89093   -213.5 1.292e+04 1.721e-09
 65.91085   -214.2 1.262e+04 1.559e-09
 65.92673   -214.7 1.224e+04 1.303e-09
 65.93669   -214.1 1.224e+04 1.279e-09
 65.95070   -214.6 1.188e+04 1.059e-09
 65.97062   -215.0 1.154e+04 8.649e-10
 65.99055   -215.4 1.121e+04 7.124e-10
 66.00132   -215.5 1.093e+04 5.995e-10
 66.01128   -215.5 1.098e+04 6.015e-10
 66.02663   -215.6 1.071e+04 5.137e-10
 66.03659   -214.9 1.079e+04 5.213e-10
 66.05032   -214.9 1.053e+04 4.483e-10
 66.07024   -214.6 1.032e+04 3.955e-10
 66.09017   -213.9 1.024e+04 3.654e-10
 66.11009   -213.1 1.024e+04 3.566e-10
 66.12653   -212.5 1.025e+04 3.547e-10
 66.13649   -212.0 1.027e+04 3.512e-10
 66.14994   -211.4 1.028e+04 3.504e-10
 66.16986   -210.8 1.042e+04 3.582e-10
 66.18979   -210.2 1.055e+04 3.873e-10
 66.20971   -209.7 1.070e+04 4.357e-10
 66.22642   -209.1 1.086e+04 5.020e-10
 66.23639   -208.5 1.087e+04 4.782e-10
 66.24956   -207.8 1.103e+04 5.553e-10
 66.26948   -207.1 1.119e+04 6.458e-10
 66.28941   -206.2 1.131e+04 7.353e-10
 66.30933   -205.3 1.138e+04 8.087e-10
 66.32632   -204.4 1.139e+04 8.638e-10
 66.33628   -204.2 1.135e+04 8.096e-10
 66.34918   -203.2 1.131e+04 8.344e-10
 66.36910   -202.2 1.135e+04 8.488e-10
 66.38903   -201.3 1.150e+04 8.765e-10
 66.40895   -200.7 1.188e+04 9.430e-10
 66.42622   -200.6 1.277e+04 1.108e-09
 66.43618   -200.2 1.236e+04 9.817e-10
 66.44880   -200.5 1.389e+04 1.323e-09
 66.46872   -201.0 1.585e+04 2.169e-09
 66.48865   -201.3 1.737e+04 3.888e-09
 66.50857   -201.3 1.823e+04 6.691e-09
 66.52612   -200.8 1.860e+04 1.010e-08
 66.53608   -201.0 1.905e+04 9.542e-09
 66.54842   -200.7 1.902e+04 1.267e-08
 66.56834   -200.4 1.894e+04 1.360e-08
 66.58826   -200.1 1.871e+04 1.361e-08
 66.60660   -199.7 1.825e+04 1.190e-08
 66.61656   -200.7 1.706e+04 7.768e-09
 66.62602   -200.4 1.636e+04 5.100e-09
 66.63598   -200.9 1.739e+04 7.075e-09
 66.64804   -201.0 1.675e+04 4.844e-09
 66.66796   -201.2 1.607e+04 3.175e-09
 66.68788   -201.6 1.534e+04 2.097e-09
 66.70781   -202.0 1.460e+04 1.476e-09
 66.72592   -202.2 1.403e+04 1.186e-09
 66.73588   -203.0 1.560e+04 2.783e-09
 66.74766   -203.1 1.520e+04 2.546e-09
 66.76758   -203.0 1.495e+04 2.482e-09
 66.78750   -202.7 1.483e+04 2.485e-09
 66.80743   -202.3 1.468e+04 2.653e-09
 66.82582   -201.7 1.453e+04 2.804e-09
 66.83578   -201.8 1.481e+04 4.198e-09
 66.84728   -201.1 1.462e+04 3.936e-09
 66.86720   -200.5 1.436e+04 3.647e-09
 66.88712   -199.9 1.407e+04 3.328e-09
 66.90705   -199.2 1.375e+04 3.018e-09
 66.92572   -198.5 1.343e+04 2.727e-09
 66.93568   -198.6 1.334e+04 2.758e-09
 66.94689   -197.7 1.302e+04 2.499e-09
 66.96682   -196.9 1.276e+04 2.283e-09
 66.98674   -196.0 1.256e+04 2.078e-09
 67.00667   -195.1 1.237e+04 1.875e-09
 67.02562   -194.3 1.215e+04 1.672e-09
 67.03558   -194.7 1.214e+04 1.787e-09
 67.04651   -193.8 1.186e+04 1.547e-09
 67.06644   -193.1 1.166e+04 1.376e-09
 67.08636   -192.6 1.162e+04 1.322e-09
 67.10629   -192.6 1.164e+04 1.320e-09
 67.12551   -193.5 1.203e+04 1.374e-09
 67.13548   -195.4 1.357e+04 2.040e-09
 67.14613   -197.1 1.521e+04 3.283e-09
 67.16606   -197.6 1.670e+04 5.767e-09
 67.18598   -197.6 1.775e+04 9.140e-09
 67.20591   -197.6 1.837e+04 1.213e-08
 67.22184   -198.1 1.853e+04 1.321e-08
 67.23138   -198.1 1.863e+04 1.376e-08
 67.23538   -198.6 1.915e+04 1.669e-08
 67.24575   -198.7 1.824e+04 1.372e-08
 67.26568   -198.3 1.698e+04 9.719e-09
 67.28560   -197.8 1.581e+04 6.820e-09
 67.30553   -197.7 1.493e+04 5.087e-09
 67.32531   -197.6 1.437e+04 4.144e-09
 67.33527   -197.7 1.400e+04 3.652e-09
 67.34537   -197.7 1.385e+04 3.339e-09
 67.36530   -197.5 1.385e+04 3.290e-09
 67.38522   -197.5 1.416e+04 3.335e-09
 67.40514   -198.0 1.495e+04 3.759e-09
 67.42507   -198.6 1.576e+04 4.430e-09
 67.43517   -199.1 1.639e+04 5.213e-09
 67.44513   -199.4 1.653e+04 5.418e-09
 67.46492   -199.7 1.678e+04 6.131e-09
 67.48484   -199.7 1.681e+04 6.586e-09
 67.50476   -199.7 1.674e+04 6.721e-09
 67.52469   -199.5 1.643e+04 6.623e-09
 67.53507   -199.0 1.602e+04 6.095e-09
 67.54503   -199.1 1.594e+04 5.917e-09
 67.56454   -198.6 1.543e+04 5.135e-09
 67.58446   -197.9 1.489e+04 4.335e-09
 67.60438   -197.2 1.429e+04 3.560e-09
 67.62431   -196.4 1.366e+04 2.874e-09
 67.63497   -195.6 1.303e+04 2.286e-09
 67.64493   -195.7 1.294e+04 2.198e-09
 67.66416   -194.9 1.231e+04 1.697e-09
 67.68408   -194.0 1.170e+04 1.301e-09
 67.70400   -193.2 1.114e+04 1.008e-09
 67.72393   -192.4 1.066e+04 8.000e-10
 67.73487   -191.7 1.028e+04 6.621e-10
 67.74483   -191.7 1.007e+04 6.065e-10
 67.76377   -191.0 9.787e+03 5.270e-10
 67.78370   -190.2 9.652e+03 4.926e-10
 67.80362   -189.4 9.618e+03 4.850e-10
 67.82355   -188.8 9.615e+03 4.849e-10
 67.83477   -188.3 9.713e+03 5.208e-10
 67.83834   -188.1 9.535e+03 4.740e-10
 67.84704   -187.3 9.569e+03 4.907e-10
 67.86339   -186.7 9.758e+03 5.564e-10
 67.88332   -186.0 9.987e+03 6.600e-10
 67.90324   -185.2 1.024e+04 7.885e-10
 67.92317   -184.3 1.049e+04 9.318e-10
 67.93467   -183.4 1.070e+04 1.061e-09
 67.94463   -183.2 1.045e+04 9.392e-10
 67.96301   -182.3 1.062e+04 1.041e-09
 67.98294   -181.5 1.068e+04 1.087e-09
 68.00286   -180.8 1.070e+04 1.095e-09
 68.02279   -180.1 1.066e+04 1.083e-09
 68.03457   -179.5 1.052e+04 1.008e-09
 68.04453   -179.3 1.036e+04 9.338e-10
 68.06263   -178.8 1.020e+04 8.464e-10
 68.08256   -178.5 1.001e+04 7.546e-10
 68.10248   -178.4 9.838e+03 6.809e-10
 68.12241   -178.4 9.771e+03 6.466e-10
 68.13447   -178.9 9.787e+03 6.427e-10
 68.14443   -179.0 9.806e+03 6.406e-10
 68.16225   -181.5 1.062e+04 7.420e-10
 68.18218   -184.4 1.168e+04 1.084e-09
 68.20210   -186.9 1.248e+04 1.614e-09
 68.22202   -189.0 1.295e+04 2.147e-09
 68.23436   -191.1 1.307e+04 2.407e-09
 68.24433   -191.0 1.271e+04 2.068e-09
 68.26187   -193.0 1.250e+04 1.986e-09
 68.28180   -194.8 1.203e+04 1.710e-09
 68.30172   -196.5 1.153e+04 1.434e-09
 68.32164   -197.9 1.110e+04 1.234e-09
 68.33426   -199.0 1.078e+04 1.092e-09
 68.34423   -199.4 1.030e+04 8.540e-10
 68.36149   -200.2 1.013e+04 7.895e-10
 68.38142   -200.9 9.963e+03 7.242e-10
 68.40134   -201.5 9.802e+03 6.584e-10
 68.42126   -202.2 9.666e+03 5.996e-10
 68.43416   -202.8 9.583e+03 5.562e-10
 68.44412   -203.3 9.442e+03 5.146e-10
 68.45232   -204.0 9.452e+03 5.063e-10
 68.46228   -204.0 9.666e+03 5.679e-10
 68.48104   -204.9 9.742e+03 5.734e-10
 68.50096   -205.7 9.833e+03 5.897e-10
 68.52088   -206.5 9.910e+03 6.077e-10
 68.53406   -207.2 9.953e+03 6.210e-10
 68.54402   -207.6 9.801e+03 5.773e-10
 68.56073   -208.2 9.807e+03 5.793e-10
 68.58065   -208.8 9.808e+03 5.794e-10
 68.60058   -209.4 9.770e+03 5.756e-10
 68.62050   -210.0 9.713e+03 5.520e-10
 68.63396   -210.8 9.648e+03 5.182e-10
 68.64392   -211.0 9.582e+03 5.019e-10
 68.66035   -211.9 9.560e+03 4.754e-10
 68.68027   -212.9 9.564e+03 4.561e-10
 68.70020   -214.2 9.576e+03 4.503e-10
 68.72012   -215.9 9.597e+03 4.503e-10
 68.73386   -218.1 9.764e+03 4.539e-10
 68.74382   -219.1 1.012e+04 4.979e-10
 68.75997   -221.7 1.057e+04 5.956e-10
 68.77989   -224.1 1.101e+04 7.501e-10
 68.79982   -226.1 1.140e+04 9.499e-10
 68.81974   -227.7 1.172e+04 1.165e-09
 68.83376   -228.9 1.195e+04 1.349e-09
 68.84372   -229.6 1.214e+04 1.479e-09
 68.85959   -230.5 1.215e+04 1.510e-09
 68.87951   -231.1 1.209e+04 1.493e-09
 68.89944   -231.4 1.193e+04 1.407e-09
 68.91936   -231.6 1.173e+04 1.287e-09
 68.93366   -231.7 1.149e+04 1.141e-09
 68.94362   -232.1 1.142e+04 1.093e-09
 68.95921   -232.2 1.122e+04 9.906e-10
 68.97913   -232.0 1.106e+04 9.115e-10
 68.99906   -231.8 1.097e+04 8.649e-10
 69.01898   -231.5 1.095e+04 8.474e-10
 69.03356   -231.2 1.095e+04 8.447e-10
 69.04352   -231.4 1.106e+04 8.930e-10
 69.05760   -231.4 1.111e+04 9.214e-10
 69.06756   -231.6 1.092e+04 8.268e-10
 69.07875   -232.0 1.094e+04 9.749e-10
 69.09868   -233.5 1.238e+04 1.480e-09
 69.11860   -235.3 1.439e+04 2.591e-09
 69.13345   -236.8 1.611e+04 4.761e-09
 69.14342   -236.9 1.656e+04 5.607e-09
 69.15845   -238.0 1.790e+04 9.377e-09
 69.17837   -239.2 1.881e+04 1.327e-08
 69.19830   -241.1 1.928e+04 1.525e-08
 69.21822   -243.2 1.936e+04 1.560e-08
 69.23335   -244.8 1.925e+04 1.442e-08
 69.24327   -245.3 1.991e+04 1.569e-08
 69.25299   -246.4 1.995e+04 1.452e-08
 69.26295   -247.5 2.017e+04 1.372e-08
 69.27794   -248.8 2.027e+04 1.265e-08
 69.29792   -249.4 1.929e+04 1.009e-08
 69.31784   -249.5 1.834e+04 8.018e-09
 69.33325   -249.6 1.711e+04 6.239e-09
 69.34321   -250.2 1.712e+04 7.041e-09
 69.35769   -249.5 1.583e+04 5.130e-09
 69.37761   -248.7 1.477e+04 3.980e-09
 69.39754   -247.8 1.397e+04 3.276e-09
 69.41746   -246.9 1.349e+04 2.863e-09
 69.43315   -245.7 1.314e+04 2.604e-09
 69.44311   -245.9 1.238e+04 1.997e-09
 69.45731   -244.6 1.209e+04 1.829e-09
 69.47723   -243.2 1.184e+04 1.679e-09
 69.49715   -241.6 1.163e+04 1.526e-09
 69.51708   -240.1 1.141e+04 1.368e-09
 69.53305   -238.6 1.120e+04 1.209e-09
 69.54301   -238.4 1.079e+04 9.261e-10
 69.55693   -236.9 1.063e+04 7.941e-10
 69.57685   -235.3 1.051e+04 6.760e-10
 69.59677   -233.8 1.042e+04 5.741e-10
 69.61670   -232.4 1.037e+04 4.950e-10
 69.63295   -231.0 1.034e+04 4.394e-10
 69.64291   -230.9 1.017e+04 3.709e-10
 69.65655   -229.8 1.016e+04 3.601e-10
 69.68653   -227.8 1.020e+04 3.573e-10
 69.72308   -225.5 1.020e+04 3.548e-10
 69.74301   -225.7 1.000e+04 3.413e-10
 69.76632   -223.2 1.002e+04 3.420e-10
 69.80617   -220.8 1.007e+04 3.355e-10
 69.84602   -218.4 1.003e+04 3.178e-10
 69.88587   -216.0 9.950e+03 2.910e-10
 69.92288   -213.6 9.840e+03 2.625e-10
 69.94280   -213.6 9.861e+03 2.919e-10
 69.96556   -211.1 9.745e+03 2.673e-10
 70.00541   -208.6 9.612e+03 2.425e-10
 70.04526   -206.1 9.479e+03 2.201e-10
 70.08511   -203.6 9.366e+03 2.020e-10
 70.12268   -201.1 9.276e+03 1.894e-10
 70.14260   -201.1 9.337e+03 2.056e-10
 70.16480   -198.7 9.277e+03 1.953e-10
 70.20465   -196.4 9.233e+03 1.895e-10
 70.24450   -194.1 9.199e+03 1.872e-10
 70.27831   -191.8 9.180e+03 1.869e-10
 70.29824   -192.7 9.234e+03 1.917e-10
 70.32247   -190.4 9.172e+03 1.892e-10
 70.34240   -190.4 9.154e+03 1.842e-10
 70.36404   -188.1 9.102e+03 1.754e-10
 70.40389   -185.8 9.078e+03 1.640e-10
 70.44374   -183.4 9.089e+03 1.533e-10
 70.48358   -181.2 9.130e+03 1.471e-10
 70.52227   -179.2 9.154e+03 1.457e-10
 70.54220   -179.1 9.119e+03 1.223e-10
 70.56328   -177.3 9.133e+03 1.219e-10
 70.60313   -176.0 9.573e+03 1.362e-10
 70.64297   -175.1 9.921e+03 2.087e-10
 70.68282   -174.2 1.032e+04 3.404e-10
 70.72207   -173.4 1.073e+04 5.122e-10
 70.74199   -173.4 1.040e+04 4.066e-10
 70.76252   -172.7 1.072e+04 5.406e-10
 70.80237   -172.1 1.090e+04 6.022e-10
 70.84221   -171.5 1.093e+04 6.122e-10
 70.88206   -170.6 1.084e+04 5.637e-10
 70.92187   -169.5 1.065e+04 4.411e-10
 70.96172   -168.3 1.045e+04 3.293e-10
 71.00160   -167.1 1.046e+04 3.071e-10
 71.04145   -165.9 1.048e+04 3.042e-10
 71.08130   -164.7 1.061e+04 3.212e-10
 71.12115   -163.7 1.072e+04 3.541e-10
 71.14159   -162.7 1.074e+04 3.700e-10
 71.16151   -162.9 1.075e+04 3.778e-10
 71.20084   -161.8 1.071e+04 3.800e-10
 71.24069   -160.3 1.042e+04 3.361e-10
 71.28054   -158.4 1.009e+04 2.301e-10
 71.32039   -156.4 9.826e+03 1.399e-10
 71.34139   -154.5 9.692e+03 8.536e-11
 71.36131   -154.8 9.845e+03 1.228e-10
 71.40008   -152.9 9.765e+03 8.034e-11
 71.43993   -150.9 9.717e+03 5.860e-11
 71.47978   -148.8 9.645e+03 4.861e-11
 71.50879   -146.5 9.576e+03 4.472e-11
 71.52872   -145.8 9.615e+03 5.722e-11
 71.54119   -143.5 9.549e+03 5.293e-11
 71.56111   -143.8 9.672e+03 6.165e-11
 71.59932   -141.4 9.630e+03 5.591e-11
 71.63917   -139.1 9.496e+03 5.434e-11
 71.67902   -136.7 9.386e+03 5.490e-11
 71.71887   -134.4 9.428e+03 5.644e-11
 71.74098   -132.4 9.484e+03 5.807e-11
 71.76091   -133.9 9.981e+03 6.180e-11
 71.79856   -132.6 1.035e+04 8.457e-11
 71.83841   -131.3 1.048e+04 1.388e-10
 71.87826   -129.9 1.063e+04 2.259e-10
 71.91810   -128.5 1.085e+04 3.329e-10
 71.94078   -127.4 1.108e+04 4.295e-10
 71.96071   -129.2 1.115e+04 4.480e-10
 71.99780   -128.5 1.128e+04 4.701e-10
 72.03765   -127.9 1.137e+04 4.714e-10
 72.07750   -127.7 1.159e+04 4.817e-10
 72.11734   -127.7 1.189e+04 5.582e-10
 72.14058   -127.7 1.219e+04 6.850e-10
 72.16050   -129.2 1.219e+04 6.910e-10
 72.19704   -129.3 1.246e+04 8.198e-10
 72.23689   -129.5 1.261e+04 9.250e-10
 72.27673   -129.8 1.263e+04 9.773e-10
 72.30652   -129.9 1.234e+04 9.430e-10
 72.32635   -129.8 1.190e+04 8.501e-10
 72.34018   -129.3 1.159e+04 6.974e-10
 72.35014   -129.7 1.149e+04 6.324e-10
 72.36620   -129.4 1.133e+04 4.962e-10
 72.39618   -129.6 1.126e+04 3.954e-10
 72.43613   -129.3 1.100e+04 3.048e-10
 72.47597   -128.4 1.062e+04 2.300e-10
 72.51582   -127.2 1.043e+04 1.947e-10
 72.54017   -125.9 1.039e+04 1.850e-10
 72.56010   -126.5 1.044e+04 1.817e-10
 72.59552   -125.2 1.048e+04 1.887e-10
 72.63536   -123.8 1.059e+04 1.985e-10
 72.67521   -122.4 1.064e+04 2.007e-10
 72.71506   -121.1 1.066e+04 1.982e-10
 72.73928   -119.8 1.066e+04 1.948e-10
 72.74426   -117.4 1.060e+04 1.911e-10
 72.75990   -117.9 1.068e+04 2.095e-10
 72.79476   -116.6 1.069e+04 2.067e-10
 72.83460   -115.3 1.068e+04 1.955e-10
 72.87445   -114.1 1.067e+04 1.878e-10
 72.91430   -112.9 1.068e+04 1.909e-10
 72.93977   -111.8 1.080e+04 2.225e-10
 72.95969   -111.8 1.075e+04 1.892e-10
 72.99400   -110.7 1.094e+04 2.561e-10
 73.03384   -109.8 1.118e+04 3.571e-10
 73.06363   -109.0 1.141e+04 4.264e-10
 73.08346   -109.0 1.142e+04 4.444e-10
 73.10338   -109.0 1.146e+04 4.908e-10
 73.12331   -108.9 1.147e+04 5.487e-10
 73.13937   -108.8 1.151e+04 6.214e-10
 73.14933   -108.5 1.149e+04 5.596e-10
 73.16315   -108.3 1.149e+04 5.812e-10
 73.18308   -108.2 1.149e+04 5.887e-10
 73.20300   -108.0 1.147e+04 5.778e-10
 73.22292   -107.9 1.144e+04 5.528e-10
 73.23927   -107.8 1.141e+04 5.299e-10
 73.24923   -107.3 1.137e+04 4.972e-10
 73.26277   -107.3 1.135e+04 4.840e-10
 73.28270   -107.2 1.134e+04 4.809e-10
 73.30262   -107.2 1.133e+04 4.845e-10
 73.32254   -107.1 1.137e+04 4.968e-10
 73.33917   -107.0 1.142e+04 5.108e-10
 73.34913   -106.5 1.140e+04 4.875e-10
 73.35432   -106.4 1.146e+04 5.025e-10
 73.36428   -105.5 1.151e+04 5.391e-10
 73.38232   -105.4 1.157e+04 5.566e-10
 73.40224   -105.4 1.160e+04 5.605e-10
 73.42216   -105.5 1.162e+04 5.520e-10
 73.43907   -105.7 1.164e+04 5.408e-10
 73.44903   -105.3 1.170e+04 5.575e-10
 73.46201   -105.6 1.175e+04 5.599e-10
 73.48194   -105.8 1.179e+04 5.811e-10
 73.50186   -105.9 1.182e+04 6.075e-10
 73.52178   -105.9 1.181e+04 6.200e-10
 73.53897   -106.0 1.174e+04 6.228e-10
 73.54893   -106.7 1.204e+04 7.118e-10
 73.56163   -108.0 1.261e+04 9.229e-10
 73.58155   -109.3 1.360e+04 1.371e-09
 73.60148   -110.5 1.468e+04 2.071e-09
 73.62140   -111.9 1.578e+04 2.956e-09
 73.63887   -113.7 1.682e+04 4.020e-09
 73.64883   -115.4 1.856e+04 8.737e-09
 73.66125   -117.5 1.890e+04 1.001e-08
 73.68117   -119.7 1.895e+04 1.090e-08
 73.70110   -121.6 1.881e+04 1.156e-08
 73.72102   -123.2 1.873e+04 1.231e-08
 73.73877   -124.5 1.864e+04 1.287e-08
 73.74873   -125.7 1.807e+04 1.013e-08
 73.76087   -126.8 1.781e+04 9.290e-09
 73.78079   -128.0 1.762e+04 8.886e-09
 73.80072   -129.2 1.754e+04 9.140e-09
 73.82064   -130.3 1.755e+04 9.746e-09
 73.83867   -131.1 1.756e+04 9.946e-09
 73.84863   -131.6 1.760e+04 1.080e-08
 73.86049   -132.2 1.766e+04 1.104e-08
 73.88041   -132.7 1.735e+04 1.020e-08
 73.90034   -133.0 1.674e+04 7.854e-09
 73.92026   -133.3 1.600e+04 5.507e-09
 73.93856   -133.9 1.522e+04 3.756e-09
 73.94853   -134.4 1.524e+04 3.742e-09
 73.95960   -135.0 1.448e+04 2.558e-09
 73.96956   -134.1 1.482e+04 2.901e-09
 73.98003   -134.4 1.422e+04 2.168e-09
 73.99996   -134.6 1.378e+04 1.696e-09
 74.01988   -134.7 1.346e+04 1.360e-09
 74.03846   -134.8 1.321e+04 1.125e-09
 74.04842   -135.5 1.318e+04 1.127e-09
 74.05973   -135.8 1.294e+04 9.897e-10
 74.07965   -136.1 1.272e+04 9.312e-10
 74.09958   -136.3 1.260e+04 9.259e-10
 74.11950   -136.4 1.239e+04 1.009e-09
 74.13836   -136.1 1.227e+04 1.136e-09
 74.14832   -135.9 1.200e+04 8.944e-10
 74.15935   -135.4 1.191e+04 9.076e-10
 74.17927   -134.9 1.185e+04 9.010e-10
 74.19920   -134.3 1.179e+04 8.743e-10
 74.21912   -133.8 1.175e+04 8.196e-10
 74.23826   -133.4 1.173e+04 7.809e-10
 74.24822   -132.9 1.151e+04 5.433e-10
 74.25897   -132.5 1.152e+04 5.489e-10
 74.27889   -132.3 1.151e+04 5.838e-10
 74.29882   -131.9 1.153e+04 6.609e-10
 74.31874   -131.5 1.155e+04 7.383e-10
 74.33816   -131.0 1.158e+04 8.177e-10
 74.34812   -130.3 1.143e+04 6.464e-10
 74.35859   -129.8 1.144e+04 6.948e-10
 74.37851   -129.3 1.145e+04 7.221e-10
 74.39844   -128.8 1.144e+04 7.062e-10
 74.41836   -128.4 1.143e+04 6.652e-10
 74.43806   -128.1 1.140e+04 6.198e-10
 74.44802   -127.8 1.139e+04 5.803e-10
 74.45821   -127.6 1.137e+04 5.566e-10
 74.47813   -127.5 1.130e+04 5.347e-10
 74.49805   -127.4 1.118e+04 5.175e-10
 74.51798   -127.3 1.106e+04 5.083e-10
 74.53806   -127.3 1.098e+04 5.034e-10
 74.55808   -127.4 1.118e+04 5.148e-10
 74.58791   -126.6 1.104e+04 5.053e-10
 74.62776   -125.5 1.099e+04 5.056e-10
 74.66760   -124.5 1.101e+04 5.047e-10
 74.69739   -123.9 1.104e+04 4.997e-10
 74.71722   -123.7 1.102e+04 4.980e-10
 74.73785   -122.9 1.100e+04 5.005e-10
 74.75787   -123.5 1.107e+04 4.819e-10
 74.78715   -122.8 1.114e+04 5.039e-10
 74.82699   -122.2 1.123e+04 5.296e-10
 74.86684   -121.6 1.124e+04 5.326e-10
 74.90669   -120.8 1.121e+04 4.793e-10
 74.93775   -119.8 1.116e+04 3.878e-10
 74.95767   -120.3 1.117e+04 3.522e-10
 74.98639   -118.9 1.116e+04 2.854e-10
 75.02623   -117.3 1.121e+04 2.585e-10
 75.06608   -115.6 1.122e+04 2.540e-10
 75.10593   -113.9 1.122e+04 2.548e-10
 75.13755   -112.2 1.123e+04 2.619e-10
 75.15747   -112.6 1.120e+04 2.542e-10
 75.18032   -110.8 1.122e+04 2.609e-10
 75.20024   -111.4 1.115e+04 2.919e-10
 75.22547   -109.5 1.122e+04 3.105e-10
 75.26532   -107.5 1.135e+04 3.354e-10
 75.30517   -105.5 1.147e+04 3.602e-10
 75.33734   -103.5 1.153e+04 3.705e-10
 75.35727   -104.2 1.165e+04 3.827e-10
 75.38486   -102.3 1.167e+04 3.874e-10
 75.42471   -100.5 1.168e+04 3.874e-10
 75.46456    -98.7 1.168e+04 3.852e-10
 75.50441    -96.9 1.163e+04 3.801e-10
 75.53714    -94.9 1.154e+04 3.693e-10
 75.55707    -95.4 1.150e+04 3.743e-10
 75.58410    -93.1 1.137e+04 3.487e-10
 75.62395    -90.7 1.130e+04 3.195e-10
 75.66380    -88.2 1.124e+04 2.919e-10
 75.70365    -85.5 1.122e+04 2.682e-10
 75.73694    -82.8 1.120e+04 2.456e-10
 75.75686    -82.8 1.105e+04 1.879e-10
 75.78334    -80.0 1.103e+04 1.703e-10
 75.82319    -77.3 1.099e+04 1.601e-10
 75.86304    -74.6 1.098e+04 1.570e-10
 75.90289    -71.9 1.103e+04 1.578e-10
 75.93674    -69.5 1.112e+04 1.736e-10
 75.95666    -69.3 1.104e+04 1.278e-10
 75.98258    -66.9 1.106e+04 1.517e-10
 76.02243    -64.3 1.110e+04 1.871e-10
 76.06228    -61.7 1.118e+04 2.286e-10
 76.10212    -59.1 1.127e+04 2.646e-10
 76.13654    -56.6 1.136e+04 2.842e-10
 76.15646    -56.2 1.134e+04 2.972e-10
 76.18182    -53.9 1.147e+04 3.265e-10
 76.22167    -52.1 1.160e+04 3.497e-10
 76.26152    -50.6 1.176e+04 3.957e-10
 76.30136    -49.5 1.195e+04 4.978e-10
 76.33633    -48.2 1.211e+04 6.446e-10
 76.35626    -48.2 1.249e+04 9.566e-10
 76.38106    -46.4 1.241e+04 9.535e-10
 76.41080    -44.7 1.212e+04 6.864e-10
 76.43062    -44.8 1.203e+04 6.104e-10
 76.46066    -45.0 1.183e+04 3.438e-10
 76.50060    -43.9 1.159e+04 2.243e-10
 76.53613    -42.4 1.155e+04 2.021e-10
 76.55605    -43.6 1.178e+04 2.673e-10
 76.58030    -42.1 1.168e+04 3.466e-10
 76.62015    -39.8 1.169e+04 4.694e-10
 76.65999    -37.6 1.185e+04 5.511e-10
 76.69984    -36.2 1.202e+04 5.823e-10
 76.73593    -35.1 1.204e+04 6.796e-10
 76.75585    -36.0 1.202e+04 6.830e-10
 76.77954    -34.7 1.186e+04 7.455e-10
 76.81938    -32.7 1.169e+04 6.849e-10
 76.85923    -30.7 1.163e+04 5.585e-10
 76.89908    -29.0 1.159e+04 4.656e-10
 76.93573    -27.2 1.151e+04 4.192e-10
 76.95565    -27.5 1.141e+04 3.658e-10
 76.97878    -25.5 1.140e+04 3.665e-10
 77.01862    -23.5 1.146e+04 3.882e-10
 77.05847    -21.4 1.152e+04 4.202e-10
 77.09832    -19.1 1.156e+04 4.415e-10
 77.13552    -16.8 1.155e+04 4.395e-10
 77.15545    -17.1 1.152e+04 4.377e-10
 77.17802    -14.8 1.152e+04 4.164e-10
 77.21786    -12.7 1.150e+04 3.811e-10
 77.25771    -10.7 1.151e+04 3.672e-10
 77.29756     -8.9 1.155e+04 3.802e-10
 77.33532     -7.2 1.164e+04 4.184e-10
 77.35525     -7.8 1.159e+04 4.124e-10
 77.37725     -6.5 1.178e+04 4.955e-10
 77.41710     -5.6 1.204e+04 6.563e-10
 77.45695     -4.8 1.234e+04 9.328e-10
 77.49680     -4.0 1.252e+04 1.189e-09
 77.53512     -3.4 1.256e+04 1.220e-09
 77.55504     -4.3 1.245e+04 1.214e-09
 77.57649     -3.5 1.230e+04 1.066e-09
 77.61634     -2.7 1.212e+04 7.955e-10
 77.64128     -2.1 1.198e+04 5.780e-10
 77.66120     -3.1 1.177e+04 4.843e-10
 77.69604     -2.1 1.159e+04 4.163e-10
 77.73492     -0.8 1.147e+04 3.747e-10
 77.75484     -1.2 1.133e+04 3.693e-10
 77.77573      0.4 1.126e+04 3.255e-10
 77.81558      2.1 1.121e+04 3.043e-10
 77.85543      3.9 1.121e+04 3.060e-10
 77.89528      5.8 1.124e+04 3.220e-10
 77.93472      7.6 1.134e+04 3.538e-10
 77.95464      7.7 1.126e+04 3.473e-10
 77.97497      9.6 1.134e+04 3.597e-10
 78.01482     11.5 1.134e+04 3.529e-10
 78.05467     13.4 1.131e+04 3.256e-10
 78.09451     15.4 1.131e+04 2.987e-10
 78.13436     17.3 1.138e+04 3.028e-10
 78.17421     17.2 1.209e+04 4.667e-10
 78.21406     17.5 1.275e+04 8.644e-10
 78.25391     18.0 1.338e+04 1.508e-09
 78.28369     17.5 1.372e+04 2.061e-09
 78.30352     17.5 1.373e+04 2.139e-09
 78.32344     17.6 1.376e+04 2.189e-09
 78.34337     17.6 1.371e+04 2.225e-09
 78.35404     17.7 1.358e+04 2.134e-09
 78.36400     17.2 1.334e+04 1.927e-09
 78.38322     17.3 1.326e+04 1.854e-09
 78.40314     17.9 1.307e+04 1.656e-09
 78.42306     18.1 1.289e+04 1.475e-09
 78.44299     18.7 1.260e+04 1.208e-09
 78.45394     18.9 1.251e+04 1.125e-09
 78.46390     18.5 1.238e+04 1.035e-09
 78.49290     20.1 1.224e+04 8.882e-10
 78.53284     21.7 1.199e+04 6.686e-10
 78.55403     23.1 1.178e+04 5.197e-10
 78.57396     22.4 1.172e+04 5.223e-10
 78.61254     24.1 1.168e+04 5.105e-10
 78.65238     26.0 1.170e+04 5.086e-10
 78.69223     27.8 1.174e+04 5.092e-10
 78.73208     29.7 1.177e+04 5.142e-10
 78.75383     31.5 1.182e+04 5.267e-10
 78.77375     30.9 1.174e+04 5.224e-10
 78.81178     32.7 1.169e+04 5.133e-10
 78.85162     34.5 1.166e+04 4.969e-10
 78.87176     36.2 1.161e+04 4.665e-10
 78.89169     35.7 1.148e+04 4.307e-10
 78.93132     37.5 1.138e+04 3.769e-10
 78.95363     39.1 1.130e+04 3.215e-10
 78.97355     38.6 1.123e+04 2.853e-10
 79.01101     40.1 1.129e+04 2.683e-10
 79.05086     41.7 1.133e+04 2.727e-10
 79.09071     43.2 1.142e+04 2.902e-10
 79.13056     44.7 1.149e+04 3.139e-10
 79.15343     46.2 1.151e+04 3.314e-10
 79.17335     45.7 1.136e+04 3.049e-10
 79.21025     47.5 1.134e+04 2.948e-10
 79.25010     49.3 1.128e+04 2.703e-10
 79.28995     51.2 1.120e+04 2.405e-10
 79.32980     53.0 1.113e+04 2.168e-10
 79.35322     54.8 1.112e+04 2.088e-10
 79.37315     54.1 1.113e+04 1.954e-10
 79.40949     55.7 1.116e+04 2.102e-10
 79.44934     57.1 1.121e+04 2.422e-10
 79.48919     58.4 1.128e+04 2.943e-10
 79.52904     59.7 1.133e+04 3.458e-10
 79.55302     60.8 1.131e+04 3.595e-10
 79.57295     60.1 1.135e+04 3.589e-10
 79.60873     61.3 1.129e+04 3.446e-10
 79.64858     62.7 1.116e+04 2.998e-10
 79.68843     64.1 1.102e+04 2.450e-10
 79.72827     65.7 1.090e+04 2.014e-10
 79.75282     67.2 1.084e+04 1.812e-10
 79.77274     66.8 1.090e+04 1.684e-10
 79.80797     68.6 1.090e+04 1.689e-10
 79.84782     70.5 1.091e+04 1.745e-10
 79.88767     72.4 1.094e+04 1.863e-10
 79.92751     74.3 1.099e+04 1.951e-10
 79.95262     76.1 1.101e+04 1.957e-10
 79.97254     75.7 1.109e+04 1.912e-10
 80.00721     77.3 1.113e+04 1.937e-10
 80.04706     78.5 1.125e+04 2.054e-10
 80.08232     79.4 1.147e+04 2.459e-10
 80.10224     78.5 1.197e+04 4.691e-10
 80.12675     79.3 1.227e+04 6.094e-10
 80.15242     80.1 1.249e+04 7.491e-10
 80.17234     79.1 1.260e+04 8.301e-10
 80.19639     79.9 1.262e+04 8.549e-10
 80.21622     80.1 1.260e+04 8.946e-10
 80.23614     80.1 1.250e+04 9.432e-10
 80.25212     80.3 1.241e+04 9.898e-10
 80.26208     79.5 1.240e+04 1.004e-09
 80.27599     79.8 1.242e+04 1.021e-09
 80.29591     80.1 1.245e+04 1.016e-09
 80.31583     80.3 1.251e+04 9.769e-10
 80.33576     80.5 1.258e+04 8.888e-10
 80.35202     80.7 1.254e+04 7.699e-10
 80.36198     79.7 1.248e+04 7.385e-10
 80.37561     79.4 1.233e+04 6.035e-10
 80.40559     78.7 1.201e+04 4.522e-10
 80.44554     79.6 1.169e+04 3.635e-10
 80.48538     80.7 1.173e+04 3.487e-10
 80.52523     81.5 1.179e+04 3.532e-10
 80.55201     82.2 1.190e+04 3.667e-10
 80.57194     81.3 1.173e+04 3.377e-10
 80.60493     82.1 1.173e+04 3.378e-10
 80.64477     83.0 1.175e+04 3.414e-10
 80.68462     83.9 1.183e+04 3.584e-10
 80.72447     84.7 1.189e+04 4.093e-10
 80.75181     86.2 1.194e+04 5.062e-10
 80.77173     86.6 1.191e+04 4.988e-10
 80.79411     87.4 1.202e+04 5.819e-10
 80.81393     87.7 1.219e+04 6.821e-10
 80.83386     87.9 1.237e+04 8.181e-10
 80.85151     88.1 1.250e+04 9.454e-10
 80.86147     88.1 1.251e+04 9.744e-10
 80.87370     88.5 1.261e+04 1.039e-09
 80.89363     88.6 1.268e+04 1.074e-09
 80.91355     88.3 1.267e+04 1.070e-09
 80.93348     88.2 1.265e+04 1.059e-09
 80.95151     88.7 1.260e+04 1.051e-09
 80.97153     88.7 1.275e+04 1.237e-09
 81.00340     89.0 1.293e+04 1.390e-09
 81.04325     88.7 1.335e+04 1.639e-09
 81.07304     86.9 1.410e+04 2.247e-09
 81.09287     85.4 1.449e+04 2.884e-09
 81.11279     84.0 1.479e+04 3.596e-09
 81.13271     82.7 1.515e+04 4.494e-09
 81.15121     81.5 1.551e+04 5.469e-09
 81.16117     81.0 1.555e+04 5.602e-09
 81.17256     79.7 1.590e+04 5.673e-09
 81.19249     78.6 1.586e+04 5.458e-09
 81.21241     77.6 1.564e+04 4.492e-09
 81.23233     76.8 1.505e+04 3.027e-09
 81.25111     75.6 1.413e+04 1.950e-09
 81.26107     75.2 1.371e+04 1.641e-09
 81.28224     75.8 1.330e+04 1.318e-09
 81.31280     76.0 1.244e+04 8.289e-10
 81.33273     74.1 1.224e+04 7.212e-10
 81.35120     75.1 1.192e+04 4.800e-10
 81.37113     75.5 1.186e+04 4.154e-10
 81.40188     76.4 1.189e+04 3.283e-10
 81.44173     77.3 1.187e+04 3.103e-10
 81.48158     78.3 1.185e+04 3.275e-10
 81.52143     79.5 1.182e+04 3.765e-10
 81.55100     80.8 1.191e+04 4.483e-10
 81.57092     80.6 1.209e+04 5.434e-10
 81.60112     82.0 1.230e+04 6.207e-10
 81.63091     82.6 1.238e+04 6.352e-10
 81.65070     82.8 1.241e+04 6.363e-10
 81.67063     83.0 1.229e+04 6.135e-10
 81.69058     83.2 1.224e+04 5.957e-10
 81.72057     84.6 1.232e+04 5.609e-10
 81.75080     86.1 1.232e+04 5.157e-10
 81.77072     86.0 1.214e+04 5.025e-10
 81.80036     87.7 1.210e+04 5.084e-10
 81.84021     89.1 1.215e+04 5.389e-10
 81.88006     90.2 1.224e+04 5.690e-10
 81.90984     91.1 1.217e+04 6.588e-10
 81.92785     91.9 1.209e+04 7.957e-10
 81.93781     92.3 1.239e+04 5.979e-10
 81.94959     93.1 1.251e+04 6.960e-10
 81.96036     93.7 1.257e+04 8.228e-10
 81.97032     93.7 1.258e+04 8.691e-10
 81.98944     94.3 1.258e+04 1.004e-09
 82.00937     94.8 1.243e+04 1.100e-09
 82.02929     95.4 1.238e+04 1.104e-09
 82.04921     96.1 1.232e+04 1.087e-09
 82.06026     96.7 1.223e+04 9.747e-10
 82.07022     96.7 1.222e+04 9.209e-10
 82.08906     96.7 1.219e+04 8.538e-10
 82.11905     98.0 1.200e+04 6.841e-10
 82.15039     99.7 1.173e+04 4.875e-10
 82.17032    100.2 1.164e+04 4.340e-10
 82.19884    101.8 1.142e+04 3.144e-10
 82.23869    103.4 1.130e+04 2.413e-10
 82.27853    104.7 1.127e+04 1.987e-10
 82.31838    106.0 1.130e+04 1.756e-10
 82.35019    107.1 1.125e+04 1.701e-10
 82.37012    107.9 1.126e+04 1.718e-10
 82.39808    109.1 1.126e+04 1.707e-10
 82.43793    110.3 1.125e+04 1.725e-10
 82.47777    111.5 1.127e+04 1.819e-10
 82.51762    112.8 1.131e+04 1.962e-10
 82.54328    114.1 1.135e+04 2.165e-10
 82.55573    114.6 1.121e+04 2.102e-10
 82.56991    115.3 1.121e+04 2.024e-10
 82.59732    116.8 1.119e+04 2.108e-10
 82.63716    118.3 1.119e+04 2.250e-10
 82.67701    119.8 1.122e+04 2.443e-10
 82.71686    121.3 1.129e+04 2.669e-10
 82.74979    122.6 1.139e+04 2.929e-10
 82.76971    123.3 1.127e+04 2.575e-10
 82.79656    124.5 1.137e+04 2.824e-10
 82.83640    125.5 1.151e+04 3.168e-10
 82.87625    126.4 1.168e+04 3.654e-10
 82.91610    127.0 1.175e+04 4.047e-10
 82.94958    127.7 1.174e+04 4.027e-10
 82.96951    129.0 1.149e+04 3.397e-10
 82.99580    130.0 1.141e+04 3.235e-10
 83.03564    131.0 1.126e+04 2.863e-10
 83.07549    132.0 1.117e+04 2.525e-10
 83.11534    133.0 1.119e+04 2.461e-10
 83.14938    133.9 1.122e+04 2.503e-10
 83.16931    135.1 1.115e+04 2.320e-10
 83.19503    135.9 1.128e+04 2.697e-10
 83.23488    136.8 1.145e+04 3.452e-10
 83.27473    137.7 1.164e+04 4.573e-10
 83.31458    138.6 1.184e+04 5.849e-10
 83.34918    139.4 1.200e+04 6.666e-10
 83.36910    140.7 1.181e+04 5.579e-10
 83.39427    141.3 1.183e+04 5.560e-10
 83.43412    141.9 1.182e+04 5.433e-10
 83.47397    142.6 1.178e+04 5.014e-10
 83.51382    143.4 1.169e+04 4.385e-10
 83.54898    144.3 1.159e+04 3.733e-10
 83.56890    145.5 1.146e+04 3.068e-10
 83.59351    146.5 1.132e+04 2.761e-10
 83.63336    147.8 1.126e+04 2.731e-10
 83.67321    149.5 1.125e+04 2.754e-10
 83.71306    151.3 1.124e+04 2.909e-10
 83.74878    153.2 1.131e+04 3.236e-10
 83.76870    154.1 1.120e+04 3.008e-10
 83.77377    155.9 1.132e+04 3.512e-10
 83.79369    155.5 1.130e+04 3.511e-10
 83.83260    157.1 1.138e+04 3.978e-10
 83.87245    158.7 1.145e+04 4.506e-10
 83.91229    160.3 1.150e+04 5.110e-10
 83.94857    162.0 1.159e+04 5.873e-10
 83.96850    162.5 1.157e+04 5.541e-10
 83.99199    164.1 1.172e+04 6.265e-10
 84.03184    165.6 1.194e+04 7.103e-10
 84.07169    166.9 1.214e+04 7.812e-10
 84.10147    166.8 1.218e+04 8.604e-10
 84.12130    166.9 1.216e+04 8.926e-10
 84.14122    167.2 1.215e+04 8.854e-10
 84.15814    167.5 1.213e+04 8.670e-10
 84.16810    167.7 1.187e+04 7.133e-10
 84.18107    168.0 1.184e+04 6.888e-10
 84.20100    168.4 1.179e+04 6.634e-10
 84.22092    168.5 1.172e+04 6.177e-10
 84.24084    168.3 1.161e+04 5.608e-10
 84.27083    168.5 1.140e+04 4.927e-10
 84.31077    169.6 1.112e+04 4.463e-10
 84.34817    170.9 1.079e+04 3.941e-10
 84.36809    171.6 1.067e+04 3.633e-10
 84.39047    172.9 1.048e+04 3.117e-10
 84.43032    174.2 1.033e+04 2.532e-10
 84.47016    175.5 1.018e+04 1.982e-10
 84.51001    176.6 1.016e+04 1.597e-10
 84.54797    177.8 1.022e+04 1.531e-10
 84.56789    178.3 1.013e+04 1.208e-10
 84.58971    179.5 1.016e+04 1.221e-10
 84.62956    180.5 1.028e+04 1.343e-10
 84.66940    181.2 1.047e+04 1.754e-10
 84.70925    181.7 1.068e+04 2.532e-10
 84.74777    181.9 1.089e+04 3.619e-10
 84.76769    183.1 1.078e+04 3.183e-10
 84.78895    183.3 1.097e+04 4.067e-10
 84.82879    183.4 1.104e+04 4.224e-10
 84.86864    183.4 1.102e+04 4.109e-10
 84.90849    183.6 1.093e+04 3.621e-10
 84.94756    183.9 1.074e+04 2.859e-10
 84.96749    185.1 1.074e+04 2.786e-10
 84.98432    185.4 1.050e+04 2.278e-10
 85.00425    186.5 1.050e+04 2.328e-10
 85.02803    186.9 1.025e+04 2.173e-10
 85.06788    187.7 1.021e+04 2.170e-10
 85.10773    188.9 1.016e+04 2.251e-10
 85.14736    190.4 1.014e+04 2.561e-10
 85.16728    191.1 1.024e+04 2.685e-10
 85.18742    192.5 1.036e+04 3.179e-10
 85.22727    193.7 1.047e+04 3.707e-10
 85.26712    194.9 1.056e+04 4.173e-10
 85.30697    195.9 1.059e+04 4.505e-10
 85.34682    197.2 1.066e+04 4.851e-10
 85.36699    197.3 1.065e+04 4.767e-10
 85.37685    197.1 1.055e+04 4.056e-10
 85.39643    197.3 1.055e+04 3.997e-10
 85.41635    197.4 1.055e+04 4.016e-10
 85.43628    197.4 1.058e+04 4.103e-10
 85.45620    197.4 1.062e+04 4.277e-10
 85.46679    197.3 1.062e+04 4.352e-10
 85.47675    197.9 1.059e+04 4.113e-10
 85.50611    198.1 1.075e+04 4.835e-10
 85.54605    198.2 1.066e+04 4.684e-10
 85.56688    198.3 1.047e+04 4.249e-10
 85.58680    199.2 1.077e+04 4.940e-10
 85.60943    198.6 1.064e+04 4.646e-10
 85.61929    198.6 1.067e+04 4.712e-10
 85.63552    198.2 1.061e+04 4.615e-10
 85.65544    197.6 1.057e+04 4.628e-10
 85.66658    197.1 1.054e+04 4.669e-10
 85.67655    197.0 1.071e+04 5.315e-10
 85.69529    196.6 1.067e+04 5.289e-10
 85.71521    196.2 1.067e+04 5.313e-10
 85.73514    195.7 1.069e+04 5.434e-10
 85.75506    195.0 1.079e+04 5.678e-10
 85.76648    193.4 1.101e+04 6.072e-10
 85.78650    192.4 1.122e+04 6.847e-10
 85.82499    192.4 1.096e+04 5.999e-10
 85.86484    192.2 1.061e+04 4.781e-10
 85.90469    191.9 1.020e+04 3.421e-10
 85.94453    191.5 9.827e+03 2.422e-10
 85.96648    191.1 9.618e+03 1.900e-10
 85.98640    190.4 9.791e+03 2.088e-10
 86.02423    190.2 9.653e+03 1.754e-10
 86.06408    190.3 9.540e+03 1.642e-10
 86.10392    190.7 9.500e+03 1.643e-10
 86.14377    191.3 9.497e+03 1.658e-10
 86.16627    192.2 9.512e+03 1.727e-10
 86.18620    191.4 9.490e+03 1.573e-10
 86.21481    192.4 9.571e+03 1.755e-10
 86.23473    192.1 9.507e+03 1.660e-10
 86.26332    193.2 9.744e+03 2.131e-10
 86.30316    194.2 1.004e+04 2.870e-10
 86.33295    194.5 1.014e+04 3.249e-10
 86.35278    194.8 1.021e+04 3.662e-10
 86.36588    194.8 1.031e+04 4.350e-10
 86.37584    194.1 1.031e+04 4.140e-10
 86.39263    193.5 1.069e+04 5.651e-10
 86.41255    191.5 1.192e+04 1.176e-09
 86.43247    187.7 1.481e+04 3.222e-09
 86.45240    183.4 1.717e+04 8.093e-09
 86.46578    179.0 1.857e+04 1.374e-08
 86.47574    177.4 1.796e+04 1.141e-08
 86.49224    173.2 1.805e+04 1.144e-08
 86.51217    169.4 1.779e+04 9.933e-09
 86.53209    166.1 1.686e+04 6.455e-09
 86.55202    162.6 1.533e+04 3.359e-09
 86.56567    158.6 1.327e+04 1.666e-09
 86.57564    157.3 1.267e+04 1.295e-09
 86.59186    154.6 1.186e+04 1.027e-09
 86.62185    154.4 1.162e+04 9.309e-10
 86.66179    154.8 1.137e+04 8.334e-10
 86.70164    155.3 1.120e+04 7.486e-10
 86.74149    156.1 1.107e+04 6.765e-10
 86.76567    157.1 1.095e+04 6.175e-10
 86.78559    157.9 1.062e+04 5.240e-10
 86.82118    159.2 1.059e+04 5.075e-10
 86.86103    160.6 1.062e+04 5.085e-10
 86.90088    162.1 1.072e+04 5.255e-10
 86.93067    162.9 1.087e+04 5.722e-10
 86.95049    163.1 1.093e+04 5.917e-10
 86.96527    163.6 1.118e+04 7.012e-10
 86.98529    164.3 1.119e+04 7.239e-10
 87.02042    165.0 1.172e+04 1.007e-09
 87.06027    165.5 1.216e+04 1.276e-09
 87.10012    165.4 1.224e+04 1.298e-09
 87.13997    165.4 1.219e+04 1.240e-09
 87.16526    165.7 1.196e+04 9.966e-10
 87.18519    166.5 1.150e+04 6.868e-10
 87.21966    167.1 1.116e+04 4.384e-10
 87.25951    167.7 1.078e+04 2.692e-10
 87.29936    168.4 1.051e+04 1.782e-10
 87.33921    169.4 1.049e+04 1.684e-10
 87.36506    170.6 1.051e+04 1.767e-10
 87.38498    171.1 1.051e+04 1.730e-10
 87.41890    172.3 1.062e+04 2.114e-10
 87.44529    173.5 1.081e+04 2.809e-10
 87.46521    173.8 1.056e+04 1.711e-10
 87.49860    174.9 1.080e+04 2.281e-10
 87.53845    175.9 1.111e+04 3.354e-10
 87.56486    176.9 1.147e+04 5.022e-10
 87.58478    177.1 1.143e+04 5.084e-10
 87.61814    178.0 1.175e+04 6.901e-10
 87.65799    178.7 1.198e+04 8.209e-10
 87.69784    178.8 1.202e+04 8.270e-10
 87.73768    179.0 1.196e+04 7.832e-10
 87.76466    179.4 1.173e+04 6.589e-10
 87.78458    180.2 1.138e+04 4.786e-10
 87.81738    181.1 1.113e+04 3.732e-10
 87.85723    182.2 1.090e+04 2.894e-10
 87.89708    183.5 1.075e+04 2.378e-10
 87.93692    184.9 1.066e+04 2.108e-10
 87.96445    186.4 1.066e+04 1.990e-10
 87.98438    187.2 1.065e+04 2.045e-10
 88.01662    188.7 1.069e+04 2.115e-10
 88.05647    190.1 1.072e+04 2.142e-10
 88.09631    191.5 1.072e+04 2.100e-10
 88.13616    192.7 1.072e+04 1.971e-10
 88.16425    193.8 1.068e+04 1.750e-10
 88.18418    194.4 1.081e+04 2.159e-10
 88.21586    195.3 1.073e+04 1.878e-10
 88.25571    196.2 1.059e+04 1.582e-10
 88.29555    197.2 1.040e+04 1.401e-10
 88.33540    198.4 1.033e+04 1.383e-10
 88.36405    199.8 1.029e+04 1.431e-10
 88.38397    200.1 1.046e+04 1.955e-10
 88.41510    201.6 1.049e+04 2.257e-10
 88.45494    203.1 1.063e+04 2.757e-10
 88.49479    204.7 1.086e+04 3.470e-10
 88.53464    206.1 1.112e+04 4.326e-10
 88.56385    207.4 1.144e+04 5.334e-10
 88.58377    207.0 1.183e+04 7.128e-10
 88.60428    207.5 1.190e+04 7.412e-10
 88.62410    207.3 1.202e+04 8.054e-10
 88.64403    206.9 1.220e+04 9.373e-10
 88.66355    206.4 1.240e+04 1.112e-09
 88.67351    205.7 1.251e+04 1.268e-09
 88.67557    205.4 1.274e+04 1.420e-09
 88.68554    205.7 1.248e+04 1.197e-09
 88.70380    205.3 1.271e+04 1.344e-09
 88.72372    204.7 1.287e+04 1.470e-09
 88.74365    204.0 1.294e+04 1.495e-09
 88.76345    203.3 1.291e+04 1.456e-09
 88.77341    202.8 1.280e+04 1.322e-09
 88.78349    202.1 1.260e+04 1.170e-09
 88.80342    201.4 1.233e+04 9.947e-10
 88.82334    200.7 1.201e+04 8.280e-10
 88.84327    200.3 1.170e+04 6.892e-10
 88.86319    200.0 1.144e+04 5.827e-10
 88.87331    199.9 1.123e+04 5.122e-10
 88.88327    199.8 1.125e+04 5.400e-10
 88.90304    199.9 1.118e+04 5.259e-10
 88.92296    200.2 1.118e+04 5.250e-10
 88.94289    200.4 1.119e+04 5.286e-10
 88.96281    200.7 1.124e+04 5.465e-10
 88.97321    200.7 1.130e+04 5.785e-10
 88.98317    200.9 1.140e+04 6.229e-10
 89.00266    200.9 1.148e+04 6.549e-10
 89.02258    200.9 1.156e+04 6.763e-10
 89.04250    200.7 1.158e+04 6.759e-10
 89.06243    200.4 1.158e+04 6.711e-10
 89.07311    199.9 1.153e+04 6.521e-10
 89.08307    200.1 1.167e+04 6.607e-10
 89.10228    199.6 1.152e+04 6.057e-10
 89.12220    199.2 1.132e+04 5.491e-10
 89.14212    198.7 1.114e+04 4.990e-10
 89.16205    198.4 1.100e+04 4.660e-10
 89.17301    198.2 1.095e+04 4.568e-10
 89.18297    198.4 1.100e+04 4.530e-10
 89.20190    198.3 1.104e+04 4.543e-10
 89.22182    198.0 1.124e+04 4.746e-10
 89.24174    197.7 1.152e+04 5.411e-10
 89.26167    197.4 1.194e+04 6.648e-10
 89.27291    196.9 1.245e+04 8.734e-10
 89.28213    196.8 1.279e+04 1.063e-09
 89.29081    195.7 1.355e+04 2.107e-09
 89.30152    195.7 1.386e+04 2.707e-09
 89.32144    195.7 1.414e+04 3.324e-09
 89.34136    195.7 1.441e+04 3.862e-09
 89.36129    195.7 1.466e+04 4.233e-09
 89.37281    195.6 1.491e+04 4.416e-09
 89.38277    196.0 1.473e+04 4.103e-09
 89.40114    195.5 1.476e+04 3.995e-09
 89.42106    194.8 1.470e+04 3.596e-09
 89.44098    194.0 1.441e+04 2.933e-09
 89.46091    193.4 1.388e+04 2.207e-09
 89.47270    192.8 1.318e+04 1.589e-09
 89.48267    193.0 1.291e+04 1.280e-09
 89.50075    192.5 1.219e+04 9.613e-10
 89.52068    192.1 1.194e+04 8.072e-10
 89.54060    192.0 1.196e+04 7.985e-10
 89.56053    191.9 1.201e+04 8.111e-10
 89.57260    191.6 1.222e+04 8.832e-10
 89.58257    191.4 1.248e+04 9.546e-10
 89.60037    189.7 1.383e+04 1.481e-09
 89.62030    186.8 1.580e+04 2.793e-09
 89.64022    182.6 1.796e+04 5.697e-09
 89.66015    179.3 1.919e+04 9.315e-09
 89.67245    177.0 1.970e+04 1.175e-08
 89.67739    176.8 1.966e+04 1.195e-08
 89.68495    174.7 2.021e+04 1.400e-08
 89.69491    172.3 2.069e+04 1.584e-08
 89.70488    169.8 2.117e+04 1.766e-08
 89.71484    167.2 2.158e+04 1.947e-08
 89.72235    164.5 2.187e+04 2.134e-08
 89.72734    163.8 2.154e+04 1.748e-08
 89.73476    161.0 2.159e+04 1.871e-08
 89.74472    158.2 2.136e+04 1.931e-08
 89.75469    156.0 2.125e+04 1.933e-08
 89.76465    154.2 2.110e+04 1.914e-08
 89.77235    151.9 2.111e+04 1.939e-08
 89.78236    150.9 2.046e+04 1.611e-08
 89.79961    148.4 1.937e+04 1.211e-08
 89.81954    146.9 1.759e+04 7.223e-09
 89.83946    145.9 1.576e+04 4.103e-09
 89.85938    144.7 1.441e+04 2.547e-09
 89.87230    143.8 1.416e+04 2.225e-09
 89.88226    143.8 1.436e+04 2.314e-09
 89.89609    143.1 1.434e+04 2.315e-09
 89.90606    144.2 1.428e+04 2.392e-09
 89.91916    143.5 1.429e+04 2.428e-09
 89.93908    142.8 1.440e+04 2.631e-09
 89.95900    142.2 1.473e+04 3.170e-09
 89.97220    141.6 1.505e+04 3.773e-09
 89.98216    141.2 1.488e+04 3.530e-09
 89.99885    140.4 1.485e+04 3.521e-09
 90.01878    139.9 1.461e+04 3.275e-09
 90.03870    139.8 1.404e+04 2.501e-09
 90.05862    139.6 1.321e+04 1.681e-09
 90.08861    140.2 1.222e+04 9.786e-10
 90.12855    140.8 1.083e+04 4.454e-10
 90.16223    141.0 9.571e+03 1.955e-10
 90.18215    140.8 9.403e+03 1.489e-10
 90.20825    141.5 9.333e+03 1.020e-10
 90.24810    142.9 9.259e+03 9.955e-11
 90.28794    145.1 9.243e+03 9.990e-11
 90.32779    147.6 9.244e+03 1.011e-10
 90.36203    150.0 9.277e+03 1.056e-10
 90.38195    150.6 9.283e+03 1.064e-10
 90.40749    152.9 9.393e+03 1.162e-10
 90.44734    155.2 9.571e+03 1.351e-10
 90.48718    157.5 9.778e+03 1.642e-10
 90.52703    159.7 1.001e+04 2.019e-10
 90.56183    161.8 1.027e+04 2.484e-10
 90.58175    162.2 1.044e+04 3.036e-10
 90.60673    164.2 1.070e+04 3.571e-10
 90.64657    166.1 1.092e+04 4.045e-10
 90.68642    167.8 1.104e+04 4.391e-10
 90.72627    169.5 1.104e+04 4.614e-10
 90.76162    171.7 1.106e+04 4.827e-10
 90.78155    172.3 1.125e+04 5.793e-10
 90.80597    175.1 1.162e+04 6.751e-10
 90.84581    178.1 1.230e+04 8.426e-10
 90.87139    179.2 1.256e+04 9.182e-10
 90.88125    178.1 1.311e+04 1.160e-09
 90.89543    177.8 1.406e+04 1.859e-09
 90.91535    177.7 1.532e+04 3.409e-09
 90.93528    178.1 1.688e+04 6.387e-09
 90.95520    178.4 1.852e+04 1.133e-08
 90.97009    177.7 2.001e+04 1.818e-08
 90.97607    176.8 2.104e+04 2.842e-08
 90.98105    175.9 2.108e+04 3.645e-08
 90.98997    175.4 2.143e+04 4.647e-08
 90.99993    175.1 2.164e+04 5.400e-08
 91.00989    175.0 2.152e+04 5.169e-08
 91.01985    175.0 2.137e+04 4.467e-08
 91.02602    174.7 2.136e+04 3.489e-08
 91.03100    174.4 2.084e+04 2.082e-08
 91.03978    172.3 2.085e+04 1.317e-08
 91.04974    169.0 2.041e+04 8.635e-09
 91.05970    165.4 1.948e+04 6.477e-09
 91.06966    162.6 1.845e+04 6.482e-09
 91.07597    161.2 1.814e+04 6.508e-09
 91.08100    162.4 1.708e+04 4.307e-09
 91.09467    161.2 1.702e+04 4.564e-09
 91.11459    160.4 1.697e+04 4.786e-09
 91.12658    159.4 1.714e+04 5.728e-09
 91.13654    159.9 1.699e+04 5.707e-09
 91.15444    159.0 1.729e+04 6.638e-09
 91.17099    158.0 1.770e+04 7.655e-09
 91.18095    159.5 1.761e+04 7.464e-09
 91.19429    158.6 1.848e+04 1.050e-08
 91.21421    157.6 1.914e+04 1.283e-08
 91.23413    156.4 1.921e+04 1.206e-08
 91.25406    155.2 1.887e+04 8.634e-09
 91.27088    153.6 1.795e+04 4.494e-09
 91.28085    155.5 1.978e+04 1.041e-08
 91.29391    153.7 1.892e+04 4.568e-09
 91.31383    150.7 1.697e+04 1.556e-09
 91.33375    146.1 1.390e+04 7.348e-10
 91.35368    143.5 1.318e+04 6.376e-10
 91.37078    143.2 1.299e+04 6.124e-10
 91.38075    142.4 1.301e+04 6.114e-10
 91.39353    142.2 1.290e+04 6.134e-10
 91.41345    142.1 1.302e+04 6.432e-10
 91.43337    142.2 1.307e+04 7.344e-10
 91.45330    142.3 1.309e+04 8.600e-10
 91.47068    142.6 1.313e+04 1.005e-09
 91.48064    142.1 1.344e+04 1.235e-09
 91.49314    142.5 1.348e+04 1.374e-09
 91.51307    142.5 1.347e+04 1.416e-09
 91.53299    142.4 1.343e+04 1.392e-09
 91.55292    142.3 1.328e+04 1.317e-09
 91.57058    142.1 1.306e+04 1.196e-09
 91.58054    141.8 1.315e+04 1.237e-09
 91.59276    141.6 1.284e+04 1.082e-09
 91.61269    141.3 1.251e+04 9.393e-10
 91.63261    141.0 1.218e+04 8.125e-10
 91.65254    140.6 1.189e+04 6.986e-10
 91.67048    140.1 1.167e+04 5.974e-10
 91.68044    140.2 1.168e+04 6.393e-10
 91.69238    139.5 1.148e+04 5.498e-10
 91.71231    138.4 1.136e+04 4.618e-10
 91.73185    137.5 1.129e+04 4.180e-10
 91.74182    137.7 1.131e+04 4.481e-10
 91.75216    136.6 1.123e+04 4.009e-10
 91.77038    135.3 1.118e+04 3.772e-10
 91.78034    135.0 1.134e+04 4.237e-10
 91.80206    135.1 1.121e+04 4.115e-10
 91.84201    135.0 1.100e+04 3.576e-10
 91.88186    135.2 1.063e+04 2.960e-10
 91.92170    135.8 1.034e+04 2.676e-10
 91.96041    136.8 1.036e+04 2.746e-10
 91.98033    136.2 1.096e+04 3.906e-10
 92.00140    137.3 1.129e+04 4.604e-10
 92.03119    137.9 1.123e+04 4.396e-10
 92.05101    137.5 1.143e+04 5.057e-10
 92.07008    137.1 1.171e+04 6.686e-10
 92.08004    136.4 1.208e+04 8.921e-10
 92.09086    136.4 1.227e+04 1.102e-09
 92.11079    136.5 1.242e+04 1.261e-09
 92.13071    136.5 1.254e+04 1.346e-09
 92.15063    136.4 1.262e+04 1.369e-09
 92.16998    136.1 1.269e+04 1.358e-09
 92.17994    135.4 1.302e+04 1.633e-09
 92.19048    134.6 1.303e+04 1.597e-09
 92.21041    133.5 1.300e+04 1.576e-09
 92.23033    132.3 1.294e+04 1.572e-09
 92.25025    131.0 1.284e+04 1.566e-09
 92.26987    129.7 1.266e+04 1.550e-09
 92.27984    129.3 1.279e+04 1.657e-09
 92.29010    128.1 1.245e+04 1.531e-09
 92.31003    126.9 1.211e+04 1.393e-09
 92.32995    125.7 1.178e+04 1.256e-09
 92.34710    124.4 1.150e+04 1.135e-09
 92.35706    125.1 1.191e+04 1.305e-09
 92.36977    123.6 1.154e+04 1.132e-09
 92.38970    121.7 1.105e+04 9.051e-10
 92.40964    120.6 1.089e+04 8.541e-10
 92.42957    119.5 1.077e+04 8.122e-10
 92.44949    118.5 1.066e+04 7.632e-10
 92.46942    117.3 1.055e+04 6.936e-10
 92.47963    115.9 1.040e+04 6.051e-10
 92.48960    115.3 1.028e+04 5.342e-10
 92.50926    113.5 1.008e+04 4.460e-10
 92.52919    112.5 9.917e+03 3.985e-10
 92.55917    110.9 9.728e+03 3.532e-10
 92.57973    109.1 9.423e+03 2.920e-10
 92.59965    109.3 9.493e+03 2.917e-10
 92.62891    108.6 9.361e+03 2.831e-10
 92.64873    108.2 9.369e+03 2.869e-10
 92.66866    106.8 9.530e+03 3.279e-10
 92.67943    104.2 1.018e+04 5.180e-10
 92.68939    104.9 1.002e+04 4.710e-10
 92.70850    102.1 1.107e+04 8.731e-10
 92.72843     99.4 1.224e+04 1.646e-09
 92.74835     96.9 1.333e+04 2.769e-09
 92.76827     94.3 1.436e+04 3.673e-09
 92.77933     90.8 1.487e+04 3.673e-09
 92.78929     91.9 1.456e+04 3.359e-09
 92.80812     87.5 1.465e+04 3.195e-09
 92.82805     82.3 1.454e+04 2.568e-09
 92.84797     76.2 1.394e+04 1.812e-09
 92.86789     69.5 1.308e+04 1.248e-09
 92.87923     63.4 1.213e+04 8.934e-10
 92.88919     64.1 1.251e+04 1.047e-09
 92.90774     58.8 1.182e+04 7.140e-10
 92.92767     56.3 1.155e+04 5.893e-10
 92.95765     50.6 1.100e+04 5.225e-10
 92.97932     47.6 1.100e+04 5.771e-10
 92.98919     46.1 1.154e+04 6.776e-10
 93.00736     44.2 1.167e+04 8.310e-10
 93.02729     42.9 1.190e+04 1.069e-09
 93.04721     42.1 1.209e+04 1.356e-09
 93.06713     41.8 1.224e+04 1.657e-09
 93.07903     41.6 1.227e+04 1.850e-09
 93.08899     41.2 1.219e+04 1.679e-09
 93.10698     41.1 1.212e+04 1.553e-09
 93.12691     40.8 1.201e+04 1.370e-09
 93.15689     41.3 1.178e+04 1.201e-09
 93.17912     41.3 1.116e+04 9.165e-10
 93.19905     40.4 1.102e+04 8.584e-10
 93.23668     40.5 1.048e+04 6.657e-10
 93.27653     40.6 1.006e+04 5.523e-10
 93.31638     41.3 9.895e+03 5.121e-10
 93.34617     42.0 9.877e+03 5.108e-10
 93.36599     42.1 9.895e+03 5.158e-10
 93.37872     43.0 9.891e+03 5.163e-10
 93.38869     42.9 9.919e+03 5.237e-10
 93.40584     43.2 9.936e+03 5.293e-10
 93.42576     43.9 9.961e+03 5.358e-10
 93.44569     44.3 9.979e+03 5.418e-10
 93.46561     45.0 1.008e+04 5.678e-10
 93.47862     45.5 1.014e+04 5.876e-10
 93.48858     45.1 1.013e+04 5.817e-10
 93.50546     46.0 1.032e+04 6.540e-10
 93.52538     46.3 1.038e+04 6.777e-10
 93.54531     47.2 1.063e+04 7.743e-10
 93.56523     47.5 1.069e+04 8.016e-10
 93.57758     47.9 1.089e+04 8.769e-10
 93.58100     47.4 1.119e+04 9.750e-10
 93.59864     47.0 1.112e+04 9.664e-10
 93.63516     47.3 1.137e+04 1.079e-09
 93.67501     47.1 1.163e+04 1.162e-09
 93.71486     46.8 1.175e+04 1.166e-09
 93.75470     46.9 1.172e+04 1.077e-09
 93.77842     47.0 1.145e+04 8.719e-10
 93.78828     46.5 1.152e+04 8.693e-10
 93.80432     46.4 1.145e+04 7.400e-10
 93.82424     45.9 1.132e+04 5.955e-10
 93.84417     45.2 1.113e+04 4.815e-10
 93.86409     44.6 1.085e+04 4.268e-10
 93.87822     44.4 1.078e+04 4.357e-10
 93.88818     43.5 1.092e+04 5.044e-10
 93.90394     43.1 1.097e+04 5.387e-10
 93.92386     42.3 1.124e+04 6.272e-10
 93.94379     41.2 1.164e+04 8.030e-10
 93.96371     39.9 1.210e+04 1.087e-09
 93.97812     38.5 1.266e+04 1.472e-09
 93.98808     37.8 1.243e+04 1.466e-09
 94.00356     36.8 1.278e+04 1.753e-09
 94.02348     35.2 1.323e+04 2.039e-09
 94.04340     32.2 1.409e+04 2.471e-09
 94.06333     27.5 1.524e+04 3.273e-09
 94.07802     22.3 1.581e+04 4.181e-09
 94.08798     21.8 1.583e+04 4.142e-09
 94.10318     17.7 1.603e+04 5.118e-09
 94.12310     15.0 1.569e+04 4.754e-09
 94.14302     12.7 1.519e+04 3.509e-09
 94.16295      8.2 1.554e+04 2.547e-09
 94.17792      1.1 1.564e+04 2.683e-09
 94.18786      3.6 1.646e+04 3.012e-09
 94.20278     -0.2 1.515e+04 2.479e-09
 94.22272     -3.5 1.459e+04 3.419e-09
 94.24264     -3.5 1.436e+04 4.044e-09
 94.26257     -3.4 1.413e+04 3.746e-09
 94.27781     -3.5 1.382e+04 2.833e-09
 94.28778     -3.6 1.407e+04 3.372e-09
 94.30242     -4.1 1.401e+04 2.166e-09
 94.32234     -6.8 1.384e+04 1.283e-09
 94.34226     -9.5 1.253e+04 9.860e-10
 94.36219    -11.5 1.194e+04 9.536e-10
 94.37781    -13.4 1.207e+04 1.072e-09
 94.38777    -12.9 1.222e+04 1.084e-09
 94.40203    -13.7 1.251e+04 1.290e-09
 94.42196    -14.6 1.308e+04 1.754e-09
 94.44188    -15.1 1.350e+04 2.453e-09
 94.46181    -15.1 1.351e+04 2.584e-09
 94.47761    -15.0 1.337e+04 2.386e-09
 94.48757    -14.8 1.376e+04 2.923e-09
 94.50165    -14.4 1.338e+04 2.375e-09
 94.52158    -14.5 1.295e+04 1.643e-09
 94.54150    -15.3 1.240e+04 9.786e-10
 94.56143    -17.0 1.181e+04 6.729e-10
 94.57761    -17.2 1.096e+04 4.425e-10
 94.59763    -16.6 1.122e+04 4.985e-10
 94.63136    -16.7 1.019e+04 2.851e-10
 94.67120    -16.2 9.722e+03 2.135e-10
 94.71105    -15.2 9.540e+03 1.712e-10
 94.75090    -14.1 9.372e+03 1.374e-10
 94.77750    -13.1 9.263e+03 1.099e-10
 94.79501    -12.8 9.431e+03 1.291e-10
 94.80825    -13.0 9.257e+03 1.057e-10
 94.83059    -12.5 9.313e+03 9.375e-11
 94.87044    -12.7 9.399e+03 9.930e-11
 94.91029    -12.9 9.516e+03 1.240e-10
 94.95014    -12.9 9.556e+03 1.634e-10
 94.97730    -12.6 9.592e+03 1.995e-10
 94.99723    -13.2 1.004e+04 3.147e-10
 95.02983    -13.2 1.003e+04 3.284e-10
 95.06968    -13.5 1.002e+04 3.515e-10
 95.10953    -13.5 1.002e+04 3.870e-10
 95.14938    -13.1 1.003e+04 4.100e-10
 95.17700    -13.3 9.978e+03 4.124e-10
 95.18687    -13.7 9.958e+03 4.123e-10
 95.19899    -13.6 9.965e+03 4.213e-10
 95.21892    -13.4 9.986e+03 4.399e-10
 95.23884    -13.3 1.006e+04 4.603e-10
 95.25876    -13.1 1.013e+04 4.826e-10
 95.27680    -12.8 1.017e+04 4.954e-10
 95.28677    -12.8 1.010e+04 4.827e-10
 95.29861    -12.5 1.013e+04 4.903e-10
 95.31853    -12.3 1.014e+04 4.949e-10
 95.33846    -12.2 1.016e+04 4.936e-10
 95.35838    -12.4 1.023e+04 5.049e-10
 95.37670    -12.7 1.043e+04 5.333e-10
 95.38666    -12.5 1.041e+04 5.475e-10
 95.39823    -12.6 1.047e+04 5.622e-10
 95.42821    -13.0 1.085e+04 7.400e-10
 95.46816    -13.5 1.097e+04 7.865e-10
 95.50801    -13.5 1.074e+04 6.921e-10
 95.54785    -13.2 1.018e+04 4.421e-10
 95.57670    -13.3 9.622e+03 2.252e-10
 95.59662    -12.4 9.559e+03 2.217e-10
 95.62755    -13.4 9.214e+03 1.311e-10
 95.66740    -13.6 9.046e+03 1.260e-10
 95.70725    -13.2 8.985e+03 1.279e-10
 95.74709    -12.5 9.064e+03 1.355e-10
 95.77649    -11.7 9.145e+03 1.522e-10
 95.79642    -11.4 9.303e+03 1.767e-10
 95.82679    -10.7 9.463e+03 2.196e-10
 95.86664     -9.9 9.608e+03 2.661e-10
 95.90649     -8.8 9.688e+03 3.001e-10
 95.94633     -7.6 9.720e+03 3.148e-10
 95.97629     -6.3 9.729e+03 3.098e-10
 95.99621     -6.1 9.787e+03 3.230e-10
 96.01881     -4.9 9.746e+03 3.015e-10
 96.03874     -4.2 9.658e+03 2.781e-10
 96.06588     -2.8 9.615e+03 2.565e-10
 96.10572     -1.5 9.650e+03 2.589e-10
 96.14557     -0.4 9.868e+03 2.942e-10
 96.17609      0.4 1.039e+04 4.270e-10
 96.19601      0.5 1.042e+04 4.412e-10
 96.22527      1.2 1.117e+04 7.361e-10
 96.26512      1.0 1.200e+04 1.182e-09
 96.28585      0.6 1.269e+04 1.733e-09
 96.29572      0.4 1.270e+04 1.749e-09
 96.31473      0.2 1.292e+04 1.975e-09
 96.33465      0.1 1.287e+04 1.934e-09
 96.35458     -0.2 1.269e+04 1.759e-09
 96.37450     -0.8 1.247e+04 1.519e-09
 96.38565     -1.8 1.234e+04 1.349e-09
 96.39562     -1.6 1.201e+04 1.122e-09
 96.41435     -2.7 1.196e+04 1.060e-09
 96.43427     -3.7 1.193e+04 1.048e-09
 96.45420     -4.3 1.187e+04 1.030e-09
 96.47412     -4.6 1.170e+04 9.674e-10
 96.48555     -4.7 1.147e+04 8.425e-10
 96.49551     -4.5 1.131e+04 7.582e-10
 96.51397     -4.6 1.114e+04 6.315e-10
 96.53389     -5.0 1.103e+04 5.028e-10
 96.55382     -5.8 1.085e+04 4.001e-10
 96.57374     -6.5 1.069e+04 3.735e-10
 96.58545     -7.4 1.084e+04 3.933e-10
 96.59541     -7.3 1.083e+04 3.919e-10
 96.61359     -9.7 1.155e+04 5.157e-10
 96.63351    -12.5 1.256e+04 9.778e-10
 96.64382    -14.3 1.357e+04 1.977e-09
 96.65378    -14.0 1.405e+04 2.878e-09
 96.67336    -13.7 1.528e+04 5.051e-09
 96.68530    -12.9 1.568e+04 5.730e-09
 96.69526    -12.3 1.549e+04 5.608e-09
 96.71321    -12.3 1.575e+04 5.748e-09
 96.73313    -12.2 1.565e+04 5.191e-09
 96.75306    -12.7 1.530e+04 4.127e-09
 96.77298    -13.6 1.457e+04 3.043e-09
 96.78525    -14.4 1.378e+04 2.285e-09
 96.79521    -13.6 1.360e+04 2.157e-09
 96.81283    -13.9 1.322e+04 1.821e-09
 96.83275    -14.1 1.303e+04 1.623e-09
 96.85268    -14.0 1.287e+04 1.490e-09
 96.87260    -13.7 1.274e+04 1.398e-09
 96.88515    -13.3 1.263e+04 1.325e-09
 96.89511    -12.7 1.265e+04 1.358e-09
 96.91245    -12.2 1.255e+04 1.300e-09
 96.93237    -11.6 1.246e+04 1.241e-09
 96.95229    -11.0 1.238e+04 1.182e-09
 96.97222    -10.6 1.228e+04 1.124e-09
 96.98505    -10.0 1.220e+04 1.076e-09
 96.99501     -9.5 1.234e+04 1.162e-09
 97.01207     -9.0 1.234e+04 1.143e-09
 97.03199     -8.7 1.236e+04 1.151e-09
 97.05191     -8.4 1.238e+04 1.179e-09
 97.07184     -8.1 1.244e+04 1.229e-09
 97.08495     -7.8 1.253e+04 1.285e-09
 97.09491     -7.4 1.254e+04 1.281e-09
 97.11169     -7.1 1.261e+04 1.325e-09
 97.13161     -6.9 1.268e+04 1.373e-09
 97.15153     -6.8 1.276e+04 1.417e-09
 97.17146     -6.7 1.285e+04 1.491e-09
 97.18484     -6.7 1.291e+04 1.545e-09
 97.19481     -6.3 1.300e+04 1.619e-09
 97.21131     -6.5 1.307e+04 1.652e-09
 97.23123     -6.8 1.310e+04 1.614e-09
 97.24910     -7.3 1.310e+04 1.533e-09
 97.25906     -6.6 1.358e+04 1.970e-09
 97.27108     -7.1 1.366e+04 1.953e-09
 97.28474     -7.9 1.374e+04 1.959e-09
 97.29471     -8.0 1.403e+04 2.172e-09
 97.31093     -9.5 1.430e+04 2.275e-09
 97.33085    -11.9 1.478e+04 2.649e-09
 97.35077    -14.2 1.506e+04 3.353e-09
 97.37070    -15.8 1.504e+04 4.098e-09
 97.38464    -18.1 1.543e+04 4.639e-09
 97.39460    -18.4 1.537e+04 4.364e-09
 97.41054    -22.8 1.661e+04 5.075e-09
 97.43047    -26.9 1.645e+04 4.994e-09
 97.45039    -29.4 1.513e+04 3.867e-09
 97.47032    -32.5 1.393e+04 2.389e-09
 97.48454    -36.3 1.344e+04 1.289e-09
 97.49450    -36.5 1.325e+04 1.188e-09
 97.51016    -40.6 1.232e+04 7.651e-10
 97.53009    -43.5 1.112e+04 6.019e-10
 97.55001    -44.7 1.083e+04 5.573e-10
 97.56994    -45.0 1.097e+04 5.632e-10
 97.58444    -45.2 1.107e+04 5.433e-10
 97.59440    -45.1 1.132e+04 6.376e-10
 97.60978    -45.3 1.106e+04 6.358e-10
 97.62971    -45.3 1.097e+04 6.005e-10
 97.64963    -45.3 1.089e+04 5.777e-10
 97.66956    -45.2 1.089e+04 5.779e-10
 97.68434    -45.3 1.096e+04 5.713e-10
 97.69430    -45.4 1.111e+04 6.201e-10
 97.70940    -45.8 1.111e+04 6.310e-10
 97.72933    -46.2 1.115e+04 6.497e-10
 97.74925    -46.5 1.126e+04 6.785e-10
 97.76917    -46.7 1.125e+04 7.106e-10
 97.78424    -46.7 1.114e+04 7.381e-10
 97.79420    -46.7 1.098e+04 6.642e-10
 97.80902    -46.4 1.086e+04 6.464e-10
 97.82895    -46.3 1.089e+04 5.878e-10
 97.84887    -46.3 1.070e+04 5.419e-10
 97.86434    -46.4 1.049e+04 4.789e-10
 97.87430    -46.9 1.044e+04 4.547e-10
 97.88414    -46.8 1.029e+04 4.355e-10
 97.89410    -46.6 1.024e+04 4.201e-10
 97.90864    -46.5 1.031e+04 4.027e-10
 97.92857    -46.6 1.038e+04 3.893e-10
 97.94849    -47.5 1.075e+04 4.190e-10
 97.96841    -49.2 1.127e+04 5.129e-10
 97.98404    -50.6 1.151e+04 6.862e-10
 97.99400    -50.2 1.139e+04 6.802e-10
 98.00826    -50.4 1.134e+04 8.764e-10
 98.02819    -49.8 1.134e+04 9.767e-10
 98.04811    -49.4 1.130e+04 9.873e-10
 98.06803    -48.8 1.138e+04 8.449e-10
 98.08393    -49.2 1.138e+04 6.325e-10
 98.09390    -48.6 1.127e+04 5.804e-10
 98.10788    -49.3 1.096e+04 5.037e-10
 98.12781    -50.0 1.096e+04 4.454e-10
 98.14773    -51.1 1.117e+04 4.497e-10
 98.16765    -53.7 1.215e+04 5.631e-10
 98.18383    -56.5 1.267e+04 8.653e-10
 98.19380    -56.1 1.288e+04 9.464e-10
 98.20750    -57.5 1.278e+04 1.540e-09
 98.22742    -57.8 1.290e+04 2.110e-09
 98.24735    -57.2 1.351e+04 2.370e-09
 98.26727    -58.1 1.381e+04 2.352e-09
 98.28373    -60.3 1.352e+04 1.880e-09
 98.29369    -59.4 1.400e+04 2.319e-09
 98.30712    -62.0 1.319e+04 1.943e-09
 98.32704    -63.4 1.282e+04 1.769e-09
 98.34697    -64.5 1.253e+04 1.587e-09
 98.37377    -65.3 1.228e+04 1.425e-09
 98.39369    -65.8 1.231e+04 1.411e-09
 98.41680    -66.6 1.224e+04 1.352e-09
 98.45674    -68.1 1.193e+04 1.194e-09
 98.47978    -69.9 1.178e+04 1.132e-09
 98.49970    -72.3 1.192e+04 1.203e-09
 98.53644    -73.8 1.223e+04 1.406e-09
 98.56623    -73.6 1.206e+04 1.308e-09
 98.58343    -74.3 1.213e+04 1.350e-09
 98.59339    -74.0 1.158e+04 1.009e-09
 98.60598    -74.6 1.157e+04 9.923e-10
 98.62590    -75.5 1.152e+04 9.825e-10
 98.64583    -76.2 1.155e+04 1.035e-09
 98.66575    -77.0 1.180e+04 1.176e-09
 98.68333    -77.6 1.222e+04 1.412e-09
 98.69329    -77.6 1.184e+04 1.185e-09
 98.70560    -78.2 1.233e+04 1.502e-09
 98.73558    -79.3 1.277e+04 1.807e-09
 98.77346    -80.0 1.288e+04 1.871e-09
 98.79338    -78.9 1.293e+04 1.923e-09
 98.81538    -79.8 1.265e+04 1.707e-09
 98.85522    -80.8 1.217e+04 1.286e-09
 98.89507    -81.8 1.168e+04 1.031e-09
 98.93492    -82.2 1.157e+04 9.963e-10
 98.97326    -82.2 1.196e+04 1.198e-09
 98.99318    -80.9 1.138e+04 9.139e-10
 99.01461    -80.3 1.205e+04 1.304e-09
 99.05446    -79.5 1.248e+04 1.505e-09
 99.09431    -79.0 1.242e+04 1.376e-09
 99.13416    -79.2 1.195e+04 1.069e-09
 99.17306    -79.4 1.146e+04 8.997e-10
 99.19298    -78.0 1.151e+04 9.297e-10
 99.21385    -77.7 1.139e+04 8.905e-10
 99.25370    -77.1 1.194e+04 1.010e-09
 99.28282    -77.6 1.265e+04 1.389e-09
 99.29268    -76.5 1.249e+04 1.251e-09
 99.30332    -77.6 1.351e+04 1.806e-09
 99.32324    -78.7 1.482e+04 2.981e-09
 99.34316    -79.7 1.631e+04 5.069e-09
 99.36309    -80.3 1.803e+04 8.354e-09
 99.38262    -81.1 1.967e+04 1.266e-08
 99.39258    -79.9 1.935e+04 1.238e-08
 99.40293    -81.1 2.061e+04 1.652e-08
 99.42286    -83.3 2.125e+04 1.929e-08
 99.43750    -85.2 2.078e+04 2.028e-08
 99.44243    -84.7 2.078e+04 1.862e-08
 99.44767    -85.7 2.064e+04 1.983e-08
 99.45763    -86.7 2.041e+04 2.137e-08
 99.46759    -87.5 2.042e+04 2.357e-08
 99.47755    -88.0 2.042e+04 2.593e-08
 99.48740    -88.4 2.047e+04 2.666e-08
 99.49238    -88.1 2.021e+04 2.528e-08
 99.49748    -88.3 2.027e+04 2.611e-08
 99.50744    -88.5 2.018e+04 2.554e-08
 99.52243    -88.6 1.989e+04 2.338e-08
 99.54240    -88.8 1.911e+04 1.827e-08
 99.56233    -88.4 1.825e+04 1.286e-08
 99.58225    -88.2 1.764e+04 7.753e-09
 99.59238    -89.6 1.840e+04 4.761e-09
 99.60234    -89.1 1.838e+04 5.858e-09
 99.62210    -94.3 1.959e+04 5.088e-09
 99.64202   -101.3 2.030e+04 5.030e-09
 99.66195   -108.0 1.905e+04 5.957e-09
 99.68187   -112.9 1.783e+04 6.589e-09
 99.69228   -116.6 1.659e+04 5.785e-09
 99.70055   -116.8 1.704e+04 6.010e-09
 99.71006   -116.7 1.952e+04 8.079e-09
 99.72172   -123.0 1.578e+04 3.906e-09
 99.74164   -127.9 1.337e+04 2.090e-09
 99.76157   -130.6 1.213e+04 1.507e-09
 99.78149   -131.4 1.171e+04 1.347e-09
 99.79218   -131.5 1.163e+04 1.319e-09
 99.80214   -131.5 1.139e+04 1.210e-09
 99.82134   -131.1 1.136e+04 1.205e-09
 99.84126   -130.6 1.135e+04 1.207e-09
 99.86118   -130.0 1.132e+04 1.193e-09
 99.88111   -129.5 1.128e+04 1.108e-09
 99.89208   -129.3 1.120e+04 9.890e-10
 99.90204   -129.5 1.102e+04 9.005e-10
 99.92096   -129.6 1.088e+04 7.951e-10
 99.94088   -129.8 1.075e+04 7.174e-10
 99.96080   -130.0 1.069e+04 6.839e-10
 99.98073   -130.4 1.068e+04 6.784e-10
 99.99198   -131.0 1.084e+04 7.040e-10
100.00194   -131.5 1.082e+04 7.023e-10
