# Columns:
#   distance along LOS (in CHIMPs)
#   peculiar velocity  (in km/s)
#   temperature (K)
#   HI number density
# pos=(208.257,216.996,32.1133), angles=(1.52517,4.69363)
  0.00955    127.4 1.220e+04 1.017e-09
  0.02888    127.2 1.211e+04 9.409e-10
  0.03944    127.1 1.202e+04 8.566e-10
  0.04921    127.7 1.201e+04 8.264e-10
  0.05885    127.7 1.194e+04 7.168e-10
  0.06863    128.3 1.182e+04 6.211e-10
  0.08755    128.1 1.176e+04 5.248e-10
  0.10710    127.9 1.175e+04 4.685e-10
  0.13653    127.3 1.180e+04 4.032e-10
  0.17574    126.8 1.176e+04 3.122e-10
  0.21485    126.8 1.148e+04 2.634e-10
  0.25396    127.1 1.106e+04 2.651e-10
  0.29307    127.7 1.098e+04 2.709e-10
  0.33218    128.9 1.082e+04 2.970e-10
  0.37129    130.2 1.082e+04 3.346e-10
  0.41040    131.6 1.089e+04 3.834e-10
  0.44929    132.9 1.096e+04 4.025e-10
  0.46885    134.3 1.108e+04 4.729e-10
  0.48862    135.5 1.116e+04 4.907e-10
  0.52773    136.5 1.113e+04 4.652e-10
  0.56684    137.4 1.099e+04 4.059e-10
  0.60595    138.2 1.078e+04 3.505e-10
  0.64506    139.0 1.061e+04 3.339e-10
  0.68417    139.6 1.061e+04 3.485e-10
  0.72328    139.9 1.069e+04 4.165e-10
  0.76239    139.9 1.089e+04 5.504e-10
  0.80150    139.9 1.118e+04 7.451e-10
  0.84061    139.8 1.143e+04 9.635e-10
  0.87972    139.5 1.152e+04 1.049e-09
  0.91883    139.1 1.148e+04 1.023e-09
  0.95794    139.1 1.123e+04 8.917e-10
  0.99705    139.3 1.081e+04 6.591e-10
  1.03616    139.6 1.029e+04 4.050e-10
  1.07527    139.9 9.728e+03 2.191e-10
  1.11438    140.1 9.170e+03 1.256e-10
  1.15349    140.6 8.831e+03 1.046e-10
  1.19260    141.6 8.804e+03 1.045e-10
  1.23171    142.8 8.772e+03 1.091e-10
  1.27082    143.8 8.821e+03 1.290e-10
  1.30773    144.6 9.042e+03 1.654e-10
  1.32728    146.3 9.750e+03 2.609e-10
  1.34904    146.4 1.002e+04 3.351e-10
  1.37828    146.2 9.996e+03 3.448e-10
  1.39774    146.1 1.002e+04 3.834e-10
  1.41729    146.2 1.015e+04 4.702e-10
  1.43685    146.2 1.038e+04 5.933e-10
  1.45640    146.3 1.066e+04 7.440e-10
  1.47596    146.3 1.097e+04 9.153e-10
  1.49551    146.1 1.128e+04 1.097e-09
  1.51507    145.9 1.154e+04 1.268e-09
  1.53462    145.6 1.174e+04 1.408e-09
  1.55418    145.0 1.192e+04 1.530e-09
  1.57373    143.9 1.227e+04 1.727e-09
  1.59329    142.0 1.299e+04 2.186e-09
  1.61284    139.2 1.428e+04 3.219e-09
  1.63240    135.8 1.593e+04 5.188e-09
  1.65195    131.8 1.766e+04 8.063e-09
  1.67151    127.7 1.886e+04 9.893e-09
  1.69106    122.9 1.899e+04 9.669e-09
  1.71062    118.3 1.870e+04 7.806e-09
  1.73017    113.8 1.763e+04 4.644e-09
  1.74653    108.4 1.575e+04 2.289e-09
  1.75630    111.5 1.679e+04 3.181e-09
  1.76928    104.3 1.399e+04 1.329e-09
  1.78884     97.9 1.214e+04 1.003e-09
  1.80839     94.3 1.157e+04 8.763e-10
  1.82795     92.5 1.135e+04 7.869e-10
  1.85738     90.9 1.096e+04 5.730e-10
  1.89658     88.8 1.036e+04 3.123e-10
  1.93569     86.1 9.792e+03 1.654e-10
  1.97480     83.6 9.274e+03 1.305e-10
  2.01392     81.9 9.224e+03 1.313e-10
  2.05303     80.6 9.206e+03 1.384e-10
  2.09214     79.5 9.243e+03 1.510e-10
  2.12793     78.5 9.316e+03 1.600e-10
  2.14749     78.9 9.318e+03 1.602e-10
  2.16616     78.0 9.391e+03 1.635e-10
  2.18572     79.8 9.310e+03 1.540e-10
  2.20947     79.1 9.378e+03 1.602e-10
  2.24858     78.4 9.477e+03 1.716e-10
  2.28769     77.6 9.619e+03 1.904e-10
  2.32680     76.8 9.808e+03 2.115e-10
  2.36591     75.7 1.003e+04 2.330e-10
  2.40502     74.1 1.030e+04 2.636e-10
  2.43425     72.6 1.050e+04 2.914e-10
  2.45371     70.8 1.072e+04 3.575e-10
  2.47326     69.0 1.080e+04 5.032e-10
  2.49282     68.3 1.092e+04 7.156e-10
  2.51237     68.4 1.112e+04 9.261e-10
  2.53193     68.4 1.128e+04 9.714e-10
  2.55148     68.2 1.123e+04 9.482e-10
  2.57104     68.1 1.106e+04 8.558e-10
  2.59059     68.2 1.079e+04 7.124e-10
  2.60496     68.1 1.052e+04 5.670e-10
  2.61474     68.5 1.050e+04 5.901e-10
  2.63958     68.1 1.028e+04 4.303e-10
  2.67879     68.0 9.919e+03 3.131e-10
  2.71790     68.4 9.817e+03 2.844e-10
  2.75701     69.2 9.850e+03 2.841e-10
  2.78624     70.0 9.820e+03 2.772e-10
  2.80570     70.3 9.940e+03 2.934e-10
  2.82525     70.5 1.009e+04 3.230e-10
  2.84481     70.7 1.027e+04 3.728e-10
  2.86436     70.9 1.054e+04 4.689e-10
  2.88392     70.8 1.095e+04 6.217e-10
  2.90347     70.6 1.145e+04 8.725e-10
  2.92303     70.5 1.203e+04 1.285e-09
  2.94258     70.4 1.265e+04 1.921e-09
  2.96214     70.5 1.322e+04 2.763e-09
  2.98169     70.9 1.372e+04 3.667e-09
  3.00125     71.2 1.414e+04 3.845e-09
  3.02080     71.4 1.413e+04 3.706e-09
  3.03418     71.8 1.402e+04 3.125e-09
  3.04396     71.8 1.322e+04 1.521e-09
  3.05991     71.2 1.257e+04 9.790e-10
  3.07947     70.5 1.218e+04 8.067e-10
  3.10890     69.3 1.139e+04 5.328e-10
  3.14811     69.2 1.076e+04 4.397e-10
  3.18722     69.6 1.073e+04 4.433e-10
  3.22633     70.5 1.075e+04 4.713e-10
  3.26544     71.4 1.077e+04 4.947e-10
  3.30455     72.4 1.072e+04 4.848e-10
  3.34366     73.5 1.055e+04 4.396e-10
  3.38277     74.7 1.032e+04 3.781e-10
  3.42188     76.0 1.012e+04 3.253e-10
  3.46099     77.4 9.971e+03 2.886e-10
  3.50010     78.9 9.877e+03 2.658e-10
  3.53921     80.5 9.823e+03 2.536e-10
  3.57832     82.1 9.805e+03 2.530e-10
  3.61743     83.7 9.807e+03 2.568e-10
  3.65654     85.1 9.851e+03 2.592e-10
  3.69565     86.3 9.881e+03 2.580e-10
  3.73476     87.2 9.894e+03 2.498e-10
  3.77387     87.7 9.862e+03 2.251e-10
  3.81298     88.2 9.773e+03 1.864e-10
  3.85209     88.7 9.670e+03 1.472e-10
  3.88303     89.3 9.572e+03 1.141e-10
  3.90259     89.1 9.649e+03 1.420e-10
  3.93031     90.2 9.572e+03 1.088e-10
  3.96942     91.5 9.539e+03 7.943e-11
  4.00853     93.0 9.552e+03 5.719e-11
  4.04764     94.4 9.564e+03 4.336e-11
  4.08675     96.1 9.499e+03 3.883e-11
  4.12586     98.0 9.513e+03 3.890e-11
  4.16497     99.9 9.609e+03 4.099e-11
  4.20408    101.9 9.716e+03 5.027e-11
  4.22615    104.0 9.732e+03 6.714e-11
  4.24571    104.8 9.649e+03 5.478e-11
  4.28230    106.9 9.682e+03 7.250e-11
  4.32141    109.0 9.703e+03 9.409e-11
  4.36052    111.2 9.736e+03 1.165e-10
  4.39963    113.3 9.789e+03 1.365e-10
  4.43874    115.4 9.866e+03 1.525e-10
  4.47785    117.4 9.992e+03 1.663e-10
  4.51696    119.1 1.015e+04 1.829e-10
  4.55607    120.6 1.033e+04 2.145e-10
  4.59518    121.9 1.053e+04 2.752e-10
  4.63429    123.0 1.084e+04 3.965e-10
  4.67340    124.1 1.122e+04 5.963e-10
  4.71251    125.1 1.152e+04 8.076e-10
  4.74146    125.9 1.156e+04 8.669e-10
  4.76102    125.9 1.138e+04 8.041e-10
  4.79073    126.6 1.133e+04 7.876e-10
  4.82984    127.5 1.109e+04 6.990e-10
  4.86895    128.8 1.059e+04 4.963e-10
  4.90806    130.3 1.001e+04 2.876e-10
  4.94717    132.0 9.495e+03 1.455e-10
  4.98628    133.4 9.132e+03 7.379e-11
  5.02539    134.8 8.728e+03 5.001e-11
  5.06450    136.4 8.471e+03 4.759e-11
  5.10361    138.3 8.444e+03 4.700e-11
  5.14272    140.5 8.448e+03 4.723e-11
  5.18183    142.6 8.451e+03 4.895e-11
  5.22094    144.7 8.442e+03 5.369e-11
  5.26005    146.7 8.425e+03 6.193e-11
  5.29916    148.8 8.421e+03 7.380e-11
  5.33827    150.9 8.445e+03 8.877e-11
  5.37738    153.0 8.487e+03 1.075e-10
  5.41649    155.1 8.565e+03 1.295e-10
  5.45560    157.2 8.659e+03 1.525e-10
  5.49471    159.2 8.778e+03 1.768e-10
  5.53382    161.0 8.926e+03 2.061e-10
  5.57293    162.7 9.110e+03 2.457e-10
  5.59990    164.1 9.305e+03 2.965e-10
  5.61945    163.9 9.149e+03 2.614e-10
  5.65115    165.1 9.329e+03 3.131e-10
  5.69026    165.7 9.379e+03 3.428e-10
  5.71950    166.5 9.380e+03 3.675e-10
  5.73895    167.3 9.470e+03 4.036e-10
  5.75851    167.8 9.668e+03 4.539e-10
  5.77806    167.9 9.929e+03 5.134e-10
  5.79762    167.9 1.022e+04 5.860e-10
  5.81717    168.0 1.049e+04 6.729e-10
  5.83673    168.1 1.067e+04 7.740e-10
  5.85628    168.1 1.090e+04 9.146e-10
  5.87584    168.0 1.165e+04 1.203e-09
  5.89539    167.4 1.341e+04 1.817e-09
  5.91495    166.6 1.559e+04 2.886e-09
  5.93450    165.8 1.714e+04 3.975e-09
  5.94912    166.2 1.836e+04 4.665e-09
  5.95885    165.7 1.990e+04 6.232e-09
  5.96863    164.7 2.059e+04 8.924e-09
  5.97841    164.4 2.032e+04 1.271e-08
  5.98818    164.5 1.979e+04 1.750e-08
  5.99796    164.9 1.941e+04 2.304e-08
  6.00774    165.2 1.941e+04 2.821e-08
  6.01752    165.3 1.981e+04 3.123e-08
  6.02729    165.3 2.071e+04 3.090e-08
  6.03371    165.1 2.160e+04 2.941e-08
  6.03860    166.5 1.984e+04 3.682e-08
  6.04685    166.6 2.095e+04 3.586e-08
  6.05663    166.5 2.210e+04 3.362e-08
  6.06640    166.1 2.352e+04 2.811e-08
  6.07618    165.3 2.621e+04 1.894e-08
  6.08596    163.7 2.925e+04 1.063e-08
  6.09574    161.4 3.075e+04 5.625e-09
  6.11045    158.8 3.199e+04 3.161e-09
  6.13006    150.9 2.703e+04 9.631e-10
  6.14961    140.6 1.329e+04 6.055e-10
  6.16917    133.4 1.030e+04 5.847e-10
  6.18872    128.8 1.008e+04 5.500e-10
  6.20828    124.6 1.000e+04 5.202e-10
  6.22783    120.8 9.824e+03 4.753e-10
  6.24739    117.7 9.532e+03 4.180e-10
  6.26694    116.1 9.226e+03 3.840e-10
  6.28650    116.0 9.200e+03 3.850e-10
  6.30462    116.2 9.282e+03 3.973e-10
  6.31440    113.7 1.020e+04 5.207e-10
  6.32561    113.3 1.160e+04 7.733e-10
  6.34516    113.8 1.275e+04 1.206e-09
  6.35978    115.6 1.303e+04 1.477e-09
  6.36951    116.6 1.313e+04 1.585e-09
  6.37928    118.1 1.344e+04 1.905e-09
  6.38906    119.3 1.366e+04 2.208e-09
  6.39884    120.9 1.404e+04 2.665e-09
  6.40862    122.6 1.480e+04 3.275e-09
  6.41839    124.2 1.662e+04 4.324e-09
  6.42817    124.2 2.201e+04 6.276e-09
  6.43795    123.7 3.034e+04 1.294e-08
  6.44773    124.6 3.156e+04 5.190e-08
  6.45750    127.5 2.841e+04 2.139e-07
  6.46290    128.5 2.775e+04 3.932e-07
  6.46532    126.5 2.196e+04 1.339e-06
  6.46968    127.2 2.068e+04 2.475e-06
  6.47457    128.5 1.875e+04 9.670e-06
  6.47946    129.0 1.416e+04 2.184e-04
  6.48434    126.9 1.084e+04 6.815e-03
  6.48800    121.8 1.096e+04 6.865e-03
  6.49043    116.4 1.104e+04 6.209e-03
  6.49287    113.0 1.181e+04 4.308e-03
  6.49532    110.7 1.281e+04 1.724e-03
  6.49900    110.3 1.488e+04 1.622e-04
  6.50390    111.0 1.953e+04 8.946e-06
  6.50879    109.9 3.143e+04 6.297e-07
  6.51615    100.5 4.406e+04 6.412e-08
  6.52595     89.4 5.306e+04 1.603e-08
  6.53572     79.0 5.119e+04 5.743e-09
  6.54550     73.4 4.392e+04 3.601e-09
  6.56022     71.9 3.063e+04 7.023e-10
  6.57982     69.3 1.550e+04 4.052e-10
  6.59938     68.9 1.219e+04 3.065e-10
  6.62881     70.4 8.880e+03 1.262e-10
  6.66801     71.8 7.603e+03 1.287e-10
  6.70712     72.7 7.642e+03 1.489e-10
  6.74623     72.5 8.461e+03 2.599e-10
  6.78534     71.6 9.700e+03 4.905e-10
  6.82445     69.7 1.064e+04 7.191e-10
  6.86356     67.0 1.113e+04 7.114e-10
  6.90267     63.9 1.116e+04 5.940e-10
  6.94178     61.3 1.087e+04 4.286e-10
  6.98089     58.9 1.037e+04 3.428e-10
  7.02000     58.1 9.954e+03 3.129e-10
  7.05911     58.5 9.944e+03 3.329e-10
  7.09822     58.9 1.007e+04 3.775e-10
  7.13733     59.3 1.046e+04 4.697e-10
  7.17645     60.0 1.078e+04 5.846e-10
  7.20568     59.9 1.104e+04 6.804e-10
  7.22514     59.7 1.127e+04 7.448e-10
  7.24469     59.2 1.176e+04 9.047e-10
  7.26425     58.7 1.226e+04 1.136e-09
  7.28380     58.2 1.273e+04 1.457e-09
  7.30336     57.9 1.314e+04 1.791e-09
  7.31657     57.5 1.330e+04 2.047e-09
  7.33622     58.5 1.283e+04 1.565e-09
  7.37200     58.5 1.260e+04 1.518e-09
  7.41111     58.9 1.230e+04 1.347e-09
  7.44034     59.7 1.216e+04 1.280e-09
  7.45980     59.8 1.185e+04 1.109e-09
  7.47935     59.8 1.151e+04 8.754e-10
  7.49891     59.7 1.121e+04 6.945e-10
  7.51846     59.7 1.101e+04 5.953e-10
  7.53802     59.7 1.092e+04 5.776e-10
  7.55757     59.7 1.093e+04 6.124e-10
  7.57713     59.8 1.108e+04 7.120e-10
  7.59668     59.9 1.135e+04 8.959e-10
  7.61624     59.8 1.179e+04 1.193e-09
  7.63579     59.6 1.234e+04 1.627e-09
  7.65535     59.4 1.293e+04 2.198e-09
  7.67490     59.4 1.345e+04 2.807e-09
  7.69446     59.5 1.361e+04 3.119e-09
  7.71401     59.9 1.350e+04 2.914e-09
  7.73357     60.4 1.315e+04 2.283e-09
  7.74579     60.5 1.267e+04 1.484e-09
  7.75557     61.0 1.317e+04 2.120e-09
  7.77268     60.8 1.269e+04 1.241e-09
  7.79223     59.4 1.211e+04 6.933e-10
  7.81179     57.1 1.120e+04 4.276e-10
  7.83134     55.3 1.038e+04 3.429e-10
  7.85090     54.6 1.004e+04 3.240e-10
  7.88033     54.4 1.002e+04 3.311e-10
  7.91954     54.9 1.002e+04 3.639e-10
  7.95865     55.4 1.002e+04 3.756e-10
  7.99776     55.6 9.995e+03 3.602e-10
  8.03687     55.6 9.976e+03 3.302e-10
  8.07598     55.3 9.930e+03 2.998e-10
  8.11509     54.5 9.929e+03 2.912e-10
  8.14432     53.5 1.004e+04 3.107e-10
  8.16378     52.4 1.018e+04 3.410e-10
  8.17501     50.9 1.041e+04 4.620e-10
  8.18478     51.8 1.042e+04 4.492e-10
  8.20289     50.6 1.065e+04 6.450e-10
  8.22244     50.4 1.088e+04 8.264e-10
  8.24200     50.0 1.115e+04 8.635e-10
  8.26155     49.2 1.123e+04 8.383e-10
  8.28111     47.7 1.131e+04 7.844e-10
  8.30066     45.7 1.123e+04 7.777e-10
  8.32022     43.9 1.116e+04 8.104e-10
  8.33977     42.9 1.106e+04 8.454e-10
  8.35933     42.0 1.106e+04 8.402e-10
  8.38338     42.7 1.086e+04 7.222e-10
  8.40303     40.8 1.160e+04 1.111e-09
  8.42797     40.8 1.109e+04 7.283e-10
  8.46708     40.0 1.066e+04 5.499e-10
  8.50619     39.8 1.062e+04 5.536e-10
  8.54530     40.1 1.060e+04 5.933e-10
  8.58441     40.9 1.058e+04 6.215e-10
  8.62352     42.0 1.044e+04 5.738e-10
  8.66263     42.5 1.039e+04 5.159e-10
  8.70174     42.4 1.044e+04 5.233e-10
  8.74085     42.0 1.064e+04 6.081e-10
  8.77996     41.8 1.066e+04 6.873e-10
  8.81907     41.9 1.052e+04 6.607e-10
  8.85818     42.4 1.016e+04 5.433e-10
  8.89729     43.0 9.795e+03 4.001e-10
  8.93640     43.6 9.468e+03 3.088e-10
  8.97551     44.5 9.319e+03 2.650e-10
  9.01408     45.8 9.312e+03 2.575e-10
  9.03364     45.9 9.344e+03 2.712e-10
  9.05373     47.3 9.408e+03 2.937e-10
  9.09284     48.6 9.591e+03 3.417e-10
  9.13195     49.7 9.835e+03 4.098e-10
  9.17106     50.6 1.013e+04 4.889e-10
  9.21017     51.0 1.038e+04 5.350e-10
  9.24928     51.1 1.037e+04 5.246e-10
  9.28839     51.4 1.023e+04 4.553e-10
  9.32750     51.9 1.002e+04 3.254e-10
  9.36661     52.2 9.811e+03 2.140e-10
  9.40572     52.4 9.579e+03 1.575e-10
  9.44483     53.1 9.418e+03 1.505e-10
  9.48394     54.2 9.409e+03 1.523e-10
  9.52305     55.5 9.434e+03 1.633e-10
  9.56216     56.8 9.519e+03 1.855e-10
  9.60127     58.0 9.666e+03 2.216e-10
  9.64038     59.1 9.961e+03 2.836e-10
  9.67949     59.8 1.036e+04 3.541e-10
  9.70872     60.0 1.053e+04 4.109e-10
  9.72818     60.1 1.065e+04 4.760e-10
  9.74774     60.4 1.071e+04 5.589e-10
  9.76729     60.8 1.082e+04 6.458e-10
  9.78685     61.2 1.097e+04 7.117e-10
  9.80640     61.7 1.113e+04 7.260e-10
  9.82596     62.1 1.113e+04 7.168e-10
  9.84551     62.5 1.113e+04 6.788e-10
  9.86507     63.0 1.115e+04 6.105e-10
  9.88210     63.1 1.124e+04 5.329e-10
  9.89187     63.5 1.096e+04 5.063e-10
  9.91405     63.9 1.090e+04 4.152e-10
  9.95326     64.6 1.075e+04 3.211e-10
  9.99237     64.7 1.077e+04 3.221e-10
 10.03148     64.5 1.090e+04 3.930e-10
 10.07059     64.6 1.100e+04 5.444e-10
 10.10970     64.8 1.091e+04 5.978e-10
 10.14881     65.2 1.079e+04 5.569e-10
 10.18792     65.5 1.053e+04 4.527e-10
 10.22703     65.8 1.026e+04 3.692e-10
 10.26614     66.2 1.007e+04 3.295e-10
 10.30525     67.0 9.948e+03 3.137e-10
 10.34436     68.0 9.886e+03 3.043e-10
 10.38347     69.0 9.845e+03 2.912e-10
 10.42258     70.0 9.813e+03 2.784e-10
 10.46169     71.0 9.789e+03 2.738e-10
 10.48170     72.0 9.779e+03 2.762e-10
 10.50125     71.6 9.531e+03 2.075e-10
 10.53991     72.7 9.599e+03 2.462e-10
 10.57902     73.7 9.834e+03 3.089e-10
 10.61813     74.3 1.010e+04 3.789e-10
 10.64737     74.2 1.035e+04 4.710e-10
 10.66682     74.1 1.055e+04 5.686e-10
 10.68638     74.0 1.079e+04 6.900e-10
 10.70593     73.9 1.105e+04 8.419e-10
 10.72549     73.8 1.125e+04 9.677e-10
 10.74053     73.6 1.136e+04 1.011e-09
 10.75041     74.1 1.154e+04 1.170e-09
 10.77457     73.3 1.160e+04 1.175e-09
 10.81368     72.3 1.130e+04 9.782e-10
 10.84292     72.1 1.097e+04 8.156e-10
 10.86237     71.8 1.064e+04 6.541e-10
 10.88193     71.0 1.042e+04 5.323e-10
 10.90148     70.1 1.043e+04 5.180e-10
 10.92104     69.1 1.052e+04 5.390e-10
 10.94059     67.6 1.078e+04 6.458e-10
 10.96015     66.2 1.103e+04 8.857e-10
 10.97970     65.5 1.129e+04 1.265e-09
 10.99926     65.6 1.167e+04 1.737e-09
 11.01881     66.0 1.195e+04 2.070e-09
 11.03837     66.3 1.197e+04 2.072e-09
 11.05792     66.5 1.189e+04 1.887e-09
 11.07748     66.4 1.172e+04 1.458e-09
 11.09703     65.5 1.156e+04 1.023e-09
 11.11659     63.2 1.129e+04 7.378e-10
 11.13614     60.7 1.078e+04 6.669e-10
 11.15570     58.8 1.065e+04 6.730e-10
 11.16975     57.7 1.054e+04 7.144e-10
 11.17953     57.4 1.056e+04 7.764e-10
 11.19481     56.9 1.044e+04 7.723e-10
 11.21437     56.7 1.028e+04 7.411e-10
 11.23392     56.4 1.016e+04 6.486e-10
 11.25348     55.5 1.011e+04 5.282e-10
 11.27303     53.6 1.009e+04 4.609e-10
 11.29259     51.6 9.907e+03 4.392e-10
 11.31214     50.0 9.846e+03 4.424e-10
 11.33170     49.0 9.807e+03 4.565e-10
 11.35125     47.8 9.879e+03 5.056e-10
 11.37081     46.8 1.000e+04 5.647e-10
 11.39036     45.4 1.035e+04 6.708e-10
 11.40992     43.9 1.070e+04 8.040e-10
 11.42947     42.4 1.111e+04 9.638e-10
 11.44903     40.5 1.153e+04 1.156e-09
 11.46858     38.0 1.208e+04 1.444e-09
 11.48814     34.8 1.304e+04 1.984e-09
 11.50769     32.7 1.343e+04 2.472e-09
 11.52083     30.5 1.340e+04 2.470e-09
 11.53061     29.8 1.295e+04 1.930e-09
 11.54680     28.8 1.251e+04 1.623e-09
 11.56636     27.2 1.207e+04 1.293e-09
 11.58929     24.6 1.155e+04 9.565e-10
 11.60894     24.6 1.145e+04 8.906e-10
 11.63499     21.7 1.035e+04 6.001e-10
 11.67410     21.2 9.744e+03 4.189e-10
 11.71321     20.7 9.510e+03 2.949e-10
 11.75232     19.7 9.402e+03 2.678e-10
 11.79143     18.5 9.456e+03 3.060e-10
 11.83054     18.0 9.521e+03 3.800e-10
 11.86965     17.9 9.425e+03 3.713e-10
 11.90876     18.1 9.059e+03 2.980e-10
 11.94787     17.7 8.822e+03 2.278e-10
 11.98698     17.5 8.526e+03 1.854e-10
 12.02609     17.8 8.235e+03 1.461e-10
 12.06520     18.1 8.040e+03 1.238e-10
 12.10431     18.4 8.035e+03 1.260e-10
 12.14342     18.8 8.102e+03 1.472e-10
 12.18253     19.6 8.161e+03 1.652e-10
 12.22164     20.8 8.113e+03 1.544e-10
 12.26075     21.6 8.020e+03 1.253e-10
 12.29986     21.8 7.847e+03 1.012e-10
 12.33898     22.0 7.681e+03 9.803e-11
 12.37809     22.7 7.625e+03 1.043e-10
 12.41720     23.8 7.560e+03 1.111e-10
 12.44782     25.1 7.517e+03 1.091e-10
 12.46737     24.6 7.496e+03 1.086e-10
 12.49542     25.8 7.505e+03 1.049e-10
 12.53453     26.7 7.494e+03 9.936e-11
 12.56036     27.5 7.497e+03 9.930e-11
 12.57992     28.1 7.585e+03 1.075e-10
 12.61275     28.8 7.618e+03 1.130e-10
 12.65186     29.5 7.667e+03 1.254e-10
 12.69097     30.3 7.750e+03 1.394e-10
 12.73008     31.0 7.835e+03 1.528e-10
 12.76919     31.5 7.943e+03 1.701e-10
 12.80830     31.9 8.230e+03 2.107e-10
 12.84741     31.7 8.764e+03 2.809e-10
 12.87664     30.7 9.182e+03 3.802e-10
 12.88662     28.4 1.020e+04 6.635e-10
 12.89639     29.4 9.483e+03 4.916e-10
 12.91565     26.9 1.073e+04 8.839e-10
 12.93521     25.4 1.168e+04 1.510e-09
 12.95476     25.2 1.204e+04 2.009e-09
 12.97432     25.2 1.195e+04 1.981e-09
 12.99387     25.0 1.162e+04 1.742e-09
 13.01343     23.9 1.145e+04 1.390e-09
 13.03298     21.2 1.150e+04 1.170e-09
 13.05254     16.4 1.209e+04 1.335e-09
 13.07209     10.9 1.334e+04 2.104e-09
 13.09165      7.7 1.375e+04 3.379e-09
 13.11120      8.0 1.390e+04 4.550e-09
 13.13076      8.3 1.383e+04 4.434e-09
 13.15031      8.9 1.340e+04 3.524e-09
 13.16987      6.9 1.388e+04 2.455e-09
 13.18942      1.2 1.299e+04 1.394e-09
 13.20898     -6.1 1.102e+04 9.281e-10
 13.22853     -8.5 1.122e+04 1.122e-09
 13.24809     -9.8 1.205e+04 1.464e-09
 13.26764    -11.4 1.221e+04 1.638e-09
 13.28720    -13.2 1.185e+04 1.608e-09
 13.30606    -14.2 1.164e+04 1.530e-09
 13.31583    -12.6 1.182e+04 1.676e-09
 13.32631    -13.3 1.174e+04 1.559e-09
 13.34586    -13.9 1.150e+04 1.259e-09
 13.36542    -15.4 1.155e+04 1.146e-09
 13.38497    -22.0 1.472e+04 1.251e-09
 13.40453    -31.9 1.792e+04 2.394e-09
 13.41915    -37.2 1.770e+04 4.153e-09
 13.42888    -38.5 1.769e+04 5.270e-09
 13.43865    -40.0 1.688e+04 7.864e-09
 13.44843    -39.8 1.669e+04 9.729e-09
 13.45821    -38.7 1.680e+04 1.095e-08
 13.46799    -37.8 1.702e+04 1.103e-08
 13.48270    -37.3 1.727e+04 1.035e-08
 13.50230    -37.1 1.706e+04 6.574e-09
 13.52186    -42.4 1.590e+04 2.647e-09
 13.54141    -50.6 1.148e+04 9.604e-10
 13.56097    -53.6 1.002e+04 7.105e-10
 13.59040    -54.1 1.036e+04 7.453e-10
 13.62961    -53.2 1.040e+04 7.429e-10
 13.66872    -52.3 1.037e+04 7.513e-10
 13.70783    -51.1 1.025e+04 7.520e-10
 13.74694    -49.8 1.013e+04 7.385e-10
 13.78605    -48.3 9.923e+03 6.825e-10
 13.82516    -46.8 9.732e+03 6.276e-10
 13.86427    -45.3 9.639e+03 5.958e-10
 13.90338    -43.9 9.785e+03 6.126e-10
 13.93261    -43.6 1.004e+04 7.445e-10
 13.95207    -43.6 1.026e+04 8.488e-10
 13.97163    -43.4 1.059e+04 1.020e-09
 13.99118    -43.3 1.097e+04 1.238e-09
 14.01074    -43.0 1.147e+04 1.525e-09
 14.03029    -42.8 1.194e+04 1.849e-09
 14.04985    -42.6 1.224e+04 2.097e-09
 14.06940    -42.5 1.240e+04 2.222e-09
 14.08896    -42.6 1.252e+04 2.281e-09
 14.10851    -44.1 1.303e+04 2.466e-09
 14.12807    -47.8 1.432e+04 3.138e-09
 14.14762    -52.1 1.549e+04 4.793e-09
 14.16449    -54.5 1.632e+04 7.277e-09
 14.17427    -55.3 1.680e+04 8.384e-09
 14.18673    -55.8 1.691e+04 9.263e-09
 14.20629    -56.2 1.656e+04 8.663e-09
 14.22584    -56.5 1.555e+04 5.172e-09
 14.24540    -59.5 1.406e+04 2.382e-09
 14.26495    -63.8 1.211e+04 1.148e-09
 14.28451    -66.7 1.100e+04 7.930e-10
 14.30406    -67.5 1.064e+04 7.011e-10
 14.33349    -68.2 1.057e+04 6.566e-10
 14.37270    -69.5 1.014e+04 4.993e-10
 14.41181    -71.3 9.808e+03 4.009e-10
 14.45092    -72.8 9.460e+03 3.282e-10
 14.49003    -73.8 9.297e+03 3.054e-10
 14.52914    -74.4 9.273e+03 3.043e-10
 14.56825    -74.7 9.263e+03 3.080e-10
 14.60736    -74.8 9.255e+03 3.110e-10
 14.63903    -74.8 9.178e+03 2.969e-10
 14.65858    -74.4 8.964e+03 2.322e-10
 14.68558    -74.5 8.841e+03 1.955e-10
 14.72469    -74.6 8.708e+03 1.611e-10
 14.76380    -74.6 8.566e+03 1.343e-10
 14.80291    -74.5 8.423e+03 1.144e-10
 14.84202    -74.1 8.316e+03 9.794e-11
 14.88113    -73.5 8.252e+03 8.459e-11
 14.92024    -73.0 8.252e+03 7.616e-11
 14.95935    -72.5 8.272e+03 7.384e-11
 14.99846    -72.1 8.319e+03 7.407e-11
 15.02312    -72.0 8.467e+03 8.385e-11
 15.04268    -72.2 8.455e+03 7.711e-11
 15.07668    -72.1 8.598e+03 9.663e-11
 15.11579    -72.0 8.721e+03 1.218e-10
 15.15490    -71.8 8.836e+03 1.413e-10
 15.19401    -71.6 8.898e+03 1.474e-10
 15.23312    -71.5 8.911e+03 1.464e-10
 15.27223    -71.3 8.892e+03 1.216e-10
 15.31134    -71.2 8.798e+03 9.059e-11
 15.35045    -71.3 8.647e+03 6.718e-11
 15.38956    -71.4 8.433e+03 5.360e-11
 15.42867    -71.4 8.255e+03 4.742e-11
 15.46778    -70.9 8.168e+03 4.573e-11
 15.50689    -70.2 8.138e+03 4.565e-11
 15.54600    -69.6 8.077e+03 4.710e-11
 15.58511    -69.3 8.107e+03 5.060e-11
 15.62422    -69.3 8.230e+03 6.256e-11
 15.66333    -69.7 8.524e+03 9.531e-11
 15.70244    -70.1 8.918e+03 1.603e-10
 15.74155    -70.3 9.314e+03 2.434e-10
 15.78066    -70.5 9.551e+03 2.875e-10
 15.81977    -70.9 9.587e+03 2.915e-10
 15.85888    -71.1 9.510e+03 2.427e-10
 15.88155    -71.2 9.344e+03 1.708e-10
 15.90111    -71.3 9.398e+03 1.649e-10
 15.93710    -71.5 9.237e+03 1.262e-10
 15.97621    -71.6 9.125e+03 1.090e-10
 16.01532    -71.2 9.088e+03 1.029e-10
 16.05443    -70.8 9.127e+03 1.045e-10
 16.09354    -70.3 9.180e+03 1.114e-10
 16.13265    -69.8 9.185e+03 1.144e-10
 16.17176    -69.0 9.127e+03 1.108e-10
 16.21087    -68.1 9.002e+03 9.540e-11
 16.24998    -67.1 8.897e+03 7.524e-11
 16.28909    -66.1 8.837e+03 5.937e-11
 16.32820    -65.0 8.804e+03 4.921e-11
 16.36731    -63.8 8.779e+03 4.351e-11
 16.40642    -62.5 8.780e+03 4.143e-11
 16.44553    -61.3 8.788e+03 4.113e-11
 16.48464    -60.7 8.954e+03 4.282e-11
 16.52375    -60.7 9.286e+03 6.162e-11
 16.56286    -60.9 9.561e+03 1.210e-10
 16.60197    -60.7 1.002e+04 2.387e-10
 16.64108    -60.5 1.050e+04 3.915e-10
 16.68019    -60.6 1.080e+04 4.867e-10
 16.71769    -61.4 1.083e+04 4.982e-10
 16.73725    -61.2 1.055e+04 3.971e-10
 16.73999    -61.6 1.041e+04 3.717e-10
 16.75954    -61.5 1.067e+04 5.507e-10
 16.79752    -61.5 1.040e+04 4.058e-10
 16.83663    -61.3 1.012e+04 2.492e-10
 16.87574    -60.9 9.901e+03 1.520e-10
 16.91485    -60.3 9.749e+03 1.040e-10
 16.95396    -59.4 9.648e+03 8.652e-11
 16.99307    -58.2 9.622e+03 8.309e-11
 17.03218    -57.1 9.662e+03 8.355e-11
 17.07129    -57.0 9.957e+03 9.805e-11
 17.11040    -57.5 1.045e+04 1.965e-10
 17.14951    -58.3 1.141e+04 4.524e-10
 17.18862    -59.4 1.244e+04 9.644e-10
 17.21786    -60.1 1.318e+04 1.404e-09
 17.23732    -60.7 1.326e+04 1.511e-09
 17.25687    -61.4 1.308e+04 1.399e-09
 17.27643    -62.0 1.283e+04 1.277e-09
 17.29598    -63.2 1.191e+04 9.526e-10
 17.31554    -63.5 1.154e+04 8.240e-10
 17.33509    -63.5 1.124e+04 7.149e-10
 17.35465    -63.3 1.108e+04 6.302e-10
 17.37420    -63.0 1.094e+04 5.440e-10
 17.39376    -62.6 1.083e+04 4.792e-10
 17.41331    -62.2 1.074e+04 4.226e-10
 17.43287    -61.7 1.076e+04 4.061e-10
 17.45242    -61.4 1.078e+04 4.032e-10
 17.47198    -61.5 1.101e+04 4.023e-10
 17.49153    -64.0 1.231e+04 6.252e-10
 17.51109    -68.3 1.365e+04 1.555e-09
 17.53064    -70.3 1.481e+04 4.266e-09
 17.55020    -70.4 1.613e+04 9.581e-09
 17.56975    -69.8 1.734e+04 1.540e-08
 17.58845    -69.8 1.784e+04 1.692e-08
 17.59823    -69.6 1.772e+04 1.476e-08
 17.60886    -71.2 1.815e+04 1.151e-08
 17.62842    -74.2 1.734e+04 5.461e-09
 17.64797    -79.6 1.510e+04 2.354e-09
 17.66753    -83.9 1.291e+04 1.606e-09
 17.68708    -85.0 1.226e+04 1.455e-09
 17.70664    -85.2 1.209e+04 1.423e-09
 17.72619    -85.2 1.195e+04 1.378e-09
 17.74575    -85.1 1.182e+04 1.270e-09
 17.76530    -85.2 1.169e+04 1.141e-09
 17.77638    -85.4 1.158e+04 1.051e-09
 17.78616    -85.1 1.164e+04 1.121e-09
 17.80441    -85.2 1.161e+04 1.097e-09
 17.82397    -85.4 1.162e+04 1.103e-09
 17.84352    -85.5 1.175e+04 1.193e-09
 17.86308    -85.6 1.191e+04 1.311e-09
 17.89251    -85.7 1.204e+04 1.405e-09
 17.93172    -85.6 1.218e+04 1.500e-09
 17.97083    -86.2 1.227e+04 1.461e-09
 18.00994    -87.1 1.186e+04 1.029e-09
 18.04905    -87.9 1.118e+04 6.043e-10
 18.08816    -88.7 1.065e+04 3.924e-10
 18.12727    -89.5 1.044e+04 3.298e-10
 18.16638    -90.0 1.041e+04 3.209e-10
 18.20549    -90.8 1.035e+04 3.422e-10
 18.24460    -91.8 1.044e+04 3.866e-10
 18.28371    -92.9 1.051e+04 4.212e-10
 18.32282    -94.0 1.053e+04 4.295e-10
 18.36193    -95.4 1.048e+04 4.146e-10
 18.40104    -97.1 1.041e+04 3.889e-10
 18.43730    -99.2 1.040e+04 3.831e-10
 18.45686    -98.3 1.017e+04 2.754e-10
 18.47926   -100.6 1.027e+04 2.966e-10
 18.51837   -103.3 1.054e+04 3.925e-10
 18.55748   -106.6 1.088e+04 4.978e-10
 18.59659   -111.2 1.131e+04 5.848e-10
 18.63570   -116.8 1.174e+04 7.405e-10
 18.67481   -122.2 1.203e+04 1.053e-09
 18.71392   -126.4 1.223e+04 1.424e-09
 18.74315   -128.4 1.234e+04 1.613e-09
 18.76261   -130.0 1.232e+04 1.628e-09
 18.78216   -131.4 1.192e+04 1.541e-09
 18.80172   -132.4 1.146e+04 1.181e-09
 18.81571   -133.6 1.091e+04 7.914e-10
 18.82549   -133.3 1.098e+04 8.615e-10
 18.84083   -134.4 1.044e+04 5.395e-10
 18.86038   -135.1 1.006e+04 3.751e-10
 18.87610   -135.3 9.928e+03 3.219e-10
 18.88588   -135.2 9.953e+03 3.286e-10
 18.90937   -135.5 9.806e+03 2.674e-10
 18.94858   -135.6 9.616e+03 1.887e-10
 18.98769   -135.6 9.604e+03 1.552e-10
 19.02680   -135.7 9.621e+03 1.497e-10
 19.06591   -136.7 9.867e+03 1.660e-10
 19.10502   -138.2 1.056e+04 3.091e-10
 19.14413   -139.5 1.115e+04 5.805e-10
 19.18324   -141.0 1.144e+04 8.190e-10
 19.21247   -141.9 1.132e+04 8.035e-10
 19.23193   -142.5 1.107e+04 7.734e-10
 19.25149   -142.8 1.068e+04 6.104e-10
 19.27104   -143.1 1.042e+04 4.616e-10
 19.29564   -143.6 1.029e+04 3.751e-10
 19.31529   -142.5 1.025e+04 3.719e-10
 19.33968   -143.0 9.867e+03 2.601e-10
 19.37879   -143.2 9.428e+03 1.857e-10
 19.41790   -143.2 9.237e+03 1.649e-10
 19.45701   -143.3 9.209e+03 1.625e-10
 19.49612   -143.8 9.391e+03 1.943e-10
 19.53523   -145.3 1.012e+04 3.474e-10
 19.57434   -147.2 1.077e+04 5.807e-10
 19.61345   -149.7 1.117e+04 7.861e-10
 19.64268   -151.9 1.127e+04 8.802e-10
 19.66214   -153.4 1.125e+04 8.708e-10
 19.68170   -155.9 1.082e+04 7.730e-10
 19.70125   -157.5 1.035e+04 6.640e-10
 19.72081   -158.7 1.000e+04 5.869e-10
 19.73454   -159.4 9.836e+03 5.409e-10
 19.74431   -158.8 9.943e+03 5.561e-10
 19.75992   -159.4 9.816e+03 5.254e-10
 19.77947   -159.9 9.772e+03 5.154e-10
 19.79903   -160.3 9.768e+03 5.142e-10
 19.81858   -160.7 9.814e+03 5.254e-10
 19.83814   -161.2 9.938e+03 5.736e-10
 19.85505   -161.7 1.010e+04 6.448e-10
 19.86482   -162.2 1.004e+04 6.418e-10
 19.87725   -162.6 1.010e+04 6.717e-10
 19.89680   -163.2 1.016e+04 6.815e-10
 19.91636   -164.2 1.022e+04 6.538e-10
 19.93591   -165.5 1.024e+04 6.157e-10
 19.95547   -167.0 1.023e+04 5.714e-10
 19.97502   -168.9 1.018e+04 5.330e-10
 19.99458   -170.6 1.017e+04 5.190e-10
 20.01413   -172.4 1.027e+04 5.276e-10
 20.04356   -175.3 1.046e+04 5.837e-10
 20.07289   -181.8 1.047e+04 6.949e-10
 20.09235   -185.9 1.346e+04 1.710e-09
 20.11191   -188.8 1.591e+04 4.491e-09
 20.13146   -190.6 1.756e+04 9.680e-09
 20.15102   -192.5 1.837e+04 1.494e-08
 20.16375   -194.7 1.849e+04 1.680e-08
 20.17353   -195.5 1.904e+04 1.990e-08
 20.19013   -197.1 1.827e+04 1.770e-08
 20.20968   -198.2 1.707e+04 1.130e-08
 20.22924   -200.1 1.566e+04 6.273e-09
 20.24879   -202.7 1.420e+04 3.508e-09
 20.26835   -205.3 1.297e+04 2.201e-09
 20.28790   -207.3 1.224e+04 1.602e-09
 20.30746   -208.6 1.189e+04 1.298e-09
 20.32701   -209.5 1.163e+04 1.103e-09
 20.34657   -210.4 1.137e+04 9.559e-10
 20.36612   -211.2 1.111e+04 8.425e-10
 20.38568   -211.9 1.090e+04 7.629e-10
 20.40523   -212.5 1.078e+04 7.137e-10
 20.42479   -213.0 1.075e+04 6.934e-10
 20.44434   -213.2 1.074e+04 6.897e-10
 20.46390   -213.3 1.074e+04 6.899e-10
 20.48345   -213.3 1.075e+04 6.958e-10
 20.50301   -213.3 1.074e+04 7.039e-10
 20.52256   -213.1 1.072e+04 7.111e-10
 20.54212   -212.8 1.070e+04 7.140e-10
 20.56167   -212.4 1.059e+04 7.096e-10
 20.58123   -212.1 1.049e+04 6.776e-10
 20.59297   -211.7 1.041e+04 6.350e-10
 20.60275   -211.7 1.039e+04 7.106e-10
 20.62034   -211.4 1.038e+04 6.526e-10
 20.63989   -211.2 1.035e+04 6.045e-10
 20.65945   -210.9 1.031e+04 5.662e-10
 20.67900   -210.5 1.028e+04 5.393e-10
 20.69856   -210.1 1.030e+04 5.226e-10
 20.71811   -209.7 1.032e+04 5.167e-10
 20.73767   -209.2 1.033e+04 5.161e-10
 20.75722   -208.8 1.043e+04 5.146e-10
 20.77678   -208.4 1.058e+04 5.236e-10
 20.79633   -208.0 1.071e+04 5.426e-10
 20.81589   -207.6 1.083e+04 5.660e-10
 20.83544   -207.2 1.094e+04 5.894e-10
 20.85500   -206.9 1.103e+04 6.093e-10
 20.87455   -206.5 1.109e+04 6.227e-10
 20.89411   -206.1 1.110e+04 6.281e-10
 20.90416   -205.7 1.111e+04 6.289e-10
 20.91393   -205.7 1.103e+04 6.096e-10
 20.93322   -205.3 1.102e+04 6.062e-10
 20.95277   -204.8 1.095e+04 5.782e-10
 20.97233   -204.4 1.083e+04 5.331e-10
 20.99188   -204.0 1.069e+04 4.823e-10
 21.01251   -203.8 1.054e+04 4.322e-10
 21.03216   -204.5 1.048e+04 4.242e-10
 21.06052   -203.8 1.023e+04 3.611e-10
 21.09963   -202.8 9.945e+03 2.908e-10
 21.13874   -201.6 9.723e+03 2.314e-10
 21.17785   -200.6 9.597e+03 1.875e-10
 21.21696   -199.7 9.526e+03 1.566e-10
 21.25607   -198.9 9.466e+03 1.365e-10
 21.29518   -198.2 9.381e+03 1.258e-10
 21.33429   -197.4 9.296e+03 1.232e-10
 21.37340   -196.5 9.242e+03 1.229e-10
 21.41251   -195.5 9.199e+03 1.229e-10
 21.45162   -194.4 9.166e+03 1.232e-10
 21.49073   -193.3 9.121e+03 1.235e-10
 21.52984   -192.0 9.021e+03 1.235e-10
 21.56895   -190.5 8.932e+03 1.187e-10
 21.60806   -188.9 8.844e+03 1.099e-10
 21.64717   -187.3 8.762e+03 9.902e-11
 21.68628   -185.5 8.684e+03 8.931e-11
 21.72539   -183.6 8.619e+03 8.280e-11
 21.76450   -181.7 8.622e+03 7.968e-11
 21.80361   -179.7 8.629e+03 7.893e-11
 21.84272   -178.0 8.694e+03 7.899e-11
 21.87104   -176.4 8.872e+03 8.693e-11
 21.89059   -177.1 8.881e+03 9.079e-11
 21.92094   -175.7 8.984e+03 1.249e-10
 21.96005   -174.2 9.133e+03 1.770e-10
 21.99916   -172.7 9.347e+03 2.466e-10
 22.03827   -171.1 9.604e+03 3.290e-10
 22.07738   -169.7 9.864e+03 4.117e-10
 22.11649   -168.6 1.008e+04 4.782e-10
 22.15560   -167.8 1.022e+04 5.250e-10
 22.19471   -167.2 1.027e+04 5.619e-10
 22.23382   -167.0 1.027e+04 5.712e-10
 22.27293   -166.8 1.021e+04 5.582e-10
 22.31204   -166.8 1.011e+04 5.296e-10
 22.35115   -167.0 9.971e+03 4.867e-10
 22.39026   -167.3 9.812e+03 4.359e-10
 22.42937   -167.7 9.638e+03 3.849e-10
 22.46848   -168.0 9.489e+03 3.434e-10
 22.50759   -168.3 9.393e+03 3.152e-10
 22.54670   -168.6 9.290e+03 2.930e-10
 22.58581   -168.9 9.225e+03 2.794e-10
 22.62492   -169.0 9.165e+03 2.681e-10
 22.66404   -169.0 9.087e+03 2.535e-10
 22.70315   -168.5 9.016e+03 2.359e-10
 22.72947   -167.6 9.033e+03 2.241e-10
 22.74903   -167.1 9.085e+03 2.047e-10
 22.78137   -166.8 9.109e+03 2.039e-10
 22.81060   -166.8 9.258e+03 2.106e-10
 22.83006   -167.6 9.721e+03 2.505e-10
 22.84961   -168.7 1.045e+04 3.617e-10
 22.86917   -169.9 1.129e+04 6.079e-10
 22.88872   -170.8 1.204e+04 1.026e-09
 22.90828   -171.1 1.264e+04 1.555e-09
 22.92783   -171.3 1.307e+04 2.066e-09
 22.94739   -171.7 1.325e+04 2.348e-09
 22.96694   -172.2 1.327e+04 2.393e-09
 22.98282   -172.8 1.318e+04 2.384e-09
 22.99260   -172.8 1.298e+04 2.189e-09
 23.00605   -173.2 1.262e+04 1.895e-09
 23.02561   -173.5 1.229e+04 1.580e-09
 23.04516   -173.9 1.204e+04 1.326e-09
 23.06472   -174.3 1.190e+04 1.142e-09
 23.08427   -174.7 1.182e+04 1.013e-09
 23.10383   -175.0 1.173e+04 9.165e-10
 23.12338   -175.3 1.158e+04 8.378e-10
 23.14294   -175.4 1.139e+04 7.667e-10
 23.15850   -175.4 1.117e+04 7.019e-10
 23.16827   -175.3 1.094e+04 6.390e-10
 23.18205   -175.3 1.080e+04 5.932e-10
 23.20160   -175.1 1.066e+04 5.581e-10
 23.22116   -174.8 1.058e+04 5.360e-10
 23.24071   -174.4 1.060e+04 5.258e-10
 23.26027   -174.0 1.062e+04 5.247e-10
 23.27982   -173.8 1.068e+04 5.251e-10
 23.29938   -173.5 1.080e+04 5.292e-10
 23.31893   -173.1 1.088e+04 5.444e-10
 23.33849   -172.7 1.094e+04 5.683e-10
 23.35804   -172.3 1.098e+04 5.964e-10
 23.37760   -171.9 1.102e+04 6.287e-10
 23.39715   -171.3 1.107e+04 6.626e-10
 23.41671   -170.7 1.112e+04 6.970e-10
 23.43626   -170.1 1.116e+04 7.309e-10
 23.45582   -169.4 1.120e+04 7.639e-10
 23.47537   -168.7 1.122e+04 7.957e-10
 23.49493   -168.0 1.125e+04 8.287e-10
 23.51448   -167.3 1.129e+04 8.666e-10
 23.53404   -166.6 1.137e+04 9.141e-10
 23.55359   -166.0 1.150e+04 9.800e-10
 23.57315   -165.6 1.172e+04 1.078e-09
 23.58771   -165.5 1.202e+04 1.229e-09
 23.59749   -165.0 1.162e+04 9.502e-10
 23.61226   -164.8 1.194e+04 1.033e-09
 23.63181   -164.8 1.232e+04 1.159e-09
 23.65137   -165.0 1.270e+04 1.350e-09
 23.67092   -165.5 1.300e+04 1.634e-09
 23.69048   -166.2 1.318e+04 2.009e-09
 23.71003   -166.7 1.327e+04 2.447e-09
 23.72959   -167.1 1.332e+04 2.873e-09
 23.74914   -167.4 1.337e+04 3.194e-09
 23.76870   -167.5 1.342e+04 3.312e-09
 23.78825   -167.6 1.347e+04 3.305e-09
 23.80781   -168.0 1.347e+04 2.843e-09
 23.82736   -168.6 1.341e+04 2.164e-09
 23.84692   -169.4 1.318e+04 1.454e-09
 23.86647   -170.5 1.282e+04 9.039e-10
 23.88603   -171.6 1.237e+04 5.671e-10
 23.90558   -172.4 1.192e+04 3.976e-10
 23.92514   -172.8 1.158e+04 3.410e-10
 23.94469   -172.8 1.148e+04 3.313e-10
 23.96425   -172.5 1.145e+04 3.381e-10
 23.99368   -172.1 1.150e+04 3.656e-10
 24.03289   -171.1 1.160e+04 4.117e-10
 24.07200   -170.0 1.170e+04 4.571e-10
 24.11111   -168.8 1.174e+04 4.793e-10
 24.15022   -167.6 1.174e+04 4.947e-10
 24.18933   -166.3 1.172e+04 5.162e-10
 24.21856   -165.8 1.170e+04 6.157e-10
 24.23802   -165.1 1.168e+04 6.415e-10
 24.25758   -164.6 1.168e+04 6.749e-10
 24.27713   -164.0 1.168e+04 7.179e-10
 24.29669   -163.5 1.173e+04 7.763e-10
 24.31624   -162.9 1.184e+04 8.572e-10
 24.33580   -162.5 1.200e+04 9.811e-10
 24.35535   -162.1 1.222e+04 1.156e-09
 24.37491   -162.1 1.247e+04 1.413e-09
 24.39446   -162.1 1.279e+04 1.791e-09
 24.41402   -162.1 1.320e+04 2.336e-09
 24.43357   -162.3 1.370e+04 3.049e-09
 24.44615   -162.5 1.420e+04 3.820e-09
 24.45592   -163.4 1.430e+04 3.763e-09
 24.47268   -164.1 1.452e+04 4.102e-09
 24.49224   -164.8 1.455e+04 4.193e-09
 24.51179   -165.3 1.438e+04 3.899e-09
 24.53135   -165.4 1.391e+04 3.007e-09
 24.55090   -165.4 1.331e+04 2.124e-09
 24.57046   -165.5 1.270e+04 1.446e-09
 24.59001   -165.4 1.212e+04 9.788e-10
 24.60957   -164.9 1.167e+04 6.928e-10
 24.62912   -164.3 1.146e+04 5.611e-10
 24.65855   -163.8 1.141e+04 4.988e-10
 24.69776   -162.7 1.120e+04 4.247e-10
 24.73687   -160.6 1.092e+04 3.591e-10
 24.77598   -158.4 1.071e+04 3.115e-10
 24.81509   -156.2 1.062e+04 2.769e-10
 24.85420   -153.9 1.061e+04 2.520e-10
 24.89331   -151.6 1.066e+04 2.346e-10
 24.93242   -149.4 1.071e+04 2.217e-10
 24.97153   -147.3 1.075e+04 2.111e-10
 25.01064   -145.3 1.076e+04 2.047e-10
 25.04975   -143.3 1.076e+04 1.982e-10
 25.07146   -141.5 1.076e+04 1.948e-10
 25.09101   -141.9 1.073e+04 1.775e-10
 25.12797   -140.3 1.077e+04 1.788e-10
 25.16708   -139.2 1.103e+04 2.227e-10
 25.20619   -138.3 1.128e+04 3.246e-10
 25.24530   -137.4 1.150e+04 4.692e-10
 25.28441   -136.8 1.169e+04 6.226e-10
 25.30478   -136.3 1.178e+04 7.422e-10
 25.32433   -136.4 1.180e+04 7.543e-10
 25.36263   -136.1 1.180e+04 7.701e-10
 25.40174   -135.7 1.167e+04 7.554e-10
 25.44085   -135.2 1.136e+04 6.427e-10
 25.47996   -134.6 1.102e+04 4.715e-10
 25.51907   -133.9 1.067e+04 3.140e-10
 25.55818   -133.0 1.032e+04 2.012e-10
 25.59729   -132.0 1.003e+04 1.347e-10
 25.63640   -131.1 9.850e+03 1.034e-10
 25.67551   -130.2 9.805e+03 9.434e-11
 25.71462   -129.7 9.806e+03 9.205e-11
 25.75373   -129.6 9.880e+03 9.687e-11
 25.79284   -129.8 9.881e+03 1.281e-10
 25.83195   -130.0 9.857e+03 1.754e-10
 25.87106   -130.4 9.855e+03 2.182e-10
 25.91017   -131.0 9.838e+03 2.352e-10
 25.94928   -131.7 9.823e+03 2.351e-10
 25.98839   -132.2 9.715e+03 2.300e-10
 26.02750   -132.5 9.603e+03 2.209e-10
 26.06661   -132.6 9.574e+03 2.159e-10
 26.10572   -132.7 9.575e+03 2.184e-10
 26.14366   -132.4 9.517e+03 2.309e-10
 26.16321   -133.2 9.526e+03 2.793e-10
 26.18394   -132.5 9.447e+03 2.844e-10
 26.22305   -131.6 9.336e+03 2.829e-10
 26.26216   -130.7 9.249e+03 2.720e-10
 26.30127   -129.7 9.171e+03 2.601e-10
 26.34038   -128.7 9.031e+03 2.446e-10
 26.37949   -127.5 8.875e+03 2.206e-10
 26.41860   -126.3 8.713e+03 1.926e-10
 26.45771   -125.0 8.557e+03 1.642e-10
 26.49682   -123.6 8.414e+03 1.388e-10
 26.53593   -122.1 8.292e+03 1.180e-10
 26.57504   -120.5 8.198e+03 1.016e-10
 26.61415   -118.9 8.128e+03 8.828e-11
 26.65326   -117.3 8.079e+03 7.680e-11
 26.69237   -115.6 8.050e+03 6.668e-11
 26.73148   -114.0 8.037e+03 5.792e-11
 26.77059   -112.4 8.029e+03 5.076e-11
 26.80970   -110.8 8.008e+03 4.544e-11
 26.84881   -109.1 7.985e+03 4.169e-11
 26.88792   -107.4 7.980e+03 3.954e-11
 26.92703   -105.7 7.987e+03 3.884e-11
 26.96614   -104.0 7.995e+03 3.864e-11
 27.00209   -102.4 8.105e+03 3.974e-11
 27.02165   -102.5 7.934e+03 3.757e-11
 27.04436   -101.0 8.024e+03 4.173e-11
 27.08347    -99.5 8.067e+03 5.010e-11
 27.12258    -97.9 8.112e+03 6.093e-11
 27.15012    -96.3 8.183e+03 7.219e-11
 27.16968    -96.2 8.260e+03 8.706e-11
 27.20080    -94.9 8.386e+03 1.003e-10
 27.23991    -94.0 8.554e+03 1.162e-10
 27.27902    -93.4 8.762e+03 1.410e-10
 27.31813    -93.1 8.990e+03 1.787e-10
 27.35724    -92.9 9.204e+03 2.206e-10
 27.39635    -92.8 9.341e+03 2.415e-10
 27.43546    -92.7 9.364e+03 2.402e-10
 27.47457    -92.4 9.352e+03 1.902e-10
 27.51368    -92.2 9.286e+03 1.270e-10
 27.55279    -92.0 9.190e+03 9.116e-11
 27.59190    -91.7 9.074e+03 7.694e-11
 27.63101    -91.0 9.036e+03 7.464e-11
 27.67012    -90.0 9.045e+03 7.522e-11
 27.70923    -88.9 9.090e+03 7.769e-11
 27.74834    -87.7 9.094e+03 7.825e-11
 27.78745    -86.3 9.079e+03 7.413e-11
 27.82657    -84.9 9.094e+03 6.327e-11
 27.86052    -83.5 9.141e+03 5.234e-11
 27.88008    -83.5 9.093e+03 3.461e-11
 27.90479    -82.1 9.126e+03 3.154e-11
 27.94390    -80.8 9.136e+03 3.109e-11
 27.98301    -79.7 9.277e+03 3.366e-11
 28.02212    -78.5 9.310e+03 4.606e-11
 28.06123    -77.1 9.322e+03 6.435e-11
 28.10034    -75.6 9.390e+03 8.306e-11
 28.13945    -74.1 9.494e+03 9.601e-11
 28.17856    -72.8 9.576e+03 1.018e-10
 28.21767    -71.6 9.605e+03 1.035e-10
 28.25678    -70.3 9.611e+03 1.039e-10
 28.29589    -69.0 9.554e+03 1.018e-10
 28.33500    -67.7 9.521e+03 9.266e-11
 28.37411    -66.4 9.512e+03 8.073e-11
 28.41322    -65.3 9.468e+03 7.221e-11
 28.45233    -64.3 9.437e+03 7.015e-11
 28.49144    -63.4 9.383e+03 7.345e-11
 28.53055    -62.7 9.413e+03 9.137e-11
 28.56966    -61.8 9.551e+03 1.142e-10
 28.60877    -61.1 9.762e+03 1.372e-10
 28.64788    -60.7 9.976e+03 1.635e-10
 28.68699    -60.4 1.013e+04 2.018e-10
 28.71896    -60.1 1.024e+04 2.577e-10
 28.73851    -60.3 1.029e+04 4.635e-10
 28.76521    -60.0 1.041e+04 5.327e-10
 28.80432    -59.8 1.050e+04 5.825e-10
 28.84343    -59.7 1.050e+04 6.233e-10
 28.88254    -59.6 1.042e+04 6.699e-10
 28.92165    -59.2 1.031e+04 6.951e-10
 28.96076    -58.5 1.004e+04 6.876e-10
 28.99987    -57.5 9.665e+03 5.578e-10
 29.03898    -56.3 9.342e+03 3.670e-10
 29.07809    -55.4 9.268e+03 2.237e-10
 29.11720    -55.1 9.457e+03 1.542e-10
 29.15631    -55.1 9.584e+03 1.371e-10
 29.19542    -55.3 9.773e+03 1.377e-10
 29.22879    -56.4 1.011e+04 1.972e-10
 29.24834    -56.2 1.003e+04 2.021e-10
 29.27364    -56.8 1.021e+04 3.398e-10
 29.31275    -56.9 1.038e+04 4.676e-10
 29.35186    -57.0 1.042e+04 4.993e-10
 29.39097    -56.9 1.027e+04 4.178e-10
 29.43008    -56.5 1.003e+04 2.301e-10
 29.46919    -56.3 9.870e+03 1.184e-10
 29.50830    -56.3 9.695e+03 7.721e-11
 29.54741    -55.7 9.561e+03 6.694e-11
 29.57739    -54.4 9.536e+03 6.533e-11
 29.59695    -54.6 9.494e+03 6.471e-11
 29.62563    -53.2 9.491e+03 6.502e-11
 29.66474    -51.7 9.512e+03 6.912e-11
 29.70385    -50.1 9.523e+03 7.393e-11
 29.74296    -48.4 9.551e+03 7.719e-11
 29.78207    -46.8 9.601e+03 7.995e-11
 29.82118    -45.3 9.665e+03 8.635e-11
 29.86029    -43.8 9.695e+03 1.016e-10
 29.89940    -42.2 9.731e+03 1.275e-10
 29.93851    -40.4 9.840e+03 1.593e-10
 29.97762    -38.8 1.005e+04 1.940e-10
 30.01673    -37.9 1.036e+04 2.584e-10
 30.05584    -37.7 1.075e+04 4.384e-10
 30.09495    -37.3 1.133e+04 8.537e-10
 30.13406    -36.2 1.202e+04 1.471e-09
 30.17317    -35.5 1.248e+04 1.771e-09
 30.21228    -35.5 1.248e+04 1.521e-09
 30.25139    -35.8 1.191e+04 8.141e-10
 30.29050    -36.0 1.164e+04 5.057e-10
 30.32961    -35.5 1.182e+04 3.751e-10
 30.36872    -34.7 1.216e+04 2.544e-10
 30.40783    -34.2 1.188e+04 1.684e-10
 30.43583    -33.4 1.158e+04 1.474e-10
 30.45538    -32.9 1.100e+04 1.207e-10
 30.48605    -31.3 1.102e+04 1.192e-10
 30.52516    -29.9 1.109e+04 1.305e-10
 30.56427    -28.4 1.102e+04 1.521e-10
 30.60338    -26.7 1.097e+04 1.802e-10
 30.64249    -24.8 1.093e+04 2.079e-10
 30.68160    -22.9 1.085e+04 2.262e-10
 30.72071    -20.8 1.077e+04 2.217e-10
 30.75982    -18.7 1.077e+04 1.951e-10
 30.79893    -17.0 1.092e+04 1.536e-10
 30.83804    -15.8 1.126e+04 1.213e-10
 30.87715    -15.1 1.146e+04 1.153e-10
 30.91626    -14.6 1.141e+04 1.581e-10
 30.95537    -13.1 1.110e+04 2.438e-10
 30.99448    -10.9 1.110e+04 2.851e-10
 31.03359     -9.0 1.104e+04 2.594e-10
 31.07270     -7.1 1.122e+04 1.798e-10
 31.11181     -5.9 1.135e+04 1.250e-10
 31.15092     -4.8 1.109e+04 1.011e-10
 31.19003     -3.4 1.084e+04 9.524e-11
 31.22914     -2.2 1.072e+04 1.131e-10
 31.26825     -1.6 1.070e+04 1.909e-10
 31.29426     -0.3 1.094e+04 3.733e-10
 31.31382     -0.7 1.092e+04 4.223e-10
 31.34647      2.3 1.082e+04 5.807e-10
 31.38558      3.8 1.100e+04 5.270e-10
 31.42469      4.9 1.092e+04 3.542e-10
 31.46380      5.5 1.044e+04 2.356e-10
 31.50291      6.8 9.940e+03 1.568e-10
 31.54202      8.7 9.780e+03 1.019e-10
 31.58113     10.1 9.904e+03 6.670e-11
 31.62024     11.3 9.832e+03 5.373e-11
 31.65935     13.0 9.614e+03 5.589e-11
 31.69846     14.8 9.497e+03 6.355e-11
 31.73757     16.7 9.541e+03 7.798e-11
 31.77668     18.1 9.624e+03 1.105e-10
 31.81579     19.6 9.709e+03 1.896e-10
 31.85490     21.5 9.919e+03 3.077e-10
 31.89401     23.1 1.015e+04 3.568e-10
 31.93312     24.6 1.009e+04 3.232e-10
 31.97223     25.5 9.973e+03 2.317e-10
 32.01134     25.6 1.006e+04 2.097e-10
 32.05045     24.0 1.053e+04 2.806e-10
 32.08956     21.4 1.160e+04 8.437e-10
 32.12867     20.8 1.246e+04 2.028e-09
 32.15270     19.7 1.261e+04 2.100e-09
 32.17225     19.7 1.283e+04 2.338e-09
 32.20689     18.4 1.230e+04 1.820e-09
 32.24600     17.6 1.129e+04 1.015e-09
 32.28511     17.3 1.043e+04 5.263e-10
 32.32422     17.0 9.989e+03 3.201e-10
 32.36333     17.7 9.738e+03 2.864e-10
 32.40244     19.0 9.799e+03 3.025e-10
 32.44155     20.7 9.939e+03 3.328e-10
 32.48066     22.4 1.011e+04 3.350e-10
 32.51977     23.8 1.022e+04 3.179e-10
 32.55888     24.9 1.029e+04 3.067e-10
 32.59799     25.9 1.027e+04 3.209e-10
 32.63710     27.1 1.021e+04 3.716e-10
 32.67621     28.6 1.023e+04 4.199e-10
 32.71532     30.2 1.024e+04 4.444e-10
 32.75443     31.6 1.029e+04 4.113e-10
 32.79354     32.7 1.032e+04 3.870e-10
 32.83265     33.7 1.025e+04 3.767e-10
 32.87176     34.8 1.007e+04 3.506e-10
 32.91087     36.3 9.826e+03 2.959e-10
 32.94998     37.9 9.602e+03 2.295e-10
 32.98910     39.4 9.478e+03 1.715e-10
 33.01113     40.7 9.409e+03 1.359e-10
 33.03069     40.6 9.357e+03 1.285e-10
 33.06732     42.1 9.328e+03 1.270e-10
 33.10643     43.7 9.328e+03 1.296e-10
 33.14554     45.3 9.329e+03 1.348e-10
 33.18465     46.8 9.304e+03 1.434e-10
 33.22376     48.4 9.281e+03 1.590e-10
 33.26287     50.0 9.312e+03 1.791e-10
 33.30198     51.7 9.376e+03 1.911e-10
 33.34109     53.2 9.409e+03 1.929e-10
 33.38020     54.8 9.420e+03 1.902e-10
 33.40567     56.3 9.453e+03 1.896e-10
 33.42522     56.6 9.434e+03 1.971e-10
 33.45842     58.2 9.455e+03 2.009e-10
 33.49753     59.8 9.469e+03 2.144e-10
 33.53664     61.4 9.535e+03 2.399e-10
 33.57575     63.0 9.662e+03 2.821e-10
 33.61486     64.6 9.814e+03 3.407e-10
 33.65397     66.1 9.990e+03 4.159e-10
 33.69308     67.5 1.018e+04 5.041e-10
 33.73219     69.1 1.042e+04 6.025e-10
 33.76142     69.5 1.060e+04 6.758e-10
 33.78088     69.9 1.067e+04 7.052e-10
 33.80043     70.5 1.085e+04 7.708e-10
 33.81999     71.0 1.094e+04 8.074e-10
 33.83954     71.2 1.105e+04 8.472e-10
 33.85910     71.6 1.112e+04 8.843e-10
 33.86937     72.1 1.120e+04 9.206e-10
 33.87915     71.9 1.113e+04 8.696e-10
 33.89821     72.3 1.121e+04 8.809e-10
 33.91776     72.7 1.127e+04 8.959e-10
 33.93732     73.3 1.133e+04 9.084e-10
 33.95687     73.9 1.142e+04 9.217e-10
 33.97643     74.3 1.148e+04 9.311e-10
 33.99598     74.9 1.153e+04 9.372e-10
 34.01554     75.5 1.156e+04 9.306e-10
 34.03509     76.1 1.159e+04 9.182e-10
 34.05465     76.8 1.162e+04 8.988e-10
 34.07420     77.5 1.165e+04 8.749e-10
 34.09376     78.2 1.169e+04 8.673e-10
 34.11331     79.0 1.177e+04 8.744e-10
 34.13287     79.7 1.190e+04 8.979e-10
 34.15242     80.3 1.210e+04 9.443e-10
 34.17198     80.7 1.235e+04 1.030e-09
 34.19153     80.9 1.261e+04 1.184e-09
 34.21109     81.0 1.281e+04 1.440e-09
 34.23064     81.2 1.298e+04 1.845e-09
 34.25020     81.5 1.314e+04 2.404e-09
 34.26975     82.0 1.336e+04 3.034e-09
 34.28881     82.7 1.364e+04 3.555e-09
 34.29859     82.6 1.374e+04 3.685e-09
 34.30886     83.2 1.397e+04 3.804e-09
 34.32842     83.6 1.404e+04 3.737e-09
 34.34797     83.8 1.418e+04 3.457e-09
 34.36753     83.7 1.424e+04 3.045e-09
 34.38708     83.4 1.419e+04 2.636e-09
 34.40664     82.9 1.398e+04 2.224e-09
 34.42620     82.3 1.350e+04 1.875e-09
 34.44481     81.8 1.303e+04 1.577e-09
 34.45458     81.9 1.333e+04 1.985e-09
 34.46531     81.3 1.284e+04 1.600e-09
 34.48486     80.8 1.243e+04 1.274e-09
 34.50442     80.3 1.214e+04 1.022e-09
 34.52397     79.7 1.198e+04 8.388e-10
 34.54353     78.9 1.181e+04 7.285e-10
 34.56308     78.0 1.158e+04 7.109e-10
 34.58264     77.2 1.157e+04 7.114e-10
 34.60219     76.2 1.156e+04 7.430e-10
 34.62175     74.8 1.167e+04 8.586e-10
 34.64130     73.1 1.200e+04 1.087e-09
 34.66086     71.2 1.250e+04 1.458e-09
 34.68041     69.3 1.307e+04 2.007e-09
 34.69997     67.5 1.368e+04 2.605e-09
 34.71803     65.5 1.424e+04 3.155e-09
 34.72780     63.9 1.461e+04 4.345e-09
 34.73908     61.4 1.502e+04 5.092e-09
 34.75863     58.4 1.536e+04 6.006e-09
 34.77819     55.6 1.546e+04 6.912e-09
 34.79774     53.5 1.527e+04 7.112e-09
 34.81730     52.3 1.486e+04 6.486e-09
 34.83685     51.8 1.418e+04 4.979e-09
 34.85641     51.4 1.332e+04 3.219e-09
 34.87596     51.0 1.228e+04 1.820e-09
 34.90539     50.5 1.137e+04 9.296e-10
 34.94460     48.9 9.472e+03 2.748e-10
 34.98371     47.9 8.513e+03 1.221e-10
 35.02282     48.6 8.196e+03 1.122e-10
 35.06193     50.7 8.196e+03 1.120e-10
 35.10104     53.0 8.290e+03 1.169e-10
 35.14015     55.2 8.423e+03 1.335e-10
 35.17926     57.2 8.583e+03 1.649e-10
 35.21837     59.3 8.788e+03 2.112e-10
 35.25748     61.2 9.039e+03 2.685e-10
 35.29659     63.0 9.298e+03 3.254e-10
 35.33570     64.6 9.549e+03 3.740e-10
 35.37481     65.7 9.806e+03 4.261e-10
 35.41392     66.6 1.010e+04 5.160e-10
 35.45303     67.4 1.049e+04 6.718e-10
 35.48433     68.2 1.091e+04 8.543e-10
 35.50389     67.8 1.076e+04 8.080e-10
 35.53125     68.4 1.087e+04 8.379e-10
 35.56688     69.1 1.080e+04 7.879e-10
 35.58643     69.6 1.073e+04 7.874e-10
 35.60947     70.3 1.054e+04 6.355e-10
 35.64858     71.2 1.023e+04 4.485e-10
 35.68769     71.9 9.881e+03 3.065e-10
 35.72680     72.5 9.515e+03 2.126e-10
 35.76591     73.2 9.200e+03 1.435e-10
 35.80502     73.8 8.936e+03 9.288e-11
 35.84413     74.3 8.699e+03 6.189e-11
 35.88324     75.0 8.436e+03 5.051e-11
 35.92235     76.2 8.388e+03 5.058e-11
 35.96146     77.6 8.388e+03 5.273e-11
 36.00057     79.2 8.442e+03 6.163e-11
 36.03968     80.9 8.519e+03 8.022e-11
 36.07879     82.5 8.610e+03 1.094e-10
 36.11790     84.1 8.728e+03 1.508e-10
 36.15701     85.7 8.875e+03 2.042e-10
 36.19612     87.2 9.020e+03 2.617e-10
 36.23523     88.5 9.098e+03 2.946e-10
 36.27434     89.6 9.092e+03 2.932e-10
 36.31345     90.5 9.013e+03 2.765e-10
 36.35256     91.4 8.840e+03 2.374e-10
 36.39167     92.3 8.624e+03 1.924e-10
 36.42531     93.2 8.414e+03 1.548e-10
 36.44487     93.1 8.279e+03 1.254e-10
 36.46989     94.1 8.127e+03 1.051e-10
 36.50900     95.1 8.014e+03 9.617e-11
 36.54811     96.3 7.962e+03 9.537e-11
 36.58722     97.5 7.958e+03 9.600e-11
 36.62633     98.6 7.960e+03 9.816e-11
 36.66544     99.7 7.986e+03 1.027e-10
 36.70455    100.5 8.048e+03 1.124e-10
 36.74366    101.2 8.160e+03 1.316e-10
 36.78277    101.8 8.324e+03 1.650e-10
 36.82188    102.3 8.528e+03 2.150e-10
 36.86099    102.8 8.758e+03 2.762e-10
 36.90010    103.1 8.960e+03 3.183e-10
 36.93921    103.0 9.040e+03 3.212e-10
 36.97832    102.9 9.041e+03 3.124e-10
 37.01743    102.8 8.974e+03 2.799e-10
 37.05654    102.9 8.816e+03 2.352e-10
 37.09565    103.0 8.599e+03 1.900e-10
 37.13476    103.5 8.352e+03 1.487e-10
 37.17387    104.3 8.117e+03 1.112e-10
 37.21298    105.3 7.918e+03 8.111e-11
 37.25209    106.4 7.767e+03 6.327e-11
 37.28375    107.9 7.719e+03 6.042e-11
 37.30330    107.5 7.671e+03 5.410e-11
 37.33031    109.3 7.668e+03 5.459e-11
 37.36942    111.2 7.673e+03 5.809e-11
 37.40853    113.1 7.743e+03 6.957e-11
 37.44764    115.0 7.910e+03 9.199e-11
 37.48675    116.9 8.200e+03 1.280e-10
 37.52586    118.8 8.636e+03 1.774e-10
 37.56300    120.4 9.153e+03 2.354e-10
 37.58255    122.0 8.824e+03 2.064e-10
 37.60408    123.3 9.212e+03 2.591e-10
 37.63332    123.6 9.479e+03 2.925e-10
 37.65278    123.4 1.010e+04 3.717e-10
 37.67233    122.8 1.097e+04 5.826e-10
 37.69189    121.9 1.184e+04 1.047e-09
 37.71144    121.3 1.263e+04 1.931e-09
 37.72255    121.3 1.338e+04 3.307e-09
 37.73232    121.2 1.370e+04 4.280e-09
 37.75055    121.5 1.434e+04 5.403e-09
 37.77011    121.4 1.452e+04 5.490e-09
 37.78966    121.2 1.453e+04 5.077e-09
 37.80922    120.5 1.438e+04 3.848e-09
 37.82877    118.9 1.393e+04 2.597e-09
 37.84833    116.9 1.310e+04 1.826e-09
 37.86788    115.2 1.250e+04 1.540e-09
 37.88744    114.4 1.218e+04 1.450e-09
 37.91687    114.0 1.223e+04 1.434e-09
 37.95607    112.9 1.196e+04 1.317e-09
 37.99518    112.9 1.173e+04 1.173e-09
 38.03429    113.3 1.145e+04 9.297e-10
 38.06353    113.5 1.122e+04 7.575e-10
 38.08299    113.7 1.109e+04 6.634e-10
 38.11242    114.1 1.102e+04 5.447e-10
 38.14218    114.7 1.087e+04 4.160e-10
 38.16174    114.4 1.075e+04 3.601e-10
 38.19074    114.8 1.066e+04 3.084e-10
 38.22985    115.4 1.059e+04 2.871e-10
 38.26896    116.1 1.050e+04 2.760e-10
 38.30807    116.9 1.042e+04 2.690e-10
 38.34718    117.9 1.033e+04 2.576e-10
 38.38629    119.1 1.025e+04 2.379e-10
 38.42540    120.3 1.019e+04 2.140e-10
 38.46451    121.5 1.017e+04 1.958e-10
 38.50362    122.8 1.019e+04 1.952e-10
 38.54273    124.0 1.021e+04 2.011e-10
 38.58184    125.3 1.031e+04 2.211e-10
 38.62095    126.5 1.040e+04 2.607e-10
 38.66006    127.7 1.054e+04 3.251e-10
 38.69917    128.9 1.072e+04 4.160e-10
 38.73828    130.1 1.095e+04 5.227e-10
 38.77739    131.2 1.125e+04 6.042e-10
 38.81650    132.0 1.139e+04 6.132e-10
 38.85561    132.8 1.141e+04 5.946e-10
 38.89472    133.6 1.140e+04 5.208e-10
 38.93383    134.6 1.126e+04 4.079e-10
 38.97294    135.7 1.108e+04 2.919e-10
 39.00062    136.8 1.091e+04 2.031e-10
 39.02017    136.6 1.083e+04 2.421e-10
 39.05116    137.9 1.068e+04 1.867e-10
 39.09027    139.3 1.058e+04 1.564e-10
 39.12938    140.9 1.055e+04 1.424e-10
 39.16849    142.6 1.055e+04 1.347e-10
 39.20760    144.4 1.061e+04 1.318e-10
 39.24671    146.3 1.063e+04 1.323e-10
 39.28582    148.1 1.066e+04 1.339e-10
 39.32493    149.9 1.069e+04 1.366e-10
 39.36404    151.7 1.071e+04 1.407e-10
 39.40315    153.5 1.073e+04 1.464e-10
 39.44226    155.2 1.078e+04 1.534e-10
 39.48137    156.9 1.083e+04 1.619e-10
 39.52048    158.7 1.088e+04 1.708e-10
 39.55959    160.4 1.093e+04 1.792e-10
 39.59870    162.1 1.099e+04 1.879e-10
 39.63781    163.9 1.106e+04 2.029e-10
 39.66122    165.6 1.114e+04 2.305e-10
 39.68077    165.6 1.140e+04 4.320e-10
 39.71603    167.5 1.167e+04 5.440e-10
 39.74526    168.1 1.174e+04 5.714e-10
 39.76472    168.6 1.180e+04 5.903e-10
 39.78428    169.1 1.187e+04 6.332e-10
 39.80383    169.6 1.198e+04 7.060e-10
 39.82339    170.0 1.208e+04 7.899e-10
 39.84294    170.4 1.217e+04 8.734e-10
 39.85885    170.8 1.225e+04 9.509e-10
 39.86863    171.2 1.238e+04 1.072e-09
 39.88205    171.5 1.250e+04 1.180e-09
 39.90161    171.6 1.262e+04 1.283e-09
 39.92116    171.6 1.275e+04 1.391e-09
 39.94072    171.5 1.294e+04 1.518e-09
 39.96027    171.1 1.316e+04 1.688e-09
 39.97983    170.4 1.337e+04 1.933e-09
 39.99938    169.6 1.355e+04 2.270e-09
 40.01894    168.8 1.371e+04 2.661e-09
 40.03849    168.1 1.385e+04 3.038e-09
 40.05805    167.5 1.397e+04 3.233e-09
 40.07760    166.9 1.397e+04 3.216e-09
 40.09716    166.2 1.394e+04 3.111e-09
 40.11671    165.3 1.375e+04 2.756e-09
 40.13627    164.6 1.336e+04 2.229e-09
 40.15582    164.2 1.296e+04 1.818e-09
 40.18525    164.0 1.243e+04 1.231e-09
 40.22446    163.3 1.157e+04 7.418e-10
 40.26357    163.0 1.093e+04 5.913e-10
 40.30268    163.2 1.086e+04 5.882e-10
 40.34179    164.0 1.084e+04 6.042e-10
 40.38090    164.9 1.084e+04 6.664e-10
 40.42001    165.6 1.084e+04 7.197e-10
 40.45912    166.0 1.082e+04 7.171e-10
 40.49823    166.3 1.068e+04 6.754e-10
 40.53734    166.9 1.035e+04 5.432e-10
 40.57645    167.7 9.952e+03 3.814e-10
 40.61556    168.8 9.596e+03 2.537e-10
 40.65467    169.9 9.330e+03 1.712e-10
 40.69378    171.1 9.054e+03 1.311e-10
 40.71748    172.4 8.806e+03 1.237e-10
 40.73704    172.3 8.799e+03 1.239e-10
 40.77200    174.0 8.736e+03 1.228e-10
 40.81111    175.8 8.687e+03 1.219e-10
 40.85022    177.7 8.667e+03 1.197e-10
 40.88933    179.6 8.667e+03 1.169e-10
 40.92844    181.3 8.680e+03 1.141e-10
 40.96755    183.0 8.700e+03 1.109e-10
 41.00666    184.6 8.718e+03 1.072e-10
 41.04577    186.2 8.733e+03 1.031e-10
 41.08488    187.8 8.745e+03 1.005e-10
 41.12399    189.4 8.752e+03 1.002e-10
 41.16310    190.9 8.786e+03 1.016e-10
 41.20221    192.4 8.891e+03 1.102e-10
 41.24132    193.8 9.054e+03 1.356e-10
 41.28043    195.1 9.285e+03 1.865e-10
 41.31954    196.4 9.593e+03 2.683e-10
 41.35865    197.4 9.966e+03 3.637e-10
 41.39776    197.6 1.036e+04 4.107e-10
 41.43687    197.5 1.046e+04 4.072e-10
 41.47598    197.1 1.051e+04 3.890e-10
 41.51509    196.5 1.053e+04 3.347e-10
 41.55420    195.9 1.042e+04 2.685e-10
 41.57592    195.6 1.024e+04 2.220e-10
 41.59547    196.0 1.021e+04 2.254e-10
 41.63242    196.0 1.010e+04 2.201e-10
 41.67153    196.5 1.010e+04 2.200e-10
 41.71064    197.3 1.010e+04 2.257e-10
 41.73988    198.4 1.017e+04 2.492e-10
 41.75943    198.2 1.022e+04 2.565e-10
 41.78886    199.3 1.033e+04 2.939e-10
 41.82797    200.4 1.052e+04 3.484e-10
 41.85721    200.5 1.061e+04 3.735e-10
 41.87666    200.8 1.072e+04 4.066e-10
 41.89622    201.0 1.088e+04 4.723e-10
 41.91577    201.1 1.106e+04 5.707e-10
 41.93533    201.1 1.126e+04 6.946e-10
 41.95488    201.1 1.149e+04 8.378e-10
 41.97444    200.9 1.174e+04 9.885e-10
 41.99399    200.5 1.196e+04 1.125e-09
 42.00494    200.0 1.215e+04 1.225e-09
 42.01472    200.9 1.210e+04 1.234e-09
 42.03310    200.3 1.224e+04 1.295e-09
 42.05266    199.5 1.233e+04 1.337e-09
 42.07221    198.7 1.238e+04 1.384e-09
 42.09177    198.0 1.244e+04 1.456e-09
 42.11132    197.3 1.254e+04 1.581e-09
 42.13088    196.8 1.270e+04 1.775e-09
 42.15044    196.3 1.298e+04 2.063e-09
 42.16999    195.7 1.345e+04 2.507e-09
 42.18955    194.9 1.417e+04 3.258e-09
 42.20910    193.9 1.514e+04 4.613e-09
 42.22866    192.8 1.627e+04 6.998e-09
 42.24821    191.8 1.743e+04 1.064e-08
 42.26777    191.1 1.841e+04 1.440e-08
 42.28732    190.2 1.912e+04 1.553e-08
 42.30688    188.7 1.921e+04 1.494e-08
 42.32643    186.9 1.904e+04 1.173e-08
 42.34599    185.0 1.818e+04 6.877e-09
 42.36554    182.7 1.658e+04 3.271e-09
 42.38510    180.1 1.423e+04 1.475e-09
 42.40465    177.4 1.243e+04 7.440e-10
 42.42421    175.8 1.160e+04 5.097e-10
 42.43416    174.9 1.117e+04 3.608e-10
 42.44393    177.3 1.195e+04 8.106e-10
 42.46332    176.8 1.191e+04 6.268e-10
 42.48287    176.4 1.189e+04 5.065e-10
 42.50243    175.8 1.170e+04 4.276e-10
 42.52198    175.1 1.125e+04 4.172e-10
 42.54154    174.2 1.108e+04 4.255e-10
 42.56109    173.5 1.096e+04 4.759e-10
 42.58065    172.7 1.096e+04 6.237e-10
 42.60020    171.7 1.115e+04 8.490e-10
 42.61976    170.8 1.159e+04 1.110e-09
 42.63931    169.8 1.207e+04 1.340e-09
 42.65887    168.6 1.225e+04 1.382e-09
 42.68830    166.5 1.252e+04 1.500e-09
 42.72750    164.7 1.182e+04 9.672e-10
 42.76661    163.2 1.065e+04 4.316e-10
 42.80572    161.6 9.152e+03 1.657e-10
 42.84483    160.8 8.676e+03 1.150e-10
 42.88394    161.0 8.624e+03 1.137e-10
 42.92305    161.8 8.628e+03 1.146e-10
 42.96216    163.0 8.710e+03 1.207e-10
 42.99140    163.8 8.724e+03 1.213e-10
 43.01086    164.7 8.738e+03 1.216e-10
 43.03041    165.0 8.822e+03 1.255e-10
 43.04997    164.3 9.732e+03 1.581e-10
 43.06952    160.3 1.373e+04 3.198e-10
 43.08414    156.8 1.617e+04 5.187e-10
 43.09387    152.3 2.013e+04 1.063e-09
 43.10365    146.1 2.258e+04 4.060e-09
 43.11342    141.4 2.205e+04 1.380e-08
 43.12320    139.1 2.113e+04 3.274e-08
 43.13298    138.3 2.084e+04 5.551e-08
 43.14276    137.4 2.188e+04 6.864e-08
 43.15253    135.3 2.441e+04 6.386e-08
 43.16231    131.0 2.603e+04 5.526e-08
 43.17209    125.2 2.923e+04 3.322e-08
 43.18187    116.8 2.929e+04 1.637e-08
 43.19164    109.7 2.499e+04 9.910e-09
 43.20636    101.8 1.949e+04 7.351e-09
 43.22596     93.4 1.415e+04 4.686e-09
 43.24552     88.8 1.375e+04 2.971e-09
 43.26507     84.6 1.358e+04 1.888e-09
 43.28281     80.5 1.244e+04 1.288e-09
 43.29259     81.8 1.297e+04 1.706e-09
 43.31406     78.0 1.199e+04 1.145e-09
 43.35327     72.6 1.034e+04 5.657e-10
 43.39238     68.5 9.140e+03 3.082e-10
 43.43149     66.0 8.559e+03 2.045e-10
 43.47060     65.2 8.311e+03 1.623e-10
 43.50971     65.1 8.167e+03 1.351e-10
 43.54882     65.1 8.015e+03 1.067e-10
 43.58793     65.4 7.886e+03 8.832e-11
 43.62704     65.9 7.743e+03 7.803e-11
 43.66615     66.8 7.611e+03 7.504e-11
 43.70526     68.1 7.572e+03 7.534e-11
 43.74437     69.6 7.540e+03 7.675e-11
 43.78348     71.2 7.530e+03 7.694e-11
 43.81854     73.0 7.501e+03 7.562e-11
 43.83810     73.4 7.502e+03 7.656e-11
 43.86170     75.2 7.451e+03 7.161e-11
 43.90081     76.9 7.389e+03 6.377e-11
 43.93992     78.7 7.321e+03 5.730e-11
 43.97903     80.4 7.286e+03 5.486e-11
 44.01814     82.3 7.282e+03 5.588e-11
 44.05725     84.1 7.297e+03 6.093e-11
 44.09636     86.1 7.364e+03 7.223e-11
 44.13167     88.2 7.473e+03 8.887e-11
 44.15122     87.7 7.400e+03 7.943e-11
 44.17458     89.8 7.558e+03 9.966e-11
 44.21369     91.9 7.717e+03 1.206e-10
 44.25280     94.0 7.855e+03 1.367e-10
 44.29191     96.0 7.947e+03 1.440e-10
 44.33102     98.0 7.963e+03 1.454e-10
 44.37013     99.9 7.959e+03 1.462e-10
 44.40924    101.9 7.966e+03 1.471e-10
 44.44835    104.0 7.990e+03 1.501e-10
 44.48746    106.0 8.054e+03 1.565e-10
 44.52657    108.1 8.148e+03 1.669e-10
 44.56568    110.1 8.266e+03 1.822e-10
 44.60479    112.0 8.418e+03 2.062e-10
 44.64390    113.8 8.626e+03 2.460e-10
 44.68301    115.5 8.909e+03 3.109e-10
 44.72212    117.2 9.281e+03 4.109e-10
 44.76123    119.1 9.752e+03 5.574e-10
 44.80034    121.0 1.020e+04 7.251e-10
 44.83945    122.6 1.060e+04 8.616e-10
 44.86756    122.9 1.081e+04 9.355e-10
 44.87724    123.1 1.077e+04 9.208e-10
 44.88814    123.4 1.082e+04 9.288e-10
 44.90770    123.8 1.080e+04 9.180e-10
 44.92725    124.4 1.070e+04 8.678e-10
 44.94681    125.2 1.056e+04 7.815e-10
 44.96636    126.1 1.041e+04 6.834e-10
 44.98592    126.8 1.027e+04 5.863e-10
 44.99968    127.4 1.016e+04 5.089e-10
 45.00946    126.8 1.014e+04 4.638e-10
 45.02503    127.3 1.014e+04 4.606e-10
 45.04458    127.8 1.017e+04 4.673e-10
 45.06414    128.1 1.033e+04 5.034e-10
 45.08369    128.3 1.062e+04 6.002e-10
 45.10325    128.4 1.103e+04 7.767e-10
 45.12280    128.4 1.156e+04 1.049e-09
 45.14236    128.5 1.206e+04 1.420e-09
 45.16191    128.6 1.252e+04 1.858e-09
 45.18147    128.6 1.291e+04 2.298e-09
 45.20102    128.6 1.323e+04 2.621e-09
 45.22058    128.5 1.336e+04 2.656e-09
 45.24013    128.1 1.334e+04 2.597e-09
 45.25969    127.7 1.318e+04 2.301e-09
 45.27924    127.1 1.292e+04 1.914e-09
 45.30867    126.5 1.235e+04 1.385e-09
 45.34788    126.7 1.168e+04 1.003e-09
 45.38699    127.2 1.112e+04 7.619e-10
 45.42610    127.9 1.070e+04 5.993e-10
 45.46521    128.8 1.039e+04 5.143e-10
 45.50432    130.0 1.016e+04 4.653e-10
 45.53355    130.7 1.008e+04 4.583e-10
 45.55301    131.2 9.993e+03 4.437e-10
 45.57257    131.8 9.968e+03 4.390e-10
 45.59212    132.4 9.967e+03 4.405e-10
 45.61168    133.1 1.001e+04 4.519e-10
 45.63123    133.6 1.006e+04 4.653e-10
 45.66066    134.9 1.032e+04 5.151e-10
 45.69987    136.0 1.036e+04 5.116e-10
 45.73898    136.9 1.032e+04 4.587e-10
 45.77809    137.7 1.010e+04 3.399e-10
 45.81720    138.4 9.784e+03 2.420e-10
 45.84853    139.3 9.599e+03 2.262e-10
 45.86809    138.7 9.382e+03 1.941e-10
 45.89542    140.0 9.384e+03 1.960e-10
 45.91676    141.3 9.440e+03 2.098e-10
 45.93632    140.8 9.180e+03 1.590e-10
 45.97364    142.1 9.325e+03 1.772e-10
 46.01275    143.0 9.540e+03 2.074e-10
 46.05186    143.7 9.725e+03 2.399e-10
 46.09097    144.2 9.863e+03 2.666e-10
 46.13008    144.3 9.955e+03 2.930e-10
 46.16919    144.2 1.006e+04 3.258e-10
 46.19843    144.1 1.010e+04 3.444e-10
 46.21788    144.0 1.016e+04 3.679e-10
 46.23744    143.8 1.029e+04 4.296e-10
 46.25699    143.7 1.049e+04 5.231e-10
 46.27655    143.5 1.077e+04 6.511e-10
 46.28733    143.1 1.118e+04 8.455e-10
 46.29711    144.1 1.097e+04 6.968e-10
 46.31566    143.5 1.149e+04 9.132e-10
 46.33521    142.5 1.228e+04 1.324e-09
 46.35477    141.6 1.318e+04 2.043e-09
 46.37432    141.0 1.398e+04 3.046e-09
 46.39388    140.6 1.454e+04 3.848e-09
 46.41343    139.7 1.466e+04 3.908e-09
 46.43299    138.7 1.461e+04 3.708e-09
 46.45254    137.7 1.431e+04 2.983e-09
 46.47210    136.3 1.375e+04 2.097e-09
 46.49165    134.4 1.307e+04 1.450e-09
 46.51121    132.5 1.248e+04 1.109e-09
 46.53076    131.2 1.214e+04 1.004e-09
 46.55032    130.6 1.215e+04 9.964e-10
 46.56987    130.3 1.235e+04 9.943e-10
 46.58943    130.0 1.253e+04 9.772e-10
 46.60898    129.5 1.270e+04 9.226e-10
 46.62854    128.7 1.279e+04 8.215e-10
 46.64809    127.6 1.261e+04 7.236e-10
 46.66765    126.2 1.222e+04 6.705e-10
 46.68720    124.9 1.186e+04 6.610e-10
 46.70676    124.0 1.170e+04 6.675e-10
 46.72631    124.7 1.161e+04 6.062e-10
 46.74587    124.5 1.153e+04 6.106e-10
 46.76542    124.5 1.144e+04 6.208e-10
 46.78498    124.5 1.140e+04 6.223e-10
 46.80453    124.6 1.131e+04 6.174e-10
 46.82409    124.9 1.121e+04 6.020e-10
 46.84364    125.2 1.114e+04 5.795e-10
 46.86320    125.5 1.127e+04 5.619e-10
 46.88275    125.6 1.134e+04 5.455e-10
 46.90231    125.6 1.145e+04 5.333e-10
 46.92186    125.5 1.153e+04 5.156e-10
 46.94142    125.3 1.154e+04 5.049e-10
 46.95590    125.1 1.142e+04 4.991e-10
 46.96568    124.7 1.138e+04 5.904e-10
 46.98053    124.5 1.124e+04 5.827e-10
 47.00008    124.2 1.119e+04 5.849e-10
 47.01964    124.0 1.118e+04 5.923e-10
 47.03919    123.8 1.120e+04 6.133e-10
 47.05875    123.3 1.138e+04 6.744e-10
 47.07830    121.6 1.212e+04 9.027e-10
 47.09786    117.4 1.416e+04 1.989e-09
 47.11741    112.9 1.661e+04 5.369e-09
 47.13599    109.3 1.778e+04 9.545e-09
 47.14577    110.7 1.827e+04 1.138e-08
 47.15652    107.3 1.883e+04 1.404e-08
 47.17608    104.2 1.856e+04 1.250e-08
 47.19563    101.7 1.741e+04 7.032e-09
 47.21519     98.9 1.543e+04 2.482e-09
 47.23474     94.6 1.284e+04 7.562e-10
 47.26418     85.7 1.061e+04 2.385e-10
 47.30338     82.8 9.434e+03 1.732e-10
 47.34249     83.0 9.201e+03 1.570e-10
 47.38160     83.8 9.071e+03 1.417e-10
 47.42071     85.0 8.981e+03 1.236e-10
 47.45982     86.3 8.926e+03 1.098e-10
 47.49893     87.5 8.918e+03 1.042e-10
 47.53804     88.6 8.969e+03 1.098e-10
 47.56540     89.7 9.090e+03 1.306e-10
 47.58496     89.7 9.127e+03 1.368e-10
 47.61626     90.9 9.240e+03 1.695e-10
 47.65537     92.0 9.361e+03 2.000e-10
 47.69448     93.1 9.441e+03 2.139e-10
 47.73359     94.0 9.461e+03 2.181e-10
 47.77270     94.8 9.432e+03 2.202e-10
 47.81181     95.8 9.383e+03 2.269e-10
 47.85092     96.9 9.351e+03 2.426e-10
 47.89003     98.2 9.326e+03 2.665e-10
 47.92914     99.6 9.321e+03 2.895e-10
 47.96825    101.1 9.312e+03 3.091e-10
 47.99543    102.7 9.256e+03 2.976e-10
 48.01498    103.5 9.314e+03 3.208e-10
 48.04647    105.0 9.270e+03 3.078e-10
 48.08558    106.5 9.151e+03 2.676e-10
 48.12469    107.8 9.021e+03 2.225e-10
 48.16380    108.8 8.913e+03 1.874e-10
 48.20291    109.6 8.782e+03 1.594e-10
 48.24202    110.3 8.658e+03 1.403e-10
 48.28113    111.0 8.492e+03 1.292e-10
 48.32024    111.9 8.422e+03 1.256e-10
 48.35935    112.8 8.506e+03 1.335e-10
 48.39846    112.1 9.245e+03 1.846e-10
 48.42374    108.7 1.108e+04 3.668e-10
 48.43342    107.8 1.125e+04 4.181e-10
 48.44716    105.4 1.258e+04 1.042e-09
 48.46671    105.1 1.341e+04 2.198e-09
 48.48627    105.7 1.392e+04 3.458e-09
 48.50582    106.4 1.413e+04 4.083e-09
 48.52538    106.9 1.406e+04 3.865e-09
 48.54493    107.2 1.378e+04 3.229e-09
 48.56449    107.1 1.344e+04 2.244e-09
 48.58404    106.3 1.293e+04 1.421e-09
 48.60360    104.9 1.209e+04 9.283e-10
 48.62315    103.7 1.113e+04 7.001e-10
 48.64271    103.3 1.056e+04 6.264e-10
 48.66226    103.5 1.045e+04 6.224e-10
 48.68182    103.9 1.046e+04 6.266e-10
 48.70137    104.4 1.048e+04 6.423e-10
 48.72093    104.8 1.050e+04 6.714e-10
 48.74048    105.2 1.054e+04 7.118e-10
 48.76004    105.5 1.062e+04 7.662e-10
 48.77959    105.6 1.078e+04 8.367e-10
 48.79915    105.6 1.102e+04 9.226e-10
 48.81870    105.4 1.126e+04 1.017e-09
 48.83826    105.0 1.147e+04 1.107e-09
 48.85286    104.6 1.161e+04 1.180e-09
 48.86264    105.5 1.173e+04 1.216e-09
 48.87737    105.1 1.182e+04 1.264e-09
 48.89692    104.5 1.186e+04 1.289e-09
 48.91648    103.9 1.185e+04 1.298e-09
 48.93603    103.2 1.182e+04 1.297e-09
 48.95559    102.5 1.177e+04 1.301e-09
 48.97514    101.9 1.177e+04 1.326e-09
 48.99470    101.2 1.183e+04 1.366e-09
 49.01425    100.4 1.191e+04 1.417e-09
 49.03381     99.7 1.199e+04 1.472e-09
 49.04434     98.8 1.208e+04 1.531e-09
 49.05412    100.1 1.211e+04 1.566e-09
 49.07292     99.2 1.225e+04 1.676e-09
 49.09247     98.2 1.244e+04 1.817e-09
 49.11203     97.5 1.261e+04 1.930e-09
 49.13158     96.9 1.267e+04 1.910e-09
 49.15114     96.6 1.262e+04 1.798e-09
 49.17069     96.3 1.248e+04 1.561e-09
 49.19025     95.9 1.223e+04 1.273e-09
 49.20980     95.3 1.186e+04 9.984e-10
 49.22936     94.6 1.142e+04 8.053e-10
 49.24891     93.8 1.101e+04 7.174e-10
 49.26847     93.2 1.081e+04 7.276e-10
 49.28208     93.1 1.081e+04 7.593e-10
 49.29185     93.3 1.076e+04 6.493e-10
 49.30758     93.3 1.076e+04 7.304e-10
 49.32713     93.3 1.084e+04 8.652e-10
 49.34669     93.6 1.094e+04 1.010e-09
 49.36624     93.9 1.106e+04 1.163e-09
 49.38580     94.2 1.117e+04 1.261e-09
 49.40535     94.2 1.135e+04 1.277e-09
 49.42491     93.9 1.158e+04 1.292e-09
 49.44446     92.8 1.191e+04 1.329e-09
 49.46402     91.1 1.232e+04 1.433e-09
 49.48357     89.2 1.267e+04 1.643e-09
 49.50313     87.5 1.282e+04 1.878e-09
 49.52268     86.0 1.276e+04 1.911e-09
 49.54224     84.9 1.261e+04 1.833e-09
 49.56179     84.2 1.218e+04 1.560e-09
 49.58135     83.9 1.163e+04 1.190e-09
 49.60090     83.6 1.107e+04 8.520e-10
 49.62046     83.0 1.058e+04 6.010e-10
 49.64001     82.5 1.014e+04 4.245e-10
 49.65957     82.1 9.869e+03 3.538e-10
 49.68900     82.6 9.722e+03 3.072e-10
 49.72821     83.1 9.313e+03 2.320e-10
 49.76732     83.8 9.078e+03 1.886e-10
 49.80643     84.5 9.028e+03 1.623e-10
 49.84554     85.0 9.028e+03 1.461e-10
 49.88465     85.5 9.092e+03 1.410e-10
 49.92376     85.9 9.131e+03 1.432e-10
 49.96287     86.3 9.247e+03 1.531e-10
 50.00198     86.8 9.356e+03 1.680e-10
 50.04109     87.2 9.368e+03 1.735e-10
 50.07409     87.6 9.333e+03 1.695e-10
 50.09365     87.6 9.392e+03 1.861e-10
 50.11931     87.6 9.311e+03 1.781e-10
 50.14071     87.5 9.225e+03 1.697e-10
 50.16026     88.6 9.210e+03 1.636e-10
 50.19753     88.2 9.154e+03 1.586e-10
 50.23664     87.5 9.201e+03 1.709e-10
 50.27575     86.7 9.386e+03 2.239e-10
 50.31486     86.1 9.578e+03 2.984e-10
 50.35397     85.6 9.561e+03 3.190e-10
 50.39308     85.2 9.456e+03 3.019e-10
 50.43219     84.8 9.207e+03 2.568e-10
 50.47130     84.3 8.951e+03 2.113e-10
 50.51041     83.8 8.780e+03 1.777e-10
 50.54952     83.2 8.677e+03 1.546e-10
 50.58863     82.7 8.619e+03 1.467e-10
 50.62774     82.3 8.622e+03 1.487e-10
 50.66685     81.9 8.667e+03 1.636e-10
 50.70596     81.5 8.838e+03 2.038e-10
 50.74507     81.4 9.100e+03 2.608e-10
 50.78418     81.2 9.352e+03 3.218e-10
 50.82329     81.0 9.448e+03 3.597e-10
 50.86240     80.8 9.442e+03 3.583e-10
 50.90151     80.7 9.334e+03 3.447e-10
 50.94062     80.8 9.179e+03 3.207e-10
 50.97958     81.0 9.050e+03 3.126e-10
 51.01869     82.1 9.023e+03 3.217e-10
 51.05795     82.4 9.088e+03 3.406e-10
 51.08718     82.6 9.190e+03 3.657e-10
 51.10664     82.4 9.397e+03 4.194e-10
 51.12301     82.0 9.719e+03 5.091e-10
 51.13278     81.7 9.738e+03 5.125e-10
 51.14575     79.6 1.091e+04 7.757e-10
 51.16531     74.6 1.359e+04 1.866e-09
 51.18486     70.9 1.556e+04 4.654e-09
 51.20442     70.0 1.618e+04 7.767e-09
 51.22397     69.7 1.614e+04 7.854e-09
 51.24353     69.9 1.563e+04 6.501e-09
 51.26308     70.0 1.478e+04 3.530e-09
 51.28264     68.2 1.414e+04 1.236e-09
 51.30219     61.0 1.230e+04 3.634e-10
 51.32175     54.9 9.262e+03 2.679e-10
 51.34130     54.7 9.188e+03 2.644e-10
 51.36086     55.0 9.201e+03 2.708e-10
 51.38041     55.2 9.244e+03 2.792e-10
 51.39997     55.7 9.331e+03 3.056e-10
 51.41838     55.8 9.390e+03 3.219e-10
 51.42816     55.7 9.548e+03 3.805e-10
 51.43908     56.1 9.640e+03 4.242e-10
 51.45863     55.9 1.007e+04 5.201e-10
 51.47819     53.0 1.233e+04 9.602e-10
 51.49774     47.9 1.470e+04 2.360e-09
 51.51730     46.4 1.573e+04 5.138e-09
 51.53685     47.3 1.649e+04 8.759e-09
 51.55641     47.6 1.728e+04 1.091e-08
 51.57596     46.7 1.812e+04 1.077e-08
 51.59552     43.6 1.874e+04 1.005e-08
 51.61507     38.6 1.853e+04 7.927e-09
 51.63463     33.1 1.706e+04 6.256e-09
 51.65418     29.1 1.593e+04 5.406e-09
 51.67374     26.9 1.542e+04 4.749e-09
 51.69329     25.3 1.483e+04 3.808e-09
 51.71285     23.5 1.373e+04 2.656e-09
 51.73240     21.6 1.230e+04 1.700e-09
 51.75196     20.1 1.109e+04 1.105e-09
 51.77151     18.8 1.045e+04 8.025e-10
 51.79107     17.7 1.010e+04 6.332e-10
 51.81062     16.7 9.835e+03 5.542e-10
 51.83018     16.0 9.629e+03 5.223e-10
 51.84760     15.8 9.545e+03 5.175e-10
 51.85738     16.0 9.112e+03 4.029e-10
 51.86929     15.9 9.048e+03 3.845e-10
 51.88884     15.4 9.071e+03 3.707e-10
 51.90840     13.6 9.368e+03 3.990e-10
 51.92795      9.7 1.041e+04 5.582e-10
 51.94751      6.4 1.101e+04 8.752e-10
 51.96706      5.1 1.105e+04 1.200e-09
 51.98662      5.4 1.129e+04 1.533e-09
 52.00617      5.5 1.196e+04 1.934e-09
 52.02573      3.7 1.371e+04 2.430e-09
 52.04528     -1.0 1.494e+04 2.947e-09
 52.06484     -7.5 1.526e+04 3.508e-09
 52.07946    -13.7 1.656e+04 4.686e-09
 52.08919    -19.6 1.922e+04 7.165e-09
 52.09896    -25.1 2.047e+04 1.185e-08
 52.10874    -28.6 2.017e+04 1.493e-08
 52.11852    -31.5 1.962e+04 1.547e-08
 52.12830    -33.5 1.852e+04 1.378e-08
 52.13807    -35.5 1.806e+04 1.010e-08
 52.14785    -37.6 1.773e+04 6.691e-09
 52.16229    -39.4 1.682e+04 4.270e-09
 52.17212    -42.4 1.841e+04 4.077e-09
 52.18217    -47.9 1.617e+04 1.487e-09
 52.20172    -55.2 1.078e+04 5.065e-10
 52.22128    -56.7 9.381e+03 4.042e-10
 52.24083    -54.6 9.242e+03 3.982e-10
 52.26039    -53.3 9.416e+03 4.296e-10
 52.27682    -52.5 9.563e+03 4.719e-10
 52.28660    -53.1 9.672e+03 5.050e-10
 52.29950    -52.4 9.790e+03 5.441e-10
 52.31905    -51.8 9.999e+03 6.030e-10
 52.33861    -51.7 1.037e+04 7.041e-10
 52.35816    -52.0 1.091e+04 8.567e-10
 52.37772    -52.5 1.152e+04 1.067e-09
 52.39727    -53.1 1.198e+04 1.280e-09
 52.41683    -53.7 1.214e+04 1.368e-09
 52.43638    -54.2 1.206e+04 1.295e-09
 52.46582    -54.7 1.139e+04 9.460e-10
 52.50502    -55.5 1.075e+04 7.260e-10
 52.54413    -56.2 1.029e+04 6.070e-10
 52.58324    -56.6 1.026e+04 6.007e-10
 52.61248    -57.3 1.067e+04 7.651e-10
 52.63194    -58.3 1.123e+04 1.004e-09
 52.65149    -58.6 1.172e+04 1.345e-09
 52.67105    -58.7 1.211e+04 1.685e-09
 52.69060    -58.4 1.233e+04 1.948e-09
 52.70604    -57.9 1.237e+04 2.036e-09
 52.71581    -58.8 1.288e+04 2.506e-09
 52.72971    -58.1 1.272e+04 2.419e-09
 52.74927    -57.4 1.244e+04 2.045e-09
 52.76882    -57.0 1.205e+04 1.662e-09
 52.78838    -56.9 1.167e+04 1.366e-09
 52.80793    -56.8 1.128e+04 1.156e-09
 52.82749    -56.5 1.095e+04 1.014e-09
 52.84704    -55.8 1.075e+04 9.439e-10
 52.86660    -55.1 1.069e+04 9.247e-10
 52.88615    -54.3 1.071e+04 9.307e-10
 52.90571    -53.9 1.103e+04 1.033e-09
 52.92526    -53.8 1.149e+04 1.254e-09
 52.94482    -53.8 1.199e+04 1.591e-09
 52.96437    -53.7 1.249e+04 2.029e-09
 52.98393    -53.4 1.294e+04 2.506e-09
 53.00348    -53.2 1.337e+04 2.959e-09
 53.02304    -53.3 1.375e+04 3.310e-09
 53.04259    -53.6 1.412e+04 3.441e-09
 53.06215    -54.9 1.446e+04 3.328e-09
 53.08170    -57.0 1.445e+04 3.092e-09
 53.10126    -59.1 1.399e+04 2.810e-09
 53.12081    -60.6 1.333e+04 2.622e-09
 53.13525    -61.0 1.298e+04 2.480e-09
 53.14503    -61.1 1.229e+04 1.820e-09
 53.15992    -61.1 1.219e+04 1.831e-09
 53.17948    -60.8 1.196e+04 1.735e-09
 53.19903    -60.2 1.170e+04 1.500e-09
 53.21145    -59.8 1.145e+04 1.232e-09
 53.22122    -59.8 1.169e+04 1.382e-09
 53.23814    -59.6 1.152e+04 1.174e-09
 53.25770    -59.6 1.138e+04 1.027e-09
 53.27725    -59.8 1.132e+04 9.604e-10
 53.29681    -60.0 1.131e+04 9.479e-10
 53.31636    -60.2 1.139e+04 1.003e-09
 53.33592    -60.3 1.150e+04 1.118e-09
 53.35547    -60.2 1.158e+04 1.263e-09
 53.37503    -59.7 1.165e+04 1.413e-09
 53.39458    -59.1 1.173e+04 1.546e-09
 53.41414    -58.3 1.179e+04 1.626e-09
 53.43369    -57.6 1.178e+04 1.651e-09
 53.45325    -56.8 1.190e+04 1.508e-09
 53.47280    -56.3 1.172e+04 1.319e-09
 53.49236    -56.0 1.145e+04 1.076e-09
 53.52179    -55.6 1.105e+04 8.588e-10
 53.55489    -54.5 1.050e+04 6.655e-10
 53.57435    -54.0 1.072e+04 7.635e-10
 53.59013    -53.5 1.058e+04 7.286e-10
 53.60969    -53.0 1.054e+04 7.260e-10
 53.63912    -52.0 1.063e+04 7.444e-10
 53.67833    -50.9 1.062e+04 7.444e-10
 53.71744    -50.0 1.076e+04 8.044e-10
 53.75655    -49.4 1.117e+04 9.266e-10
 53.78578    -49.6 1.154e+04 1.114e-09
 53.80524    -50.4 1.200e+04 1.269e-09
 53.82479    -51.6 1.261e+04 1.538e-09
 53.84435    -53.3 1.319e+04 1.989e-09
 53.86390    -54.6 1.364e+04 2.653e-09
 53.88346    -55.1 1.395e+04 3.339e-09
 53.90301    -55.2 1.422e+04 4.014e-09
 53.92257    -55.3 1.435e+04 4.268e-09
 53.94212    -55.6 1.430e+04 4.134e-09
 53.96168    -56.0 1.392e+04 3.256e-09
 53.98123    -56.9 1.341e+04 2.422e-09
 53.99369    -58.1 1.285e+04 1.897e-09
 54.00346    -58.9 1.305e+04 2.078e-09
 54.02034    -59.3 1.252e+04 1.743e-09
 54.03990    -59.3 1.215e+04 1.507e-09
 54.05945    -58.8 1.179e+04 1.259e-09
 54.07901    -58.4 1.146e+04 1.019e-09
 54.09856    -58.2 1.113e+04 7.963e-10
 54.11812    -58.1 1.084e+04 6.483e-10
 54.14755    -57.7 1.067e+04 5.850e-10
 54.18676    -56.9 1.041e+04 5.030e-10
 54.22587    -56.1 1.037e+04 4.883e-10
 54.25097    -55.6 1.043e+04 5.215e-10
 54.27053    -55.5 1.027e+04 4.647e-10
 54.30409    -55.0 1.034e+04 4.978e-10
 54.34320    -54.5 1.036e+04 5.157e-10
 54.38231    -54.1 1.038e+04 5.224e-10
 54.41332    -53.6 1.037e+04 5.136e-10
 54.43288    -53.6 1.039e+04 4.946e-10
 54.46053    -53.0 1.035e+04 4.718e-10
 54.49964    -52.1 1.017e+04 4.204e-10
 54.53875    -50.9 9.919e+03 3.451e-10
 54.57786    -49.5 9.677e+03 2.738e-10
 54.61697    -48.0 9.485e+03 2.187e-10
 54.65608    -46.3 9.367e+03 1.812e-10
 54.69519    -44.6 9.348e+03 1.614e-10
 54.73430    -43.0 9.389e+03 1.558e-10
 54.77341    -41.5 9.526e+03 1.641e-10
 54.81252    -40.1 9.782e+03 2.009e-10
 54.85163    -38.4 1.005e+04 2.511e-10
 54.89074    -37.0 1.017e+04 2.808e-10
 54.92985    -36.2 1.029e+04 2.942e-10
 54.95908    -35.7 1.038e+04 3.111e-10
 54.97854    -35.8 1.042e+04 3.199e-10
 54.99809    -35.9 1.060e+04 3.618e-10
 55.01765    -36.1 1.070e+04 3.905e-10
 55.03720    -36.4 1.086e+04 4.395e-10
 55.05676    -36.5 1.092e+04 4.726e-10
 55.07632    -36.6 1.096e+04 5.046e-10
 55.09587    -36.8 1.101e+04 5.264e-10
 55.11543    -37.2 1.122e+04 5.628e-10
 55.13498    -38.4 1.171e+04 6.379e-10
 55.15454    -40.6 1.268e+04 8.399e-10
 55.17409    -43.2 1.356e+04 1.283e-09
 55.19365    -45.5 1.403e+04 2.025e-09
 55.21320    -46.4 1.422e+04 2.930e-09
 55.23276    -46.6 1.434e+04 3.731e-09
 55.25231    -46.5 1.441e+04 4.145e-09
 55.27156    -46.1 1.437e+04 3.944e-09
 55.28134    -46.3 1.442e+04 3.698e-09
 55.29011    -46.6 1.391e+04 2.344e-09
 55.29989    -47.8 1.304e+04 1.395e-09
 55.32085    -49.4 1.232e+04 1.016e-09
 55.36006    -50.2 1.104e+04 6.495e-10
 55.39917    -50.0 1.031e+04 4.721e-10
 55.43828    -49.1 1.017e+04 4.354e-10
 55.47739    -48.9 1.026e+04 4.579e-10
 55.51650    -49.1 1.066e+04 6.117e-10
 55.55561    -49.5 1.117e+04 8.644e-10
 55.59472    -50.3 1.162e+04 1.142e-09
 55.63383    -51.3 1.193e+04 1.368e-09
 55.66306    -52.0 1.206e+04 1.520e-09
 55.68252    -52.5 1.208e+04 1.496e-09
 55.70078    -53.3 1.212e+04 1.479e-09
 55.71056    -52.6 1.232e+04 1.697e-09
 55.72163    -53.5 1.268e+04 1.850e-09
 55.74119    -55.2 1.341e+04 2.181e-09
 55.76074    -57.1 1.424e+04 2.778e-09
 55.78030    -58.6 1.476e+04 3.702e-09
 55.79985    -59.2 1.504e+04 4.655e-09
 55.81941    -59.3 1.513e+04 5.106e-09
 55.83896    -59.5 1.509e+04 5.115e-09
 55.85852    -59.4 1.467e+04 4.151e-09
 55.87807    -60.4 1.410e+04 2.853e-09
 55.89763    -63.3 1.366e+04 2.160e-09
 55.91718    -66.8 1.332e+04 1.985e-09
 55.93674    -69.7 1.324e+04 1.983e-09
 55.95629    -71.6 1.335e+04 2.493e-09
 55.97585    -72.7 1.360e+04 3.152e-09
 55.99540    -73.6 1.369e+04 3.389e-09
 56.01496    -74.9 1.367e+04 3.377e-09
 56.03451    -76.5 1.333e+04 2.686e-09
 56.05407    -79.1 1.260e+04 1.778e-09
 56.07362    -82.5 1.165e+04 1.211e-09
 56.09318    -85.5 1.096e+04 9.940e-10
 56.11273    -87.2 1.061e+04 9.010e-10
 56.13000    -88.2 1.040e+04 8.434e-10
 56.13977    -86.8 1.061e+04 8.851e-10
 56.15184    -87.6 1.050e+04 8.607e-10
 56.17140    -88.1 1.039e+04 8.221e-10
 56.19095    -88.6 1.026e+04 7.543e-10
 56.21051    -89.1 1.010e+04 6.559e-10
 56.23006    -89.5 9.895e+03 5.555e-10
 56.24962    -89.8 9.693e+03 4.711e-10
 56.26917    -89.8 9.557e+03 4.188e-10
 56.29860    -89.6 9.535e+03 3.993e-10
 56.32964    -89.2 9.518e+03 3.927e-10
 56.34919    -89.1 9.582e+03 4.155e-10
 56.37692    -88.2 9.697e+03 4.632e-10
 56.40616    -87.5 9.828e+03 5.275e-10
 56.42561    -86.9 9.951e+03 5.755e-10
 56.44517    -86.3 1.008e+04 6.208e-10
 56.46472    -85.7 1.020e+04 6.521e-10
 56.48428    -85.3 1.027e+04 6.634e-10
 56.50383    -85.1 1.028e+04 6.650e-10
 56.52339    -84.9 1.026e+04 6.448e-10
 56.54294    -84.7 1.018e+04 6.167e-10
 56.55921    -84.6 1.010e+04 5.914e-10
 56.56899    -85.0 1.000e+04 5.512e-10
 56.58205    -84.8 9.979e+03 5.531e-10
 56.61148    -84.5 9.990e+03 5.594e-10
 56.65069    -84.0 1.002e+04 5.581e-10
 56.68980    -83.8 1.008e+04 5.572e-10
 56.71904    -83.9 9.990e+03 5.212e-10
 56.73849    -83.9 9.966e+03 5.128e-10
 56.75805    -83.8 9.948e+03 4.848e-10
 56.77760    -83.7 9.894e+03 4.461e-10
 56.79716    -83.6 9.832e+03 4.098e-10
 56.81671    -83.3 9.776e+03 3.814e-10
 56.84614    -82.7 9.774e+03 3.768e-10
 56.88535    -81.7 9.603e+03 3.053e-10
 56.92446    -80.0 9.547e+03 2.718e-10
 56.96357    -78.4 9.552e+03 2.678e-10
 56.98862    -76.9 9.916e+03 2.956e-10
 57.00818    -77.2 9.839e+03 2.893e-10
 57.04179    -76.1 1.028e+04 3.824e-10
 57.07103    -75.3 1.062e+04 5.128e-10
 57.09048    -75.3 1.087e+04 6.344e-10
 57.11004    -75.2 1.116e+04 8.117e-10
 57.12959    -75.2 1.154e+04 1.042e-09
 57.14915    -75.2 1.201e+04 1.362e-09
 57.16870    -75.1 1.247e+04 1.729e-09
 57.18826    -75.0 1.292e+04 2.095e-09
 57.20781    -74.9 1.328e+04 2.351e-09
 57.22737    -75.3 1.343e+04 2.431e-09
 57.24692    -75.7 1.344e+04 2.431e-09
 57.26648    -76.0 1.336e+04 2.333e-09
 57.28603    -76.1 1.327e+04 2.220e-09
 57.30559    -76.1 1.324e+04 2.140e-09
 57.32514    -75.8 1.327e+04 2.089e-09
 57.34470    -75.6 1.330e+04 2.075e-09
 57.36425    -75.8 1.351e+04 2.077e-09
 57.37855    -77.9 1.509e+04 2.492e-09
 57.38833    -77.3 1.409e+04 2.332e-09
 57.40336    -79.4 1.522e+04 3.114e-09
 57.41765    -81.7 1.674e+04 4.459e-09
 57.42742    -82.0 1.593e+04 2.965e-09
 57.44247    -84.0 1.710e+04 3.855e-09
 57.46203    -85.8 1.764e+04 4.486e-09
 57.48158    -87.7 1.759e+04 4.605e-09
 57.50114    -89.4 1.668e+04 4.291e-09
 57.52069    -90.5 1.573e+04 4.146e-09
 57.54025    -90.8 1.518e+04 4.050e-09
 57.55980    -90.7 1.485e+04 3.880e-09
 57.57936    -90.1 1.449e+04 3.482e-09
 57.59891    -89.4 1.416e+04 3.075e-09
 57.61847    -88.6 1.390e+04 2.747e-09
 57.63803    -87.6 1.371e+04 2.542e-09
 57.65758    -86.5 1.363e+04 2.456e-09
 57.67714    -85.5 1.360e+04 2.428e-09
 57.69669    -84.5 1.355e+04 2.428e-09
 57.71625    -83.1 1.349e+04 2.468e-09
 57.73580    -81.6 1.358e+04 2.621e-09
 57.75536    -80.2 1.381e+04 2.876e-09
 57.77491    -79.1 1.406e+04 3.169e-09
 57.79447    -77.9 1.431e+04 3.449e-09
 57.81402    -76.8 1.463e+04 3.741e-09
 57.83358    -75.8 1.508e+04 4.064e-09
 57.84686    -75.2 1.565e+04 4.426e-09
 57.85664    -75.5 1.580e+04 4.497e-09
 57.87269    -75.3 1.645e+04 5.227e-09
 57.89224    -75.3 1.695e+04 5.959e-09
 57.91180    -75.3 1.722e+04 6.530e-09
 57.93135    -75.3 1.727e+04 6.873e-09
 57.95091    -75.3 1.724e+04 6.962e-09
 57.97046    -75.1 1.688e+04 6.261e-09
 57.99002    -75.0 1.634e+04 4.932e-09
 58.00957    -75.0 1.565e+04 3.484e-09
 58.02913    -75.5 1.481e+04 2.289e-09
 58.04868    -76.4 1.366e+04 1.509e-09
 58.06824    -77.2 1.233e+04 1.098e-09
 58.08779    -77.6 1.155e+04 9.272e-10
 58.10735    -77.3 1.132e+04 8.539e-10
 58.12690    -76.6 1.117e+04 8.057e-10
 58.14646    -75.7 1.108e+04 7.585e-10
 58.16601    -74.7 1.100e+04 6.937e-10
 58.18557    -73.7 1.095e+04 6.078e-10
 58.20512    -73.0 1.086e+04 5.156e-10
 58.22468    -72.2 1.077e+04 4.532e-10
 58.24423    -71.5 1.071e+04 4.219e-10
 58.26379    -70.8 1.064e+04 4.019e-10
 58.29322    -69.7 1.063e+04 3.975e-10
 58.33242    -68.8 1.066e+04 3.948e-10
 58.37153    -69.1 1.101e+04 5.310e-10
 58.40830    -70.2 1.249e+04 1.323e-09
 58.42786    -70.7 1.242e+04 1.278e-09
 58.43988    -70.4 1.349e+04 2.554e-09
 58.45934    -70.3 1.428e+04 3.748e-09
 58.47889    -70.1 1.478e+04 4.500e-09
 58.49845    -70.0 1.492e+04 4.643e-09
 58.51800    -70.0 1.500e+04 4.267e-09
 58.53756    -70.6 1.458e+04 2.920e-09
 58.55711    -72.3 1.384e+04 1.832e-09
 58.57667    -74.4 1.289e+04 1.202e-09
 58.59622    -75.8 1.207e+04 8.867e-10
 58.61578    -76.5 1.152e+04 7.171e-10
 58.63533    -76.8 1.125e+04 6.142e-10
 58.65489    -77.1 1.121e+04 5.721e-10
 58.67444    -77.8 1.123e+04 5.673e-10
 58.69400    -79.0 1.170e+04 6.124e-10
 58.70530    -80.5 1.221e+04 8.272e-10
 58.71508    -81.5 1.284e+04 1.220e-09
 58.73311    -82.0 1.295e+04 1.598e-09
 58.75266    -82.1 1.291e+04 1.833e-09
 58.77222    -82.0 1.283e+04 1.881e-09
 58.79177    -81.9 1.233e+04 1.617e-09
 58.81133    -82.0 1.181e+04 1.144e-09
 58.83088    -82.8 1.132e+04 7.787e-10
 58.85044    -83.7 1.092e+04 5.793e-10
 58.87987    -84.6 1.062e+04 4.653e-10
 58.91908    -85.0 1.037e+04 4.000e-10
 58.95819    -85.4 1.039e+04 4.006e-10
 58.99730    -85.9 1.085e+04 5.157e-10
 59.02653    -86.5 1.099e+04 6.149e-10
 59.04599    -86.8 1.112e+04 6.754e-10
 59.06554    -87.2 1.127e+04 7.393e-10
 59.08510    -87.8 1.142e+04 7.958e-10
 59.10465    -88.8 1.166e+04 8.861e-10
 59.12421    -90.1 1.199e+04 1.042e-09
 59.13452    -91.4 1.241e+04 1.290e-09
 59.14429    -91.6 1.204e+04 1.119e-09
 59.16332    -92.8 1.252e+04 1.459e-09
 59.18287    -93.9 1.293e+04 1.828e-09
 59.20243    -94.9 1.312e+04 2.052e-09
 59.22198    -95.9 1.313e+04 2.094e-09
 59.24154    -96.5 1.283e+04 1.952e-09
 59.26109    -96.9 1.239e+04 1.520e-09
 59.28065    -97.4 1.193e+04 1.092e-09
 59.30020    -98.1 1.147e+04 7.642e-10
 59.31976    -99.0 1.103e+04 5.474e-10
 59.33931    -99.9 1.061e+04 4.185e-10
 59.35887   -100.7 1.029e+04 3.378e-10
 59.37842   -101.3 1.012e+04 2.836e-10
 59.39798   -102.0 1.013e+04 2.547e-10
 59.42741   -102.5 1.037e+04 2.479e-10
 59.46662   -102.4 1.040e+04 2.353e-10
 59.50573   -102.0 1.136e+04 4.096e-10
 59.54437   -100.4 1.183e+04 7.166e-10
 59.56393    -99.8 1.141e+04 4.883e-10
 59.58395    -98.6 1.187e+04 8.308e-10
 59.61318    -97.7 1.177e+04 9.680e-10
 59.63264   -101.8 1.460e+04 1.307e-09
 59.65219   -111.1 2.267e+04 3.055e-09
 59.66681   -117.4 2.405e+04 2.192e-08
 59.67654   -119.0 2.341e+04 7.028e-08
 59.68632   -119.9 2.311e+04 1.674e-07
 59.69610   -121.3 2.325e+04 2.614e-07
 59.70587   -124.0 2.338e+04 2.866e-07
 59.71565   -128.0 2.406e+04 2.458e-07
 59.72543   -133.2 2.552e+04 1.086e-07
 59.73521   -140.5 2.558e+04 3.335e-08
 59.74498   -148.1 2.175e+04 1.223e-08
 59.75476   -152.4 1.822e+04 7.632e-09
 59.76454   -153.7 1.713e+04 6.088e-09
 59.77335   -154.2 1.699e+04 4.878e-09
 59.77824   -153.7 1.740e+04 5.924e-09
 59.78409   -154.4 1.713e+04 4.720e-09
 59.79387   -155.3 1.686e+04 4.250e-09
 59.80859   -156.6 1.641e+04 3.685e-09
 59.82819   -158.3 1.524e+04 2.256e-09
 59.84774   -159.5 1.385e+04 1.438e-09
 59.86730   -159.8 1.310e+04 1.179e-09
 59.88685   -159.7 1.279e+04 1.097e-09
 59.90641   -159.4 1.269e+04 1.076e-09
 59.92596   -161.4 1.414e+04 1.081e-09
 59.94552   -175.2 2.828e+04 2.040e-09
 59.96014   -184.3 2.800e+04 2.380e-08
 59.96987   -187.0 2.385e+04 1.326e-07
 59.97964   -188.7 2.211e+04 3.800e-07
 59.98656   -190.7 2.155e+04 6.075e-07
 59.98999   -190.7 2.175e+04 5.471e-07
 59.99285   -189.6 2.158e+04 7.119e-07
 59.99920   -193.1 2.147e+04 8.003e-07
 60.00898   -196.9 2.164e+04 6.704e-07
 60.01875   -200.1 2.250e+04 2.965e-07
 60.02853   -203.1 2.345e+04 9.270e-08
 60.03831   -206.5 2.331e+04 2.489e-08
 60.04809   -210.4 2.065e+04 8.466e-09
 60.05786   -213.2 1.735e+04 4.983e-09
 60.06764   -214.3 1.567e+04 3.798e-09
 60.08236   -214.7 1.488e+04 3.042e-09
 60.10196   -215.1 1.403e+04 2.209e-09
 60.12151   -215.4 1.235e+04 1.298e-09
 60.14107   -215.5 1.111e+04 8.446e-10
 60.16062   -215.2 1.063e+04 6.198e-10
 60.18018   -214.5 1.036e+04 4.711e-10
 60.19973   -213.7 1.017e+04 3.792e-10
 60.21929   -213.3 1.009e+04 3.374e-10
 60.24872   -213.4 1.004e+04 3.079e-10
 60.28793   -213.4 9.856e+03 2.609e-10
 60.32704   -213.1 9.626e+03 2.281e-10
 60.36615   -212.8 9.421e+03 2.099e-10
 60.40281   -212.2 9.264e+03 2.004e-10
 60.42236   -211.5 9.299e+03 2.142e-10
 60.44437   -210.8 9.158e+03 2.033e-10
 60.48348   -210.1 9.067e+03 1.949e-10
 60.50652   -209.2 9.022e+03 1.888e-10
 60.52608   -209.5 9.042e+03 1.946e-10
 60.56170   -208.4 9.044e+03 1.945e-10
 60.60081   -207.3 9.072e+03 1.979e-10
 60.63992   -206.0 9.115e+03 2.018e-10
 60.67903   -204.5 9.142e+03 2.045e-10
 60.71814   -203.1 9.152e+03 2.052e-10
 60.75725   -201.5 9.147e+03 2.033e-10
 60.79636   -200.0 9.123e+03 1.995e-10
 60.83547   -198.5 9.099e+03 1.960e-10
 60.87458   -197.0 9.106e+03 1.942e-10
 60.91369   -195.6 9.133e+03 1.943e-10
 60.95280   -194.3 9.212e+03 2.039e-10
 60.99191   -193.0 9.322e+03 2.275e-10
 61.03102   -191.7 9.470e+03 2.610e-10
 61.07013   -190.4 9.650e+03 2.986e-10
 61.10924   -189.2 9.816e+03 3.295e-10
 61.14835   -188.1 9.921e+03 3.416e-10
 61.18746   -187.3 9.947e+03 3.430e-10
 61.22657   -186.5 9.974e+03 3.307e-10
 61.26124   -186.0 9.996e+03 3.190e-10
 61.28080   -185.8 9.954e+03 3.003e-10
 61.30479   -185.5 9.967e+03 2.925e-10
 61.34390   -185.5 1.011e+04 2.962e-10
 61.38301   -185.7 1.046e+04 3.343e-10
 61.42212   -186.8 1.084e+04 4.154e-10
 61.46123   -188.4 1.113e+04 5.164e-10
 61.50034   -190.5 1.135e+04 6.259e-10
 61.53945   -192.7 1.145e+04 7.014e-10
 61.57856   -195.0 1.145e+04 7.200e-10
 61.61767   -196.9 1.141e+04 6.886e-10
 61.65678   -198.3 1.146e+04 6.250e-10
 61.69589   -199.1 1.164e+04 5.612e-10
 61.72513   -200.1 1.185e+04 5.455e-10
 61.74458   -201.2 1.183e+04 5.101e-10
 61.76414   -202.1 1.182e+04 4.743e-10
 61.78369   -202.5 1.180e+04 4.448e-10
 61.81312   -202.8 1.182e+04 4.195e-10
 61.85233   -203.2 1.172e+04 3.845e-10
 61.89144   -203.4 1.156e+04 3.400e-10
 61.93055   -203.4 1.138e+04 3.062e-10
 61.96966   -203.4 1.125e+04 2.941e-10
 62.00877   -203.1 1.122e+04 2.949e-10
 62.04788   -202.7 1.118e+04 3.048e-10
 62.08699   -202.6 1.114e+04 3.240e-10
 62.11968   -202.6 1.111e+04 3.348e-10
 62.13923   -203.2 1.123e+04 3.543e-10
 62.16521   -203.3 1.120e+04 3.580e-10
 62.20432   -203.3 1.107e+04 3.481e-10
 62.24343   -202.9 1.090e+04 3.273e-10
 62.28254   -202.1 1.078e+04 3.117e-10
 62.32165   -201.2 1.076e+04 3.082e-10
 62.36076   -200.1 1.076e+04 3.107e-10
 62.39987   -199.1 1.086e+04 3.264e-10
 62.43898   -198.3 1.108e+04 3.829e-10
 62.47809   -198.0 1.135e+04 4.880e-10
 62.51720   -197.8 1.167e+04 6.492e-10
 62.55631   -198.0 1.208e+04 8.741e-10
 62.58519   -198.5 1.265e+04 1.213e-09
 62.60474   -199.1 1.327e+04 1.799e-09
 62.62466   -199.3 1.329e+04 1.738e-09
 62.64411   -199.8 1.360e+04 1.962e-09
 62.66367   -200.6 1.385e+04 2.186e-09
 62.68322   -201.4 1.398e+04 2.312e-09
 62.70278   -202.7 1.398e+04 2.394e-09
 62.72233   -203.4 1.383e+04 2.376e-09
 62.74189   -203.8 1.351e+04 2.050e-09
 62.76144   -204.2 1.317e+04 1.627e-09
 62.78100   -204.5 1.284e+04 1.213e-09
 62.80056   -204.8 1.254e+04 8.947e-10
 62.82011   -205.1 1.231e+04 6.896e-10
 62.83967   -205.2 1.215e+04 5.664e-10
 62.85922   -205.3 1.203e+04 4.972e-10
 62.87878   -205.1 1.196e+04 4.644e-10
 62.90821   -204.8 1.192e+04 4.488e-10
 62.94741   -203.9 1.181e+04 4.545e-10
 62.97811   -202.9 1.165e+04 4.554e-10
 62.99766   -203.6 1.167e+04 4.972e-10
 63.02563   -202.6 1.154e+04 4.487e-10
 63.06474   -201.3 1.147e+04 4.125e-10
 63.10385   -200.1 1.144e+04 3.931e-10
 63.14296   -198.8 1.144e+04 3.799e-10
 63.18207   -197.7 1.147e+04 3.734e-10
 63.22118   -196.6 1.154e+04 3.766e-10
 63.26029   -195.5 1.158e+04 3.889e-10
 63.29940   -194.3 1.163e+04 4.176e-10
 63.33851   -193.0 1.171e+04 4.697e-10
 63.37762   -191.7 1.181e+04 5.411e-10
 63.40686   -190.3 1.178e+04 5.267e-10
 63.41691   -189.9 1.189e+04 5.948e-10
 63.42669   -190.1 1.194e+04 6.093e-10
 63.44587   -189.4 1.201e+04 6.605e-10
 63.46543   -189.1 1.205e+04 6.938e-10
 63.48498   -188.6 1.208e+04 7.303e-10
 63.50454   -188.3 1.208e+04 7.500e-10
 63.52409   -187.8 1.205e+04 7.775e-10
 63.54365   -187.3 1.203e+04 7.963e-10
 63.56320   -186.7 1.200e+04 8.129e-10
 63.58276   -186.0 1.200e+04 8.005e-10
 63.60231   -185.5 1.204e+04 7.838e-10
 63.62187   -184.9 1.208e+04 7.600e-10
 63.63410   -184.4 1.212e+04 7.387e-10
 63.64388   -185.2 1.211e+04 7.138e-10
 63.66098   -184.8 1.213e+04 6.886e-10
 63.68053   -184.4 1.212e+04 6.715e-10
 63.70009   -184.0 1.211e+04 6.638e-10
 63.71964   -183.6 1.211e+04 6.674e-10
 63.73920   -183.1 1.209e+04 6.861e-10
 63.76863   -182.6 1.210e+04 7.111e-10
 63.80783   -181.6 1.205e+04 7.069e-10
 63.83654   -180.7 1.200e+04 7.060e-10
 63.85610   -179.9 1.185e+04 5.751e-10
 63.88605   -179.1 1.187e+04 6.033e-10
 63.92517   -178.3 1.188e+04 6.204e-10
 63.96428   -177.5 1.186e+04 6.197e-10
 64.00339   -176.7 1.179e+04 5.819e-10
 64.04250   -175.9 1.166e+04 5.174e-10
 64.08161   -175.0 1.149e+04 4.462e-10
 64.12072   -174.1 1.131e+04 3.810e-10
 64.15983   -173.1 1.116e+04 3.268e-10
 64.19894   -171.9 1.105e+04 2.825e-10
 64.23805   -170.7 1.093e+04 2.524e-10
 64.27716   -169.5 1.087e+04 2.403e-10
 64.31627   -168.2 1.086e+04 2.384e-10
 64.35538   -167.0 1.087e+04 2.398e-10
 64.39449   -165.8 1.096e+04 2.552e-10
 64.43360   -164.9 1.107e+04 3.002e-10
 64.47271   -164.0 1.117e+04 3.648e-10
 64.51182   -163.1 1.124e+04 4.257e-10
 64.55093   -162.3 1.127e+04 4.593e-10
 64.59004   -161.4 1.126e+04 4.671e-10
 64.62915   -160.3 1.116e+04 4.384e-10
 64.66385   -158.9 1.106e+04 3.718e-10
 64.68341   -158.9 1.094e+04 2.766e-10
 64.69498   -157.6 1.091e+04 2.375e-10
 64.71453   -157.6 1.087e+04 2.218e-10
 64.74648   -156.1 1.089e+04 2.015e-10
 64.78559   -154.7 1.090e+04 1.969e-10
 64.82470   -153.2 1.095e+04 1.972e-10
 64.86381   -151.9 1.112e+04 2.169e-10
 64.90292   -150.7 1.123e+04 2.537e-10
 64.94203   -149.7 1.132e+04 2.851e-10
 64.98114   -148.8 1.138e+04 3.068e-10
 65.02025   -148.1 1.143e+04 3.246e-10
 65.05936   -147.4 1.149e+04 3.533e-10
 65.09847   -146.8 1.158e+04 4.113e-10
 65.13758   -146.1 1.167e+04 5.018e-10
 65.17669   -145.3 1.176e+04 6.021e-10
 65.21580   -144.3 1.184e+04 6.826e-10
 65.25491   -143.2 1.187e+04 7.217e-10
 65.29402   -142.1 1.188e+04 7.252e-10
 65.33313   -140.8 1.186e+04 6.986e-10
 65.37224   -139.5 1.182e+04 6.701e-10
 65.41135   -138.2 1.177e+04 6.391e-10
 65.45046   -136.9 1.171e+04 6.191e-10
 65.48957   -135.6 1.166e+04 6.066e-10
 65.52868   -134.4 1.159e+04 5.911e-10
 65.55341   -133.4 1.151e+04 5.557e-10
 65.57297   -134.1 1.153e+04 5.051e-10
 65.60690   -133.2 1.135e+04 4.660e-10
 65.64601   -132.4 1.115e+04 4.210e-10
 65.68512   -131.8 1.098e+04 3.786e-10
 65.72423   -131.5 1.084e+04 3.411e-10
 65.76334   -131.4 1.074e+04 3.103e-10
 65.80245   -131.2 1.072e+04 2.884e-10
 65.84156   -131.1 1.070e+04 2.720e-10
 65.88067   -131.0 1.069e+04 2.626e-10
 65.91978   -131.0 1.074e+04 2.650e-10
 65.95889   -131.0 1.085e+04 3.336e-10
 65.99800   -131.0 1.102e+04 4.839e-10
 66.03711   -130.9 1.116e+04 7.011e-10
 66.07622   -130.7 1.121e+04 8.710e-10
 66.11533   -130.7 1.120e+04 9.114e-10
 66.15444   -130.8 1.092e+04 8.513e-10
 66.19355   -130.8 1.049e+04 6.490e-10
 66.23266   -130.8 1.008e+04 4.706e-10
 66.27177   -130.9 9.746e+03 3.488e-10
 66.31088   -130.7 9.455e+03 2.615e-10
 66.34999   -130.2 9.212e+03 1.966e-10
 66.38910   -129.5 9.037e+03 1.535e-10
 66.41185   -128.5 8.903e+03 1.301e-10
 66.43140   -128.6 8.849e+03 1.139e-10
 66.46732   -127.5 8.764e+03 1.018e-10
 66.50643   -126.3 8.739e+03 9.832e-11
 66.54554   -125.2 8.737e+03 9.739e-11
 66.58465   -124.2 8.780e+03 1.023e-10
 66.62376   -123.7 8.898e+03 1.273e-10
 66.66287   -123.4 9.045e+03 1.736e-10
 66.70198   -123.3 9.221e+03 2.388e-10
 66.74109   -123.3 9.442e+03 3.193e-10
 66.76207   -123.4 9.636e+03 4.030e-10
 66.78162   -122.8 9.798e+03 4.768e-10
 66.81931   -123.0 9.928e+03 5.584e-10
 66.85842   -123.2 9.943e+03 5.746e-10
 66.89753   -123.2 9.860e+03 5.566e-10
 66.93664   -122.5 9.579e+03 4.315e-10
 66.97575   -121.6 9.252e+03 2.985e-10
 67.01486   -120.8 9.047e+03 2.174e-10
 67.05397   -120.0 8.952e+03 1.790e-10
 67.09308   -119.1 8.892e+03 1.617e-10
 67.13219   -118.0 8.845e+03 1.531e-10
 67.17130   -116.8 8.798e+03 1.445e-10
 67.21041   -115.5 8.739e+03 1.314e-10
 67.24952   -114.0 8.671e+03 1.133e-10
 67.27028   -112.4 8.611e+03 9.308e-11
 67.28984   -112.1 8.662e+03 9.609e-11
 67.32774   -110.4 8.611e+03 7.755e-11
 67.36685   -108.7 8.585e+03 6.271e-11
 67.40596   -107.0 8.580e+03 5.276e-11
 67.44507   -105.2 8.594e+03 4.741e-11
 67.48418   -103.4 8.610e+03 4.572e-11
 67.52329   -101.6 8.617e+03 4.536e-11
 67.56240    -99.9 8.758e+03 4.675e-11
 67.60151    -98.3 8.870e+03 5.798e-11
 67.64062    -96.7 8.954e+03 7.766e-11
 67.67973    -95.2 9.104e+03 1.064e-10
 67.71884    -94.0 9.342e+03 1.494e-10
 67.75795    -93.0 9.614e+03 2.110e-10
 67.79706    -92.4 9.907e+03 2.884e-10
 67.83617    -92.0 1.017e+04 3.669e-10
 67.87528    -91.8 1.035e+04 4.184e-10
 67.91439    -91.7 1.039e+04 4.301e-10
 67.95350    -91.7 1.032e+04 4.119e-10
 67.99261    -91.4 1.006e+04 3.369e-10
 68.03172    -90.6 9.777e+03 2.504e-10
 68.07083    -89.7 9.555e+03 1.772e-10
 68.10916    -88.6 9.401e+03 1.242e-10
 68.12872    -88.7 9.305e+03 1.007e-10
 68.14905    -87.6 9.212e+03 7.531e-11
 68.18816    -86.5 9.179e+03 6.535e-11
 68.22727    -85.2 9.179e+03 6.325e-11
 68.26638    -84.2 9.235e+03 6.661e-11
 68.30549    -83.5 9.308e+03 9.103e-11
 68.34460    -82.7 9.388e+03 1.387e-10
 68.38371    -81.7 9.506e+03 2.037e-10
 68.42282    -80.8 9.625e+03 2.687e-10
 68.46193    -80.0 9.683e+03 3.035e-10
 68.50104    -79.2 9.683e+03 3.088e-10
 68.54015    -78.3 9.542e+03 2.881e-10
 68.57926    -77.2 9.388e+03 2.426e-10
 68.61837    -76.0 9.353e+03 2.180e-10
 68.65748    -75.1 9.365e+03 2.144e-10
 68.69659    -74.7 9.627e+03 2.595e-10
 68.73570    -74.4 1.010e+04 4.374e-10
 68.77481    -73.8 1.056e+04 7.006e-10
 68.81392    -73.6 1.082e+04 8.703e-10
 68.84073    -73.6 1.085e+04 8.957e-10
 68.86029    -73.2 1.110e+04 1.030e-09
 68.89214    -73.3 1.091e+04 9.516e-10
 68.93125    -73.1 1.046e+04 6.665e-10
 68.96759    -73.0 9.991e+03 4.383e-10
 68.98715    -72.8 1.007e+04 4.492e-10
 69.00947    -72.5 9.699e+03 3.127e-10
 69.04858    -71.7 9.381e+03 2.224e-10
 69.08770    -70.7 9.173e+03 1.665e-10
 69.12681    -69.7 9.073e+03 1.369e-10
 69.16592    -68.6 9.051e+03 1.275e-10
 69.20503    -67.6 9.057e+03 1.260e-10
 69.24414    -66.9 9.215e+03 1.358e-10
 69.28325    -66.3 9.350e+03 1.709e-10
 69.32236    -65.7 9.471e+03 2.161e-10
 69.36147    -65.1 9.592e+03 2.542e-10
 69.40058    -64.7 9.660e+03 2.697e-10
 69.43969    -64.4 9.677e+03 2.703e-10
 69.47880    -64.0 9.660e+03 2.486e-10
 69.51791    -63.7 9.634e+03 2.164e-10
 69.55702    -63.4 9.623e+03 1.910e-10
 69.59613    -62.9 9.637e+03 1.792e-10
 69.63524    -62.2 9.643e+03 1.763e-10
 69.67435    -61.2 9.651e+03 1.751e-10
 69.71346    -60.3 9.675e+03 1.753e-10
 69.75257    -59.2 9.680e+03 1.786e-10
 69.79168    -58.1 9.669e+03 1.861e-10
 69.82603    -56.8 9.662e+03 1.983e-10
 69.84558    -57.6 9.786e+03 2.448e-10
 69.86990    -56.2 9.834e+03 2.405e-10
 69.90901    -54.9 9.894e+03 2.240e-10
 69.94812    -53.6 9.872e+03 2.145e-10
 69.98723    -52.5 9.867e+03 2.073e-10
 70.02634    -51.5 9.837e+03 2.057e-10
 70.06545    -50.5 9.803e+03 2.050e-10
 70.10456    -49.6 9.740e+03 2.083e-10
 70.14367    -48.8 9.742e+03 2.213e-10
 70.18278    -48.1 9.823e+03 2.667e-10
 70.22189    -47.4 9.953e+03 3.543e-10
 70.26100    -46.4 1.008e+04 4.420e-10
 70.30011    -45.5 1.010e+04 4.669e-10
 70.33922    -44.5 9.929e+03 4.167e-10
 70.37833    -43.6 9.635e+03 3.203e-10
 70.41744    -42.7 9.327e+03 2.408e-10
 70.45655    -41.8 9.075e+03 1.873e-10
 70.49566    -40.9 8.933e+03 1.584e-10
 70.53477    -40.1 8.864e+03 1.437e-10
 70.57388    -39.4 8.793e+03 1.347e-10
 70.61299    -38.7 8.706e+03 1.293e-10
 70.65210    -38.0 8.628e+03 1.224e-10
 70.68446    -37.3 8.560e+03 1.171e-10
 70.70402    -37.9 8.709e+03 1.596e-10
 70.73032    -36.9 8.675e+03 1.601e-10
 70.76943    -35.7 8.572e+03 1.524e-10
 70.80854    -34.5 8.520e+03 1.346e-10
 70.84765    -33.3 8.474e+03 1.192e-10
 70.88676    -32.0 8.445e+03 1.142e-10
 70.91940    -30.5 8.422e+03 1.165e-10
 70.93895    -31.0 8.462e+03 1.388e-10
 70.96498    -29.1 8.423e+03 1.413e-10
 71.00409    -27.1 8.417e+03 1.380e-10
 71.04320    -25.0 8.410e+03 1.338e-10
 71.08231    -22.9 8.435e+03 1.297e-10
 71.12142    -20.9 8.467e+03 1.295e-10
 71.16053    -19.1 8.575e+03 1.401e-10
 71.19964    -17.4 8.709e+03 1.712e-10
 71.23875    -15.7 8.863e+03 2.254e-10
 71.27786    -13.8 9.167e+03 3.146e-10
 71.31697    -12.5 9.763e+03 4.436e-10
 71.35608    -12.5 1.062e+04 6.473e-10
 71.39519    -12.9 1.141e+04 1.012e-09
 71.42442    -12.8 1.169e+04 1.291e-09
 71.44388    -12.5 1.164e+04 1.284e-09
 71.46344    -13.5 1.080e+04 1.049e-09
 71.48299    -12.7 1.111e+04 1.037e-09
 71.50255    -13.3 1.101e+04 1.068e-09
 71.52210    -13.3 1.112e+04 1.153e-09
 71.54166    -13.0 1.114e+04 1.220e-09
 71.55248    -10.5 1.175e+04 1.414e-09
 71.56226    -10.6 1.118e+04 8.832e-10
 71.59064    -11.6 1.074e+04 6.421e-10
 71.62985     -9.6 1.007e+04 4.504e-10
 71.66896     -7.7 9.899e+03 3.309e-10
 71.70807     -5.8 9.800e+03 2.517e-10
 71.74718     -3.7 9.639e+03 2.104e-10
 71.78629     -1.3 9.576e+03 1.800e-10
 71.82540      1.0 9.437e+03 1.606e-10
 71.86451      3.3 9.296e+03 1.602e-10
 71.90362      5.2 9.204e+03 1.937e-10
 71.94273      7.2 9.169e+03 2.688e-10
 71.98184      9.5 9.221e+03 3.813e-10
 72.02095     12.1 9.265e+03 4.863e-10
 72.06006     14.8 9.131e+03 4.729e-10
 72.09917     17.4 8.815e+03 3.945e-10
 72.13828     19.1 8.563e+03 3.154e-10
 72.17739     20.3 8.393e+03 2.913e-10
 72.21650     21.4 8.409e+03 3.142e-10
 72.25561     23.2 8.297e+03 3.123e-10
 72.29472     25.4 8.132e+03 3.000e-10
 72.33383     27.6 7.966e+03 2.777e-10
 72.37294     29.8 7.831e+03 2.550e-10
 72.40133     31.8 7.741e+03 2.395e-10
 72.42089     32.9 8.077e+03 2.945e-10
 72.45116     35.0 8.083e+03 2.883e-10
 72.49027     36.8 8.118e+03 2.915e-10
 72.52938     38.3 8.282e+03 3.053e-10
 72.56849     37.8 8.458e+03 3.178e-10
 72.59773     35.9 8.457e+03 3.042e-10
 72.61718     34.4 8.271e+03 2.835e-10
 72.63674     31.5 8.467e+03 3.129e-10
 72.65629     24.2 9.896e+03 5.440e-10
 72.67585     15.9 1.218e+04 1.500e-09
 72.69540     12.9 1.289e+04 2.790e-09
 72.71496     11.9 1.375e+04 3.999e-09
 72.73451      9.5 1.545e+04 4.842e-09
 72.75407      5.0 1.742e+04 4.636e-09
 72.77362      0.8 1.635e+04 3.163e-09
 72.79318     -3.2 1.274e+04 1.733e-09
 72.81273     -3.8 1.124e+04 1.278e-09
 72.84216     -3.6 1.152e+04 8.847e-10
 72.88137     -1.1 1.077e+04 3.674e-10
 72.92048     -0.1 9.458e+03 1.715e-10
 72.95959      1.8 8.492e+03 1.178e-10
 72.99806      4.7 8.389e+03 9.187e-11
 73.01762      4.3 8.411e+03 1.033e-10
 73.03781      7.8 8.456e+03 8.773e-11
 73.07692     10.9 8.569e+03 7.879e-11
 73.11603     13.8 8.628e+03 7.557e-11
 73.15514     16.4 8.776e+03 7.975e-11
 73.19425     18.8 9.043e+03 9.258e-11
 73.23336     21.1 9.289e+03 1.175e-10
 73.25977     23.5 9.452e+03 1.622e-10
 73.27932     23.3 9.646e+03 2.146e-10
 73.31158     25.9 9.819e+03 2.542e-10
 73.35069     28.4 1.012e+04 2.907e-10
 73.37993     28.7 1.041e+04 3.134e-10
 73.39939     30.1 1.046e+04 3.274e-10
 73.41894     30.6 1.092e+04 4.305e-10
 73.43850     31.1 1.106e+04 4.879e-10
 73.46793     33.0 1.157e+04 7.365e-10
 73.49726     32.5 1.196e+04 9.715e-10
 73.51672     33.1 1.223e+04 1.218e-09
 73.53627     33.3 1.278e+04 1.725e-09
 73.55583     33.2 1.361e+04 2.535e-09
 73.57538     32.9 1.440e+04 4.115e-09
 73.59494     33.0 1.536e+04 6.002e-09
 73.61449     33.3 1.587e+04 6.737e-09
 73.63405     33.8 1.596e+04 6.267e-09
 73.65360     33.8 1.588e+04 4.867e-09
 73.67316     32.8 1.525e+04 3.313e-09
 73.68879     30.9 1.375e+04 2.149e-09
 73.69857     32.7 1.528e+04 2.708e-09
 73.71227     30.4 1.359e+04 1.684e-09
 73.73182     28.6 1.204e+04 1.296e-09
 73.75138     28.7 1.168e+04 1.214e-09
 73.77093     28.9 1.167e+04 1.221e-09
 73.79049     29.2 1.169e+04 1.251e-09
 73.81992     29.7 1.139e+04 1.128e-09
 73.85912     31.5 1.079e+04 8.747e-10
 73.89823     33.9 1.021e+04 6.164e-10
 73.93734     36.3 9.643e+03 3.751e-10
 73.97645     38.1 9.279e+03 2.257e-10
 74.01556     40.1 9.484e+03 2.296e-10
 74.05467     42.0 9.750e+03 2.530e-10
 74.09378     44.1 9.921e+03 2.772e-10
 74.11810     45.4 9.998e+03 2.808e-10
 74.13766     45.1 9.741e+03 2.715e-10
 74.16213     45.8 9.701e+03 2.938e-10
 74.18159     46.7 9.709e+03 3.333e-10
 74.20114     47.5 9.947e+03 4.337e-10
 74.22070     48.4 1.032e+04 6.115e-10
 74.24025     49.4 1.076e+04 8.600e-10
 74.25981     50.4 1.118e+04 1.074e-09
 74.27936     50.9 1.155e+04 1.162e-09
 74.29892     50.9 1.184e+04 1.206e-09
 74.31847     50.0 1.232e+04 1.272e-09
 74.33803     47.1 1.323e+04 1.480e-09
 74.35264     42.9 1.392e+04 1.829e-09
 74.36237     41.8 1.356e+04 1.921e-09
 74.37215     40.0 1.372e+04 2.261e-09
 74.38193     39.5 1.372e+04 2.292e-09
 74.39171     38.2 1.392e+04 2.329e-09
 74.40148     37.8 1.390e+04 2.292e-09
 74.41126     36.6 1.402e+04 2.155e-09
 74.42104     36.1 1.406e+04 2.052e-09
 74.43082     34.2 1.424e+04 1.799e-09
 74.44059     33.2 1.420e+04 1.731e-09
 74.45037     30.3 1.447e+04 1.551e-09
 74.46015     29.1 1.435e+04 1.472e-09
 74.46993     26.3 1.435e+04 1.465e-09
 74.47970     25.4 1.418e+04 1.460e-09
 74.48948     23.7 1.421e+04 1.672e-09
 74.49926     23.4 1.430e+04 1.787e-09
 74.50904     22.5 1.459e+04 2.198e-09
 74.51881     22.2 1.510e+04 2.611e-09
 74.52859     19.9 1.913e+04 5.179e-09
 74.53837     21.1 1.923e+04 5.710e-09
 74.54717     20.3 1.993e+04 7.002e-09
 74.55700     23.6 1.755e+04 3.717e-09
 74.57269     23.7 1.832e+04 5.182e-09
 74.59224     24.3 1.915e+04 6.346e-09
 74.61180     24.6 1.991e+04 7.325e-09
 74.63135     24.7 1.971e+04 8.385e-09
 74.65091     24.8 1.890e+04 9.061e-09
 74.67046     25.4 1.803e+04 9.178e-09
 74.69002     26.4 1.703e+04 8.409e-09
 74.70957     27.1 1.680e+04 7.985e-09
 74.72913     28.6 1.643e+04 6.794e-09
 74.74868     29.9 1.609e+04 5.298e-09
 74.76824     30.7 1.587e+04 3.893e-09
 74.78779     31.2 1.576e+04 2.851e-09
 74.80735     31.5 1.547e+04 2.171e-09
 74.82690     31.9 1.484e+04 1.763e-09
 74.84646     32.4 1.407e+04 1.589e-09
 74.86601     33.2 1.358e+04 1.564e-09
 74.88557     34.3 1.336e+04 1.624e-09
 74.90512     36.0 1.325e+04 1.640e-09
 74.92468     37.0 1.335e+04 1.695e-09
 74.94423     38.2 1.330e+04 1.609e-09
 74.96379     39.3 1.309e+04 1.475e-09
 74.97644     40.5 1.282e+04 1.345e-09
 74.98622     40.1 1.284e+04 1.235e-09
 75.00290     41.2 1.255e+04 9.957e-10
 75.02245     42.2 1.238e+04 7.960e-10
 75.04201     42.8 1.233e+04 6.519e-10
 75.06156     43.2 1.218e+04 5.558e-10
 75.08112     43.6 1.195e+04 5.111e-10
 75.09609     44.1 1.173e+04 4.940e-10
 75.10586     44.2 1.148e+04 4.234e-10
 75.12023     44.8 1.123e+04 4.132e-10
 75.13978     45.7 1.101e+04 4.121e-10
 75.15934     46.4 1.103e+04 4.178e-10
 75.17889     47.1 1.109e+04 4.374e-10
 75.19845     47.8 1.113e+04 4.591e-10
 75.21800     48.6 1.110e+04 4.564e-10
 75.23756     49.6 1.106e+04 4.474e-10
 75.25711     50.6 1.105e+04 4.339e-10
 75.27667     51.0 1.104e+04 4.274e-10
 75.29622     52.4 1.088e+04 3.963e-10
 75.31578     53.1 1.083e+04 3.900e-10
 75.33533     54.7 1.077e+04 3.772e-10
 75.35489     55.4 1.078e+04 3.793e-10
 75.38432     57.2 1.083e+04 4.254e-10
 75.42353     59.8 1.073e+04 4.236e-10
 75.46264     62.5 1.066e+04 4.317e-10
 75.50175     65.2 1.054e+04 4.396e-10
 75.54086     68.1 1.050e+04 4.401e-10
 75.57997     70.8 1.055e+04 4.509e-10
 75.61908     73.4 1.060e+04 4.586e-10
 75.64831     75.5 1.061e+04 4.471e-10
 75.66777     76.2 1.062e+04 4.501e-10
 75.68733     77.7 1.054e+04 4.524e-10
 75.70688     78.8 1.052e+04 4.568e-10
 75.72644     80.3 1.047e+04 4.725e-10
 75.74599     81.8 1.050e+04 5.066e-10
 75.76555     83.3 1.058e+04 5.513e-10
 75.78510     84.6 1.067e+04 6.040e-10
 75.80466     85.8 1.075e+04 6.629e-10
 75.82421     86.8 1.083e+04 7.275e-10
 75.83487     88.0 1.095e+04 8.079e-10
 75.84465     88.0 1.114e+04 8.715e-10
 75.86332     89.3 1.137e+04 1.009e-09
 75.88288     90.4 1.162e+04 1.160e-09
 75.90243     91.5 1.184e+04 1.307e-09
 75.92199     92.5 1.202e+04 1.442e-09
 75.94154     93.4 1.218e+04 1.563e-09
 75.96110     94.2 1.234e+04 1.673e-09
 75.98065     94.8 1.250e+04 1.785e-09
 76.00021     95.4 1.273e+04 1.914e-09
 76.01976     95.8 1.299e+04 2.064e-09
 76.03932     95.8 1.319e+04 2.239e-09
 76.05887     95.7 1.338e+04 2.480e-09
 76.07843     95.3 1.365e+04 2.850e-09
 76.09798     94.6 1.401e+04 3.416e-09
 76.11754     93.9 1.441e+04 4.185e-09
 76.13542     93.3 1.479e+04 5.029e-09
 76.14519     93.5 1.486e+04 5.208e-09
 76.15665     92.9 1.507e+04 5.650e-09
 76.17620     92.4 1.510e+04 5.659e-09
 76.19576     91.8 1.506e+04 5.556e-09
 76.21531     91.3 1.493e+04 5.190e-09
 76.23487     90.8 1.468e+04 4.646e-09
 76.25431     90.2 1.444e+04 4.182e-09
 76.26409     90.6 1.445e+04 4.400e-09
 76.27398     90.0 1.443e+04 4.298e-09
 76.29353     89.2 1.459e+04 4.449e-09
 76.31309     86.6 1.555e+04 5.492e-09
 76.33264     82.9 1.800e+04 1.001e-08
 76.34726     81.3 1.894e+04 1.388e-08
 76.35699     79.9 2.000e+04 1.992e-08
 76.36676     78.7 2.107e+04 3.198e-08
 76.37654     77.6 2.201e+04 5.171e-08
 76.38632     76.0 2.222e+04 6.128e-08
 76.39610     74.8 2.190e+04 5.859e-08
 76.40588     74.9 2.115e+04 4.639e-08
 76.41565     75.0 2.035e+04 3.225e-08
 76.43037     74.7 1.916e+04 1.770e-08
 76.44997     73.4 1.755e+04 6.811e-09
 76.46953     70.2 1.544e+04 2.872e-09
 76.48908     68.3 1.391e+04 1.803e-09
 76.50864     68.3 1.350e+04 1.570e-09
 76.52819     68.8 1.334e+04 1.484e-09
 76.54775     69.5 1.319e+04 1.430e-09
 76.56730     70.2 1.302e+04 1.370e-09
 76.58686     70.9 1.284e+04 1.320e-09
 76.60641     71.6 1.268e+04 1.293e-09
 76.62597     72.3 1.257e+04 1.291e-09
 76.64552     73.0 1.254e+04 1.295e-09
 76.66508     73.8 1.251e+04 1.327e-09
 76.68353     74.2 1.251e+04 1.354e-09
 76.69341     73.9 1.286e+04 1.648e-09
 76.71416     75.1 1.276e+04 1.662e-09
 76.75327     76.3 1.275e+04 1.772e-09
 76.78250     77.2 1.260e+04 1.717e-09
 76.80196     77.6 1.269e+04 1.834e-09
 76.82152     77.8 1.282e+04 2.006e-09
 76.84107     78.5 1.294e+04 2.210e-09
 76.86063     79.1 1.312e+04 2.482e-09
 76.88018     79.8 1.330e+04 2.763e-09
 76.89974     80.4 1.345e+04 3.056e-09
 76.91929     81.3 1.359e+04 3.334e-09
 76.93885     82.1 1.375e+04 3.629e-09
 76.95840     83.0 1.390e+04 3.853e-09
 76.97796     83.8 1.408e+04 4.055e-09
 76.99751     84.6 1.422e+04 4.177e-09
 77.01707     85.3 1.424e+04 4.154e-09
 77.03662     86.0 1.424e+04 4.038e-09
 77.05618     86.8 1.414e+04 3.811e-09
 77.07573     87.7 1.401e+04 3.535e-09
 77.09529     88.4 1.385e+04 3.254e-09
 77.11275     89.2 1.369e+04 3.005e-09
 77.12252     88.9 1.337e+04 2.573e-09
 77.13440     89.9 1.327e+04 2.441e-09
 77.15395     91.0 1.323e+04 2.345e-09
 77.17351     92.0 1.323e+04 2.307e-09
 77.18453     93.1 1.325e+04 2.192e-09
 77.19430     93.1 1.320e+04 2.328e-09
 77.21262     94.2 1.325e+04 2.289e-09
 77.23217     95.3 1.328e+04 2.137e-09
 77.25173     96.4 1.323e+04 1.907e-09
 77.27128     97.2 1.311e+04 1.647e-09
 77.29084     97.9 1.287e+04 1.409e-09
 77.31039     98.3 1.257e+04 1.230e-09
 77.32995     98.7 1.226e+04 1.140e-09
 77.34950     99.1 1.207e+04 1.113e-09
 77.36906     99.6 1.200e+04 1.120e-09
 77.38861    100.1 1.198e+04 1.140e-09
 77.40817    100.6 1.195e+04 1.166e-09
 77.42772    101.0 1.191e+04 1.174e-09
 77.44728    101.3 1.189e+04 1.164e-09
 77.46683    101.4 1.192e+04 1.200e-09
 77.48639    101.0 1.247e+04 1.386e-09
 77.50594    100.1 1.387e+04 1.861e-09
 77.52550     98.9 1.572e+04 2.938e-09
 77.54196     98.0 1.697e+04 4.447e-09
 77.55169     96.9 1.772e+04 7.297e-09
 77.55962     96.5 1.811e+04 8.218e-09
 77.56940     95.8 1.853e+04 1.003e-08
 77.57918     95.4 1.880e+04 1.213e-08
 77.58895     95.1 1.890e+04 1.425e-08
 77.59873     95.1 1.893e+04 1.560e-08
 77.60851     95.1 1.886e+04 1.651e-08
 77.61829     95.1 1.882e+04 1.649e-08
 77.62806     95.0 1.862e+04 1.595e-08
 77.63784     95.0 1.828e+04 1.412e-08
 77.64762     95.1 1.802e+04 1.281e-08
 77.66234     94.8 1.756e+04 1.050e-08
 77.68194     94.7 1.713e+04 8.196e-09
 77.70149     94.2 1.647e+04 5.898e-09
 77.72105     93.3 1.534e+04 4.023e-09
 77.74060     92.3 1.387e+04 2.807e-09
 77.76016     91.5 1.289e+04 2.190e-09
 77.77971     91.3 1.247e+04 1.954e-09
 77.79927     91.4 1.240e+04 1.932e-09
 77.81882     91.4 1.243e+04 1.939e-09
 77.83838     91.1 1.259e+04 2.013e-09
 77.85793     89.9 1.308e+04 2.345e-09
 77.87749     88.2 1.397e+04 3.401e-09
 77.89704     87.0 1.497e+04 5.536e-09
 77.91660     86.4 1.560e+04 7.773e-09
 77.93615     85.7 1.564e+04 7.906e-09
 77.95571     85.5 1.534e+04 7.097e-09
 77.97118     85.5 1.461e+04 4.938e-09
 77.98096     86.0 1.480e+04 5.097e-09
 77.99482     85.7 1.379e+04 2.609e-09
 78.01437     83.6 1.267e+04 1.314e-09
 78.03393     80.7 1.136e+04 8.979e-10
 78.05348     80.0 1.089e+04 8.393e-10
 78.07304     80.1 1.078e+04 8.186e-10
 78.09259     80.6 1.074e+04 8.084e-10
 78.11215     81.2 1.075e+04 8.038e-10
 78.13170     81.7 1.077e+04 7.983e-10
 78.15126     82.0 1.081e+04 7.862e-10
 78.17081     82.2 1.083e+04 7.660e-10
 78.19037     82.3 1.081e+04 7.422e-10
 78.20992     82.3 1.075e+04 7.185e-10
 78.22386     82.3 1.069e+04 6.989e-10
 78.23364     82.6 1.067e+04 6.953e-10
 78.24903     82.7 1.063e+04 6.834e-10
 78.26859     82.8 1.058e+04 6.609e-10
 78.28815     82.9 1.057e+04 6.350e-10
 78.30770     82.9 1.052e+04 5.866e-10
 78.32726     82.8 1.051e+04 5.687e-10
 78.34681     83.0 1.040e+04 4.984e-10
 78.36637     83.0 1.035e+04 4.691e-10
 78.38592     83.3 1.021e+04 3.962e-10
 78.40040     83.6 1.014e+04 3.596e-10
 78.41027     84.2 1.007e+04 3.331e-10
 78.43500     85.4 9.824e+03 2.346e-10
 78.47411     86.8 9.639e+03 1.692e-10
 78.51322     88.3 9.491e+03 1.326e-10
 78.55233     90.1 9.360e+03 1.182e-10
 78.59144     92.2 9.311e+03 1.162e-10
 78.63055     94.4 9.305e+03 1.162e-10
 78.66966     96.8 9.309e+03 1.172e-10
 78.70877     99.1 9.345e+03 1.200e-10
 78.74788    101.4 9.410e+03 1.256e-10
 78.78699    103.6 9.486e+03 1.365e-10
 78.82610    105.8 9.593e+03 1.571e-10
 78.86521    107.9 9.763e+03 1.920e-10
 78.90432    109.8 9.988e+03 2.443e-10
 78.94343    111.2 1.019e+04 3.087e-10
 78.97267    112.0 1.028e+04 3.576e-10
 78.99213    112.8 1.031e+04 3.937e-10
 79.01168    113.7 1.041e+04 4.665e-10
 79.03124    114.8 1.062e+04 5.813e-10
 79.05079    115.9 1.091e+04 7.214e-10
 79.07035    116.8 1.120e+04 8.647e-10
 79.08990    117.4 1.147e+04 1.005e-09
 79.10946    117.9 1.171e+04 1.147e-09
 79.12901    118.4 1.191e+04 1.295e-09
 79.14857    118.9 1.207e+04 1.444e-09
 79.16812    119.5 1.217e+04 1.574e-09
 79.18768    120.2 1.216e+04 1.645e-09
 79.20723    121.0 1.214e+04 1.650e-09
 79.22679    121.9 1.206e+04 1.630e-09
 79.24634    122.9 1.191e+04 1.535e-09
 79.25883    124.0 1.176e+04 1.381e-09
 79.26590    124.2 1.135e+04 1.014e-09
 79.27297    124.0 1.144e+04 1.034e-09
 79.28545    125.0 1.131e+04 9.090e-10
 79.30501    126.0 1.120e+04 7.961e-10
 79.32456    127.1 1.109e+04 6.969e-10
 79.34412    128.2 1.102e+04 6.145e-10
 79.36367    129.2 1.095e+04 5.475e-10
 79.38323    130.3 1.088e+04 4.982e-10
 79.40278    131.6 1.083e+04 4.560e-10
 79.42234    132.7 1.082e+04 4.349e-10
 79.44189    134.1 1.083e+04 4.228e-10
 79.46145    135.3 1.084e+04 4.230e-10
 79.48100    136.7 1.085e+04 4.279e-10
 79.50056    138.0 1.089e+04 4.353e-10
 79.52011    139.3 1.090e+04 4.460e-10
 79.53967    140.6 1.092e+04 4.642e-10
 79.55922    142.0 1.095e+04 4.957e-10
 79.57878    143.5 1.107e+04 5.479e-10
 79.59833    144.9 1.130e+04 6.250e-10
 79.61789    146.0 1.157e+04 7.294e-10
 79.63744    147.0 1.188e+04 8.648e-10
 79.65700    148.0 1.222e+04 1.038e-09
 79.67655    149.0 1.262e+04 1.265e-09
 79.68805    149.8 1.308e+04 1.576e-09
 79.69783    149.3 1.295e+04 1.322e-09
 79.71566    149.2 1.348e+04 1.785e-09
 79.73522    149.1 1.411e+04 2.568e-09
 79.75477    148.6 1.491e+04 4.052e-09
 79.77433    148.3 1.591e+04 6.680e-09
 79.79388    148.2 1.688e+04 1.025e-08
 79.81344    147.7 1.750e+04 1.207e-08
 79.83299    146.1 1.746e+04 1.171e-08
 79.85255    145.3 1.686e+04 9.260e-09
 79.87210    145.4 1.578e+04 5.168e-09
 79.89166    145.3 1.439e+04 2.282e-09
 79.92109    143.9 1.237e+04 5.624e-10
 79.96030    141.8 1.100e+04 1.588e-10
 79.99941    141.7 1.040e+04 1.491e-10
 80.03852    142.8 1.024e+04 1.493e-10
 80.07763    145.1 1.020e+04 1.526e-10
 80.10769    147.5 1.016e+04 1.660e-10
 80.12724    147.8 1.022e+04 1.797e-10
 80.15585    149.9 1.025e+04 1.950e-10
 80.19496    151.8 1.033e+04 2.143e-10
 80.23407    153.5 1.043e+04 2.372e-10
 80.27318    155.0 1.051e+04 2.666e-10
 80.31229    156.5 1.059e+04 3.070e-10
 80.35140    157.9 1.066e+04 3.611e-10
 80.39051    159.2 1.076e+04 4.202e-10
 80.42962    160.4 1.086e+04 4.651e-10
 80.46873    161.5 1.091e+04 4.695e-10
 80.50784    162.6 1.091e+04 4.592e-10
 80.54695    163.7 1.087e+04 4.170e-10
 80.58606    165.0 1.079e+04 3.536e-10
 80.62517    166.5 1.070e+04 2.948e-10
 80.66428    168.1 1.061e+04 2.666e-10
 80.70339    170.0 1.059e+04 2.661e-10
 80.74250    172.1 1.061e+04 2.734e-10
 80.78161    174.1 1.072e+04 3.031e-10
 80.82072    176.2 1.099e+04 3.718e-10
 80.85983    177.4 1.123e+04 4.718e-10
 80.88906    178.4 1.154e+04 6.412e-10
 80.90852    179.1 1.170e+04 7.476e-10
 80.92808    179.9 1.199e+04 9.367e-10
 80.94763    180.6 1.222e+04 1.086e-09
 80.96592    181.3 1.253e+04 1.291e-09
 80.98558    182.0 1.263e+04 1.368e-09
 81.01627    182.9 1.306e+04 1.586e-09
 81.05538    183.3 1.311e+04 1.568e-09
 81.09449    183.7 1.301e+04 1.401e-09
 81.13360    184.5 1.270e+04 1.063e-09
 81.17271    185.4 1.234e+04 7.287e-10
 81.21182    186.5 1.196e+04 5.006e-10
 81.25093    187.9 1.162e+04 4.141e-10
 81.29004    189.8 1.156e+04 4.086e-10
 81.32915    191.9 1.156e+04 4.105e-10
 81.35183    194.1 1.160e+04 4.359e-10
 81.37138    194.0 1.156e+04 4.020e-10
 81.40737    196.0 1.169e+04 4.606e-10
 81.44648    197.7 1.184e+04 5.378e-10
 81.48559    199.2 1.195e+04 5.858e-10
 81.52470    200.2 1.196e+04 5.818e-10
 81.56381    201.2 1.191e+04 5.528e-10
 81.60292    202.1 1.175e+04 4.659e-10
 81.64203    203.0 1.152e+04 3.526e-10
 81.68114    204.0 1.117e+04 2.626e-10
 81.72025    205.1 1.072e+04 2.328e-10
 81.75936    206.3 1.064e+04 2.314e-10
 81.79847    207.6 1.062e+04 2.336e-10
 81.82455    208.8 1.058e+04 2.571e-10
 81.84411    208.7 1.069e+04 2.754e-10
 81.87669    209.8 1.071e+04 3.431e-10
 81.91580    210.5 1.079e+04 4.385e-10
 81.95491    210.5 1.092e+04 5.571e-10
 81.99402    210.5 1.113e+04 6.802e-10
 82.02325    210.0 1.123e+04 7.467e-10
 82.04271    209.5 1.133e+04 7.981e-10
 82.06227    208.7 1.141e+04 8.367e-10
 82.08182    207.8 1.143e+04 8.629e-10
 82.10138    206.6 1.140e+04 8.533e-10
 82.12093    205.4 1.132e+04 8.264e-10
 82.14049    204.1 1.125e+04 8.118e-10
 82.16004    202.7 1.126e+04 8.155e-10
 82.17960    201.1 1.134e+04 8.539e-10
 82.19915    199.0 1.163e+04 1.032e-09
 82.21871    196.6 1.241e+04 1.537e-09
 82.23826    194.4 1.346e+04 2.576e-09
 82.25358    192.8 1.445e+04 4.194e-09
 82.26335    192.9 1.427e+04 3.915e-09
 82.27737    191.8 1.507e+04 5.654e-09
 82.29693    190.4 1.550e+04 6.113e-09
 82.31648    188.5 1.547e+04 5.938e-09
 82.33604    186.8 1.514e+04 4.930e-09
 82.35559    185.3 1.425e+04 3.269e-09
 82.38502    183.3 1.235e+04 1.307e-09
 82.42423    180.6 9.822e+03 5.087e-10
 82.46334    180.0 9.468e+03 4.201e-10
 82.50245    180.2 9.367e+03 4.074e-10
 82.54156    181.1 9.318e+03 4.026e-10
 82.58067    182.3 9.289e+03 3.985e-10
 82.61978    183.3 9.254e+03 3.890e-10
 82.65889    184.1 9.202e+03 3.731e-10
 82.68299    184.6 9.101e+03 3.459e-10
 82.70254    185.2 9.736e+03 5.139e-10
 82.73711    185.4 9.522e+03 4.425e-10
 82.77622    185.6 9.212e+03 3.550e-10
 82.81533    185.8 8.884e+03 2.790e-10
 82.85444    185.9 8.627e+03 2.308e-10
 82.89355    186.1 8.462e+03 2.081e-10
 82.93266    186.5 8.420e+03 2.058e-10
 82.97177    186.8 8.424e+03 2.070e-10
 83.01088    187.2 8.457e+03 2.153e-10
 83.04999    187.7 8.579e+03 2.418e-10
 83.08910    188.3 8.775e+03 2.857e-10
 83.12821    188.8 9.037e+03 3.473e-10
 83.16732    189.3 9.389e+03 4.373e-10
 83.20643    189.7 9.793e+03 5.610e-10
 83.24554    189.9 1.017e+04 6.926e-10
 83.28465    189.9 1.030e+04 7.176e-10
 83.32376    189.7 1.030e+04 7.005e-10
 83.36287    189.2 1.025e+04 6.160e-10
 83.40198    188.6 1.008e+04 4.931e-10
 83.43049    187.9 9.880e+03 3.918e-10
 83.45005    188.0 9.560e+03 2.849e-10
 83.48020    187.4 9.544e+03 2.540e-10
 83.51931    187.1 9.558e+03 2.554e-10
 83.54142    187.1 9.682e+03 2.660e-10
 83.56098    187.9 9.622e+03 2.518e-10
 83.59753    188.1 9.945e+03 2.842e-10
 83.63664    188.3 1.026e+04 3.114e-10
 83.67575    188.4 1.049e+04 3.282e-10
 83.71486    188.3 1.052e+04 3.238e-10
 83.75397    187.6 1.052e+04 3.125e-10
 83.79308    186.3 1.055e+04 2.986e-10
 83.83219    185.0 1.062e+04 2.984e-10
 83.86143    183.5 1.080e+04 3.272e-10
 83.88089    182.1 1.094e+04 3.949e-10
 83.90044    180.8 1.107e+04 5.193e-10
 83.92000    179.7 1.131e+04 7.159e-10
 83.93955    178.7 1.176e+04 1.004e-09
 83.95911    177.6 1.242e+04 1.392e-09
 83.97044    176.0 1.324e+04 1.861e-09
 83.98022    177.1 1.262e+04 1.444e-09
 83.99822    175.1 1.337e+04 1.833e-09
 84.01777    172.5 1.402e+04 2.220e-09
 84.03733    169.6 1.429e+04 2.444e-09
 84.05688    166.6 1.425e+04 2.444e-09
 84.07644    163.9 1.403e+04 2.346e-09
 84.09599    161.5 1.368e+04 2.128e-09
 84.11555    159.0 1.364e+04 2.050e-09
 84.13510    156.0 1.375e+04 2.128e-09
 84.15466    152.3 1.444e+04 2.475e-09
 84.17421    148.8 1.539e+04 3.491e-09
 84.19377    146.2 1.599e+04 4.676e-09
 84.21332    144.0 1.607e+04 4.888e-09
 84.23288    142.2 1.587e+04 4.594e-09
 84.25243    140.7 1.526e+04 3.583e-09
 84.27199    139.1 1.434e+04 2.376e-09
 84.29154    137.1 1.318e+04 1.490e-09
 84.31110    135.2 1.201e+04 9.898e-10
 84.33065    134.0 1.119e+04 7.446e-10
 84.35021    133.7 1.076e+04 6.214e-10
 84.36976    133.8 1.058e+04 5.495e-10
 84.38932    134.0 1.046e+04 5.030e-10
 84.39966    134.2 1.029e+04 4.517e-10
 84.41931    135.5 1.032e+04 4.626e-10
 84.45795    136.0 1.010e+04 4.003e-10
 84.49706    136.6 9.967e+03 3.789e-10
 84.53617    137.7 1.002e+04 4.018e-10
 84.57529    139.0 1.012e+04 4.485e-10
 84.61440    140.3 1.015e+04 4.851e-10
 84.65351    141.9 1.010e+04 4.813e-10
 84.69262    143.5 9.908e+03 4.355e-10
 84.73173    145.3 9.606e+03 3.545e-10
 84.77084    147.1 9.280e+03 2.716e-10
 84.80995    148.9 8.982e+03 2.105e-10
 84.84906    150.7 8.792e+03 1.803e-10
 84.88817    152.7 8.737e+03 1.715e-10
 84.92728    154.9 8.736e+03 1.741e-10
 84.96639    157.1 8.766e+03 1.842e-10
 85.00550    159.3 8.893e+03 2.029e-10
 85.04461    161.3 9.117e+03 2.359e-10
 85.08372    163.3 9.393e+03 2.841e-10
 85.12283    165.0 9.668e+03 3.443e-10
 85.16194    166.1 9.879e+03 3.996e-10
 85.20105    166.9 1.000e+04 4.222e-10
 85.23028    167.8 1.003e+04 4.320e-10
 85.24832    168.6 1.006e+04 4.319e-10
 85.25819    168.8 1.007e+04 3.968e-10
 85.27927    169.8 1.004e+04 3.728e-10
 85.31838    170.8 1.001e+04 3.634e-10
 85.35749    171.8 1.004e+04 3.642e-10
 85.39660    172.4 1.007e+04 3.696e-10
 85.42583    173.5 1.023e+04 4.305e-10
 85.44529    174.0 1.038e+04 4.924e-10
 85.46484    174.2 1.054e+04 5.853e-10
 85.48440    174.2 1.071e+04 7.084e-10
 85.50395    174.3 1.092e+04 8.654e-10
 85.51874    174.3 1.118e+04 1.053e-09
 85.52852    174.6 1.157e+04 1.237e-09
 85.54306    174.4 1.193e+04 1.535e-09
 85.56262    174.2 1.230e+04 1.819e-09
 85.58217    173.8 1.260e+04 1.921e-09
 85.60173    173.0 1.261e+04 1.895e-09
 85.62128    172.0 1.248e+04 1.678e-09
 85.64084    171.5 1.222e+04 1.465e-09
 85.67027    171.0 1.206e+04 1.224e-09
 85.70948    170.0 1.075e+04 6.452e-10
 85.74859    169.6 9.357e+03 3.336e-10
 85.78770    169.5 8.638e+03 2.264e-10
 85.82681    169.9 8.618e+03 2.226e-10
 85.86592    170.8 8.609e+03 2.250e-10
 85.90503    172.1 8.613e+03 2.398e-10
 85.94414    173.3 8.668e+03 2.652e-10
 85.98325    174.5 8.693e+03 2.786e-10
 86.02236    175.4 8.679e+03 2.778e-10
 86.06147    176.4 8.605e+03 2.685e-10
 86.09717    177.4 8.467e+03 2.473e-10
 86.11672    178.7 8.722e+03 2.852e-10
 86.13969    179.7 8.546e+03 2.558e-10
 86.17880    180.7 8.363e+03 2.269e-10
 86.21791    181.9 8.203e+03 2.042e-10
 86.25702    183.1 8.070e+03 1.878e-10
 86.29613    184.5 7.955e+03 1.760e-10
 86.33524    186.1 7.852e+03 1.685e-10
 86.37435    187.8 7.833e+03 1.667e-10
 86.41346    189.5 7.830e+03 1.679e-10
 86.45257    191.2 7.835e+03 1.729e-10
 86.49168    192.9 7.860e+03 1.815e-10
 86.53079    194.5 7.887e+03 1.909e-10
 86.56990    196.1 7.916e+03 1.983e-10
 86.60901    197.5 7.956e+03 2.052e-10
 86.64812    198.9 7.997e+03 2.113e-10
 86.68723    200.0 8.008e+03 2.133e-10
 86.72634    200.9 8.004e+03 2.127e-10
 86.76545    201.5 7.974e+03 2.103e-10
 86.80456    202.1 7.945e+03 2.088e-10
 86.84367    202.7 7.962e+03 2.115e-10
 86.88278    203.2 8.106e+03 2.310e-10
 86.92189    203.3 8.436e+03 2.821e-10
 86.95112    202.8 8.633e+03 3.197e-10
 86.96519    202.4 8.850e+03 3.651e-10
 86.97496    202.0 8.850e+03 3.705e-10
 86.99014    201.5 9.213e+03 4.592e-10
 87.00969    200.7 9.734e+03 6.118e-10
 87.02925    199.5 1.038e+04 8.434e-10
 87.04880    197.9 1.115e+04 1.173e-09
 87.06836    196.1 1.192e+04 1.590e-09
 87.08791    193.9 1.253e+04 1.911e-09
 87.10747    191.3 1.271e+04 1.942e-09
 87.12702    188.6 1.269e+04 1.907e-09
 87.14658    186.0 1.264e+04 1.849e-09
 87.16613    183.6 1.266e+04 1.864e-09
 87.18569    181.0 1.290e+04 2.033e-09
 87.20524    178.2 1.377e+04 2.852e-09
 87.22480    175.9 1.541e+04 5.163e-09
 87.24435    174.7 1.706e+04 9.726e-09
 87.26391    173.6 1.832e+04 1.516e-08
 87.28346    171.7 1.879e+04 1.648e-08
 87.30302    169.7 1.871e+04 1.566e-08
 87.32257    168.1 1.828e+04 1.239e-08
 87.34213    166.2 1.776e+04 8.594e-09
 87.36168    163.4 1.731e+04 5.790e-09
 87.38124    159.8 1.679e+04 4.370e-09
 87.39440    156.4 1.618e+04 3.761e-09
 87.40418    155.4 1.353e+04 1.231e-09
 87.42035    153.1 1.295e+04 1.186e-09
 87.43990    151.8 1.270e+04 1.185e-09
 87.45946    151.0 1.252e+04 1.200e-09
 87.47901    150.3 1.233e+04 1.238e-09
 87.49857    149.6 1.214e+04 1.270e-09
 87.51812    149.0 1.200e+04 1.309e-09
 87.53768    148.3 1.196e+04 1.367e-09
 87.55723    147.8 1.195e+04 1.409e-09
 87.57679    147.3 1.194e+04 1.404e-09
 87.59634    146.8 1.189e+04 1.374e-09
 87.60718    146.4 1.178e+04 1.314e-09
 87.61696    146.7 1.204e+04 1.461e-09
 87.63545    146.4 1.185e+04 1.338e-09
 87.65501    146.1 1.162e+04 1.183e-09
 87.67456    145.8 1.139e+04 1.032e-09
 87.69412    145.4 1.123e+04 9.227e-10
 87.71367    145.1 1.121e+04 9.027e-10
 87.73323    145.0 1.125e+04 9.103e-10
 87.75278    144.6 1.146e+04 9.710e-10
 87.77234    143.4 1.220e+04 1.237e-09
 87.79189    141.5 1.370e+04 2.044e-09
 87.81145    139.7 1.515e+04 3.777e-09
 87.82362    138.4 1.648e+04 6.791e-09
 87.83340    139.0 1.628e+04 6.186e-09
 87.85056    137.5 1.785e+04 1.147e-08
 87.86518    136.7 1.867e+04 1.574e-08
 87.87490    135.9 1.938e+04 2.088e-08
 87.88468    135.1 2.015e+04 3.118e-08
 87.89446    134.5 2.072e+04 4.501e-08
 87.90424    133.9 2.110e+04 5.285e-08
 87.91401    133.1 2.112e+04 5.217e-08
 87.92379    132.4 2.098e+04 4.546e-08
 87.93357    131.9 2.057e+04 3.396e-08
 87.94828    131.6 1.944e+04 1.999e-08
 87.96789    130.6 1.727e+04 7.802e-09
 87.98744    128.3 1.412e+04 2.833e-09
 88.00700    126.0 1.171e+04 1.331e-09
 88.02655    124.5 1.075e+04 8.528e-10
 88.04611    124.1 1.078e+04 7.869e-10
 88.06566    124.2 1.073e+04 7.492e-10
 88.08522    124.5 1.061e+04 7.033e-10
 88.10477    124.9 1.053e+04 6.683e-10
 88.12433    125.4 1.056e+04 6.622e-10
 88.14388    125.5 1.063e+04 6.744e-10
 88.16344    125.4 1.104e+04 7.509e-10
 88.18299    124.9 1.177e+04 9.480e-10
 88.20255    124.4 1.250e+04 1.283e-09
 88.22210    124.0 1.314e+04 1.767e-09
 88.24166    123.9 1.368e+04 2.376e-09
 88.25284    124.0 1.417e+04 3.053e-09
 88.26262    124.6 1.281e+04 1.475e-09
 88.28077    124.6 1.319e+04 1.760e-09
 88.30032    124.7 1.348e+04 1.978e-09
 88.31988    124.7 1.359e+04 2.080e-09
 88.33943    124.8 1.358e+04 2.064e-09
 88.35899    125.1 1.346e+04 1.961e-09
 88.37854    125.3 1.319e+04 1.773e-09
 88.39810    125.5 1.283e+04 1.572e-09
 88.41765    125.8 1.244e+04 1.430e-09
 88.43721    126.1 1.214e+04 1.366e-09
 88.45676    126.6 1.209e+04 1.366e-09
 88.47632    127.1 1.211e+04 1.388e-09
 88.49587    127.5 1.227e+04 1.491e-09
 88.51543    127.6 1.254e+04 1.687e-09
 88.53498    127.7 1.286e+04 1.971e-09
 88.55454    127.9 1.321e+04 2.348e-09
 88.57409    128.2 1.358e+04 2.769e-09
 88.59365    128.6 1.378e+04 2.996e-09
 88.61321    128.7 1.377e+04 2.983e-09
 88.63276    128.9 1.366e+04 2.848e-09
 88.64651    129.0 1.339e+04 2.514e-09
 88.65629    129.0 1.337e+04 2.480e-09
 88.67187    129.3 1.298e+04 2.062e-09
 88.68205    129.4 1.257e+04 1.660e-09
 88.69183    129.8 1.286e+04 2.005e-09
 88.71098    129.9 1.239e+04 1.548e-09
 88.73054    129.9 1.191e+04 1.184e-09
 88.75009    129.8 1.144e+04 9.185e-10
 88.76965    129.8 1.102e+04 7.419e-10
 88.78920    129.8 1.065e+04 6.259e-10
 88.80876    129.9 1.039e+04 5.507e-10
 88.82831    130.3 1.021e+04 4.742e-10
 88.84787    130.6 1.008e+04 4.178e-10
 88.87730    131.2 9.804e+03 3.381e-10
 88.91650    132.4 9.567e+03 2.949e-10
 88.95561    133.5 9.586e+03 2.983e-10
 88.99472    134.5 9.693e+03 3.255e-10
 89.03383    135.3 9.848e+03 3.840e-10
 89.06307    136.0 9.943e+03 4.387e-10
 89.08253    136.5 1.004e+04 4.715e-10
 89.10149    136.9 1.005e+04 4.708e-10
 89.11127    137.4 9.980e+03 4.567e-10
 89.12164    137.4 9.978e+03 4.542e-10
 89.15107    137.4 9.903e+03 4.088e-10
 89.19027    138.1 9.750e+03 3.582e-10
 89.22938    139.1 9.506e+03 2.985e-10
 89.26849    140.1 9.322e+03 2.617e-10
 89.30760    141.3 9.329e+03 2.616e-10
 89.34671    142.5 9.452e+03 2.776e-10
 89.38582    143.4 9.676e+03 3.192e-10
 89.41506    143.9 9.811e+03 3.530e-10
 89.43452    144.2 1.008e+04 4.225e-10
 89.45407    144.4 1.050e+04 5.641e-10
 89.47363    144.6 1.095e+04 7.668e-10
 89.49318    144.8 1.133e+04 1.012e-09
 89.51274    145.0 1.161e+04 1.248e-09
 89.53071    145.2 1.179e+04 1.421e-09
 89.54049    145.9 1.193e+04 1.496e-09
 89.55185    146.2 1.205e+04 1.601e-09
 89.57140    146.4 1.207e+04 1.549e-09
 89.59096    146.5 1.205e+04 1.414e-09
 89.61051    146.3 1.201e+04 1.227e-09
 89.63007    145.4 1.198e+04 1.065e-09
 89.64962    144.0 1.201e+04 1.013e-09
 89.66918    142.4 1.203e+04 1.037e-09
 89.68584    140.6 1.220e+04 1.174e-09
 89.69562    141.4 1.303e+04 1.544e-09
 89.70829    139.5 1.335e+04 1.822e-09
 89.72784    138.0 1.366e+04 2.238e-09
 89.74740    136.7 1.388e+04 2.706e-09
 89.76695    135.4 1.412e+04 3.182e-09
 89.78651    134.3 1.435e+04 3.601e-09
 89.80606    133.4 1.441e+04 3.785e-09
 89.82562    132.6 1.438e+04 3.781e-09
 89.84517    132.1 1.423e+04 3.635e-09
 89.86473    131.8 1.406e+04 3.321e-09
 89.88428    131.6 1.386e+04 3.002e-09
 89.90384    131.4 1.372e+04 2.826e-09
 89.92339    131.3 1.374e+04 2.699e-09
 89.94295    130.9 1.377e+04 2.587e-09
 89.95993    130.4 1.380e+04 2.526e-09
 89.96971    130.7 1.479e+04 3.691e-09
 89.98206    129.9 1.491e+04 3.671e-09
 90.00161    128.9 1.498e+04 3.659e-09
 90.02117    127.4 1.504e+04 3.692e-09
 90.04072    125.6 1.511e+04 3.789e-09
 90.06028    123.8 1.516e+04 3.940e-09
 90.07983    122.4 1.519e+04 4.062e-09
 90.09939    121.3 1.516e+04 4.046e-09
 90.11894    120.4 1.498e+04 3.853e-09
 90.13850    119.9 1.459e+04 3.364e-09
 90.15805    119.6 1.398e+04 2.703e-09
 90.17761    119.3 1.322e+04 2.080e-09
 90.19716    118.8 1.248e+04 1.614e-09
 90.21672    118.4 1.186e+04 1.311e-09
 90.23627    118.2 1.144e+04 1.154e-09
 90.25583    118.4 1.136e+04 1.131e-09
 90.27538    118.8 1.138e+04 1.141e-09
 90.29494    119.3 1.146e+04 1.189e-09
 90.31449    119.3 1.162e+04 1.277e-09
 90.33405    119.1 1.194e+04 1.451e-09
 90.35360    117.8 1.296e+04 2.012e-09
 90.37316    115.7 1.453e+04 3.287e-09
 90.38915    113.9 1.548e+04 4.450e-09
 90.39892    113.0 1.559e+04 4.348e-09
 90.40733    111.1 1.624e+04 5.160e-09
 90.41706    108.9 1.705e+04 6.514e-09
 90.42684    105.9 1.817e+04 8.633e-09
 90.43661    101.5 2.021e+04 1.296e-08
 90.44639     94.8 2.319e+04 2.115e-08
 90.45617     84.9 2.767e+04 3.731e-08
 90.46595     73.6 3.028e+04 6.748e-08
 90.47572     62.9 2.945e+04 9.190e-08
 90.48550     54.9 2.864e+04 8.127e-08
 90.49528     49.4 2.658e+04 5.782e-08
 90.50506     45.5 2.423e+04 3.409e-08
 90.51483     41.6 2.202e+04 1.855e-08
 90.52461     38.7 2.031e+04 1.129e-08
 90.53439     34.8 1.889e+04 6.800e-09
 90.54910     28.5 1.791e+04 4.552e-09
 90.56871     21.7 1.462e+04 2.361e-09
 90.58826     17.7 1.216e+04 1.744e-09
 90.60782     16.8 1.180e+04 1.562e-09
 90.62737     17.3 1.175e+04 1.414e-09
 90.64693     17.8 1.170e+04 1.265e-09
 90.66648     18.1 1.135e+04 1.044e-09
 90.68604     17.8 1.098e+04 8.780e-10
 90.70559     17.3 1.068e+04 7.568e-10
 90.72515     16.7 1.054e+04 7.075e-10
 90.74470     15.4 1.058e+04 7.335e-10
 90.76426     15.3 1.062e+04 7.717e-10
 90.78381     15.2 1.084e+04 8.614e-10
 90.80337     15.5 1.081e+04 8.800e-10
 90.83280     15.8 1.095e+04 9.162e-10
 90.87201     14.3 1.127e+04 1.008e-09
 90.91112     10.6 1.243e+04 1.543e-09
 90.94035      7.6 1.288e+04 1.976e-09
 90.95981      6.8 1.282e+04 1.957e-09
 90.97936      6.5 1.277e+04 1.754e-09
 90.99892      5.0 1.288e+04 1.517e-09
 91.01847      1.3 1.286e+04 1.344e-09
 91.03803     -4.8 1.356e+04 1.744e-09
 91.05758    -10.2 1.503e+04 3.296e-09
 91.07714    -12.2 1.583e+04 5.970e-09
 91.09669    -11.9 1.664e+04 1.015e-08
 91.11625    -10.0 1.715e+04 1.270e-08
 91.13580     -8.7 1.727e+04 1.263e-08
 91.15536     -7.8 1.758e+04 8.989e-09
 91.17492    -11.2 1.806e+04 6.041e-09
 91.19447    -17.7 1.610e+04 3.877e-09
 91.21403    -21.2 1.478e+04 3.375e-09
 91.23358    -21.8 1.467e+04 3.609e-09
 91.24758    -22.0 1.498e+04 3.788e-09
 91.25736    -21.6 1.600e+04 6.015e-09
 91.27269    -21.1 1.647e+04 5.775e-09
 91.29225    -22.3 1.797e+04 5.446e-09
 91.31180    -27.0 2.069e+04 5.662e-09
 91.33136    -32.5 2.233e+04 6.625e-09
 91.35091    -37.3 2.092e+04 8.740e-09
 91.37047    -40.9 1.967e+04 1.099e-08
 91.39002    -43.6 2.042e+04 1.153e-08
 91.40958    -48.0 2.183e+04 8.569e-09
 91.42419    -56.8 1.682e+04 3.343e-09
 91.43392    -59.4 1.537e+04 2.814e-09
 91.44370    -63.0 1.411e+04 2.413e-09
 91.45348    -63.8 1.417e+04 2.473e-09
 91.46819    -65.2 1.429e+04 2.625e-09
 91.48780    -66.6 1.432e+04 2.671e-09
 91.50735    -67.8 1.417e+04 2.610e-09
 91.52691    -68.4 1.380e+04 2.429e-09
 91.54646    -68.6 1.337e+04 2.167e-09
 91.56602    -68.6 1.292e+04 1.830e-09
 91.58557    -68.6 1.250e+04 1.447e-09
 91.60513    -68.8 1.211e+04 1.087e-09
 91.62468    -69.4 1.165e+04 8.157e-10
 91.64424    -70.4 1.119e+04 6.388e-10
 91.66379    -71.2 1.081e+04 5.457e-10
 91.67680    -71.4 1.063e+04 5.182e-10
 91.68657    -71.3 1.053e+04 4.925e-10
 91.70290    -71.1 1.050e+04 4.918e-10
 91.72246    -70.7 1.056e+04 5.114e-10
 91.74201    -70.1 1.066e+04 5.396e-10
 91.76157    -69.4 1.073e+04 5.523e-10
 91.77429    -68.7 1.073e+04 5.544e-10
 91.78406    -68.7 1.089e+04 6.276e-10
 91.80068    -67.9 1.080e+04 6.014e-10
 91.82023    -66.9 1.071e+04 5.573e-10
 91.83979    -65.9 1.064e+04 5.104e-10
 91.85934    -64.9 1.059e+04 4.702e-10
 91.87890    -63.9 1.055e+04 4.327e-10
 91.89845    -63.0 1.050e+04 4.030e-10
 91.92788    -61.4 1.040e+04 3.448e-10
 91.96709    -59.3 1.034e+04 3.068e-10
 92.00620    -57.1 1.023e+04 2.667e-10
 92.04531    -55.1 1.010e+04 2.321e-10
 92.08442    -53.2 9.978e+03 2.055e-10
 92.10621    -51.6 9.920e+03 1.938e-10
 92.12576    -50.4 1.021e+04 2.233e-10
 92.16264    -48.9 1.019e+04 2.146e-10
 92.20175    -48.3 1.032e+04 2.285e-10
 92.23098    -48.6 1.042e+04 2.755e-10
 92.25044    -48.9 1.049e+04 2.999e-10
 92.27000    -49.3 1.065e+04 3.666e-10
 92.28955    -49.5 1.090e+04 4.362e-10
 92.30911    -49.7 1.114e+04 5.126e-10
 92.32866    -50.0 1.133e+04 5.737e-10
 92.34822    -50.3 1.152e+04 6.289e-10
 92.36777    -50.6 1.171e+04 6.835e-10
 92.38733    -51.0 1.190e+04 7.453e-10
 92.40688    -51.3 1.199e+04 8.088e-10
 92.42644    -51.5 1.193e+04 8.686e-10
 92.44599    -51.4 1.183e+04 9.084e-10
 92.46555    -51.2 1.180e+04 8.609e-10
 92.48510    -51.1 1.183e+04 7.985e-10
 92.50466    -51.4 1.196e+04 6.904e-10
 92.52421    -52.3 1.213e+04 5.688e-10
 92.53523    -54.1 1.226e+04 4.992e-10
 92.54501    -58.2 1.250e+04 5.023e-10
 92.56332    -62.4 1.346e+04 7.311e-10
 92.58288    -66.3 1.437e+04 1.404e-09
 92.60243    -68.4 1.511e+04 2.614e-09
 92.62199    -69.0 1.559e+04 4.191e-09
 92.64154    -68.7 1.583e+04 5.446e-09
 92.65616    -68.1 1.590e+04 6.199e-09
 92.66589    -67.7 1.590e+04 6.372e-09
 92.67567    -67.2 1.591e+04 6.375e-09
 92.68544    -66.9 1.584e+04 6.138e-09
 92.70016    -66.7 1.565e+04 5.707e-09
 92.71976    -66.0 1.535e+04 4.234e-09
 92.73932    -65.8 1.519e+04 2.972e-09
 92.75887    -65.8 1.513e+04 2.106e-09
 92.77843    -66.0 1.493e+04 1.593e-09
 92.79798    -66.1 1.454e+04 1.335e-09
 92.81362    -65.5 1.408e+04 1.249e-09
 92.82340    -66.2 1.324e+04 6.853e-10
 92.83709    -64.7 1.274e+04 7.465e-10
 92.85665    -63.3 1.250e+04 8.471e-10
 92.87620    -61.9 1.239e+04 9.444e-10
 92.89576    -60.6 1.233e+04 1.042e-09
 92.91531    -59.1 1.236e+04 1.140e-09
 92.93487    -57.6 1.244e+04 1.228e-09
 92.95442    -56.2 1.250e+04 1.350e-09
 92.96445    -54.9 1.253e+04 1.430e-09
 92.97423    -54.6 1.230e+04 1.201e-09
 92.99353    -53.2 1.235e+04 1.339e-09
 93.01309    -51.9 1.241e+04 1.471e-09
 93.03264    -50.5 1.259e+04 1.605e-09
 93.05220    -49.7 1.289e+04 1.786e-09
 93.07175    -49.7 1.336e+04 2.148e-09
 93.09131    -49.8 1.393e+04 2.815e-09
 93.11086    -49.7 1.471e+04 3.970e-09
 93.13042    -49.5 1.555e+04 5.503e-09
 93.14997    -49.1 1.628e+04 6.771e-09
 93.16953    -48.7 1.660e+04 7.148e-09
 93.18908    -48.3 1.691e+04 6.204e-09
 93.20864    -48.6 1.656e+04 4.010e-09
 93.22819    -50.0 1.558e+04 2.058e-09
 93.24775    -52.1 1.375e+04 9.891e-10
 93.26730    -54.4 1.151e+04 5.510e-10
 93.28686    -55.5 1.031e+04 4.093e-10
 93.30641    -55.7 9.984e+03 3.615e-10
 93.32597    -55.0 9.814e+03 3.456e-10
 93.34552    -53.7 9.778e+03 3.417e-10
 93.36508    -52.4 9.750e+03 3.401e-10
 93.38389    -51.3 9.746e+03 3.409e-10
 93.39367    -51.4 9.745e+03 3.401e-10
 93.41406    -50.6 9.975e+03 3.889e-10
 93.45327    -49.5 1.035e+04 4.371e-10
 93.48251    -49.0 1.043e+04 4.092e-10
 93.50196    -49.7 1.078e+04 5.468e-10
 93.52152    -50.1 1.113e+04 7.639e-10
 93.54107    -50.1 1.156e+04 1.034e-09
 93.57050    -50.3 1.199e+04 1.263e-09
 93.59984    -50.4 1.245e+04 1.545e-09
 93.61929    -51.1 1.271e+04 1.647e-09
 93.63885    -52.4 1.292e+04 1.728e-09
 93.65840    -53.9 1.289e+04 1.680e-09
 93.67796    -55.2 1.268e+04 1.598e-09
 93.69751    -56.1 1.239e+04 1.472e-09
 93.71707    -56.5 1.207e+04 1.276e-09
 93.73663    -56.8 1.175e+04 1.043e-09
 93.75618    -57.3 1.141e+04 8.355e-10
 93.77574    -57.8 1.108e+04 6.813e-10
 93.79529    -58.1 1.074e+04 5.770e-10
 93.81311    -58.3 1.054e+04 5.166e-10
 93.82288    -57.9 1.061e+04 5.454e-10
 93.83440    -57.9 1.050e+04 5.034e-10
 93.85295    -57.8 1.047e+04 4.719e-10
 93.86273    -57.0 1.039e+04 4.724e-10
 93.88339    -56.5 1.028e+04 4.374e-10
 93.92259    -56.0 1.003e+04 3.681e-10
 93.96170    -55.6 1.006e+04 3.528e-10
 94.00081    -55.2 1.025e+04 4.047e-10
 94.03992    -54.4 1.046e+04 5.256e-10
 94.07903    -53.2 1.053e+04 6.126e-10
 94.11814    -51.7 1.043e+04 6.092e-10
 94.15725    -50.0 1.006e+04 4.899e-10
 94.19636    -48.1 9.656e+03 3.602e-10
 94.23547    -46.3 9.385e+03 2.790e-10
 94.27458    -44.5 9.304e+03 2.523e-10
 94.31369    -42.6 9.299e+03 2.481e-10
 94.35280    -40.9 9.492e+03 2.720e-10
 94.39191    -39.5 9.854e+03 3.750e-10
 94.43102    -37.9 1.029e+04 5.554e-10
 94.47013    -36.2 1.078e+04 7.750e-10
 94.50924    -34.7 1.121e+04 9.779e-10
 94.54835    -33.4 1.147e+04 1.091e-09
 94.58746    -32.3 1.150e+04 1.122e-09
 94.62657    -30.9 1.124e+04 1.020e-09
 94.66196    -29.5 1.091e+04 8.454e-10
 94.68151    -29.8 1.080e+04 7.630e-10
 94.70479    -28.4 1.036e+04 5.488e-10
 94.74390    -27.0 1.002e+04 4.076e-10
 94.78301    -25.6 9.834e+03 3.426e-10
 94.82212    -24.0 9.773e+03 3.254e-10
 94.86123    -22.3 9.746e+03 3.268e-10
 94.90035    -20.5 9.818e+03 3.693e-10
 94.93946    -18.7 9.881e+03 4.328e-10
 94.97857    -16.6 9.947e+03 4.892e-10
 95.01768    -14.8 9.935e+03 4.902e-10
 95.05679    -13.5 9.838e+03 4.615e-10
 95.09590    -12.9 9.785e+03 4.589e-10
 95.13501    -12.8 9.943e+03 5.568e-10
 95.17412    -12.4 1.031e+04 7.955e-10
 95.21323    -11.1 1.077e+04 1.054e-09
 95.25234     -9.7 1.105e+04 1.158e-09
 95.29145     -8.6 1.096e+04 9.407e-10
 95.33056     -9.1 1.096e+04 6.934e-10
 95.36967    -11.0 1.138e+04 7.125e-10
 95.39890    -11.4 1.147e+04 6.769e-10
 95.41836    -12.0 1.211e+04 1.050e-09
 95.43791    -12.2 1.250e+04 1.466e-09
 95.45747    -11.8 1.297e+04 2.345e-09
 95.47702    -10.7 1.329e+04 3.061e-09
 95.49658     -9.5 1.344e+04 3.457e-09
 95.51613     -8.6 1.339e+04 3.315e-09
 95.52997     -7.8 1.330e+04 2.906e-09
 95.53975     -7.6 1.281e+04 2.290e-09
 95.56512     -7.1 1.218e+04 1.666e-09
 95.60433     -6.5 1.172e+04 1.328e-09
 95.63356     -6.8 1.141e+04 1.171e-09
 95.65302     -6.7 1.129e+04 1.145e-09
 95.67257     -6.1 1.113e+04 1.130e-09
 95.69213     -5.9 1.104e+04 1.074e-09
 95.71168     -5.7 1.099e+04 1.052e-09
 95.73124     -5.7 1.099e+04 1.045e-09
 95.75079     -5.7 1.100e+04 1.044e-09
 95.77035     -5.7 1.109e+04 1.059e-09
 95.78990     -5.9 1.126e+04 1.098e-09
 95.80946     -6.3 1.147e+04 1.187e-09
 95.82901     -6.7 1.158e+04 1.293e-09
 95.84857     -6.7 1.160e+04 1.411e-09
 95.86812     -6.3 1.159e+04 1.489e-09
 95.88768     -5.5 1.156e+04 1.512e-09
 95.90723     -4.5 1.134e+04 1.468e-09
 95.92679     -3.4 1.102e+04 1.290e-09
 95.94139     -2.4 1.070e+04 1.043e-09
 95.95117     -1.6 1.078e+04 1.059e-09
 95.95919     -1.1 1.045e+04 8.028e-10
 95.96897     -0.4 1.083e+04 1.120e-09
 95.98545      0.1 1.056e+04 9.066e-10
 96.00501      0.4 1.033e+04 7.420e-10
 96.02456      0.6 1.011e+04 6.338e-10
 96.04412      0.9 1.002e+04 5.945e-10
 96.06367      1.3 1.009e+04 6.057e-10
 96.08323      1.3 1.058e+04 6.931e-10
 96.10278      0.8 1.161e+04 9.138e-10
 96.12234     -0.4 1.270e+04 1.275e-09
 96.14189     -1.7 1.342e+04 1.749e-09
 96.16145     -3.1 1.353e+04 2.217e-09
 96.18100     -5.0 1.366e+04 2.672e-09
 96.20056     -6.8 1.454e+04 3.098e-09
 96.22011     -9.6 1.490e+04 3.170e-09
 96.23967    -13.5 1.465e+04 2.612e-09
 96.25922    -17.9 1.345e+04 1.841e-09
 96.27878    -23.6 1.272e+04 1.327e-09
 96.29833    -32.6 1.437e+04 1.203e-09
 96.31789    -45.9 1.801e+04 2.136e-09
 96.33745    -54.9 1.887e+04 5.916e-09
 96.35700    -59.0 1.983e+04 1.270e-08
 96.37656    -62.2 2.093e+04 1.942e-08
 96.38841    -66.2 2.123e+04 2.100e-08
 96.39325    -65.8 2.166e+04 2.448e-08
 96.40090    -67.1 2.147e+04 2.317e-08
 96.41068    -69.6 2.087e+04 1.978e-08
 96.42046    -70.8 2.047e+04 1.723e-08
 96.43517    -73.4 1.942e+04 1.287e-08
 96.45478    -76.6 1.784e+04 8.141e-09
 96.47433    -78.5 1.686e+04 5.800e-09
 96.49389    -80.4 1.559e+04 4.030e-09
 96.51344    -81.9 1.439e+04 3.155e-09
 96.53300    -82.5 1.373e+04 2.736e-09
 96.55255    -82.5 1.352e+04 2.602e-09
 96.57211    -82.3 1.343e+04 2.549e-09
 96.59166    -81.7 1.341e+04 2.537e-09
 96.61122    -81.2 1.350e+04 2.586e-09
 96.63077    -80.7 1.369e+04 2.715e-09
 96.65033    -80.2 1.389e+04 2.881e-09
 96.66988    -79.7 1.415e+04 3.120e-09
 96.68944    -79.3 1.444e+04 3.425e-09
 96.70899    -78.9 1.473e+04 3.772e-09
 96.72855    -78.5 1.501e+04 4.105e-09
 96.74810    -78.2 1.522e+04 4.387e-09
 96.76766    -77.9 1.532e+04 4.541e-09
 96.78721    -77.6 1.534e+04 4.562e-09
 96.80677    -77.2 1.524e+04 4.403e-09
 96.81763    -76.9 1.507e+04 4.074e-09
 96.82740    -76.2 1.504e+04 3.952e-09
 96.84588    -75.9 1.486e+04 3.670e-09
 96.86543    -75.6 1.466e+04 3.341e-09
 96.88499    -75.3 1.433e+04 2.992e-09
 96.90454    -74.9 1.399e+04 2.635e-09
 96.92410    -74.7 1.365e+04 2.306e-09
 96.94365    -74.4 1.336e+04 2.051e-09
 96.96321    -74.0 1.314e+04 1.866e-09
 96.98072    -73.5 1.293e+04 1.708e-09
 96.99050    -73.5 1.374e+04 2.300e-09
 97.00232    -72.9 1.359e+04 2.171e-09
 97.02187    -72.0 1.336e+04 1.970e-09
 97.04143    -71.1 1.307e+04 1.718e-09
 97.06098    -70.3 1.278e+04 1.457e-09
 97.08054    -69.5 1.252e+04 1.218e-09
 97.10009    -69.1 1.228e+04 1.029e-09
 97.11965    -68.9 1.208e+04 9.120e-10
 97.13920    -68.7 1.199e+04 8.759e-10
 97.15876    -68.5 1.203e+04 8.731e-10
 97.17831    -68.4 1.224e+04 9.806e-10
 97.19787    -68.2 1.259e+04 1.212e-09
 97.21742    -67.9 1.310e+04 1.547e-09
 97.23698    -67.9 1.368e+04 1.992e-09
 97.25653    -67.2 1.429e+04 2.260e-09
 97.27609    -67.4 1.486e+04 2.901e-09
 97.29564    -67.7 1.522e+04 3.400e-09
 97.31520    -68.2 1.531e+04 3.518e-09
 97.33475    -69.2 1.517e+04 3.361e-09
 97.35431    -70.6 1.462e+04 2.677e-09
 97.37386    -73.2 1.429e+04 2.054e-09
 97.39342    -76.4 1.459e+04 1.826e-09
 97.41297    -79.6 1.465e+04 1.700e-09
 97.43253    -82.7 1.457e+04 1.648e-09
 97.45208    -85.4 1.467e+04 1.781e-09
 97.47164    -87.6 1.500e+04 2.146e-09
 97.49119    -89.6 1.539e+04 2.639e-09
 97.51075    -91.8 1.593e+04 3.266e-09
 97.53030    -94.2 1.664e+04 4.028e-09
 97.54986    -96.0 1.729e+04 4.819e-09
 97.56447    -98.0 1.770e+04 6.212e-09
 97.57420    -99.7 1.816e+04 7.104e-09
 97.58398   -101.3 1.859e+04 8.326e-09
 97.59376   -102.9 1.907e+04 9.580e-09
 97.60354   -104.4 1.956e+04 1.073e-08
 97.61331   -106.1 1.998e+04 1.162e-08
 97.62309   -107.8 2.017e+04 1.204e-08
 97.63287   -109.5 2.017e+04 1.211e-08
 97.64265   -110.8 2.009e+04 1.157e-08
 97.65242   -112.1 1.983e+04 1.073e-08
 97.66623   -113.1 1.933e+04 9.528e-09
 97.67601   -114.8 1.914e+04 8.209e-09
 97.68176   -116.4 1.832e+04 6.359e-09
 97.69153   -117.2 1.799e+04 5.511e-09
 97.70625   -119.4 1.656e+04 3.632e-09
 97.72585   -121.6 1.457e+04 2.107e-09
 97.74541   -123.3 1.295e+04 1.313e-09
 97.76496   -124.3 1.203e+04 9.847e-10
 97.78452   -124.7 1.149e+04 8.333e-10
 97.80407   -124.8 1.115e+04 7.555e-10
 97.82363   -124.3 1.094e+04 7.239e-10
 97.84318   -123.5 1.079e+04 7.038e-10
 97.86274   -122.7 1.069e+04 6.895e-10
 97.88229   -122.1 1.065e+04 6.845e-10
 97.90185   -122.0 1.066e+04 6.871e-10
 97.92140   -123.0 1.112e+04 7.220e-10
 97.94096   -127.0 1.306e+04 1.033e-09
 97.96051   -130.8 1.470e+04 1.841e-09
 97.97513   -132.8 1.530e+04 2.796e-09
 97.98486   -133.8 1.562e+04 3.509e-09
 97.99464   -134.8 1.601e+04 4.671e-09
 98.00441   -135.5 1.646e+04 5.907e-09
 98.01419   -136.0 1.697e+04 7.133e-09
 98.02397   -136.6 1.756e+04 8.018e-09
 98.02974   -137.3 1.829e+04 8.565e-09
 98.03462   -139.8 2.205e+04 1.276e-08
 98.04352   -141.0 2.373e+04 1.369e-08
 98.05330   -142.4 2.443e+04 1.392e-08
 98.06308   -143.8 2.442e+04 1.329e-08
 98.07286   -145.1 2.371e+04 1.166e-08
 98.08263   -146.3 2.231e+04 1.014e-08
 98.09241   -147.1 2.100e+04 8.854e-09
 98.10029   -147.4 1.995e+04 7.806e-09
 98.10518   -148.5 1.928e+04 8.147e-09
 98.11197   -148.3 1.889e+04 7.666e-09
 98.12174   -148.1 1.853e+04 7.634e-09
 98.13646   -147.7 1.826e+04 7.971e-09
 98.15606   -145.2 1.745e+04 6.816e-09
 98.17562   -142.6 1.676e+04 5.792e-09
 98.19517   -140.4 1.635e+04 5.053e-09
 98.21473   -138.6 1.599e+04 4.431e-09
 98.23428   -136.9 1.556e+04 3.895e-09
 98.25384   -135.0 1.514e+04 3.514e-09
 98.27339   -133.0 1.494e+04 3.229e-09
 98.29295   -131.2 1.477e+04 3.000e-09
 98.31250   -129.6 1.458e+04 2.769e-09
 98.33206   -127.9 1.438e+04 2.537e-09
 98.35161   -126.3 1.423e+04 2.344e-09
 98.37117   -124.9 1.413e+04 2.182e-09
 98.39072   -123.6 1.407e+04 2.055e-09
 98.41028   -122.4 1.406e+04 2.003e-09
 98.42983   -121.3 1.428e+04 2.060e-09
 98.44939   -120.5 1.460e+04 2.221e-09
 98.46894   -119.8 1.495e+04 2.488e-09
 98.48850   -119.1 1.517e+04 2.930e-09
 98.50805   -118.2 1.535e+04 3.527e-09
 98.52472   -117.1 1.549e+04 4.258e-09
 98.53449   -117.0 1.672e+04 8.864e-09
 98.54716   -115.6 1.686e+04 1.006e-08
 98.56672   -114.0 1.695e+04 1.075e-08
 98.58627   -112.7 1.698e+04 1.055e-08
 98.60583   -111.5 1.671e+04 9.554e-09
 98.62538   -110.1 1.622e+04 8.155e-09
 98.64494   -108.7 1.572e+04 6.818e-09
 98.66449   -107.5 1.528e+04 5.697e-09
 98.68405   -106.6 1.480e+04 4.737e-09
 98.70360   -105.4 1.434e+04 4.006e-09
 98.72316   -104.0 1.406e+04 3.575e-09
 98.74271   -102.9 1.389e+04 3.327e-09
 98.76227   -102.0 1.366e+04 3.113e-09
 98.78182   -100.7 1.341e+04 2.924e-09
 98.80138    -99.3 1.330e+04 2.812e-09
 98.82093    -98.3 1.327e+04 2.744e-09
 98.84049    -97.2 1.323e+04 2.670e-09
 98.86004    -96.1 1.320e+04 2.599e-09
 98.87960    -95.1 1.317e+04 2.528e-09
 98.89916    -94.1 1.310e+04 2.425e-09
 98.91871    -93.1 1.300e+04 2.294e-09
 98.93827    -92.1 1.292e+04 2.160e-09
 98.95393    -91.2 1.297e+04 2.061e-09
 98.96371    -91.4 1.282e+04 1.885e-09
 98.97738    -90.7 1.307e+04 1.958e-09
 98.99693    -90.5 1.362e+04 2.176e-09
 99.01649    -90.7 1.435e+04 2.672e-09
 99.03604    -91.3 1.522e+04 3.641e-09
 99.05560    -91.8 1.607e+04 5.415e-09
 99.06917    -91.7 1.684e+04 8.200e-09
 99.07894    -91.8 1.752e+04 1.115e-08
 99.09471    -90.9 1.796e+04 1.296e-08
 99.11426    -90.1 1.816e+04 1.339e-08
 99.13382    -89.3 1.821e+04 1.293e-08
 99.15337    -88.4 1.794e+04 1.043e-08
 99.16799    -87.7 1.753e+04 8.144e-09
 99.17333    -87.5 1.740e+04 7.316e-09
 99.17822    -87.2 1.771e+04 8.739e-09
 99.18749    -87.1 1.739e+04 6.967e-09
 99.19727    -87.1 1.689e+04 5.634e-09
 99.21199    -87.5 1.612e+04 4.537e-09
 99.23159    -86.7 1.537e+04 4.090e-09
 99.25115    -85.3 1.491e+04 3.928e-09
 99.27070    -84.3 1.484e+04 3.951e-09
 99.29026    -84.5 1.538e+04 5.689e-09
 99.30487    -87.2 2.039e+04 9.005e-09
 99.31460    -90.2 2.296e+04 1.605e-08
 99.32438    -93.1 2.481e+04 3.246e-08
 99.33416    -95.5 2.440e+04 9.625e-08
 99.34393    -97.9 2.378e+04 2.087e-07
 99.35371   -101.7 2.367e+04 2.680e-07
 99.36349   -106.4 2.332e+04 2.683e-07
 99.37327   -108.4 2.252e+04 1.817e-07
 99.38304   -108.6 2.237e+04 8.156e-08
 99.39282   -108.3 2.129e+04 1.472e-08
 99.40754   -110.1 1.852e+04 7.585e-09
 99.42714   -111.2 1.496e+04 3.472e-09
 99.44670   -111.2 1.329e+04 2.036e-09
 99.46625   -110.2 1.188e+04 1.206e-09
 99.48581   -109.3 1.108e+04 8.514e-10
 99.50536   -108.4 1.068e+04 6.891e-10
 99.52492   -107.4 1.046e+04 6.150e-10
 99.54447   -106.3 1.032e+04 5.816e-10
 99.56403   -105.2 1.022e+04 5.656e-10
 99.58358   -104.3 1.015e+04 5.568e-10
 99.60314   -103.4 1.008e+04 5.480e-10
 99.62269   -102.7 1.002e+04 5.386e-10
 99.64225   -102.0 9.941e+03 5.298e-10
 99.66180   -101.5 9.868e+03 5.161e-10
 99.68136   -101.0 9.782e+03 4.817e-10
 99.71079   -100.6 9.618e+03 4.273e-10
 99.74999    -99.9 9.406e+03 3.738e-10
 99.78910    -99.5 9.290e+03 3.370e-10
 99.81256    -99.4 9.149e+03 3.107e-10
 99.83212    -98.6 9.146e+03 3.185e-10
 99.86732    -98.6 9.091e+03 2.994e-10
 99.90643    -98.7 9.086e+03 2.945e-10
 99.94554    -99.0 9.136e+03 2.966e-10
 99.98465    -99.2 9.349e+03 3.420e-10
