# Columns:
#   distance along LOS (in CHIMPs)
#   peculiar velocity  (in km/s)
#   temperature (K)
#   HI number density
# pos=(102.268,176.498,158.648), angles=(1.8632,3.0426)
  0.00156    -49.9 1.265e+04 2.044e-09
  0.00338    -50.7 1.275e+04 1.818e-09
  0.00802    -48.2 1.255e+04 1.919e-09
  0.01801    -49.4 1.270e+04 1.808e-09
  0.03387    -50.9 1.303e+04 1.486e-09
  0.05436    -53.4 1.287e+04 1.142e-09
  0.07238    -55.6 1.187e+04 8.741e-10
  0.08263    -56.8 1.142e+04 8.024e-10
  0.09536    -57.7 1.084e+04 6.864e-10
  0.11586    -57.7 1.062e+04 6.312e-10
  0.13635    -57.7 1.050e+04 5.681e-10
  0.14726    -57.7 1.023e+04 5.079e-10
  0.15751    -58.4 1.008e+04 4.673e-10
  0.17735    -57.6 9.770e+03 4.015e-10
  0.19785    -57.7 9.729e+03 3.971e-10
  0.21198    -56.3 9.581e+03 3.587e-10
  0.23257    -56.1 9.308e+03 3.106e-10
  0.26978    -54.9 8.973e+03 2.469e-10
  0.31078    -53.5 8.643e+03 1.991e-10
  0.34133    -52.4 8.432e+03 1.719e-10
  0.36182    -51.8 8.195e+03 1.343e-10
  0.39277    -50.4 8.059e+03 1.292e-10
  0.41493    -48.8 8.088e+03 1.356e-10
  0.43542    -47.1 8.162e+03 1.439e-10
  0.47058    -45.7 8.292e+03 1.620e-10
  0.49107    -45.4 8.117e+03 1.323e-10
  0.51575    -44.2 8.371e+03 1.690e-10
  0.55674    -43.0 8.728e+03 2.356e-10
  0.59774    -41.6 9.060e+03 3.072e-10
  0.62032    -40.2 9.104e+03 3.166e-10
  0.64082    -39.5 8.731e+03 2.339e-10
  0.67973    -38.3 8.763e+03 2.407e-10
  0.72072    -37.4 8.771e+03 2.431e-10
  0.74957    -36.6 8.788e+03 2.410e-10
  0.77007    -35.5 8.644e+03 2.255e-10
  0.80271    -34.5 8.701e+03 2.385e-10
  0.82627    -33.4 8.723e+03 2.497e-10
  0.84677    -32.3 8.803e+03 2.604e-10
  0.87882    -31.3 8.882e+03 2.748e-10
  0.89932    -30.3 9.027e+03 3.095e-10
  0.92570    -29.5 9.162e+03 3.243e-10
  0.96669    -28.9 9.101e+03 3.014e-10
  1.00769    -28.1 8.888e+03 2.469e-10
  1.02857    -27.3 8.597e+03 1.878e-10
  1.04907    -26.8 8.878e+03 2.473e-10
  1.08968    -25.8 8.555e+03 1.846e-10
  1.13067    -24.6 8.265e+03 1.367e-10
  1.15782    -23.3 8.052e+03 1.043e-10
  1.17832    -22.7 8.158e+03 1.123e-10
  1.21266    -21.4 7.987e+03 8.883e-11
  1.23762    -20.0 7.881e+03 7.922e-11
  1.25812    -19.0 7.939e+03 8.949e-11
  1.28707    -17.3 7.908e+03 9.053e-11
  1.30757    -16.8 7.941e+03 9.412e-11
  1.33564    -14.9 7.918e+03 9.828e-11
  1.37664    -12.9 7.922e+03 9.832e-11
  1.41632    -10.9 7.921e+03 9.382e-11
  1.43682    -10.3 7.923e+03 9.760e-11
  1.45863     -8.4 7.928e+03 8.590e-11
  1.49962     -6.6 7.916e+03 7.307e-11
  1.54062     -4.9 7.878e+03 6.822e-11
  1.56607     -3.1 7.873e+03 6.947e-11
  1.58657     -2.6 7.865e+03 7.061e-11
  1.62261     -0.8 7.870e+03 7.712e-11
  1.64897      1.2 7.949e+03 8.732e-11
  1.66947      2.4 7.913e+03 7.461e-11
  1.69532      4.4 7.988e+03 7.844e-11
  1.71582      4.9 7.919e+03 7.212e-11
  1.74559      6.9 7.987e+03 7.199e-11
  1.78659      8.8 8.032e+03 7.011e-11
  1.82457     10.7 8.113e+03 6.595e-11
  1.84507     11.3 8.096e+03 6.448e-11
  1.86857     13.1 8.153e+03 6.314e-11
  1.90957     14.8 8.170e+03 6.324e-11
  1.95056     16.6 8.211e+03 6.410e-11
  1.97432     18.2 8.254e+03 6.677e-11
  1.99481     18.9 8.254e+03 6.598e-11
  2.03255     20.5 8.299e+03 6.984e-11
  2.06032     22.1 8.381e+03 7.155e-11
  2.08081     23.2 8.374e+03 7.326e-11
  2.10357     24.7 8.389e+03 7.388e-11
  2.12407     25.3 8.472e+03 7.471e-11
  2.15554     26.8 8.535e+03 7.505e-11
  2.19653     28.2 8.571e+03 7.426e-11
  2.23282     29.7 8.633e+03 7.185e-11
  2.25332     30.0 8.803e+03 8.905e-11
  2.27852     31.4 8.880e+03 8.941e-11
  2.31952     32.9 8.895e+03 8.946e-11
  2.36051     34.5 8.894e+03 8.814e-11
  2.38257     36.2 8.882e+03 8.361e-11
  2.40306     36.6 8.996e+03 9.911e-11
  2.44250     38.4 8.959e+03 8.599e-11
  2.47167     40.2 8.933e+03 7.549e-11
  2.49216     41.1 8.913e+03 8.132e-11
  2.51182     42.9 8.929e+03 7.548e-11
  2.53231     43.3 8.950e+03 7.566e-11
  2.56548     45.2 8.974e+03 7.441e-11
  2.60648     47.1 9.002e+03 7.474e-11
  2.64107     49.0 9.055e+03 7.552e-11
  2.66156     49.1 9.174e+03 7.815e-11
  2.68847     50.8 9.388e+03 9.192e-11
  2.72946     52.4 9.588e+03 1.184e-10
  2.77032     53.9 9.796e+03 1.575e-10
  2.81131     55.6 1.019e+04 2.755e-10
  2.85245     57.1 1.038e+04 3.044e-10
  2.88301     58.3 1.040e+04 3.008e-10
  2.90351     59.5 1.059e+04 3.648e-10
  2.92006     60.8 1.058e+04 3.545e-10
  2.94056     60.6 1.064e+04 3.733e-10
  2.97543     61.9 1.057e+04 3.268e-10
  3.01643     63.2 1.047e+04 2.717e-10
  3.04931     64.5 1.041e+04 2.243e-10
  3.06981     64.3 1.046e+04 2.063e-10
  3.09842     65.5 1.042e+04 1.800e-10
  3.13941     66.6 1.055e+04 1.694e-10
  3.17856     67.7 1.056e+04 1.705e-10
  3.19906     67.2 1.058e+04 1.694e-10
  3.22140     68.1 1.064e+04 1.718e-10
  3.26240     69.0 1.066e+04 1.734e-10
  3.29436     69.8 1.065e+04 1.729e-10
  3.31486     71.0 1.071e+04 1.834e-10
  3.32831     71.8 1.068e+04 1.848e-10
  3.34881     70.9 1.086e+04 2.003e-10
  3.38538     71.7 1.080e+04 2.027e-10
  3.42637     72.6 1.078e+04 2.069e-10
  3.45756     73.5 1.079e+04 2.146e-10
  3.47806     72.4 1.086e+04 2.256e-10
  3.50836     73.3 1.085e+04 2.409e-10
  3.54936     74.0 1.089e+04 2.793e-10
  3.58681     74.4 1.092e+04 3.447e-10
  3.60731     73.5 1.092e+04 3.676e-10
  3.63135     74.2 1.095e+04 4.342e-10
  3.66159     74.7 1.101e+04 4.695e-10
  3.67174     74.0 1.101e+04 4.795e-10
  3.68240     73.7 1.101e+04 4.848e-10
  3.70289     73.3 1.089e+04 4.598e-10
  3.71576     73.2 1.082e+04 4.471e-10
  3.72601     73.2 1.097e+04 5.159e-10
  3.73646     73.9 1.075e+04 4.551e-10
  3.75706     73.7 1.062e+04 4.215e-10
  3.79533     74.4 1.024e+04 2.896e-10
  3.83632     74.9 9.966e+03 1.823e-10
  3.86581     75.2 9.766e+03 1.201e-10
  3.88631     74.7 9.790e+03 1.194e-10
  3.91831     75.0 9.782e+03 1.217e-10
  3.95931     75.4 9.799e+03 1.373e-10
  3.99506     75.8 9.944e+03 1.833e-10
  4.01556     75.2 1.024e+04 2.673e-10
  4.04129     75.2 1.049e+04 3.572e-10
  4.08229     74.9 1.066e+04 4.277e-10
  4.11706     74.4 1.072e+04 4.560e-10
  4.13755     74.6 1.075e+04 4.709e-10
  4.14481     74.0 1.077e+04 4.614e-10
  4.16530     72.9 1.080e+04 4.391e-10
  4.19493     72.7 1.083e+04 4.484e-10
  4.20924     71.6 1.096e+04 4.569e-10
  4.21948     70.5 1.096e+04 4.503e-10
  4.24617     70.0 1.084e+04 4.338e-10
  4.27406     69.2 1.047e+04 3.782e-10
  4.29455     68.4 1.039e+04 3.736e-10
  4.32826     68.2 9.999e+03 2.949e-10
  4.36925     68.1 9.626e+03 2.150e-10
  4.40331     68.4 9.311e+03 1.519e-10
  4.42380     68.1 9.324e+03 1.486e-10
  4.45124     68.8 9.092e+03 1.052e-10
  4.49224     69.6 8.937e+03 7.945e-11
  4.52840     70.6 8.799e+03 6.620e-11
  4.54823     71.1 8.794e+03 6.926e-11
  4.55305     71.0 8.783e+03 6.835e-11
  4.57423     72.1 8.683e+03 6.805e-11
  4.61522     73.3 8.682e+03 6.814e-11
  4.65622     74.5 8.695e+03 6.904e-11
  4.68230     75.5 8.830e+03 7.273e-11
  4.70280     75.1 8.959e+03 8.090e-11
  4.73820     76.0 9.025e+03 9.460e-11
  4.77920     76.7 9.097e+03 1.107e-10
  4.81155     77.4 9.157e+03 1.286e-10
  4.83205     76.7 9.280e+03 1.472e-10
  4.86119     77.4 9.325e+03 1.590e-10
  4.90218     78.0 9.388e+03 1.637e-10
  4.93975     78.6 9.420e+03 1.604e-10
  4.95787     78.6 9.518e+03 1.830e-10
  4.96130     77.6 9.554e+03 1.783e-10
  4.98417     77.8 9.601e+03 1.721e-10
  5.02517     77.9 9.595e+03 1.706e-10
  5.06616     77.6 9.727e+03 1.748e-10
  5.09055     77.0 1.004e+04 2.045e-10
  5.11105     75.1 1.041e+04 2.593e-10
  5.14815     74.4 1.080e+04 3.404e-10
  5.18915     73.6 1.114e+04 4.089e-10
  5.21980     72.8 1.132e+04 4.420e-10
  5.24030     71.3 1.119e+04 3.880e-10
  5.27114     70.2 1.105e+04 3.238e-10
  5.31213     69.5 1.089e+04 2.732e-10
  5.34278     69.0 1.091e+04 2.703e-10
  5.35910     67.8 1.103e+04 2.772e-10
  5.36733     65.3 1.135e+04 2.973e-10
  5.37140     65.5 1.130e+04 2.951e-10
  5.38368     59.8 1.294e+04 6.186e-10
  5.40417     55.2 1.453e+04 1.637e-09
  5.42373     52.7 1.516e+04 3.069e-09
  5.43398     51.8 1.617e+04 5.222e-09
  5.44517     50.8 1.591e+04 4.895e-09
  5.46567     50.1 1.523e+04 3.423e-09
  5.48616     48.7 1.469e+04 1.598e-09
  5.49860     45.1 1.405e+04 5.367e-10
  5.50885     42.0 1.363e+04 2.822e-10
  5.52716     37.8 1.161e+04 1.940e-10
  5.55800     37.3 1.056e+04 1.373e-10
  5.59909     37.6 1.012e+04 1.070e-10
  5.62805     38.5 1.017e+04 9.655e-11
  5.64855     37.9 1.019e+04 9.661e-11
  5.68108     38.7 1.025e+04 9.613e-11
  5.72208     39.1 1.042e+04 9.770e-11
  5.75730     39.3 1.074e+04 1.101e-10
  5.77717     38.0 1.090e+04 1.653e-10
  5.78294     37.9 1.090e+04 1.603e-10
  5.80407     37.8 1.090e+04 2.098e-10
  5.84506     36.4 1.148e+04 2.614e-10
  5.87571     29.7 1.377e+04 3.974e-10
  5.89611     26.4 1.526e+04 8.244e-10
  5.90685     24.5 1.767e+04 2.525e-09
  5.91710     21.4 1.812e+04 5.572e-09
  5.93710     19.1 1.838e+04 1.063e-08
  5.95760     17.7 1.833e+04 1.301e-08
  5.97148     17.0 1.782e+04 1.071e-08
  5.98172     16.0 1.707e+04 6.976e-09
  5.99860     11.8 1.591e+04 2.577e-09
  6.01909      5.3 1.377e+04 9.470e-10
  6.03610     -1.3 1.143e+04 6.754e-10
  6.04635     -4.2 1.112e+04 6.639e-10
  6.06009     -6.0 1.119e+04 7.266e-10
  6.08059     -6.8 1.162e+04 9.563e-10
  6.10073     -7.6 1.204e+04 1.160e-09
  6.11098     -9.0 1.237e+04 1.272e-09
  6.12158    -10.5 1.231e+04 1.225e-09
  6.14208    -12.0 1.209e+04 1.134e-09
  6.16258    -13.7 1.214e+04 1.141e-09
  6.17560    -16.3 1.265e+04 1.278e-09
  6.18585    -18.7 1.290e+04 1.355e-09
  6.19410    -22.0 1.367e+04 1.867e-09
  6.20435    -20.7 1.359e+04 1.761e-09
  6.22407    -23.5 1.434e+04 2.595e-09
  6.24023    -25.1 1.431e+04 3.459e-09
  6.25047    -25.6 1.375e+04 2.756e-09
  6.26506    -26.5 1.363e+04 2.623e-09
  6.28556    -27.5 1.342e+04 2.304e-09
  6.30485    -29.1 1.312e+04 1.935e-09
  6.31510    -30.0 1.258e+04 1.471e-09
  6.32655    -31.8 1.234e+04 1.390e-09
  6.34705    -33.5 1.234e+04 1.454e-09
  6.36755    -34.8 1.250e+04 1.665e-09
  6.37972    -35.9 1.288e+04 2.026e-09
  6.38997    -35.8 1.265e+04 1.881e-09
  6.39977    -36.4 1.298e+04 2.241e-09
  6.41002    -37.1 1.390e+04 3.200e-09
  6.42904    -37.8 1.437e+04 3.847e-09
  6.44435    -38.3 1.470e+04 4.241e-09
  6.45460    -37.9 1.444e+04 3.716e-09
  6.47004    -38.9 1.474e+04 3.952e-09
  6.49053    -40.1 1.484e+04 4.031e-09
  6.50897    -41.9 1.504e+04 4.205e-09
  6.51922    -41.7 1.495e+04 4.069e-09
  6.53153    -43.8 1.554e+04 4.616e-09
  6.55203    -45.8 1.635e+04 5.636e-09
  6.57252    -47.0 1.684e+04 6.865e-09
  6.58385    -47.7 1.720e+04 7.960e-09
  6.59410    -47.2 1.677e+04 7.002e-09
  6.60545    -48.6 1.749e+04 8.135e-09
  6.61569    -50.9 1.807e+04 9.243e-09
  6.63401    -57.0 2.044e+04 1.379e-08
  6.64847    -60.4 2.006e+04 1.992e-08
  6.65872    -59.7 1.971e+04 1.669e-08
  6.67501    -60.2 1.894e+04 1.755e-08
  6.69551    -59.3 1.813e+04 1.405e-08
  6.71310    -58.7 1.730e+04 6.518e-09
  6.72335    -58.3 1.690e+04 6.959e-09
  6.73650    -61.9 1.707e+04 2.910e-09
  6.75700    -69.6 1.401e+04 1.108e-09
  6.77750    -74.2 1.132e+04 8.481e-10
  6.78797    -74.9 1.148e+04 9.000e-10
  6.79822    -74.9 1.130e+04 8.423e-10
  6.81112    -75.1 1.146e+04 9.265e-10
  6.82137    -75.2 1.132e+04 8.576e-10
  6.83899    -75.4 1.139e+04 8.573e-10
  6.85260    -75.2 1.097e+04 8.729e-10
  6.86285    -74.9 1.080e+04 7.916e-10
  6.87998    -74.7 1.077e+04 6.831e-10
  6.90048    -74.8 1.068e+04 6.012e-10
  6.91722    -75.0 1.052e+04 5.202e-10
  6.92747    -74.7 1.050e+04 5.177e-10
  6.94147    -74.7 1.026e+04 4.778e-10
  6.96197    -75.0 1.044e+04 3.681e-10
  6.98185    -74.8 1.012e+04 3.924e-10
  6.99210    -74.6 1.022e+04 4.074e-10
  7.00297    -74.6 1.030e+04 4.186e-10
  7.01679    -74.4 1.047e+04 5.118e-10
  7.03739    -74.3 1.068e+04 6.102e-10
  7.07490    -73.9 1.148e+04 9.269e-10
  7.11129    -74.3 1.223e+04 1.368e-09
  7.13179    -74.5 1.228e+04 1.463e-09
  7.15689    -73.9 1.258e+04 1.941e-09
  7.19789    -73.3 1.242e+04 1.749e-09
  7.22256    -72.2 1.187e+04 1.160e-09
  7.23272    -72.2 1.199e+04 1.291e-09
  7.24894    -72.6 1.184e+04 1.232e-09
  7.26094    -72.2 1.152e+04 8.690e-10
  7.28154    -72.1 1.121e+04 7.088e-10
  7.32087    -72.1 1.099e+04 6.169e-10
  7.36187    -71.1 1.088e+04 6.198e-10
  7.39029    -69.5 1.088e+04 6.844e-10
  7.41079    -70.3 1.089e+04 5.694e-10
  7.42824    -70.3 1.202e+04 7.405e-10
  7.43839    -72.2 1.277e+04 1.077e-09
  7.45391    -75.3 1.356e+04 2.167e-09
  7.46497    -77.5 1.465e+04 3.685e-09
  7.47522    -78.3 1.470e+04 3.885e-09
  7.49490    -81.3 1.678e+04 7.050e-09
  7.51540    -83.2 1.830e+04 1.023e-08
  7.52959    -85.5 1.823e+04 1.064e-08
  7.53984    -86.1 1.762e+04 9.564e-09
  7.55122    -87.3 1.634e+04 6.167e-09
  7.56142    -87.7 1.585e+04 5.371e-09
  7.57684    -89.4 1.516e+04 2.784e-09
  7.59422    -93.9 1.259e+04 1.074e-09
  7.60447    -94.4 1.224e+04 8.245e-10
  7.61789    -96.2 1.094e+04 5.206e-10
  7.63381    -96.4 1.075e+04 4.246e-10
  7.64406    -96.7 1.063e+04 3.683e-10
  7.65884    -97.3 1.022e+04 3.080e-10
  7.68969    -97.2 9.937e+03 2.654e-10
  7.73082    -96.8 1.019e+04 3.102e-10
  7.76147    -97.8 1.045e+04 3.539e-10
  7.78187    -98.1 1.049e+04 3.614e-10
  7.79844    -99.4 1.087e+04 5.308e-10
  7.81903    -99.2 1.046e+04 4.089e-10
  7.83959    -98.5 1.078e+04 5.119e-10
  7.84974    -99.1 1.102e+04 6.181e-10
  7.86297   -100.7 1.097e+04 6.053e-10
  7.87322   -100.3 1.071e+04 4.715e-10
  7.88435   -101.3 1.068e+04 4.151e-10
  7.90485   -102.3 1.058e+04 3.808e-10
  7.92535   -103.5 1.032e+04 3.481e-10
  7.93784   -103.6 1.030e+04 3.424e-10
  7.94819   -103.2 1.030e+04 3.232e-10
  7.97679   -104.2 1.029e+04 3.011e-10
  8.01778   -105.6 1.047e+04 2.894e-10
  8.05704   -107.6 1.074e+04 3.407e-10
  8.07753   -105.9 1.062e+04 3.200e-10
  8.08942   -107.9 1.064e+04 4.832e-10
  8.10982   -109.4 1.044e+04 5.736e-10
  8.13032   -109.8 1.049e+04 6.590e-10
  8.14196   -110.2 1.053e+04 7.035e-10
  8.15221   -109.8 1.073e+04 8.069e-10
  8.17132   -110.1 1.074e+04 8.322e-10
  8.19181   -110.6 1.075e+04 8.168e-10
  8.20659   -111.5 1.081e+04 7.963e-10
  8.21684   -110.9 1.109e+04 9.460e-10
  8.23281   -112.5 1.118e+04 9.112e-10
  8.25084   -115.3 1.170e+04 9.891e-10
  8.26108   -116.5 1.104e+04 6.242e-10
  8.27121   -119.3 1.176e+04 9.322e-10
  8.28146   -118.4 1.145e+04 7.858e-10
  8.29430   -121.3 1.217e+04 1.170e-09
  8.31480   -123.5 1.281e+04 1.771e-09
  8.33530   -125.0 1.330e+04 2.441e-09
  8.34609   -126.2 1.360e+04 2.876e-09
  8.35634   -126.0 1.314e+04 2.470e-09
  8.37629   -127.0 1.321e+04 2.626e-09
  8.39679   -128.4 1.314e+04 2.554e-09
  8.41071   -130.0 1.274e+04 2.177e-09
  8.42096   -128.9 1.269e+04 2.193e-09
  8.43778   -130.3 1.221e+04 1.860e-09
  8.45651   -131.2 1.171e+04 1.592e-09
  8.46676   -130.6 1.194e+04 1.683e-09
  8.47534   -130.8 1.151e+04 1.420e-09
  8.48559   -130.1 1.164e+04 1.505e-09
  8.49927   -130.1 1.126e+04 1.225e-09
  8.51977   -129.9 1.092e+04 9.756e-10
  8.53996   -129.8 1.058e+04 7.661e-10
  8.55021   -129.2 1.064e+04 7.975e-10
  8.56077   -129.2 1.028e+04 6.244e-10
  8.58126   -129.1 9.963e+03 4.938e-10
  8.60176   -129.0 9.709e+03 4.146e-10
  8.61493   -128.7 9.534e+03 3.676e-10
  8.63553   -127.4 9.530e+03 3.700e-10
  8.66238   -126.2 9.292e+03 3.059e-10
  8.68288   -126.2 9.069e+03 2.415e-10
  8.71469   -124.8 8.949e+03 2.169e-10
  8.74428   -123.3 8.870e+03 2.030e-10
  8.76478   -122.2 8.852e+03 2.018e-10
  8.79668   -120.6 8.765e+03 1.878e-10
  8.83768   -119.0 8.713e+03 1.762e-10
  8.87353   -117.4 8.704e+03 1.692e-10
  8.89403   -116.1 8.630e+03 1.594e-10
  8.91967   -114.5 8.648e+03 1.561e-10
  8.96066   -112.8 8.673e+03 1.514e-10
  9.00165   -111.0 8.682e+03 1.402e-10
  9.02328   -109.2 8.636e+03 1.207e-10
  9.04378   -107.9 8.598e+03 1.181e-10
  9.07373   -106.2 8.558e+03 9.479e-11
  9.09422   -105.7 8.617e+03 1.056e-10
  9.12464   -104.1 8.601e+03 8.650e-11
  9.15253   -102.6 8.606e+03 7.406e-11
  9.17303   -101.3 8.602e+03 6.782e-11
  9.20663    -99.9 8.618e+03 6.396e-11
  9.24762    -98.4 8.643e+03 6.381e-11
  9.28178    -97.0 8.752e+03 6.829e-11
  9.30228    -95.8 8.764e+03 6.625e-11
  9.32961    -94.4 8.837e+03 7.509e-11
  9.37061    -92.8 8.933e+03 8.127e-11
  9.41103    -91.4 9.024e+03 8.354e-11
  9.43153    -90.1 9.034e+03 8.534e-11
  9.45260    -88.7 9.094e+03 8.532e-11
  9.48507    -87.3 9.175e+03 8.506e-11
  9.50557    -86.5 9.215e+03 8.647e-11
  9.53459    -85.2 9.283e+03 9.264e-11
  9.56078    -83.8 9.300e+03 1.099e-10
  9.58128    -82.6 9.289e+03 1.019e-10
  9.61658    -81.0 9.360e+03 1.216e-10
  9.65757    -79.4 9.508e+03 1.394e-10
  9.69003    -78.1 9.624e+03 1.522e-10
  9.71053    -76.9 9.581e+03 1.388e-10
  9.73956    -75.7 9.612e+03 1.457e-10
  9.78055    -74.2 9.644e+03 1.527e-10
  9.81928    -72.8 9.697e+03 1.518e-10
  9.83978    -71.5 9.577e+03 1.307e-10
  9.86254    -70.1 9.745e+03 1.185e-10
  9.89642    -69.1 9.849e+03 1.188e-10
  9.91692    -68.4 1.012e+04 1.805e-10
  9.94453    -68.0 1.026e+04 2.370e-10
  9.96903    -67.0 1.050e+04 3.713e-10
  9.98952    -65.5 1.029e+04 2.890e-10
 10.01618    -64.2 1.069e+04 4.195e-10
 10.03346    -64.1 1.071e+04 4.221e-10
 10.04370    -63.2 1.063e+04 4.027e-10
 10.05707    -62.5 1.082e+04 4.465e-10
 10.07757    -62.7 1.115e+04 5.093e-10
 10.09807    -62.6 1.137e+04 6.054e-10
 10.11215    -61.6 1.168e+04 6.756e-10
 10.12240    -61.4 1.181e+04 7.740e-10
 10.13906    -62.1 1.234e+04 9.362e-10
 10.15956    -64.4 1.377e+04 1.261e-09
 10.17295    -67.6 1.488e+04 2.155e-09
 10.18320    -66.1 1.493e+04 2.147e-09
 10.20055    -68.5 1.545e+04 3.790e-09
 10.22105    -68.9 1.586e+04 5.954e-09
 10.23758    -68.4 1.626e+04 7.125e-09
 10.24783    -67.6 1.638e+04 7.232e-09
 10.26205    -68.2 1.604e+04 6.863e-09
 10.28254    -68.5 1.511e+04 4.650e-09
 10.30220    -69.0 1.429e+04 2.967e-09
 10.31245    -68.3 1.427e+04 2.975e-09
 10.31782    -68.9 1.369e+04 1.876e-09
 10.32807    -68.8 1.348e+04 1.793e-09
 10.34404    -69.5 1.269e+04 1.219e-09
 10.36453    -69.2 1.248e+04 1.085e-09
 10.37718    -68.5 1.211e+04 9.034e-10
 10.39777    -67.3 1.203e+04 8.705e-10
 10.43647    -65.9 1.183e+04 8.029e-10
 10.46712    -64.1 1.185e+04 8.432e-10
 10.48752    -64.0 1.184e+04 8.283e-10
 10.50633    -63.0 1.187e+04 6.634e-10
 10.51658    -62.4 1.172e+04 6.499e-10
 10.52350    -61.8 1.187e+04 5.503e-10
 10.53375    -61.0 1.200e+04 8.337e-10
 10.54901    -60.3 1.214e+04 6.888e-10
 10.56951    -60.2 1.220e+04 6.006e-10
 10.58120    -60.1 1.208e+04 5.467e-10
 10.59145    -59.6 1.199e+04 4.647e-10
 10.61050    -59.7 1.171e+04 4.414e-10
 10.63100    -59.3 1.154e+04 4.516e-10
 10.64583    -58.8 1.150e+04 4.543e-10
 10.65608    -58.6 1.138e+04 4.236e-10
 10.67199    -57.9 1.157e+04 4.286e-10
 10.69249    -57.5 1.179e+04 4.094e-10
 10.71045    -57.3 1.210e+04 3.782e-10
 10.72070    -56.8 1.196e+04 3.907e-10
 10.72917    -56.7 1.201e+04 3.691e-10
 10.73942    -56.5 1.249e+04 6.027e-10
 10.75398    -56.4 1.243e+04 5.495e-10
 10.77448    -56.2 1.233e+04 4.972e-10
 10.78533    -55.9 1.223e+04 4.608e-10
 10.79557    -55.0 1.220e+04 4.620e-10
 10.81548    -54.7 1.213e+04 4.346e-10
 10.83597    -54.1 1.211e+04 4.210e-10
 10.84995    -53.7 1.222e+04 4.178e-10
 10.86020    -53.0 1.214e+04 3.934e-10
 10.87697    -52.3 1.223e+04 3.919e-10
 10.89746    -52.0 1.224e+04 3.913e-10
 10.91458    -51.2 1.204e+04 4.234e-10
 10.92482    -50.3 1.193e+04 3.692e-10
 10.93485    -49.9 1.198e+04 3.605e-10
 10.94509    -49.8 1.219e+04 4.572e-10
 10.95896    -48.9 1.200e+04 4.631e-10
 10.97920    -48.2 1.203e+04 4.599e-10
 10.98945    -47.3 1.187e+04 3.627e-10
 10.99995    -46.0 1.202e+04 3.283e-10
 11.02045    -45.7 1.193e+04 3.295e-10
 11.04095    -44.5 1.196e+04 3.221e-10
 11.05407    -44.0 1.187e+04 3.210e-10
 11.06432    -43.2 1.183e+04 2.798e-10
 11.08194    -42.2 1.185e+04 2.789e-10
 11.10244    -41.6 1.194e+04 2.864e-10
 11.11870    -41.1 1.208e+04 3.067e-10
 11.12895    -40.3 1.192e+04 2.916e-10
 11.14052    -39.8 1.215e+04 3.326e-10
 11.15077    -40.8 1.367e+04 4.616e-10
 11.16393    -43.2 1.678e+04 8.957e-10
 11.18332    -45.9 1.829e+04 2.389e-09
 11.19357    -43.6 1.780e+04 1.484e-09
 11.20492    -45.8 1.863e+04 4.148e-09
 11.22542    -45.7 1.866e+04 9.779e-09
 11.24592    -45.0 1.854e+04 1.705e-08
 11.25820    -43.8 1.851e+04 1.998e-08
 11.26845    -43.4 1.811e+04 1.916e-08
 11.28691    -42.1 1.795e+04 1.801e-08
 11.30741    -40.9 1.788e+04 1.247e-08
 11.32282    -41.4 1.713e+04 7.101e-09
 11.33307    -39.8 1.706e+04 7.123e-09
 11.34619    -41.3 1.565e+04 4.005e-09
 11.35644    -43.0 1.477e+04 2.453e-09
 11.36890    -43.9 1.297e+04 1.616e-09
 11.38745    -43.2 1.220e+04 1.235e-09
 11.39770    -42.4 1.225e+04 1.185e-09
 11.42024    -41.4 1.195e+04 1.031e-09
 11.45227    -39.3 1.130e+04 6.302e-10
 11.47277    -37.6 1.129e+04 6.255e-10
 11.50233    -35.4 1.085e+04 4.232e-10
 11.54181    -33.5 1.057e+04 3.028e-10
 11.56231    -33.5 1.028e+04 2.814e-10
 11.58152    -32.0 1.005e+04 2.071e-10
 11.60202    -30.3 1.009e+04 1.923e-10
 11.62532    -28.8 9.698e+03 1.618e-10
 11.66631    -26.9 9.509e+03 1.632e-10
 11.70731    -25.0 9.478e+03 1.724e-10
 11.73127    -23.0 9.529e+03 1.858e-10
 11.75176    -21.4 9.404e+03 1.659e-10
 11.78929    -19.5 9.550e+03 1.888e-10
 11.83029    -17.7 9.777e+03 2.348e-10
 11.86052    -15.8 1.006e+04 3.184e-10
 11.88101    -14.3 9.963e+03 2.960e-10
 11.91228    -12.2 1.030e+04 4.120e-10
 11.95316     -9.9 1.059e+04 5.270e-10
 11.98965     -7.3 1.080e+04 6.295e-10
 12.01026     -6.0 1.077e+04 6.347e-10
 12.03526     -3.9 1.083e+04 6.349e-10
 12.07626     -1.9 1.081e+04 6.077e-10
 12.11725      0.1 1.076e+04 5.518e-10
 12.13951      2.2 1.064e+04 4.485e-10
 12.16001      3.8 1.072e+04 5.494e-10
 12.19924      6.0 1.064e+04 4.456e-10
 12.24024      8.0 1.056e+04 3.169e-10
 12.26876      9.7 1.041e+04 2.247e-10
 12.28926     11.8 1.074e+04 3.587e-10
 12.32223     13.6 1.092e+04 2.958e-10
 12.36322     14.7 1.087e+04 2.650e-10
 12.38501     15.2 1.054e+04 2.681e-10
 12.39930     15.7 1.032e+04 2.899e-10
 12.41851     16.9 1.146e+04 3.887e-10
 12.44521     16.4 1.155e+04 4.377e-10
 12.47279     15.5 1.099e+04 5.553e-10
 12.48294     14.4 1.252e+04 7.012e-10
 12.49626     13.9 1.290e+04 9.981e-10
 12.51676     13.7 1.339e+04 1.551e-09
 12.53725     13.8 1.407e+04 2.459e-09
 12.55775     13.7 1.609e+04 5.708e-09
 12.57825     13.9 1.653e+04 6.312e-09
 12.59048     13.4 1.696e+04 6.552e-09
 12.60073     14.1 1.582e+04 4.574e-09
 12.61219     13.1 1.597e+04 4.511e-09
 12.62244     11.5 1.636e+04 5.649e-09
 12.63974     10.6 1.600e+04 5.368e-09
 12.66024     10.1 1.554e+04 5.035e-09
 12.67682     10.1 1.511e+04 4.592e-09
 12.68706      9.9 1.491e+04 4.535e-09
 12.70123     10.4 1.440e+04 3.817e-09
 12.72173     10.5 1.400e+04 3.079e-09
 12.74144     10.4 1.372e+04 2.520e-09
 12.75169     10.0 1.296e+04 1.523e-09
 12.76272      9.5 1.267e+04 1.334e-09
 12.78322      9.3 1.258e+04 1.339e-09
 12.79616      9.4 1.254e+04 1.389e-09
 12.80641     10.3 1.237e+04 1.252e-09
 12.81632     10.4 1.242e+04 1.307e-09
 12.82656     10.2 1.161e+04 9.404e-10
 12.84471     10.6 1.166e+04 1.027e-09
 12.86521     11.0 1.173e+04 1.129e-09
 12.88094     11.5 1.180e+04 1.224e-09
 12.89119     11.8 1.146e+04 1.065e-09
 12.90621     12.4 1.159e+04 1.155e-09
 12.92670     12.9 1.175e+04 1.242e-09
 12.94557     13.5 1.193e+04 1.336e-09
 12.95581     13.7 1.182e+04 1.285e-09
 12.96770     14.2 1.203e+04 1.432e-09
 12.98819     14.7 1.225e+04 1.597e-09
 13.00183     15.5 1.241e+04 1.711e-09
 13.01208     15.7 1.247e+04 1.751e-09
 13.02044     16.1 1.266e+04 1.867e-09
 13.03069     16.6 1.263e+04 1.864e-09
 13.04969     16.7 1.302e+04 2.015e-09
 13.07018     15.7 1.433e+04 2.556e-09
 13.08506     12.6 1.712e+04 4.839e-09
 13.09531     13.2 1.706e+04 4.804e-09
 13.11118      9.3 2.059e+04 1.103e-08
 13.12245      7.1 2.204e+04 1.586e-08
 13.12753      5.8 2.263e+04 2.019e-08
 13.13670      4.6 2.299e+04 3.435e-08
 13.14695      4.8 2.274e+04 5.142e-08
 13.15472      5.0 2.246e+04 6.761e-08
 13.15984      5.6 2.220e+04 1.259e-07
 13.16745      5.8 2.250e+04 1.373e-07
 13.17770      5.3 2.288e+04 1.315e-07
 13.18703      4.7 2.321e+04 1.064e-07
 13.19215      4.8 2.322e+04 1.317e-07
 13.19819      4.0 2.327e+04 8.265e-08
 13.20741      3.4 2.290e+04 4.827e-08
 13.21253      4.1 2.267e+04 4.767e-08
 13.21869      3.1 2.232e+04 2.898e-08
 13.22447      1.8 2.148e+04 2.007e-08
 13.22959      1.8 2.164e+04 2.078e-08
 13.23919      0.3 2.109e+04 1.676e-08
 13.25461     -0.3 2.051e+04 1.652e-08
 13.27516     -1.4 2.039e+04 1.801e-08
 13.28919     -0.7 2.085e+04 2.297e-08
 13.29426     -1.2 2.077e+04 2.127e-08
 13.30068     -0.9 2.090e+04 2.355e-08
 13.31025     -0.2 2.103e+04 2.518e-08
 13.31537      0.2 2.134e+04 2.890e-08
 13.32118      0.8 2.158e+04 3.240e-08
 13.32653      1.4 2.205e+04 3.347e-08
 13.33165      1.3 2.192e+04 3.436e-08
 13.34168      1.8 2.235e+04 3.388e-08
 13.35193      1.8 2.288e+04 3.421e-08
 13.35884      1.7 2.329e+04 3.497e-08
 13.36396      2.0 2.273e+04 3.568e-08
 13.37242      1.5 2.358e+04 3.747e-08
 13.38267      0.9 2.411e+04 3.965e-08
 13.39115      0.0 2.395e+04 4.201e-08
 13.39628      1.1 2.344e+04 3.877e-08
 13.40317      0.7 2.314e+04 4.111e-08
 13.41308      0.6 2.273e+04 4.770e-08
 13.41821      1.0 2.324e+04 6.453e-08
 13.42346      0.7 2.302e+04 8.529e-08
 13.42859      0.8 2.350e+04 7.823e-08
 13.43391     -0.3 2.283e+04 1.539e-07
 13.44416      0.5 2.143e+04 4.859e-07
 13.45183     -0.3 2.119e+04 8.126e-07
 13.45693     -0.5 2.066e+04 1.039e-06
 13.46085     -1.7 2.073e+04 1.209e-06
 13.46341     -2.6 2.116e+04 9.186e-07
 13.46701     -4.1 2.107e+04 9.082e-07
 13.46958     -4.8 1.995e+04 2.402e-06
 13.47488     -5.1 2.120e+04 7.596e-07
 13.48516     -7.8 2.295e+04 3.585e-07
 13.49321    -12.1 2.299e+04 2.457e-07
 13.49834    -12.3 2.372e+04 1.629e-07
 13.50566    -15.1 2.228e+04 1.675e-07
 13.51590    -16.1 2.130e+04 1.599e-07
 13.52553    -14.8 2.122e+04 1.537e-07
 13.53065    -13.8 2.094e+04 1.367e-07
 13.53640    -12.5 2.074e+04 1.129e-07
 13.54665    -11.1 2.078e+04 9.057e-08
 13.55690     -9.8 2.078e+04 6.813e-08
 13.56296     -8.7 2.069e+04 4.934e-08
 13.56809     -8.0 2.056e+04 4.382e-08
 13.57740     -7.5 2.067e+04 3.356e-08
 13.58764     -7.2 2.080e+04 2.608e-08
 13.59528     -7.2 2.084e+04 1.864e-08
 13.60040     -6.4 2.052e+04 1.806e-08
 13.60814     -7.2 2.036e+04 1.652e-08
 13.61839     -8.0 2.057e+04 1.327e-08
 13.62388     -9.9 2.095e+04 1.148e-08
 13.62795    -10.2 2.337e+04 1.446e-08
 13.63271     -9.6 2.376e+04 1.589e-08
 13.63889    -20.1 3.117e+04 1.715e-08
 13.64914    -31.7 3.464e+04 1.690e-08
 13.65939    -41.4 2.736e+04 2.961e-08
 13.66503    -46.7 2.340e+04 4.549e-08
 13.67015    -49.0 2.369e+04 1.156e-07
 13.67988    -51.2 2.330e+04 1.166e-07
 13.69013    -53.1 2.394e+04 8.604e-08
 13.69734    -55.8 2.527e+04 4.753e-08
 13.70246    -59.2 2.663e+04 5.586e-08
 13.71063    -63.6 2.635e+04 2.769e-08
 13.72088    -68.1 2.410e+04 1.743e-08
 13.72672    -72.1 2.139e+04 1.277e-08
 13.73037    -72.9 2.033e+04 1.046e-08
 13.73477    -75.0 2.027e+04 1.193e-08
 13.74655    -75.2 1.943e+04 9.944e-09
 13.76206    -76.9 1.683e+04 6.491e-09
 13.77231    -78.4 1.764e+04 8.491e-09
 13.78759    -78.8 1.640e+04 6.358e-09
 13.80809    -79.3 1.530e+04 4.670e-09
 13.82453    -80.1 1.423e+04 3.220e-09
 13.83288    -77.9 1.478e+04 3.973e-09
 13.83693    -79.2 1.481e+04 4.067e-09
 13.84908    -80.6 1.417e+04 2.854e-09
 13.86958    -86.7 1.450e+04 2.423e-09
 13.89008    -99.4 1.859e+04 2.488e-09
 13.90156   -111.4 1.962e+04 5.264e-09
 13.91181   -112.9 1.887e+04 5.401e-09
 13.93107   -116.4 1.834e+04 9.554e-09
 13.94640   -117.9 1.847e+04 1.300e-08
 13.95660   -119.1 1.896e+04 1.494e-08
 13.96609   -120.6 1.964e+04 1.658e-08
 13.97121   -120.6 1.946e+04 1.515e-08
 13.97709   -122.5 2.081e+04 1.605e-08
 13.98734   -124.7 2.221e+04 1.628e-08
 13.99759   -127.3 2.288e+04 1.588e-08
 14.00352   -129.8 2.193e+04 1.347e-08
 14.00865   -129.8 2.156e+04 1.364e-08
 14.01809   -131.3 2.045e+04 1.206e-08
 14.02834   -131.7 1.927e+04 1.131e-08
 14.03523   -131.8 1.850e+04 1.091e-08
 14.03760   -133.9 1.807e+04 1.060e-08
 14.04096   -133.2 1.814e+04 1.124e-08
 14.04884   -133.0 1.813e+04 1.133e-08
 14.05908   -133.3 1.864e+04 1.185e-08
 14.07451   -134.3 1.976e+04 1.323e-08
 14.08988   -134.7 2.149e+04 1.691e-08
 14.10008   -135.9 2.256e+04 2.076e-08
 14.10559   -137.3 2.369e+04 2.840e-08
 14.11071   -137.7 2.326e+04 2.703e-08
 14.12058   -139.8 2.378e+04 3.895e-08
 14.13082   -142.3 2.508e+04 5.370e-08
 14.13790   -146.1 2.708e+04 6.148e-08
 14.14001   -146.9 2.575e+04 5.551e-08
 14.14319   -149.0 2.353e+04 2.279e-08
 14.15132   -152.8 2.274e+04 2.083e-08
 14.16157   -156.1 2.172e+04 1.798e-08
 14.17021   -158.0 2.058e+04 1.497e-08
 14.17533   -156.7 1.962e+04 1.541e-08
 14.18207   -157.6 1.879e+04 1.199e-08
 14.19232   -158.0 1.812e+04 9.088e-09
 14.20252   -158.3 1.758e+04 6.718e-09
 14.21277   -157.5 1.673e+04 4.873e-09
 14.22306   -158.0 1.638e+04 3.485e-09
 14.23488   -158.8 1.674e+04 2.574e-09
 14.24252   -157.6 1.538e+04 2.284e-09
 14.24612   -156.9 1.383e+04 2.270e-09
 14.25903   -158.1 1.264e+04 1.331e-09
 14.27953   -159.0 1.154e+04 8.739e-10
 14.29956   -159.2 1.098e+04 6.891e-10
 14.30981   -159.5 1.094e+04 6.751e-10
 14.32052   -159.7 1.077e+04 6.271e-10
 14.34102   -159.3 1.072e+04 6.150e-10
 14.36152   -158.6 1.073e+04 6.147e-10
 14.37443   -157.9 1.086e+04 6.305e-10
 14.38468   -159.4 1.112e+04 6.945e-10
 14.40251   -158.7 1.119e+04 7.109e-10
 14.42301   -158.1 1.122e+04 7.289e-10
 14.43906   -157.4 1.126e+04 7.478e-10
 14.44735   -159.1 1.144e+04 8.023e-10
 14.45180   -159.6 1.181e+04 9.406e-10
 14.46400   -158.9 1.183e+04 9.336e-10
 14.48450   -158.1 1.185e+04 9.245e-10
 14.50368   -157.3 1.189e+04 9.125e-10
 14.51393   -158.5 1.195e+04 9.157e-10
 14.52550   -157.8 1.191e+04 8.662e-10
 14.54599   -157.2 1.182e+04 8.139e-10
 14.56649   -156.8 1.168e+04 7.650e-10
 14.57856   -156.6 1.153e+04 7.259e-10
 14.58880   -157.2 1.138e+04 6.587e-10
 14.60749   -157.1 1.120e+04 6.222e-10
 14.62798   -157.0 1.105e+04 5.987e-10
 14.64318   -157.0 1.094e+04 5.872e-10
 14.65217   -156.8 1.078e+04 5.335e-10
 14.65747   -156.4 1.093e+04 5.675e-10
 14.66898   -156.2 1.076e+04 5.366e-10
 14.68948   -155.9 1.065e+04 5.144e-10
 14.70781   -155.5 1.057e+04 4.983e-10
 14.71805   -154.7 1.050e+04 4.814e-10
 14.73047   -154.2 1.045e+04 4.665e-10
 14.75097   -153.5 1.046e+04 4.499e-10
 14.77146   -152.9 1.051e+04 4.294e-10
 14.78268   -152.2 1.060e+04 4.060e-10
 14.79293   -151.3 1.052e+04 3.952e-10
 14.81246   -150.8 1.061e+04 3.706e-10
 14.83296   -150.3 1.070e+04 3.556e-10
 14.84730   -149.9 1.073e+04 3.524e-10
 14.85700   -149.2 1.072e+04 3.470e-10
 14.86315   -148.8 1.037e+04 2.874e-10
 14.87395   -148.5 1.039e+04 2.865e-10
 14.89445   -148.1 1.056e+04 2.931e-10
 14.91193   -147.7 1.065e+04 3.246e-10
 14.92218   -147.2 1.062e+04 3.219e-10
 14.93544   -146.5 1.061e+04 3.549e-10
 14.95594   -145.5 1.059e+04 3.750e-10
 14.97644   -144.3 1.060e+04 3.800e-10
 14.98680   -143.5 1.061e+04 3.879e-10
 14.99715   -143.2 1.055e+04 3.390e-10
 15.02788   -141.5 1.053e+04 3.419e-10
 15.06887   -139.4 1.050e+04 3.364e-10
 15.10600   -137.5 1.050e+04 3.328e-10
 15.12650   -136.9 1.028e+04 2.724e-10
 15.15086   -134.9 1.031e+04 2.804e-10
 15.19186   -133.1 1.046e+04 3.311e-10
 15.22250   -131.5 1.055e+04 3.757e-10
 15.24290   -131.3 1.064e+04 4.312e-10
 15.25555   -130.5 1.081e+04 5.771e-10
 15.26580   -130.2 1.067e+04 5.006e-10
 15.27449   -129.5 1.081e+04 6.267e-10
 15.28474   -129.6 1.110e+04 8.024e-10
 15.30440   -128.6 1.135e+04 9.702e-10
 15.32018   -127.8 1.157e+04 1.097e-09
 15.33043   -127.7 1.135e+04 1.021e-09
 15.34539   -126.8 1.152e+04 1.125e-09
 15.36589   -126.1 1.157e+04 1.156e-09
 15.38480   -125.3 1.159e+04 1.148e-09
 15.39505   -125.1 1.137e+04 1.077e-09
 15.40688   -124.2 1.124e+04 1.029e-09
 15.42738   -123.2 1.106e+04 9.248e-10
 15.44788   -122.3 1.089e+04 8.214e-10
 15.45968   -121.4 1.074e+04 7.248e-10
 15.46992   -121.1 1.053e+04 6.523e-10
 15.48017   -120.0 1.035e+04 5.611e-10
 15.49042   -120.4 1.054e+04 6.053e-10
 15.50937   -119.2 1.036e+04 5.264e-10
 15.52430   -118.0 1.022e+04 4.617e-10
 15.53455   -117.8 1.004e+04 4.090e-10
 15.56071   -116.5 9.977e+03 3.648e-10
 15.60180   -114.5 9.910e+03 3.290e-10
 15.64280   -112.3 9.885e+03 3.131e-10
 15.66400   -110.1 9.903e+03 3.109e-10
 15.67649   -110.5 9.538e+03 2.487e-10
 15.69629   -110.4 9.800e+03 3.022e-10
 15.72479   -108.2 9.817e+03 3.032e-10
 15.76578   -106.0 9.827e+03 3.057e-10
 15.79325   -103.8 9.803e+03 3.011e-10
 15.81374   -104.7 9.527e+03 2.493e-10
 15.84777   -102.7 9.566e+03 2.527e-10
 15.88877   -100.9 9.659e+03 2.620e-10
 15.92250    -99.3 9.783e+03 2.782e-10
 15.94299   -100.9 9.908e+03 3.000e-10
 15.96041    -99.7 1.015e+04 3.437e-10
 15.98081    -99.6 1.013e+04 3.439e-10
 15.99717    -99.7 1.041e+04 4.115e-10
 16.00742   -101.0 1.069e+04 5.293e-10
 16.02180   -101.7 1.111e+04 7.037e-10
 16.04230   -102.8 1.178e+04 1.031e-09
 16.06180   -104.2 1.266e+04 1.643e-09
 16.07205   -104.0 1.222e+04 1.477e-09
 16.08330   -104.8 1.291e+04 2.076e-09
 16.09719   -105.5 1.351e+04 2.758e-09
 16.10744   -106.1 1.442e+04 3.557e-09
 16.12429   -106.4 1.470e+04 4.004e-09
 16.13667   -106.7 1.469e+04 4.005e-09
 16.14692   -106.8 1.381e+04 2.842e-09
 16.16528   -107.0 1.339e+04 2.479e-09
 16.18578   -107.1 1.276e+04 1.817e-09
 16.20130   -107.4 1.214e+04 1.246e-09
 16.21155   -106.6 1.208e+04 1.241e-09
 16.22678   -106.7 1.151e+04 8.117e-10
 16.24727   -107.0 1.091e+04 5.415e-10
 16.26592   -107.1 1.043e+04 3.858e-10
 16.27617   -106.2 1.050e+04 3.876e-10
 16.28827   -106.1 1.015e+04 2.943e-10
 16.30286   -105.8 1.006e+04 2.400e-10
 16.31311   -106.3 1.023e+04 2.507e-10
 16.32926   -105.7 1.031e+04 2.195e-10
 16.34080   -105.2 1.036e+04 2.153e-10
 16.35114   -104.7 1.029e+04 2.132e-10
 16.38070   -103.9 1.038e+04 2.055e-10
 16.42170   -103.0 1.072e+04 2.241e-10
 16.45235   -101.7 1.078e+04 2.789e-10
 16.47005   -101.8 1.079e+04 3.181e-10
 16.48039   -101.1 1.075e+04 2.729e-10
 16.49334   -100.8 1.079e+04 4.058e-10
 16.50854   -100.3 1.075e+04 5.292e-10
 16.51879   -100.8 1.109e+04 6.823e-10
 16.53424   -100.3 1.131e+04 7.802e-10
 16.54492   -100.1 1.166e+04 8.871e-10
 16.55517    -99.9 1.164e+04 8.802e-10
 16.57523   -100.1 1.222e+04 1.024e-09
 16.59573   -101.0 1.313e+04 1.287e-09
 16.60955   -102.6 1.404e+04 1.730e-09
 16.61979   -102.5 1.361e+04 1.694e-09
 16.63672   -104.0 1.400e+04 2.119e-09
 16.65722   -105.1 1.400e+04 2.456e-09
 16.67417   -105.6 1.391e+04 2.545e-09
 16.68442   -105.6 1.365e+04 2.283e-09
 16.69822   -105.7 1.342e+04 2.246e-09
 16.71421   -105.7 1.312e+04 1.960e-09
 16.72446   -106.0 1.319e+04 1.697e-09
 16.73880   -106.3 1.310e+04 1.578e-09
 16.74904   -107.4 1.360e+04 1.678e-09
 16.75971   -108.2 1.390e+04 1.723e-09
 16.78021   -109.1 1.419e+04 1.868e-09
 16.80070   -109.8 1.432e+04 2.139e-09
 16.81367   -110.1 1.430e+04 2.529e-09
 16.82392   -110.2 1.413e+04 2.787e-09
 16.84170   -109.8 1.396e+04 3.036e-09
 16.86219   -108.9 1.363e+04 3.219e-09
 16.87829   -107.7 1.336e+04 3.219e-09
 16.88854   -107.3 1.280e+04 2.530e-09
 16.90319   -106.2 1.252e+04 2.249e-09
 16.91989   -104.9 1.230e+04 1.977e-09
 16.93013   -104.5 1.287e+04 1.827e-09
 16.94292   -103.3 1.275e+04 1.561e-09
 16.95317   -103.9 1.246e+04 9.646e-10
 16.96468   -103.0 1.235e+04 8.407e-10
 16.98518   -102.1 1.221e+04 7.434e-10
 17.00568   -101.0 1.210e+04 6.739e-10
 17.01779    -99.8 1.210e+04 6.428e-10
 17.02804   -100.5 1.168e+04 4.205e-10
 17.04667    -99.5 1.169e+04 4.111e-10
 17.06717    -98.6 1.177e+04 4.087e-10
 17.08242    -98.2 1.207e+04 4.362e-10
 17.09267    -98.5 1.146e+04 2.804e-10
 17.10816    -98.1 1.171e+04 3.026e-10
 17.12556    -98.0 1.200e+04 3.558e-10
 17.13581    -98.3 1.183e+04 3.305e-10
 17.14704    -98.6 1.218e+04 4.603e-10
 17.15729    -98.4 1.180e+04 2.615e-10
 17.16966   -100.0 1.236e+04 4.045e-10
 17.19015   -101.5 1.298e+04 8.581e-10
 17.21065   -102.2 1.375e+04 1.846e-09
 17.22192   -102.1 1.468e+04 3.470e-09
 17.23217   -103.2 1.456e+04 3.281e-09
 17.25164   -102.0 1.562e+04 5.321e-09
 17.27214   -101.5 1.642e+04 6.511e-09
 17.28654   -101.6 1.666e+04 6.662e-09
 17.29679   -101.7 1.668e+04 6.742e-09
 17.31314   -102.6 1.697e+04 5.497e-09
 17.33123   -104.5 1.660e+04 3.757e-09
 17.34148   -104.7 1.410e+04 2.042e-09
 17.35117   -106.8 1.367e+04 1.737e-09
 17.36142   -107.1 1.328e+04 1.534e-09
 17.37463   -108.0 1.315e+04 1.483e-09
 17.39513   -108.3 1.319e+04 1.488e-09
 17.41562   -108.5 1.329e+04 1.511e-09
 17.42604   -108.4 1.331e+04 1.494e-09
 17.43629   -108.5 1.300e+04 1.426e-09
 17.45662   -108.2 1.296e+04 1.317e-09
 17.47712   -107.9 1.276e+04 1.145e-09
 17.49067   -107.6 1.242e+04 9.778e-10
 17.50091   -107.3 1.241e+04 9.857e-10
 17.51811   -106.9 1.201e+04 8.326e-10
 17.53691   -106.5 1.161e+04 7.103e-10
 17.54716   -106.3 1.175e+04 7.119e-10
 17.55529   -106.0 1.145e+04 6.179e-10
 17.56554   -105.6 1.163e+04 6.336e-10
 17.57960   -105.3 1.139e+04 5.619e-10
 17.60010   -105.0 1.136e+04 5.425e-10
 17.61992   -104.8 1.138e+04 5.388e-10
 17.63016   -104.4 1.137e+04 5.382e-10
 17.64109   -104.2 1.153e+04 5.433e-10
 17.66159   -104.1 1.182e+04 5.962e-10
 17.68209   -103.8 1.207e+04 6.999e-10
 17.69479   -103.6 1.224e+04 8.440e-10
 17.70504   -103.0 1.181e+04 6.217e-10
 17.72308   -102.9 1.185e+04 6.985e-10
 17.74258   -102.7 1.178e+04 7.935e-10
 17.75283   -102.2 1.099e+04 6.072e-10
 17.75941   -101.9 1.096e+04 6.467e-10
 17.76966   -101.6 1.064e+04 4.821e-10
 17.78458   -101.0 1.065e+04 5.210e-10
 17.80507   -100.2 1.072e+04 5.673e-10
 17.82404    -99.3 1.080e+04 6.012e-10
 17.83429    -99.1 1.059e+04 4.772e-10
 17.84607    -98.3 1.067e+04 5.104e-10
 17.86657    -97.6 1.071e+04 5.257e-10
 17.88706    -97.0 1.070e+04 5.242e-10
 17.89891    -96.5 1.067e+04 5.224e-10
 17.90916    -96.3 1.058e+04 4.798e-10
 17.92806    -95.7 1.059e+04 5.040e-10
 17.94825    -95.3 1.062e+04 5.364e-10
 17.95850    -95.3 1.064e+04 5.192e-10
 17.96354    -94.8 1.067e+04 5.705e-10
 17.97379    -94.6 1.064e+04 5.629e-10
 17.98955    -94.1 1.069e+04 6.329e-10
 18.01005    -93.6 1.075e+04 7.093e-10
 18.02816    -93.1 1.086e+04 7.979e-10
 18.03841    -93.0 1.085e+04 7.976e-10
 18.05104    -92.5 1.102e+04 8.966e-10
 18.07154    -92.1 1.118e+04 9.860e-10
 18.09204    -91.6 1.128e+04 1.035e-09
 18.10304    -91.3 1.130e+04 1.043e-09
 18.11329    -91.3 1.112e+04 9.521e-10
 18.13303    -91.0 1.105e+04 9.216e-10
 18.15353    -90.8 1.090e+04 8.460e-10
 18.16418    -90.6 1.073e+04 7.566e-10
 18.16806    -90.2 1.046e+04 5.427e-10
 18.17791    -89.9 1.024e+04 4.474e-10
 18.19452    -89.7 1.012e+04 4.031e-10
 18.22214    -89.3 1.005e+04 3.554e-10
 18.24273    -89.1 9.825e+03 2.836e-10
 18.26646    -88.1 9.564e+03 2.015e-10
 18.30745    -87.2 9.345e+03 1.655e-10
 18.34845    -86.2 9.218e+03 1.582e-10
 18.37198    -85.0 9.148e+03 1.633e-10
 18.39248    -84.0 8.974e+03 1.245e-10
 18.43044    -82.9 8.963e+03 1.595e-10
 18.47143    -81.5 9.012e+03 2.079e-10
 18.50123    -79.8 9.063e+03 2.431e-10
 18.52173    -78.6 8.832e+03 1.847e-10
 18.55342    -76.8 8.827e+03 1.949e-10
 18.57572    -74.9 8.787e+03 1.931e-10
 18.59622    -75.0 8.720e+03 1.563e-10
 18.63048    -73.4 8.693e+03 1.266e-10
 18.65098    -71.9 8.639e+03 1.165e-10
 18.67641    -70.4 8.655e+03 1.030e-10
 18.71740    -69.1 8.648e+03 9.954e-11
 18.75840    -68.0 8.630e+03 1.061e-10
 18.78023    -66.9 8.719e+03 1.306e-10
 18.80073    -65.5 8.972e+03 1.422e-10
 18.84038    -64.3 9.217e+03 1.890e-10
 18.88138    -63.2 9.346e+03 2.188e-10
 18.90948    -62.3 9.322e+03 2.210e-10
 18.92998    -61.1 9.833e+03 3.525e-10
 18.96337    -60.3 9.594e+03 3.335e-10
 18.98707    -59.5 9.267e+03 2.728e-10
 19.00757    -60.0 9.163e+03 2.294e-10
 19.03873    -59.4 9.014e+03 1.871e-10
 19.05923    -58.3 9.333e+03 2.390e-10
 19.08635    -57.7 9.072e+03 2.157e-10
 19.12735    -56.6 8.889e+03 2.069e-10
 19.16798    -55.0 8.719e+03 1.919e-10
 19.18848    -54.1 8.935e+03 2.213e-10
 19.20934    -52.6 8.865e+03 1.750e-10
 19.25033    -51.4 8.905e+03 1.362e-10
 19.29133    -50.6 8.922e+03 1.254e-10
 19.31773    -49.3 9.012e+03 1.371e-10
 19.33822    -48.5 9.049e+03 1.330e-10
 19.37332    -47.0 9.063e+03 1.667e-10
 19.39842    -45.0 9.107e+03 2.074e-10
 19.41891    -45.0 9.351e+03 2.635e-10
 19.44698    -43.1 9.575e+03 2.973e-10
 19.46747    -42.3 9.574e+03 2.921e-10
 19.49630    -40.4 9.889e+03 3.377e-10
 19.53729    -38.7 1.022e+04 3.707e-10
 19.57623    -37.5 1.046e+04 3.843e-10
 19.59672    -37.0 1.080e+04 4.465e-10
 19.61928    -36.2 1.091e+04 5.491e-10
 19.66028    -34.8 1.098e+04 6.362e-10
 19.70127    -33.6 1.127e+04 5.919e-10
 19.72597    -33.8 1.178e+04 4.508e-10
 19.73613    -34.6 1.261e+04 9.424e-10
 19.75232    -35.3 1.299e+04 9.239e-10
 19.77282    -36.3 1.346e+04 9.506e-10
 19.79040    -38.1 1.366e+04 1.319e-09
 19.80065    -37.8 1.410e+04 1.871e-09
 19.80957    -39.2 1.378e+04 2.622e-09
 19.81982    -39.5 1.370e+04 3.647e-09
 19.83431    -38.3 1.339e+04 4.257e-09
 19.85481    -36.4 1.312e+04 4.265e-09
 19.86528    -34.3 1.320e+04 3.572e-09
 19.87553    -34.1 1.341e+04 3.684e-09
 19.89580    -33.7 1.386e+04 2.329e-09
 19.91630    -35.3 1.354e+04 1.534e-09
 19.94714    -37.7 1.244e+04 1.050e-09
 19.98447    -38.0 1.200e+04 8.999e-10
 20.00497    -37.4 1.263e+04 1.374e-09
 20.02923    -37.6 1.236e+04 9.611e-10
 20.07023    -38.6 1.168e+04 7.925e-10
 20.11122    -38.2 1.132e+04 7.488e-10
 20.13422    -37.1 1.085e+04 5.653e-10
 20.15472    -37.4 1.105e+04 6.498e-10
 20.19321    -36.2 1.056e+04 4.059e-10
 20.22111    -35.2 1.022e+04 2.381e-10
 20.24161    -36.4 1.021e+04 2.091e-10
 20.26347    -36.0 1.003e+04 1.601e-10
 20.28397    -37.0 1.036e+04 2.140e-10
 20.31619    -35.7 1.030e+04 2.593e-10
 20.35719    -33.9 1.039e+04 3.028e-10
 20.39272    -32.3 1.050e+04 3.147e-10
 20.41322    -33.2 1.118e+04 6.135e-10
 20.43918    -32.0 1.143e+04 6.923e-10
 20.48017    -31.0 1.162e+04 8.258e-10
 20.52117    -29.7 1.165e+04 9.268e-10
 20.54247    -28.2 1.166e+04 9.297e-10
 20.56297    -29.7 1.250e+04 1.473e-09
 20.60316    -28.3 1.219e+04 1.231e-09
 20.63246    -26.7 1.162e+04 9.034e-10
 20.65296    -28.4 1.167e+04 1.072e-09
 20.67172    -26.6 1.114e+04 7.121e-10
 20.69222    -27.9 1.108e+04 7.054e-10
 20.72614    -26.8 1.076e+04 4.704e-10
 20.76714    -25.6 1.049e+04 3.650e-10
 20.80097    -23.9 1.026e+04 3.505e-10
 20.82147    -25.1 1.008e+04 3.387e-10
 20.84913    -23.0 9.981e+03 3.280e-10
 20.89012    -20.8 9.939e+03 3.223e-10
 20.93022    -18.6 9.941e+03 3.221e-10
 20.95072    -19.5 9.623e+03 2.511e-10
 20.97211    -17.4 9.583e+03 2.375e-10
 21.01310    -15.3 9.545e+03 2.234e-10
 21.04381    -13.2 9.505e+03 2.218e-10
 21.06430    -14.2 9.535e+03 2.469e-10
 21.07997    -12.0 9.542e+03 2.580e-10
 21.10046    -12.3 9.173e+03 1.571e-10
 21.13609    -10.1 9.219e+03 1.699e-10
 21.17708     -7.8 9.283e+03 1.852e-10
 21.20922     -5.4 9.333e+03 1.934e-10
 21.22971     -5.7 9.180e+03 1.672e-10
 21.25907     -3.2 9.269e+03 1.813e-10
 21.30007     -0.8 9.338e+03 1.844e-10
 21.33847      1.7 9.386e+03 1.824e-10
 21.35896      1.6 9.436e+03 1.932e-10
 21.38206      3.9 9.535e+03 1.984e-10
 21.42305      6.2 9.707e+03 2.173e-10
 21.45515      8.5 1.004e+04 2.614e-10
 21.47565      7.0 1.026e+04 2.905e-10
 21.48821      8.6 1.058e+04 3.799e-10
 21.50871      8.1 1.057e+04 4.287e-10
 21.53569      9.7 1.074e+04 5.267e-10
 21.55264     10.9 1.094e+04 6.240e-10
 21.56289     10.7 1.093e+04 6.307e-10
 21.57659     11.8 1.119e+04 7.316e-10
 21.59708     12.6 1.141e+04 8.382e-10
 21.61727     13.5 1.162e+04 9.680e-10
 21.62752     13.5 1.140e+04 8.797e-10
 21.63808     14.4 1.161e+04 1.003e-09
 21.65858     15.4 1.185e+04 1.146e-09
 21.67088     16.3 1.207e+04 1.291e-09
 21.68113     15.6 1.198e+04 1.258e-09
 21.69214     16.5 1.215e+04 1.331e-09
 21.70239     16.4 1.171e+04 1.035e-09
 21.72007     17.1 1.182e+04 1.075e-09
 21.74057     17.9 1.185e+04 1.096e-09
 21.75677     18.5 1.189e+04 1.114e-09
 21.76702     18.3 1.155e+04 9.314e-10
 21.78156     19.4 1.162e+04 9.739e-10
 21.80206     20.3 1.172e+04 1.026e-09
 21.82139     21.7 1.182e+04 1.019e-09
 21.83164     22.3 1.169e+04 9.845e-10
 21.84305     22.6 1.179e+04 1.008e-09
 21.86640     24.7 1.197e+04 1.037e-09
 21.88700     22.9 1.167e+04 8.169e-10
 21.89636     24.8 1.173e+04 8.282e-10
 21.90652     25.2 1.164e+04 8.212e-10
 21.92504     26.3 1.183e+04 8.405e-10
 21.94554     27.0 1.183e+04 8.310e-10
 21.96089     27.9 1.177e+04 7.901e-10
 21.97114     28.2 1.178e+04 8.490e-10
 21.98653     29.0 1.169e+04 8.132e-10
 22.00703     29.9 1.154e+04 7.477e-10
 22.02552     30.7 1.136e+04 6.684e-10
 22.03577     30.9 1.145e+04 7.632e-10
 22.04803     31.7 1.127e+04 6.827e-10
 22.06852     32.4 1.108e+04 6.148e-10
 22.08223     33.0 1.091e+04 5.683e-10
 22.09248     31.5 1.053e+04 4.520e-10
 22.10039     32.1 1.046e+04 4.538e-10
 22.11064     32.0 1.046e+04 4.584e-10
 22.13001     32.6 1.039e+04 4.577e-10
 22.15051     33.3 1.037e+04 4.661e-10
 22.16502     34.0 1.042e+04 4.883e-10
 22.17526     33.5 1.024e+04 4.356e-10
 22.19151     34.0 1.027e+04 4.516e-10
 22.21200     34.5 1.033e+04 4.836e-10
 22.22964     34.8 1.042e+04 5.357e-10
 22.23989     34.4 1.006e+04 4.529e-10
 22.25300     34.9 1.015e+04 5.038e-10
 22.27350     35.6 1.031e+04 5.679e-10
 22.28790     36.1 1.056e+04 6.466e-10
 22.29815     34.6 1.043e+04 5.930e-10
 22.30451     34.4 1.096e+04 7.324e-10
 22.31476     34.8 1.035e+04 5.407e-10
 22.33499     34.5 1.083e+04 6.591e-10
 22.35549     34.0 1.140e+04 8.562e-10
 22.36914     33.6 1.189e+04 1.120e-09
 22.37939     34.2 1.112e+04 7.822e-10
 22.39648     34.0 1.152e+04 9.891e-10
 22.41698     33.9 1.179e+04 1.177e-09
 22.43376     33.8 1.191e+04 1.298e-09
 22.44401     34.2 1.151e+04 1.041e-09
 22.45797     34.0 1.164e+04 1.125e-09
 22.47847     33.7 1.173e+04 1.178e-09
 22.49358     33.2 1.176e+04 1.217e-09
 22.50325     31.2 1.157e+04 1.135e-09
 22.50864     31.7 1.136e+04 1.044e-09
 22.51946     31.2 1.132e+04 1.053e-09
 22.53996     31.0 1.127e+04 1.036e-09
 22.56046     31.0 1.118e+04 9.902e-10
 22.57326     31.0 1.103e+04 9.159e-10
 22.58351     31.4 1.085e+04 8.442e-10
 22.60145     31.2 1.067e+04 7.614e-10
 22.62195     31.1 1.043e+04 6.683e-10
 22.63789     30.8 1.019e+04 5.751e-10
 22.64814     30.8 1.017e+04 5.687e-10
 22.66295     30.4 9.959e+03 5.015e-10
 22.68344     29.7 9.804e+03 4.362e-10
 22.69925     29.3 9.705e+03 4.092e-10
 22.70817     27.7 9.531e+03 3.723e-10
 22.71286     27.6 9.684e+03 4.203e-10
 22.73478     26.7 9.682e+03 4.279e-10
 22.77588     27.0 9.670e+03 4.239e-10
 22.80653     27.1 9.743e+03 4.639e-10
 22.82693     26.9 9.744e+03 4.688e-10
 22.84201     26.4 9.805e+03 4.846e-10
 22.85226     25.2 9.757e+03 4.855e-10
 22.86792     24.5 9.908e+03 5.039e-10
 22.88842     18.6 1.459e+04 6.792e-10
 22.90493     -3.9 2.508e+04 3.743e-09
 22.91290     -7.6 2.439e+04 5.684e-09
 22.91689    -12.1 2.337e+04 7.794e-09
 22.92424    -15.8 2.232e+04 1.448e-08
 22.93444    -16.2 2.068e+04 2.529e-08
 22.94398    -15.3 1.953e+04 3.550e-08
 22.94910    -15.3 1.951e+04 3.626e-08
 22.95494    -14.2 1.953e+04 3.682e-08
 22.96518    -12.7 1.965e+04 3.341e-08
 22.97543    -11.5 2.068e+04 2.153e-08
 22.98141    -12.3 2.505e+04 7.651e-09
 22.98654    -14.2 2.727e+04 4.874e-09
 22.99593    -21.4 3.194e+04 1.374e-09
 23.01135    -41.3 2.166e+04 3.972e-10
 23.03190    -56.0 9.423e+03 2.974e-10
 23.04614    -56.4 9.366e+03 3.258e-10
 23.05639    -56.2 9.330e+03 3.161e-10
 23.07289    -56.5 9.328e+03 3.151e-10
 23.10045    -57.3 8.975e+03 2.592e-10
 23.12104    -54.9 8.826e+03 2.404e-10
 23.14483    -55.5 8.590e+03 1.749e-10
 23.18582    -56.8 8.407e+03 1.517e-10
 23.22682    -57.6 8.521e+03 1.813e-10
 23.25046    -58.0 8.857e+03 2.448e-10
 23.27095    -56.4 8.739e+03 2.245e-10
 23.30881    -56.2 9.157e+03 3.074e-10
 23.34980    -55.9 9.428e+03 3.643e-10
 23.37971    -55.7 9.391e+03 3.640e-10
 23.40020    -53.8 9.504e+03 4.024e-10
 23.43179    -53.1 9.211e+03 2.935e-10
 23.47279    -52.9 8.708e+03 1.921e-10
 23.50896    -53.1 8.413e+03 1.590e-10
 23.52756    -51.6 8.516e+03 1.706e-10
 23.53239    -50.1 9.305e+03 1.660e-10
 23.54443    -55.4 2.537e+04 2.249e-12
 23.56483    -78.5 3.519e+04 2.037e-10
 23.58363    -82.5 7.293e+04 3.235e-10
 23.59388    -74.9 6.312e+04 1.631e-10
 23.60582    -95.7 4.222e+04 4.115e-09
 23.62102   -106.4 2.778e+04 4.266e-08
 23.62610   -101.3 3.299e+04 7.869e-09
 23.62981   -105.3 2.608e+04 2.802e-08
 23.63493   -106.3 2.457e+04 3.387e-08
 23.64160   -108.4 2.129e+04 8.489e-08
 23.65185   -108.9 2.104e+04 1.269e-07
 23.65841   -107.3 2.136e+04 1.418e-07
 23.66353   -105.7 2.091e+04 1.003e-07
 23.67234   -103.9 2.153e+04 1.047e-07
 23.68259   -102.3 2.369e+04 7.208e-08
 23.69072   -101.8 2.625e+04 2.940e-08
 23.69585    -99.9 2.440e+04 4.298e-08
 23.70309   -102.1 2.643e+04 1.436e-08
 23.71334   -109.6 2.237e+04 3.486e-09
 23.72304   -115.2 1.369e+04 1.645e-09
 23.72816   -111.8 1.684e+04 2.224e-09
 23.73265   -114.1 1.236e+04 1.546e-09
 23.73777   -114.5 1.182e+04 1.408e-09
 23.74926   -113.4 1.164e+04 1.256e-09
 23.76980   -112.2 1.082e+04 9.463e-10
 23.78776   -110.9 1.041e+04 8.366e-10
 23.79801   -110.2 1.053e+04 8.628e-10
 23.81080   -109.0 1.036e+04 8.128e-10
 23.83130   -107.7 1.032e+04 7.890e-10
 23.85179   -106.5 1.030e+04 7.714e-10
 23.86263   -105.3 1.029e+04 7.601e-10
 23.87288   -105.0 1.032e+04 7.743e-10
 23.89279   -104.1 1.034e+04 7.734e-10
 23.91328   -103.1 1.035e+04 7.739e-10
 23.92726   -102.2 1.037e+04 7.811e-10
 23.93702   -102.0 1.045e+04 8.377e-10
 23.94354   -101.8 1.010e+04 6.738e-10
 23.95428   -100.8 1.015e+04 7.088e-10
 23.97478    -99.8 1.019e+04 7.379e-10
 23.99188    -98.7 1.021e+04 7.541e-10
 24.00213    -98.3 1.026e+04 7.941e-10
 24.01577    -97.2 1.027e+04 7.701e-10
 24.03627    -96.1 1.021e+04 7.304e-10
 24.05651    -95.0 1.017e+04 6.769e-10
 24.06676    -94.7 1.013e+04 6.535e-10
 24.08761    -93.5 1.003e+04 5.876e-10
 24.12870    -91.9 9.725e+03 4.817e-10
 24.16970    -89.8 9.332e+03 3.847e-10
 24.19620    -87.7 9.129e+03 3.312e-10
 24.21670    -87.2 9.070e+03 3.137e-10
 24.25169    -85.2 9.040e+03 2.893e-10
 24.29268    -83.2 9.030e+03 2.774e-10
 24.32545    -81.1 8.970e+03 2.672e-10
 24.34595    -80.9 8.969e+03 2.669e-10
 24.35509    -78.7 8.898e+03 2.511e-10
 24.37558    -78.2 8.749e+03 2.234e-10
 24.41567    -76.0 8.724e+03 2.105e-10
 24.45470    -74.0 8.733e+03 2.079e-10
 24.47520    -74.1 8.974e+03 2.391e-10
 24.49765    -72.6 9.179e+03 2.589e-10
 24.53865    -71.5 9.602e+03 3.650e-10
 24.57964    -70.0 1.015e+04 5.727e-10
 24.60445    -68.5 1.075e+04 8.364e-10
 24.62495    -69.2 1.065e+04 7.183e-10
 24.66163    -68.1 1.111e+04 8.969e-10
 24.70263    -67.9 1.155e+04 1.060e-09
 24.73370    -68.4 1.204e+04 1.261e-09
 24.75420    -69.1 1.195e+04 1.242e-09
 24.76634    -69.0 1.259e+04 1.773e-09
 24.77649    -69.7 1.263e+04 1.825e-09
 24.79467    -69.2 1.293e+04 2.222e-09
 24.80838    -68.3 1.316e+04 2.559e-09
 24.81863    -68.4 1.317e+04 2.693e-09
 24.83567    -67.6 1.319e+04 2.705e-09
 24.85616    -66.6 1.324e+04 2.312e-09
 24.87300    -66.5 1.296e+04 1.728e-09
 24.88325    -66.6 1.307e+04 2.007e-09
 24.89716    -66.9 1.286e+04 1.668e-09
 24.91766    -67.1 1.255e+04 1.371e-09
 24.93763    -67.0 1.234e+04 1.156e-09
 24.94788    -66.7 1.280e+04 1.671e-09
 24.95865    -66.6 1.281e+04 1.585e-09
 24.97191    -66.7 1.290e+04 1.535e-09
 24.98216    -67.1 1.263e+04 1.259e-09
 24.99964    -67.3 1.278e+04 1.190e-09
 25.01250    -67.8 1.311e+04 1.161e-09
 25.02275    -68.0 1.375e+04 2.017e-09
 25.04064    -68.5 1.412e+04 2.188e-09
 25.06114    -68.7 1.426e+04 2.275e-09
 25.07713    -68.6 1.418e+04 2.247e-09
 25.08737    -68.0 1.472e+04 4.026e-09
 25.10213    -67.3 1.455e+04 3.244e-09
 25.12263    -67.7 1.386e+04 2.103e-09
 25.14175    -68.6 1.292e+04 1.339e-09
 25.15200    -67.7 1.342e+04 1.851e-09
 25.16362    -68.9 1.237e+04 1.140e-09
 25.17759    -69.3 1.167e+04 8.134e-10
 25.18784    -69.2 1.136e+04 7.044e-10
 25.20462    -69.2 1.094e+04 5.715e-10
 25.21662    -69.1 1.061e+04 4.877e-10
 25.22687    -68.7 1.091e+04 5.202e-10
 25.24561    -68.6 1.053e+04 4.375e-10
 25.26611    -68.3 1.026e+04 3.975e-10
 25.28125    -67.8 1.011e+04 3.811e-10
 25.29150    -67.6 1.027e+04 4.007e-10
 25.30710    -67.1 1.012e+04 3.872e-10
 25.32760    -66.5 1.009e+04 3.881e-10
 25.34587    -66.0 1.015e+04 4.024e-10
 25.35612    -65.9 1.018e+04 4.281e-10
 25.36860    -65.4 1.023e+04 4.384e-10
 25.38326    -65.2 1.032e+04 4.693e-10
 25.39351    -65.3 1.034e+04 4.680e-10
 25.40959    -65.2 1.039e+04 5.272e-10
 25.42075    -64.7 1.049e+04 6.223e-10
 25.43100    -64.5 1.049e+04 6.207e-10
 25.45059    -64.1 1.062e+04 7.286e-10
 25.47108    -63.5 1.076e+04 8.353e-10
 25.48537    -62.9 1.086e+04 9.007e-10
 25.49562    -62.7 1.083e+04 8.884e-10
 25.51208    -62.2 1.086e+04 9.069e-10
 25.53258    -61.7 1.071e+04 8.681e-10
 25.55000    -61.1 1.056e+04 7.909e-10
 25.56025    -60.9 1.058e+04 7.968e-10
 25.57357    -60.5 1.033e+04 6.774e-10
 25.58903    -60.1 9.868e+03 4.706e-10
 25.59928    -60.0 1.036e+04 6.851e-10
 25.61457    -59.9 9.929e+03 5.134e-10
 25.64541    -59.7 9.659e+03 4.390e-10
 25.67944    -59.3 9.135e+03 3.256e-10
 25.69994    -58.9 9.524e+03 3.967e-10
 25.72750    -58.0 9.638e+03 3.976e-10
 25.76849    -56.5 9.786e+03 4.322e-10
 25.80869    -54.9 9.682e+03 4.276e-10
 25.82919    -54.1 1.040e+04 6.864e-10
 25.85048    -52.3 1.005e+04 5.700e-10
 25.89147    -50.8 9.829e+03 4.497e-10
 25.93247    -50.2 1.020e+04 5.281e-10
 25.95844    -50.3 1.112e+04 9.399e-10
 25.97894    -49.1 1.099e+04 8.263e-10
 26.00048    -48.5 1.221e+04 1.703e-09
 26.01063    -49.4 1.217e+04 1.898e-09
 26.02287    -48.9 1.261e+04 2.523e-09
 26.03312    -48.6 1.266e+04 2.513e-09
 26.04501    -47.8 1.291e+04 3.091e-09
 26.06551    -46.6 1.314e+04 3.308e-09
 26.08600    -45.8 1.320e+04 3.301e-09
 26.09774    -45.2 1.300e+04 2.809e-09
 26.10799    -44.7 1.300e+04 2.879e-09
 26.12700    -44.6 1.241e+04 2.237e-09
 26.14750    -44.6 1.167e+04 1.603e-09
 26.16237    -44.4 1.095e+04 1.144e-09
 26.17262    -43.9 1.111e+04 1.288e-09
 26.18849    -43.5 1.053e+04 9.468e-10
 26.20596    -43.0 1.001e+04 6.977e-10
 26.21620    -43.4 9.417e+03 4.924e-10
 26.22700    -43.0 8.990e+03 3.723e-10
 26.23724    -42.1 9.278e+03 4.369e-10
 26.24998    -41.6 8.900e+03 3.309e-10
 26.27048    -41.5 8.660e+03 3.036e-10
 26.29098    -40.1 8.436e+03 2.850e-10
 26.30187    -40.0 8.412e+03 2.834e-10
 26.31212    -39.8 8.479e+03 2.901e-10
 26.34232    -37.5 8.451e+03 3.268e-10
 26.36669    -34.7 8.432e+03 3.155e-10
 26.38719    -33.4 8.416e+03 3.002e-10
 26.41183    -30.8 8.309e+03 2.527e-10
 26.43232    -32.1 8.259e+03 2.413e-10
 26.45505    -29.5 8.175e+03 2.262e-10
 26.47545    -29.5 8.265e+03 2.311e-10
 26.49574    -29.0 8.696e+03 2.623e-10
 26.50599    -27.5 8.321e+03 2.249e-10
 26.51645    -28.7 8.994e+03 3.094e-10
 26.53695    -29.5 9.694e+03 4.895e-10
 26.55744    -31.2 1.122e+04 1.008e-09
 26.57062    -33.1 1.283e+04 2.083e-09
 26.58087    -31.8 1.238e+04 1.661e-09
 26.59844    -33.4 1.357e+04 3.089e-09
 26.61730    -32.6 1.434e+04 4.873e-09
 26.62755    -32.9 1.359e+04 4.051e-09
 26.63524    -32.1 1.387e+04 4.623e-09
 26.64549    -31.5 1.396e+04 4.790e-09
 26.65993    -31.0 1.404e+04 4.684e-09
 26.68043    -31.7 1.498e+04 4.374e-09
 26.69987    -34.2 1.651e+04 4.233e-09
 26.71012    -31.9 1.548e+04 4.072e-09
 26.72142    -35.3 1.650e+04 3.918e-09
 26.74192    -38.2 1.545e+04 3.932e-09
 26.76242    -39.2 1.423e+04 4.343e-09
 26.77474    -37.8 1.386e+04 4.842e-09
 26.78499    -37.6 1.434e+04 4.995e-09
 26.80341    -35.8 1.416e+04 5.399e-09
 26.82298    -33.9 1.412e+04 4.966e-09
 26.83323    -33.8 1.382e+04 4.917e-09
 26.83937    -32.1 1.380e+04 4.123e-09
 26.84962    -31.9 1.398e+04 4.969e-09
 26.86490    -30.4 1.403e+04 3.804e-09
 26.88540    -29.4 1.400e+04 2.167e-09
 26.90399    -30.0 1.340e+04 9.863e-10
 26.91424    -28.0 1.412e+04 1.718e-09
 26.92640    -29.1 1.344e+04 7.473e-10
 26.94689    -30.7 1.058e+04 3.766e-10
 26.96739    -31.6 9.145e+03 2.835e-10
 26.97887    -29.8 9.394e+03 2.868e-10
 26.98911    -29.8 9.381e+03 2.839e-10
 27.00839    -29.6 9.334e+03 2.720e-10
 27.03334    -27.6 9.262e+03 2.778e-10
 27.05384    -27.3 9.494e+03 2.821e-10
 27.08022    -25.2 9.318e+03 2.980e-10
 27.12132    -22.7 9.340e+03 3.123e-10
 27.16231    -20.1 9.276e+03 2.936e-10
 27.18318    -17.8 9.180e+03 2.642e-10
 27.20368    -17.2 9.031e+03 2.289e-10
 27.23452    -15.2 8.851e+03 1.937e-10
 27.25502    -15.6 8.788e+03 1.870e-10
 27.28530    -13.4 8.574e+03 1.494e-10
 27.31243    -11.3 8.423e+03 1.157e-10
 27.33293    -10.8 8.291e+03 9.964e-11
 27.36728     -8.9 8.226e+03 7.945e-11
 27.40828     -7.1 8.148e+03 6.849e-11
 27.44168     -5.2 8.118e+03 6.763e-11
 27.46218     -4.4 8.088e+03 6.440e-11
 27.49027     -2.6 8.103e+03 6.652e-11
 27.53126     -0.8 8.132e+03 7.414e-11
 27.57093      1.1 8.179e+03 8.709e-11
 27.59143      1.6 8.323e+03 9.042e-11
 27.61325      3.6 8.403e+03 1.110e-10
 27.64587      5.5 8.493e+03 1.329e-10
 27.66637      5.3 8.455e+03 1.341e-10
 27.69524      7.1 8.540e+03 1.534e-10
 27.72068      8.8 8.700e+03 1.785e-10
 27.74118      9.2 8.907e+03 2.393e-10
 27.77723     10.8 9.193e+03 2.945e-10
 27.81823     12.0 9.604e+03 3.701e-10
 27.84887     12.3 9.923e+03 4.526e-10
 27.85999     12.2 1.015e+04 5.542e-10
 27.86256     12.2 1.062e+04 7.668e-10
 27.87184     12.0 1.059e+04 7.686e-10
 27.88977     12.3 1.072e+04 9.014e-10
 27.91027     12.5 1.088e+04 9.883e-10
 27.92461     12.7 1.098e+04 1.049e-09
 27.93486     12.8 1.141e+04 1.379e-09
 27.95126     13.0 1.136e+04 1.352e-09
 27.97176     13.1 1.123e+04 1.281e-09
 27.98924     13.1 1.106e+04 1.186e-09
 27.99948     13.2 1.131e+04 1.343e-09
 28.01276     13.1 1.105e+04 1.185e-09
 28.03325     13.0 1.075e+04 1.038e-09
 28.05375     13.2 1.038e+04 8.779e-10
 28.06411     13.5 1.005e+04 7.407e-10
 28.06738     13.5 1.005e+04 7.056e-10
 28.07752     14.1 9.808e+03 6.288e-10
 28.10509     14.7 9.538e+03 4.673e-10
 28.12893     15.8 9.224e+03 3.450e-10
 28.14943     15.6 9.023e+03 2.952e-10
 28.18718     16.3 8.672e+03 2.259e-10
 28.22817     17.3 8.522e+03 1.971e-10
 28.25818     18.5 8.533e+03 1.997e-10
 28.27868     18.1 8.590e+03 2.363e-10
 28.31016     19.4 8.679e+03 2.516e-10
 28.35116     20.6 8.809e+03 2.731e-10
 28.38743     21.7 8.983e+03 3.040e-10
 28.40793     21.6 9.040e+03 3.237e-10
 28.43315     22.7 9.280e+03 3.702e-10
 28.46221     24.0 9.425e+03 4.102e-10
 28.47236     24.0 9.403e+03 4.077e-10
 28.47862     24.2 9.462e+03 4.217e-10
 28.48896     25.3 9.331e+03 3.903e-10
 28.50479     25.8 9.709e+03 4.723e-10
 28.52519     26.1 9.888e+03 5.164e-10
 28.53698     26.4 1.001e+04 5.689e-10
 28.54723     25.5 1.020e+04 6.106e-10
 28.56618     25.8 1.042e+04 6.999e-10
 28.58668     26.0 1.065e+04 7.948e-10
 28.60161     25.9 1.089e+04 8.849e-10
 28.61186     25.2 1.093e+04 9.000e-10
 28.62768     25.0 1.116e+04 1.010e-09
 28.64817     24.7 1.137e+04 1.078e-09
 28.66623     24.3 1.151e+04 1.083e-09
 28.67648     23.4 1.151e+04 1.075e-09
 28.68429     22.7 1.156e+04 1.054e-09
 28.69454     24.6 1.169e+04 1.150e-09
 28.70967     23.8 1.173e+04 1.112e-09
 28.73016     22.9 1.170e+04 1.051e-09
 28.74111     22.0 1.156e+04 9.552e-10
 28.75135     20.5 1.150e+04 9.217e-10
 28.77116     19.8 1.121e+04 8.365e-10
 28.79558     19.7 1.073e+04 6.043e-10
 28.81617     17.9 1.061e+04 5.209e-10
 28.84309     16.8 1.003e+04 3.091e-10
 28.87991     15.6 9.932e+03 2.888e-10
 28.90041     18.3 1.040e+04 3.753e-10
 28.91474     15.3 1.030e+04 3.710e-10
 28.93498     13.7 1.021e+04 4.397e-10
 28.94523     12.0 1.026e+04 5.207e-10
 28.95563     11.8 1.044e+04 6.569e-10
 28.97613     11.7 1.076e+04 8.102e-10
 28.99663     11.4 1.106e+04 9.444e-10
 29.00985     10.8 1.130e+04 1.050e-09
 29.02010      9.3 1.129e+04 1.007e-09
 29.03762      8.4 1.141e+04 1.076e-09
 29.05812      7.5 1.152e+04 1.182e-09
 29.07448      6.7 1.166e+04 1.289e-09
 29.09507      5.6 1.113e+04 1.013e-09
 29.13006      5.7 1.103e+04 9.722e-10
 29.17105      5.7 1.089e+04 8.473e-10
 29.20393      5.2 1.051e+04 6.340e-10
 29.22432      4.3 1.010e+04 4.690e-10
 29.24260      4.0 9.969e+03 4.331e-10
 29.26309      4.0 9.878e+03 4.283e-10
 29.27860      4.1 9.867e+03 4.340e-10
 29.28885      3.5 9.752e+03 3.920e-10
 29.30131      3.7 9.734e+03 4.069e-10
 29.31156      4.8 9.842e+03 4.264e-10
 29.32459      5.1 9.875e+03 4.572e-10
 29.34323      5.3 1.005e+04 5.102e-10
 29.35348      4.8 9.941e+03 4.536e-10
 29.36558      4.8 1.024e+04 5.341e-10
 29.38608      4.6 1.059e+04 6.542e-10
 29.40658      4.5 1.093e+04 8.131e-10
 29.41810      4.6 1.128e+04 1.007e-09
 29.42835      4.4 1.111e+04 8.850e-10
 29.44757      4.3 1.147e+04 1.088e-09
 29.46807      4.0 1.194e+04 1.357e-09
 29.48273      3.3 1.263e+04 1.799e-09
 29.49298      3.0 1.246e+04 1.683e-09
 29.50699      2.2 1.317e+04 2.321e-09
 29.51724      2.8 1.295e+04 2.091e-09
 29.52956      2.3 1.355e+04 2.900e-09
 29.54735      2.4 1.406e+04 3.797e-09
 29.55760      2.3 1.387e+04 3.354e-09
 29.57055      2.3 1.415e+04 3.791e-09
 29.59105      2.1 1.431e+04 3.926e-09
 29.61155      1.7 1.427e+04 3.749e-09
 29.62223      1.1 1.407e+04 3.257e-09
 29.63247      0.8 1.372e+04 2.653e-09
 29.65254      0.1 1.339e+04 2.087e-09
 29.67304     -0.9 1.307e+04 1.562e-09
 29.68685     -2.3 1.272e+04 1.198e-09
 29.69710     -2.8 1.234e+04 9.984e-10
 29.71266     -4.4 1.193e+04 8.941e-10
 29.72291     -3.4 1.275e+04 1.360e-09
 29.73453     -4.9 1.236e+04 1.300e-09
 29.75148     -5.9 1.226e+04 1.337e-09
 29.76173     -6.1 1.217e+04 1.289e-09
 29.77553     -7.7 1.264e+04 1.559e-09
 29.79603    -12.5 1.463e+04 2.745e-09
 29.81610    -16.5 1.618e+04 5.693e-09
 29.82635    -18.0 1.714e+04 8.083e-09
 29.83185    -20.3 1.865e+04 1.217e-08
 29.84205    -21.2 1.946e+04 1.351e-08
 29.85230    -25.8 2.201e+04 2.179e-08
 29.85856    -28.0 2.251e+04 2.581e-08
 29.86369    -28.1 2.259e+04 2.853e-08
 29.87279    -30.9 2.202e+04 2.927e-08
 29.88304    -32.5 2.112e+04 2.479e-08
 29.89093    -35.9 1.926e+04 1.421e-08
 29.90122    -36.8 1.931e+04 1.144e-08
 29.91833    -43.2 1.713e+04 3.419e-09
 29.92858    -39.2 1.794e+04 4.854e-09
 29.93951    -48.8 1.409e+04 1.200e-09
 29.95560    -56.3 1.077e+04 6.233e-10
 29.96585    -56.4 1.073e+04 6.615e-10
 29.98050    -58.3 1.072e+04 6.221e-10
 30.00100    -61.4 1.124e+04 6.689e-10
 30.02023    -65.0 1.193e+04 9.778e-10
 30.03047    -63.8 1.172e+04 9.762e-10
 30.04199    -65.9 1.207e+04 1.376e-09
 30.06249    -66.9 1.236e+04 1.834e-09
 30.08299    -67.3 1.267e+04 2.242e-09
 30.09510    -67.9 1.301e+04 2.384e-09
 30.10535    -66.8 1.253e+04 1.834e-09
 30.12398    -68.0 1.261e+04 1.832e-09
 30.14448    -68.4 1.247e+04 1.897e-09
 30.15972    -69.8 1.247e+04 1.757e-09
 30.16997    -68.7 1.188e+04 1.381e-09
 30.18548    -69.8 1.181e+04 1.345e-09
 30.20597    -70.8 1.204e+04 1.380e-09
 30.22435    -72.1 1.259e+04 1.562e-09
 30.23460    -70.0 1.163e+04 1.079e-09
 30.24697    -71.3 1.223e+04 1.229e-09
 30.26746    -72.6 1.263e+04 1.518e-09
 30.28796    -73.5 1.275e+04 1.866e-09
 30.29922    -73.6 1.272e+04 2.129e-09
 30.30947    -72.2 1.228e+04 1.563e-09
 30.32896    -72.2 1.234e+04 1.812e-09
 30.33993    -72.0 1.238e+04 1.920e-09
 30.35018    -71.7 1.232e+04 1.831e-09
 30.36385    -71.6 1.234e+04 1.682e-09
 30.37410    -70.2 1.198e+04 1.580e-09
 30.39045    -70.3 1.209e+04 1.439e-09
 30.41095    -70.9 1.194e+04 1.204e-09
 30.42847    -71.9 1.158e+04 9.489e-10
 30.43872    -69.7 1.178e+04 1.057e-09
 30.45194    -70.7 1.141e+04 8.389e-10
 30.47244    -71.7 1.087e+04 6.981e-10
 30.49294    -72.3 1.044e+04 6.250e-10
 30.50335    -72.3 1.022e+04 5.849e-10
 30.51360    -71.1 1.027e+04 5.416e-10
 30.53393    -71.2 1.007e+04 5.115e-10
 30.54570    -71.3 9.883e+03 4.701e-10
 30.55934    -70.9 1.013e+04 5.718e-10
 30.57832    -69.0 9.919e+03 4.761e-10
 30.60577    -68.1 9.753e+03 4.400e-10
 30.64686    -66.9 9.133e+03 2.905e-10
 30.68717    -65.7 8.684e+03 1.895e-10
 30.70767    -64.0 8.681e+03 1.962e-10
 30.72885    -62.6 8.386e+03 1.407e-10
 30.76985    -61.3 8.270e+03 1.192e-10
 30.81084    -60.0 8.257e+03 1.160e-10
 30.83692    -58.9 8.408e+03 1.360e-10
 30.85741    -57.5 8.530e+03 1.682e-10
 30.89283    -56.5 8.943e+03 2.691e-10
 30.93382    -54.8 9.386e+03 4.170e-10
 30.95715    -52.8 9.749e+03 5.478e-10
 30.96899    -53.0 9.728e+03 5.522e-10
 30.98666    -51.6 9.864e+03 6.092e-10
 31.01581    -49.9 9.959e+03 6.406e-10
 31.05681    -48.3 9.867e+03 5.946e-10
 31.09542    -46.6 9.539e+03 4.534e-10
 31.11591    -45.6 9.714e+03 5.283e-10
 31.13880    -44.5 9.579e+03 4.598e-10
 31.17979    -43.4 9.484e+03 4.514e-10
 31.22079    -42.2 9.449e+03 4.781e-10
 31.24516    -40.7 9.467e+03 5.030e-10
 31.26566    -39.6 1.001e+04 7.003e-10
 31.30278    -38.1 9.934e+03 6.839e-10
 31.34377    -36.3 9.649e+03 5.538e-10
 31.36850    -34.6 9.266e+03 3.835e-10
 31.37864    -35.0 8.951e+03 3.027e-10
 31.39491    -34.1 9.012e+03 3.207e-10
 31.42576    -32.6 8.801e+03 2.456e-10
 31.46676    -31.0 8.663e+03 1.845e-10
 31.50366    -29.5 8.598e+03 1.507e-10
 31.52416    -28.7 8.641e+03 1.485e-10
 31.54874    -27.1 8.644e+03 1.443e-10
 31.58974    -25.7 8.738e+03 1.491e-10
 31.63073    -24.5 8.980e+03 1.686e-10
 31.65341    -23.5 9.234e+03 2.141e-10
 31.67391    -22.3 9.371e+03 2.855e-10
 31.71272    -20.7 9.668e+03 4.128e-10
 31.75372    -18.7 1.004e+04 5.785e-10
 31.77984    -17.6 1.053e+04 6.773e-10
 31.78829    -18.4 1.014e+04 4.700e-10
 31.80316    -16.8 1.042e+04 6.541e-10
 31.83571    -16.5 1.072e+04 6.886e-10
 31.87670    -15.8 1.071e+04 8.417e-10
 31.91191    -14.3 1.056e+04 8.638e-10
 31.93241    -13.6 1.084e+04 9.769e-10
 31.95869    -11.4 1.029e+04 7.396e-10
 31.99969     -9.8 9.774e+03 4.135e-10
 32.04068     -8.7 9.426e+03 2.215e-10
 32.06166     -7.8 9.074e+03 1.594e-10
 32.08216     -6.6 9.150e+03 1.843e-10
 32.12267     -5.1 8.885e+03 1.323e-10
 32.16367     -3.6 8.772e+03 1.181e-10
 32.19091     -2.4 8.816e+03 1.303e-10
 32.19794     -1.7 8.968e+03 1.623e-10
 32.21169     -1.7 8.704e+03 1.349e-10
 32.24565      0.2 8.567e+03 1.738e-10
 32.28665      2.7 8.562e+03 2.095e-10
 32.32016      5.1 8.566e+03 2.046e-10
 32.34066      6.2 8.724e+03 2.184e-10
 32.36864      8.6 8.631e+03 1.859e-10
 32.40963     10.7 8.482e+03 1.367e-10
 32.44941     12.6 8.333e+03 9.461e-11
 32.46991     13.3 8.352e+03 9.974e-11
 32.49162     15.1 8.195e+03 7.331e-11
 32.53262     17.0 8.078e+03 5.727e-11
 32.57361     18.9 7.999e+03 4.853e-11
 32.59916     21.0 7.953e+03 4.384e-11
 32.60759     21.5 8.001e+03 4.979e-11
 32.62304     21.6 7.927e+03 4.066e-11
 32.65560     23.7 7.894e+03 3.929e-11
 32.69660     25.8 7.905e+03 3.969e-11
 32.72841     27.9 7.954e+03 4.196e-11
 32.74890     28.3 8.067e+03 5.875e-11
 32.77859     30.5 8.139e+03 6.723e-11
 32.81958     32.9 8.234e+03 7.871e-11
 32.85766     35.3 8.351e+03 9.230e-11
 32.87815     35.9 8.512e+03 1.137e-10
 32.90157     38.3 8.615e+03 1.179e-10
 32.94256     40.7 8.709e+03 1.218e-10
 32.98356     43.0 8.785e+03 1.273e-10
 33.00740     45.4 8.874e+03 1.366e-10
 33.01723     45.5 8.986e+03 1.615e-10
 33.03438     45.6 8.974e+03 1.614e-10
 33.06555     48.1 9.113e+03 1.959e-10
 33.10654     50.8 9.324e+03 2.552e-10
 33.13665     53.5 9.637e+03 3.516e-10
 33.15715     53.8 9.955e+03 4.727e-10
 33.18853     56.6 1.073e+04 7.165e-10
 33.22953     59.1 1.167e+04 1.126e-09
 33.26018     59.6 1.245e+04 1.602e-09
 33.27596     60.0 1.314e+04 2.145e-09
 33.28621     59.2 1.404e+04 3.369e-09
 33.30107     59.8 1.463e+04 4.467e-09
 33.32157     60.7 1.512e+04 5.660e-09
 33.34058     61.8 1.557e+04 6.826e-09
 33.35083     62.4 1.594e+04 8.858e-09
 33.36257     63.1 1.610e+04 8.999e-09
 33.38306     63.7 1.605e+04 8.642e-09
 33.40356     64.3 1.584e+04 7.711e-09
 33.41546     64.8 1.554e+04 6.615e-09
 33.42571     64.8 1.525e+04 5.943e-09
 33.43529     64.9 1.495e+04 5.152e-09
 33.44554     64.8 1.453e+04 4.023e-09
 33.46505     65.0 1.426e+04 3.633e-09
 33.48008     65.4 1.403e+04 3.323e-09
 33.49033     65.1 1.389e+04 3.469e-09
 33.50605     65.7 1.384e+04 3.379e-09
 33.52654     66.3 1.381e+04 3.166e-09
 33.54471     66.7 1.378e+04 2.905e-09
 33.55496     66.3 1.401e+04 3.326e-09
 33.56754     66.3 1.407e+04 3.166e-09
 33.58804     66.1 1.404e+04 3.006e-09
 33.60853     65.7 1.388e+04 2.861e-09
 33.61958     65.2 1.360e+04 2.698e-09
 33.62983     65.3 1.388e+04 3.183e-09
 33.64096     65.2 1.343e+04 2.832e-09
 33.65121     65.3 1.338e+04 2.805e-09
 33.67003     65.4 1.289e+04 2.450e-09
 33.68421     65.6 1.241e+04 2.055e-09
 33.69445     65.6 1.225e+04 1.694e-09
 33.71102     65.4 1.192e+04 1.364e-09
 33.73152     64.9 1.176e+04 1.206e-09
 33.74883     64.5 1.179e+04 1.214e-09
 33.75908     63.9 1.169e+04 1.114e-09
 33.77251     62.8 1.209e+04 1.274e-09
 33.79301     60.4 1.324e+04 1.923e-09
 33.81346     58.1 1.467e+04 3.465e-09
 33.83395     57.1 1.581e+04 6.132e-09
 33.84664     56.4 1.593e+04 6.759e-09
 33.85688     56.3 1.537e+04 5.330e-09
 33.87500     55.8 1.519e+04 4.994e-09
 33.88833     55.3 1.451e+04 3.673e-09
 33.89858     55.6 1.471e+04 4.112e-09
 33.91599     54.8 1.356e+04 2.270e-09
 33.93649     52.5 1.210e+04 1.104e-09
 33.95295     49.4 1.060e+04 6.368e-10
 33.96320     50.1 1.061e+04 5.755e-10
 33.97749     49.0 1.008e+04 5.013e-10
 33.99798     49.1 1.003e+04 4.963e-10
 34.01758     49.5 1.004e+04 5.000e-10
 34.02783     49.8 9.962e+03 4.297e-10
 34.03898     50.3 1.005e+04 4.498e-10
 34.05231     50.5 1.023e+04 5.052e-10
 34.06256     50.9 1.017e+04 4.977e-10
 34.07997     51.1 1.039e+04 5.868e-10
 34.09245     51.3 1.067e+04 7.169e-10
 34.10270     51.2 1.066e+04 6.262e-10
 34.12097     50.9 1.111e+04 8.104e-10
 34.14146     49.7 1.234e+04 1.204e-09
 34.15708     47.5 1.452e+04 2.054e-09
 34.16733     44.4 1.612e+04 3.370e-09
 34.17729     43.6 1.648e+04 4.263e-09
 34.18749     43.3 1.663e+04 4.550e-09
 34.19442     42.0 1.701e+04 5.682e-09
 34.19954     41.5 1.747e+04 6.747e-09
 34.20798     41.2 1.755e+04 8.511e-09
 34.21823     40.8 1.762e+04 9.786e-09
 34.22673     40.5 1.762e+04 9.909e-09
 34.23190     40.5 1.792e+04 1.467e-08
 34.24395     39.2 1.833e+04 1.475e-08
 34.25798     36.0 1.904e+04 1.403e-08
 34.26823     35.6 1.839e+04 1.185e-08
 34.28495     30.5 1.941e+04 1.490e-08
 34.29658     26.1 1.964e+04 2.095e-08
 34.30683     25.3 1.848e+04 1.770e-08
 34.32594     24.4 1.805e+04 1.828e-08
 34.34644     24.5 1.762e+04 1.593e-08
 34.36120     24.4 1.740e+04 1.039e-08
 34.37145     24.5 1.705e+04 6.474e-09
 34.38743     22.3 1.661e+04 3.415e-09
 34.40793     19.1 1.487e+04 1.873e-09
 34.42583     16.7 1.309e+04 1.261e-09
 34.43608     16.9 1.168e+04 8.170e-10
 34.44893     16.9 1.183e+04 7.046e-10
 34.46366     17.1 1.172e+04 5.976e-10
 34.47391     17.5 1.282e+04 1.081e-09
 34.48992     18.1 1.275e+04 9.232e-10
 34.50070     18.6 1.261e+04 8.263e-10
 34.51105     19.3 1.114e+04 4.063e-10
 34.54136     20.1 1.064e+04 2.781e-10
 34.58235     20.6 1.000e+04 2.100e-10
 34.61990     21.2 9.600e+03 1.936e-10
 34.64039     22.4 9.449e+03 1.586e-10
 34.65928     23.3 9.527e+03 2.032e-10
 34.67977     23.7 9.715e+03 2.300e-10
 34.70534     24.8 9.881e+03 2.746e-10
 34.74633     25.7 1.009e+04 3.070e-10
 34.76964     26.1 1.049e+04 3.586e-10
 34.79014     27.4 1.011e+04 3.478e-10
 34.82832     27.6 1.014e+04 3.616e-10
 34.86932     27.5 1.027e+04 4.002e-10
 34.89889     27.0 1.056e+04 5.009e-10
 34.91939     28.5 1.003e+04 4.051e-10
 34.95131     28.0 1.064e+04 6.137e-10
 34.99230     27.9 1.131e+04 9.360e-10
 35.02814     27.9 1.168e+04 1.237e-09
 35.04854     29.5 1.097e+04 8.393e-10
 35.06385     29.8 1.085e+04 7.829e-10
 35.08068     29.8 1.077e+04 7.623e-10
 35.09103     29.7 1.064e+04 6.510e-10
 35.11528     30.2 1.004e+04 4.214e-10
 35.15628     30.1 9.509e+03 2.267e-10
 35.17789     29.1 9.225e+03 1.361e-10
 35.19839     30.5 9.062e+03 1.351e-10
 35.23827     30.0 8.862e+03 1.311e-10
 35.27926     30.2 8.782e+03 1.324e-10
 35.30714     30.4 8.690e+03 1.303e-10
 35.32764     32.0 8.724e+03 1.415e-10
 35.36125     31.9 8.702e+03 1.404e-10
 35.40225     31.5 8.704e+03 1.444e-10
 35.43639     31.3 8.636e+03 1.484e-10
 35.45689     32.5 8.786e+03 1.681e-10
 35.48197     32.5 8.654e+03 1.617e-10
 35.50247     32.9 8.433e+03 1.236e-10
 35.52523     33.1 8.359e+03 1.052e-10
 35.56564     32.9 8.391e+03 1.036e-10
 35.58614     34.0 8.483e+03 1.146e-10
 35.60722     33.6 8.714e+03 1.350e-10
 35.64822     33.7 8.936e+03 1.716e-10
 35.67886     33.6 9.240e+03 2.291e-10
 35.69770     33.4 9.457e+03 2.776e-10
 35.70795     34.2 9.099e+03 2.196e-10
 35.71519     34.0 9.437e+03 2.987e-10
 35.72544     34.4 9.549e+03 3.447e-10
 35.74026     34.4 9.766e+03 4.100e-10
 35.76076     34.5 1.025e+04 5.748e-10
 35.77982     34.7 1.044e+04 6.308e-10
 35.79007     35.0 1.060e+04 6.774e-10
 35.81210     34.9 1.089e+04 8.429e-10
 35.84464     35.5 1.130e+04 9.479e-10
 35.86504     36.2 1.123e+04 8.749e-10
 35.88374     36.6 1.124e+04 8.779e-10
 35.90337     36.8 1.138e+04 9.113e-10
 35.91362     37.8 1.084e+04 7.119e-10
 35.91932     37.8 1.099e+04 7.875e-10
 35.92957     38.1 1.110e+04 8.376e-10
 35.94523     38.3 1.128e+04 9.351e-10
 35.96573     38.4 1.157e+04 1.069e-09
 35.98394     38.6 1.174e+04 1.179e-09
 35.99419     39.0 1.186e+04 1.256e-09
 36.00672     39.6 1.185e+04 1.248e-09
 36.02722     39.9 1.193e+04 1.246e-09
 36.04772     40.6 1.179e+04 1.163e-09
 36.05882     40.9 1.172e+04 1.088e-09
 36.06907     41.4 1.188e+04 1.142e-09
 36.08871     41.9 1.162e+04 9.959e-10
 36.10905     42.1 1.148e+04 8.834e-10
 36.11930     42.9 1.126e+04 7.886e-10
 36.12344     43.3 1.104e+04 7.099e-10
 36.13369     43.6 1.118e+04 7.732e-10
 36.15021     43.8 1.108e+04 7.145e-10
 36.17070     44.0 1.105e+04 6.593e-10
 36.18807     44.3 1.099e+04 6.017e-10
 36.19832     44.7 1.107e+04 6.792e-10
 36.21170     45.1 1.097e+04 6.198e-10
 36.23220     45.5 1.086e+04 5.658e-10
 36.25269     46.0 1.075e+04 5.165e-10
 36.27319     46.8 1.079e+04 5.621e-10
 36.29369     47.3 1.067e+04 5.305e-10
 36.31418     47.8 1.053e+04 5.218e-10
 36.32497     48.4 1.054e+04 5.267e-10
 36.32810     48.8 1.053e+04 5.142e-10
 36.33781     49.2 1.069e+04 6.165e-10
 36.35518     49.7 1.067e+04 6.171e-10
 36.37568     50.1 1.071e+04 6.285e-10
 36.39219     50.2 1.093e+04 6.738e-10
 36.40244     50.6 1.111e+04 7.660e-10
 36.41667     50.3 1.189e+04 8.824e-10
 36.43717     49.9 1.271e+04 1.072e-09
 36.45682     50.0 1.261e+04 1.272e-09
 36.46707     50.3 1.282e+04 1.376e-09
 36.47816     50.6 1.243e+04 1.426e-09
 36.49866     51.1 1.198e+04 1.443e-09
 36.51916     52.2 1.140e+04 1.414e-09
 36.53064     53.4 1.099e+04 1.246e-09
 36.53293     53.6 1.135e+04 1.041e-09
 36.54194     53.9 1.164e+04 1.264e-09
 36.56015     54.9 1.139e+04 1.333e-09
 36.58065     56.1 1.123e+04 1.327e-09
 36.59632     57.1 1.112e+04 1.263e-09
 36.60656     57.7 1.147e+04 1.685e-09
 36.62164     58.9 1.144e+04 1.632e-09
 36.64214     60.0 1.148e+04 1.497e-09
 36.66094     60.9 1.162e+04 1.259e-09
 36.67119     61.8 1.199e+04 1.902e-09
 36.68314     62.6 1.221e+04 1.476e-09
 36.70363     62.9 1.256e+04 1.044e-09
 36.72413     62.8 1.267e+04 7.059e-10
 36.73581     62.4 1.202e+04 4.947e-10
 36.73775     63.7 1.288e+04 6.482e-10
 36.74657     65.2 1.240e+04 1.172e-09
 36.76513     64.5 1.224e+04 7.642e-10
 36.78562     63.9 1.146e+04 5.515e-10
 36.80044     63.7 1.058e+04 4.695e-10
 36.81069     64.5 1.121e+04 5.699e-10
 36.82662     64.9 1.063e+04 5.382e-10
 36.84712     65.4 1.031e+04 5.292e-10
 36.86506     66.0 1.011e+04 5.340e-10
 36.87531     67.1 1.062e+04 6.402e-10
 36.88811     67.5 1.052e+04 6.442e-10
 36.90861     67.6 1.055e+04 6.784e-10
 36.92911     67.3 1.083e+04 7.808e-10
 36.93994     66.9 1.129e+04 9.437e-10
 36.94258     67.5 1.188e+04 1.195e-09
 36.95224     68.4 1.142e+04 1.342e-09
 36.97010     67.7 1.209e+04 1.669e-09
 36.99060     66.2 1.296e+04 2.139e-09
 37.00456     64.0 1.373e+04 2.841e-09
 37.01481     64.7 1.483e+04 4.052e-09
 37.03159     62.6 1.448e+04 4.652e-09
 37.05209     61.2 1.435e+04 4.879e-09
 37.06919     60.1 1.446e+04 4.820e-09
 37.07944     58.8 1.558e+04 6.100e-09
 37.09308     56.4 1.606e+04 5.278e-09
 37.11358     53.3 1.594e+04 3.824e-09
 37.13381     48.7 1.429e+04 2.580e-09
 37.14406     45.5 1.397e+04 2.572e-09
 37.14767     41.5 1.283e+04 2.209e-09
 37.15791     40.4 1.241e+04 1.776e-09
 37.17507     37.7 1.316e+04 2.117e-09
 37.19557     35.1 1.359e+04 2.642e-09
 37.20869     33.3 1.356e+04 3.074e-09
 37.21894     30.8 1.321e+04 2.704e-09
 37.23657     27.6 1.428e+04 3.153e-09
 37.25706     19.9 1.793e+04 4.686e-09
 37.27331     13.6 1.821e+04 6.122e-09
 37.28356     11.7 1.715e+04 6.055e-09
 37.29806      9.7 1.431e+04 4.736e-09
 37.31855      9.4 1.255e+04 3.118e-09
 37.33794     10.3 1.253e+04 1.744e-09
 37.34819      9.7 1.270e+04 1.313e-09
 37.35334      6.3 1.350e+04 4.848e-10
 37.36359      0.9 1.077e+04 2.652e-10
 37.38005     -2.2 8.783e+03 1.561e-10
 37.40054     -2.3 8.464e+03 1.277e-10
 37.41281     -2.2 8.396e+03 1.228e-10
 37.42306     -1.8 8.440e+03 1.292e-10
 37.45189     -0.8 8.445e+03 1.214e-10
 37.47763      0.3 8.639e+03 1.389e-10
 37.49813      1.3 8.629e+03 1.439e-10
 37.53397      2.3 8.821e+03 1.897e-10
 37.55921      3.8 9.062e+03 2.625e-10
 37.57971      4.4 9.255e+03 3.433e-10
 37.60688      5.9 9.357e+03 3.918e-10
 37.62738      6.5 9.351e+03 3.987e-10
 37.65696      7.6 9.446e+03 4.374e-10
 37.69795      8.9 9.505e+03 4.604e-10
 37.73613     10.2 9.516e+03 4.288e-10
 37.75663     10.9 9.534e+03 4.361e-10
 37.77994     11.9 9.525e+03 3.892e-10
 37.82094     12.7 9.435e+03 3.728e-10
 37.86193     13.3 9.418e+03 3.537e-10
 37.88588     14.0 9.361e+03 3.691e-10
 37.90638     13.9 1.000e+04 6.456e-10
 37.94392     15.7 1.005e+04 7.235e-10
 37.97046     17.2 1.010e+04 7.263e-10
 37.99096     17.2 1.017e+04 6.905e-10
 38.01503     17.8 1.031e+04 6.619e-10
 38.02518     17.5 1.071e+04 8.500e-10
 38.03596     15.7 1.126e+04 9.372e-10
 38.05646     13.5 1.177e+04 1.157e-09
 38.07696     12.5 1.192e+04 1.448e-09
 38.08981     12.6 1.198e+04 1.878e-09
 38.10006     12.1 1.254e+04 2.307e-09
 38.11795     10.2 1.428e+04 2.891e-09
 38.13845      6.6 1.577e+04 3.343e-09
 38.15443      2.7 1.478e+04 3.110e-09
 38.16468      0.1 1.381e+04 2.946e-09
 38.17604     -2.8 1.286e+04 2.052e-09
 38.18628     -4.0 1.238e+04 1.820e-09
 38.19994     -7.5 1.400e+04 1.340e-09
 38.23078    -18.2 1.250e+04 6.284e-10
 38.27188    -25.5 1.082e+04 5.352e-10
 38.29413    -29.0 1.021e+04 3.572e-10
 38.31462    -31.6 1.042e+04 3.273e-10
 38.35387    -36.2 1.039e+04 2.626e-10
 38.38190    -41.5 1.108e+04 3.605e-10
 38.40240    -40.7 1.049e+04 3.010e-10
 38.42338    -43.3 1.124e+04 7.853e-10
 38.44387    -43.3 1.077e+04 7.134e-10
 38.47685    -44.2 1.099e+04 8.214e-10
 38.51785    -45.2 1.082e+04 6.736e-10
 38.55263    -46.1 9.958e+03 3.299e-10
 38.57312    -47.1 9.075e+03 1.478e-10
 38.59983    -47.2 8.765e+03 9.088e-11
 38.64083    -46.4 8.626e+03 6.635e-11
 38.68182    -45.2 8.608e+03 6.084e-11
 38.72282    -43.4 8.662e+03 4.547e-11
 38.76381    -42.4 8.761e+03 6.066e-11
 38.79325    -41.0 8.844e+03 1.033e-10
 38.81375    -39.3 8.756e+03 8.668e-11
 38.83162    -37.7 8.899e+03 1.374e-10
 38.85212    -37.5 9.022e+03 1.091e-10
 38.88680    -35.9 9.235e+03 1.804e-10
 38.92779    -34.1 9.412e+03 2.407e-10
 38.96087    -32.4 9.449e+03 2.529e-10
 38.98137    -32.1 9.607e+03 3.085e-10
 39.00978    -30.3 9.478e+03 2.593e-10
 39.05078    -28.6 9.375e+03 1.427e-10
 39.09012    -27.8 9.297e+03 8.228e-11
 39.11062    -27.5 9.508e+03 9.983e-11
 39.13277    -27.3 9.381e+03 7.936e-11
 39.17376    -26.8 9.447e+03 8.412e-11
 39.20460    -26.6 9.530e+03 1.526e-10
 39.22510    -25.0 9.592e+03 1.185e-10
 39.23987    -24.1 9.643e+03 1.986e-10
 39.26037    -24.0 9.953e+03 2.106e-10
 39.29675    -22.3 9.945e+03 2.579e-10
 39.33774    -20.6 9.880e+03 2.652e-10
 39.36912    -18.9 9.675e+03 2.001e-10
 39.38962    -19.5 9.851e+03 1.446e-10
 39.41973    -18.8 9.741e+03 1.119e-10
 39.46072    -18.0 9.638e+03 1.023e-10
 39.49837    -16.8 9.652e+03 1.011e-10
 39.51887    -17.4 9.624e+03 1.818e-10
 39.54271    -15.7 9.693e+03 2.093e-10
 39.58371    -14.3 9.878e+03 2.403e-10
 39.61595    -13.4 1.008e+04 3.141e-10
 39.63645    -13.4 1.014e+04 3.706e-10
 39.64812    -12.2 1.028e+04 4.892e-10
 39.66862    -12.0 1.029e+04 3.047e-10
 39.70669    -10.9 1.021e+04 3.672e-10
 39.74769     -9.6 1.001e+04 3.862e-10
 39.77737     -7.8 9.441e+03 2.947e-10
 39.79787     -8.0 9.374e+03 2.724e-10
 39.82968     -5.5 8.910e+03 1.792e-10
 39.87067     -3.0 8.809e+03 8.058e-11
 39.90662     -1.8 9.283e+03 3.772e-11
 39.92712     -1.5 8.651e+03 6.074e-11
 39.95266     -0.6 8.693e+03 4.279e-11
 39.99366      1.0 8.622e+03 4.102e-11
 40.02730      2.8 8.407e+03 5.480e-11
 40.04779      3.4 8.671e+03 4.055e-11
 40.05637      5.4 8.791e+03 4.826e-11
 40.07686      6.0 8.769e+03 5.859e-11
 40.11664      8.3 8.531e+03 7.179e-11
 40.15763     10.8 8.569e+03 7.813e-11
 40.18562     13.0 8.836e+03 8.244e-11
 40.20611     13.3 8.908e+03 6.776e-11
 40.23962     14.3 9.321e+03 7.577e-11
 40.28062     14.8 9.513e+03 1.095e-10
 40.31487     16.0 9.651e+03 1.849e-10
 40.33536     17.1 9.334e+03 1.579e-10
 40.36261     19.1 9.641e+03 1.738e-10
 40.40360     20.6 9.820e+03 1.579e-10
 40.43864     21.9 1.004e+04 1.212e-10
 40.45866     22.9 9.874e+03 1.290e-10
 40.46461     22.8 9.687e+03 8.138e-11
 40.48559     23.6 9.637e+03 6.629e-11
 40.52659     24.7 9.537e+03 6.369e-11
 40.56758     26.0 9.611e+03 6.587e-11
 40.59386     26.9 9.816e+03 7.752e-11
 40.61436     27.9 9.626e+03 7.954e-11
 40.64957     29.1 9.808e+03 1.106e-10
 40.69057     30.1 1.005e+04 1.781e-10
 40.72311     30.9 1.033e+04 2.937e-10
 40.74361     32.2 1.022e+04 2.058e-10
 40.77255     32.9 1.040e+04 2.903e-10
 40.81355     33.5 1.043e+04 3.308e-10
 40.84999     33.9 1.034e+04 3.111e-10
 40.86831     34.6 1.062e+04 3.462e-10
 40.87286     35.5 1.047e+04 2.868e-10
 40.89554     35.2 1.040e+04 2.487e-10
 40.93653     34.4 1.042e+04 2.547e-10
 40.97753     33.4 1.051e+04 3.060e-10
 41.00211     32.9 1.066e+04 3.758e-10
 41.02261     34.2 1.077e+04 3.858e-10
 41.05952     33.2 1.092e+04 3.865e-10
 41.10051     31.7 1.106e+04 3.948e-10
 41.13136     30.0 1.108e+04 4.394e-10
 41.15186     30.7 1.100e+04 4.361e-10
 41.18250     29.9 1.087e+04 4.334e-10
 41.22350     29.4 1.064e+04 3.784e-10
 41.26061     28.6 1.041e+04 2.920e-10
 41.27796     29.4 1.050e+04 3.179e-10
 41.28184     29.8 1.057e+04 3.182e-10
 41.30549     29.4 1.025e+04 2.425e-10
 41.34648     29.5 9.989e+03 1.846e-10
 41.38748     29.4 9.848e+03 1.496e-10
 41.41036     29.5 9.869e+03 1.528e-10
 41.43086     30.2 9.976e+03 1.608e-10
 41.46946     28.8 1.029e+04 2.241e-10
 41.51046     28.4 1.093e+04 5.676e-10
 41.53951     27.7 1.184e+04 1.014e-09
 41.54966     28.1 1.196e+04 1.065e-09
 41.56151     27.3 1.267e+04 1.581e-09
 41.58200     26.1 1.373e+04 2.395e-09
 41.60250     24.7 1.463e+04 3.350e-09
 41.61429     22.4 1.531e+04 4.046e-09
 41.62454     21.7 1.568e+04 4.273e-09
 41.64350     18.0 1.602e+04 4.584e-09
 41.66399     15.1 1.507e+04 4.065e-09
 41.67891     13.5 1.352e+04 2.920e-09
 41.68741     14.7 1.349e+04 3.296e-09
 41.69299     15.0 1.402e+04 3.691e-09
 41.70499     14.8 1.286e+04 2.373e-09
 41.72549     14.3 1.244e+04 1.124e-09
 41.74354     10.6 1.222e+04 3.975e-10
 41.75379     10.7 1.248e+04 3.879e-10
 41.76648      3.9 9.818e+03 1.749e-10
 41.78698      1.7 9.133e+03 1.457e-10
 41.80748      1.2 9.143e+03 1.494e-10
 41.81841      0.4 9.222e+03 1.823e-10
 41.82866     -0.1 9.345e+03 2.101e-10
 41.84847     -0.6 9.379e+03 2.383e-10
 41.86897     -0.8 9.449e+03 2.975e-10
 41.88304     -1.8 9.645e+03 3.533e-10
 41.89223     -2.4 9.897e+03 3.953e-10
 41.89866     -2.7 1.044e+04 5.185e-10
 41.90996     -5.5 1.207e+04 7.536e-10
 41.93046     -9.4 1.334e+04 1.189e-09
 41.94766    -13.1 1.349e+04 1.823e-09
 41.95791    -14.3 1.308e+04 1.481e-09
 41.97145    -16.6 1.300e+04 2.222e-09
 41.99195    -17.2 1.336e+04 2.829e-09
 42.01229    -17.7 1.352e+04 2.970e-09
 42.02254    -17.8 1.359e+04 3.146e-09
 42.03295    -18.3 1.359e+04 2.848e-09
 42.05344    -19.0 1.310e+04 1.862e-09
 42.07394    -20.5 1.241e+04 1.167e-09
 42.08716    -21.8 1.164e+04 8.200e-10
 42.09706    -21.3 1.170e+04 9.215e-10
 42.10434    -21.1 1.159e+04 8.707e-10
 42.11494    -21.3 1.112e+04 6.937e-10
 42.13543    -21.3 1.082e+04 5.730e-10
 42.15179    -21.0 1.055e+04 4.760e-10
 42.16203    -20.6 1.062e+04 5.089e-10
 42.17643    -20.3 1.036e+04 4.200e-10
 42.20626    -19.8 1.009e+04 3.394e-10
 42.22686    -18.8 1.012e+04 3.599e-10
 42.24836    -17.1 9.587e+03 2.255e-10
 42.28936    -15.8 9.366e+03 1.646e-10
 42.33035    -14.2 9.196e+03 1.247e-10
 42.35611    -12.7 9.101e+03 1.085e-10
 42.37660    -12.0 9.107e+03 1.036e-10
 42.41234    -10.5 9.136e+03 9.860e-11
 42.45334     -9.5 9.314e+03 1.153e-10
 42.48536     -8.5 9.448e+03 1.713e-10
 42.50585     -7.6 9.479e+03 1.778e-10
 42.51588     -5.9 9.670e+03 2.395e-10
 42.53638     -4.9 9.464e+03 1.990e-10
 42.57632     -3.2 9.594e+03 2.286e-10
 42.61461     -1.9 9.568e+03 2.318e-10
 42.63510     -0.8 9.644e+03 2.191e-10
 42.65831      0.5 9.601e+03 1.744e-10
 42.69931      1.5 9.530e+03 1.320e-10
 42.74030      2.3 9.374e+03 1.110e-10
 42.76435      3.5 9.323e+03 1.063e-10
 42.78485      4.9 9.372e+03 1.095e-10
 42.82229      6.0 9.552e+03 1.106e-10
 42.86328      6.3 9.880e+03 1.374e-10
 42.89360      6.5 1.007e+04 2.160e-10
 42.91410      7.3 1.031e+04 2.560e-10
 42.92723      7.5 1.073e+04 4.933e-10
 42.94772      9.1 1.033e+04 2.389e-10
 42.98627      9.0 1.065e+04 4.369e-10
 43.02285      9.3 1.090e+04 5.929e-10
 43.04335     10.4 1.153e+04 8.833e-10
 43.05791     10.0 1.137e+04 7.008e-10
 43.07831     10.0 1.135e+04 6.884e-10
 43.09753      9.4 1.098e+04 4.702e-10
 43.10778      9.6 1.109e+04 4.977e-10
 43.11931     10.1 1.104e+04 4.355e-10
 43.15015     10.1 1.076e+04 3.221e-10
 43.17260     10.0 1.033e+04 2.354e-10
 43.19310     10.5 1.033e+04 2.161e-10
 43.23224     11.2 1.017e+04 1.832e-10
 43.27323     11.5 1.025e+04 1.806e-10
 43.30185     11.4 1.047e+04 2.301e-10
 43.32235     10.9 1.045e+04 2.684e-10
 43.33858     11.2 1.079e+04 3.914e-10
 43.35907     11.9 1.098e+04 3.565e-10
 43.37663     11.0 1.089e+04 4.006e-10
 43.38678     11.3 1.085e+04 5.109e-10
 43.40627     11.4 1.099e+04 6.151e-10
 43.42677     11.2 1.136e+04 7.189e-10
 43.44115     10.0 1.193e+04 8.380e-10
 43.45140     10.1 1.191e+04 8.224e-10
 43.46776      8.6 1.214e+04 9.713e-10
 43.48826      7.6 1.188e+04 1.143e-09
 43.50578      7.4 1.172e+04 1.246e-09
 43.51603      7.2 1.160e+04 1.061e-09
 43.52925      7.3 1.154e+04 1.031e-09
 43.54405      7.3 1.143e+04 7.505e-10
 43.55430      7.1 1.145e+04 6.568e-10
 43.57025      5.1 1.090e+04 4.122e-10
 43.58075      3.4 1.018e+04 2.679e-10
 43.60135      3.6 1.014e+04 3.060e-10
 43.64218      3.3 9.609e+03 2.041e-10
 43.68318      3.9 9.223e+03 1.363e-10
 43.71010      4.5 9.068e+03 1.060e-10
 43.73060      4.6 9.046e+03 9.845e-11
 43.74992      5.1 8.956e+03 9.152e-11
 43.77042      4.9 9.081e+03 1.155e-10
 43.80616      5.9 9.023e+03 1.336e-10
 43.83935      7.3 8.992e+03 1.522e-10
 43.85985      7.6 8.946e+03 1.304e-10
 43.88815      9.1 8.929e+03 1.329e-10
 43.92915     10.6 8.834e+03 1.240e-10
 43.96860     11.9 8.761e+03 1.104e-10
 43.98910     12.3 8.746e+03 1.057e-10
 44.01114     13.8 8.671e+03 1.013e-10
 44.05213     15.5 8.647e+03 9.608e-11
 44.09313     17.0 8.655e+03 9.046e-11
 44.11835     18.4 8.681e+03 8.869e-11
 44.13884     19.1 8.700e+03 8.791e-11
 44.16127     20.2 8.788e+03 9.709e-11
 44.18177     20.3 8.870e+03 1.146e-10
 44.21611     21.6 8.844e+03 1.430e-10
 44.24760     23.3 8.900e+03 1.734e-10
 44.26809     23.8 9.023e+03 1.873e-10
 44.29810     25.3 9.151e+03 2.196e-10
 44.33909     26.3 9.166e+03 2.287e-10
 44.37685     27.3 9.256e+03 2.232e-10
 44.39734     27.7 9.446e+03 2.624e-10
 44.42108     28.6 9.506e+03 2.601e-10
 44.46208     29.3 9.399e+03 2.570e-10
 44.50307     28.9 9.677e+03 2.941e-10
 44.52659     28.3 1.003e+04 3.801e-10
 44.54709     27.9 1.047e+04 5.248e-10
 44.57262     28.2 1.048e+04 7.694e-10
 44.59312     27.7 1.034e+04 6.540e-10
 44.62606     28.4 1.002e+04 5.403e-10
 44.65584     29.0 9.559e+03 3.284e-10
 44.67634     29.0 9.801e+03 3.754e-10
 44.70805     28.8 9.237e+03 2.214e-10
 44.74904     29.3 8.765e+03 1.570e-10
 44.78509     30.3 8.634e+03 1.200e-10
 44.80559     30.7 8.794e+03 1.500e-10
 44.83103     31.4 8.783e+03 1.268e-10
 44.87203     32.3 8.687e+03 1.262e-10
 44.91302     33.5 8.568e+03 1.272e-10
 44.93484     35.3 8.404e+03 1.150e-10
 44.95534     36.0 8.515e+03 1.322e-10
 44.98397     37.7 8.370e+03 9.464e-11
 45.00446     37.9 8.338e+03 8.647e-11
 45.03600     39.0 8.313e+03 5.873e-11
 45.06409     39.9 8.169e+03 4.628e-11
 45.08459     40.5 8.173e+03 5.264e-11
 45.11799     42.1 8.086e+03 5.275e-11
 45.15899     43.7 8.120e+03 5.705e-11
 45.19334     45.4 8.181e+03 6.837e-11
 45.21384     46.3 8.273e+03 7.579e-11
 45.24098     48.1 8.335e+03 8.989e-11
 45.28197     49.7 8.450e+03 1.071e-10
 45.32259     51.2 8.576e+03 1.251e-10
 45.34309     52.1 8.621e+03 1.281e-10
 45.36396     53.4 8.741e+03 1.482e-10
 45.39531     54.6 8.849e+03 1.683e-10
 45.41581     54.7 8.988e+03 1.890e-10
 45.44595     55.7 9.128e+03 2.112e-10
 45.47234     56.5 9.322e+03 2.352e-10
 45.49284     57.5 9.438e+03 2.561e-10
 45.52794     58.2 9.622e+03 2.734e-10
 45.56894     58.6 9.785e+03 2.787e-10
 45.59958     58.5 9.867e+03 2.796e-10
 45.61104     58.2 1.001e+04 2.935e-10
 45.61295     57.9 1.032e+04 3.560e-10
 45.62189     58.1 1.034e+04 3.779e-10
 45.64048     56.8 1.094e+04 5.416e-10
 45.66098     55.4 1.171e+04 8.906e-10
 45.67627     54.1 1.238e+04 1.502e-09
 45.68652     54.9 1.237e+04 1.469e-09
 45.70197     54.6 1.296e+04 2.156e-09
 45.72247     54.7 1.298e+04 2.321e-09
 45.74089     54.5 1.288e+04 2.218e-09
 45.75114     54.6 1.285e+04 1.938e-09
 45.76347     53.9 1.268e+04 1.640e-09
 45.78396     52.5 1.251e+04 1.312e-09
 45.80446     51.6 1.213e+04 9.737e-10
 45.81577     50.7 1.191e+04 8.582e-10
 45.81777     50.8 1.194e+04 9.086e-10
 45.82706     50.0 1.255e+04 1.082e-09
 45.85590     49.6 1.170e+04 6.834e-10
 45.88059     49.6 1.130e+04 4.595e-10
 45.90108     50.4 1.142e+04 5.118e-10
 45.93789     50.5 1.109e+04 3.415e-10
 45.97888     50.7 1.079e+04 2.634e-10
 46.00984     51.3 1.047e+04 2.343e-10
 46.03033     52.1 1.046e+04 2.092e-10
 46.06087     53.2 1.035e+04 2.113e-10
 46.10187     53.7 1.039e+04 2.376e-10
 46.13909     54.0 1.048e+04 3.084e-10
 46.15958     55.2 1.045e+04 2.859e-10
 46.18386     55.6 1.049e+04 3.323e-10
 46.21801     55.9 1.041e+04 2.925e-10
 46.23851     54.3 1.007e+04 1.751e-10
 46.26585     53.6 9.888e+03 1.322e-10
 46.28883     52.5 9.727e+03 1.315e-10
 46.30933     53.6 9.832e+03 1.367e-10
 46.34784     52.2 9.778e+03 1.869e-10
 46.38883     52.0 9.834e+03 2.850e-10
 46.41808     51.7 9.968e+03 3.088e-10
 46.43858     52.3 1.016e+04 3.618e-10
 46.47082     50.9 1.032e+04 3.838e-10
 46.51181     48.3 1.049e+04 4.820e-10
 46.54733     46.6 1.031e+04 5.000e-10
 46.56783     46.6 1.031e+04 4.921e-10
 46.59380     45.2 9.932e+03 3.496e-10
 46.62936     43.3 9.443e+03 2.291e-10
 46.64985     43.0 9.868e+03 3.646e-10
 46.67579     41.2 9.637e+03 2.722e-10
 46.69708     39.5 9.451e+03 2.599e-10
 46.71758     39.3 9.492e+03 3.046e-10
 46.75778     38.7 9.372e+03 3.107e-10
 46.79878     38.0 9.432e+03 2.655e-10
 46.82633     36.6 9.334e+03 2.514e-10
 46.84683     36.1 9.198e+03 2.395e-10
 46.88077     35.5 9.002e+03 2.562e-10
 46.92176     35.7 8.870e+03 2.314e-10
 46.95558     35.5 8.774e+03 2.020e-10
 46.97608     35.4 8.718e+03 1.959e-10
 47.00375     35.4 8.560e+03 1.797e-10
 47.04071     36.0 8.453e+03 1.762e-10
 47.06120     36.1 8.509e+03 1.761e-10
 47.08483     37.1 8.413e+03 1.524e-10
 47.10533     37.6 8.430e+03 1.580e-10
 47.12673     38.3 8.439e+03 1.328e-10
 47.16773     39.0 8.459e+03 1.304e-10
 47.20872     39.4 8.549e+03 1.529e-10
 47.23458     40.1 8.758e+03 2.034e-10
 47.25508     40.6 8.898e+03 2.348e-10
 47.29071     41.8 9.303e+03 3.405e-10
 47.33171     42.9 9.723e+03 4.431e-10
 47.36383     43.4 9.890e+03 4.645e-10
 47.38423     43.7 9.919e+03 4.968e-10
 47.41360     44.3 9.935e+03 4.721e-10
 47.45205     44.7 9.848e+03 4.111e-10
 47.47255     44.7 9.957e+03 4.168e-10
 47.49308     45.5 9.656e+03 3.455e-10
 47.51358     45.8 9.896e+03 3.980e-10
 47.53668     46.3 9.585e+03 3.023e-10
 47.57768     46.5 9.384e+03 2.560e-10
 47.61867     46.5 9.551e+03 2.833e-10
 47.64273     46.6 9.643e+03 3.319e-10
 47.65288     46.4 9.702e+03 3.555e-10
 47.66778     46.3 9.848e+03 4.008e-10
 47.67803     46.1 1.008e+04 4.594e-10
 47.69022     45.7 1.054e+04 6.232e-10
 47.70726     45.8 1.083e+04 8.105e-10
 47.71751     45.5 1.110e+04 9.296e-10
 47.73121     45.4 1.149e+04 1.205e-09
 47.75171     45.5 1.177e+04 1.493e-09
 47.77188     45.8 1.197e+04 1.641e-09
 47.78213     45.5 1.216e+04 1.741e-09
 47.79270     46.1 1.197e+04 1.610e-09
 47.81320     46.6 1.168e+04 1.329e-09
 47.83370     46.5 1.142e+04 1.020e-09
 47.84676     46.3 1.096e+04 7.277e-10
 47.85700     45.8 1.094e+04 6.778e-10
 47.87345     44.9 1.068e+04 5.072e-10
 47.88370     44.8 1.079e+04 4.499e-10
 47.90123     44.1 1.031e+04 3.288e-10
 47.92182     43.3 1.029e+04 3.077e-10
 47.94663     43.1 9.775e+03 2.647e-10
 47.98762     43.8 9.433e+03 2.346e-10
 48.02862     44.6 9.226e+03 2.001e-10
 48.05107     45.2 9.149e+03 1.697e-10
 48.07157     45.0 9.292e+03 1.821e-10
 48.11061     45.4 9.273e+03 1.707e-10
 48.15160     45.5 9.384e+03 1.809e-10
 48.18032     45.7 9.634e+03 2.042e-10
 48.20082     45.4 9.671e+03 2.071e-10
 48.23359     45.5 9.938e+03 2.548e-10
 48.27459     45.4 1.034e+04 3.588e-10
 48.30957     44.1 1.049e+04 4.152e-10
 48.33007     43.8 1.051e+04 4.248e-10
 48.35658     43.0 1.073e+04 5.388e-10
 48.39757     42.7 1.080e+04 7.112e-10
 48.43857     42.9 1.067e+04 7.209e-10
 48.45932     43.4 1.037e+04 6.301e-10
 48.47982     43.3 1.028e+04 5.946e-10
 48.52055     44.0 9.773e+03 3.897e-10
 48.56155     44.3 9.369e+03 2.432e-10
 48.58857     44.2 9.025e+03 1.668e-10
 48.60907     44.1 8.900e+03 1.610e-10
 48.64354     45.1 8.876e+03 1.592e-10
 48.68453     45.9 9.004e+03 1.731e-10
 48.70659     46.5 9.130e+03 2.216e-10
 48.71939     46.5 9.234e+03 2.617e-10
 48.73832     46.8 9.322e+03 2.752e-10
 48.76652     47.4 9.601e+03 3.627e-10
 48.79260     47.9 9.505e+03 3.522e-10
 48.80275     47.9 9.644e+03 4.032e-10
 48.81757     47.9 9.754e+03 4.331e-10
 48.83807     48.3 9.714e+03 4.264e-10
 48.85713     48.3 9.684e+03 4.028e-10
 48.86737     48.5 9.980e+03 5.209e-10
 48.87906     48.4 1.003e+04 5.203e-10
 48.89956     47.5 1.041e+04 5.724e-10
 48.91207     44.2 1.179e+04 8.745e-10
 48.92232     44.3 1.147e+04 8.138e-10
 48.93200     41.7 1.207e+04 1.373e-09
 48.94225     41.1 1.282e+04 2.195e-09
 48.96105     42.2 1.296e+04 3.242e-09
 48.98155     43.7 1.329e+04 3.969e-09
 48.99662     44.6 1.352e+04 4.001e-09
 49.00687     44.8 1.415e+04 4.890e-09
 49.02254     44.1 1.422e+04 4.029e-09
 49.04304     42.1 1.400e+04 3.194e-09
 49.06125     39.6 1.336e+04 2.828e-09
 49.07150     37.8 1.370e+04 3.199e-09
 49.08404     34.6 1.433e+04 3.872e-09
 49.10453     32.5 1.506e+04 5.307e-09
 49.11775     32.2 1.521e+04 6.318e-09
 49.12799     32.0 1.481e+04 5.105e-09
 49.13612     32.5 1.421e+04 4.706e-09
 49.14637     33.1 1.362e+04 3.875e-09
 49.16603     33.6 1.275e+04 2.441e-09
 49.18652     32.2 1.215e+04 1.248e-09
 49.21737     27.2 1.038e+04 4.567e-10
 49.25532     24.0 8.258e+03 2.208e-10
 49.27582     24.0 8.027e+03 1.874e-10
 49.29945     24.9 7.852e+03 1.647e-10
 49.34045     26.5 7.719e+03 1.548e-10
 49.38144     28.4 7.551e+03 1.360e-10
 49.40507     30.4 7.436e+03 1.140e-10
 49.42557     30.9 7.475e+03 1.203e-10
 49.46343     32.4 7.437e+03 1.046e-10
 49.50443     34.0 7.365e+03 1.017e-10
 49.52929     35.7 7.381e+03 1.065e-10
 49.53868     35.4 7.670e+03 1.432e-10
 49.55482     35.3 7.892e+03 1.711e-10
 49.58642     36.9 7.983e+03 1.875e-10
 49.62741     38.5 8.143e+03 2.138e-10
 49.66357     40.0 8.445e+03 2.575e-10
 49.68407     39.4 8.820e+03 3.350e-10
 49.70940     40.5 9.311e+03 4.016e-10
 49.75040     41.4 9.850e+03 4.942e-10
 49.79139     42.0 1.043e+04 6.316e-10
 49.81332     42.3 1.111e+04 8.994e-10
 49.83381     40.3 1.099e+04 9.288e-10
 49.87338     41.1 1.153e+04 1.286e-09
 49.91437     42.1 1.184e+04 1.464e-09
 49.94064     43.1 1.184e+04 1.317e-09
 49.94833     40.0 1.158e+04 9.182e-10
 49.96306     38.4 1.092e+04 5.283e-10
 49.99636     37.9 1.047e+04 3.565e-10
 50.03736     37.0 1.009e+04 2.764e-10
 50.07182     36.4 9.949e+03 2.592e-10
 50.09231     35.2 9.404e+03 2.373e-10
 50.11935     35.2 9.450e+03 2.579e-10
 50.16034     35.2 9.834e+03 3.085e-10
 50.19099     32.2 1.121e+04 4.553e-10
 50.21112     30.8 1.166e+04 5.446e-10
 50.22137     29.9 1.158e+04 5.544e-10
 50.23189     26.4 1.217e+04 9.458e-10
 50.25239     25.6 1.194e+04 1.308e-09
 50.27288     26.2 1.201e+04 1.505e-09
 50.28599     26.6 1.201e+04 1.380e-09
 50.29624     26.7 1.165e+04 1.079e-09
 50.31388     24.6 1.244e+04 6.241e-10
 50.33438     22.1 1.247e+04 5.023e-10
 50.35062     16.3 1.091e+04 3.984e-10
 50.35778     17.4 1.087e+04 3.398e-10
 50.37238     16.1 9.503e+03 2.495e-10
 50.40631     14.8 9.690e+03 3.314e-10
 50.44731     15.2 1.035e+04 4.852e-10
 50.48006     15.4 1.102e+04 6.996e-10
 50.50056     14.9 1.102e+04 6.451e-10
 50.52930     14.5 1.194e+04 1.249e-09
 50.57029     15.7 1.252e+04 2.032e-09
 50.60931     17.1 1.246e+04 2.039e-09
 50.62981     16.9 1.231e+04 1.886e-09
 50.65228     18.0 1.173e+04 1.113e-09
 50.69327     17.4 1.105e+04 3.755e-10
 50.73427     14.7 9.557e+03 1.944e-10
 50.75906     14.6 9.513e+03 1.869e-10
 50.76763     13.9 9.539e+03 1.906e-10
 50.78383     14.2 1.016e+04 2.799e-10
 50.81626     14.5 1.021e+04 3.185e-10
 50.85725     15.4 1.052e+04 4.606e-10
 50.88831     16.9 1.091e+04 6.613e-10
 50.90881     16.0 1.130e+04 8.722e-10
 50.93924     17.3 1.190e+04 1.097e-09
 50.96309     18.1 1.228e+04 1.290e-09
 50.97226     16.8 1.243e+04 1.313e-09
 50.97906     16.8 1.218e+04 1.210e-09
 50.99029     16.5 1.256e+04 1.334e-09
 51.01079     15.1 1.364e+04 1.715e-09
 51.02761     13.0 1.552e+04 2.604e-09
 51.03786     12.8 1.433e+04 1.829e-09
 51.05178     10.7 1.685e+04 2.766e-09
 51.07228      9.6 1.826e+04 3.696e-09
 51.09224      7.1 1.750e+04 3.845e-09
 51.10249      5.8 1.727e+04 2.676e-09
 51.11327      3.8 1.437e+04 2.805e-09
 51.13377      2.2 1.329e+04 2.571e-09
 51.15427      0.7 1.372e+04 2.501e-09
 51.16711     -2.2 1.430e+04 2.220e-09
 51.17708     -1.5 1.470e+04 2.592e-09
 51.18473      1.0 1.457e+04 2.824e-09
 51.19526     -2.1 1.539e+04 3.229e-09
 51.21576     -5.3 1.560e+04 3.153e-09
 51.23174     -8.2 1.437e+04 2.217e-09
 51.24199     -7.3 1.620e+04 3.165e-09
 51.25676    -10.4 1.331e+04 1.527e-09
 51.27725    -14.0 1.082e+04 7.037e-10
 51.29636    -17.0 1.008e+04 4.032e-10
 51.30661    -17.8 1.031e+04 4.636e-10
 51.31825    -20.0 9.693e+03 3.547e-10
 51.33875    -20.8 9.421e+03 3.295e-10
 51.35924    -20.9 9.337e+03 3.283e-10
 51.37124    -20.5 9.291e+03 3.305e-10
 51.38149    -20.6 9.420e+03 3.808e-10
 51.39041    -20.1 9.393e+03 3.669e-10
 51.40066    -19.8 9.422e+03 3.720e-10
 51.42571    -19.3 9.403e+03 3.437e-10
 51.44621    -19.3 9.528e+03 3.685e-10
 51.47208    -18.9 9.589e+03 3.648e-10
 51.51317    -18.6 9.648e+03 3.654e-10
 51.55416    -18.9 1.005e+04 4.713e-10
 51.57556    -18.9 1.050e+04 6.456e-10
 51.58692    -19.1 1.065e+04 6.678e-10
 51.60643    -18.8 1.094e+04 8.319e-10
 51.62571    -18.9 1.129e+04 9.907e-10
 51.63999    -19.6 1.144e+04 1.060e-09
 51.65023    -20.0 1.157e+04 1.119e-09
 51.66670    -20.8 1.158e+04 1.144e-09
 51.68720    -21.6 1.140e+04 1.107e-09
 51.70461    -22.3 1.120e+04 1.033e-09
 51.71486    -22.5 1.124e+04 1.077e-09
 51.72820    -23.3 1.099e+04 9.635e-10
 51.74869    -24.1 1.075e+04 8.495e-10
 51.76919    -24.8 1.051e+04 7.422e-10
 51.78969    -25.5 1.022e+04 6.132e-10
 51.80176    -26.0 1.006e+04 5.244e-10
 51.81200    -26.2 1.003e+04 5.190e-10
 51.83068    -26.9 9.910e+03 4.453e-10
 51.84411    -27.6 9.874e+03 4.000e-10
 51.85446    -26.9 9.697e+03 3.509e-10
 51.88212    -28.0 9.615e+03 2.726e-10
 51.92312    -29.4 9.658e+03 2.505e-10
 51.96331    -30.8 9.961e+03 2.924e-10
 51.98380    -30.1 9.873e+03 2.787e-10
 51.99476    -31.3 1.019e+04 3.972e-10
 52.00743    -31.6 1.048e+04 5.062e-10
 52.01768    -32.6 1.092e+04 6.631e-10
 52.03566    -32.8 1.110e+04 7.817e-10
 52.04823    -32.9 1.118e+04 8.717e-10
 52.05848    -32.5 1.126e+04 8.875e-10
 52.07665    -32.9 1.137e+04 9.735e-10
 52.09715    -33.2 1.152e+04 1.073e-09
 52.11286    -33.6 1.171e+04 1.196e-09
 52.12311    -33.4 1.198e+04 1.332e-09
 52.13814    -33.5 1.216e+04 1.503e-09
 52.15864    -33.5 1.221e+04 1.597e-09
 52.17748    -33.6 1.221e+04 1.615e-09
 52.18773    -33.1 1.239e+04 1.761e-09
 52.19963    -33.2 1.243e+04 1.802e-09
 52.21310    -33.2 1.248e+04 1.837e-09
 52.22335    -33.5 1.237e+04 1.811e-09
 52.24221    -33.4 1.241e+04 1.798e-09
 52.26270    -32.4 1.228e+04 1.730e-09
 52.29197    -32.3 1.220e+04 1.585e-09
 52.33306    -33.0 1.176e+04 1.275e-09
 52.37155    -33.3 1.137e+04 1.104e-09
 52.39205    -31.7 1.109e+04 9.168e-10
 52.40872    -31.4 1.094e+04 8.447e-10
 52.42922    -31.5 1.059e+04 6.993e-10
 52.45605    -30.7 1.063e+04 7.225e-10
 52.49704    -29.5 1.041e+04 6.261e-10
 52.52130    -27.9 9.897e+03 4.009e-10
 52.54180    -26.0 9.936e+03 4.291e-10
 52.57903    -24.4 9.358e+03 2.439e-10
 52.62003    -22.9 8.842e+03 1.331e-10
 52.65055    -21.4 8.506e+03 8.586e-11
 52.67105    -19.0 8.612e+03 1.034e-10
 52.70202    -17.3 8.358e+03 7.415e-11
 52.74301    -15.2 8.278e+03 6.688e-11
 52.77980    -13.1 8.291e+03 6.627e-11
 52.80030    -10.4 8.297e+03 7.001e-11
 52.82007     -8.5 8.463e+03 7.630e-11
 52.84057     -8.1 8.483e+03 1.037e-10
 52.86599     -6.3 8.881e+03 1.487e-10
 52.90699     -4.1 9.555e+03 2.484e-10
 52.92955     -1.3 1.057e+04 4.278e-10
 52.93970      1.2 1.048e+04 4.113e-10
 52.95804      1.4 1.053e+04 4.297e-10
 52.97853      3.2 1.126e+04 6.388e-10
 52.99398      4.0 1.162e+04 7.395e-10
 53.00423      6.5 1.159e+04 7.509e-10
 53.01953      8.5 1.205e+04 9.216e-10
 53.03580      9.7 1.216e+04 9.808e-10
 53.04605     10.3 1.207e+04 8.926e-10
 53.05860     12.2 1.237e+04 1.029e-09
 53.06885     16.0 1.237e+04 1.002e-09
 53.08102     17.6 1.247e+04 1.045e-09
 53.10152     19.5 1.264e+04 1.137e-09
 53.12202     20.2 1.272e+04 1.290e-09
 53.13348     18.3 1.455e+04 1.954e-09
 53.14373     27.0 1.921e+04 1.200e-09
 53.16301     22.5 1.994e+04 2.160e-09
 53.18351     17.2 2.222e+04 5.840e-09
 53.19805     13.4 2.314e+04 1.088e-08
 53.20313     18.0 2.418e+04 7.717e-09
 53.20903     15.6 2.368e+04 1.136e-08
 53.21928     11.9 2.584e+04 1.559e-08
 53.22953      1.2 4.762e+04 1.453e-08
 53.23544    -20.1 6.934e+04 1.522e-08
 53.23798    -23.2 7.304e+04 1.698e-08
 53.24229    -34.1 7.012e+04 2.919e-08
 53.24645    -51.9 5.536e+04 1.034e-07
 53.24901    -64.8 3.564e+04 6.236e-07
 53.25155    -74.6 2.918e+04 1.245e-06
 53.25411    -82.4 2.453e+04 2.222e-06
 53.25766    -89.8 2.654e+04 1.319e-06
 53.26279    -95.8 2.847e+04 6.896e-07
 53.26771   -100.3 3.385e+04 2.353e-07
 53.27285   -108.4 5.784e+04 1.856e-08
 53.28077   -121.1 8.006e+04 2.622e-09
 53.29102   -141.7 8.273e+04 4.480e-10
 53.30007   -160.9 2.814e+04 5.015e-10
 53.30519   -166.5 1.340e+04 6.779e-10
 53.31152   -166.5 1.282e+04 6.265e-10
 53.32694   -164.6 1.208e+04 5.549e-10
 53.33760   -162.3 1.077e+04 4.365e-10
 53.34785   -164.7 1.104e+04 5.257e-10
 53.36798   -161.5 1.057e+04 4.355e-10
 53.38848   -158.4 1.027e+04 3.693e-10
 53.40223   -155.6 1.005e+04 3.285e-10
 53.41248   -156.0 1.029e+04 3.703e-10
 53.42948   -153.6 1.008e+04 3.314e-10
 53.44715   -151.9 9.911e+03 3.111e-10
 53.45739   -150.3 9.878e+03 3.037e-10
 53.46685   -148.7 9.642e+03 2.807e-10
 53.47710   -147.6 9.796e+03 3.579e-10
 53.49097   -146.5 9.762e+03 3.465e-10
 53.51147   -144.7 9.691e+03 3.323e-10
 53.53148   -143.6 9.686e+03 3.301e-10
 53.54173   -143.6 9.771e+03 3.490e-10
 53.55246   -141.9 9.763e+03 3.501e-10
 53.57296   -141.0 9.886e+03 3.663e-10
 53.59345   -139.6 1.000e+04 3.922e-10
 53.60635   -139.0 1.014e+04 4.388e-10
 53.61660   -139.0 1.054e+04 6.216e-10
 53.63445   -137.8 1.064e+04 6.771e-10
 53.65282   -136.6 1.074e+04 7.299e-10
 53.66307   -135.2 1.052e+04 6.425e-10
 53.67098   -134.1 1.067e+04 7.073e-10
 53.68122   -133.7 1.091e+04 8.395e-10
 53.69594   -132.7 1.099e+04 8.787e-10
 53.71644   -131.9 1.108e+04 9.116e-10
 53.73560   -131.2 1.116e+04 9.401e-10
 53.74585   -130.6 1.116e+04 9.546e-10
 53.75743   -130.0 1.108e+04 9.194e-10
 53.77793   -129.6 1.100e+04 8.876e-10
 53.79843   -129.2 1.093e+04 8.674e-10
 53.81047   -128.8 1.089e+04 8.627e-10
 53.82072   -128.3 1.087e+04 8.508e-10
 53.83942   -127.9 1.085e+04 8.498e-10
 53.85849   -127.5 1.085e+04 8.519e-10
 53.86874   -126.3 1.074e+04 7.800e-10
 53.87510   -125.9 1.077e+04 7.973e-10
 53.88535   -125.2 1.055e+04 7.348e-10
 53.90092   -124.9 1.053e+04 7.595e-10
 53.92141   -124.9 1.072e+04 8.585e-10
 53.93972   -125.0 1.117e+04 1.043e-09
 53.94997   -124.2 1.108e+04 1.028e-09
 53.96241   -124.3 1.165e+04 1.282e-09
 53.98290   -124.5 1.238e+04 1.670e-09
 54.00340   -124.7 1.306e+04 2.195e-09
 54.01460   -125.1 1.354e+04 2.706e-09
 54.02485   -124.5 1.304e+04 2.200e-09
 54.04440   -125.1 1.318e+04 2.369e-09
 54.06417   -125.7 1.319e+04 2.405e-09
 54.07442   -125.9 1.371e+04 2.944e-09
 54.07922   -126.5 1.367e+04 2.947e-09
 54.08947   -126.4 1.370e+04 2.877e-09
 54.10589   -127.1 1.344e+04 2.732e-09
 54.12639   -128.1 1.303e+04 2.356e-09
 54.14385   -129.5 1.262e+04 2.001e-09
 54.15410   -130.6 1.386e+04 2.689e-09
 54.16738   -132.8 1.368e+04 2.501e-09
 54.18788   -135.0 1.351e+04 2.386e-09
 54.20838   -136.7 1.324e+04 2.280e-09
 54.22887   -139.2 1.373e+04 3.137e-09
 54.24937   -139.6 1.295e+04 2.438e-09
 54.26984   -139.8 1.233e+04 1.913e-09
 54.28332   -139.5 1.154e+04 1.324e-09
 54.29360   -140.7 1.228e+04 1.615e-09
 54.31086   -140.3 1.173e+04 1.266e-09
 54.33136   -139.9 1.126e+04 1.055e-09
 54.34797   -139.3 1.084e+04 9.229e-10
 54.35822   -140.5 1.123e+04 1.119e-09
 54.37235   -139.5 1.085e+04 9.853e-10
 54.39285   -138.3 1.057e+04 8.770e-10
 54.41260   -137.2 1.033e+04 7.765e-10
 54.42285   -137.7 1.075e+04 8.887e-10
 54.43385   -136.6 1.052e+04 7.640e-10
 54.45434   -135.6 1.029e+04 6.530e-10
 54.47484   -134.9 1.006e+04 5.580e-10
 54.48576   -134.4 9.848e+03 4.844e-10
 54.48815   -134.4 1.009e+04 5.642e-10
 54.49772   -135.0 1.027e+04 6.295e-10
 54.51584   -134.7 1.015e+04 5.645e-10
 54.53633   -134.4 1.007e+04 5.258e-10
 54.55210   -134.2 1.002e+04 5.033e-10
 54.56234   -135.2 1.027e+04 6.627e-10
 54.57733   -134.9 1.019e+04 6.347e-10
 54.59783   -134.5 1.009e+04 5.921e-10
 54.61672   -134.1 9.960e+03 5.354e-10
 54.62697   -134.4 1.022e+04 6.353e-10
 54.63882   -134.1 1.002e+04 5.343e-10
 54.65932   -133.8 9.830e+03 4.553e-10
 54.67981   -133.7 9.664e+03 4.128e-10
 54.69169   -133.5 9.517e+03 3.804e-10
 54.71229   -133.9 9.492e+03 4.292e-10
 54.75175   -133.6 9.171e+03 3.419e-10
 54.79275   -133.2 8.769e+03 2.580e-10
 54.82104   -132.6 8.412e+03 1.938e-10
 54.84154   -132.6 8.331e+03 1.774e-10
 54.87473   -132.0 8.049e+03 1.308e-10
 54.89731   -131.6 7.876e+03 1.009e-10
 54.91780   -131.4 8.080e+03 1.190e-10
 54.95029   -131.1 7.940e+03 9.458e-11
 54.97079   -131.2 8.046e+03 8.779e-11
 54.99772   -131.0 8.014e+03 8.177e-11
 55.03871   -131.2 8.011e+03 8.032e-11
 55.07954   -131.8 8.160e+03 8.348e-11
 55.12053   -134.4 8.968e+03 1.453e-10
 55.16170   -135.7 9.205e+03 2.029e-10
 55.20269   -136.9 9.229e+03 2.272e-10
 55.22929   -137.9 9.168e+03 2.275e-10
 55.24978   -138.8 9.085e+03 2.135e-10
 55.28468   -139.2 8.698e+03 1.480e-10
 55.30866   -139.6 8.385e+03 9.250e-11
 55.32915   -140.5 8.455e+03 9.165e-11
 55.35854   -140.7 8.348e+03 6.715e-11
 55.37903   -141.3 8.632e+03 8.539e-11
 55.40767   -141.2 8.623e+03 8.310e-11
 55.44866   -141.2 8.760e+03 8.879e-11
 55.48779   -141.3 9.013e+03 1.220e-10
 55.50828   -141.2 9.225e+03 2.012e-10
 55.53065   -141.0 9.409e+03 2.426e-10
 55.57164   -140.7 9.448e+03 2.581e-10
 55.61264   -140.0 9.429e+03 2.582e-10
 55.63754   -139.0 9.296e+03 2.343e-10
 55.65803   -139.0 9.414e+03 2.527e-10
 55.69463   -137.7 9.283e+03 2.105e-10
 55.72000   -136.5 9.295e+03 1.974e-10
 55.74050   -136.0 9.311e+03 1.903e-10
 55.76679   -134.8 9.327e+03 1.887e-10
 55.78728   -135.4 9.445e+03 1.928e-10
 55.81761   -135.0 9.939e+03 2.425e-10
 55.85861   -134.9 1.060e+04 4.189e-10
 55.89604   -134.8 1.121e+04 6.981e-10
 55.91653   -135.3 1.124e+04 7.056e-10
 55.94060   -135.3 1.181e+04 1.007e-09
 55.97081   -134.9 1.215e+04 1.167e-09
 55.98096   -134.9 1.204e+04 1.113e-09
 55.99165   -135.5 1.247e+04 1.293e-09
 56.01214   -136.1 1.283e+04 1.574e-09
 56.03264   -139.7 1.525e+04 2.655e-09
 56.04559   -144.0 1.748e+04 4.657e-09
 56.05584   -145.3 1.859e+04 6.191e-09
 56.07363   -150.6 2.054e+04 1.097e-08
 56.08896   -155.1 2.247e+04 1.902e-08
 56.09916   -158.7 2.330e+04 1.964e-08
 56.10941   -163.1 2.393e+04 1.894e-08
 56.11524   -167.9 2.428e+04 1.777e-08
 56.12036   -171.2 2.594e+04 4.696e-08
 56.12990   -175.8 2.538e+04 3.747e-08
 56.13618   -179.7 2.405e+04 2.585e-08
 56.14131   -179.3 2.365e+04 5.268e-08
 56.14755   -182.3 2.231e+04 3.459e-08
 56.15268   -184.8 2.165e+04 6.229e-08
 56.16065   -185.9 2.053e+04 3.964e-08
 56.17090   -186.4 1.958e+04 2.656e-08
 56.17986   -186.6 1.876e+04 1.870e-08
 56.18499   -187.7 1.964e+04 2.717e-08
 56.19140   -187.7 1.923e+04 2.072e-08
 56.20165   -187.6 1.880e+04 1.652e-08
 56.21189   -187.6 1.833e+04 1.362e-08
 56.21730   -187.5 1.782e+04 1.165e-08
 56.22243   -187.7 1.946e+04 1.504e-08
 56.23239   -187.5 1.891e+04 1.307e-08
 56.23902   -187.0 1.840e+04 1.180e-08
 56.24414   -186.6 1.939e+04 1.330e-08
 56.24961   -186.3 1.885e+04 1.218e-08
 56.25474   -186.8 2.028e+04 1.363e-08
 56.26314   -186.5 1.995e+04 1.301e-08
 56.27339   -186.3 1.962e+04 1.265e-08
 56.28193   -186.2 1.930e+04 1.253e-08
 56.28705   -186.8 2.001e+04 1.154e-08
 56.29388   -186.5 1.984e+04 1.167e-08
 56.30413   -186.4 1.959e+04 1.213e-08
 56.31429   -186.6 1.925e+04 1.362e-08
 56.31941   -187.0 2.015e+04 7.738e-09
 56.32463   -186.9 2.008e+04 8.210e-09
 56.33488   -187.1 2.007e+04 8.758e-09
 56.34186   -187.5 2.027e+04 9.373e-09
 56.34698   -187.6 2.058e+04 6.968e-09
 56.35168   -188.2 2.099e+04 7.593e-09
 56.35680   -190.0 1.941e+04 3.912e-09
 56.36562   -190.8 1.995e+04 4.276e-09
 56.37587   -192.3 2.037e+04 4.799e-09
 56.38399   -194.2 2.052e+04 5.333e-09
 56.38911   -195.6 1.881e+04 3.342e-09
 56.39637   -197.0 1.951e+04 4.056e-09
 56.40662   -198.5 1.988e+04 5.024e-09
 56.41630   -200.0 1.997e+04 6.145e-09
 56.42142   -199.9 1.936e+04 4.205e-09
 56.42712   -201.1 1.983e+04 5.271e-09
 56.43737   -202.4 1.991e+04 6.661e-09
 56.44469   -203.5 1.972e+04 7.892e-09
 56.44982   -203.5 1.973e+04 7.601e-09
 56.45379   -205.0 1.938e+04 9.117e-09
 56.46408   -204.7 1.849e+04 4.817e-09
 56.47841   -206.2 1.883e+04 6.576e-09
 56.48605   -207.1 1.875e+04 7.244e-09
 56.49117   -206.7 1.855e+04 5.971e-09
 56.49886   -207.8 1.849e+04 6.878e-09
 56.50911   -208.5 1.828e+04 7.540e-09
 56.51841   -209.7 1.796e+04 7.884e-09
 56.52871   -209.3 1.734e+04 6.369e-09
 56.54250   -210.8 1.731e+04 6.779e-09
 56.55275   -210.9 1.747e+04 7.181e-09
 56.56557   -212.0 1.697e+04 7.152e-09
 56.58090   -212.4 1.636e+04 6.310e-09
 56.58811   -212.9 1.590e+04 5.713e-09
 56.59328   -212.1 1.638e+04 6.252e-09
 56.60657   -212.6 1.540e+04 5.015e-09
 56.62706   -213.0 1.443e+04 3.664e-09
 56.64756   -213.5 1.347e+04 2.746e-09
 56.65796   -214.1 1.284e+04 2.182e-09
 56.66821   -212.8 1.291e+04 2.207e-09
 56.68856   -213.1 1.268e+04 1.922e-09
 56.70905   -213.4 1.267e+04 1.850e-09
 56.72258   -213.7 1.270e+04 1.843e-09
 56.73283   -211.9 1.246e+04 1.709e-09
 56.74818   -212.2 1.273e+04 1.754e-09
 56.75843   -212.9 1.321e+04 2.148e-09
 56.77054   -213.4 1.349e+04 2.433e-09
 56.78721   -214.0 1.364e+04 2.735e-09
 56.79746   -212.1 1.383e+04 2.510e-09
 56.81154   -212.7 1.405e+04 3.044e-09
 56.83204   -213.1 1.416e+04 3.407e-09
 56.85183   -213.5 1.419e+04 3.541e-09
 56.86208   -211.9 1.472e+04 4.000e-09
 56.87303   -212.5 1.485e+04 4.312e-09
 56.89353   -213.2 1.486e+04 4.348e-09
 56.91403   -214.2 1.478e+04 3.764e-09
 56.92671   -215.8 1.448e+04 2.916e-09
 56.93696   -214.2 1.610e+04 5.588e-09
 56.95385   -216.1 1.593e+04 4.467e-09
 56.96410   -217.8 1.541e+04 3.712e-09
 56.97552   -220.1 1.447e+04 2.693e-09
 56.99133   -222.3 1.323e+04 1.989e-09
 57.00158   -220.7 1.535e+04 3.865e-09
 57.01651   -222.8 1.378e+04 2.544e-09
 57.03701   -224.3 1.232e+04 1.744e-09
 57.05596   -225.1 1.143e+04 1.294e-09
 57.06621   -224.4 1.230e+04 1.743e-09
 57.07801   -225.1 1.120e+04 1.216e-09
 57.09850   -225.3 1.084e+04 9.751e-10
 57.11900   -225.4 1.071e+04 8.521e-10
 57.13083   -225.3 1.060e+04 7.761e-10
 57.14108   -225.3 1.070e+04 8.254e-10
 57.15952   -224.9 1.063e+04 7.844e-10
 57.16977   -225.0 1.061e+04 7.443e-10
 57.18049   -224.5 1.059e+04 7.376e-10
 57.19546   -223.8 1.058e+04 7.319e-10
 57.20571   -224.0 1.074e+04 7.683e-10
 57.22149   -223.1 1.064e+04 7.501e-10
 57.24198   -222.0 1.051e+04 6.816e-10
 57.26008   -220.7 1.035e+04 5.806e-10
 57.27033   -220.5 1.035e+04 5.850e-10
 57.28298   -219.3 1.020e+04 4.803e-10
 57.30348   -218.4 1.012e+04 4.197e-10
 57.33432   -217.7 1.007e+04 3.782e-10
 57.36539   -216.0 9.849e+03 3.036e-10
 57.38589   -216.1 9.867e+03 2.998e-10
 57.39978   -213.7 9.602e+03 2.446e-10
 57.42027   -213.3 9.527e+03 2.136e-10
 57.45740   -210.8 9.357e+03 1.860e-10
 57.49840   -208.2 9.311e+03 1.709e-10
 57.52903   -205.6 9.323e+03 1.661e-10
 57.54952   -205.4 9.309e+03 1.462e-10
 57.58039   -203.0 9.312e+03 1.455e-10
 57.62138   -200.6 9.336e+03 1.461e-10
 57.65828   -198.4 9.459e+03 1.532e-10
 57.67877   -198.4 9.463e+03 1.483e-10
 57.70337   -196.4 9.566e+03 1.603e-10
 57.74436   -194.4 9.653e+03 1.730e-10
 57.77674   -192.5 9.731e+03 1.843e-10
 57.79724   -192.0 9.725e+03 1.692e-10
 57.80802   -190.1 9.819e+03 1.803e-10
 57.82852   -190.5 1.013e+04 1.925e-10
 57.86735   -188.8 1.025e+04 2.120e-10
 57.90834   -187.0 1.034e+04 2.337e-10
 57.93727   -185.2 1.043e+04 2.578e-10
 57.95777   -185.6 1.058e+04 3.563e-10
 57.99033   -183.8 1.066e+04 3.604e-10
 58.03133   -182.0 1.075e+04 3.637e-10
 58.06652   -180.2 1.083e+04 3.720e-10
 58.08702   -180.6 1.064e+04 3.281e-10
 58.11332   -179.1 1.055e+04 2.937e-10
 58.15431   -177.6 1.043e+04 2.648e-10
 58.18809   -176.2 1.029e+04 2.423e-10
 58.20859   -175.8 1.032e+04 2.389e-10
 58.21627   -174.5 1.023e+04 2.305e-10
 58.23677   -175.1 9.856e+03 1.566e-10
 58.27730   -173.6 9.825e+03 1.551e-10
 58.31829   -172.1 9.819e+03 1.557e-10
 58.34552   -170.6 9.818e+03 1.642e-10
 58.36602   -171.0 9.587e+03 1.182e-10
 58.40028   -169.4 9.552e+03 1.200e-10
 58.44127   -167.8 9.523e+03 1.221e-10
 58.47477   -166.2 9.493e+03 1.260e-10
 58.49527   -166.4 9.302e+03 1.074e-10
 58.52326   -164.7 9.302e+03 1.158e-10
 58.56426   -163.0 9.336e+03 1.297e-10
 58.59944   -161.1 9.389e+03 1.497e-10
 58.61870   -161.4 9.479e+03 1.618e-10
 58.62452   -161.4 9.490e+03 1.655e-10
 58.64625   -159.5 9.615e+03 2.077e-10
 58.68724   -157.4 9.749e+03 2.647e-10
 58.72824   -155.2 9.883e+03 3.325e-10
 58.75377   -153.0 9.990e+03 3.993e-10
 58.77427   -153.0 9.926e+03 3.926e-10
 58.81023   -150.7 9.974e+03 4.381e-10
 58.85122   -148.5 9.970e+03 4.536e-10
 58.88302   -146.2 9.956e+03 4.543e-10
 58.90352   -146.1 9.661e+03 3.266e-10
 58.93321   -143.7 9.623e+03 3.259e-10
 58.97421   -141.2 9.480e+03 3.091e-10
 59.01079   -138.7 9.339e+03 2.792e-10
 59.02835   -138.7 9.351e+03 2.755e-10
 59.03277   -138.9 9.219e+03 2.075e-10
 59.05620   -136.4 9.130e+03 1.897e-10
 59.09719   -133.9 9.058e+03 1.722e-10
 59.13818   -131.6 9.046e+03 1.593e-10
 59.16202   -129.5 9.070e+03 1.552e-10
 59.18251   -130.1 8.991e+03 1.351e-10
 59.22017   -128.3 9.067e+03 1.356e-10
 59.26117   -126.8 9.290e+03 1.452e-10
 59.29127   -125.4 9.624e+03 1.726e-10
 59.31176   -127.4 9.836e+03 1.921e-10
 59.34316   -126.5 1.018e+04 2.616e-10
 59.38415   -125.3 1.045e+04 3.588e-10
 59.42052   -124.0 1.067e+04 4.657e-10
 59.43800   -126.0 1.062e+04 5.054e-10
 59.44263   -127.2 1.092e+04 6.349e-10
 59.46614   -125.9 1.080e+04 5.245e-10
 59.50714   -125.0 1.069e+04 4.364e-10
 59.54813   -124.3 1.053e+04 3.890e-10
 59.57026   -123.8 1.045e+04 3.756e-10
 59.59076   -125.5 1.000e+04 2.748e-10
 59.63012   -125.0 9.954e+03 2.710e-10
 59.67112   -124.7 9.836e+03 2.884e-10
 59.69951   -124.6 9.828e+03 3.331e-10
 59.72001   -124.9 9.560e+03 2.670e-10
 59.75311   -124.8 9.506e+03 2.884e-10
 59.79410   -124.9 9.477e+03 2.922e-10
 59.82876   -124.8 9.353e+03 2.895e-10
 59.84765   -124.3 9.169e+03 2.637e-10
 59.85398   -124.4 9.170e+03 2.634e-10
 59.87609   -124.0 8.917e+03 2.361e-10
 59.91708   -123.5 8.709e+03 2.025e-10
 59.95801   -122.6 8.558e+03 1.770e-10
 59.99901   -120.4 8.377e+03 1.496e-10
 60.04007   -118.9 8.279e+03 1.383e-10
 60.08106   -117.3 8.229e+03 1.332e-10
 60.10776   -115.4 8.222e+03 1.321e-10
 60.12826   -114.3 8.190e+03 1.283e-10
 60.16305   -112.4 8.191e+03 1.280e-10
 60.20405   -110.6 8.262e+03 1.383e-10
 60.23701   -108.7 8.417e+03 1.701e-10
 60.25730   -107.5 8.311e+03 1.486e-10
 60.26533   -108.3 8.336e+03 1.615e-10
 60.28604   -106.4 8.407e+03 1.885e-10
 60.32703   -104.3 8.449e+03 2.161e-10
 60.36626   -102.2 8.469e+03 2.396e-10
 60.38676   -101.1 8.455e+03 2.126e-10
 60.40902    -99.0 8.437e+03 2.204e-10
 60.45002    -96.8 8.431e+03 2.302e-10
 60.49101    -94.5 8.460e+03 2.420e-10
 60.51601    -92.3 8.506e+03 2.556e-10
 60.53651    -91.6 8.432e+03 2.199e-10
 60.57300    -89.4 8.492e+03 2.375e-10
 60.61399    -87.3 8.533e+03 2.509e-10
 60.64526    -85.2 8.537e+03 2.542e-10
 60.66576    -84.6 8.486e+03 2.280e-10
 60.67667    -82.4 8.455e+03 2.265e-10
 60.69717    -82.7 8.332e+03 2.057e-10
 60.73698    -80.2 8.240e+03 1.903e-10
 60.77451    -77.7 8.136e+03 1.599e-10
 60.79501    -77.1 8.155e+03 1.511e-10
 60.81897    -74.7 8.059e+03 1.260e-10
 60.85996    -72.4 7.998e+03 1.072e-10
 60.90096    -70.1 8.017e+03 9.687e-11
 60.92426    -68.0 8.045e+03 9.439e-11
 60.94475    -67.6 8.162e+03 1.045e-10
 60.98295    -66.0 8.455e+03 1.181e-10
 61.02394    -64.6 8.790e+03 1.657e-10
 61.05351    -63.3 9.214e+03 2.665e-10
 61.07400    -63.3 9.594e+03 4.411e-10
 61.08802    -61.7 1.018e+04 6.766e-10
 61.10852    -62.2 1.049e+04 8.244e-10
 61.14693    -60.9 1.087e+04 9.847e-10
 61.18276    -59.9 1.095e+04 9.995e-10
 61.20325    -60.1 1.108e+04 1.074e-09
 61.22891    -59.0 1.084e+04 8.314e-10
 61.26991    -58.1 1.056e+04 6.117e-10
 61.31090    -57.1 1.047e+04 5.430e-10
 61.33250    -56.0 1.046e+04 5.315e-10
 61.35300    -56.2 1.023e+04 3.858e-10
 61.39289    -54.9 1.030e+04 3.991e-10
 61.43389    -53.7 1.032e+04 4.054e-10
 61.46175    -52.4 1.032e+04 4.035e-10
 61.48225    -52.3 9.991e+03 3.029e-10
 61.49937    -51.1 9.970e+03 3.002e-10
 61.51987    -51.8 1.029e+04 3.379e-10
 61.55687    -51.0 1.052e+04 4.245e-10
 61.59100    -50.1 1.072e+04 5.325e-10
 61.61150    -49.9 1.077e+04 5.478e-10
 61.63886    -48.9 1.096e+04 6.906e-10
 61.67986    -47.8 1.102e+04 7.364e-10
 61.72025    -46.4 1.089e+04 6.585e-10
 61.74075    -46.0 1.100e+04 7.243e-10
 61.76185    -44.4 1.064e+04 5.219e-10
 61.80284    -42.8 1.024e+04 3.600e-10
 61.84384    -41.3 9.972e+03 2.637e-10
 61.87000    -39.5 9.800e+03 2.123e-10
 61.89050    -38.8 9.651e+03 1.738e-10
 61.91072    -36.6 9.581e+03 1.480e-10
 61.93121    -36.9 9.614e+03 1.468e-10
 61.96682    -34.7 9.673e+03 1.317e-10
 61.99925    -32.5 9.755e+03 1.280e-10
 62.01975    -31.8 9.651e+03 8.524e-11
 62.04881    -29.7 9.728e+03 8.284e-11
 62.08980    -27.8 9.867e+03 8.804e-11
 62.12850    -25.8 9.895e+03 1.078e-10
 62.14900    -25.0 9.702e+03 9.013e-11
 62.17179    -22.6 9.860e+03 1.046e-10
 62.21279    -20.7 1.024e+04 1.223e-10
 62.25378    -19.4 1.029e+04 1.672e-10
 62.27825    -17.2 1.028e+04 2.517e-10
 62.29875    -16.3 1.022e+04 2.374e-10
 62.32206    -13.4 1.028e+04 3.209e-10
 62.34256    -13.5 1.025e+04 2.714e-10
 62.37677    -11.2 1.033e+04 2.529e-10
 62.40750     -9.1 1.026e+04 1.931e-10
 62.42800     -7.6 1.031e+04 2.405e-10
 62.45876     -5.6 1.023e+04 1.774e-10
 62.49975     -3.7 1.000e+04 1.337e-10
 62.53675     -1.6 9.794e+03 1.041e-10
 62.55725     -0.2 9.952e+03 1.367e-10
 62.58174      2.0 9.794e+03 1.062e-10
 62.62273      4.5 9.804e+03 7.953e-11
 62.66373      6.4 9.893e+03 6.162e-11
 62.68650      8.4 9.762e+03 5.725e-11
 62.70699      9.3 1.007e+04 6.808e-11
 62.73341     11.1 1.002e+04 6.781e-11
 62.75391     11.3 1.004e+04 6.652e-11
 62.78671     12.4 1.010e+04 7.756e-11
 62.81575     13.4 1.032e+04 1.203e-10
 62.83625     14.8 1.020e+04 1.339e-10
 62.86870     16.4 1.045e+04 2.041e-10
 62.90970     18.1 1.080e+04 3.144e-10
 62.94500     19.8 1.109e+04 4.167e-10
 62.96550     20.5 1.117e+04 2.640e-10
 62.99169     21.9 1.123e+04 3.045e-10
 63.03268     23.4 1.109e+04 3.334e-10
 63.07368     25.2 1.087e+04 3.422e-10
 63.09475     27.1 1.069e+04 3.263e-10
 63.11524     28.1 1.062e+04 2.989e-10
 63.14476     30.1 1.060e+04 2.969e-10
 63.16526     29.6 1.042e+04 2.668e-10
 63.19666     31.3 1.051e+04 2.762e-10
 63.22400     32.8 1.067e+04 3.202e-10
 63.24449     34.2 1.039e+04 2.912e-10
 63.27865     35.7 1.056e+04 3.542e-10
 63.31965     37.1 1.061e+04 4.120e-10
 63.35029     38.5 1.058e+04 4.263e-10
 63.36330     38.8 1.058e+04 3.822e-10
 63.37365     40.4 1.057e+04 3.560e-10
 63.40163     41.9 1.060e+04 3.308e-10
 63.44263     43.2 1.066e+04 2.847e-10
 63.48250     43.8 1.073e+04 2.917e-10
 63.50299     46.7 1.045e+04 2.383e-10
 63.52462     47.0 1.063e+04 2.647e-10
 63.55527     46.2 1.095e+04 4.045e-10
 63.56616     46.6 1.106e+04 5.733e-10
 63.56817     46.6 1.125e+04 7.450e-10
 63.57767     47.4 1.133e+04 6.464e-10
 63.59616     47.8 1.162e+04 9.857e-10
 63.61666     47.8 1.203e+04 1.385e-09
 63.63205     47.2 1.330e+04 2.018e-09
 63.64230     48.1 1.314e+04 2.225e-09
 63.65766     46.7 1.481e+04 3.600e-09
 63.67815     45.2 1.612e+04 5.539e-09
 63.69667     44.1 1.644e+04 6.538e-09
 63.70692     45.6 1.616e+04 6.006e-09
 63.71915     44.4 1.599e+04 5.646e-09
 63.73965     42.4 1.590e+04 4.496e-09
 63.76014     38.2 1.627e+04 4.267e-09
 63.77155     32.0 1.671e+04 5.044e-09
 63.77299     34.3 1.641e+04 3.776e-09
 63.78208     34.6 1.723e+04 4.850e-09
 63.80114     29.1 1.628e+04 6.004e-09
 63.82163     28.5 1.537e+04 6.427e-09
 63.83617     29.3 1.467e+04 5.319e-09
 63.84642     29.8 1.506e+04 6.142e-09
 63.86263     30.6 1.441e+04 4.507e-09
 63.88313     30.1 1.410e+04 2.560e-09
 63.90080     27.7 1.362e+04 1.242e-09
 63.91105     30.2 1.386e+04 1.863e-09
 63.92412     26.8 1.301e+04 9.573e-10
 63.94462     24.3 1.144e+04 6.664e-10
 63.96512     23.3 1.117e+04 7.285e-10
 63.97567     23.7 1.107e+04 8.444e-10
 63.97781     24.9 1.131e+04 9.058e-10
 63.98776     24.2 1.145e+04 1.032e-09
 64.00611     24.7 1.162e+04 1.240e-09
 64.02661     25.2 1.177e+04 1.401e-09
 64.04030     26.4 1.165e+04 1.343e-09
 64.05054     27.1 1.171e+04 1.384e-09
 64.06760     27.3 1.169e+04 1.342e-09
 64.08810     28.6 1.128e+04 1.119e-09
 64.10492     28.9 1.112e+04 9.621e-10
 64.11517     29.5 1.116e+04 9.750e-10
 64.12910     30.1 1.092e+04 8.182e-10
 64.14959     30.3 1.085e+04 7.258e-10
 64.16955     30.8 1.079e+04 6.813e-10
 64.17979     31.3 1.079e+04 6.876e-10
 64.18318     32.0 1.080e+04 6.887e-10
 64.19343     31.3 1.073e+04 6.637e-10
 64.21108     31.8 1.091e+04 7.115e-10
 64.23158     32.4 1.112e+04 7.797e-10
 64.24442     32.8 1.133e+04 8.540e-10
 64.25467     33.6 1.116e+04 8.200e-10
 64.27258     34.0 1.143e+04 9.012e-10
 64.29307     34.5 1.193e+04 1.065e-09
 64.30904     34.7 1.274e+04 1.471e-09
 64.31929     35.9 1.216e+04 1.172e-09
 64.33407     36.4 1.296e+04 1.503e-09
 64.35457     36.1 1.401e+04 2.204e-09
 64.37367     34.7 1.563e+04 3.585e-09
 64.38392     34.7 1.643e+04 2.928e-09
 64.38886     31.2 1.871e+04 6.510e-09
 64.39911     27.2 2.019e+04 1.239e-08
 64.41089     25.2 2.104e+04 1.735e-08
 64.41613     23.6 2.167e+04 2.291e-08
 64.42126     24.0 2.146e+04 2.527e-08
 64.43133     22.6 2.226e+04 3.142e-08
 64.44158     21.4 2.248e+04 3.393e-08
 64.44845     19.3 2.271e+04 3.094e-08
 64.45357     20.0 2.306e+04 3.392e-08
 64.46208     18.6 2.287e+04 2.996e-08
 64.47233     16.9 2.281e+04 2.040e-08
 64.48076     13.9 2.189e+04 1.230e-08
 64.48588     13.3 2.297e+04 1.281e-08
 64.49160      7.1 1.902e+04 5.926e-09
 64.49672      2.2 1.561e+04 3.763e-09
 64.50307     -0.1 1.412e+04 2.768e-09
 64.51312     -0.7 1.382e+04 2.163e-09
 64.51824     -2.8 1.368e+04 2.221e-09
 64.52357     -2.9 1.370e+04 2.212e-09
 64.53899     -4.8 1.319e+04 1.806e-09
 64.55954     -7.1 1.232e+04 1.450e-09
 64.57779     -7.9 1.220e+04 1.402e-09
 64.58804     -9.3 1.300e+04 1.967e-09
 64.59453    -10.1 1.325e+04 2.217e-09
 64.60478     -9.6 1.298e+04 1.911e-09
 64.62103    -10.1 1.318e+04 2.118e-09
 64.64153    -10.4 1.320e+04 2.295e-09
 64.65267    -10.3 1.314e+04 2.353e-09
 64.66292    -10.6 1.390e+04 3.678e-09
 64.68252     -9.8 1.370e+04 3.502e-09
 64.70302     -9.2 1.349e+04 2.868e-09
 64.71729     -9.2 1.310e+04 2.166e-09
 64.72754     -9.6 1.363e+04 2.703e-09
 64.74402    -10.3 1.301e+04 2.091e-09
 64.76451    -10.5 1.253e+04 1.777e-09
 64.78192    -10.2 1.224e+04 1.623e-09
 64.79217    -10.3 1.261e+04 1.871e-09
 64.80020     -9.6 1.242e+04 1.754e-09
 64.81045     -9.0 1.243e+04 1.772e-09
 64.82601     -8.1 1.223e+04 1.643e-09
 64.84650     -7.3 1.197e+04 1.478e-09
 64.86700     -6.2 1.209e+04 1.436e-09
 64.88750     -5.3 1.190e+04 1.226e-09
 64.90799     -4.6 1.167e+04 1.027e-09
 64.92142     -4.1 1.150e+04 8.941e-10
 64.93166     -4.5 1.168e+04 1.011e-09
 64.94899     -4.1 1.161e+04 9.800e-10
 64.96949     -3.5 1.159e+04 9.812e-10
 64.98604     -2.6 1.176e+04 1.033e-09
 65.00664     -2.3 1.227e+04 1.305e-09
 65.04142     -0.7 1.247e+04 1.459e-09
 65.07207      0.3 1.287e+04 1.812e-09
 65.09247      0.5 1.327e+04 2.101e-09
 65.11297      0.6 1.392e+04 2.737e-09
 65.12554      0.6 1.462e+04 3.847e-09
 65.13579      1.2 1.425e+04 2.927e-09
 65.15396      1.6 1.481e+04 3.919e-09
 65.17446      2.2 1.539e+04 5.066e-09
 65.19016      2.7 1.591e+04 6.126e-09
 65.20041      1.9 1.529e+04 3.577e-09
 65.21155      1.7 1.534e+04 4.361e-09
 65.22180      2.0 1.647e+04 7.679e-09
 65.23595      2.1 1.648e+04 8.195e-09
 65.25479      2.6 1.632e+04 8.005e-09
 65.26504      2.5 1.578e+04 6.365e-09
 65.27695      3.5 1.563e+04 6.013e-09
 65.29744      4.5 1.530e+04 5.135e-09
 65.31794      5.4 1.486e+04 3.904e-09
 65.32966      6.2 1.423e+04 2.637e-09
 65.33991      5.9 1.353e+04 2.026e-09
 65.35894      6.3 1.286e+04 1.457e-09
 65.37943      6.7 1.234e+04 9.237e-10
 65.39439      7.5 1.233e+04 8.414e-10
 65.41498      7.2 1.138e+04 5.557e-10
 65.45137      8.5 1.066e+04 4.481e-10
 65.49236     11.0 1.020e+04 4.091e-10
 65.52373     14.1 9.827e+03 3.323e-10
 65.54423     14.4 9.486e+03 2.657e-10
 65.57435     17.0 9.289e+03 2.145e-10
 65.61285     19.1 9.219e+03 2.009e-10
 65.63334     19.6 9.433e+03 2.081e-10
 65.65298     21.6 9.405e+03 2.128e-10
 65.67348     21.8 9.345e+03 2.117e-10
 65.69734     23.0 9.805e+03 2.614e-10
 65.73833     24.5 1.030e+04 4.388e-10
 65.77933     26.1 1.086e+04 7.337e-10
 65.80273     27.6 1.134e+04 1.051e-09
 65.82323     28.3 1.098e+04 8.054e-10
 65.86132     29.5 1.119e+04 8.570e-10
 65.90231     30.1 1.152e+04 9.003e-10
 65.93198     30.1 1.198e+04 1.048e-09
 65.95248     30.7 1.121e+04 6.522e-10
 65.98430     31.0 1.165e+04 8.877e-10
 66.02419     31.8 1.190e+04 1.128e-09
 66.04469     31.2 1.210e+04 1.269e-09
 66.06123     32.2 1.198e+04 1.164e-09
 66.08173     33.3 1.135e+04 8.313e-10
 66.10729     34.3 1.119e+04 7.058e-10
 66.14828     35.3 1.095e+04 5.628e-10
 66.18927     36.4 1.090e+04 4.353e-10
 66.21098     37.2 1.103e+04 3.683e-10
 66.23148     39.3 1.086e+04 3.822e-10
 66.27126     40.4 1.095e+04 3.466e-10
 66.31226     41.3 1.131e+04 3.736e-10
 66.34023     42.5 1.160e+04 4.782e-10
 66.36073     44.5 1.121e+04 3.467e-10
 66.39425     45.8 1.137e+04 3.768e-10
 66.43524     47.3 1.134e+04 3.730e-10
 66.45604     49.1 1.128e+04 3.247e-10
 66.46978     49.5 1.146e+04 3.795e-10
 66.48998     51.0 1.125e+04 3.210e-10
 66.51723     52.8 1.124e+04 2.244e-10
 66.55823     54.3 1.126e+04 1.576e-10
 66.59873     56.0 1.133e+04 1.346e-10
 66.61923     57.3 1.100e+04 1.169e-10
 66.64022     59.4 1.097e+04 1.067e-10
 66.68121     60.9 1.131e+04 1.157e-10
 66.72221     59.7 1.283e+04 2.391e-10
 66.74838     56.7 1.443e+04 6.679e-10
 66.76888     59.0 1.403e+04 4.691e-10
 66.79385     56.8 1.528e+04 2.372e-09
 66.81291     57.2 1.568e+04 4.845e-09
 66.82316     57.7 1.538e+04 3.470e-09
 66.83475     58.1 1.582e+04 5.739e-09
 66.85524     58.5 1.610e+04 6.708e-09
 66.86719     58.6 1.606e+04 6.382e-09
 66.87744     57.9 1.604e+04 5.207e-09
 66.88778     57.0 1.557e+04 3.082e-09
 66.89803     57.6 1.594e+04 4.276e-09
 66.91674     56.3 1.516e+04 2.426e-09
 66.93723     54.7 1.402e+04 1.385e-09
 66.95241     53.6 1.291e+04 9.100e-10
 66.96265     54.6 1.359e+04 1.310e-09
 66.97823     54.1 1.277e+04 9.323e-10
 66.99872     54.4 1.231e+04 7.273e-10
 67.01703     54.7 1.207e+04 5.949e-10
 67.02728     55.3 1.238e+04 7.218e-10
 67.03972     55.8 1.216e+04 5.524e-10
 67.06022     55.8 1.211e+04 4.588e-10
 67.09106     56.6 1.202e+04 3.923e-10
 67.13215     57.7 1.174e+04 3.287e-10
 67.15672     58.9 1.164e+04 3.168e-10
 67.17722     59.5 1.176e+04 3.325e-10
 67.21414     60.8 1.183e+04 3.478e-10
 67.25514     61.3 1.202e+04 3.985e-10
 67.27864     60.8 1.216e+04 4.842e-10
 67.28879     59.9 1.226e+04 4.922e-10
 67.30619     59.9 1.247e+04 6.482e-10
 67.32668     59.8 1.263e+04 7.952e-10
 67.34718     59.7 1.275e+04 9.525e-10
 67.36065     59.6 1.287e+04 1.084e-09
 67.37090     59.7 1.287e+04 9.919e-10
 67.38817     59.4 1.292e+04 1.011e-09
 67.40867     59.1 1.291e+04 1.000e-09
 67.42528     58.8 1.284e+04 9.467e-10
 67.43553     58.6 1.268e+04 8.472e-10
 67.44967     58.4 1.254e+04 7.963e-10
 67.47016     58.4 1.239e+04 7.400e-10
 67.48421     58.5 1.228e+04 6.811e-10
 67.49370     57.9 1.226e+04 6.533e-10
 67.50015     57.9 1.222e+04 5.807e-10
 67.51116     57.7 1.218e+04 5.336e-10
 67.54200     58.4 1.217e+04 5.330e-10
 67.56497     59.0 1.202e+04 5.129e-10
 67.58547     59.2 1.181e+04 4.731e-10
 67.62409     60.3 1.171e+04 4.736e-10
 67.66508     61.7 1.152e+04 4.486e-10
 67.69008     63.2 1.137e+04 3.708e-10
 67.69872     62.4 1.120e+04 3.224e-10
 67.71472     63.0 1.108e+04 2.944e-10
 67.74707     64.4 1.103e+04 2.315e-10
 67.78807     65.6 1.098e+04 1.913e-10
 67.82347     67.0 1.090e+04 1.857e-10
 67.84397     67.7 1.089e+04 1.855e-10
 67.87006     69.2 1.091e+04 1.899e-10
 67.91105     70.5 1.099e+04 2.091e-10
 67.95205     71.6 1.113e+04 2.620e-10
 67.97322     72.6 1.132e+04 3.475e-10
 67.99372     73.0 1.143e+04 3.647e-10
 68.03404     73.7 1.167e+04 4.459e-10
 68.07503     74.4 1.177e+04 4.620e-10
 68.10143     74.9 1.175e+04 4.579e-10
 68.10837     74.8 1.171e+04 4.612e-10
 68.12297     74.3 1.183e+04 5.344e-10
 68.14667     75.0 1.181e+04 5.164e-10
 68.16690     75.1 1.183e+04 5.197e-10
 68.17715     74.9 1.190e+04 5.914e-10
 68.18757     75.0 1.198e+04 6.266e-10
 68.20807     75.1 1.211e+04 6.732e-10
 68.22857     75.0 1.222e+04 7.302e-10
 68.24177     75.1 1.234e+04 7.936e-10
 68.25202     74.2 1.265e+04 9.522e-10
 68.26956     74.0 1.282e+04 1.026e-09
 68.29006     73.9 1.292e+04 1.098e-09
 68.30640     73.6 1.309e+04 1.242e-09
 68.31300     72.7 1.315e+04 1.301e-09
 68.31716     72.7 1.323e+04 1.462e-09
 68.33105     72.7 1.326e+04 1.514e-09
 68.35155     72.1 1.351e+04 1.782e-09
 68.37102     72.1 1.358e+04 1.888e-09
 68.38137     71.2 1.332e+04 1.575e-09
 68.40299     70.6 1.337e+04 1.583e-09
 68.44398     70.3 1.314e+04 1.406e-09
 68.48498     70.5 1.267e+04 9.984e-10
 68.51072     71.0 1.217e+04 6.044e-10
 68.51802     69.6 1.186e+04 4.551e-10
 68.53328     68.5 1.184e+04 4.448e-10
 68.56697     69.1 1.142e+04 2.975e-10
 68.60796     70.0 1.110e+04 2.471e-10
 68.63997     71.5 1.095e+04 2.423e-10
 68.66046     71.3 1.086e+04 2.361e-10
 68.68995     73.2 1.082e+04 2.344e-10
 68.73095     75.1 1.080e+04 2.368e-10
 68.76922     76.9 1.082e+04 2.384e-10
 68.78971     76.6 1.081e+04 2.195e-10
 68.81294     78.4 1.085e+04 2.335e-10
 68.85393     80.2 1.089e+04 2.516e-10
 68.89493     82.1 1.091e+04 2.654e-10
 68.91896     84.0 1.093e+04 2.699e-10
 68.92767     83.7 1.115e+04 3.256e-10
 68.94462     83.0 1.082e+04 3.028e-10
 68.97691     84.9 1.094e+04 3.044e-10
 69.01791     86.9 1.098e+04 3.005e-10
 69.04822     89.0 1.099e+04 2.939e-10
 69.06871     88.4 1.127e+04 3.719e-10
 69.09990     90.5 1.125e+04 3.764e-10
 69.14089     92.5 1.120e+04 3.820e-10
 69.17747     94.5 1.118e+04 4.038e-10
 69.19796     93.5 1.141e+04 5.161e-10
 69.22288     95.3 1.153e+04 5.673e-10
 69.26388     97.1 1.172e+04 6.315e-10
 69.30487     99.0 1.189e+04 7.148e-10
 69.32721    100.7 1.212e+04 8.263e-10
 69.33732    100.0 1.202e+04 6.633e-10
 69.35587    100.0 1.207e+04 7.340e-10
 69.37642    100.8 1.215e+04 7.682e-10
 69.39164    101.5 1.228e+04 8.026e-10
 69.40189    100.8 1.228e+04 6.523e-10
 69.41741    101.3 1.244e+04 6.656e-10
 69.43791    101.7 1.257e+04 6.971e-10
 69.45627    102.2 1.277e+04 7.664e-10
 69.46652    101.0 1.276e+04 7.535e-10
 69.47890    101.3 1.294e+04 9.056e-10
 69.49940    101.7 1.307e+04 1.101e-09
 69.51990    102.2 1.316e+04 1.317e-09
 69.53114    102.6 1.323e+04 1.509e-09
 69.54139    101.9 1.301e+04 1.434e-09
 69.55120    102.6 1.303e+04 1.521e-09
 69.56145    102.5 1.274e+04 1.483e-09
 69.58139    103.4 1.270e+04 1.413e-09
 69.59577    104.3 1.259e+04 1.306e-09
 69.60601    103.8 1.228e+04 9.795e-10
 69.62239    104.5 1.221e+04 8.771e-10
 69.64288    105.2 1.214e+04 7.887e-10
 69.66039    105.8 1.207e+04 7.165e-10
 69.67064    105.1 1.172e+04 5.628e-10
 69.68388    105.6 1.166e+04 5.369e-10
 69.70438    106.3 1.159e+04 5.158e-10
 69.72487    106.9 1.153e+04 5.006e-10
 69.73526    107.7 1.145e+04 4.786e-10
 69.74687    108.0 1.128e+04 4.311e-10
 69.76732    108.0 1.097e+04 3.552e-10
 69.79681    109.7 1.087e+04 3.061e-10
 69.83780    111.3 1.074e+04 2.352e-10
 69.86471    112.6 1.055e+04 1.689e-10
 69.88521    112.2 1.039e+04 1.366e-10
 69.91979    113.2 1.025e+04 1.295e-10
 69.96079    114.2 1.023e+04 1.299e-10
 69.99396    115.1 1.019e+04 1.399e-10
 70.01446    114.9 1.024e+04 1.489e-10
 70.04278    115.7 1.026e+04 1.774e-10
 70.08377    116.4 1.031e+04 2.163e-10
 70.12321    117.1 1.038e+04 2.600e-10
 70.14371    116.4 1.064e+04 3.201e-10
 70.15817    117.1 1.067e+04 3.572e-10
 70.17867    116.7 1.055e+04 3.310e-10
 70.20676    117.5 1.055e+04 3.283e-10
 70.24775    118.3 1.049e+04 3.064e-10
 70.27296    119.1 1.037e+04 2.733e-10
 70.29346    118.6 1.037e+04 2.446e-10
 70.32974    119.5 1.026e+04 2.062e-10
 70.37074    120.5 1.015e+04 1.868e-10
 70.40221    121.5 1.010e+04 1.852e-10
 70.42271    121.2 1.012e+04 1.699e-10
 70.45272    122.5 1.007e+04 1.765e-10
 70.49372    123.7 1.002e+04 1.891e-10
 70.53146    125.0 9.978e+03 2.018e-10
 70.55196    124.9 9.933e+03 1.751e-10
 70.56952    126.1 9.925e+03 1.750e-10
 70.59001    126.2 9.926e+03 1.791e-10
 70.61670    127.2 9.901e+03 1.756e-10
 70.65770    128.3 9.812e+03 1.606e-10
 70.68121    129.5 9.693e+03 1.356e-10
 70.70170    129.5 9.654e+03 1.180e-10
 70.73969    130.8 9.526e+03 9.755e-11
 70.78068    132.0 9.398e+03 8.440e-11
 70.81046    133.4 9.312e+03 8.222e-11
 70.83095    133.8 9.326e+03 8.327e-11
 70.86267    135.4 9.324e+03 8.395e-11
 70.90367    137.1 9.316e+03 8.780e-11
 70.93971    138.8 9.328e+03 9.586e-11
 70.96020    139.1 9.372e+03 9.813e-11
 70.98086    140.8 9.393e+03 1.070e-10
 71.00136    141.1 9.353e+03 9.260e-11
 71.02665    142.8 9.397e+03 1.040e-10
 71.06765    144.5 9.461e+03 1.184e-10
 71.08945    146.1 9.538e+03 1.358e-10
 71.10995    146.5 9.501e+03 1.175e-10
 71.14963    148.1 9.569e+03 1.325e-10
 71.19063    149.6 9.650e+03 1.511e-10
 71.21870    151.1 9.741e+03 1.739e-10
 71.23920    151.4 9.676e+03 1.346e-10
 71.27262    152.8 9.765e+03 1.587e-10
 71.31361    154.2 9.866e+03 1.908e-10
 71.34795    155.5 9.985e+03 2.303e-10
 71.36845    155.8 9.883e+03 1.905e-10
 71.39221    157.1 1.002e+04 2.413e-10
 71.41271    157.3 9.981e+03 2.284e-10
 71.43660    158.6 1.013e+04 2.840e-10
 71.47720    159.8 1.030e+04 3.326e-10
 71.49770    160.0 1.027e+04 2.866e-10
 71.51859    161.0 1.054e+04 3.431e-10
 71.55958    161.5 1.077e+04 3.865e-10
 71.59023    161.7 1.084e+04 4.075e-10
 71.60794    162.3 1.090e+04 4.324e-10
 71.61819    162.2 1.090e+04 4.194e-10
 71.62676    162.7 1.103e+04 4.634e-10
 71.63700    162.5 1.103e+04 4.494e-10
 71.65162    162.9 1.119e+04 5.162e-10
 71.67212    163.0 1.135e+04 5.821e-10
 71.69138    163.0 1.150e+04 6.507e-10
 71.70163    162.9 1.148e+04 6.503e-10
 71.71312    162.9 1.159e+04 7.265e-10
 71.73361    162.9 1.169e+04 8.074e-10
 71.75411    162.9 1.180e+04 8.925e-10
 71.76625    162.8 1.188e+04 9.621e-10
 71.77650    162.9 1.172e+04 8.511e-10
 71.79511    162.8 1.172e+04 8.538e-10
 71.81361    162.7 1.170e+04 8.467e-10
 71.82386    162.9 1.152e+04 7.530e-10
 71.83088    162.9 1.147e+04 7.326e-10
 71.84113    163.0 1.130e+04 6.080e-10
 71.85660    163.1 1.126e+04 5.969e-10
 71.87710    163.2 1.126e+04 5.945e-10
 71.89550    163.4 1.128e+04 5.999e-10
 71.90575    163.4 1.121e+04 5.023e-10
 71.91809    163.7 1.130e+04 5.312e-10
 71.93859    163.8 1.140e+04 5.696e-10
 71.96943    164.6 1.150e+04 6.305e-10
 72.01052    165.5 1.160e+04 7.879e-10
 72.03520    166.0 1.174e+04 9.652e-10
 72.05570    166.7 1.162e+04 8.475e-10
 72.09251    166.8 1.186e+04 1.026e-09
 72.13351    166.7 1.193e+04 1.058e-09
 72.16445    166.4 1.189e+04 1.028e-09
 72.18495    166.9 1.194e+04 1.010e-09
 72.21491    166.8 1.181e+04 9.450e-10
 72.23541    167.1 1.205e+04 1.063e-09
 72.25649    167.4 1.162e+04 8.349e-10
 72.29370    167.8 1.112e+04 6.018e-10
 72.31420    168.1 1.134e+04 6.507e-10
 72.33848    168.7 1.086e+04 4.551e-10
 72.37948    169.5 1.046e+04 3.295e-10
 72.42047    170.7 1.022e+04 2.564e-10
 72.44345    172.3 1.003e+04 2.199e-10
 72.46394    172.3 1.011e+04 2.169e-10
 72.50246    174.0 9.961e+03 2.073e-10
 72.54345    176.1 9.951e+03 2.075e-10
 72.57270    178.2 9.951e+03 2.091e-10
 72.59319    178.1 9.967e+03 1.937e-10
 72.62544    180.3 9.973e+03 1.968e-10
 72.64675    182.3 1.000e+04 2.022e-10
 72.66725    182.5 9.933e+03 1.768e-10
 72.70195    184.4 9.974e+03 1.786e-10
 72.72244    184.5 9.984e+03 1.551e-10
 72.74843    186.4 1.003e+04 1.581e-10
 72.78942    188.3 1.006e+04 1.583e-10
 72.83042    190.1 1.008e+04 1.564e-10
 72.85169    192.0 1.010e+04 1.515e-10
 72.87219    192.3 1.010e+04 1.448e-10
 72.91241    194.3 1.011e+04 1.448e-10
 72.95340    196.4 1.010e+04 1.460e-10
 72.98094    198.4 1.008e+04 1.491e-10
 73.00144    198.8 1.016e+04 1.611e-10
 73.03539    200.8 1.018e+04 1.720e-10
 73.05810    202.7 1.020e+04 1.882e-10
 73.07860    203.0 1.017e+04 1.836e-10
 73.11019    204.9 1.021e+04 1.989e-10
 73.13069    205.3 1.043e+04 2.282e-10
 73.15838    207.0 1.045e+04 2.302e-10
 73.19937    208.6 1.046e+04 2.270e-10
 73.23944    210.2 1.047e+04 2.155e-10
 73.25994    210.5 1.060e+04 2.230e-10
 73.28136    212.1 1.054e+04 1.943e-10
 73.32235    213.7 1.049e+04 1.684e-10
 73.36335    215.4 1.043e+04 1.525e-10
 73.38919    217.3 1.039e+04 1.504e-10
 73.40969    217.6 1.042e+04 1.502e-10
 73.44534    219.5 1.041e+04 1.510e-10
 73.46945    221.5 1.042e+04 1.566e-10
 73.48995    221.9 1.043e+04 1.492e-10
 73.51844    223.8 1.047e+04 1.638e-10
 73.53894    224.1 1.062e+04 1.745e-10
 73.56832    226.0 1.075e+04 2.031e-10
 73.60932    227.9 1.093e+04 2.442e-10
 73.64769    229.6 1.111e+04 2.967e-10
 73.66819    229.3 1.122e+04 3.113e-10
 73.69131    230.1 1.116e+04 3.502e-10
 73.72195    231.1 1.107e+04 3.651e-10
 73.73262    232.1 1.101e+04 3.926e-10
 73.74287    232.6 1.099e+04 4.112e-10
 73.76285    233.8 1.111e+04 5.019e-10
 73.78335    234.8 1.131e+04 6.130e-10
 73.79724    235.6 1.153e+04 7.281e-10
 73.80749    235.2 1.178e+04 8.420e-10
 73.82434    235.8 1.191e+04 9.627e-10
 73.84484    236.2 1.199e+04 1.046e-09
 73.86187    236.7 1.201e+04 1.060e-09
 73.87212    236.2 1.217e+04 1.223e-09
 73.88060    236.5 1.215e+04 1.206e-09
 73.89085    236.6 1.187e+04 9.634e-10
 73.90633    236.9 1.181e+04 9.036e-10
 73.92649    237.3 1.173e+04 8.172e-10
 73.93674    236.7 1.176e+04 7.851e-10
 73.94733    236.8 1.163e+04 6.767e-10
 73.96783    237.0 1.150e+04 5.816e-10
 73.98832    237.1 1.139e+04 5.167e-10
 74.00137    237.3 1.129e+04 4.828e-10
 74.01162    236.3 1.114e+04 3.929e-10
 74.02932    236.5 1.106e+04 3.746e-10
 74.04982    236.9 1.102e+04 3.622e-10
 74.06599    237.3 1.101e+04 3.587e-10
 74.07634    236.3 1.072e+04 2.765e-10
 74.10125    236.9 1.072e+04 2.755e-10
 74.14225    237.2 1.078e+04 2.867e-10
 74.18324    237.2 1.077e+04 3.117e-10
 74.20559    237.6 1.075e+04 3.296e-10
 74.22609    236.2 1.078e+04 3.485e-10
 74.25489    236.7 1.088e+04 3.927e-10
 74.27012    237.3 1.104e+04 4.522e-10
 74.28037    236.4 1.092e+04 3.973e-10
 74.29195    236.4 1.098e+04 4.194e-10
 74.31254    237.6 1.101e+04 4.229e-10
 74.33494    237.5 1.097e+04 4.222e-10
 74.35543    235.7 1.063e+04 3.671e-10
 74.38822    236.1 1.050e+04 3.395e-10
 74.42921    236.1 1.050e+04 3.291e-10
 74.46419    236.0 1.052e+04 3.317e-10
 74.48468    234.2 1.033e+04 2.915e-10
 74.51120    234.2 1.036e+04 3.011e-10
 74.55220    234.2 1.038e+04 3.183e-10
 74.59319    234.4 1.039e+04 3.331e-10
 74.61393    234.5 1.040e+04 3.422e-10
 74.63443    233.6 1.042e+04 3.482e-10
 74.67518    233.7 1.041e+04 3.555e-10
 74.70349    233.9 1.040e+04 3.576e-10
 74.72399    235.0 1.040e+04 3.542e-10
 74.74318    235.1 1.039e+04 3.564e-10
 74.76368    234.8 1.051e+04 3.738e-10
 74.79816    235.1 1.046e+04 3.496e-10
 74.83916    235.6 1.037e+04 3.176e-10
 74.87243    236.2 1.031e+04 2.950e-10
 74.89293    236.0 1.011e+04 2.478e-10
 74.92115    236.9 9.923e+03 2.191e-10
 74.96214    237.9 9.856e+03 2.133e-10
 75.00168    239.1 9.861e+03 2.139e-10
 75.02218    239.3 9.812e+03 2.095e-10
 75.04413    240.5 9.874e+03 2.174e-10
 75.08513    241.7 1.003e+04 2.386e-10
 75.11484    242.5 1.025e+04 2.731e-10
 75.13534    245.0 1.022e+04 2.745e-10
 75.15143    245.6 1.038e+04 3.169e-10
 75.17193    245.6 1.029e+04 3.132e-10
 75.19776    245.2 1.031e+04 3.305e-10
 75.21586    245.6 1.035e+04 3.553e-10
 75.22611    245.6 1.033e+04 3.521e-10
 75.23866    246.4 1.046e+04 4.131e-10
 75.25916    246.9 1.079e+04 5.335e-10
 75.27966    246.8 1.128e+04 7.315e-10
 75.29074    246.5 1.197e+04 1.056e-09
 75.30098    246.3 1.186e+04 1.014e-09
 75.32032    245.4 1.265e+04 1.505e-09
 75.33057    246.8 1.228e+04 1.295e-09
 75.34115    245.7 1.318e+04 1.968e-09
 75.35536    244.3 1.417e+04 3.048e-09
 75.36561    244.3 1.384e+04 2.779e-09
 75.38214    242.7 1.479e+04 4.144e-09
 75.40264    241.1 1.570e+04 5.897e-09
 75.41999    239.3 1.647e+04 7.480e-09
 75.43023    239.3 1.605e+04 6.682e-09
 75.44364    237.3 1.656e+04 7.159e-09
 75.46413    234.8 1.658e+04 7.084e-09
 75.48461    232.4 1.644e+04 6.462e-09
 75.50511    230.3 1.564e+04 4.547e-09
 75.52562    228.2 1.469e+04 2.812e-09
 75.53624    225.9 1.322e+04 1.448e-09
 75.54649    226.6 1.313e+04 1.429e-09
 75.55948    224.1 1.116e+04 6.995e-10
 75.56973    224.4 1.116e+04 6.809e-10
 75.58712    222.3 1.031e+04 4.621e-10
 75.60761    221.8 1.027e+04 4.595e-10
 75.62411    221.9 1.026e+04 4.725e-10
 75.63436    222.5 1.023e+04 4.736e-10
 75.64861    222.7 1.029e+04 4.992e-10
 75.66911    223.1 1.040e+04 5.354e-10
 75.68873    223.7 1.053e+04 5.778e-10
 75.69898    224.3 1.046e+04 5.707e-10
 75.71010    224.9 1.055e+04 6.031e-10
 75.73060    225.4 1.056e+04 6.106e-10
 75.74191    226.0 1.055e+04 6.087e-10
 75.75216    226.1 1.007e+04 4.375e-10
 75.76361    226.8 1.006e+04 4.353e-10
 75.77386    227.1 1.001e+04 4.269e-10
 75.79209    227.6 9.960e+03 4.116e-10
 75.81808    228.5 1.013e+04 4.367e-10
 75.83868    229.7 9.959e+03 3.874e-10
 75.86403    230.9 9.941e+03 3.579e-10
 75.90502    232.5 9.904e+03 3.318e-10
 75.93754    234.3 9.856e+03 3.075e-10
 75.95803    236.5 9.539e+03 2.865e-10
 75.96793    238.3 9.601e+03 2.815e-10
 75.98842    239.1 9.626e+03 2.958e-10
 76.02801    240.9 9.676e+03 2.983e-10
 76.06900    242.7 9.676e+03 2.914e-10
 76.09718    244.6 9.670e+03 2.785e-10
 76.11767    245.5 9.798e+03 3.108e-10
 76.15099    247.5 9.821e+03 3.013e-10
 76.19198    249.5 9.848e+03 3.019e-10
 76.22643    251.3 9.987e+03 3.087e-10
 76.24693    252.0 1.013e+04 3.343e-10
 76.27397    253.4 1.028e+04 3.551e-10
 76.31497    254.6 1.033e+04 3.839e-10
 76.34562    256.0 1.031e+04 4.173e-10
 76.35894    257.4 1.037e+04 4.658e-10
 76.36900    257.0 1.025e+04 3.894e-10
 76.37618    257.7 1.017e+04 3.813e-10
 76.38661    259.3 1.032e+04 4.632e-10
 76.40701    260.6 1.047e+04 5.321e-10
 76.42751    261.8 1.063e+04 6.083e-10
 76.44060    262.8 1.080e+04 6.827e-10
 76.45085    263.1 1.089e+04 7.187e-10
 76.46850    264.0 1.109e+04 7.965e-10
 76.48900    264.7 1.132e+04 8.814e-10
 76.50523    265.2 1.158e+04 9.863e-10
 76.51548    265.5 1.168e+04 1.052e-09
 76.52999    265.9 1.200e+04 1.199e-09
 76.55049    266.3 1.239e+04 1.407e-09
 76.56461    266.5 1.283e+04 1.692e-09
 76.57372    267.0 1.210e+04 1.210e-09
 76.58010    267.3 1.215e+04 1.256e-09
 76.59149    267.4 1.249e+04 1.418e-09
 76.61198    267.4 1.285e+04 1.604e-09
 76.63248    267.2 1.321e+04 1.803e-09
 76.64473    266.7 1.353e+04 1.982e-09
 76.65498    266.8 1.367e+04 2.086e-09
 76.67348    266.0 1.388e+04 2.207e-09
 76.69397    265.2 1.393e+04 2.229e-09
 76.70935    264.5 1.391e+04 2.148e-09
 76.71960    264.4 1.408e+04 2.233e-09
 76.73497    263.7 1.385e+04 1.877e-09
 76.75547    263.0 1.349e+04 1.430e-09
 76.77028    262.2 1.298e+04 1.006e-09
 76.77855    263.2 1.353e+04 1.579e-09
 76.78423    263.2 1.353e+04 1.427e-09
 76.79646    262.6 1.290e+04 9.420e-10
 76.81696    261.7 1.202e+04 6.106e-10
 76.83746    260.7 1.097e+04 4.514e-10
 76.84885    260.1 1.038e+04 4.162e-10
 76.85910    260.1 1.019e+04 3.459e-10
 76.87845    260.2 1.017e+04 3.531e-10
 76.89895    260.7 1.016e+04 3.743e-10
 76.91348    261.4 1.016e+04 4.073e-10
 76.92373    261.9 1.010e+04 3.594e-10
 76.93994    262.7 1.015e+04 4.020e-10
 76.96044    263.5 1.022e+04 4.530e-10
 76.97596    264.1 1.032e+04 5.088e-10
 76.98337    263.8 1.030e+04 5.281e-10
 76.98835    264.2 1.034e+04 5.311e-10
 77.00143    264.8 1.044e+04 5.842e-10
 77.02193    265.3 1.052e+04 6.376e-10
 77.04243    265.7 1.061e+04 6.830e-10
 77.05298    266.1 1.070e+04 7.182e-10
 77.06323    266.2 1.092e+04 8.098e-10
 77.08342    266.4 1.104e+04 8.542e-10
 77.10392    266.3 1.109e+04 8.554e-10
 77.11760    266.1 1.108e+04 8.469e-10
 77.12785    266.1 1.138e+04 1.018e-09
 77.14492    265.9 1.135e+04 9.930e-10
 77.16541    265.5 1.126e+04 9.425e-10
 77.18163    265.1 1.110e+04 8.766e-10
 77.18820    264.4 1.068e+04 6.685e-10
 77.19248    264.6 1.091e+04 7.904e-10
 77.20641    264.1 1.072e+04 7.099e-10
 77.22691    263.6 1.051e+04 6.279e-10
 77.24685    262.9 1.026e+04 5.298e-10
 77.25710    263.2 1.041e+04 5.855e-10
 77.26790    262.4 1.016e+04 4.897e-10
 77.29874    261.8 9.823e+03 3.821e-10
 77.32192    260.9 9.636e+03 3.316e-10
 77.33207    260.1 9.657e+03 3.361e-10
 77.34989    259.5 9.613e+03 3.301e-10
 77.37039    258.8 9.604e+03 3.287e-10
 77.38635    258.2 9.617e+03 3.316e-10
 77.39302    257.9 9.664e+03 3.506e-10
 77.39755    257.5 9.643e+03 3.409e-10
 77.41138    256.7 9.809e+03 3.822e-10
 77.43188    255.5 1.010e+04 4.646e-10
 77.45098    254.1 1.041e+04 5.787e-10
 77.46122    252.4 1.079e+04 7.560e-10
 77.47287    250.7 1.105e+04 8.964e-10
 77.49337    248.8 1.134e+04 1.046e-09
 77.51387    246.2 1.177e+04 1.245e-09
 77.52585    242.8 1.245e+04 1.567e-09
 77.53610    239.7 1.310e+04 1.946e-09
 77.55486    235.3 1.398e+04 2.561e-09
 77.57536    230.6 1.484e+04 3.238e-09
 77.59047    225.7 1.548e+04 3.475e-09
 77.59785    221.6 1.545e+04 3.405e-09
 77.60323    222.7 1.552e+04 3.567e-09
 77.61635    217.8 1.550e+04 3.493e-09
 77.63685    213.1 1.524e+04 3.181e-09
 77.65510    208.9 1.464e+04 2.760e-09
 77.66535    206.3 1.445e+04 2.782e-09
 77.67785    203.3 1.388e+04 2.413e-09
 77.69834    201.3 1.335e+04 2.013e-09
 77.71884    199.4 1.285e+04 1.584e-09
 77.73007    198.4 1.220e+04 1.089e-09
 77.75067    196.6 1.183e+04 8.600e-10
 77.79078    194.8 1.028e+04 4.197e-10
 77.83177    194.0 9.275e+03 2.614e-10
 77.85942    193.8 9.114e+03 2.438e-10
 77.87992    193.2 9.185e+03 2.554e-10
 77.91376    193.7 9.142e+03 2.534e-10
 77.95476    194.5 9.128e+03 2.534e-10
 77.98867    195.4 9.125e+03 2.529e-10
 78.00769    194.9 9.280e+03 2.751e-10
 78.01477    196.6 9.273e+03 2.747e-10
 78.03675    197.4 9.263e+03 2.839e-10
 78.07774    198.2 9.300e+03 3.013e-10
 78.11792    199.0 9.369e+03 3.272e-10
 78.13842    198.3 9.573e+03 3.591e-10
 78.15973    199.3 9.669e+03 4.000e-10
 78.20072    200.4 9.720e+03 4.317e-10
 78.24172    201.7 9.733e+03 4.405e-10
 78.26767    203.2 9.737e+03 4.326e-10
 78.27782    202.4 9.707e+03 4.379e-10
 78.29277    203.1 9.656e+03 4.282e-10
 78.31326    203.8 9.593e+03 4.186e-10
 78.33210    204.6 9.532e+03 4.163e-10
 78.34234    204.5 9.600e+03 4.354e-10
 78.35426    205.2 9.662e+03 4.572e-10
 78.37476    205.7 9.940e+03 5.227e-10
 78.39525    206.0 1.060e+04 6.785e-10
 78.40697    206.0 1.185e+04 1.014e-09
 78.41714    203.7 1.442e+04 2.252e-09
 78.43617    202.9 1.534e+04 3.916e-09
 78.45157    201.9 1.663e+04 5.335e-09
 78.46177    201.2 1.761e+04 7.353e-09
 78.47150    200.9 1.800e+04 1.033e-08
 78.47662    200.7 1.806e+04 1.547e-08
 78.48227    201.3 1.830e+04 2.089e-08
 78.49252    202.0 1.861e+04 2.808e-08
 78.50277    202.9 1.902e+04 3.829e-08
 78.50893    203.7 1.951e+04 5.344e-08
 78.51406    204.4 1.997e+04 6.599e-08
 78.52327    204.7 2.052e+04 8.522e-08
 78.52866    204.7 2.088e+04 1.050e-07
 78.53379    204.1 2.162e+04 4.996e-08
 78.54125    203.3 2.191e+04 4.823e-08
 78.54637    202.3 2.244e+04 3.940e-08
 78.55401    200.0 2.338e+04 2.962e-08
 78.56426    197.9 2.354e+04 2.154e-08
 78.57356    195.6 2.291e+04 1.580e-08
 78.57868    194.5 2.227e+04 1.180e-08
 78.58476    193.0 2.140e+04 9.116e-09
 78.60018    191.8 2.039e+04 8.016e-09
 78.61109    188.0 1.613e+04 3.721e-09
 78.62134    184.7 1.245e+04 1.884e-09
 78.63160    184.1 1.219e+04 1.379e-09
 78.64185    185.6 1.186e+04 1.609e-09
 78.66172    185.9 1.200e+04 1.433e-09
 78.67572    186.2 1.210e+04 1.326e-09
 78.69631    184.0 1.091e+04 7.250e-10
 78.73366    184.2 1.048e+04 6.414e-10
 78.77465    184.4 1.017e+04 5.487e-10
 78.80516    184.7 1.002e+04 4.803e-10
 78.82566    183.3 1.014e+04 5.235e-10
 78.83747    183.9 1.019e+04 5.233e-10
 78.84762    184.3 1.060e+04 7.315e-10
 78.86669    184.4 1.061e+04 7.276e-10
 78.87984    184.5 1.064e+04 7.233e-10
 78.89009    184.0 1.095e+04 8.774e-10
 78.90769    184.1 1.108e+04 9.256e-10
 78.92819    184.2 1.122e+04 9.824e-10
 78.94447    184.4 1.137e+04 1.034e-09
 78.95472    184.1 1.183e+04 1.404e-09
 78.96918    184.3 1.202e+04 1.469e-09
 78.98968    184.5 1.221e+04 1.490e-09
 79.00909    184.5 1.229e+04 1.473e-09
 79.01934    184.4 1.280e+04 1.962e-09
 79.03067    184.4 1.289e+04 1.888e-09
 79.04295    184.4 1.293e+04 1.746e-09
 79.05319    184.8 1.387e+04 2.934e-09
 79.07167    184.6 1.394e+04 2.751e-09
 79.08397    184.3 1.386e+04 2.451e-09
 79.09421    184.2 1.430e+04 3.044e-09
 79.11266    183.9 1.414e+04 2.602e-09
 79.13316    183.3 1.385e+04 2.149e-09
 79.14859    182.5 1.344e+04 1.763e-09
 79.15884    182.7 1.402e+04 2.199e-09
 79.17415    181.7 1.359e+04 1.789e-09
 79.19465    180.6 1.302e+04 1.468e-09
 79.21322    179.5 1.239e+04 1.235e-09
 79.22346    180.2 1.303e+04 1.364e-09
 79.23565    179.1 1.236e+04 1.093e-09
 79.24862    177.9 1.177e+04 9.288e-10
 79.25887    178.6 1.230e+04 1.042e-09
 79.27664    177.2 1.169e+04 8.816e-10
 79.28809    175.7 1.131e+04 7.972e-10
 79.29834    175.4 1.149e+04 7.687e-10
 79.31764    173.7 1.104e+04 6.920e-10
 79.33813    172.1 1.079e+04 6.451e-10
 79.35271    170.6 1.068e+04 6.226e-10
 79.36296    169.6 1.079e+04 6.261e-10
 79.37913    168.1 1.079e+04 6.262e-10
 79.39962    166.6 1.082e+04 6.338e-10
 79.41734    165.3 1.093e+04 6.656e-10
 79.42759    164.3 1.112e+04 7.380e-10
 79.44062    163.0 1.127e+04 8.027e-10
 79.45429    161.8 1.139e+04 8.645e-10
 79.46454    162.3 1.146e+04 8.850e-10
 79.48161    161.5 1.155e+04 9.505e-10
 79.49221    160.8 1.155e+04 9.599e-10
 79.50246    159.9 1.183e+04 1.156e-09
 79.52261    159.6 1.180e+04 1.143e-09
 79.54311    159.3 1.173e+04 1.095e-09
 79.55684    159.2 1.162e+04 1.014e-09
 79.56709    159.0 1.165e+04 1.086e-09
 79.58410    158.9 1.152e+04 9.824e-10
 79.60460    158.8 1.138e+04 8.877e-10
 79.62146    158.7 1.124e+04 8.079e-10
 79.63171    158.8 1.104e+04 8.431e-10
 79.64559    158.9 1.099e+04 8.032e-10
 79.65997    159.1 1.099e+04 8.004e-10
 79.67022    160.5 1.103e+04 7.849e-10
 79.68609    160.8 1.105e+04 7.881e-10
 79.69634    161.5 1.086e+04 7.653e-10
 79.70708    161.7 1.110e+04 8.112e-10
 79.72758    161.8 1.143e+04 9.356e-10
 79.74808    161.3 1.203e+04 1.234e-09
 79.76096    160.3 1.336e+04 1.929e-09
 79.77121    161.5 1.357e+04 2.123e-09
 79.78907    161.3 1.461e+04 3.247e-09
 79.80440    161.2 1.504e+04 3.867e-09
 79.81460    161.0 1.555e+04 4.704e-09
 79.82485    160.2 1.660e+04 6.696e-09
 79.83061    158.6 1.858e+04 1.156e-08
 79.83574    160.2 1.768e+04 1.044e-08
 79.84534    158.7 1.986e+04 2.113e-08
 79.85559    157.2 2.216e+04 5.133e-08
 79.86293    155.1 2.389e+04 1.124e-07
 79.86775    157.8 2.273e+04 1.121e-07
 79.87067    158.3 2.264e+04 1.127e-07
 79.87609    155.0 2.339e+04 2.793e-07
 79.88634    149.7 2.438e+04 3.498e-07
 79.89524    143.7 2.484e+04 3.043e-07
 79.90036    145.8 2.366e+04 4.386e-07
 79.90684    140.7 2.438e+04 3.043e-07
 79.91709    136.6 2.544e+04 1.176e-07
 79.92733    131.9 2.617e+04 2.924e-08
 79.93268    125.8 2.511e+04 6.157e-09
 79.93780    129.4 2.664e+04 1.534e-08
 79.95300    119.7 2.503e+04 2.267e-09
 79.96509    112.5 1.326e+04 1.127e-09
 79.97533    116.5 2.465e+04 1.539e-09
 79.99405    112.7 1.233e+04 1.178e-09
 80.01455    113.3 1.126e+04 1.053e-09
 80.02971    114.6 1.112e+04 9.945e-10
 80.03996    114.9 1.152e+04 1.227e-09
 80.05554    116.6 1.144e+04 1.184e-09
 80.07132    118.6 1.142e+04 1.147e-09
 80.08156    116.9 1.163e+04 1.215e-09
 80.09434    119.0 1.158e+04 1.169e-09
 80.10458    119.7 1.206e+04 1.503e-09
 80.11703    121.7 1.200e+04 1.440e-09
 80.13753    123.3 1.192e+04 1.379e-09
 80.15803    124.8 1.182e+04 1.337e-09
 80.16921    126.5 1.180e+04 1.336e-09
 80.17946    127.4 1.209e+04 1.557e-09
 80.19902    129.1 1.210e+04 1.561e-09
 80.21952    130.7 1.216e+04 1.599e-09
 80.23384    132.2 1.226e+04 1.669e-09
 80.24408    133.0 1.244e+04 1.835e-09
 80.26051    134.5 1.253e+04 1.907e-09
 80.27699    136.1 1.263e+04 1.992e-09
 80.28724    135.3 1.260e+04 1.993e-09
 80.29846    136.9 1.272e+04 2.084e-09
 80.30871    137.5 1.274e+04 2.164e-09
 80.32201    139.0 1.284e+04 2.236e-09
 80.34250    140.5 1.297e+04 2.297e-09
 80.36300    141.8 1.310e+04 2.378e-09
 80.38350    143.6 1.324e+04 2.502e-09
 80.40400    144.6 1.340e+04 2.590e-09
 80.42449    145.3 1.363e+04 2.723e-09
 80.43796    145.9 1.392e+04 2.942e-09
 80.44821    146.6 1.386e+04 2.940e-09
 80.46549    147.2 1.415e+04 3.147e-09
 80.48266    147.6 1.447e+04 3.415e-09
 80.49291    146.7 1.395e+04 2.771e-09
 80.50258    147.0 1.418e+04 2.982e-09
 80.51283    146.9 1.398e+04 2.832e-09
 80.52698    147.0 1.416e+04 3.001e-09
 80.54748    147.2 1.420e+04 3.017e-09
 80.56721    147.3 1.417e+04 2.961e-09
 80.57746    146.9 1.411e+04 3.202e-09
 80.58847    146.9 1.410e+04 3.138e-09
 80.60897    147.0 1.399e+04 2.888e-09
 80.62947    147.2 1.368e+04 2.494e-09
 80.64208    147.4 1.327e+04 2.044e-09
 80.65233    147.1 1.347e+04 2.423e-09
 80.67046    147.4 1.309e+04 1.939e-09
 80.69656    147.8 1.245e+04 1.355e-09
 80.71705    147.5 1.239e+04 1.395e-09
 80.74230    148.3 1.193e+04 1.187e-09
 80.78339    149.6 1.147e+04 9.360e-10
 80.82439    151.0 1.114e+04 7.766e-10
 80.84640    152.5 1.089e+04 6.650e-10
 80.86690    152.6 1.139e+04 9.465e-10
 80.89421    154.1 1.118e+04 8.190e-10
 80.90436    153.7 1.117e+04 8.059e-10
 80.91083    154.3 1.106e+04 7.718e-10
 80.92108    154.5 1.143e+04 9.726e-10
 80.93693    155.2 1.128e+04 8.932e-10
 80.95742    155.9 1.111e+04 8.217e-10
 80.97546    156.6 1.098e+04 7.680e-10
 80.98571    156.9 1.135e+04 9.351e-10
 80.99842    157.6 1.112e+04 8.352e-10
 81.01892    158.3 1.094e+04 7.608e-10
 81.03941    159.0 1.079e+04 7.055e-10
 81.05033    159.8 1.069e+04 6.669e-10
 81.06058    160.0 1.091e+04 7.531e-10
 81.08041    160.8 1.079e+04 7.084e-10
 81.09968    161.7 1.072e+04 6.863e-10
 81.10993    161.8 1.086e+04 7.505e-10
 81.11496    162.8 1.080e+04 7.390e-10
 81.12520    162.8 1.098e+04 8.469e-10
 81.14190    163.9 1.096e+04 8.465e-10
 81.16240    165.2 1.096e+04 8.474e-10
 81.17958    166.4 1.097e+04 8.559e-10
 81.18983    166.6 1.124e+04 1.017e-09
 81.20339    167.8 1.128e+04 1.046e-09
 81.22389    168.9 1.132e+04 1.084e-09
 81.24421    170.3 1.139e+04 1.136e-09
 81.25445    170.4 1.163e+04 1.278e-09
 81.26488    171.8 1.172e+04 1.352e-09
 81.28538    173.1 1.187e+04 1.455e-09
 81.30536    174.4 1.201e+04 1.567e-09
 81.31561    174.4 1.199e+04 1.598e-09
 81.31908    175.9 1.214e+04 1.722e-09
 81.32933    176.0 1.227e+04 1.809e-09
 81.34687    177.6 1.243e+04 1.932e-09
 81.36737    178.9 1.261e+04 2.084e-09
 81.38370    180.2 1.278e+04 2.261e-09
 81.39395    180.3 1.279e+04 2.256e-09
 81.40837    181.7 1.301e+04 2.481e-09
 81.42886    183.1 1.329e+04 2.776e-09
 81.44833    184.4 1.361e+04 3.127e-09
 81.45858    184.6 1.361e+04 3.094e-09
 81.46986    185.8 1.393e+04 3.451e-09
 81.49035    187.0 1.420e+04 3.737e-09
 81.51085    188.0 1.433e+04 3.821e-09
 81.52128    188.9 1.432e+04 3.786e-09
 81.52338    188.9 1.455e+04 4.143e-09
 81.53345    188.9 1.444e+04 3.939e-09
 81.55185    190.0 1.436e+04 3.793e-09
 81.57234    191.1 1.424e+04 3.556e-09
 81.58783    192.2 1.412e+04 3.268e-09
 81.59808    192.4 1.386e+04 2.744e-09
 81.61334    193.4 1.368e+04 2.381e-09
 81.63384    194.1 1.349e+04 2.094e-09
 81.65245    194.7 1.330e+04 1.883e-09
 81.66270    194.9 1.299e+04 1.467e-09
 81.67483    195.4 1.271e+04 1.378e-09
 81.69533    196.0 1.255e+04 1.372e-09
 81.71583    196.7 1.253e+04 1.378e-09
 81.72695    197.4 1.249e+04 1.422e-09
 81.72821    197.6 1.361e+04 2.537e-09
 81.73758    197.8 1.341e+04 2.180e-09
 81.75682    198.3 1.346e+04 2.319e-09
 81.77732    198.7 1.355e+04 2.506e-09
 81.79195    199.1 1.364e+04 2.689e-09
 81.80220    199.1 1.376e+04 2.611e-09
 81.81831    199.4 1.380e+04 2.831e-09
 81.83881    199.9 1.382e+04 2.983e-09
 81.85658    200.3 1.383e+04 3.078e-09
 81.86683    200.0 1.400e+04 3.168e-09
 81.87980    200.3 1.401e+04 3.222e-09
 81.90030    200.4 1.400e+04 3.203e-09
 81.92080    200.4 1.396e+04 3.125e-09
 81.93145    200.2 1.388e+04 2.991e-09
 81.93303    199.2 1.422e+04 3.320e-09
 81.94288    199.1 1.379e+04 2.844e-09
 81.96179    198.8 1.362e+04 2.644e-09
 81.98229    198.6 1.342e+04 2.437e-09
 81.99608    198.5 1.315e+04 2.209e-09
 82.00632    197.2 1.346e+04 2.569e-09
 82.02329    197.3 1.312e+04 2.275e-09
 82.04378    197.4 1.274e+04 1.969e-09
 82.06070    197.6 1.237e+04 1.691e-09
 82.07095    195.4 1.320e+04 2.229e-09
 82.08478    195.4 1.321e+04 2.216e-09
 82.10528    195.3 1.330e+04 2.263e-09
 82.12533    195.2 1.346e+04 2.421e-09
 82.13557    193.9 1.405e+04 3.576e-09
 82.13830    194.4 1.417e+04 3.884e-09
 82.14855    194.8 1.361e+04 2.848e-09
 82.16677    195.2 1.369e+04 3.011e-09
 82.18726    195.6 1.379e+04 3.155e-09
 82.20020    195.9 1.391e+04 3.253e-09
 82.21045    194.8 1.393e+04 3.221e-09
 82.22826    194.7 1.398e+04 3.179e-09
 82.24876    194.3 1.400e+04 3.012e-09
 82.26482    193.7 1.388e+04 2.760e-09
 82.27507    191.7 1.329e+04 2.210e-09
 82.28975    190.9 1.295e+04 1.912e-09
 82.31025    190.0 1.257e+04 1.606e-09
 82.32955    190.1 1.233e+04 1.335e-09
 82.35014    186.7 1.146e+04 9.551e-10
 82.38219    185.8 1.054e+04 6.000e-10
 82.42318    184.8 9.637e+03 3.723e-10
 82.45890    183.9 9.407e+03 3.143e-10
 82.47939    182.7 9.406e+03 3.295e-10
 82.50517    182.4 9.424e+03 3.441e-10
 82.53367    182.3 9.416e+03 3.539e-10
 82.54382    182.2 9.476e+03 3.737e-10
 82.54965    182.5 9.636e+03 4.302e-10
 82.55990    182.7 9.738e+03 4.582e-10
 82.57671    183.0 1.004e+04 5.674e-10
 82.59721    183.2 1.040e+04 7.006e-10
 82.60845    183.3 1.075e+04 8.345e-10
 82.62904    183.4 1.132e+04 1.053e-09
 82.66915    183.2 1.179e+04 1.262e-09
 82.71014    182.9 1.201e+04 1.294e-09
 82.73789    182.4 1.200e+04 1.252e-09
 82.75839    181.3 1.191e+04 1.092e-09
 82.79213    180.6 1.181e+04 9.305e-10
 82.83313    180.3 1.150e+04 7.269e-10
 82.86714    179.9 1.125e+04 6.349e-10
 82.88764    179.4 1.140e+04 7.533e-10
 82.91512    179.8 1.149e+04 7.851e-10
 82.95094    180.3 1.186e+04 9.367e-10
 82.97134    181.1 1.098e+04 5.752e-10
 82.98666    181.2 1.123e+04 6.758e-10
 83.00645    181.3 1.154e+04 8.321e-10
 83.01669    181.6 1.173e+04 8.946e-10
 83.02766    181.5 1.207e+04 1.123e-09
 83.04815    181.5 1.242e+04 1.412e-09
 83.06865    181.5 1.278e+04 1.745e-09
 83.08132    181.4 1.313e+04 2.068e-09
 83.09157    181.8 1.331e+04 2.201e-09
 83.10965    181.5 1.368e+04 2.473e-09
 83.13014    180.9 1.405e+04 2.716e-09
 83.14594    179.8 1.448e+04 2.925e-09
 83.15619    179.2 1.478e+04 3.113e-09
 83.16667    177.5 1.539e+04 3.472e-09
 83.17692    177.6 1.623e+04 5.064e-09
 83.19164    175.9 1.690e+04 6.092e-09
 83.21057    174.1 1.727e+04 6.507e-09
 83.22082    173.5 1.757e+04 7.532e-09
 83.23263    171.2 1.752e+04 7.386e-09
 83.25313    169.2 1.711e+04 6.465e-09
 83.27362    167.6 1.622e+04 4.681e-09
 83.28544    166.2 1.502e+04 2.949e-09
 83.29569    165.9 1.514e+04 3.059e-09
 83.31462    163.8 1.388e+04 1.826e-09
 83.33512    161.4 1.276e+04 1.189e-09
 83.36219    158.3 1.226e+04 1.003e-09
 83.38279    158.2 1.187e+04 8.766e-10
 83.40464    156.0 1.102e+04 6.138e-10
 83.42514    155.8 1.214e+04 1.020e-09
 83.44805    155.3 1.177e+04 8.507e-10
 83.48904    154.8 1.126e+04 6.504e-10
 83.53004    154.4 1.062e+04 4.664e-10
 83.55439    154.1 9.953e+03 3.345e-10
 83.57489    155.0 1.079e+04 5.650e-10
 83.61203    154.9 1.007e+04 3.868e-10
 83.65302    154.7 9.589e+03 3.033e-10
 83.68364    154.6 9.580e+03 2.751e-10
 83.70414    155.2 9.700e+03 2.878e-10
 83.73501    155.1 9.683e+03 2.873e-10
 83.77364    155.0 9.687e+03 2.884e-10
 83.79414    154.8 9.834e+03 3.160e-10
 83.81289    154.5 9.835e+03 3.180e-10
 83.83339    155.1 1.003e+04 3.629e-10
 83.85799    154.6 1.007e+04 3.821e-10
 83.89899    154.1 1.017e+04 4.074e-10
 83.93998    153.4 1.031e+04 4.130e-10
 83.96264    152.4 1.037e+04 4.040e-10
 83.98313    153.2 1.046e+04 3.862e-10
 84.02197    151.5 1.043e+04 3.376e-10
 84.06297    148.9 1.029e+04 3.016e-10
 84.09189    146.7 1.019e+04 3.027e-10
 84.11238    147.0 1.004e+04 2.732e-10
 84.13461    145.3 1.006e+04 2.892e-10
 84.15501    144.0 1.022e+04 3.471e-10
 84.16656    142.6 1.067e+04 5.075e-10
 84.17681    143.2 1.053e+04 4.413e-10
 84.19504    142.1 1.120e+04 6.743e-10
 84.20529    141.2 1.120e+04 6.716e-10
 84.21650    139.5 1.228e+04 1.094e-09
 84.23119    137.2 1.374e+04 1.828e-09
 84.24144    137.3 1.331e+04 1.643e-09
 84.25750    134.9 1.455e+04 2.617e-09
 84.27800    132.2 1.569e+04 3.974e-09
 84.29581    129.4 1.653e+04 5.480e-09
 84.30606    131.4 1.583e+04 4.721e-09
 84.31899    128.8 1.654e+04 5.764e-09
 84.33949    126.1 1.680e+04 5.935e-09
 84.35998    123.4 1.674e+04 5.701e-09
 84.37069    120.7 1.641e+04 4.710e-09
 84.38094    123.1 1.656e+04 5.211e-09
 84.40072    120.8 1.595e+04 3.949e-09
 84.41096    119.1 1.524e+04 3.043e-09
 84.42148    116.5 1.428e+04 1.931e-09
 84.43531    113.8 1.323e+04 1.258e-09
 84.44556    116.9 1.418e+04 1.684e-09
 84.46247    114.1 1.317e+04 1.197e-09
 84.48297    111.9 1.294e+04 1.176e-09
 84.49994    110.8 1.316e+04 1.262e-09
 84.51019    108.2 1.778e+04 2.798e-09
 84.52396    107.1 1.780e+04 3.109e-09
 84.54446    106.9 1.849e+04 4.194e-09
 84.56456    107.3 2.040e+04 6.399e-09
 84.57481    107.1 1.772e+04 7.670e-09
 84.58546    108.2 1.925e+04 9.472e-09
 84.60595    109.9 2.121e+04 1.294e-08
 84.61659    110.5 2.118e+04 1.451e-08
 84.62166    110.4 2.148e+04 1.549e-08
 84.63148    111.1 2.146e+04 1.694e-08
 84.63934    111.6 2.187e+04 1.935e-08
 84.64964    110.6 2.284e+04 1.368e-08
 84.66227    110.8 2.357e+04 1.508e-08
 84.67165    111.0 2.420e+04 1.835e-08
 84.67678    110.8 2.364e+04 1.178e-08
 84.68272    110.7 2.459e+04 1.228e-08
 84.69297    110.6 2.578e+04 1.450e-08
 84.70322    110.7 2.639e+04 1.886e-08
 84.70909    111.1 2.635e+04 2.645e-08
 84.71421    109.5 3.015e+04 8.314e-09
 84.71938    108.7 3.154e+04 7.850e-09
 84.72450    109.1 2.953e+04 1.252e-08
 84.73396    110.0 2.774e+04 2.105e-08
 84.74140    111.1 2.607e+04 3.504e-08
 84.74653    108.3 3.417e+04 7.490e-09
 84.75446    109.2 3.199e+04 1.173e-08
 84.76471    110.0 2.955e+04 1.866e-08
 84.77371    110.6 2.759e+04 2.920e-08
 84.77889    108.1 4.299e+04 1.888e-09
 84.78526    109.1 3.932e+04 5.751e-09
 84.79546    109.6 3.783e+04 8.804e-09
 84.80570    109.5 3.491e+04 1.139e-08
 84.81115    109.2 3.159e+04 1.785e-08
 84.81627    110.3 4.804e+04 1.951e-09
 84.82221    110.7 4.610e+04 2.382e-09
 84.82734    110.7 4.208e+04 3.330e-09
 84.83645    110.9 3.897e+04 4.580e-09
 84.84346    111.0 3.550e+04 6.894e-09
 84.85376    111.4 4.674e+04 6.106e-10
 84.87242    111.9 4.516e+04 1.372e-09
 84.88774    112.3 4.618e+04 9.232e-10
 84.89794    111.7 5.068e+04 8.159e-10
 84.90809    112.0 5.209e+04 1.056e-09
 84.91839    113.2 3.583e+04 3.910e-10
 84.93391    113.8 4.826e+04 1.108e-09
 84.94557    113.7 4.011e+04 7.368e-09
 84.95065    114.6 4.985e+04 1.113e-09
 84.95943    114.5 5.228e+04 1.739e-09
 84.96968    115.2 4.597e+04 5.619e-09
 84.97784    116.6 3.658e+04 2.199e-08
 84.98301    117.7 4.993e+04 7.660e-10
 84.99023    117.0 5.284e+04 3.152e-09
 85.00043    117.8 4.088e+04 1.507e-08
 85.01015    120.2 3.263e+04 5.079e-08
 85.01527    118.3 5.657e+04 2.781e-09
 85.02093    120.9 4.397e+04 1.119e-08
 85.02789    123.0 3.583e+04 3.776e-08
 85.03301    123.7 3.353e+04 5.444e-08
 85.04142    125.5 2.972e+04 1.200e-07
 85.04759    127.4 2.846e+04 1.932e-07
 85.05271    125.9 3.610e+04 3.893e-08
 85.06192    128.0 3.128e+04 9.183e-08
 85.07217    130.4 2.975e+04 1.581e-07
 85.07990    131.5 3.093e+04 2.000e-07
 85.08502    131.8 3.604e+04 6.005e-08
 85.09267    133.8 3.274e+04 1.256e-07
 85.10292    134.8 3.355e+04 1.967e-07
 85.11221    133.1 3.715e+04 2.140e-07
 85.11734    136.6 3.669e+04 1.143e-07
 85.12341    136.9 3.743e+04 1.980e-07
 85.13072    134.3 3.778e+04 2.593e-07
 85.13585    133.4 3.886e+04 2.597e-07
 85.14391    128.6 4.207e+04 1.918e-07
 85.14965    122.3 4.740e+04 7.706e-08
 85.15477    135.3 3.862e+04 2.879e-07
 85.16441    130.6 3.972e+04 2.212e-07
 85.17466    123.0 4.457e+04 6.997e-08
 85.18196    112.1 4.833e+04 1.262e-08
 85.18709    131.7 4.068e+04 1.702e-07
 85.19515    121.1 4.754e+04 3.721e-08
 85.20540    106.7 4.820e+04 5.994e-09
 85.21427     89.9 3.240e+04 2.328e-09
 85.21940    113.5 5.373e+04 1.262e-08
 85.22590     97.3 4.663e+04 2.455e-09
 85.23356     82.8 2.339e+04 2.270e-09
 85.23869     82.7 2.108e+04 2.163e-09
 85.24640     81.0 1.730e+04 2.143e-09
 85.25171     73.4 2.046e+04 3.204e-09
 85.25683     76.7 2.117e+04 3.228e-09
 85.26689     74.0 2.119e+04 3.349e-09
 85.27714     65.4 2.257e+04 4.784e-09
 85.28402     61.5 2.215e+04 4.930e-09
 85.28915     64.5 2.273e+04 5.205e-09
 85.29764     57.6 2.173e+04 6.567e-09
 85.30789     52.6 2.135e+04 6.619e-09
 85.31634     47.0 2.043e+04 6.048e-09
 85.32146     49.3 2.086e+04 6.275e-09
 85.32839     45.7 2.139e+04 5.958e-09
 85.33640     38.6 2.080e+04 3.736e-09
 85.34152     38.0 2.089e+04 3.582e-09
 85.34865     37.3 2.141e+04 3.477e-09
 85.35377     37.8 2.213e+04 3.301e-09
 85.36431     19.0 1.937e+04 1.089e-09
 85.38106     -3.1 1.502e+04 5.457e-10
 85.39131     -7.3 1.515e+04 5.948e-10
 85.40535    -19.8 1.403e+04 5.625e-10
 85.42585    -28.0 1.409e+04 5.803e-10
 85.43933    -34.0 1.366e+04 6.003e-10
 85.44892    -37.2 1.364e+04 6.082e-10
 85.45593    -45.6 1.435e+04 6.723e-10
 85.46684    -49.5 1.372e+04 5.636e-10
 85.48734    -51.2 1.300e+04 4.679e-10
 85.50784    -50.8 1.261e+04 3.994e-10
 85.52056    -49.3 1.264e+04 3.717e-10
 85.53081    -56.0 1.246e+04 4.582e-10
 85.54883    -53.2 1.244e+04 4.213e-10
 85.56933    -50.5 1.268e+04 3.904e-10
 85.58518    -48.7 1.267e+04 3.644e-10
 85.59543    -52.3 1.261e+04 3.635e-10
 85.61032    -50.0 1.262e+04 3.390e-10
 85.63082    -49.2 1.246e+04 3.250e-10
 85.66166    -47.6 1.165e+04 2.792e-10
 85.70276    -44.5 1.114e+04 2.348e-10
 85.72488    -41.9 1.072e+04 2.125e-10
 85.74537    -45.6 1.032e+04 1.853e-10
 85.78475    -42.4 1.014e+04 1.870e-10
 85.82574    -39.4 9.930e+03 1.964e-10
 85.85088    -36.4 9.842e+03 2.001e-10
 85.85876    -36.2 9.573e+03 1.673e-10
 85.87462    -37.5 9.582e+03 1.686e-10
 85.90773    -34.3 9.409e+03 1.645e-10
 85.94872    -31.2 9.235e+03 1.547e-10
 85.98338    -28.1 9.057e+03 1.427e-10
 86.00387    -29.2 9.181e+03 1.544e-10
 86.03071    -26.1 9.021e+03 1.464e-10
 86.07171    -23.1 8.942e+03 1.441e-10
 86.11263    -20.2 8.927e+03 1.445e-10
 86.15362    -18.7 9.290e+03 1.940e-10
 86.19469    -17.2 9.711e+03 2.425e-10
 86.22534    -16.5 1.007e+04 3.085e-10
 86.24574    -17.1 1.043e+04 4.132e-10
 86.26203    -17.6 1.117e+04 7.250e-10
 86.26822    -17.2 1.094e+04 6.144e-10
 86.27243    -18.8 1.146e+04 7.641e-10
 86.28674    -18.8 1.249e+04 1.268e-09
 86.30723    -18.2 1.351e+04 1.967e-09
 86.32680    -17.4 1.441e+04 2.751e-09
 86.33705    -19.7 1.451e+04 2.907e-09
 86.34823    -19.3 1.482e+04 3.219e-09
 86.36873    -19.5 1.488e+04 3.282e-09
 86.38922    -19.7 1.450e+04 2.889e-09
 86.40168    -20.1 1.390e+04 2.246e-09
 86.41193    -21.8 1.290e+04 1.423e-09
 86.43022    -22.6 1.216e+04 9.188e-10
 86.45071    -23.8 1.152e+04 5.973e-10
 86.46630    -25.1 1.096e+04 4.195e-10
 86.47304    -28.7 9.430e+03 2.913e-10
 86.47795    -28.8 9.345e+03 2.925e-10
 86.49171    -29.6 9.227e+03 2.883e-10
 86.51221    -29.7 9.374e+03 3.103e-10
 86.53093    -29.3 9.585e+03 3.330e-10
 86.54118    -30.1 9.563e+03 3.374e-10
 86.56355    -30.2 9.623e+03 3.507e-10
 86.60464    -30.0 9.457e+03 3.376e-10
 86.64563    -30.2 9.386e+03 3.249e-10
 86.67062    -32.8 9.627e+03 3.384e-10
 86.67806    -30.5 9.499e+03 3.300e-10
 86.69407    -29.4 9.904e+03 3.998e-10
 86.72762    -31.3 1.055e+04 4.838e-10
 86.76862    -33.6 1.157e+04 7.532e-10
 86.79987    -35.5 1.213e+04 1.010e-09
 86.82027    -34.2 1.175e+04 8.975e-10
 86.84016    -35.1 1.183e+04 9.866e-10
 86.86066    -35.8 1.198e+04 1.039e-09
 86.87455    -36.9 1.201e+04 1.066e-09
 86.88269    -35.0 1.214e+04 1.092e-09
 86.88930    -33.9 1.195e+04 1.011e-09
 86.90166    -35.0 1.201e+04 1.025e-09
 86.92215    -36.2 1.190e+04 1.015e-09
 86.93918    -37.2 1.163e+04 9.472e-10
 86.94942    -35.6 1.209e+04 1.107e-09
 86.96315    -36.4 1.177e+04 1.000e-09
 86.98365    -37.1 1.143e+04 8.464e-10
 87.00380    -38.0 1.111e+04 6.879e-10
 87.01405    -36.5 1.175e+04 9.265e-10
 87.02464    -37.7 1.140e+04 7.478e-10
 87.04514    -39.2 1.107e+04 6.171e-10
 87.06564    -40.8 1.087e+04 5.492e-10
 87.07867    -42.2 1.083e+04 5.315e-10
 87.08751    -41.1 1.130e+04 6.798e-10
 87.09497    -40.0 1.123e+04 6.641e-10
 87.10663    -41.7 1.119e+04 6.503e-10
 87.12713    -43.3 1.122e+04 6.601e-10
 87.14330    -44.8 1.130e+04 7.042e-10
 87.15355    -44.2 1.183e+04 9.014e-10
 87.16812    -45.8 1.184e+04 9.277e-10
 87.18862    -47.4 1.177e+04 9.381e-10
 87.20792    -48.9 1.165e+04 9.195e-10
 87.21817    -48.3 1.195e+04 1.087e-09
 87.22961    -49.5 1.166e+04 9.802e-10
 87.25011    -50.6 1.137e+04 8.463e-10
 87.27061    -51.6 1.099e+04 6.893e-10
 87.28280    -52.6 1.063e+04 5.503e-10
 87.29234    -52.5 1.064e+04 5.441e-10
 87.30065    -51.8 1.073e+04 5.644e-10
 87.31160    -52.9 1.031e+04 4.300e-10
 87.33210    -54.0 9.945e+03 3.410e-10
 87.34742    -54.8 9.799e+03 3.079e-10
 87.35767    -55.1 9.783e+03 3.034e-10
 87.37310    -55.9 9.755e+03 2.979e-10
 87.39359    -56.5 9.771e+03 2.985e-10
 87.41205    -57.7 9.845e+03 3.353e-10
 87.42230    -58.5 1.007e+04 3.801e-10
 87.43459    -59.8 1.084e+04 5.656e-10
 87.45509    -60.9 1.192e+04 9.119e-10
 87.47558    -61.9 1.318e+04 1.518e-09
 87.48692    -62.4 1.438e+04 2.451e-09
 87.49716    -62.9 1.459e+04 2.594e-09
 87.51657    -62.2 1.485e+04 2.943e-09
 87.53707    -62.5 1.557e+04 3.809e-09
 87.55155    -63.0 1.590e+04 4.344e-09
 87.56180    -63.8 1.588e+04 4.208e-09
 87.57807    -64.6 1.593e+04 4.289e-09
 87.59857    -65.2 1.561e+04 4.055e-09
 87.61617    -65.7 1.493e+04 3.274e-09
 87.62642    -66.6 1.458e+04 2.810e-09
 87.63956    -67.2 1.383e+04 2.183e-09
 87.66006    -67.6 1.310e+04 1.682e-09
 87.68056    -67.9 1.243e+04 1.297e-09
 87.69105    -68.2 1.182e+04 1.005e-09
 87.70129    -69.3 1.169e+04 9.574e-10
 87.71199    -69.5 1.125e+04 7.841e-10
 87.72224    -68.5 1.145e+04 8.645e-10
 87.74205    -68.5 1.110e+04 7.324e-10
 87.75567    -68.5 1.085e+04 6.413e-10
 87.76592    -70.2 1.091e+04 6.673e-10
 87.78304    -70.3 1.075e+04 6.239e-10
 87.80354    -70.3 1.066e+04 6.091e-10
 87.82030    -70.2 1.063e+04 6.071e-10
 87.83054    -71.9 1.063e+04 6.119e-10
 87.84453    -71.6 1.059e+04 6.032e-10
 87.86503    -71.2 1.055e+04 5.929e-10
 87.88492    -70.8 1.050e+04 5.718e-10
 87.89517    -72.5 1.032e+04 5.180e-10
 87.90603    -72.1 1.016e+04 4.802e-10
 87.91767    -71.6 9.946e+03 4.444e-10
 87.92792    -70.9 1.022e+04 5.063e-10
 87.94702    -70.3 9.980e+03 4.569e-10
 87.95979    -69.6 9.795e+03 4.180e-10
 87.97004    -70.2 9.660e+03 4.035e-10
 87.99836    -68.7 9.660e+03 3.848e-10
 88.02461    -67.1 9.508e+03 3.448e-10
 88.04511    -68.2 9.522e+03 3.459e-10
 88.08045    -66.0 9.305e+03 3.000e-10
 88.12144    -63.6 9.105e+03 2.627e-10
 88.15386    -61.0 9.005e+03 2.446e-10
 88.17436    -61.0 9.155e+03 2.731e-10
 88.20343    -58.2 9.149e+03 2.729e-10
 88.24443    -55.2 9.228e+03 2.859e-10
 88.28311    -52.2 9.317e+03 2.998e-10
 88.30361    -51.7 9.509e+03 3.487e-10
 88.31896    -48.6 9.530e+03 3.487e-10
 88.33946    -47.8 9.451e+03 3.286e-10
 88.36741    -44.8 9.446e+03 3.177e-10
 88.40841    -41.7 9.399e+03 2.994e-10
 88.43286    -38.5 9.350e+03 2.787e-10
 88.45336    -37.8 9.470e+03 3.010e-10
 88.49040    -34.5 9.401e+03 2.744e-10
 88.53139    -31.2 9.376e+03 2.558e-10
 88.56211    -27.8 9.398e+03 2.453e-10
 88.58261    -26.9 9.512e+03 2.623e-10
 88.61338    -23.4 9.569e+03 2.588e-10
 88.65438    -20.0 9.632e+03 2.526e-10
 88.69136    -16.4 9.632e+03 2.406e-10
 88.71186    -15.8 9.722e+03 2.549e-10
 88.73031    -12.2 9.708e+03 2.408e-10
 88.75081    -11.7 9.539e+03 2.044e-10
 88.77736     -8.1 9.544e+03 1.980e-10
 88.81835     -4.5 9.556e+03 1.950e-10
 88.84111     -0.7 9.609e+03 1.956e-10
 88.86161     -0.4 9.799e+03 2.230e-10
 88.90034      3.5 9.894e+03 2.322e-10
 88.94134      7.5 1.003e+04 2.441e-10
 88.97036     11.4 1.022e+04 2.579e-10
 88.98051     10.8 1.047e+04 3.128e-10
 88.99239     11.9 1.051e+04 3.215e-10
 89.01288     14.6 1.086e+04 3.697e-10
 89.03338     15.9 1.088e+04 3.899e-10
 89.04504     18.7 1.117e+04 4.603e-10
 89.05529     18.6 1.176e+04 6.916e-10
 89.07438     21.2 1.187e+04 7.631e-10
 89.09487     24.2 1.212e+04 8.695e-10
 89.10966     27.2 1.231e+04 9.323e-10
 89.11991     27.7 1.273e+04 1.240e-09
 89.13587     30.7 1.287e+04 1.252e-09
 89.15171     33.8 1.305e+04 1.239e-09
 89.16196     32.2 1.319e+04 1.358e-09
 89.17429     35.0 1.348e+04 1.402e-09
 89.18454     34.6 1.416e+04 1.574e-09
 89.19736     37.0 1.443e+04 1.476e-09
 89.21786     39.5 1.456e+04 1.397e-09
 89.23836     42.0 1.486e+04 1.338e-09
 89.24911     44.4 1.502e+04 1.188e-09
 89.25419     42.8 1.709e+04 1.282e-09
 89.25958     43.2 1.790e+04 1.341e-09
 89.26470     42.8 1.661e+04 1.403e-09
 89.27413     44.6 1.679e+04 1.309e-09
 89.28138     45.1 1.712e+04 1.344e-09
 89.28650     38.6 3.007e+04 3.561e-09
 89.29463     39.3 3.117e+04 3.535e-09
 89.30487     37.1 3.820e+04 3.746e-09
 89.31369      9.0 1.053e+05 2.214e-09
 89.31879    -18.0 7.710e+04 2.195e-08
 89.32276    -25.7 6.342e+04 6.728e-08
 89.32788    -39.1 2.541e+04 6.311e-06
 89.33236    -55.9 1.908e+04 2.495e-05
 89.33492    -75.2 2.052e+04 8.965e-06
 89.33813    -88.1 2.201e+04 1.721e-06
 89.34326    -92.1 2.495e+04 6.981e-07
 89.34838    -97.2 3.581e+04 1.412e-07
 89.35108   -106.7 5.685e+04 1.207e-08
 89.35364   -111.8 5.744e+04 7.305e-09
 89.35863   -123.4 5.333e+04 3.555e-09
 89.36239   -142.5 3.983e+04 1.583e-09
 89.36495   -124.6 5.654e+04 4.286e-09
 89.36723   -135.2 5.339e+04 2.301e-09
 89.36980   -134.4 5.220e+04 2.575e-09
 89.37659   -155.0 4.454e+04 9.883e-10
 89.38344   -170.3 4.846e+04 4.326e-10
 89.38856   -165.0 4.463e+04 5.151e-10
 89.39711   -160.6 8.885e+04 2.709e-10
 89.40736   -152.9 1.081e+05 3.494e-10
 89.41575   -129.2 1.251e+05 5.308e-10
 89.42088   -137.8 1.098e+05 8.333e-10
 89.42786   -111.5 8.173e+04 4.919e-09
 89.43811    -93.2 6.087e+04 2.826e-08
 89.44806    -90.3 6.562e+04 3.066e-08
 89.45324   -140.8 1.586e+05 4.673e-10
 89.46383   -149.3 1.422e+05 6.324e-10
 89.48432   -185.1 4.154e+04 2.223e-09
 89.50482   -195.2 1.864e+04 3.560e-09
 89.51791   -196.3 1.715e+04 3.682e-09
 89.52816   -192.0 1.685e+04 3.207e-09
 89.54582   -193.9 1.602e+04 2.605e-09
 89.56306   -195.1 1.469e+04 1.567e-09
 89.57331   -195.4 1.417e+04 1.331e-09
 89.58254   -196.5 1.266e+04 7.573e-10
 89.59278   -192.6 1.287e+04 8.943e-10
 89.60731   -193.3 1.167e+04 5.513e-10
 89.62780   -193.3 1.102e+04 3.867e-10
 89.64716   -193.1 1.092e+04 3.195e-10
 89.65741   -189.3 1.085e+04 3.541e-10
 89.67915   -188.2 1.078e+04 3.313e-10
 89.72024   -186.9 1.074e+04 3.341e-10
 89.76123   -184.4 1.071e+04 3.802e-10
 89.78686   -182.1 1.095e+04 4.814e-10
 89.80735   -179.6 1.058e+04 4.016e-10
 89.84322   -178.0 1.071e+04 4.622e-10
 89.88422   -176.7 1.072e+04 4.804e-10
 89.91611   -175.3 1.053e+04 4.589e-10
 89.93660   -173.6 1.023e+04 3.626e-10
 89.96435   -172.3 9.899e+03 3.059e-10
 89.98485   -171.3 9.935e+03 3.037e-10
 90.00720   -169.8 9.549e+03 2.318e-10
 90.04536   -168.3 9.088e+03 1.586e-10
 90.06585   -167.1 8.962e+03 1.453e-10
 90.08919   -165.7 8.618e+03 1.022e-10
 90.13019   -164.4 8.507e+03 8.481e-11
 90.17118   -163.5 8.498e+03 8.197e-11
 90.19510   -163.1 8.522e+03 8.249e-11
 90.21560   -161.8 8.452e+03 8.169e-11
 90.25317   -161.6 8.674e+03 9.726e-11
 90.29416   -161.8 8.975e+03 1.362e-10
 90.32435   -162.2 9.200e+03 1.830e-10
 90.34485   -160.9 9.263e+03 1.951e-10
 90.37570   -161.4 9.455e+03 2.491e-10
 90.39620   -161.4 9.796e+03 3.188e-10
 90.41715   -162.1 9.997e+03 3.956e-10
 90.45360   -162.8 1.013e+04 4.537e-10
 90.47410   -161.6 1.050e+04 5.790e-10
 90.49914   -162.3 1.065e+04 6.478e-10
 90.54013   -163.1 1.079e+04 7.075e-10
 90.58113   -164.0 1.097e+04 7.726e-10
 90.60335   -165.0 1.117e+04 8.417e-10
 90.61350   -164.0 1.104e+04 8.281e-10
 90.63218   -164.7 1.108e+04 8.518e-10
 90.65267   -165.4 1.113e+04 8.703e-10
 90.66778   -166.2 1.115e+04 8.753e-10
 90.67803   -165.9 1.122e+04 8.968e-10
 90.69367   -166.6 1.123e+04 8.993e-10
 90.71416   -167.1 1.120e+04 8.963e-10
 90.73241   -167.6 1.111e+04 8.694e-10
 90.74265   -166.8 1.090e+04 7.816e-10
 90.75516   -167.1 1.083e+04 7.566e-10
 90.77566   -167.2 1.076e+04 7.293e-10
 90.79615   -167.2 1.070e+04 7.079e-10
 90.80745   -167.4 1.064e+04 6.789e-10
 90.82804   -167.0 1.026e+04 5.496e-10
 90.86185   -167.0 1.005e+04 4.899e-10
 90.88235   -166.1 9.941e+03 4.462e-10
 90.90908   -165.8 9.851e+03 4.187e-10
 90.95008   -165.4 9.840e+03 4.066e-10
 90.99107   -165.2 9.844e+03 4.048e-10
 91.03207   -164.5 9.969e+03 4.075e-10
 91.07306   -164.8 1.021e+04 4.602e-10
 91.11406   -165.2 1.042e+04 5.199e-10
 91.14085   -165.5 1.054e+04 5.637e-10
 91.16135   -164.3 1.015e+04 4.580e-10
 91.19605   -164.2 1.010e+04 4.389e-10
 91.21889   -163.8 9.999e+03 3.780e-10
 91.23939   -163.3 9.772e+03 3.080e-10
 91.27010   -162.9 9.679e+03 2.607e-10
 91.29060   -161.4 9.229e+03 1.484e-10
 91.31903   -160.9 9.182e+03 1.221e-10
 91.36003   -160.1 9.170e+03 1.091e-10
 91.39935   -159.1 9.166e+03 1.047e-10
 91.41985   -157.8 9.007e+03 7.164e-11
 91.44202   -156.7 9.013e+03 7.167e-11
 91.48301   -156.2 9.068e+03 7.309e-11
 91.52401   -155.9 9.465e+03 9.545e-11
 91.54910   -155.6 9.928e+03 1.737e-10
 91.56959   -154.2 9.814e+03 1.392e-10
 91.60599   -153.9 1.025e+04 2.558e-10
 91.63024   -153.9 1.071e+04 4.122e-10
 91.65074   -152.8 1.081e+04 4.474e-10
 91.67835   -153.3 1.123e+04 6.424e-10
 91.69884   -151.7 1.113e+04 5.727e-10
 91.72898   -152.5 1.135e+04 7.010e-10
 91.76997   -153.4 1.137e+04 7.250e-10
 91.80760   -153.9 1.113e+04 6.855e-10
 91.82809   -152.4 1.135e+04 7.110e-10
 91.85196   -152.4 1.111e+04 6.525e-10
 91.89296   -152.1 1.085e+04 5.288e-10
 91.93395   -151.6 1.061e+04 4.079e-10
 91.95734   -151.5 1.044e+04 3.329e-10
 91.97784   -151.3 1.077e+04 4.430e-10
 92.01594   -152.6 1.081e+04 4.288e-10
 92.04159   -156.1 1.174e+04 5.160e-10
 92.06209   -154.4 1.140e+04 5.256e-10
 92.08650   -158.9 1.310e+04 9.239e-10
 92.09665   -158.9 1.349e+04 1.130e-09
 92.10798   -160.9 1.446e+04 2.081e-09
 92.12848   -162.7 1.513e+04 3.343e-09
 92.14898   -164.2 1.539e+04 4.137e-09
 92.16127   -166.0 1.541e+04 4.285e-09
 92.17152   -166.1 1.518e+04 4.185e-09
 92.18997   -167.5 1.450e+04 3.304e-09
 92.21047   -168.8 1.357e+04 2.047e-09
 92.22590   -170.4 1.252e+04 1.172e-09
 92.23615   -170.9 1.191e+04 8.265e-10
 92.24707   -172.2 1.112e+04 5.242e-10
 92.25732   -171.5 1.134e+04 5.923e-10
 92.27196   -172.3 1.079e+04 4.153e-10
 92.29052   -172.7 1.057e+04 3.369e-10
 92.30077   -172.8 1.044e+04 3.052e-10
 92.31296   -172.9 1.041e+04 2.937e-10
 92.34380   -173.2 1.037e+04 2.823e-10
 92.36559   -173.1 1.016e+04 2.491e-10
 92.38609   -173.2 1.014e+04 2.582e-10
 92.42589   -172.6 9.990e+03 2.337e-10
 92.45294   -171.8 9.855e+03 2.106e-10
 92.47344   -170.9 9.905e+03 2.106e-10
 92.49484   -170.0 9.788e+03 1.894e-10
 92.51534   -170.0 9.957e+03 2.683e-10
 92.54887   -169.1 9.831e+03 2.455e-10
 92.58987   -167.9 9.674e+03 2.198e-10
 92.62409   -166.6 9.509e+03 1.956e-10
 92.64459   -166.7 9.534e+03 2.240e-10
 92.67186   -165.2 9.374e+03 1.929e-10
 92.71285   -163.6 9.261e+03 1.687e-10
 92.75334   -161.9 9.200e+03 1.518e-10
 92.77384   -162.0 9.134e+03 1.435e-10
 92.79484   -160.3 9.083e+03 1.259e-10
 92.83584   -158.6 9.052e+03 1.115e-10
 92.86429   -156.9 9.046e+03 1.008e-10
 92.88478   -156.4 9.094e+03 1.039e-10
 92.90309   -154.8 9.116e+03 9.889e-11
 92.92359   -155.0 9.022e+03 8.781e-11
 92.95882   -153.5 9.027e+03 8.748e-11
 92.99981   -152.2 9.118e+03 9.165e-11
 93.03234   -151.1 9.333e+03 1.172e-10
 93.05284   -151.2 9.206e+03 1.071e-10
 93.08180   -150.1 9.357e+03 1.374e-10
 93.12280   -149.0 9.494e+03 1.679e-10
 93.16159   -148.2 9.621e+03 1.899e-10
 93.18209   -147.9 9.398e+03 1.499e-10
 93.20479   -147.0 9.482e+03 1.593e-10
 93.24578   -146.3 9.531e+03 1.626e-10
 93.27563   -145.6 9.551e+03 1.637e-10
 93.29613   -145.1 9.543e+03 1.523e-10
 93.31134   -144.4 9.584e+03 1.603e-10
 93.33183   -143.9 9.468e+03 1.355e-10
 93.36877   -143.2 9.545e+03 1.513e-10
 93.40976   -142.5 9.617e+03 1.705e-10
 93.44059   -141.9 9.682e+03 1.901e-10
 93.46108   -141.4 9.571e+03 1.662e-10
 93.49175   -140.8 9.596e+03 1.780e-10
 93.53275   -140.1 9.607e+03 1.851e-10
 93.56984   -139.3 9.625e+03 1.911e-10
 93.59033   -138.9 9.489e+03 1.590e-10
 93.61474   -138.1 9.537e+03 1.696e-10
 93.65573   -137.5 9.638e+03 1.872e-10
 93.68698   -137.0 9.755e+03 2.072e-10
 93.70748   -136.4 9.686e+03 2.048e-10
 93.71958   -136.0 9.762e+03 2.135e-10
 93.74008   -135.9 9.717e+03 2.004e-10
 93.77871   -135.6 9.742e+03 2.040e-10
 93.81971   -135.4 9.749e+03 2.031e-10
 93.84883   -135.3 9.746e+03 1.962e-10
 93.86933   -135.5 9.784e+03 2.049e-10
 93.90170   -135.4 9.795e+03 2.026e-10
 93.94269   -135.6 9.821e+03 2.035e-10
 93.97808   -136.1 1.009e+04 2.655e-10
 93.99858   -137.2 1.059e+04 4.522e-10
 94.02468   -137.8 1.137e+04 7.429e-10
 94.05286   -137.7 1.192e+04 1.018e-09
 94.06301   -137.9 1.196e+04 1.103e-09
 94.07573   -138.5 1.233e+04 1.336e-09
 94.09823   -139.2 1.271e+04 1.632e-09
 94.11883   -138.3 1.282e+04 1.714e-09
 94.12773   -139.7 1.336e+04 2.410e-09
 94.13789   -140.4 1.325e+04 2.292e-09
 94.15772   -140.7 1.351e+04 2.647e-09
 94.17822   -141.0 1.374e+04 2.978e-09
 94.19226   -141.4 1.385e+04 3.100e-09
 94.20251   -142.4 1.338e+04 2.396e-09
 94.21921   -143.1 1.340e+04 2.401e-09
 94.23971   -143.8 1.335e+04 2.279e-09
 94.25689   -144.5 1.321e+04 2.029e-09
 94.26714   -146.3 1.260e+04 1.602e-09
 94.28070   -147.1 1.247e+04 1.513e-09
 94.30120   -148.5 1.234e+04 1.423e-09
 94.31406   -149.3 1.233e+04 1.407e-09
 94.32412   -149.6 1.239e+04 1.481e-09
 94.33176   -149.9 1.239e+04 1.486e-09
 94.34220   -151.3 1.249e+04 1.516e-09
 94.36269   -152.8 1.273e+04 1.595e-09
 94.38319   -154.7 1.290e+04 1.673e-09
 94.39639   -156.7 1.293e+04 1.705e-09
 94.40663   -156.5 1.335e+04 1.970e-09
 94.42419   -158.6 1.337e+04 2.006e-09
 94.44468   -160.6 1.333e+04 2.007e-09
 94.46101   -162.5 1.315e+04 1.934e-09
 94.47126   -162.6 1.398e+04 2.630e-09
 94.48568   -164.3 1.365e+04 2.482e-09
 94.50618   -165.7 1.325e+04 2.144e-09
 94.51973   -166.9 1.280e+04 1.720e-09
 94.52894   -166.9 1.293e+04 1.807e-09
 94.53588   -167.1 1.379e+04 2.604e-09
 94.54717   -168.4 1.306e+04 1.834e-09
 94.56767   -169.6 1.241e+04 1.306e-09
 94.58816   -170.8 1.190e+04 9.954e-10
 94.60051   -171.7 1.156e+04 8.307e-10
 94.61076   -172.0 1.177e+04 1.031e-09
 94.62916   -172.4 1.151e+04 8.956e-10
 94.64966   -172.6 1.135e+04 7.952e-10
 94.66513   -172.7 1.123e+04 6.864e-10
 94.67538   -172.9 1.137e+04 6.933e-10
 94.69065   -172.9 1.125e+04 5.579e-10
 94.71115   -173.1 1.115e+04 4.330e-10
 94.72540   -173.3 1.106e+04 3.449e-10
 94.73377   -173.5 1.104e+04 3.390e-10
 94.74001   -173.6 1.105e+04 3.359e-10
 94.76249   -173.8 1.097e+04 2.906e-10
 94.79458   -173.9 1.081e+04 2.476e-10
 94.81508   -174.3 1.099e+04 2.664e-10
 94.84458   -174.3 1.087e+04 2.440e-10
 94.88557   -174.2 1.084e+04 2.418e-10
 94.92102   -174.2 1.093e+04 2.726e-10
 94.93879   -174.2 1.124e+04 3.312e-10
 94.94433   -173.9 1.122e+04 3.313e-10
 94.96756   -173.9 1.119e+04 3.776e-10
 94.99821   -173.7 1.105e+04 3.819e-10
 95.00876   -173.8 1.102e+04 3.952e-10
 95.01901   -173.7 1.104e+04 3.921e-10
 95.03911   -173.8 1.099e+04 4.050e-10
 95.05960   -173.9 1.098e+04 4.075e-10
 95.07348   -174.6 1.084e+04 4.216e-10
 95.09407   -174.4 1.094e+04 4.156e-10
 95.13154   -174.6 1.079e+04 4.099e-10
 95.17253   -175.0 1.065e+04 3.774e-10
 95.20283   -175.5 1.057e+04 3.403e-10
 95.22332   -174.4 1.065e+04 3.450e-10
 95.24418   -175.0 1.061e+04 3.393e-10
 95.26458   -175.7 1.067e+04 3.403e-10
 95.27751   -177.0 1.091e+04 3.648e-10
 95.28775   -177.5 1.116e+04 4.319e-10
 95.30557   -179.2 1.141e+04 5.877e-10
 95.32607   -180.6 1.161e+04 7.858e-10
 95.34213   -181.7 1.178e+04 9.541e-10
 95.34824   -181.6 1.212e+04 1.191e-09
 95.35267   -182.4 1.210e+04 1.182e-09
 95.36706   -183.7 1.212e+04 1.203e-09
 95.38756   -185.2 1.198e+04 1.139e-09
 95.40676   -186.8 1.154e+04 8.536e-10
 95.41700   -186.5 1.171e+04 9.219e-10
 95.42856   -188.4 1.101e+04 5.767e-10
 95.44905   -190.2 1.031e+04 3.798e-10
 95.46955   -191.2 9.908e+03 3.008e-10
 95.48173   -192.0 9.672e+03 2.539e-10
 95.50232   -191.7 9.679e+03 2.570e-10
 95.54149   -192.6 9.281e+03 1.826e-10
 95.58248   -193.6 9.015e+03 1.377e-10
 95.61107   -194.3 8.869e+03 1.159e-10
 95.63157   -193.9 9.026e+03 1.396e-10
 95.66447   -194.4 8.957e+03 1.326e-10
 95.70547   -194.9 8.936e+03 1.314e-10
 95.74032   -195.3 8.936e+03 1.316e-10
 95.75808   -195.5 9.173e+03 1.750e-10
 95.76422   -196.3 9.235e+03 1.894e-10
 95.78746   -196.9 9.254e+03 2.027e-10
 95.82845   -197.6 9.465e+03 2.430e-10
 95.86944   -198.5 9.736e+03 3.001e-10
 95.91044   -200.4 1.016e+04 4.088e-10
 95.95143   -201.9 1.023e+04 4.382e-10
 95.99243   -203.4 1.021e+04 4.412e-10
 96.01932   -204.4 1.002e+04 4.088e-10
 96.03982   -204.5 1.034e+04 4.944e-10
 96.07442   -204.8 1.006e+04 4.130e-10
 96.11541   -205.1 9.978e+03 3.760e-10
 96.14857   -205.1 9.983e+03 3.720e-10
 96.16763   -205.4 1.021e+04 4.379e-10
 96.17537   -206.3 1.038e+04 5.066e-10
 96.18696   -206.8 1.055e+04 5.696e-10
 96.20746   -207.3 1.070e+04 6.452e-10
 96.23830   -207.9 1.080e+04 7.119e-10
 96.27782   -207.5 1.086e+04 7.565e-10
 96.29832   -208.2 1.137e+04 9.936e-10
 96.32039   -207.7 1.140e+04 1.007e-09
 96.36138   -207.6 1.142e+04 1.019e-09
 96.40238   -207.7 1.158e+04 1.075e-09
 96.42757   -208.5 1.190e+04 1.213e-09
 96.43772   -207.9 1.193e+04 1.259e-09
 96.45342   -208.4 1.204e+04 1.296e-09
 96.47392   -209.1 1.209e+04 1.318e-09
 96.49200   -210.0 1.207e+04 1.305e-09
 96.50225   -210.1 1.236e+04 1.464e-09
 96.51492   -211.3 1.230e+04 1.414e-09
 96.53541   -212.7 1.222e+04 1.333e-09
 96.55591   -214.1 1.205e+04 1.210e-09
 96.56687   -215.5 1.183e+04 1.075e-09
 96.57712   -216.8 1.255e+04 1.352e-09
 96.59691   -218.0 1.161e+04 8.313e-10
 96.61740   -218.6 1.155e+04 8.152e-10
 96.64825   -219.1 1.145e+04 8.117e-10
 96.68607   -219.0 1.112e+04 7.483e-10
 96.70657   -219.6 1.111e+04 8.394e-10
 96.73033   -219.4 1.097e+04 7.697e-10
 96.77133   -219.1 1.095e+04 7.550e-10
 96.81232   -219.1 1.102e+04 7.620e-10
 96.83582   -219.4 1.119e+04 8.004e-10
 96.85632   -220.0 1.126e+04 8.080e-10
 96.89431   -221.1 1.133e+04 8.403e-10
 96.93531   -222.3 1.129e+04 8.330e-10
 96.96507   -222.9 1.097e+04 6.696e-10
 96.98557   -224.1 1.096e+04 6.079e-10
 96.99826   -224.5 1.056e+04 4.029e-10
 97.01876   -223.9 1.042e+04 3.519e-10
 97.05829   -224.3 1.007e+04 2.321e-10
 97.09432   -224.3 9.754e+03 1.585e-10
 97.11482   -225.0 9.711e+03 1.721e-10
 97.14028   -224.1 9.444e+03 1.243e-10
 97.18128   -222.9 9.325e+03 9.731e-11
 97.22227   -221.7 9.298e+03 8.347e-11
 97.24407   -220.4 9.313e+03 7.777e-11
 97.26456   -220.7 9.457e+03 8.872e-11
 97.30426   -219.3 9.461e+03 8.835e-11
 97.34525   -217.8 9.483e+03 8.863e-11
 97.37332   -216.2 9.548e+03 9.135e-11
 97.39381   -216.6 9.689e+03 1.003e-10
 97.40961   -214.9 9.722e+03 1.012e-10
 97.43011   -214.5 9.703e+03 9.793e-11
 97.46824   -212.8 9.760e+03 1.005e-10
 97.50257   -211.2 9.816e+03 1.033e-10
 97.52306   -211.5 9.859e+03 1.053e-10
 97.55023   -209.9 9.912e+03 1.081e-10
 97.59122   -208.3 9.952e+03 1.111e-10
 97.63182   -206.7 9.985e+03 1.137e-10
 97.65231   -207.0 9.933e+03 1.206e-10
 97.67321   -205.4 9.931e+03 1.209e-10
 97.71421   -203.8 9.931e+03 1.208e-10
 97.75520   -202.3 9.953e+03 1.214e-10
 97.78156   -200.9 1.005e+04 1.242e-10
 97.80206   -201.0 1.001e+04 1.247e-10
 97.82096   -199.9 1.021e+04 1.429e-10
 97.84145   -199.5 1.010e+04 1.245e-10
 97.87819   -198.7 1.035e+04 1.525e-10
 97.91081   -198.2 1.061e+04 2.072e-10
 97.93131   -198.5 1.069e+04 2.940e-10
 97.96017   -198.2 1.109e+04 4.387e-10
 98.00117   -198.1 1.150e+04 6.425e-10
 98.04006   -198.2 1.186e+04 8.684e-10
 98.06056   -198.2 1.186e+04 9.027e-10
 98.08316   -198.5 1.209e+04 9.984e-10
 98.12415   -199.4 1.214e+04 1.019e-09
 98.16515   -200.3 1.207e+04 9.460e-10
 98.18981   -200.7 1.189e+04 7.817e-10
 98.21031   -201.7 1.202e+04 6.678e-10
 98.23230   -201.9 1.173e+04 5.284e-10
 98.25280   -201.5 1.132e+04 3.780e-10
 98.28813   -201.4 1.111e+04 3.172e-10
 98.31906   -200.8 1.096e+04 2.807e-10
 98.33956   -201.6 1.094e+04 2.920e-10
 98.37012   -200.8 1.093e+04 2.883e-10
 98.41112   -199.9 1.095e+04 2.953e-10
 98.44831   -199.0 1.101e+04 3.045e-10
 98.46881   -199.8 1.115e+04 2.786e-10
 98.49311   -198.8 1.124e+04 2.836e-10
 98.53410   -197.8 1.126e+04 2.843e-10
 98.57510   -196.6 1.132e+04 2.738e-10
 98.59806   -195.3 1.136e+04 2.450e-10
 98.61856   -196.0 1.136e+04 2.238e-10
 98.64365   -194.5 1.128e+04 2.051e-10
 98.66415   -194.0 1.134e+04 2.361e-10
 98.69808   -192.6 1.128e+04 2.275e-10
 98.72731   -191.2 1.125e+04 2.257e-10
 98.74781   -191.2 1.119e+04 2.288e-10
 98.78007   -189.6 1.116e+04 2.342e-10
 98.82106   -188.2 1.113e+04 2.504e-10
 98.85656   -186.9 1.111e+04 2.650e-10
 98.87706   -186.5 1.110e+04 2.903e-10
 98.90305   -185.2 1.112e+04 3.100e-10
 98.94405   -184.0 1.114e+04 3.142e-10
 98.98504   -182.9 1.094e+04 3.047e-10
 99.00631   -181.8 1.085e+04 2.586e-10
 99.02680   -181.1 1.099e+04 3.551e-10
 99.05500   -180.1 1.078e+04 3.186e-10
 99.07550   -180.3 1.078e+04 3.160e-10
 99.10803   -179.1 1.065e+04 2.677e-10
 99.13556   -177.7 1.052e+04 2.194e-10
 99.15605   -177.2 1.060e+04 3.254e-10
 99.19002   -175.6 1.040e+04 2.601e-10
 99.23101   -173.7 1.026e+04 2.031e-10
 99.26481   -171.8 1.017e+04 1.634e-10
 99.28530   -171.5 1.034e+04 2.019e-10
 99.31300   -169.5 1.031e+04 1.758e-10
 99.35399   -167.5 1.037e+04 1.633e-10
 99.39406   -165.5 1.041e+04 1.604e-10
 99.41455   -165.5 1.046e+04 2.544e-10
 99.43598   -163.7 1.050e+04 2.902e-10
 99.46635   -161.9 1.054e+04 3.237e-10
 99.48684   -161.9 1.053e+04 3.133e-10
 99.51797   -160.1 1.055e+04 3.380e-10
 99.54380   -158.3 1.055e+04 3.495e-10
 99.56430   -158.3 1.064e+04 3.610e-10
 99.59996   -156.5 1.056e+04 3.503e-10
 99.64096   -154.7 1.052e+04 3.251e-10
 99.67305   -152.9 1.051e+04 2.977e-10
 99.69355   -153.0 1.065e+04 1.994e-10
 99.72295   -151.3 1.070e+04 1.815e-10
 99.76394   -149.6 1.075e+04 1.731e-10
 99.80230   -148.1 1.076e+04 1.721e-10
 99.82280   -148.7 1.082e+04 1.269e-10
 99.84593   -147.8 1.118e+04 1.324e-10
 99.87770   -147.2 1.142e+04 1.815e-10
 99.89819   -147.0 1.146e+04 2.126e-10
 99.92792   -146.6 1.161e+04 3.253e-10
 99.95205   -146.5 1.188e+04 4.581e-10
 99.97255   -146.9 1.178e+04 3.244e-10
100.00991   -147.3 1.192e+04 3.391e-10
